key_resp_pract.keys,key_resp_pract.rt,trial_acc,trial_index,practice_loop.thisRepN,practice_loop.thisTrialN,practice_loop.thisN,practice_loop.thisIndex,practice_loop.ran,practice_loop.order,scn_condition,scn_cat,scn_inst,scn_file,obj_cat,obj_cat_num,obj_file,trial_cond,quadrant,obj_x,obj_y,corr_ans,participant,date,expName,psychopyVersion,OS,frameRate,key_resp_trial.keys,key_resp_trial.rt,iterations.thisRepN,iterations.thisTrialN,iterations.thisN,iterations.thisIndex,iterations.ran,iterations.order,task_innerloop.thisRepN,task_innerloop.thisTrialN,task_innerloop.thisN,task_innerloop.thisIndex,task_innerloop.ran,task_innerloop.order,iteration_index,rating_acc,slider.response,slider.rt,slider_2.response,slider_2.rt,ratings.thisRepN,ratings.thisTrialN,ratings.thisN,ratings.thisIndex,ratings.ran,ratings.order,obj_cat_top,min_resp_top,max_resp_top,obj_cat_bottom,min_resp_bottom,max_resp_bottom
,,0,1,1,0,240,12,1,239,1,5,1,stim/51.jpeg,HouseObjects,1,stim/objects/HouseObjects/iron.png,0.5,2,0.2,0.15,left,7,2020-12-14_18h37.38.435,premup-three_ses-01_part-01_label-phase1,3.2.4,Win32,60,,,,,,,,,,,,,,,,,,,,,,,,,,,,,,,,
right,1.863000154,1,2,1,0,240,178,1,239,3,3,3,stim/33.jpeg,Instruments,2,stim/objects/Instruments/musicstand2.png,0.9,4,0.2,-0.15,right,7,2020-12-14_18h37.38.435,premup-three_ses-01_part-01_label-phase1,3.2.4,Win32,60,,,,,,,,,,,,,,,,,,,,,,,,,,,,,,,,
left,1.138000011,1,3,1,0,240,147,1,239,2,2,4,stim/24.jpeg,HouseObjects,1,stim/objects/HouseObjects/knife2.png,0.7,4,0.2,-0.15,left,7,2020-12-14_18h37.38.435,premup-three_ses-01_part-01_label-phase1,3.2.4,Win32,60,,,,,,,,,,,,,,,,,,,,,,,,,,,,,,,,
right,1.188999891,0,4,1,0,240,19,1,239,1,5,4,stim/54.jpeg,HouseObjects,1,stim/objects/HouseObjects/knife.png,0.5,4,0.2,-0.15,left,7,2020-12-14_18h37.38.435,premup-three_ses-01_part-01_label-phase1,3.2.4,Win32,60,,,,,,,,,,,,,,,,,,,,,,,,,,,,,,,,
right,1.420000076,0,5,1,0,240,54,1,239,1,6,3,stim/63.jpeg,HouseObjects,1,stim/objects/HouseObjects/pan.png,0.5,3,-0.2,-0.15,left,7,2020-12-14_18h37.38.435,premup-three_ses-01_part-01_label-phase1,3.2.4,Win32,60,,,,,,,,,,,,,,,,,,,,,,,,,,,,,,,,
left,1.759000063,1,6,1,0,240,3,1,239,1,5,4,stim/54.jpeg,HouseObjects,1,stim/objects/HouseObjects/knife.png,0.5,4,0.2,-0.15,left,7,2020-12-14_18h37.38.435,premup-three_ses-01_part-01_label-phase1,3.2.4,Win32,60,,,,,,,,,,,,,,,,,,,,,,,,,,,,,,,,
right,1.148000002,0,7,1,0,240,81,1,239,2,1,2,stim/12.jpeg,HouseObjects,1,stim/objects/HouseObjects/remote.png,0.3,2,0.2,0.15,left,7,2020-12-14_18h37.38.435,premup-three_ses-01_part-01_label-phase1,3.2.4,Win32,60,,,,,,,,,,,,,,,,,,,,,,,,,,,,,,,,
left,0.616000175,0,8,1,0,240,69,1,239,1,6,2,stim/62.jpeg,Instruments,2,stim/objects/Instruments/musicsheet.png,0.5,1,-0.2,0.15,right,7,2020-12-14_18h37.38.435,premup-three_ses-01_part-01_label-phase1,3.2.4,Win32,60,,,,,,,,,,,,,,,,,,,,,,,,,,,,,,,,
left,1.048999786,0,9,1,0,240,152,1,239,2,2,1,stim/21.jpeg,Instruments,2,stim/objects/Instruments/keyboard2.png,0.3,4,0.2,-0.15,right,7,2020-12-14_18h37.38.435,premup-three_ses-01_part-01_label-phase1,3.2.4,Win32,60,,,,,,,,,,,,,,,,,,,,,,,,,,,,,,,,
right,1.325999975,1,10,1,0,240,24,1,239,1,5,1,stim/51.jpeg,Instruments,2,stim/objects/Instruments/keyboard.png,0.5,1,-0.2,0.15,right,7,2020-12-14_18h37.38.435,premup-three_ses-01_part-01_label-phase1,3.2.4,Win32,60,,,,,,,,,,,,,,,,,,,,,,,,,,,,,,,,
,,0,1,,,,,,,2,2,4,stim/24.jpeg,HouseObjects,1,stim/objects/HouseObjects/knife2.png,0.7,2,0.2,0.15,left,7,2020-12-14_18h37.38.435,premup-three_ses-01_part-01_label-phase1,3.2.4,Win32,60,,,4,0,4,0,1,3,1,0,240,135,1,239,,,,,,,,,,,,,,,,,,
,,1,2,,,,,,,2,1,1,stim/11.jpeg,Instruments,2,stim/objects/Instruments/panflute.png,0.7,1,-0.2,0.15,right,7,2020-12-14_18h37.38.435,premup-three_ses-01_part-01_label-phase1,3.2.4,Win32,60,right,0.559000015,4,0,4,0,1,3,1,0,240,92,1,239,,,,,,,,,,,,,,,,,,
,,1,3,,,,,,,2,1,1,stim/11.jpeg,Instruments,2,stim/objects/Instruments/panflute.png,0.7,2,0.2,0.15,right,7,2020-12-14_18h37.38.435,premup-three_ses-01_part-01_label-phase1,3.2.4,Win32,60,right,0.513000011,4,0,4,0,1,3,1,0,240,112,1,239,,,,,,,,,,,,,,,,,,
,,0,4,,,,,,,3,3,3,stim/33.jpeg,Instruments,2,stim/objects/Instruments/musicstand2.png,0.9,3,-0.2,-0.15,right,7,2020-12-14_18h37.38.435,premup-three_ses-01_part-01_label-phase1,3.2.4,Win32,60,left,0.444999933,4,0,4,0,1,3,1,0,240,186,1,239,,,,,,,,,,,,,,,,,,
,,0,5,,,,,,,1,6,2,stim/62.jpeg,Instruments,2,stim/objects/Instruments/musicsheet.png,0.5,1,-0.2,0.15,right,7,2020-12-14_18h37.38.435,premup-three_ses-01_part-01_label-phase1,3.2.4,Win32,60,left,0.667999983,4,0,4,0,1,3,1,0,240,69,1,239,,,,,,,,,,,,,,,,,,
,,0,6,,,,,,,1,6,2,stim/62.jpeg,HouseObjects,1,stim/objects/HouseObjects/match.png,0.5,3,-0.2,-0.15,left,7,2020-12-14_18h37.38.435,premup-three_ses-01_part-01_label-phase1,3.2.4,Win32,60,right,0.618999958,4,0,4,0,1,3,1,0,240,41,1,239,,,,,,,,,,,,,,,,,,
,,1,7,,,,,,,1,6,4,stim/64.jpeg,HouseObjects,1,stim/objects/HouseObjects/pitcher.png,0.5,3,-0.2,-0.15,left,7,2020-12-14_18h37.38.435,premup-three_ses-01_part-01_label-phase1,3.2.4,Win32,60,left,0.917000055,4,0,4,0,1,3,1,0,240,43,1,239,,,,,,,,,,,,,,,,,,
,,1,8,,,,,,,2,1,4,stim/14.jpeg,Instruments,2,stim/objects/Instruments/record_player.png,0.7,4,0.2,-0.15,right,7,2020-12-14_18h37.38.435,premup-three_ses-01_part-01_label-phase1,3.2.4,Win32,60,right,0.652000189,4,0,4,0,1,3,1,0,240,115,1,239,,,,,,,,,,,,,,,,,,
,,1,9,,,,,,,3,4,1,stim/41.jpeg,HouseObjects,1,stim/objects/HouseObjects/recyclingbin2.png,0.9,1,-0.2,0.15,left,7,2020-12-14_18h37.38.435,premup-three_ses-01_part-01_label-phase1,3.2.4,Win32,60,left,0.528000116,4,0,4,0,1,3,1,0,240,220,1,239,,,,,,,,,,,,,,,,,,
,,0,10,,,,,,,1,5,4,stim/54.jpeg,HouseObjects,1,stim/objects/HouseObjects/knife.png,0.5,4,0.2,-0.15,left,7,2020-12-14_18h37.38.435,premup-three_ses-01_part-01_label-phase1,3.2.4,Win32,60,right,0.444999933,4,0,4,0,1,3,1,0,240,19,1,239,,,,,,,,,,,,,,,,,,
,,0,11,,,,,,,2,2,3,stim/23.jpeg,Instruments,2,stim/objects/Instruments/maraca2.png,0.3,1,-0.2,0.15,right,7,2020-12-14_18h37.38.435,premup-three_ses-01_part-01_label-phase1,3.2.4,Win32,60,left,0.83100009,4,0,4,0,1,3,1,0,240,150,1,239,,,,,,,,,,,,,,,,,,
,,0,12,,,,,,,1,5,2,stim/52.jpeg,Instruments,2,stim/objects/Instruments/laud.png,0.5,4,0.2,-0.15,right,7,2020-12-14_18h37.38.435,premup-three_ses-01_part-01_label-phase1,3.2.4,Win32,60,left,1.214999914,4,0,4,0,1,3,1,0,240,37,1,239,,,,,,,,,,,,,,,,,,
,,1,13,,,,,,,1,5,4,stim/54.jpeg,Instruments,2,stim/objects/Instruments/marimba.png,0.5,2,0.2,0.15,right,7,2020-12-14_18h37.38.435,premup-three_ses-01_part-01_label-phase1,3.2.4,Win32,60,right,0.723999977,4,0,4,0,1,3,1,0,240,23,1,239,,,,,,,,,,,,,,,,,,
,,1,14,,,,,,,3,3,1,stim/31.jpeg,Instruments,2,stim/objects/Instruments/metronome2.png,0.9,4,0.2,-0.15,right,7,2020-12-14_18h37.38.435,premup-three_ses-01_part-01_label-phase1,3.2.4,Win32,60,right,0.681999922,4,0,4,0,1,3,1,0,240,168,1,239,,,,,,,,,,,,,,,,,,
,,1,15,,,,,,,3,3,1,stim/31.jpeg,Instruments,2,stim/objects/Instruments/metronome2.png,0.9,1,-0.2,0.15,right,7,2020-12-14_18h37.38.435,premup-three_ses-01_part-01_label-phase1,3.2.4,Win32,60,right,0.75999999,4,0,4,0,1,3,1,0,240,172,1,239,,,,,,,,,,,,,,,,,,
,,1,16,,,,,,,3,4,3,stim/43.jpeg,HouseObjects,1,stim/objects/HouseObjects/rubbergloves2.png,0.9,2,0.2,0.15,left,7,2020-12-14_18h37.38.435,premup-three_ses-01_part-01_label-phase1,3.2.4,Win32,60,left,0.906000137,4,0,4,0,1,3,1,0,240,214,1,239,,,,,,,,,,,,,,,,,,
,,0,17,,,,,,,1,6,3,stim/63.jpeg,HouseObjects,1,stim/objects/HouseObjects/pan.png,0.5,1,-0.2,0.15,left,7,2020-12-14_18h37.38.435,premup-three_ses-01_part-01_label-phase1,3.2.4,Win32,60,right,0.65899992,4,0,4,0,1,3,1,0,240,58,1,239,,,,,,,,,,,,,,,,,,
,,1,18,,,,,,,1,6,1,stim/61.jpeg,HouseObjects,1,stim/objects/HouseObjects/lintroller.png,0.5,1,-0.2,0.15,left,7,2020-12-14_18h37.38.435,premup-three_ses-01_part-01_label-phase1,3.2.4,Win32,60,left,0.921000004,4,0,4,0,1,3,1,0,240,56,1,239,,,,,,,,,,,,,,,,,,
,,0,19,,,,,,,2,2,2,stim/22.jpeg,Instruments,2,stim/objects/Instruments/laud2.png,0.3,4,0.2,-0.15,right,7,2020-12-14_18h37.38.435,premup-three_ses-01_part-01_label-phase1,3.2.4,Win32,60,left,0.948999882,4,0,4,0,1,3,1,0,240,157,1,239,,,,,,,,,,,,,,,,,,
,,0,20,,,,,,,3,3,1,stim/31.jpeg,HouseObjects,1,stim/objects/HouseObjects/lintroller2.png,0.1,4,0.2,-0.15,left,7,2020-12-14_18h37.38.435,premup-three_ses-01_part-01_label-phase1,3.2.4,Win32,60,right,1.032000065,4,0,4,0,1,3,1,0,240,160,1,239,,,,,,,,,,,,,,,,,,
,,0,21,,,,,,,1,5,2,stim/52.jpeg,Instruments,2,stim/objects/Instruments/laud.png,0.5,3,-0.2,-0.15,right,7,2020-12-14_18h37.38.435,premup-three_ses-01_part-01_label-phase1,3.2.4,Win32,60,left,0.709000111,4,0,4,0,1,3,1,0,240,25,1,239,,,,,,,,,,,,,,,,,,
,,0,22,,,,,,,1,5,3,stim/53.jpeg,Instruments,2,stim/objects/Instruments/maraca.png,0.5,2,0.2,0.15,right,7,2020-12-14_18h37.38.435,premup-three_ses-01_part-01_label-phase1,3.2.4,Win32,60,left,1.075999975,4,0,4,0,1,3,1,0,240,34,1,239,,,,,,,,,,,,,,,,,,
,,1,23,,,,,,,3,4,2,stim/42.jpeg,HouseObjects,1,stim/objects/HouseObjects/remote2.png,0.9,4,0.2,-0.15,left,7,2020-12-14_18h37.38.435,premup-three_ses-01_part-01_label-phase1,3.2.4,Win32,60,left,1.766000032,4,0,4,0,1,3,1,0,240,217,1,239,,,,,,,,,,,,,,,,,,
,,0,24,,,,,,,2,2,1,stim/21.jpeg,HouseObjects,1,stim/objects/HouseObjects/iron2.png,0.7,2,0.2,0.15,left,7,2020-12-14_18h37.38.435,premup-three_ses-01_part-01_label-phase1,3.2.4,Win32,60,right,1.196999788,4,0,4,0,1,3,1,0,240,144,1,239,,,,,,,,,,,,,,,,,,
,,0,25,,,,,,,3,4,1,stim/41.jpeg,Instruments,2,stim/objects/Instruments/panflute2.png,0.1,1,-0.2,0.15,right,7,2020-12-14_18h37.38.435,premup-three_ses-01_part-01_label-phase1,3.2.4,Win32,60,left,1.325999975,4,0,4,0,1,3,1,0,240,236,1,239,,,,,,,,,,,,,,,,,,
,,1,26,,,,,,,1,5,1,stim/51.jpeg,HouseObjects,1,stim/objects/HouseObjects/iron.png,0.5,3,-0.2,-0.15,left,7,2020-12-14_18h37.38.435,premup-three_ses-01_part-01_label-phase1,3.2.4,Win32,60,left,0.838000059,4,0,4,0,1,3,1,0,240,0,1,239,,,,,,,,,,,,,,,,,,
,,0,27,,,,,,,3,4,4,stim/44.jpeg,HouseObjects,1,stim/objects/HouseObjects/rug2.png,0.9,2,0.2,0.15,left,7,2020-12-14_18h37.38.435,premup-three_ses-01_part-01_label-phase1,3.2.4,Win32,60,right,0.505000114,4,0,4,0,1,3,1,0,240,203,1,239,,,,,,,,,,,,,,,,,,
,,0,28,,,,,,,2,1,3,stim/13.jpeg,Instruments,2,stim/objects/Instruments/record.png,0.7,1,-0.2,0.15,right,7,2020-12-14_18h37.38.435,premup-three_ses-01_part-01_label-phase1,3.2.4,Win32,60,left,0.486999989,4,0,4,0,1,3,1,0,240,102,1,239,,,,,,,,,,,,,,,,,,
,,1,29,,,,,,,3,4,4,stim/44.jpeg,HouseObjects,1,stim/objects/HouseObjects/rug2.png,0.9,2,0.2,0.15,left,7,2020-12-14_18h37.38.435,premup-three_ses-01_part-01_label-phase1,3.2.4,Win32,60,left,1.680999994,4,0,4,0,1,3,1,0,240,227,1,239,,,,,,,,,,,,,,,,,,
,,0,30,,,,,,,1,5,3,stim/53.jpeg,HouseObjects,1,stim/objects/HouseObjects/key.png,0.5,4,0.2,-0.15,left,7,2020-12-14_18h37.38.435,premup-three_ses-01_part-01_label-phase1,3.2.4,Win32,60,right,0.865999937,4,0,4,0,1,3,1,0,240,6,1,239,,,,,,,,,,,,,,,,,,
,,0,31,,,,,,,1,5,1,stim/51.jpeg,Instruments,2,stim/objects/Instruments/keyboard.png,0.5,1,-0.2,0.15,right,7,2020-12-14_18h37.38.435,premup-three_ses-01_part-01_label-phase1,3.2.4,Win32,60,left,1.220000029,4,0,4,0,1,3,1,0,240,32,1,239,,,,,,,,,,,,,,,,,,
,,1,32,,,,,,,1,6,3,stim/63.jpeg,Instruments,2,stim/objects/Instruments/musicstand.png,0.5,3,-0.2,-0.15,right,7,2020-12-14_18h37.38.435,premup-three_ses-01_part-01_label-phase1,3.2.4,Win32,60,right,1.075999975,4,0,4,0,1,3,1,0,240,70,1,239,,,,,,,,,,,,,,,,,,
,,1,33,,,,,,,2,1,4,stim/14.jpeg,Instruments,2,stim/objects/Instruments/record_player.png,0.7,2,0.2,0.15,right,7,2020-12-14_18h37.38.435,premup-three_ses-01_part-01_label-phase1,3.2.4,Win32,60,right,0.751000166,4,0,4,0,1,3,1,0,240,107,1,239,,,,,,,,,,,,,,,,,,
,,1,34,,,,,,,2,1,1,stim/11.jpeg,Instruments,2,stim/objects/Instruments/panflute.png,0.7,2,0.2,0.15,right,7,2020-12-14_18h37.38.435,premup-three_ses-01_part-01_label-phase1,3.2.4,Win32,60,right,0.778000116,4,0,4,0,1,3,1,0,240,96,1,239,,,,,,,,,,,,,,,,,,
,,0,35,,,,,,,2,1,3,stim/13.jpeg,HouseObjects,1,stim/objects/HouseObjects/rubbergloves.png,0.3,4,0.2,-0.15,left,7,2020-12-14_18h37.38.435,premup-three_ses-01_part-01_label-phase1,3.2.4,Win32,60,right,0.555999994,4,0,4,0,1,3,1,0,240,86,1,239,,,,,,,,,,,,,,,,,,
,,1,36,,,,,,,3,3,1,stim/31.jpeg,Instruments,2,stim/objects/Instruments/metronome2.png,0.9,2,0.2,0.15,right,7,2020-12-14_18h37.38.435,premup-three_ses-01_part-01_label-phase1,3.2.4,Win32,60,right,1.187000036,4,0,4,0,1,3,1,0,240,180,1,239,,,,,,,,,,,,,,,,,,
,,0,37,,,,,,,3,3,4,stim/34.jpeg,Instruments,2,stim/objects/Instruments/oboe2.png,0.9,2,0.2,0.15,right,7,2020-12-14_18h37.38.435,premup-three_ses-01_part-01_label-phase1,3.2.4,Win32,60,left,0.835999966,4,0,4,0,1,3,1,0,240,175,1,239,,,,,,,,,,,,,,,,,,
,,1,38,,,,,,,1,5,2,stim/52.jpeg,Instruments,2,stim/objects/Instruments/laud.png,0.5,2,0.2,0.15,right,7,2020-12-14_18h37.38.435,premup-three_ses-01_part-01_label-phase1,3.2.4,Win32,60,right,1.258999825,4,0,4,0,1,3,1,0,240,21,1,239,,,,,,,,,,,,,,,,,,
,,1,39,,,,,,,1,6,3,stim/63.jpeg,Instruments,2,stim/objects/Instruments/musicstand.png,0.5,1,-0.2,0.15,right,7,2020-12-14_18h37.38.435,premup-three_ses-01_part-01_label-phase1,3.2.4,Win32,60,right,0.90500021,4,0,4,0,1,3,1,0,240,66,1,239,,,,,,,,,,,,,,,,,,
,,1,40,,,,,,,1,5,4,stim/54.jpeg,HouseObjects,1,stim/objects/HouseObjects/knife.png,0.5,4,0.2,-0.15,left,7,2020-12-14_18h37.38.435,premup-three_ses-01_part-01_label-phase1,3.2.4,Win32,60,left,0.774999857,4,0,4,0,1,3,1,0,240,3,1,239,,,,,,,,,,,,,,,,,,
,,1,41,,,,,,,2,1,2,stim/12.jpeg,Instruments,2,stim/objects/Instruments/pipepiano.png,0.7,3,-0.2,-0.15,right,7,2020-12-14_18h37.38.435,premup-three_ses-01_part-01_label-phase1,3.2.4,Win32,60,right,0.771999836,4,0,4,0,1,3,1,0,240,97,1,239,,,,,,,,,,,,,,,,,,
,,1,42,,,,,,,3,3,3,stim/33.jpeg,HouseObjects,1,stim/objects/HouseObjects/pan2.png,0.1,4,0.2,-0.15,left,7,2020-12-14_18h37.38.435,premup-three_ses-01_part-01_label-phase1,3.2.4,Win32,60,left,1.003000021,4,0,4,0,1,3,1,0,240,162,1,239,,,,,,,,,,,,,,,,,,
,,0,43,,,,,,,2,2,1,stim/21.jpeg,HouseObjects,1,stim/objects/HouseObjects/iron2.png,0.7,2,0.2,0.15,left,7,2020-12-14_18h37.38.435,premup-three_ses-01_part-01_label-phase1,3.2.4,Win32,60,right,0.58100009,4,0,4,0,1,3,1,0,240,128,1,239,,,,,,,,,,,,,,,,,,
,,1,44,,,,,,,2,1,3,stim/13.jpeg,Instruments,2,stim/objects/Instruments/record.png,0.7,1,-0.2,0.15,right,7,2020-12-14_18h37.38.435,premup-three_ses-01_part-01_label-phase1,3.2.4,Win32,60,right,0.762000084,4,0,4,0,1,3,1,0,240,118,1,239,,,,,,,,,,,,,,,,,,
,,0,45,,,,,,,2,2,4,stim/24.jpeg,Instruments,2,stim/objects/Instruments/marimba2.png,0.3,3,-0.2,-0.15,right,7,2020-12-14_18h37.38.435,premup-three_ses-01_part-01_label-phase1,3.2.4,Win32,60,left,0.585999966,4,0,4,0,1,3,1,0,240,151,1,239,,,,,,,,,,,,,,,,,,
,,1,46,,,,,,,3,3,3,stim/33.jpeg,Instruments,2,stim/objects/Instruments/musicstand2.png,0.9,1,-0.2,0.15,right,7,2020-12-14_18h37.38.435,premup-three_ses-01_part-01_label-phase1,3.2.4,Win32,60,right,1.230999947,4,0,4,0,1,3,1,0,240,194,1,239,,,,,,,,,,,,,,,,,,
,,1,47,,,,,,,3,3,4,stim/34.jpeg,Instruments,2,stim/objects/Instruments/oboe2.png,0.9,1,-0.2,0.15,right,7,2020-12-14_18h37.38.435,premup-three_ses-01_part-01_label-phase1,3.2.4,Win32,60,right,0.575999975,4,0,4,0,1,3,1,0,240,199,1,239,,,,,,,,,,,,,,,,,,
,,1,48,,,,,,,2,1,3,stim/13.jpeg,Instruments,2,stim/objects/Instruments/record.png,0.7,4,0.2,-0.15,right,7,2020-12-14_18h37.38.435,premup-three_ses-01_part-01_label-phase1,3.2.4,Win32,60,right,0.960000038,4,0,4,0,1,3,1,0,240,114,1,239,,,,,,,,,,,,,,,,,,
,,1,49,,,,,,,2,1,4,stim/14.jpeg,Instruments,2,stim/objects/Instruments/record_player.png,0.7,3,-0.2,-0.15,right,7,2020-12-14_18h37.38.435,premup-three_ses-01_part-01_label-phase1,3.2.4,Win32,60,right,0.809000015,4,0,4,0,1,3,1,0,240,103,1,239,,,,,,,,,,,,,,,,,,
,,0,50,,,,,,,1,5,4,stim/54.jpeg,Instruments,2,stim/objects/Instruments/marimba.png,0.5,3,-0.2,-0.15,right,7,2020-12-14_18h37.38.435,premup-three_ses-01_part-01_label-phase1,3.2.4,Win32,60,left,0.74000001,4,0,4,0,1,3,1,0,240,31,1,239,,,,,,,,,,,,,,,,,,
,,1,51,,,,,,,3,3,4,stim/34.jpeg,Instruments,2,stim/objects/Instruments/oboe2.png,0.9,4,0.2,-0.15,right,7,2020-12-14_18h37.38.435,premup-three_ses-01_part-01_label-phase1,3.2.4,Win32,60,right,0.650000095,4,0,4,0,1,3,1,0,240,179,1,239,,,,,,,,,,,,,,,,,,
,,1,52,,,,,,,2,2,1,stim/21.jpeg,Instruments,2,stim/objects/Instruments/keyboard2.png,0.3,2,0.2,0.15,right,7,2020-12-14_18h37.38.435,premup-three_ses-01_part-01_label-phase1,3.2.4,Win32,60,right,0.549999952,4,0,4,0,1,3,1,0,240,148,1,239,,,,,,,,,,,,,,,,,,
,,1,53,,,,,,,1,6,1,stim/61.jpeg,HouseObjects,1,stim/objects/HouseObjects/lintroller.png,0.5,2,0.2,0.15,left,7,2020-12-14_18h37.38.435,premup-three_ses-01_part-01_label-phase1,3.2.4,Win32,60,left,0.937999964,4,0,4,0,1,3,1,0,240,48,1,239,,,,,,,,,,,,,,,,,,
,,1,54,,,,,,,3,3,4,stim/34.jpeg,Instruments,2,stim/objects/Instruments/oboe2.png,0.9,2,0.2,0.15,right,7,2020-12-14_18h37.38.435,premup-three_ses-01_part-01_label-phase1,3.2.4,Win32,60,right,0.671000004,4,0,4,0,1,3,1,0,240,171,1,239,,,,,,,,,,,,,,,,,,
,,1,55,,,,,,,3,4,4,stim/44.jpeg,HouseObjects,1,stim/objects/HouseObjects/rug2.png,0.9,4,0.2,-0.15,left,7,2020-12-14_18h37.38.435,premup-three_ses-01_part-01_label-phase1,3.2.4,Win32,60,left,1.113000154,4,0,4,0,1,3,1,0,240,223,1,239,,,,,,,,,,,,,,,,,,
,,1,56,,,,,,,3,3,4,stim/34.jpeg,Instruments,2,stim/objects/Instruments/oboe2.png,0.9,4,0.2,-0.15,right,7,2020-12-14_18h37.38.435,premup-three_ses-01_part-01_label-phase1,3.2.4,Win32,60,right,0.751000166,4,0,4,0,1,3,1,0,240,167,1,239,,,,,,,,,,,,,,,,,,
,,0,57,,,,,,,3,4,4,stim/44.jpeg,HouseObjects,1,stim/objects/HouseObjects/rug2.png,0.9,1,-0.2,0.15,left,7,2020-12-14_18h37.38.435,premup-three_ses-01_part-01_label-phase1,3.2.4,Win32,60,right,1.054000139,4,0,4,0,1,3,1,0,240,207,1,239,,,,,,,,,,,,,,,,,,
,,1,58,,,,,,,3,4,2,stim/42.jpeg,HouseObjects,1,stim/objects/HouseObjects/remote2.png,0.9,3,-0.2,-0.15,left,7,2020-12-14_18h37.38.435,premup-three_ses-01_part-01_label-phase1,3.2.4,Win32,60,left,1.105999947,4,0,4,0,1,3,1,0,240,221,1,239,,,,,,,,,,,,,,,,,,
,,1,59,,,,,,,2,2,1,stim/21.jpeg,Instruments,2,stim/objects/Instruments/keyboard2.png,0.3,4,0.2,-0.15,right,7,2020-12-14_18h37.38.435,premup-three_ses-01_part-01_label-phase1,3.2.4,Win32,60,right,0.843999863,4,0,4,0,1,3,1,0,240,152,1,239,,,,,,,,,,,,,,,,,,
,,1,60,,,,,,,1,5,2,stim/52.jpeg,HouseObjects,1,stim/objects/HouseObjects/ironingboard.png,0.5,2,0.2,0.15,left,7,2020-12-14_18h37.38.435,premup-three_ses-01_part-01_label-phase1,3.2.4,Win32,60,left,0.94900012,4,0,4,0,1,3,1,0,240,1,1,239,,,,,,,,,,,,,,,,,,
,,0,61,,,,,,,2,1,4,stim/14.jpeg,HouseObjects,1,stim/objects/HouseObjects/rug.png,0.3,4,0.2,-0.15,left,7,2020-12-14_18h37.38.435,premup-three_ses-01_part-01_label-phase1,3.2.4,Win32,60,right,0.667999983,4,0,4,0,1,3,1,0,240,83,1,239,,,,,,,,,,,,,,,,,,
,,0,62,,,,,,,2,2,3,stim/23.jpeg,Instruments,2,stim/objects/Instruments/maraca2.png,0.3,2,0.2,0.15,right,7,2020-12-14_18h37.38.435,premup-three_ses-01_part-01_label-phase1,3.2.4,Win32,60,left,0.894000053,4,0,4,0,1,3,1,0,240,154,1,239,,,,,,,,,,,,,,,,,,
,,0,63,,,,,,,2,2,4,stim/24.jpeg,HouseObjects,1,stim/objects/HouseObjects/knife2.png,0.7,2,0.2,0.15,left,7,2020-12-14_18h37.38.435,premup-three_ses-01_part-01_label-phase1,3.2.4,Win32,60,right,0.687000036,4,0,4,0,1,3,1,0,240,131,1,239,,,,,,,,,,,,,,,,,,
,,0,64,,,,,,,1,5,4,stim/54.jpeg,Instruments,2,stim/objects/Instruments/marimba.png,0.5,2,0.2,0.15,right,7,2020-12-14_18h37.38.435,premup-three_ses-01_part-01_label-phase1,3.2.4,Win32,60,left,0.93599987,4,0,4,0,1,3,1,0,240,27,1,239,,,,,,,,,,,,,,,,,,
,,1,65,,,,,,,2,2,3,stim/23.jpeg,HouseObjects,1,stim/objects/HouseObjects/key2.png,0.7,3,-0.2,-0.15,left,7,2020-12-14_18h37.38.435,premup-three_ses-01_part-01_label-phase1,3.2.4,Win32,60,left,0.724999905,4,0,4,0,1,3,1,0,240,130,1,239,,,,,,,,,,,,,,,,,,
,,1,66,,,,,,,2,1,4,stim/14.jpeg,Instruments,2,stim/objects/Instruments/record_player.png,0.7,3,-0.2,-0.15,right,7,2020-12-14_18h37.38.435,premup-three_ses-01_part-01_label-phase1,3.2.4,Win32,60,right,0.75,4,0,4,0,1,3,1,0,240,111,1,239,,,,,,,,,,,,,,,,,,
,,1,67,,,,,,,2,2,3,stim/23.jpeg,HouseObjects,1,stim/objects/HouseObjects/key2.png,0.7,2,0.2,0.15,left,7,2020-12-14_18h37.38.435,premup-three_ses-01_part-01_label-phase1,3.2.4,Win32,60,left,0.72300005,4,0,4,0,1,3,1,0,240,146,1,239,,,,,,,,,,,,,,,,,,
,,1,68,,,,,,,2,2,3,stim/23.jpeg,HouseObjects,1,stim/objects/HouseObjects/key2.png,0.7,1,-0.2,0.15,left,7,2020-12-14_18h37.38.435,premup-three_ses-01_part-01_label-phase1,3.2.4,Win32,60,left,0.634000063,4,0,4,0,1,3,1,0,240,126,1,239,,,,,,,,,,,,,,,,,,
,,1,69,,,,,,,1,6,2,stim/62.jpeg,Instruments,2,stim/objects/Instruments/musicsheet.png,0.5,2,0.2,0.15,right,7,2020-12-14_18h37.38.435,premup-three_ses-01_part-01_label-phase1,3.2.4,Win32,60,right,0.656999826,4,0,4,0,1,3,1,0,240,77,1,239,,,,,,,,,,,,,,,,,,
,,1,70,,,,,,,2,1,2,stim/12.jpeg,Instruments,2,stim/objects/Instruments/pipepiano.png,0.7,1,-0.2,0.15,right,7,2020-12-14_18h37.38.435,premup-three_ses-01_part-01_label-phase1,3.2.4,Win32,60,right,0.948000193,4,0,4,0,1,3,1,0,240,113,1,239,,,,,,,,,,,,,,,,,,
,,1,71,,,,,,,2,2,1,stim/21.jpeg,HouseObjects,1,stim/objects/HouseObjects/iron2.png,0.7,3,-0.2,-0.15,left,7,2020-12-14_18h37.38.435,premup-three_ses-01_part-01_label-phase1,3.2.4,Win32,60,left,0.539000034,4,0,4,0,1,3,1,0,240,140,1,239,,,,,,,,,,,,,,,,,,
,,0,72,,,,,,,2,1,3,stim/13.jpeg,HouseObjects,1,stim/objects/HouseObjects/rubbergloves.png,0.3,1,-0.2,0.15,left,7,2020-12-14_18h37.38.435,premup-three_ses-01_part-01_label-phase1,3.2.4,Win32,60,right,0.94900012,4,0,4,0,1,3,1,0,240,90,1,239,,,,,,,,,,,,,,,,,,
,,1,73,,,,,,,3,3,3,stim/33.jpeg,Instruments,2,stim/objects/Instruments/musicstand2.png,0.9,2,0.2,0.15,right,7,2020-12-14_18h37.38.435,premup-three_ses-01_part-01_label-phase1,3.2.4,Win32,60,right,0.798000097,4,0,4,0,1,3,1,0,240,190,1,239,,,,,,,,,,,,,,,,,,
,,1,74,,,,,,,1,5,3,stim/53.jpeg,HouseObjects,1,stim/objects/HouseObjects/key.png,0.5,4,0.2,-0.15,left,7,2020-12-14_18h37.38.435,premup-three_ses-01_part-01_label-phase1,3.2.4,Win32,60,left,0.648000002,4,0,4,0,1,3,1,0,240,18,1,239,,,,,,,,,,,,,,,,,,
,,1,75,,,,,,,1,6,3,stim/63.jpeg,HouseObjects,1,stim/objects/HouseObjects/pan.png,0.5,1,-0.2,0.15,left,7,2020-12-14_18h37.38.435,premup-three_ses-01_part-01_label-phase1,3.2.4,Win32,60,left,0.853999853,4,0,4,0,1,3,1,0,240,42,1,239,,,,,,,,,,,,,,,,,,
,,1,76,,,,,,,1,5,3,stim/53.jpeg,HouseObjects,1,stim/objects/HouseObjects/key.png,0.5,1,-0.2,0.15,left,7,2020-12-14_18h37.38.435,premup-three_ses-01_part-01_label-phase1,3.2.4,Win32,60,left,0.894999981,4,0,4,0,1,3,1,0,240,2,1,239,,,,,,,,,,,,,,,,,,
,,1,77,,,,,,,3,4,1,stim/41.jpeg,HouseObjects,1,stim/objects/HouseObjects/recyclingbin2.png,0.9,3,-0.2,-0.15,left,7,2020-12-14_18h37.38.435,premup-three_ses-01_part-01_label-phase1,3.2.4,Win32,60,left,0.939999819,4,0,4,0,1,3,1,0,240,204,1,239,,,,,,,,,,,,,,,,,,
,,1,78,,,,,,,3,3,2,stim/32.jpeg,Instruments,2,stim/objects/Instruments/musicsheet2.png,0.9,4,0.2,-0.15,right,7,2020-12-14_18h37.38.435,premup-three_ses-01_part-01_label-phase1,3.2.4,Win32,60,right,0.649000168,4,0,4,0,1,3,1,0,240,181,1,239,,,,,,,,,,,,,,,,,,
,,1,79,,,,,,,2,1,1,stim/11.jpeg,Instruments,2,stim/objects/Instruments/panflute.png,0.7,1,-0.2,0.15,right,7,2020-12-14_18h37.38.435,premup-three_ses-01_part-01_label-phase1,3.2.4,Win32,60,right,0.888000011,4,0,4,0,1,3,1,0,240,108,1,239,,,,,,,,,,,,,,,,,,
,,1,80,,,,,,,3,3,3,stim/33.jpeg,Instruments,2,stim/objects/Instruments/musicstand2.png,0.9,1,-0.2,0.15,right,7,2020-12-14_18h37.38.435,premup-three_ses-01_part-01_label-phase1,3.2.4,Win32,60,right,1.143999815,4,0,4,0,1,3,1,0,240,170,1,239,,,,,,,,,,,,,,,,,,
,,0,81,,,,,,,1,6,4,stim/64.jpeg,Instruments,2,stim/objects/Instruments/oboe.png,0.5,3,-0.2,-0.15,right,7,2020-12-14_18h37.38.435,premup-three_ses-01_part-01_label-phase1,3.2.4,Win32,60,left,0.552999973,4,0,4,0,1,3,1,0,240,79,1,239,,,,,,,,,,,,,,,,,,
,,1,82,,,,,,,1,6,4,stim/64.jpeg,Instruments,2,stim/objects/Instruments/oboe.png,0.5,3,-0.2,-0.15,right,7,2020-12-14_18h37.38.435,premup-three_ses-01_part-01_label-phase1,3.2.4,Win32,60,right,0.532000065,4,0,4,0,1,3,1,0,240,75,1,239,,,,,,,,,,,,,,,,,,
,,0,83,,,,,,,2,2,2,stim/22.jpeg,Instruments,2,stim/objects/Instruments/laud2.png,0.3,4,0.2,-0.15,right,7,2020-12-14_18h37.38.435,premup-three_ses-01_part-01_label-phase1,3.2.4,Win32,60,left,0.67200017,4,0,4,0,1,3,1,0,240,149,1,239,,,,,,,,,,,,,,,,,,
,,1,84,,,,,,,2,2,3,stim/23.jpeg,HouseObjects,1,stim/objects/HouseObjects/key2.png,0.7,1,-0.2,0.15,left,7,2020-12-14_18h37.38.435,premup-three_ses-01_part-01_label-phase1,3.2.4,Win32,60,left,1.044000149,4,0,4,0,1,3,1,0,240,138,1,239,,,,,,,,,,,,,,,,,,
,,1,85,,,,,,,3,3,4,stim/34.jpeg,Instruments,2,stim/objects/Instruments/oboe2.png,0.9,2,0.2,0.15,right,7,2020-12-14_18h37.38.435,premup-three_ses-01_part-01_label-phase1,3.2.4,Win32,60,right,0.698000193,4,0,4,0,1,3,1,0,240,187,1,239,,,,,,,,,,,,,,,,,,
,,0,86,,,,,,,2,2,4,stim/24.jpeg,HouseObjects,1,stim/objects/HouseObjects/knife2.png,0.7,3,-0.2,-0.15,left,7,2020-12-14_18h37.38.435,premup-three_ses-01_part-01_label-phase1,3.2.4,Win32,60,right,0.921000004,4,0,4,0,1,3,1,0,240,143,1,239,,,,,,,,,,,,,,,,,,
,,1,87,,,,,,,1,6,3,stim/63.jpeg,Instruments,2,stim/objects/Instruments/musicstand.png,0.5,4,0.2,-0.15,right,7,2020-12-14_18h37.38.435,premup-three_ses-01_part-01_label-phase1,3.2.4,Win32,60,right,0.672999859,4,0,4,0,1,3,1,0,240,62,1,239,,,,,,,,,,,,,,,,,,
,,1,88,,,,,,,2,1,4,stim/14.jpeg,Instruments,2,stim/objects/Instruments/record_player.png,0.7,1,-0.2,0.15,right,7,2020-12-14_18h37.38.435,premup-three_ses-01_part-01_label-phase1,3.2.4,Win32,60,right,0.785000086,4,0,4,0,1,3,1,0,240,99,1,239,,,,,,,,,,,,,,,,,,
,,1,89,,,,,,,3,4,2,stim/42.jpeg,HouseObjects,1,stim/objects/HouseObjects/remote2.png,0.9,3,-0.2,-0.15,left,7,2020-12-14_18h37.38.435,premup-three_ses-01_part-01_label-phase1,3.2.4,Win32,60,left,0.65899992,4,0,4,0,1,3,1,0,240,229,1,239,,,,,,,,,,,,,,,,,,
,,1,90,,,,,,,2,1,4,stim/14.jpeg,Instruments,2,stim/objects/Instruments/record_player.png,0.7,4,0.2,-0.15,right,7,2020-12-14_18h37.38.435,premup-three_ses-01_part-01_label-phase1,3.2.4,Win32,60,right,0.726999998,4,0,4,0,1,3,1,0,240,119,1,239,,,,,,,,,,,,,,,,,,
,,1,91,,,,,,,2,1,2,stim/12.jpeg,HouseObjects,1,stim/objects/HouseObjects/remote.png,0.3,2,0.2,0.15,left,7,2020-12-14_18h37.38.435,premup-three_ses-01_part-01_label-phase1,3.2.4,Win32,60,left,0.80099988,4,0,4,0,1,3,1,0,240,81,1,239,,,,,,,,,,,,,,,,,,
,,1,92,,,,,,,1,5,2,stim/52.jpeg,HouseObjects,1,stim/objects/HouseObjects/ironingboard.png,0.5,2,0.2,0.15,left,7,2020-12-14_18h37.38.435,premup-three_ses-01_part-01_label-phase1,3.2.4,Win32,60,left,1.019000053,4,0,4,0,1,3,1,0,240,9,1,239,,,,,,,,,,,,,,,,,,
,,1,93,,,,,,,3,3,1,stim/31.jpeg,Instruments,2,stim/objects/Instruments/metronome2.png,0.9,3,-0.2,-0.15,right,7,2020-12-14_18h37.38.435,premup-three_ses-01_part-01_label-phase1,3.2.4,Win32,60,right,0.688999891,4,0,4,0,1,3,1,0,240,192,1,239,,,,,,,,,,,,,,,,,,
,,0,94,,,,,,,1,6,3,stim/63.jpeg,HouseObjects,1,stim/objects/HouseObjects/pan.png,0.5,4,0.2,-0.15,left,7,2020-12-14_18h37.38.435,premup-three_ses-01_part-01_label-phase1,3.2.4,Win32,60,right,0.944000006,4,0,4,0,1,3,1,0,240,50,1,239,,,,,,,,,,,,,,,,,,
,,1,95,,,,,,,1,6,2,stim/62.jpeg,HouseObjects,1,stim/objects/HouseObjects/match.png,0.5,1,-0.2,0.15,left,7,2020-12-14_18h37.38.435,premup-three_ses-01_part-01_label-phase1,3.2.4,Win32,60,left,1.085999966,4,0,4,0,1,3,1,0,240,53,1,239,,,,,,,,,,,,,,,,,,
,,0,96,,,,,,,2,2,1,stim/21.jpeg,HouseObjects,1,stim/objects/HouseObjects/iron2.png,0.7,1,-0.2,0.15,left,7,2020-12-14_18h37.38.435,premup-three_ses-01_part-01_label-phase1,3.2.4,Win32,60,right,0.556999922,4,0,4,0,1,3,1,0,240,136,1,239,,,,,,,,,,,,,,,,,,
,,0,97,,,,,,,2,2,2,stim/22.jpeg,Instruments,2,stim/objects/Instruments/laud2.png,0.3,3,-0.2,-0.15,right,7,2020-12-14_18h37.38.435,premup-three_ses-01_part-01_label-phase1,3.2.4,Win32,60,left,0.822999954,4,0,4,0,1,3,1,0,240,153,1,239,,,,,,,,,,,,,,,,,,
,,1,98,,,,,,,3,4,3,stim/43.jpeg,HouseObjects,1,stim/objects/HouseObjects/rubbergloves2.png,0.9,3,-0.2,-0.15,left,7,2020-12-14_18h37.38.435,premup-three_ses-01_part-01_label-phase1,3.2.4,Win32,60,left,0.69900012,4,0,4,0,1,3,1,0,240,206,1,239,,,,,,,,,,,,,,,,,,
,,0,99,,,,,,,1,5,4,stim/54.jpeg,HouseObjects,1,stim/objects/HouseObjects/knife.png,0.5,1,-0.2,0.15,left,7,2020-12-14_18h37.38.435,premup-three_ses-01_part-01_label-phase1,3.2.4,Win32,60,right,0.86500001,4,0,4,0,1,3,1,0,240,11,1,239,,,,,,,,,,,,,,,,,,
,,1,100,,,,,,,1,6,4,stim/64.jpeg,HouseObjects,1,stim/objects/HouseObjects/pitcher.png,0.5,4,0.2,-0.15,left,7,2020-12-14_18h37.38.435,premup-three_ses-01_part-01_label-phase1,3.2.4,Win32,60,left,1.059999943,4,0,4,0,1,3,1,0,240,51,1,239,,,,,,,,,,,,,,,,,,
,,0,101,,,,,,,3,4,3,stim/43.jpeg,Instruments,2,stim/objects/Instruments/record2.png,0.1,3,-0.2,-0.15,right,7,2020-12-14_18h37.38.435,premup-three_ses-01_part-01_label-phase1,3.2.4,Win32,60,left,0.651000023,4,0,4,0,1,3,1,0,240,238,1,239,,,,,,,,,,,,,,,,,,
,,0,102,,,,,,,1,6,2,stim/62.jpeg,Instruments,2,stim/objects/Instruments/musicsheet.png,0.5,2,0.2,0.15,right,7,2020-12-14_18h37.38.435,premup-three_ses-01_part-01_label-phase1,3.2.4,Win32,60,left,0.832000017,4,0,4,0,1,3,1,0,240,65,1,239,,,,,,,,,,,,,,,,,,
,,0,103,,,,,,,1,5,3,stim/53.jpeg,HouseObjects,1,stim/objects/HouseObjects/key.png,0.5,3,-0.2,-0.15,left,7,2020-12-14_18h37.38.435,premup-three_ses-01_part-01_label-phase1,3.2.4,Win32,60,right,1.359999895,4,0,4,0,1,3,1,0,240,10,1,239,,,,,,,,,,,,,,,,,,
,,0,104,,,,,,,2,2,4,stim/24.jpeg,HouseObjects,1,stim/objects/HouseObjects/knife2.png,0.7,4,0.2,-0.15,left,7,2020-12-14_18h37.38.435,premup-three_ses-01_part-01_label-phase1,3.2.4,Win32,60,right,0.78399992,4,0,4,0,1,3,1,0,240,127,1,239,,,,,,,,,,,,,,,,,,
,,1,105,,,,,,,3,4,3,stim/43.jpeg,HouseObjects,1,stim/objects/HouseObjects/rubbergloves2.png,0.9,4,0.2,-0.15,left,7,2020-12-14_18h37.38.435,premup-three_ses-01_part-01_label-phase1,3.2.4,Win32,60,left,1.137000084,4,0,4,0,1,3,1,0,240,202,1,239,,,,,,,,,,,,,,,,,,
,,1,106,,,,,,,1,6,1,stim/61.jpeg,Instruments,2,stim/objects/Instruments/metronome.png,0.5,2,0.2,0.15,right,7,2020-12-14_18h37.38.435,premup-three_ses-01_part-01_label-phase1,3.2.4,Win32,60,right,1.125,4,0,4,0,1,3,1,0,240,60,1,239,,,,,,,,,,,,,,,,,,
,,0,107,,,,,,,2,2,1,stim/21.jpeg,HouseObjects,1,stim/objects/HouseObjects/iron2.png,0.7,1,-0.2,0.15,left,7,2020-12-14_18h37.38.435,premup-three_ses-01_part-01_label-phase1,3.2.4,Win32,60,right,0.736000061,4,0,4,0,1,3,1,0,240,124,1,239,,,,,,,,,,,,,,,,,,
,,1,108,,,,,,,3,3,3,stim/33.jpeg,Instruments,2,stim/objects/Instruments/musicstand2.png,0.9,2,0.2,0.15,right,7,2020-12-14_18h37.38.435,premup-three_ses-01_part-01_label-phase1,3.2.4,Win32,60,right,1.058000088,4,0,4,0,1,3,1,0,240,166,1,239,,,,,,,,,,,,,,,,,,
,,1,109,,,,,,,1,5,1,stim/51.jpeg,HouseObjects,1,stim/objects/HouseObjects/iron.png,0.5,1,-0.2,0.15,left,7,2020-12-14_18h37.38.435,premup-three_ses-01_part-01_label-phase1,3.2.4,Win32,60,left,0.569000006,4,0,4,0,1,3,1,0,240,16,1,239,,,,,,,,,,,,,,,,,,
,,1,110,,,,,,,1,6,4,stim/64.jpeg,Instruments,2,stim/objects/Instruments/oboe.png,0.5,2,0.2,0.15,right,7,2020-12-14_18h37.38.435,premup-three_ses-01_part-01_label-phase1,3.2.4,Win32,60,right,0.758000135,4,0,4,0,1,3,1,0,240,67,1,239,,,,,,,,,,,,,,,,,,
,,0,111,,,,,,,1,5,4,stim/54.jpeg,Instruments,2,stim/objects/Instruments/marimba.png,0.5,3,-0.2,-0.15,right,7,2020-12-14_18h37.38.435,premup-three_ses-01_part-01_label-phase1,3.2.4,Win32,60,left,0.450999975,4,0,4,0,1,3,1,0,240,39,1,239,,,,,,,,,,,,,,,,,,
,,1,112,,,,,,,2,1,1,stim/11.jpeg,HouseObjects,1,stim/objects/HouseObjects/recyclingbin.png,0.3,1,-0.2,0.15,left,7,2020-12-14_18h37.38.435,premup-three_ses-01_part-01_label-phase1,3.2.4,Win32,60,left,1.302000046,4,0,4,0,1,3,1,0,240,80,1,239,,,,,,,,,,,,,,,,,,
,,0,113,,,,,,,3,3,2,stim/32.jpeg,HouseObjects,1,stim/objects/HouseObjects/match2.png,0.1,4,0.2,-0.15,left,7,2020-12-14_18h37.38.435,premup-three_ses-01_part-01_label-phase1,3.2.4,Win32,60,right,0.606999874,4,0,4,0,1,3,1,0,240,161,1,239,,,,,,,,,,,,,,,,,,
,,0,114,,,,,,,2,2,3,stim/23.jpeg,Instruments,2,stim/objects/Instruments/maraca2.png,0.3,1,-0.2,0.15,right,7,2020-12-14_18h37.38.435,premup-three_ses-01_part-01_label-phase1,3.2.4,Win32,60,left,1.077000141,4,0,4,0,1,3,1,0,240,158,1,239,,,,,,,,,,,,,,,,,,
,,0,115,,,,,,,2,2,2,stim/22.jpeg,HouseObjects,1,stim/objects/HouseObjects/ironingboard2.png,0.7,3,-0.2,-0.15,left,7,2020-12-14_18h37.38.435,premup-three_ses-01_part-01_label-phase1,3.2.4,Win32,60,right,0.977999926,4,0,4,0,1,3,1,0,240,145,1,239,,,,,,,,,,,,,,,,,,
,,1,116,,,,,,,3,3,3,stim/33.jpeg,Instruments,2,stim/objects/Instruments/musicstand2.png,0.9,4,0.2,-0.15,right,7,2020-12-14_18h37.38.435,premup-three_ses-01_part-01_label-phase1,3.2.4,Win32,60,right,0.88499999,4,0,4,0,1,3,1,0,240,178,1,239,,,,,,,,,,,,,,,,,,
,,1,117,,,,,,,1,5,2,stim/52.jpeg,HouseObjects,1,stim/objects/HouseObjects/ironingboard.png,0.5,1,-0.2,0.15,left,7,2020-12-14_18h37.38.435,premup-three_ses-01_part-01_label-phase1,3.2.4,Win32,60,left,0.554000139,4,0,4,0,1,3,1,0,240,13,1,239,,,,,,,,,,,,,,,,,,
,,0,118,,,,,,,2,2,1,stim/21.jpeg,Instruments,2,stim/objects/Instruments/keyboard2.png,0.3,4,0.2,-0.15,right,7,2020-12-14_18h37.38.435,premup-three_ses-01_part-01_label-phase1,3.2.4,Win32,60,left,1.222000122,4,0,4,0,1,3,1,0,240,156,1,239,,,,,,,,,,,,,,,,,,
,,0,119,,,,,,,1,5,3,stim/53.jpeg,HouseObjects,1,stim/objects/HouseObjects/key.png,0.5,2,0.2,0.15,left,7,2020-12-14_18h37.38.435,premup-three_ses-01_part-01_label-phase1,3.2.4,Win32,60,right,0.698999882,4,0,4,0,1,3,1,0,240,14,1,239,,,,,,,,,,,,,,,,,,
,,0,120,,,,,,,2,1,2,stim/12.jpeg,Instruments,2,stim/objects/Instruments/pipepiano.png,0.7,3,-0.2,-0.15,right,7,2020-12-14_18h37.38.435,premup-three_ses-01_part-01_label-phase1,3.2.4,Win32,60,left,0.932999849,4,0,4,0,1,3,1,0,240,101,1,239,,,,,,,,,,,,,,,,,,
,,0,121,,,,,,,1,6,3,stim/63.jpeg,HouseObjects,1,stim/objects/HouseObjects/pan.png,0.5,3,-0.2,-0.15,left,7,2020-12-14_18h37.38.435,premup-three_ses-01_part-01_label-phase1,3.2.4,Win32,60,right,0.923999786,4,0,4,0,1,3,1,0,240,54,1,239,,,,,,,,,,,,,,,,,,
,,0,122,,,,,,,1,6,1,stim/61.jpeg,HouseObjects,1,stim/objects/HouseObjects/lintroller.png,0.5,4,0.2,-0.15,left,7,2020-12-14_18h37.38.435,premup-three_ses-01_part-01_label-phase1,3.2.4,Win32,60,right,0.589999914,4,0,4,0,1,3,1,0,240,40,1,239,,,,,,,,,,,,,,,,,,
,,1,123,,,,,,,3,3,2,stim/32.jpeg,Instruments,2,stim/objects/Instruments/musicsheet2.png,0.9,4,0.2,-0.15,right,7,2020-12-14_18h37.38.435,premup-three_ses-01_part-01_label-phase1,3.2.4,Win32,60,right,0.562999964,4,0,4,0,1,3,1,0,240,173,1,239,,,,,,,,,,,,,,,,,,
,,1,124,,,,,,,3,3,1,stim/31.jpeg,Instruments,2,stim/objects/Instruments/metronome2.png,0.9,1,-0.2,0.15,right,7,2020-12-14_18h37.38.435,premup-three_ses-01_part-01_label-phase1,3.2.4,Win32,60,right,0.790999889,4,0,4,0,1,3,1,0,240,196,1,239,,,,,,,,,,,,,,,,,,
,,1,125,,,,,,,3,4,4,stim/44.jpeg,HouseObjects,1,stim/objects/HouseObjects/rug2.png,0.9,2,0.2,0.15,left,7,2020-12-14_18h37.38.435,premup-three_ses-01_part-01_label-phase1,3.2.4,Win32,60,left,0.752000093,4,0,4,0,1,3,1,0,240,231,1,239,,,,,,,,,,,,,,,,,,
,,0,126,,,,,,,1,5,3,stim/53.jpeg,Instruments,2,stim/objects/Instruments/maraca.png,0.5,3,-0.2,-0.15,right,7,2020-12-14_18h37.38.435,premup-three_ses-01_part-01_label-phase1,3.2.4,Win32,60,left,0.732999802,4,0,4,0,1,3,1,0,240,30,1,239,,,,,,,,,,,,,,,,,,
,,1,127,,,,,,,3,4,1,stim/41.jpeg,HouseObjects,1,stim/objects/HouseObjects/recyclingbin2.png,0.9,3,-0.2,-0.15,left,7,2020-12-14_18h37.38.435,premup-three_ses-01_part-01_label-phase1,3.2.4,Win32,60,left,0.705999851,4,0,4,0,1,3,1,0,240,232,1,239,,,,,,,,,,,,,,,,,,
,,0,128,,,,,,,1,5,1,stim/51.jpeg,Instruments,2,stim/objects/Instruments/keyboard.png,0.5,4,0.2,-0.15,right,7,2020-12-14_18h37.38.435,premup-three_ses-01_part-01_label-phase1,3.2.4,Win32,60,left,1.529999971,4,0,4,0,1,3,1,0,240,20,1,239,,,,,,,,,,,,,,,,,,
,,1,129,,,,,,,3,3,4,stim/34.jpeg,Instruments,2,stim/objects/Instruments/oboe2.png,0.9,3,-0.2,-0.15,right,7,2020-12-14_18h37.38.435,premup-three_ses-01_part-01_label-phase1,3.2.4,Win32,60,right,0.618000031,4,0,4,0,1,3,1,0,240,191,1,239,,,,,,,,,,,,,,,,,,
,,1,130,,,,,,,3,4,2,stim/42.jpeg,HouseObjects,1,stim/objects/HouseObjects/remote2.png,0.9,1,-0.2,0.15,left,7,2020-12-14_18h37.38.435,premup-three_ses-01_part-01_label-phase1,3.2.4,Win32,60,left,0.782999992,4,0,4,0,1,3,1,0,240,233,1,239,,,,,,,,,,,,,,,,,,
,,1,131,,,,,,,2,1,2,stim/12.jpeg,Instruments,2,stim/objects/Instruments/pipepiano.png,0.7,2,0.2,0.15,right,7,2020-12-14_18h37.38.435,premup-three_ses-01_part-01_label-phase1,3.2.4,Win32,60,right,0.73300004,4,0,4,0,1,3,1,0,240,109,1,239,,,,,,,,,,,,,,,,,,
,,0,132,,,,,,,2,2,1,stim/21.jpeg,HouseObjects,1,stim/objects/HouseObjects/iron2.png,0.7,1,-0.2,0.15,left,7,2020-12-14_18h37.38.435,premup-three_ses-01_part-01_label-phase1,3.2.4,Win32,60,right,0.696999788,4,0,4,0,1,3,1,0,240,132,1,239,,,,,,,,,,,,,,,,,,
,,0,133,,,,,,,2,2,2,stim/22.jpeg,HouseObjects,1,stim/objects/HouseObjects/ironingboard2.png,0.7,3,-0.2,-0.15,left,7,2020-12-14_18h37.38.435,premup-three_ses-01_part-01_label-phase1,3.2.4,Win32,60,right,0.816999912,4,0,4,0,1,3,1,0,240,137,1,239,,,,,,,,,,,,,,,,,,
,,0,134,,,,,,,1,5,2,stim/52.jpeg,Instruments,2,stim/objects/Instruments/laud.png,0.5,2,0.2,0.15,right,7,2020-12-14_18h37.38.435,premup-three_ses-01_part-01_label-phase1,3.2.4,Win32,60,left,1.210999966,4,0,4,0,1,3,1,0,240,29,1,239,,,,,,,,,,,,,,,,,,
,,1,135,,,,,,,2,2,4,stim/24.jpeg,Instruments,2,stim/objects/Instruments/marimba2.png,0.3,2,0.2,0.15,right,7,2020-12-14_18h37.38.435,premup-three_ses-01_part-01_label-phase1,3.2.4,Win32,60,right,0.825999975,4,0,4,0,1,3,1,0,240,155,1,239,,,,,,,,,,,,,,,,,,
,,0,136,,,,,,,2,2,2,stim/22.jpeg,HouseObjects,1,stim/objects/HouseObjects/ironingboard2.png,0.7,3,-0.2,-0.15,left,7,2020-12-14_18h37.38.435,premup-three_ses-01_part-01_label-phase1,3.2.4,Win32,60,right,0.631000042,4,0,4,0,1,3,1,0,240,121,1,239,,,,,,,,,,,,,,,,,,
,,1,137,,,,,,,2,2,2,stim/22.jpeg,HouseObjects,1,stim/objects/HouseObjects/ironingboard2.png,0.7,4,0.2,-0.15,left,7,2020-12-14_18h37.38.435,premup-three_ses-01_part-01_label-phase1,3.2.4,Win32,60,left,0.663000107,4,0,4,0,1,3,1,0,240,141,1,239,,,,,,,,,,,,,,,,,,
,,0,138,,,,,,,1,5,3,stim/53.jpeg,Instruments,2,stim/objects/Instruments/maraca.png,0.5,3,-0.2,-0.15,right,7,2020-12-14_18h37.38.435,premup-three_ses-01_part-01_label-phase1,3.2.4,Win32,60,left,0.786999941,4,0,4,0,1,3,1,0,240,22,1,239,,,,,,,,,,,,,,,,,,
,,0,139,,,,,,,3,4,2,stim/42.jpeg,Instruments,2,stim/objects/Instruments/pipepiano2.png,0.1,3,-0.2,-0.15,right,7,2020-12-14_18h37.38.435,premup-three_ses-01_part-01_label-phase1,3.2.4,Win32,60,left,0.754000187,4,0,4,0,1,3,1,0,240,237,1,239,,,,,,,,,,,,,,,,,,
,,0,140,,,,,,,3,3,4,stim/34.jpeg,HouseObjects,1,stim/objects/HouseObjects/pitcher2.png,0.1,3,-0.2,-0.15,left,7,2020-12-14_18h37.38.435,premup-three_ses-01_part-01_label-phase1,3.2.4,Win32,60,right,1.294000149,4,0,4,0,1,3,1,0,240,163,1,239,,,,,,,,,,,,,,,,,,
,,1,141,,,,,,,2,1,2,stim/12.jpeg,Instruments,2,stim/objects/Instruments/pipepiano.png,0.7,1,-0.2,0.15,right,7,2020-12-14_18h37.38.435,premup-three_ses-01_part-01_label-phase1,3.2.4,Win32,60,right,0.879999876,4,0,4,0,1,3,1,0,240,117,1,239,,,,,,,,,,,,,,,,,,
,,0,142,,,,,,,2,1,1,stim/11.jpeg,Instruments,2,stim/objects/Instruments/panflute.png,0.7,3,-0.2,-0.15,right,7,2020-12-14_18h37.38.435,premup-three_ses-01_part-01_label-phase1,3.2.4,Win32,60,left,0.575999975,4,0,4,0,1,3,1,0,240,104,1,239,,,,,,,,,,,,,,,,,,
,,1,143,,,,,,,3,4,2,stim/42.jpeg,HouseObjects,1,stim/objects/HouseObjects/remote2.png,0.9,2,0.2,0.15,left,7,2020-12-14_18h37.38.435,premup-three_ses-01_part-01_label-phase1,3.2.4,Win32,60,left,0.76699996,4,0,4,0,1,3,1,0,240,225,1,239,,,,,,,,,,,,,,,,,,
,,1,144,,,,,,,1,6,4,stim/64.jpeg,HouseObjects,1,stim/objects/HouseObjects/pitcher.png,0.5,1,-0.2,0.15,left,7,2020-12-14_18h37.38.435,premup-three_ses-01_part-01_label-phase1,3.2.4,Win32,60,left,0.815000057,4,0,4,0,1,3,1,0,240,55,1,239,,,,,,,,,,,,,,,,,,
,,0,145,,,,,,,1,5,1,stim/51.jpeg,Instruments,2,stim/objects/Instruments/keyboard.png,0.5,1,-0.2,0.15,right,7,2020-12-14_18h37.38.435,premup-three_ses-01_part-01_label-phase1,3.2.4,Win32,60,left,0.687000036,4,0,4,0,1,3,1,0,240,24,1,239,,,,,,,,,,,,,,,,,,
,,0,146,,,,,,,3,4,4,stim/44.jpeg,Instruments,2,stim/objects/Instruments/record_player2.png,0.1,3,-0.2,-0.15,right,7,2020-12-14_18h37.38.435,premup-three_ses-01_part-01_label-phase1,3.2.4,Win32,60,left,0.799999952,4,0,4,0,1,3,1,0,240,239,1,239,,,,,,,,,,,,,,,,,,
,,0,147,,,,,,,1,6,4,stim/64.jpeg,HouseObjects,1,stim/objects/HouseObjects/pitcher.png,0.5,4,0.2,-0.15,left,7,2020-12-14_18h37.38.435,premup-three_ses-01_part-01_label-phase1,3.2.4,Win32,60,right,0.452000141,4,0,4,0,1,3,1,0,240,59,1,239,,,,,,,,,,,,,,,,,,
,,1,148,,,,,,,1,6,2,stim/62.jpeg,Instruments,2,stim/objects/Instruments/musicsheet.png,0.5,1,-0.2,0.15,right,7,2020-12-14_18h37.38.435,premup-three_ses-01_part-01_label-phase1,3.2.4,Win32,60,right,0.751999855,4,0,4,0,1,3,1,0,240,73,1,239,,,,,,,,,,,,,,,,,,
,,1,149,,,,,,,3,3,3,stim/33.jpeg,Instruments,2,stim/objects/Instruments/musicstand2.png,0.9,2,0.2,0.15,right,7,2020-12-14_18h37.38.435,premup-three_ses-01_part-01_label-phase1,3.2.4,Win32,60,right,0.724999905,4,0,4,0,1,3,1,0,240,198,1,239,,,,,,,,,,,,,,,,,,
,,0,150,,,,,,,2,1,1,stim/11.jpeg,Instruments,2,stim/objects/Instruments/panflute.png,0.7,3,-0.2,-0.15,right,7,2020-12-14_18h37.38.435,premup-three_ses-01_part-01_label-phase1,3.2.4,Win32,60,left,0.742999792,4,0,4,0,1,3,1,0,240,100,1,239,,,,,,,,,,,,,,,,,,
,,1,151,,,,,,,3,3,2,stim/32.jpeg,Instruments,2,stim/objects/Instruments/musicsheet2.png,0.9,3,-0.2,-0.15,right,7,2020-12-14_18h37.38.435,premup-three_ses-01_part-01_label-phase1,3.2.4,Win32,60,right,0.592000008,4,0,4,0,1,3,1,0,240,169,1,239,,,,,,,,,,,,,,,,,,
,,1,152,,,,,,,3,3,3,stim/33.jpeg,Instruments,2,stim/objects/Instruments/musicstand2.png,0.9,2,0.2,0.15,right,7,2020-12-14_18h37.38.435,premup-three_ses-01_part-01_label-phase1,3.2.4,Win32,60,right,0.726000071,4,0,4,0,1,3,1,0,240,182,1,239,,,,,,,,,,,,,,,,,,
,,1,153,,,,,,,3,4,4,stim/44.jpeg,HouseObjects,1,stim/objects/HouseObjects/rug2.png,0.9,4,0.2,-0.15,left,7,2020-12-14_18h37.38.435,premup-three_ses-01_part-01_label-phase1,3.2.4,Win32,60,left,0.726999998,4,0,4,0,1,3,1,0,240,235,1,239,,,,,,,,,,,,,,,,,,
,,0,154,,,,,,,1,5,3,stim/53.jpeg,Instruments,2,stim/objects/Instruments/maraca.png,0.5,2,0.2,0.15,right,7,2020-12-14_18h37.38.435,premup-three_ses-01_part-01_label-phase1,3.2.4,Win32,60,left,1.08100009,4,0,4,0,1,3,1,0,240,26,1,239,,,,,,,,,,,,,,,,,,
,,1,155,,,,,,,2,2,2,stim/22.jpeg,HouseObjects,1,stim/objects/HouseObjects/ironingboard2.png,0.7,3,-0.2,-0.15,left,7,2020-12-14_18h37.38.435,premup-three_ses-01_part-01_label-phase1,3.2.4,Win32,60,left,0.914000034,4,0,4,0,1,3,1,0,240,129,1,239,,,,,,,,,,,,,,,,,,
,,0,156,,,,,,,1,5,4,stim/54.jpeg,Instruments,2,stim/objects/Instruments/marimba.png,0.5,4,0.2,-0.15,right,7,2020-12-14_18h37.38.435,premup-three_ses-01_part-01_label-phase1,3.2.4,Win32,60,left,0.940000057,4,0,4,0,1,3,1,0,240,35,1,239,,,,,,,,,,,,,,,,,,
,,1,157,,,,,,,1,6,1,stim/61.jpeg,Instruments,2,stim/objects/Instruments/metronome.png,0.5,3,-0.2,-0.15,right,7,2020-12-14_18h37.38.435,premup-three_ses-01_part-01_label-phase1,3.2.4,Win32,60,right,1.213999987,4,0,4,0,1,3,1,0,240,76,1,239,,,,,,,,,,,,,,,,,,
,,1,158,,,,,,,1,6,3,stim/63.jpeg,Instruments,2,stim/objects/Instruments/musicstand.png,0.5,2,0.2,0.15,right,7,2020-12-14_18h37.38.435,premup-three_ses-01_part-01_label-phase1,3.2.4,Win32,60,right,0.593999863,4,0,4,0,1,3,1,0,240,78,1,239,,,,,,,,,,,,,,,,,,
,,0,159,,,,,,,2,1,1,stim/11.jpeg,HouseObjects,1,stim/objects/HouseObjects/recyclingbin.png,0.3,2,0.2,0.15,left,7,2020-12-14_18h37.38.435,premup-three_ses-01_part-01_label-phase1,3.2.4,Win32,60,right,0.784000158,4,0,4,0,1,3,1,0,240,88,1,239,,,,,,,,,,,,,,,,,,
,,1,160,,,,,,,3,4,1,stim/41.jpeg,HouseObjects,1,stim/objects/HouseObjects/recyclingbin2.png,0.9,3,-0.2,-0.15,left,7,2020-12-14_18h37.38.435,premup-three_ses-01_part-01_label-phase1,3.2.4,Win32,60,left,0.933000088,4,0,4,0,1,3,1,0,240,212,1,239,,,,,,,,,,,,,,,,,,
,,1,161,,,,,,,1,5,1,stim/51.jpeg,HouseObjects,1,stim/objects/HouseObjects/iron.png,0.5,2,0.2,0.15,left,7,2020-12-14_18h37.38.435,premup-three_ses-01_part-01_label-phase1,3.2.4,Win32,60,left,0.780999899,4,0,4,0,1,3,1,0,240,12,1,239,,,,,,,,,,,,,,,,,,
,,0,162,,,,,,,2,1,2,stim/12.jpeg,HouseObjects,1,stim/objects/HouseObjects/remote.png,0.3,2,0.2,0.15,left,7,2020-12-14_18h37.38.435,premup-three_ses-01_part-01_label-phase1,3.2.4,Win32,60,right,0.957999945,4,0,4,0,1,3,1,0,240,85,1,239,,,,,,,,,,,,,,,,,,
,,0,163,,,,,,,1,6,1,stim/61.jpeg,HouseObjects,1,stim/objects/HouseObjects/lintroller.png,0.5,2,0.2,0.15,left,7,2020-12-14_18h37.38.435,premup-three_ses-01_part-01_label-phase1,3.2.4,Win32,60,right,0.677999973,4,0,4,0,1,3,1,0,240,52,1,239,,,,,,,,,,,,,,,,,,
,,1,164,,,,,,,3,4,4,stim/44.jpeg,HouseObjects,1,stim/objects/HouseObjects/rug2.png,0.9,4,0.2,-0.15,left,7,2020-12-14_18h37.38.435,premup-three_ses-01_part-01_label-phase1,3.2.4,Win32,60,left,1.044999838,4,0,4,0,1,3,1,0,240,215,1,239,,,,,,,,,,,,,,,,,,
,,1,165,,,,,,,3,3,3,stim/33.jpeg,Instruments,2,stim/objects/Instruments/musicstand2.png,0.9,2,0.2,0.15,right,7,2020-12-14_18h37.38.435,premup-three_ses-01_part-01_label-phase1,3.2.4,Win32,60,right,1.079999924,4,0,4,0,1,3,1,0,240,174,1,239,,,,,,,,,,,,,,,,,,
,,1,166,,,,,,,2,2,4,stim/24.jpeg,HouseObjects,1,stim/objects/HouseObjects/knife2.png,0.7,3,-0.2,-0.15,left,7,2020-12-14_18h37.38.435,premup-three_ses-01_part-01_label-phase1,3.2.4,Win32,60,left,1.062999964,4,0,4,0,1,3,1,0,240,139,1,239,,,,,,,,,,,,,,,,,,
,,1,167,,,,,,,3,3,4,stim/34.jpeg,Instruments,2,stim/objects/Instruments/oboe2.png,0.9,1,-0.2,0.15,right,7,2020-12-14_18h37.38.435,premup-three_ses-01_part-01_label-phase1,3.2.4,Win32,60,right,1.056999922,4,0,4,0,1,3,1,0,240,183,1,239,,,,,,,,,,,,,,,,,,
,,1,168,,,,,,,1,5,2,stim/52.jpeg,HouseObjects,1,stim/objects/HouseObjects/ironingboard.png,0.5,3,-0.2,-0.15,left,7,2020-12-14_18h37.38.435,premup-three_ses-01_part-01_label-phase1,3.2.4,Win32,60,left,0.650000095,4,0,4,0,1,3,1,0,240,5,1,239,,,,,,,,,,,,,,,,,,
,,1,169,,,,,,,1,5,2,stim/52.jpeg,HouseObjects,1,stim/objects/HouseObjects/ironingboard.png,0.5,2,0.2,0.15,left,7,2020-12-14_18h37.38.435,premup-three_ses-01_part-01_label-phase1,3.2.4,Win32,60,left,0.741000175,4,0,4,0,1,3,1,0,240,17,1,239,,,,,,,,,,,,,,,,,,
,,0,170,,,,,,,1,6,2,stim/62.jpeg,HouseObjects,1,stim/objects/HouseObjects/match.png,0.5,3,-0.2,-0.15,left,7,2020-12-14_18h37.38.435,premup-three_ses-01_part-01_label-phase1,3.2.4,Win32,60,right,0.904999971,4,0,4,0,1,3,1,0,240,57,1,239,,,,,,,,,,,,,,,,,,
,,0,171,,,,,,,1,5,3,stim/53.jpeg,Instruments,2,stim/objects/Instruments/maraca.png,0.5,4,0.2,-0.15,right,7,2020-12-14_18h37.38.435,premup-three_ses-01_part-01_label-phase1,3.2.4,Win32,60,left,0.886000156,4,0,4,0,1,3,1,0,240,38,1,239,,,,,,,,,,,,,,,,,,
,,1,172,,,,,,,2,2,3,stim/23.jpeg,HouseObjects,1,stim/objects/HouseObjects/key2.png,0.7,2,0.2,0.15,left,7,2020-12-14_18h37.38.435,premup-three_ses-01_part-01_label-phase1,3.2.4,Win32,60,left,1.072000027,4,0,4,0,1,3,1,0,240,134,1,239,,,,,,,,,,,,,,,,,,
,,0,173,,,,,,,2,1,2,stim/12.jpeg,HouseObjects,1,stim/objects/HouseObjects/remote.png,0.3,1,-0.2,0.15,left,7,2020-12-14_18h37.38.435,premup-three_ses-01_part-01_label-phase1,3.2.4,Win32,60,right,0.779999971,4,0,4,0,1,3,1,0,240,89,1,239,,,,,,,,,,,,,,,,,,
,,0,174,,,,,,,1,5,1,stim/51.jpeg,Instruments,2,stim/objects/Instruments/keyboard.png,0.5,4,0.2,-0.15,right,7,2020-12-14_18h37.38.435,premup-three_ses-01_part-01_label-phase1,3.2.4,Win32,60,left,0.565999985,4,0,4,0,1,3,1,0,240,36,1,239,,,,,,,,,,,,,,,,,,
,,0,175,,,,,,,2,1,1,stim/11.jpeg,Instruments,2,stim/objects/Instruments/panflute.png,0.7,3,-0.2,-0.15,right,7,2020-12-14_18h37.38.435,premup-three_ses-01_part-01_label-phase1,3.2.4,Win32,60,left,0.834000111,4,0,4,0,1,3,1,0,240,116,1,239,,,,,,,,,,,,,,,,,,
,,0,176,,,,,,,2,1,4,stim/14.jpeg,HouseObjects,1,stim/objects/HouseObjects/rug.png,0.3,2,0.2,0.15,left,7,2020-12-14_18h37.38.435,premup-three_ses-01_part-01_label-phase1,3.2.4,Win32,60,right,0.692000151,4,0,4,0,1,3,1,0,240,87,1,239,,,,,,,,,,,,,,,,,,
,,1,177,,,,,,,1,5,4,stim/54.jpeg,HouseObjects,1,stim/objects/HouseObjects/knife.png,0.5,2,0.2,0.15,left,7,2020-12-14_18h37.38.435,premup-three_ses-01_part-01_label-phase1,3.2.4,Win32,60,left,1.546000004,4,0,4,0,1,3,1,0,240,7,1,239,,,,,,,,,,,,,,,,,,
,,1,178,,,,,,,3,4,3,stim/43.jpeg,HouseObjects,1,stim/objects/HouseObjects/rubbergloves2.png,0.9,3,-0.2,-0.15,left,7,2020-12-14_18h37.38.435,premup-three_ses-01_part-01_label-phase1,3.2.4,Win32,60,left,1.243999958,4,0,4,0,1,3,1,0,240,230,1,239,,,,,,,,,,,,,,,,,,
,,1,179,,,,,,,3,3,2,stim/32.jpeg,Instruments,2,stim/objects/Instruments/musicsheet2.png,0.9,3,-0.2,-0.15,right,7,2020-12-14_18h37.38.435,premup-three_ses-01_part-01_label-phase1,3.2.4,Win32,60,right,0.555000067,4,0,4,0,1,3,1,0,240,193,1,239,,,,,,,,,,,,,,,,,,
,,1,180,,,,,,,3,4,1,stim/41.jpeg,HouseObjects,1,stim/objects/HouseObjects/recyclingbin2.png,0.9,1,-0.2,0.15,left,7,2020-12-14_18h37.38.435,premup-three_ses-01_part-01_label-phase1,3.2.4,Win32,60,left,1.052000046,4,0,4,0,1,3,1,0,240,224,1,239,,,,,,,,,,,,,,,,,,
,,1,181,,,,,,,2,2,2,stim/22.jpeg,HouseObjects,1,stim/objects/HouseObjects/ironingboard2.png,0.7,1,-0.2,0.15,left,7,2020-12-14_18h37.38.435,premup-three_ses-01_part-01_label-phase1,3.2.4,Win32,60,left,0.883000135,4,0,4,0,1,3,1,0,240,133,1,239,,,,,,,,,,,,,,,,,,
,,0,182,,,,,,,2,1,4,stim/14.jpeg,HouseObjects,1,stim/objects/HouseObjects/rug.png,0.3,3,-0.2,-0.15,left,7,2020-12-14_18h37.38.435,premup-three_ses-01_part-01_label-phase1,3.2.4,Win32,60,right,0.654000044,4,0,4,0,1,3,1,0,240,91,1,239,,,,,,,,,,,,,,,,,,
,,0,183,,,,,,,1,5,2,stim/52.jpeg,Instruments,2,stim/objects/Instruments/laud.png,0.5,4,0.2,-0.15,right,7,2020-12-14_18h37.38.435,premup-three_ses-01_part-01_label-phase1,3.2.4,Win32,60,left,0.681999922,4,0,4,0,1,3,1,0,240,33,1,239,,,,,,,,,,,,,,,,,,
,,1,184,,,,,,,3,4,1,stim/41.jpeg,HouseObjects,1,stim/objects/HouseObjects/recyclingbin2.png,0.9,1,-0.2,0.15,left,7,2020-12-14_18h37.38.435,premup-three_ses-01_part-01_label-phase1,3.2.4,Win32,60,left,0.752000093,4,0,4,0,1,3,1,0,240,208,1,239,,,,,,,,,,,,,,,,,,
,,1,185,,,,,,,2,2,1,stim/21.jpeg,HouseObjects,1,stim/objects/HouseObjects/iron2.png,0.7,1,-0.2,0.15,left,7,2020-12-14_18h37.38.435,premup-three_ses-01_part-01_label-phase1,3.2.4,Win32,60,left,1.269000053,4,0,4,0,1,3,1,0,240,120,1,239,,,,,,,,,,,,,,,,,,
,,1,186,,,,,,,3,4,2,stim/42.jpeg,HouseObjects,1,stim/objects/HouseObjects/remote2.png,0.9,3,-0.2,-0.15,left,7,2020-12-14_18h37.38.435,premup-three_ses-01_part-01_label-phase1,3.2.4,Win32,60,left,0.90899992,4,0,4,0,1,3,1,0,240,205,1,239,,,,,,,,,,,,,,,,,,
,,1,187,,,,,,,3,4,1,stim/41.jpeg,HouseObjects,1,stim/objects/HouseObjects/recyclingbin2.png,0.9,1,-0.2,0.15,left,7,2020-12-14_18h37.38.435,premup-three_ses-01_part-01_label-phase1,3.2.4,Win32,60,left,0.641000032,4,0,4,0,1,3,1,0,240,228,1,239,,,,,,,,,,,,,,,,,,
,,1,188,,,,,,,3,3,1,stim/31.jpeg,Instruments,2,stim/objects/Instruments/metronome2.png,0.9,3,-0.2,-0.15,right,7,2020-12-14_18h37.38.435,premup-three_ses-01_part-01_label-phase1,3.2.4,Win32,60,right,0.657999992,4,0,4,0,1,3,1,0,240,184,1,239,,,,,,,,,,,,,,,,,,
,,1,189,,,,,,,2,2,3,stim/23.jpeg,HouseObjects,1,stim/objects/HouseObjects/key2.png,0.7,3,-0.2,-0.15,left,7,2020-12-14_18h37.38.435,premup-three_ses-01_part-01_label-phase1,3.2.4,Win32,60,left,1.231000185,4,0,4,0,1,3,1,0,240,142,1,239,,,,,,,,,,,,,,,,,,
,,1,190,,,,,,,3,4,2,stim/42.jpeg,HouseObjects,1,stim/objects/HouseObjects/remote2.png,0.9,1,-0.2,0.15,left,7,2020-12-14_18h37.38.435,premup-three_ses-01_part-01_label-phase1,3.2.4,Win32,60,left,0.897000074,4,0,4,0,1,3,1,0,240,201,1,239,,,,,,,,,,,,,,,,,,
,,1,191,,,,,,,3,3,2,stim/32.jpeg,Instruments,2,stim/objects/Instruments/musicsheet2.png,0.9,1,-0.2,0.15,right,7,2020-12-14_18h37.38.435,premup-three_ses-01_part-01_label-phase1,3.2.4,Win32,60,right,0.539999962,4,0,4,0,1,3,1,0,240,185,1,239,,,,,,,,,,,,,,,,,,
,,1,192,,,,,,,3,3,1,stim/31.jpeg,Instruments,2,stim/objects/Instruments/metronome2.png,0.9,3,-0.2,-0.15,right,7,2020-12-14_18h37.38.435,premup-three_ses-01_part-01_label-phase1,3.2.4,Win32,60,right,0.713999987,4,0,4,0,1,3,1,0,240,188,1,239,,,,,,,,,,,,,,,,,,
,,1,193,,,,,,,3,4,2,stim/42.jpeg,HouseObjects,1,stim/objects/HouseObjects/remote2.png,0.9,1,-0.2,0.15,left,7,2020-12-14_18h37.38.435,premup-three_ses-01_part-01_label-phase1,3.2.4,Win32,60,left,0.713000059,4,0,4,0,1,3,1,0,240,209,1,239,,,,,,,,,,,,,,,,,,
,,1,194,,,,,,,3,4,3,stim/43.jpeg,HouseObjects,1,stim/objects/HouseObjects/rubbergloves2.png,0.9,1,-0.2,0.15,left,7,2020-12-14_18h37.38.435,premup-three_ses-01_part-01_label-phase1,3.2.4,Win32,60,left,0.625,4,0,4,0,1,3,1,0,240,210,1,239,,,,,,,,,,,,,,,,,,
,,1,195,,,,,,,3,4,3,stim/43.jpeg,HouseObjects,1,stim/objects/HouseObjects/rubbergloves2.png,0.9,1,-0.2,0.15,left,7,2020-12-14_18h37.38.435,premup-three_ses-01_part-01_label-phase1,3.2.4,Win32,60,left,0.611999989,4,0,4,0,1,3,1,0,240,234,1,239,,,,,,,,,,,,,,,,,,
,,0,196,,,,,,,2,1,1,stim/11.jpeg,HouseObjects,1,stim/objects/HouseObjects/recyclingbin.png,0.3,4,0.2,-0.15,left,7,2020-12-14_18h37.38.435,premup-three_ses-01_part-01_label-phase1,3.2.4,Win32,60,right,0.694000006,4,0,4,0,1,3,1,0,240,84,1,239,,,,,,,,,,,,,,,,,,
,,1,197,,,,,,,2,1,3,stim/13.jpeg,Instruments,2,stim/objects/Instruments/record.png,0.7,4,0.2,-0.15,right,7,2020-12-14_18h37.38.435,premup-three_ses-01_part-01_label-phase1,3.2.4,Win32,60,right,0.805000067,4,0,4,0,1,3,1,0,240,106,1,239,,,,,,,,,,,,,,,,,,
,,1,198,,,,,,,2,2,4,stim/24.jpeg,HouseObjects,1,stim/objects/HouseObjects/knife2.png,0.7,4,0.2,-0.15,left,7,2020-12-14_18h37.38.435,premup-three_ses-01_part-01_label-phase1,3.2.4,Win32,60,left,0.845000029,4,0,4,0,1,3,1,0,240,123,1,239,,,,,,,,,,,,,,,,,,
,,1,199,,,,,,,3,3,1,stim/31.jpeg,Instruments,2,stim/objects/Instruments/metronome2.png,0.9,1,-0.2,0.15,right,7,2020-12-14_18h37.38.435,premup-three_ses-01_part-01_label-phase1,3.2.4,Win32,60,right,0.904000044,4,0,4,0,1,3,1,0,240,164,1,239,,,,,,,,,,,,,,,,,,
,,0,200,,,,,,,2,1,3,stim/13.jpeg,HouseObjects,1,stim/objects/HouseObjects/rubbergloves.png,0.3,4,0.2,-0.15,left,7,2020-12-14_18h37.38.435,premup-three_ses-01_part-01_label-phase1,3.2.4,Win32,60,right,0.809999943,4,0,4,0,1,3,1,0,240,82,1,239,,,,,,,,,,,,,,,,,,
,,1,201,,,,,,,3,3,2,stim/32.jpeg,Instruments,2,stim/objects/Instruments/musicsheet2.png,0.9,4,0.2,-0.15,right,7,2020-12-14_18h37.38.435,premup-three_ses-01_part-01_label-phase1,3.2.4,Win32,60,right,0.669999838,4,0,4,0,1,3,1,0,240,165,1,239,,,,,,,,,,,,,,,,,,
,,1,202,,,,,,,1,6,2,stim/62.jpeg,HouseObjects,1,stim/objects/HouseObjects/match.png,0.5,1,-0.2,0.15,left,7,2020-12-14_18h37.38.435,premup-three_ses-01_part-01_label-phase1,3.2.4,Win32,60,left,1.269999981,4,0,4,0,1,3,1,0,240,49,1,239,,,,,,,,,,,,,,,,,,
,,1,203,,,,,,,2,1,4,stim/14.jpeg,Instruments,2,stim/objects/Instruments/record_player.png,0.7,3,-0.2,-0.15,right,7,2020-12-14_18h37.38.435,premup-three_ses-01_part-01_label-phase1,3.2.4,Win32,60,right,0.730999947,4,0,4,0,1,3,1,0,240,95,1,239,,,,,,,,,,,,,,,,,,
,,1,204,,,,,,,3,3,2,stim/32.jpeg,Instruments,2,stim/objects/Instruments/musicsheet2.png,0.9,4,0.2,-0.15,right,7,2020-12-14_18h37.38.435,premup-three_ses-01_part-01_label-phase1,3.2.4,Win32,60,right,0.663000107,4,0,4,0,1,3,1,0,240,189,1,239,,,,,,,,,,,,,,,,,,
,,1,205,,,,,,,2,1,3,stim/13.jpeg,Instruments,2,stim/objects/Instruments/record.png,0.7,4,0.2,-0.15,right,7,2020-12-14_18h37.38.435,premup-three_ses-01_part-01_label-phase1,3.2.4,Win32,60,right,0.644999981,4,0,4,0,1,3,1,0,240,110,1,239,,,,,,,,,,,,,,,,,,
,,1,206,,,,,,,1,5,1,stim/51.jpeg,HouseObjects,1,stim/objects/HouseObjects/iron.png,0.5,1,-0.2,0.15,left,7,2020-12-14_18h37.38.435,premup-three_ses-01_part-01_label-phase1,3.2.4,Win32,60,left,0.588000059,4,0,4,0,1,3,1,0,240,8,1,239,,,,,,,,,,,,,,,,,,
,,1,207,,,,,,,3,3,4,stim/34.jpeg,Instruments,2,stim/objects/Instruments/oboe2.png,0.9,3,-0.2,-0.15,right,7,2020-12-14_18h37.38.435,premup-three_ses-01_part-01_label-phase1,3.2.4,Win32,60,right,1.144000053,4,0,4,0,1,3,1,0,240,195,1,239,,,,,,,,,,,,,,,,,,
,,1,208,,,,,,,3,3,2,stim/32.jpeg,Instruments,2,stim/objects/Instruments/musicsheet2.png,0.9,4,0.2,-0.15,right,7,2020-12-14_18h37.38.435,premup-three_ses-01_part-01_label-phase1,3.2.4,Win32,60,right,0.689999819,4,0,4,0,1,3,1,0,240,197,1,239,,,,,,,,,,,,,,,,,,
,,1,209,,,,,,,1,6,2,stim/62.jpeg,Instruments,2,stim/objects/Instruments/musicsheet.png,0.5,4,0.2,-0.15,right,7,2020-12-14_18h37.38.435,premup-three_ses-01_part-01_label-phase1,3.2.4,Win32,60,right,0.919000149,4,0,4,0,1,3,1,0,240,61,1,239,,,,,,,,,,,,,,,,,,
,,1,210,,,,,,,2,2,3,stim/23.jpeg,HouseObjects,1,stim/objects/HouseObjects/key2.png,0.7,4,0.2,-0.15,left,7,2020-12-14_18h37.38.435,premup-three_ses-01_part-01_label-phase1,3.2.4,Win32,60,left,0.577000141,4,0,4,0,1,3,1,0,240,122,1,239,,,,,,,,,,,,,,,,,,
,,1,211,,,,,,,2,2,4,stim/24.jpeg,HouseObjects,1,stim/objects/HouseObjects/knife2.png,0.7,4,0.2,-0.15,left,7,2020-12-14_18h37.38.435,premup-three_ses-01_part-01_label-phase1,3.2.4,Win32,60,left,0.674000025,4,0,4,0,1,3,1,0,240,147,1,239,,,,,,,,,,,,,,,,,,
,,1,212,,,,,,,2,1,3,stim/13.jpeg,Instruments,2,stim/objects/Instruments/record.png,0.7,2,0.2,0.15,right,7,2020-12-14_18h37.38.435,premup-three_ses-01_part-01_label-phase1,3.2.4,Win32,60,right,0.621999979,4,0,4,0,1,3,1,0,240,98,1,239,,,,,,,,,,,,,,,,,,
,,1,213,,,,,,,1,6,1,stim/61.jpeg,Instruments,2,stim/objects/Instruments/metronome.png,0.5,2,0.2,0.15,right,7,2020-12-14_18h37.38.435,premup-three_ses-01_part-01_label-phase1,3.2.4,Win32,60,right,0.738000154,4,0,4,0,1,3,1,0,240,64,1,239,,,,,,,,,,,,,,,,,,
,,1,214,,,,,,,2,1,2,stim/12.jpeg,Instruments,2,stim/objects/Instruments/pipepiano.png,0.7,2,0.2,0.15,right,7,2020-12-14_18h37.38.435,premup-three_ses-01_part-01_label-phase1,3.2.4,Win32,60,right,0.659000158,4,0,4,0,1,3,1,0,240,105,1,239,,,,,,,,,,,,,,,,,,
,,1,215,,,,,,,3,4,3,stim/43.jpeg,HouseObjects,1,stim/objects/HouseObjects/rubbergloves2.png,0.9,2,0.2,0.15,left,7,2020-12-14_18h37.38.435,premup-three_ses-01_part-01_label-phase1,3.2.4,Win32,60,left,0.693000078,4,0,4,0,1,3,1,0,240,218,1,239,,,,,,,,,,,,,,,,,,
,,1,216,,,,,,,3,4,4,stim/44.jpeg,HouseObjects,1,stim/objects/HouseObjects/rug2.png,0.9,2,0.2,0.15,left,7,2020-12-14_18h37.38.435,premup-three_ses-01_part-01_label-phase1,3.2.4,Win32,60,left,0.711999893,4,0,4,0,1,3,1,0,240,219,1,239,,,,,,,,,,,,,,,,,,
,,0,217,,,,,,,1,6,4,stim/64.jpeg,HouseObjects,1,stim/objects/HouseObjects/pitcher.png,0.5,3,-0.2,-0.15,left,7,2020-12-14_18h37.38.435,premup-three_ses-01_part-01_label-phase1,3.2.4,Win32,60,right,0.690000057,4,0,4,0,1,3,1,0,240,47,1,239,,,,,,,,,,,,,,,,,,
,,0,218,,,,,,,1,6,3,stim/63.jpeg,HouseObjects,1,stim/objects/HouseObjects/pan.png,0.5,4,0.2,-0.15,left,7,2020-12-14_18h37.38.435,premup-three_ses-01_part-01_label-phase1,3.2.4,Win32,60,right,0.736000061,4,0,4,0,1,3,1,0,240,46,1,239,,,,,,,,,,,,,,,,,,
,,0,219,,,,,,,1,6,1,stim/61.jpeg,Instruments,2,stim/objects/Instruments/metronome.png,0.5,3,-0.2,-0.15,right,7,2020-12-14_18h37.38.435,premup-three_ses-01_part-01_label-phase1,3.2.4,Win32,60,left,0.717999935,4,0,4,0,1,3,1,0,240,68,1,239,,,,,,,,,,,,,,,,,,
,,1,220,,,,,,,1,5,4,stim/54.jpeg,HouseObjects,1,stim/objects/HouseObjects/knife.png,0.5,3,-0.2,-0.15,left,7,2020-12-14_18h37.38.435,premup-three_ses-01_part-01_label-phase1,3.2.4,Win32,60,left,0.853999853,4,0,4,0,1,3,1,0,240,15,1,239,,,,,,,,,,,,,,,,,,
,,0,221,,,,,,,1,6,1,stim/61.jpeg,Instruments,2,stim/objects/Instruments/metronome.png,0.5,1,-0.2,0.15,right,7,2020-12-14_18h37.38.435,premup-three_ses-01_part-01_label-phase1,3.2.4,Win32,60,left,1.263999939,4,0,4,0,1,3,1,0,240,72,1,239,,,,,,,,,,,,,,,,,,
,,0,222,,,,,,,1,6,1,stim/61.jpeg,HouseObjects,1,stim/objects/HouseObjects/lintroller.png,0.5,4,0.2,-0.15,left,7,2020-12-14_18h37.38.435,premup-three_ses-01_part-01_label-phase1,3.2.4,Win32,60,right,0.578999996,4,0,4,0,1,3,1,0,240,44,1,239,,,,,,,,,,,,,,,,,,
,,0,223,,,,,,,2,2,2,stim/22.jpeg,HouseObjects,1,stim/objects/HouseObjects/ironingboard2.png,0.7,4,0.2,-0.15,left,7,2020-12-14_18h37.38.435,premup-three_ses-01_part-01_label-phase1,3.2.4,Win32,60,,,4,0,4,0,1,3,1,0,240,125,1,239,,,,,,,,,,,,,,,,,,
,,0,224,,,,,,,1,5,1,stim/51.jpeg,Instruments,2,stim/objects/Instruments/keyboard.png,0.5,4,0.2,-0.15,right,7,2020-12-14_18h37.38.435,premup-three_ses-01_part-01_label-phase1,3.2.4,Win32,60,left,0.703999996,4,0,4,0,1,3,1,0,240,28,1,239,,,,,,,,,,,,,,,,,,
,,1,225,,,,,,,3,4,3,stim/43.jpeg,HouseObjects,1,stim/objects/HouseObjects/rubbergloves2.png,0.9,4,0.2,-0.15,left,7,2020-12-14_18h37.38.435,premup-three_ses-01_part-01_label-phase1,3.2.4,Win32,60,left,0.60800004,4,0,4,0,1,3,1,0,240,222,1,239,,,,,,,,,,,,,,,,,,
,,1,226,,,,,,,2,1,2,stim/12.jpeg,Instruments,2,stim/objects/Instruments/pipepiano.png,0.7,1,-0.2,0.15,right,7,2020-12-14_18h37.38.435,premup-three_ses-01_part-01_label-phase1,3.2.4,Win32,60,right,0.861999989,4,0,4,0,1,3,1,0,240,93,1,239,,,,,,,,,,,,,,,,,,
,,1,227,,,,,,,3,4,1,stim/41.jpeg,HouseObjects,1,stim/objects/HouseObjects/recyclingbin2.png,0.9,1,-0.2,0.15,left,7,2020-12-14_18h37.38.435,premup-three_ses-01_part-01_label-phase1,3.2.4,Win32,60,left,0.607000113,4,0,4,0,1,3,1,0,240,200,1,239,,,,,,,,,,,,,,,,,,
,,1,228,,,,,,,3,3,2,stim/32.jpeg,Instruments,2,stim/objects/Instruments/musicsheet2.png,0.9,4,0.2,-0.15,right,7,2020-12-14_18h37.38.435,premup-three_ses-01_part-01_label-phase1,3.2.4,Win32,60,right,0.592000008,4,0,4,0,1,3,1,0,240,177,1,239,,,,,,,,,,,,,,,,,,
,,0,229,,,,,,,1,6,2,stim/62.jpeg,HouseObjects,1,stim/objects/HouseObjects/match.png,0.5,4,0.2,-0.15,left,7,2020-12-14_18h37.38.435,premup-three_ses-01_part-01_label-phase1,3.2.4,Win32,60,right,0.786000013,4,0,4,0,1,3,1,0,240,45,1,239,,,,,,,,,,,,,,,,,,
,,0,230,,,,,,,1,6,4,stim/64.jpeg,Instruments,2,stim/objects/Instruments/oboe.png,0.5,1,-0.2,0.15,right,7,2020-12-14_18h37.38.435,premup-three_ses-01_part-01_label-phase1,3.2.4,Win32,60,left,1.198000193,4,0,4,0,1,3,1,0,240,71,1,239,,,,,,,,,,,,,,,,,,
,,1,231,,,,,,,3,4,1,stim/41.jpeg,HouseObjects,1,stim/objects/HouseObjects/recyclingbin2.png,0.9,2,0.2,0.15,left,7,2020-12-14_18h37.38.435,premup-three_ses-01_part-01_label-phase1,3.2.4,Win32,60,left,0.694000006,4,0,4,0,1,3,1,0,240,216,1,239,,,,,,,,,,,,,,,,,,
,,1,232,,,,,,,3,4,2,stim/42.jpeg,HouseObjects,1,stim/objects/HouseObjects/remote2.png,0.9,2,0.2,0.15,left,7,2020-12-14_18h37.38.435,premup-three_ses-01_part-01_label-phase1,3.2.4,Win32,60,left,0.687999964,4,0,4,0,1,3,1,0,240,213,1,239,,,,,,,,,,,,,,,,,,
,,1,233,,,,,,,3,3,1,stim/31.jpeg,Instruments,2,stim/objects/Instruments/metronome2.png,0.9,2,0.2,0.15,right,7,2020-12-14_18h37.38.435,premup-three_ses-01_part-01_label-phase1,3.2.4,Win32,60,right,0.602999926,4,0,4,0,1,3,1,0,240,176,1,239,,,,,,,,,,,,,,,,,,
,,0,234,,,,,,,3,4,3,stim/43.jpeg,HouseObjects,1,stim/objects/HouseObjects/rubbergloves2.png,0.9,2,0.2,0.15,left,7,2020-12-14_18h37.38.435,premup-three_ses-01_part-01_label-phase1,3.2.4,Win32,60,right,0.514999866,4,0,4,0,1,3,1,0,240,226,1,239,,,,,,,,,,,,,,,,,,
,,1,235,,,,,,,1,5,1,stim/51.jpeg,HouseObjects,1,stim/objects/HouseObjects/iron.png,0.5,1,-0.2,0.15,left,7,2020-12-14_18h37.38.435,premup-three_ses-01_part-01_label-phase1,3.2.4,Win32,60,left,0.73300004,4,0,4,0,1,3,1,0,240,4,1,239,,,,,,,,,,,,,,,,,,
,,1,236,,,,,,,3,4,4,stim/44.jpeg,HouseObjects,1,stim/objects/HouseObjects/rug2.png,0.9,4,0.2,-0.15,left,7,2020-12-14_18h37.38.435,premup-three_ses-01_part-01_label-phase1,3.2.4,Win32,60,left,0.644999981,4,0,4,0,1,3,1,0,240,211,1,239,,,,,,,,,,,,,,,,,,
,,1,237,,,,,,,1,6,3,stim/63.jpeg,Instruments,2,stim/objects/Instruments/musicstand.png,0.5,1,-0.2,0.15,right,7,2020-12-14_18h37.38.435,premup-three_ses-01_part-01_label-phase1,3.2.4,Win32,60,right,0.602999926,4,0,4,0,1,3,1,0,240,74,1,239,,,,,,,,,,,,,,,,,,
,,0,238,,,,,,,1,6,4,stim/64.jpeg,Instruments,2,stim/objects/Instruments/oboe.png,0.5,3,-0.2,-0.15,right,7,2020-12-14_18h37.38.435,premup-three_ses-01_part-01_label-phase1,3.2.4,Win32,60,left,1.079999924,4,0,4,0,1,3,1,0,240,63,1,239,,,,,,,,,,,,,,,,,,
,,0,239,,,,,,,2,2,4,stim/24.jpeg,Instruments,2,stim/objects/Instruments/marimba2.png,0.3,2,0.2,0.15,right,7,2020-12-14_18h37.38.435,premup-three_ses-01_part-01_label-phase1,3.2.4,Win32,60,left,0.907999992,4,0,4,0,1,3,1,0,240,159,1,239,,,,,,,,,,,,,,,,,,
,,1,240,,,,,,,2,1,3,stim/13.jpeg,Instruments,2,stim/objects/Instruments/record.png,0.7,4,0.2,-0.15,right,7,2020-12-14_18h37.38.435,premup-three_ses-01_part-01_label-phase1,3.2.4,Win32,60,right,0.628999949,4,0,4,0,1,3,1,0,240,94,1,239,,,,,,,,,,,,,,,,,,
,,,,,,,,,,,4,,stim/41.jpeg,,,,,,,,,7,2020-12-14_18h37.38.435,premup-three_ses-01_part-01_label-phase1,3.2.4,Win32,60,,,4,0,4,0,1,3,,,,,,,1,0,90,12.27800012,,,1,0,6,3,1,5,Household items,65,75,Music items,25,35
,,,,,,,,,,,6,,stim/61.jpeg,,,,,,,,,7,2020-12-14_18h37.38.435,premup-three_ses-01_part-01_label-phase1,3.2.4,Win32,60,,,4,0,4,0,1,3,,,,,,,1,0,50,5.000999928,,,1,0,6,5,1,5,Household items,5,15,Music items,85,95
,,,,,,,,,,,2,,stim/21.jpeg,,,,,,,,,7,2020-12-14_18h37.38.435,premup-three_ses-01_part-01_label-phase1,3.2.4,Win32,60,,,4,0,4,0,1,3,,,,,,,1,0,10,6.637000084,,,1,0,6,1,1,5,Music items,45,55,Household items,45,55
,,,,,,,,,,,3,,stim/31.jpeg,,,,,,,,,7,2020-12-14_18h37.38.435,premup-three_ses-01_part-01_label-phase1,3.2.4,Win32,60,,,4,0,4,0,1,3,,,,,,,1,0,0,4,,,1,0,6,2,1,5,Household items,65,75,Music items,25,35
,,,,,,,,,,,1,,stim/11.jpeg,,,,,,,,,7,2020-12-14_18h37.38.435,premup-three_ses-01_part-01_label-phase1,3.2.4,Win32,60,,,4,0,4,0,1,3,,,,,,,1,0,10,5.036000013,,,1,0,6,0,1,5,Household items,45,55,Music items,45,55
,,,,,,,,,,,5,,stim/51.jpeg,,,,,,,,,7,2020-12-14_18h37.38.435,premup-three_ses-01_part-01_label-phase1,3.2.4,Win32,60,,,4,0,4,0,1,3,,,,,,,1,0,20,8.840000153,,,1,0,6,4,1,5,Music items,5,15,Household items,85,95
,,,,,,,,,,,,,,,,,,,,,,7,2020-12-14_18h37.38.435,premup-three_ses-01_part-01_label-phase1,3.2.4,Win32,60,,,4,0,4,0,1,3,,,,,,,,,,,,,,,,,,,,,,,,
,,0,1,,,,,,,3,4,4,stim/44.jpeg,HouseObjects,1,stim/objects/HouseObjects/rug2.png,0.9,4,0.2,-0.15,left,7,2020-12-14_18h37.38.435,premup-three_ses-01_part-01_label-phase1,3.2.4,Win32,60,right,1.477999926,4,0,4,0,1,3,1,0,240,215,1,239,,,,,,,,,,,,,,,,,,
,,1,2,,,,,,,2,1,2,stim/12.jpeg,Instruments,2,stim/objects/Instruments/pipepiano.png,0.7,2,0.2,0.15,right,7,2020-12-14_18h37.38.435,premup-three_ses-01_part-01_label-phase1,3.2.4,Win32,60,right,1.292000055,4,0,4,0,1,3,1,0,240,109,1,239,,,,,,,,,,,,,,,,,,
,,1,3,,,,,,,2,1,1,stim/11.jpeg,Instruments,2,stim/objects/Instruments/panflute.png,0.7,1,-0.2,0.15,right,7,2020-12-14_18h37.38.435,premup-three_ses-01_part-01_label-phase1,3.2.4,Win32,60,right,0.69299984,4,0,4,0,1,3,1,0,240,92,1,239,,,,,,,,,,,,,,,,,,
,,0,4,,,,,,,1,6,2,stim/62.jpeg,HouseObjects,1,stim/objects/HouseObjects/match.png,0.5,3,-0.2,-0.15,left,7,2020-12-14_18h37.38.435,premup-three_ses-01_part-01_label-phase1,3.2.4,Win32,60,right,0.703999996,4,0,4,0,1,3,1,0,240,57,1,239,,,,,,,,,,,,,,,,,,
,,1,5,,,,,,,2,2,2,stim/22.jpeg,HouseObjects,1,stim/objects/HouseObjects/ironingboard2.png,0.7,3,-0.2,-0.15,left,7,2020-12-14_18h37.38.435,premup-three_ses-01_part-01_label-phase1,3.2.4,Win32,60,left,0.945999861,4,0,4,0,1,3,1,0,240,137,1,239,,,,,,,,,,,,,,,,,,
,,0,6,,,,,,,1,6,2,stim/62.jpeg,Instruments,2,stim/objects/Instruments/musicsheet.png,0.5,4,0.2,-0.15,right,7,2020-12-14_18h37.38.435,premup-three_ses-01_part-01_label-phase1,3.2.4,Win32,60,left,0.848999977,4,0,4,0,1,3,1,0,240,61,1,239,,,,,,,,,,,,,,,,,,
,,1,7,,,,,,,3,4,1,stim/41.jpeg,HouseObjects,1,stim/objects/HouseObjects/recyclingbin2.png,0.9,3,-0.2,-0.15,left,7,2020-12-14_18h37.38.435,premup-three_ses-01_part-01_label-phase1,3.2.4,Win32,60,left,0.861000061,4,0,4,0,1,3,1,0,240,232,1,239,,,,,,,,,,,,,,,,,,
,,1,8,,,,,,,3,4,1,stim/41.jpeg,HouseObjects,1,stim/objects/HouseObjects/recyclingbin2.png,0.9,3,-0.2,-0.15,left,7,2020-12-14_18h37.38.435,premup-three_ses-01_part-01_label-phase1,3.2.4,Win32,60,left,0.600000143,4,0,4,0,1,3,1,0,240,212,1,239,,,,,,,,,,,,,,,,,,
,,0,9,,,,,,,1,5,3,stim/53.jpeg,Instruments,2,stim/objects/Instruments/maraca.png,0.5,2,0.2,0.15,right,7,2020-12-14_18h37.38.435,premup-three_ses-01_part-01_label-phase1,3.2.4,Win32,60,left,0.813000202,4,0,4,0,1,3,1,0,240,34,1,239,,,,,,,,,,,,,,,,,,
,,1,10,,,,,,,2,2,3,stim/23.jpeg,HouseObjects,1,stim/objects/HouseObjects/key2.png,0.7,1,-0.2,0.15,left,7,2020-12-14_18h37.38.435,premup-three_ses-01_part-01_label-phase1,3.2.4,Win32,60,left,0.85800004,4,0,4,0,1,3,1,0,240,138,1,239,,,,,,,,,,,,,,,,,,
,,0,11,,,,,,,2,1,3,stim/13.jpeg,HouseObjects,1,stim/objects/HouseObjects/rubbergloves.png,0.3,1,-0.2,0.15,left,7,2020-12-14_18h37.38.435,premup-three_ses-01_part-01_label-phase1,3.2.4,Win32,60,right,0.70299983,4,0,4,0,1,3,1,0,240,90,1,239,,,,,,,,,,,,,,,,,,
,,1,12,,,,,,,1,6,3,stim/63.jpeg,HouseObjects,1,stim/objects/HouseObjects/pan.png,0.5,1,-0.2,0.15,left,7,2020-12-14_18h37.38.435,premup-three_ses-01_part-01_label-phase1,3.2.4,Win32,60,left,1.099999905,4,0,4,0,1,3,1,0,240,58,1,239,,,,,,,,,,,,,,,,,,
,,1,13,,,,,,,1,6,1,stim/61.jpeg,HouseObjects,1,stim/objects/HouseObjects/lintroller.png,0.5,2,0.2,0.15,left,7,2020-12-14_18h37.38.435,premup-three_ses-01_part-01_label-phase1,3.2.4,Win32,60,left,1.296999931,4,0,4,0,1,3,1,0,240,48,1,239,,,,,,,,,,,,,,,,,,
,,1,14,,,,,,,3,4,2,stim/42.jpeg,HouseObjects,1,stim/objects/HouseObjects/remote2.png,0.9,3,-0.2,-0.15,left,7,2020-12-14_18h37.38.435,premup-three_ses-01_part-01_label-phase1,3.2.4,Win32,60,left,0.822000027,4,0,4,0,1,3,1,0,240,205,1,239,,,,,,,,,,,,,,,,,,
,,1,15,,,,,,,3,4,2,stim/42.jpeg,HouseObjects,1,stim/objects/HouseObjects/remote2.png,0.9,3,-0.2,-0.15,left,7,2020-12-14_18h37.38.435,premup-three_ses-01_part-01_label-phase1,3.2.4,Win32,60,left,0.508999825,4,0,4,0,1,3,1,0,240,229,1,239,,,,,,,,,,,,,,,,,,
,,1,16,,,,,,,1,5,3,stim/53.jpeg,HouseObjects,1,stim/objects/HouseObjects/key.png,0.5,1,-0.2,0.15,left,7,2020-12-14_18h37.38.435,premup-three_ses-01_part-01_label-phase1,3.2.4,Win32,60,left,0.774999857,4,0,4,0,1,3,1,0,240,2,1,239,,,,,,,,,,,,,,,,,,
,,0,17,,,,,,,1,5,2,stim/52.jpeg,HouseObjects,1,stim/objects/HouseObjects/ironingboard.png,0.5,2,0.2,0.15,left,7,2020-12-14_18h37.38.435,premup-three_ses-01_part-01_label-phase1,3.2.4,Win32,60,right,0.873999834,4,0,4,0,1,3,1,0,240,17,1,239,,,,,,,,,,,,,,,,,,
,,1,18,,,,,,,1,6,1,stim/61.jpeg,Instruments,2,stim/objects/Instruments/metronome.png,0.5,3,-0.2,-0.15,right,7,2020-12-14_18h37.38.435,premup-three_ses-01_part-01_label-phase1,3.2.4,Win32,60,right,1.01699996,4,0,4,0,1,3,1,0,240,76,1,239,,,,,,,,,,,,,,,,,,
,,1,19,,,,,,,3,3,2,stim/32.jpeg,Instruments,2,stim/objects/Instruments/musicsheet2.png,0.9,1,-0.2,0.15,right,7,2020-12-14_18h37.38.435,premup-three_ses-01_part-01_label-phase1,3.2.4,Win32,60,right,0.612999916,4,0,4,0,1,3,1,0,240,185,1,239,,,,,,,,,,,,,,,,,,
,,1,20,,,,,,,1,6,2,stim/62.jpeg,HouseObjects,1,stim/objects/HouseObjects/match.png,0.5,3,-0.2,-0.15,left,7,2020-12-14_18h37.38.435,premup-three_ses-01_part-01_label-phase1,3.2.4,Win32,60,left,0.693000078,4,0,4,0,1,3,1,0,240,41,1,239,,,,,,,,,,,,,,,,,,
,,0,21,,,,,,,1,5,2,stim/52.jpeg,Instruments,2,stim/objects/Instruments/laud.png,0.5,2,0.2,0.15,right,7,2020-12-14_18h37.38.435,premup-three_ses-01_part-01_label-phase1,3.2.4,Win32,60,left,1.08100009,4,0,4,0,1,3,1,0,240,29,1,239,,,,,,,,,,,,,,,,,,
,,1,22,,,,,,,1,5,2,stim/52.jpeg,HouseObjects,1,stim/objects/HouseObjects/ironingboard.png,0.5,2,0.2,0.15,left,7,2020-12-14_18h37.38.435,premup-three_ses-01_part-01_label-phase1,3.2.4,Win32,60,left,0.845000029,4,0,4,0,1,3,1,0,240,1,1,239,,,,,,,,,,,,,,,,,,
,,1,23,,,,,,,2,2,3,stim/23.jpeg,HouseObjects,1,stim/objects/HouseObjects/key2.png,0.7,2,0.2,0.15,left,7,2020-12-14_18h37.38.435,premup-three_ses-01_part-01_label-phase1,3.2.4,Win32,60,left,1.258999825,4,0,4,0,1,3,1,0,240,134,1,239,,,,,,,,,,,,,,,,,,
,,1,24,,,,,,,3,4,3,stim/43.jpeg,HouseObjects,1,stim/objects/HouseObjects/rubbergloves2.png,0.9,3,-0.2,-0.15,left,7,2020-12-14_18h37.38.435,premup-three_ses-01_part-01_label-phase1,3.2.4,Win32,60,left,1.148000002,4,0,4,0,1,3,1,0,240,206,1,239,,,,,,,,,,,,,,,,,,
,,1,25,,,,,,,1,5,3,stim/53.jpeg,HouseObjects,1,stim/objects/HouseObjects/key.png,0.5,3,-0.2,-0.15,left,7,2020-12-14_18h37.38.435,premup-three_ses-01_part-01_label-phase1,3.2.4,Win32,60,left,1.032999992,4,0,4,0,1,3,1,0,240,10,1,239,,,,,,,,,,,,,,,,,,
,,1,26,,,,,,,1,6,3,stim/63.jpeg,Instruments,2,stim/objects/Instruments/musicstand.png,0.5,4,0.2,-0.15,right,7,2020-12-14_18h37.38.435,premup-three_ses-01_part-01_label-phase1,3.2.4,Win32,60,right,0.93200016,4,0,4,0,1,3,1,0,240,62,1,239,,,,,,,,,,,,,,,,,,
,,1,27,,,,,,,2,2,4,stim/24.jpeg,HouseObjects,1,stim/objects/HouseObjects/knife2.png,0.7,2,0.2,0.15,left,7,2020-12-14_18h37.38.435,premup-three_ses-01_part-01_label-phase1,3.2.4,Win32,60,left,0.838999987,4,0,4,0,1,3,1,0,240,135,1,239,,,,,,,,,,,,,,,,,,
,,0,28,,,,,,,1,5,4,stim/54.jpeg,Instruments,2,stim/objects/Instruments/marimba.png,0.5,3,-0.2,-0.15,right,7,2020-12-14_18h37.38.435,premup-three_ses-01_part-01_label-phase1,3.2.4,Win32,60,left,1.023000002,4,0,4,0,1,3,1,0,240,31,1,239,,,,,,,,,,,,,,,,,,
,,1,29,,,,,,,1,5,1,stim/51.jpeg,HouseObjects,1,stim/objects/HouseObjects/iron.png,0.5,2,0.2,0.15,left,7,2020-12-14_18h37.38.435,premup-three_ses-01_part-01_label-phase1,3.2.4,Win32,60,left,1.256000042,4,0,4,0,1,3,1,0,240,12,1,239,,,,,,,,,,,,,,,,,,
,,1,30,,,,,,,3,3,4,stim/34.jpeg,Instruments,2,stim/objects/Instruments/oboe2.png,0.9,3,-0.2,-0.15,right,7,2020-12-14_18h37.38.435,premup-three_ses-01_part-01_label-phase1,3.2.4,Win32,60,right,0.646000147,4,0,4,0,1,3,1,0,240,195,1,239,,,,,,,,,,,,,,,,,,
,,1,31,,,,,,,2,2,3,stim/23.jpeg,HouseObjects,1,stim/objects/HouseObjects/key2.png,0.7,2,0.2,0.15,left,7,2020-12-14_18h37.38.435,premup-three_ses-01_part-01_label-phase1,3.2.4,Win32,60,left,0.855000019,4,0,4,0,1,3,1,0,240,146,1,239,,,,,,,,,,,,,,,,,,
,,0,32,,,,,,,2,2,4,stim/24.jpeg,Instruments,2,stim/objects/Instruments/marimba2.png,0.3,3,-0.2,-0.15,right,7,2020-12-14_18h37.38.435,premup-three_ses-01_part-01_label-phase1,3.2.4,Win32,60,left,1.346999884,4,0,4,0,1,3,1,0,240,151,1,239,,,,,,,,,,,,,,,,,,
,,1,33,,,,,,,2,1,3,stim/13.jpeg,Instruments,2,stim/objects/Instruments/record.png,0.7,4,0.2,-0.15,right,7,2020-12-14_18h37.38.435,premup-three_ses-01_part-01_label-phase1,3.2.4,Win32,60,right,1.116000175,4,0,4,0,1,3,1,0,240,106,1,239,,,,,,,,,,,,,,,,,,
,,0,34,,,,,,,1,6,2,stim/62.jpeg,Instruments,2,stim/objects/Instruments/musicsheet.png,0.5,1,-0.2,0.15,right,7,2020-12-14_18h37.38.435,premup-three_ses-01_part-01_label-phase1,3.2.4,Win32,60,left,0.94900012,4,0,4,0,1,3,1,0,240,73,1,239,,,,,,,,,,,,,,,,,,
,,1,35,,,,,,,3,4,3,stim/43.jpeg,HouseObjects,1,stim/objects/HouseObjects/rubbergloves2.png,0.9,1,-0.2,0.15,left,7,2020-12-14_18h37.38.435,premup-three_ses-01_part-01_label-phase1,3.2.4,Win32,60,left,0.712999821,4,0,4,0,1,3,1,0,240,210,1,239,,,,,,,,,,,,,,,,,,
,,0,36,,,,,,,1,5,4,stim/54.jpeg,Instruments,2,stim/objects/Instruments/marimba.png,0.5,4,0.2,-0.15,right,7,2020-12-14_18h37.38.435,premup-three_ses-01_part-01_label-phase1,3.2.4,Win32,60,left,0.878999949,4,0,4,0,1,3,1,0,240,35,1,239,,,,,,,,,,,,,,,,,,
,,0,37,,,,,,,1,5,3,stim/53.jpeg,Instruments,2,stim/objects/Instruments/maraca.png,0.5,3,-0.2,-0.15,right,7,2020-12-14_18h37.38.435,premup-three_ses-01_part-01_label-phase1,3.2.4,Win32,60,left,1.065999985,4,0,4,0,1,3,1,0,240,30,1,239,,,,,,,,,,,,,,,,,,
,,0,38,,,,,,,1,5,3,stim/53.jpeg,HouseObjects,1,stim/objects/HouseObjects/key.png,0.5,4,0.2,-0.15,left,7,2020-12-14_18h37.38.435,premup-three_ses-01_part-01_label-phase1,3.2.4,Win32,60,right,0.911000013,4,0,4,0,1,3,1,0,240,18,1,239,,,,,,,,,,,,,,,,,,
,,1,39,,,,,,,1,5,4,stim/54.jpeg,HouseObjects,1,stim/objects/HouseObjects/knife.png,0.5,3,-0.2,-0.15,left,7,2020-12-14_18h37.38.435,premup-three_ses-01_part-01_label-phase1,3.2.4,Win32,60,left,0.816999912,4,0,4,0,1,3,1,0,240,15,1,239,,,,,,,,,,,,,,,,,,
,,0,40,,,,,,,2,1,4,stim/14.jpeg,HouseObjects,1,stim/objects/HouseObjects/rug.png,0.3,3,-0.2,-0.15,left,7,2020-12-14_18h37.38.435,premup-three_ses-01_part-01_label-phase1,3.2.4,Win32,60,right,0.743999958,4,0,4,0,1,3,1,0,240,91,1,239,,,,,,,,,,,,,,,,,,
,,1,41,,,,,,,2,1,2,stim/12.jpeg,Instruments,2,stim/objects/Instruments/pipepiano.png,0.7,1,-0.2,0.15,right,7,2020-12-14_18h37.38.435,premup-three_ses-01_part-01_label-phase1,3.2.4,Win32,60,right,0.592999935,4,0,4,0,1,3,1,0,240,93,1,239,,,,,,,,,,,,,,,,,,
,,1,42,,,,,,,3,3,1,stim/31.jpeg,Instruments,2,stim/objects/Instruments/metronome2.png,0.9,2,0.2,0.15,right,7,2020-12-14_18h37.38.435,premup-three_ses-01_part-01_label-phase1,3.2.4,Win32,60,right,0.633999825,4,0,4,0,1,3,1,0,240,176,1,239,,,,,,,,,,,,,,,,,,
,,1,43,,,,,,,3,4,4,stim/44.jpeg,HouseObjects,1,stim/objects/HouseObjects/rug2.png,0.9,2,0.2,0.15,left,7,2020-12-14_18h37.38.435,premup-three_ses-01_part-01_label-phase1,3.2.4,Win32,60,left,0.876999855,4,0,4,0,1,3,1,0,240,231,1,239,,,,,,,,,,,,,,,,,,
,,1,44,,,,,,,3,3,2,stim/32.jpeg,Instruments,2,stim/objects/Instruments/musicsheet2.png,0.9,3,-0.2,-0.15,right,7,2020-12-14_18h37.38.435,premup-three_ses-01_part-01_label-phase1,3.2.4,Win32,60,right,0.632999897,4,0,4,0,1,3,1,0,240,193,1,239,,,,,,,,,,,,,,,,,,
,,1,45,,,,,,,1,6,3,stim/63.jpeg,Instruments,2,stim/objects/Instruments/musicstand.png,0.5,1,-0.2,0.15,right,7,2020-12-14_18h37.38.435,premup-three_ses-01_part-01_label-phase1,3.2.4,Win32,60,right,1.00999999,4,0,4,0,1,3,1,0,240,74,1,239,,,,,,,,,,,,,,,,,,
,,1,46,,,,,,,3,4,3,stim/43.jpeg,HouseObjects,1,stim/objects/HouseObjects/rubbergloves2.png,0.9,2,0.2,0.15,left,7,2020-12-14_18h37.38.435,premup-three_ses-01_part-01_label-phase1,3.2.4,Win32,60,left,0.784000158,4,0,4,0,1,3,1,0,240,214,1,239,,,,,,,,,,,,,,,,,,
,,0,47,,,,,,,2,1,4,stim/14.jpeg,HouseObjects,1,stim/objects/HouseObjects/rug.png,0.3,4,0.2,-0.15,left,7,2020-12-14_18h37.38.435,premup-three_ses-01_part-01_label-phase1,3.2.4,Win32,60,right,0.715000153,4,0,4,0,1,3,1,0,240,83,1,239,,,,,,,,,,,,,,,,,,
,,1,48,,,,,,,3,4,4,stim/44.jpeg,HouseObjects,1,stim/objects/HouseObjects/rug2.png,0.9,1,-0.2,0.15,left,7,2020-12-14_18h37.38.435,premup-three_ses-01_part-01_label-phase1,3.2.4,Win32,60,left,0.720999956,4,0,4,0,1,3,1,0,240,207,1,239,,,,,,,,,,,,,,,,,,
,,1,49,,,,,,,2,1,3,stim/13.jpeg,Instruments,2,stim/objects/Instruments/record.png,0.7,2,0.2,0.15,right,7,2020-12-14_18h37.38.435,premup-three_ses-01_part-01_label-phase1,3.2.4,Win32,60,right,0.957999945,4,0,4,0,1,3,1,0,240,98,1,239,,,,,,,,,,,,,,,,,,
,,1,50,,,,,,,3,4,2,stim/42.jpeg,HouseObjects,1,stim/objects/HouseObjects/remote2.png,0.9,1,-0.2,0.15,left,7,2020-12-14_18h37.38.435,premup-three_ses-01_part-01_label-phase1,3.2.4,Win32,60,left,0.655999899,4,0,4,0,1,3,1,0,240,233,1,239,,,,,,,,,,,,,,,,,,
,,0,51,,,,,,,1,6,1,stim/61.jpeg,HouseObjects,1,stim/objects/HouseObjects/lintroller.png,0.5,4,0.2,-0.15,left,7,2020-12-14_18h37.38.435,premup-three_ses-01_part-01_label-phase1,3.2.4,Win32,60,right,0.880000114,4,0,4,0,1,3,1,0,240,40,1,239,,,,,,,,,,,,,,,,,,
,,0,52,,,,,,,1,5,1,stim/51.jpeg,Instruments,2,stim/objects/Instruments/keyboard.png,0.5,1,-0.2,0.15,right,7,2020-12-14_18h37.38.435,premup-three_ses-01_part-01_label-phase1,3.2.4,Win32,60,left,0.822999954,4,0,4,0,1,3,1,0,240,24,1,239,,,,,,,,,,,,,,,,,,
,,0,53,,,,,,,1,6,2,stim/62.jpeg,Instruments,2,stim/objects/Instruments/musicsheet.png,0.5,2,0.2,0.15,right,7,2020-12-14_18h37.38.435,premup-three_ses-01_part-01_label-phase1,3.2.4,Win32,60,left,1.34100008,4,0,4,0,1,3,1,0,240,65,1,239,,,,,,,,,,,,,,,,,,
,,0,54,,,,,,,1,6,3,stim/63.jpeg,HouseObjects,1,stim/objects/HouseObjects/pan.png,0.5,3,-0.2,-0.15,left,7,2020-12-14_18h37.38.435,premup-three_ses-01_part-01_label-phase1,3.2.4,Win32,60,right,0.710000038,4,0,4,0,1,3,1,0,240,54,1,239,,,,,,,,,,,,,,,,,,
,,1,55,,,,,,,2,1,1,stim/11.jpeg,Instruments,2,stim/objects/Instruments/panflute.png,0.7,3,-0.2,-0.15,right,7,2020-12-14_18h37.38.435,premup-three_ses-01_part-01_label-phase1,3.2.4,Win32,60,right,1.004999876,4,0,4,0,1,3,1,0,240,104,1,239,,,,,,,,,,,,,,,,,,
,,0,56,,,,,,,1,6,4,stim/64.jpeg,Instruments,2,stim/objects/Instruments/oboe.png,0.5,1,-0.2,0.15,right,7,2020-12-14_18h37.38.435,premup-three_ses-01_part-01_label-phase1,3.2.4,Win32,60,left,0.799000025,4,0,4,0,1,3,1,0,240,71,1,239,,,,,,,,,,,,,,,,,,
,,1,57,,,,,,,3,4,3,stim/43.jpeg,HouseObjects,1,stim/objects/HouseObjects/rubbergloves2.png,0.9,4,0.2,-0.15,left,7,2020-12-14_18h37.38.435,premup-three_ses-01_part-01_label-phase1,3.2.4,Win32,60,left,0.747999907,4,0,4,0,1,3,1,0,240,202,1,239,,,,,,,,,,,,,,,,,,
,,1,58,,,,,,,3,3,3,stim/33.jpeg,Instruments,2,stim/objects/Instruments/musicstand2.png,0.9,2,0.2,0.15,right,7,2020-12-14_18h37.38.435,premup-three_ses-01_part-01_label-phase1,3.2.4,Win32,60,right,0.779999971,4,0,4,0,1,3,1,0,240,190,1,239,,,,,,,,,,,,,,,,,,
,,0,59,,,,,,,1,6,3,stim/63.jpeg,Instruments,2,stim/objects/Instruments/musicstand.png,0.5,3,-0.2,-0.15,right,7,2020-12-14_18h37.38.435,premup-three_ses-01_part-01_label-phase1,3.2.4,Win32,60,left,0.610000134,4,0,4,0,1,3,1,0,240,70,1,239,,,,,,,,,,,,,,,,,,
,,0,60,,,,,,,1,6,1,stim/61.jpeg,HouseObjects,1,stim/objects/HouseObjects/lintroller.png,0.5,4,0.2,-0.15,left,7,2020-12-14_18h37.38.435,premup-three_ses-01_part-01_label-phase1,3.2.4,Win32,60,right,0.661000013,4,0,4,0,1,3,1,0,240,44,1,239,,,,,,,,,,,,,,,,,,
,,0,61,,,,,,,1,6,4,stim/64.jpeg,Instruments,2,stim/objects/Instruments/oboe.png,0.5,2,0.2,0.15,right,7,2020-12-14_18h37.38.435,premup-three_ses-01_part-01_label-phase1,3.2.4,Win32,60,left,0.858999968,4,0,4,0,1,3,1,0,240,67,1,239,,,,,,,,,,,,,,,,,,
,,0,62,,,,,,,1,5,3,stim/53.jpeg,Instruments,2,stim/objects/Instruments/maraca.png,0.5,2,0.2,0.15,right,7,2020-12-14_18h37.38.435,premup-three_ses-01_part-01_label-phase1,3.2.4,Win32,60,left,0.792999983,4,0,4,0,1,3,1,0,240,26,1,239,,,,,,,,,,,,,,,,,,
,,1,63,,,,,,,1,5,2,stim/52.jpeg,HouseObjects,1,stim/objects/HouseObjects/ironingboard.png,0.5,1,-0.2,0.15,left,7,2020-12-14_18h37.38.435,premup-three_ses-01_part-01_label-phase1,3.2.4,Win32,60,left,1.105999947,4,0,4,0,1,3,1,0,240,13,1,239,,,,,,,,,,,,,,,,,,
,,0,64,,,,,,,1,5,1,stim/51.jpeg,HouseObjects,1,stim/objects/HouseObjects/iron.png,0.5,1,-0.2,0.15,left,7,2020-12-14_18h37.38.435,premup-three_ses-01_part-01_label-phase1,3.2.4,Win32,60,right,1.180999994,4,0,4,0,1,3,1,0,240,8,1,239,,,,,,,,,,,,,,,,,,
,,1,65,,,,,,,2,2,4,stim/24.jpeg,HouseObjects,1,stim/objects/HouseObjects/knife2.png,0.7,4,0.2,-0.15,left,7,2020-12-14_18h37.38.435,premup-three_ses-01_part-01_label-phase1,3.2.4,Win32,60,left,1.118000031,4,0,4,0,1,3,1,0,240,127,1,239,,,,,,,,,,,,,,,,,,
,,0,66,,,,,,,2,2,1,stim/21.jpeg,Instruments,2,stim/objects/Instruments/keyboard2.png,0.3,4,0.2,-0.15,right,7,2020-12-14_18h37.38.435,premup-three_ses-01_part-01_label-phase1,3.2.4,Win32,60,left,0.835999966,4,0,4,0,1,3,1,0,240,152,1,239,,,,,,,,,,,,,,,,,,
,,0,67,,,,,,,2,1,1,stim/11.jpeg,HouseObjects,1,stim/objects/HouseObjects/recyclingbin.png,0.3,4,0.2,-0.15,left,7,2020-12-14_18h37.38.435,premup-three_ses-01_part-01_label-phase1,3.2.4,Win32,60,right,0.839999914,4,0,4,0,1,3,1,0,240,84,1,239,,,,,,,,,,,,,,,,,,
,,0,68,,,,,,,1,6,3,stim/63.jpeg,HouseObjects,1,stim/objects/HouseObjects/pan.png,0.5,4,0.2,-0.15,left,7,2020-12-14_18h37.38.435,premup-three_ses-01_part-01_label-phase1,3.2.4,Win32,60,right,1.09800005,4,0,4,0,1,3,1,0,240,50,1,239,,,,,,,,,,,,,,,,,,
,,0,69,,,,,,,3,3,3,stim/33.jpeg,HouseObjects,1,stim/objects/HouseObjects/pan2.png,0.1,4,0.2,-0.15,left,7,2020-12-14_18h37.38.435,premup-three_ses-01_part-01_label-phase1,3.2.4,Win32,60,right,0.747999907,4,0,4,0,1,3,1,0,240,162,1,239,,,,,,,,,,,,,,,,,,
,,1,70,,,,,,,1,5,4,stim/54.jpeg,HouseObjects,1,stim/objects/HouseObjects/knife.png,0.5,4,0.2,-0.15,left,7,2020-12-14_18h37.38.435,premup-three_ses-01_part-01_label-phase1,3.2.4,Win32,60,left,0.946999788,4,0,4,0,1,3,1,0,240,19,1,239,,,,,,,,,,,,,,,,,,
,,1,71,,,,,,,1,6,4,stim/64.jpeg,HouseObjects,1,stim/objects/HouseObjects/pitcher.png,0.5,4,0.2,-0.15,left,7,2020-12-14_18h37.38.435,premup-three_ses-01_part-01_label-phase1,3.2.4,Win32,60,left,1.370999813,4,0,4,0,1,3,1,0,240,51,1,239,,,,,,,,,,,,,,,,,,
,,1,72,,,,,,,3,4,3,stim/43.jpeg,HouseObjects,1,stim/objects/HouseObjects/rubbergloves2.png,0.9,3,-0.2,-0.15,left,7,2020-12-14_18h37.38.435,premup-three_ses-01_part-01_label-phase1,3.2.4,Win32,60,left,0.744999886,4,0,4,0,1,3,1,0,240,230,1,239,,,,,,,,,,,,,,,,,,
,,1,73,,,,,,,2,1,4,stim/14.jpeg,Instruments,2,stim/objects/Instruments/record_player.png,0.7,4,0.2,-0.15,right,7,2020-12-14_18h37.38.435,premup-three_ses-01_part-01_label-phase1,3.2.4,Win32,60,right,0.714999914,4,0,4,0,1,3,1,0,240,115,1,239,,,,,,,,,,,,,,,,,,
,,1,74,,,,,,,3,3,2,stim/32.jpeg,Instruments,2,stim/objects/Instruments/musicsheet2.png,0.9,4,0.2,-0.15,right,7,2020-12-14_18h37.38.435,premup-three_ses-01_part-01_label-phase1,3.2.4,Win32,60,right,0.592000008,4,0,4,0,1,3,1,0,240,189,1,239,,,,,,,,,,,,,,,,,,
,,1,75,,,,,,,3,3,4,stim/34.jpeg,Instruments,2,stim/objects/Instruments/oboe2.png,0.9,4,0.2,-0.15,right,7,2020-12-14_18h37.38.435,premup-three_ses-01_part-01_label-phase1,3.2.4,Win32,60,right,0.560000181,4,0,4,0,1,3,1,0,240,167,1,239,,,,,,,,,,,,,,,,,,
,,1,76,,,,,,,3,4,3,stim/43.jpeg,HouseObjects,1,stim/objects/HouseObjects/rubbergloves2.png,0.9,1,-0.2,0.15,left,7,2020-12-14_18h37.38.435,premup-three_ses-01_part-01_label-phase1,3.2.4,Win32,60,left,0.617999792,4,0,4,0,1,3,1,0,240,234,1,239,,,,,,,,,,,,,,,,,,
,,1,77,,,,,,,2,1,4,stim/14.jpeg,Instruments,2,stim/objects/Instruments/record_player.png,0.7,1,-0.2,0.15,right,7,2020-12-14_18h37.38.435,premup-three_ses-01_part-01_label-phase1,3.2.4,Win32,60,right,0.677999973,4,0,4,0,1,3,1,0,240,99,1,239,,,,,,,,,,,,,,,,,,
,,1,78,,,,,,,3,4,3,stim/43.jpeg,HouseObjects,1,stim/objects/HouseObjects/rubbergloves2.png,0.9,2,0.2,0.15,left,7,2020-12-14_18h37.38.435,premup-three_ses-01_part-01_label-phase1,3.2.4,Win32,60,left,0.50999999,4,0,4,0,1,3,1,0,240,218,1,239,,,,,,,,,,,,,,,,,,
,,1,79,,,,,,,3,4,4,stim/44.jpeg,HouseObjects,1,stim/objects/HouseObjects/rug2.png,0.9,2,0.2,0.15,left,7,2020-12-14_18h37.38.435,premup-three_ses-01_part-01_label-phase1,3.2.4,Win32,60,left,0.728000164,4,0,4,0,1,3,1,0,240,227,1,239,,,,,,,,,,,,,,,,,,
,,0,80,,,,,,,1,6,4,stim/64.jpeg,HouseObjects,1,stim/objects/HouseObjects/pitcher.png,0.5,1,-0.2,0.15,left,7,2020-12-14_18h37.38.435,premup-three_ses-01_part-01_label-phase1,3.2.4,Win32,60,right,1.128000021,4,0,4,0,1,3,1,0,240,55,1,239,,,,,,,,,,,,,,,,,,
,,1,81,,,,,,,3,4,3,stim/43.jpeg,HouseObjects,1,stim/objects/HouseObjects/rubbergloves2.png,0.9,4,0.2,-0.15,left,7,2020-12-14_18h37.38.435,premup-three_ses-01_part-01_label-phase1,3.2.4,Win32,60,left,1.029999971,4,0,4,0,1,3,1,0,240,222,1,239,,,,,,,,,,,,,,,,,,
,,1,82,,,,,,,2,1,1,stim/11.jpeg,Instruments,2,stim/objects/Instruments/panflute.png,0.7,1,-0.2,0.15,right,7,2020-12-14_18h37.38.435,premup-three_ses-01_part-01_label-phase1,3.2.4,Win32,60,right,0.770999908,4,0,4,0,1,3,1,0,240,108,1,239,,,,,,,,,,,,,,,,,,
,,0,83,,,,,,,1,6,1,stim/61.jpeg,Instruments,2,stim/objects/Instruments/metronome.png,0.5,1,-0.2,0.15,right,7,2020-12-14_18h37.38.435,premup-three_ses-01_part-01_label-phase1,3.2.4,Win32,60,left,0.842999935,4,0,4,0,1,3,1,0,240,72,1,239,,,,,,,,,,,,,,,,,,
,,1,84,,,,,,,2,2,4,stim/24.jpeg,HouseObjects,1,stim/objects/HouseObjects/knife2.png,0.7,3,-0.2,-0.15,left,7,2020-12-14_18h37.38.435,premup-three_ses-01_part-01_label-phase1,3.2.4,Win32,60,left,1.31099987,4,0,4,0,1,3,1,0,240,139,1,239,,,,,,,,,,,,,,,,,,
,,1,85,,,,,,,3,3,4,stim/34.jpeg,Instruments,2,stim/objects/Instruments/oboe2.png,0.9,2,0.2,0.15,right,7,2020-12-14_18h37.38.435,premup-three_ses-01_part-01_label-phase1,3.2.4,Win32,60,right,0.637000084,4,0,4,0,1,3,1,0,240,171,1,239,,,,,,,,,,,,,,,,,,
,,0,86,,,,,,,2,1,1,stim/11.jpeg,Instruments,2,stim/objects/Instruments/panflute.png,0.7,3,-0.2,-0.15,right,7,2020-12-14_18h37.38.435,premup-three_ses-01_part-01_label-phase1,3.2.4,Win32,60,left,0.856999874,4,0,4,0,1,3,1,0,240,100,1,239,,,,,,,,,,,,,,,,,,
,,1,87,,,,,,,1,6,4,stim/64.jpeg,Instruments,2,stim/objects/Instruments/oboe.png,0.5,3,-0.2,-0.15,right,7,2020-12-14_18h37.38.435,premup-three_ses-01_part-01_label-phase1,3.2.4,Win32,60,right,1.210000038,4,0,4,0,1,3,1,0,240,75,1,239,,,,,,,,,,,,,,,,,,
,,1,88,,,,,,,1,5,1,stim/51.jpeg,HouseObjects,1,stim/objects/HouseObjects/iron.png,0.5,1,-0.2,0.15,left,7,2020-12-14_18h37.38.435,premup-three_ses-01_part-01_label-phase1,3.2.4,Win32,60,left,0.707000017,4,0,4,0,1,3,1,0,240,16,1,239,,,,,,,,,,,,,,,,,,
,,0,89,,,,,,,3,4,3,stim/43.jpeg,Instruments,2,stim/objects/Instruments/record2.png,0.1,3,-0.2,-0.15,right,7,2020-12-14_18h37.38.435,premup-three_ses-01_part-01_label-phase1,3.2.4,Win32,60,left,0.639999866,4,0,4,0,1,3,1,0,240,238,1,239,,,,,,,,,,,,,,,,,,
,,1,90,,,,,,,1,5,1,stim/51.jpeg,HouseObjects,1,stim/objects/HouseObjects/iron.png,0.5,3,-0.2,-0.15,left,7,2020-12-14_18h37.38.435,premup-three_ses-01_part-01_label-phase1,3.2.4,Win32,60,left,1.11500001,4,0,4,0,1,3,1,0,240,0,1,239,,,,,,,,,,,,,,,,,,
,,1,91,,,,,,,3,4,1,stim/41.jpeg,HouseObjects,1,stim/objects/HouseObjects/recyclingbin2.png,0.9,1,-0.2,0.15,left,7,2020-12-14_18h37.38.435,premup-three_ses-01_part-01_label-phase1,3.2.4,Win32,60,left,0.766000032,4,0,4,0,1,3,1,0,240,228,1,239,,,,,,,,,,,,,,,,,,
,,1,92,,,,,,,2,1,2,stim/12.jpeg,Instruments,2,stim/objects/Instruments/pipepiano.png,0.7,1,-0.2,0.15,right,7,2020-12-14_18h37.38.435,premup-three_ses-01_part-01_label-phase1,3.2.4,Win32,60,right,0.903000116,4,0,4,0,1,3,1,0,240,117,1,239,,,,,,,,,,,,,,,,,,
,,0,93,,,,,,,1,5,4,stim/54.jpeg,Instruments,2,stim/objects/Instruments/marimba.png,0.5,2,0.2,0.15,right,7,2020-12-14_18h37.38.435,premup-three_ses-01_part-01_label-phase1,3.2.4,Win32,60,left,1.148000002,4,0,4,0,1,3,1,0,240,27,1,239,,,,,,,,,,,,,,,,,,
,,1,94,,,,,,,3,3,4,stim/34.jpeg,Instruments,2,stim/objects/Instruments/oboe2.png,0.9,1,-0.2,0.15,right,7,2020-12-14_18h37.38.435,premup-three_ses-01_part-01_label-phase1,3.2.4,Win32,60,right,0.648999929,4,0,4,0,1,3,1,0,240,199,1,239,,,,,,,,,,,,,,,,,,
,,0,95,,,,,,,2,1,2,stim/12.jpeg,Instruments,2,stim/objects/Instruments/pipepiano.png,0.7,2,0.2,0.15,right,7,2020-12-14_18h37.38.435,premup-three_ses-01_part-01_label-phase1,3.2.4,Win32,60,left,0.696000099,4,0,4,0,1,3,1,0,240,105,1,239,,,,,,,,,,,,,,,,,,
,,1,96,,,,,,,3,3,3,stim/33.jpeg,Instruments,2,stim/objects/Instruments/musicstand2.png,0.9,2,0.2,0.15,right,7,2020-12-14_18h37.38.435,premup-three_ses-01_part-01_label-phase1,3.2.4,Win32,60,right,0.812999964,4,0,4,0,1,3,1,0,240,182,1,239,,,,,,,,,,,,,,,,,,
,,1,97,,,,,,,3,4,2,stim/42.jpeg,HouseObjects,1,stim/objects/HouseObjects/remote2.png,0.9,1,-0.2,0.15,left,7,2020-12-14_18h37.38.435,premup-three_ses-01_part-01_label-phase1,3.2.4,Win32,60,left,0.98300004,4,0,4,0,1,3,1,0,240,209,1,239,,,,,,,,,,,,,,,,,,
,,1,98,,,,,,,3,4,4,stim/44.jpeg,HouseObjects,1,stim/objects/HouseObjects/rug2.png,0.9,4,0.2,-0.15,left,7,2020-12-14_18h37.38.435,premup-three_ses-01_part-01_label-phase1,3.2.4,Win32,60,left,0.541999817,4,0,4,0,1,3,1,0,240,211,1,239,,,,,,,,,,,,,,,,,,
,,0,99,,,,,,,1,5,4,stim/54.jpeg,Instruments,2,stim/objects/Instruments/marimba.png,0.5,3,-0.2,-0.15,right,7,2020-12-14_18h37.38.435,premup-three_ses-01_part-01_label-phase1,3.2.4,Win32,60,left,0.881999969,4,0,4,0,1,3,1,0,240,39,1,239,,,,,,,,,,,,,,,,,,
,,1,100,,,,,,,3,4,4,stim/44.jpeg,HouseObjects,1,stim/objects/HouseObjects/rug2.png,0.9,2,0.2,0.15,left,7,2020-12-14_18h37.38.435,premup-three_ses-01_part-01_label-phase1,3.2.4,Win32,60,left,0.663000107,4,0,4,0,1,3,1,0,240,203,1,239,,,,,,,,,,,,,,,,,,
,,1,101,,,,,,,1,5,2,stim/52.jpeg,HouseObjects,1,stim/objects/HouseObjects/ironingboard.png,0.5,3,-0.2,-0.15,left,7,2020-12-14_18h37.38.435,premup-three_ses-01_part-01_label-phase1,3.2.4,Win32,60,left,0.789999962,4,0,4,0,1,3,1,0,240,5,1,239,,,,,,,,,,,,,,,,,,
,,1,102,,,,,,,3,3,1,stim/31.jpeg,Instruments,2,stim/objects/Instruments/metronome2.png,0.9,3,-0.2,-0.15,right,7,2020-12-14_18h37.38.435,premup-three_ses-01_part-01_label-phase1,3.2.4,Win32,60,right,0.700999975,4,0,4,0,1,3,1,0,240,184,1,239,,,,,,,,,,,,,,,,,,
,,1,103,,,,,,,1,6,2,stim/62.jpeg,HouseObjects,1,stim/objects/HouseObjects/match.png,0.5,1,-0.2,0.15,left,7,2020-12-14_18h37.38.435,premup-three_ses-01_part-01_label-phase1,3.2.4,Win32,60,left,0.657999992,4,0,4,0,1,3,1,0,240,49,1,239,,,,,,,,,,,,,,,,,,
,,1,104,,,,,,,2,1,1,stim/11.jpeg,Instruments,2,stim/objects/Instruments/panflute.png,0.7,3,-0.2,-0.15,right,7,2020-12-14_18h37.38.435,premup-three_ses-01_part-01_label-phase1,3.2.4,Win32,60,right,0.691999912,4,0,4,0,1,3,1,0,240,116,1,239,,,,,,,,,,,,,,,,,,
,,1,105,,,,,,,3,3,1,stim/31.jpeg,Instruments,2,stim/objects/Instruments/metronome2.png,0.9,1,-0.2,0.15,right,7,2020-12-14_18h37.38.435,premup-three_ses-01_part-01_label-phase1,3.2.4,Win32,60,right,1.296000004,4,0,4,0,1,3,1,0,240,164,1,239,,,,,,,,,,,,,,,,,,
,,0,106,,,,,,,1,6,1,stim/61.jpeg,Instruments,2,stim/objects/Instruments/metronome.png,0.5,2,0.2,0.15,right,7,2020-12-14_18h37.38.435,premup-three_ses-01_part-01_label-phase1,3.2.4,Win32,60,left,0.614000082,4,0,4,0,1,3,1,0,240,60,1,239,,,,,,,,,,,,,,,,,,
,,1,107,,,,,,,3,4,2,stim/42.jpeg,HouseObjects,1,stim/objects/HouseObjects/remote2.png,0.9,2,0.2,0.15,left,7,2020-12-14_18h37.38.435,premup-three_ses-01_part-01_label-phase1,3.2.4,Win32,60,left,1.03399992,4,0,4,0,1,3,1,0,240,213,1,239,,,,,,,,,,,,,,,,,,
,,1,108,,,,,,,3,3,1,stim/31.jpeg,Instruments,2,stim/objects/Instruments/metronome2.png,0.9,3,-0.2,-0.15,right,7,2020-12-14_18h37.38.435,premup-three_ses-01_part-01_label-phase1,3.2.4,Win32,60,right,0.659999847,4,0,4,0,1,3,1,0,240,192,1,239,,,,,,,,,,,,,,,,,,
,,1,109,,,,,,,3,4,1,stim/41.jpeg,HouseObjects,1,stim/objects/HouseObjects/recyclingbin2.png,0.9,1,-0.2,0.15,left,7,2020-12-14_18h37.38.435,premup-three_ses-01_part-01_label-phase1,3.2.4,Win32,60,left,0.632999897,4,0,4,0,1,3,1,0,240,200,1,239,,,,,,,,,,,,,,,,,,
,,1,110,,,,,,,2,2,4,stim/24.jpeg,HouseObjects,1,stim/objects/HouseObjects/knife2.png,0.7,4,0.2,-0.15,left,7,2020-12-14_18h37.38.435,premup-three_ses-01_part-01_label-phase1,3.2.4,Win32,60,left,0.854000092,4,0,4,0,1,3,1,0,240,123,1,239,,,,,,,,,,,,,,,,,,
,,0,111,,,,,,,1,6,4,stim/64.jpeg,HouseObjects,1,stim/objects/HouseObjects/pitcher.png,0.5,3,-0.2,-0.15,left,7,2020-12-14_18h37.38.435,premup-three_ses-01_part-01_label-phase1,3.2.4,Win32,60,right,0.740999937,4,0,4,0,1,3,1,0,240,43,1,239,,,,,,,,,,,,,,,,,,
,,0,112,,,,,,,3,3,2,stim/32.jpeg,Instruments,2,stim/objects/Instruments/musicsheet2.png,0.9,4,0.2,-0.15,right,7,2020-12-14_18h37.38.435,premup-three_ses-01_part-01_label-phase1,3.2.4,Win32,60,left,1.197000027,4,0,4,0,1,3,1,0,240,181,1,239,,,,,,,,,,,,,,,,,,
,,1,113,,,,,,,1,5,3,stim/53.jpeg,HouseObjects,1,stim/objects/HouseObjects/key.png,0.5,4,0.2,-0.15,left,7,2020-12-14_18h37.38.435,premup-three_ses-01_part-01_label-phase1,3.2.4,Win32,60,left,0.986000061,4,0,4,0,1,3,1,0,240,6,1,239,,,,,,,,,,,,,,,,,,
,,1,114,,,,,,,2,2,2,stim/22.jpeg,HouseObjects,1,stim/objects/HouseObjects/ironingboard2.png,0.7,3,-0.2,-0.15,left,7,2020-12-14_18h37.38.435,premup-three_ses-01_part-01_label-phase1,3.2.4,Win32,60,left,0.786000013,4,0,4,0,1,3,1,0,240,129,1,239,,,,,,,,,,,,,,,,,,
,,1,115,,,,,,,2,2,2,stim/22.jpeg,HouseObjects,1,stim/objects/HouseObjects/ironingboard2.png,0.7,4,0.2,-0.15,left,7,2020-12-14_18h37.38.435,premup-three_ses-01_part-01_label-phase1,3.2.4,Win32,60,left,0.861000061,4,0,4,0,1,3,1,0,240,141,1,239,,,,,,,,,,,,,,,,,,
,,0,116,,,,,,,2,2,1,stim/21.jpeg,Instruments,2,stim/objects/Instruments/keyboard2.png,0.3,4,0.2,-0.15,right,7,2020-12-14_18h37.38.435,premup-three_ses-01_part-01_label-phase1,3.2.4,Win32,60,left,0.611000061,4,0,4,0,1,3,1,0,240,156,1,239,,,,,,,,,,,,,,,,,,
,,0,117,,,,,,,3,4,1,stim/41.jpeg,HouseObjects,1,stim/objects/HouseObjects/recyclingbin2.png,0.9,1,-0.2,0.15,left,7,2020-12-14_18h37.38.435,premup-three_ses-01_part-01_label-phase1,3.2.4,Win32,60,right,0.900000095,4,0,4,0,1,3,1,0,240,208,1,239,,,,,,,,,,,,,,,,,,
,,1,118,,,,,,,3,3,3,stim/33.jpeg,Instruments,2,stim/objects/Instruments/musicstand2.png,0.9,2,0.2,0.15,right,7,2020-12-14_18h37.38.435,premup-three_ses-01_part-01_label-phase1,3.2.4,Win32,60,right,0.763000011,4,0,4,0,1,3,1,0,240,174,1,239,,,,,,,,,,,,,,,,,,
,,0,119,,,,,,,1,5,4,stim/54.jpeg,Instruments,2,stim/objects/Instruments/marimba.png,0.5,2,0.2,0.15,right,7,2020-12-14_18h37.38.435,premup-three_ses-01_part-01_label-phase1,3.2.4,Win32,60,left,0.720000029,4,0,4,0,1,3,1,0,240,23,1,239,,,,,,,,,,,,,,,,,,
,,1,120,,,,,,,3,3,4,stim/34.jpeg,Instruments,2,stim/objects/Instruments/oboe2.png,0.9,2,0.2,0.15,right,7,2020-12-14_18h37.38.435,premup-three_ses-01_part-01_label-phase1,3.2.4,Win32,60,right,0.776000023,4,0,4,0,1,3,1,0,240,187,1,239,,,,,,,,,,,,,,,,,,
,,0,121,,,,,,,1,6,2,stim/62.jpeg,Instruments,2,stim/objects/Instruments/musicsheet.png,0.5,2,0.2,0.15,right,7,2020-12-14_18h37.38.435,premup-three_ses-01_part-01_label-phase1,3.2.4,Win32,60,left,0.89199996,4,0,4,0,1,3,1,0,240,77,1,239,,,,,,,,,,,,,,,,,,
,,0,122,,,,,,,1,5,2,stim/52.jpeg,Instruments,2,stim/objects/Instruments/laud.png,0.5,4,0.2,-0.15,right,7,2020-12-14_18h37.38.435,premup-three_ses-01_part-01_label-phase1,3.2.4,Win32,60,left,0.786000013,4,0,4,0,1,3,1,0,240,37,1,239,,,,,,,,,,,,,,,,,,
,,1,123,,,,,,,2,1,2,stim/12.jpeg,Instruments,2,stim/objects/Instruments/pipepiano.png,0.7,3,-0.2,-0.15,right,7,2020-12-14_18h37.38.435,premup-three_ses-01_part-01_label-phase1,3.2.4,Win32,60,right,1.089999914,4,0,4,0,1,3,1,0,240,97,1,239,,,,,,,,,,,,,,,,,,
,,1,124,,,,,,,2,1,1,stim/11.jpeg,Instruments,2,stim/objects/Instruments/panflute.png,0.7,2,0.2,0.15,right,7,2020-12-14_18h37.38.435,premup-three_ses-01_part-01_label-phase1,3.2.4,Win32,60,right,0.606999874,4,0,4,0,1,3,1,0,240,96,1,239,,,,,,,,,,,,,,,,,,
,,1,125,,,,,,,2,1,2,stim/12.jpeg,Instruments,2,stim/objects/Instruments/pipepiano.png,0.7,3,-0.2,-0.15,right,7,2020-12-14_18h37.38.435,premup-three_ses-01_part-01_label-phase1,3.2.4,Win32,60,right,0.548000097,4,0,4,0,1,3,1,0,240,101,1,239,,,,,,,,,,,,,,,,,,
,,1,126,,,,,,,1,6,3,stim/63.jpeg,HouseObjects,1,stim/objects/HouseObjects/pan.png,0.5,4,0.2,-0.15,left,7,2020-12-14_18h37.38.435,premup-three_ses-01_part-01_label-phase1,3.2.4,Win32,60,left,0.822000027,4,0,4,0,1,3,1,0,240,46,1,239,,,,,,,,,,,,,,,,,,
,,1,127,,,,,,,1,5,1,stim/51.jpeg,Instruments,2,stim/objects/Instruments/keyboard.png,0.5,4,0.2,-0.15,right,7,2020-12-14_18h37.38.435,premup-three_ses-01_part-01_label-phase1,3.2.4,Win32,60,right,0.61500001,4,0,4,0,1,3,1,0,240,28,1,239,,,,,,,,,,,,,,,,,,
,,1,128,,,,,,,2,1,4,stim/14.jpeg,Instruments,2,stim/objects/Instruments/record_player.png,0.7,2,0.2,0.15,right,7,2020-12-14_18h37.38.435,premup-three_ses-01_part-01_label-phase1,3.2.4,Win32,60,right,0.544000149,4,0,4,0,1,3,1,0,240,107,1,239,,,,,,,,,,,,,,,,,,
,,0,129,,,,,,,1,6,1,stim/61.jpeg,Instruments,2,stim/objects/Instruments/metronome.png,0.5,2,0.2,0.15,right,7,2020-12-14_18h37.38.435,premup-three_ses-01_part-01_label-phase1,3.2.4,Win32,60,left,0.642999887,4,0,4,0,1,3,1,0,240,64,1,239,,,,,,,,,,,,,,,,,,
,,1,130,,,,,,,1,6,4,stim/64.jpeg,Instruments,2,stim/objects/Instruments/oboe.png,0.5,3,-0.2,-0.15,right,7,2020-12-14_18h37.38.435,premup-three_ses-01_part-01_label-phase1,3.2.4,Win32,60,right,0.855000019,4,0,4,0,1,3,1,0,240,63,1,239,,,,,,,,,,,,,,,,,,
,,0,131,,,,,,,3,3,3,stim/33.jpeg,Instruments,2,stim/objects/Instruments/musicstand2.png,0.9,4,0.2,-0.15,right,7,2020-12-14_18h37.38.435,premup-three_ses-01_part-01_label-phase1,3.2.4,Win32,60,left,0.862999916,4,0,4,0,1,3,1,0,240,178,1,239,,,,,,,,,,,,,,,,,,
,,0,132,,,,,,,3,4,2,stim/42.jpeg,Instruments,2,stim/objects/Instruments/pipepiano2.png,0.1,3,-0.2,-0.15,right,7,2020-12-14_18h37.38.435,premup-three_ses-01_part-01_label-phase1,3.2.4,Win32,60,left,0.750999928,4,0,4,0,1,3,1,0,240,237,1,239,,,,,,,,,,,,,,,,,,
,,1,133,,,,,,,1,5,3,stim/53.jpeg,HouseObjects,1,stim/objects/HouseObjects/key.png,0.5,2,0.2,0.15,left,7,2020-12-14_18h37.38.435,premup-three_ses-01_part-01_label-phase1,3.2.4,Win32,60,left,1.241999865,4,0,4,0,1,3,1,0,240,14,1,239,,,,,,,,,,,,,,,,,,
,,0,134,,,,,,,2,1,3,stim/13.jpeg,HouseObjects,1,stim/objects/HouseObjects/rubbergloves.png,0.3,4,0.2,-0.15,left,7,2020-12-14_18h37.38.435,premup-three_ses-01_part-01_label-phase1,3.2.4,Win32,60,right,1.121000051,4,0,4,0,1,3,1,0,240,86,1,239,,,,,,,,,,,,,,,,,,
,,1,135,,,,,,,3,3,2,stim/32.jpeg,Instruments,2,stim/objects/Instruments/musicsheet2.png,0.9,4,0.2,-0.15,right,7,2020-12-14_18h37.38.435,premup-three_ses-01_part-01_label-phase1,3.2.4,Win32,60,right,0.731999874,4,0,4,0,1,3,1,0,240,177,1,239,,,,,,,,,,,,,,,,,,
