id_acc,key_resp_id.keys,key_resp_id.rt,key_resp_conf.keys,key_resp_conf.rt,assoc_acc,key_resp_assoc.keys,key_resp_assoc.rt,loc_acc,key_resp_loc.keys,key_resp_loc.rt,task_innerloop.thisRepN,task_innerloop.thisTrialN,task_innerloop.thisN,task_innerloop.thisIndex,task_innerloop.ran,task_innerloop.order,context_type,object_cat,PE_level,OvsN,obj_file,scn_file,corr_scn_cat,assoc_file,corr_scn_inst,corr_loc,participant,date,expName,psychopyVersion,OS,frameRate
1,right,2.963999748,,,0,,,0,,,1,0,200,152,1,199,0,2,0,2,stim/objects/Instruments/record3.png,,0,stim/0.png,0,0,80,2020-12-10_08h59.15.983,premup-three_ses-02_part-03_label-phase3,3.2.4,Win32,60
1,right,7.993999958,,,0,,,0,,,1,0,200,130,1,199,0,2,0,2,stim/objects/Instruments/harp3.png,,0,stim/0.png,0,0,80,2020-12-10_08h59.15.983,premup-three_ses-02_part-03_label-phase3,3.2.4,Win32,60
1,right,3.389999866,,,0,,,0,,,1,0,200,196,1,199,0,2,0,2,stim/objects/Instruments/hihat4.png,,0,stim/0.png,0,0,80,2020-12-10_08h59.15.983,premup-three_ses-02_part-03_label-phase3,3.2.4,Win32,60
1,left,3.615999937,,,0,,,0,,,1,0,200,179,1,199,0,2,0,2,stim/objects/Instruments/flutetrans4.png,,0,stim/0.png,0,0,80,2020-12-10_08h59.15.983,premup-three_ses-02_part-03_label-phase3,3.2.4,Win32,60
1,left,1.643999815,2,8.973999977,0,4,19.71199989,0,3,10.148,1,0,200,54,1,199,2,2,0.3,1,stim/objects/Instruments/harmonica2.png,stim/42.jpeg,4,stim/4.png,2,2,80,2020-12-10_08h59.15.983,premup-three_ses-02_part-03_label-phase3,3.2.4,Win32,60
1,right,2.049999952,3,3.370000124,0,1,2.342999935,0,1,1.332999945,1,0,200,52,1,199,2,2,0.3,1,stim/objects/Instruments/grandpiano2.png,stim/44.jpeg,4,stim/4.png,4,4,80,2020-12-10_08h59.15.983,premup-three_ses-02_part-03_label-phase3,3.2.4,Win32,60
1,right,1.846999884,,,0,,,0,,,1,0,200,162,1,199,0,1,0,2,stim/objects/HouseObjects/towel3.png,,0,stim/0.png,0,0,80,2020-12-10_08h59.15.983,premup-three_ses-02_part-03_label-phase3,3.2.4,Win32,60
1,right,1.40199995,3,2.179999828,0,1,3.712999821,0,1,1.383999825,1,0,200,84,1,199,3,1,0.9,1,stim/objects/HouseObjects/teapot2.png,stim/61.jpeg,6,stim/6.png,1,1,80,2020-12-10_08h59.15.983,premup-three_ses-02_part-03_label-phase3,3.2.4,Win32,60
1,right,2.629999876,3,3.748999834,0,1,2.652999878,0,1,1.30099988,1,0,200,96,1,199,3,2,0.1,1,stim/objects/Instruments/tuba2.png,stim/61.jpeg,6,stim/6.png,1,2,80,2020-12-10_08h59.15.983,premup-three_ses-02_part-03_label-phase3,3.2.4,Win32,60
1,right,2.796999931,,,0,,,0,,,1,0,200,109,1,199,0,1,0,2,stim/objects/HouseObjects/hairdryer3.png,,0,stim/0.png,0,0,80,2020-12-10_08h59.15.983,premup-three_ses-02_part-03_label-phase3,3.2.4,Win32,60
1,left,1.340999842,4,1.868999958,0,2,14.6559999,0,1,1.927999735,1,0,200,13,1,199,1,2,0.5,1,stim/objects/HouseObjects/spraybottle.png,stim/24.jpeg,2,stim/2.png,4,3,80,2020-12-10_08h59.15.983,premup-three_ses-02_part-03_label-phase3,3.2.4,Win32,60
1,left,2.924000025,2,7.134000063,0,1,8.943000078,0,2,5.101999998,1,0,200,38,1,199,2,2,0.7,1,stim/objects/Instruments/flute2.png,stim/32.jpeg,3,stim/3.png,2,2,80,2020-12-10_08h59.15.983,premup-three_ses-02_part-03_label-phase3,3.2.4,Win32,60
1,right,1.465999842,,,0,,,0,,,1,0,200,195,1,199,0,2,0,2,stim/objects/Instruments/harp4.png,,0,stim/0.png,0,0,80,2020-12-10_08h59.15.983,premup-three_ses-02_part-03_label-phase3,3.2.4,Win32,60
1,right,1.5,3,3.093999863,0,1,2.160999775,0,1,1.553999901,1,0,200,88,1,199,3,1,0.9,1,stim/objects/HouseObjects/vacuumcleaner2.png,stim/61.jpeg,6,stim/6.png,1,1,80,2020-12-10_08h59.15.983,premup-three_ses-02_part-03_label-phase3,3.2.4,Win32,60
1,right,2.305999756,3,3.049999952,0,1,6.002999783,0,1,0.581999779,1,0,200,9,1,199,1,1,0.5,1,stim/objects/Instruments/saxophone.png,stim/12.jpeg,1,stim/1.png,2,3,80,2020-12-10_08h59.15.983,premup-three_ses-02_part-03_label-phase3,3.2.4,Win32,60
1,right,3.851999998,2,1.993000031,0,1,2.773999929,0,1,0.578999758,1,0,200,66,1,199,3,1,0.1,1,stim/objects/HouseObjects/remote2.png,stim/53.jpeg,5,stim/5.png,3,1,80,2020-12-10_08h59.15.983,premup-three_ses-02_part-03_label-phase3,3.2.4,Win32,60
1,right,1.440000057,,,0,,,0,,,1,0,200,124,1,199,0,1,0,2,stim/objects/HouseObjects/key3.png,,0,stim/0.png,0,0,80,2020-12-10_08h59.15.983,premup-three_ses-02_part-03_label-phase3,3.2.4,Win32,60
1,right,1.177999973,,,0,,,0,,,1,0,200,197,1,199,0,2,0,2,stim/objects/Instruments/keyboard4.png,,0,stim/0.png,0,0,80,2020-12-10_08h59.15.983,premup-three_ses-02_part-03_label-phase3,3.2.4,Win32,60
1,left,3.548999786,2,3.194999933,0,4,8.003999949,0,2,4.8349998,1,0,200,31,1,199,2,2,0.7,1,stim/objects/Instruments/tuba.png,stim/33.jpeg,3,stim/3.png,3,4,80,2020-12-10_08h59.15.983,premup-three_ses-02_part-03_label-phase3,3.2.4,Win32,60
1,right,1.017999887,,,0,,,0,,,1,0,200,157,1,199,0,2,0,2,stim/objects/Instruments/timbal3.png,,0,stim/0.png,0,0,80,2020-12-10_08h59.15.983,premup-three_ses-02_part-03_label-phase3,3.2.4,Win32,60
1,left,2.608999729,2,1.095999956,0,2,9.524999857,0,3,2.696999788,1,0,200,51,1,199,2,2,0.3,1,stim/objects/Instruments/gong2.png,stim/43.jpeg,4,stim/4.png,3,4,80,2020-12-10_08h59.15.983,premup-three_ses-02_part-03_label-phase3,3.2.4,Win32,60
1,right,1.231999874,,,0,,,0,,,1,0,200,154,1,199,0,2,0,2,stim/objects/Instruments/saxophone3.png,,0,stim/0.png,0,0,80,2020-12-10_08h59.15.983,premup-three_ses-02_part-03_label-phase3,3.2.4,Win32,60
1,right,1.140000105,,,0,,,0,,,1,0,200,117,1,199,0,2,0,2,stim/objects/Instruments/grandpiano3.png,,0,stim/0.png,0,0,80,2020-12-10_08h59.15.983,premup-three_ses-02_part-03_label-phase3,3.2.4,Win32,60
1,left,7.28399992,,,0,,,0,,,1,0,200,119,1,199,0,2,0,2,stim/objects/Instruments/harmonica3.png,,0,stim/0.png,0,0,80,2020-12-10_08h59.15.983,premup-three_ses-02_part-03_label-phase3,3.2.4,Win32,60
1,left,2.738999844,,,0,,,0,,,1,0,200,149,1,199,0,1,0,2,stim/objects/HouseObjects/teapot3.png,,0,stim/0.png,0,0,80,2020-12-10_08h59.15.983,premup-three_ses-02_part-03_label-phase3,3.2.4,Win32,60
1,right,6.088999987,,,0,,,0,,,1,0,200,164,1,199,0,1,0,2,stim/objects/HouseObjects/wateringcan3.png,,0,stim/0.png,0,0,80,2020-12-10_08h59.15.983,premup-three_ses-02_part-03_label-phase3,3.2.4,Win32,60
1,right,2.924000025,,,0,,,0,,,1,0,200,185,1,199,0,1,0,2,stim/objects/HouseObjects/handbrush4.png,,0,stim/0.png,0,0,80,2020-12-10_08h59.15.983,premup-three_ses-02_part-03_label-phase3,3.2.4,Win32,60
1,right,2.944999933,2,4.108999968,0,4,5.782999992,0,4,1.190000057,1,0,200,26,1,199,2,1,0.3,1,stim/objects/HouseObjects/cushion2.png,stim/33.jpeg,3,stim/3.png,3,4,80,2020-12-10_08h59.15.983,premup-three_ses-02_part-03_label-phase3,3.2.4,Win32,60
1,right,1.15899992,,,0,,,0,,,1,0,200,145,1,199,0,1,0,2,stim/objects/HouseObjects/saw3.png,,0,stim/0.png,0,0,80,2020-12-10_08h59.15.983,premup-three_ses-02_part-03_label-phase3,3.2.4,Win32,60
1,right,2.20299983,2,2.355000019,0,2,2.219000101,0,4,0.76699996,1,0,200,16,1,199,1,2,0.5,1,stim/objects/Instruments/tambourine.png,stim/21.jpeg,2,stim/2.png,1,2,80,2020-12-10_08h59.15.983,premup-three_ses-02_part-03_label-phase3,3.2.4,Win32,60
1,right,2.46999979,,,0,,,0,,,1,0,200,141,1,199,0,1,0,2,stim/objects/HouseObjects/remote3.png,,0,stim/0.png,0,0,80,2020-12-10_08h59.15.983,premup-three_ses-02_part-03_label-phase3,3.2.4,Win32,60
1,left,2.338000059,,,0,,,0,,,1,0,200,172,1,199,0,2,0,2,stim/objects/Instruments/violin3.png,,0,stim/0.png,0,0,80,2020-12-10_08h59.15.983,premup-three_ses-02_part-03_label-phase3,3.2.4,Win32,60
1,right,2.148000002,,,0,,,0,,,1,0,200,112,1,199,0,2,0,2,stim/objects/Instruments/electricguitar3.png,,0,stim/0.png,0,0,80,2020-12-10_08h59.15.983,premup-three_ses-02_part-03_label-phase3,3.2.4,Win32,60
1,left,2.039999962,,,0,,,0,,,1,0,200,121,1,199,0,1,0,2,stim/objects/HouseObjects/handvacuum3.png,,0,stim/0.png,0,0,80,2020-12-10_08h59.15.983,premup-three_ses-02_part-03_label-phase3,3.2.4,Win32,60
1,left,1.967000008,4,2.145999908,0,1,12.28999996,0,2,3.289999962,1,0,200,43,1,199,2,1,0.7,1,stim/objects/HouseObjects/glassmop2.png,stim/43.jpeg,4,stim/4.png,3,3,80,2020-12-10_08h59.15.983,premup-three_ses-02_part-03_label-phase3,3.2.4,Win32,60
1,left,2.388999939,2,1.210999966,0,1,4.151000023,0,4,6.450000048,1,0,200,48,1,199,2,1,0.7,1,stim/objects/HouseObjects/ironingboard2.png,stim/44.jpeg,4,stim/4.png,4,1,80,2020-12-10_08h59.15.983,premup-three_ses-02_part-03_label-phase3,3.2.4,Win32,60
1,left,3.879999876,2,2.124999762,0,4,10.77199984,0,2,1.641999722,1,0,200,75,1,199,3,2,0.9,1,stim/objects/Instruments/panflute2.png,stim/54.jpeg,5,stim/5.png,4,3,80,2020-12-10_08h59.15.983,premup-three_ses-02_part-03_label-phase3,3.2.4,Win32,60
1,right,1.834000111,,,0,,,0,,,1,0,200,147,1,199,0,1,0,2,stim/objects/HouseObjects/sponge3.png,,0,stim/0.png,0,0,80,2020-12-10_08h59.15.983,premup-three_ses-02_part-03_label-phase3,3.2.4,Win32,60
1,right,2.223999977,,,0,,,0,,,1,0,200,102,1,199,0,1,0,2,stim/objects/HouseObjects/dishsoap3.png,,0,stim/0.png,0,0,80,2020-12-10_08h59.15.983,premup-three_ses-02_part-03_label-phase3,3.2.4,Win32,60
1,left,1.092000008,,,0,,,0,,,1,0,200,128,1,199,0,1,0,2,stim/objects/HouseObjects/pan3.png,,0,stim/0.png,0,0,80,2020-12-10_08h59.15.983,premup-three_ses-02_part-03_label-phase3,3.2.4,Win32,60
1,right,3.125999928,3,3.243000031,0,1,1.236000061,0,1,0.327000141,1,0,200,68,1,199,3,1,0.1,1,stim/objects/HouseObjects/rug2.png,stim/51.jpeg,5,stim/5.png,1,2,80,2020-12-10_08h59.15.983,premup-three_ses-02_part-03_label-phase3,3.2.4,Win32,60
1,left,1.774999857,3,1.703999758,0,1,6.170999765,0,2,4.615999937,1,0,200,93,1,199,3,2,0.1,1,stim/objects/Instruments/triangle2.png,stim/62.jpeg,6,stim/6.png,2,2,80,2020-12-10_08h59.15.983,premup-three_ses-02_part-03_label-phase3,3.2.4,Win32,60
1,right,3.609999895,1,4.809999704,0,1,7.036000013,0,1,7.000999928,1,0,200,23,1,199,2,1,0.3,1,stim/objects/HouseObjects/vacuumcleaner.png,stim/34.jpeg,3,stim/3.png,4,3,80,2020-12-10_08h59.15.983,premup-three_ses-02_part-03_label-phase3,3.2.4,Win32,60
1,right,4.446999788,,,0,,,0,,,1,0,200,127,1,199,0,1,0,2,stim/objects/HouseObjects/match3.png,,0,stim/0.png,0,0,80,2020-12-10_08h59.15.983,premup-three_ses-02_part-03_label-phase3,3.2.4,Win32,60
1,right,1.924000025,,,0,,,0,,,1,0,200,170,1,199,0,2,0,2,stim/objects/Instruments/trumpet3.png,,0,stim/0.png,0,0,80,2020-12-10_08h59.15.983,premup-three_ses-02_part-03_label-phase3,3.2.4,Win32,60
1,right,2.404999971,,,0,,,0,,,1,0,200,148,1,199,0,1,0,2,stim/objects/HouseObjects/spraybottle3.png,,0,stim/0.png,0,0,80,2020-12-10_08h59.15.983,premup-three_ses-02_part-03_label-phase3,3.2.4,Win32,60
1,right,2.111999989,,,0,,,0,,,1,0,200,142,1,199,0,1,0,2,stim/objects/HouseObjects/rubbergloves3.png,,0,stim/0.png,0,0,80,2020-12-10_08h59.15.983,premup-three_ses-02_part-03_label-phase3,3.2.4,Win32,60
1,right,2.868000031,,,0,,,0,,,1,0,200,125,1,199,0,1,0,2,stim/objects/HouseObjects/knife3.png,,0,stim/0.png,0,0,80,2020-12-10_08h59.15.983,premup-three_ses-02_part-03_label-phase3,3.2.4,Win32,60
1,right,1.91899991,2,3.605999947,0,2,4.006000042,0,2,7.683000088,1,0,200,90,1,199,3,2,0.1,1,stim/objects/Instruments/speaker2.png,stim/63.jpeg,6,stim/6.png,3,2,80,2020-12-10_08h59.15.983,premup-three_ses-02_part-03_label-phase3,3.2.4,Win32,60
1,right,2.938999891,,,0,,,0,,,1,0,200,108,1,199,0,1,0,2,stim/objects/HouseObjects/glassmop3.png,,0,stim/0.png,0,0,80,2020-12-10_08h59.15.983,premup-three_ses-02_part-03_label-phase3,3.2.4,Win32,60
1,left,1.000999928,,,0,,,0,,,1,0,200,165,1,199,0,1,0,2,stim/objects/HouseObjects/coffee4.png,,0,stim/0.png,0,0,80,2020-12-10_08h59.15.983,premup-three_ses-02_part-03_label-phase3,3.2.4,Win32,60
1,right,1.000999928,1,2.835000038,0,4,4.760999918,0,3,3.856999874,1,0,200,57,1,199,2,2,0.3,1,stim/objects/Instruments/keyboard2.png,stim/41.jpeg,4,stim/4.png,1,4,80,2020-12-10_08h59.15.983,premup-three_ses-02_part-03_label-phase3,3.2.4,Win32,60
1,right,1.547999859,,,0,,,0,,,1,0,200,188,1,199,0,1,0,2,stim/objects/HouseObjects/ironingboard4.png,,0,stim/0.png,0,0,80,2020-12-10_08h59.15.983,premup-three_ses-02_part-03_label-phase3,3.2.4,Win32,60
1,right,3.277999878,2,1.598999739,0,4,4.789999723,0,2,5.755999804,1,0,200,40,1,199,2,1,0.7,1,stim/objects/HouseObjects/flyswatter2.png,stim/44.jpeg,4,stim/4.png,4,1,80,2020-12-10_08h59.15.983,premup-three_ses-02_part-03_label-phase3,3.2.4,Win32,60
1,right,13.61599994,2,4.796000004,0,2,2.104000092,0,3,3.411999941,1,0,200,3,1,199,1,1,0.5,1,stim/objects/HouseObjects/rug.png,stim/12.jpeg,1,stim/1.png,2,2,80,2020-12-10_08h59.15.983,premup-three_ses-02_part-03_label-phase3,3.2.4,Win32,60
1,left,1.878999949,3,1.767999887,0,3,4.323999882,0,3,4.554999828,1,0,200,4,1,199,1,1,0.5,1,stim/objects/HouseObjects/safetypin.png,stim/13.jpeg,1,stim/1.png,3,1,80,2020-12-10_08h59.15.983,premup-three_ses-02_part-03_label-phase3,3.2.4,Win32,60
1,right,3.850999832,,,0,,,0,,,1,0,200,161,1,199,0,1,0,2,stim/objects/HouseObjects/thread3.png,,0,stim/0.png,0,0,80,2020-12-10_08h59.15.983,premup-three_ses-02_part-03_label-phase3,3.2.4,Win32,60
1,right,0.963999987,,,0,,,0,,,1,0,200,187,1,199,0,1,0,2,stim/objects/HouseObjects/iron4.png,,0,stim/0.png,0,0,80,2020-12-10_08h59.15.983,premup-three_ses-02_part-03_label-phase3,3.2.4,Win32,60
1,right,1.674999952,1,1.17599988,0,4,3.781999826,0,1,3.483999968,1,0,200,80,1,199,3,1,0.9,1,stim/objects/HouseObjects/saw2.png,stim/61.jpeg,6,stim/6.png,1,1,80,2020-12-10_08h59.15.983,premup-three_ses-02_part-03_label-phase3,3.2.4,Win32,60
1,right,1.118999958,1,2.458999872,0,1,2.632999897,0,3,2.055999994,1,0,200,60,1,199,3,1,0.1,1,stim/objects/HouseObjects/knife2.png,stim/51.jpeg,5,stim/5.png,1,3,80,2020-12-10_08h59.15.983,premup-three_ses-02_part-03_label-phase3,3.2.4,Win32,60
1,right,1.809000015,1,3.124999762,0,4,3.075000048,0,3,1.119999886,1,0,200,1,1,199,1,1,0.5,1,stim/objects/HouseObjects/remote.png,stim/14.jpeg,1,stim/1.png,4,1,80,2020-12-10_08h59.15.983,premup-three_ses-02_part-03_label-phase3,3.2.4,Win32,60
1,right,1.528000116,1,2.037999868,0,2,1.042999744,0,3,2.057999849,1,0,200,87,1,199,3,1,0.9,1,stim/objects/HouseObjects/towel2.png,stim/64.jpeg,6,stim/6.png,4,2,80,2020-12-10_08h59.15.983,premup-three_ses-02_part-03_label-phase3,3.2.4,Win32,60
1,right,2.905999899,,,0,,,0,,,1,0,200,120,1,199,0,1,0,2,stim/objects/HouseObjects/handbrush3.png,,0,stim/0.png,0,0,80,2020-12-10_08h59.15.983,premup-three_ses-02_part-03_label-phase3,3.2.4,Win32,60
1,right,1.101000071,,,0,,,0,,,1,0,200,171,1,199,0,2,0,2,stim/objects/Instruments/tuba3.png,,0,stim/0.png,0,0,80,2020-12-10_08h59.15.983,premup-three_ses-02_part-03_label-phase3,3.2.4,Win32,60
1,right,1.342000008,1,1.063999891,0,1,2.088999987,0,1,0.454999924,1,0,200,94,1,199,3,2,0.1,1,stim/objects/Instruments/trombone2.png,stim/63.jpeg,6,stim/6.png,3,4,80,2020-12-10_08h59.15.983,premup-three_ses-02_part-03_label-phase3,3.2.4,Win32,60
1,right,2.065999985,,,0,,,0,,,1,0,200,103,1,199,0,1,0,2,stim/objects/HouseObjects/doormat3.png,,0,stim/0.png,0,0,80,2020-12-10_08h59.15.983,premup-three_ses-02_part-03_label-phase3,3.2.4,Win32,60
1,left,0.929999828,4,1.808999777,0,4,3.887000084,0,2,4.423000097,1,0,200,78,1,199,3,2,0.9,1,stim/objects/Instruments/record_player2.png,stim/53.jpeg,5,stim/5.png,3,2,80,2020-12-10_08h59.15.983,premup-three_ses-02_part-03_label-phase3,3.2.4,Win32,60
1,right,2.929999828,3,2.207000017,0,1,3.221999884,0,2,1.638000011,1,0,200,20,1,199,2,1,0.3,1,stim/objects/HouseObjects/thermometer.png,stim/31.jpeg,3,stim/3.png,1,1,80,2020-12-10_08h59.15.983,premup-three_ses-02_part-03_label-phase3,3.2.4,Win32,60
1,right,1.127000093,,,0,,,0,,,1,0,200,104,1,199,0,1,0,2,stim/objects/HouseObjects/dustpan3.png,,0,stim/0.png,0,0,80,2020-12-10_08h59.15.983,premup-three_ses-02_part-03_label-phase3,3.2.4,Win32,60
1,right,1.296000004,,,0,,,0,,,1,0,200,186,1,199,0,1,0,2,stim/objects/HouseObjects/handvacuum4.png,,0,stim/0.png,0,0,80,2020-12-10_08h59.15.983,premup-three_ses-02_part-03_label-phase3,3.2.4,Win32,60
1,right,2.276000023,,,0,,,0,,,1,0,200,136,1,199,0,2,0,2,stim/objects/Instruments/metronome3.png,,0,stim/0.png,0,0,80,2020-12-10_08h59.15.983,premup-three_ses-02_part-03_label-phase3,3.2.4,Win32,60
1,right,0.986999989,1,1.453999758,0,4,1.565999985,0,4,0.532999992,1,0,200,5,1,199,1,1,0.5,1,stim/objects/Instruments/panflute.png,stim/12.jpeg,1,stim/1.png,2,1,80,2020-12-10_08h59.15.983,premup-three_ses-02_part-03_label-phase3,3.2.4,Win32,60
1,left,2.177999973,3,1.611999989,0,2,2.318999767,0,2,1.144000053,1,0,200,42,1,199,2,1,0.7,1,stim/objects/HouseObjects/glass2.png,stim/42.jpeg,4,stim/4.png,2,2,80,2020-12-10_08h59.15.983,premup-three_ses-02_part-03_label-phase3,3.2.4,Win32,60
1,right,0.996999979,,,0,,,0,,,1,0,200,140,1,199,0,1,0,2,stim/objects/HouseObjects/recyclingbin3.png,,0,stim/0.png,0,0,80,2020-12-10_08h59.15.983,premup-three_ses-02_part-03_label-phase3,3.2.4,Win32,60
1,right,1.927999973,1,0.997999907,0,1,0.782999992,0,1,0.504999876,1,0,200,98,1,199,3,2,0.1,1,stim/objects/Instruments/vuvuzela2.png,stim/63.jpeg,6,stim/6.png,3,2,80,2020-12-10_08h59.15.983,premup-three_ses-02_part-03_label-phase3,3.2.4,Win32,60
1,right,0.867999792,,,0,,,0,,,1,0,200,177,1,199,0,2,0,2,stim/objects/Instruments/electricguitar4.png,,0,stim/0.png,0,0,80,2020-12-10_08h59.15.983,premup-three_ses-02_part-03_label-phase3,3.2.4,Win32,60
1,right,1.786000013,1,1.246000051,0,1,0.947000027,0,1,0.866999865,1,0,200,7,1,199,1,1,0.5,1,stim/objects/Instruments/record.png,stim/14.jpeg,1,stim/1.png,4,1,80,2020-12-10_08h59.15.983,premup-three_ses-02_part-03_label-phase3,3.2.4,Win32,60
1,right,0.946999788,,,0,,,0,,,1,0,200,168,1,199,0,1,0,2,stim/objects/HouseObjects/doormat4.png,,0,stim/0.png,0,0,80,2020-12-10_08h59.15.983,premup-three_ses-02_part-03_label-phase3,3.2.4,Win32,60
1,right,1.046999931,3,1.471999884,0,1,3.720999956,0,1,0.366999865,1,0,200,81,1,199,3,1,0.9,1,stim/objects/HouseObjects/scale2.png,stim/62.jpeg,6,stim/6.png,2,3,80,2020-12-10_08h59.15.983,premup-three_ses-02_part-03_label-phase3,3.2.4,Win32,60
1,left,1.421999931,4,1.032999754,0,4,6.895999908,0,1,1.423000097,1,0,200,6,1,199,1,1,0.5,1,stim/objects/Instruments/pipepiano.png,stim/13.jpeg,1,stim/1.png,3,2,80,2020-12-10_08h59.15.983,premup-three_ses-02_part-03_label-phase3,3.2.4,Win32,60
1,right,1.828999996,2,1.282999992,0,1,1.328999996,0,1,0.240999937,1,0,200,46,1,199,2,1,0.7,1,stim/objects/HouseObjects/handvacuum2.png,stim/42.jpeg,4,stim/4.png,2,4,80,2020-12-10_08h59.15.983,premup-three_ses-02_part-03_label-phase3,3.2.4,Win32,60
1,right,1.974999905,,,0,,,0,,,1,0,200,143,1,199,0,1,0,2,stim/objects/HouseObjects/rug3.png,,0,stim/0.png,0,0,80,2020-12-10_08h59.15.983,premup-three_ses-02_part-03_label-phase3,3.2.4,Win32,60
1,right,1.694999933,3,2.261000156,0,4,3.889999866,0,2,2.255000114,1,0,200,77,1,199,3,2,0.9,1,stim/objects/Instruments/record2.png,stim/52.jpeg,5,stim/5.png,2,2,80,2020-12-10_08h59.15.983,premup-three_ses-02_part-03_label-phase3,3.2.4,Win32,60
1,right,3.687999964,2,0.99000001,0,1,2.419999838,0,4,1.708999872,1,0,200,58,1,199,2,2,0.3,1,stim/objects/Instruments/laud2.png,stim/42.jpeg,4,stim/4.png,2,3,80,2020-12-10_08h59.15.983,premup-three_ses-02_part-03_label-phase3,3.2.4,Win32,60
1,right,12.49300003,1,1.096999884,0,4,1.0849998,0,4,0.520999908,1,0,200,2,1,199,1,1,0.5,1,stim/objects/HouseObjects/rubbergloves.png,stim/11.jpeg,1,stim/1.png,1,4,80,2020-12-10_08h59.15.983,premup-three_ses-02_part-03_label-phase3,3.2.4,Win32,60
1,right,1.314999819,,,0,,,0,,,1,0,200,180,1,199,0,1,0,2,stim/objects/HouseObjects/flyswatter4.png,,0,stim/0.png,0,0,80,2020-12-10_08h59.15.983,premup-three_ses-02_part-03_label-phase3,3.2.4,Win32,60
1,right,3.947999716,,,0,,,0,,,1,0,200,138,1,199,0,2,0,2,stim/objects/Instruments/musicstand3.png,,0,stim/0.png,0,0,80,2020-12-10_08h59.15.983,premup-three_ses-02_part-03_label-phase3,3.2.4,Win32,60
1,left,1.751999855,,,0,,,0,,,1,0,200,137,1,199,0,2,0,2,stim/objects/Instruments/musicsheet3.png,,0,stim/0.png,0,0,80,2020-12-10_08h59.15.983,premup-three_ses-02_part-03_label-phase3,3.2.4,Win32,60
1,left,2.36199975,2,3.445999861,0,2,2.262000084,0,4,0.640999794,1,0,200,65,1,199,3,1,0.1,1,stim/objects/HouseObjects/recyclingbin2.png,stim/52.jpeg,5,stim/5.png,2,3,80,2020-12-10_08h59.15.983,premup-three_ses-02_part-03_label-phase3,3.2.4,Win32,60
1,left,1.427999973,2,2.453999996,0,1,1.562000036,0,3,0.618000031,1,0,200,72,1,199,3,2,0.9,1,stim/objects/Instruments/musicsheet2.png,stim/51.jpeg,5,stim/5.png,1,3,80,2020-12-10_08h59.15.983,premup-three_ses-02_part-03_label-phase3,3.2.4,Win32,60
1,right,3.467999935,2,1.04399991,0,4,1.397000074,0,4,0.521999836,1,0,200,63,1,199,3,1,0.1,1,stim/objects/HouseObjects/pan2.png,stim/54.jpeg,5,stim/5.png,4,3,80,2020-12-10_08h59.15.983,premup-three_ses-02_part-03_label-phase3,3.2.4,Win32,60
1,right,4.566999912,2,0.872999907,0,1,2.085999966,0,1,0.512000084,1,0,200,61,1,199,3,1,0.1,1,stim/objects/HouseObjects/lintroller2.png,stim/52.jpeg,5,stim/5.png,2,3,80,2020-12-10_08h59.15.983,premup-three_ses-02_part-03_label-phase3,3.2.4,Win32,60
1,right,3.203999996,,,0,,,0,,,1,0,200,199,1,199,0,2,0,2,stim/objects/Instruments/maraca4.png,,0,stim/0.png,0,0,80,2020-12-10_08h59.15.983,premup-three_ses-02_part-03_label-phase3,3.2.4,Win32,60
1,left,0.973999977,,,0,,,0,,,1,0,200,163,1,199,0,1,0,2,stim/objects/HouseObjects/vacuumcleaner3.png,,0,stim/0.png,0,0,80,2020-12-10_08h59.15.983,premup-three_ses-02_part-03_label-phase3,3.2.4,Win32,60
1,right,1.619999886,1,0.824999809,0,1,0.829999924,0,1,0.343999863,1,0,200,95,1,199,3,2,0.1,1,stim/objects/Instruments/trumpet2.png,stim/64.jpeg,6,stim/6.png,4,4,80,2020-12-10_08h59.15.983,premup-three_ses-02_part-03_label-phase3,3.2.4,Win32,60
1,left,6.174999952,,,0,,,0,,,1,0,200,192,1,199,0,2,0,2,stim/objects/Instruments/grandpiano4.png,,0,stim/0.png,0,0,80,2020-12-10_08h59.15.983,premup-three_ses-02_part-03_label-phase3,3.2.4,Win32,60
1,right,1.52699995,1,0.750999928,0,1,0.651000023,0,1,0.510999918,1,0,200,44,1,199,2,1,0.7,1,stim/objects/HouseObjects/hairdryer2.png,stim/44.jpeg,4,stim/4.png,4,3,80,2020-12-10_08h59.15.983,premup-three_ses-02_part-03_label-phase3,3.2.4,Win32,60
1,right,1.118999958,,,0,,,0,,,1,0,200,133,1,199,0,2,0,2,stim/objects/Instruments/laud3.png,,0,stim/0.png,0,0,80,2020-12-10_08h59.15.983,premup-three_ses-02_part-03_label-phase3,3.2.4,Win32,60
1,left,0.855999947,2,4.131000042,0,3,1.138999939,0,3,0.559999943,1,0,200,0,1,199,1,1,0.5,1,stim/objects/HouseObjects/recyclingbin.png,stim/13.jpeg,1,stim/1.png,3,4,80,2020-12-10_08h59.15.983,premup-three_ses-02_part-03_label-phase3,3.2.4,Win32,60
1,right,0.819999695,,,0,,,0,,,1,0,200,106,1,199,0,1,0,2,stim/objects/HouseObjects/garbagebin3.png,,0,stim/0.png,0,0,80,2020-12-10_08h59.15.983,premup-three_ses-02_part-03_label-phase3,3.2.4,Win32,60
1,right,0.917999983,,,0,,,0,,,1,0,200,123,1,199,0,1,0,2,stim/objects/HouseObjects/ironingboard3.png,,0,stim/0.png,0,0,80,2020-12-10_08h59.15.983,premup-three_ses-02_part-03_label-phase3,3.2.4,Win32,60
1,left,0.824999809,4,2.236000061,0,3,3.291999817,0,3,1.136999846,1,0,200,56,1,199,2,2,0.3,1,stim/objects/Instruments/hihat2.png,stim/44.jpeg,4,stim/4.png,4,2,80,2020-12-10_08h59.15.983,premup-three_ses-02_part-03_label-phase3,3.2.4,Win32,60
1,right,6.54399991,3,1.983999968,0,1,1.699999809,0,1,0.378999949,1,0,200,89,1,199,3,1,0.9,1,stim/objects/HouseObjects/wateringcan2.png,stim/62.jpeg,6,stim/6.png,2,4,80,2020-12-10_08h59.15.983,premup-three_ses-02_part-03_label-phase3,3.2.4,Win32,60
1,right,4.15199995,2,0.948999882,0,2,0.752999783,0,2,0.366999865,1,0,200,21,1,199,2,1,0.3,1,stim/objects/HouseObjects/thread.png,stim/32.jpeg,3,stim/3.png,2,1,80,2020-12-10_08h59.15.983,premup-three_ses-02_part-03_label-phase3,3.2.4,Win32,60
1,right,1.006000042,,,0,,,0,,,1,0,200,144,1,199,0,1,0,2,stim/objects/HouseObjects/safetypin3.png,,0,stim/0.png,0,0,80,2020-12-10_08h59.15.983,premup-three_ses-02_part-03_label-phase3,3.2.4,Win32,60
1,right,1.843999863,,,0,,,0,,,1,0,200,150,1,199,0,2,0,2,stim/objects/Instruments/panflute3.png,,0,stim/0.png,0,0,80,2020-12-10_08h59.15.983,premup-three_ses-02_part-03_label-phase3,3.2.4,Win32,60
1,right,0.648000002,3,1.558000088,0,1,2.371000051,0,1,0.733999729,1,0,200,91,1,199,3,2,0.1,1,stim/objects/Instruments/tambourine2.png,stim/64.jpeg,6,stim/6.png,4,4,80,2020-12-10_08h59.15.983,premup-three_ses-02_part-03_label-phase3,3.2.4,Win32,60
1,right,1.984999895,,,0,,,0,,,1,0,200,101,1,199,0,1,0,2,stim/objects/HouseObjects/cushion3.png,,0,stim/0.png,0,0,80,2020-12-10_08h59.15.983,premup-three_ses-02_part-03_label-phase3,3.2.4,Win32,60
1,right,0.944999933,3,1.822999954,0,1,1.064999819,0,1,0.924999952,1,0,200,73,1,199,3,2,0.9,1,stim/objects/Instruments/musicstand2.png,stim/52.jpeg,5,stim/5.png,2,4,80,2020-12-10_08h59.15.983,premup-three_ses-02_part-03_label-phase3,3.2.4,Win32,60
1,right,1.699999809,2,3.569999933,0,1,0.611999989,0,1,0.375999928,1,0,200,22,1,199,2,1,0.3,1,stim/objects/HouseObjects/towel.png,stim/33.jpeg,3,stim/3.png,3,4,80,2020-12-10_08h59.15.983,premup-three_ses-02_part-03_label-phase3,3.2.4,Win32,60
1,right,2.352999926,,,0,,,0,,,1,0,200,131,1,199,0,2,0,2,stim/objects/Instruments/hihat3.png,,0,stim/0.png,0,0,80,2020-12-10_08h59.15.983,premup-three_ses-02_part-03_label-phase3,3.2.4,Win32,60
1,right,0.869999886,,,0,,,0,,,1,0,200,155,1,199,0,2,0,2,stim/objects/Instruments/speaker3.png,,0,stim/0.png,0,0,80,2020-12-10_08h59.15.983,premup-three_ses-02_part-03_label-phase3,3.2.4,Win32,60
1,right,0.700999975,2,1.415999889,0,2,1.029999971,0,2,0.288000107,1,0,200,24,1,199,2,1,0.3,1,stim/objects/HouseObjects/wateringcan.png,stim/31.jpeg,3,stim/3.png,1,1,80,2020-12-10_08h59.15.983,premup-three_ses-02_part-03_label-phase3,3.2.4,Win32,60
1,left,4.211999893,3,2.921000004,0,1,2.160999775,0,2,1.279999971,1,0,200,17,1,199,1,2,0.5,1,stim/objects/Instruments/timbal.png,stim/22.jpeg,2,stim/2.png,2,2,80,2020-12-10_08h59.15.983,premup-three_ses-02_part-03_label-phase3,3.2.4,Win32,60
1,right,2.108999968,2,0.960999966,0,1,1.080999851,0,1,0.411999941,1,0,200,62,1,199,3,1,0.1,1,stim/objects/HouseObjects/match2.png,stim/53.jpeg,5,stim/5.png,3,3,80,2020-12-10_08h59.15.983,premup-three_ses-02_part-03_label-phase3,3.2.4,Win32,60
1,right,2.645999908,,,0,,,0,,,1,0,200,178,1,199,0,2,0,2,stim/objects/Instruments/flute4.png,,0,stim/0.png,0,0,80,2020-12-10_08h59.15.983,premup-three_ses-02_part-03_label-phase3,3.2.4,Win32,60
1,right,1.174999952,2,1.520999908,0,4,1.23300004,0,4,0.902999878,1,0,200,19,1,199,1,2,0.5,1,stim/objects/Instruments/trombone.png,stim/24.jpeg,2,stim/2.png,4,1,80,2020-12-10_08h59.15.983,premup-three_ses-02_part-03_label-phase3,3.2.4,Win32,60
1,right,0.955999851,,,0,,,0,,,1,0,200,111,1,199,0,2,0,2,stim/objects/Instruments/electricdrumset3.png,,0,stim/0.png,0,0,80,2020-12-10_08h59.15.983,premup-three_ses-02_part-03_label-phase3,3.2.4,Win32,60
1,right,1.59100008,,,0,,,0,,,1,0,200,107,1,199,0,1,0,2,stim/objects/HouseObjects/glass3.png,,0,stim/0.png,0,0,80,2020-12-10_08h59.15.983,premup-three_ses-02_part-03_label-phase3,3.2.4,Win32,60
1,right,0.684000015,,,0,,,0,,,1,0,200,181,1,199,0,1,0,2,stim/objects/HouseObjects/garbagebin4.png,,0,stim/0.png,0,0,80,2020-12-10_08h59.15.983,premup-three_ses-02_part-03_label-phase3,3.2.4,Win32,60
1,right,0.743999958,,,0,,,0,,,1,0,200,116,1,199,0,2,0,2,stim/objects/Instruments/gong3.png,,0,stim/0.png,0,0,80,2020-12-10_08h59.15.983,premup-three_ses-02_part-03_label-phase3,3.2.4,Win32,60
1,right,1.917999983,1,1.474999905,0,1,2.213999987,0,4,0.915999889,1,0,200,15,1,199,1,2,0.5,1,stim/objects/Instruments/speaker.png,stim/24.jpeg,2,stim/2.png,4,1,80,2020-12-10_08h59.15.983,premup-three_ses-02_part-03_label-phase3,3.2.4,Win32,60
1,left,2.325999975,4,2.613999844,0,4,3.049999952,0,3,1.486000061,1,0,200,25,1,199,2,1,0.3,1,stim/objects/HouseObjects/coffee2.png,stim/32.jpeg,3,stim/3.png,2,2,80,2020-12-10_08h59.15.983,premup-three_ses-02_part-03_label-phase3,3.2.4,Win32,60
1,right,3.76699996,2,2.04399991,0,2,0.771999836,0,2,0.389999866,1,0,200,34,1,199,2,2,0.7,1,stim/objects/Instruments/xylophone.png,stim/32.jpeg,3,stim/3.png,2,2,80,2020-12-10_08h59.15.983,premup-three_ses-02_part-03_label-phase3,3.2.4,Win32,60
1,right,1.105999947,,,0,,,0,,,1,0,200,167,1,199,0,1,0,2,stim/objects/HouseObjects/dishsoap4.png,,0,stim/0.png,0,0,80,2020-12-10_08h59.15.983,premup-three_ses-02_part-03_label-phase3,3.2.4,Win32,60
1,right,1.128999949,2,1.839999914,0,1,1.265000105,0,1,0.509999752,1,0,200,55,1,199,2,2,0.3,1,stim/objects/Instruments/harp2.png,stim/43.jpeg,4,stim/4.png,3,4,80,2020-12-10_08h59.15.983,premup-three_ses-02_part-03_label-phase3,3.2.4,Win32,60
1,right,2.45299983,1,1.48300004,0,1,0.608999729,0,2,0.853999853,1,0,200,50,1,199,2,2,0.3,1,stim/objects/Instruments/frenchhorn2.png,stim/42.jpeg,4,stim/4.png,2,1,80,2020-12-10_08h59.15.983,premup-three_ses-02_part-03_label-phase3,3.2.4,Win32,60
1,left,2.976999998,,,0,,,0,,,1,0,200,158,1,199,0,2,0,2,stim/objects/Instruments/triangle3.png,,0,stim/0.png,0,0,80,2020-12-10_08h59.15.983,premup-three_ses-02_part-03_label-phase3,3.2.4,Win32,60
1,right,1.746999741,1,1.042999744,0,1,1.027999878,0,2,0.838999987,1,0,200,11,1,199,1,2,0.5,1,stim/objects/HouseObjects/scale.png,stim/22.jpeg,2,stim/2.png,2,2,80,2020-12-10_08h59.15.983,premup-three_ses-02_part-03_label-phase3,3.2.4,Win32,60
1,right,2.296999931,,,0,,,0,,,1,0,200,153,1,199,0,2,0,2,stim/objects/Instruments/record_player3.png,,0,stim/0.png,0,0,80,2020-12-10_08h59.15.983,premup-three_ses-02_part-03_label-phase3,3.2.4,Win32,60
1,right,2.997999907,2,1.085999966,0,2,0.794000149,0,2,0.753999949,1,0,200,59,1,199,2,2,0.3,1,stim/objects/Instruments/maraca2.png,stim/43.jpeg,4,stim/4.png,3,2,80,2020-12-10_08h59.15.983,premup-three_ses-02_part-03_label-phase3,3.2.4,Win32,60
1,right,0.824999809,2,1.895999908,0,1,0.898999929,0,1,0.342000008,1,0,200,28,1,199,2,1,0.3,1,stim/objects/HouseObjects/doormat2.png,stim/31.jpeg,3,stim/3.png,1,3,80,2020-12-10_08h59.15.983,premup-three_ses-02_part-03_label-phase3,3.2.4,Win32,60
1,right,1.152999878,,,0,,,0,,,1,0,200,176,1,199,0,2,0,2,stim/objects/Instruments/electricdrumset4.png,,0,stim/0.png,0,0,80,2020-12-10_08h59.15.983,premup-three_ses-02_part-03_label-phase3,3.2.4,Win32,60
1,right,0.967000008,1,0.53399992,0,1,0.375999928,0,1,0.447999954,1,0,200,39,1,199,2,2,0.7,1,stim/objects/Instruments/flutetrans2.png,stim/33.jpeg,3,stim/3.png,3,1,80,2020-12-10_08h59.15.983,premup-three_ses-02_part-03_label-phase3,3.2.4,Win32,60
1,left,3.455999851,4,1.555999994,0,4,2.572999954,0,1,1.917999983,1,0,200,76,1,199,3,2,0.9,1,stim/objects/Instruments/pipepiano2.png,stim/51.jpeg,5,stim/5.png,1,1,80,2020-12-10_08h59.15.983,premup-three_ses-02_part-03_label-phase3,3.2.4,Win32,60
1,right,7.234999895,3,3.781999826,0,1,2.598999977,0,4,5.983999968,1,0,200,27,1,199,2,1,0.3,1,stim/objects/HouseObjects/dishsoap2.png,stim/34.jpeg,3,stim/3.png,4,1,80,2020-12-10_08h59.15.983,premup-three_ses-02_part-03_label-phase3,3.2.4,Win32,60
1,right,4.17599988,2,3.228999853,0,1,1.541999817,0,3,2.81099987,1,0,200,99,1,199,3,2,0.1,1,stim/objects/Instruments/xylophone2.png,stim/64.jpeg,6,stim/6.png,4,4,80,2020-12-10_08h59.15.983,premup-three_ses-02_part-03_label-phase3,3.2.4,Win32,60
1,right,1.625,,,0,,,0,,,1,0,200,132,1,199,0,2,0,2,stim/objects/Instruments/keyboard3.png,,0,stim/0.png,0,0,80,2020-12-10_08h59.15.983,premup-three_ses-02_part-03_label-phase3,3.2.4,Win32,60
1,right,1.559999943,,,0,,,0,,,1,0,200,100,1,199,0,1,0,2,stim/objects/HouseObjects/coffee3.png,,0,stim/0.png,0,0,80,2020-12-10_08h59.15.983,premup-three_ses-02_part-03_label-phase3,3.2.4,Win32,60
1,right,1.070999861,3,1.427999973,0,1,1.832999945,0,1,4.809999943,1,0,200,69,1,199,3,1,0.1,1,stim/objects/HouseObjects/safetypin2.png,stim/52.jpeg,5,stim/5.png,2,4,80,2020-12-10_08h59.15.983,premup-three_ses-02_part-03_label-phase3,3.2.4,Win32,60
1,left,3.551999807,,,0,,,0,,,1,0,200,198,1,199,0,2,0,2,stim/objects/Instruments/laud4.png,,0,stim/0.png,0,0,80,2020-12-10_08h59.15.983,premup-three_ses-02_part-03_label-phase3,3.2.4,Win32,60
1,right,1.700000048,,,0,,,0,,,1,0,200,110,1,199,0,2,0,2,stim/objects/Instruments/drums3.png,,0,stim/0.png,0,0,80,2020-12-10_08h59.15.983,premup-three_ses-02_part-03_label-phase3,3.2.4,Win32,60
1,left,0.854000092,3,2.404999971,0,1,3.677999735,0,3,3.845000029,1,0,200,36,1,199,2,2,0.7,1,stim/objects/Instruments/electricdrumset2.png,stim/34.jpeg,3,stim/3.png,4,1,80,2020-12-10_08h59.15.983,premup-three_ses-02_part-03_label-phase3,3.2.4,Win32,60
1,right,2.773999929,,,0,,,0,,,1,0,200,194,1,199,0,2,0,2,stim/objects/Instruments/harmonica4.png,,0,stim/0.png,0,0,80,2020-12-10_08h59.15.983,premup-three_ses-02_part-03_label-phase3,3.2.4,Win32,60
1,right,0.786999941,,,0,,,0,,,1,0,200,184,1,199,0,1,0,2,stim/objects/HouseObjects/hairdryer4.png,,0,stim/0.png,0,0,80,2020-12-10_08h59.15.983,premup-three_ses-02_part-03_label-phase3,3.2.4,Win32,60
1,right,0.805000067,,,0,,,0,,,1,0,200,174,1,199,0,2,0,2,stim/objects/Instruments/xylophone3.png,,0,stim/0.png,0,0,80,2020-12-10_08h59.15.983,premup-three_ses-02_part-03_label-phase3,3.2.4,Win32,60
1,left,1.437999964,3,1.325999975,0,4,3.508999825,0,4,4.769999981,1,0,200,10,1,199,1,2,0.5,1,stim/objects/HouseObjects/saw.png,stim/21.jpeg,2,stim/2.png,1,1,80,2020-12-10_08h59.15.983,premup-three_ses-02_part-03_label-phase3,3.2.4,Win32,60
1,right,3.297999859,,,0,,,0,,,1,0,200,160,1,199,0,1,0,2,stim/objects/HouseObjects/thermometer3.png,,0,stim/0.png,0,0,80,2020-12-10_08h59.15.983,premup-three_ses-02_part-03_label-phase3,3.2.4,Win32,60
1,right,0.874000072,2,1.708999872,0,1,1.200000048,0,2,2.376999855,1,0,200,83,1,199,3,1,0.9,1,stim/objects/HouseObjects/spraybottle2.png,stim/64.jpeg,6,stim/6.png,4,4,80,2020-12-10_08h59.15.983,premup-three_ses-02_part-03_label-phase3,3.2.4,Win32,60
1,right,1.3349998,2,1.714999914,0,1,1.504999876,0,1,1.895999908,1,0,200,64,1,199,3,1,0.1,1,stim/objects/HouseObjects/pitcher2.png,stim/51.jpeg,5,stim/5.png,1,1,80,2020-12-10_08h59.15.983,premup-three_ses-02_part-03_label-phase3,3.2.4,Win32,60
1,right,4.260999918,,,0,,,0,,,1,0,200,183,1,199,0,1,0,2,stim/objects/HouseObjects/glassmop4.png,,0,stim/0.png,0,0,80,2020-12-10_08h59.15.983,premup-three_ses-02_part-03_label-phase3,3.2.4,Win32,60
1,left,4.070999861,3,1.978999853,0,2,2.728999853,0,2,7.338999987,1,0,200,47,1,199,2,1,0.7,1,stim/objects/HouseObjects/iron2.png,stim/43.jpeg,4,stim/4.png,3,2,80,2020-12-10_08h59.15.983,premup-three_ses-02_part-03_label-phase3,3.2.4,Win32,60
1,right,2.117999792,1,4.411999941,0,4,3.448999882,0,4,2.307999849,1,0,200,70,1,199,3,2,0.9,1,stim/objects/Instruments/marimba2.png,stim/53.jpeg,5,stim/5.png,3,1,80,2020-12-10_08h59.15.983,premup-three_ses-02_part-03_label-phase3,3.2.4,Win32,60
1,right,3.54399991,2,2.035000086,0,3,2.60199976,0,1,2.608999968,1,0,200,67,1,199,3,1,0.1,1,stim/objects/HouseObjects/rubbergloves2.png,stim/54.jpeg,5,stim/5.png,4,1,80,2020-12-10_08h59.15.983,premup-three_ses-02_part-03_label-phase3,3.2.4,Win32,60
1,left,1.503999949,,,0,,,0,,,1,0,200,190,1,199,0,2,0,2,stim/objects/Instruments/frenchhorn4.png,,0,stim/0.png,0,0,80,2020-12-10_08h59.15.983,premup-three_ses-02_part-03_label-phase3,3.2.4,Win32,60
1,right,1.640000105,,,0,,,0,,,1,0,200,189,1,199,0,1,0,2,stim/objects/HouseObjects/key4.png,,0,stim/0.png,0,0,80,2020-12-10_08h59.15.983,premup-three_ses-02_part-03_label-phase3,3.2.4,Win32,60
1,right,1.427000046,3,1.496999979,0,3,1.198999882,0,4,2.7099998,1,0,200,33,1,199,2,2,0.7,1,stim/objects/Instruments/vuvuzela.png,stim/31.jpeg,3,stim/3.png,1,3,80,2020-12-10_08h59.15.983,premup-three_ses-02_part-03_label-phase3,3.2.4,Win32,60
1,right,2.440000057,,,0,,,0,,,1,0,200,135,1,199,0,2,0,2,stim/objects/Instruments/marimba3.png,,0,stim/0.png,0,0,80,2020-12-10_08h59.15.983,premup-three_ses-02_part-03_label-phase3,3.2.4,Win32,60
1,right,0.805999756,,,0,,,0,,,1,0,200,173,1,199,0,2,0,2,stim/objects/Instruments/vuvuzela3.png,,0,stim/0.png,0,0,80,2020-12-10_08h59.15.983,premup-three_ses-02_part-03_label-phase3,3.2.4,Win32,60
1,left,2.160000086,2,1.01699996,0,1,0.677000046,0,1,1.026000023,1,0,200,97,1,199,3,2,0.1,1,stim/objects/Instruments/violin2.png,stim/62.jpeg,6,stim/6.png,2,4,80,2020-12-10_08h59.15.983,premup-three_ses-02_part-03_label-phase3,3.2.4,Win32,60
1,right,4.890000105,,,0,,,0,,,1,0,200,146,1,199,0,1,0,2,stim/objects/HouseObjects/scale3.png,,0,stim/0.png,0,0,80,2020-12-10_08h59.15.983,premup-three_ses-02_part-03_label-phase3,3.2.4,Win32,60
1,right,0.924000025,,,0,,,0,,,1,0,200,193,1,199,0,2,0,2,stim/objects/Instruments/guitarcase4.png,,0,stim/0.png,0,0,80,2020-12-10_08h59.15.983,premup-three_ses-02_part-03_label-phase3,3.2.4,Win32,60
1,right,1.056999922,,,0,,,0,,,1,0,200,118,1,199,0,2,0,2,stim/objects/Instruments/guitarcase3.png,,0,stim/0.png,0,0,80,2020-12-10_08h59.15.983,premup-three_ses-02_part-03_label-phase3,3.2.4,Win32,60
1,right,1.068999767,,,0,,,0,,,1,0,200,129,1,199,0,1,0,2,stim/objects/HouseObjects/pitcher3.png,,0,stim/0.png,0,0,80,2020-12-10_08h59.15.983,premup-three_ses-02_part-03_label-phase3,3.2.4,Win32,60
1,right,1.454999924,,,0,,,0,,,1,0,200,122,1,199,0,1,0,2,stim/objects/HouseObjects/iron3.png,,0,stim/0.png,0,0,80,2020-12-10_08h59.15.983,premup-three_ses-02_part-03_label-phase3,3.2.4,Win32,60
1,right,1.690000057,3,2.799000025,0,1,2.503000021,0,1,0.611000061,1,0,200,29,1,199,2,1,0.3,1,stim/objects/HouseObjects/dustpan2.png,stim/32.jpeg,3,stim/3.png,2,3,80,2020-12-10_08h59.15.983,premup-three_ses-02_part-03_label-phase3,3.2.4,Win32,60
1,right,2.655999899,,,0,,,0,,,1,0,200,139,1,199,0,2,0,2,stim/objects/Instruments/oboe3.png,,0,stim/0.png,0,0,80,2020-12-10_08h59.15.983,premup-three_ses-02_part-03_label-phase3,3.2.4,Win32,60
1,right,1.569999933,1,1.154999971,0,4,1.843999863,0,2,0.933999777,1,0,200,37,1,199,2,2,0.7,1,stim/objects/Instruments/electricguitar2.png,stim/31.jpeg,3,stim/3.png,1,1,80,2020-12-10_08h59.15.983,premup-three_ses-02_part-03_label-phase3,3.2.4,Win32,60
1,right,1.467999935,,,0,,,0,,,1,0,200,151,1,199,0,2,0,2,stim/objects/Instruments/pipepiano3.png,,0,stim/0.png,0,0,80,2020-12-10_08h59.15.983,premup-three_ses-02_part-03_label-phase3,3.2.4,Win32,60
1,right,0.950999975,2,1.722999811,0,3,1.546999693,0,3,0.448999882,1,0,200,79,1,199,3,2,0.9,1,stim/objects/Instruments/saxophone2.png,stim/54.jpeg,5,stim/5.png,4,1,80,2020-12-10_08h59.15.983,premup-three_ses-02_part-03_label-phase3,3.2.4,Win32,60
1,right,1.406000137,,,0,,,0,,,1,0,200,191,1,199,0,2,0,2,stim/objects/Instruments/gong4.png,,0,stim/0.png,0,0,80,2020-12-10_08h59.15.983,premup-three_ses-02_part-03_label-phase3,3.2.4,Win32,60
1,right,3.427999973,3,2.78399992,0,1,0.704999924,0,1,0.479000092,1,0,200,45,1,199,2,1,0.7,1,stim/objects/HouseObjects/handbrush2.png,stim/41.jpeg,4,stim/4.png,1,1,80,2020-12-10_08h59.15.983,premup-three_ses-02_part-03_label-phase3,3.2.4,Win32,60
1,right,1.193999767,3,2.875999928,0,1,0.947000027,0,1,0.74000001,1,0,200,53,1,199,2,2,0.3,1,stim/objects/Instruments/guitarcase2.png,stim/41.jpeg,4,stim/4.png,1,4,80,2020-12-10_08h59.15.983,premup-three_ses-02_part-03_label-phase3,3.2.4,Win32,60
1,left,2.076999903,3,1.89199996,0,1,1.407000065,0,1,1.549000025,1,0,200,74,1,199,3,2,0.9,1,stim/objects/Instruments/oboe2.png,stim/53.jpeg,5,stim/5.png,3,4,80,2020-12-10_08h59.15.983,premup-three_ses-02_part-03_label-phase3,3.2.4,Win32,60
1,right,3.125,1,1.148999929,0,4,5.144000053,0,3,1.888999939,1,0,200,18,1,199,1,2,0.5,1,stim/objects/Instruments/triangle.png,stim/23.jpeg,2,stim/2.png,3,2,80,2020-12-10_08h59.15.983,premup-three_ses-02_part-03_label-phase3,3.2.4,Win32,60
1,right,1.071999788,,,0,,,0,,,1,0,200,182,1,199,0,1,0,2,stim/objects/HouseObjects/glass4.png,,0,stim/0.png,0,0,80,2020-12-10_08h59.15.983,premup-three_ses-02_part-03_label-phase3,3.2.4,Win32,60
1,right,1.127000093,,,0,,,0,,,1,0,200,115,1,199,0,2,0,2,stim/objects/Instruments/frenchhorn3.png,,0,stim/0.png,0,0,80,2020-12-10_08h59.15.983,premup-three_ses-02_part-03_label-phase3,3.2.4,Win32,60
1,right,1.628000021,,,0,,,0,,,1,0,200,113,1,199,0,2,0,2,stim/objects/Instruments/flute3.png,,0,stim/0.png,0,0,80,2020-12-10_08h59.15.983,premup-three_ses-02_part-03_label-phase3,3.2.4,Win32,60
1,left,1.05099988,4,1.934000015,0,1,2.682999849,0,2,6.859999895,1,0,200,82,1,199,3,1,0.9,1,stim/objects/HouseObjects/sponge2.png,stim/63.jpeg,6,stim/6.png,3,4,80,2020-12-10_08h59.15.983,premup-three_ses-02_part-03_label-phase3,3.2.4,Win32,60
1,right,1.025000095,,,0,,,0,,,1,0,200,166,1,199,0,1,0,2,stim/objects/HouseObjects/cushion4.png,,0,stim/0.png,0,0,80,2020-12-10_08h59.15.983,premup-three_ses-02_part-03_label-phase3,3.2.4,Win32,60
1,right,1.056999922,,,0,,,0,,,1,0,200,169,1,199,0,1,0,2,stim/objects/HouseObjects/dustpan4.png,,0,stim/0.png,0,0,80,2020-12-10_08h59.15.983,premup-three_ses-02_part-03_label-phase3,3.2.4,Win32,60
1,right,2.849999905,,,0,,,0,,,1,0,200,175,1,199,0,2,0,2,stim/objects/Instruments/drums4.png,,0,stim/0.png,0,0,80,2020-12-10_08h59.15.983,premup-three_ses-02_part-03_label-phase3,3.2.4,Win32,60
1,right,2.729000092,1,0.743999958,0,3,5.46999979,0,4,4.004999876,1,0,200,12,1,199,1,2,0.5,1,stim/objects/HouseObjects/sponge.png,stim/23.jpeg,2,stim/2.png,3,3,80,2020-12-10_08h59.15.983,premup-three_ses-02_part-03_label-phase3,3.2.4,Win32,60
1,right,1.140999794,,,0,,,0,,,1,0,200,159,1,199,0,2,0,2,stim/objects/Instruments/trombone3.png,,0,stim/0.png,0,0,80,2020-12-10_08h59.15.983,premup-three_ses-02_part-03_label-phase3,3.2.4,Win32,60
1,left,2.829999924,2,1.315999985,0,1,3.931999922,0,2,2.462999821,1,0,200,30,1,199,2,2,0.7,1,stim/objects/Instruments/trumpet.png,stim/32.jpeg,3,stim/3.png,2,2,80,2020-12-10_08h59.15.983,premup-three_ses-02_part-03_label-phase3,3.2.4,Win32,60
1,right,2.886999846,2,2.383999825,0,4,1.41899991,0,2,3.101999998,1,0,200,85,1,199,3,1,0.9,1,stim/objects/HouseObjects/thermometer2.png,stim/62.jpeg,6,stim/6.png,2,2,80,2020-12-10_08h59.15.983,premup-three_ses-02_part-03_label-phase3,3.2.4,Win32,60
1,right,2.315000057,2,1.160000086,0,2,4.330999851,0,3,2.825000048,1,0,200,32,1,199,2,2,0.7,1,stim/objects/Instruments/violin.png,stim/34.jpeg,3,stim/3.png,4,4,80,2020-12-10_08h59.15.983,premup-three_ses-02_part-03_label-phase3,3.2.4,Win32,60
1,right,2.513000011,2,2.716999769,0,1,1.686999798,0,1,3.562999964,1,0,200,35,1,199,2,2,0.7,1,stim/objects/Instruments/drums2.png,stim/33.jpeg,3,stim/3.png,3,1,80,2020-12-10_08h59.15.983,premup-three_ses-02_part-03_label-phase3,3.2.4,Win32,60
1,right,1.234999895,3,3.484999895,0,2,3.261999846,0,1,4.694999933,1,0,200,8,1,199,1,1,0.5,1,stim/objects/Instruments/record_player.png,stim/11.jpeg,1,stim/1.png,1,3,80,2020-12-10_08h59.15.983,premup-three_ses-02_part-03_label-phase3,3.2.4,Win32,60
1,right,3.606999874,1,1.453999758,0,2,1.96600008,0,4,1.133999825,1,0,200,86,1,199,3,1,0.9,1,stim/objects/HouseObjects/thread2.png,stim/63.jpeg,6,stim/6.png,3,3,80,2020-12-10_08h59.15.983,premup-three_ses-02_part-03_label-phase3,3.2.4,Win32,60
1,right,1.60800004,,,0,,,0,,,1,0,200,114,1,199,0,2,0,2,stim/objects/Instruments/flutetrans3.png,,0,stim/0.png,0,0,80,2020-12-10_08h59.15.983,premup-three_ses-02_part-03_label-phase3,3.2.4,Win32,60
1,right,0.973999977,,,0,,,0,,,1,0,200,156,1,199,0,2,0,2,stim/objects/Instruments/tambourine3.png,,0,stim/0.png,0,0,80,2020-12-10_08h59.15.983,premup-three_ses-02_part-03_label-phase3,3.2.4,Win32,60
1,right,0.902999878,1,2.66899991,0,1,1.81799984,0,3,1.055000067,1,0,200,92,1,199,3,2,0.1,1,stim/objects/Instruments/timbal2.png,stim/61.jpeg,6,stim/6.png,1,2,80,2020-12-10_08h59.15.983,premup-three_ses-02_part-03_label-phase3,3.2.4,Win32,60
1,right,4.583999872,,,0,,,0,,,1,0,200,126,1,199,0,1,0,2,stim/objects/HouseObjects/lintroller3.png,,0,stim/0.png,0,0,80,2020-12-10_08h59.15.983,premup-three_ses-02_part-03_label-phase3,3.2.4,Win32,60
1,left,4.42599988,,,0,,,0,,,1,0,200,105,1,199,0,1,0,2,stim/objects/HouseObjects/flyswatter3.png,,0,stim/0.png,0,0,80,2020-12-10_08h59.15.983,premup-three_ses-02_part-03_label-phase3,3.2.4,Win32,60
1,right,2.882999897,3,2.417000055,0,4,1.247999907,0,2,2.299000025,1,0,200,41,1,199,2,1,0.7,1,stim/objects/HouseObjects/garbagebin2.png,stim/41.jpeg,4,stim/4.png,1,1,80,2020-12-10_08h59.15.983,premup-three_ses-02_part-03_label-phase3,3.2.4,Win32,60
1,right,4.980000019,3,1.523000002,0,2,3.250999928,0,4,2.792999983,1,0,200,71,1,199,3,2,0.9,1,stim/objects/Instruments/metronome2.png,stim/54.jpeg,5,stim/5.png,4,3,80,2020-12-10_08h59.15.983,premup-three_ses-02_part-03_label-phase3,3.2.4,Win32,60
1,right,0.947000027,4,2.032000065,0,1,1.694000006,0,1,0.316999912,1,0,200,14,1,199,1,2,0.5,1,stim/objects/HouseObjects/teapot.png,stim/21.jpeg,2,stim/2.png,1,4,80,2020-12-10_08h59.15.983,premup-three_ses-02_part-03_label-phase3,3.2.4,Win32,60
1,right,2.127999783,2,2.434999943,0,1,1.832999945,0,2,0.661000013,1,0,200,49,1,199,2,1,0.7,1,stim/objects/HouseObjects/key2.png,stim/41.jpeg,4,stim/4.png,1,1,80,2020-12-10_08h59.15.983,premup-three_ses-02_part-03_label-phase3,3.2.4,Win32,60
1,left,1.401000023,,,0,,,0,,,1,0,200,134,1,199,0,2,0,2,stim/objects/Instruments/maraca3.png,,0,stim/0.png,0,0,80,2020-12-10_08h59.15.983,premup-three_ses-02_part-03_label-phase3,3.2.4,Win32,60
