key_resp_trial.keys,key_resp_trial.rt,trial_acc,trial_index,iterations.thisRepN,iterations.thisTrialN,iterations.thisN,iterations.thisIndex,iterations.ran,iterations.order,task_innerloop.thisRepN,task_innerloop.thisTrialN,task_innerloop.thisN,task_innerloop.thisIndex,task_innerloop.ran,task_innerloop.order,scn_condition,scn_cat,scn_inst,scn_file,obj_cat,obj_cat_num,obj_file,trial_cond,quadrant,obj_x,obj_y,corr_ans,participant,date,expName,psychopyVersion,OS,frameRate,slider.response,slider.rt,slider_2.response,slider_2.rt,ratings.thisRepN,ratings.thisTrialN,ratings.thisN,ratings.thisIndex,ratings.ran,ratings.order,obj_cat_top,min_resp_top,max_resp_top,obj_cat_bottom,min_resp_bottom,max_resp_bottom,enc_trials.thisRepN,enc_trials.thisTrialN,enc_trials.thisN,enc_trials.thisIndex,enc_trials.ran,enc_trials.order,fillers,ratings_final.thisRepN,ratings_final.thisTrialN,ratings_final.thisN,ratings_final.thisIndex,ratings_final.ran,ratings_final.order
,,0,1,1,0,1,0,1,0,1,0,240,97,1,239,2,3,2,stim/32.jpeg,Instruments,2,stim/objects/Instruments/cornet.png,0.7,2,0.2,0.15,right,80,2020-12-09_14h02.41.351,premup-three_ses-02_part-02_label-phase2,3.2.4,Win32,60,,,,,,,,,,,,,,,,,,,,,,,,,,,,,
left,0.657999992,1,2,1,0,1,0,1,0,1,0,240,211,1,239,3,6,4,stim/64.jpeg,HouseObjects,1,stim/objects/HouseObjects/clothespin2.png,0.9,3,-0.2,-0.15,left,80,2020-12-09_14h02.41.351,premup-three_ses-02_part-02_label-phase2,3.2.4,Win32,60,,,,,,,,,,,,,,,,,,,,,,,,,,,,,
left,0.638999939,1,3,1,0,1,0,1,0,1,0,240,219,1,239,3,6,4,stim/64.jpeg,HouseObjects,1,stim/objects/HouseObjects/clothespin2.png,0.9,3,-0.2,-0.15,left,80,2020-12-09_14h02.41.351,premup-three_ses-02_part-02_label-phase2,3.2.4,Win32,60,,,,,,,,,,,,,,,,,,,,,,,,,,,,,
right,0.698999882,1,4,1,0,1,0,1,0,1,0,240,186,1,239,3,5,3,stim/53.jpeg,Instruments,2,stim/objects/Instruments/cello2.png,0.9,2,0.2,0.15,right,80,2020-12-09_14h02.41.351,premup-three_ses-02_part-02_label-phase2,3.2.4,Win32,60,,,,,,,,,,,,,,,,,,,,,,,,,,,,,
right,0.828000069,0,5,1,0,1,0,1,0,1,0,240,12,1,239,1,1,1,stim/11.jpeg,HouseObjects,1,stim/objects/HouseObjects/ashtray.png,0.5,4,0.2,-0.15,left,80,2020-12-09_14h02.41.351,premup-three_ses-02_part-02_label-phase2,3.2.4,Win32,60,,,,,,,,,,,,,,,,,,,,,,,,,,,,,
right,0.838999987,1,6,1,0,1,0,1,0,1,0,240,39,1,239,1,1,4,stim/14.jpeg,Instruments,2,stim/objects/Instruments/banjo.png,0.5,3,-0.2,-0.15,right,80,2020-12-09_14h02.41.351,premup-three_ses-02_part-02_label-phase2,3.2.4,Win32,60,,,,,,,,,,,,,,,,,,,,,,,,,,,,,
right,0.781999826,1,7,1,0,1,0,1,0,1,0,240,29,1,239,1,1,2,stim/12.jpeg,Instruments,2,stim/objects/Instruments/acousticguitar.png,0.5,3,-0.2,-0.15,right,80,2020-12-09_14h02.41.351,premup-three_ses-02_part-02_label-phase2,3.2.4,Win32,60,,,,,,,,,,,,,,,,,,,,,,,,,,,,,
right,0.875999928,0,8,1,0,1,0,1,0,1,0,240,86,1,239,2,3,3,stim/33.jpeg,HouseObjects,1,stim/objects/HouseObjects/clothesdryingrack.png,0.3,1,-0.2,0.15,left,80,2020-12-09_14h02.41.351,premup-three_ses-02_part-02_label-phase2,3.2.4,Win32,60,,,,,,,,,,,,,,,,,,,,,,,,,,,,,
left,0.536000013,0,9,1,0,1,0,1,0,1,0,240,96,1,239,2,3,1,stim/31.jpeg,Instruments,2,stim/objects/Instruments/clarinet.png,0.7,4,0.2,-0.15,right,80,2020-12-09_14h02.41.351,premup-three_ses-02_part-02_label-phase2,3.2.4,Win32,60,,,,,,,,,,,,,,,,,,,,,,,,,,,,,
left,0.773000002,0,10,1,0,1,0,1,0,1,0,240,95,1,239,2,3,4,stim/34.jpeg,Instruments,2,stim/objects/Instruments/doublebass.png,0.7,1,-0.2,0.15,right,80,2020-12-09_14h02.41.351,premup-three_ses-02_part-02_label-phase2,3.2.4,Win32,60,,,,,,,,,,,,,,,,,,,,,,,,,,,,,
,,0,11,1,0,1,0,1,0,1,0,240,177,1,239,3,5,2,stim/52.jpeg,Instruments,2,stim/objects/Instruments/bassguitar2.png,0.9,3,-0.2,-0.15,right,80,2020-12-09_14h02.41.351,premup-three_ses-02_part-02_label-phase2,3.2.4,Win32,60,,,,,,,,,,,,,,,,,,,,,,,,,,,,,
right,0.674000025,1,12,1,0,1,0,1,0,1,0,240,148,1,239,2,4,1,stim/41.jpeg,Instruments,2,stim/objects/Instruments/accordion2.png,0.3,2,0.2,0.15,right,80,2020-12-09_14h02.41.351,premup-three_ses-02_part-02_label-phase2,3.2.4,Win32,60,,,,,,,,,,,,,,,,,,,,,,,,,,,,,
right,0.767999887,1,13,1,0,1,0,1,0,1,0,240,27,1,239,1,1,4,stim/14.jpeg,Instruments,2,stim/objects/Instruments/banjo.png,0.5,1,-0.2,0.15,right,80,2020-12-09_14h02.41.351,premup-three_ses-02_part-02_label-phase2,3.2.4,Win32,60,,,,,,,,,,,,,,,,,,,,,,,,,,,,,
left,0.808000088,1,14,1,0,1,0,1,0,1,0,240,43,1,239,1,2,4,stim/24.jpeg,HouseObjects,1,stim/objects/HouseObjects/broom.png,0.5,4,0.2,-0.15,left,80,2020-12-09_14h02.41.351,premup-three_ses-02_part-02_label-phase2,3.2.4,Win32,60,,,,,,,,,,,,,,,,,,,,,,,,,,,,,
right,0.563999891,1,15,1,0,1,0,1,0,1,0,240,173,1,239,3,5,2,stim/52.jpeg,Instruments,2,stim/objects/Instruments/bassguitar2.png,0.9,1,-0.2,0.15,right,80,2020-12-09_14h02.41.351,premup-three_ses-02_part-02_label-phase2,3.2.4,Win32,60,,,,,,,,,,,,,,,,,,,,,,,,,,,,,
right,0.476000071,1,16,1,0,1,0,1,0,1,0,240,180,1,239,3,5,1,stim/51.jpeg,Instruments,2,stim/objects/Instruments/bassdrum2.png,0.9,2,0.2,0.15,right,80,2020-12-09_14h02.41.351,premup-three_ses-02_part-02_label-phase2,3.2.4,Win32,60,,,,,,,,,,,,,,,,,,,,,,,,,,,,,
left,0.857000113,0,17,1,0,1,0,1,0,1,0,240,26,1,239,1,1,3,stim/13.jpeg,Instruments,2,stim/objects/Instruments/balalaika.png,0.5,4,0.2,-0.15,right,80,2020-12-09_14h02.41.351,premup-three_ses-02_part-02_label-phase2,3.2.4,Win32,60,,,,,,,,,,,,,,,,,,,,,,,,,,,,,
right,0.571000099,1,18,1,0,1,0,1,0,1,0,240,24,1,239,1,1,1,stim/11.jpeg,Instruments,2,stim/objects/Instruments/accordion.png,0.5,4,0.2,-0.15,right,80,2020-12-09_14h02.41.351,premup-three_ses-02_part-02_label-phase2,3.2.4,Win32,60,,,,,,,,,,,,,,,,,,,,,,,,,,,,,
left,0.870000124,0,19,1,0,1,0,1,0,1,0,240,115,1,239,2,3,4,stim/34.jpeg,Instruments,2,stim/objects/Instruments/doublebass.png,0.7,4,0.2,-0.15,right,80,2020-12-09_14h02.41.351,premup-three_ses-02_part-02_label-phase2,3.2.4,Win32,60,,,,,,,,,,,,,,,,,,,,,,,,,,,,,
,,0,20,1,0,1,0,1,0,1,0,240,142,1,239,2,4,3,stim/43.jpeg,HouseObjects,1,stim/objects/HouseObjects/barbecuelighter2.png,0.7,4,0.2,-0.15,left,80,2020-12-09_14h02.41.351,premup-three_ses-02_part-02_label-phase2,3.2.4,Win32,60,,,,,,,,,,,,,,,,,,,,,,,,,,,,,
right,0.551999807,1,21,1,0,1,0,1,0,1,0,240,111,1,239,2,3,4,stim/34.jpeg,Instruments,2,stim/objects/Instruments/doublebass.png,0.7,3,-0.2,-0.15,right,80,2020-12-09_14h02.41.351,premup-three_ses-02_part-02_label-phase2,3.2.4,Win32,60,,,,,,,,,,,,,,,,,,,,,,,,,,,,,
left,0.550000191,1,22,1,0,1,0,1,0,1,0,240,145,1,239,2,4,2,stim/42.jpeg,HouseObjects,1,stim/objects/HouseObjects/ballofstring2.png,0.7,3,-0.2,-0.15,left,80,2020-12-09_14h02.41.351,premup-three_ses-02_part-02_label-phase2,3.2.4,Win32,60,,,,,,,,,,,,,,,,,,,,,,,,,,,,,
left,0.601000071,1,23,1,0,1,0,1,0,1,0,240,202,1,239,3,6,3,stim/63.jpeg,HouseObjects,1,stim/objects/HouseObjects/clothesdryingrack2.png,0.9,2,0.2,0.15,left,80,2020-12-09_14h02.41.351,premup-three_ses-02_part-02_label-phase2,3.2.4,Win32,60,,,,,,,,,,,,,,,,,,,,,,,,,,,,,
right,0.482999802,0,24,1,0,1,0,1,0,1,0,240,91,1,239,2,3,4,stim/34.jpeg,HouseObjects,1,stim/objects/HouseObjects/clothespin.png,0.3,4,0.2,-0.15,left,80,2020-12-09_14h02.41.351,premup-three_ses-02_part-02_label-phase2,3.2.4,Win32,60,,,,,,,,,,,,,,,,,,,,,,,,,,,,,
left,0.779000044,0,25,1,0,1,0,1,0,1,0,240,67,1,239,1,2,4,stim/24.jpeg,Instruments,2,stim/objects/Instruments/chime.png,0.5,3,-0.2,-0.15,right,80,2020-12-09_14h02.41.351,premup-three_ses-02_part-02_label-phase2,3.2.4,Win32,60,,,,,,,,,,,,,,,,,,,,,,,,,,,,,
left,0.593000174,1,26,1,0,1,0,1,0,1,0,240,140,1,239,2,4,1,stim/41.jpeg,HouseObjects,1,stim/objects/HouseObjects/ashtray2.png,0.7,2,0.2,0.15,left,80,2020-12-09_14h02.41.351,premup-three_ses-02_part-02_label-phase2,3.2.4,Win32,60,,,,,,,,,,,,,,,,,,,,,,,,,,,,,
left,0.64199996,1,27,1,0,1,0,1,0,1,0,240,126,1,239,2,4,3,stim/43.jpeg,HouseObjects,1,stim/objects/HouseObjects/barbecuelighter2.png,0.7,2,0.2,0.15,left,80,2020-12-09_14h02.41.351,premup-three_ses-02_part-02_label-phase2,3.2.4,Win32,60,,,,,,,,,,,,,,,,,,,,,,,,,,,,,
left,0.67599988,0,28,1,0,1,0,1,0,1,0,240,153,1,239,2,4,2,stim/42.jpeg,Instruments,2,stim/objects/Instruments/acousticguitar2.png,0.3,2,0.2,0.15,right,80,2020-12-09_14h02.41.351,premup-three_ses-02_part-02_label-phase2,3.2.4,Win32,60,,,,,,,,,,,,,,,,,,,,,,,,,,,,,
right,0.725999832,1,29,1,0,1,0,1,0,1,0,240,38,1,239,1,1,3,stim/13.jpeg,Instruments,2,stim/objects/Instruments/balalaika.png,0.5,3,-0.2,-0.15,right,80,2020-12-09_14h02.41.351,premup-three_ses-02_part-02_label-phase2,3.2.4,Win32,60,,,,,,,,,,,,,,,,,,,,,,,,,,,,,
left,0.532999992,1,30,1,0,1,0,1,0,1,0,240,227,1,239,3,6,4,stim/64.jpeg,HouseObjects,1,stim/objects/HouseObjects/clothespin2.png,0.9,4,0.2,-0.15,left,80,2020-12-09_14h02.41.351,premup-three_ses-02_part-02_label-phase2,3.2.4,Win32,60,,,,,,,,,,,,,,,,,,,,,,,,,,,,,
right,0.679000139,1,31,1,0,1,0,1,0,1,0,240,23,1,239,1,1,4,stim/14.jpeg,Instruments,2,stim/objects/Instruments/banjo.png,0.5,1,-0.2,0.15,right,80,2020-12-09_14h02.41.351,premup-three_ses-02_part-02_label-phase2,3.2.4,Win32,60,,,,,,,,,,,,,,,,,,,,,,,,,,,,,
right,0.508999825,1,32,1,0,1,0,1,0,1,0,240,93,1,239,2,3,2,stim/32.jpeg,Instruments,2,stim/objects/Instruments/cornet.png,0.7,1,-0.2,0.15,right,80,2020-12-09_14h02.41.351,premup-three_ses-02_part-02_label-phase2,3.2.4,Win32,60,,,,,,,,,,,,,,,,,,,,,,,,,,,,,
right,0.585999966,0,33,1,0,1,0,1,0,1,0,240,162,1,239,3,5,3,stim/53.jpeg,HouseObjects,1,stim/objects/HouseObjects/bottle2.png,0.1,2,0.2,0.15,left,80,2020-12-09_14h02.41.351,premup-three_ses-02_part-02_label-phase2,3.2.4,Win32,60,,,,,,,,,,,,,,,,,,,,,,,,,,,,,
right,0.639999866,0,34,1,0,1,0,1,0,1,0,240,7,1,239,1,1,4,stim/14.jpeg,HouseObjects,1,stim/objects/HouseObjects/basket.png,0.5,4,0.2,-0.15,left,80,2020-12-09_14h02.41.351,premup-three_ses-02_part-02_label-phase2,3.2.4,Win32,60,,,,,,,,,,,,,,,,,,,,,,,,,,,,,
right,0.434999943,1,35,1,0,1,0,1,0,1,0,240,182,1,239,3,5,3,stim/53.jpeg,Instruments,2,stim/objects/Instruments/cello2.png,0.9,2,0.2,0.15,right,80,2020-12-09_14h02.41.351,premup-three_ses-02_part-02_label-phase2,3.2.4,Win32,60,,,,,,,,,,,,,,,,,,,,,,,,,,,,,
left,0.679999828,0,36,1,0,1,0,1,0,1,0,240,60,1,239,1,2,1,stim/21.jpeg,Instruments,2,stim/objects/Instruments/bassdrum.png,0.5,2,0.2,0.15,right,80,2020-12-09_14h02.41.351,premup-three_ses-02_part-02_label-phase2,3.2.4,Win32,60,,,,,,,,,,,,,,,,,,,,,,,,,,,,,
left,0.489000082,1,37,1,0,1,0,1,0,1,0,240,54,1,239,1,2,3,stim/23.jpeg,HouseObjects,1,stim/objects/HouseObjects/bottle.png,0.5,2,0.2,0.15,left,80,2020-12-09_14h02.41.351,premup-three_ses-02_part-02_label-phase2,3.2.4,Win32,60,,,,,,,,,,,,,,,,,,,,,,,,,,,,,
right,0.72300005,1,38,1,0,1,0,1,0,1,0,240,30,1,239,1,1,3,stim/13.jpeg,Instruments,2,stim/objects/Instruments/balalaika.png,0.5,2,0.2,0.15,right,80,2020-12-09_14h02.41.351,premup-three_ses-02_part-02_label-phase2,3.2.4,Win32,60,,,,,,,,,,,,,,,,,,,,,,,,,,,,,
right,0.531999826,1,39,1,0,1,0,1,0,1,0,240,196,1,239,3,5,1,stim/51.jpeg,Instruments,2,stim/objects/Instruments/bassdrum2.png,0.9,3,-0.2,-0.15,right,80,2020-12-09_14h02.41.351,premup-three_ses-02_part-02_label-phase2,3.2.4,Win32,60,,,,,,,,,,,,,,,,,,,,,,,,,,,,,
left,0.514999866,1,40,1,0,1,0,1,0,1,0,240,212,1,239,3,6,1,stim/61.jpeg,HouseObjects,1,stim/objects/HouseObjects/bucket2.png,0.9,2,0.2,0.15,left,80,2020-12-09_14h02.41.351,premup-three_ses-02_part-02_label-phase2,3.2.4,Win32,60,,,,,,,,,,,,,,,,,,,,,,,,,,,,,
left,0.389999866,1,41,1,0,1,0,1,0,1,0,240,59,1,239,1,2,4,stim/24.jpeg,HouseObjects,1,stim/objects/HouseObjects/broom.png,0.5,2,0.2,0.15,left,80,2020-12-09_14h02.41.351,premup-three_ses-02_part-02_label-phase2,3.2.4,Win32,60,,,,,,,,,,,,,,,,,,,,,,,,,,,,,
left,0.671000004,1,42,1,0,1,0,1,0,1,0,240,224,1,239,3,6,1,stim/61.jpeg,HouseObjects,1,stim/objects/HouseObjects/bucket2.png,0.9,2,0.2,0.15,left,80,2020-12-09_14h02.41.351,premup-three_ses-02_part-02_label-phase2,3.2.4,Win32,60,,,,,,,,,,,,,,,,,,,,,,,,,,,,,
left,0.653000116,0,43,1,0,1,0,1,0,1,0,240,69,1,239,1,2,2,stim/22.jpeg,Instruments,2,stim/objects/Instruments/bassguitar.png,0.5,1,-0.2,0.15,right,80,2020-12-09_14h02.41.351,premup-three_ses-02_part-02_label-phase2,3.2.4,Win32,60,,,,,,,,,,,,,,,,,,,,,,,,,,,,,
,,0,44,1,0,1,0,1,0,1,0,240,25,1,239,1,1,2,stim/12.jpeg,Instruments,2,stim/objects/Instruments/acousticguitar.png,0.5,2,0.2,0.15,right,80,2020-12-09_14h02.41.351,premup-three_ses-02_part-02_label-phase2,3.2.4,Win32,60,,,,,,,,,,,,,,,,,,,,,,,,,,,,,
right,0.471999884,1,45,1,0,1,0,1,0,1,0,240,179,1,239,3,5,4,stim/54.jpeg,Instruments,2,stim/objects/Instruments/chime2.png,0.9,4,0.2,-0.15,right,80,2020-12-09_14h02.41.351,premup-three_ses-02_part-02_label-phase2,3.2.4,Win32,60,,,,,,,,,,,,,,,,,,,,,,,,,,,,,
left,0.572000027,1,46,1,0,1,0,1,0,1,0,240,203,1,239,3,6,4,stim/64.jpeg,HouseObjects,1,stim/objects/HouseObjects/clothespin2.png,0.9,4,0.2,-0.15,left,80,2020-12-09_14h02.41.351,premup-three_ses-02_part-02_label-phase2,3.2.4,Win32,60,,,,,,,,,,,,,,,,,,,,,,,,,,,,,
right,0.462999821,1,47,1,0,1,0,1,0,1,0,240,171,1,239,3,5,4,stim/54.jpeg,Instruments,2,stim/objects/Instruments/chime2.png,0.9,2,0.2,0.15,right,80,2020-12-09_14h02.41.351,premup-three_ses-02_part-02_label-phase2,3.2.4,Win32,60,,,,,,,,,,,,,,,,,,,,,,,,,,,,,
left,0.463000059,0,48,1,0,1,0,1,0,1,0,240,112,1,239,2,3,1,stim/31.jpeg,Instruments,2,stim/objects/Instruments/clarinet.png,0.7,3,-0.2,-0.15,right,80,2020-12-09_14h02.41.351,premup-three_ses-02_part-02_label-phase2,3.2.4,Win32,60,,,,,,,,,,,,,,,,,,,,,,,,,,,,,
left,0.599999905,1,49,1,0,1,0,1,0,1,0,240,52,1,239,1,2,1,stim/21.jpeg,HouseObjects,1,stim/objects/HouseObjects/bleachbottle.png,0.5,1,-0.2,0.15,left,80,2020-12-09_14h02.41.351,premup-three_ses-02_part-02_label-phase2,3.2.4,Win32,60,,,,,,,,,,,,,,,,,,,,,,,,,,,,,
left,0.588999987,1,50,1,0,1,0,1,0,1,0,240,232,1,239,3,6,1,stim/61.jpeg,HouseObjects,1,stim/objects/HouseObjects/bucket2.png,0.9,4,0.2,-0.15,left,80,2020-12-09_14h02.41.351,premup-three_ses-02_part-02_label-phase2,3.2.4,Win32,60,,,,,,,,,,,,,,,,,,,,,,,,,,,,,
right,0.611000061,1,51,1,0,1,0,1,0,1,0,240,106,1,239,2,3,3,stim/33.jpeg,Instruments,2,stim/objects/Instruments/cymbal.png,0.7,2,0.2,0.15,right,80,2020-12-09_14h02.41.351,premup-three_ses-02_part-02_label-phase2,3.2.4,Win32,60,,,,,,,,,,,,,,,,,,,,,,,,,,,,,
left,0.565000057,0,52,1,0,1,0,1,0,1,0,240,150,1,239,2,4,3,stim/43.jpeg,Instruments,2,stim/objects/Instruments/balalaika2.png,0.3,3,-0.2,-0.15,right,80,2020-12-09_14h02.41.351,premup-three_ses-02_part-02_label-phase2,3.2.4,Win32,60,,,,,,,,,,,,,,,,,,,,,,,,,,,,,
right,0.712999821,0,53,1,0,1,0,1,0,1,0,240,161,1,239,3,5,2,stim/52.jpeg,HouseObjects,1,stim/objects/HouseObjects/blender2.png,0.1,3,-0.2,-0.15,left,80,2020-12-09_14h02.41.351,premup-three_ses-02_part-02_label-phase2,3.2.4,Win32,60,,,,,,,,,,,,,,,,,,,,,,,,,,,,,
left,0.529000044,0,54,1,0,1,0,1,0,1,0,240,238,1,239,3,6,3,stim/63.jpeg,Instruments,2,stim/objects/Instruments/cymbal2.png,0.1,4,0.2,-0.15,right,80,2020-12-09_14h02.41.351,premup-three_ses-02_part-02_label-phase2,3.2.4,Win32,60,,,,,,,,,,,,,,,,,,,,,,,,,,,,,
,,0,55,1,0,1,0,1,0,1,0,240,73,1,239,1,2,2,stim/22.jpeg,Instruments,2,stim/objects/Instruments/bassguitar.png,0.5,2,0.2,0.15,right,80,2020-12-09_14h02.41.351,premup-three_ses-02_part-02_label-phase2,3.2.4,Win32,60,,,,,,,,,,,,,,,,,,,,,,,,,,,,,
right,0.532000065,1,56,1,0,1,0,1,0,1,0,240,31,1,239,1,1,4,stim/14.jpeg,Instruments,2,stim/objects/Instruments/banjo.png,0.5,3,-0.2,-0.15,right,80,2020-12-09_14h02.41.351,premup-three_ses-02_part-02_label-phase2,3.2.4,Win32,60,,,,,,,,,,,,,,,,,,,,,,,,,,,,,
,,0,57,1,0,1,0,1,0,1,0,240,72,1,239,1,2,1,stim/21.jpeg,Instruments,2,stim/objects/Instruments/bassdrum.png,0.5,2,0.2,0.15,right,80,2020-12-09_14h02.41.351,premup-three_ses-02_part-02_label-phase2,3.2.4,Win32,60,,,,,,,,,,,,,,,,,,,,,,,,,,,,,
right,0.734999895,1,58,1,0,1,0,1,0,1,0,240,65,1,239,1,2,2,stim/22.jpeg,Instruments,2,stim/objects/Instruments/bassguitar.png,0.5,1,-0.2,0.15,right,80,2020-12-09_14h02.41.351,premup-three_ses-02_part-02_label-phase2,3.2.4,Win32,60,,,,,,,,,,,,,,,,,,,,,,,,,,,,,
left,0.558000088,1,59,1,0,1,0,1,0,1,0,240,123,1,239,2,4,4,stim/44.jpeg,HouseObjects,1,stim/objects/HouseObjects/basket2.png,0.7,1,-0.2,0.15,left,80,2020-12-09_14h02.41.351,premup-three_ses-02_part-02_label-phase2,3.2.4,Win32,60,,,,,,,,,,,,,,,,,,,,,,,,,,,,,
left,0.536999941,0,60,1,0,1,0,1,0,1,0,240,68,1,239,1,2,1,stim/21.jpeg,Instruments,2,stim/objects/Instruments/bassdrum.png,0.5,4,0.2,-0.15,right,80,2020-12-09_14h02.41.351,premup-three_ses-02_part-02_label-phase2,3.2.4,Win32,60,,,,,,,,,,,,,,,,,,,,,,,,,,,,,
left,0.573999882,0,61,1,0,1,0,1,0,1,0,240,149,1,239,2,4,2,stim/42.jpeg,Instruments,2,stim/objects/Instruments/acousticguitar2.png,0.3,4,0.2,-0.15,right,80,2020-12-09_14h02.41.351,premup-three_ses-02_part-02_label-phase2,3.2.4,Win32,60,,,,,,,,,,,,,,,,,,,,,,,,,,,,,
right,0.681999922,1,62,1,0,1,0,1,0,1,0,240,181,1,239,3,5,2,stim/52.jpeg,Instruments,2,stim/objects/Instruments/bassguitar2.png,0.9,1,-0.2,0.15,right,80,2020-12-09_14h02.41.351,premup-three_ses-02_part-02_label-phase2,3.2.4,Win32,60,,,,,,,,,,,,,,,,,,,,,,,,,,,,,
left,0.448000193,1,63,1,0,1,0,1,0,1,0,240,56,1,239,1,2,1,stim/21.jpeg,HouseObjects,1,stim/objects/HouseObjects/bleachbottle.png,0.5,3,-0.2,-0.15,left,80,2020-12-09_14h02.41.351,premup-three_ses-02_part-02_label-phase2,3.2.4,Win32,60,,,,,,,,,,,,,,,,,,,,,,,,,,,,,
left,0.382999897,1,64,1,0,1,0,1,0,1,0,240,44,1,239,1,2,1,stim/21.jpeg,HouseObjects,1,stim/objects/HouseObjects/bleachbottle.png,0.5,1,-0.2,0.15,left,80,2020-12-09_14h02.41.351,premup-three_ses-02_part-02_label-phase2,3.2.4,Win32,60,,,,,,,,,,,,,,,,,,,,,,,,,,,,,
right,0.602999926,0,65,1,0,1,0,1,0,1,0,240,9,1,239,1,1,2,stim/12.jpeg,HouseObjects,1,stim/objects/HouseObjects/ballofstring.png,0.5,3,-0.2,-0.15,left,80,2020-12-09_14h02.41.351,premup-three_ses-02_part-02_label-phase2,3.2.4,Win32,60,,,,,,,,,,,,,,,,,,,,,,,,,,,,,
left,0.554000139,1,66,1,0,1,0,1,0,1,0,240,42,1,239,1,2,3,stim/23.jpeg,HouseObjects,1,stim/objects/HouseObjects/bottle.png,0.5,1,-0.2,0.15,left,80,2020-12-09_14h02.41.351,premup-three_ses-02_part-02_label-phase2,3.2.4,Win32,60,,,,,,,,,,,,,,,,,,,,,,,,,,,,,
right,0.434000015,0,67,1,0,1,0,1,0,1,0,240,51,1,239,1,2,4,stim/24.jpeg,HouseObjects,1,stim/objects/HouseObjects/broom.png,0.5,4,0.2,-0.15,left,80,2020-12-09_14h02.41.351,premup-three_ses-02_part-02_label-phase2,3.2.4,Win32,60,,,,,,,,,,,,,,,,,,,,,,,,,,,,,
right,0.63499999,0,68,1,0,1,0,1,0,1,0,240,1,1,239,1,1,2,stim/12.jpeg,HouseObjects,1,stim/objects/HouseObjects/ballofstring.png,0.5,2,0.2,0.15,left,80,2020-12-09_14h02.41.351,premup-three_ses-02_part-02_label-phase2,3.2.4,Win32,60,,,,,,,,,,,,,,,,,,,,,,,,,,,,,
left,0.536999941,1,69,1,0,1,0,1,0,1,0,240,49,1,239,1,2,2,stim/22.jpeg,HouseObjects,1,stim/objects/HouseObjects/blender.png,0.5,2,0.2,0.15,left,80,2020-12-09_14h02.41.351,premup-three_ses-02_part-02_label-phase2,3.2.4,Win32,60,,,,,,,,,,,,,,,,,,,,,,,,,,,,,
right,0.767999887,1,70,1,0,1,0,1,0,1,0,240,109,1,239,2,3,2,stim/32.jpeg,Instruments,2,stim/objects/Instruments/cornet.png,0.7,1,-0.2,0.15,right,80,2020-12-09_14h02.41.351,premup-three_ses-02_part-02_label-phase2,3.2.4,Win32,60,,,,,,,,,,,,,,,,,,,,,,,,,,,,,
left,0.578999996,0,71,1,0,1,0,1,0,1,0,240,61,1,239,1,2,2,stim/22.jpeg,Instruments,2,stim/objects/Instruments/bassguitar.png,0.5,1,-0.2,0.15,right,80,2020-12-09_14h02.41.351,premup-three_ses-02_part-02_label-phase2,3.2.4,Win32,60,,,,,,,,,,,,,,,,,,,,,,,,,,,,,
left,0.628000021,0,72,1,0,1,0,1,0,1,0,240,155,1,239,2,4,4,stim/44.jpeg,Instruments,2,stim/objects/Instruments/banjo2.png,0.3,3,-0.2,-0.15,right,80,2020-12-09_14h02.41.351,premup-three_ses-02_part-02_label-phase2,3.2.4,Win32,60,,,,,,,,,,,,,,,,,,,,,,,,,,,,,
left,0.488000154,1,73,1,0,1,0,1,0,1,0,240,120,1,239,2,4,1,stim/41.jpeg,HouseObjects,1,stim/objects/HouseObjects/ashtray2.png,0.7,2,0.2,0.15,left,80,2020-12-09_14h02.41.351,premup-three_ses-02_part-02_label-phase2,3.2.4,Win32,60,,,,,,,,,,,,,,,,,,,,,,,,,,,,,
right,0.636999846,1,74,1,0,1,0,1,0,1,0,240,92,1,239,2,3,1,stim/31.jpeg,Instruments,2,stim/objects/Instruments/clarinet.png,0.7,1,-0.2,0.15,right,80,2020-12-09_14h02.41.351,premup-three_ses-02_part-02_label-phase2,3.2.4,Win32,60,,,,,,,,,,,,,,,,,,,,,,,,,,,,,
right,0.904999971,0,75,1,0,1,0,1,0,1,0,240,90,1,239,2,3,3,stim/33.jpeg,HouseObjects,1,stim/objects/HouseObjects/clothesdryingrack.png,0.3,3,-0.2,-0.15,left,80,2020-12-09_14h02.41.351,premup-three_ses-02_part-02_label-phase2,3.2.4,Win32,60,,,,,,,,,,,,,,,,,,,,,,,,,,,,,
,,0,76,1,0,1,0,1,0,1,0,240,118,1,239,2,3,3,stim/33.jpeg,Instruments,2,stim/objects/Instruments/cymbal.png,0.7,1,-0.2,0.15,right,80,2020-12-09_14h02.41.351,premup-three_ses-02_part-02_label-phase2,3.2.4,Win32,60,,,,,,,,,,,,,,,,,,,,,,,,,,,,,
right,0.855999947,0,77,1,0,1,0,1,0,1,0,240,45,1,239,1,2,2,stim/22.jpeg,HouseObjects,1,stim/objects/HouseObjects/blender.png,0.5,2,0.2,0.15,left,80,2020-12-09_14h02.41.351,premup-three_ses-02_part-02_label-phase2,3.2.4,Win32,60,,,,,,,,,,,,,,,,,,,,,,,,,,,,,
right,0.774999857,1,78,1,0,1,0,1,0,1,0,240,28,1,239,1,1,1,stim/11.jpeg,Instruments,2,stim/objects/Instruments/accordion.png,0.5,3,-0.2,-0.15,right,80,2020-12-09_14h02.41.351,premup-three_ses-02_part-02_label-phase2,3.2.4,Win32,60,,,,,,,,,,,,,,,,,,,,,,,,,,,,,
,,0,79,1,0,1,0,1,0,1,0,240,81,1,239,2,3,2,stim/32.jpeg,HouseObjects,1,stim/objects/HouseObjects/clock.png,0.3,2,0.2,0.15,left,80,2020-12-09_14h02.41.351,premup-three_ses-02_part-02_label-phase2,3.2.4,Win32,60,,,,,,,,,,,,,,,,,,,,,,,,,,,,,
,,0,80,1,0,1,0,1,0,1,0,240,100,1,239,2,3,1,stim/31.jpeg,Instruments,2,stim/objects/Instruments/clarinet.png,0.7,1,-0.2,0.15,right,80,2020-12-09_14h02.41.351,premup-three_ses-02_part-02_label-phase2,3.2.4,Win32,60,,,,,,,,,,,,,,,,,,,,,,,,,,,,,
left,0.434000015,0,81,1,0,1,0,1,0,1,0,240,185,1,239,3,5,2,stim/52.jpeg,Instruments,2,stim/objects/Instruments/bassguitar2.png,0.9,3,-0.2,-0.15,right,80,2020-12-09_14h02.41.351,premup-three_ses-02_part-02_label-phase2,3.2.4,Win32,60,,,,,,,,,,,,,,,,,,,,,,,,,,,,,
right,0.597999811,1,82,1,0,1,0,1,0,1,0,240,192,1,239,3,5,1,stim/51.jpeg,Instruments,2,stim/objects/Instruments/bassdrum2.png,0.9,3,-0.2,-0.15,right,80,2020-12-09_14h02.41.351,premup-three_ses-02_part-02_label-phase2,3.2.4,Win32,60,,,,,,,,,,,,,,,,,,,,,,,,,,,,,
right,0.835999966,1,83,1,0,1,0,1,0,1,0,240,20,1,239,1,1,1,stim/11.jpeg,Instruments,2,stim/objects/Instruments/accordion.png,0.5,3,-0.2,-0.15,right,80,2020-12-09_14h02.41.351,premup-three_ses-02_part-02_label-phase2,3.2.4,Win32,60,,,,,,,,,,,,,,,,,,,,,,,,,,,,,
left,0.635999918,0,84,1,0,1,0,1,0,1,0,240,152,1,239,2,4,1,stim/41.jpeg,Instruments,2,stim/objects/Instruments/accordion2.png,0.3,3,-0.2,-0.15,right,80,2020-12-09_14h02.41.351,premup-three_ses-02_part-02_label-phase2,3.2.4,Win32,60,,,,,,,,,,,,,,,,,,,,,,,,,,,,,
left,0.700000048,1,85,1,0,1,0,1,0,1,0,240,210,1,239,3,6,3,stim/63.jpeg,HouseObjects,1,stim/objects/HouseObjects/clothesdryingrack2.png,0.9,4,0.2,-0.15,left,80,2020-12-09_14h02.41.351,premup-three_ses-02_part-02_label-phase2,3.2.4,Win32,60,,,,,,,,,,,,,,,,,,,,,,,,,,,,,
left,0.486999989,1,86,1,0,1,0,1,0,1,0,240,223,1,239,3,6,4,stim/64.jpeg,HouseObjects,1,stim/objects/HouseObjects/clothespin2.png,0.9,2,0.2,0.15,left,80,2020-12-09_14h02.41.351,premup-three_ses-02_part-02_label-phase2,3.2.4,Win32,60,,,,,,,,,,,,,,,,,,,,,,,,,,,,,
left,0.551000118,1,87,1,0,1,0,1,0,1,0,240,214,1,239,3,6,3,stim/63.jpeg,HouseObjects,1,stim/objects/HouseObjects/clothesdryingrack2.png,0.9,4,0.2,-0.15,left,80,2020-12-09_14h02.41.351,premup-three_ses-02_part-02_label-phase2,3.2.4,Win32,60,,,,,,,,,,,,,,,,,,,,,,,,,,,,,
right,0.620000124,1,88,1,0,1,0,1,0,1,0,240,37,1,239,1,1,2,stim/12.jpeg,Instruments,2,stim/objects/Instruments/acousticguitar.png,0.5,4,0.2,-0.15,right,80,2020-12-09_14h02.41.351,premup-three_ses-02_part-02_label-phase2,3.2.4,Win32,60,,,,,,,,,,,,,,,,,,,,,,,,,,,,,
,,0,89,1,0,1,0,1,0,1,0,240,57,1,239,1,2,2,stim/22.jpeg,HouseObjects,1,stim/objects/HouseObjects/blender.png,0.5,3,-0.2,-0.15,left,80,2020-12-09_14h02.41.351,premup-three_ses-02_part-02_label-phase2,3.2.4,Win32,60,,,,,,,,,,,,,,,,,,,,,,,,,,,,,
right,0.654999971,0,90,1,0,1,0,1,0,1,0,240,3,1,239,1,1,4,stim/14.jpeg,HouseObjects,1,stim/objects/HouseObjects/basket.png,0.5,4,0.2,-0.15,left,80,2020-12-09_14h02.41.351,premup-three_ses-02_part-02_label-phase2,3.2.4,Win32,60,,,,,,,,,,,,,,,,,,,,,,,,,,,,,
left,0.786000013,1,91,1,0,1,0,1,0,1,0,240,127,1,239,2,4,4,stim/44.jpeg,HouseObjects,1,stim/objects/HouseObjects/basket2.png,0.7,3,-0.2,-0.15,left,80,2020-12-09_14h02.41.351,premup-three_ses-02_part-02_label-phase2,3.2.4,Win32,60,,,,,,,,,,,,,,,,,,,,,,,,,,,,,
left,0.520999908,1,92,1,0,1,0,1,0,1,0,240,141,1,239,2,4,2,stim/42.jpeg,HouseObjects,1,stim/objects/HouseObjects/ballofstring2.png,0.7,4,0.2,-0.15,left,80,2020-12-09_14h02.41.351,premup-three_ses-02_part-02_label-phase2,3.2.4,Win32,60,,,,,,,,,,,,,,,,,,,,,,,,,,,,,
right,0.701999903,1,93,1,0,1,0,1,0,1,0,240,194,1,239,3,5,3,stim/53.jpeg,Instruments,2,stim/objects/Instruments/cello2.png,0.9,4,0.2,-0.15,right,80,2020-12-09_14h02.41.351,premup-three_ses-02_part-02_label-phase2,3.2.4,Win32,60,,,,,,,,,,,,,,,,,,,,,,,,,,,,,
right,0.561000109,1,94,1,0,1,0,1,0,1,0,240,165,1,239,3,5,2,stim/52.jpeg,Instruments,2,stim/objects/Instruments/bassguitar2.png,0.9,4,0.2,-0.15,right,80,2020-12-09_14h02.41.351,premup-three_ses-02_part-02_label-phase2,3.2.4,Win32,60,,,,,,,,,,,,,,,,,,,,,,,,,,,,,
left,0.592999935,1,95,1,0,1,0,1,0,1,0,240,201,1,239,3,6,2,stim/62.jpeg,HouseObjects,1,stim/objects/HouseObjects/clock2.png,0.9,4,0.2,-0.15,left,80,2020-12-09_14h02.41.351,premup-three_ses-02_part-02_label-phase2,3.2.4,Win32,60,,,,,,,,,,,,,,,,,,,,,,,,,,,,,
left,0.763000011,0,96,1,0,1,0,1,0,1,0,240,76,1,239,1,2,1,stim/21.jpeg,Instruments,2,stim/objects/Instruments/bassdrum.png,0.5,1,-0.2,0.15,right,80,2020-12-09_14h02.41.351,premup-three_ses-02_part-02_label-phase2,3.2.4,Win32,60,,,,,,,,,,,,,,,,,,,,,,,,,,,,,
right,0.496000051,0,97,1,0,1,0,1,0,1,0,240,41,1,239,1,2,2,stim/22.jpeg,HouseObjects,1,stim/objects/HouseObjects/blender.png,0.5,3,-0.2,-0.15,left,80,2020-12-09_14h02.41.351,premup-three_ses-02_part-02_label-phase2,3.2.4,Win32,60,,,,,,,,,,,,,,,,,,,,,,,,,,,,,
left,0.57799983,1,98,1,0,1,0,1,0,1,0,240,208,1,239,3,6,1,stim/61.jpeg,HouseObjects,1,stim/objects/HouseObjects/bucket2.png,0.9,2,0.2,0.15,left,80,2020-12-09_14h02.41.351,premup-three_ses-02_part-02_label-phase2,3.2.4,Win32,60,,,,,,,,,,,,,,,,,,,,,,,,,,,,,
left,0.55099988,0,99,1,0,1,0,1,0,1,0,240,36,1,239,1,1,1,stim/11.jpeg,Instruments,2,stim/objects/Instruments/accordion.png,0.5,3,-0.2,-0.15,right,80,2020-12-09_14h02.41.351,premup-three_ses-02_part-02_label-phase2,3.2.4,Win32,60,,,,,,,,,,,,,,,,,,,,,,,,,,,,,
left,0.692000151,1,100,1,0,1,0,1,0,1,0,240,83,1,239,2,3,4,stim/34.jpeg,HouseObjects,1,stim/objects/HouseObjects/clothespin.png,0.3,1,-0.2,0.15,left,80,2020-12-09_14h02.41.351,premup-three_ses-02_part-02_label-phase2,3.2.4,Win32,60,,,,,,,,,,,,,,,,,,,,,,,,,,,,,
right,0.523000002,1,101,1,0,1,0,1,0,1,0,240,184,1,239,3,5,1,stim/51.jpeg,Instruments,2,stim/objects/Instruments/bassdrum2.png,0.9,1,-0.2,0.15,right,80,2020-12-09_14h02.41.351,premup-three_ses-02_part-02_label-phase2,3.2.4,Win32,60,,,,,,,,,,,,,,,,,,,,,,,,,,,,,
right,0.779999971,0,102,1,0,1,0,1,0,1,0,240,11,1,239,1,1,4,stim/14.jpeg,HouseObjects,1,stim/objects/HouseObjects/basket.png,0.5,3,-0.2,-0.15,left,80,2020-12-09_14h02.41.351,premup-three_ses-02_part-02_label-phase2,3.2.4,Win32,60,,,,,,,,,,,,,,,,,,,,,,,,,,,,,
right,0.787000179,0,103,1,0,1,0,1,0,1,0,240,6,1,239,1,1,3,stim/13.jpeg,HouseObjects,1,stim/objects/HouseObjects/barbecuelighter.png,0.5,1,-0.2,0.15,left,80,2020-12-09_14h02.41.351,premup-three_ses-02_part-02_label-phase2,3.2.4,Win32,60,,,,,,,,,,,,,,,,,,,,,,,,,,,,,
right,0.842999935,0,104,1,0,1,0,1,0,1,0,240,133,1,239,2,4,2,stim/42.jpeg,HouseObjects,1,stim/objects/HouseObjects/ballofstring2.png,0.7,2,0.2,0.15,left,80,2020-12-09_14h02.41.351,premup-three_ses-02_part-02_label-phase2,3.2.4,Win32,60,,,,,,,,,,,,,,,,,,,,,,,,,,,,,
left,0.81099987,1,105,1,0,1,0,1,0,1,0,240,85,1,239,2,3,2,stim/32.jpeg,HouseObjects,1,stim/objects/HouseObjects/clock.png,0.3,3,-0.2,-0.15,left,80,2020-12-09_14h02.41.351,premup-three_ses-02_part-02_label-phase2,3.2.4,Win32,60,,,,,,,,,,,,,,,,,,,,,,,,,,,,,
left,0.572999954,1,106,1,0,1,0,1,0,1,0,240,220,1,239,3,6,1,stim/61.jpeg,HouseObjects,1,stim/objects/HouseObjects/bucket2.png,0.9,3,-0.2,-0.15,left,80,2020-12-09_14h02.41.351,premup-three_ses-02_part-02_label-phase2,3.2.4,Win32,60,,,,,,,,,,,,,,,,,,,,,,,,,,,,,
left,0.459000111,1,107,1,0,1,0,1,0,1,0,240,228,1,239,3,6,1,stim/61.jpeg,HouseObjects,1,stim/objects/HouseObjects/bucket2.png,0.9,3,-0.2,-0.15,left,80,2020-12-09_14h02.41.351,premup-three_ses-02_part-02_label-phase2,3.2.4,Win32,60,,,,,,,,,,,,,,,,,,,,,,,,,,,,,
right,0.844000101,0,108,1,0,1,0,1,0,1,0,240,89,1,239,2,3,2,stim/32.jpeg,HouseObjects,1,stim/objects/HouseObjects/clock.png,0.3,4,0.2,-0.15,left,80,2020-12-09_14h02.41.351,premup-three_ses-02_part-02_label-phase2,3.2.4,Win32,60,,,,,,,,,,,,,,,,,,,,,,,,,,,,,
,,0,109,1,0,1,0,1,0,1,0,240,78,1,239,1,2,3,stim/23.jpeg,Instruments,2,stim/objects/Instruments/cello.png,0.5,2,0.2,0.15,right,80,2020-12-09_14h02.41.351,premup-three_ses-02_part-02_label-phase2,3.2.4,Win32,60,,,,,,,,,,,,,,,,,,,,,,,,,,,,,
left,0.559000015,1,110,1,0,1,0,1,0,1,0,240,235,1,239,3,6,4,stim/64.jpeg,HouseObjects,1,stim/objects/HouseObjects/clothespin2.png,0.9,1,-0.2,0.15,left,80,2020-12-09_14h02.41.351,premup-three_ses-02_part-02_label-phase2,3.2.4,Win32,60,,,,,,,,,,,,,,,,,,,,,,,,,,,,,
left,0.567000151,0,111,1,0,1,0,1,0,1,0,240,236,1,239,3,6,1,stim/61.jpeg,Instruments,2,stim/objects/Instruments/clarinet2.png,0.1,4,0.2,-0.15,right,80,2020-12-09_14h02.41.351,premup-three_ses-02_part-02_label-phase2,3.2.4,Win32,60,,,,,,,,,,,,,,,,,,,,,,,,,,,,,
left,0.725000143,0,112,1,0,1,0,1,0,1,0,240,116,1,239,2,3,1,stim/31.jpeg,Instruments,2,stim/objects/Instruments/clarinet.png,0.7,3,-0.2,-0.15,right,80,2020-12-09_14h02.41.351,premup-three_ses-02_part-02_label-phase2,3.2.4,Win32,60,,,,,,,,,,,,,,,,,,,,,,,,,,,,,
left,0.606999874,1,113,1,0,1,0,1,0,1,0,240,218,1,239,3,6,3,stim/63.jpeg,HouseObjects,1,stim/objects/HouseObjects/clothesdryingrack2.png,0.9,2,0.2,0.15,left,80,2020-12-09_14h02.41.351,premup-three_ses-02_part-02_label-phase2,3.2.4,Win32,60,,,,,,,,,,,,,,,,,,,,,,,,,,,,,
right,0.539999962,1,114,1,0,1,0,1,0,1,0,240,176,1,239,3,5,1,stim/51.jpeg,Instruments,2,stim/objects/Instruments/bassdrum2.png,0.9,4,0.2,-0.15,right,80,2020-12-09_14h02.41.351,premup-three_ses-02_part-02_label-phase2,3.2.4,Win32,60,,,,,,,,,,,,,,,,,,,,,,,,,,,,,
left,0.671000004,1,115,1,0,1,0,1,0,1,0,240,50,1,239,1,2,3,stim/23.jpeg,HouseObjects,1,stim/objects/HouseObjects/bottle.png,0.5,3,-0.2,-0.15,left,80,2020-12-09_14h02.41.351,premup-three_ses-02_part-02_label-phase2,3.2.4,Win32,60,,,,,,,,,,,,,,,,,,,,,,,,,,,,,
right,0.773000002,1,116,1,0,1,0,1,0,1,0,240,190,1,239,3,5,3,stim/53.jpeg,Instruments,2,stim/objects/Instruments/cello2.png,0.9,1,-0.2,0.15,right,80,2020-12-09_14h02.41.351,premup-three_ses-02_part-02_label-phase2,3.2.4,Win32,60,,,,,,,,,,,,,,,,,,,,,,,,,,,,,
left,0.531999826,1,117,1,0,1,0,1,0,1,0,240,205,1,239,3,6,2,stim/62.jpeg,HouseObjects,1,stim/objects/HouseObjects/clock2.png,0.9,3,-0.2,-0.15,left,80,2020-12-09_14h02.41.351,premup-three_ses-02_part-02_label-phase2,3.2.4,Win32,60,,,,,,,,,,,,,,,,,,,,,,,,,,,,,
left,0.757999897,0,118,1,0,1,0,1,0,1,0,240,156,1,239,2,4,1,stim/41.jpeg,Instruments,2,stim/objects/Instruments/accordion2.png,0.3,1,-0.2,0.15,right,80,2020-12-09_14h02.41.351,premup-three_ses-02_part-02_label-phase2,3.2.4,Win32,60,,,,,,,,,,,,,,,,,,,,,,,,,,,,,
right,0.919999838,0,119,1,0,1,0,1,0,1,0,240,84,1,239,2,3,1,stim/31.jpeg,HouseObjects,1,stim/objects/HouseObjects/bucket.png,0.3,2,0.2,0.15,left,80,2020-12-09_14h02.41.351,premup-three_ses-02_part-02_label-phase2,3.2.4,Win32,60,,,,,,,,,,,,,,,,,,,,,,,,,,,,,
left,0.569000006,1,120,1,0,1,0,1,0,1,0,240,233,1,239,3,6,2,stim/62.jpeg,HouseObjects,1,stim/objects/HouseObjects/clock2.png,0.9,1,-0.2,0.15,left,80,2020-12-09_14h02.41.351,premup-three_ses-02_part-02_label-phase2,3.2.4,Win32,60,,,,,,,,,,,,,,,,,,,,,,,,,,,,,
left,0.652999878,1,121,1,0,1,0,1,0,1,0,240,143,1,239,2,4,4,stim/44.jpeg,HouseObjects,1,stim/objects/HouseObjects/basket2.png,0.7,1,-0.2,0.15,left,80,2020-12-09_14h02.41.351,premup-three_ses-02_part-02_label-phase2,3.2.4,Win32,60,,,,,,,,,,,,,,,,,,,,,,,,,,,,,
left,0.505000114,1,122,1,0,1,0,1,0,1,0,240,138,1,239,2,4,3,stim/43.jpeg,HouseObjects,1,stim/objects/HouseObjects/barbecuelighter2.png,0.7,2,0.2,0.15,left,80,2020-12-09_14h02.41.351,premup-three_ses-02_part-02_label-phase2,3.2.4,Win32,60,,,,,,,,,,,,,,,,,,,,,,,,,,,,,
left,0.595000029,1,123,1,0,1,0,1,0,1,0,240,234,1,239,3,6,3,stim/63.jpeg,HouseObjects,1,stim/objects/HouseObjects/clothesdryingrack2.png,0.9,4,0.2,-0.15,left,80,2020-12-09_14h02.41.351,premup-three_ses-02_part-02_label-phase2,3.2.4,Win32,60,,,,,,,,,,,,,,,,,,,,,,,,,,,,,
right,0.67599988,1,124,1,0,1,0,1,0,1,0,240,197,1,239,3,5,2,stim/52.jpeg,Instruments,2,stim/objects/Instruments/bassguitar2.png,0.9,2,0.2,0.15,right,80,2020-12-09_14h02.41.351,premup-three_ses-02_part-02_label-phase2,3.2.4,Win32,60,,,,,,,,,,,,,,,,,,,,,,,,,,,,,
left,0.644000053,1,125,1,0,1,0,1,0,1,0,240,10,1,239,1,1,3,stim/13.jpeg,HouseObjects,1,stim/objects/HouseObjects/barbecuelighter.png,0.5,4,0.2,-0.15,left,80,2020-12-09_14h02.41.351,premup-three_ses-02_part-02_label-phase2,3.2.4,Win32,60,,,,,,,,,,,,,,,,,,,,,,,,,,,,,
right,0.722999811,1,126,1,0,1,0,1,0,1,0,240,94,1,239,2,3,3,stim/33.jpeg,Instruments,2,stim/objects/Instruments/cymbal.png,0.7,1,-0.2,0.15,right,80,2020-12-09_14h02.41.351,premup-three_ses-02_part-02_label-phase2,3.2.4,Win32,60,,,,,,,,,,,,,,,,,,,,,,,,,,,,,
left,0.54700017,0,127,1,0,1,0,1,0,1,0,240,98,1,239,2,3,3,stim/33.jpeg,Instruments,2,stim/objects/Instruments/cymbal.png,0.7,3,-0.2,-0.15,right,80,2020-12-09_14h02.41.351,premup-three_ses-02_part-02_label-phase2,3.2.4,Win32,60,,,,,,,,,,,,,,,,,,,,,,,,,,,,,
,,0,128,1,0,1,0,1,0,1,0,240,166,1,239,3,5,3,stim/53.jpeg,Instruments,2,stim/objects/Instruments/cello2.png,0.9,3,-0.2,-0.15,right,80,2020-12-09_14h02.41.351,premup-three_ses-02_part-02_label-phase2,3.2.4,Win32,60,,,,,,,,,,,,,,,,,,,,,,,,,,,,,
right,0.44299984,1,129,1,0,1,0,1,0,1,0,240,187,1,239,3,5,4,stim/54.jpeg,Instruments,2,stim/objects/Instruments/chime2.png,0.9,2,0.2,0.15,right,80,2020-12-09_14h02.41.351,premup-three_ses-02_part-02_label-phase2,3.2.4,Win32,60,,,,,,,,,,,,,,,,,,,,,,,,,,,,,
right,0.431999922,1,130,1,0,1,0,1,0,1,0,240,170,1,239,3,5,3,stim/53.jpeg,Instruments,2,stim/objects/Instruments/cello2.png,0.9,2,0.2,0.15,right,80,2020-12-09_14h02.41.351,premup-three_ses-02_part-02_label-phase2,3.2.4,Win32,60,,,,,,,,,,,,,,,,,,,,,,,,,,,,,
left,0.576000214,1,131,1,0,1,0,1,0,1,0,240,221,1,239,3,6,2,stim/62.jpeg,HouseObjects,1,stim/objects/HouseObjects/clock2.png,0.9,2,0.2,0.15,left,80,2020-12-09_14h02.41.351,premup-three_ses-02_part-02_label-phase2,3.2.4,Win32,60,,,,,,,,,,,,,,,,,,,,,,,,,,,,,
left,0.884000063,1,132,1,0,1,0,1,0,1,0,240,139,1,239,2,4,4,stim/44.jpeg,HouseObjects,1,stim/objects/HouseObjects/basket2.png,0.7,2,0.2,0.15,left,80,2020-12-09_14h02.41.351,premup-three_ses-02_part-02_label-phase2,3.2.4,Win32,60,,,,,,,,,,,,,,,,,,,,,,,,,,,,,
left,0.614000082,1,133,1,0,1,0,1,0,1,0,240,222,1,239,3,6,3,stim/63.jpeg,HouseObjects,1,stim/objects/HouseObjects/clothesdryingrack2.png,0.9,4,0.2,-0.15,left,80,2020-12-09_14h02.41.351,premup-three_ses-02_part-02_label-phase2,3.2.4,Win32,60,,,,,,,,,,,,,,,,,,,,,,,,,,,,,
right,0.732000113,1,134,1,0,1,0,1,0,1,0,240,168,1,239,3,5,1,stim/51.jpeg,Instruments,2,stim/objects/Instruments/bassdrum2.png,0.9,1,-0.2,0.15,right,80,2020-12-09_14h02.41.351,premup-three_ses-02_part-02_label-phase2,3.2.4,Win32,60,,,,,,,,,,,,,,,,,,,,,,,,,,,,,
left,0.636999846,1,135,1,0,1,0,1,0,1,0,240,47,1,239,1,2,4,stim/24.jpeg,HouseObjects,1,stim/objects/HouseObjects/broom.png,0.5,3,-0.2,-0.15,left,80,2020-12-09_14h02.41.351,premup-three_ses-02_part-02_label-phase2,3.2.4,Win32,60,,,,,,,,,,,,,,,,,,,,,,,,,,,,,
right,0.907000065,1,136,1,0,1,0,1,0,1,0,240,119,1,239,2,3,4,stim/34.jpeg,Instruments,2,stim/objects/Instruments/doublebass.png,0.7,4,0.2,-0.15,right,80,2020-12-09_14h02.41.351,premup-three_ses-02_part-02_label-phase2,3.2.4,Win32,60,,,,,,,,,,,,,,,,,,,,,,,,,,,,,
left,0.586999893,1,137,1,0,1,0,1,0,1,0,240,125,1,239,2,4,2,stim/42.jpeg,HouseObjects,1,stim/objects/HouseObjects/ballofstring2.png,0.7,4,0.2,-0.15,left,80,2020-12-09_14h02.41.351,premup-three_ses-02_part-02_label-phase2,3.2.4,Win32,60,,,,,,,,,,,,,,,,,,,,,,,,,,,,,
left,0.748000145,0,138,1,0,1,0,1,0,1,0,240,239,1,239,3,6,4,stim/64.jpeg,Instruments,2,stim/objects/Instruments/doublebass2.png,0.1,3,-0.2,-0.15,right,80,2020-12-09_14h02.41.351,premup-three_ses-02_part-02_label-phase2,3.2.4,Win32,60,,,,,,,,,,,,,,,,,,,,,,,,,,,,,
right,0.913999796,1,139,1,0,1,0,1,0,1,0,240,62,1,239,1,2,3,stim/23.jpeg,Instruments,2,stim/objects/Instruments/cello.png,0.5,4,0.2,-0.15,right,80,2020-12-09_14h02.41.351,premup-three_ses-02_part-02_label-phase2,3.2.4,Win32,60,,,,,,,,,,,,,,,,,,,,,,,,,,,,,
left,0.505999804,1,140,1,0,1,0,1,0,1,0,240,121,1,239,2,4,2,stim/42.jpeg,HouseObjects,1,stim/objects/HouseObjects/ballofstring2.png,0.7,3,-0.2,-0.15,left,80,2020-12-09_14h02.41.351,premup-three_ses-02_part-02_label-phase2,3.2.4,Win32,60,,,,,,,,,,,,,,,,,,,,,,,,,,,,,
left,0.467000008,0,141,1,0,1,0,1,0,1,0,240,64,1,239,1,2,1,stim/21.jpeg,Instruments,2,stim/objects/Instruments/bassdrum.png,0.5,1,-0.2,0.15,right,80,2020-12-09_14h02.41.351,premup-three_ses-02_part-02_label-phase2,3.2.4,Win32,60,,,,,,,,,,,,,,,,,,,,,,,,,,,,,
right,0.618999958,1,142,1,0,1,0,1,0,1,0,240,188,1,239,3,5,1,stim/51.jpeg,Instruments,2,stim/objects/Instruments/bassdrum2.png,0.9,1,-0.2,0.15,right,80,2020-12-09_14h02.41.351,premup-three_ses-02_part-02_label-phase2,3.2.4,Win32,60,,,,,,,,,,,,,,,,,,,,,,,,,,,,,
left,0.662000179,0,143,1,0,1,0,1,0,1,0,240,99,1,239,2,3,4,stim/34.jpeg,Instruments,2,stim/objects/Instruments/doublebass.png,0.7,4,0.2,-0.15,right,80,2020-12-09_14h02.41.351,premup-three_ses-02_part-02_label-phase2,3.2.4,Win32,60,,,,,,,,,,,,,,,,,,,,,,,,,,,,,
right,0.787999868,0,144,1,0,1,0,1,0,1,0,240,13,1,239,1,1,2,stim/12.jpeg,HouseObjects,1,stim/objects/HouseObjects/ballofstring.png,0.5,1,-0.2,0.15,left,80,2020-12-09_14h02.41.351,premup-three_ses-02_part-02_label-phase2,3.2.4,Win32,60,,,,,,,,,,,,,,,,,,,,,,,,,,,,,
right,0.757999897,0,145,1,0,1,0,1,0,1,0,240,230,1,239,3,6,3,stim/63.jpeg,HouseObjects,1,stim/objects/HouseObjects/clothesdryingrack2.png,0.9,3,-0.2,-0.15,left,80,2020-12-09_14h02.41.351,premup-three_ses-02_part-02_label-phase2,3.2.4,Win32,60,,,,,,,,,,,,,,,,,,,,,,,,,,,,,
left,0.846000195,1,146,1,0,1,0,1,0,1,0,240,124,1,239,2,4,1,stim/41.jpeg,HouseObjects,1,stim/objects/HouseObjects/ashtray2.png,0.7,2,0.2,0.15,left,80,2020-12-09_14h02.41.351,premup-three_ses-02_part-02_label-phase2,3.2.4,Win32,60,,,,,,,,,,,,,,,,,,,,,,,,,,,,,
right,0.799000025,1,147,1,0,1,0,1,0,1,0,240,103,1,239,2,3,4,stim/34.jpeg,Instruments,2,stim/objects/Instruments/doublebass.png,0.7,3,-0.2,-0.15,right,80,2020-12-09_14h02.41.351,premup-three_ses-02_part-02_label-phase2,3.2.4,Win32,60,,,,,,,,,,,,,,,,,,,,,,,,,,,,,
left,0.595999956,1,148,1,0,1,0,1,0,1,0,240,200,1,239,3,6,1,stim/61.jpeg,HouseObjects,1,stim/objects/HouseObjects/bucket2.png,0.9,2,0.2,0.15,left,80,2020-12-09_14h02.41.351,premup-three_ses-02_part-02_label-phase2,3.2.4,Win32,60,,,,,,,,,,,,,,,,,,,,,,,,,,,,,
right,0.518999815,1,149,1,0,1,0,1,0,1,0,240,169,1,239,3,5,2,stim/52.jpeg,Instruments,2,stim/objects/Instruments/bassguitar2.png,0.9,3,-0.2,-0.15,right,80,2020-12-09_14h02.41.351,premup-three_ses-02_part-02_label-phase2,3.2.4,Win32,60,,,,,,,,,,,,,,,,,,,,,,,,,,,,,
left,0.502000093,1,150,1,0,1,0,1,0,1,0,240,209,1,239,3,6,2,stim/62.jpeg,HouseObjects,1,stim/objects/HouseObjects/clock2.png,0.9,1,-0.2,0.15,left,80,2020-12-09_14h02.41.351,premup-three_ses-02_part-02_label-phase2,3.2.4,Win32,60,,,,,,,,,,,,,,,,,,,,,,,,,,,,,
left,0.898000002,0,151,1,0,1,0,1,0,1,0,240,158,1,239,2,4,3,stim/43.jpeg,Instruments,2,stim/objects/Instruments/balalaika2.png,0.3,2,0.2,0.15,right,80,2020-12-09_14h02.41.351,premup-three_ses-02_part-02_label-phase2,3.2.4,Win32,60,,,,,,,,,,,,,,,,,,,,,,,,,,,,,
left,0.624000072,1,152,1,0,1,0,1,0,1,0,240,213,1,239,3,6,2,stim/62.jpeg,HouseObjects,1,stim/objects/HouseObjects/clock2.png,0.9,3,-0.2,-0.15,left,80,2020-12-09_14h02.41.351,premup-three_ses-02_part-02_label-phase2,3.2.4,Win32,60,,,,,,,,,,,,,,,,,,,,,,,,,,,,,
left,0.527000189,1,153,1,0,1,0,1,0,1,0,240,204,1,239,3,6,1,stim/61.jpeg,HouseObjects,1,stim/objects/HouseObjects/bucket2.png,0.9,2,0.2,0.15,left,80,2020-12-09_14h02.41.351,premup-three_ses-02_part-02_label-phase2,3.2.4,Win32,60,,,,,,,,,,,,,,,,,,,,,,,,,,,,,
left,0.443000078,1,154,1,0,1,0,1,0,1,0,240,88,1,239,2,3,1,stim/31.jpeg,HouseObjects,1,stim/objects/HouseObjects/bucket.png,0.3,1,-0.2,0.15,left,80,2020-12-09_14h02.41.351,premup-three_ses-02_part-02_label-phase2,3.2.4,Win32,60,,,,,,,,,,,,,,,,,,,,,,,,,,,,,
left,0.427999973,0,155,1,0,1,0,1,0,1,0,240,189,1,239,3,5,2,stim/52.jpeg,Instruments,2,stim/objects/Instruments/bassguitar2.png,0.9,1,-0.2,0.15,right,80,2020-12-09_14h02.41.351,premup-three_ses-02_part-02_label-phase2,3.2.4,Win32,60,,,,,,,,,,,,,,,,,,,,,,,,,,,,,
right,0.707999945,0,156,1,0,1,0,1,0,1,0,240,15,1,239,1,1,4,stim/14.jpeg,HouseObjects,1,stim/objects/HouseObjects/basket.png,0.5,3,-0.2,-0.15,left,80,2020-12-09_14h02.41.351,premup-three_ses-02_part-02_label-phase2,3.2.4,Win32,60,,,,,,,,,,,,,,,,,,,,,,,,,,,,,
right,0.588999987,1,157,1,0,1,0,1,0,1,0,240,193,1,239,3,5,2,stim/52.jpeg,Instruments,2,stim/objects/Instruments/bassguitar2.png,0.9,3,-0.2,-0.15,right,80,2020-12-09_14h02.41.351,premup-three_ses-02_part-02_label-phase2,3.2.4,Win32,60,,,,,,,,,,,,,,,,,,,,,,,,,,,,,
left,0.796000004,1,158,1,0,1,0,1,0,1,0,240,130,1,239,2,4,3,stim/43.jpeg,HouseObjects,1,stim/objects/HouseObjects/barbecuelighter2.png,0.7,1,-0.2,0.15,left,80,2020-12-09_14h02.41.351,premup-three_ses-02_part-02_label-phase2,3.2.4,Win32,60,,,,,,,,,,,,,,,,,,,,,,,,,,,,,
right,0.837000132,0,159,1,0,1,0,1,0,1,0,240,82,1,239,2,3,3,stim/33.jpeg,HouseObjects,1,stim/objects/HouseObjects/clothesdryingrack.png,0.3,4,0.2,-0.15,left,80,2020-12-09_14h02.41.351,premup-three_ses-02_part-02_label-phase2,3.2.4,Win32,60,,,,,,,,,,,,,,,,,,,,,,,,,,,,,
,,0,160,1,0,1,0,1,0,1,0,240,16,1,239,1,1,1,stim/11.jpeg,HouseObjects,1,stim/objects/HouseObjects/ashtray.png,0.5,4,0.2,-0.15,left,80,2020-12-09_14h02.41.351,premup-three_ses-02_part-02_label-phase2,3.2.4,Win32,60,,,,,,,,,,,,,,,,,,,,,,,,,,,,,
right,0.656000137,1,161,1,0,1,0,1,0,1,0,240,178,1,239,3,5,3,stim/53.jpeg,Instruments,2,stim/objects/Instruments/cello2.png,0.9,2,0.2,0.15,right,80,2020-12-09_14h02.41.351,premup-three_ses-02_part-02_label-phase2,3.2.4,Win32,60,,,,,,,,,,,,,,,,,,,,,,,,,,,,,
left,0.620000124,0,162,1,0,1,0,1,0,1,0,240,74,1,239,1,2,3,stim/23.jpeg,Instruments,2,stim/objects/Instruments/cello.png,0.5,4,0.2,-0.15,right,80,2020-12-09_14h02.41.351,premup-three_ses-02_part-02_label-phase2,3.2.4,Win32,60,,,,,,,,,,,,,,,,,,,,,,,,,,,,,
right,0.711999893,1,163,1,0,1,0,1,0,1,0,240,71,1,239,1,2,4,stim/24.jpeg,Instruments,2,stim/objects/Instruments/chime.png,0.5,1,-0.2,0.15,right,80,2020-12-09_14h02.41.351,premup-three_ses-02_part-02_label-phase2,3.2.4,Win32,60,,,,,,,,,,,,,,,,,,,,,,,,,,,,,
right,0.532999992,1,164,1,0,1,0,1,0,1,0,240,34,1,239,1,1,3,stim/13.jpeg,Instruments,2,stim/objects/Instruments/balalaika.png,0.5,4,0.2,-0.15,right,80,2020-12-09_14h02.41.351,premup-three_ses-02_part-02_label-phase2,3.2.4,Win32,60,,,,,,,,,,,,,,,,,,,,,,,,,,,,,
right,0.672999859,1,165,1,0,1,0,1,0,1,0,240,154,1,239,2,4,3,stim/43.jpeg,Instruments,2,stim/objects/Instruments/balalaika2.png,0.3,1,-0.2,0.15,right,80,2020-12-09_14h02.41.351,premup-three_ses-02_part-02_label-phase2,3.2.4,Win32,60,,,,,,,,,,,,,,,,,,,,,,,,,,,,,
left,0.587000132,1,166,1,0,1,0,1,0,1,0,240,137,1,239,2,4,2,stim/42.jpeg,HouseObjects,1,stim/objects/HouseObjects/ballofstring2.png,0.7,2,0.2,0.15,left,80,2020-12-09_14h02.41.351,premup-three_ses-02_part-02_label-phase2,3.2.4,Win32,60,,,,,,,,,,,,,,,,,,,,,,,,,,,,,
left,0.649999857,0,167,1,0,1,0,1,0,1,0,240,159,1,239,2,4,4,stim/44.jpeg,Instruments,2,stim/objects/Instruments/banjo2.png,0.3,4,0.2,-0.15,right,80,2020-12-09_14h02.41.351,premup-three_ses-02_part-02_label-phase2,3.2.4,Win32,60,,,,,,,,,,,,,,,,,,,,,,,,,,,,,
right,0.725000143,1,168,1,0,1,0,1,0,1,0,240,110,1,239,2,3,3,stim/33.jpeg,Instruments,2,stim/objects/Instruments/cymbal.png,0.7,2,0.2,0.15,right,80,2020-12-09_14h02.41.351,premup-three_ses-02_part-02_label-phase2,3.2.4,Win32,60,,,,,,,,,,,,,,,,,,,,,,,,,,,,,
right,0.611999989,0,169,1,0,1,0,1,0,1,0,240,14,1,239,1,1,3,stim/13.jpeg,HouseObjects,1,stim/objects/HouseObjects/barbecuelighter.png,0.5,1,-0.2,0.15,left,80,2020-12-09_14h02.41.351,premup-three_ses-02_part-02_label-phase2,3.2.4,Win32,60,,,,,,,,,,,,,,,,,,,,,,,,,,,,,
left,0.5849998,1,170,1,0,1,0,1,0,1,0,240,217,1,239,3,6,2,stim/62.jpeg,HouseObjects,1,stim/objects/HouseObjects/clock2.png,0.9,4,0.2,-0.15,left,80,2020-12-09_14h02.41.351,premup-three_ses-02_part-02_label-phase2,3.2.4,Win32,60,,,,,,,,,,,,,,,,,,,,,,,,,,,,,
left,0.608999968,1,171,1,0,1,0,1,0,1,0,240,58,1,239,1,2,3,stim/23.jpeg,HouseObjects,1,stim/objects/HouseObjects/bottle.png,0.5,1,-0.2,0.15,left,80,2020-12-09_14h02.41.351,premup-three_ses-02_part-02_label-phase2,3.2.4,Win32,60,,,,,,,,,,,,,,,,,,,,,,,,,,,,,
left,0.612999916,0,172,1,0,1,0,1,0,1,0,240,157,1,239,2,4,2,stim/42.jpeg,Instruments,2,stim/objects/Instruments/acousticguitar2.png,0.3,3,-0.2,-0.15,right,80,2020-12-09_14h02.41.351,premup-three_ses-02_part-02_label-phase2,3.2.4,Win32,60,,,,,,,,,,,,,,,,,,,,,,,,,,,,,
left,0.670000076,1,173,1,0,1,0,1,0,1,0,240,132,1,239,2,4,1,stim/41.jpeg,HouseObjects,1,stim/objects/HouseObjects/ashtray2.png,0.7,4,0.2,-0.15,left,80,2020-12-09_14h02.41.351,premup-three_ses-02_part-02_label-phase2,3.2.4,Win32,60,,,,,,,,,,,,,,,,,,,,,,,,,,,,,
right,0.697999954,1,174,1,0,1,0,1,0,1,0,240,199,1,239,3,5,4,stim/54.jpeg,Instruments,2,stim/objects/Instruments/chime2.png,0.9,3,-0.2,-0.15,right,80,2020-12-09_14h02.41.351,premup-three_ses-02_part-02_label-phase2,3.2.4,Win32,60,,,,,,,,,,,,,,,,,,,,,,,,,,,,,
right,0.74000001,0,175,1,0,1,0,1,0,1,0,240,2,1,239,1,1,3,stim/13.jpeg,HouseObjects,1,stim/objects/HouseObjects/barbecuelighter.png,0.5,3,-0.2,-0.15,left,80,2020-12-09_14h02.41.351,premup-three_ses-02_part-02_label-phase2,3.2.4,Win32,60,,,,,,,,,,,,,,,,,,,,,,,,,,,,,
right,0.583999872,1,176,1,0,1,0,1,0,1,0,240,183,1,239,3,5,4,stim/54.jpeg,Instruments,2,stim/objects/Instruments/chime2.png,0.9,3,-0.2,-0.15,right,80,2020-12-09_14h02.41.351,premup-three_ses-02_part-02_label-phase2,3.2.4,Win32,60,,,,,,,,,,,,,,,,,,,,,,,,,,,,,
,,0,177,1,0,1,0,1,0,1,0,240,108,1,239,2,3,1,stim/31.jpeg,Instruments,2,stim/objects/Instruments/clarinet.png,0.7,4,0.2,-0.15,right,80,2020-12-09_14h02.41.351,premup-three_ses-02_part-02_label-phase2,3.2.4,Win32,60,,,,,,,,,,,,,,,,,,,,,,,,,,,,,
right,0.612999916,1,178,1,0,1,0,1,0,1,0,240,104,1,239,2,3,1,stim/31.jpeg,Instruments,2,stim/objects/Instruments/clarinet.png,0.7,1,-0.2,0.15,right,80,2020-12-09_14h02.41.351,premup-three_ses-02_part-02_label-phase2,3.2.4,Win32,60,,,,,,,,,,,,,,,,,,,,,,,,,,,,,
right,0.715999842,0,179,1,0,1,0,1,0,1,0,240,8,1,239,1,1,1,stim/11.jpeg,HouseObjects,1,stim/objects/HouseObjects/ashtray.png,0.5,2,0.2,0.15,left,80,2020-12-09_14h02.41.351,premup-three_ses-02_part-02_label-phase2,3.2.4,Win32,60,,,,,,,,,,,,,,,,,,,,,,,,,,,,,
left,0.469000101,1,180,1,0,1,0,1,0,1,0,240,19,1,239,1,1,4,stim/14.jpeg,HouseObjects,1,stim/objects/HouseObjects/basket.png,0.5,2,0.2,0.15,left,80,2020-12-09_14h02.41.351,premup-three_ses-02_part-02_label-phase2,3.2.4,Win32,60,,,,,,,,,,,,,,,,,,,,,,,,,,,,,
left,0.697000027,0,181,1,0,1,0,1,0,1,0,240,75,1,239,1,2,4,stim/24.jpeg,Instruments,2,stim/objects/Instruments/chime.png,0.5,1,-0.2,0.15,right,80,2020-12-09_14h02.41.351,premup-three_ses-02_part-02_label-phase2,3.2.4,Win32,60,,,,,,,,,,,,,,,,,,,,,,,,,,,,,
right,0.753999949,1,182,1,0,1,0,1,0,1,0,240,114,1,239,2,3,3,stim/33.jpeg,Instruments,2,stim/objects/Instruments/cymbal.png,0.7,1,-0.2,0.15,right,80,2020-12-09_14h02.41.351,premup-three_ses-02_part-02_label-phase2,3.2.4,Win32,60,,,,,,,,,,,,,,,,,,,,,,,,,,,,,
left,0.752000093,1,183,1,0,1,0,1,0,1,0,240,18,1,239,1,1,3,stim/13.jpeg,HouseObjects,1,stim/objects/HouseObjects/barbecuelighter.png,0.5,3,-0.2,-0.15,left,80,2020-12-09_14h02.41.351,premup-three_ses-02_part-02_label-phase2,3.2.4,Win32,60,,,,,,,,,,,,,,,,,,,,,,,,,,,,,
,,0,184,1,0,1,0,1,0,1,0,240,122,1,239,2,4,3,stim/43.jpeg,HouseObjects,1,stim/objects/HouseObjects/barbecuelighter2.png,0.7,2,0.2,0.15,left,80,2020-12-09_14h02.41.351,premup-three_ses-02_part-02_label-phase2,3.2.4,Win32,60,,,,,,,,,,,,,,,,,,,,,,,,,,,,,
left,0.524000168,0,185,1,0,1,0,1,0,1,0,240,35,1,239,1,1,4,stim/14.jpeg,Instruments,2,stim/objects/Instruments/banjo.png,0.5,2,0.2,0.15,right,80,2020-12-09_14h02.41.351,premup-three_ses-02_part-02_label-phase2,3.2.4,Win32,60,,,,,,,,,,,,,,,,,,,,,,,,,,,,,
left,0.528000116,1,186,1,0,1,0,1,0,1,0,240,215,1,239,3,6,4,stim/64.jpeg,HouseObjects,1,stim/objects/HouseObjects/clothespin2.png,0.9,1,-0.2,0.15,left,80,2020-12-09_14h02.41.351,premup-three_ses-02_part-02_label-phase2,3.2.4,Win32,60,,,,,,,,,,,,,,,,,,,,,,,,,,,,,
left,0.650000095,1,187,1,0,1,0,1,0,1,0,240,128,1,239,2,4,1,stim/41.jpeg,HouseObjects,1,stim/objects/HouseObjects/ashtray2.png,0.7,4,0.2,-0.15,left,80,2020-12-09_14h02.41.351,premup-three_ses-02_part-02_label-phase2,3.2.4,Win32,60,,,,,,,,,,,,,,,,,,,,,,,,,,,,,
right,0.75999999,0,188,1,0,1,0,1,0,1,0,240,163,1,239,3,5,4,stim/54.jpeg,HouseObjects,1,stim/objects/HouseObjects/broom2.png,0.1,4,0.2,-0.15,left,80,2020-12-09_14h02.41.351,premup-three_ses-02_part-02_label-phase2,3.2.4,Win32,60,,,,,,,,,,,,,,,,,,,,,,,,,,,,,
left,0.539999962,1,189,1,0,1,0,1,0,1,0,240,226,1,239,3,6,3,stim/63.jpeg,HouseObjects,1,stim/objects/HouseObjects/clothesdryingrack2.png,0.9,1,-0.2,0.15,left,80,2020-12-09_14h02.41.351,premup-three_ses-02_part-02_label-phase2,3.2.4,Win32,60,,,,,,,,,,,,,,,,,,,,,,,,,,,,,
right,0.654000044,1,190,1,0,1,0,1,0,1,0,240,32,1,239,1,1,1,stim/11.jpeg,Instruments,2,stim/objects/Instruments/accordion.png,0.5,2,0.2,0.15,right,80,2020-12-09_14h02.41.351,premup-three_ses-02_part-02_label-phase2,3.2.4,Win32,60,,,,,,,,,,,,,,,,,,,,,,,,,,,,,
left,0.601999998,1,191,1,0,1,0,1,0,1,0,240,131,1,239,2,4,4,stim/44.jpeg,HouseObjects,1,stim/objects/HouseObjects/basket2.png,0.7,3,-0.2,-0.15,left,80,2020-12-09_14h02.41.351,premup-three_ses-02_part-02_label-phase2,3.2.4,Win32,60,,,,,,,,,,,,,,,,,,,,,,,,,,,,,
right,0.843999863,1,192,1,0,1,0,1,0,1,0,240,33,1,239,1,1,2,stim/12.jpeg,Instruments,2,stim/objects/Instruments/acousticguitar.png,0.5,3,-0.2,-0.15,right,80,2020-12-09_14h02.41.351,premup-three_ses-02_part-02_label-phase2,3.2.4,Win32,60,,,,,,,,,,,,,,,,,,,,,,,,,,,,,
left,0.92599988,1,193,1,0,1,0,1,0,1,0,240,0,1,239,1,1,1,stim/11.jpeg,HouseObjects,1,stim/objects/HouseObjects/ashtray.png,0.5,2,0.2,0.15,left,80,2020-12-09_14h02.41.351,premup-three_ses-02_part-02_label-phase2,3.2.4,Win32,60,,,,,,,,,,,,,,,,,,,,,,,,,,,,,
right,0.670000076,1,194,1,0,1,0,1,0,1,0,240,107,1,239,2,3,4,stim/34.jpeg,Instruments,2,stim/objects/Instruments/doublebass.png,0.7,3,-0.2,-0.15,right,80,2020-12-09_14h02.41.351,premup-three_ses-02_part-02_label-phase2,3.2.4,Win32,60,,,,,,,,,,,,,,,,,,,,,,,,,,,,,
right,0.568000078,1,195,1,0,1,0,1,0,1,0,240,174,1,239,3,5,3,stim/53.jpeg,Instruments,2,stim/objects/Instruments/cello2.png,0.9,1,-0.2,0.15,right,80,2020-12-09_14h02.41.351,premup-three_ses-02_part-02_label-phase2,3.2.4,Win32,60,,,,,,,,,,,,,,,,,,,,,,,,,,,,,
left,0.541999817,1,196,1,0,1,0,1,0,1,0,240,231,1,239,3,6,4,stim/64.jpeg,HouseObjects,1,stim/objects/HouseObjects/clothespin2.png,0.9,3,-0.2,-0.15,left,80,2020-12-09_14h02.41.351,premup-three_ses-02_part-02_label-phase2,3.2.4,Win32,60,,,,,,,,,,,,,,,,,,,,,,,,,,,,,
right,0.839999914,0,197,1,0,1,0,1,0,1,0,240,80,1,239,2,3,1,stim/31.jpeg,HouseObjects,1,stim/objects/HouseObjects/bucket.png,0.3,3,-0.2,-0.15,left,80,2020-12-09_14h02.41.351,premup-three_ses-02_part-02_label-phase2,3.2.4,Win32,60,,,,,,,,,,,,,,,,,,,,,,,,,,,,,
left,0.635999918,0,198,1,0,1,0,1,0,1,0,240,79,1,239,1,2,4,stim/24.jpeg,Instruments,2,stim/objects/Instruments/chime.png,0.5,1,-0.2,0.15,right,80,2020-12-09_14h02.41.351,premup-three_ses-02_part-02_label-phase2,3.2.4,Win32,60,,,,,,,,,,,,,,,,,,,,,,,,,,,,,
,,0,199,1,0,1,0,1,0,1,0,240,40,1,239,1,2,1,stim/21.jpeg,HouseObjects,1,stim/objects/HouseObjects/bleachbottle.png,0.5,1,-0.2,0.15,left,80,2020-12-09_14h02.41.351,premup-three_ses-02_part-02_label-phase2,3.2.4,Win32,60,,,,,,,,,,,,,,,,,,,,,,,,,,,,,
,,0,200,1,0,1,0,1,0,1,0,240,21,1,239,1,1,2,stim/12.jpeg,Instruments,2,stim/objects/Instruments/acousticguitar.png,0.5,2,0.2,0.15,right,80,2020-12-09_14h02.41.351,premup-three_ses-02_part-02_label-phase2,3.2.4,Win32,60,,,,,,,,,,,,,,,,,,,,,,,,,,,,,
left,0.566999912,1,201,1,0,1,0,1,0,1,0,240,134,1,239,2,4,3,stim/43.jpeg,HouseObjects,1,stim/objects/HouseObjects/barbecuelighter2.png,0.7,4,0.2,-0.15,left,80,2020-12-09_14h02.41.351,premup-three_ses-02_part-02_label-phase2,3.2.4,Win32,60,,,,,,,,,,,,,,,,,,,,,,,,,,,,,
right,0.631000042,1,202,1,0,1,0,1,0,1,0,240,175,1,239,3,5,4,stim/54.jpeg,Instruments,2,stim/objects/Instruments/chime2.png,0.9,1,-0.2,0.15,right,80,2020-12-09_14h02.41.351,premup-three_ses-02_part-02_label-phase2,3.2.4,Win32,60,,,,,,,,,,,,,,,,,,,,,,,,,,,,,
left,0.697000027,1,203,1,0,1,0,1,0,1,0,240,129,1,239,2,4,2,stim/42.jpeg,HouseObjects,1,stim/objects/HouseObjects/ballofstring2.png,0.7,2,0.2,0.15,left,80,2020-12-09_14h02.41.351,premup-three_ses-02_part-02_label-phase2,3.2.4,Win32,60,,,,,,,,,,,,,,,,,,,,,,,,,,,,,
,,0,204,1,0,1,0,1,0,1,0,240,101,1,239,2,3,2,stim/32.jpeg,Instruments,2,stim/objects/Instruments/cornet.png,0.7,2,0.2,0.15,right,80,2020-12-09_14h02.41.351,premup-three_ses-02_part-02_label-phase2,3.2.4,Win32,60,,,,,,,,,,,,,,,,,,,,,,,,,,,,,
left,0.579999924,1,205,1,0,1,0,1,0,1,0,240,144,1,239,2,4,1,stim/41.jpeg,HouseObjects,1,stim/objects/HouseObjects/ashtray2.png,0.7,4,0.2,-0.15,left,80,2020-12-09_14h02.41.351,premup-three_ses-02_part-02_label-phase2,3.2.4,Win32,60,,,,,,,,,,,,,,,,,,,,,,,,,,,,,
right,0.56099987,1,206,1,0,1,0,1,0,1,0,240,191,1,239,3,5,4,stim/54.jpeg,Instruments,2,stim/objects/Instruments/chime2.png,0.9,2,0.2,0.15,right,80,2020-12-09_14h02.41.351,premup-three_ses-02_part-02_label-phase2,3.2.4,Win32,60,,,,,,,,,,,,,,,,,,,,,,,,,,,,,
left,0.747999907,1,207,1,0,1,0,1,0,1,0,240,53,1,239,1,2,2,stim/22.jpeg,HouseObjects,1,stim/objects/HouseObjects/blender.png,0.5,4,0.2,-0.15,left,80,2020-12-09_14h02.41.351,premup-three_ses-02_part-02_label-phase2,3.2.4,Win32,60,,,,,,,,,,,,,,,,,,,,,,,,,,,,,
left,0.712000132,1,208,1,0,1,0,1,0,1,0,240,87,1,239,2,3,4,stim/34.jpeg,HouseObjects,1,stim/objects/HouseObjects/clothespin.png,0.3,1,-0.2,0.15,left,80,2020-12-09_14h02.41.351,premup-three_ses-02_part-02_label-phase2,3.2.4,Win32,60,,,,,,,,,,,,,,,,,,,,,,,,,,,,,
right,0.637000084,1,209,1,0,1,0,1,0,1,0,240,198,1,239,3,5,3,stim/53.jpeg,Instruments,2,stim/objects/Instruments/cello2.png,0.9,1,-0.2,0.15,right,80,2020-12-09_14h02.41.351,premup-three_ses-02_part-02_label-phase2,3.2.4,Win32,60,,,,,,,,,,,,,,,,,,,,,,,,,,,,,
left,0.677999973,0,210,1,0,1,0,1,0,1,0,240,77,1,239,1,2,2,stim/22.jpeg,Instruments,2,stim/objects/Instruments/bassguitar.png,0.5,1,-0.2,0.15,right,80,2020-12-09_14h02.41.351,premup-three_ses-02_part-02_label-phase2,3.2.4,Win32,60,,,,,,,,,,,,,,,,,,,,,,,,,,,,,
left,0.748000145,1,211,1,0,1,0,1,0,1,0,240,207,1,239,3,6,4,stim/64.jpeg,HouseObjects,1,stim/objects/HouseObjects/clothespin2.png,0.9,1,-0.2,0.15,left,80,2020-12-09_14h02.41.351,premup-three_ses-02_part-02_label-phase2,3.2.4,Win32,60,,,,,,,,,,,,,,,,,,,,,,,,,,,,,
right,0.878000021,1,212,1,0,1,0,1,0,1,0,240,195,1,239,3,5,4,stim/54.jpeg,Instruments,2,stim/objects/Instruments/chime2.png,0.9,4,0.2,-0.15,right,80,2020-12-09_14h02.41.351,premup-three_ses-02_part-02_label-phase2,3.2.4,Win32,60,,,,,,,,,,,,,,,,,,,,,,,,,,,,,
left,0.542999983,1,213,1,0,1,0,1,0,1,0,240,206,1,239,3,6,3,stim/63.jpeg,HouseObjects,1,stim/objects/HouseObjects/clothesdryingrack2.png,0.9,2,0.2,0.15,left,80,2020-12-09_14h02.41.351,premup-three_ses-02_part-02_label-phase2,3.2.4,Win32,60,,,,,,,,,,,,,,,,,,,,,,,,,,,,,
right,0.585999966,0,214,1,0,1,0,1,0,1,0,240,160,1,239,3,5,1,stim/51.jpeg,HouseObjects,1,stim/objects/HouseObjects/bleachbottle2.png,0.1,1,-0.2,0.15,left,80,2020-12-09_14h02.41.351,premup-three_ses-02_part-02_label-phase2,3.2.4,Win32,60,,,,,,,,,,,,,,,,,,,,,,,,,,,,,
,,0,215,1,0,1,0,1,0,1,0,240,135,1,239,2,4,4,stim/44.jpeg,HouseObjects,1,stim/objects/HouseObjects/basket2.png,0.7,4,0.2,-0.15,left,80,2020-12-09_14h02.41.351,premup-three_ses-02_part-02_label-phase2,3.2.4,Win32,60,,,,,,,,,,,,,,,,,,,,,,,,,,,,,
left,0.544000149,0,216,1,0,1,0,1,0,1,0,240,105,1,239,2,3,2,stim/32.jpeg,Instruments,2,stim/objects/Instruments/cornet.png,0.7,1,-0.2,0.15,right,80,2020-12-09_14h02.41.351,premup-three_ses-02_part-02_label-phase2,3.2.4,Win32,60,,,,,,,,,,,,,,,,,,,,,,,,,,,,,
right,0.905999899,0,217,1,0,1,0,1,0,1,0,240,55,1,239,1,2,4,stim/24.jpeg,HouseObjects,1,stim/objects/HouseObjects/broom.png,0.5,4,0.2,-0.15,left,80,2020-12-09_14h02.41.351,premup-three_ses-02_part-02_label-phase2,3.2.4,Win32,60,,,,,,,,,,,,,,,,,,,,,,,,,,,,,
left,0.755999804,0,218,1,0,1,0,1,0,1,0,240,22,1,239,1,1,3,stim/13.jpeg,Instruments,2,stim/objects/Instruments/balalaika.png,0.5,2,0.2,0.15,right,80,2020-12-09_14h02.41.351,premup-three_ses-02_part-02_label-phase2,3.2.4,Win32,60,,,,,,,,,,,,,,,,,,,,,,,,,,,,,
,,0,219,1,0,1,0,1,0,1,0,240,102,1,239,2,3,3,stim/33.jpeg,Instruments,2,stim/objects/Instruments/cymbal.png,0.7,3,-0.2,-0.15,right,80,2020-12-09_14h02.41.351,premup-three_ses-02_part-02_label-phase2,3.2.4,Win32,60,,,,,,,,,,,,,,,,,,,,,,,,,,,,,
right,0.496000051,1,220,1,0,1,0,1,0,1,0,240,164,1,239,3,5,1,stim/51.jpeg,Instruments,2,stim/objects/Instruments/bassdrum2.png,0.9,4,0.2,-0.15,right,80,2020-12-09_14h02.41.351,premup-three_ses-02_part-02_label-phase2,3.2.4,Win32,60,,,,,,,,,,,,,,,,,,,,,,,,,,,,,
left,0.61500001,1,221,1,0,1,0,1,0,1,0,240,46,1,239,1,2,3,stim/23.jpeg,HouseObjects,1,stim/objects/HouseObjects/bottle.png,0.5,1,-0.2,0.15,left,80,2020-12-09_14h02.41.351,premup-three_ses-02_part-02_label-phase2,3.2.4,Win32,60,,,,,,,,,,,,,,,,,,,,,,,,,,,,,
left,0.440999985,1,222,1,0,1,0,1,0,1,0,240,229,1,239,3,6,2,stim/62.jpeg,HouseObjects,1,stim/objects/HouseObjects/clock2.png,0.9,3,-0.2,-0.15,left,80,2020-12-09_14h02.41.351,premup-three_ses-02_part-02_label-phase2,3.2.4,Win32,60,,,,,,,,,,,,,,,,,,,,,,,,,,,,,
right,0.609999895,0,223,1,0,1,0,1,0,1,0,240,136,1,239,2,4,1,stim/41.jpeg,HouseObjects,1,stim/objects/HouseObjects/ashtray2.png,0.7,2,0.2,0.15,left,80,2020-12-09_14h02.41.351,premup-three_ses-02_part-02_label-phase2,3.2.4,Win32,60,,,,,,,,,,,,,,,,,,,,,,,,,,,,,
left,0.523999929,1,224,1,0,1,0,1,0,1,0,240,216,1,239,3,6,1,stim/61.jpeg,HouseObjects,1,stim/objects/HouseObjects/bucket2.png,0.9,1,-0.2,0.15,left,80,2020-12-09_14h02.41.351,premup-three_ses-02_part-02_label-phase2,3.2.4,Win32,60,,,,,,,,,,,,,,,,,,,,,,,,,,,,,
right,0.447000027,1,225,1,0,1,0,1,0,1,0,240,117,1,239,2,3,2,stim/32.jpeg,Instruments,2,stim/objects/Instruments/cornet.png,0.7,4,0.2,-0.15,right,80,2020-12-09_14h02.41.351,premup-three_ses-02_part-02_label-phase2,3.2.4,Win32,60,,,,,,,,,,,,,,,,,,,,,,,,,,,,,
left,0.614000082,1,226,1,0,1,0,1,0,1,0,240,146,1,239,2,4,3,stim/43.jpeg,HouseObjects,1,stim/objects/HouseObjects/barbecuelighter2.png,0.7,4,0.2,-0.15,left,80,2020-12-09_14h02.41.351,premup-three_ses-02_part-02_label-phase2,3.2.4,Win32,60,,,,,,,,,,,,,,,,,,,,,,,,,,,,,
left,0.498999834,1,227,1,0,1,0,1,0,1,0,240,225,1,239,3,6,2,stim/62.jpeg,HouseObjects,1,stim/objects/HouseObjects/clock2.png,0.9,4,0.2,-0.15,left,80,2020-12-09_14h02.41.351,premup-three_ses-02_part-02_label-phase2,3.2.4,Win32,60,,,,,,,,,,,,,,,,,,,,,,,,,,,,,
left,0.582000017,1,228,1,0,1,0,1,0,1,0,240,147,1,239,2,4,4,stim/44.jpeg,HouseObjects,1,stim/objects/HouseObjects/basket2.png,0.7,3,-0.2,-0.15,left,80,2020-12-09_14h02.41.351,premup-three_ses-02_part-02_label-phase2,3.2.4,Win32,60,,,,,,,,,,,,,,,,,,,,,,,,,,,,,
left,0.74000001,0,229,1,0,1,0,1,0,1,0,240,63,1,239,1,2,4,stim/24.jpeg,Instruments,2,stim/objects/Instruments/chime.png,0.5,4,0.2,-0.15,right,80,2020-12-09_14h02.41.351,premup-three_ses-02_part-02_label-phase2,3.2.4,Win32,60,,,,,,,,,,,,,,,,,,,,,,,,,,,,,
right,0.529000044,1,230,1,0,1,0,1,0,1,0,240,172,1,239,3,5,1,stim/51.jpeg,Instruments,2,stim/objects/Instruments/bassdrum2.png,0.9,1,-0.2,0.15,right,80,2020-12-09_14h02.41.351,premup-three_ses-02_part-02_label-phase2,3.2.4,Win32,60,,,,,,,,,,,,,,,,,,,,,,,,,,,,,
left,0.715999842,0,231,1,0,1,0,1,0,1,0,240,151,1,239,2,4,4,stim/44.jpeg,Instruments,2,stim/objects/Instruments/banjo2.png,0.3,1,-0.2,0.15,right,80,2020-12-09_14h02.41.351,premup-three_ses-02_part-02_label-phase2,3.2.4,Win32,60,,,,,,,,,,,,,,,,,,,,,,,,,,,,,
right,0.727999926,1,232,1,0,1,0,1,0,1,0,240,167,1,239,3,5,4,stim/54.jpeg,Instruments,2,stim/objects/Instruments/chime2.png,0.9,4,0.2,-0.15,right,80,2020-12-09_14h02.41.351,premup-three_ses-02_part-02_label-phase2,3.2.4,Win32,60,,,,,,,,,,,,,,,,,,,,,,,,,,,,,
left,0.59100008,0,233,1,0,1,0,1,0,1,0,240,70,1,239,1,2,3,stim/23.jpeg,Instruments,2,stim/objects/Instruments/cello.png,0.5,4,0.2,-0.15,right,80,2020-12-09_14h02.41.351,premup-three_ses-02_part-02_label-phase2,3.2.4,Win32,60,,,,,,,,,,,,,,,,,,,,,,,,,,,,,
right,0.92599988,1,234,1,0,1,0,1,0,1,0,240,113,1,239,2,3,2,stim/32.jpeg,Instruments,2,stim/objects/Instruments/cornet.png,0.7,3,-0.2,-0.15,right,80,2020-12-09_14h02.41.351,premup-three_ses-02_part-02_label-phase2,3.2.4,Win32,60,,,,,,,,,,,,,,,,,,,,,,,,,,,,,
left,0.588000059,1,235,1,0,1,0,1,0,1,0,240,5,1,239,1,1,2,stim/12.jpeg,HouseObjects,1,stim/objects/HouseObjects/ballofstring.png,0.5,2,0.2,0.15,left,80,2020-12-09_14h02.41.351,premup-three_ses-02_part-02_label-phase2,3.2.4,Win32,60,,,,,,,,,,,,,,,,,,,,,,,,,,,,,
left,0.636999846,1,236,1,0,1,0,1,0,1,0,240,48,1,239,1,2,1,stim/21.jpeg,HouseObjects,1,stim/objects/HouseObjects/bleachbottle.png,0.5,4,0.2,-0.15,left,80,2020-12-09_14h02.41.351,premup-three_ses-02_part-02_label-phase2,3.2.4,Win32,60,,,,,,,,,,,,,,,,,,,,,,,,,,,,,
left,0.539000034,0,237,1,0,1,0,1,0,1,0,240,237,1,239,3,6,2,stim/62.jpeg,Instruments,2,stim/objects/Instruments/cornet2.png,0.1,1,-0.2,0.15,right,80,2020-12-09_14h02.41.351,premup-three_ses-02_part-02_label-phase2,3.2.4,Win32,60,,,,,,,,,,,,,,,,,,,,,,,,,,,,,
,,0,238,1,0,1,0,1,0,1,0,240,4,1,239,1,1,1,stim/11.jpeg,HouseObjects,1,stim/objects/HouseObjects/ashtray.png,0.5,2,0.2,0.15,left,80,2020-12-09_14h02.41.351,premup-three_ses-02_part-02_label-phase2,3.2.4,Win32,60,,,,,,,,,,,,,,,,,,,,,,,,,,,,,
,,0,239,1,0,1,0,1,0,1,0,240,66,1,239,1,2,3,stim/23.jpeg,Instruments,2,stim/objects/Instruments/cello.png,0.5,3,-0.2,-0.15,right,80,2020-12-09_14h02.41.351,premup-three_ses-02_part-02_label-phase2,3.2.4,Win32,60,,,,,,,,,,,,,,,,,,,,,,,,,,,,,
right,0.623999834,0,240,1,0,1,0,1,0,1,0,240,17,1,239,1,1,2,stim/12.jpeg,HouseObjects,1,stim/objects/HouseObjects/ballofstring.png,0.5,4,0.2,-0.15,left,80,2020-12-09_14h02.41.351,premup-three_ses-02_part-02_label-phase2,3.2.4,Win32,60,,,,,,,,,,,,,,,,,,,,,,,,,,,,,
,,,,1,0,1,0,1,0,,,,,,,,2,,stim/21.jpeg,,,,,,,,,80,2020-12-09_14h02.41.351,premup-three_ses-02_part-02_label-phase2,3.2.4,Win32,60,43,19.41100001,,,1,0,6,1,1,5,Music items,45,55,Household items,45,55,,,,,,,,,,,,,
,,,,1,0,1,0,1,0,,,,,,,,6,,stim/61.jpeg,,,,,,,,,80,2020-12-09_14h02.41.351,premup-three_ses-02_part-02_label-phase2,3.2.4,Win32,60,95,12.34700012,,,1,0,6,5,1,5,Household items,5,15,Music items,85,95,,,,,,,,,,,,,
,,,,1,0,1,0,1,0,,,,,,,,3,,stim/31.jpeg,,,,,,,,,80,2020-12-09_14h02.41.351,premup-three_ses-02_part-02_label-phase2,3.2.4,Win32,60,35,55.42199993,,,1,0,6,2,1,5,Household items,65,75,Music items,25,35,,,,,,,,,,,,,
,,,,1,0,1,0,1,0,,,,,,,,5,,stim/51.jpeg,,,,,,,,,80,2020-12-09_14h02.41.351,premup-three_ses-02_part-02_label-phase2,3.2.4,Win32,60,90,18.0940001,,,1,0,6,4,1,5,Music items,5,15,Household items,85,95,,,,,,,,,,,,,
,,,,1,0,1,0,1,0,,,,,,,,1,,stim/11.jpeg,,,,,,,,,80,2020-12-09_14h02.41.351,premup-three_ses-02_part-02_label-phase2,3.2.4,Win32,60,40,33.06699991,,,1,0,6,0,1,5,Household items,45,55,Music items,45,55,,,,,,,,,,,,,
,,,,1,0,1,0,1,0,,,,,,,,4,,stim/41.jpeg,,,,,,,,,80,2020-12-09_14h02.41.351,premup-three_ses-02_part-02_label-phase2,3.2.4,Win32,60,70,16.43900013,,,1,0,6,3,1,5,Household items,65,75,Music items,25,35,,,,,,,,,,,,,
,,,,1,0,1,0,1,0,,,,,,,,,,,,,,,,,,,80,2020-12-09_14h02.41.351,premup-three_ses-02_part-02_label-phase2,3.2.4,Win32,60,,,,,,,,,,,,,,,,,,,,,,,,,,,,,
right,0.569999933,1,241,,,,,,,,,,,,,3,5,3,stim/53.jpeg,Instruments,2,stim/objects/Instruments/musicstand.png,0.9,1,-0.2,0.15,right,80,2020-12-09_14h02.41.351,premup-three_ses-02_part-02_label-phase2,3.2.4,Win32,60,,,,,,,,,,,,,,,,,1,0,330,188,1,329,2,,,,,,
left,0.572000027,0,242,,,,,,,,,,,,,3,6,4,stim/64.jpeg,Instruments,2,stim/objects/Instruments/trumpet2.png,0.1,4,0.2,-0.15,right,80,2020-12-09_14h02.41.351,premup-three_ses-02_part-02_label-phase2,3.2.4,Win32,60,,,,,,,,,,,,,,,,,1,0,330,325,1,329,1,,,,,,
left,0.575000048,1,243,,,,,,,,,,,,,3,6,4,stim/64.jpeg,HouseObjects,1,stim/objects/HouseObjects/pan.png,0.9,1,-0.2,0.15,left,80,2020-12-09_14h02.41.351,premup-three_ses-02_part-02_label-phase2,3.2.4,Win32,60,,,,,,,,,,,,,,,,,1,0,330,273,1,329,2,,,,,,
right,0.515000105,1,244,,,,,,,,,,,,,3,5,1,stim/51.jpeg,Instruments,2,stim/objects/Instruments/oboe.png,0.9,1,-0.2,0.15,right,80,2020-12-09_14h02.41.351,premup-three_ses-02_part-02_label-phase2,3.2.4,Win32,60,,,,,,,,,,,,,,,,,1,0,330,214,1,329,2,,,,,,
right,0.510999918,0,245,,,,,,,,,,,,,3,5,1,stim/51.jpeg,HouseObjects,1,stim/objects/HouseObjects/knife2.png,0.1,3,-0.2,-0.15,left,80,2020-12-09_14h02.41.351,premup-three_ses-02_part-02_label-phase2,3.2.4,Win32,60,,,,,,,,,,,,,,,,,1,0,330,130,1,329,1,,,,,,
left,0.619999886,0,246,,,,,,,,,,,,,3,5,2,stim/52.jpeg,Instruments,2,stim/objects/Instruments/musicstand2.png,0.9,4,0.2,-0.15,right,80,2020-12-09_14h02.41.351,premup-three_ses-02_part-02_label-phase2,3.2.4,Win32,60,,,,,,,,,,,,,,,,,1,0,330,223,1,329,1,,,,,,
,,0,247,,,,,,,,,,,,,1,2,3,stim/23.jpeg,HouseObjects,1,stim/objects/HouseObjects/flyswatter.png,0.5,4,0.2,-0.15,left,80,2020-12-09_14h02.41.351,premup-three_ses-02_part-02_label-phase2,3.2.4,Win32,60,,,,,,,,,,,,,,,,,1,0,330,30,1,329,2,,,,,,
left,0.440999985,1,248,,,,,,,,,,,,,1,2,3,stim/23.jpeg,HouseObjects,1,stim/objects/HouseObjects/hairdryer.png,0.5,4,0.2,-0.15,left,80,2020-12-09_14h02.41.351,premup-three_ses-02_part-02_label-phase2,3.2.4,Win32,60,,,,,,,,,,,,,,,,,1,0,330,34,1,329,2,,,,,,
right,0.594000101,1,249,,,,,,,,,,,,,3,5,3,stim/53.jpeg,Instruments,2,stim/objects/Instruments/metronome.png,0.9,2,0.2,0.15,right,80,2020-12-09_14h02.41.351,premup-three_ses-02_part-02_label-phase2,3.2.4,Win32,60,,,,,,,,,,,,,,,,,1,0,330,216,1,329,2,,,,,,
right,0.510000229,0,250,,,,,,,,,,,,,3,5,4,stim/54.jpeg,HouseObjects,1,stim/objects/HouseObjects/pan2.png,0.1,3,-0.2,-0.15,left,80,2020-12-09_14h02.41.351,premup-three_ses-02_part-02_label-phase2,3.2.4,Win32,60,,,,,,,,,,,,,,,,,1,0,330,133,1,329,1,,,,,,
left,0.746000051,0,251,,,,,,,,,,,,,1,2,2,stim/22.jpeg,Instruments,2,stim/objects/Instruments/timbal.png,0.5,2,0.2,0.15,right,80,2020-12-09_14h02.41.351,premup-three_ses-02_part-02_label-phase2,3.2.4,Win32,60,,,,,,,,,,,,,,,,,1,0,330,57,1,329,1,,,,,,
right,0.585000038,1,252,,,,,,,,,,,,,1,1,1,stim/11.jpeg,Instruments,2,stim/objects/Instruments/electricdrumset.png,0.5,1,-0.2,0.15,right,80,2020-12-09_14h02.41.351,premup-three_ses-02_part-02_label-phase2,3.2.4,Win32,60,,,,,,,,,,,,,,,,,1,0,330,16,1,329,2,,,,,,
left,0.631000042,0,253,,,,,,,,,,,,,1,2,4,stim/24.jpeg,Instruments,2,stim/objects/Instruments/speaker.png,0.5,1,-0.2,0.15,right,80,2020-12-09_14h02.41.351,premup-three_ses-02_part-02_label-phase2,3.2.4,Win32,60,,,,,,,,,,,,,,,,,1,0,330,55,1,329,1,,,,,,
left,0.617000103,1,254,,,,,,,,,,,,,3,6,3,stim/63.jpeg,HouseObjects,1,stim/objects/HouseObjects/knife.png,0.9,4,0.2,-0.15,left,80,2020-12-09_14h02.41.351,premup-three_ses-02_part-02_label-phase2,3.2.4,Win32,60,,,,,,,,,,,,,,,,,1,0,330,300,1,329,2,,,,,,
left,0.402000189,1,255,,,,,,,,,,,,,3,6,1,stim/61.jpeg,HouseObjects,1,stim/objects/HouseObjects/lintroller.png,0.9,3,-0.2,-0.15,left,80,2020-12-09_14h02.41.351,premup-three_ses-02_part-02_label-phase2,3.2.4,Win32,60,,,,,,,,,,,,,,,,,1,0,330,266,1,329,2,,,,,,
right,0.625,1,256,,,,,,,,,,,,,3,5,4,stim/54.jpeg,Instruments,2,stim/objects/Instruments/metronome.png,0.9,2,0.2,0.15,right,80,2020-12-09_14h02.41.351,premup-three_ses-02_part-02_label-phase2,3.2.4,Win32,60,,,,,,,,,,,,,,,,,1,0,330,161,1,329,2,,,,,,
left,0.531000137,0,257,,,,,,,,,,,,,3,6,2,stim/62.jpeg,Instruments,2,stim/objects/Instruments/triangle2.png,0.1,2,0.2,0.15,right,80,2020-12-09_14h02.41.351,premup-three_ses-02_part-02_label-phase2,3.2.4,Win32,60,,,,,,,,,,,,,,,,,1,0,330,323,1,329,1,,,,,,
right,0.815000057,0,258,,,,,,,,,,,,,2,4,1,stim/41.jpeg,HouseObjects,1,stim/objects/HouseObjects/handbrush2.png,0.7,1,-0.2,0.15,left,80,2020-12-09_14h02.41.351,premup-three_ses-02_part-02_label-phase2,3.2.4,Win32,60,,,,,,,,,,,,,,,,,1,0,330,115,1,329,1,,,,,,
right,0.764000177,0,259,,,,,,,,,,,,,1,1,4,stim/14.jpeg,HouseObjects,1,stim/objects/HouseObjects/doormat.png,0.5,4,0.2,-0.15,left,80,2020-12-09_14h02.41.351,premup-three_ses-02_part-02_label-phase2,3.2.4,Win32,60,,,,,,,,,,,,,,,,,1,0,330,3,1,329,2,,,,,,
right,0.667999983,1,260,,,,,,,,,,,,,3,5,1,stim/51.jpeg,Instruments,2,stim/objects/Instruments/musicsheet.png,0.9,4,0.2,-0.15,right,80,2020-12-09_14h02.41.351,premup-three_ses-02_part-02_label-phase2,3.2.4,Win32,60,,,,,,,,,,,,,,,,,1,0,330,182,1,329,2,,,,,,
left,0.476000071,1,261,,,,,,,,,,,,,3,6,4,stim/64.jpeg,HouseObjects,1,stim/objects/HouseObjects/match.png,0.9,1,-0.2,0.15,left,80,2020-12-09_14h02.41.351,premup-three_ses-02_part-02_label-phase2,3.2.4,Win32,60,,,,,,,,,,,,,,,,,1,0,330,237,1,329,2,,,,,,
right,0.563999891,1,262,,,,,,,,,,,,,3,5,3,stim/53.jpeg,Instruments,2,stim/objects/Instruments/metronome.png,0.9,2,0.2,0.15,right,80,2020-12-09_14h02.41.351,premup-three_ses-02_part-02_label-phase2,3.2.4,Win32,60,,,,,,,,,,,,,,,,,1,0,330,156,1,329,2,,,,,,
right,0.647000074,1,263,,,,,,,,,,,,,3,5,3,stim/53.jpeg,Instruments,2,stim/objects/Instruments/metronome.png,0.9,3,-0.2,-0.15,right,80,2020-12-09_14h02.41.351,premup-three_ses-02_part-02_label-phase2,3.2.4,Win32,60,,,,,,,,,,,,,,,,,1,0,330,196,1,329,2,,,,,,
left,0.767999887,1,264,,,,,,,,,,,,,2,4,3,stim/43.jpeg,HouseObjects,1,stim/objects/HouseObjects/iron2.png,0.7,2,0.2,0.15,left,80,2020-12-09_14h02.41.351,premup-three_ses-02_part-02_label-phase2,3.2.4,Win32,60,,,,,,,,,,,,,,,,,1,0,330,117,1,329,1,,,,,,
left,0.636999846,1,265,,,,,,,,,,,,,2,4,2,stim/42.jpeg,HouseObjects,1,stim/objects/HouseObjects/handvacuum2.png,0.7,4,0.2,-0.15,left,80,2020-12-09_14h02.41.351,premup-three_ses-02_part-02_label-phase2,3.2.4,Win32,60,,,,,,,,,,,,,,,,,1,0,330,116,1,329,1,,,,,,
left,0.56099987,0,266,,,,,,,,,,,,,1,2,3,stim/23.jpeg,Instruments,2,stim/objects/Instruments/harmonica.png,0.5,1,-0.2,0.15,right,80,2020-12-09_14h02.41.351,premup-three_ses-02_part-02_label-phase2,3.2.4,Win32,60,,,,,,,,,,,,,,,,,1,0,330,54,1,329,2,,,,,,
left,0.710000038,0,267,,,,,,,,,,,,,1,1,2,stim/12.jpeg,Instruments,2,stim/objects/Instruments/electricguitar.png,0.5,2,0.2,0.15,right,80,2020-12-09_14h02.41.351,premup-three_ses-02_part-02_label-phase2,3.2.4,Win32,60,,,,,,,,,,,,,,,,,1,0,330,17,1,329,2,,,,,,
right,0.444000006,0,268,,,,,,,,,,,,,1,1,3,stim/13.jpeg,HouseObjects,1,stim/objects/HouseObjects/recyclingbin.png,0.5,4,0.2,-0.15,left,80,2020-12-09_14h02.41.351,premup-three_ses-02_part-02_label-phase2,3.2.4,Win32,60,,,,,,,,,,,,,,,,,1,0,330,10,1,329,1,,,,,,
left,0.670000076,0,269,,,,,,,,,,,,,3,5,4,stim/54.jpeg,Instruments,2,stim/objects/Instruments/musicsheet.png,0.9,3,-0.2,-0.15,right,80,2020-12-09_14h02.41.351,premup-three_ses-02_part-02_label-phase2,3.2.4,Win32,60,,,,,,,,,,,,,,,,,1,0,330,197,1,329,2,,,,,,
right,0.618999958,0,270,,,,,,,,,,,,,3,6,3,stim/63.jpeg,HouseObjects,1,stim/objects/HouseObjects/pan.png,0.9,1,-0.2,0.15,left,80,2020-12-09_14h02.41.351,premup-three_ses-02_part-02_label-phase2,3.2.4,Win32,60,,,,,,,,,,,,,,,,,1,0,330,308,1,329,2,,,,,,
left,0.620000124,0,271,,,,,,,,,,,,,3,6,4,stim/64.jpeg,Instruments,2,stim/objects/Instruments/tambourine2.png,0.1,4,0.2,-0.15,right,80,2020-12-09_14h02.41.351,premup-three_ses-02_part-02_label-phase2,3.2.4,Win32,60,,,,,,,,,,,,,,,,,1,0,330,321,1,329,1,,,,,,
right,0.671000004,1,272,,,,,,,,,,,,,3,5,3,stim/53.jpeg,Instruments,2,stim/objects/Instruments/record_player2.png,0.9,2,0.2,0.15,right,80,2020-12-09_14h02.41.351,premup-three_ses-02_part-02_label-phase2,3.2.4,Win32,60,,,,,,,,,,,,,,,,,1,0,330,228,1,329,1,,,,,,
,,0,273,,,,,,,,,,,,,1,1,4,stim/14.jpeg,Instruments,2,stim/objects/Instruments/flute.png,0.5,3,-0.2,-0.15,right,80,2020-12-09_14h02.41.351,premup-three_ses-02_part-02_label-phase2,3.2.4,Win32,60,,,,,,,,,,,,,,,,,1,0,330,23,1,329,2,,,,,,
right,0.465999842,1,274,,,,,,,,,,,,,3,5,3,stim/53.jpeg,Instruments,2,stim/objects/Instruments/marimba2.png,0.9,1,-0.2,0.15,right,80,2020-12-09_14h02.41.351,premup-three_ses-02_part-02_label-phase2,3.2.4,Win32,60,,,,,,,,,,,,,,,,,1,0,330,220,1,329,1,,,,,,
right,0.441999912,0,275,,,,,,,,,,,,,1,1,2,stim/12.jpeg,HouseObjects,1,stim/objects/HouseObjects/cushion.png,0.5,4,0.2,-0.15,left,80,2020-12-09_14h02.41.351,premup-three_ses-02_part-02_label-phase2,3.2.4,Win32,60,,,,,,,,,,,,,,,,,1,0,330,1,1,329,2,,,,,,
right,0.744999886,1,276,,,,,,,,,,,,,3,5,3,stim/53.jpeg,Instruments,2,stim/objects/Instruments/oboe.png,0.9,1,-0.2,0.15,right,80,2020-12-09_14h02.41.351,premup-three_ses-02_part-02_label-phase2,3.2.4,Win32,60,,,,,,,,,,,,,,,,,1,0,330,164,1,329,2,,,,,,
left,0.589000225,1,277,,,,,,,,,,,,,2,4,4,stim/44.jpeg,HouseObjects,1,stim/objects/HouseObjects/handvacuum.png,0.7,2,0.2,0.15,left,80,2020-12-09_14h02.41.351,premup-three_ses-02_part-02_label-phase2,3.2.4,Win32,60,,,,,,,,,,,,,,,,,1,0,330,106,1,329,2,,,,,,
right,0.573999882,1,278,,,,,,,,,,,,,3,5,1,stim/51.jpeg,Instruments,2,stim/objects/Instruments/musicstand.png,0.9,4,0.2,-0.15,right,80,2020-12-09_14h02.41.351,premup-three_ses-02_part-02_label-phase2,3.2.4,Win32,60,,,,,,,,,,,,,,,,,1,0,330,218,1,329,2,,,,,,
left,0.535000086,1,279,,,,,,,,,,,,,3,6,4,stim/64.jpeg,HouseObjects,1,stim/objects/HouseObjects/lintroller.png,0.9,4,0.2,-0.15,left,80,2020-12-09_14h02.41.351,premup-three_ses-02_part-02_label-phase2,3.2.4,Win32,60,,,,,,,,,,,,,,,,,1,0,330,301,1,329,2,,,,,,
right,0.434999943,1,280,,,,,,,,,,,,,1,1,4,stim/14.jpeg,Instruments,2,stim/objects/Instruments/drums.png,0.5,2,0.2,0.15,right,80,2020-12-09_14h02.41.351,premup-three_ses-02_part-02_label-phase2,3.2.4,Win32,60,,,,,,,,,,,,,,,,,1,0,330,15,1,329,2,,,,,,
left,0.496000051,1,281,,,,,,,,,,,,,3,6,2,stim/62.jpeg,HouseObjects,1,stim/objects/HouseObjects/match.png,0.9,3,-0.2,-0.15,left,80,2020-12-09_14h02.41.351,premup-three_ses-02_part-02_label-phase2,3.2.4,Win32,60,,,,,,,,,,,,,,,,,1,0,330,287,1,329,2,,,,,,
right,0.493999958,1,282,,,,,,,,,,,,,3,5,3,stim/53.jpeg,Instruments,2,stim/objects/Instruments/oboe2.png,0.9,4,0.2,-0.15,right,80,2020-12-09_14h02.41.351,premup-three_ses-02_part-02_label-phase2,3.2.4,Win32,60,,,,,,,,,,,,,,,,,1,0,330,224,1,329,1,,,,,,
right,0.549000025,1,283,,,,,,,,,,,,,3,5,3,stim/53.jpeg,Instruments,2,stim/objects/Instruments/metronome.png,0.9,1,-0.2,0.15,right,80,2020-12-09_14h02.41.351,premup-three_ses-02_part-02_label-phase2,3.2.4,Win32,60,,,,,,,,,,,,,,,,,1,0,330,176,1,329,2,,,,,,
left,0.680999994,1,284,,,,,,,,,,,,,3,6,2,stim/62.jpeg,HouseObjects,1,stim/objects/HouseObjects/pan.png,0.9,4,0.2,-0.15,left,80,2020-12-09_14h02.41.351,premup-three_ses-02_part-02_label-phase2,3.2.4,Win32,60,,,,,,,,,,,,,,,,,1,0,330,243,1,329,2,,,,,,
left,0.47300005,1,285,,,,,,,,,,,,,3,6,3,stim/63.jpeg,HouseObjects,1,stim/objects/HouseObjects/thread2.png,0.9,3,-0.2,-0.15,left,80,2020-12-09_14h02.41.351,premup-three_ses-02_part-02_label-phase2,3.2.4,Win32,60,,,,,,,,,,,,,,,,,1,0,330,316,1,329,1,,,,,,
right,0.730000019,0,286,,,,,,,,,,,,,1,1,3,stim/13.jpeg,HouseObjects,1,stim/objects/HouseObjects/safetypin.png,0.5,1,-0.2,0.15,left,80,2020-12-09_14h02.41.351,premup-three_ses-02_part-02_label-phase2,3.2.4,Win32,60,,,,,,,,,,,,,,,,,1,0,330,14,1,329,1,,,,,,
left,0.540999889,1,287,,,,,,,,,,,,,3,6,4,stim/64.jpeg,HouseObjects,1,stim/objects/HouseObjects/knife.png,0.9,2,0.2,0.15,left,80,2020-12-09_14h02.41.351,premup-three_ses-02_part-02_label-phase2,3.2.4,Win32,60,,,,,,,,,,,,,,,,,1,0,330,285,1,329,2,,,,,,
left,0.593999863,1,288,,,,,,,,,,,,,3,6,2,stim/62.jpeg,HouseObjects,1,stim/objects/HouseObjects/pan.png,0.9,3,-0.2,-0.15,left,80,2020-12-09_14h02.41.351,premup-three_ses-02_part-02_label-phase2,3.2.4,Win32,60,,,,,,,,,,,,,,,,,1,0,330,263,1,329,2,,,,,,
right,0.730000019,1,289,,,,,,,,,,,,,2,4,2,stim/42.jpeg,Instruments,2,stim/objects/Instruments/harmonica2.png,0.3,2,0.2,0.15,right,80,2020-12-09_14h02.41.351,premup-three_ses-02_part-02_label-phase2,3.2.4,Win32,60,,,,,,,,,,,,,,,,,1,0,330,124,1,329,1,,,,,,
right,0.577000141,1,290,,,,,,,,,,,,,3,5,1,stim/51.jpeg,Instruments,2,stim/objects/Instruments/musicsheet.png,0.9,4,0.2,-0.15,right,80,2020-12-09_14h02.41.351,premup-three_ses-02_part-02_label-phase2,3.2.4,Win32,60,,,,,,,,,,,,,,,,,1,0,330,162,1,329,2,,,,,,
right,0.65199995,1,291,,,,,,,,,,,,,3,5,4,stim/54.jpeg,Instruments,2,stim/objects/Instruments/musicstand.png,0.9,3,-0.2,-0.15,right,80,2020-12-09_14h02.41.351,premup-three_ses-02_part-02_label-phase2,3.2.4,Win32,60,,,,,,,,,,,,,,,,,1,0,330,153,1,329,2,,,,,,
right,0.734999895,1,292,,,,,,,,,,,,,3,5,3,stim/53.jpeg,Instruments,2,stim/objects/Instruments/oboe.png,0.9,2,0.2,0.15,right,80,2020-12-09_14h02.41.351,premup-three_ses-02_part-02_label-phase2,3.2.4,Win32,60,,,,,,,,,,,,,,,,,1,0,330,204,1,329,2,,,,,,
left,0.801000118,1,293,,,,,,,,,,,,,3,6,1,stim/61.jpeg,HouseObjects,1,stim/objects/HouseObjects/match.png,0.9,1,-0.2,0.15,left,80,2020-12-09_14h02.41.351,premup-three_ses-02_part-02_label-phase2,3.2.4,Win32,60,,,,,,,,,,,,,,,,,1,0,330,262,1,329,2,,,,,,
right,0.634000063,0,294,,,,,,,,,,,,,1,1,4,stim/14.jpeg,HouseObjects,1,stim/objects/HouseObjects/remote.png,0.5,1,-0.2,0.15,left,80,2020-12-09_14h02.41.351,premup-three_ses-02_part-02_label-phase2,3.2.4,Win32,60,,,,,,,,,,,,,,,,,1,0,330,11,1,329,1,,,,,,
right,0.565999985,1,295,,,,,,,,,,,,,3,5,4,stim/54.jpeg,Instruments,2,stim/objects/Instruments/metronome2.png,0.9,3,-0.2,-0.15,right,80,2020-12-09_14h02.41.351,premup-three_ses-02_part-02_label-phase2,3.2.4,Win32,60,,,,,,,,,,,,,,,,,1,0,330,221,1,329,1,,,,,,
left,0.584000111,0,296,,,,,,,,,,,,,2,4,1,stim/41.jpeg,Instruments,2,stim/objects/Instruments/guitarcase2.png,0.3,4,0.2,-0.15,right,80,2020-12-09_14h02.41.351,premup-three_ses-02_part-02_label-phase2,3.2.4,Win32,60,,,,,,,,,,,,,,,,,1,0,330,123,1,329,1,,,,,,
right,0.549999952,1,297,,,,,,,,,,,,,3,5,4,stim/54.jpeg,Instruments,2,stim/objects/Instruments/oboe.png,0.9,2,0.2,0.15,right,80,2020-12-09_14h02.41.351,premup-three_ses-02_part-02_label-phase2,3.2.4,Win32,60,,,,,,,,,,,,,,,,,1,0,330,189,1,329,2,,,,,,
left,0.551000118,1,298,,,,,,,,,,,,,3,6,3,stim/63.jpeg,HouseObjects,1,stim/objects/HouseObjects/knife.png,0.9,2,0.2,0.15,left,80,2020-12-09_14h02.41.351,premup-three_ses-02_part-02_label-phase2,3.2.4,Win32,60,,,,,,,,,,,,,,,,,1,0,330,240,1,329,2,,,,,,
left,0.649999857,1,299,,,,,,,,,,,,,2,4,1,stim/41.jpeg,HouseObjects,1,stim/objects/HouseObjects/iron.png,0.7,4,0.2,-0.15,left,80,2020-12-09_14h02.41.351,premup-three_ses-02_part-02_label-phase2,3.2.4,Win32,60,,,,,,,,,,,,,,,,,1,0,330,107,1,329,2,,,,,,
left,0.523999929,1,300,,,,,,,,,,,,,3,6,3,stim/63.jpeg,HouseObjects,1,stim/objects/HouseObjects/pan.png,0.9,1,-0.2,0.15,left,80,2020-12-09_14h02.41.351,premup-three_ses-02_part-02_label-phase2,3.2.4,Win32,60,,,,,,,,,,,,,,,,,1,0,330,288,1,329,2,,,,,,
left,0.582999945,1,301,,,,,,,,,,,,,3,6,4,stim/64.jpeg,HouseObjects,1,stim/objects/HouseObjects/match.png,0.9,1,-0.2,0.15,left,80,2020-12-09_14h02.41.351,premup-three_ses-02_part-02_label-phase2,3.2.4,Win32,60,,,,,,,,,,,,,,,,,1,0,330,277,1,329,2,,,,,,
left,0.858999968,1,302,,,,,,,,,,,,,2,3,3,stim/33.jpeg,HouseObjects,1,stim/objects/HouseObjects/cushion2.png,0.3,4,0.2,-0.15,left,80,2020-12-09_14h02.41.351,premup-three_ses-02_part-02_label-phase2,3.2.4,Win32,60,,,,,,,,,,,,,,,,,1,0,330,66,1,329,1,,,,,,
right,0.638999939,1,303,,,,,,,,,,,,,3,5,1,stim/51.jpeg,Instruments,2,stim/objects/Instruments/marimba.png,0.9,4,0.2,-0.15,right,80,2020-12-09_14h02.41.351,premup-three_ses-02_part-02_label-phase2,3.2.4,Win32,60,,,,,,,,,,,,,,,,,1,0,330,170,1,329,2,,,,,,
right,0.733999968,0,304,,,,,,,,,,,,,2,3,3,stim/33.jpeg,HouseObjects,1,stim/objects/HouseObjects/towel.png,0.3,4,0.2,-0.15,left,80,2020-12-09_14h02.41.351,premup-three_ses-02_part-02_label-phase2,3.2.4,Win32,60,,,,,,,,,,,,,,,,,1,0,330,62,1,329,1,,,,,,
right,0.427000046,0,305,,,,,,,,,,,,,3,6,4,stim/64.jpeg,HouseObjects,1,stim/objects/HouseObjects/pitcher.png,0.9,4,0.2,-0.15,left,80,2020-12-09_14h02.41.351,premup-three_ses-02_part-02_label-phase2,3.2.4,Win32,60,,,,,,,,,,,,,,,,,1,0,330,289,1,329,2,,,,,,
right,0.711999893,1,306,,,,,,,,,,,,,1,1,1,stim/11.jpeg,Instruments,2,stim/objects/Instruments/drums.png,0.5,3,-0.2,-0.15,right,80,2020-12-09_14h02.41.351,premup-three_ses-02_part-02_label-phase2,3.2.4,Win32,60,,,,,,,,,,,,,,,,,1,0,330,20,1,329,2,,,,,,
right,0.892999887,1,307,,,,,,,,,,,,,2,3,3,stim/33.jpeg,Instruments,2,stim/objects/Instruments/flutetrans2.png,0.7,1,-0.2,0.15,right,80,2020-12-09_14h02.41.351,premup-three_ses-02_part-02_label-phase2,3.2.4,Win32,60,,,,,,,,,,,,,,,,,1,0,330,94,1,329,1,,,,,,
left,0.59100008,1,308,,,,,,,,,,,,,3,6,1,stim/61.jpeg,HouseObjects,1,stim/objects/HouseObjects/pitcher.png,0.9,2,0.2,0.15,left,80,2020-12-09_14h02.41.351,premup-three_ses-02_part-02_label-phase2,3.2.4,Win32,60,,,,,,,,,,,,,,,,,1,0,330,274,1,329,2,,,,,,
right,0.536999941,1,309,,,,,,,,,,,,,3,5,3,stim/53.jpeg,Instruments,2,stim/objects/Instruments/marimba.png,0.9,2,0.2,0.15,right,80,2020-12-09_14h02.41.351,premup-three_ses-02_part-02_label-phase2,3.2.4,Win32,60,,,,,,,,,,,,,,,,,1,0,330,140,1,329,2,,,,,,
left,0.493000031,1,310,,,,,,,,,,,,,3,6,3,stim/63.jpeg,HouseObjects,1,stim/objects/HouseObjects/match.png,0.9,2,0.2,0.15,left,80,2020-12-09_14h02.41.351,premup-three_ses-02_part-02_label-phase2,3.2.4,Win32,60,,,,,,,,,,,,,,,,,1,0,330,292,1,329,2,,,,,,
right,0.547999859,1,311,,,,,,,,,,,,,3,5,4,stim/54.jpeg,Instruments,2,stim/objects/Instruments/panflute2.png,0.9,3,-0.2,-0.15,right,80,2020-12-09_14h02.41.351,premup-three_ses-02_part-02_label-phase2,3.2.4,Win32,60,,,,,,,,,,,,,,,,,1,0,330,225,1,329,1,,,,,,
left,0.486999989,1,312,,,,,,,,,,,,,3,6,3,stim/63.jpeg,HouseObjects,1,stim/objects/HouseObjects/match.png,0.9,1,-0.2,0.15,left,80,2020-12-09_14h02.41.351,premup-three_ses-02_part-02_label-phase2,3.2.4,Win32,60,,,,,,,,,,,,,,,,,1,0,330,272,1,329,2,,,,,,
left,0.667999983,0,313,,,,,,,,,,,,,3,5,4,stim/54.jpeg,Instruments,2,stim/objects/Instruments/saxophone2.png,0.9,1,-0.2,0.15,right,80,2020-12-09_14h02.41.351,premup-three_ses-02_part-02_label-phase2,3.2.4,Win32,60,,,,,,,,,,,,,,,,,1,0,330,229,1,329,1,,,,,,
left,0.612999916,1,314,,,,,,,,,,,,,1,2,2,stim/22.jpeg,HouseObjects,1,stim/objects/HouseObjects/glassmop.png,0.5,1,-0.2,0.15,left,80,2020-12-09_14h02.41.351,premup-three_ses-02_part-02_label-phase2,3.2.4,Win32,60,,,,,,,,,,,,,,,,,1,0,330,33,1,329,2,,,,,,
left,0.549999952,1,315,,,,,,,,,,,,,3,6,4,stim/64.jpeg,HouseObjects,1,stim/objects/HouseObjects/pan.png,0.9,1,-0.2,0.15,left,80,2020-12-09_14h02.41.351,premup-three_ses-02_part-02_label-phase2,3.2.4,Win32,60,,,,,,,,,,,,,,,,,1,0,330,253,1,329,2,,,,,,
right,0.657999992,1,316,,,,,,,,,,,,,3,5,3,stim/53.jpeg,Instruments,2,stim/objects/Instruments/musicstand.png,0.9,3,-0.2,-0.15,right,80,2020-12-09_14h02.41.351,premup-three_ses-02_part-02_label-phase2,3.2.4,Win32,60,,,,,,,,,,,,,,,,,1,0,330,168,1,329,2,,,,,,
right,0.691999912,1,317,,,,,,,,,,,,,1,1,3,stim/13.jpeg,Instruments,2,stim/objects/Instruments/electricguitar.png,0.5,3,-0.2,-0.15,right,80,2020-12-09_14h02.41.351,premup-three_ses-02_part-02_label-phase2,3.2.4,Win32,60,,,,,,,,,,,,,,,,,1,0,330,22,1,329,2,,,,,,
right,0.491000175,1,318,,,,,,,,,,,,,3,5,3,stim/53.jpeg,Instruments,2,stim/objects/Instruments/musicsheet.png,0.9,1,-0.2,0.15,right,80,2020-12-09_14h02.41.351,premup-three_ses-02_part-02_label-phase2,3.2.4,Win32,60,,,,,,,,,,,,,,,,,1,0,330,152,1,329,2,,,,,,
right,0.621999979,1,319,,,,,,,,,,,,,3,5,1,stim/51.jpeg,Instruments,2,stim/objects/Instruments/marimba.png,0.9,3,-0.2,-0.15,right,80,2020-12-09_14h02.41.351,premup-three_ses-02_part-02_label-phase2,3.2.4,Win32,60,,,,,,,,,,,,,,,,,1,0,330,210,1,329,2,,,,,,
right,0.485000134,0,320,,,,,,,,,,,,,3,6,1,stim/61.jpeg,HouseObjects,1,stim/objects/HouseObjects/vacuumcleaner2.png,0.9,1,-0.2,0.15,left,80,2020-12-09_14h02.41.351,premup-three_ses-02_part-02_label-phase2,3.2.4,Win32,60,,,,,,,,,,,,,,,,,1,0,330,318,1,329,1,,,,,,
left,0.5,0,321,,,,,,,,,,,,,3,6,3,stim/63.jpeg,Instruments,2,stim/objects/Instruments/trombone2.png,0.1,4,0.2,-0.15,right,80,2020-12-09_14h02.41.351,premup-three_ses-02_part-02_label-phase2,3.2.4,Win32,60,,,,,,,,,,,,,,,,,1,0,330,324,1,329,1,,,,,,
right,0.713000059,1,322,,,,,,,,,,,,,3,5,2,stim/52.jpeg,Instruments,2,stim/objects/Instruments/marimba.png,0.9,3,-0.2,-0.15,right,80,2020-12-09_14h02.41.351,premup-three_ses-02_part-02_label-phase2,3.2.4,Win32,60,,,,,,,,,,,,,,,,,1,0,330,215,1,329,2,,,,,,
left,0.532999992,1,323,,,,,,,,,,,,,3,6,1,stim/61.jpeg,HouseObjects,1,stim/objects/HouseObjects/knife.png,0.9,3,-0.2,-0.15,left,80,2020-12-09_14h02.41.351,premup-three_ses-02_part-02_label-phase2,3.2.4,Win32,60,,,,,,,,,,,,,,,,,1,0,330,230,1,329,2,,,,,,
right,0.827000141,0,324,,,,,,,,,,,,,3,5,1,stim/51.jpeg,HouseObjects,1,stim/objects/HouseObjects/pitcher2.png,0.1,1,-0.2,0.15,left,80,2020-12-09_14h02.41.351,premup-three_ses-02_part-02_label-phase2,3.2.4,Win32,60,,,,,,,,,,,,,,,,,1,0,330,134,1,329,1,,,,,,
,,0,325,,,,,,,,,,,,,3,5,2,stim/52.jpeg,HouseObjects,1,stim/objects/HouseObjects/recyclingbin2.png,0.1,3,-0.2,-0.15,left,80,2020-12-09_14h02.41.351,premup-three_ses-02_part-02_label-phase2,3.2.4,Win32,60,,,,,,,,,,,,,,,,,1,0,330,135,1,329,1,,,,,,
right,0.411999941,1,326,,,,,,,,,,,,,3,5,1,stim/51.jpeg,Instruments,2,stim/objects/Instruments/marimba.png,0.9,3,-0.2,-0.15,right,80,2020-12-09_14h02.41.351,premup-three_ses-02_part-02_label-phase2,3.2.4,Win32,60,,,,,,,,,,,,,,,,,1,0,330,150,1,329,2,,,,,,
right,0.826999903,0,327,,,,,,,,,,,,,2,3,1,stim/31.jpeg,HouseObjects,1,stim/objects/HouseObjects/thermometer.png,0.3,1,-0.2,0.15,left,80,2020-12-09_14h02.41.351,premup-three_ses-02_part-02_label-phase2,3.2.4,Win32,60,,,,,,,,,,,,,,,,,1,0,330,60,1,329,1,,,,,,
right,0.538000107,1,328,,,,,,,,,,,,,2,3,2,stim/32.jpeg,Instruments,2,stim/objects/Instruments/xylophone.png,0.7,2,0.2,0.15,right,80,2020-12-09_14h02.41.351,premup-three_ses-02_part-02_label-phase2,3.2.4,Win32,60,,,,,,,,,,,,,,,,,1,0,330,89,1,329,1,,,,,,
right,0.634000063,1,329,,,,,,,,,,,,,3,5,3,stim/53.jpeg,Instruments,2,stim/objects/Instruments/musicsheet.png,0.9,1,-0.2,0.15,right,80,2020-12-09_14h02.41.351,premup-three_ses-02_part-02_label-phase2,3.2.4,Win32,60,,,,,,,,,,,,,,,,,1,0,330,212,1,329,2,,,,,,
left,0.663000107,1,330,,,,,,,,,,,,,3,6,1,stim/61.jpeg,HouseObjects,1,stim/objects/HouseObjects/pitcher.png,0.9,3,-0.2,-0.15,left,80,2020-12-09_14h02.41.351,premup-three_ses-02_part-02_label-phase2,3.2.4,Win32,60,,,,,,,,,,,,,,,,,1,0,330,234,1,329,2,,,,,,
left,0.833999872,1,331,,,,,,,,,,,,,2,4,4,stim/44.jpeg,HouseObjects,1,stim/objects/HouseObjects/flyswatter2.png,0.7,1,-0.2,0.15,left,80,2020-12-09_14h02.41.351,premup-three_ses-02_part-02_label-phase2,3.2.4,Win32,60,,,,,,,,,,,,,,,,,1,0,330,110,1,329,1,,,,,,
left,0.506000042,1,332,,,,,,,,,,,,,3,6,1,stim/61.jpeg,HouseObjects,1,stim/objects/HouseObjects/lintroller.png,0.9,4,0.2,-0.15,left,80,2020-12-09_14h02.41.351,premup-three_ses-02_part-02_label-phase2,3.2.4,Win32,60,,,,,,,,,,,,,,,,,1,0,330,286,1,329,2,,,,,,
right,0.844000101,1,333,,,,,,,,,,,,,2,3,1,stim/31.jpeg,Instruments,2,stim/objects/Instruments/harp.png,0.7,3,-0.2,-0.15,right,80,2020-12-09_14h02.41.351,premup-three_ses-02_part-02_label-phase2,3.2.4,Win32,60,,,,,,,,,,,,,,,,,1,0,330,80,1,329,2,,,,,,
left,0.580000162,1,334,,,,,,,,,,,,,2,4,3,stim/43.jpeg,HouseObjects,1,stim/objects/HouseObjects/iron.png,0.7,3,-0.2,-0.15,left,80,2020-12-09_14h02.41.351,premup-three_ses-02_part-02_label-phase2,3.2.4,Win32,60,,,,,,,,,,,,,,,,,1,0,330,97,1,329,2,,,,,,
right,0.476000071,1,335,,,,,,,,,,,,,1,2,3,stim/23.jpeg,Instruments,2,stim/objects/Instruments/frenchhorn.png,0.5,4,0.2,-0.15,right,80,2020-12-09_14h02.41.351,premup-three_ses-02_part-02_label-phase2,3.2.4,Win32,60,,,,,,,,,,,,,,,,,1,0,330,50,1,329,2,,,,,,
right,0.555000067,1,336,,,,,,,,,,,,,3,5,4,stim/54.jpeg,Instruments,2,stim/objects/Instruments/metronome.png,0.9,1,-0.2,0.15,right,80,2020-12-09_14h02.41.351,premup-three_ses-02_part-02_label-phase2,3.2.4,Win32,60,,,,,,,,,,,,,,,,,1,0,330,201,1,329,2,,,,,,
left,0.553999901,0,337,,,,,,,,,,,,,3,6,3,stim/63.jpeg,Instruments,2,stim/objects/Instruments/speaker2.png,0.1,2,0.2,0.15,right,80,2020-12-09_14h02.41.351,premup-three_ses-02_part-02_label-phase2,3.2.4,Win32,60,,,,,,,,,,,,,,,,,1,0,330,320,1,329,1,,,,,,
left,0.538000107,1,338,,,,,,,,,,,,,3,6,2,stim/62.jpeg,HouseObjects,1,stim/objects/HouseObjects/knife.png,0.9,1,-0.2,0.15,left,80,2020-12-09_14h02.41.351,premup-three_ses-02_part-02_label-phase2,3.2.4,Win32,60,,,,,,,,,,,,,,,,,1,0,330,295,1,329,2,,,,,,
left,0.559000015,1,339,,,,,,,,,,,,,2,4,2,stim/42.jpeg,HouseObjects,1,stim/objects/HouseObjects/glass2.png,0.7,2,0.2,0.15,left,80,2020-12-09_14h02.41.351,premup-three_ses-02_part-02_label-phase2,3.2.4,Win32,60,,,,,,,,,,,,,,,,,1,0,330,112,1,329,1,,,,,,
left,0.487999916,1,340,,,,,,,,,,,,,3,6,2,stim/62.jpeg,HouseObjects,1,stim/objects/HouseObjects/lintroller.png,0.9,1,-0.2,0.15,left,80,2020-12-09_14h02.41.351,premup-three_ses-02_part-02_label-phase2,3.2.4,Win32,60,,,,,,,,,,,,,,,,,1,0,330,291,1,329,2,,,,,,
right,0.554000139,1,341,,,,,,,,,,,,,3,5,1,stim/51.jpeg,Instruments,2,stim/objects/Instruments/musicstand.png,0.9,4,0.2,-0.15,right,80,2020-12-09_14h02.41.351,premup-three_ses-02_part-02_label-phase2,3.2.4,Win32,60,,,,,,,,,,,,,,,,,1,0,330,198,1,329,2,,,,,,
right,0.674999952,1,342,,,,,,,,,,,,,2,3,3,stim/33.jpeg,Instruments,2,stim/objects/Instruments/laud.png,0.7,3,-0.2,-0.15,right,80,2020-12-09_14h02.41.351,premup-three_ses-02_part-02_label-phase2,3.2.4,Win32,60,,,,,,,,,,,,,,,,,1,0,330,78,1,329,2,,,,,,
left,0.447000027,1,343,,,,,,,,,,,,,3,6,1,stim/61.jpeg,HouseObjects,1,stim/objects/HouseObjects/lintroller.png,0.9,1,-0.2,0.15,left,80,2020-12-09_14h02.41.351,premup-three_ses-02_part-02_label-phase2,3.2.4,Win32,60,,,,,,,,,,,,,,,,,1,0,330,246,1,329,2,,,,,,
left,0.769000053,0,344,,,,,,,,,,,,,1,2,1,stim/21.jpeg,Instruments,2,stim/objects/Instruments/tambourine.png,0.5,2,0.2,0.15,right,80,2020-12-09_14h02.41.351,premup-three_ses-02_part-02_label-phase2,3.2.4,Win32,60,,,,,,,,,,,,,,,,,1,0,330,56,1,329,1,,,,,,
left,0.723999977,0,345,,,,,,,,,,,,,1,2,2,stim/22.jpeg,Instruments,2,stim/objects/Instruments/frenchhorn.png,0.5,4,0.2,-0.15,right,80,2020-12-09_14h02.41.351,premup-three_ses-02_part-02_label-phase2,3.2.4,Win32,60,,,,,,,,,,,,,,,,,1,0,330,45,1,329,2,,,,,,
left,0.600999832,1,346,,,,,,,,,,,,,3,6,2,stim/62.jpeg,HouseObjects,1,stim/objects/HouseObjects/pan.png,0.9,4,0.2,-0.15,left,80,2020-12-09_14h02.41.351,premup-three_ses-02_part-02_label-phase2,3.2.4,Win32,60,,,,,,,,,,,,,,,,,1,0,330,303,1,329,2,,,,,,
right,0.477999926,1,347,,,,,,,,,,,,,3,5,2,stim/52.jpeg,Instruments,2,stim/objects/Instruments/musicstand.png,0.9,3,-0.2,-0.15,right,80,2020-12-09_14h02.41.351,premup-three_ses-02_part-02_label-phase2,3.2.4,Win32,60,,,,,,,,,,,,,,,,,1,0,330,183,1,329,2,,,,,,
right,0.542999983,0,348,,,,,,,,,,,,,3,6,3,stim/63.jpeg,HouseObjects,1,stim/objects/HouseObjects/sponge2.png,0.9,4,0.2,-0.15,left,80,2020-12-09_14h02.41.351,premup-three_ses-02_part-02_label-phase2,3.2.4,Win32,60,,,,,,,,,,,,,,,,,1,0,330,312,1,329,1,,,,,,
,,0,349,,,,,,,,,,,,,2,3,2,stim/32.jpeg,Instruments,2,stim/objects/Instruments/hihat.png,0.7,2,0.2,0.15,right,80,2020-12-09_14h02.41.351,premup-three_ses-02_part-02_label-phase2,3.2.4,Win32,60,,,,,,,,,,,,,,,,,1,0,330,81,1,329,2,,,,,,
left,0.472000122,1,350,,,,,,,,,,,,,3,6,4,stim/64.jpeg,HouseObjects,1,stim/objects/HouseObjects/lintroller.png,0.9,3,-0.2,-0.15,left,80,2020-12-09_14h02.41.351,premup-three_ses-02_part-02_label-phase2,3.2.4,Win32,60,,,,,,,,,,,,,,,,,1,0,330,281,1,329,2,,,,,,
right,0.70299983,0,351,,,,,,,,,,,,,3,5,2,stim/52.jpeg,HouseObjects,1,stim/objects/HouseObjects/lintroller2.png,0.1,3,-0.2,-0.15,left,80,2020-12-09_14h02.41.351,premup-three_ses-02_part-02_label-phase2,3.2.4,Win32,60,,,,,,,,,,,,,,,,,1,0,330,131,1,329,1,,,,,,
left,0.756999969,1,352,,,,,,,,,,,,,2,3,4,stim/34.jpeg,HouseObjects,1,stim/objects/HouseObjects/vacuumcleaner.png,0.3,3,-0.2,-0.15,left,80,2020-12-09_14h02.41.351,premup-three_ses-02_part-02_label-phase2,3.2.4,Win32,60,,,,,,,,,,,,,,,,,1,0,330,63,1,329,1,,,,,,
left,0.565000057,1,353,,,,,,,,,,,,,3,6,2,stim/62.jpeg,HouseObjects,1,stim/objects/HouseObjects/match.png,0.9,4,0.2,-0.15,left,80,2020-12-09_14h02.41.351,premup-three_ses-02_part-02_label-phase2,3.2.4,Win32,60,,,,,,,,,,,,,,,,,1,0,330,307,1,329,2,,,,,,
left,0.519999981,1,354,,,,,,,,,,,,,3,6,1,stim/61.jpeg,HouseObjects,1,stim/objects/HouseObjects/match.png,0.9,4,0.2,-0.15,left,80,2020-12-09_14h02.41.351,premup-three_ses-02_part-02_label-phase2,3.2.4,Win32,60,,,,,,,,,,,,,,,,,1,0,330,282,1,329,2,,,,,,
left,0.440999985,1,355,,,,,,,,,,,,,3,6,2,stim/62.jpeg,HouseObjects,1,stim/objects/HouseObjects/lintroller.png,0.9,2,0.2,0.15,left,80,2020-12-09_14h02.41.351,premup-three_ses-02_part-02_label-phase2,3.2.4,Win32,60,,,,,,,,,,,,,,,,,1,0,330,271,1,329,2,,,,,,
left,0.436999798,1,356,,,,,,,,,,,,,3,6,3,stim/63.jpeg,HouseObjects,1,stim/objects/HouseObjects/lintroller.png,0.9,1,-0.2,0.15,left,80,2020-12-09_14h02.41.351,premup-three_ses-02_part-02_label-phase2,3.2.4,Win32,60,,,,,,,,,,,,,,,,,1,0,330,276,1,329,2,,,,,,
left,0.687999964,1,357,,,,,,,,,,,,,1,2,4,stim/24.jpeg,HouseObjects,1,stim/objects/HouseObjects/garbagebin.png,0.5,4,0.2,-0.15,left,80,2020-12-09_14h02.41.351,premup-three_ses-02_part-02_label-phase2,3.2.4,Win32,60,,,,,,,,,,,,,,,,,1,0,330,31,1,329,2,,,,,,
right,0.743000031,1,358,,,,,,,,,,,,,3,5,4,stim/54.jpeg,Instruments,2,stim/objects/Instruments/marimba.png,0.9,3,-0.2,-0.15,right,80,2020-12-09_14h02.41.351,premup-three_ses-02_part-02_label-phase2,3.2.4,Win32,60,,,,,,,,,,,,,,,,,1,0,330,165,1,329,2,,,,,,
left,0.592000008,1,359,,,,,,,,,,,,,3,6,4,stim/64.jpeg,HouseObjects,1,stim/objects/HouseObjects/match.png,0.9,4,0.2,-0.15,left,80,2020-12-09_14h02.41.351,premup-three_ses-02_part-02_label-phase2,3.2.4,Win32,60,,,,,,,,,,,,,,,,,1,0,330,297,1,329,2,,,,,,
right,0.579999924,1,360,,,,,,,,,,,,,2,3,1,stim/31.jpeg,Instruments,2,stim/objects/Instruments/vuvuzela.png,0.7,3,-0.2,-0.15,right,80,2020-12-09_14h02.41.351,premup-three_ses-02_part-02_label-phase2,3.2.4,Win32,60,,,,,,,,,,,,,,,,,1,0,330,88,1,329,1,,,,,,
right,0.737999916,0,361,,,,,,,,,,,,,1,1,3,stim/13.jpeg,HouseObjects,1,stim/objects/HouseObjects/dishsoap.png,0.5,4,0.2,-0.15,left,80,2020-12-09_14h02.41.351,premup-three_ses-02_part-02_label-phase2,3.2.4,Win32,60,,,,,,,,,,,,,,,,,1,0,330,2,1,329,2,,,,,,
right,0.624000072,0,362,,,,,,,,,,,,,3,5,3,stim/53.jpeg,HouseObjects,1,stim/objects/HouseObjects/remote2.png,0.1,1,-0.2,0.15,left,80,2020-12-09_14h02.41.351,premup-three_ses-02_part-02_label-phase2,3.2.4,Win32,60,,,,,,,,,,,,,,,,,1,0,330,136,1,329,1,,,,,,
left,0.554000139,1,363,,,,,,,,,,,,,3,6,3,stim/63.jpeg,HouseObjects,1,stim/objects/HouseObjects/lintroller.png,0.9,4,0.2,-0.15,left,80,2020-12-09_14h02.41.351,premup-three_ses-02_part-02_label-phase2,3.2.4,Win32,60,,,,,,,,,,,,,,,,,1,0,330,236,1,329,2,,,,,,
left,0.602999926,1,364,,,,,,,,,,,,,3,6,4,stim/64.jpeg,HouseObjects,1,stim/objects/HouseObjects/lintroller.png,0.9,2,0.2,0.15,left,80,2020-12-09_14h02.41.351,premup-three_ses-02_part-02_label-phase2,3.2.4,Win32,60,,,,,,,,,,,,,,,,,1,0,330,241,1,329,2,,,,,,
right,0.594000101,1,365,,,,,,,,,,,,,3,5,1,stim/51.jpeg,Instruments,2,stim/objects/Instruments/oboe.png,0.9,3,-0.2,-0.15,right,80,2020-12-09_14h02.41.351,premup-three_ses-02_part-02_label-phase2,3.2.4,Win32,60,,,,,,,,,,,,,,,,,1,0,330,154,1,329,2,,,,,,
left,0.544000149,1,366,,,,,,,,,,,,,3,6,3,stim/63.jpeg,HouseObjects,1,stim/objects/HouseObjects/pan.png,0.9,1,-0.2,0.15,left,80,2020-12-09_14h02.41.351,premup-three_ses-02_part-02_label-phase2,3.2.4,Win32,60,,,,,,,,,,,,,,,,,1,0,330,268,1,329,2,,,,,,
left,0.603999853,1,367,,,,,,,,,,,,,1,2,1,stim/21.jpeg,HouseObjects,1,stim/objects/HouseObjects/garbagebin.png,0.5,4,0.2,-0.15,left,80,2020-12-09_14h02.41.351,premup-three_ses-02_part-02_label-phase2,3.2.4,Win32,60,,,,,,,,,,,,,,,,,1,0,330,36,1,329,2,,,,,,
right,0.657000065,0,368,,,,,,,,,,,,,2,3,1,stim/31.jpeg,HouseObjects,1,stim/objects/HouseObjects/wateringcan.png,0.3,1,-0.2,0.15,left,80,2020-12-09_14h02.41.351,premup-three_ses-02_part-02_label-phase2,3.2.4,Win32,60,,,,,,,,,,,,,,,,,1,0,330,64,1,329,1,,,,,,
right,0.772000074,1,369,,,,,,,,,,,,,1,1,4,stim/14.jpeg,Instruments,2,stim/objects/Instruments/record.png,0.5,1,-0.2,0.15,right,80,2020-12-09_14h02.41.351,premup-three_ses-02_part-02_label-phase2,3.2.4,Win32,60,,,,,,,,,,,,,,,,,1,0,330,27,1,329,1,,,,,,
right,0.697999954,0,370,,,,,,,,,,,,,2,3,1,stim/31.jpeg,HouseObjects,1,stim/objects/HouseObjects/doormat2.png,0.3,3,-0.2,-0.15,left,80,2020-12-09_14h02.41.351,premup-three_ses-02_part-02_label-phase2,3.2.4,Win32,60,,,,,,,,,,,,,,,,,1,0,330,68,1,329,1,,,,,,
right,0.661000013,1,371,,,,,,,,,,,,,3,5,2,stim/52.jpeg,Instruments,2,stim/objects/Instruments/record2.png,0.9,2,0.2,0.15,right,80,2020-12-09_14h02.41.351,premup-three_ses-02_part-02_label-phase2,3.2.4,Win32,60,,,,,,,,,,,,,,,,,1,0,330,227,1,329,1,,,,,,
right,0.643999815,0,372,,,,,,,,,,,,,1,1,4,stim/14.jpeg,HouseObjects,1,stim/objects/HouseObjects/dishsoap.png,0.5,1,-0.2,0.15,left,80,2020-12-09_14h02.41.351,premup-three_ses-02_part-02_label-phase2,3.2.4,Win32,60,,,,,,,,,,,,,,,,,1,0,330,7,1,329,2,,,,,,
right,0.761000156,1,373,,,,,,,,,,,,,3,5,2,stim/52.jpeg,Instruments,2,stim/objects/Instruments/metronome.png,0.9,4,0.2,-0.15,right,80,2020-12-09_14h02.41.351,premup-three_ses-02_part-02_label-phase2,3.2.4,Win32,60,,,,,,,,,,,,,,,,,1,0,330,211,1,329,2,,,,,,
left,0.584000111,0,374,,,,,,,,,,,,,3,6,2,stim/62.jpeg,Instruments,2,stim/objects/Instruments/violin2.png,0.1,4,0.2,-0.15,right,80,2020-12-09_14h02.41.351,premup-three_ses-02_part-02_label-phase2,3.2.4,Win32,60,,,,,,,,,,,,,,,,,1,0,330,327,1,329,1,,,,,,
left,0.822000027,0,375,,,,,,,,,,,,,2,3,4,stim/34.jpeg,Instruments,2,stim/objects/Instruments/hihat.png,0.7,4,0.2,-0.15,right,80,2020-12-09_14h02.41.351,premup-three_ses-02_part-02_label-phase2,3.2.4,Win32,60,,,,,,,,,,,,,,,,,1,0,330,71,1,329,2,,,,,,
left,0.667999983,0,376,,,,,,,,,,,,,2,4,4,stim/44.jpeg,Instruments,2,stim/objects/Instruments/hihat2.png,0.3,2,0.2,0.15,right,80,2020-12-09_14h02.41.351,premup-three_ses-02_part-02_label-phase2,3.2.4,Win32,60,,,,,,,,,,,,,,,,,1,0,330,126,1,329,1,,,,,,
right,0.80099988,1,377,,,,,,,,,,,,,3,5,1,stim/51.jpeg,Instruments,2,stim/objects/Instruments/musicsheet.png,0.9,2,0.2,0.15,right,80,2020-12-09_14h02.41.351,premup-three_ses-02_part-02_label-phase2,3.2.4,Win32,60,,,,,,,,,,,,,,,,,1,0,330,142,1,329,2,,,,,,
left,0.648000002,1,378,,,,,,,,,,,,,1,2,4,stim/24.jpeg,HouseObjects,1,stim/objects/HouseObjects/flyswatter.png,0.5,2,0.2,0.15,left,80,2020-12-09_14h02.41.351,premup-three_ses-02_part-02_label-phase2,3.2.4,Win32,60,,,,,,,,,,,,,,,,,1,0,330,35,1,329,2,,,,,,
right,0.582999945,1,379,,,,,,,,,,,,,3,5,4,stim/54.jpeg,Instruments,2,stim/objects/Instruments/metronome.png,0.9,1,-0.2,0.15,right,80,2020-12-09_14h02.41.351,premup-three_ses-02_part-02_label-phase2,3.2.4,Win32,60,,,,,,,,,,,,,,,,,1,0,330,181,1,329,2,,,,,,
left,0.656000137,1,380,,,,,,,,,,,,,2,4,1,stim/41.jpeg,HouseObjects,1,stim/objects/HouseObjects/key.png,0.7,3,-0.2,-0.15,left,80,2020-12-09_14h02.41.351,premup-three_ses-02_part-02_label-phase2,3.2.4,Win32,60,,,,,,,,,,,,,,,,,1,0,330,99,1,329,2,,,,,,
right,0.684000015,1,381,,,,,,,,,,,,,3,5,2,stim/52.jpeg,Instruments,2,stim/objects/Instruments/oboe.png,0.9,1,-0.2,0.15,right,80,2020-12-09_14h02.41.351,premup-three_ses-02_part-02_label-phase2,3.2.4,Win32,60,,,,,,,,,,,,,,,,,1,0,330,179,1,329,2,,,,,,
