key_resp_trial.keys,key_resp_trial.rt,trial_acc,trial_index,iterations.thisRepN,iterations.thisTrialN,iterations.thisN,iterations.thisIndex,iterations.ran,iterations.order,task_innerloop.thisRepN,task_innerloop.thisTrialN,task_innerloop.thisN,task_innerloop.thisIndex,task_innerloop.ran,task_innerloop.order,scn_condition,scn_cat,scn_inst,scn_file,obj_cat,obj_cat_num,obj_file,trial_cond,quadrant,obj_x,obj_y,corr_ans,participant,date,expName,psychopyVersion,OS,frameRate,slider.response,slider.rt,slider_2.response,slider_2.rt,ratings.thisRepN,ratings.thisTrialN,ratings.thisN,ratings.thisIndex,ratings.ran,ratings.order,obj_cat_top,min_resp_top,max_resp_top,obj_cat_bottom,min_resp_bottom,max_resp_bottom,enc_trials.thisRepN,enc_trials.thisTrialN,enc_trials.thisN,enc_trials.thisIndex,enc_trials.ran,enc_trials.order,fillers,ratings_final.thisRepN,ratings_final.thisTrialN,ratings_final.thisN,ratings_final.thisIndex,ratings_final.ran,ratings_final.order
,,0,1,1,0,1,0,1,0,1,0,240,206,1,239,3,6,3,stim/63.jpeg,Instruments,1,stim/objects/Instruments/trumpet2.png,0.9,3,-0.2,-0.15,left,8,2020-12-15_20h36.07.096,premup-three_ses-02_part-02_label-phase2,3.2.4,Win32,60,,,,,,,,,,,,,,,,,,,,,,,,,,,,,
left,0.848000288,1,2,1,0,1,0,1,0,1,0,240,5,1,239,1,1,2,stim/12.jpeg,Instruments,1,stim/objects/Instruments/pipepiano.png,0.5,2,0.2,0.15,left,8,2020-12-15_20h36.07.096,premup-three_ses-02_part-02_label-phase2,3.2.4,Win32,60,,,,,,,,,,,,,,,,,,,,,,,,,,,,,
left,0.695000172,1,3,1,0,1,0,1,0,1,0,240,52,1,239,1,2,1,stim/21.jpeg,Instruments,1,stim/objects/Instruments/saxophone.png,0.5,4,0.2,-0.15,left,8,2020-12-15_20h36.07.096,premup-three_ses-02_part-02_label-phase2,3.2.4,Win32,60,,,,,,,,,,,,,,,,,,,,,,,,,,,,,
right,0.475000143,1,4,1,0,1,0,1,0,1,0,240,110,1,239,2,3,3,stim/33.jpeg,HouseObjects,2,stim/objects/HouseObjects/thermometer.png,0.7,2,0.2,0.15,right,8,2020-12-15_20h36.07.096,premup-three_ses-02_part-02_label-phase2,3.2.4,Win32,60,,,,,,,,,,,,,,,,,,,,,,,,,,,,,
left,0.77300024,1,5,1,0,1,0,1,0,1,0,240,83,1,239,2,3,4,stim/34.jpeg,Instruments,1,stim/objects/Instruments/tuba.png,0.3,3,-0.2,-0.15,left,8,2020-12-15_20h36.07.096,premup-three_ses-02_part-02_label-phase2,3.2.4,Win32,60,,,,,,,,,,,,,,,,,,,,,,,,,,,,,
left,0.832000256,1,6,1,0,1,0,1,0,1,0,240,50,1,239,1,2,3,stim/23.jpeg,Instruments,1,stim/objects/Instruments/tambourine.png,0.5,4,0.2,-0.15,left,8,2020-12-15_20h36.07.096,premup-three_ses-02_part-02_label-phase2,3.2.4,Win32,60,,,,,,,,,,,,,,,,,,,,,,,,,,,,,
left,0.837000132,0,7,1,0,1,0,1,0,1,0,240,38,1,239,1,1,3,stim/13.jpeg,HouseObjects,2,stim/objects/HouseObjects/rubbergloves.png,0.5,2,0.2,0.15,right,8,2020-12-15_20h36.07.096,premup-three_ses-02_part-02_label-phase2,3.2.4,Win32,60,,,,,,,,,,,,,,,,,,,,,,,,,,,,,
,,0,8,1,0,1,0,1,0,1,0,240,145,1,239,2,4,2,stim/42.jpeg,Instruments,1,stim/objects/Instruments/pipepiano2.png,0.7,4,0.2,-0.15,left,8,2020-12-15_20h36.07.096,premup-three_ses-02_part-02_label-phase2,3.2.4,Win32,60,,,,,,,,,,,,,,,,,,,,,,,,,,,,,
left,0.761000156,0,9,1,0,1,0,1,0,1,0,240,65,1,239,1,2,2,stim/22.jpeg,HouseObjects,2,stim/objects/HouseObjects/saw.png,0.5,2,0.2,0.15,right,8,2020-12-15_20h36.07.096,premup-three_ses-02_part-02_label-phase2,3.2.4,Win32,60,,,,,,,,,,,,,,,,,,,,,,,,,,,,,
,,0,10,1,0,1,0,1,0,1,0,240,53,1,239,1,2,2,stim/22.jpeg,Instruments,1,stim/objects/Instruments/speaker.png,0.5,3,-0.2,-0.15,left,8,2020-12-15_20h36.07.096,premup-three_ses-02_part-02_label-phase2,3.2.4,Win32,60,,,,,,,,,,,,,,,,,,,,,,,,,,,,,
left,0.703999996,0,11,1,0,1,0,1,0,1,0,240,29,1,239,1,1,2,stim/12.jpeg,HouseObjects,2,stim/objects/HouseObjects/remote.png,0.5,1,-0.2,0.15,right,8,2020-12-15_20h36.07.096,premup-three_ses-02_part-02_label-phase2,3.2.4,Win32,60,,,,,,,,,,,,,,,,,,,,,,,,,,,,,
,,0,12,1,0,1,0,1,0,1,0,240,152,1,239,2,4,1,stim/41.jpeg,HouseObjects,2,stim/objects/HouseObjects/recyclingbin2.png,0.3,3,-0.2,-0.15,right,8,2020-12-15_20h36.07.096,premup-three_ses-02_part-02_label-phase2,3.2.4,Win32,60,,,,,,,,,,,,,,,,,,,,,,,,,,,,,
right,0.680000067,1,13,1,0,1,0,1,0,1,0,240,25,1,239,1,1,2,stim/12.jpeg,HouseObjects,2,stim/objects/HouseObjects/remote.png,0.5,2,0.2,0.15,right,8,2020-12-15_20h36.07.096,premup-three_ses-02_part-02_label-phase2,3.2.4,Win32,60,,,,,,,,,,,,,,,,,,,,,,,,,,,,,
left,0.652000189,0,14,1,0,1,0,1,0,1,0,240,99,1,239,2,3,4,stim/34.jpeg,HouseObjects,2,stim/objects/HouseObjects/thread.png,0.7,4,0.2,-0.15,right,8,2020-12-15_20h36.07.096,premup-three_ses-02_part-02_label-phase2,3.2.4,Win32,60,,,,,,,,,,,,,,,,,,,,,,,,,,,,,
,,0,15,1,0,1,0,1,0,1,0,240,56,1,239,1,2,1,stim/21.jpeg,Instruments,1,stim/objects/Instruments/saxophone.png,0.5,4,0.2,-0.15,left,8,2020-12-15_20h36.07.096,premup-three_ses-02_part-02_label-phase2,3.2.4,Win32,60,,,,,,,,,,,,,,,,,,,,,,,,,,,,,
,,0,16,1,0,1,0,1,0,1,0,240,139,1,239,2,4,4,stim/44.jpeg,Instruments,1,stim/objects/Instruments/record_player2.png,0.7,1,-0.2,0.15,left,8,2020-12-15_20h36.07.096,premup-three_ses-02_part-02_label-phase2,3.2.4,Win32,60,,,,,,,,,,,,,,,,,,,,,,,,,,,,,
left,0.480000019,0,17,1,0,1,0,1,0,1,0,240,100,1,239,2,3,1,stim/31.jpeg,HouseObjects,2,stim/objects/HouseObjects/spraybottle.png,0.7,4,0.2,-0.15,right,8,2020-12-15_20h36.07.096,premup-three_ses-02_part-02_label-phase2,3.2.4,Win32,60,,,,,,,,,,,,,,,,,,,,,,,,,,,,,
left,0.562000275,1,18,1,0,1,0,1,0,1,0,240,143,1,239,2,4,4,stim/44.jpeg,Instruments,1,stim/objects/Instruments/record_player2.png,0.7,1,-0.2,0.15,left,8,2020-12-15_20h36.07.096,premup-three_ses-02_part-02_label-phase2,3.2.4,Win32,60,,,,,,,,,,,,,,,,,,,,,,,,,,,,,
right,0.48900032,1,19,1,0,1,0,1,0,1,0,240,32,1,239,1,1,1,stim/11.jpeg,HouseObjects,2,stim/objects/HouseObjects/recyclingbin.png,0.5,1,-0.2,0.15,right,8,2020-12-15_20h36.07.096,premup-three_ses-02_part-02_label-phase2,3.2.4,Win32,60,,,,,,,,,,,,,,,,,,,,,,,,,,,,,
left,0.475000143,1,20,1,0,1,0,1,0,1,0,240,47,1,239,1,2,4,stim/24.jpeg,Instruments,1,stim/objects/Instruments/timbal.png,0.5,3,-0.2,-0.15,left,8,2020-12-15_20h36.07.096,premup-three_ses-02_part-02_label-phase2,3.2.4,Win32,60,,,,,,,,,,,,,,,,,,,,,,,,,,,,,
left,0.514000177,0,21,1,0,1,0,1,0,1,0,240,182,1,239,3,5,3,stim/53.jpeg,HouseObjects,2,stim/objects/HouseObjects/scale2.png,0.9,1,-0.2,0.15,right,8,2020-12-15_20h36.07.096,premup-three_ses-02_part-02_label-phase2,3.2.4,Win32,60,,,,,,,,,,,,,,,,,,,,,,,,,,,,,
left,0.586000204,0,22,1,0,1,0,1,0,1,0,240,75,1,239,1,2,4,stim/24.jpeg,HouseObjects,2,stim/objects/HouseObjects/sponge.png,0.5,1,-0.2,0.15,right,8,2020-12-15_20h36.07.096,premup-three_ses-02_part-02_label-phase2,3.2.4,Win32,60,,,,,,,,,,,,,,,,,,,,,,,,,,,,,
left,0.567000151,0,23,1,0,1,0,1,0,1,0,240,103,1,239,2,3,4,stim/34.jpeg,HouseObjects,2,stim/objects/HouseObjects/thread.png,0.7,3,-0.2,-0.15,right,8,2020-12-15_20h36.07.096,premup-three_ses-02_part-02_label-phase2,3.2.4,Win32,60,,,,,,,,,,,,,,,,,,,,,,,,,,,,,
right,0.543000221,1,24,1,0,1,0,1,0,1,0,240,184,1,239,3,5,1,stim/51.jpeg,HouseObjects,2,stim/objects/HouseObjects/safetypin2.png,0.9,4,0.2,-0.15,right,8,2020-12-15_20h36.07.096,premup-three_ses-02_part-02_label-phase2,3.2.4,Win32,60,,,,,,,,,,,,,,,,,,,,,,,,,,,,,
right,0.491000175,1,25,1,0,1,0,1,0,1,0,240,169,1,239,3,5,2,stim/52.jpeg,HouseObjects,2,stim/objects/HouseObjects/saw2.png,0.9,4,0.2,-0.15,right,8,2020-12-15_20h36.07.096,premup-three_ses-02_part-02_label-phase2,3.2.4,Win32,60,,,,,,,,,,,,,,,,,,,,,,,,,,,,,
left,0.539999962,1,26,1,0,1,0,1,0,1,0,240,216,1,239,3,6,1,stim/61.jpeg,Instruments,1,stim/objects/Instruments/triangle2.png,0.9,2,0.2,0.15,left,8,2020-12-15_20h36.07.096,premup-three_ses-02_part-02_label-phase2,3.2.4,Win32,60,,,,,,,,,,,,,,,,,,,,,,,,,,,,,
right,0.522000313,1,27,1,0,1,0,1,0,1,0,240,191,1,239,3,5,4,stim/54.jpeg,HouseObjects,2,stim/objects/HouseObjects/sponge2.png,0.9,2,0.2,0.15,right,8,2020-12-15_20h36.07.096,premup-three_ses-02_part-02_label-phase2,3.2.4,Win32,60,,,,,,,,,,,,,,,,,,,,,,,,,,,,,
left,0.496000051,0,28,1,0,1,0,1,0,1,0,240,97,1,239,2,3,2,stim/32.jpeg,HouseObjects,2,stim/objects/HouseObjects/teapot.png,0.7,4,0.2,-0.15,right,8,2020-12-15_20h36.07.096,premup-three_ses-02_part-02_label-phase2,3.2.4,Win32,60,,,,,,,,,,,,,,,,,,,,,,,,,,,,,
right,0.443000078,0,29,1,0,1,0,1,0,1,0,240,134,1,239,2,4,3,stim/43.jpeg,Instruments,1,stim/objects/Instruments/record2.png,0.7,1,-0.2,0.15,left,8,2020-12-15_20h36.07.096,premup-three_ses-02_part-02_label-phase2,3.2.4,Win32,60,,,,,,,,,,,,,,,,,,,,,,,,,,,,,
left,0.635000229,1,30,1,0,1,0,1,0,1,0,240,18,1,239,1,1,3,stim/13.jpeg,Instruments,1,stim/objects/Instruments/record.png,0.5,1,-0.2,0.15,left,8,2020-12-15_20h36.07.096,premup-three_ses-02_part-02_label-phase2,3.2.4,Win32,60,,,,,,,,,,,,,,,,,,,,,,,,,,,,,
left,0.56400013,0,31,1,0,1,0,1,0,1,0,240,111,1,239,2,3,4,stim/34.jpeg,HouseObjects,2,stim/objects/HouseObjects/thread.png,0.7,2,0.2,0.15,right,8,2020-12-15_20h36.07.096,premup-three_ses-02_part-02_label-phase2,3.2.4,Win32,60,,,,,,,,,,,,,,,,,,,,,,,,,,,,,
left,0.666000128,1,32,1,0,1,0,1,0,1,0,240,162,1,239,3,5,3,stim/53.jpeg,Instruments,1,stim/objects/Instruments/tambourine2.png,0.1,4,0.2,-0.15,left,8,2020-12-15_20h36.07.096,premup-three_ses-02_part-02_label-phase2,3.2.4,Win32,60,,,,,,,,,,,,,,,,,,,,,,,,,,,,,
right,0.467000246,0,33,1,0,1,0,1,0,1,0,240,225,1,239,3,6,2,stim/62.jpeg,Instruments,1,stim/objects/Instruments/trombone2.png,0.9,4,0.2,-0.15,left,8,2020-12-15_20h36.07.096,premup-three_ses-02_part-02_label-phase2,3.2.4,Win32,60,,,,,,,,,,,,,,,,,,,,,,,,,,,,,
left,0.585000038,0,34,1,0,1,0,1,0,1,0,240,26,1,239,1,1,3,stim/13.jpeg,HouseObjects,2,stim/objects/HouseObjects/rubbergloves.png,0.5,4,0.2,-0.15,right,8,2020-12-15_20h36.07.096,premup-three_ses-02_part-02_label-phase2,3.2.4,Win32,60,,,,,,,,,,,,,,,,,,,,,,,,,,,,,
left,0.539999962,1,35,1,0,1,0,1,0,1,0,240,202,1,239,3,6,3,stim/63.jpeg,Instruments,1,stim/objects/Instruments/trumpet2.png,0.9,4,0.2,-0.15,left,8,2020-12-15_20h36.07.096,premup-three_ses-02_part-02_label-phase2,3.2.4,Win32,60,,,,,,,,,,,,,,,,,,,,,,,,,,,,,
left,0.555000305,1,36,1,0,1,0,1,0,1,0,240,233,1,239,3,6,2,stim/62.jpeg,Instruments,1,stim/objects/Instruments/trombone2.png,0.9,1,-0.2,0.15,left,8,2020-12-15_20h36.07.096,premup-three_ses-02_part-02_label-phase2,3.2.4,Win32,60,,,,,,,,,,,,,,,,,,,,,,,,,,,,,
right,0.612000227,0,37,1,0,1,0,1,0,1,0,240,16,1,239,1,1,1,stim/11.jpeg,Instruments,1,stim/objects/Instruments/panflute.png,0.5,2,0.2,0.15,left,8,2020-12-15_20h36.07.096,premup-three_ses-02_part-02_label-phase2,3.2.4,Win32,60,,,,,,,,,,,,,,,,,,,,,,,,,,,,,
left,0.583000183,1,38,1,0,1,0,1,0,1,0,240,2,1,239,1,1,3,stim/13.jpeg,Instruments,1,stim/objects/Instruments/record.png,0.5,3,-0.2,-0.15,left,8,2020-12-15_20h36.07.096,premup-three_ses-02_part-02_label-phase2,3.2.4,Win32,60,,,,,,,,,,,,,,,,,,,,,,,,,,,,,
left,0.610000134,1,39,1,0,1,0,1,0,1,0,240,48,1,239,1,2,1,stim/21.jpeg,Instruments,1,stim/objects/Instruments/saxophone.png,0.5,3,-0.2,-0.15,left,8,2020-12-15_20h36.07.096,premup-three_ses-02_part-02_label-phase2,3.2.4,Win32,60,,,,,,,,,,,,,,,,,,,,,,,,,,,,,
left,0.717000246,0,40,1,0,1,0,1,0,1,0,240,106,1,239,2,3,3,stim/33.jpeg,HouseObjects,2,stim/objects/HouseObjects/thermometer.png,0.7,1,-0.2,0.15,right,8,2020-12-15_20h36.07.096,premup-three_ses-02_part-02_label-phase2,3.2.4,Win32,60,,,,,,,,,,,,,,,,,,,,,,,,,,,,,
,,0,41,1,0,1,0,1,0,1,0,240,80,1,239,2,3,1,stim/31.jpeg,Instruments,1,stim/objects/Instruments/triangle.png,0.3,2,0.2,0.15,left,8,2020-12-15_20h36.07.096,premup-three_ses-02_part-02_label-phase2,3.2.4,Win32,60,,,,,,,,,,,,,,,,,,,,,,,,,,,,,
left,0.592000246,0,42,1,0,1,0,1,0,1,0,240,237,1,239,3,6,2,stim/62.jpeg,HouseObjects,2,stim/objects/HouseObjects/teapot2.png,0.1,1,-0.2,0.15,right,8,2020-12-15_20h36.07.096,premup-three_ses-02_part-02_label-phase2,3.2.4,Win32,60,,,,,,,,,,,,,,,,,,,,,,,,,,,,,
left,0.639000177,1,43,1,0,1,0,1,0,1,0,240,207,1,239,3,6,4,stim/64.jpeg,Instruments,1,stim/objects/Instruments/tuba2.png,0.9,4,0.2,-0.15,left,8,2020-12-15_20h36.07.096,premup-three_ses-02_part-02_label-phase2,3.2.4,Win32,60,,,,,,,,,,,,,,,,,,,,,,,,,,,,,
left,0.548000336,1,44,1,0,1,0,1,0,1,0,240,229,1,239,3,6,2,stim/62.jpeg,Instruments,1,stim/objects/Instruments/trombone2.png,0.9,4,0.2,-0.15,left,8,2020-12-15_20h36.07.096,premup-three_ses-02_part-02_label-phase2,3.2.4,Win32,60,,,,,,,,,,,,,,,,,,,,,,,,,,,,,
left,0.563000202,0,45,1,0,1,0,1,0,1,0,240,73,1,239,1,2,2,stim/22.jpeg,HouseObjects,2,stim/objects/HouseObjects/saw.png,0.5,1,-0.2,0.15,right,8,2020-12-15_20h36.07.096,premup-three_ses-02_part-02_label-phase2,3.2.4,Win32,60,,,,,,,,,,,,,,,,,,,,,,,,,,,,,
left,0.535000086,0,46,1,0,1,0,1,0,1,0,240,67,1,239,1,2,4,stim/24.jpeg,HouseObjects,2,stim/objects/HouseObjects/sponge.png,0.5,2,0.2,0.15,right,8,2020-12-15_20h36.07.096,premup-three_ses-02_part-02_label-phase2,3.2.4,Win32,60,,,,,,,,,,,,,,,,,,,,,,,,,,,,,
left,0.617000103,1,47,1,0,1,0,1,0,1,0,240,43,1,239,1,2,4,stim/24.jpeg,Instruments,1,stim/objects/Instruments/timbal.png,0.5,3,-0.2,-0.15,left,8,2020-12-15_20h36.07.096,premup-three_ses-02_part-02_label-phase2,3.2.4,Win32,60,,,,,,,,,,,,,,,,,,,,,,,,,,,,,
right,0.714000225,1,48,1,0,1,0,1,0,1,0,240,190,1,239,3,5,3,stim/53.jpeg,HouseObjects,2,stim/objects/HouseObjects/scale2.png,0.9,2,0.2,0.15,right,8,2020-12-15_20h36.07.096,premup-three_ses-02_part-02_label-phase2,3.2.4,Win32,60,,,,,,,,,,,,,,,,,,,,,,,,,,,,,
right,0.582000017,0,49,1,0,1,0,1,0,1,0,240,82,1,239,2,3,3,stim/33.jpeg,Instruments,1,stim/objects/Instruments/trumpet.png,0.3,3,-0.2,-0.15,left,8,2020-12-15_20h36.07.096,premup-three_ses-02_part-02_label-phase2,3.2.4,Win32,60,,,,,,,,,,,,,,,,,,,,,,,,,,,,,
left,0.519999981,1,50,1,0,1,0,1,0,1,0,240,221,1,239,3,6,2,stim/62.jpeg,Instruments,1,stim/objects/Instruments/trombone2.png,0.9,1,-0.2,0.15,left,8,2020-12-15_20h36.07.096,premup-three_ses-02_part-02_label-phase2,3.2.4,Win32,60,,,,,,,,,,,,,,,,,,,,,,,,,,,,,
left,0.559000015,1,51,1,0,1,0,1,0,1,0,240,227,1,239,3,6,4,stim/64.jpeg,Instruments,1,stim/objects/Instruments/tuba2.png,0.9,3,-0.2,-0.15,left,8,2020-12-15_20h36.07.096,premup-three_ses-02_part-02_label-phase2,3.2.4,Win32,60,,,,,,,,,,,,,,,,,,,,,,,,,,,,,
right,0.572000027,1,52,1,0,1,0,1,0,1,0,240,179,1,239,3,5,4,stim/54.jpeg,HouseObjects,2,stim/objects/HouseObjects/sponge2.png,0.9,3,-0.2,-0.15,right,8,2020-12-15_20h36.07.096,premup-three_ses-02_part-02_label-phase2,3.2.4,Win32,60,,,,,,,,,,,,,,,,,,,,,,,,,,,,,
left,0.508000374,0,53,1,0,1,0,1,0,1,0,240,23,1,239,1,1,4,stim/14.jpeg,HouseObjects,2,stim/objects/HouseObjects/rug.png,0.5,2,0.2,0.15,right,8,2020-12-15_20h36.07.096,premup-three_ses-02_part-02_label-phase2,3.2.4,Win32,60,,,,,,,,,,,,,,,,,,,,,,,,,,,,,
right,0.713000059,0,54,1,0,1,0,1,0,1,0,240,84,1,239,2,3,1,stim/31.jpeg,Instruments,1,stim/objects/Instruments/triangle.png,0.3,2,0.2,0.15,left,8,2020-12-15_20h36.07.096,premup-three_ses-02_part-02_label-phase2,3.2.4,Win32,60,,,,,,,,,,,,,,,,,,,,,,,,,,,,,
left,0.627000093,1,55,1,0,1,0,1,0,1,0,240,147,1,239,2,4,4,stim/44.jpeg,Instruments,1,stim/objects/Instruments/record_player2.png,0.7,2,0.2,0.15,left,8,2020-12-15_20h36.07.096,premup-three_ses-02_part-02_label-phase2,3.2.4,Win32,60,,,,,,,,,,,,,,,,,,,,,,,,,,,,,
left,0.505000114,0,56,1,0,1,0,1,0,1,0,240,72,1,239,1,2,1,stim/21.jpeg,HouseObjects,2,stim/objects/HouseObjects/safetypin.png,0.5,4,0.2,-0.15,right,8,2020-12-15_20h36.07.096,premup-three_ses-02_part-02_label-phase2,3.2.4,Win32,60,,,,,,,,,,,,,,,,,,,,,,,,,,,,,
right,0.457000017,1,57,1,0,1,0,1,0,1,0,240,157,1,239,2,4,2,stim/42.jpeg,HouseObjects,2,stim/objects/HouseObjects/remote2.png,0.3,2,0.2,0.15,right,8,2020-12-15_20h36.07.096,premup-three_ses-02_part-02_label-phase2,3.2.4,Win32,60,,,,,,,,,,,,,,,,,,,,,,,,,,,,,
left,0.593000174,0,58,1,0,1,0,1,0,1,0,240,112,1,239,2,3,1,stim/31.jpeg,HouseObjects,2,stim/objects/HouseObjects/spraybottle.png,0.7,2,0.2,0.15,right,8,2020-12-15_20h36.07.096,premup-three_ses-02_part-02_label-phase2,3.2.4,Win32,60,,,,,,,,,,,,,,,,,,,,,,,,,,,,,
left,0.616000175,1,59,1,0,1,0,1,0,1,0,240,128,1,239,2,4,1,stim/41.jpeg,Instruments,1,stim/objects/Instruments/panflute2.png,0.7,2,0.2,0.15,left,8,2020-12-15_20h36.07.096,premup-three_ses-02_part-02_label-phase2,3.2.4,Win32,60,,,,,,,,,,,,,,,,,,,,,,,,,,,,,
,,0,60,1,0,1,0,1,0,1,0,240,74,1,239,1,2,3,stim/23.jpeg,HouseObjects,2,stim/objects/HouseObjects/scale.png,0.5,2,0.2,0.15,right,8,2020-12-15_20h36.07.096,premup-three_ses-02_part-02_label-phase2,3.2.4,Win32,60,,,,,,,,,,,,,,,,,,,,,,,,,,,,,
left,0.497000217,1,61,1,0,1,0,1,0,1,0,240,234,1,239,3,6,3,stim/63.jpeg,Instruments,1,stim/objects/Instruments/trumpet2.png,0.9,4,0.2,-0.15,left,8,2020-12-15_20h36.07.096,premup-three_ses-02_part-02_label-phase2,3.2.4,Win32,60,,,,,,,,,,,,,,,,,,,,,,,,,,,,,
right,0.562000275,1,62,1,0,1,0,1,0,1,0,240,196,1,239,3,5,1,stim/51.jpeg,HouseObjects,2,stim/objects/HouseObjects/safetypin2.png,0.9,3,-0.2,-0.15,right,8,2020-12-15_20h36.07.096,premup-three_ses-02_part-02_label-phase2,3.2.4,Win32,60,,,,,,,,,,,,,,,,,,,,,,,,,,,,,
left,0.463000298,1,63,1,0,1,0,1,0,1,0,240,40,1,239,1,2,1,stim/21.jpeg,Instruments,1,stim/objects/Instruments/saxophone.png,0.5,2,0.2,0.15,left,8,2020-12-15_20h36.07.096,premup-three_ses-02_part-02_label-phase2,3.2.4,Win32,60,,,,,,,,,,,,,,,,,,,,,,,,,,,,,
left,0.613000154,1,64,1,0,1,0,1,0,1,0,240,217,1,239,3,6,2,stim/62.jpeg,Instruments,1,stim/objects/Instruments/trombone2.png,0.9,1,-0.2,0.15,left,8,2020-12-15_20h36.07.096,premup-three_ses-02_part-02_label-phase2,3.2.4,Win32,60,,,,,,,,,,,,,,,,,,,,,,,,,,,,,
right,0.532999992,0,65,1,0,1,0,1,0,1,0,240,85,1,239,2,3,2,stim/32.jpeg,Instruments,1,stim/objects/Instruments/trombone.png,0.3,2,0.2,0.15,left,8,2020-12-15_20h36.07.096,premup-three_ses-02_part-02_label-phase2,3.2.4,Win32,60,,,,,,,,,,,,,,,,,,,,,,,,,,,,,
left,0.580000162,1,66,1,0,1,0,1,0,1,0,240,214,1,239,3,6,3,stim/63.jpeg,Instruments,1,stim/objects/Instruments/trumpet2.png,0.9,2,0.2,0.15,left,8,2020-12-15_20h36.07.096,premup-three_ses-02_part-02_label-phase2,3.2.4,Win32,60,,,,,,,,,,,,,,,,,,,,,,,,,,,,,
left,0.575000048,0,67,1,0,1,0,1,0,1,0,240,236,1,239,3,6,1,stim/61.jpeg,HouseObjects,2,stim/objects/HouseObjects/spraybottle2.png,0.1,2,0.2,0.15,right,8,2020-12-15_20h36.07.096,premup-three_ses-02_part-02_label-phase2,3.2.4,Win32,60,,,,,,,,,,,,,,,,,,,,,,,,,,,,,
left,0.546000242,1,68,1,0,1,0,1,0,1,0,240,138,1,239,2,4,3,stim/43.jpeg,Instruments,1,stim/objects/Instruments/record2.png,0.7,2,0.2,0.15,left,8,2020-12-15_20h36.07.096,premup-three_ses-02_part-02_label-phase2,3.2.4,Win32,60,,,,,,,,,,,,,,,,,,,,,,,,,,,,,
right,0.745000124,1,69,1,0,1,0,1,0,1,0,240,66,1,239,1,2,3,stim/23.jpeg,HouseObjects,2,stim/objects/HouseObjects/scale.png,0.5,4,0.2,-0.15,right,8,2020-12-15_20h36.07.096,premup-three_ses-02_part-02_label-phase2,3.2.4,Win32,60,,,,,,,,,,,,,,,,,,,,,,,,,,,,,
right,0.781000137,0,70,1,0,1,0,1,0,1,0,240,89,1,239,2,3,2,stim/32.jpeg,Instruments,1,stim/objects/Instruments/trombone.png,0.3,3,-0.2,-0.15,left,8,2020-12-15_20h36.07.096,premup-three_ses-02_part-02_label-phase2,3.2.4,Win32,60,,,,,,,,,,,,,,,,,,,,,,,,,,,,,
left,0.666000128,0,71,1,0,1,0,1,0,1,0,240,34,1,239,1,1,3,stim/13.jpeg,HouseObjects,2,stim/objects/HouseObjects/rubbergloves.png,0.5,3,-0.2,-0.15,right,8,2020-12-15_20h36.07.096,premup-three_ses-02_part-02_label-phase2,3.2.4,Win32,60,,,,,,,,,,,,,,,,,,,,,,,,,,,,,
left,0.726000071,0,72,1,0,1,0,1,0,1,0,240,95,1,239,2,3,4,stim/34.jpeg,HouseObjects,2,stim/objects/HouseObjects/thread.png,0.7,4,0.2,-0.15,right,8,2020-12-15_20h36.07.096,premup-three_ses-02_part-02_label-phase2,3.2.4,Win32,60,,,,,,,,,,,,,,,,,,,,,,,,,,,,,
right,0.614000082,1,73,1,0,1,0,1,0,1,0,240,185,1,239,3,5,2,stim/52.jpeg,HouseObjects,2,stim/objects/HouseObjects/saw2.png,0.9,2,0.2,0.15,right,8,2020-12-15_20h36.07.096,premup-three_ses-02_part-02_label-phase2,3.2.4,Win32,60,,,,,,,,,,,,,,,,,,,,,,,,,,,,,
left,0.559999943,0,74,1,0,1,0,1,0,1,0,240,96,1,239,2,3,1,stim/31.jpeg,HouseObjects,2,stim/objects/HouseObjects/spraybottle.png,0.7,4,0.2,-0.15,right,8,2020-12-15_20h36.07.096,premup-three_ses-02_part-02_label-phase2,3.2.4,Win32,60,,,,,,,,,,,,,,,,,,,,,,,,,,,,,
right,0.734000206,1,75,1,0,1,0,1,0,1,0,240,104,1,239,2,3,1,stim/31.jpeg,HouseObjects,2,stim/objects/HouseObjects/spraybottle.png,0.7,1,-0.2,0.15,right,8,2020-12-15_20h36.07.096,premup-three_ses-02_part-02_label-phase2,3.2.4,Win32,60,,,,,,,,,,,,,,,,,,,,,,,,,,,,,
right,0.684000015,1,76,1,0,1,0,1,0,1,0,240,164,1,239,3,5,1,stim/51.jpeg,HouseObjects,2,stim/objects/HouseObjects/safetypin2.png,0.9,2,0.2,0.15,right,8,2020-12-15_20h36.07.096,premup-three_ses-02_part-02_label-phase2,3.2.4,Win32,60,,,,,,,,,,,,,,,,,,,,,,,,,,,,,
left,0.563000202,0,77,1,0,1,0,1,0,1,0,240,62,1,239,1,2,3,stim/23.jpeg,HouseObjects,2,stim/objects/HouseObjects/scale.png,0.5,3,-0.2,-0.15,right,8,2020-12-15_20h36.07.096,premup-three_ses-02_part-02_label-phase2,3.2.4,Win32,60,,,,,,,,,,,,,,,,,,,,,,,,,,,,,
left,0.650000334,1,78,1,0,1,0,1,0,1,0,240,126,1,239,2,4,3,stim/43.jpeg,Instruments,1,stim/objects/Instruments/record2.png,0.7,3,-0.2,-0.15,left,8,2020-12-15_20h36.07.096,premup-three_ses-02_part-02_label-phase2,3.2.4,Win32,60,,,,,,,,,,,,,,,,,,,,,,,,,,,,,
right,0.589000225,1,79,1,0,1,0,1,0,1,0,240,198,1,239,3,5,3,stim/53.jpeg,HouseObjects,2,stim/objects/HouseObjects/scale2.png,0.9,1,-0.2,0.15,right,8,2020-12-15_20h36.07.096,premup-three_ses-02_part-02_label-phase2,3.2.4,Win32,60,,,,,,,,,,,,,,,,,,,,,,,,,,,,,
left,0.482000113,0,80,1,0,1,0,1,0,1,0,240,63,1,239,1,2,4,stim/24.jpeg,HouseObjects,2,stim/objects/HouseObjects/sponge.png,0.5,2,0.2,0.15,right,8,2020-12-15_20h36.07.096,premup-three_ses-02_part-02_label-phase2,3.2.4,Win32,60,,,,,,,,,,,,,,,,,,,,,,,,,,,,,
left,0.589000225,1,81,1,0,1,0,1,0,1,0,240,230,1,239,3,6,3,stim/63.jpeg,Instruments,1,stim/objects/Instruments/trumpet2.png,0.9,3,-0.2,-0.15,left,8,2020-12-15_20h36.07.096,premup-three_ses-02_part-02_label-phase2,3.2.4,Win32,60,,,,,,,,,,,,,,,,,,,,,,,,,,,,,
left,0.579000235,1,82,1,0,1,0,1,0,1,0,240,204,1,239,3,6,1,stim/61.jpeg,Instruments,1,stim/objects/Instruments/triangle2.png,0.9,3,-0.2,-0.15,left,8,2020-12-15_20h36.07.096,premup-three_ses-02_part-02_label-phase2,3.2.4,Win32,60,,,,,,,,,,,,,,,,,,,,,,,,,,,,,
left,0.519999981,1,83,1,0,1,0,1,0,1,0,240,215,1,239,3,6,4,stim/64.jpeg,Instruments,1,stim/objects/Instruments/tuba2.png,0.9,3,-0.2,-0.15,left,8,2020-12-15_20h36.07.096,premup-three_ses-02_part-02_label-phase2,3.2.4,Win32,60,,,,,,,,,,,,,,,,,,,,,,,,,,,,,
left,0.565999985,1,84,1,0,1,0,1,0,1,0,240,122,1,239,2,4,3,stim/43.jpeg,Instruments,1,stim/objects/Instruments/record2.png,0.7,3,-0.2,-0.15,left,8,2020-12-15_20h36.07.096,premup-three_ses-02_part-02_label-phase2,3.2.4,Win32,60,,,,,,,,,,,,,,,,,,,,,,,,,,,,,
right,0.594000101,1,85,1,0,1,0,1,0,1,0,240,167,1,239,3,5,4,stim/54.jpeg,HouseObjects,2,stim/objects/HouseObjects/sponge2.png,0.9,1,-0.2,0.15,right,8,2020-12-15_20h36.07.096,premup-three_ses-02_part-02_label-phase2,3.2.4,Win32,60,,,,,,,,,,,,,,,,,,,,,,,,,,,,,
right,0.74600029,0,86,1,0,1,0,1,0,1,0,240,57,1,239,1,2,2,stim/22.jpeg,Instruments,1,stim/objects/Instruments/speaker.png,0.5,1,-0.2,0.15,left,8,2020-12-15_20h36.07.096,premup-three_ses-02_part-02_label-phase2,3.2.4,Win32,60,,,,,,,,,,,,,,,,,,,,,,,,,,,,,
left,0.509000063,1,87,1,0,1,0,1,0,1,0,240,11,1,239,1,1,4,stim/14.jpeg,Instruments,1,stim/objects/Instruments/record_player.png,0.5,4,0.2,-0.15,left,8,2020-12-15_20h36.07.096,premup-three_ses-02_part-02_label-phase2,3.2.4,Win32,60,,,,,,,,,,,,,,,,,,,,,,,,,,,,,
right,0.647000074,0,88,1,0,1,0,1,0,1,0,240,163,1,239,3,5,4,stim/54.jpeg,Instruments,1,stim/objects/Instruments/timbal2.png,0.1,1,-0.2,0.15,left,8,2020-12-15_20h36.07.096,premup-three_ses-02_part-02_label-phase2,3.2.4,Win32,60,,,,,,,,,,,,,,,,,,,,,,,,,,,,,
left,0.620000124,0,89,1,0,1,0,1,0,1,0,240,33,1,239,1,1,2,stim/12.jpeg,HouseObjects,2,stim/objects/HouseObjects/remote.png,0.5,2,0.2,0.15,right,8,2020-12-15_20h36.07.096,premup-three_ses-02_part-02_label-phase2,3.2.4,Win32,60,,,,,,,,,,,,,,,,,,,,,,,,,,,,,
,,0,90,1,0,1,0,1,0,1,0,240,86,1,239,2,3,3,stim/33.jpeg,Instruments,1,stim/objects/Instruments/trumpet.png,0.3,1,-0.2,0.15,left,8,2020-12-15_20h36.07.096,premup-three_ses-02_part-02_label-phase2,3.2.4,Win32,60,,,,,,,,,,,,,,,,,,,,,,,,,,,,,
left,0.595000267,0,91,1,0,1,0,1,0,1,0,240,174,1,239,3,5,3,stim/53.jpeg,HouseObjects,2,stim/objects/HouseObjects/scale2.png,0.9,2,0.2,0.15,right,8,2020-12-15_20h36.07.096,premup-three_ses-02_part-02_label-phase2,3.2.4,Win32,60,,,,,,,,,,,,,,,,,,,,,,,,,,,,,
left,0.532000065,1,92,1,0,1,0,1,0,1,0,240,131,1,239,2,4,4,stim/44.jpeg,Instruments,1,stim/objects/Instruments/record_player2.png,0.7,1,-0.2,0.15,left,8,2020-12-15_20h36.07.096,premup-three_ses-02_part-02_label-phase2,3.2.4,Win32,60,,,,,,,,,,,,,,,,,,,,,,,,,,,,,
left,0.531000137,1,93,1,0,1,0,1,0,1,0,240,224,1,239,3,6,1,stim/61.jpeg,Instruments,1,stim/objects/Instruments/triangle2.png,0.9,4,0.2,-0.15,left,8,2020-12-15_20h36.07.096,premup-three_ses-02_part-02_label-phase2,3.2.4,Win32,60,,,,,,,,,,,,,,,,,,,,,,,,,,,,,
right,0.514000177,1,94,1,0,1,0,1,0,1,0,240,173,1,239,3,5,2,stim/52.jpeg,HouseObjects,2,stim/objects/HouseObjects/saw2.png,0.9,3,-0.2,-0.15,right,8,2020-12-15_20h36.07.096,premup-three_ses-02_part-02_label-phase2,3.2.4,Win32,60,,,,,,,,,,,,,,,,,,,,,,,,,,,,,
left,0.551000118,0,95,1,0,1,0,1,0,1,0,240,238,1,239,3,6,3,stim/63.jpeg,HouseObjects,2,stim/objects/HouseObjects/thermometer2.png,0.1,4,0.2,-0.15,right,8,2020-12-15_20h36.07.096,premup-three_ses-02_part-02_label-phase2,3.2.4,Win32,60,,,,,,,,,,,,,,,,,,,,,,,,,,,,,
left,0.556000233,1,96,1,0,1,0,1,0,1,0,240,125,1,239,2,4,2,stim/42.jpeg,Instruments,1,stim/objects/Instruments/pipepiano2.png,0.7,4,0.2,-0.15,left,8,2020-12-15_20h36.07.096,premup-three_ses-02_part-02_label-phase2,3.2.4,Win32,60,,,,,,,,,,,,,,,,,,,,,,,,,,,,,
right,0.578000069,1,97,1,0,1,0,1,0,1,0,240,176,1,239,3,5,1,stim/51.jpeg,HouseObjects,2,stim/objects/HouseObjects/safetypin2.png,0.9,1,-0.2,0.15,right,8,2020-12-15_20h36.07.096,premup-three_ses-02_part-02_label-phase2,3.2.4,Win32,60,,,,,,,,,,,,,,,,,,,,,,,,,,,,,
left,0.495000124,0,98,1,0,1,0,1,0,1,0,240,149,1,239,2,4,2,stim/42.jpeg,HouseObjects,2,stim/objects/HouseObjects/remote2.png,0.3,3,-0.2,-0.15,right,8,2020-12-15_20h36.07.096,premup-three_ses-02_part-02_label-phase2,3.2.4,Win32,60,,,,,,,,,,,,,,,,,,,,,,,,,,,,,
left,0.583000183,0,99,1,0,1,0,1,0,1,0,240,155,1,239,2,4,4,stim/44.jpeg,HouseObjects,2,stim/objects/HouseObjects/rug2.png,0.3,2,0.2,0.15,right,8,2020-12-15_20h36.07.096,premup-three_ses-02_part-02_label-phase2,3.2.4,Win32,60,,,,,,,,,,,,,,,,,,,,,,,,,,,,,
left,0.549000025,1,100,1,0,1,0,1,0,1,0,240,209,1,239,3,6,2,stim/62.jpeg,Instruments,1,stim/objects/Instruments/trombone2.png,0.9,4,0.2,-0.15,left,8,2020-12-15_20h36.07.096,premup-three_ses-02_part-02_label-phase2,3.2.4,Win32,60,,,,,,,,,,,,,,,,,,,,,,,,,,,,,
left,0.580000162,1,101,1,0,1,0,1,0,1,0,240,219,1,239,3,6,4,stim/64.jpeg,Instruments,1,stim/objects/Instruments/tuba2.png,0.9,2,0.2,0.15,left,8,2020-12-15_20h36.07.096,premup-three_ses-02_part-02_label-phase2,3.2.4,Win32,60,,,,,,,,,,,,,,,,,,,,,,,,,,,,,
left,0.820000172,1,102,1,0,1,0,1,0,1,0,240,46,1,239,1,2,3,stim/23.jpeg,Instruments,1,stim/objects/Instruments/tambourine.png,0.5,4,0.2,-0.15,left,8,2020-12-15_20h36.07.096,premup-three_ses-02_part-02_label-phase2,3.2.4,Win32,60,,,,,,,,,,,,,,,,,,,,,,,,,,,,,
right,0.569000244,1,103,1,0,1,0,1,0,1,0,240,170,1,239,3,5,3,stim/53.jpeg,HouseObjects,2,stim/objects/HouseObjects/scale2.png,0.9,3,-0.2,-0.15,right,8,2020-12-15_20h36.07.096,premup-three_ses-02_part-02_label-phase2,3.2.4,Win32,60,,,,,,,,,,,,,,,,,,,,,,,,,,,,,
left,0.565000057,1,104,1,0,1,0,1,0,1,0,240,0,1,239,1,1,1,stim/11.jpeg,Instruments,1,stim/objects/Instruments/panflute.png,0.5,4,0.2,-0.15,left,8,2020-12-15_20h36.07.096,premup-three_ses-02_part-02_label-phase2,3.2.4,Win32,60,,,,,,,,,,,,,,,,,,,,,,,,,,,,,
left,0.697000265,1,105,1,0,1,0,1,0,1,0,240,51,1,239,1,2,4,stim/24.jpeg,Instruments,1,stim/objects/Instruments/timbal.png,0.5,4,0.2,-0.15,left,8,2020-12-15_20h36.07.096,premup-three_ses-02_part-02_label-phase2,3.2.4,Win32,60,,,,,,,,,,,,,,,,,,,,,,,,,,,,,
left,0.62100029,1,106,1,0,1,0,1,0,1,0,240,211,1,239,3,6,4,stim/64.jpeg,Instruments,1,stim/objects/Instruments/tuba2.png,0.9,2,0.2,0.15,left,8,2020-12-15_20h36.07.096,premup-three_ses-02_part-02_label-phase2,3.2.4,Win32,60,,,,,,,,,,,,,,,,,,,,,,,,,,,,,
left,0.69900012,0,107,1,0,1,0,1,0,1,0,240,60,1,239,1,2,1,stim/21.jpeg,HouseObjects,2,stim/objects/HouseObjects/safetypin.png,0.5,3,-0.2,-0.15,right,8,2020-12-15_20h36.07.096,premup-three_ses-02_part-02_label-phase2,3.2.4,Win32,60,,,,,,,,,,,,,,,,,,,,,,,,,,,,,
right,0.810000181,1,108,1,0,1,0,1,0,1,0,240,69,1,239,1,2,2,stim/22.jpeg,HouseObjects,2,stim/objects/HouseObjects/saw.png,0.5,1,-0.2,0.15,right,8,2020-12-15_20h36.07.096,premup-three_ses-02_part-02_label-phase2,3.2.4,Win32,60,,,,,,,,,,,,,,,,,,,,,,,,,,,,,
left,0.526000261,0,109,1,0,1,0,1,0,1,0,240,153,1,239,2,4,2,stim/42.jpeg,HouseObjects,2,stim/objects/HouseObjects/remote2.png,0.3,2,0.2,0.15,right,8,2020-12-15_20h36.07.096,premup-three_ses-02_part-02_label-phase2,3.2.4,Win32,60,,,,,,,,,,,,,,,,,,,,,,,,,,,,,
left,0.505000353,0,110,1,0,1,0,1,0,1,0,240,118,1,239,2,3,3,stim/33.jpeg,HouseObjects,2,stim/objects/HouseObjects/thermometer.png,0.7,4,0.2,-0.15,right,8,2020-12-15_20h36.07.096,premup-three_ses-02_part-02_label-phase2,3.2.4,Win32,60,,,,,,,,,,,,,,,,,,,,,,,,,,,,,
right,0.619000196,0,111,1,0,1,0,1,0,1,0,240,42,1,239,1,2,3,stim/23.jpeg,Instruments,1,stim/objects/Instruments/tambourine.png,0.5,3,-0.2,-0.15,left,8,2020-12-15_20h36.07.096,premup-three_ses-02_part-02_label-phase2,3.2.4,Win32,60,,,,,,,,,,,,,,,,,,,,,,,,,,,,,
right,0.715000391,1,112,1,0,1,0,1,0,1,0,240,92,1,239,2,3,1,stim/31.jpeg,HouseObjects,2,stim/objects/HouseObjects/spraybottle.png,0.7,3,-0.2,-0.15,right,8,2020-12-15_20h36.07.096,premup-three_ses-02_part-02_label-phase2,3.2.4,Win32,60,,,,,,,,,,,,,,,,,,,,,,,,,,,,,
right,0.6650002,1,113,1,0,1,0,1,0,1,0,240,168,1,239,3,5,1,stim/51.jpeg,HouseObjects,2,stim/objects/HouseObjects/safetypin2.png,0.9,2,0.2,0.15,right,8,2020-12-15_20h36.07.096,premup-three_ses-02_part-02_label-phase2,3.2.4,Win32,60,,,,,,,,,,,,,,,,,,,,,,,,,,,,,
left,0.528000116,1,114,1,0,1,0,1,0,1,0,240,130,1,239,2,4,3,stim/43.jpeg,Instruments,1,stim/objects/Instruments/record2.png,0.7,4,0.2,-0.15,left,8,2020-12-15_20h36.07.096,premup-three_ses-02_part-02_label-phase2,3.2.4,Win32,60,,,,,,,,,,,,,,,,,,,,,,,,,,,,,
right,0.657000065,1,115,1,0,1,0,1,0,1,0,240,114,1,239,2,3,3,stim/33.jpeg,HouseObjects,2,stim/objects/HouseObjects/thermometer.png,0.7,4,0.2,-0.15,right,8,2020-12-15_20h36.07.096,premup-three_ses-02_part-02_label-phase2,3.2.4,Win32,60,,,,,,,,,,,,,,,,,,,,,,,,,,,,,
left,0.620000124,1,116,1,0,1,0,1,0,1,0,240,144,1,239,2,4,1,stim/41.jpeg,Instruments,1,stim/objects/Instruments/panflute2.png,0.7,1,-0.2,0.15,left,8,2020-12-15_20h36.07.096,premup-three_ses-02_part-02_label-phase2,3.2.4,Win32,60,,,,,,,,,,,,,,,,,,,,,,,,,,,,,
left,0.578000069,1,117,1,0,1,0,1,0,1,0,240,222,1,239,3,6,3,stim/63.jpeg,Instruments,1,stim/objects/Instruments/trumpet2.png,0.9,1,-0.2,0.15,left,8,2020-12-15_20h36.07.096,premup-three_ses-02_part-02_label-phase2,3.2.4,Win32,60,,,,,,,,,,,,,,,,,,,,,,,,,,,,,
right,0.703000307,0,118,1,0,1,0,1,0,1,0,240,161,1,239,3,5,2,stim/52.jpeg,Instruments,1,stim/objects/Instruments/speaker2.png,0.1,3,-0.2,-0.15,left,8,2020-12-15_20h36.07.096,premup-three_ses-02_part-02_label-phase2,3.2.4,Win32,60,,,,,,,,,,,,,,,,,,,,,,,,,,,,,
right,0.641000032,1,119,1,0,1,0,1,0,1,0,240,175,1,239,3,5,4,stim/54.jpeg,HouseObjects,2,stim/objects/HouseObjects/sponge2.png,0.9,3,-0.2,-0.15,right,8,2020-12-15_20h36.07.096,premup-three_ses-02_part-02_label-phase2,3.2.4,Win32,60,,,,,,,,,,,,,,,,,,,,,,,,,,,,,
left,0.529000282,1,120,1,0,1,0,1,0,1,0,240,228,1,239,3,6,1,stim/61.jpeg,Instruments,1,stim/objects/Instruments/triangle2.png,0.9,4,0.2,-0.15,left,8,2020-12-15_20h36.07.096,premup-three_ses-02_part-02_label-phase2,3.2.4,Win32,60,,,,,,,,,,,,,,,,,,,,,,,,,,,,,
left,0.671000242,1,121,1,0,1,0,1,0,1,0,240,235,1,239,3,6,4,stim/64.jpeg,Instruments,1,stim/objects/Instruments/tuba2.png,0.9,1,-0.2,0.15,left,8,2020-12-15_20h36.07.096,premup-three_ses-02_part-02_label-phase2,3.2.4,Win32,60,,,,,,,,,,,,,,,,,,,,,,,,,,,,,
left,0.551000118,0,122,1,0,1,0,1,0,1,0,240,156,1,239,2,4,1,stim/41.jpeg,HouseObjects,2,stim/objects/HouseObjects/recyclingbin2.png,0.3,4,0.2,-0.15,right,8,2020-12-15_20h36.07.096,premup-three_ses-02_part-02_label-phase2,3.2.4,Win32,60,,,,,,,,,,,,,,,,,,,,,,,,,,,,,
left,0.57400012,0,123,1,0,1,0,1,0,1,0,240,158,1,239,2,4,3,stim/43.jpeg,HouseObjects,2,stim/objects/HouseObjects/rubbergloves2.png,0.3,4,0.2,-0.15,right,8,2020-12-15_20h36.07.096,premup-three_ses-02_part-02_label-phase2,3.2.4,Win32,60,,,,,,,,,,,,,,,,,,,,,,,,,,,,,
left,0.663000107,1,124,1,0,1,0,1,0,1,0,240,127,1,239,2,4,4,stim/44.jpeg,Instruments,1,stim/objects/Instruments/record_player2.png,0.7,1,-0.2,0.15,left,8,2020-12-15_20h36.07.096,premup-three_ses-02_part-02_label-phase2,3.2.4,Win32,60,,,,,,,,,,,,,,,,,,,,,,,,,,,,,
left,0.778000116,0,125,1,0,1,0,1,0,1,0,240,181,1,239,3,5,2,stim/52.jpeg,HouseObjects,2,stim/objects/HouseObjects/saw2.png,0.9,4,0.2,-0.15,right,8,2020-12-15_20h36.07.096,premup-three_ses-02_part-02_label-phase2,3.2.4,Win32,60,,,,,,,,,,,,,,,,,,,,,,,,,,,,,
left,0.657999992,0,126,1,0,1,0,1,0,1,0,240,24,1,239,1,1,1,stim/11.jpeg,HouseObjects,2,stim/objects/HouseObjects/recyclingbin.png,0.5,2,0.2,0.15,right,8,2020-12-15_20h36.07.096,premup-three_ses-02_part-02_label-phase2,3.2.4,Win32,60,,,,,,,,,,,,,,,,,,,,,,,,,,,,,
left,0.632000208,1,127,1,0,1,0,1,0,1,0,240,137,1,239,2,4,2,stim/42.jpeg,Instruments,1,stim/objects/Instruments/pipepiano2.png,0.7,2,0.2,0.15,left,8,2020-12-15_20h36.07.096,premup-three_ses-02_part-02_label-phase2,3.2.4,Win32,60,,,,,,,,,,,,,,,,,,,,,,,,,,,,,
left,0.63100028,0,128,1,0,1,0,1,0,1,0,240,239,1,239,3,6,4,stim/64.jpeg,HouseObjects,2,stim/objects/HouseObjects/thread2.png,0.1,4,0.2,-0.15,right,8,2020-12-15_20h36.07.096,premup-three_ses-02_part-02_label-phase2,3.2.4,Win32,60,,,,,,,,,,,,,,,,,,,,,,,,,,,,,
left,0.7900002,1,129,1,0,1,0,1,0,1,0,240,6,1,239,1,1,3,stim/13.jpeg,Instruments,1,stim/objects/Instruments/record.png,0.5,2,0.2,0.15,left,8,2020-12-15_20h36.07.096,premup-three_ses-02_part-02_label-phase2,3.2.4,Win32,60,,,,,,,,,,,,,,,,,,,,,,,,,,,,,
right,0.808000088,1,130,1,0,1,0,1,0,1,0,240,102,1,239,2,3,3,stim/33.jpeg,HouseObjects,2,stim/objects/HouseObjects/thermometer.png,0.7,4,0.2,-0.15,right,8,2020-12-15_20h36.07.096,premup-three_ses-02_part-02_label-phase2,3.2.4,Win32,60,,,,,,,,,,,,,,,,,,,,,,,,,,,,,
right,0.680000067,1,131,1,0,1,0,1,0,1,0,240,188,1,239,3,5,1,stim/51.jpeg,HouseObjects,2,stim/objects/HouseObjects/safetypin2.png,0.9,4,0.2,-0.15,right,8,2020-12-15_20h36.07.096,premup-three_ses-02_part-02_label-phase2,3.2.4,Win32,60,,,,,,,,,,,,,,,,,,,,,,,,,,,,,
left,0.551000118,1,132,1,0,1,0,1,0,1,0,240,232,1,239,3,6,1,stim/61.jpeg,Instruments,1,stim/objects/Instruments/triangle2.png,0.9,2,0.2,0.15,left,8,2020-12-15_20h36.07.096,premup-three_ses-02_part-02_label-phase2,3.2.4,Win32,60,,,,,,,,,,,,,,,,,,,,,,,,,,,,,
right,0.572000265,0,133,1,0,1,0,1,0,1,0,240,124,1,239,2,4,1,stim/41.jpeg,Instruments,1,stim/objects/Instruments/panflute2.png,0.7,1,-0.2,0.15,left,8,2020-12-15_20h36.07.096,premup-three_ses-02_part-02_label-phase2,3.2.4,Win32,60,,,,,,,,,,,,,,,,,,,,,,,,,,,,,
left,0.634000063,1,134,1,0,1,0,1,0,1,0,240,13,1,239,1,1,2,stim/12.jpeg,Instruments,1,stim/objects/Instruments/pipepiano.png,0.5,1,-0.2,0.15,left,8,2020-12-15_20h36.07.096,premup-three_ses-02_part-02_label-phase2,3.2.4,Win32,60,,,,,,,,,,,,,,,,,,,,,,,,,,,,,
left,0.587000132,0,135,1,0,1,0,1,0,1,0,240,31,1,239,1,1,4,stim/14.jpeg,HouseObjects,2,stim/objects/HouseObjects/rug.png,0.5,1,-0.2,0.15,right,8,2020-12-15_20h36.07.096,premup-three_ses-02_part-02_label-phase2,3.2.4,Win32,60,,,,,,,,,,,,,,,,,,,,,,,,,,,,,
left,0.588000059,1,136,1,0,1,0,1,0,1,0,240,15,1,239,1,1,4,stim/14.jpeg,Instruments,1,stim/objects/Instruments/record_player.png,0.5,3,-0.2,-0.15,left,8,2020-12-15_20h36.07.096,premup-three_ses-02_part-02_label-phase2,3.2.4,Win32,60,,,,,,,,,,,,,,,,,,,,,,,,,,,,,
left,0.621999979,1,137,1,0,1,0,1,0,1,0,240,201,1,239,3,6,2,stim/62.jpeg,Instruments,1,stim/objects/Instruments/trombone2.png,0.9,1,-0.2,0.15,left,8,2020-12-15_20h36.07.096,premup-three_ses-02_part-02_label-phase2,3.2.4,Win32,60,,,,,,,,,,,,,,,,,,,,,,,,,,,,,
right,0.757000208,0,138,1,0,1,0,1,0,1,0,240,54,1,239,1,2,3,stim/23.jpeg,Instruments,1,stim/objects/Instruments/tambourine.png,0.5,4,0.2,-0.15,left,8,2020-12-15_20h36.07.096,premup-three_ses-02_part-02_label-phase2,3.2.4,Win32,60,,,,,,,,,,,,,,,,,,,,,,,,,,,,,
left,0.654000044,1,139,1,0,1,0,1,0,1,0,240,141,1,239,2,4,2,stim/42.jpeg,Instruments,1,stim/objects/Instruments/pipepiano2.png,0.7,3,-0.2,-0.15,left,8,2020-12-15_20h36.07.096,premup-three_ses-02_part-02_label-phase2,3.2.4,Win32,60,,,,,,,,,,,,,,,,,,,,,,,,,,,,,
,,0,140,1,0,1,0,1,0,1,0,240,55,1,239,1,2,4,stim/24.jpeg,Instruments,1,stim/objects/Instruments/timbal.png,0.5,2,0.2,0.15,left,8,2020-12-15_20h36.07.096,premup-three_ses-02_part-02_label-phase2,3.2.4,Win32,60,,,,,,,,,,,,,,,,,,,,,,,,,,,,,
left,0.592000246,1,141,1,0,1,0,1,0,1,0,240,226,1,239,3,6,3,stim/63.jpeg,Instruments,1,stim/objects/Instruments/trumpet2.png,0.9,2,0.2,0.15,left,8,2020-12-15_20h36.07.096,premup-three_ses-02_part-02_label-phase2,3.2.4,Win32,60,,,,,,,,,,,,,,,,,,,,,,,,,,,,,
left,0.542000294,1,142,1,0,1,0,1,0,1,0,240,10,1,239,1,1,3,stim/13.jpeg,Instruments,1,stim/objects/Instruments/record.png,0.5,3,-0.2,-0.15,left,8,2020-12-15_20h36.07.096,premup-three_ses-02_part-02_label-phase2,3.2.4,Win32,60,,,,,,,,,,,,,,,,,,,,,,,,,,,,,
left,0.572000027,1,143,1,0,1,0,1,0,1,0,240,220,1,239,3,6,1,stim/61.jpeg,Instruments,1,stim/objects/Instruments/triangle2.png,0.9,4,0.2,-0.15,left,8,2020-12-15_20h36.07.096,premup-three_ses-02_part-02_label-phase2,3.2.4,Win32,60,,,,,,,,,,,,,,,,,,,,,,,,,,,,,
left,0.60800004,0,144,1,0,1,0,1,0,1,0,240,64,1,239,1,2,1,stim/21.jpeg,HouseObjects,2,stim/objects/HouseObjects/safetypin.png,0.5,4,0.2,-0.15,right,8,2020-12-15_20h36.07.096,premup-three_ses-02_part-02_label-phase2,3.2.4,Win32,60,,,,,,,,,,,,,,,,,,,,,,,,,,,,,
left,0.613000154,1,145,1,0,1,0,1,0,1,0,240,41,1,239,1,2,2,stim/22.jpeg,Instruments,1,stim/objects/Instruments/speaker.png,0.5,4,0.2,-0.15,left,8,2020-12-15_20h36.07.096,premup-three_ses-02_part-02_label-phase2,3.2.4,Win32,60,,,,,,,,,,,,,,,,,,,,,,,,,,,,,
left,0.640000343,0,146,1,0,1,0,1,0,1,0,240,77,1,239,1,2,2,stim/22.jpeg,HouseObjects,2,stim/objects/HouseObjects/saw.png,0.5,3,-0.2,-0.15,right,8,2020-12-15_20h36.07.096,premup-three_ses-02_part-02_label-phase2,3.2.4,Win32,60,,,,,,,,,,,,,,,,,,,,,,,,,,,,,
left,0.491000175,0,147,1,0,1,0,1,0,1,0,240,166,1,239,3,5,3,stim/53.jpeg,HouseObjects,2,stim/objects/HouseObjects/scale2.png,0.9,2,0.2,0.15,right,8,2020-12-15_20h36.07.096,premup-three_ses-02_part-02_label-phase2,3.2.4,Win32,60,,,,,,,,,,,,,,,,,,,,,,,,,,,,,
right,0.603000164,1,148,1,0,1,0,1,0,1,0,240,194,1,239,3,5,3,stim/53.jpeg,HouseObjects,2,stim/objects/HouseObjects/scale2.png,0.9,1,-0.2,0.15,right,8,2020-12-15_20h36.07.096,premup-three_ses-02_part-02_label-phase2,3.2.4,Win32,60,,,,,,,,,,,,,,,,,,,,,,,,,,,,,
left,0.658000231,1,149,1,0,1,0,1,0,1,0,240,87,1,239,2,3,4,stim/34.jpeg,Instruments,1,stim/objects/Instruments/tuba.png,0.3,2,0.2,0.15,left,8,2020-12-15_20h36.07.096,premup-three_ses-02_part-02_label-phase2,3.2.4,Win32,60,,,,,,,,,,,,,,,,,,,,,,,,,,,,,
right,0.516000271,1,150,1,0,1,0,1,0,1,0,240,180,1,239,3,5,1,stim/51.jpeg,HouseObjects,2,stim/objects/HouseObjects/safetypin2.png,0.9,4,0.2,-0.15,right,8,2020-12-15_20h36.07.096,premup-three_ses-02_part-02_label-phase2,3.2.4,Win32,60,,,,,,,,,,,,,,,,,,,,,,,,,,,,,
right,0.713999987,1,151,1,0,1,0,1,0,1,0,240,61,1,239,1,2,2,stim/22.jpeg,HouseObjects,2,stim/objects/HouseObjects/saw.png,0.5,1,-0.2,0.15,right,8,2020-12-15_20h36.07.096,premup-three_ses-02_part-02_label-phase2,3.2.4,Win32,60,,,,,,,,,,,,,,,,,,,,,,,,,,,,,
left,0.575000048,1,152,1,0,1,0,1,0,1,0,240,208,1,239,3,6,1,stim/61.jpeg,Instruments,1,stim/objects/Instruments/triangle2.png,0.9,2,0.2,0.15,left,8,2020-12-15_20h36.07.096,premup-three_ses-02_part-02_label-phase2,3.2.4,Win32,60,,,,,,,,,,,,,,,,,,,,,,,,,,,,,
right,0.711000204,0,153,1,0,1,0,1,0,1,0,240,90,1,239,2,3,3,stim/33.jpeg,Instruments,1,stim/objects/Instruments/trumpet.png,0.3,4,0.2,-0.15,left,8,2020-12-15_20h36.07.096,premup-three_ses-02_part-02_label-phase2,3.2.4,Win32,60,,,,,,,,,,,,,,,,,,,,,,,,,,,,,
left,0.548000336,1,154,1,0,1,0,1,0,1,0,240,223,1,239,3,6,4,stim/64.jpeg,Instruments,1,stim/objects/Instruments/tuba2.png,0.9,2,0.2,0.15,left,8,2020-12-15_20h36.07.096,premup-three_ses-02_part-02_label-phase2,3.2.4,Win32,60,,,,,,,,,,,,,,,,,,,,,,,,,,,,,
left,0.726000309,0,155,1,0,1,0,1,0,1,0,240,154,1,239,2,4,3,stim/43.jpeg,HouseObjects,2,stim/objects/HouseObjects/rubbergloves2.png,0.3,4,0.2,-0.15,right,8,2020-12-15_20h36.07.096,premup-three_ses-02_part-02_label-phase2,3.2.4,Win32,60,,,,,,,,,,,,,,,,,,,,,,,,,,,,,
left,0.593000174,0,156,1,0,1,0,1,0,1,0,240,21,1,239,1,1,2,stim/12.jpeg,HouseObjects,2,stim/objects/HouseObjects/remote.png,0.5,2,0.2,0.15,right,8,2020-12-15_20h36.07.096,premup-three_ses-02_part-02_label-phase2,3.2.4,Win32,60,,,,,,,,,,,,,,,,,,,,,,,,,,,,,
left,0.620000124,0,157,1,0,1,0,1,0,1,0,240,71,1,239,1,2,4,stim/24.jpeg,HouseObjects,2,stim/objects/HouseObjects/sponge.png,0.5,2,0.2,0.15,right,8,2020-12-15_20h36.07.096,premup-three_ses-02_part-02_label-phase2,3.2.4,Win32,60,,,,,,,,,,,,,,,,,,,,,,,,,,,,,
left,0.65500021,1,158,1,0,1,0,1,0,1,0,240,4,1,239,1,1,1,stim/11.jpeg,Instruments,1,stim/objects/Instruments/panflute.png,0.5,1,-0.2,0.15,left,8,2020-12-15_20h36.07.096,premup-three_ses-02_part-02_label-phase2,3.2.4,Win32,60,,,,,,,,,,,,,,,,,,,,,,,,,,,,,
right,0.612000227,0,159,1,0,1,0,1,0,1,0,240,17,1,239,1,1,2,stim/12.jpeg,Instruments,1,stim/objects/Instruments/pipepiano.png,0.5,4,0.2,-0.15,left,8,2020-12-15_20h36.07.096,premup-three_ses-02_part-02_label-phase2,3.2.4,Win32,60,,,,,,,,,,,,,,,,,,,,,,,,,,,,,
left,0.697999954,1,160,1,0,1,0,1,0,1,0,240,58,1,239,1,2,3,stim/23.jpeg,Instruments,1,stim/objects/Instruments/tambourine.png,0.5,1,-0.2,0.15,left,8,2020-12-15_20h36.07.096,premup-three_ses-02_part-02_label-phase2,3.2.4,Win32,60,,,,,,,,,,,,,,,,,,,,,,,,,,,,,
left,0.59700036,1,161,1,0,1,0,1,0,1,0,240,120,1,239,2,4,1,stim/41.jpeg,Instruments,1,stim/objects/Instruments/panflute2.png,0.7,2,0.2,0.15,left,8,2020-12-15_20h36.07.096,premup-three_ses-02_part-02_label-phase2,3.2.4,Win32,60,,,,,,,,,,,,,,,,,,,,,,,,,,,,,
left,0.715000153,1,162,1,0,1,0,1,0,1,0,240,81,1,239,2,3,2,stim/32.jpeg,Instruments,1,stim/objects/Instruments/trombone.png,0.3,2,0.2,0.15,left,8,2020-12-15_20h36.07.096,premup-three_ses-02_part-02_label-phase2,3.2.4,Win32,60,,,,,,,,,,,,,,,,,,,,,,,,,,,,,
left,0.766000271,0,163,1,0,1,0,1,0,1,0,240,98,1,239,2,3,3,stim/33.jpeg,HouseObjects,2,stim/objects/HouseObjects/thermometer.png,0.7,1,-0.2,0.15,right,8,2020-12-15_20h36.07.096,premup-three_ses-02_part-02_label-phase2,3.2.4,Win32,60,,,,,,,,,,,,,,,,,,,,,,,,,,,,,
left,0.570000172,1,164,1,0,1,0,1,0,1,0,240,140,1,239,2,4,1,stim/41.jpeg,Instruments,1,stim/objects/Instruments/panflute2.png,0.7,2,0.2,0.15,left,8,2020-12-15_20h36.07.096,premup-three_ses-02_part-02_label-phase2,3.2.4,Win32,60,,,,,,,,,,,,,,,,,,,,,,,,,,,,,
right,0.63499999,1,165,1,0,1,0,1,0,1,0,240,172,1,239,3,5,1,stim/51.jpeg,HouseObjects,2,stim/objects/HouseObjects/safetypin2.png,0.9,3,-0.2,-0.15,right,8,2020-12-15_20h36.07.096,premup-three_ses-02_part-02_label-phase2,3.2.4,Win32,60,,,,,,,,,,,,,,,,,,,,,,,,,,,,,
left,0.801000118,1,166,1,0,1,0,1,0,1,0,240,59,1,239,1,2,4,stim/24.jpeg,Instruments,1,stim/objects/Instruments/timbal.png,0.5,1,-0.2,0.15,left,8,2020-12-15_20h36.07.096,premup-three_ses-02_part-02_label-phase2,3.2.4,Win32,60,,,,,,,,,,,,,,,,,,,,,,,,,,,,,
,,0,167,1,0,1,0,1,0,1,0,240,79,1,239,1,2,4,stim/24.jpeg,HouseObjects,2,stim/objects/HouseObjects/sponge.png,0.5,2,0.2,0.15,right,8,2020-12-15_20h36.07.096,premup-three_ses-02_part-02_label-phase2,3.2.4,Win32,60,,,,,,,,,,,,,,,,,,,,,,,,,,,,,
left,0.568000078,0,168,1,0,1,0,1,0,1,0,240,159,1,239,2,4,4,stim/44.jpeg,HouseObjects,2,stim/objects/HouseObjects/rug2.png,0.3,1,-0.2,0.15,right,8,2020-12-15_20h36.07.096,premup-three_ses-02_part-02_label-phase2,3.2.4,Win32,60,,,,,,,,,,,,,,,,,,,,,,,,,,,,,
left,0.623000145,1,169,1,0,1,0,1,0,1,0,240,205,1,239,3,6,2,stim/62.jpeg,Instruments,1,stim/objects/Instruments/trombone2.png,0.9,1,-0.2,0.15,left,8,2020-12-15_20h36.07.096,premup-three_ses-02_part-02_label-phase2,3.2.4,Win32,60,,,,,,,,,,,,,,,,,,,,,,,,,,,,,
right,0.680000067,1,170,1,0,1,0,1,0,1,0,240,20,1,239,1,1,1,stim/11.jpeg,HouseObjects,2,stim/objects/HouseObjects/recyclingbin.png,0.5,3,-0.2,-0.15,right,8,2020-12-15_20h36.07.096,premup-three_ses-02_part-02_label-phase2,3.2.4,Win32,60,,,,,,,,,,,,,,,,,,,,,,,,,,,,,
left,0.559000254,1,171,1,0,1,0,1,0,1,0,240,231,1,239,3,6,4,stim/64.jpeg,Instruments,1,stim/objects/Instruments/tuba2.png,0.9,3,-0.2,-0.15,left,8,2020-12-15_20h36.07.096,premup-three_ses-02_part-02_label-phase2,3.2.4,Win32,60,,,,,,,,,,,,,,,,,,,,,,,,,,,,,
left,0.600000143,1,172,1,0,1,0,1,0,1,0,240,213,1,239,3,6,2,stim/62.jpeg,Instruments,1,stim/objects/Instruments/trombone2.png,0.9,1,-0.2,0.15,left,8,2020-12-15_20h36.07.096,premup-three_ses-02_part-02_label-phase2,3.2.4,Win32,60,,,,,,,,,,,,,,,,,,,,,,,,,,,,,
left,0.562000036,1,173,1,0,1,0,1,0,1,0,240,14,1,239,1,1,3,stim/13.jpeg,Instruments,1,stim/objects/Instruments/record.png,0.5,1,-0.2,0.15,left,8,2020-12-15_20h36.07.096,premup-three_ses-02_part-02_label-phase2,3.2.4,Win32,60,,,,,,,,,,,,,,,,,,,,,,,,,,,,,
left,0.440000296,0,174,1,0,1,0,1,0,1,0,240,119,1,239,2,3,4,stim/34.jpeg,HouseObjects,2,stim/objects/HouseObjects/thread.png,0.7,3,-0.2,-0.15,right,8,2020-12-15_20h36.07.096,premup-three_ses-02_part-02_label-phase2,3.2.4,Win32,60,,,,,,,,,,,,,,,,,,,,,,,,,,,,,
left,0.68900013,0,175,1,0,1,0,1,0,1,0,240,22,1,239,1,1,3,stim/13.jpeg,HouseObjects,2,stim/objects/HouseObjects/rubbergloves.png,0.5,1,-0.2,0.15,right,8,2020-12-15_20h36.07.096,premup-three_ses-02_part-02_label-phase2,3.2.4,Win32,60,,,,,,,,,,,,,,,,,,,,,,,,,,,,,
left,0.406000137,0,176,1,0,1,0,1,0,1,0,240,101,1,239,2,3,2,stim/32.jpeg,HouseObjects,2,stim/objects/HouseObjects/teapot.png,0.7,3,-0.2,-0.15,right,8,2020-12-15_20h36.07.096,premup-three_ses-02_part-02_label-phase2,3.2.4,Win32,60,,,,,,,,,,,,,,,,,,,,,,,,,,,,,
left,0.571000338,0,177,1,0,1,0,1,0,1,0,240,27,1,239,1,1,4,stim/14.jpeg,HouseObjects,2,stim/objects/HouseObjects/rug.png,0.5,4,0.2,-0.15,right,8,2020-12-15_20h36.07.096,premup-three_ses-02_part-02_label-phase2,3.2.4,Win32,60,,,,,,,,,,,,,,,,,,,,,,,,,,,,,
left,0.640000105,1,178,1,0,1,0,1,0,1,0,240,88,1,239,2,3,1,stim/31.jpeg,Instruments,1,stim/objects/Instruments/triangle.png,0.3,3,-0.2,-0.15,left,8,2020-12-15_20h36.07.096,premup-three_ses-02_part-02_label-phase2,3.2.4,Win32,60,,,,,,,,,,,,,,,,,,,,,,,,,,,,,
left,0.710000277,0,179,1,0,1,0,1,0,1,0,240,105,1,239,2,3,2,stim/32.jpeg,HouseObjects,2,stim/objects/HouseObjects/teapot.png,0.7,4,0.2,-0.15,right,8,2020-12-15_20h36.07.096,premup-three_ses-02_part-02_label-phase2,3.2.4,Win32,60,,,,,,,,,,,,,,,,,,,,,,,,,,,,,
left,0.610000134,1,180,1,0,1,0,1,0,1,0,240,218,1,239,3,6,3,stim/63.jpeg,Instruments,1,stim/objects/Instruments/trumpet2.png,0.9,3,-0.2,-0.15,left,8,2020-12-15_20h36.07.096,premup-three_ses-02_part-02_label-phase2,3.2.4,Win32,60,,,,,,,,,,,,,,,,,,,,,,,,,,,,,
left,0.508000135,0,181,1,0,1,0,1,0,1,0,240,116,1,239,2,3,1,stim/31.jpeg,HouseObjects,2,stim/objects/HouseObjects/spraybottle.png,0.7,3,-0.2,-0.15,right,8,2020-12-15_20h36.07.096,premup-three_ses-02_part-02_label-phase2,3.2.4,Win32,60,,,,,,,,,,,,,,,,,,,,,,,,,,,,,
left,0.560000181,1,182,1,0,1,0,1,0,1,0,240,200,1,239,3,6,1,stim/61.jpeg,Instruments,1,stim/objects/Instruments/triangle2.png,0.9,3,-0.2,-0.15,left,8,2020-12-15_20h36.07.096,premup-three_ses-02_part-02_label-phase2,3.2.4,Win32,60,,,,,,,,,,,,,,,,,,,,,,,,,,,,,
left,0.584000349,1,183,1,0,1,0,1,0,1,0,240,19,1,239,1,1,4,stim/14.jpeg,Instruments,1,stim/objects/Instruments/record_player.png,0.5,1,-0.2,0.15,left,8,2020-12-15_20h36.07.096,premup-three_ses-02_part-02_label-phase2,3.2.4,Win32,60,,,,,,,,,,,,,,,,,,,,,,,,,,,,,
left,0.617000103,0,184,1,0,1,0,1,0,1,0,240,107,1,239,2,3,4,stim/34.jpeg,HouseObjects,2,stim/objects/HouseObjects/thread.png,0.7,2,0.2,0.15,right,8,2020-12-15_20h36.07.096,premup-three_ses-02_part-02_label-phase2,3.2.4,Win32,60,,,,,,,,,,,,,,,,,,,,,,,,,,,,,
left,0.471000195,1,185,1,0,1,0,1,0,1,0,240,142,1,239,2,4,3,stim/43.jpeg,Instruments,1,stim/objects/Instruments/record2.png,0.7,1,-0.2,0.15,left,8,2020-12-15_20h36.07.096,premup-three_ses-02_part-02_label-phase2,3.2.4,Win32,60,,,,,,,,,,,,,,,,,,,,,,,,,,,,,
right,0.536000013,1,186,1,0,1,0,1,0,1,0,240,70,1,239,1,2,3,stim/23.jpeg,HouseObjects,2,stim/objects/HouseObjects/scale.png,0.5,4,0.2,-0.15,right,8,2020-12-15_20h36.07.096,premup-three_ses-02_part-02_label-phase2,3.2.4,Win32,60,,,,,,,,,,,,,,,,,,,,,,,,,,,,,
left,0.421000242,0,187,1,0,1,0,1,0,1,0,240,183,1,239,3,5,4,stim/54.jpeg,HouseObjects,2,stim/objects/HouseObjects/sponge2.png,0.9,1,-0.2,0.15,right,8,2020-12-15_20h36.07.096,premup-three_ses-02_part-02_label-phase2,3.2.4,Win32,60,,,,,,,,,,,,,,,,,,,,,,,,,,,,,
left,0.442000151,0,188,1,0,1,0,1,0,1,0,240,148,1,239,2,4,1,stim/41.jpeg,HouseObjects,2,stim/objects/HouseObjects/recyclingbin2.png,0.3,4,0.2,-0.15,right,8,2020-12-15_20h36.07.096,premup-three_ses-02_part-02_label-phase2,3.2.4,Win32,60,,,,,,,,,,,,,,,,,,,,,,,,,,,,,
left,0.525000095,1,189,1,0,1,0,1,0,1,0,240,44,1,239,1,2,1,stim/21.jpeg,Instruments,1,stim/objects/Instruments/saxophone.png,0.5,3,-0.2,-0.15,left,8,2020-12-15_20h36.07.096,premup-three_ses-02_part-02_label-phase2,3.2.4,Win32,60,,,,,,,,,,,,,,,,,,,,,,,,,,,,,
right,0.546000242,1,190,1,0,1,0,1,0,1,0,240,36,1,239,1,1,1,stim/11.jpeg,HouseObjects,2,stim/objects/HouseObjects/recyclingbin.png,0.5,2,0.2,0.15,right,8,2020-12-15_20h36.07.096,premup-three_ses-02_part-02_label-phase2,3.2.4,Win32,60,,,,,,,,,,,,,,,,,,,,,,,,,,,,,
left,0.707000256,0,191,1,0,1,0,1,0,1,0,240,165,1,239,3,5,2,stim/52.jpeg,HouseObjects,2,stim/objects/HouseObjects/saw2.png,0.9,2,0.2,0.15,right,8,2020-12-15_20h36.07.096,premup-three_ses-02_part-02_label-phase2,3.2.4,Win32,60,,,,,,,,,,,,,,,,,,,,,,,,,,,,,
left,0.556000233,0,192,1,0,1,0,1,0,1,0,240,78,1,239,1,2,3,stim/23.jpeg,HouseObjects,2,stim/objects/HouseObjects/scale.png,0.5,1,-0.2,0.15,right,8,2020-12-15_20h36.07.096,premup-three_ses-02_part-02_label-phase2,3.2.4,Win32,60,,,,,,,,,,,,,,,,,,,,,,,,,,,,,
left,0.613000154,1,193,1,0,1,0,1,0,1,0,240,212,1,239,3,6,1,stim/61.jpeg,Instruments,1,stim/objects/Instruments/triangle2.png,0.9,3,-0.2,-0.15,left,8,2020-12-15_20h36.07.096,premup-three_ses-02_part-02_label-phase2,3.2.4,Win32,60,,,,,,,,,,,,,,,,,,,,,,,,,,,,,
right,0.6650002,1,194,1,0,1,0,1,0,1,0,240,193,1,239,3,5,2,stim/52.jpeg,HouseObjects,2,stim/objects/HouseObjects/saw2.png,0.9,3,-0.2,-0.15,right,8,2020-12-15_20h36.07.096,premup-three_ses-02_part-02_label-phase2,3.2.4,Win32,60,,,,,,,,,,,,,,,,,,,,,,,,,,,,,
left,0.64800024,0,195,1,0,1,0,1,0,1,0,240,150,1,239,2,4,3,stim/43.jpeg,HouseObjects,2,stim/objects/HouseObjects/rubbergloves2.png,0.3,3,-0.2,-0.15,right,8,2020-12-15_20h36.07.096,premup-three_ses-02_part-02_label-phase2,3.2.4,Win32,60,,,,,,,,,,,,,,,,,,,,,,,,,,,,,
left,0.715000153,0,196,1,0,1,0,1,0,1,0,240,93,1,239,2,3,2,stim/32.jpeg,HouseObjects,2,stim/objects/HouseObjects/teapot.png,0.7,1,-0.2,0.15,right,8,2020-12-15_20h36.07.096,premup-three_ses-02_part-02_label-phase2,3.2.4,Win32,60,,,,,,,,,,,,,,,,,,,,,,,,,,,,,
left,0.653000116,1,197,1,0,1,0,1,0,1,0,240,3,1,239,1,1,4,stim/14.jpeg,Instruments,1,stim/objects/Instruments/record_player.png,0.5,4,0.2,-0.15,left,8,2020-12-15_20h36.07.096,premup-three_ses-02_part-02_label-phase2,3.2.4,Win32,60,,,,,,,,,,,,,,,,,,,,,,,,,,,,,
left,0.457000256,1,198,1,0,1,0,1,0,1,0,240,133,1,239,2,4,2,stim/42.jpeg,Instruments,1,stim/objects/Instruments/pipepiano2.png,0.7,1,-0.2,0.15,left,8,2020-12-15_20h36.07.096,premup-three_ses-02_part-02_label-phase2,3.2.4,Win32,60,,,,,,,,,,,,,,,,,,,,,,,,,,,,,
left,0.548000336,0,199,1,0,1,0,1,0,1,0,240,113,1,239,2,3,2,stim/32.jpeg,HouseObjects,2,stim/objects/HouseObjects/teapot.png,0.7,3,-0.2,-0.15,right,8,2020-12-15_20h36.07.096,premup-three_ses-02_part-02_label-phase2,3.2.4,Win32,60,,,,,,,,,,,,,,,,,,,,,,,,,,,,,
left,0.647000313,1,200,1,0,1,0,1,0,1,0,240,1,1,239,1,1,2,stim/12.jpeg,Instruments,1,stim/objects/Instruments/pipepiano.png,0.5,4,0.2,-0.15,left,8,2020-12-15_20h36.07.096,premup-three_ses-02_part-02_label-phase2,3.2.4,Win32,60,,,,,,,,,,,,,,,,,,,,,,,,,,,,,
left,0.545000076,0,201,1,0,1,0,1,0,1,0,240,94,1,239,2,3,3,stim/33.jpeg,HouseObjects,2,stim/objects/HouseObjects/thermometer.png,0.7,2,0.2,0.15,right,8,2020-12-15_20h36.07.096,premup-three_ses-02_part-02_label-phase2,3.2.4,Win32,60,,,,,,,,,,,,,,,,,,,,,,,,,,,,,
left,0.637000084,1,202,1,0,1,0,1,0,1,0,240,121,1,239,2,4,2,stim/42.jpeg,Instruments,1,stim/objects/Instruments/pipepiano2.png,0.7,3,-0.2,-0.15,left,8,2020-12-15_20h36.07.096,premup-three_ses-02_part-02_label-phase2,3.2.4,Win32,60,,,,,,,,,,,,,,,,,,,,,,,,,,,,,
right,0.632000208,1,203,1,0,1,0,1,0,1,0,240,186,1,239,3,5,3,stim/53.jpeg,HouseObjects,2,stim/objects/HouseObjects/scale2.png,0.9,2,0.2,0.15,right,8,2020-12-15_20h36.07.096,premup-three_ses-02_part-02_label-phase2,3.2.4,Win32,60,,,,,,,,,,,,,,,,,,,,,,,,,,,,,
left,0.551000118,1,204,1,0,1,0,1,0,1,0,240,132,1,239,2,4,1,stim/41.jpeg,Instruments,1,stim/objects/Instruments/panflute2.png,0.7,1,-0.2,0.15,left,8,2020-12-15_20h36.07.096,premup-three_ses-02_part-02_label-phase2,3.2.4,Win32,60,,,,,,,,,,,,,,,,,,,,,,,,,,,,,
right,0.611000061,1,205,1,0,1,0,1,0,1,0,240,192,1,239,3,5,1,stim/51.jpeg,HouseObjects,2,stim/objects/HouseObjects/safetypin2.png,0.9,1,-0.2,0.15,right,8,2020-12-15_20h36.07.096,premup-three_ses-02_part-02_label-phase2,3.2.4,Win32,60,,,,,,,,,,,,,,,,,,,,,,,,,,,,,
left,0.536000252,0,206,1,0,1,0,1,0,1,0,240,68,1,239,1,2,1,stim/21.jpeg,HouseObjects,2,stim/objects/HouseObjects/safetypin.png,0.5,3,-0.2,-0.15,right,8,2020-12-15_20h36.07.096,premup-three_ses-02_part-02_label-phase2,3.2.4,Win32,60,,,,,,,,,,,,,,,,,,,,,,,,,,,,,
left,0.656000137,0,207,1,0,1,0,1,0,1,0,240,108,1,239,2,3,1,stim/31.jpeg,HouseObjects,2,stim/objects/HouseObjects/spraybottle.png,0.7,2,0.2,0.15,right,8,2020-12-15_20h36.07.096,premup-three_ses-02_part-02_label-phase2,3.2.4,Win32,60,,,,,,,,,,,,,,,,,,,,,,,,,,,,,
left,0.735000134,1,208,1,0,1,0,1,0,1,0,240,12,1,239,1,1,1,stim/11.jpeg,Instruments,1,stim/objects/Instruments/panflute.png,0.5,1,-0.2,0.15,left,8,2020-12-15_20h36.07.096,premup-three_ses-02_part-02_label-phase2,3.2.4,Win32,60,,,,,,,,,,,,,,,,,,,,,,,,,,,,,
left,0.805000067,1,209,1,0,1,0,1,0,1,0,240,9,1,239,1,1,2,stim/12.jpeg,Instruments,1,stim/objects/Instruments/pipepiano.png,0.5,3,-0.2,-0.15,left,8,2020-12-15_20h36.07.096,premup-three_ses-02_part-02_label-phase2,3.2.4,Win32,60,,,,,,,,,,,,,,,,,,,,,,,,,,,,,
left,0.705000162,0,210,1,0,1,0,1,0,1,0,240,76,1,239,1,2,1,stim/21.jpeg,HouseObjects,2,stim/objects/HouseObjects/safetypin.png,0.5,3,-0.2,-0.15,right,8,2020-12-15_20h36.07.096,premup-three_ses-02_part-02_label-phase2,3.2.4,Win32,60,,,,,,,,,,,,,,,,,,,,,,,,,,,,,
right,0.711000204,1,211,1,0,1,0,1,0,1,0,240,199,1,239,3,5,4,stim/54.jpeg,HouseObjects,2,stim/objects/HouseObjects/sponge2.png,0.9,4,0.2,-0.15,right,8,2020-12-15_20h36.07.096,premup-three_ses-02_part-02_label-phase2,3.2.4,Win32,60,,,,,,,,,,,,,,,,,,,,,,,,,,,,,
right,0.821000338,1,212,1,0,1,0,1,0,1,0,240,189,1,239,3,5,2,stim/52.jpeg,HouseObjects,2,stim/objects/HouseObjects/saw2.png,0.9,3,-0.2,-0.15,right,8,2020-12-15_20h36.07.096,premup-three_ses-02_part-02_label-phase2,3.2.4,Win32,60,,,,,,,,,,,,,,,,,,,,,,,,,,,,,
,,0,213,1,0,1,0,1,0,1,0,240,109,1,239,2,3,2,stim/32.jpeg,HouseObjects,2,stim/objects/HouseObjects/teapot.png,0.7,1,-0.2,0.15,right,8,2020-12-15_20h36.07.096,premup-three_ses-02_part-02_label-phase2,3.2.4,Win32,60,,,,,,,,,,,,,,,,,,,,,,,,,,,,,
left,0.785000086,0,214,1,0,1,0,1,0,1,0,240,151,1,239,2,4,4,stim/44.jpeg,HouseObjects,2,stim/objects/HouseObjects/rug2.png,0.3,4,0.2,-0.15,right,8,2020-12-15_20h36.07.096,premup-three_ses-02_part-02_label-phase2,3.2.4,Win32,60,,,,,,,,,,,,,,,,,,,,,,,,,,,,,
right,0.570000172,0,215,1,0,1,0,1,0,1,0,240,135,1,239,2,4,4,stim/44.jpeg,Instruments,1,stim/objects/Instruments/record_player2.png,0.7,4,0.2,-0.15,left,8,2020-12-15_20h36.07.096,premup-three_ses-02_part-02_label-phase2,3.2.4,Win32,60,,,,,,,,,,,,,,,,,,,,,,,,,,,,,
left,0.700000286,0,216,1,0,1,0,1,0,1,0,240,28,1,239,1,1,1,stim/11.jpeg,HouseObjects,2,stim/objects/HouseObjects/recyclingbin.png,0.5,2,0.2,0.15,right,8,2020-12-15_20h36.07.096,premup-three_ses-02_part-02_label-phase2,3.2.4,Win32,60,,,,,,,,,,,,,,,,,,,,,,,,,,,,,
right,0.609000206,1,217,1,0,1,0,1,0,1,0,240,195,1,239,3,5,4,stim/54.jpeg,HouseObjects,2,stim/objects/HouseObjects/sponge2.png,0.9,2,0.2,0.15,right,8,2020-12-15_20h36.07.096,premup-three_ses-02_part-02_label-phase2,3.2.4,Win32,60,,,,,,,,,,,,,,,,,,,,,,,,,,,,,
right,0.539000273,1,218,1,0,1,0,1,0,1,0,240,197,1,239,3,5,2,stim/52.jpeg,HouseObjects,2,stim/objects/HouseObjects/saw2.png,0.9,2,0.2,0.15,right,8,2020-12-15_20h36.07.096,premup-three_ses-02_part-02_label-phase2,3.2.4,Win32,60,,,,,,,,,,,,,,,,,,,,,,,,,,,,,
right,0.569000244,0,219,1,0,1,0,1,0,1,0,240,49,1,239,1,2,2,stim/22.jpeg,Instruments,1,stim/objects/Instruments/speaker.png,0.5,4,0.2,-0.15,left,8,2020-12-15_20h36.07.096,premup-three_ses-02_part-02_label-phase2,3.2.4,Win32,60,,,,,,,,,,,,,,,,,,,,,,,,,,,,,
left,0.417999983,0,220,1,0,1,0,1,0,1,0,240,35,1,239,1,1,4,stim/14.jpeg,HouseObjects,2,stim/objects/HouseObjects/rug.png,0.5,3,-0.2,-0.15,right,8,2020-12-15_20h36.07.096,premup-three_ses-02_part-02_label-phase2,3.2.4,Win32,60,,,,,,,,,,,,,,,,,,,,,,,,,,,,,
right,0.361999989,0,221,1,0,1,0,1,0,1,0,240,7,1,239,1,1,4,stim/14.jpeg,Instruments,1,stim/objects/Instruments/record_player.png,0.5,4,0.2,-0.15,left,8,2020-12-15_20h36.07.096,premup-three_ses-02_part-02_label-phase2,3.2.4,Win32,60,,,,,,,,,,,,,,,,,,,,,,,,,,,,,
left,0.519000053,1,222,1,0,1,0,1,0,1,0,240,8,1,239,1,1,1,stim/11.jpeg,Instruments,1,stim/objects/Instruments/panflute.png,0.5,2,0.2,0.15,left,8,2020-12-15_20h36.07.096,premup-three_ses-02_part-02_label-phase2,3.2.4,Win32,60,,,,,,,,,,,,,,,,,,,,,,,,,,,,,
right,0.654000044,1,223,1,0,1,0,1,0,1,0,240,37,1,239,1,1,2,stim/12.jpeg,HouseObjects,2,stim/objects/HouseObjects/remote.png,0.5,3,-0.2,-0.15,right,8,2020-12-15_20h36.07.096,premup-three_ses-02_part-02_label-phase2,3.2.4,Win32,60,,,,,,,,,,,,,,,,,,,,,,,,,,,,,
left,0.527000189,1,224,1,0,1,0,1,0,1,0,240,129,1,239,2,4,2,stim/42.jpeg,Instruments,1,stim/objects/Instruments/pipepiano2.png,0.7,1,-0.2,0.15,left,8,2020-12-15_20h36.07.096,premup-three_ses-02_part-02_label-phase2,3.2.4,Win32,60,,,,,,,,,,,,,,,,,,,,,,,,,,,,,
left,0.663000107,1,225,1,0,1,0,1,0,1,0,240,210,1,239,3,6,3,stim/63.jpeg,Instruments,1,stim/objects/Instruments/trumpet2.png,0.9,3,-0.2,-0.15,left,8,2020-12-15_20h36.07.096,premup-three_ses-02_part-02_label-phase2,3.2.4,Win32,60,,,,,,,,,,,,,,,,,,,,,,,,,,,,,
left,0.522000074,1,226,1,0,1,0,1,0,1,0,240,123,1,239,2,4,4,stim/44.jpeg,Instruments,1,stim/objects/Instruments/record_player2.png,0.7,3,-0.2,-0.15,left,8,2020-12-15_20h36.07.096,premup-three_ses-02_part-02_label-phase2,3.2.4,Win32,60,,,,,,,,,,,,,,,,,,,,,,,,,,,,,
right,0.612000227,0,227,1,0,1,0,1,0,1,0,240,45,1,239,1,2,2,stim/22.jpeg,Instruments,1,stim/objects/Instruments/speaker.png,0.5,1,-0.2,0.15,left,8,2020-12-15_20h36.07.096,premup-three_ses-02_part-02_label-phase2,3.2.4,Win32,60,,,,,,,,,,,,,,,,,,,,,,,,,,,,,
left,0.548000336,1,228,1,0,1,0,1,0,1,0,240,146,1,239,2,4,3,stim/43.jpeg,Instruments,1,stim/objects/Instruments/record2.png,0.7,1,-0.2,0.15,left,8,2020-12-15_20h36.07.096,premup-three_ses-02_part-02_label-phase2,3.2.4,Win32,60,,,,,,,,,,,,,,,,,,,,,,,,,,,,,
left,0.606000185,1,229,1,0,1,0,1,0,1,0,240,203,1,239,3,6,4,stim/64.jpeg,Instruments,1,stim/objects/Instruments/tuba2.png,0.9,3,-0.2,-0.15,left,8,2020-12-15_20h36.07.096,premup-three_ses-02_part-02_label-phase2,3.2.4,Win32,60,,,,,,,,,,,,,,,,,,,,,,,,,,,,,
left,0.681000233,0,230,1,0,1,0,1,0,1,0,240,117,1,239,2,3,2,stim/32.jpeg,HouseObjects,2,stim/objects/HouseObjects/teapot.png,0.7,1,-0.2,0.15,right,8,2020-12-15_20h36.07.096,premup-three_ses-02_part-02_label-phase2,3.2.4,Win32,60,,,,,,,,,,,,,,,,,,,,,,,,,,,,,
right,0.616000175,1,231,1,0,1,0,1,0,1,0,240,187,1,239,3,5,4,stim/54.jpeg,HouseObjects,2,stim/objects/HouseObjects/sponge2.png,0.9,1,-0.2,0.15,right,8,2020-12-15_20h36.07.096,premup-three_ses-02_part-02_label-phase2,3.2.4,Win32,60,,,,,,,,,,,,,,,,,,,,,,,,,,,,,
right,0.532000065,1,232,1,0,1,0,1,0,1,0,240,178,1,239,3,5,3,stim/53.jpeg,HouseObjects,2,stim/objects/HouseObjects/scale2.png,0.9,1,-0.2,0.15,right,8,2020-12-15_20h36.07.096,premup-three_ses-02_part-02_label-phase2,3.2.4,Win32,60,,,,,,,,,,,,,,,,,,,,,,,,,,,,,
right,0.633000135,1,233,1,0,1,0,1,0,1,0,240,39,1,239,1,1,4,stim/14.jpeg,HouseObjects,2,stim/objects/HouseObjects/rug.png,0.5,1,-0.2,0.15,right,8,2020-12-15_20h36.07.096,premup-three_ses-02_part-02_label-phase2,3.2.4,Win32,60,,,,,,,,,,,,,,,,,,,,,,,,,,,,,
right,0.715000153,0,234,1,0,1,0,1,0,1,0,240,160,1,239,3,5,1,stim/51.jpeg,Instruments,1,stim/objects/Instruments/saxophone2.png,0.1,4,0.2,-0.15,left,8,2020-12-15_20h36.07.096,premup-three_ses-02_part-02_label-phase2,3.2.4,Win32,60,,,,,,,,,,,,,,,,,,,,,,,,,,,,,
right,0.631000042,1,235,1,0,1,0,1,0,1,0,240,177,1,239,3,5,2,stim/52.jpeg,HouseObjects,2,stim/objects/HouseObjects/saw2.png,0.9,1,-0.2,0.15,right,8,2020-12-15_20h36.07.096,premup-three_ses-02_part-02_label-phase2,3.2.4,Win32,60,,,,,,,,,,,,,,,,,,,,,,,,,,,,,
left,0.549000025,1,236,1,0,1,0,1,0,1,0,240,136,1,239,2,4,1,stim/41.jpeg,Instruments,1,stim/objects/Instruments/panflute2.png,0.7,3,-0.2,-0.15,left,8,2020-12-15_20h36.07.096,premup-three_ses-02_part-02_label-phase2,3.2.4,Win32,60,,,,,,,,,,,,,,,,,,,,,,,,,,,,,
left,0.569000006,1,237,1,0,1,0,1,0,1,0,240,91,1,239,2,3,4,stim/34.jpeg,Instruments,1,stim/objects/Instruments/tuba.png,0.3,3,-0.2,-0.15,left,8,2020-12-15_20h36.07.096,premup-three_ses-02_part-02_label-phase2,3.2.4,Win32,60,,,,,,,,,,,,,,,,,,,,,,,,,,,,,
right,0.498000145,1,238,1,0,1,0,1,0,1,0,240,171,1,239,3,5,4,stim/54.jpeg,HouseObjects,2,stim/objects/HouseObjects/sponge2.png,0.9,4,0.2,-0.15,right,8,2020-12-15_20h36.07.096,premup-three_ses-02_part-02_label-phase2,3.2.4,Win32,60,,,,,,,,,,,,,,,,,,,,,,,,,,,,,
left,0.583000183,0,239,1,0,1,0,1,0,1,0,240,30,1,239,1,1,3,stim/13.jpeg,HouseObjects,2,stim/objects/HouseObjects/rubbergloves.png,0.5,3,-0.2,-0.15,right,8,2020-12-15_20h36.07.096,premup-three_ses-02_part-02_label-phase2,3.2.4,Win32,60,,,,,,,,,,,,,,,,,,,,,,,,,,,,,
right,0.550000191,1,240,1,0,1,0,1,0,1,0,240,115,1,239,2,3,4,stim/34.jpeg,HouseObjects,2,stim/objects/HouseObjects/thread.png,0.7,4,0.2,-0.15,right,8,2020-12-15_20h36.07.096,premup-three_ses-02_part-02_label-phase2,3.2.4,Win32,60,,,,,,,,,,,,,,,,,,,,,,,,,,,,,
,,,,1,0,1,0,1,0,,,,,,,,5,,stim/51.jpeg,,,,,,,,,8,2020-12-15_20h36.07.096,premup-three_ses-02_part-02_label-phase2,3.2.4,Win32,60,80,9.263000011,,,1,0,6,4,1,5,Household items,5,15,Music items,85,95,,,,,,,,,,,,,
,,,,1,0,1,0,1,0,,,,,,,,2,,stim/21.jpeg,,,,,,,,,8,2020-12-15_20h36.07.096,premup-three_ses-02_part-02_label-phase2,3.2.4,Win32,60,70,9.457999945,,,1,0,6,1,1,5,Household items,45,55,Music items,45,55,,,,,,,,,,,,,
,,,,1,0,1,0,1,0,,,,,,,,1,,stim/11.jpeg,,,,,,,,,8,2020-12-15_20h36.07.096,premup-three_ses-02_part-02_label-phase2,3.2.4,Win32,60,40,7.313999891,,,1,0,6,0,1,5,Music items,45,55,Household items,45,55,,,,,,,,,,,,,
,,,,1,0,1,0,1,0,,,,,,,,3,,stim/31.jpeg,,,,,,,,,8,2020-12-15_20h36.07.096,premup-three_ses-02_part-02_label-phase2,3.2.4,Win32,60,40,5.640000105,,,1,0,6,2,1,5,Music items,65,75,Household items,25,35,,,,,,,,,,,,,
,,,,1,0,1,0,1,0,,,,,,,,6,,stim/61.jpeg,,,,,,,,,8,2020-12-15_20h36.07.096,premup-three_ses-02_part-02_label-phase2,3.2.4,Win32,60,90,6.187999964,,,1,0,6,5,1,5,Music items,5,15,Household items,85,95,,,,,,,,,,,,,
,,,,1,0,1,0,1,0,,,,,,,,4,,stim/41.jpeg,,,,,,,,,8,2020-12-15_20h36.07.096,premup-three_ses-02_part-02_label-phase2,3.2.4,Win32,60,86,3.573000193,,,1,0,6,3,1,5,Music items,65,75,Household items,25,35,,,,,,,,,,,,,
,,,,1,0,1,0,1,0,,,,,,,,,,,,,,,,,,,8,2020-12-15_20h36.07.096,premup-three_ses-02_part-02_label-phase2,3.2.4,Win32,60,,,,,,,,,,,,,,,,,,,,,,,,,,,,,
,,0,241,,,,,,,,,,,,,3,5,4,stim/54.jpeg,HouseObjects,2,stim/objects/HouseObjects/dustpan4.png,0.9,2,0.2,0.15,right,8,2020-12-15_20h36.07.096,premup-three_ses-02_part-02_label-phase2,3.2.4,Win32,60,,,,,,,,,,,,,,,,,1,0,330,221,1,329,1,,,,,,
left,0.669000149,0,242,,,,,,,,,,,,,2,3,4,stim/34.jpeg,HouseObjects,2,stim/objects/HouseObjects/clothespin3.png,0.7,4,0.2,-0.15,right,8,2020-12-15_20h36.07.096,premup-three_ses-02_part-02_label-phase2,3.2.4,Win32,60,,,,,,,,,,,,,,,,,1,0,330,71,1,329,2,,,,,,
left,0.756000042,1,243,,,,,,,,,,,,,1,1,4,stim/14.jpeg,Instruments,1,stim/objects/Instruments/balalaika3.png,0.5,1,-0.2,0.15,left,8,2020-12-15_20h36.07.096,premup-three_ses-02_part-02_label-phase2,3.2.4,Win32,60,,,,,,,,,,,,,,,,,1,0,330,7,1,329,2,,,,,,
right,0.496000051,1,244,,,,,,,,,,,,,3,5,4,stim/54.jpeg,HouseObjects,2,stim/objects/HouseObjects/garbagebin3.png,0.9,2,0.2,0.15,right,8,2020-12-15_20h36.07.096,premup-three_ses-02_part-02_label-phase2,3.2.4,Win32,60,,,,,,,,,,,,,,,,,1,0,330,213,1,329,2,,,,,,
left,0.654000282,0,245,,,,,,,,,,,,,2,3,3,stim/33.jpeg,HouseObjects,2,stim/objects/HouseObjects/ashtray4.png,0.7,1,-0.2,0.15,right,8,2020-12-15_20h36.07.096,premup-three_ses-02_part-02_label-phase2,3.2.4,Win32,60,,,,,,,,,,,,,,,,,1,0,330,90,1,329,1,,,,,,
right,0.70600009,1,246,,,,,,,,,,,,,3,5,1,stim/51.jpeg,HouseObjects,2,stim/objects/HouseObjects/dustpan3.png,0.9,2,0.2,0.15,right,8,2020-12-15_20h36.07.096,premup-three_ses-02_part-02_label-phase2,3.2.4,Win32,60,,,,,,,,,,,,,,,,,1,0,330,166,1,329,2,,,,,,
right,0.436000109,1,247,,,,,,,,,,,,,1,1,2,stim/12.jpeg,HouseObjects,2,stim/objects/HouseObjects/iron3.png,0.5,2,0.2,0.15,right,8,2020-12-15_20h36.07.096,premup-three_ses-02_part-02_label-phase2,3.2.4,Win32,60,,,,,,,,,,,,,,,,,1,0,330,29,1,329,1,,,,,,
left,0.578000307,1,248,,,,,,,,,,,,,3,6,2,stim/62.jpeg,Instruments,1,stim/objects/Instruments/frenchhorn3.png,0.9,2,0.2,0.15,left,8,2020-12-15_20h36.07.096,premup-three_ses-02_part-02_label-phase2,3.2.4,Win32,60,,,,,,,,,,,,,,,,,1,0,330,247,1,329,2,,,,,,
left,0.651000023,1,249,,,,,,,,,,,,,3,6,2,stim/62.jpeg,Instruments,1,stim/objects/Instruments/maraca4.png,0.9,4,0.2,-0.15,left,8,2020-12-15_20h36.07.096,premup-three_ses-02_part-02_label-phase2,3.2.4,Win32,60,,,,,,,,,,,,,,,,,1,0,330,311,1,329,1,,,,,,
left,0.724000216,0,250,,,,,,,,,,,,,2,3,3,stim/33.jpeg,HouseObjects,2,stim/objects/HouseObjects/clothesdryingrack3.png,0.7,4,0.2,-0.15,right,8,2020-12-15_20h36.07.096,premup-three_ses-02_part-02_label-phase2,3.2.4,Win32,60,,,,,,,,,,,,,,,,,1,0,330,70,1,329,2,,,,,,
right,0.572000027,1,251,,,,,,,,,,,,,3,5,3,stim/53.jpeg,HouseObjects,2,stim/objects/HouseObjects/flyswatter3.png,0.9,3,-0.2,-0.15,right,8,2020-12-15_20h36.07.096,premup-three_ses-02_part-02_label-phase2,3.2.4,Win32,60,,,,,,,,,,,,,,,,,1,0,330,152,1,329,2,,,,,,
left,0.611999989,1,252,,,,,,,,,,,,,3,6,3,stim/63.jpeg,Instruments,1,stim/objects/Instruments/flute3.png,0.9,1,-0.2,0.15,left,8,2020-12-15_20h36.07.096,premup-three_ses-02_part-02_label-phase2,3.2.4,Win32,60,,,,,,,,,,,,,,,,,1,0,330,240,1,329,2,,,,,,
right,0.503000021,1,253,,,,,,,,,,,,,2,3,1,stim/31.jpeg,HouseObjects,2,stim/objects/HouseObjects/coffee3.png,0.7,4,0.2,-0.15,right,8,2020-12-15_20h36.07.096,premup-three_ses-02_part-02_label-phase2,3.2.4,Win32,60,,,,,,,,,,,,,,,,,1,0,330,72,1,329,2,,,,,,
left,0.743000269,0,254,,,,,,,,,,,,,2,3,2,stim/32.jpeg,HouseObjects,2,stim/objects/HouseObjects/clothespin3.png,0.7,1,-0.2,0.15,right,8,2020-12-15_20h36.07.096,premup-three_ses-02_part-02_label-phase2,3.2.4,Win32,60,,,,,,,,,,,,,,,,,1,0,330,81,1,329,2,,,,,,
right,0.551000118,1,255,,,,,,,,,,,,,3,5,3,stim/53.jpeg,HouseObjects,2,stim/objects/HouseObjects/doormat3.png,0.9,4,0.2,-0.15,right,8,2020-12-15_20h36.07.096,premup-three_ses-02_part-02_label-phase2,3.2.4,Win32,60,,,,,,,,,,,,,,,,,1,0,330,160,1,329,2,,,,,,
left,0.622000217,1,256,,,,,,,,,,,,,3,6,1,stim/61.jpeg,Instruments,1,stim/objects/Instruments/frenchhorn3.png,0.9,1,-0.2,0.15,left,8,2020-12-15_20h36.07.096,premup-three_ses-02_part-02_label-phase2,3.2.4,Win32,60,,,,,,,,,,,,,,,,,1,0,330,282,1,329,2,,,,,,
right,0.417000055,0,257,,,,,,,,,,,,,3,5,2,stim/52.jpeg,Instruments,1,stim/objects/Instruments/flutetrans4.png,0.1,4,0.2,-0.15,left,8,2020-12-15_20h36.07.096,premup-three_ses-02_part-02_label-phase2,3.2.4,Win32,60,,,,,,,,,,,,,,,,,1,0,330,131,1,329,1,,,,,,
right,0.696000099,1,258,,,,,,,,,,,,,3,5,1,stim/51.jpeg,HouseObjects,2,stim/objects/HouseObjects/doormat3.png,0.9,2,0.2,0.15,right,8,2020-12-15_20h36.07.096,premup-three_ses-02_part-02_label-phase2,3.2.4,Win32,60,,,,,,,,,,,,,,,,,1,0,330,210,1,329,2,,,,,,
left,0.542000294,0,259,,,,,,,,,,,,,1,1,4,stim/14.jpeg,HouseObjects,2,stim/objects/HouseObjects/bleachbottle3.png,0.5,3,-0.2,-0.15,right,8,2020-12-15_20h36.07.096,premup-three_ses-02_part-02_label-phase2,3.2.4,Win32,60,,,,,,,,,,,,,,,,,1,0,330,19,1,329,2,,,,,,
left,0.569000244,1,260,,,,,,,,,,,,,3,6,1,stim/61.jpeg,Instruments,1,stim/objects/Instruments/vuvuzela4.png,0.9,4,0.2,-0.15,left,8,2020-12-15_20h36.07.096,premup-three_ses-02_part-02_label-phase2,3.2.4,Win32,60,,,,,,,,,,,,,,,,,1,0,330,318,1,329,1,,,,,,
right,0.526000261,1,261,,,,,,,,,,,,,3,5,2,stim/52.jpeg,HouseObjects,2,stim/objects/HouseObjects/flyswatter3.png,0.9,1,-0.2,0.15,right,8,2020-12-15_20h36.07.096,premup-three_ses-02_part-02_label-phase2,3.2.4,Win32,60,,,,,,,,,,,,,,,,,1,0,330,167,1,329,2,,,,,,
left,0.57400012,1,262,,,,,,,,,,,,,2,4,2,stim/42.jpeg,Instruments,1,stim/objects/Instruments/chime4.png,0.7,4,0.2,-0.15,left,8,2020-12-15_20h36.07.096,premup-three_ses-02_part-02_label-phase2,3.2.4,Win32,60,,,,,,,,,,,,,,,,,1,0,330,112,1,329,1,,,,,,
right,0.570000172,0,263,,,,,,,,,,,,,1,2,2,stim/22.jpeg,Instruments,1,stim/objects/Instruments/maraca3.png,0.5,3,-0.2,-0.15,left,8,2020-12-15_20h36.07.096,premup-three_ses-02_part-02_label-phase2,3.2.4,Win32,60,,,,,,,,,,,,,,,,,1,0,330,41,1,329,1,,,,,,
left,0.632000208,1,264,,,,,,,,,,,,,2,4,1,stim/41.jpeg,Instruments,1,stim/objects/Instruments/cymbal4.png,0.7,2,0.2,0.15,left,8,2020-12-15_20h36.07.096,premup-three_ses-02_part-02_label-phase2,3.2.4,Win32,60,,,,,,,,,,,,,,,,,1,0,330,115,1,329,1,,,,,,
right,0.79700017,1,265,,,,,,,,,,,,,3,5,3,stim/53.jpeg,HouseObjects,2,stim/objects/HouseObjects/flyswatter3.png,0.9,2,0.2,0.15,right,8,2020-12-15_20h36.07.096,premup-three_ses-02_part-02_label-phase2,3.2.4,Win32,60,,,,,,,,,,,,,,,,,1,0,330,172,1,329,2,,,,,,
left,0.610000134,0,266,,,,,,,,,,,,,2,3,1,stim/31.jpeg,HouseObjects,2,stim/objects/HouseObjects/dishsoap3.png,0.7,1,-0.2,0.15,right,8,2020-12-15_20h36.07.096,premup-three_ses-02_part-02_label-phase2,3.2.4,Win32,60,,,,,,,,,,,,,,,,,1,0,330,84,1,329,2,,,,,,
left,0.647000074,1,267,,,,,,,,,,,,,3,6,2,stim/62.jpeg,Instruments,1,stim/objects/Instruments/frenchhorn3.png,0.9,4,0.2,-0.15,left,8,2020-12-15_20h36.07.096,premup-three_ses-02_part-02_label-phase2,3.2.4,Win32,60,,,,,,,,,,,,,,,,,1,0,330,287,1,329,2,,,,,,
right,0.452000141,0,268,,,,,,,,,,,,,2,3,2,stim/32.jpeg,Instruments,1,stim/objects/Instruments/bassdrum4.png,0.3,3,-0.2,-0.15,left,8,2020-12-15_20h36.07.096,premup-three_ses-02_part-02_label-phase2,3.2.4,Win32,60,,,,,,,,,,,,,,,,,1,0,330,69,1,329,1,,,,,,
left,0.702000141,1,269,,,,,,,,,,,,,3,6,4,stim/64.jpeg,Instruments,1,stim/objects/Instruments/grandpiano3.png,0.9,4,0.2,-0.15,left,8,2020-12-15_20h36.07.096,premup-three_ses-02_part-02_label-phase2,3.2.4,Win32,60,,,,,,,,,,,,,,,,,1,0,330,309,1,329,2,,,,,,
left,0.529000282,1,270,,,,,,,,,,,,,3,6,4,stim/64.jpeg,Instruments,1,stim/objects/Instruments/flutetrans3.png,0.9,1,-0.2,0.15,left,8,2020-12-15_20h36.07.096,premup-three_ses-02_part-02_label-phase2,3.2.4,Win32,60,,,,,,,,,,,,,,,,,1,0,330,281,1,329,2,,,,,,
right,0.642000198,0,271,,,,,,,,,,,,,3,5,3,stim/53.jpeg,Instruments,1,stim/objects/Instruments/frenchhorn4.png,0.1,4,0.2,-0.15,left,8,2020-12-15_20h36.07.096,premup-three_ses-02_part-02_label-phase2,3.2.4,Win32,60,,,,,,,,,,,,,,,,,1,0,330,132,1,329,1,,,,,,
left,0.559000015,1,272,,,,,,,,,,,,,3,6,3,stim/63.jpeg,Instruments,1,stim/objects/Instruments/flute3.png,0.9,3,-0.2,-0.15,left,8,2020-12-15_20h36.07.096,premup-three_ses-02_part-02_label-phase2,3.2.4,Win32,60,,,,,,,,,,,,,,,,,1,0,330,280,1,329,2,,,,,,
right,0.651000023,1,273,,,,,,,,,,,,,3,5,3,stim/53.jpeg,HouseObjects,2,stim/objects/HouseObjects/dustpan3.png,0.9,4,0.2,-0.15,right,8,2020-12-15_20h36.07.096,premup-three_ses-02_part-02_label-phase2,3.2.4,Win32,60,,,,,,,,,,,,,,,,,1,0,330,176,1,329,2,,,,,,
left,0.552000284,1,274,,,,,,,,,,,,,2,4,1,stim/41.jpeg,Instruments,1,stim/objects/Instruments/electricguitar4.png,0.7,3,-0.2,-0.15,left,8,2020-12-15_20h36.07.096,premup-three_ses-02_part-02_label-phase2,3.2.4,Win32,60,,,,,,,,,,,,,,,,,1,0,330,119,1,329,1,,,,,,
right,0.51300025,1,275,,,,,,,,,,,,,3,5,3,stim/53.jpeg,HouseObjects,2,stim/objects/HouseObjects/doormat3.png,0.9,3,-0.2,-0.15,right,8,2020-12-15_20h36.07.096,premup-three_ses-02_part-02_label-phase2,3.2.4,Win32,60,,,,,,,,,,,,,,,,,1,0,330,200,1,329,2,,,,,,
left,0.594000101,0,276,,,,,,,,,,,,,3,6,4,stim/64.jpeg,HouseObjects,2,stim/objects/HouseObjects/key4.png,0.1,4,0.2,-0.15,right,8,2020-12-15_20h36.07.096,premup-three_ses-02_part-02_label-phase2,3.2.4,Win32,60,,,,,,,,,,,,,,,,,1,0,330,321,1,329,1,,,,,,
left,0.571000099,0,277,,,,,,,,,,,,,3,6,3,stim/63.jpeg,HouseObjects,2,stim/objects/HouseObjects/vacuumcleaner4.png,0.1,4,0.2,-0.15,right,8,2020-12-15_20h36.07.096,premup-three_ses-02_part-02_label-phase2,3.2.4,Win32,60,,,,,,,,,,,,,,,,,1,0,330,328,1,329,1,,,,,,
left,0.761000156,0,278,,,,,,,,,,,,,1,1,4,stim/14.jpeg,HouseObjects,2,stim/objects/HouseObjects/ashtray3.png,0.5,1,-0.2,0.15,right,8,2020-12-15_20h36.07.096,premup-three_ses-02_part-02_label-phase2,3.2.4,Win32,60,,,,,,,,,,,,,,,,,1,0,330,15,1,329,2,,,,,,
right,0.591000319,1,279,,,,,,,,,,,,,2,3,1,stim/31.jpeg,HouseObjects,2,stim/objects/HouseObjects/clothespin3.png,0.7,1,-0.2,0.15,right,8,2020-12-15_20h36.07.096,premup-three_ses-02_part-02_label-phase2,3.2.4,Win32,60,,,,,,,,,,,,,,,,,1,0,330,76,1,329,2,,,,,,
left,0.605000257,1,280,,,,,,,,,,,,,3,6,1,stim/61.jpeg,Instruments,1,stim/objects/Instruments/flute3.png,0.9,1,-0.2,0.15,left,8,2020-12-15_20h36.07.096,premup-three_ses-02_part-02_label-phase2,3.2.4,Win32,60,,,,,,,,,,,,,,,,,1,0,330,270,1,329,2,,,,,,
left,0.603000164,1,281,,,,,,,,,,,,,3,6,1,stim/61.jpeg,Instruments,1,stim/objects/Instruments/gong3.png,0.9,1,-0.2,0.15,left,8,2020-12-15_20h36.07.096,premup-three_ses-02_part-02_label-phase2,3.2.4,Win32,60,,,,,,,,,,,,,,,,,1,0,330,278,1,329,2,,,,,,
right,0.599000216,0,282,,,,,,,,,,,,,1,1,3,stim/13.jpeg,Instruments,1,stim/objects/Instruments/balalaika3.png,0.5,1,-0.2,0.15,left,8,2020-12-15_20h36.07.096,premup-three_ses-02_part-02_label-phase2,3.2.4,Win32,60,,,,,,,,,,,,,,,,,1,0,330,2,1,329,2,,,,,,
right,0.637000322,1,283,,,,,,,,,,,,,3,5,3,stim/53.jpeg,HouseObjects,2,stim/objects/HouseObjects/dustpan3.png,0.9,4,0.2,-0.15,right,8,2020-12-15_20h36.07.096,premup-three_ses-02_part-02_label-phase2,3.2.4,Win32,60,,,,,,,,,,,,,,,,,1,0,330,156,1,329,2,,,,,,
left,0.614000082,1,284,,,,,,,,,,,,,3,6,3,stim/63.jpeg,Instruments,1,stim/objects/Instruments/flutetrans3.png,0.9,1,-0.2,0.15,left,8,2020-12-15_20h36.07.096,premup-three_ses-02_part-02_label-phase2,3.2.4,Win32,60,,,,,,,,,,,,,,,,,1,0,330,256,1,329,2,,,,,,
left,0.692000151,0,285,,,,,,,,,,,,,2,4,2,stim/42.jpeg,HouseObjects,2,stim/objects/HouseObjects/blender4.png,0.3,2,0.2,0.15,right,8,2020-12-15_20h36.07.096,premup-three_ses-02_part-02_label-phase2,3.2.4,Win32,60,,,,,,,,,,,,,,,,,1,0,330,120,1,329,1,,,,,,
right,0.589000225,1,286,,,,,,,,,,,,,3,5,1,stim/51.jpeg,HouseObjects,2,stim/objects/HouseObjects/flyswatter4.png,0.9,1,-0.2,0.15,right,8,2020-12-15_20h36.07.096,premup-three_ses-02_part-02_label-phase2,3.2.4,Win32,60,,,,,,,,,,,,,,,,,1,0,330,222,1,329,1,,,,,,
left,0.663000107,1,287,,,,,,,,,,,,,3,6,1,stim/61.jpeg,Instruments,1,stim/objects/Instruments/flute3.png,0.9,2,0.2,0.15,left,8,2020-12-15_20h36.07.096,premup-three_ses-02_part-02_label-phase2,3.2.4,Win32,60,,,,,,,,,,,,,,,,,1,0,330,290,1,329,2,,,,,,
right,0.71900034,0,288,,,,,,,,,,,,,1,2,3,stim/23.jpeg,Instruments,1,stim/objects/Instruments/cornet3.png,0.5,3,-0.2,-0.15,left,8,2020-12-15_20h36.07.096,premup-three_ses-02_part-02_label-phase2,3.2.4,Win32,60,,,,,,,,,,,,,,,,,1,0,330,34,1,329,2,,,,,,
left,0.533000231,1,289,,,,,,,,,,,,,2,4,2,stim/42.jpeg,Instruments,1,stim/objects/Instruments/doublebass4.png,0.7,4,0.2,-0.15,left,8,2020-12-15_20h36.07.096,premup-three_ses-02_part-02_label-phase2,3.2.4,Win32,60,,,,,,,,,,,,,,,,,1,0,330,116,1,329,1,,,,,,
right,0.81400013,1,290,,,,,,,,,,,,,1,2,1,stim/21.jpeg,HouseObjects,2,stim/objects/HouseObjects/key3.png,0.5,4,0.2,-0.15,right,8,2020-12-15_20h36.07.096,premup-three_ses-02_part-02_label-phase2,3.2.4,Win32,60,,,,,,,,,,,,,,,,,1,0,330,56,1,329,1,,,,,,
left,0.71200037,1,291,,,,,,,,,,,,,1,2,4,stim/24.jpeg,Instruments,1,stim/objects/Instruments/cornet3.png,0.5,3,-0.2,-0.15,left,8,2020-12-15_20h36.07.096,premup-three_ses-02_part-02_label-phase2,3.2.4,Win32,60,,,,,,,,,,,,,,,,,1,0,330,39,1,329,2,,,,,,
right,0.612000227,1,292,,,,,,,,,,,,,3,5,2,stim/52.jpeg,HouseObjects,2,stim/objects/HouseObjects/garbagebin3.png,0.9,2,0.2,0.15,right,8,2020-12-15_20h36.07.096,premup-three_ses-02_part-02_label-phase2,3.2.4,Win32,60,,,,,,,,,,,,,,,,,1,0,330,203,1,329,2,,,,,,
,,0,293,,,,,,,,,,,,,2,3,3,stim/33.jpeg,HouseObjects,2,stim/objects/HouseObjects/dishsoap3.png,0.7,4,0.2,-0.15,right,8,2020-12-15_20h36.07.096,premup-three_ses-02_part-02_label-phase2,3.2.4,Win32,60,,,,,,,,,,,,,,,,,1,0,330,74,1,329,2,,,,,,
left,0.703000307,1,294,,,,,,,,,,,,,1,1,3,stim/13.jpeg,Instruments,1,stim/objects/Instruments/acousticguitar3.png,0.5,3,-0.2,-0.15,left,8,2020-12-15_20h36.07.096,premup-three_ses-02_part-02_label-phase2,3.2.4,Win32,60,,,,,,,,,,,,,,,,,1,0,330,6,1,329,2,,,,,,
right,0.542000055,0,295,,,,,,,,,,,,,1,1,4,stim/14.jpeg,Instruments,1,stim/objects/Instruments/harmonica3.png,0.5,3,-0.2,-0.15,left,8,2020-12-15_20h36.07.096,premup-three_ses-02_part-02_label-phase2,3.2.4,Win32,60,,,,,,,,,,,,,,,,,1,0,330,11,1,329,1,,,,,,
,,0,296,,,,,,,,,,,,,2,4,2,stim/42.jpeg,Instruments,1,stim/objects/Instruments/electricdrumset3.png,0.7,3,-0.2,-0.15,left,8,2020-12-15_20h36.07.096,premup-three_ses-02_part-02_label-phase2,3.2.4,Win32,60,,,,,,,,,,,,,,,,,1,0,330,108,1,329,2,,,,,,
right,0.711000204,1,297,,,,,,,,,,,,,3,5,2,stim/52.jpeg,HouseObjects,2,stim/objects/HouseObjects/glass3.png,0.9,2,0.2,0.15,right,8,2020-12-15_20h36.07.096,premup-three_ses-02_part-02_label-phase2,3.2.4,Win32,60,,,,,,,,,,,,,,,,,1,0,330,219,1,329,2,,,,,,
left,0.784000158,1,298,,,,,,,,,,,,,2,3,2,stim/32.jpeg,Instruments,1,stim/objects/Instruments/oboe3.png,0.3,4,0.2,-0.15,left,8,2020-12-15_20h36.07.096,premup-three_ses-02_part-02_label-phase2,3.2.4,Win32,60,,,,,,,,,,,,,,,,,1,0,330,61,1,329,1,,,,,,
right,0.494000196,1,299,,,,,,,,,,,,,3,5,2,stim/52.jpeg,HouseObjects,2,stim/objects/HouseObjects/doormat3.png,0.9,2,0.2,0.15,right,8,2020-12-15_20h36.07.096,premup-three_ses-02_part-02_label-phase2,3.2.4,Win32,60,,,,,,,,,,,,,,,,,1,0,330,215,1,329,2,,,,,,
left,0.502000093,1,300,,,,,,,,,,,,,3,6,2,stim/62.jpeg,Instruments,1,stim/objects/Instruments/gong3.png,0.9,2,0.2,0.15,left,8,2020-12-15_20h36.07.096,premup-three_ses-02_part-02_label-phase2,3.2.4,Win32,60,,,,,,,,,,,,,,,,,1,0,330,283,1,329,2,,,,,,
right,0.497000217,0,301,,,,,,,,,,,,,3,6,3,stim/63.jpeg,Instruments,1,stim/objects/Instruments/frenchhorn3.png,0.9,2,0.2,0.15,left,8,2020-12-15_20h36.07.096,premup-three_ses-02_part-02_label-phase2,3.2.4,Win32,60,,,,,,,,,,,,,,,,,1,0,330,292,1,329,2,,,,,,
right,0.554000139,1,302,,,,,,,,,,,,,3,5,4,stim/54.jpeg,HouseObjects,2,stim/objects/HouseObjects/glassmop4.png,0.9,3,-0.2,-0.15,right,8,2020-12-15_20h36.07.096,premup-three_ses-02_part-02_label-phase2,3.2.4,Win32,60,,,,,,,,,,,,,,,,,1,0,330,225,1,329,1,,,,,,
right,0.615000248,1,303,,,,,,,,,,,,,3,5,4,stim/54.jpeg,HouseObjects,2,stim/objects/HouseObjects/flyswatter3.png,0.9,2,0.2,0.15,right,8,2020-12-15_20h36.07.096,premup-three_ses-02_part-02_label-phase2,3.2.4,Win32,60,,,,,,,,,,,,,,,,,1,0,330,157,1,329,2,,,,,,
right,0.592000246,1,304,,,,,,,,,,,,,3,5,4,stim/54.jpeg,HouseObjects,2,stim/objects/HouseObjects/flyswatter3.png,0.9,2,0.2,0.15,right,8,2020-12-15_20h36.07.096,premup-three_ses-02_part-02_label-phase2,3.2.4,Win32,60,,,,,,,,,,,,,,,,,1,0,330,177,1,329,2,,,,,,
right,0.622000217,0,305,,,,,,,,,,,,,3,5,3,stim/53.jpeg,Instruments,1,stim/objects/Instruments/harmonica4.png,0.1,3,-0.2,-0.15,left,8,2020-12-15_20h36.07.096,premup-three_ses-02_part-02_label-phase2,3.2.4,Win32,60,,,,,,,,,,,,,,,,,1,0,330,136,1,329,1,,,,,,
right,0.565999985,1,306,,,,,,,,,,,,,3,5,2,stim/52.jpeg,HouseObjects,2,stim/objects/HouseObjects/dustpan3.png,0.9,4,0.2,-0.15,right,8,2020-12-15_20h36.07.096,premup-three_ses-02_part-02_label-phase2,3.2.4,Win32,60,,,,,,,,,,,,,,,,,1,0,330,191,1,329,2,,,,,,
right,0.610000134,1,307,,,,,,,,,,,,,3,5,1,stim/51.jpeg,HouseObjects,2,stim/objects/HouseObjects/garbagebin3.png,0.9,4,0.2,-0.15,right,8,2020-12-15_20h36.07.096,premup-three_ses-02_part-02_label-phase2,3.2.4,Win32,60,,,,,,,,,,,,,,,,,1,0,330,158,1,329,2,,,,,,
right,0.618000269,1,308,,,,,,,,,,,,,3,5,4,stim/54.jpeg,HouseObjects,2,stim/objects/HouseObjects/glass3.png,0.9,3,-0.2,-0.15,right,8,2020-12-15_20h36.07.096,premup-three_ses-02_part-02_label-phase2,3.2.4,Win32,60,,,,,,,,,,,,,,,,,1,0,330,189,1,329,2,,,,,,
right,0.666000366,1,309,,,,,,,,,,,,,3,5,4,stim/54.jpeg,HouseObjects,2,stim/objects/HouseObjects/glass3.png,0.9,1,-0.2,0.15,right,8,2020-12-15_20h36.07.096,premup-three_ses-02_part-02_label-phase2,3.2.4,Win32,60,,,,,,,,,,,,,,,,,1,0,330,149,1,329,2,,,,,,
,,0,310,,,,,,,,,,,,,1,1,1,stim/11.jpeg,Instruments,1,stim/objects/Instruments/accordion3.png,0.5,4,0.2,-0.15,left,8,2020-12-15_20h36.07.096,premup-three_ses-02_part-02_label-phase2,3.2.4,Win32,60,,,,,,,,,,,,,,,,,1,0,330,0,1,329,2,,,,,,
right,0.572000265,1,311,,,,,,,,,,,,,3,5,2,stim/52.jpeg,HouseObjects,2,stim/objects/HouseObjects/garbagebin4.png,0.9,1,-0.2,0.15,right,8,2020-12-15_20h36.07.096,premup-three_ses-02_part-02_label-phase2,3.2.4,Win32,60,,,,,,,,,,,,,,,,,1,0,330,223,1,329,1,,,,,,
right,0.613000154,1,312,,,,,,,,,,,,,3,5,1,stim/51.jpeg,HouseObjects,2,stim/objects/HouseObjects/flyswatter3.png,0.9,3,-0.2,-0.15,right,8,2020-12-15_20h36.07.096,premup-three_ses-02_part-02_label-phase2,3.2.4,Win32,60,,,,,,,,,,,,,,,,,1,0,330,162,1,329,2,,,,,,
left,0.555000305,1,313,,,,,,,,,,,,,3,6,3,stim/63.jpeg,Instruments,1,stim/objects/Instruments/flutetrans3.png,0.9,1,-0.2,0.15,left,8,2020-12-15_20h36.07.096,premup-three_ses-02_part-02_label-phase2,3.2.4,Win32,60,,,,,,,,,,,,,,,,,1,0,330,276,1,329,2,,,,,,
right,0.369000196,1,314,,,,,,,,,,,,,3,5,4,stim/54.jpeg,HouseObjects,2,stim/objects/HouseObjects/garbagebin3.png,0.9,3,-0.2,-0.15,right,8,2020-12-15_20h36.07.096,premup-three_ses-02_part-02_label-phase2,3.2.4,Win32,60,,,,,,,,,,,,,,,,,1,0,330,193,1,329,2,,,,,,
left,0.617000103,1,315,,,,,,,,,,,,,1,2,1,stim/21.jpeg,Instruments,1,stim/objects/Instruments/chime3.png,0.5,2,0.2,0.15,left,8,2020-12-15_20h36.07.096,premup-three_ses-02_part-02_label-phase2,3.2.4,Win32,60,,,,,,,,,,,,,,,,,1,0,330,32,1,329,2,,,,,,
right,0.265000343,1,316,,,,,,,,,,,,,3,5,3,stim/53.jpeg,HouseObjects,2,stim/objects/HouseObjects/glass3.png,0.9,2,0.2,0.15,right,8,2020-12-15_20h36.07.096,premup-three_ses-02_part-02_label-phase2,3.2.4,Win32,60,,,,,,,,,,,,,,,,,1,0,330,204,1,329,2,,,,,,
left,0.471000195,0,317,,,,,,,,,,,,,3,5,1,stim/51.jpeg,HouseObjects,2,stim/objects/HouseObjects/flyswatter3.png,0.9,3,-0.2,-0.15,right,8,2020-12-15_20h36.07.096,premup-three_ses-02_part-02_label-phase2,3.2.4,Win32,60,,,,,,,,,,,,,,,,,1,0,330,182,1,329,2,,,,,,
right,0.517000198,1,318,,,,,,,,,,,,,2,4,2,stim/42.jpeg,HouseObjects,2,stim/objects/HouseObjects/clock4.png,0.3,2,0.2,0.15,right,8,2020-12-15_20h36.07.096,premup-three_ses-02_part-02_label-phase2,3.2.4,Win32,60,,,,,,,,,,,,,,,,,1,0,330,124,1,329,1,,,,,,
right,0.719000101,1,319,,,,,,,,,,,,,1,2,4,stim/24.jpeg,HouseObjects,2,stim/objects/HouseObjects/broom3.png,0.5,4,0.2,-0.15,right,8,2020-12-15_20h36.07.096,premup-three_ses-02_part-02_label-phase2,3.2.4,Win32,60,,,,,,,,,,,,,,,,,1,0,330,47,1,329,2,,,,,,
right,0.52300024,1,320,,,,,,,,,,,,,3,5,2,stim/52.jpeg,HouseObjects,2,stim/objects/HouseObjects/doormat3.png,0.9,4,0.2,-0.15,right,8,2020-12-15_20h36.07.096,premup-three_ses-02_part-02_label-phase2,3.2.4,Win32,60,,,,,,,,,,,,,,,,,1,0,330,175,1,329,2,,,,,,
left,0.560000181,1,321,,,,,,,,,,,,,3,6,1,stim/61.jpeg,Instruments,1,stim/objects/Instruments/flute3.png,0.9,1,-0.2,0.15,left,8,2020-12-15_20h36.07.096,premup-three_ses-02_part-02_label-phase2,3.2.4,Win32,60,,,,,,,,,,,,,,,,,1,0,330,230,1,329,2,,,,,,
left,0.585000038,1,322,,,,,,,,,,,,,3,6,1,stim/61.jpeg,Instruments,1,stim/objects/Instruments/gong3.png,0.9,4,0.2,-0.15,left,8,2020-12-15_20h36.07.096,premup-three_ses-02_part-02_label-phase2,3.2.4,Win32,60,,,,,,,,,,,,,,,,,1,0,330,258,1,329,2,,,,,,
left,0.417000294,1,323,,,,,,,,,,,,,3,6,4,stim/64.jpeg,Instruments,1,stim/objects/Instruments/grandpiano3.png,0.9,1,-0.2,0.15,left,8,2020-12-15_20h36.07.096,premup-three_ses-02_part-02_label-phase2,3.2.4,Win32,60,,,,,,,,,,,,,,,,,1,0,330,269,1,329,2,,,,,,
right,0.548000097,1,324,,,,,,,,,,,,,2,4,1,stim/41.jpeg,HouseObjects,2,stim/objects/HouseObjects/bucket4.png,0.3,1,-0.2,0.15,right,8,2020-12-15_20h36.07.096,premup-three_ses-02_part-02_label-phase2,3.2.4,Win32,60,,,,,,,,,,,,,,,,,1,0,330,123,1,329,1,,,,,,
left,0.553000212,1,325,,,,,,,,,,,,,3,6,4,stim/64.jpeg,Instruments,1,stim/objects/Instruments/flute3.png,0.9,3,-0.2,-0.15,left,8,2020-12-15_20h36.07.096,premup-three_ses-02_part-02_label-phase2,3.2.4,Win32,60,,,,,,,,,,,,,,,,,1,0,330,265,1,329,2,,,,,,
left,0.57400012,1,326,,,,,,,,,,,,,3,6,3,stim/63.jpeg,Instruments,1,stim/objects/Instruments/grandpiano3.png,0.9,3,-0.2,-0.15,left,8,2020-12-15_20h36.07.096,premup-three_ses-02_part-02_label-phase2,3.2.4,Win32,60,,,,,,,,,,,,,,,,,1,0,330,244,1,329,2,,,,,,
left,0.442000151,1,327,,,,,,,,,,,,,3,6,3,stim/63.jpeg,Instruments,1,stim/objects/Instruments/flute3.png,0.9,1,-0.2,0.15,left,8,2020-12-15_20h36.07.096,premup-three_ses-02_part-02_label-phase2,3.2.4,Win32,60,,,,,,,,,,,,,,,,,1,0,330,300,1,329,2,,,,,,
left,0.563000202,1,328,,,,,,,,,,,,,3,6,2,stim/62.jpeg,Instruments,1,stim/objects/Instruments/gong3.png,0.9,2,0.2,0.15,left,8,2020-12-15_20h36.07.096,premup-three_ses-02_part-02_label-phase2,3.2.4,Win32,60,,,,,,,,,,,,,,,,,1,0,330,263,1,329,2,,,,,,
right,0.50600028,1,329,,,,,,,,,,,,,3,5,2,stim/52.jpeg,HouseObjects,2,stim/objects/HouseObjects/garbagebin3.png,0.9,3,-0.2,-0.15,right,8,2020-12-15_20h36.07.096,premup-three_ses-02_part-02_label-phase2,3.2.4,Win32,60,,,,,,,,,,,,,,,,,1,0,330,183,1,329,2,,,,,,
right,0.52300024,0,330,,,,,,,,,,,,,3,5,1,stim/51.jpeg,Instruments,1,stim/objects/Instruments/flute4.png,0.1,3,-0.2,-0.15,left,8,2020-12-15_20h36.07.096,premup-three_ses-02_part-02_label-phase2,3.2.4,Win32,60,,,,,,,,,,,,,,,,,1,0,330,130,1,329,1,,,,,,
left,0.619000196,1,331,,,,,,,,,,,,,3,6,1,stim/61.jpeg,Instruments,1,stim/objects/Instruments/flutetrans3.png,0.9,3,-0.2,-0.15,left,8,2020-12-15_20h36.07.096,premup-three_ses-02_part-02_label-phase2,3.2.4,Win32,60,,,,,,,,,,,,,,,,,1,0,330,306,1,329,2,,,,,,
left,0.575000048,1,332,,,,,,,,,,,,,3,6,1,stim/61.jpeg,Instruments,1,stim/objects/Instruments/laud4.png,0.9,2,0.2,0.15,left,8,2020-12-15_20h36.07.096,premup-three_ses-02_part-02_label-phase2,3.2.4,Win32,60,,,,,,,,,,,,,,,,,1,0,330,310,1,329,1,,,,,,
left,0.585999966,1,333,,,,,,,,,,,,,3,6,2,stim/62.jpeg,Instruments,1,stim/objects/Instruments/flute3.png,0.9,1,-0.2,0.15,left,8,2020-12-15_20h36.07.096,premup-three_ses-02_part-02_label-phase2,3.2.4,Win32,60,,,,,,,,,,,,,,,,,1,0,330,235,1,329,2,,,,,,
right,0.54700017,1,334,,,,,,,,,,,,,3,5,4,stim/54.jpeg,HouseObjects,2,stim/objects/HouseObjects/dustpan3.png,0.9,3,-0.2,-0.15,right,8,2020-12-15_20h36.07.096,premup-three_ses-02_part-02_label-phase2,3.2.4,Win32,60,,,,,,,,,,,,,,,,,1,0,330,141,1,329,2,,,,,,
left,0.554000139,1,335,,,,,,,,,,,,,3,6,4,stim/64.jpeg,Instruments,1,stim/objects/Instruments/frenchhorn3.png,0.9,1,-0.2,0.15,left,8,2020-12-15_20h36.07.096,premup-three_ses-02_part-02_label-phase2,3.2.4,Win32,60,,,,,,,,,,,,,,,,,1,0,330,297,1,329,2,,,,,,
right,0.545000076,1,336,,,,,,,,,,,,,3,5,4,stim/54.jpeg,HouseObjects,2,stim/objects/HouseObjects/flyswatter3.png,0.9,4,0.2,-0.15,right,8,2020-12-15_20h36.07.096,premup-three_ses-02_part-02_label-phase2,3.2.4,Win32,60,,,,,,,,,,,,,,,,,1,0,330,197,1,329,2,,,,,,
left,0.337000132,1,337,,,,,,,,,,,,,3,6,4,stim/64.jpeg,Instruments,1,stim/objects/Instruments/gong3.png,0.9,2,0.2,0.15,left,8,2020-12-15_20h36.07.096,premup-three_ses-02_part-02_label-phase2,3.2.4,Win32,60,,,,,,,,,,,,,,,,,1,0,330,253,1,329,2,,,,,,
left,0.577000141,0,338,,,,,,,,,,,,,3,6,1,stim/61.jpeg,HouseObjects,2,stim/objects/HouseObjects/knife4.png,0.1,3,-0.2,-0.15,right,8,2020-12-15_20h36.07.096,premup-three_ses-02_part-02_label-phase2,3.2.4,Win32,60,,,,,,,,,,,,,,,,,1,0,330,322,1,329,1,,,,,,
left,0.543000221,1,339,,,,,,,,,,,,,3,6,2,stim/62.jpeg,Instruments,1,stim/objects/Instruments/flutetrans3.png,0.9,3,-0.2,-0.15,left,8,2020-12-15_20h36.07.096,premup-three_ses-02_part-02_label-phase2,3.2.4,Win32,60,,,,,,,,,,,,,,,,,1,0,330,231,1,329,2,,,,,,
left,0.688000202,1,340,,,,,,,,,,,,,3,6,2,stim/62.jpeg,Instruments,1,stim/objects/Instruments/grandpiano3.png,0.9,2,0.2,0.15,left,8,2020-12-15_20h36.07.096,premup-three_ses-02_part-02_label-phase2,3.2.4,Win32,60,,,,,,,,,,,,,,,,,1,0,330,279,1,329,2,,,,,,
right,0.563000202,1,341,,,,,,,,,,,,,1,1,2,stim/12.jpeg,HouseObjects,2,stim/objects/HouseObjects/ballofstring3.png,0.5,4,0.2,-0.15,right,8,2020-12-15_20h36.07.096,premup-three_ses-02_part-02_label-phase2,3.2.4,Win32,60,,,,,,,,,,,,,,,,,1,0,330,21,1,329,2,,,,,,
left,0.668000221,0,342,,,,,,,,,,,,,1,2,3,stim/23.jpeg,HouseObjects,2,stim/objects/HouseObjects/bottle3.png,0.5,3,-0.2,-0.15,right,8,2020-12-15_20h36.07.096,premup-three_ses-02_part-02_label-phase2,3.2.4,Win32,60,,,,,,,,,,,,,,,,,1,0,330,46,1,329,2,,,,,,
right,0.627000332,1,343,,,,,,,,,,,,,3,5,3,stim/53.jpeg,HouseObjects,2,stim/objects/HouseObjects/doormat3.png,0.9,2,0.2,0.15,right,8,2020-12-15_20h36.07.096,premup-three_ses-02_part-02_label-phase2,3.2.4,Win32,60,,,,,,,,,,,,,,,,,1,0,330,180,1,329,2,,,,,,
left,0.578000069,1,344,,,,,,,,,,,,,3,6,4,stim/64.jpeg,Instruments,1,stim/objects/Instruments/gong3.png,0.9,2,0.2,0.15,left,8,2020-12-15_20h36.07.096,premup-three_ses-02_part-02_label-phase2,3.2.4,Win32,60,,,,,,,,,,,,,,,,,1,0,330,293,1,329,2,,,,,,
right,0.620000124,0,345,,,,,,,,,,,,,2,4,3,stim/43.jpeg,Instruments,1,stim/objects/Instruments/drums4.png,0.7,4,0.2,-0.15,left,8,2020-12-15_20h36.07.096,premup-three_ses-02_part-02_label-phase2,3.2.4,Win32,60,,,,,,,,,,,,,,,,,1,0,330,117,1,329,1,,,,,,
right,0.63100028,1,346,,,,,,,,,,,,,3,5,1,stim/51.jpeg,HouseObjects,2,stim/objects/HouseObjects/dustpan3.png,0.9,2,0.2,0.15,right,8,2020-12-15_20h36.07.096,premup-three_ses-02_part-02_label-phase2,3.2.4,Win32,60,,,,,,,,,,,,,,,,,1,0,330,146,1,329,2,,,,,,
right,0.590000153,1,347,,,,,,,,,,,,,3,5,3,stim/53.jpeg,HouseObjects,2,stim/objects/HouseObjects/garbagebin3.png,0.9,4,0.2,-0.15,right,8,2020-12-15_20h36.07.096,premup-three_ses-02_part-02_label-phase2,3.2.4,Win32,60,,,,,,,,,,,,,,,,,1,0,330,148,1,329,2,,,,,,
left,0.56400013,1,348,,,,,,,,,,,,,2,3,3,stim/33.jpeg,Instruments,1,stim/objects/Instruments/violin3.png,0.3,1,-0.2,0.15,left,8,2020-12-15_20h36.07.096,premup-three_ses-02_part-02_label-phase2,3.2.4,Win32,60,,,,,,,,,,,,,,,,,1,0,330,62,1,329,1,,,,,,
right,0.588000059,0,349,,,,,,,,,,,,,1,2,2,stim/22.jpeg,Instruments,1,stim/objects/Instruments/clarinet3.png,0.5,1,-0.2,0.15,left,8,2020-12-15_20h36.07.096,premup-three_ses-02_part-02_label-phase2,3.2.4,Win32,60,,,,,,,,,,,,,,,,,1,0,330,33,1,329,2,,,,,,
right,0.601000071,1,350,,,,,,,,,,,,,3,5,4,stim/54.jpeg,HouseObjects,2,stim/objects/HouseObjects/doormat3.png,0.9,4,0.2,-0.15,right,8,2020-12-15_20h36.07.096,premup-three_ses-02_part-02_label-phase2,3.2.4,Win32,60,,,,,,,,,,,,,,,,,1,0,330,185,1,329,2,,,,,,
left,0.518000126,0,351,,,,,,,,,,,,,1,2,2,stim/22.jpeg,HouseObjects,2,stim/objects/HouseObjects/blender3.png,0.5,2,0.2,0.15,right,8,2020-12-15_20h36.07.096,premup-three_ses-02_part-02_label-phase2,3.2.4,Win32,60,,,,,,,,,,,,,,,,,1,0,330,45,1,329,2,,,,,,
right,0.624000311,1,352,,,,,,,,,,,,,3,5,3,stim/53.jpeg,HouseObjects,2,stim/objects/HouseObjects/doormat3.png,0.9,2,0.2,0.15,right,8,2020-12-15_20h36.07.096,premup-three_ses-02_part-02_label-phase2,3.2.4,Win32,60,,,,,,,,,,,,,,,,,1,0,330,140,1,329,2,,,,,,
right,0.624000072,1,353,,,,,,,,,,,,,3,5,1,stim/51.jpeg,HouseObjects,2,stim/objects/HouseObjects/garbagebin3.png,0.9,4,0.2,-0.15,right,8,2020-12-15_20h36.07.096,premup-three_ses-02_part-02_label-phase2,3.2.4,Win32,60,,,,,,,,,,,,,,,,,1,0,330,218,1,329,2,,,,,,
left,0.670000076,1,354,,,,,,,,,,,,,3,6,2,stim/62.jpeg,Instruments,1,stim/objects/Instruments/flutetrans3.png,0.9,2,0.2,0.15,left,8,2020-12-15_20h36.07.096,premup-three_ses-02_part-02_label-phase2,3.2.4,Win32,60,,,,,,,,,,,,,,,,,1,0,330,271,1,329,2,,,,,,
left,0.612000227,1,355,,,,,,,,,,,,,3,6,4,stim/64.jpeg,Instruments,1,stim/objects/Instruments/frenchhorn3.png,0.9,3,-0.2,-0.15,left,8,2020-12-15_20h36.07.096,premup-three_ses-02_part-02_label-phase2,3.2.4,Win32,60,,,,,,,,,,,,,,,,,1,0,330,277,1,329,2,,,,,,
right,0.475000143,0,356,,,,,,,,,,,,,2,4,2,stim/42.jpeg,Instruments,1,stim/objects/Instruments/electricguitar3.png,0.7,1,-0.2,0.15,left,8,2020-12-15_20h36.07.096,premup-three_ses-02_part-02_label-phase2,3.2.4,Win32,60,,,,,,,,,,,,,,,,,1,0,330,104,1,329,2,,,,,,
left,0.584000349,0,357,,,,,,,,,,,,,2,3,1,stim/31.jpeg,HouseObjects,2,stim/objects/HouseObjects/clothesdryingrack3.png,0.7,1,-0.2,0.15,right,8,2020-12-15_20h36.07.096,premup-three_ses-02_part-02_label-phase2,3.2.4,Win32,60,,,,,,,,,,,,,,,,,1,0,330,80,1,329,2,,,,,,
left,0.640000105,1,358,,,,,,,,,,,,,3,6,2,stim/62.jpeg,Instruments,1,stim/objects/Instruments/xylophone4.png,0.9,4,0.2,-0.15,left,8,2020-12-15_20h36.07.096,premup-three_ses-02_part-02_label-phase2,3.2.4,Win32,60,,,,,,,,,,,,,,,,,1,0,330,319,1,329,1,,,,,,
right,0.47200036,0,359,,,,,,,,,,,,,3,6,3,stim/63.jpeg,Instruments,1,stim/objects/Instruments/gong3.png,0.9,4,0.2,-0.15,left,8,2020-12-15_20h36.07.096,premup-three_ses-02_part-02_label-phase2,3.2.4,Win32,60,,,,,,,,,,,,,,,,,1,0,330,288,1,329,2,,,,,,
left,0.471000195,1,360,,,,,,,,,,,,,3,6,1,stim/61.jpeg,Instruments,1,stim/objects/Instruments/frenchhorn3.png,0.9,4,0.2,-0.15,left,8,2020-12-15_20h36.07.096,premup-three_ses-02_part-02_label-phase2,3.2.4,Win32,60,,,,,,,,,,,,,,,,,1,0,330,242,1,329,2,,,,,,
left,0.426000118,1,361,,,,,,,,,,,,,3,6,4,stim/64.jpeg,Instruments,1,stim/objects/Instruments/gong3.png,0.9,1,-0.2,0.15,left,8,2020-12-15_20h36.07.096,premup-three_ses-02_part-02_label-phase2,3.2.4,Win32,60,,,,,,,,,,,,,,,,,1,0,330,233,1,329,2,,,,,,
right,0.507000208,0,362,,,,,,,,,,,,,1,1,2,stim/12.jpeg,Instruments,1,stim/objects/Instruments/bassdrum3.png,0.5,4,0.2,-0.15,left,8,2020-12-15_20h36.07.096,premup-three_ses-02_part-02_label-phase2,3.2.4,Win32,60,,,,,,,,,,,,,,,,,1,0,330,9,1,329,2,,,,,,
right,0.680000305,0,363,,,,,,,,,,,,,2,3,1,stim/31.jpeg,Instruments,1,stim/objects/Instruments/musicstand3.png,0.3,2,0.2,0.15,left,8,2020-12-15_20h36.07.096,premup-three_ses-02_part-02_label-phase2,3.2.4,Win32,60,,,,,,,,,,,,,,,,,1,0,330,60,1,329,1,,,,,,
left,0.559000254,0,364,,,,,,,,,,,,,2,3,3,stim/33.jpeg,HouseObjects,2,stim/objects/HouseObjects/coffee3.png,0.7,1,-0.2,0.15,right,8,2020-12-15_20h36.07.096,premup-three_ses-02_part-02_label-phase2,3.2.4,Win32,60,,,,,,,,,,,,,,,,,1,0,330,82,1,329,2,,,,,,
right,0.578000069,1,365,,,,,,,,,,,,,3,5,4,stim/54.jpeg,HouseObjects,2,stim/objects/HouseObjects/flyswatter3.png,0.9,3,-0.2,-0.15,right,8,2020-12-15_20h36.07.096,premup-three_ses-02_part-02_label-phase2,3.2.4,Win32,60,,,,,,,,,,,,,,,,,1,0,330,217,1,329,2,,,,,,
left,0.621000051,1,366,,,,,,,,,,,,,3,6,2,stim/62.jpeg,Instruments,1,stim/objects/Instruments/flutetrans3.png,0.9,2,0.2,0.15,left,8,2020-12-15_20h36.07.096,premup-three_ses-02_part-02_label-phase2,3.2.4,Win32,60,,,,,,,,,,,,,,,,,1,0,330,251,1,329,2,,,,,,
right,0.624000311,0,367,,,,,,,,,,,,,1,2,2,stim/22.jpeg,Instruments,1,stim/objects/Instruments/chime3.png,0.5,1,-0.2,0.15,left,8,2020-12-15_20h36.07.096,premup-three_ses-02_part-02_label-phase2,3.2.4,Win32,60,,,,,,,,,,,,,,,,,1,0,330,37,1,329,2,,,,,,
left,0.537000179,0,368,,,,,,,,,,,,,1,1,1,stim/11.jpeg,HouseObjects,2,stim/objects/HouseObjects/ballofstring3.png,0.5,2,0.2,0.15,right,8,2020-12-15_20h36.07.096,premup-three_ses-02_part-02_label-phase2,3.2.4,Win32,60,,,,,,,,,,,,,,,,,1,0,330,16,1,329,2,,,,,,
right,0.508000135,0,369,,,,,,,,,,,,,1,1,4,stim/14.jpeg,Instruments,1,stim/objects/Instruments/banjo3.png,0.5,4,0.2,-0.15,left,8,2020-12-15_20h36.07.096,premup-three_ses-02_part-02_label-phase2,3.2.4,Win32,60,,,,,,,,,,,,,,,,,1,0,330,3,1,329,2,,,,,,
right,0.470999956,1,370,,,,,,,,,,,,,3,5,2,stim/52.jpeg,HouseObjects,2,stim/objects/HouseObjects/dustpan3.png,0.9,1,-0.2,0.15,right,8,2020-12-15_20h36.07.096,premup-three_ses-02_part-02_label-phase2,3.2.4,Win32,60,,,,,,,,,,,,,,,,,1,0,330,171,1,329,2,,,,,,
left,0.519000053,1,371,,,,,,,,,,,,,2,3,4,stim/34.jpeg,Instruments,1,stim/objects/Instruments/vuvuzela3.png,0.3,4,0.2,-0.15,left,8,2020-12-15_20h36.07.096,premup-three_ses-02_part-02_label-phase2,3.2.4,Win32,60,,,,,,,,,,,,,,,,,1,0,330,63,1,329,1,,,,,,
left,0.512000322,1,372,,,,,,,,,,,,,3,6,3,stim/63.jpeg,Instruments,1,stim/objects/Instruments/grandpiano3.png,0.9,3,-0.2,-0.15,left,8,2020-12-15_20h36.07.096,premup-three_ses-02_part-02_label-phase2,3.2.4,Win32,60,,,,,,,,,,,,,,,,,1,0,330,264,1,329,2,,,,,,
right,0.531000137,1,373,,,,,,,,,,,,,3,5,3,stim/53.jpeg,HouseObjects,2,stim/objects/HouseObjects/doormat4.png,0.9,1,-0.2,0.15,right,8,2020-12-15_20h36.07.096,premup-three_ses-02_part-02_label-phase2,3.2.4,Win32,60,,,,,,,,,,,,,,,,,1,0,330,220,1,329,1,,,,,,
left,0.627000093,0,374,,,,,,,,,,,,,3,5,2,stim/52.jpeg,HouseObjects,2,stim/objects/HouseObjects/glass3.png,0.9,4,0.2,-0.15,right,8,2020-12-15_20h36.07.096,premup-three_ses-02_part-02_label-phase2,3.2.4,Win32,60,,,,,,,,,,,,,,,,,1,0,330,179,1,329,2,,,,,,
,,0,375,,,,,,,,,,,,,2,3,1,stim/31.jpeg,HouseObjects,2,stim/objects/HouseObjects/barbecuelighter4.png,0.7,1,-0.2,0.15,right,8,2020-12-15_20h36.07.096,premup-three_ses-02_part-02_label-phase2,3.2.4,Win32,60,,,,,,,,,,,,,,,,,1,0,330,92,1,329,1,,,,,,
left,0.560000181,1,376,,,,,,,,,,,,,1,1,1,stim/11.jpeg,Instruments,1,stim/objects/Instruments/banjo3.png,0.5,2,0.2,0.15,left,8,2020-12-15_20h36.07.096,premup-three_ses-02_part-02_label-phase2,3.2.4,Win32,60,,,,,,,,,,,,,,,,,1,0,330,8,1,329,2,,,,,,
left,0.644000053,0,377,,,,,,,,,,,,,3,6,4,stim/64.jpeg,HouseObjects,2,stim/objects/HouseObjects/wateringcan4.png,0.1,2,0.2,0.15,right,8,2020-12-15_20h36.07.096,premup-three_ses-02_part-02_label-phase2,3.2.4,Win32,60,,,,,,,,,,,,,,,,,1,0,330,329,1,329,1,,,,,,
left,0.549000025,1,378,,,,,,,,,,,,,3,6,1,stim/61.jpeg,Instruments,1,stim/objects/Instruments/frenchhorn3.png,0.9,3,-0.2,-0.15,left,8,2020-12-15_20h36.07.096,premup-three_ses-02_part-02_label-phase2,3.2.4,Win32,60,,,,,,,,,,,,,,,,,1,0,330,262,1,329,2,,,,,,
left,0.692000151,1,379,,,,,,,,,,,,,1,1,2,stim/12.jpeg,Instruments,1,stim/objects/Instruments/accordion3.png,0.5,4,0.2,-0.15,left,8,2020-12-15_20h36.07.096,premup-three_ses-02_part-02_label-phase2,3.2.4,Win32,60,,,,,,,,,,,,,,,,,1,0,330,5,1,329,2,,,,,,
right,0.407999992,1,380,,,,,,,,,,,,,3,5,3,stim/53.jpeg,HouseObjects,2,stim/objects/HouseObjects/glass3.png,0.9,3,-0.2,-0.15,right,8,2020-12-15_20h36.07.096,premup-three_ses-02_part-02_label-phase2,3.2.4,Win32,60,,,,,,,,,,,,,,,,,1,0,330,164,1,329,2,,,,,,
right,0.455000162,1,381,,,,,,,,,,,,,3,5,4,stim/54.jpeg,HouseObjects,2,stim/objects/HouseObjects/doormat3.png,0.9,3,-0.2,-0.15,right,8,2020-12-15_20h36.07.096,premup-three_ses-02_part-02_label-phase2,3.2.4,Win32,60,,,,,,,,,,,,,,,,,1,0,330,165,1,329,2,,,,,,
left,0.539000034,0,382,,,,,,,,,,,,,1,2,4,stim/24.jpeg,HouseObjects,2,stim/objects/HouseObjects/ironingboard3.png,0.5,1,-0.2,0.15,right,8,2020-12-15_20h36.07.096,premup-three_ses-02_part-02_label-phase2,3.2.4,Win32,60,,,,,,,,,,,,,,,,,1,0,330,55,1,329,1,,,,,,
right,0.495000124,0,383,,,,,,,,,,,,,3,5,1,stim/51.jpeg,Instruments,1,stim/objects/Instruments/hihat4.png,0.1,2,0.2,0.15,left,8,2020-12-15_20h36.07.096,premup-three_ses-02_part-02_label-phase2,3.2.4,Win32,60,,,,,,,,,,,,,,,,,1,0,330,138,1,329,1,,,,,,
