id_acc,key_resp_id.keys,key_resp_id.rt,key_resp_conf.keys,key_resp_conf.rt,assoc_acc,key_resp_assoc.keys,key_resp_assoc.rt,loc_acc,key_resp_loc.keys,key_resp_loc.rt,task_innerloop.thisRepN,task_innerloop.thisTrialN,task_innerloop.thisN,task_innerloop.thisIndex,task_innerloop.ran,task_innerloop.order,context_type,object_cat,PE_level,OvsN,obj_file,scn_file,corr_scn_cat,assoc_file,corr_scn_inst,corr_loc,participant,date,expName,psychopyVersion,OS,frameRate
1,right,6.862999916,,,0,,,0,,,1,0,200,136,1,199,0,2,0,2,stim/objects/Instruments/flutetrans3.png,,0,stim/0.png,0,0,9,2020-11-20_11h50.42.985,premup-three_ses-02_part-03_label-phase3,3.2.4,Win32,60
1,right,2.940000057,,,0,,,0,,,1,0,200,100,1,199,0,1,0,2,stim/objects/HouseObjects/ashtray3.png,,0,stim/0.png,0,0,9,2020-11-20_11h50.42.985,premup-three_ses-02_part-03_label-phase3,3.2.4,Win32,60
1,left,1.305999994,,,0,,,0,,,1,0,200,158,1,199,0,2,0,2,stim/objects/Instruments/metronome3.png,,0,stim/0.png,0,0,9,2020-11-20_11h50.42.985,premup-three_ses-02_part-03_label-phase3,3.2.4,Win32,60
1,left,1.221999884,3,2.734999895,0,4,4.179999828,0,3,5.535000086,1,0,200,70,1,199,3,2,0.9,1,stim/objects/Instruments/flute2.png,stim/13.jpeg,1,stim/1.png,3,3,9,2020-11-20_11h50.42.985,premup-three_ses-02_part-03_label-phase3,3.2.4,Win32,60
1,right,2.304999828,2,3.322000027,0,2,3.985999823,0,2,6.039000034,1,0,200,0,1,199,1,1,0.5,1,stim/objects/HouseObjects/glassmop.png,stim/33.jpeg,3,stim/3.png,3,3,9,2020-11-20_11h50.42.985,premup-three_ses-02_part-03_label-phase3,3.2.4,Win32,60
1,left,1.796000004,4,3.65199995,0,3,16.85899997,0,2,7.368000031,1,0,200,91,1,199,3,2,0.1,1,stim/objects/Instruments/maraca2.png,stim/24.jpeg,2,stim/2.png,4,2,9,2020-11-20_11h50.42.985,premup-three_ses-02_part-03_label-phase3,3.2.4,Win32,60
1,right,6.697000027,1,3.151000023,0,1,5.527999878,0,1,6.926000118,1,0,200,28,1,199,2,1,0.3,1,stim/objects/HouseObjects/basket2.png,stim/51.jpeg,5,stim/5.png,1,1,9,2020-11-20_11h50.42.985,premup-three_ses-02_part-03_label-phase3,3.2.4,Win32,60
1,right,4.723999977,,,0,,,0,,,1,0,200,147,1,199,0,1,0,2,stim/objects/HouseObjects/knife3.png,,0,stim/0.png,0,0,9,2020-11-20_11h50.42.985,premup-three_ses-02_part-03_label-phase3,3.2.4,Win32,60
1,left,3.085000038,3,2.551999807,0,1,11.53999996,0,4,11.67000008,1,0,200,9,1,199,1,1,0.5,1,stim/objects/Instruments/keyboard.png,stim/32.jpeg,3,stim/3.png,2,1,9,2020-11-20_11h50.42.985,premup-three_ses-02_part-03_label-phase3,3.2.4,Win32,60
1,left,1.750999928,3,1.562999725,0,2,7.148000002,0,3,8.474999905,1,0,200,30,1,199,2,2,0.7,1,stim/objects/Instruments/musicstand.png,stim/52.jpeg,5,stim/5.png,2,2,9,2020-11-20_11h50.42.985,premup-three_ses-02_part-03_label-phase3,3.2.4,Win32,60
1,left,1.294999838,,,0,,,0,,,1,0,200,101,1,199,0,1,0,2,stim/objects/HouseObjects/ballofstring3.png,,0,stim/0.png,0,0,9,2020-11-20_11h50.42.985,premup-three_ses-02_part-03_label-phase3,3.2.4,Win32,60
1,left,2.921000004,,,0,,,0,,,1,0,200,161,1,199,0,1,0,2,stim/objects/HouseObjects/pitcher3.png,,0,stim/0.png,0,0,9,2020-11-20_11h50.42.985,premup-three_ses-02_part-03_label-phase3,3.2.4,Win32,60
1,right,1.701999903,,,0,,,0,,,1,0,200,197,1,199,0,2,0,2,stim/objects/Instruments/drums4.png,,0,stim/0.png,0,0,9,2020-11-20_11h50.42.985,premup-three_ses-02_part-03_label-phase3,3.2.4,Win32,60
1,right,6.254999876,,,0,,,0,,,1,0,200,129,1,199,0,1,0,2,stim/objects/HouseObjects/glass3.png,,0,stim/0.png,0,0,9,2020-11-20_11h50.42.985,premup-three_ses-02_part-03_label-phase3,3.2.4,Win32,60
1,left,0.874000072,4,2.055999994,0,3,8.460999727,0,3,5.583999872,1,0,200,93,1,199,3,2,0.1,1,stim/objects/Instruments/metronome2.png,stim/22.jpeg,2,stim/2.png,2,2,9,2020-11-20_11h50.42.985,premup-three_ses-02_part-03_label-phase3,3.2.4,Win32,60
1,left,2.890999794,3,3.980000019,0,4,4.653999805,0,2,6.552999973,1,0,200,31,1,199,2,2,0.7,1,stim/objects/Instruments/oboe.png,stim/53.jpeg,5,stim/5.png,3,4,9,2020-11-20_11h50.42.985,premup-three_ses-02_part-03_label-phase3,3.2.4,Win32,60
1,left,1.167999983,3,1.15199995,0,2,12.51899981,0,3,16.17199993,1,0,200,92,1,199,3,2,0.1,1,stim/objects/Instruments/marimba2.png,stim/21.jpeg,2,stim/2.png,1,2,9,2020-11-20_11h50.42.985,premup-three_ses-02_part-03_label-phase3,3.2.4,Win32,60
1,left,1.244999886,4,1.623999834,0,1,7.356999874,0,1,1.712999821,1,0,200,49,1,199,2,1,0.7,1,stim/objects/HouseObjects/dishsoap2.png,stim/61.jpeg,6,stim/6.png,1,1,9,2020-11-20_11h50.42.985,premup-three_ses-02_part-03_label-phase3,3.2.4,Win32,60
1,left,1.78399992,4,1.680000067,0,3,8.777999878,0,2,3.757999897,1,0,200,38,1,199,2,2,0.7,1,stim/objects/Instruments/banjo2.png,stim/52.jpeg,5,stim/5.png,2,1,9,2020-11-20_11h50.42.985,premup-three_ses-02_part-03_label-phase3,3.2.4,Win32,60
1,left,1.401000023,4,1.167999744,0,2,2.258999825,0,1,2.648000002,1,0,200,3,1,199,1,1,0.5,1,stim/objects/HouseObjects/handvacuum.png,stim/32.jpeg,3,stim/3.png,2,2,9,2020-11-20_11h50.42.985,premup-three_ses-02_part-03_label-phase3,3.2.4,Win32,60
1,left,3.361000061,2,1.20299983,0,2,1.957999945,0,4,6.007999897,1,0,200,44,1,199,2,1,0.7,1,stim/objects/HouseObjects/clock2.png,stim/64.jpeg,6,stim/6.png,4,1,9,2020-11-20_11h50.42.985,premup-three_ses-02_part-03_label-phase3,3.2.4,Win32,60
1,right,1.638999939,,,0,,,0,,,1,0,200,194,1,199,0,2,0,2,stim/objects/Instruments/cornet4.png,,0,stim/0.png,0,0,9,2020-11-20_11h50.42.985,premup-three_ses-02_part-03_label-phase3,3.2.4,Win32,60
1,left,0.999000072,3,0.960000038,0,3,4.335000038,0,1,3.934999943,1,0,200,53,1,199,2,2,0.3,1,stim/objects/Instruments/clarinet2.png,stim/61.jpeg,6,stim/6.png,1,4,9,2020-11-20_11h50.42.985,premup-three_ses-02_part-03_label-phase3,3.2.4,Win32,60
1,left,1.246000051,4,1.021999836,0,3,7.449999809,0,1,5.082000017,1,0,200,95,1,199,3,2,0.1,1,stim/objects/Instruments/musicstand2.png,stim/24.jpeg,2,stim/2.png,4,4,9,2020-11-20_11h50.42.985,premup-three_ses-02_part-03_label-phase3,3.2.4,Win32,60
1,left,1.210000038,,,0,,,0,,,1,0,200,195,1,199,0,2,0,2,stim/objects/Instruments/cymbal4.png,,0,stim/0.png,0,0,9,2020-11-20_11h50.42.985,premup-three_ses-02_part-03_label-phase3,3.2.4,Win32,60
1,left,1.53399992,4,1.312999964,0,4,7.75999999,0,2,4.700999737,1,0,200,32,1,199,2,2,0.7,1,stim/objects/Instruments/panflute.png,stim/54.jpeg,5,stim/5.png,4,4,9,2020-11-20_11h50.42.985,premup-three_ses-02_part-03_label-phase3,3.2.4,Win32,60
1,left,4.563999891,4,1.229000092,0,2,5.224999905,0,1,21.1309998,1,0,200,13,1,199,1,2,0.5,1,stim/objects/HouseObjects/lintroller.png,stim/44.jpeg,4,stim/4.png,4,2,9,2020-11-20_11h50.42.985,premup-three_ses-02_part-03_label-phase3,3.2.4,Win32,60
1,right,2.03399992,,,0,,,0,,,1,0,200,180,1,199,0,1,0,2,stim/objects/HouseObjects/blender4.png,,0,stim/0.png,0,0,9,2020-11-20_11h50.42.985,premup-three_ses-02_part-03_label-phase3,3.2.4,Win32,60
1,left,4.001999855,4,1.419000149,0,3,12.50300002,0,4,3.285000086,1,0,200,73,1,199,3,2,0.9,1,stim/objects/Instruments/gong2.png,stim/12.jpeg,1,stim/1.png,2,4,9,2020-11-20_11h50.42.985,premup-three_ses-02_part-03_label-phase3,3.2.4,Win32,60
1,right,1.984999895,,,0,,,0,,,1,0,200,130,1,199,0,2,0,2,stim/objects/Instruments/cymbal3.png,,0,stim/0.png,0,0,9,2020-11-20_11h50.42.985,premup-three_ses-02_part-03_label-phase3,3.2.4,Win32,60
1,left,1.188999891,,,0,,,0,,,1,0,200,193,1,199,0,2,0,2,stim/objects/Instruments/clarinet4.png,,0,stim/0.png,0,0,9,2020-11-20_11h50.42.985,premup-three_ses-02_part-03_label-phase3,3.2.4,Win32,60
1,right,1.849999905,,,0,,,0,,,1,0,200,123,1,199,0,1,0,2,stim/objects/HouseObjects/cushion3.png,,0,stim/0.png,0,0,9,2020-11-20_11h50.42.985,premup-three_ses-02_part-03_label-phase3,3.2.4,Win32,60
1,right,2.368000031,,,0,,,0,,,1,0,200,186,1,199,0,1,0,2,stim/objects/HouseObjects/clothespin4.png,,0,stim/0.png,0,0,9,2020-11-20_11h50.42.985,premup-three_ses-02_part-03_label-phase3,3.2.4,Win32,60
1,right,3.351000071,,,0,,,0,,,1,0,200,120,1,199,0,1,0,2,stim/objects/HouseObjects/clothesdryingrack3.png,,0,stim/0.png,0,0,9,2020-11-20_11h50.42.985,premup-three_ses-02_part-03_label-phase3,3.2.4,Win32,60
1,left,1.342999935,,,0,,,0,,,1,0,200,153,1,199,0,2,0,2,stim/objects/Instruments/hihat3.png,,0,stim/0.png,0,0,9,2020-11-20_11h50.42.985,premup-three_ses-02_part-03_label-phase3,3.2.4,Win32,60
1,right,2.981999874,2,2.672999859,0,2,7.31799984,0,1,2.842999935,1,0,200,65,1,199,3,1,0.1,1,stim/objects/HouseObjects/glassmop2.png,stim/12.jpeg,1,stim/1.png,2,3,9,2020-11-20_11h50.42.985,premup-three_ses-02_part-03_label-phase3,3.2.4,Win32,60
1,left,2.393999815,4,3.671999931,0,4,5.195999861,0,1,3.008999825,1,0,200,41,1,199,2,1,0.7,1,stim/objects/HouseObjects/bottle2.png,stim/61.jpeg,6,stim/6.png,1,4,9,2020-11-20_11h50.42.985,premup-three_ses-02_part-03_label-phase3,3.2.4,Win32,60
1,left,2.255000114,3,1.06099987,0,2,2.184999943,0,3,3.278999805,1,0,200,51,1,199,2,2,0.3,1,stim/objects/Instruments/cello2.png,stim/63.jpeg,6,stim/6.png,3,1,9,2020-11-20_11h50.42.985,premup-three_ses-02_part-03_label-phase3,3.2.4,Win32,60
1,left,1.493000031,4,0.667999983,0,1,7.832999945,0,4,5.264999866,1,0,200,89,1,199,3,1,0.9,1,stim/objects/HouseObjects/rubbergloves2.png,stim/22.jpeg,2,stim/2.png,2,4,9,2020-11-20_11h50.42.985,premup-three_ses-02_part-03_label-phase3,3.2.4,Win32,60
1,right,1.351999998,,,0,,,0,,,1,0,200,183,1,199,0,1,0,2,stim/objects/HouseObjects/bucket4.png,,0,stim/0.png,0,0,9,2020-11-20_11h50.42.985,premup-three_ses-02_part-03_label-phase3,3.2.4,Win32,60
1,left,1.104000092,4,1.674000025,0,3,6.13499999,0,3,11.12199998,1,0,200,40,1,199,2,1,0.7,1,stim/objects/HouseObjects/blender2.png,stim/64.jpeg,6,stim/6.png,4,3,9,2020-11-20_11h50.42.985,premup-three_ses-02_part-03_label-phase3,3.2.4,Win32,60
1,right,1.768000126,2,1.642999887,0,4,3.939999819,0,2,2.026000023,1,0,200,80,1,199,3,1,0.9,1,stim/objects/HouseObjects/ironingboard2.png,stim/21.jpeg,2,stim/2.png,1,4,9,2020-11-20_11h50.42.985,premup-three_ses-02_part-03_label-phase3,3.2.4,Win32,60
1,left,1.07799983,4,0.600999832,0,1,3.9599998,0,4,12.01300001,1,0,200,78,1,199,3,2,0.9,1,stim/objects/Instruments/hihat2.png,stim/13.jpeg,1,stim/1.png,3,2,9,2020-11-20_11h50.42.985,premup-three_ses-02_part-03_label-phase3,3.2.4,Win32,60
1,right,1.325999975,2,1.78399992,0,2,20.40199995,0,1,2.812999964,1,0,200,35,1,199,2,2,0.7,1,stim/objects/Instruments/accordion2.png,stim/53.jpeg,5,stim/5.png,3,3,9,2020-11-20_11h50.42.985,premup-three_ses-02_part-03_label-phase3,3.2.4,Win32,60
1,right,1.701999903,1,3.38499999,0,4,8.866999865,0,3,6.601000071,1,0,200,66,1,199,3,1,0.1,1,stim/objects/HouseObjects/hairdryer2.png,stim/13.jpeg,1,stim/1.png,3,3,9,2020-11-20_11h50.42.985,premup-three_ses-02_part-03_label-phase3,3.2.4,Win32,60
1,left,1.450999737,4,0.650999784,0,4,5.05099988,0,3,4.207000017,1,0,200,99,1,199,3,2,0.1,1,stim/objects/Instruments/record2.png,stim/24.jpeg,2,stim/2.png,4,4,9,2020-11-20_11h50.42.985,premup-three_ses-02_part-03_label-phase3,3.2.4,Win32,60
1,right,1.663000107,,,0,,,0,,,1,0,200,174,1,199,0,2,0,2,stim/objects/Instruments/record3.png,,0,stim/0.png,0,0,9,2020-11-20_11h50.42.985,premup-three_ses-02_part-03_label-phase3,3.2.4,Win32,60
1,left,1.208999872,3,1.346999884,0,3,5.119999886,0,2,6.924000025,1,0,200,55,1,199,2,2,0.3,1,stim/objects/Instruments/cymbal2.png,stim/63.jpeg,6,stim/6.png,3,2,9,2020-11-20_11h50.42.985,premup-three_ses-02_part-03_label-phase3,3.2.4,Win32,60
1,left,3.951999903,2,1.236000061,0,3,11.88199997,0,4,4.412999868,1,0,200,74,1,199,3,2,0.9,1,stim/objects/Instruments/grandpiano2.png,stim/13.jpeg,1,stim/1.png,3,2,9,2020-11-20_11h50.42.985,premup-three_ses-02_part-03_label-phase3,3.2.4,Win32,60
1,right,1.296999931,,,0,,,0,,,1,0,200,126,1,199,0,1,0,2,stim/objects/HouseObjects/dustpan3.png,,0,stim/0.png,0,0,9,2020-11-20_11h50.42.985,premup-three_ses-02_part-03_label-phase3,3.2.4,Win32,60
1,right,1.388000011,,,0,,,0,,,1,0,200,107,1,199,0,1,0,2,stim/objects/HouseObjects/broom3.png,,0,stim/0.png,0,0,9,2020-11-20_11h50.42.985,premup-three_ses-02_part-03_label-phase3,3.2.4,Win32,60
1,right,2.487999916,,,0,,,0,,,1,0,200,142,1,199,0,1,0,2,stim/objects/HouseObjects/handbrush3.png,,0,stim/0.png,0,0,9,2020-11-20_11h50.42.985,premup-three_ses-02_part-03_label-phase3,3.2.4,Win32,60
1,left,1.003999949,4,0.628000021,0,3,11.81800008,0,3,1.939999819,1,0,200,84,1,199,3,1,0.9,1,stim/objects/HouseObjects/match2.png,stim/21.jpeg,2,stim/2.png,1,3,9,2020-11-20_11h50.42.985,premup-three_ses-02_part-03_label-phase3,3.2.4,Win32,60
1,left,1.213000059,,,0,,,0,,,1,0,200,157,1,199,0,2,0,2,stim/objects/Instruments/marimba3.png,,0,stim/0.png,0,0,9,2020-11-20_11h50.42.985,premup-three_ses-02_part-03_label-phase3,3.2.4,Win32,60
1,left,1.036000013,4,1.733999968,0,2,4.378999949,0,1,4.069999933,1,0,200,14,1,199,1,2,0.5,1,stim/objects/HouseObjects/match.png,stim/41.jpeg,4,stim/4.png,1,4,9,2020-11-20_11h50.42.985,premup-three_ses-02_part-03_label-phase3,3.2.4,Win32,60
1,left,2.268999815,3,1.377000093,0,1,8.987999916,0,1,0.500999928,1,0,200,59,1,199,2,2,0.3,1,stim/objects/Instruments/electricguitar2.png,stim/63.jpeg,6,stim/6.png,3,3,9,2020-11-20_11h50.42.985,premup-three_ses-02_part-03_label-phase3,3.2.4,Win32,60
1,left,3.60800004,3,2.204999924,0,3,6.197999954,0,4,6.48300004,1,0,200,88,1,199,3,1,0.9,1,stim/objects/HouseObjects/remote2.png,stim/21.jpeg,2,stim/2.png,1,1,9,2020-11-20_11h50.42.985,premup-three_ses-02_part-03_label-phase3,3.2.4,Win32,60
1,right,3.123999834,,,0,,,0,,,1,0,200,135,1,199,0,2,0,2,stim/objects/Instruments/flute3.png,,0,stim/0.png,0,0,9,2020-11-20_11h50.42.985,premup-three_ses-02_part-03_label-phase3,3.2.4,Win32,60
1,left,1.101000071,,,0,,,0,,,1,0,200,177,1,199,0,2,0,2,stim/objects/Instruments/balalaika4.png,,0,stim/0.png,0,0,9,2020-11-20_11h50.42.985,premup-three_ses-02_part-03_label-phase3,3.2.4,Win32,60
1,left,3.756000042,,,0,,,0,,,1,0,200,167,1,199,0,1,0,2,stim/objects/HouseObjects/barbecuelighter4.png,,0,stim/0.png,0,0,9,2020-11-20_11h50.42.985,premup-three_ses-02_part-03_label-phase3,3.2.4,Win32,60
1,left,0.972000122,4,1.193000078,0,1,12.06100011,0,3,0.976999998,1,0,200,19,1,199,1,2,0.5,1,stim/objects/Instruments/musicsheet.png,stim/44.jpeg,4,stim/4.png,4,3,9,2020-11-20_11h50.42.985,premup-three_ses-02_part-03_label-phase3,3.2.4,Win32,60
1,left,3.292999744,3,3.552999973,0,2,6.733999729,0,4,2.500999928,1,0,200,52,1,199,2,2,0.3,1,stim/objects/Instruments/chime2.png,stim/64.jpeg,6,stim/6.png,4,4,9,2020-11-20_11h50.42.985,premup-three_ses-02_part-03_label-phase3,3.2.4,Win32,60
1,right,29.33200002,,,0,,,0,,,1,0,200,184,1,199,0,1,0,2,stim/objects/HouseObjects/clock4.png,,0,stim/0.png,0,0,9,2020-11-20_11h50.42.985,premup-three_ses-02_part-03_label-phase3,3.2.4,Win32,60
1,left,1.700999975,,,0,,,0,,,1,0,200,149,1,199,0,1,0,2,stim/objects/HouseObjects/match3.png,,0,stim/0.png,0,0,9,2020-11-20_11h50.42.985,premup-three_ses-02_part-03_label-phase3,3.2.4,Win32,60
1,right,2.259000063,,,0,,,0,,,1,0,200,108,1,199,0,1,0,2,stim/objects/HouseObjects/bucket3.png,,0,stim/0.png,0,0,9,2020-11-20_11h50.42.985,premup-three_ses-02_part-03_label-phase3,3.2.4,Win32,60
1,left,0.965999842,4,1.28399992,0,3,2.286999941,0,4,2.599999905,1,0,200,79,1,199,3,2,0.9,1,stim/objects/Instruments/keyboard2.png,stim/14.jpeg,1,stim/1.png,4,2,9,2020-11-20_11h50.42.985,premup-three_ses-02_part-03_label-phase3,3.2.4,Win32,60
1,right,1.971999884,,,0,,,0,,,1,0,200,117,1,199,0,2,0,2,stim/objects/Instruments/chime3.png,,0,stim/0.png,0,0,9,2020-11-20_11h50.42.985,premup-three_ses-02_part-03_label-phase3,3.2.4,Win32,60
1,right,1.001999855,,,0,,,0,,,1,0,200,190,1,199,0,2,0,2,stim/objects/Instruments/bassguitar4.png,,0,stim/0.png,0,0,9,2020-11-20_11h50.42.985,premup-three_ses-02_part-03_label-phase3,3.2.4,Win32,60
1,right,0.86500001,3,1.90899992,0,1,4.927000046,0,1,3.351000071,1,0,200,63,1,199,3,1,0.1,1,stim/objects/HouseObjects/garbagebin2.png,stim/14.jpeg,1,stim/1.png,4,1,9,2020-11-20_11h50.42.985,premup-three_ses-02_part-03_label-phase3,3.2.4,Win32,60
1,left,2.045000076,2,0.943999767,0,2,3.411999941,0,2,2.795999765,1,0,200,39,1,199,2,2,0.7,1,stim/objects/Instruments/bassdrum2.png,stim/53.jpeg,5,stim/5.png,3,1,9,2020-11-20_11h50.42.985,premup-three_ses-02_part-03_label-phase3,3.2.4,Win32,60
1,right,1.934999943,3,2.455999851,0,4,1.966999769,0,1,6.855000019,1,0,200,23,1,199,2,1,0.3,1,stim/objects/HouseObjects/remote.png,stim/54.jpeg,5,stim/5.png,4,2,9,2020-11-20_11h50.42.985,premup-three_ses-02_part-03_label-phase3,3.2.4,Win32,60
1,right,0.950999975,,,0,,,0,,,1,0,200,103,1,199,0,1,0,2,stim/objects/HouseObjects/basket3.png,,0,stim/0.png,0,0,9,2020-11-20_11h50.42.985,premup-three_ses-02_part-03_label-phase3,3.2.4,Win32,60
1,left,1.106999874,3,0.784999847,0,4,3.842000008,0,3,1.881000042,1,0,200,10,1,199,1,2,0.5,1,stim/objects/HouseObjects/ironingboard.png,stim/41.jpeg,4,stim/4.png,1,3,9,2020-11-20_11h50.42.985,premup-three_ses-02_part-03_label-phase3,3.2.4,Win32,60
1,right,1.681999922,,,0,,,0,,,1,0,200,189,1,199,0,1,0,2,stim/objects/HouseObjects/dishsoap4.png,,0,stim/0.png,0,0,9,2020-11-20_11h50.42.985,premup-three_ses-02_part-03_label-phase3,3.2.4,Win32,60
1,right,1.85199976,,,0,,,0,,,1,0,200,152,1,199,0,2,0,2,stim/objects/Instruments/harp3.png,,0,stim/0.png,0,0,9,2020-11-20_11h50.42.985,premup-three_ses-02_part-03_label-phase3,3.2.4,Win32,60
1,right,0.982999802,,,0,,,0,,,1,0,200,122,1,199,0,1,0,2,stim/objects/HouseObjects/coffee3.png,,0,stim/0.png,0,0,9,2020-11-20_11h50.42.985,premup-three_ses-02_part-03_label-phase3,3.2.4,Win32,60
1,left,2.275999784,2,1.001999855,0,1,3.415999889,0,1,5.15199995,1,0,200,47,1,199,2,1,0.7,1,stim/objects/HouseObjects/coffee2.png,stim/63.jpeg,6,stim/6.png,3,1,9,2020-11-20_11h50.42.985,premup-three_ses-02_part-03_label-phase3,3.2.4,Win32,60
1,left,1.373999834,2,0.746000051,0,4,4.188999891,0,1,2.151000023,1,0,200,56,1,199,2,2,0.3,1,stim/objects/Instruments/doublebass2.png,stim/64.jpeg,6,stim/6.png,4,4,9,2020-11-20_11h50.42.985,premup-three_ses-02_part-03_label-phase3,3.2.4,Win32,60
1,right,1.963000059,1,4.128999949,0,1,7.224999905,0,2,0.697999954,1,0,200,1,1,199,1,1,0.5,1,stim/objects/HouseObjects/hairdryer.png,stim/34.jpeg,3,stim/3.png,4,3,9,2020-11-20_11h50.42.985,premup-three_ses-02_part-03_label-phase3,3.2.4,Win32,60
1,left,1.931999922,3,1.073999882,0,3,2.687999964,0,2,2.583999872,1,0,200,34,1,199,2,2,0.7,1,stim/objects/Instruments/record.png,stim/52.jpeg,5,stim/5.png,2,1,9,2020-11-20_11h50.42.985,premup-three_ses-02_part-03_label-phase3,3.2.4,Win32,60
1,left,1.719000101,2,1.288000107,0,2,6.285999775,0,4,3.577000141,1,0,200,4,1,199,1,1,0.5,1,stim/objects/HouseObjects/iron.png,stim/33.jpeg,3,stim/3.png,3,1,9,2020-11-20_11h50.42.985,premup-three_ses-02_part-03_label-phase3,3.2.4,Win32,60
1,right,1.446000099,3,2.484999895,0,1,4.21600008,0,2,8.642999887,1,0,200,6,1,199,1,1,0.5,1,stim/objects/Instruments/harmonica.png,stim/33.jpeg,3,stim/3.png,3,4,9,2020-11-20_11h50.42.985,premup-three_ses-02_part-03_label-phase3,3.2.4,Win32,60
1,right,1.486999989,,,0,,,0,,,1,0,200,138,1,199,0,2,0,2,stim/objects/Instruments/gong3.png,,0,stim/0.png,0,0,9,2020-11-20_11h50.42.985,premup-three_ses-02_part-03_label-phase3,3.2.4,Win32,60
1,left,1.095000029,,,0,,,0,,,1,0,200,105,1,199,0,1,0,2,stim/objects/HouseObjects/blender3.png,,0,stim/0.png,0,0,9,2020-11-20_11h50.42.985,premup-three_ses-02_part-03_label-phase3,3.2.4,Win32,60
1,right,1.07799983,,,0,,,0,,,1,0,200,106,1,199,0,1,0,2,stim/objects/HouseObjects/bottle3.png,,0,stim/0.png,0,0,9,2020-11-20_11h50.42.985,premup-three_ses-02_part-03_label-phase3,3.2.4,Win32,60
1,left,0.90199995,,,0,,,0,,,1,0,200,155,1,199,0,2,0,2,stim/objects/Instruments/laud3.png,,0,stim/0.png,0,0,9,2020-11-20_11h50.42.985,premup-three_ses-02_part-03_label-phase3,3.2.4,Win32,60
1,left,1.06799984,4,0.88499999,0,3,8.821000099,0,3,5.747999907,1,0,200,76,1,199,3,2,0.9,1,stim/objects/Instruments/harmonica2.png,stim/11.jpeg,1,stim/1.png,1,2,9,2020-11-20_11h50.42.985,premup-three_ses-02_part-03_label-phase3,3.2.4,Win32,60
1,right,1.15199995,3,1.943999767,0,2,1.895999908,0,1,3.467000008,1,0,200,85,1,199,3,1,0.9,1,stim/objects/HouseObjects/pan2.png,stim/22.jpeg,2,stim/2.png,2,4,9,2020-11-20_11h50.42.985,premup-three_ses-02_part-03_label-phase3,3.2.4,Win32,60
1,right,1.653999805,2,1.777999878,0,3,2.467000008,0,4,3.177999973,1,0,200,71,1,199,3,2,0.9,1,stim/objects/Instruments/flutetrans2.png,stim/14.jpeg,1,stim/1.png,4,3,9,2020-11-20_11h50.42.985,premup-three_ses-02_part-03_label-phase3,3.2.4,Win32,60
1,left,3.001999855,3,1.967999935,0,4,2.997999907,0,3,1.482999802,1,0,200,11,1,199,1,2,0.5,1,stim/objects/HouseObjects/key.png,stim/42.jpeg,4,stim/4.png,2,4,9,2020-11-20_11h50.42.985,premup-three_ses-02_part-03_label-phase3,3.2.4,Win32,60
1,left,1.273000002,,,0,,,0,,,1,0,200,156,1,199,0,2,0,2,stim/objects/Instruments/maraca3.png,,0,stim/0.png,0,0,9,2020-11-20_11h50.42.985,premup-three_ses-02_part-03_label-phase3,3.2.4,Win32,60
1,left,1.237999916,,,0,,,0,,,1,0,200,188,1,199,0,1,0,2,stim/objects/HouseObjects/cushion4.png,,0,stim/0.png,0,0,9,2020-11-20_11h50.42.985,premup-three_ses-02_part-03_label-phase3,3.2.4,Win32,60
1,right,0.915999889,,,0,,,0,,,1,0,200,104,1,199,0,1,0,2,stim/objects/HouseObjects/bleachbottle3.png,,0,stim/0.png,0,0,9,2020-11-20_11h50.42.985,premup-three_ses-02_part-03_label-phase3,3.2.4,Win32,60
1,left,1.243000031,,,0,,,0,,,1,0,200,170,1,199,0,2,0,2,stim/objects/Instruments/musicstand3.png,,0,stim/0.png,0,0,9,2020-11-20_11h50.42.985,premup-three_ses-02_part-03_label-phase3,3.2.4,Win32,60
1,right,1.511999846,,,0,,,0,,,1,0,200,111,1,199,0,2,0,2,stim/objects/Instruments/acousticguitar3.png,,0,stim/0.png,0,0,9,2020-11-20_11h50.42.985,premup-three_ses-02_part-03_label-phase3,3.2.4,Win32,60
1,right,0.963000059,3,2.854999781,0,2,1.589999914,0,2,5.383999825,1,0,200,77,1,199,3,2,0.9,1,stim/objects/Instruments/harp2.png,stim/12.jpeg,1,stim/1.png,2,4,9,2020-11-20_11h50.42.985,premup-three_ses-02_part-03_label-phase3,3.2.4,Win32,60
1,right,1.279999971,3,2.116999865,0,3,4.265999794,0,1,4.916999817,1,0,200,27,1,199,2,1,0.3,1,stim/objects/HouseObjects/barbecuelighter2.png,stim/54.jpeg,5,stim/5.png,4,2,9,2020-11-20_11h50.42.985,premup-three_ses-02_part-03_label-phase3,3.2.4,Win32,60
1,left,2.468999863,2,1.684999943,0,4,3.151000023,0,2,3.329999924,1,0,200,83,1,199,3,1,0.9,1,stim/objects/HouseObjects/lintroller2.png,stim/24.jpeg,2,stim/2.png,4,1,9,2020-11-20_11h50.42.985,premup-three_ses-02_part-03_label-phase3,3.2.4,Win32,60
1,right,3.034999847,,,0,,,0,,,1,0,200,140,1,199,0,1,0,2,stim/objects/HouseObjects/glassmop3.png,,0,stim/0.png,0,0,9,2020-11-20_11h50.42.985,premup-three_ses-02_part-03_label-phase3,3.2.4,Win32,60
1,left,1.318000078,4,1.018999815,0,2,3.717999935,0,3,1.222999811,1,0,200,64,1,199,3,1,0.1,1,stim/objects/HouseObjects/glass2.png,stim/11.jpeg,1,stim/1.png,1,4,9,2020-11-20_11h50.42.985,premup-three_ses-02_part-03_label-phase3,3.2.4,Win32,60
1,right,5.31799984,,,0,,,0,,,1,0,200,115,1,199,0,2,0,2,stim/objects/Instruments/bassguitar3.png,,0,stim/0.png,0,0,9,2020-11-20_11h50.42.985,premup-three_ses-02_part-03_label-phase3,3.2.4,Win32,60
1,right,6.15199995,2,1.476999998,0,2,7.792999744,0,4,5.564999819,1,0,200,24,1,199,2,1,0.3,1,stim/objects/HouseObjects/rubbergloves.png,stim/51.jpeg,5,stim/5.png,1,3,9,2020-11-20_11h50.42.985,premup-three_ses-02_part-03_label-phase3,3.2.4,Win32,60
1,left,1.268999815,4,0.736999989,0,2,5.535999775,0,2,5.497999907,1,0,200,46,1,199,2,1,0.7,1,stim/objects/HouseObjects/clothespin2.png,stim/62.jpeg,6,stim/6.png,2,2,9,2020-11-20_11h50.42.985,premup-three_ses-02_part-03_label-phase3,3.2.4,Win32,60
1,right,1.444000006,,,0,,,0,,,1,0,200,172,1,199,0,2,0,2,stim/objects/Instruments/panflute3.png,,0,stim/0.png,0,0,9,2020-11-20_11h50.42.985,premup-three_ses-02_part-03_label-phase3,3.2.4,Win32,60
1,left,1.322999954,,,0,,,0,,,1,0,200,118,1,199,0,2,0,2,stim/objects/Instruments/clarinet3.png,,0,stim/0.png,0,0,9,2020-11-20_11h50.42.985,premup-three_ses-02_part-03_label-phase3,3.2.4,Win32,60
1,right,0.917999983,2,1.625999928,0,3,1.701999903,0,1,8.065999746,1,0,200,42,1,199,2,1,0.7,1,stim/objects/HouseObjects/broom2.png,stim/62.jpeg,6,stim/6.png,2,4,9,2020-11-20_11h50.42.985,premup-three_ses-02_part-03_label-phase3,3.2.4,Win32,60
1,left,1.450999975,3,1.645999908,0,3,3.233999968,0,3,4.242000103,1,0,200,26,1,199,2,1,0.3,1,stim/objects/HouseObjects/ballofstring2.png,stim/53.jpeg,5,stim/5.png,3,2,9,2020-11-20_11h50.42.985,premup-three_ses-02_part-03_label-phase3,3.2.4,Win32,60
1,right,1.872999907,,,0,,,0,,,1,0,200,191,1,199,0,2,0,2,stim/objects/Instruments/cello4.png,,0,stim/0.png,0,0,9,2020-11-20_11h50.42.985,premup-three_ses-02_part-03_label-phase3,3.2.4,Win32,60
1,left,1.095000029,3,1.118999958,0,3,2.647000074,0,4,0.468999863,1,0,200,75,1,199,3,2,0.9,1,stim/objects/Instruments/guitarcase2.png,stim/14.jpeg,1,stim/1.png,4,4,9,2020-11-20_11h50.42.985,premup-three_ses-02_part-03_label-phase3,3.2.4,Win32,60
1,right,1.519999743,,,0,,,0,,,1,0,200,187,1,199,0,1,0,2,stim/objects/HouseObjects/coffee4.png,,0,stim/0.png,0,0,9,2020-11-20_11h50.42.985,premup-three_ses-02_part-03_label-phase3,3.2.4,Win32,60
1,right,0.893999815,,,0,,,0,,,1,0,200,164,1,199,0,1,0,2,stim/objects/HouseObjects/rubbergloves3.png,,0,stim/0.png,0,0,9,2020-11-20_11h50.42.985,premup-three_ses-02_part-03_label-phase3,3.2.4,Win32,60
1,right,1.222000122,3,3.301999807,0,3,5.799999714,0,4,3.396999836,1,0,200,8,1,199,1,1,0.5,1,stim/objects/Instruments/hihat.png,stim/31.jpeg,3,stim/3.png,1,2,9,2020-11-20_11h50.42.985,premup-three_ses-02_part-03_label-phase3,3.2.4,Win32,60
1,right,1.375999928,4,1.858999968,0,2,1.64199996,0,4,7.061999798,1,0,200,12,1,199,1,2,0.5,1,stim/objects/HouseObjects/knife.png,stim/43.jpeg,4,stim/4.png,3,3,9,2020-11-20_11h50.42.985,premup-three_ses-02_part-03_label-phase3,3.2.4,Win32,60
1,left,1.389999866,4,0.386999846,0,4,7.928999901,0,3,0.549000025,1,0,200,58,1,199,2,2,0.3,1,stim/objects/Instruments/electricdrumset2.png,stim/62.jpeg,6,stim/6.png,2,3,9,2020-11-20_11h50.42.985,premup-three_ses-02_part-03_label-phase3,3.2.4,Win32,60
1,right,2.31799984,,,0,,,0,,,1,0,200,145,1,199,0,1,0,2,stim/objects/HouseObjects/ironingboard3.png,,0,stim/0.png,0,0,9,2020-11-20_11h50.42.985,premup-three_ses-02_part-03_label-phase3,3.2.4,Win32,60
1,left,1.483999968,,,0,,,0,,,1,0,200,196,1,199,0,2,0,2,stim/objects/Instruments/doublebass4.png,,0,stim/0.png,0,0,9,2020-11-20_11h50.42.985,premup-three_ses-02_part-03_label-phase3,3.2.4,Win32,60
1,left,1.051000118,,,0,,,0,,,1,0,200,112,1,199,0,2,0,2,stim/objects/Instruments/balalaika3.png,,0,stim/0.png,0,0,9,2020-11-20_11h50.42.985,premup-three_ses-02_part-03_label-phase3,3.2.4,Win32,60
1,right,1.67599988,,,0,,,0,,,1,0,200,179,1,199,0,2,0,2,stim/objects/Instruments/bassdrum4.png,,0,stim/0.png,0,0,9,2020-11-20_11h50.42.985,premup-three_ses-02_part-03_label-phase3,3.2.4,Win32,60
1,left,1.549999952,,,0,,,0,,,1,0,200,144,1,199,0,1,0,2,stim/objects/HouseObjects/iron3.png,,0,stim/0.png,0,0,9,2020-11-20_11h50.42.985,premup-three_ses-02_part-03_label-phase3,3.2.4,Win32,60
1,right,1.165999889,,,0,,,0,,,1,0,200,178,1,199,0,2,0,2,stim/objects/Instruments/banjo4.png,,0,stim/0.png,0,0,9,2020-11-20_11h50.42.985,premup-three_ses-02_part-03_label-phase3,3.2.4,Win32,60
1,left,3.90899992,,,0,,,0,,,1,0,200,198,1,199,0,2,0,2,stim/objects/Instruments/electricdrumset4.png,,0,stim/0.png,0,0,9,2020-11-20_11h50.42.985,premup-three_ses-02_part-03_label-phase3,3.2.4,Win32,60
1,right,0.868000031,,,0,,,0,,,1,0,200,150,1,199,0,2,0,2,stim/objects/Instruments/guitarcase3.png,,0,stim/0.png,0,0,9,2020-11-20_11h50.42.985,premup-three_ses-02_part-03_label-phase3,3.2.4,Win32,60
1,right,1.05099988,2,1.473999977,0,3,3.092999935,0,3,1.930999994,1,0,200,57,1,199,2,2,0.3,1,stim/objects/Instruments/drums2.png,stim/61.jpeg,6,stim/6.png,1,2,9,2020-11-20_11h50.42.985,premup-three_ses-02_part-03_label-phase3,3.2.4,Win32,60
1,right,1.983999729,,,0,,,0,,,1,0,200,185,1,199,0,1,0,2,stim/objects/HouseObjects/clothesdryingrack4.png,,0,stim/0.png,0,0,9,2020-11-20_11h50.42.985,premup-three_ses-02_part-03_label-phase3,3.2.4,Win32,60
1,right,1.350999832,,,0,,,0,,,1,0,200,199,1,199,0,2,0,2,stim/objects/Instruments/electricguitar4.png,,0,stim/0.png,0,0,9,2020-11-20_11h50.42.985,premup-three_ses-02_part-03_label-phase3,3.2.4,Win32,60
1,right,1.345999956,,,0,,,0,,,1,0,200,159,1,199,0,2,0,2,stim/objects/Instruments/musicsheet3.png,,0,stim/0.png,0,0,9,2020-11-20_11h50.42.985,premup-three_ses-02_part-03_label-phase3,3.2.4,Win32,60
1,right,1.06799984,,,0,,,0,,,1,0,200,175,1,199,0,2,0,2,stim/objects/Instruments/accordion4.png,,0,stim/0.png,0,0,9,2020-11-20_11h50.42.985,premup-three_ses-02_part-03_label-phase3,3.2.4,Win32,60
1,right,3.111999989,2,1.393999815,0,4,1.144000053,0,1,3.284999847,1,0,200,29,1,199,2,1,0.3,1,stim/objects/HouseObjects/bleachbottle2.png,stim/52.jpeg,5,stim/5.png,2,3,9,2020-11-20_11h50.42.985,premup-three_ses-02_part-03_label-phase3,3.2.4,Win32,60
1,left,1.88499999,4,1.534999847,0,4,8.516999722,0,3,1.510999918,1,0,200,17,1,199,1,2,0.5,1,stim/objects/Instruments/marimba.png,stim/42.jpeg,4,stim/4.png,2,4,9,2020-11-20_11h50.42.985,premup-three_ses-02_part-03_label-phase3,3.2.4,Win32,60
1,left,1.406999826,3,1.034000158,0,1,4.56799984,0,2,15.42400002,1,0,200,48,1,199,2,1,0.7,1,stim/objects/HouseObjects/cushion2.png,stim/64.jpeg,6,stim/6.png,4,4,9,2020-11-20_11h50.42.985,premup-three_ses-02_part-03_label-phase3,3.2.4,Win32,60
1,left,1.090999842,,,0,,,0,,,1,0,200,148,1,199,0,1,0,2,stim/objects/HouseObjects/lintroller3.png,,0,stim/0.png,0,0,9,2020-11-20_11h50.42.985,premup-three_ses-02_part-03_label-phase3,3.2.4,Win32,60
1,right,0.944999933,,,0,,,0,,,1,0,200,134,1,199,0,2,0,2,stim/objects/Instruments/electricguitar3.png,,0,stim/0.png,0,0,9,2020-11-20_11h50.42.985,premup-three_ses-02_part-03_label-phase3,3.2.4,Win32,60
1,left,2.140999794,3,0.917999983,0,1,2.368000031,0,3,3.909999847,1,0,200,54,1,199,2,2,0.3,1,stim/objects/Instruments/cornet2.png,stim/62.jpeg,6,stim/6.png,2,2,9,2020-11-20_11h50.42.985,premup-three_ses-02_part-03_label-phase3,3.2.4,Win32,60
1,left,1.822000027,,,0,,,0,,,1,0,200,127,1,199,0,1,0,2,stim/objects/HouseObjects/flyswatter3.png,,0,stim/0.png,0,0,9,2020-11-20_11h50.42.985,premup-three_ses-02_part-03_label-phase3,3.2.4,Win32,60
1,right,1.461999893,,,0,,,0,,,1,0,200,168,1,199,0,1,0,2,stim/objects/HouseObjects/basket4.png,,0,stim/0.png,0,0,9,2020-11-20_11h50.42.985,premup-three_ses-02_part-03_label-phase3,3.2.4,Win32,60
1,right,1.713999748,,,0,,,0,,,1,0,200,173,1,199,0,2,0,2,stim/objects/Instruments/pipepiano3.png,,0,stim/0.png,0,0,9,2020-11-20_11h50.42.985,premup-three_ses-02_part-03_label-phase3,3.2.4,Win32,60
1,right,0.849999905,,,0,,,0,,,1,0,200,116,1,199,0,2,0,2,stim/objects/Instruments/cello3.png,,0,stim/0.png,0,0,9,2020-11-20_11h50.42.985,premup-three_ses-02_part-03_label-phase3,3.2.4,Win32,60
1,right,0.786999941,,,0,,,0,,,1,0,200,132,1,199,0,2,0,2,stim/objects/Instruments/drums3.png,,0,stim/0.png,0,0,9,2020-11-20_11h50.42.985,premup-three_ses-02_part-03_label-phase3,3.2.4,Win32,60
1,right,0.868000031,,,0,,,0,,,1,0,200,169,1,199,0,1,0,2,stim/objects/HouseObjects/bleachbottle4.png,,0,stim/0.png,0,0,9,2020-11-20_11h50.42.985,premup-three_ses-02_part-03_label-phase3,3.2.4,Win32,60
1,left,1.572999954,4,1.151000023,0,2,8.382999897,0,1,5.210999966,1,0,200,18,1,199,1,2,0.5,1,stim/objects/Instruments/metronome.png,stim/43.jpeg,4,stim/4.png,3,3,9,2020-11-20_11h50.42.985,premup-three_ses-02_part-03_label-phase3,3.2.4,Win32,60
1,right,1.548999786,2,1.476000071,0,3,4.640000105,0,2,1.09100008,1,0,200,60,1,199,3,1,0.1,1,stim/objects/HouseObjects/doormat2.png,stim/11.jpeg,1,stim/1.png,1,4,9,2020-11-20_11h50.42.985,premup-three_ses-02_part-03_label-phase3,3.2.4,Win32,60
1,left,1.703999996,,,0,,,0,,,1,0,200,121,1,199,0,1,0,2,stim/objects/HouseObjects/clothespin3.png,,0,stim/0.png,0,0,9,2020-11-20_11h50.42.985,premup-three_ses-02_part-03_label-phase3,3.2.4,Win32,60
1,right,0.788000107,3,1.21999979,0,2,1.978999853,0,4,0.801999807,1,0,200,43,1,199,2,1,0.7,1,stim/objects/HouseObjects/bucket2.png,stim/63.jpeg,6,stim/6.png,3,4,9,2020-11-20_11h50.42.985,premup-three_ses-02_part-03_label-phase3,3.2.4,Win32,60
1,right,1.734999895,,,0,,,0,,,1,0,200,160,1,199,0,1,0,2,stim/objects/HouseObjects/pan3.png,,0,stim/0.png,0,0,9,2020-11-20_11h50.42.985,premup-three_ses-02_part-03_label-phase3,3.2.4,Win32,60
1,right,1.085000038,3,1.217999935,0,1,1.003999949,0,2,4.312999964,1,0,200,86,1,199,3,1,0.9,1,stim/objects/HouseObjects/pitcher2.png,stim/23.jpeg,2,stim/2.png,3,3,9,2020-11-20_11h50.42.985,premup-three_ses-02_part-03_label-phase3,3.2.4,Win32,60
1,left,4.727999926,2,1.65899992,0,3,4.03399992,0,3,2.266000032,1,0,200,94,1,199,3,2,0.1,1,stim/objects/Instruments/musicsheet2.png,stim/23.jpeg,2,stim/2.png,3,1,9,2020-11-20_11h50.42.985,premup-three_ses-02_part-03_label-phase3,3.2.4,Win32,60
1,right,1.138000011,,,0,,,0,,,1,0,200,146,1,199,0,1,0,2,stim/objects/HouseObjects/key3.png,,0,stim/0.png,0,0,9,2020-11-20_11h50.42.985,premup-three_ses-02_part-03_label-phase3,3.2.4,Win32,60
1,right,0.664999962,,,0,,,0,,,1,0,200,114,1,199,0,2,0,2,stim/objects/Instruments/bassdrum3.png,,0,stim/0.png,0,0,9,2020-11-20_11h50.42.985,premup-three_ses-02_part-03_label-phase3,3.2.4,Win32,60
1,right,0.782999992,,,0,,,0,,,1,0,200,119,1,199,0,2,0,2,stim/objects/Instruments/cornet3.png,,0,stim/0.png,0,0,9,2020-11-20_11h50.42.985,premup-three_ses-02_part-03_label-phase3,3.2.4,Win32,60
1,right,1.063999891,3,1.751999855,0,2,3.023999691,0,4,1.630999804,1,0,200,15,1,199,1,2,0.5,1,stim/objects/Instruments/laud.png,stim/44.jpeg,4,stim/4.png,4,2,9,2020-11-20_11h50.42.985,premup-three_ses-02_part-03_label-phase3,3.2.4,Win32,60
1,right,0.901000023,,,0,,,0,,,1,0,200,141,1,199,0,1,0,2,stim/objects/HouseObjects/hairdryer3.png,,0,stim/0.png,0,0,9,2020-11-20_11h50.42.985,premup-three_ses-02_part-03_label-phase3,3.2.4,Win32,60
1,left,4.460999966,4,1.052999973,0,2,3.088000059,0,3,1.633999825,1,0,200,45,1,199,2,1,0.7,1,stim/objects/HouseObjects/clothesdryingrack2.png,stim/61.jpeg,6,stim/6.png,1,2,9,2020-11-20_11h50.42.985,premup-three_ses-02_part-03_label-phase3,3.2.4,Win32,60
1,right,1.118000031,,,0,,,0,,,1,0,200,128,1,199,0,1,0,2,stim/objects/HouseObjects/garbagebin3.png,,0,stim/0.png,0,0,9,2020-11-20_11h50.42.985,premup-three_ses-02_part-03_label-phase3,3.2.4,Win32,60
1,right,0.664000034,3,1.521999836,0,2,2.914999962,0,4,3.257999897,1,0,200,21,1,199,2,1,0.3,1,stim/objects/HouseObjects/pitcher.png,stim/52.jpeg,5,stim/5.png,2,1,9,2020-11-20_11h50.42.985,premup-three_ses-02_part-03_label-phase3,3.2.4,Win32,60
1,right,1.0849998,,,0,,,0,,,1,0,200,162,1,199,0,1,0,2,stim/objects/HouseObjects/recyclingbin3.png,,0,stim/0.png,0,0,9,2020-11-20_11h50.42.985,premup-three_ses-02_part-03_label-phase3,3.2.4,Win32,60
1,left,1.505000114,3,0.868000031,0,4,3.120000124,0,4,2.236000061,1,0,200,97,1,199,3,2,0.1,1,stim/objects/Instruments/panflute2.png,stim/22.jpeg,2,stim/2.png,2,2,9,2020-11-20_11h50.42.985,premup-three_ses-02_part-03_label-phase3,3.2.4,Win32,60
1,right,1.218999863,,,0,,,0,,,1,0,200,166,1,199,0,1,0,2,stim/objects/HouseObjects/ballofstring4.png,,0,stim/0.png,0,0,9,2020-11-20_11h50.42.985,premup-three_ses-02_part-03_label-phase3,3.2.4,Win32,60
1,right,0.90199995,2,1.717999935,0,4,1.136999846,0,1,3.53399992,1,0,200,25,1,199,2,1,0.3,1,stim/objects/HouseObjects/ashtray2.png,stim/52.jpeg,5,stim/5.png,2,3,9,2020-11-20_11h50.42.985,premup-three_ses-02_part-03_label-phase3,3.2.4,Win32,60
1,right,1.416999817,,,0,,,0,,,1,0,200,133,1,199,0,2,0,2,stim/objects/Instruments/electricdrumset3.png,,0,stim/0.png,0,0,9,2020-11-20_11h50.42.985,premup-three_ses-02_part-03_label-phase3,3.2.4,Win32,60
1,left,2.693000078,,,0,,,0,,,1,0,200,109,1,199,0,1,0,2,stim/objects/HouseObjects/clock3.png,,0,stim/0.png,0,0,9,2020-11-20_11h50.42.985,premup-three_ses-02_part-03_label-phase3,3.2.4,Win32,60
1,right,1.786000013,2,1.490999937,0,3,1.898999929,0,2,3.02699995,1,0,200,62,1,199,3,1,0.1,1,stim/objects/HouseObjects/flyswatter2.png,stim/13.jpeg,1,stim/1.png,3,3,9,2020-11-20_11h50.42.985,premup-three_ses-02_part-03_label-phase3,3.2.4,Win32,60
1,right,1.726999998,3,1.753999949,0,2,2.622999907,0,3,2.971999884,1,0,200,2,1,199,1,1,0.5,1,stim/objects/HouseObjects/handbrush.png,stim/31.jpeg,3,stim/3.png,1,2,9,2020-11-20_11h50.42.985,premup-three_ses-02_part-03_label-phase3,3.2.4,Win32,60
1,right,1.907999992,,,0,,,0,,,1,0,200,143,1,199,0,1,0,2,stim/objects/HouseObjects/handvacuum3.png,,0,stim/0.png,0,0,9,2020-11-20_11h50.42.985,premup-three_ses-02_part-03_label-phase3,3.2.4,Win32,60
1,left,2.177000046,3,2.868000031,0,4,4.276000023,0,1,0.977999926,1,0,200,5,1,199,1,1,0.5,1,stim/objects/Instruments/guitarcase.png,stim/32.jpeg,3,stim/3.png,2,4,9,2020-11-20_11h50.42.985,premup-three_ses-02_part-03_label-phase3,3.2.4,Win32,60
1,right,3.346999884,2,1.703999996,0,4,4.05099988,0,2,1.924000025,1,0,200,36,1,199,2,2,0.7,1,stim/objects/Instruments/acousticguitar2.png,stim/54.jpeg,5,stim/5.png,4,4,9,2020-11-20_11h50.42.985,premup-three_ses-02_part-03_label-phase3,3.2.4,Win32,60
1,left,3.229000092,,,0,,,0,,,1,0,200,137,1,199,0,2,0,2,stim/objects/Instruments/frenchhorn3.png,,0,stim/0.png,0,0,9,2020-11-20_11h50.42.985,premup-three_ses-02_part-03_label-phase3,3.2.4,Win32,60
1,right,0.757999897,,,0,,,0,,,1,0,200,102,1,199,0,1,0,2,stim/objects/HouseObjects/barbecuelighter3.png,,0,stim/0.png,0,0,9,2020-11-20_11h50.42.985,premup-three_ses-02_part-03_label-phase3,3.2.4,Win32,60
1,left,0.842000008,3,0.851999998,0,2,1.625,0,4,3.683999777,1,0,200,20,1,199,2,1,0.3,1,stim/objects/HouseObjects/pan.png,stim/51.jpeg,5,stim/5.png,1,2,9,2020-11-20_11h50.42.985,premup-three_ses-02_part-03_label-phase3,3.2.4,Win32,60
1,right,1.214999914,2,1.118999958,0,3,1.900000095,0,4,0.409999847,1,0,200,33,1,199,2,2,0.7,1,stim/objects/Instruments/pipepiano.png,stim/51.jpeg,5,stim/5.png,1,4,9,2020-11-20_11h50.42.985,premup-three_ses-02_part-03_label-phase3,3.2.4,Win32,60
1,left,1.690999985,2,1.427999973,0,3,1.319000006,0,2,2.837999821,1,0,200,68,1,199,3,1,0.1,1,stim/objects/HouseObjects/handvacuum2.png,stim/11.jpeg,1,stim/1.png,1,3,9,2020-11-20_11h50.42.985,premup-three_ses-02_part-03_label-phase3,3.2.4,Win32,60
1,left,1.151000023,3,0.717999935,0,4,3.240999937,0,3,1.054999828,1,0,200,7,1,199,1,1,0.5,1,stim/objects/Instruments/harp.png,stim/34.jpeg,3,stim/3.png,4,2,9,2020-11-20_11h50.42.985,premup-three_ses-02_part-03_label-phase3,3.2.4,Win32,60
1,right,2.650000095,2,1.284999847,0,3,4.035000086,0,1,4.993000031,1,0,200,69,1,199,3,1,0.1,1,stim/objects/HouseObjects/iron2.png,stim/12.jpeg,1,stim/1.png,2,4,9,2020-11-20_11h50.42.985,premup-three_ses-02_part-03_label-phase3,3.2.4,Win32,60
1,right,1.277999878,2,0.970999956,0,3,1.92599988,0,1,3.282999992,1,0,200,96,1,199,3,2,0.1,1,stim/objects/Instruments/oboe2.png,stim/21.jpeg,2,stim/2.png,1,1,9,2020-11-20_11h50.42.985,premup-three_ses-02_part-03_label-phase3,3.2.4,Win32,60
1,right,2.578000069,1,2.250999928,0,3,1.782999992,0,1,1.708999872,1,0,200,72,1,199,3,2,0.9,1,stim/objects/Instruments/frenchhorn2.png,stim/11.jpeg,1,stim/1.png,1,4,9,2020-11-20_11h50.42.985,premup-three_ses-02_part-03_label-phase3,3.2.4,Win32,60
1,left,2.234999895,3,0.80099988,0,1,3.049000025,0,3,1.566999912,1,0,200,81,1,199,3,1,0.9,1,stim/objects/HouseObjects/key2.png,stim/22.jpeg,2,stim/2.png,2,2,9,2020-11-20_11h50.42.985,premup-three_ses-02_part-03_label-phase3,3.2.4,Win32,60
1,right,3.601999998,,,0,,,0,,,1,0,200,151,1,199,0,2,0,2,stim/objects/Instruments/harmonica3.png,,0,stim/0.png,0,0,9,2020-11-20_11h50.42.985,premup-three_ses-02_part-03_label-phase3,3.2.4,Win32,60
1,left,0.927000046,4,0.635999918,0,3,3.967999935,0,3,1.042999983,1,0,200,37,1,199,2,2,0.7,1,stim/objects/Instruments/balalaika2.png,stim/51.jpeg,5,stim/5.png,1,1,9,2020-11-20_11h50.42.985,premup-three_ses-02_part-03_label-phase3,3.2.4,Win32,60
1,right,4.862999916,2,1.263000011,0,3,7.795000076,0,1,2.667999744,1,0,200,61,1,199,3,1,0.1,1,stim/objects/HouseObjects/dustpan2.png,stim/12.jpeg,1,stim/1.png,2,2,9,2020-11-20_11h50.42.985,premup-three_ses-02_part-03_label-phase3,3.2.4,Win32,60
1,right,1.385999918,,,0,,,0,,,1,0,200,182,1,199,0,1,0,2,stim/objects/HouseObjects/broom4.png,,0,stim/0.png,0,0,9,2020-11-20_11h50.42.985,premup-three_ses-02_part-03_label-phase3,3.2.4,Win32,60
1,left,1.390000105,3,0.8349998,0,1,4.624999762,0,3,0.489000082,1,0,200,22,1,199,2,1,0.3,1,stim/objects/HouseObjects/recyclingbin.png,stim/53.jpeg,5,stim/5.png,3,1,9,2020-11-20_11h50.42.985,premup-three_ses-02_part-03_label-phase3,3.2.4,Win32,60
1,left,3.145999908,,,0,,,0,,,1,0,200,139,1,199,0,2,0,2,stim/objects/Instruments/grandpiano3.png,,0,stim/0.png,0,0,9,2020-11-20_11h50.42.985,premup-three_ses-02_part-03_label-phase3,3.2.4,Win32,60
1,right,1.592999935,,,0,,,0,,,1,0,200,125,1,199,0,1,0,2,stim/objects/HouseObjects/doormat3.png,,0,stim/0.png,0,0,9,2020-11-20_11h50.42.985,premup-three_ses-02_part-03_label-phase3,3.2.4,Win32,60
1,right,1.145999908,,,0,,,0,,,1,0,200,154,1,199,0,2,0,2,stim/objects/Instruments/keyboard3.png,,0,stim/0.png,0,0,9,2020-11-20_11h50.42.985,premup-three_ses-02_part-03_label-phase3,3.2.4,Win32,60
1,right,1.394999981,2,1.328000069,0,4,1.30099988,0,2,2.983999729,1,0,200,82,1,199,3,1,0.9,1,stim/objects/HouseObjects/knife2.png,stim/23.jpeg,2,stim/2.png,3,4,9,2020-11-20_11h50.42.985,premup-three_ses-02_part-03_label-phase3,3.2.4,Win32,60
1,left,1.46999979,,,0,,,0,,,1,0,200,113,1,199,0,2,0,2,stim/objects/Instruments/banjo3.png,,0,stim/0.png,0,0,9,2020-11-20_11h50.42.985,premup-three_ses-02_part-03_label-phase3,3.2.4,Win32,60
1,right,0.727999926,,,0,,,0,,,1,0,200,192,1,199,0,2,0,2,stim/objects/Instruments/chime4.png,,0,stim/0.png,0,0,9,2020-11-20_11h50.42.985,premup-three_ses-02_part-03_label-phase3,3.2.4,Win32,60
1,right,1.156999826,3,1.601999998,0,4,3.232000113,0,1,4.133999825,1,0,200,50,1,199,2,2,0.3,1,stim/objects/Instruments/bassguitar2.png,stim/62.jpeg,6,stim/6.png,2,2,9,2020-11-20_11h50.42.985,premup-three_ses-02_part-03_label-phase3,3.2.4,Win32,60
1,right,1.717000008,2,1.167999983,0,1,2.583999872,0,3,1.383999825,1,0,200,87,1,199,3,1,0.9,1,stim/objects/HouseObjects/recyclingbin2.png,stim/24.jpeg,2,stim/2.png,4,3,9,2020-11-20_11h50.42.985,premup-three_ses-02_part-03_label-phase3,3.2.4,Win32,60
1,left,12.38100004,,,0,,,0,,,1,0,200,110,1,199,0,2,0,2,stim/objects/Instruments/accordion3.png,,0,stim/0.png,0,0,9,2020-11-20_11h50.42.985,premup-three_ses-02_part-03_label-phase3,3.2.4,Win32,60
1,right,1.080999851,,,0,,,0,,,1,0,200,131,1,199,0,2,0,2,stim/objects/Instruments/doublebass3.png,,0,stim/0.png,0,0,9,2020-11-20_11h50.42.985,premup-three_ses-02_part-03_label-phase3,3.2.4,Win32,60
1,right,1.095999956,4,1.717999935,0,2,4.247999907,0,4,0.51699996,1,0,200,90,1,199,3,2,0.1,1,stim/objects/Instruments/laud2.png,stim/23.jpeg,2,stim/2.png,3,4,9,2020-11-20_11h50.42.985,premup-three_ses-02_part-03_label-phase3,3.2.4,Win32,60
1,right,1.345000029,,,0,,,0,,,1,0,200,171,1,199,0,2,0,2,stim/objects/Instruments/oboe3.png,,0,stim/0.png,0,0,9,2020-11-20_11h50.42.985,premup-three_ses-02_part-03_label-phase3,3.2.4,Win32,60
1,right,4.857999802,,,0,,,0,,,1,0,200,176,1,199,0,2,0,2,stim/objects/Instruments/acousticguitar4.png,,0,stim/0.png,0,0,9,2020-11-20_11h50.42.985,premup-three_ses-02_part-03_label-phase3,3.2.4,Win32,60
1,right,1.065999746,2,2.354999781,0,1,2.180000067,0,3,2.014999866,1,0,200,67,1,199,3,1,0.1,1,stim/objects/HouseObjects/handbrush2.png,stim/14.jpeg,1,stim/1.png,4,3,9,2020-11-20_11h50.42.985,premup-three_ses-02_part-03_label-phase3,3.2.4,Win32,60
1,right,1.404999971,,,0,,,0,,,1,0,200,181,1,199,0,1,0,2,stim/objects/HouseObjects/bottle4.png,,0,stim/0.png,0,0,9,2020-11-20_11h50.42.985,premup-three_ses-02_part-03_label-phase3,3.2.4,Win32,60
1,right,1.15199995,,,0,,,0,,,1,0,200,165,1,199,0,1,0,2,stim/objects/HouseObjects/ashtray4.png,,0,stim/0.png,0,0,9,2020-11-20_11h50.42.985,premup-three_ses-02_part-03_label-phase3,3.2.4,Win32,60
1,right,2.197999954,3,4.595999956,0,4,2.604000092,0,2,5.937000036,1,0,200,98,1,199,3,2,0.1,1,stim/objects/Instruments/pipepiano2.png,stim/23.jpeg,2,stim/2.png,3,4,9,2020-11-20_11h50.42.985,premup-three_ses-02_part-03_label-phase3,3.2.4,Win32,60
1,right,1.80099988,,,0,,,0,,,1,0,200,163,1,199,0,1,0,2,stim/objects/HouseObjects/remote3.png,,0,stim/0.png,0,0,9,2020-11-20_11h50.42.985,premup-three_ses-02_part-03_label-phase3,3.2.4,Win32,60
1,right,1.667999983,,,0,,,0,,,1,0,200,124,1,199,0,1,0,2,stim/objects/HouseObjects/dishsoap3.png,,0,stim/0.png,0,0,9,2020-11-20_11h50.42.985,premup-three_ses-02_part-03_label-phase3,3.2.4,Win32,60
1,left,1.011999846,4,0.633999825,0,4,2.761999846,0,3,3.474999905,1,0,200,16,1,199,1,2,0.5,1,stim/objects/Instruments/maraca.png,stim/41.jpeg,4,stim/4.png,1,2,9,2020-11-20_11h50.42.985,premup-three_ses-02_part-03_label-phase3,3.2.4,Win32,60
