key_resp_pract.keys,key_resp_pract.rt,trial_acc,trial_index,practice_loop.thisRepN,practice_loop.thisTrialN,practice_loop.thisN,practice_loop.thisIndex,practice_loop.ran,practice_loop.order,scn_condition,scn_cat,scn_inst,scn_file,obj_cat,obj_cat_num,obj_file,trial_cond,quadrant,obj_x,obj_y,corr_ans,participant,date,expName,psychopyVersion,OS,frameRate,key_resp_trial.keys,key_resp_trial.rt,iterations.thisRepN,iterations.thisTrialN,iterations.thisN,iterations.thisIndex,iterations.ran,iterations.order,task_innerloop.thisRepN,task_innerloop.thisTrialN,task_innerloop.thisN,task_innerloop.thisIndex,task_innerloop.ran,task_innerloop.order
,,0,1,1,0,240,19,1,239,1,5,4,stim/54.jpeg,HouseObjects,1,stim/objects/HouseObjects/knife.png,0.5,4,0.2,-0.15,left,22,2020-12-02_18h09.35.347,premup-three_ses-01_part-01_label-phase1,3.2.4,Win32,60,,,,,,,,,,,,,,
,,0,2,1,0,240,27,1,239,1,5,4,stim/54.jpeg,Instruments,2,stim/objects/Instruments/marimba.png,0.5,2,0.2,0.15,right,22,2020-12-02_18h09.35.347,premup-three_ses-01_part-01_label-phase1,3.2.4,Win32,60,,,,,,,,,,,,,,
left,1.743000031,0,3,1,0,240,151,1,239,2,2,4,stim/24.jpeg,Instruments,2,stim/objects/Instruments/marimba2.png,0.3,3,-0.2,-0.15,right,22,2020-12-02_18h09.35.347,premup-three_ses-01_part-01_label-phase1,3.2.4,Win32,60,,,,,,,,,,,,,,
,,0,4,1,0,240,208,1,239,3,4,1,stim/41.jpeg,HouseObjects,1,stim/objects/HouseObjects/recyclingbin2.png,0.9,1,-0.2,0.15,left,22,2020-12-02_18h09.35.347,premup-three_ses-01_part-01_label-phase1,3.2.4,Win32,60,,,,,,,,,,,,,,
left,1.520999908,0,5,1,0,240,155,1,239,2,2,4,stim/24.jpeg,Instruments,2,stim/objects/Instruments/marimba2.png,0.3,2,0.2,0.15,right,22,2020-12-02_18h09.35.347,premup-three_ses-01_part-01_label-phase1,3.2.4,Win32,60,,,,,,,,,,,,,,
right,1.182999849,1,6,1,0,240,158,1,239,2,2,3,stim/23.jpeg,Instruments,2,stim/objects/Instruments/maraca2.png,0.3,1,-0.2,0.15,right,22,2020-12-02_18h09.35.347,premup-three_ses-01_part-01_label-phase1,3.2.4,Win32,60,,,,,,,,,,,,,,
right,0.93599987,1,7,1,0,240,25,1,239,1,5,2,stim/52.jpeg,Instruments,2,stim/objects/Instruments/laud.png,0.5,3,-0.2,-0.15,right,22,2020-12-02_18h09.35.347,premup-three_ses-01_part-01_label-phase1,3.2.4,Win32,60,,,,,,,,,,,,,,
left,0.674000025,1,8,1,0,240,215,1,239,3,4,4,stim/44.jpeg,HouseObjects,1,stim/objects/HouseObjects/rug2.png,0.9,4,0.2,-0.15,left,22,2020-12-02_18h09.35.347,premup-three_ses-01_part-01_label-phase1,3.2.4,Win32,60,,,,,,,,,,,,,,
right,0.831999779,1,9,1,0,240,39,1,239,1,5,4,stim/54.jpeg,Instruments,2,stim/objects/Instruments/marimba.png,0.5,3,-0.2,-0.15,right,22,2020-12-02_18h09.35.347,premup-three_ses-01_part-01_label-phase1,3.2.4,Win32,60,,,,,,,,,,,,,,
left,0.769999981,0,10,1,0,240,68,1,239,1,6,1,stim/61.jpeg,Instruments,2,stim/objects/Instruments/metronome.png,0.5,3,-0.2,-0.15,right,22,2020-12-02_18h09.35.347,premup-three_ses-01_part-01_label-phase1,3.2.4,Win32,60,,,,,,,,,,,,,,
,,1,1,,,,,,,2,2,3,stim/23.jpeg,Instruments,2,stim/objects/Instruments/maraca2.png,0.3,2,0.2,0.15,right,22,2020-12-02_18h09.35.347,premup-three_ses-01_part-01_label-phase1,3.2.4,Win32,60,right,1.150000095,4,0,4,0,1,3,1,0,240,154,1,239
,,0,2,,,,,,,2,2,3,stim/23.jpeg,HouseObjects,1,stim/objects/HouseObjects/key2.png,0.7,2,0.2,0.15,left,22,2020-12-02_18h09.35.347,premup-three_ses-01_part-01_label-phase1,3.2.4,Win32,60,right,1.201999903,4,0,4,0,1,3,1,0,240,146,1,239
,,0,3,,,,,,,2,1,1,stim/11.jpeg,HouseObjects,1,stim/objects/HouseObjects/recyclingbin.png,0.3,2,0.2,0.15,left,22,2020-12-02_18h09.35.347,premup-three_ses-01_part-01_label-phase1,3.2.4,Win32,60,,,4,0,4,0,1,3,1,0,240,88,1,239
,,0,4,,,,,,,1,6,3,stim/63.jpeg,Instruments,2,stim/objects/Instruments/musicstand.png,0.5,2,0.2,0.15,right,22,2020-12-02_18h09.35.347,premup-three_ses-01_part-01_label-phase1,3.2.4,Win32,60,left,0.986999989,4,0,4,0,1,3,1,0,240,78,1,239
,,0,5,,,,,,,1,6,2,stim/62.jpeg,HouseObjects,1,stim/objects/HouseObjects/match.png,0.5,3,-0.2,-0.15,left,22,2020-12-02_18h09.35.347,premup-three_ses-01_part-01_label-phase1,3.2.4,Win32,60,right,1.075999975,4,0,4,0,1,3,1,0,240,57,1,239
,,1,6,,,,,,,2,2,1,stim/21.jpeg,Instruments,2,stim/objects/Instruments/keyboard2.png,0.3,4,0.2,-0.15,right,22,2020-12-02_18h09.35.347,premup-three_ses-01_part-01_label-phase1,3.2.4,Win32,60,right,1.644000053,4,0,4,0,1,3,1,0,240,156,1,239
,,1,7,,,,,,,2,2,1,stim/21.jpeg,HouseObjects,1,stim/objects/HouseObjects/iron2.png,0.7,1,-0.2,0.15,left,22,2020-12-02_18h09.35.347,premup-three_ses-01_part-01_label-phase1,3.2.4,Win32,60,left,1.016000032,4,0,4,0,1,3,1,0,240,124,1,239
,,0,8,,,,,,,3,4,4,stim/44.jpeg,HouseObjects,1,stim/objects/HouseObjects/rug2.png,0.9,2,0.2,0.15,left,22,2020-12-02_18h09.35.347,premup-three_ses-01_part-01_label-phase1,3.2.4,Win32,60,right,0.78399992,4,0,4,0,1,3,1,0,240,231,1,239
,,0,9,,,,,,,1,5,4,stim/54.jpeg,HouseObjects,1,stim/objects/HouseObjects/knife.png,0.5,4,0.2,-0.15,left,22,2020-12-02_18h09.35.347,premup-three_ses-01_part-01_label-phase1,3.2.4,Win32,60,right,0.631000042,4,0,4,0,1,3,1,0,240,3,1,239
,,1,10,,,,,,,1,6,1,stim/61.jpeg,HouseObjects,1,stim/objects/HouseObjects/lintroller.png,0.5,2,0.2,0.15,left,22,2020-12-02_18h09.35.347,premup-three_ses-01_part-01_label-phase1,3.2.4,Win32,60,left,0.875999928,4,0,4,0,1,3,1,0,240,52,1,239
,,0,11,,,,,,,1,6,4,stim/64.jpeg,Instruments,2,stim/objects/Instruments/oboe.png,0.5,2,0.2,0.15,right,22,2020-12-02_18h09.35.347,premup-three_ses-01_part-01_label-phase1,3.2.4,Win32,60,left,1.019000053,4,0,4,0,1,3,1,0,240,67,1,239
,,0,12,,,,,,,2,1,4,stim/14.jpeg,HouseObjects,1,stim/objects/HouseObjects/rug.png,0.3,2,0.2,0.15,left,22,2020-12-02_18h09.35.347,premup-three_ses-01_part-01_label-phase1,3.2.4,Win32,60,right,0.947000027,4,0,4,0,1,3,1,0,240,87,1,239
,,0,13,,,,,,,1,5,4,stim/54.jpeg,HouseObjects,1,stim/objects/HouseObjects/knife.png,0.5,3,-0.2,-0.15,left,22,2020-12-02_18h09.35.347,premup-three_ses-01_part-01_label-phase1,3.2.4,Win32,60,right,1.213999987,4,0,4,0,1,3,1,0,240,15,1,239
,,0,14,,,,,,,2,1,2,stim/12.jpeg,Instruments,2,stim/objects/Instruments/pipepiano.png,0.7,3,-0.2,-0.15,right,22,2020-12-02_18h09.35.347,premup-three_ses-01_part-01_label-phase1,3.2.4,Win32,60,left,1.412999868,4,0,4,0,1,3,1,0,240,97,1,239
,,0,15,,,,,,,2,1,4,stim/14.jpeg,Instruments,2,stim/objects/Instruments/record_player.png,0.7,3,-0.2,-0.15,right,22,2020-12-02_18h09.35.347,premup-three_ses-01_part-01_label-phase1,3.2.4,Win32,60,left,1.251000166,4,0,4,0,1,3,1,0,240,111,1,239
,,0,16,,,,,,,3,3,1,stim/31.jpeg,Instruments,2,stim/objects/Instruments/metronome2.png,0.9,3,-0.2,-0.15,right,22,2020-12-02_18h09.35.347,premup-three_ses-01_part-01_label-phase1,3.2.4,Win32,60,left,0.728000164,4,0,4,0,1,3,1,0,240,188,1,239
,,1,17,,,,,,,2,1,3,stim/13.jpeg,Instruments,2,stim/objects/Instruments/record.png,0.7,1,-0.2,0.15,right,22,2020-12-02_18h09.35.347,premup-three_ses-01_part-01_label-phase1,3.2.4,Win32,60,right,0.503000021,4,0,4,0,1,3,1,0,240,118,1,239
,,1,18,,,,,,,2,1,3,stim/13.jpeg,Instruments,2,stim/objects/Instruments/record.png,0.7,4,0.2,-0.15,right,22,2020-12-02_18h09.35.347,premup-three_ses-01_part-01_label-phase1,3.2.4,Win32,60,right,0.647000074,4,0,4,0,1,3,1,0,240,106,1,239
,,0,19,,,,,,,2,1,4,stim/14.jpeg,Instruments,2,stim/objects/Instruments/record_player.png,0.7,4,0.2,-0.15,right,22,2020-12-02_18h09.35.347,premup-three_ses-01_part-01_label-phase1,3.2.4,Win32,60,left,1.006000042,4,0,4,0,1,3,1,0,240,119,1,239
,,1,20,,,,,,,3,3,2,stim/32.jpeg,Instruments,2,stim/objects/Instruments/musicsheet2.png,0.9,4,0.2,-0.15,right,22,2020-12-02_18h09.35.347,premup-three_ses-01_part-01_label-phase1,3.2.4,Win32,60,right,0.657000065,4,0,4,0,1,3,1,0,240,197,1,239
,,0,21,,,,,,,3,4,1,stim/41.jpeg,HouseObjects,1,stim/objects/HouseObjects/recyclingbin2.png,0.9,1,-0.2,0.15,left,22,2020-12-02_18h09.35.347,premup-three_ses-01_part-01_label-phase1,3.2.4,Win32,60,right,0.804000139,4,0,4,0,1,3,1,0,240,200,1,239
,,1,22,,,,,,,3,4,1,stim/41.jpeg,HouseObjects,1,stim/objects/HouseObjects/recyclingbin2.png,0.9,3,-0.2,-0.15,left,22,2020-12-02_18h09.35.347,premup-three_ses-01_part-01_label-phase1,3.2.4,Win32,60,left,0.618999958,4,0,4,0,1,3,1,0,240,232,1,239
,,0,23,,,,,,,1,5,4,stim/54.jpeg,Instruments,2,stim/objects/Instruments/marimba.png,0.5,3,-0.2,-0.15,right,22,2020-12-02_18h09.35.347,premup-three_ses-01_part-01_label-phase1,3.2.4,Win32,60,left,0.76699996,4,0,4,0,1,3,1,0,240,39,1,239
,,0,24,,,,,,,3,4,4,stim/44.jpeg,HouseObjects,1,stim/objects/HouseObjects/rug2.png,0.9,2,0.2,0.15,left,22,2020-12-02_18h09.35.347,premup-three_ses-01_part-01_label-phase1,3.2.4,Win32,60,,,4,0,4,0,1,3,1,0,240,219,1,239
,,1,25,,,,,,,1,5,3,stim/53.jpeg,Instruments,2,stim/objects/Instruments/maraca.png,0.5,3,-0.2,-0.15,right,22,2020-12-02_18h09.35.347,premup-three_ses-01_part-01_label-phase1,3.2.4,Win32,60,right,0.736000061,4,0,4,0,1,3,1,0,240,22,1,239
,,1,26,,,,,,,2,1,2,stim/12.jpeg,Instruments,2,stim/objects/Instruments/pipepiano.png,0.7,2,0.2,0.15,right,22,2020-12-02_18h09.35.347,premup-three_ses-01_part-01_label-phase1,3.2.4,Win32,60,right,0.992999792,4,0,4,0,1,3,1,0,240,105,1,239
,,0,27,,,,,,,2,2,2,stim/22.jpeg,HouseObjects,1,stim/objects/HouseObjects/ironingboard2.png,0.7,1,-0.2,0.15,left,22,2020-12-02_18h09.35.347,premup-three_ses-01_part-01_label-phase1,3.2.4,Win32,60,right,0.620999813,4,0,4,0,1,3,1,0,240,133,1,239
,,1,28,,,,,,,2,2,4,stim/24.jpeg,HouseObjects,1,stim/objects/HouseObjects/knife2.png,0.7,2,0.2,0.15,left,22,2020-12-02_18h09.35.347,premup-three_ses-01_part-01_label-phase1,3.2.4,Win32,60,left,0.572000027,4,0,4,0,1,3,1,0,240,135,1,239
,,1,29,,,,,,,3,3,3,stim/33.jpeg,Instruments,2,stim/objects/Instruments/musicstand2.png,0.9,3,-0.2,-0.15,right,22,2020-12-02_18h09.35.347,premup-three_ses-01_part-01_label-phase1,3.2.4,Win32,60,right,0.755000114,4,0,4,0,1,3,1,0,240,186,1,239
,,1,30,,,,,,,3,4,1,stim/41.jpeg,HouseObjects,1,stim/objects/HouseObjects/recyclingbin2.png,0.9,1,-0.2,0.15,left,22,2020-12-02_18h09.35.347,premup-three_ses-01_part-01_label-phase1,3.2.4,Win32,60,left,0.781999826,4,0,4,0,1,3,1,0,240,228,1,239
,,1,31,,,,,,,2,1,3,stim/13.jpeg,Instruments,2,stim/objects/Instruments/record.png,0.7,2,0.2,0.15,right,22,2020-12-02_18h09.35.347,premup-three_ses-01_part-01_label-phase1,3.2.4,Win32,60,right,0.603000164,4,0,4,0,1,3,1,0,240,98,1,239
,,1,32,,,,,,,2,2,3,stim/23.jpeg,HouseObjects,1,stim/objects/HouseObjects/key2.png,0.7,3,-0.2,-0.15,left,22,2020-12-02_18h09.35.347,premup-three_ses-01_part-01_label-phase1,3.2.4,Win32,60,left,0.779000044,4,0,4,0,1,3,1,0,240,130,1,239
,,1,33,,,,,,,2,2,4,stim/24.jpeg,HouseObjects,1,stim/objects/HouseObjects/knife2.png,0.7,2,0.2,0.15,left,22,2020-12-02_18h09.35.347,premup-three_ses-01_part-01_label-phase1,3.2.4,Win32,60,left,0.492999792,4,0,4,0,1,3,1,0,240,131,1,239
,,1,34,,,,,,,2,1,3,stim/13.jpeg,Instruments,2,stim/objects/Instruments/record.png,0.7,4,0.2,-0.15,right,22,2020-12-02_18h09.35.347,premup-three_ses-01_part-01_label-phase1,3.2.4,Win32,60,right,0.35800004,4,0,4,0,1,3,1,0,240,114,1,239
,,1,35,,,,,,,1,5,4,stim/54.jpeg,Instruments,2,stim/objects/Instruments/marimba.png,0.5,2,0.2,0.15,right,22,2020-12-02_18h09.35.347,premup-three_ses-01_part-01_label-phase1,3.2.4,Win32,60,right,0.299000025,4,0,4,0,1,3,1,0,240,27,1,239
,,1,36,,,,,,,2,2,1,stim/21.jpeg,HouseObjects,1,stim/objects/HouseObjects/iron2.png,0.7,1,-0.2,0.15,left,22,2020-12-02_18h09.35.347,premup-three_ses-01_part-01_label-phase1,3.2.4,Win32,60,left,0.380000114,4,0,4,0,1,3,1,0,240,136,1,239
,,0,37,,,,,,,3,3,3,stim/33.jpeg,Instruments,2,stim/objects/Instruments/musicstand2.png,0.9,2,0.2,0.15,right,22,2020-12-02_18h09.35.347,premup-three_ses-01_part-01_label-phase1,3.2.4,Win32,60,left,0.284999847,4,0,4,0,1,3,1,0,240,190,1,239
,,0,38,,,,,,,3,4,2,stim/42.jpeg,HouseObjects,1,stim/objects/HouseObjects/remote2.png,0.9,2,0.2,0.15,left,22,2020-12-02_18h09.35.347,premup-three_ses-01_part-01_label-phase1,3.2.4,Win32,60,right,0.243000031,4,0,4,0,1,3,1,0,240,213,1,239
,,1,39,,,,,,,2,2,1,stim/21.jpeg,Instruments,2,stim/objects/Instruments/keyboard2.png,0.3,4,0.2,-0.15,right,22,2020-12-02_18h09.35.347,premup-three_ses-01_part-01_label-phase1,3.2.4,Win32,60,right,0.256999969,4,0,4,0,1,3,1,0,240,152,1,239
,,0,40,,,,,,,3,3,1,stim/31.jpeg,Instruments,2,stim/objects/Instruments/metronome2.png,0.9,1,-0.2,0.15,right,22,2020-12-02_18h09.35.347,premup-three_ses-01_part-01_label-phase1,3.2.4,Win32,60,left,0.296999931,4,0,4,0,1,3,1,0,240,164,1,239
,,1,41,,,,,,,3,4,1,stim/41.jpeg,HouseObjects,1,stim/objects/HouseObjects/recyclingbin2.png,0.9,3,-0.2,-0.15,left,22,2020-12-02_18h09.35.347,premup-three_ses-01_part-01_label-phase1,3.2.4,Win32,60,left,0.273000002,4,0,4,0,1,3,1,0,240,212,1,239
,,0,42,,,,,,,2,2,3,stim/23.jpeg,HouseObjects,1,stim/objects/HouseObjects/key2.png,0.7,1,-0.2,0.15,left,22,2020-12-02_18h09.35.347,premup-three_ses-01_part-01_label-phase1,3.2.4,Win32,60,right,0.553000212,4,0,4,0,1,3,1,0,240,138,1,239
,,1,43,,,,,,,2,1,3,stim/13.jpeg,Instruments,2,stim/objects/Instruments/record.png,0.7,4,0.2,-0.15,right,22,2020-12-02_18h09.35.347,premup-three_ses-01_part-01_label-phase1,3.2.4,Win32,60,right,0.545000076,4,0,4,0,1,3,1,0,240,94,1,239
,,0,44,,,,,,,2,2,1,stim/21.jpeg,HouseObjects,1,stim/objects/HouseObjects/iron2.png,0.7,1,-0.2,0.15,left,22,2020-12-02_18h09.35.347,premup-three_ses-01_part-01_label-phase1,3.2.4,Win32,60,right,0.68599987,4,0,4,0,1,3,1,0,240,132,1,239
,,0,45,,,,,,,2,2,2,stim/22.jpeg,HouseObjects,1,stim/objects/HouseObjects/ironingboard2.png,0.7,3,-0.2,-0.15,left,22,2020-12-02_18h09.35.347,premup-three_ses-01_part-01_label-phase1,3.2.4,Win32,60,right,0.551000118,4,0,4,0,1,3,1,0,240,145,1,239
,,0,46,,,,,,,1,6,4,stim/64.jpeg,Instruments,2,stim/objects/Instruments/oboe.png,0.5,3,-0.2,-0.15,right,22,2020-12-02_18h09.35.347,premup-three_ses-01_part-01_label-phase1,3.2.4,Win32,60,left,0.282999992,4,0,4,0,1,3,1,0,240,63,1,239
,,0,47,,,,,,,2,1,1,stim/11.jpeg,Instruments,2,stim/objects/Instruments/panflute.png,0.7,2,0.2,0.15,right,22,2020-12-02_18h09.35.347,premup-three_ses-01_part-01_label-phase1,3.2.4,Win32,60,left,0.275000095,4,0,4,0,1,3,1,0,240,112,1,239
,,1,48,,,,,,,2,2,3,stim/23.jpeg,HouseObjects,1,stim/objects/HouseObjects/key2.png,0.7,2,0.2,0.15,left,22,2020-12-02_18h09.35.347,premup-three_ses-01_part-01_label-phase1,3.2.4,Win32,60,left,0.289999962,4,0,4,0,1,3,1,0,240,134,1,239
,,0,49,,,,,,,2,1,4,stim/14.jpeg,HouseObjects,1,stim/objects/HouseObjects/rug.png,0.3,3,-0.2,-0.15,left,22,2020-12-02_18h09.35.347,premup-three_ses-01_part-01_label-phase1,3.2.4,Win32,60,right,0.395999908,4,0,4,0,1,3,1,0,240,91,1,239
,,0,50,,,,,,,3,3,3,stim/33.jpeg,Instruments,2,stim/objects/Instruments/musicstand2.png,0.9,2,0.2,0.15,right,22,2020-12-02_18h09.35.347,premup-three_ses-01_part-01_label-phase1,3.2.4,Win32,60,left,0.306999922,4,0,4,0,1,3,1,0,240,182,1,239
,,1,51,,,,,,,1,6,2,stim/62.jpeg,Instruments,2,stim/objects/Instruments/musicsheet.png,0.5,1,-0.2,0.15,right,22,2020-12-02_18h09.35.347,premup-three_ses-01_part-01_label-phase1,3.2.4,Win32,60,right,1.113000154,4,0,4,0,1,3,1,0,240,69,1,239
,,1,52,,,,,,,2,1,3,stim/13.jpeg,HouseObjects,1,stim/objects/HouseObjects/rubbergloves.png,0.3,4,0.2,-0.15,left,22,2020-12-02_18h09.35.347,premup-three_ses-01_part-01_label-phase1,3.2.4,Win32,60,left,1.183000088,4,0,4,0,1,3,1,0,240,82,1,239
,,0,53,,,,,,,1,5,4,stim/54.jpeg,HouseObjects,1,stim/objects/HouseObjects/knife.png,0.5,2,0.2,0.15,left,22,2020-12-02_18h09.35.347,premup-three_ses-01_part-01_label-phase1,3.2.4,Win32,60,right,1.249000072,4,0,4,0,1,3,1,0,240,7,1,239
,,1,54,,,,,,,2,1,4,stim/14.jpeg,Instruments,2,stim/objects/Instruments/record_player.png,0.7,3,-0.2,-0.15,right,22,2020-12-02_18h09.35.347,premup-three_ses-01_part-01_label-phase1,3.2.4,Win32,60,right,1.231999874,4,0,4,0,1,3,1,0,240,95,1,239
,,1,55,,,,,,,1,5,2,stim/52.jpeg,HouseObjects,1,stim/objects/HouseObjects/ironingboard.png,0.5,3,-0.2,-0.15,left,22,2020-12-02_18h09.35.347,premup-three_ses-01_part-01_label-phase1,3.2.4,Win32,60,left,1.084000111,4,0,4,0,1,3,1,0,240,5,1,239
,,1,56,,,,,,,1,5,1,stim/51.jpeg,Instruments,2,stim/objects/Instruments/keyboard.png,0.5,1,-0.2,0.15,right,22,2020-12-02_18h09.35.347,premup-three_ses-01_part-01_label-phase1,3.2.4,Win32,60,right,0.983999968,4,0,4,0,1,3,1,0,240,24,1,239
,,0,57,,,,,,,3,3,3,stim/33.jpeg,Instruments,2,stim/objects/Instruments/musicstand2.png,0.9,2,0.2,0.15,right,22,2020-12-02_18h09.35.347,premup-three_ses-01_part-01_label-phase1,3.2.4,Win32,60,left,0.983999968,4,0,4,0,1,3,1,0,240,174,1,239
,,0,58,,,,,,,2,1,2,stim/12.jpeg,HouseObjects,1,stim/objects/HouseObjects/remote.png,0.3,1,-0.2,0.15,left,22,2020-12-02_18h09.35.347,premup-three_ses-01_part-01_label-phase1,3.2.4,Win32,60,right,0.855000019,4,0,4,0,1,3,1,0,240,89,1,239
,,1,59,,,,,,,2,1,1,stim/11.jpeg,Instruments,2,stim/objects/Instruments/panflute.png,0.7,1,-0.2,0.15,right,22,2020-12-02_18h09.35.347,premup-three_ses-01_part-01_label-phase1,3.2.4,Win32,60,right,0.665999889,4,0,4,0,1,3,1,0,240,92,1,239
,,1,60,,,,,,,2,1,2,stim/12.jpeg,Instruments,2,stim/objects/Instruments/pipepiano.png,0.7,1,-0.2,0.15,right,22,2020-12-02_18h09.35.347,premup-three_ses-01_part-01_label-phase1,3.2.4,Win32,60,right,0.621999979,4,0,4,0,1,3,1,0,240,117,1,239
,,1,61,,,,,,,1,5,1,stim/51.jpeg,HouseObjects,1,stim/objects/HouseObjects/iron.png,0.5,2,0.2,0.15,left,22,2020-12-02_18h09.35.347,premup-three_ses-01_part-01_label-phase1,3.2.4,Win32,60,left,0.431999922,4,0,4,0,1,3,1,0,240,12,1,239
,,1,62,,,,,,,2,2,4,stim/24.jpeg,HouseObjects,1,stim/objects/HouseObjects/knife2.png,0.7,3,-0.2,-0.15,left,22,2020-12-02_18h09.35.347,premup-three_ses-01_part-01_label-phase1,3.2.4,Win32,60,left,0.815999985,4,0,4,0,1,3,1,0,240,139,1,239
,,1,63,,,,,,,2,1,4,stim/14.jpeg,Instruments,2,stim/objects/Instruments/record_player.png,0.7,2,0.2,0.15,right,22,2020-12-02_18h09.35.347,premup-three_ses-01_part-01_label-phase1,3.2.4,Win32,60,right,0.71600008,4,0,4,0,1,3,1,0,240,107,1,239
,,0,64,,,,,,,1,5,4,stim/54.jpeg,Instruments,2,stim/objects/Instruments/marimba.png,0.5,4,0.2,-0.15,right,22,2020-12-02_18h09.35.347,premup-three_ses-01_part-01_label-phase1,3.2.4,Win32,60,left,0.730999947,4,0,4,0,1,3,1,0,240,35,1,239
,,1,65,,,,,,,3,3,1,stim/31.jpeg,Instruments,2,stim/objects/Instruments/metronome2.png,0.9,1,-0.2,0.15,right,22,2020-12-02_18h09.35.347,premup-three_ses-01_part-01_label-phase1,3.2.4,Win32,60,right,0.877000093,4,0,4,0,1,3,1,0,240,196,1,239
,,0,66,,,,,,,1,6,3,stim/63.jpeg,HouseObjects,1,stim/objects/HouseObjects/pan.png,0.5,1,-0.2,0.15,left,22,2020-12-02_18h09.35.347,premup-three_ses-01_part-01_label-phase1,3.2.4,Win32,60,right,0.769999981,4,0,4,0,1,3,1,0,240,58,1,239
,,0,67,,,,,,,1,6,3,stim/63.jpeg,Instruments,2,stim/objects/Instruments/musicstand.png,0.5,4,0.2,-0.15,right,22,2020-12-02_18h09.35.347,premup-three_ses-01_part-01_label-phase1,3.2.4,Win32,60,left,0.845999956,4,0,4,0,1,3,1,0,240,62,1,239
,,1,68,,,,,,,3,4,3,stim/43.jpeg,HouseObjects,1,stim/objects/HouseObjects/rubbergloves2.png,0.9,1,-0.2,0.15,left,22,2020-12-02_18h09.35.347,premup-three_ses-01_part-01_label-phase1,3.2.4,Win32,60,left,0.883000135,4,0,4,0,1,3,1,0,240,210,1,239
,,1,69,,,,,,,2,2,4,stim/24.jpeg,HouseObjects,1,stim/objects/HouseObjects/knife2.png,0.7,3,-0.2,-0.15,left,22,2020-12-02_18h09.35.347,premup-three_ses-01_part-01_label-phase1,3.2.4,Win32,60,left,0.486999989,4,0,4,0,1,3,1,0,240,143,1,239
,,1,70,,,,,,,1,6,1,stim/61.jpeg,Instruments,2,stim/objects/Instruments/metronome.png,0.5,2,0.2,0.15,right,22,2020-12-02_18h09.35.347,premup-three_ses-01_part-01_label-phase1,3.2.4,Win32,60,right,0.319000006,4,0,4,0,1,3,1,0,240,60,1,239
,,0,71,,,,,,,1,6,3,stim/63.jpeg,Instruments,2,stim/objects/Instruments/musicstand.png,0.5,3,-0.2,-0.15,right,22,2020-12-02_18h09.35.347,premup-three_ses-01_part-01_label-phase1,3.2.4,Win32,60,left,0.695000172,4,0,4,0,1,3,1,0,240,70,1,239
,,0,72,,,,,,,3,4,2,stim/42.jpeg,HouseObjects,1,stim/objects/HouseObjects/remote2.png,0.9,3,-0.2,-0.15,left,22,2020-12-02_18h09.35.347,premup-three_ses-01_part-01_label-phase1,3.2.4,Win32,60,right,0.7099998,4,0,4,0,1,3,1,0,240,221,1,239
,,1,73,,,,,,,2,2,4,stim/24.jpeg,Instruments,2,stim/objects/Instruments/marimba2.png,0.3,3,-0.2,-0.15,right,22,2020-12-02_18h09.35.347,premup-three_ses-01_part-01_label-phase1,3.2.4,Win32,60,right,0.352999926,4,0,4,0,1,3,1,0,240,151,1,239
,,1,74,,,,,,,2,1,2,stim/12.jpeg,Instruments,2,stim/objects/Instruments/pipepiano.png,0.7,1,-0.2,0.15,right,22,2020-12-02_18h09.35.347,premup-three_ses-01_part-01_label-phase1,3.2.4,Win32,60,right,0.471000195,4,0,4,0,1,3,1,0,240,113,1,239
,,0,75,,,,,,,3,4,4,stim/44.jpeg,Instruments,2,stim/objects/Instruments/record_player2.png,0.1,3,-0.2,-0.15,right,22,2020-12-02_18h09.35.347,premup-three_ses-01_part-01_label-phase1,3.2.4,Win32,60,left,0.459000111,4,0,4,0,1,3,1,0,240,239,1,239
,,0,76,,,,,,,3,4,1,stim/41.jpeg,Instruments,2,stim/objects/Instruments/panflute2.png,0.1,1,-0.2,0.15,right,22,2020-12-02_18h09.35.347,premup-three_ses-01_part-01_label-phase1,3.2.4,Win32,60,left,1.042999983,4,0,4,0,1,3,1,0,240,236,1,239
,,0,77,,,,,,,1,6,2,stim/62.jpeg,HouseObjects,1,stim/objects/HouseObjects/match.png,0.5,4,0.2,-0.15,left,22,2020-12-02_18h09.35.347,premup-three_ses-01_part-01_label-phase1,3.2.4,Win32,60,right,0.54399991,4,0,4,0,1,3,1,0,240,45,1,239
,,0,78,,,,,,,2,1,1,stim/11.jpeg,HouseObjects,1,stim/objects/HouseObjects/recyclingbin.png,0.3,4,0.2,-0.15,left,22,2020-12-02_18h09.35.347,premup-three_ses-01_part-01_label-phase1,3.2.4,Win32,60,right,0.654999971,4,0,4,0,1,3,1,0,240,84,1,239
,,0,79,,,,,,,3,3,3,stim/33.jpeg,HouseObjects,1,stim/objects/HouseObjects/pan2.png,0.1,4,0.2,-0.15,left,22,2020-12-02_18h09.35.347,premup-three_ses-01_part-01_label-phase1,3.2.4,Win32,60,right,0.401000023,4,0,4,0,1,3,1,0,240,162,1,239
,,0,80,,,,,,,2,1,1,stim/11.jpeg,Instruments,2,stim/objects/Instruments/panflute.png,0.7,3,-0.2,-0.15,right,22,2020-12-02_18h09.35.347,premup-three_ses-01_part-01_label-phase1,3.2.4,Win32,60,left,0.568000078,4,0,4,0,1,3,1,0,240,100,1,239
,,1,81,,,,,,,2,1,1,stim/11.jpeg,Instruments,2,stim/objects/Instruments/panflute.png,0.7,1,-0.2,0.15,right,22,2020-12-02_18h09.35.347,premup-three_ses-01_part-01_label-phase1,3.2.4,Win32,60,right,0.358999968,4,0,4,0,1,3,1,0,240,108,1,239
,,1,82,,,,,,,1,6,4,stim/64.jpeg,HouseObjects,1,stim/objects/HouseObjects/pitcher.png,0.5,3,-0.2,-0.15,left,22,2020-12-02_18h09.35.347,premup-three_ses-01_part-01_label-phase1,3.2.4,Win32,60,left,0.947999954,4,0,4,0,1,3,1,0,240,47,1,239
,,0,83,,,,,,,2,2,3,stim/23.jpeg,Instruments,2,stim/objects/Instruments/maraca2.png,0.3,1,-0.2,0.15,right,22,2020-12-02_18h09.35.347,premup-three_ses-01_part-01_label-phase1,3.2.4,Win32,60,left,0.878000021,4,0,4,0,1,3,1,0,240,158,1,239
,,0,84,,,,,,,1,5,2,stim/52.jpeg,Instruments,2,stim/objects/Instruments/laud.png,0.5,2,0.2,0.15,right,22,2020-12-02_18h09.35.347,premup-three_ses-01_part-01_label-phase1,3.2.4,Win32,60,left,1.242000103,4,0,4,0,1,3,1,0,240,21,1,239
,,0,85,,,,,,,3,3,4,stim/34.jpeg,Instruments,2,stim/objects/Instruments/oboe2.png,0.9,2,0.2,0.15,right,22,2020-12-02_18h09.35.347,premup-three_ses-01_part-01_label-phase1,3.2.4,Win32,60,left,0.857000113,4,0,4,0,1,3,1,0,240,171,1,239
,,1,86,,,,,,,3,3,1,stim/31.jpeg,Instruments,2,stim/objects/Instruments/metronome2.png,0.9,3,-0.2,-0.15,right,22,2020-12-02_18h09.35.347,premup-three_ses-01_part-01_label-phase1,3.2.4,Win32,60,right,0.799000025,4,0,4,0,1,3,1,0,240,192,1,239
,,0,87,,,,,,,2,1,3,stim/13.jpeg,Instruments,2,stim/objects/Instruments/record.png,0.7,1,-0.2,0.15,right,22,2020-12-02_18h09.35.347,premup-three_ses-01_part-01_label-phase1,3.2.4,Win32,60,left,1.183000088,4,0,4,0,1,3,1,0,240,102,1,239
,,1,88,,,,,,,1,5,2,stim/52.jpeg,HouseObjects,1,stim/objects/HouseObjects/ironingboard.png,0.5,2,0.2,0.15,left,22,2020-12-02_18h09.35.347,premup-three_ses-01_part-01_label-phase1,3.2.4,Win32,60,left,1.51699996,4,0,4,0,1,3,1,0,240,9,1,239
,,1,89,,,,,,,3,4,4,stim/44.jpeg,HouseObjects,1,stim/objects/HouseObjects/rug2.png,0.9,1,-0.2,0.15,left,22,2020-12-02_18h09.35.347,premup-three_ses-01_part-01_label-phase1,3.2.4,Win32,60,left,0.368000031,4,0,4,0,1,3,1,0,240,207,1,239
,,1,90,,,,,,,1,6,1,stim/61.jpeg,Instruments,2,stim/objects/Instruments/metronome.png,0.5,3,-0.2,-0.15,right,22,2020-12-02_18h09.35.347,premup-three_ses-01_part-01_label-phase1,3.2.4,Win32,60,right,1.348999977,4,0,4,0,1,3,1,0,240,76,1,239
,,1,91,,,,,,,1,5,3,stim/53.jpeg,HouseObjects,1,stim/objects/HouseObjects/key.png,0.5,2,0.2,0.15,left,22,2020-12-02_18h09.35.347,premup-three_ses-01_part-01_label-phase1,3.2.4,Win32,60,left,1.052999973,4,0,4,0,1,3,1,0,240,14,1,239
,,1,92,,,,,,,2,1,1,stim/11.jpeg,Instruments,2,stim/objects/Instruments/panflute.png,0.7,3,-0.2,-0.15,right,22,2020-12-02_18h09.35.347,premup-three_ses-01_part-01_label-phase1,3.2.4,Win32,60,right,0.730999947,4,0,4,0,1,3,1,0,240,116,1,239
,,1,93,,,,,,,1,5,1,stim/51.jpeg,HouseObjects,1,stim/objects/HouseObjects/iron.png,0.5,3,-0.2,-0.15,left,22,2020-12-02_18h09.35.347,premup-three_ses-01_part-01_label-phase1,3.2.4,Win32,60,left,0.51699996,4,0,4,0,1,3,1,0,240,0,1,239
,,1,94,,,,,,,2,1,1,stim/11.jpeg,Instruments,2,stim/objects/Instruments/panflute.png,0.7,3,-0.2,-0.15,right,22,2020-12-02_18h09.35.347,premup-three_ses-01_part-01_label-phase1,3.2.4,Win32,60,right,0.417000055,4,0,4,0,1,3,1,0,240,104,1,239
,,0,95,,,,,,,3,3,1,stim/31.jpeg,Instruments,2,stim/objects/Instruments/metronome2.png,0.9,3,-0.2,-0.15,right,22,2020-12-02_18h09.35.347,premup-three_ses-01_part-01_label-phase1,3.2.4,Win32,60,left,0.305999994,4,0,4,0,1,3,1,0,240,184,1,239
,,0,96,,,,,,,1,6,4,stim/64.jpeg,Instruments,2,stim/objects/Instruments/oboe.png,0.5,3,-0.2,-0.15,right,22,2020-12-02_18h09.35.347,premup-three_ses-01_part-01_label-phase1,3.2.4,Win32,60,left,0.326999903,4,0,4,0,1,3,1,0,240,79,1,239
,,1,97,,,,,,,3,3,2,stim/32.jpeg,Instruments,2,stim/objects/Instruments/musicsheet2.png,0.9,1,-0.2,0.15,right,22,2020-12-02_18h09.35.347,premup-three_ses-01_part-01_label-phase1,3.2.4,Win32,60,right,0.393000126,4,0,4,0,1,3,1,0,240,185,1,239
,,0,98,,,,,,,3,4,4,stim/44.jpeg,HouseObjects,1,stim/objects/HouseObjects/rug2.png,0.9,4,0.2,-0.15,left,22,2020-12-02_18h09.35.347,premup-three_ses-01_part-01_label-phase1,3.2.4,Win32,60,right,0.673000097,4,0,4,0,1,3,1,0,240,223,1,239
,,0,99,,,,,,,3,4,3,stim/43.jpeg,HouseObjects,1,stim/objects/HouseObjects/rubbergloves2.png,0.9,2,0.2,0.15,left,22,2020-12-02_18h09.35.347,premup-three_ses-01_part-01_label-phase1,3.2.4,Win32,60,right,0.605000019,4,0,4,0,1,3,1,0,240,226,1,239
,,1,100,,,,,,,3,4,4,stim/44.jpeg,HouseObjects,1,stim/objects/HouseObjects/rug2.png,0.9,2,0.2,0.15,left,22,2020-12-02_18h09.35.347,premup-three_ses-01_part-01_label-phase1,3.2.4,Win32,60,left,0.664000034,4,0,4,0,1,3,1,0,240,203,1,239
,,1,101,,,,,,,2,2,2,stim/22.jpeg,HouseObjects,1,stim/objects/HouseObjects/ironingboard2.png,0.7,4,0.2,-0.15,left,22,2020-12-02_18h09.35.347,premup-three_ses-01_part-01_label-phase1,3.2.4,Win32,60,left,0.728999853,4,0,4,0,1,3,1,0,240,125,1,239
,,0,102,,,,,,,2,2,2,stim/22.jpeg,Instruments,2,stim/objects/Instruments/laud2.png,0.3,3,-0.2,-0.15,right,22,2020-12-02_18h09.35.347,premup-three_ses-01_part-01_label-phase1,3.2.4,Win32,60,left,0.687000036,4,0,4,0,1,3,1,0,240,153,1,239
,,1,103,,,,,,,3,4,4,stim/44.jpeg,HouseObjects,1,stim/objects/HouseObjects/rug2.png,0.9,4,0.2,-0.15,left,22,2020-12-02_18h09.35.347,premup-three_ses-01_part-01_label-phase1,3.2.4,Win32,60,left,0.801000118,4,0,4,0,1,3,1,0,240,215,1,239
,,1,104,,,,,,,2,2,3,stim/23.jpeg,Instruments,2,stim/objects/Instruments/maraca2.png,0.3,1,-0.2,0.15,right,22,2020-12-02_18h09.35.347,premup-three_ses-01_part-01_label-phase1,3.2.4,Win32,60,right,0.878000021,4,0,4,0,1,3,1,0,240,150,1,239
,,0,105,,,,,,,1,5,1,stim/51.jpeg,Instruments,2,stim/objects/Instruments/keyboard.png,0.5,4,0.2,-0.15,right,22,2020-12-02_18h09.35.347,premup-three_ses-01_part-01_label-phase1,3.2.4,Win32,60,left,0.803000212,4,0,4,0,1,3,1,0,240,20,1,239
,,1,106,,,,,,,1,5,3,stim/53.jpeg,HouseObjects,1,stim/objects/HouseObjects/key.png,0.5,4,0.2,-0.15,left,22,2020-12-02_18h09.35.347,premup-three_ses-01_part-01_label-phase1,3.2.4,Win32,60,left,0.902999878,4,0,4,0,1,3,1,0,240,18,1,239
,,1,107,,,,,,,3,3,1,stim/31.jpeg,Instruments,2,stim/objects/Instruments/metronome2.png,0.9,1,-0.2,0.15,right,22,2020-12-02_18h09.35.347,premup-three_ses-01_part-01_label-phase1,3.2.4,Win32,60,right,0.828999996,4,0,4,0,1,3,1,0,240,172,1,239
,,0,108,,,,,,,2,1,4,stim/14.jpeg,HouseObjects,1,stim/objects/HouseObjects/rug.png,0.3,4,0.2,-0.15,left,22,2020-12-02_18h09.35.347,premup-three_ses-01_part-01_label-phase1,3.2.4,Win32,60,right,0.70600009,4,0,4,0,1,3,1,0,240,83,1,239
,,0,109,,,,,,,1,6,4,stim/64.jpeg,HouseObjects,1,stim/objects/HouseObjects/pitcher.png,0.5,3,-0.2,-0.15,left,22,2020-12-02_18h09.35.347,premup-three_ses-01_part-01_label-phase1,3.2.4,Win32,60,right,1.036999941,4,0,4,0,1,3,1,0,240,43,1,239
,,0,110,,,,,,,2,2,4,stim/24.jpeg,Instruments,2,stim/objects/Instruments/marimba2.png,0.3,2,0.2,0.15,right,22,2020-12-02_18h09.35.347,premup-three_ses-01_part-01_label-phase1,3.2.4,Win32,60,left,1.365999937,4,0,4,0,1,3,1,0,240,159,1,239
,,1,111,,,,,,,2,1,2,stim/12.jpeg,Instruments,2,stim/objects/Instruments/pipepiano.png,0.7,1,-0.2,0.15,right,22,2020-12-02_18h09.35.347,premup-three_ses-01_part-01_label-phase1,3.2.4,Win32,60,right,0.707999945,4,0,4,0,1,3,1,0,240,93,1,239
,,1,112,,,,,,,3,3,4,stim/34.jpeg,HouseObjects,1,stim/objects/HouseObjects/pitcher2.png,0.1,3,-0.2,-0.15,left,22,2020-12-02_18h09.35.347,premup-three_ses-01_part-01_label-phase1,3.2.4,Win32,60,left,0.782999992,4,0,4,0,1,3,1,0,240,163,1,239
,,1,113,,,,,,,1,5,3,stim/53.jpeg,HouseObjects,1,stim/objects/HouseObjects/key.png,0.5,4,0.2,-0.15,left,22,2020-12-02_18h09.35.347,premup-three_ses-01_part-01_label-phase1,3.2.4,Win32,60,left,1.079999924,4,0,4,0,1,3,1,0,240,6,1,239
,,0,114,,,,,,,1,6,1,stim/61.jpeg,HouseObjects,1,stim/objects/HouseObjects/lintroller.png,0.5,4,0.2,-0.15,left,22,2020-12-02_18h09.35.347,premup-three_ses-01_part-01_label-phase1,3.2.4,Win32,60,right,0.713999987,4,0,4,0,1,3,1,0,240,40,1,239
,,0,115,,,,,,,1,6,2,stim/62.jpeg,Instruments,2,stim/objects/Instruments/musicsheet.png,0.5,2,0.2,0.15,right,22,2020-12-02_18h09.35.347,premup-three_ses-01_part-01_label-phase1,3.2.4,Win32,60,left,0.616999865,4,0,4,0,1,3,1,0,240,77,1,239
,,1,116,,,,,,,2,1,2,stim/12.jpeg,Instruments,2,stim/objects/Instruments/pipepiano.png,0.7,3,-0.2,-0.15,right,22,2020-12-02_18h09.35.347,premup-three_ses-01_part-01_label-phase1,3.2.4,Win32,60,right,1.56400013,4,0,4,0,1,3,1,0,240,101,1,239
,,1,117,,,,,,,3,4,3,stim/43.jpeg,HouseObjects,1,stim/objects/HouseObjects/rubbergloves2.png,0.9,4,0.2,-0.15,left,22,2020-12-02_18h09.35.347,premup-three_ses-01_part-01_label-phase1,3.2.4,Win32,60,left,0.95600009,4,0,4,0,1,3,1,0,240,222,1,239
,,0,118,,,,,,,3,3,3,stim/33.jpeg,Instruments,2,stim/objects/Instruments/musicstand2.png,0.9,4,0.2,-0.15,right,22,2020-12-02_18h09.35.347,premup-three_ses-01_part-01_label-phase1,3.2.4,Win32,60,left,0.883999825,4,0,4,0,1,3,1,0,240,178,1,239
,,1,119,,,,,,,2,2,2,stim/22.jpeg,HouseObjects,1,stim/objects/HouseObjects/ironingboard2.png,0.7,3,-0.2,-0.15,left,22,2020-12-02_18h09.35.347,premup-three_ses-01_part-01_label-phase1,3.2.4,Win32,60,left,1.361000061,4,0,4,0,1,3,1,0,240,121,1,239
,,0,120,,,,,,,3,3,4,stim/34.jpeg,Instruments,2,stim/objects/Instruments/oboe2.png,0.9,4,0.2,-0.15,right,22,2020-12-02_18h09.35.347,premup-three_ses-01_part-01_label-phase1,3.2.4,Win32,60,left,1.102999926,4,0,4,0,1,3,1,0,240,167,1,239
,,0,121,,,,,,,2,1,2,stim/12.jpeg,HouseObjects,1,stim/objects/HouseObjects/remote.png,0.3,2,0.2,0.15,left,22,2020-12-02_18h09.35.347,premup-three_ses-01_part-01_label-phase1,3.2.4,Win32,60,right,0.996000051,4,0,4,0,1,3,1,0,240,81,1,239
,,0,122,,,,,,,2,2,3,stim/23.jpeg,HouseObjects,1,stim/objects/HouseObjects/key2.png,0.7,1,-0.2,0.15,left,22,2020-12-02_18h09.35.347,premup-three_ses-01_part-01_label-phase1,3.2.4,Win32,60,right,1.335999966,4,0,4,0,1,3,1,0,240,126,1,239
,,1,123,,,,,,,2,1,2,stim/12.jpeg,Instruments,2,stim/objects/Instruments/pipepiano.png,0.7,2,0.2,0.15,right,22,2020-12-02_18h09.35.347,premup-three_ses-01_part-01_label-phase1,3.2.4,Win32,60,right,0.942000151,4,0,4,0,1,3,1,0,240,109,1,239
,,0,124,,,,,,,1,6,4,stim/64.jpeg,HouseObjects,1,stim/objects/HouseObjects/pitcher.png,0.5,4,0.2,-0.15,left,22,2020-12-02_18h09.35.347,premup-three_ses-01_part-01_label-phase1,3.2.4,Win32,60,right,1.005000114,4,0,4,0,1,3,1,0,240,59,1,239
,,0,125,,,,,,,1,5,4,stim/54.jpeg,HouseObjects,1,stim/objects/HouseObjects/knife.png,0.5,4,0.2,-0.15,left,22,2020-12-02_18h09.35.347,premup-three_ses-01_part-01_label-phase1,3.2.4,Win32,60,right,1.164000034,4,0,4,0,1,3,1,0,240,19,1,239
,,1,126,,,,,,,1,5,2,stim/52.jpeg,HouseObjects,1,stim/objects/HouseObjects/ironingboard.png,0.5,2,0.2,0.15,left,22,2020-12-02_18h09.35.347,premup-three_ses-01_part-01_label-phase1,3.2.4,Win32,60,left,1.629999876,4,0,4,0,1,3,1,0,240,17,1,239
,,1,127,,,,,,,3,3,4,stim/34.jpeg,Instruments,2,stim/objects/Instruments/oboe2.png,0.9,4,0.2,-0.15,right,22,2020-12-02_18h09.35.347,premup-three_ses-01_part-01_label-phase1,3.2.4,Win32,60,right,0.767000198,4,0,4,0,1,3,1,0,240,179,1,239
,,0,128,,,,,,,1,5,1,stim/51.jpeg,Instruments,2,stim/objects/Instruments/keyboard.png,0.5,4,0.2,-0.15,right,22,2020-12-02_18h09.35.347,premup-three_ses-01_part-01_label-phase1,3.2.4,Win32,60,left,1.281000137,4,0,4,0,1,3,1,0,240,36,1,239
,,1,129,,,,,,,2,1,4,stim/14.jpeg,Instruments,2,stim/objects/Instruments/record_player.png,0.7,1,-0.2,0.15,right,22,2020-12-02_18h09.35.347,premup-three_ses-01_part-01_label-phase1,3.2.4,Win32,60,right,0.684000015,4,0,4,0,1,3,1,0,240,99,1,239
,,1,130,,,,,,,2,1,3,stim/13.jpeg,Instruments,2,stim/objects/Instruments/record.png,0.7,4,0.2,-0.15,right,22,2020-12-02_18h09.35.347,premup-three_ses-01_part-01_label-phase1,3.2.4,Win32,60,right,1.762000084,4,0,4,0,1,3,1,0,240,110,1,239
,,0,131,,,,,,,3,3,2,stim/32.jpeg,Instruments,2,stim/objects/Instruments/musicsheet2.png,0.9,4,0.2,-0.15,right,22,2020-12-02_18h09.35.347,premup-three_ses-01_part-01_label-phase1,3.2.4,Win32,60,left,0.97300005,4,0,4,0,1,3,1,0,240,165,1,239
,,1,132,,,,,,,2,2,2,stim/22.jpeg,Instruments,2,stim/objects/Instruments/laud2.png,0.3,4,0.2,-0.15,right,22,2020-12-02_18h09.35.347,premup-three_ses-01_part-01_label-phase1,3.2.4,Win32,60,right,0.967000008,4,0,4,0,1,3,1,0,240,157,1,239
,,0,133,,,,,,,2,2,1,stim/21.jpeg,Instruments,2,stim/objects/Instruments/keyboard2.png,0.3,2,0.2,0.15,right,22,2020-12-02_18h09.35.347,premup-three_ses-01_part-01_label-phase1,3.2.4,Win32,60,left,1.148000002,4,0,4,0,1,3,1,0,240,148,1,239
,,1,134,,,,,,,1,5,4,stim/54.jpeg,HouseObjects,1,stim/objects/HouseObjects/knife.png,0.5,1,-0.2,0.15,left,22,2020-12-02_18h09.35.347,premup-three_ses-01_part-01_label-phase1,3.2.4,Win32,60,left,1.414999962,4,0,4,0,1,3,1,0,240,11,1,239
,,1,135,,,,,,,3,4,2,stim/42.jpeg,HouseObjects,1,stim/objects/HouseObjects/remote2.png,0.9,1,-0.2,0.15,left,22,2020-12-02_18h09.35.347,premup-three_ses-01_part-01_label-phase1,3.2.4,Win32,60,left,1.638999939,4,0,4,0,1,3,1,0,240,233,1,239
,,1,136,,,,,,,1,6,3,stim/63.jpeg,HouseObjects,1,stim/objects/HouseObjects/pan.png,0.5,4,0.2,-0.15,left,22,2020-12-02_18h09.35.347,premup-three_ses-01_part-01_label-phase1,3.2.4,Win32,60,left,1.197000027,4,0,4,0,1,3,1,0,240,46,1,239
,,0,137,,,,,,,2,1,3,stim/13.jpeg,HouseObjects,1,stim/objects/HouseObjects/rubbergloves.png,0.3,4,0.2,-0.15,left,22,2020-12-02_18h09.35.347,premup-three_ses-01_part-01_label-phase1,3.2.4,Win32,60,right,0.797999859,4,0,4,0,1,3,1,0,240,86,1,239
,,0,138,,,,,,,1,6,3,stim/63.jpeg,HouseObjects,1,stim/objects/HouseObjects/pan.png,0.5,3,-0.2,-0.15,left,22,2020-12-02_18h09.35.347,premup-three_ses-01_part-01_label-phase1,3.2.4,Win32,60,right,1.15199995,4,0,4,0,1,3,1,0,240,54,1,239
,,0,139,,,,,,,1,6,4,stim/64.jpeg,HouseObjects,1,stim/objects/HouseObjects/pitcher.png,0.5,1,-0.2,0.15,left,22,2020-12-02_18h09.35.347,premup-three_ses-01_part-01_label-phase1,3.2.4,Win32,60,right,1.148000002,4,0,4,0,1,3,1,0,240,55,1,239
,,1,140,,,,,,,3,4,3,stim/43.jpeg,HouseObjects,1,stim/objects/HouseObjects/rubbergloves2.png,0.9,2,0.2,0.15,left,22,2020-12-02_18h09.35.347,premup-three_ses-01_part-01_label-phase1,3.2.4,Win32,60,left,1.082999945,4,0,4,0,1,3,1,0,240,214,1,239
,,1,141,,,,,,,3,4,3,stim/43.jpeg,HouseObjects,1,stim/objects/HouseObjects/rubbergloves2.png,0.9,2,0.2,0.15,left,22,2020-12-02_18h09.35.347,premup-three_ses-01_part-01_label-phase1,3.2.4,Win32,60,left,0.787000179,4,0,4,0,1,3,1,0,240,218,1,239
,,0,142,,,,,,,3,3,2,stim/32.jpeg,Instruments,2,stim/objects/Instruments/musicsheet2.png,0.9,4,0.2,-0.15,right,22,2020-12-02_18h09.35.347,premup-three_ses-01_part-01_label-phase1,3.2.4,Win32,60,left,1.572000027,4,0,4,0,1,3,1,0,240,173,1,239
,,1,143,,,,,,,1,5,2,stim/52.jpeg,Instruments,2,stim/objects/Instruments/laud.png,0.5,2,0.2,0.15,right,22,2020-12-02_18h09.35.347,premup-three_ses-01_part-01_label-phase1,3.2.4,Win32,60,right,1.138999939,4,0,4,0,1,3,1,0,240,29,1,239
,,0,144,,,,,,,2,2,4,stim/24.jpeg,HouseObjects,1,stim/objects/HouseObjects/knife2.png,0.7,4,0.2,-0.15,left,22,2020-12-02_18h09.35.347,premup-three_ses-01_part-01_label-phase1,3.2.4,Win32,60,right,0.928999901,4,0,4,0,1,3,1,0,240,127,1,239
,,1,145,,,,,,,1,5,1,stim/51.jpeg,Instruments,2,stim/objects/Instruments/keyboard.png,0.5,4,0.2,-0.15,right,22,2020-12-02_18h09.35.347,premup-three_ses-01_part-01_label-phase1,3.2.4,Win32,60,right,0.93599987,4,0,4,0,1,3,1,0,240,28,1,239
,,0,146,,,,,,,1,6,2,stim/62.jpeg,Instruments,2,stim/objects/Instruments/musicsheet.png,0.5,1,-0.2,0.15,right,22,2020-12-02_18h09.35.347,premup-three_ses-01_part-01_label-phase1,3.2.4,Win32,60,left,0.93900013,4,0,4,0,1,3,1,0,240,73,1,239
,,0,147,,,,,,,2,2,4,stim/24.jpeg,HouseObjects,1,stim/objects/HouseObjects/knife2.png,0.7,4,0.2,-0.15,left,22,2020-12-02_18h09.35.347,premup-three_ses-01_part-01_label-phase1,3.2.4,Win32,60,right,0.429000139,4,0,4,0,1,3,1,0,240,123,1,239
,,0,148,,,,,,,2,2,1,stim/21.jpeg,HouseObjects,1,stim/objects/HouseObjects/iron2.png,0.7,2,0.2,0.15,left,22,2020-12-02_18h09.35.347,premup-three_ses-01_part-01_label-phase1,3.2.4,Win32,60,right,0.899000168,4,0,4,0,1,3,1,0,240,128,1,239
,,0,149,,,,,,,1,5,2,stim/52.jpeg,HouseObjects,1,stim/objects/HouseObjects/ironingboard.png,0.5,2,0.2,0.15,left,22,2020-12-02_18h09.35.347,premup-three_ses-01_part-01_label-phase1,3.2.4,Win32,60,right,0.927000046,4,0,4,0,1,3,1,0,240,1,1,239
,,1,150,,,,,,,2,2,2,stim/22.jpeg,HouseObjects,1,stim/objects/HouseObjects/ironingboard2.png,0.7,4,0.2,-0.15,left,22,2020-12-02_18h09.35.347,premup-three_ses-01_part-01_label-phase1,3.2.4,Win32,60,left,0.653000116,4,0,4,0,1,3,1,0,240,141,1,239
,,1,151,,,,,,,1,6,2,stim/62.jpeg,HouseObjects,1,stim/objects/HouseObjects/match.png,0.5,1,-0.2,0.15,left,22,2020-12-02_18h09.35.347,premup-three_ses-01_part-01_label-phase1,3.2.4,Win32,60,left,1.026000023,4,0,4,0,1,3,1,0,240,53,1,239
,,1,152,,,,,,,2,2,1,stim/21.jpeg,HouseObjects,1,stim/objects/HouseObjects/iron2.png,0.7,3,-0.2,-0.15,left,22,2020-12-02_18h09.35.347,premup-three_ses-01_part-01_label-phase1,3.2.4,Win32,60,left,0.611999989,4,0,4,0,1,3,1,0,240,140,1,239
,,1,153,,,,,,,1,6,4,stim/64.jpeg,Instruments,2,stim/objects/Instruments/oboe.png,0.5,1,-0.2,0.15,right,22,2020-12-02_18h09.35.347,premup-three_ses-01_part-01_label-phase1,3.2.4,Win32,60,right,1.128999949,4,0,4,0,1,3,1,0,240,71,1,239
,,1,154,,,,,,,2,2,4,stim/24.jpeg,HouseObjects,1,stim/objects/HouseObjects/knife2.png,0.7,4,0.2,-0.15,left,22,2020-12-02_18h09.35.347,premup-three_ses-01_part-01_label-phase1,3.2.4,Win32,60,left,1.292999983,4,0,4,0,1,3,1,0,240,147,1,239
,,1,155,,,,,,,2,2,1,stim/21.jpeg,HouseObjects,1,stim/objects/HouseObjects/iron2.png,0.7,1,-0.2,0.15,left,22,2020-12-02_18h09.35.347,premup-three_ses-01_part-01_label-phase1,3.2.4,Win32,60,left,1.184000015,4,0,4,0,1,3,1,0,240,120,1,239
,,1,156,,,,,,,1,5,2,stim/52.jpeg,Instruments,2,stim/objects/Instruments/laud.png,0.5,4,0.2,-0.15,right,22,2020-12-02_18h09.35.347,premup-three_ses-01_part-01_label-phase1,3.2.4,Win32,60,right,1.037000179,4,0,4,0,1,3,1,0,240,33,1,239
,,1,157,,,,,,,3,4,4,stim/44.jpeg,HouseObjects,1,stim/objects/HouseObjects/rug2.png,0.9,2,0.2,0.15,left,22,2020-12-02_18h09.35.347,premup-three_ses-01_part-01_label-phase1,3.2.4,Win32,60,left,1.251999855,4,0,4,0,1,3,1,0,240,227,1,239
,,1,158,,,,,,,3,4,3,stim/43.jpeg,HouseObjects,1,stim/objects/HouseObjects/rubbergloves2.png,0.9,1,-0.2,0.15,left,22,2020-12-02_18h09.35.347,premup-three_ses-01_part-01_label-phase1,3.2.4,Win32,60,left,1.319999933,4,0,4,0,1,3,1,0,240,234,1,239
,,1,159,,,,,,,1,6,2,stim/62.jpeg,HouseObjects,1,stim/objects/HouseObjects/match.png,0.5,1,-0.2,0.15,left,22,2020-12-02_18h09.35.347,premup-three_ses-01_part-01_label-phase1,3.2.4,Win32,60,left,1.212999821,4,0,4,0,1,3,1,0,240,49,1,239
,,1,160,,,,,,,1,6,1,stim/61.jpeg,Instruments,2,stim/objects/Instruments/metronome.png,0.5,1,-0.2,0.15,right,22,2020-12-02_18h09.35.347,premup-three_ses-01_part-01_label-phase1,3.2.4,Win32,60,right,0.947999954,4,0,4,0,1,3,1,0,240,72,1,239
,,1,161,,,,,,,1,5,3,stim/53.jpeg,Instruments,2,stim/objects/Instruments/maraca.png,0.5,3,-0.2,-0.15,right,22,2020-12-02_18h09.35.347,premup-three_ses-01_part-01_label-phase1,3.2.4,Win32,60,right,0.868000031,4,0,4,0,1,3,1,0,240,30,1,239
,,1,162,,,,,,,1,6,3,stim/63.jpeg,Instruments,2,stim/objects/Instruments/musicstand.png,0.5,1,-0.2,0.15,right,22,2020-12-02_18h09.35.347,premup-three_ses-01_part-01_label-phase1,3.2.4,Win32,60,right,0.960000038,4,0,4,0,1,3,1,0,240,66,1,239
,,1,163,,,,,,,3,3,4,stim/34.jpeg,Instruments,2,stim/objects/Instruments/oboe2.png,0.9,1,-0.2,0.15,right,22,2020-12-02_18h09.35.347,premup-three_ses-01_part-01_label-phase1,3.2.4,Win32,60,right,1.361999989,4,0,4,0,1,3,1,0,240,199,1,239
,,0,164,,,,,,,1,5,1,stim/51.jpeg,HouseObjects,1,stim/objects/HouseObjects/iron.png,0.5,1,-0.2,0.15,left,22,2020-12-02_18h09.35.347,premup-three_ses-01_part-01_label-phase1,3.2.4,Win32,60,right,0.823999882,4,0,4,0,1,3,1,0,240,4,1,239
,,1,165,,,,,,,2,1,1,stim/11.jpeg,Instruments,2,stim/objects/Instruments/panflute.png,0.7,2,0.2,0.15,right,22,2020-12-02_18h09.35.347,premup-three_ses-01_part-01_label-phase1,3.2.4,Win32,60,right,0.776000023,4,0,4,0,1,3,1,0,240,96,1,239
,,0,166,,,,,,,3,3,3,stim/33.jpeg,Instruments,2,stim/objects/Instruments/musicstand2.png,0.9,2,0.2,0.15,right,22,2020-12-02_18h09.35.347,premup-three_ses-01_part-01_label-phase1,3.2.4,Win32,60,left,0.555000067,4,0,4,0,1,3,1,0,240,198,1,239
,,0,167,,,,,,,1,5,4,stim/54.jpeg,Instruments,2,stim/objects/Instruments/marimba.png,0.5,3,-0.2,-0.15,right,22,2020-12-02_18h09.35.347,premup-three_ses-01_part-01_label-phase1,3.2.4,Win32,60,,,4,0,4,0,1,3,1,0,240,31,1,239
,,0,168,,,,,,,1,6,3,stim/63.jpeg,HouseObjects,1,stim/objects/HouseObjects/pan.png,0.5,1,-0.2,0.15,left,22,2020-12-02_18h09.35.347,premup-three_ses-01_part-01_label-phase1,3.2.4,Win32,60,right,0.579999924,4,0,4,0,1,3,1,0,240,42,1,239
,,1,169,,,,,,,3,4,1,stim/41.jpeg,HouseObjects,1,stim/objects/HouseObjects/recyclingbin2.png,0.9,2,0.2,0.15,left,22,2020-12-02_18h09.35.347,premup-three_ses-01_part-01_label-phase1,3.2.4,Win32,60,left,0.700000048,4,0,4,0,1,3,1,0,240,216,1,239
,,1,170,,,,,,,3,4,3,stim/43.jpeg,HouseObjects,1,stim/objects/HouseObjects/rubbergloves2.png,0.9,4,0.2,-0.15,left,22,2020-12-02_18h09.35.347,premup-three_ses-01_part-01_label-phase1,3.2.4,Win32,60,left,0.804000139,4,0,4,0,1,3,1,0,240,202,1,239
,,0,171,,,,,,,1,5,1,stim/51.jpeg,HouseObjects,1,stim/objects/HouseObjects/iron.png,0.5,1,-0.2,0.15,left,22,2020-12-02_18h09.35.347,premup-three_ses-01_part-01_label-phase1,3.2.4,Win32,60,right,0.898000002,4,0,4,0,1,3,1,0,240,8,1,239
,,1,172,,,,,,,3,3,3,stim/33.jpeg,Instruments,2,stim/objects/Instruments/musicstand2.png,0.9,1,-0.2,0.15,right,22,2020-12-02_18h09.35.347,premup-three_ses-01_part-01_label-phase1,3.2.4,Win32,60,right,1.190000057,4,0,4,0,1,3,1,0,240,170,1,239
,,1,173,,,,,,,2,2,3,stim/23.jpeg,HouseObjects,1,stim/objects/HouseObjects/key2.png,0.7,4,0.2,-0.15,left,22,2020-12-02_18h09.35.347,premup-three_ses-01_part-01_label-phase1,3.2.4,Win32,60,left,0.924999952,4,0,4,0,1,3,1,0,240,122,1,239
,,1,174,,,,,,,1,6,4,stim/64.jpeg,HouseObjects,1,stim/objects/HouseObjects/pitcher.png,0.5,4,0.2,-0.15,left,22,2020-12-02_18h09.35.347,premup-three_ses-01_part-01_label-phase1,3.2.4,Win32,60,left,1.327000141,4,0,4,0,1,3,1,0,240,51,1,239
,,0,175,,,,,,,1,6,4,stim/64.jpeg,Instruments,2,stim/objects/Instruments/oboe.png,0.5,3,-0.2,-0.15,right,22,2020-12-02_18h09.35.347,premup-three_ses-01_part-01_label-phase1,3.2.4,Win32,60,left,0.846999884,4,0,4,0,1,3,1,0,240,75,1,239
,,0,176,,,,,,,1,6,2,stim/62.jpeg,Instruments,2,stim/objects/Instruments/musicsheet.png,0.5,4,0.2,-0.15,right,22,2020-12-02_18h09.35.347,premup-three_ses-01_part-01_label-phase1,3.2.4,Win32,60,left,1.121999979,4,0,4,0,1,3,1,0,240,61,1,239
,,1,177,,,,,,,3,3,4,stim/34.jpeg,Instruments,2,stim/objects/Instruments/oboe2.png,0.9,2,0.2,0.15,right,22,2020-12-02_18h09.35.347,premup-three_ses-01_part-01_label-phase1,3.2.4,Win32,60,right,0.814999819,4,0,4,0,1,3,1,0,240,175,1,239
,,1,178,,,,,,,3,4,2,stim/42.jpeg,HouseObjects,1,stim/objects/HouseObjects/remote2.png,0.9,4,0.2,-0.15,left,22,2020-12-02_18h09.35.347,premup-three_ses-01_part-01_label-phase1,3.2.4,Win32,60,left,0.703999996,4,0,4,0,1,3,1,0,240,217,1,239
,,1,179,,,,,,,1,5,3,stim/53.jpeg,Instruments,2,stim/objects/Instruments/maraca.png,0.5,2,0.2,0.15,right,22,2020-12-02_18h09.35.347,premup-three_ses-01_part-01_label-phase1,3.2.4,Win32,60,right,0.835000038,4,0,4,0,1,3,1,0,240,26,1,239
,,0,180,,,,,,,3,4,3,stim/43.jpeg,Instruments,2,stim/objects/Instruments/record2.png,0.1,3,-0.2,-0.15,right,22,2020-12-02_18h09.35.347,premup-three_ses-01_part-01_label-phase1,3.2.4,Win32,60,left,0.987999916,4,0,4,0,1,3,1,0,240,238,1,239
,,1,181,,,,,,,3,3,4,stim/34.jpeg,Instruments,2,stim/objects/Instruments/oboe2.png,0.9,2,0.2,0.15,right,22,2020-12-02_18h09.35.347,premup-three_ses-01_part-01_label-phase1,3.2.4,Win32,60,right,1.09100008,4,0,4,0,1,3,1,0,240,187,1,239
,,1,182,,,,,,,1,6,1,stim/61.jpeg,Instruments,2,stim/objects/Instruments/metronome.png,0.5,3,-0.2,-0.15,right,22,2020-12-02_18h09.35.347,premup-three_ses-01_part-01_label-phase1,3.2.4,Win32,60,right,0.792000055,4,0,4,0,1,3,1,0,240,68,1,239
,,0,183,,,,,,,2,2,4,stim/24.jpeg,Instruments,2,stim/objects/Instruments/marimba2.png,0.3,2,0.2,0.15,right,22,2020-12-02_18h09.35.347,premup-three_ses-01_part-01_label-phase1,3.2.4,Win32,60,left,0.753000021,4,0,4,0,1,3,1,0,240,155,1,239
,,0,184,,,,,,,3,4,2,stim/42.jpeg,Instruments,2,stim/objects/Instruments/pipepiano2.png,0.1,3,-0.2,-0.15,right,22,2020-12-02_18h09.35.347,premup-three_ses-01_part-01_label-phase1,3.2.4,Win32,60,left,0.893000126,4,0,4,0,1,3,1,0,240,237,1,239
,,1,185,,,,,,,3,3,2,stim/32.jpeg,Instruments,2,stim/objects/Instruments/musicsheet2.png,0.9,4,0.2,-0.15,right,22,2020-12-02_18h09.35.347,premup-three_ses-01_part-01_label-phase1,3.2.4,Win32,60,right,0.631999969,4,0,4,0,1,3,1,0,240,189,1,239
,,0,186,,,,,,,1,5,3,stim/53.jpeg,HouseObjects,1,stim/objects/HouseObjects/key.png,0.5,3,-0.2,-0.15,left,22,2020-12-02_18h09.35.347,premup-three_ses-01_part-01_label-phase1,3.2.4,Win32,60,right,1.671999931,4,0,4,0,1,3,1,0,240,10,1,239
,,0,187,,,,,,,2,1,2,stim/12.jpeg,HouseObjects,1,stim/objects/HouseObjects/remote.png,0.3,2,0.2,0.15,left,22,2020-12-02_18h09.35.347,premup-three_ses-01_part-01_label-phase1,3.2.4,Win32,60,right,0.970999956,4,0,4,0,1,3,1,0,240,85,1,239
,,1,188,,,,,,,2,2,2,stim/22.jpeg,Instruments,2,stim/objects/Instruments/laud2.png,0.3,4,0.2,-0.15,right,22,2020-12-02_18h09.35.347,premup-three_ses-01_part-01_label-phase1,3.2.4,Win32,60,right,1.154999971,4,0,4,0,1,3,1,0,240,149,1,239
,,0,189,,,,,,,3,4,3,stim/43.jpeg,HouseObjects,1,stim/objects/HouseObjects/rubbergloves2.png,0.9,3,-0.2,-0.15,left,22,2020-12-02_18h09.35.347,premup-three_ses-01_part-01_label-phase1,3.2.4,Win32,60,right,1.207000017,4,0,4,0,1,3,1,0,240,206,1,239
,,0,190,,,,,,,1,5,3,stim/53.jpeg,Instruments,2,stim/objects/Instruments/maraca.png,0.5,4,0.2,-0.15,right,22,2020-12-02_18h09.35.347,premup-three_ses-01_part-01_label-phase1,3.2.4,Win32,60,left,0.953999996,4,0,4,0,1,3,1,0,240,38,1,239
,,1,191,,,,,,,3,3,1,stim/31.jpeg,Instruments,2,stim/objects/Instruments/metronome2.png,0.9,2,0.2,0.15,right,22,2020-12-02_18h09.35.347,premup-three_ses-01_part-01_label-phase1,3.2.4,Win32,60,right,0.786000013,4,0,4,0,1,3,1,0,240,180,1,239
,,1,192,,,,,,,2,1,4,stim/14.jpeg,Instruments,2,stim/objects/Instruments/record_player.png,0.7,3,-0.2,-0.15,right,22,2020-12-02_18h09.35.347,premup-three_ses-01_part-01_label-phase1,3.2.4,Win32,60,right,0.943000078,4,0,4,0,1,3,1,0,240,103,1,239
,,1,193,,,,,,,3,3,4,stim/34.jpeg,Instruments,2,stim/objects/Instruments/oboe2.png,0.9,3,-0.2,-0.15,right,22,2020-12-02_18h09.35.347,premup-three_ses-01_part-01_label-phase1,3.2.4,Win32,60,right,0.710999966,4,0,4,0,1,3,1,0,240,195,1,239
,,1,194,,,,,,,2,2,2,stim/22.jpeg,HouseObjects,1,stim/objects/HouseObjects/ironingboard2.png,0.7,3,-0.2,-0.15,left,22,2020-12-02_18h09.35.347,premup-three_ses-01_part-01_label-phase1,3.2.4,Win32,60,left,0.539999962,4,0,4,0,1,3,1,0,240,129,1,239
,,0,195,,,,,,,1,5,2,stim/52.jpeg,Instruments,2,stim/objects/Instruments/laud.png,0.5,3,-0.2,-0.15,right,22,2020-12-02_18h09.35.347,premup-three_ses-01_part-01_label-phase1,3.2.4,Win32,60,left,0.76699996,4,0,4,0,1,3,1,0,240,25,1,239
,,0,196,,,,,,,1,5,2,stim/52.jpeg,HouseObjects,1,stim/objects/HouseObjects/ironingboard.png,0.5,1,-0.2,0.15,left,22,2020-12-02_18h09.35.347,premup-three_ses-01_part-01_label-phase1,3.2.4,Win32,60,right,0.799999952,4,0,4,0,1,3,1,0,240,13,1,239
,,0,197,,,,,,,2,1,3,stim/13.jpeg,HouseObjects,1,stim/objects/HouseObjects/rubbergloves.png,0.3,1,-0.2,0.15,left,22,2020-12-02_18h09.35.347,premup-three_ses-01_part-01_label-phase1,3.2.4,Win32,60,right,0.937999964,4,0,4,0,1,3,1,0,240,90,1,239
,,0,198,,,,,,,3,3,1,stim/31.jpeg,HouseObjects,1,stim/objects/HouseObjects/lintroller2.png,0.1,4,0.2,-0.15,left,22,2020-12-02_18h09.35.347,premup-three_ses-01_part-01_label-phase1,3.2.4,Win32,60,right,0.955000162,4,0,4,0,1,3,1,0,240,160,1,239
,,0,199,,,,,,,1,6,2,stim/62.jpeg,HouseObjects,1,stim/objects/HouseObjects/match.png,0.5,3,-0.2,-0.15,left,22,2020-12-02_18h09.35.347,premup-three_ses-01_part-01_label-phase1,3.2.4,Win32,60,right,0.993999958,4,0,4,0,1,3,1,0,240,41,1,239
,,1,200,,,,,,,1,5,3,stim/53.jpeg,HouseObjects,1,stim/objects/HouseObjects/key.png,0.5,1,-0.2,0.15,left,22,2020-12-02_18h09.35.347,premup-three_ses-01_part-01_label-phase1,3.2.4,Win32,60,left,0.678999901,4,0,4,0,1,3,1,0,240,2,1,239
,,0,201,,,,,,,2,1,4,stim/14.jpeg,Instruments,2,stim/objects/Instruments/record_player.png,0.7,4,0.2,-0.15,right,22,2020-12-02_18h09.35.347,premup-three_ses-01_part-01_label-phase1,3.2.4,Win32,60,left,0.654000044,4,0,4,0,1,3,1,0,240,115,1,239
,,1,202,,,,,,,1,5,4,stim/54.jpeg,Instruments,2,stim/objects/Instruments/marimba.png,0.5,2,0.2,0.15,right,22,2020-12-02_18h09.35.347,premup-three_ses-01_part-01_label-phase1,3.2.4,Win32,60,right,0.75,4,0,4,0,1,3,1,0,240,23,1,239
,,1,203,,,,,,,3,4,1,stim/41.jpeg,HouseObjects,1,stim/objects/HouseObjects/recyclingbin2.png,0.9,1,-0.2,0.15,left,22,2020-12-02_18h09.35.347,premup-three_ses-01_part-01_label-phase1,3.2.4,Win32,60,left,1.188000202,4,0,4,0,1,3,1,0,240,220,1,239
,,1,204,,,,,,,3,4,1,stim/41.jpeg,HouseObjects,1,stim/objects/HouseObjects/recyclingbin2.png,0.9,1,-0.2,0.15,left,22,2020-12-02_18h09.35.347,premup-three_ses-01_part-01_label-phase1,3.2.4,Win32,60,left,0.739000082,4,0,4,0,1,3,1,0,240,224,1,239
,,1,205,,,,,,,1,5,2,stim/52.jpeg,Instruments,2,stim/objects/Instruments/laud.png,0.5,4,0.2,-0.15,right,22,2020-12-02_18h09.35.347,premup-three_ses-01_part-01_label-phase1,3.2.4,Win32,60,right,0.707000017,4,0,4,0,1,3,1,0,240,37,1,239
,,1,206,,,,,,,3,4,2,stim/42.jpeg,HouseObjects,1,stim/objects/HouseObjects/remote2.png,0.9,1,-0.2,0.15,left,22,2020-12-02_18h09.35.347,premup-three_ses-01_part-01_label-phase1,3.2.4,Win32,60,left,0.711000204,4,0,4,0,1,3,1,0,240,201,1,239
,,1,207,,,,,,,3,3,1,stim/31.jpeg,Instruments,2,stim/objects/Instruments/metronome2.png,0.9,2,0.2,0.15,right,22,2020-12-02_18h09.35.347,premup-three_ses-01_part-01_label-phase1,3.2.4,Win32,60,right,0.737999916,4,0,4,0,1,3,1,0,240,176,1,239
,,1,208,,,,,,,3,4,1,stim/41.jpeg,HouseObjects,1,stim/objects/HouseObjects/recyclingbin2.png,0.9,3,-0.2,-0.15,left,22,2020-12-02_18h09.35.347,premup-three_ses-01_part-01_label-phase1,3.2.4,Win32,60,left,0.552999973,4,0,4,0,1,3,1,0,240,204,1,239
,,0,209,,,,,,,1,6,1,stim/61.jpeg,HouseObjects,1,stim/objects/HouseObjects/lintroller.png,0.5,4,0.2,-0.15,left,22,2020-12-02_18h09.35.347,premup-three_ses-01_part-01_label-phase1,3.2.4,Win32,60,right,0.522000074,4,0,4,0,1,3,1,0,240,44,1,239
,,1,210,,,,,,,3,4,2,stim/42.jpeg,HouseObjects,1,stim/objects/HouseObjects/remote2.png,0.9,1,-0.2,0.15,left,22,2020-12-02_18h09.35.347,premup-three_ses-01_part-01_label-phase1,3.2.4,Win32,60,left,0.702000141,4,0,4,0,1,3,1,0,240,209,1,239
,,1,211,,,,,,,2,2,3,stim/23.jpeg,HouseObjects,1,stim/objects/HouseObjects/key2.png,0.7,3,-0.2,-0.15,left,22,2020-12-02_18h09.35.347,premup-three_ses-01_part-01_label-phase1,3.2.4,Win32,60,left,0.99000001,4,0,4,0,1,3,1,0,240,142,1,239
,,1,212,,,,,,,1,6,1,stim/61.jpeg,HouseObjects,1,stim/objects/HouseObjects/lintroller.png,0.5,1,-0.2,0.15,left,22,2020-12-02_18h09.35.347,premup-three_ses-01_part-01_label-phase1,3.2.4,Win32,60,left,1.360000134,4,0,4,0,1,3,1,0,240,56,1,239
,,1,213,,,,,,,3,4,2,stim/42.jpeg,HouseObjects,1,stim/objects/HouseObjects/remote2.png,0.9,3,-0.2,-0.15,left,22,2020-12-02_18h09.35.347,premup-three_ses-01_part-01_label-phase1,3.2.4,Win32,60,left,0.900000095,4,0,4,0,1,3,1,0,240,229,1,239
,,1,214,,,,,,,1,6,2,stim/62.jpeg,Instruments,2,stim/objects/Instruments/musicsheet.png,0.5,2,0.2,0.15,right,22,2020-12-02_18h09.35.347,premup-three_ses-01_part-01_label-phase1,3.2.4,Win32,60,right,0.597999811,4,0,4,0,1,3,1,0,240,65,1,239
,,1,215,,,,,,,2,1,1,stim/11.jpeg,HouseObjects,1,stim/objects/HouseObjects/recyclingbin.png,0.3,1,-0.2,0.15,left,22,2020-12-02_18h09.35.347,premup-three_ses-01_part-01_label-phase1,3.2.4,Win32,60,left,0.884000063,4,0,4,0,1,3,1,0,240,80,1,239
,,0,216,,,,,,,3,4,4,stim/44.jpeg,HouseObjects,1,stim/objects/HouseObjects/rug2.png,0.9,4,0.2,-0.15,left,22,2020-12-02_18h09.35.347,premup-three_ses-01_part-01_label-phase1,3.2.4,Win32,60,right,1.061000109,4,0,4,0,1,3,1,0,240,235,1,239
,,0,217,,,,,,,1,6,1,stim/61.jpeg,Instruments,2,stim/objects/Instruments/metronome.png,0.5,2,0.2,0.15,right,22,2020-12-02_18h09.35.347,premup-three_ses-01_part-01_label-phase1,3.2.4,Win32,60,left,0.495999813,4,0,4,0,1,3,1,0,240,64,1,239
,,1,218,,,,,,,3,3,3,stim/33.jpeg,Instruments,2,stim/objects/Instruments/musicstand2.png,0.9,2,0.2,0.15,right,22,2020-12-02_18h09.35.347,premup-three_ses-01_part-01_label-phase1,3.2.4,Win32,60,right,0.703999996,4,0,4,0,1,3,1,0,240,166,1,239
,,1,219,,,,,,,1,6,3,stim/63.jpeg,Instruments,2,stim/objects/Instruments/musicstand.png,0.5,1,-0.2,0.15,right,22,2020-12-02_18h09.35.347,premup-three_ses-01_part-01_label-phase1,3.2.4,Win32,60,right,1.186999798,4,0,4,0,1,3,1,0,240,74,1,239
,,1,220,,,,,,,1,6,3,stim/63.jpeg,HouseObjects,1,stim/objects/HouseObjects/pan.png,0.5,4,0.2,-0.15,left,22,2020-12-02_18h09.35.347,premup-three_ses-01_part-01_label-phase1,3.2.4,Win32,60,left,1.021999836,4,0,4,0,1,3,1,0,240,50,1,239
,,1,221,,,,,,,1,5,1,stim/51.jpeg,HouseObjects,1,stim/objects/HouseObjects/iron.png,0.5,1,-0.2,0.15,left,22,2020-12-02_18h09.35.347,premup-three_ses-01_part-01_label-phase1,3.2.4,Win32,60,left,1.117000103,4,0,4,0,1,3,1,0,240,16,1,239
,,0,222,,,,,,,3,3,2,stim/32.jpeg,Instruments,2,stim/objects/Instruments/musicsheet2.png,0.9,3,-0.2,-0.15,right,22,2020-12-02_18h09.35.347,premup-three_ses-01_part-01_label-phase1,3.2.4,Win32,60,left,0.651000023,4,0,4,0,1,3,1,0,240,169,1,239
,,1,223,,,,,,,3,3,4,stim/34.jpeg,Instruments,2,stim/objects/Instruments/oboe2.png,0.9,3,-0.2,-0.15,right,22,2020-12-02_18h09.35.347,premup-three_ses-01_part-01_label-phase1,3.2.4,Win32,60,right,0.534999847,4,0,4,0,1,3,1,0,240,191,1,239
,,1,224,,,,,,,1,5,1,stim/51.jpeg,Instruments,2,stim/objects/Instruments/keyboard.png,0.5,1,-0.2,0.15,right,22,2020-12-02_18h09.35.347,premup-three_ses-01_part-01_label-phase1,3.2.4,Win32,60,right,1.029000044,4,0,4,0,1,3,1,0,240,32,1,239
,,1,225,,,,,,,1,6,1,stim/61.jpeg,HouseObjects,1,stim/objects/HouseObjects/lintroller.png,0.5,2,0.2,0.15,left,22,2020-12-02_18h09.35.347,premup-three_ses-01_part-01_label-phase1,3.2.4,Win32,60,left,1.552999973,4,0,4,0,1,3,1,0,240,48,1,239
,,1,226,,,,,,,3,3,3,stim/33.jpeg,Instruments,2,stim/objects/Instruments/musicstand2.png,0.9,1,-0.2,0.15,right,22,2020-12-02_18h09.35.347,premup-three_ses-01_part-01_label-phase1,3.2.4,Win32,60,right,0.424000025,4,0,4,0,1,3,1,0,240,194,1,239
,,1,227,,,,,,,1,5,3,stim/53.jpeg,Instruments,2,stim/objects/Instruments/maraca.png,0.5,2,0.2,0.15,right,22,2020-12-02_18h09.35.347,premup-three_ses-01_part-01_label-phase1,3.2.4,Win32,60,right,0.634000063,4,0,4,0,1,3,1,0,240,34,1,239
,,0,228,,,,,,,3,3,2,stim/32.jpeg,Instruments,2,stim/objects/Instruments/musicsheet2.png,0.9,4,0.2,-0.15,right,22,2020-12-02_18h09.35.347,premup-three_ses-01_part-01_label-phase1,3.2.4,Win32,60,left,0.737999916,4,0,4,0,1,3,1,0,240,177,1,239
,,0,229,,,,,,,2,2,2,stim/22.jpeg,HouseObjects,1,stim/objects/HouseObjects/ironingboard2.png,0.7,3,-0.2,-0.15,left,22,2020-12-02_18h09.35.347,premup-three_ses-01_part-01_label-phase1,3.2.4,Win32,60,right,0.628000021,4,0,4,0,1,3,1,0,240,137,1,239
,,1,230,,,,,,,3,3,2,stim/32.jpeg,Instruments,2,stim/objects/Instruments/musicsheet2.png,0.9,3,-0.2,-0.15,right,22,2020-12-02_18h09.35.347,premup-three_ses-01_part-01_label-phase1,3.2.4,Win32,60,right,0.553999901,4,0,4,0,1,3,1,0,240,193,1,239
,,1,231,,,,,,,3,3,4,stim/34.jpeg,Instruments,2,stim/objects/Instruments/oboe2.png,0.9,1,-0.2,0.15,right,22,2020-12-02_18h09.35.347,premup-three_ses-01_part-01_label-phase1,3.2.4,Win32,60,right,1.006999969,4,0,4,0,1,3,1,0,240,183,1,239
,,1,232,,,,,,,3,4,1,stim/41.jpeg,HouseObjects,1,stim/objects/HouseObjects/recyclingbin2.png,0.9,1,-0.2,0.15,left,22,2020-12-02_18h09.35.347,premup-three_ses-01_part-01_label-phase1,3.2.4,Win32,60,left,0.82799983,4,0,4,0,1,3,1,0,240,208,1,239
,,1,233,,,,,,,3,3,1,stim/31.jpeg,Instruments,2,stim/objects/Instruments/metronome2.png,0.9,4,0.2,-0.15,right,22,2020-12-02_18h09.35.347,premup-three_ses-01_part-01_label-phase1,3.2.4,Win32,60,right,0.96600008,4,0,4,0,1,3,1,0,240,168,1,239
,,0,234,,,,,,,3,4,3,stim/43.jpeg,HouseObjects,1,stim/objects/HouseObjects/rubbergloves2.png,0.9,3,-0.2,-0.15,left,22,2020-12-02_18h09.35.347,premup-three_ses-01_part-01_label-phase1,3.2.4,Win32,60,right,1.339999914,4,0,4,0,1,3,1,0,240,230,1,239
,,0,235,,,,,,,2,2,1,stim/21.jpeg,HouseObjects,1,stim/objects/HouseObjects/iron2.png,0.7,2,0.2,0.15,left,22,2020-12-02_18h09.35.347,premup-three_ses-01_part-01_label-phase1,3.2.4,Win32,60,right,0.608999968,4,0,4,0,1,3,1,0,240,144,1,239
,,1,236,,,,,,,3,4,2,stim/42.jpeg,HouseObjects,1,stim/objects/HouseObjects/remote2.png,0.9,2,0.2,0.15,left,22,2020-12-02_18h09.35.347,premup-three_ses-01_part-01_label-phase1,3.2.4,Win32,60,left,0.953000069,4,0,4,0,1,3,1,0,240,225,1,239
,,1,237,,,,,,,3,4,2,stim/42.jpeg,HouseObjects,1,stim/objects/HouseObjects/remote2.png,0.9,3,-0.2,-0.15,left,22,2020-12-02_18h09.35.347,premup-three_ses-01_part-01_label-phase1,3.2.4,Win32,60,left,0.770999908,4,0,4,0,1,3,1,0,240,205,1,239
,,0,238,,,,,,,3,3,2,stim/32.jpeg,HouseObjects,1,stim/objects/HouseObjects/match2.png,0.1,4,0.2,-0.15,left,22,2020-12-02_18h09.35.347,premup-three_ses-01_part-01_label-phase1,3.2.4,Win32,60,right,1.301000118,4,0,4,0,1,3,1,0,240,161,1,239
,,0,239,,,,,,,3,4,4,stim/44.jpeg,HouseObjects,1,stim/objects/HouseObjects/rug2.png,0.9,4,0.2,-0.15,left,22,2020-12-02_18h09.35.347,premup-three_ses-01_part-01_label-phase1,3.2.4,Win32,60,right,0.710999966,4,0,4,0,1,3,1,0,240,211,1,239
,,1,240,,,,,,,3,3,2,stim/32.jpeg,Instruments,2,stim/objects/Instruments/musicsheet2.png,0.9,4,0.2,-0.15,right,22,2020-12-02_18h09.35.347,premup-three_ses-01_part-01_label-phase1,3.2.4,Win32,60,right,1.085000038,4,0,4,0,1,3,1,0,240,181,1,239
