key_resp_pract.keys,key_resp_pract.rt,trial_acc,trial_index,practice_loop.thisRepN,practice_loop.thisTrialN,practice_loop.thisN,practice_loop.thisIndex,practice_loop.ran,practice_loop.order,scn_condition,scn_cat,scn_inst,scn_file,obj_cat,obj_cat_num,obj_file,trial_cond,quadrant,obj_x,obj_y,corr_ans,participant,date,expName,psychopyVersion,OS,frameRate,key_resp_trial.keys,key_resp_trial.rt,iterations.thisRepN,iterations.thisTrialN,iterations.thisN,iterations.thisIndex,iterations.ran,iterations.order,task_innerloop.thisRepN,task_innerloop.thisTrialN,task_innerloop.thisN,task_innerloop.thisIndex,task_innerloop.ran,task_innerloop.order,iteration_index,rating_acc,slider.response,slider.rt,slider_2.response,slider_2.rt,ratings.thisRepN,ratings.thisTrialN,ratings.thisN,ratings.thisIndex,ratings.ran,ratings.order,obj_cat_top,min_resp_top,max_resp_top,obj_cat_bottom,min_resp_bottom,max_resp_bottom
right,1.36500001,1,1,1,0,240,103,1,239,2,1,4,stim/14.jpeg,Instruments,2,stim/objects/Instruments/record_player.png,0.7,3,-0.2,-0.15,right,17,2020-12-01_12h08.39.646,premup-three_ses-01_part-01_label-phase1,3.2.4,MacIntel,60,,,,,,,,,,,,,,,,,,,,,,,,,,,,,,,,
left,1.357999802,1,2,1,0,240,120,1,239,2,2,1,stim/21.jpeg,HouseObjects,1,stim/objects/HouseObjects/iron2.png,0.7,1,-0.2,0.15,left,17,2020-12-01_12h08.39.646,premup-three_ses-01_part-01_label-phase1,3.2.4,MacIntel,60,,,,,,,,,,,,,,,,,,,,,,,,,,,,,,,,
left,1.770999908,1,3,1,0,240,225,1,239,3,4,2,stim/42.jpeg,HouseObjects,1,stim/objects/HouseObjects/remote2.png,0.9,2,0.2,0.15,left,17,2020-12-01_12h08.39.646,premup-three_ses-01_part-01_label-phase1,3.2.4,MacIntel,60,,,,,,,,,,,,,,,,,,,,,,,,,,,,,,,,
left,1.369999886,1,4,1,0,240,219,1,239,3,4,4,stim/44.jpeg,HouseObjects,1,stim/objects/HouseObjects/rug2.png,0.9,2,0.2,0.15,left,17,2020-12-01_12h08.39.646,premup-three_ses-01_part-01_label-phase1,3.2.4,MacIntel,60,,,,,,,,,,,,,,,,,,,,,,,,,,,,,,,,
right,1.398999929,1,5,1,0,240,149,1,239,2,2,2,stim/22.jpeg,Instruments,2,stim/objects/Instruments/laud2.png,0.3,4,0.2,-0.15,right,17,2020-12-01_12h08.39.646,premup-three_ses-01_part-01_label-phase1,3.2.4,MacIntel,60,,,,,,,,,,,,,,,,,,,,,,,,,,,,,,,,
left,1.661000013,0,6,1,0,240,30,1,239,1,5,3,stim/53.jpeg,Instruments,2,stim/objects/Instruments/maraca.png,0.5,3,-0.2,-0.15,right,17,2020-12-01_12h08.39.646,premup-three_ses-01_part-01_label-phase1,3.2.4,MacIntel,60,,,,,,,,,,,,,,,,,,,,,,,,,,,,,,,,
right,1.343999863,0,7,1,0,240,121,1,239,2,2,2,stim/22.jpeg,HouseObjects,1,stim/objects/HouseObjects/ironingboard2.png,0.7,3,-0.2,-0.15,left,17,2020-12-01_12h08.39.646,premup-three_ses-01_part-01_label-phase1,3.2.4,MacIntel,60,,,,,,,,,,,,,,,,,,,,,,,,,,,,,,,,
,,0,8,1,0,240,62,1,239,1,6,3,stim/63.jpeg,Instruments,2,stim/objects/Instruments/musicstand.png,0.5,4,0.2,-0.15,right,17,2020-12-01_12h08.39.646,premup-three_ses-01_part-01_label-phase1,3.2.4,MacIntel,60,,,,,,,,,,,,,,,,,,,,,,,,,,,,,,,,
right,1.052000046,1,9,1,0,240,72,1,239,1,6,1,stim/61.jpeg,Instruments,2,stim/objects/Instruments/metronome.png,0.5,1,-0.2,0.15,right,17,2020-12-01_12h08.39.646,premup-three_ses-01_part-01_label-phase1,3.2.4,MacIntel,60,,,,,,,,,,,,,,,,,,,,,,,,,,,,,,,,
left,0.768999815,0,10,1,0,240,187,1,239,3,3,4,stim/34.jpeg,Instruments,2,stim/objects/Instruments/oboe2.png,0.9,2,0.2,0.15,right,17,2020-12-01_12h08.39.646,premup-three_ses-01_part-01_label-phase1,3.2.4,MacIntel,60,,,,,,,,,,,,,,,,,,,,,,,,,,,,,,,,
,,0,1,,,,,,,3,3,1,stim/31.jpeg,Instruments,2,stim/objects/Instruments/metronome2.png,0.9,4,0.2,-0.15,right,17,2020-12-01_12h08.39.646,premup-three_ses-01_part-01_label-phase1,3.2.4,MacIntel,60,left,1.179999828,4,0,4,0,1,3,1,0,240,168,1,239,,,,,,,,,,,,,,,,,,
,,1,2,,,,,,,3,3,1,stim/31.jpeg,Instruments,2,stim/objects/Instruments/metronome2.png,0.9,1,-0.2,0.15,right,17,2020-12-01_12h08.39.646,premup-three_ses-01_part-01_label-phase1,3.2.4,MacIntel,60,right,0.734999895,4,0,4,0,1,3,1,0,240,164,1,239,,,,,,,,,,,,,,,,,,
,,1,3,,,,,,,2,1,3,stim/13.jpeg,HouseObjects,1,stim/objects/HouseObjects/rubbergloves.png,0.3,4,0.2,-0.15,left,17,2020-12-01_12h08.39.646,premup-three_ses-01_part-01_label-phase1,3.2.4,MacIntel,60,left,0.777999878,4,0,4,0,1,3,1,0,240,86,1,239,,,,,,,,,,,,,,,,,,
,,1,4,,,,,,,1,5,2,stim/52.jpeg,HouseObjects,1,stim/objects/HouseObjects/ironingboard.png,0.5,2,0.2,0.15,left,17,2020-12-01_12h08.39.646,premup-three_ses-01_part-01_label-phase1,3.2.4,MacIntel,60,left,1.298999786,4,0,4,0,1,3,1,0,240,1,1,239,,,,,,,,,,,,,,,,,,
,,1,5,,,,,,,2,2,4,stim/24.jpeg,HouseObjects,1,stim/objects/HouseObjects/knife2.png,0.7,3,-0.2,-0.15,left,17,2020-12-01_12h08.39.646,premup-three_ses-01_part-01_label-phase1,3.2.4,MacIntel,60,left,1.040999889,4,0,4,0,1,3,1,0,240,143,1,239,,,,,,,,,,,,,,,,,,
,,1,6,,,,,,,2,2,3,stim/23.jpeg,HouseObjects,1,stim/objects/HouseObjects/key2.png,0.7,1,-0.2,0.15,left,17,2020-12-01_12h08.39.646,premup-three_ses-01_part-01_label-phase1,3.2.4,MacIntel,60,left,0.671999931,4,0,4,0,1,3,1,0,240,138,1,239,,,,,,,,,,,,,,,,,,
,,0,7,,,,,,,1,5,3,stim/53.jpeg,Instruments,2,stim/objects/Instruments/maraca.png,0.5,3,-0.2,-0.15,right,17,2020-12-01_12h08.39.646,premup-three_ses-01_part-01_label-phase1,3.2.4,MacIntel,60,left,0.907999992,4,0,4,0,1,3,1,0,240,30,1,239,,,,,,,,,,,,,,,,,,
,,1,8,,,,,,,3,4,1,stim/41.jpeg,HouseObjects,1,stim/objects/HouseObjects/recyclingbin2.png,0.9,3,-0.2,-0.15,left,17,2020-12-01_12h08.39.646,premup-three_ses-01_part-01_label-phase1,3.2.4,MacIntel,60,left,0.865999699,4,0,4,0,1,3,1,0,240,204,1,239,,,,,,,,,,,,,,,,,,
,,1,9,,,,,,,3,4,3,stim/43.jpeg,HouseObjects,1,stim/objects/HouseObjects/rubbergloves2.png,0.9,2,0.2,0.15,left,17,2020-12-01_12h08.39.646,premup-three_ses-01_part-01_label-phase1,3.2.4,MacIntel,60,left,0.586999893,4,0,4,0,1,3,1,0,240,214,1,239,,,,,,,,,,,,,,,,,,
,,1,10,,,,,,,1,5,3,stim/53.jpeg,Instruments,2,stim/objects/Instruments/maraca.png,0.5,2,0.2,0.15,right,17,2020-12-01_12h08.39.646,premup-three_ses-01_part-01_label-phase1,3.2.4,MacIntel,60,right,0.91899991,4,0,4,0,1,3,1,0,240,26,1,239,,,,,,,,,,,,,,,,,,
,,1,11,,,,,,,1,5,3,stim/53.jpeg,Instruments,2,stim/objects/Instruments/maraca.png,0.5,4,0.2,-0.15,right,17,2020-12-01_12h08.39.646,premup-three_ses-01_part-01_label-phase1,3.2.4,MacIntel,60,right,0.541999817,4,0,4,0,1,3,1,0,240,38,1,239,,,,,,,,,,,,,,,,,,
,,1,12,,,,,,,3,3,2,stim/32.jpeg,Instruments,2,stim/objects/Instruments/musicsheet2.png,0.9,3,-0.2,-0.15,right,17,2020-12-01_12h08.39.646,premup-three_ses-01_part-01_label-phase1,3.2.4,MacIntel,60,right,0.71600008,4,0,4,0,1,3,1,0,240,193,1,239,,,,,,,,,,,,,,,,,,
,,1,13,,,,,,,3,3,2,stim/32.jpeg,Instruments,2,stim/objects/Instruments/musicsheet2.png,0.9,4,0.2,-0.15,right,17,2020-12-01_12h08.39.646,premup-three_ses-01_part-01_label-phase1,3.2.4,MacIntel,60,right,0.626999855,4,0,4,0,1,3,1,0,240,189,1,239,,,,,,,,,,,,,,,,,,
,,1,14,,,,,,,3,3,3,stim/33.jpeg,Instruments,2,stim/objects/Instruments/musicstand2.png,0.9,2,0.2,0.15,right,17,2020-12-01_12h08.39.646,premup-three_ses-01_part-01_label-phase1,3.2.4,MacIntel,60,right,0.455999851,4,0,4,0,1,3,1,0,240,174,1,239,,,,,,,,,,,,,,,,,,
,,1,15,,,,,,,3,3,1,stim/31.jpeg,Instruments,2,stim/objects/Instruments/metronome2.png,0.9,3,-0.2,-0.15,right,17,2020-12-01_12h08.39.646,premup-three_ses-01_part-01_label-phase1,3.2.4,MacIntel,60,right,0.600999832,4,0,4,0,1,3,1,0,240,188,1,239,,,,,,,,,,,,,,,,,,
,,1,16,,,,,,,1,6,1,stim/61.jpeg,HouseObjects,1,stim/objects/HouseObjects/lintroller.png,0.5,4,0.2,-0.15,left,17,2020-12-01_12h08.39.646,premup-three_ses-01_part-01_label-phase1,3.2.4,MacIntel,60,left,0.838000059,4,0,4,0,1,3,1,0,240,44,1,239,,,,,,,,,,,,,,,,,,
,,0,17,,,,,,,1,5,2,stim/52.jpeg,Instruments,2,stim/objects/Instruments/laud.png,0.5,4,0.2,-0.15,right,17,2020-12-01_12h08.39.646,premup-three_ses-01_part-01_label-phase1,3.2.4,MacIntel,60,left,0.81799984,4,0,4,0,1,3,1,0,240,33,1,239,,,,,,,,,,,,,,,,,,
,,0,18,,,,,,,3,3,3,stim/33.jpeg,HouseObjects,1,stim/objects/HouseObjects/pan2.png,0.1,4,0.2,-0.15,left,17,2020-12-01_12h08.39.646,premup-three_ses-01_part-01_label-phase1,3.2.4,MacIntel,60,right,0.859999895,4,0,4,0,1,3,1,0,240,162,1,239,,,,,,,,,,,,,,,,,,
,,1,19,,,,,,,2,1,2,stim/12.jpeg,HouseObjects,1,stim/objects/HouseObjects/remote.png,0.3,2,0.2,0.15,left,17,2020-12-01_12h08.39.646,premup-three_ses-01_part-01_label-phase1,3.2.4,MacIntel,60,left,0.798999786,4,0,4,0,1,3,1,0,240,81,1,239,,,,,,,,,,,,,,,,,,
,,1,20,,,,,,,2,2,3,stim/23.jpeg,HouseObjects,1,stim/objects/HouseObjects/key2.png,0.7,3,-0.2,-0.15,left,17,2020-12-01_12h08.39.646,premup-three_ses-01_part-01_label-phase1,3.2.4,MacIntel,60,left,0.790999889,4,0,4,0,1,3,1,0,240,130,1,239,,,,,,,,,,,,,,,,,,
,,1,21,,,,,,,3,3,3,stim/33.jpeg,Instruments,2,stim/objects/Instruments/musicstand2.png,0.9,3,-0.2,-0.15,right,17,2020-12-01_12h08.39.646,premup-three_ses-01_part-01_label-phase1,3.2.4,MacIntel,60,right,0.641000032,4,0,4,0,1,3,1,0,240,186,1,239,,,,,,,,,,,,,,,,,,
,,1,22,,,,,,,2,2,4,stim/24.jpeg,HouseObjects,1,stim/objects/HouseObjects/knife2.png,0.7,4,0.2,-0.15,left,17,2020-12-01_12h08.39.646,premup-three_ses-01_part-01_label-phase1,3.2.4,MacIntel,60,left,0.808999777,4,0,4,0,1,3,1,0,240,127,1,239,,,,,,,,,,,,,,,,,,
,,1,23,,,,,,,3,4,1,stim/41.jpeg,HouseObjects,1,stim/objects/HouseObjects/recyclingbin2.png,0.9,1,-0.2,0.15,left,17,2020-12-01_12h08.39.646,premup-three_ses-01_part-01_label-phase1,3.2.4,MacIntel,60,left,0.976999998,4,0,4,0,1,3,1,0,240,228,1,239,,,,,,,,,,,,,,,,,,
,,0,24,,,,,,,1,6,4,stim/64.jpeg,HouseObjects,1,stim/objects/HouseObjects/pitcher.png,0.5,3,-0.2,-0.15,left,17,2020-12-01_12h08.39.646,premup-three_ses-01_part-01_label-phase1,3.2.4,MacIntel,60,right,0.757999897,4,0,4,0,1,3,1,0,240,47,1,239,,,,,,,,,,,,,,,,,,
,,0,25,,,,,,,1,6,4,stim/64.jpeg,HouseObjects,1,stim/objects/HouseObjects/pitcher.png,0.5,4,0.2,-0.15,left,17,2020-12-01_12h08.39.646,premup-three_ses-01_part-01_label-phase1,3.2.4,MacIntel,60,right,0.760999918,4,0,4,0,1,3,1,0,240,51,1,239,,,,,,,,,,,,,,,,,,
,,1,26,,,,,,,3,4,3,stim/43.jpeg,HouseObjects,1,stim/objects/HouseObjects/rubbergloves2.png,0.9,2,0.2,0.15,left,17,2020-12-01_12h08.39.646,premup-three_ses-01_part-01_label-phase1,3.2.4,MacIntel,60,left,1.762999773,4,0,4,0,1,3,1,0,240,226,1,239,,,,,,,,,,,,,,,,,,
,,0,27,,,,,,,3,3,2,stim/32.jpeg,HouseObjects,1,stim/objects/HouseObjects/match2.png,0.1,4,0.2,-0.15,left,17,2020-12-01_12h08.39.646,premup-three_ses-01_part-01_label-phase1,3.2.4,MacIntel,60,right,0.706999779,4,0,4,0,1,3,1,0,240,161,1,239,,,,,,,,,,,,,,,,,,
,,0,28,,,,,,,2,1,4,stim/14.jpeg,Instruments,2,stim/objects/Instruments/record_player.png,0.7,4,0.2,-0.15,right,17,2020-12-01_12h08.39.646,premup-three_ses-01_part-01_label-phase1,3.2.4,MacIntel,60,left,1.088999748,4,0,4,0,1,3,1,0,240,115,1,239,,,,,,,,,,,,,,,,,,
,,0,29,,,,,,,1,5,1,stim/51.jpeg,Instruments,2,stim/objects/Instruments/keyboard.png,0.5,1,-0.2,0.15,right,17,2020-12-01_12h08.39.646,premup-three_ses-01_part-01_label-phase1,3.2.4,MacIntel,60,left,0.951999903,4,0,4,0,1,3,1,0,240,32,1,239,,,,,,,,,,,,,,,,,,
,,1,30,,,,,,,2,2,1,stim/21.jpeg,HouseObjects,1,stim/objects/HouseObjects/iron2.png,0.7,1,-0.2,0.15,left,17,2020-12-01_12h08.39.646,premup-three_ses-01_part-01_label-phase1,3.2.4,MacIntel,60,left,1.01699996,4,0,4,0,1,3,1,0,240,136,1,239,,,,,,,,,,,,,,,,,,
,,1,31,,,,,,,3,4,4,stim/44.jpeg,HouseObjects,1,stim/objects/HouseObjects/rug2.png,0.9,1,-0.2,0.15,left,17,2020-12-01_12h08.39.646,premup-three_ses-01_part-01_label-phase1,3.2.4,MacIntel,60,left,0.879999876,4,0,4,0,1,3,1,0,240,207,1,239,,,,,,,,,,,,,,,,,,
,,1,32,,,,,,,2,1,3,stim/13.jpeg,HouseObjects,1,stim/objects/HouseObjects/rubbergloves.png,0.3,1,-0.2,0.15,left,17,2020-12-01_12h08.39.646,premup-three_ses-01_part-01_label-phase1,3.2.4,MacIntel,60,left,0.780999899,4,0,4,0,1,3,1,0,240,90,1,239,,,,,,,,,,,,,,,,,,
,,1,33,,,,,,,2,2,3,stim/23.jpeg,HouseObjects,1,stim/objects/HouseObjects/key2.png,0.7,2,0.2,0.15,left,17,2020-12-01_12h08.39.646,premup-three_ses-01_part-01_label-phase1,3.2.4,MacIntel,60,left,0.797999859,4,0,4,0,1,3,1,0,240,146,1,239,,,,,,,,,,,,,,,,,,
,,1,34,,,,,,,2,2,4,stim/24.jpeg,HouseObjects,1,stim/objects/HouseObjects/knife2.png,0.7,2,0.2,0.15,left,17,2020-12-01_12h08.39.646,premup-three_ses-01_part-01_label-phase1,3.2.4,MacIntel,60,left,0.609999895,4,0,4,0,1,3,1,0,240,131,1,239,,,,,,,,,,,,,,,,,,
,,1,35,,,,,,,1,6,2,stim/62.jpeg,Instruments,2,stim/objects/Instruments/musicsheet.png,0.5,2,0.2,0.15,right,17,2020-12-01_12h08.39.646,premup-three_ses-01_part-01_label-phase1,3.2.4,MacIntel,60,right,0.631999969,4,0,4,0,1,3,1,0,240,77,1,239,,,,,,,,,,,,,,,,,,
,,0,36,,,,,,,1,5,3,stim/53.jpeg,HouseObjects,1,stim/objects/HouseObjects/key.png,0.5,2,0.2,0.15,left,17,2020-12-01_12h08.39.646,premup-three_ses-01_part-01_label-phase1,3.2.4,MacIntel,60,right,0.762999773,4,0,4,0,1,3,1,0,240,14,1,239,,,,,,,,,,,,,,,,,,
,,1,37,,,,,,,2,2,3,stim/23.jpeg,HouseObjects,1,stim/objects/HouseObjects/key2.png,0.7,4,0.2,-0.15,left,17,2020-12-01_12h08.39.646,premup-three_ses-01_part-01_label-phase1,3.2.4,MacIntel,60,left,0.966999769,4,0,4,0,1,3,1,0,240,122,1,239,,,,,,,,,,,,,,,,,,
,,0,38,,,,,,,3,3,4,stim/34.jpeg,Instruments,2,stim/objects/Instruments/oboe2.png,0.9,1,-0.2,0.15,right,17,2020-12-01_12h08.39.646,premup-three_ses-01_part-01_label-phase1,3.2.4,MacIntel,60,left,1.075999975,4,0,4,0,1,3,1,0,240,183,1,239,,,,,,,,,,,,,,,,,,
,,1,39,,,,,,,3,4,1,stim/41.jpeg,HouseObjects,1,stim/objects/HouseObjects/recyclingbin2.png,0.9,1,-0.2,0.15,left,17,2020-12-01_12h08.39.646,premup-three_ses-01_part-01_label-phase1,3.2.4,MacIntel,60,left,0.698999882,4,0,4,0,1,3,1,0,240,208,1,239,,,,,,,,,,,,,,,,,,
,,1,40,,,,,,,1,6,2,stim/62.jpeg,HouseObjects,1,stim/objects/HouseObjects/match.png,0.5,1,-0.2,0.15,left,17,2020-12-01_12h08.39.646,premup-three_ses-01_part-01_label-phase1,3.2.4,MacIntel,60,left,1.195999861,4,0,4,0,1,3,1,0,240,49,1,239,,,,,,,,,,,,,,,,,,
,,0,41,,,,,,,2,1,3,stim/13.jpeg,Instruments,2,stim/objects/Instruments/record.png,0.7,1,-0.2,0.15,right,17,2020-12-01_12h08.39.646,premup-three_ses-01_part-01_label-phase1,3.2.4,MacIntel,60,left,0.852999926,4,0,4,0,1,3,1,0,240,102,1,239,,,,,,,,,,,,,,,,,,
,,0,42,,,,,,,2,1,3,stim/13.jpeg,HouseObjects,1,stim/objects/HouseObjects/rubbergloves.png,0.3,4,0.2,-0.15,left,17,2020-12-01_12h08.39.646,premup-three_ses-01_part-01_label-phase1,3.2.4,MacIntel,60,right,1.009000063,4,0,4,0,1,3,1,0,240,82,1,239,,,,,,,,,,,,,,,,,,
,,1,43,,,,,,,3,4,2,stim/42.jpeg,HouseObjects,1,stim/objects/HouseObjects/remote2.png,0.9,3,-0.2,-0.15,left,17,2020-12-01_12h08.39.646,premup-three_ses-01_part-01_label-phase1,3.2.4,MacIntel,60,left,0.937999964,4,0,4,0,1,3,1,0,240,205,1,239,,,,,,,,,,,,,,,,,,
,,0,44,,,,,,,1,6,3,stim/63.jpeg,Instruments,2,stim/objects/Instruments/musicstand.png,0.5,4,0.2,-0.15,right,17,2020-12-01_12h08.39.646,premup-three_ses-01_part-01_label-phase1,3.2.4,MacIntel,60,left,1.380999804,4,0,4,0,1,3,1,0,240,62,1,239,,,,,,,,,,,,,,,,,,
,,0,45,,,,,,,2,1,2,stim/12.jpeg,Instruments,2,stim/objects/Instruments/pipepiano.png,0.7,1,-0.2,0.15,right,17,2020-12-01_12h08.39.646,premup-three_ses-01_part-01_label-phase1,3.2.4,MacIntel,60,left,1.454999924,4,0,4,0,1,3,1,0,240,93,1,239,,,,,,,,,,,,,,,,,,
,,0,46,,,,,,,1,6,3,stim/63.jpeg,HouseObjects,1,stim/objects/HouseObjects/pan.png,0.5,4,0.2,-0.15,left,17,2020-12-01_12h08.39.646,premup-three_ses-01_part-01_label-phase1,3.2.4,MacIntel,60,right,1.47699976,4,0,4,0,1,3,1,0,240,46,1,239,,,,,,,,,,,,,,,,,,
,,0,47,,,,,,,1,5,3,stim/53.jpeg,HouseObjects,1,stim/objects/HouseObjects/key.png,0.5,4,0.2,-0.15,left,17,2020-12-01_12h08.39.646,premup-three_ses-01_part-01_label-phase1,3.2.4,MacIntel,60,right,1.360999823,4,0,4,0,1,3,1,0,240,18,1,239,,,,,,,,,,,,,,,,,,
,,1,48,,,,,,,2,2,1,stim/21.jpeg,HouseObjects,1,stim/objects/HouseObjects/iron2.png,0.7,2,0.2,0.15,left,17,2020-12-01_12h08.39.646,premup-three_ses-01_part-01_label-phase1,3.2.4,MacIntel,60,left,0.760999918,4,0,4,0,1,3,1,0,240,144,1,239,,,,,,,,,,,,,,,,,,
,,0,49,,,,,,,1,5,4,stim/54.jpeg,HouseObjects,1,stim/objects/HouseObjects/knife.png,0.5,2,0.2,0.15,left,17,2020-12-01_12h08.39.646,premup-three_ses-01_part-01_label-phase1,3.2.4,MacIntel,60,right,1.288000107,4,0,4,0,1,3,1,0,240,7,1,239,,,,,,,,,,,,,,,,,,
,,0,50,,,,,,,2,2,1,stim/21.jpeg,Instruments,2,stim/objects/Instruments/keyboard2.png,0.3,4,0.2,-0.15,right,17,2020-12-01_12h08.39.646,premup-three_ses-01_part-01_label-phase1,3.2.4,MacIntel,60,left,0.767999887,4,0,4,0,1,3,1,0,240,156,1,239,,,,,,,,,,,,,,,,,,
,,1,51,,,,,,,2,2,4,stim/24.jpeg,HouseObjects,1,stim/objects/HouseObjects/knife2.png,0.7,2,0.2,0.15,left,17,2020-12-01_12h08.39.646,premup-three_ses-01_part-01_label-phase1,3.2.4,MacIntel,60,left,0.714999914,4,0,4,0,1,3,1,0,240,135,1,239,,,,,,,,,,,,,,,,,,
,,0,52,,,,,,,2,1,3,stim/13.jpeg,Instruments,2,stim/objects/Instruments/record.png,0.7,4,0.2,-0.15,right,17,2020-12-01_12h08.39.646,premup-three_ses-01_part-01_label-phase1,3.2.4,MacIntel,60,left,1.284999847,4,0,4,0,1,3,1,0,240,110,1,239,,,,,,,,,,,,,,,,,,
,,1,53,,,,,,,2,2,1,stim/21.jpeg,HouseObjects,1,stim/objects/HouseObjects/iron2.png,0.7,1,-0.2,0.15,left,17,2020-12-01_12h08.39.646,premup-three_ses-01_part-01_label-phase1,3.2.4,MacIntel,60,left,0.709000111,4,0,4,0,1,3,1,0,240,120,1,239,,,,,,,,,,,,,,,,,,
,,0,54,,,,,,,3,4,2,stim/42.jpeg,HouseObjects,1,stim/objects/HouseObjects/remote2.png,0.9,1,-0.2,0.15,left,17,2020-12-01_12h08.39.646,premup-three_ses-01_part-01_label-phase1,3.2.4,MacIntel,60,right,1.30099988,4,0,4,0,1,3,1,0,240,233,1,239,,,,,,,,,,,,,,,,,,
,,1,55,,,,,,,1,6,3,stim/63.jpeg,HouseObjects,1,stim/objects/HouseObjects/pan.png,0.5,3,-0.2,-0.15,left,17,2020-12-01_12h08.39.646,premup-three_ses-01_part-01_label-phase1,3.2.4,MacIntel,60,left,1.474999905,4,0,4,0,1,3,1,0,240,54,1,239,,,,,,,,,,,,,,,,,,
,,1,56,,,,,,,2,1,3,stim/13.jpeg,Instruments,2,stim/objects/Instruments/record.png,0.7,4,0.2,-0.15,right,17,2020-12-01_12h08.39.646,premup-three_ses-01_part-01_label-phase1,3.2.4,MacIntel,60,right,0.878000021,4,0,4,0,1,3,1,0,240,94,1,239,,,,,,,,,,,,,,,,,,
,,0,57,,,,,,,2,1,1,stim/11.jpeg,Instruments,2,stim/objects/Instruments/panflute.png,0.7,1,-0.2,0.15,right,17,2020-12-01_12h08.39.646,premup-three_ses-01_part-01_label-phase1,3.2.4,MacIntel,60,left,1.094000101,4,0,4,0,1,3,1,0,240,108,1,239,,,,,,,,,,,,,,,,,,
,,1,58,,,,,,,1,5,3,stim/53.jpeg,Instruments,2,stim/objects/Instruments/maraca.png,0.5,3,-0.2,-0.15,right,17,2020-12-01_12h08.39.646,premup-three_ses-01_part-01_label-phase1,3.2.4,MacIntel,60,right,1.40899992,4,0,4,0,1,3,1,0,240,22,1,239,,,,,,,,,,,,,,,,,,
,,1,59,,,,,,,3,4,2,stim/42.jpeg,HouseObjects,1,stim/objects/HouseObjects/remote2.png,0.9,2,0.2,0.15,left,17,2020-12-01_12h08.39.646,premup-three_ses-01_part-01_label-phase1,3.2.4,MacIntel,60,left,1.414000034,4,0,4,0,1,3,1,0,240,213,1,239,,,,,,,,,,,,,,,,,,
,,1,60,,,,,,,2,2,2,stim/22.jpeg,HouseObjects,1,stim/objects/HouseObjects/ironingboard2.png,0.7,3,-0.2,-0.15,left,17,2020-12-01_12h08.39.646,premup-three_ses-01_part-01_label-phase1,3.2.4,MacIntel,60,left,0.868000031,4,0,4,0,1,3,1,0,240,121,1,239,,,,,,,,,,,,,,,,,,
,,1,61,,,,,,,2,2,2,stim/22.jpeg,HouseObjects,1,stim/objects/HouseObjects/ironingboard2.png,0.7,4,0.2,-0.15,left,17,2020-12-01_12h08.39.646,premup-three_ses-01_part-01_label-phase1,3.2.4,MacIntel,60,left,0.506999969,4,0,4,0,1,3,1,0,240,125,1,239,,,,,,,,,,,,,,,,,,
,,1,62,,,,,,,2,1,1,stim/11.jpeg,Instruments,2,stim/objects/Instruments/panflute.png,0.7,3,-0.2,-0.15,right,17,2020-12-01_12h08.39.646,premup-three_ses-01_part-01_label-phase1,3.2.4,MacIntel,60,right,1.257999897,4,0,4,0,1,3,1,0,240,116,1,239,,,,,,,,,,,,,,,,,,
,,0,63,,,,,,,2,1,2,stim/12.jpeg,Instruments,2,stim/objects/Instruments/pipepiano.png,0.7,3,-0.2,-0.15,right,17,2020-12-01_12h08.39.646,premup-three_ses-01_part-01_label-phase1,3.2.4,MacIntel,60,left,1.282000065,4,0,4,0,1,3,1,0,240,101,1,239,,,,,,,,,,,,,,,,,,
,,1,64,,,,,,,1,5,3,stim/53.jpeg,HouseObjects,1,stim/objects/HouseObjects/key.png,0.5,3,-0.2,-0.15,left,17,2020-12-01_12h08.39.646,premup-three_ses-01_part-01_label-phase1,3.2.4,MacIntel,60,left,1.371999979,4,0,4,0,1,3,1,0,240,10,1,239,,,,,,,,,,,,,,,,,,
,,0,65,,,,,,,2,2,1,stim/21.jpeg,Instruments,2,stim/objects/Instruments/keyboard2.png,0.3,2,0.2,0.15,right,17,2020-12-01_12h08.39.646,premup-three_ses-01_part-01_label-phase1,3.2.4,MacIntel,60,left,1.031999826,4,0,4,0,1,3,1,0,240,148,1,239,,,,,,,,,,,,,,,,,,
,,0,66,,,,,,,2,1,1,stim/11.jpeg,HouseObjects,1,stim/objects/HouseObjects/recyclingbin.png,0.3,4,0.2,-0.15,left,17,2020-12-01_12h08.39.646,premup-three_ses-01_part-01_label-phase1,3.2.4,MacIntel,60,,,4,0,4,0,1,3,1,0,240,84,1,239,,,,,,,,,,,,,,,,,,
,,1,67,,,,,,,3,3,2,stim/32.jpeg,Instruments,2,stim/objects/Instruments/musicsheet2.png,0.9,1,-0.2,0.15,right,17,2020-12-01_12h08.39.646,premup-three_ses-01_part-01_label-phase1,3.2.4,MacIntel,60,right,1.341999769,4,0,4,0,1,3,1,0,240,185,1,239,,,,,,,,,,,,,,,,,,
,,1,68,,,,,,,3,3,4,stim/34.jpeg,Instruments,2,stim/objects/Instruments/oboe2.png,0.9,4,0.2,-0.15,right,17,2020-12-01_12h08.39.646,premup-three_ses-01_part-01_label-phase1,3.2.4,MacIntel,60,right,0.764999866,4,0,4,0,1,3,1,0,240,179,1,239,,,,,,,,,,,,,,,,,,
,,1,69,,,,,,,2,2,1,stim/21.jpeg,HouseObjects,1,stim/objects/HouseObjects/iron2.png,0.7,1,-0.2,0.15,left,17,2020-12-01_12h08.39.646,premup-three_ses-01_part-01_label-phase1,3.2.4,MacIntel,60,left,0.764999866,4,0,4,0,1,3,1,0,240,124,1,239,,,,,,,,,,,,,,,,,,
,,0,70,,,,,,,2,2,2,stim/22.jpeg,Instruments,2,stim/objects/Instruments/laud2.png,0.3,4,0.2,-0.15,right,17,2020-12-01_12h08.39.646,premup-three_ses-01_part-01_label-phase1,3.2.4,MacIntel,60,left,0.63499999,4,0,4,0,1,3,1,0,240,149,1,239,,,,,,,,,,,,,,,,,,
,,1,71,,,,,,,2,1,4,stim/14.jpeg,Instruments,2,stim/objects/Instruments/record_player.png,0.7,3,-0.2,-0.15,right,17,2020-12-01_12h08.39.646,premup-three_ses-01_part-01_label-phase1,3.2.4,MacIntel,60,right,1.036999941,4,0,4,0,1,3,1,0,240,103,1,239,,,,,,,,,,,,,,,,,,
,,1,72,,,,,,,3,4,4,stim/44.jpeg,HouseObjects,1,stim/objects/HouseObjects/rug2.png,0.9,4,0.2,-0.15,left,17,2020-12-01_12h08.39.646,premup-three_ses-01_part-01_label-phase1,3.2.4,MacIntel,60,left,1.253999949,4,0,4,0,1,3,1,0,240,223,1,239,,,,,,,,,,,,,,,,,,
,,1,73,,,,,,,3,3,1,stim/31.jpeg,Instruments,2,stim/objects/Instruments/metronome2.png,0.9,3,-0.2,-0.15,right,17,2020-12-01_12h08.39.646,premup-three_ses-01_part-01_label-phase1,3.2.4,MacIntel,60,right,0.939999819,4,0,4,0,1,3,1,0,240,192,1,239,,,,,,,,,,,,,,,,,,
,,0,74,,,,,,,1,5,4,stim/54.jpeg,HouseObjects,1,stim/objects/HouseObjects/knife.png,0.5,4,0.2,-0.15,left,17,2020-12-01_12h08.39.646,premup-three_ses-01_part-01_label-phase1,3.2.4,MacIntel,60,right,1.297999859,4,0,4,0,1,3,1,0,240,3,1,239,,,,,,,,,,,,,,,,,,
,,1,75,,,,,,,2,2,2,stim/22.jpeg,HouseObjects,1,stim/objects/HouseObjects/ironingboard2.png,0.7,3,-0.2,-0.15,left,17,2020-12-01_12h08.39.646,premup-three_ses-01_part-01_label-phase1,3.2.4,MacIntel,60,left,0.9599998,4,0,4,0,1,3,1,0,240,129,1,239,,,,,,,,,,,,,,,,,,
,,1,76,,,,,,,3,4,4,stim/44.jpeg,HouseObjects,1,stim/objects/HouseObjects/rug2.png,0.9,4,0.2,-0.15,left,17,2020-12-01_12h08.39.646,premup-three_ses-01_part-01_label-phase1,3.2.4,MacIntel,60,left,0.924000025,4,0,4,0,1,3,1,0,240,235,1,239,,,,,,,,,,,,,,,,,,
,,0,77,,,,,,,1,6,4,stim/64.jpeg,HouseObjects,1,stim/objects/HouseObjects/pitcher.png,0.5,3,-0.2,-0.15,left,17,2020-12-01_12h08.39.646,premup-three_ses-01_part-01_label-phase1,3.2.4,MacIntel,60,right,1.347999811,4,0,4,0,1,3,1,0,240,43,1,239,,,,,,,,,,,,,,,,,,
,,1,78,,,,,,,3,3,3,stim/33.jpeg,Instruments,2,stim/objects/Instruments/musicstand2.png,0.9,1,-0.2,0.15,right,17,2020-12-01_12h08.39.646,premup-three_ses-01_part-01_label-phase1,3.2.4,MacIntel,60,right,1.166999817,4,0,4,0,1,3,1,0,240,194,1,239,,,,,,,,,,,,,,,,,,
,,1,79,,,,,,,1,6,3,stim/63.jpeg,Instruments,2,stim/objects/Instruments/musicstand.png,0.5,3,-0.2,-0.15,right,17,2020-12-01_12h08.39.646,premup-three_ses-01_part-01_label-phase1,3.2.4,MacIntel,60,right,0.86199975,4,0,4,0,1,3,1,0,240,70,1,239,,,,,,,,,,,,,,,,,,
,,0,80,,,,,,,1,5,2,stim/52.jpeg,Instruments,2,stim/objects/Instruments/laud.png,0.5,2,0.2,0.15,right,17,2020-12-01_12h08.39.646,premup-three_ses-01_part-01_label-phase1,3.2.4,MacIntel,60,left,1.319999933,4,0,4,0,1,3,1,0,240,21,1,239,,,,,,,,,,,,,,,,,,
,,1,81,,,,,,,3,4,3,stim/43.jpeg,HouseObjects,1,stim/objects/HouseObjects/rubbergloves2.png,0.9,1,-0.2,0.15,left,17,2020-12-01_12h08.39.646,premup-three_ses-01_part-01_label-phase1,3.2.4,MacIntel,60,left,0.926000118,4,0,4,0,1,3,1,0,240,210,1,239,,,,,,,,,,,,,,,,,,
,,1,82,,,,,,,1,5,1,stim/51.jpeg,HouseObjects,1,stim/objects/HouseObjects/iron.png,0.5,3,-0.2,-0.15,left,17,2020-12-01_12h08.39.646,premup-three_ses-01_part-01_label-phase1,3.2.4,MacIntel,60,left,1.121000051,4,0,4,0,1,3,1,0,240,0,1,239,,,,,,,,,,,,,,,,,,
,,0,83,,,,,,,1,5,4,stim/54.jpeg,HouseObjects,1,stim/objects/HouseObjects/knife.png,0.5,1,-0.2,0.15,left,17,2020-12-01_12h08.39.646,premup-three_ses-01_part-01_label-phase1,3.2.4,MacIntel,60,right,1.398000002,4,0,4,0,1,3,1,0,240,11,1,239,,,,,,,,,,,,,,,,,,
,,0,84,,,,,,,1,5,2,stim/52.jpeg,Instruments,2,stim/objects/Instruments/laud.png,0.5,2,0.2,0.15,right,17,2020-12-01_12h08.39.646,premup-three_ses-01_part-01_label-phase1,3.2.4,MacIntel,60,left,1.047999859,4,0,4,0,1,3,1,0,240,29,1,239,,,,,,,,,,,,,,,,,,
,,1,85,,,,,,,3,4,3,stim/43.jpeg,HouseObjects,1,stim/objects/HouseObjects/rubbergloves2.png,0.9,3,-0.2,-0.15,left,17,2020-12-01_12h08.39.646,premup-three_ses-01_part-01_label-phase1,3.2.4,MacIntel,60,left,0.779000044,4,0,4,0,1,3,1,0,240,206,1,239,,,,,,,,,,,,,,,,,,
,,1,86,,,,,,,2,2,2,stim/22.jpeg,HouseObjects,1,stim/objects/HouseObjects/ironingboard2.png,0.7,4,0.2,-0.15,left,17,2020-12-01_12h08.39.646,premup-three_ses-01_part-01_label-phase1,3.2.4,MacIntel,60,left,0.973999977,4,0,4,0,1,3,1,0,240,141,1,239,,,,,,,,,,,,,,,,,,
,,1,87,,,,,,,3,3,1,stim/31.jpeg,Instruments,2,stim/objects/Instruments/metronome2.png,0.9,1,-0.2,0.15,right,17,2020-12-01_12h08.39.646,premup-three_ses-01_part-01_label-phase1,3.2.4,MacIntel,60,right,1.041999817,4,0,4,0,1,3,1,0,240,196,1,239,,,,,,,,,,,,,,,,,,
,,1,88,,,,,,,1,6,1,stim/61.jpeg,Instruments,2,stim/objects/Instruments/metronome.png,0.5,1,-0.2,0.15,right,17,2020-12-01_12h08.39.646,premup-three_ses-01_part-01_label-phase1,3.2.4,MacIntel,60,right,0.990999937,4,0,4,0,1,3,1,0,240,72,1,239,,,,,,,,,,,,,,,,,,
,,0,89,,,,,,,3,4,3,stim/43.jpeg,HouseObjects,1,stim/objects/HouseObjects/rubbergloves2.png,0.9,2,0.2,0.15,left,17,2020-12-01_12h08.39.646,premup-three_ses-01_part-01_label-phase1,3.2.4,MacIntel,60,right,1.176000118,4,0,4,0,1,3,1,0,240,218,1,239,,,,,,,,,,,,,,,,,,
,,1,90,,,,,,,2,1,1,stim/11.jpeg,Instruments,2,stim/objects/Instruments/panflute.png,0.7,2,0.2,0.15,right,17,2020-12-01_12h08.39.646,premup-three_ses-01_part-01_label-phase1,3.2.4,MacIntel,60,right,1.862999916,4,0,4,0,1,3,1,0,240,112,1,239,,,,,,,,,,,,,,,,,,
,,0,91,,,,,,,3,4,1,stim/41.jpeg,HouseObjects,1,stim/objects/HouseObjects/recyclingbin2.png,0.9,1,-0.2,0.15,left,17,2020-12-01_12h08.39.646,premup-three_ses-01_part-01_label-phase1,3.2.4,MacIntel,60,right,1.595000029,4,0,4,0,1,3,1,0,240,200,1,239,,,,,,,,,,,,,,,,,,
,,1,92,,,,,,,1,6,4,stim/64.jpeg,Instruments,2,stim/objects/Instruments/oboe.png,0.5,3,-0.2,-0.15,right,17,2020-12-01_12h08.39.646,premup-three_ses-01_part-01_label-phase1,3.2.4,MacIntel,60,right,1.245000124,4,0,4,0,1,3,1,0,240,75,1,239,,,,,,,,,,,,,,,,,,
,,1,93,,,,,,,1,6,2,stim/62.jpeg,HouseObjects,1,stim/objects/HouseObjects/match.png,0.5,3,-0.2,-0.15,left,17,2020-12-01_12h08.39.646,premup-three_ses-01_part-01_label-phase1,3.2.4,MacIntel,60,left,1.726999998,4,0,4,0,1,3,1,0,240,57,1,239,,,,,,,,,,,,,,,,,,
,,1,94,,,,,,,2,2,4,stim/24.jpeg,HouseObjects,1,stim/objects/HouseObjects/knife2.png,0.7,3,-0.2,-0.15,left,17,2020-12-01_12h08.39.646,premup-three_ses-01_part-01_label-phase1,3.2.4,MacIntel,60,left,0.937000036,4,0,4,0,1,3,1,0,240,139,1,239,,,,,,,,,,,,,,,,,,
,,0,95,,,,,,,1,6,2,stim/62.jpeg,Instruments,2,stim/objects/Instruments/musicsheet.png,0.5,4,0.2,-0.15,right,17,2020-12-01_12h08.39.646,premup-three_ses-01_part-01_label-phase1,3.2.4,MacIntel,60,left,1.378000021,4,0,4,0,1,3,1,0,240,61,1,239,,,,,,,,,,,,,,,,,,
,,0,96,,,,,,,3,4,4,stim/44.jpeg,HouseObjects,1,stim/objects/HouseObjects/rug2.png,0.9,2,0.2,0.15,left,17,2020-12-01_12h08.39.646,premup-three_ses-01_part-01_label-phase1,3.2.4,MacIntel,60,,,4,0,4,0,1,3,1,0,240,227,1,239,,,,,,,,,,,,,,,,,,
,,0,97,,,,,,,2,1,1,stim/11.jpeg,Instruments,2,stim/objects/Instruments/panflute.png,0.7,1,-0.2,0.15,right,17,2020-12-01_12h08.39.646,premup-three_ses-01_part-01_label-phase1,3.2.4,MacIntel,60,left,0.814999819,4,0,4,0,1,3,1,0,240,92,1,239,,,,,,,,,,,,,,,,,,
,,0,98,,,,,,,2,2,3,stim/23.jpeg,Instruments,2,stim/objects/Instruments/maraca2.png,0.3,1,-0.2,0.15,right,17,2020-12-01_12h08.39.646,premup-three_ses-01_part-01_label-phase1,3.2.4,MacIntel,60,left,0.653999805,4,0,4,0,1,3,1,0,240,150,1,239,,,,,,,,,,,,,,,,,,
,,1,99,,,,,,,3,3,1,stim/31.jpeg,Instruments,2,stim/objects/Instruments/metronome2.png,0.9,2,0.2,0.15,right,17,2020-12-01_12h08.39.646,premup-three_ses-01_part-01_label-phase1,3.2.4,MacIntel,60,right,1.199999809,4,0,4,0,1,3,1,0,240,176,1,239,,,,,,,,,,,,,,,,,,
,,1,100,,,,,,,3,4,1,stim/41.jpeg,HouseObjects,1,stim/objects/HouseObjects/recyclingbin2.png,0.9,3,-0.2,-0.15,left,17,2020-12-01_12h08.39.646,premup-three_ses-01_part-01_label-phase1,3.2.4,MacIntel,60,left,1.217999935,4,0,4,0,1,3,1,0,240,232,1,239,,,,,,,,,,,,,,,,,,
,,0,101,,,,,,,3,3,4,stim/34.jpeg,HouseObjects,1,stim/objects/HouseObjects/pitcher2.png,0.1,3,-0.2,-0.15,left,17,2020-12-01_12h08.39.646,premup-three_ses-01_part-01_label-phase1,3.2.4,MacIntel,60,right,0.920000076,4,0,4,0,1,3,1,0,240,163,1,239,,,,,,,,,,,,,,,,,,
,,0,102,,,,,,,2,2,4,stim/24.jpeg,Instruments,2,stim/objects/Instruments/marimba2.png,0.3,2,0.2,0.15,right,17,2020-12-01_12h08.39.646,premup-three_ses-01_part-01_label-phase1,3.2.4,MacIntel,60,left,0.717000008,4,0,4,0,1,3,1,0,240,159,1,239,,,,,,,,,,,,,,,,,,
,,1,103,,,,,,,1,5,3,stim/53.jpeg,HouseObjects,1,stim/objects/HouseObjects/key.png,0.5,1,-0.2,0.15,left,17,2020-12-01_12h08.39.646,premup-three_ses-01_part-01_label-phase1,3.2.4,MacIntel,60,left,1.184999943,4,0,4,0,1,3,1,0,240,2,1,239,,,,,,,,,,,,,,,,,,
,,1,104,,,,,,,3,4,2,stim/42.jpeg,HouseObjects,1,stim/objects/HouseObjects/remote2.png,0.9,1,-0.2,0.15,left,17,2020-12-01_12h08.39.646,premup-three_ses-01_part-01_label-phase1,3.2.4,MacIntel,60,left,0.765999794,4,0,4,0,1,3,1,0,240,201,1,239,,,,,,,,,,,,,,,,,,
,,0,105,,,,,,,2,1,4,stim/14.jpeg,HouseObjects,1,stim/objects/HouseObjects/rug.png,0.3,2,0.2,0.15,left,17,2020-12-01_12h08.39.646,premup-three_ses-01_part-01_label-phase1,3.2.4,MacIntel,60,right,1.068999767,4,0,4,0,1,3,1,0,240,87,1,239,,,,,,,,,,,,,,,,,,
,,0,106,,,,,,,1,6,1,stim/61.jpeg,HouseObjects,1,stim/objects/HouseObjects/lintroller.png,0.5,1,-0.2,0.15,left,17,2020-12-01_12h08.39.646,premup-three_ses-01_part-01_label-phase1,3.2.4,MacIntel,60,right,0.960999966,4,0,4,0,1,3,1,0,240,56,1,239,,,,,,,,,,,,,,,,,,
,,1,107,,,,,,,2,2,1,stim/21.jpeg,HouseObjects,1,stim/objects/HouseObjects/iron2.png,0.7,1,-0.2,0.15,left,17,2020-12-01_12h08.39.646,premup-three_ses-01_part-01_label-phase1,3.2.4,MacIntel,60,left,0.583999872,4,0,4,0,1,3,1,0,240,132,1,239,,,,,,,,,,,,,,,,,,
,,0,108,,,,,,,3,3,2,stim/32.jpeg,Instruments,2,stim/objects/Instruments/musicsheet2.png,0.9,3,-0.2,-0.15,right,17,2020-12-01_12h08.39.646,premup-three_ses-01_part-01_label-phase1,3.2.4,MacIntel,60,left,0.501999855,4,0,4,0,1,3,1,0,240,169,1,239,,,,,,,,,,,,,,,,,,
,,0,109,,,,,,,2,1,1,stim/11.jpeg,Instruments,2,stim/objects/Instruments/panflute.png,0.7,3,-0.2,-0.15,right,17,2020-12-01_12h08.39.646,premup-three_ses-01_part-01_label-phase1,3.2.4,MacIntel,60,left,1.592000008,4,0,4,0,1,3,1,0,240,104,1,239,,,,,,,,,,,,,,,,,,
,,0,110,,,,,,,3,3,1,stim/31.jpeg,HouseObjects,1,stim/objects/HouseObjects/lintroller2.png,0.1,4,0.2,-0.15,left,17,2020-12-01_12h08.39.646,premup-three_ses-01_part-01_label-phase1,3.2.4,MacIntel,60,right,0.920000076,4,0,4,0,1,3,1,0,240,160,1,239,,,,,,,,,,,,,,,,,,
,,0,111,,,,,,,1,5,1,stim/51.jpeg,Instruments,2,stim/objects/Instruments/keyboard.png,0.5,4,0.2,-0.15,right,17,2020-12-01_12h08.39.646,premup-three_ses-01_part-01_label-phase1,3.2.4,MacIntel,60,left,0.937999964,4,0,4,0,1,3,1,0,240,20,1,239,,,,,,,,,,,,,,,,,,
,,1,112,,,,,,,2,1,4,stim/14.jpeg,HouseObjects,1,stim/objects/HouseObjects/rug.png,0.3,3,-0.2,-0.15,left,17,2020-12-01_12h08.39.646,premup-three_ses-01_part-01_label-phase1,3.2.4,MacIntel,60,left,1.557999849,4,0,4,0,1,3,1,0,240,91,1,239,,,,,,,,,,,,,,,,,,
,,1,113,,,,,,,3,4,1,stim/41.jpeg,HouseObjects,1,stim/objects/HouseObjects/recyclingbin2.png,0.9,3,-0.2,-0.15,left,17,2020-12-01_12h08.39.646,premup-three_ses-01_part-01_label-phase1,3.2.4,MacIntel,60,left,0.957000017,4,0,4,0,1,3,1,0,240,212,1,239,,,,,,,,,,,,,,,,,,
,,1,114,,,,,,,2,2,2,stim/22.jpeg,HouseObjects,1,stim/objects/HouseObjects/ironingboard2.png,0.7,3,-0.2,-0.15,left,17,2020-12-01_12h08.39.646,premup-three_ses-01_part-01_label-phase1,3.2.4,MacIntel,60,left,0.826999903,4,0,4,0,1,3,1,0,240,145,1,239,,,,,,,,,,,,,,,,,,
,,0,115,,,,,,,1,5,4,stim/54.jpeg,Instruments,2,stim/objects/Instruments/marimba.png,0.5,3,-0.2,-0.15,right,17,2020-12-01_12h08.39.646,premup-three_ses-01_part-01_label-phase1,3.2.4,MacIntel,60,left,1.007999897,4,0,4,0,1,3,1,0,240,31,1,239,,,,,,,,,,,,,,,,,,
,,0,116,,,,,,,2,1,3,stim/13.jpeg,Instruments,2,stim/objects/Instruments/record.png,0.7,4,0.2,-0.15,right,17,2020-12-01_12h08.39.646,premup-three_ses-01_part-01_label-phase1,3.2.4,MacIntel,60,left,1.508999825,4,0,4,0,1,3,1,0,240,114,1,239,,,,,,,,,,,,,,,,,,
,,0,117,,,,,,,3,4,2,stim/42.jpeg,Instruments,2,stim/objects/Instruments/pipepiano2.png,0.1,3,-0.2,-0.15,right,17,2020-12-01_12h08.39.646,premup-three_ses-01_part-01_label-phase1,3.2.4,MacIntel,60,left,0.928999901,4,0,4,0,1,3,1,0,240,237,1,239,,,,,,,,,,,,,,,,,,
,,1,118,,,,,,,2,2,1,stim/21.jpeg,HouseObjects,1,stim/objects/HouseObjects/iron2.png,0.7,3,-0.2,-0.15,left,17,2020-12-01_12h08.39.646,premup-three_ses-01_part-01_label-phase1,3.2.4,MacIntel,60,left,0.670000076,4,0,4,0,1,3,1,0,240,140,1,239,,,,,,,,,,,,,,,,,,
,,0,119,,,,,,,1,6,1,stim/61.jpeg,HouseObjects,1,stim/objects/HouseObjects/lintroller.png,0.5,4,0.2,-0.15,left,17,2020-12-01_12h08.39.646,premup-three_ses-01_part-01_label-phase1,3.2.4,MacIntel,60,right,0.720999956,4,0,4,0,1,3,1,0,240,40,1,239,,,,,,,,,,,,,,,,,,
,,1,120,,,,,,,2,1,2,stim/12.jpeg,Instruments,2,stim/objects/Instruments/pipepiano.png,0.7,2,0.2,0.15,right,17,2020-12-01_12h08.39.646,premup-three_ses-01_part-01_label-phase1,3.2.4,MacIntel,60,right,1.368000031,4,0,4,0,1,3,1,0,240,109,1,239,,,,,,,,,,,,,,,,,,
,,1,121,,,,,,,3,4,3,stim/43.jpeg,HouseObjects,1,stim/objects/HouseObjects/rubbergloves2.png,0.9,1,-0.2,0.15,left,17,2020-12-01_12h08.39.646,premup-three_ses-01_part-01_label-phase1,3.2.4,MacIntel,60,left,1.179999828,4,0,4,0,1,3,1,0,240,234,1,239,,,,,,,,,,,,,,,,,,
,,0,122,,,,,,,2,2,1,stim/21.jpeg,Instruments,2,stim/objects/Instruments/keyboard2.png,0.3,4,0.2,-0.15,right,17,2020-12-01_12h08.39.646,premup-three_ses-01_part-01_label-phase1,3.2.4,MacIntel,60,left,0.705999851,4,0,4,0,1,3,1,0,240,152,1,239,,,,,,,,,,,,,,,,,,
,,0,123,,,,,,,3,3,3,stim/33.jpeg,Instruments,2,stim/objects/Instruments/musicstand2.png,0.9,1,-0.2,0.15,right,17,2020-12-01_12h08.39.646,premup-three_ses-01_part-01_label-phase1,3.2.4,MacIntel,60,left,1.285999775,4,0,4,0,1,3,1,0,240,170,1,239,,,,,,,,,,,,,,,,,,
,,1,124,,,,,,,2,1,3,stim/13.jpeg,Instruments,2,stim/objects/Instruments/record.png,0.7,2,0.2,0.15,right,17,2020-12-01_12h08.39.646,premup-three_ses-01_part-01_label-phase1,3.2.4,MacIntel,60,right,1.687999964,4,0,4,0,1,3,1,0,240,98,1,239,,,,,,,,,,,,,,,,,,
,,1,125,,,,,,,3,3,2,stim/32.jpeg,Instruments,2,stim/objects/Instruments/musicsheet2.png,0.9,4,0.2,-0.15,right,17,2020-12-01_12h08.39.646,premup-three_ses-01_part-01_label-phase1,3.2.4,MacIntel,60,right,1.062000036,4,0,4,0,1,3,1,0,240,197,1,239,,,,,,,,,,,,,,,,,,
,,0,126,,,,,,,1,6,2,stim/62.jpeg,HouseObjects,1,stim/objects/HouseObjects/match.png,0.5,3,-0.2,-0.15,left,17,2020-12-01_12h08.39.646,premup-three_ses-01_part-01_label-phase1,3.2.4,MacIntel,60,right,0.990999937,4,0,4,0,1,3,1,0,240,41,1,239,,,,,,,,,,,,,,,,,,
,,0,127,,,,,,,1,6,4,stim/64.jpeg,HouseObjects,1,stim/objects/HouseObjects/pitcher.png,0.5,4,0.2,-0.15,left,17,2020-12-01_12h08.39.646,premup-three_ses-01_part-01_label-phase1,3.2.4,MacIntel,60,,,4,0,4,0,1,3,1,0,240,59,1,239,,,,,,,,,,,,,,,,,,
,,0,128,,,,,,,3,3,1,stim/31.jpeg,Instruments,2,stim/objects/Instruments/metronome2.png,0.9,1,-0.2,0.15,right,17,2020-12-01_12h08.39.646,premup-three_ses-01_part-01_label-phase1,3.2.4,MacIntel,60,left,1.191999912,4,0,4,0,1,3,1,0,240,172,1,239,,,,,,,,,,,,,,,,,,
,,1,129,,,,,,,2,2,3,stim/23.jpeg,HouseObjects,1,stim/objects/HouseObjects/key2.png,0.7,1,-0.2,0.15,left,17,2020-12-01_12h08.39.646,premup-three_ses-01_part-01_label-phase1,3.2.4,MacIntel,60,left,0.898999929,4,0,4,0,1,3,1,0,240,126,1,239,,,,,,,,,,,,,,,,,,
,,1,130,,,,,,,2,1,3,stim/13.jpeg,Instruments,2,stim/objects/Instruments/record.png,0.7,1,-0.2,0.15,right,17,2020-12-01_12h08.39.646,premup-three_ses-01_part-01_label-phase1,3.2.4,MacIntel,60,right,1.062000036,4,0,4,0,1,3,1,0,240,118,1,239,,,,,,,,,,,,,,,,,,
,,0,131,,,,,,,1,6,3,stim/63.jpeg,HouseObjects,1,stim/objects/HouseObjects/pan.png,0.5,1,-0.2,0.15,left,17,2020-12-01_12h08.39.646,premup-three_ses-01_part-01_label-phase1,3.2.4,MacIntel,60,right,1.39199996,4,0,4,0,1,3,1,0,240,58,1,239,,,,,,,,,,,,,,,,,,
,,0,132,,,,,,,1,6,3,stim/63.jpeg,Instruments,2,stim/objects/Instruments/musicstand.png,0.5,1,-0.2,0.15,right,17,2020-12-01_12h08.39.646,premup-three_ses-01_part-01_label-phase1,3.2.4,MacIntel,60,left,0.769000053,4,0,4,0,1,3,1,0,240,74,1,239,,,,,,,,,,,,,,,,,,
,,0,133,,,,,,,3,3,4,stim/34.jpeg,Instruments,2,stim/objects/Instruments/oboe2.png,0.9,3,-0.2,-0.15,right,17,2020-12-01_12h08.39.646,premup-three_ses-01_part-01_label-phase1,3.2.4,MacIntel,60,left,1.343999863,4,0,4,0,1,3,1,0,240,195,1,239,,,,,,,,,,,,,,,,,,
,,1,134,,,,,,,1,6,1,stim/61.jpeg,Instruments,2,stim/objects/Instruments/metronome.png,0.5,2,0.2,0.15,right,17,2020-12-01_12h08.39.646,premup-three_ses-01_part-01_label-phase1,3.2.4,MacIntel,60,right,1.2099998,4,0,4,0,1,3,1,0,240,60,1,239,,,,,,,,,,,,,,,,,,
,,1,135,,,,,,,2,1,3,stim/13.jpeg,Instruments,2,stim/objects/Instruments/record.png,0.7,4,0.2,-0.15,right,17,2020-12-01_12h08.39.646,premup-three_ses-01_part-01_label-phase1,3.2.4,MacIntel,60,right,1.585000038,4,0,4,0,1,3,1,0,240,106,1,239,,,,,,,,,,,,,,,,,,
,,0,136,,,,,,,2,2,4,stim/24.jpeg,Instruments,2,stim/objects/Instruments/marimba2.png,0.3,2,0.2,0.15,right,17,2020-12-01_12h08.39.646,premup-three_ses-01_part-01_label-phase1,3.2.4,MacIntel,60,left,1.282999754,4,0,4,0,1,3,1,0,240,155,1,239,,,,,,,,,,,,,,,,,,
,,1,137,,,,,,,1,6,4,stim/64.jpeg,Instruments,2,stim/objects/Instruments/oboe.png,0.5,3,-0.2,-0.15,right,17,2020-12-01_12h08.39.646,premup-three_ses-01_part-01_label-phase1,3.2.4,MacIntel,60,right,1.161999941,4,0,4,0,1,3,1,0,240,79,1,239,,,,,,,,,,,,,,,,,,
,,0,138,,,,,,,2,1,2,stim/12.jpeg,Instruments,2,stim/objects/Instruments/pipepiano.png,0.7,2,0.2,0.15,right,17,2020-12-01_12h08.39.646,premup-three_ses-01_part-01_label-phase1,3.2.4,MacIntel,60,left,1.69299984,4,0,4,0,1,3,1,0,240,105,1,239,,,,,,,,,,,,,,,,,,
,,1,139,,,,,,,3,3,2,stim/32.jpeg,Instruments,2,stim/objects/Instruments/musicsheet2.png,0.9,4,0.2,-0.15,right,17,2020-12-01_12h08.39.646,premup-three_ses-01_part-01_label-phase1,3.2.4,MacIntel,60,right,1.152999878,4,0,4,0,1,3,1,0,240,177,1,239,,,,,,,,,,,,,,,,,,
,,1,140,,,,,,,2,2,3,stim/23.jpeg,HouseObjects,1,stim/objects/HouseObjects/key2.png,0.7,2,0.2,0.15,left,17,2020-12-01_12h08.39.646,premup-three_ses-01_part-01_label-phase1,3.2.4,MacIntel,60,left,1.049000025,4,0,4,0,1,3,1,0,240,134,1,239,,,,,,,,,,,,,,,,,,
,,0,141,,,,,,,2,1,1,stim/11.jpeg,HouseObjects,1,stim/objects/HouseObjects/recyclingbin.png,0.3,2,0.2,0.15,left,17,2020-12-01_12h08.39.646,premup-three_ses-01_part-01_label-phase1,3.2.4,MacIntel,60,right,1.289999962,4,0,4,0,1,3,1,0,240,88,1,239,,,,,,,,,,,,,,,,,,
,,1,142,,,,,,,2,2,2,stim/22.jpeg,HouseObjects,1,stim/objects/HouseObjects/ironingboard2.png,0.7,3,-0.2,-0.15,left,17,2020-12-01_12h08.39.646,premup-three_ses-01_part-01_label-phase1,3.2.4,MacIntel,60,left,0.998999834,4,0,4,0,1,3,1,0,240,137,1,239,,,,,,,,,,,,,,,,,,
,,0,143,,,,,,,2,1,1,stim/11.jpeg,Instruments,2,stim/objects/Instruments/panflute.png,0.7,2,0.2,0.15,right,17,2020-12-01_12h08.39.646,premup-three_ses-01_part-01_label-phase1,3.2.4,MacIntel,60,left,1.258999825,4,0,4,0,1,3,1,0,240,96,1,239,,,,,,,,,,,,,,,,,,
,,0,144,,,,,,,3,3,3,stim/33.jpeg,Instruments,2,stim/objects/Instruments/musicstand2.png,0.9,2,0.2,0.15,right,17,2020-12-01_12h08.39.646,premup-three_ses-01_part-01_label-phase1,3.2.4,MacIntel,60,left,1.564999819,4,0,4,0,1,3,1,0,240,166,1,239,,,,,,,,,,,,,,,,,,
,,0,145,,,,,,,1,6,1,stim/61.jpeg,Instruments,2,stim/objects/Instruments/metronome.png,0.5,3,-0.2,-0.15,right,17,2020-12-01_12h08.39.646,premup-three_ses-01_part-01_label-phase1,3.2.4,MacIntel,60,left,0.934000015,4,0,4,0,1,3,1,0,240,76,1,239,,,,,,,,,,,,,,,,,,
,,0,146,,,,,,,1,6,1,stim/61.jpeg,HouseObjects,1,stim/objects/HouseObjects/lintroller.png,0.5,2,0.2,0.15,left,17,2020-12-01_12h08.39.646,premup-three_ses-01_part-01_label-phase1,3.2.4,MacIntel,60,right,1.049999952,4,0,4,0,1,3,1,0,240,48,1,239,,,,,,,,,,,,,,,,,,
,,1,147,,,,,,,1,6,3,stim/63.jpeg,HouseObjects,1,stim/objects/HouseObjects/pan.png,0.5,4,0.2,-0.15,left,17,2020-12-01_12h08.39.646,premup-three_ses-01_part-01_label-phase1,3.2.4,MacIntel,60,left,1.05099988,4,0,4,0,1,3,1,0,240,50,1,239,,,,,,,,,,,,,,,,,,
,,0,148,,,,,,,1,6,2,stim/62.jpeg,Instruments,2,stim/objects/Instruments/musicsheet.png,0.5,1,-0.2,0.15,right,17,2020-12-01_12h08.39.646,premup-three_ses-01_part-01_label-phase1,3.2.4,MacIntel,60,left,1.270999908,4,0,4,0,1,3,1,0,240,73,1,239,,,,,,,,,,,,,,,,,,
,,0,149,,,,,,,2,2,2,stim/22.jpeg,Instruments,2,stim/objects/Instruments/laud2.png,0.3,3,-0.2,-0.15,right,17,2020-12-01_12h08.39.646,premup-three_ses-01_part-01_label-phase1,3.2.4,MacIntel,60,left,0.867000103,4,0,4,0,1,3,1,0,240,153,1,239,,,,,,,,,,,,,,,,,,
,,1,150,,,,,,,1,5,2,stim/52.jpeg,Instruments,2,stim/objects/Instruments/laud.png,0.5,4,0.2,-0.15,right,17,2020-12-01_12h08.39.646,premup-three_ses-01_part-01_label-phase1,3.2.4,MacIntel,60,right,1.102999926,4,0,4,0,1,3,1,0,240,37,1,239,,,,,,,,,,,,,,,,,,
,,1,151,,,,,,,2,1,2,stim/12.jpeg,Instruments,2,stim/objects/Instruments/pipepiano.png,0.7,3,-0.2,-0.15,right,17,2020-12-01_12h08.39.646,premup-three_ses-01_part-01_label-phase1,3.2.4,MacIntel,60,right,1.248999834,4,0,4,0,1,3,1,0,240,97,1,239,,,,,,,,,,,,,,,,,,
,,0,152,,,,,,,2,1,4,stim/14.jpeg,Instruments,2,stim/objects/Instruments/record_player.png,0.7,1,-0.2,0.15,right,17,2020-12-01_12h08.39.646,premup-three_ses-01_part-01_label-phase1,3.2.4,MacIntel,60,left,0.90899992,4,0,4,0,1,3,1,0,240,99,1,239,,,,,,,,,,,,,,,,,,
,,1,153,,,,,,,1,6,2,stim/62.jpeg,Instruments,2,stim/objects/Instruments/musicsheet.png,0.5,2,0.2,0.15,right,17,2020-12-01_12h08.39.646,premup-three_ses-01_part-01_label-phase1,3.2.4,MacIntel,60,right,1.07799983,4,0,4,0,1,3,1,0,240,65,1,239,,,,,,,,,,,,,,,,,,
,,1,154,,,,,,,1,6,3,stim/63.jpeg,Instruments,2,stim/objects/Instruments/musicstand.png,0.5,1,-0.2,0.15,right,17,2020-12-01_12h08.39.646,premup-three_ses-01_part-01_label-phase1,3.2.4,MacIntel,60,right,0.901000023,4,0,4,0,1,3,1,0,240,66,1,239,,,,,,,,,,,,,,,,,,
,,1,155,,,,,,,3,3,4,stim/34.jpeg,Instruments,2,stim/objects/Instruments/oboe2.png,0.9,2,0.2,0.15,right,17,2020-12-01_12h08.39.646,premup-three_ses-01_part-01_label-phase1,3.2.4,MacIntel,60,right,1.315999985,4,0,4,0,1,3,1,0,240,171,1,239,,,,,,,,,,,,,,,,,,
,,0,156,,,,,,,2,2,3,stim/23.jpeg,Instruments,2,stim/objects/Instruments/maraca2.png,0.3,2,0.2,0.15,right,17,2020-12-01_12h08.39.646,premup-three_ses-01_part-01_label-phase1,3.2.4,MacIntel,60,left,1.328999996,4,0,4,0,1,3,1,0,240,154,1,239,,,,,,,,,,,,,,,,,,
,,0,157,,,,,,,2,1,1,stim/11.jpeg,HouseObjects,1,stim/objects/HouseObjects/recyclingbin.png,0.3,1,-0.2,0.15,left,17,2020-12-01_12h08.39.646,premup-three_ses-01_part-01_label-phase1,3.2.4,MacIntel,60,right,0.934999943,4,0,4,0,1,3,1,0,240,80,1,239,,,,,,,,,,,,,,,,,,
,,1,158,,,,,,,1,5,1,stim/51.jpeg,HouseObjects,1,stim/objects/HouseObjects/iron.png,0.5,1,-0.2,0.15,left,17,2020-12-01_12h08.39.646,premup-three_ses-01_part-01_label-phase1,3.2.4,MacIntel,60,left,1.06400013,4,0,4,0,1,3,1,0,240,4,1,239,,,,,,,,,,,,,,,,,,
,,0,159,,,,,,,1,5,1,stim/51.jpeg,Instruments,2,stim/objects/Instruments/keyboard.png,0.5,4,0.2,-0.15,right,17,2020-12-01_12h08.39.646,premup-three_ses-01_part-01_label-phase1,3.2.4,MacIntel,60,left,1.079999924,4,0,4,0,1,3,1,0,240,28,1,239,,,,,,,,,,,,,,,,,,
,,0,160,,,,,,,1,5,4,stim/54.jpeg,HouseObjects,1,stim/objects/HouseObjects/knife.png,0.5,4,0.2,-0.15,left,17,2020-12-01_12h08.39.646,premup-three_ses-01_part-01_label-phase1,3.2.4,MacIntel,60,right,0.934000015,4,0,4,0,1,3,1,0,240,19,1,239,,,,,,,,,,,,,,,,,,
,,1,161,,,,,,,3,4,2,stim/42.jpeg,HouseObjects,1,stim/objects/HouseObjects/remote2.png,0.9,3,-0.2,-0.15,left,17,2020-12-01_12h08.39.646,premup-three_ses-01_part-01_label-phase1,3.2.4,MacIntel,60,left,1.066999912,4,0,4,0,1,3,1,0,240,221,1,239,,,,,,,,,,,,,,,,,,
,,1,162,,,,,,,1,6,4,stim/64.jpeg,Instruments,2,stim/objects/Instruments/oboe.png,0.5,1,-0.2,0.15,right,17,2020-12-01_12h08.39.646,premup-three_ses-01_part-01_label-phase1,3.2.4,MacIntel,60,right,1.213000059,4,0,4,0,1,3,1,0,240,71,1,239,,,,,,,,,,,,,,,,,,
,,1,163,,,,,,,2,2,1,stim/21.jpeg,HouseObjects,1,stim/objects/HouseObjects/iron2.png,0.7,2,0.2,0.15,left,17,2020-12-01_12h08.39.646,premup-three_ses-01_part-01_label-phase1,3.2.4,MacIntel,60,left,1.438999891,4,0,4,0,1,3,1,0,240,128,1,239,,,,,,,,,,,,,,,,,,
,,0,164,,,,,,,2,1,4,stim/14.jpeg,HouseObjects,1,stim/objects/HouseObjects/rug.png,0.3,4,0.2,-0.15,left,17,2020-12-01_12h08.39.646,premup-three_ses-01_part-01_label-phase1,3.2.4,MacIntel,60,right,1.151000023,4,0,4,0,1,3,1,0,240,83,1,239,,,,,,,,,,,,,,,,,,
,,0,165,,,,,,,2,1,2,stim/12.jpeg,Instruments,2,stim/objects/Instruments/pipepiano.png,0.7,1,-0.2,0.15,right,17,2020-12-01_12h08.39.646,premup-three_ses-01_part-01_label-phase1,3.2.4,MacIntel,60,left,1.003000021,4,0,4,0,1,3,1,0,240,117,1,239,,,,,,,,,,,,,,,,,,
,,1,166,,,,,,,3,3,4,stim/34.jpeg,Instruments,2,stim/objects/Instruments/oboe2.png,0.9,1,-0.2,0.15,right,17,2020-12-01_12h08.39.646,premup-three_ses-01_part-01_label-phase1,3.2.4,MacIntel,60,right,1.073999882,4,0,4,0,1,3,1,0,240,199,1,239,,,,,,,,,,,,,,,,,,
,,0,167,,,,,,,2,1,2,stim/12.jpeg,HouseObjects,1,stim/objects/HouseObjects/remote.png,0.3,2,0.2,0.15,left,17,2020-12-01_12h08.39.646,premup-three_ses-01_part-01_label-phase1,3.2.4,MacIntel,60,right,1.111000061,4,0,4,0,1,3,1,0,240,85,1,239,,,,,,,,,,,,,,,,,,
,,1,168,,,,,,,3,4,4,stim/44.jpeg,HouseObjects,1,stim/objects/HouseObjects/rug2.png,0.9,2,0.2,0.15,left,17,2020-12-01_12h08.39.646,premup-three_ses-01_part-01_label-phase1,3.2.4,MacIntel,60,left,1.069999933,4,0,4,0,1,3,1,0,240,231,1,239,,,,,,,,,,,,,,,,,,
,,0,169,,,,,,,1,6,1,stim/61.jpeg,Instruments,2,stim/objects/Instruments/metronome.png,0.5,3,-0.2,-0.15,right,17,2020-12-01_12h08.39.646,premup-three_ses-01_part-01_label-phase1,3.2.4,MacIntel,60,left,1.055999994,4,0,4,0,1,3,1,0,240,68,1,239,,,,,,,,,,,,,,,,,,
,,0,170,,,,,,,3,4,3,stim/43.jpeg,HouseObjects,1,stim/objects/HouseObjects/rubbergloves2.png,0.9,4,0.2,-0.15,left,17,2020-12-01_12h08.39.646,premup-three_ses-01_part-01_label-phase1,3.2.4,MacIntel,60,right,1.203000069,4,0,4,0,1,3,1,0,240,222,1,239,,,,,,,,,,,,,,,,,,
,,0,171,,,,,,,2,1,2,stim/12.jpeg,Instruments,2,stim/objects/Instruments/pipepiano.png,0.7,1,-0.2,0.15,right,17,2020-12-01_12h08.39.646,premup-three_ses-01_part-01_label-phase1,3.2.4,MacIntel,60,left,1.27699995,4,0,4,0,1,3,1,0,240,113,1,239,,,,,,,,,,,,,,,,,,
,,1,172,,,,,,,3,4,2,stim/42.jpeg,HouseObjects,1,stim/objects/HouseObjects/remote2.png,0.9,3,-0.2,-0.15,left,17,2020-12-01_12h08.39.646,premup-three_ses-01_part-01_label-phase1,3.2.4,MacIntel,60,left,1.178999901,4,0,4,0,1,3,1,0,240,229,1,239,,,,,,,,,,,,,,,,,,
,,1,173,,,,,,,1,5,2,stim/52.jpeg,HouseObjects,1,stim/objects/HouseObjects/ironingboard.png,0.5,2,0.2,0.15,left,17,2020-12-01_12h08.39.646,premup-three_ses-01_part-01_label-phase1,3.2.4,MacIntel,60,left,1.112999916,4,0,4,0,1,3,1,0,240,17,1,239,,,,,,,,,,,,,,,,,,
,,0,174,,,,,,,1,5,4,stim/54.jpeg,Instruments,2,stim/objects/Instruments/marimba.png,0.5,3,-0.2,-0.15,right,17,2020-12-01_12h08.39.646,premup-three_ses-01_part-01_label-phase1,3.2.4,MacIntel,60,left,0.807999849,4,0,4,0,1,3,1,0,240,39,1,239,,,,,,,,,,,,,,,,,,
,,1,175,,,,,,,1,5,1,stim/51.jpeg,HouseObjects,1,stim/objects/HouseObjects/iron.png,0.5,1,-0.2,0.15,left,17,2020-12-01_12h08.39.646,premup-three_ses-01_part-01_label-phase1,3.2.4,MacIntel,60,left,0.950999975,4,0,4,0,1,3,1,0,240,16,1,239,,,,,,,,,,,,,,,,,,
,,0,176,,,,,,,1,6,1,stim/61.jpeg,Instruments,2,stim/objects/Instruments/metronome.png,0.5,2,0.2,0.15,right,17,2020-12-01_12h08.39.646,premup-three_ses-01_part-01_label-phase1,3.2.4,MacIntel,60,left,1.188999891,4,0,4,0,1,3,1,0,240,64,1,239,,,,,,,,,,,,,,,,,,
,,0,177,,,,,,,3,4,4,stim/44.jpeg,Instruments,2,stim/objects/Instruments/record_player2.png,0.1,3,-0.2,-0.15,right,17,2020-12-01_12h08.39.646,premup-three_ses-01_part-01_label-phase1,3.2.4,MacIntel,60,left,0.826999903,4,0,4,0,1,3,1,0,240,239,1,239,,,,,,,,,,,,,,,,,,
,,1,178,,,,,,,1,6,3,stim/63.jpeg,Instruments,2,stim/objects/Instruments/musicstand.png,0.5,2,0.2,0.15,right,17,2020-12-01_12h08.39.646,premup-three_ses-01_part-01_label-phase1,3.2.4,MacIntel,60,right,1.083999872,4,0,4,0,1,3,1,0,240,78,1,239,,,,,,,,,,,,,,,,,,
,,1,179,,,,,,,3,3,4,stim/34.jpeg,Instruments,2,stim/objects/Instruments/oboe2.png,0.9,2,0.2,0.15,right,17,2020-12-01_12h08.39.646,premup-three_ses-01_part-01_label-phase1,3.2.4,MacIntel,60,right,0.815999985,4,0,4,0,1,3,1,0,240,187,1,239,,,,,,,,,,,,,,,,,,
,,1,180,,,,,,,1,5,4,stim/54.jpeg,Instruments,2,stim/objects/Instruments/marimba.png,0.5,2,0.2,0.15,right,17,2020-12-01_12h08.39.646,premup-three_ses-01_part-01_label-phase1,3.2.4,MacIntel,60,right,1.048999786,4,0,4,0,1,3,1,0,240,27,1,239,,,,,,,,,,,,,,,,,,
,,0,181,,,,,,,3,3,1,stim/31.jpeg,Instruments,2,stim/objects/Instruments/metronome2.png,0.9,3,-0.2,-0.15,right,17,2020-12-01_12h08.39.646,premup-three_ses-01_part-01_label-phase1,3.2.4,MacIntel,60,left,1.167000055,4,0,4,0,1,3,1,0,240,184,1,239,,,,,,,,,,,,,,,,,,
,,1,182,,,,,,,1,5,4,stim/54.jpeg,Instruments,2,stim/objects/Instruments/marimba.png,0.5,2,0.2,0.15,right,17,2020-12-01_12h08.39.646,premup-three_ses-01_part-01_label-phase1,3.2.4,MacIntel,60,right,1.038999796,4,0,4,0,1,3,1,0,240,23,1,239,,,,,,,,,,,,,,,,,,
,,1,183,,,,,,,3,4,3,stim/43.jpeg,HouseObjects,1,stim/objects/HouseObjects/rubbergloves2.png,0.9,3,-0.2,-0.15,left,17,2020-12-01_12h08.39.646,premup-three_ses-01_part-01_label-phase1,3.2.4,MacIntel,60,left,1.062999964,4,0,4,0,1,3,1,0,240,230,1,239,,,,,,,,,,,,,,,,,,
,,1,184,,,,,,,1,5,2,stim/52.jpeg,HouseObjects,1,stim/objects/HouseObjects/ironingboard.png,0.5,2,0.2,0.15,left,17,2020-12-01_12h08.39.646,premup-three_ses-01_part-01_label-phase1,3.2.4,MacIntel,60,left,1.047999859,4,0,4,0,1,3,1,0,240,9,1,239,,,,,,,,,,,,,,,,,,
,,0,185,,,,,,,2,2,4,stim/24.jpeg,Instruments,2,stim/objects/Instruments/marimba2.png,0.3,3,-0.2,-0.15,right,17,2020-12-01_12h08.39.646,premup-three_ses-01_part-01_label-phase1,3.2.4,MacIntel,60,left,1.159999847,4,0,4,0,1,3,1,0,240,151,1,239,,,,,,,,,,,,,,,,,,
,,1,186,,,,,,,1,5,3,stim/53.jpeg,HouseObjects,1,stim/objects/HouseObjects/key.png,0.5,4,0.2,-0.15,left,17,2020-12-01_12h08.39.646,premup-three_ses-01_part-01_label-phase1,3.2.4,MacIntel,60,left,1.282999992,4,0,4,0,1,3,1,0,240,6,1,239,,,,,,,,,,,,,,,,,,
,,0,187,,,,,,,2,1,4,stim/14.jpeg,Instruments,2,stim/objects/Instruments/record_player.png,0.7,3,-0.2,-0.15,right,17,2020-12-01_12h08.39.646,premup-three_ses-01_part-01_label-phase1,3.2.4,MacIntel,60,left,1.155999899,4,0,4,0,1,3,1,0,240,95,1,239,,,,,,,,,,,,,,,,,,
,,1,188,,,,,,,1,5,1,stim/51.jpeg,HouseObjects,1,stim/objects/HouseObjects/iron.png,0.5,1,-0.2,0.15,left,17,2020-12-01_12h08.39.646,premup-three_ses-01_part-01_label-phase1,3.2.4,MacIntel,60,left,0.97300005,4,0,4,0,1,3,1,0,240,8,1,239,,,,,,,,,,,,,,,,,,
,,1,189,,,,,,,3,3,1,stim/31.jpeg,Instruments,2,stim/objects/Instruments/metronome2.png,0.9,2,0.2,0.15,right,17,2020-12-01_12h08.39.646,premup-three_ses-01_part-01_label-phase1,3.2.4,MacIntel,60,right,1.245999813,4,0,4,0,1,3,1,0,240,180,1,239,,,,,,,,,,,,,,,,,,
,,1,190,,,,,,,1,6,4,stim/64.jpeg,Instruments,2,stim/objects/Instruments/oboe.png,0.5,3,-0.2,-0.15,right,17,2020-12-01_12h08.39.646,premup-three_ses-01_part-01_label-phase1,3.2.4,MacIntel,60,right,1.041999817,4,0,4,0,1,3,1,0,240,63,1,239,,,,,,,,,,,,,,,,,,
,,1,191,,,,,,,2,1,1,stim/11.jpeg,Instruments,2,stim/objects/Instruments/panflute.png,0.7,3,-0.2,-0.15,right,17,2020-12-01_12h08.39.646,premup-three_ses-01_part-01_label-phase1,3.2.4,MacIntel,60,right,1.325999975,4,0,4,0,1,3,1,0,240,100,1,239,,,,,,,,,,,,,,,,,,
,,0,192,,,,,,,1,5,3,stim/53.jpeg,Instruments,2,stim/objects/Instruments/maraca.png,0.5,2,0.2,0.15,right,17,2020-12-01_12h08.39.646,premup-three_ses-01_part-01_label-phase1,3.2.4,MacIntel,60,left,1.280999899,4,0,4,0,1,3,1,0,240,34,1,239,,,,,,,,,,,,,,,,,,
,,0,193,,,,,,,3,4,1,stim/41.jpeg,HouseObjects,1,stim/objects/HouseObjects/recyclingbin2.png,0.9,2,0.2,0.15,left,17,2020-12-01_12h08.39.646,premup-three_ses-01_part-01_label-phase1,3.2.4,MacIntel,60,right,1.417999983,4,0,4,0,1,3,1,0,240,216,1,239,,,,,,,,,,,,,,,,,,
,,0,194,,,,,,,1,6,1,stim/61.jpeg,HouseObjects,1,stim/objects/HouseObjects/lintroller.png,0.5,2,0.2,0.15,left,17,2020-12-01_12h08.39.646,premup-three_ses-01_part-01_label-phase1,3.2.4,MacIntel,60,right,1.144999743,4,0,4,0,1,3,1,0,240,52,1,239,,,,,,,,,,,,,,,,,,
,,1,195,,,,,,,3,4,1,stim/41.jpeg,HouseObjects,1,stim/objects/HouseObjects/recyclingbin2.png,0.9,1,-0.2,0.15,left,17,2020-12-01_12h08.39.646,premup-three_ses-01_part-01_label-phase1,3.2.4,MacIntel,60,left,1.411999941,4,0,4,0,1,3,1,0,240,220,1,239,,,,,,,,,,,,,,,,,,
,,1,196,,,,,,,2,2,2,stim/22.jpeg,Instruments,2,stim/objects/Instruments/laud2.png,0.3,4,0.2,-0.15,right,17,2020-12-01_12h08.39.646,premup-three_ses-01_part-01_label-phase1,3.2.4,MacIntel,60,right,1.457000017,4,0,4,0,1,3,1,0,240,157,1,239,,,,,,,,,,,,,,,,,,
,,1,197,,,,,,,3,3,4,stim/34.jpeg,Instruments,2,stim/objects/Instruments/oboe2.png,0.9,4,0.2,-0.15,right,17,2020-12-01_12h08.39.646,premup-three_ses-01_part-01_label-phase1,3.2.4,MacIntel,60,right,1.042999744,4,0,4,0,1,3,1,0,240,167,1,239,,,,,,,,,,,,,,,,,,
,,1,198,,,,,,,1,5,4,stim/54.jpeg,Instruments,2,stim/objects/Instruments/marimba.png,0.5,4,0.2,-0.15,right,17,2020-12-01_12h08.39.646,premup-three_ses-01_part-01_label-phase1,3.2.4,MacIntel,60,right,1.056999922,4,0,4,0,1,3,1,0,240,35,1,239,,,,,,,,,,,,,,,,,,
,,0,199,,,,,,,1,6,2,stim/62.jpeg,HouseObjects,1,stim/objects/HouseObjects/match.png,0.5,4,0.2,-0.15,left,17,2020-12-01_12h08.39.646,premup-three_ses-01_part-01_label-phase1,3.2.4,MacIntel,60,right,1.246000051,4,0,4,0,1,3,1,0,240,45,1,239,,,,,,,,,,,,,,,,,,
,,1,200,,,,,,,1,6,4,stim/64.jpeg,HouseObjects,1,stim/objects/HouseObjects/pitcher.png,0.5,1,-0.2,0.15,left,17,2020-12-01_12h08.39.646,premup-three_ses-01_part-01_label-phase1,3.2.4,MacIntel,60,left,1.526000023,4,0,4,0,1,3,1,0,240,55,1,239,,,,,,,,,,,,,,,,,,
,,0,201,,,,,,,1,6,3,stim/63.jpeg,HouseObjects,1,stim/objects/HouseObjects/pan.png,0.5,1,-0.2,0.15,left,17,2020-12-01_12h08.39.646,premup-three_ses-01_part-01_label-phase1,3.2.4,MacIntel,60,right,1.796999931,4,0,4,0,1,3,1,0,240,42,1,239,,,,,,,,,,,,,,,,,,
,,0,202,,,,,,,3,4,2,stim/42.jpeg,HouseObjects,1,stim/objects/HouseObjects/remote2.png,0.9,4,0.2,-0.15,left,17,2020-12-01_12h08.39.646,premup-three_ses-01_part-01_label-phase1,3.2.4,MacIntel,60,right,1.322999954,4,0,4,0,1,3,1,0,240,217,1,239,,,,,,,,,,,,,,,,,,
,,1,203,,,,,,,1,5,1,stim/51.jpeg,Instruments,2,stim/objects/Instruments/keyboard.png,0.5,4,0.2,-0.15,right,17,2020-12-01_12h08.39.646,premup-three_ses-01_part-01_label-phase1,3.2.4,MacIntel,60,right,1.624999762,4,0,4,0,1,3,1,0,240,36,1,239,,,,,,,,,,,,,,,,,,
,,1,204,,,,,,,3,3,2,stim/32.jpeg,Instruments,2,stim/objects/Instruments/musicsheet2.png,0.9,4,0.2,-0.15,right,17,2020-12-01_12h08.39.646,premup-three_ses-01_part-01_label-phase1,3.2.4,MacIntel,60,right,1.006999969,4,0,4,0,1,3,1,0,240,181,1,239,,,,,,,,,,,,,,,,,,
,,0,205,,,,,,,3,4,3,stim/43.jpeg,Instruments,2,stim/objects/Instruments/record2.png,0.1,3,-0.2,-0.15,right,17,2020-12-01_12h08.39.646,premup-three_ses-01_part-01_label-phase1,3.2.4,MacIntel,60,left,1.014999866,4,0,4,0,1,3,1,0,240,238,1,239,,,,,,,,,,,,,,,,,,
,,1,206,,,,,,,3,4,4,stim/44.jpeg,HouseObjects,1,stim/objects/HouseObjects/rug2.png,0.9,4,0.2,-0.15,left,17,2020-12-01_12h08.39.646,premup-three_ses-01_part-01_label-phase1,3.2.4,MacIntel,60,left,1.503999949,4,0,4,0,1,3,1,0,240,215,1,239,,,,,,,,,,,,,,,,,,
,,1,207,,,,,,,3,3,2,stim/32.jpeg,Instruments,2,stim/objects/Instruments/musicsheet2.png,0.9,4,0.2,-0.15,right,17,2020-12-01_12h08.39.646,premup-three_ses-01_part-01_label-phase1,3.2.4,MacIntel,60,right,1.421000004,4,0,4,0,1,3,1,0,240,165,1,239,,,,,,,,,,,,,,,,,,
,,1,208,,,,,,,3,3,4,stim/34.jpeg,Instruments,2,stim/objects/Instruments/oboe2.png,0.9,2,0.2,0.15,right,17,2020-12-01_12h08.39.646,premup-three_ses-01_part-01_label-phase1,3.2.4,MacIntel,60,right,1.212999821,4,0,4,0,1,3,1,0,240,175,1,239,,,,,,,,,,,,,,,,,,
,,1,209,,,,,,,3,3,2,stim/32.jpeg,Instruments,2,stim/objects/Instruments/musicsheet2.png,0.9,4,0.2,-0.15,right,17,2020-12-01_12h08.39.646,premup-three_ses-01_part-01_label-phase1,3.2.4,MacIntel,60,right,1.055999994,4,0,4,0,1,3,1,0,240,173,1,239,,,,,,,,,,,,,,,,,,
,,0,210,,,,,,,2,1,4,stim/14.jpeg,Instruments,2,stim/objects/Instruments/record_player.png,0.7,2,0.2,0.15,right,17,2020-12-01_12h08.39.646,premup-three_ses-01_part-01_label-phase1,3.2.4,MacIntel,60,left,1.506000042,4,0,4,0,1,3,1,0,240,107,1,239,,,,,,,,,,,,,,,,,,
,,1,211,,,,,,,1,5,4,stim/54.jpeg,HouseObjects,1,stim/objects/HouseObjects/knife.png,0.5,3,-0.2,-0.15,left,17,2020-12-01_12h08.39.646,premup-three_ses-01_part-01_label-phase1,3.2.4,MacIntel,60,left,1.141999722,4,0,4,0,1,3,1,0,240,15,1,239,,,,,,,,,,,,,,,,,,
,,1,212,,,,,,,3,4,1,stim/41.jpeg,HouseObjects,1,stim/objects/HouseObjects/recyclingbin2.png,0.9,1,-0.2,0.15,left,17,2020-12-01_12h08.39.646,premup-three_ses-01_part-01_label-phase1,3.2.4,MacIntel,60,left,1.085999966,4,0,4,0,1,3,1,0,240,224,1,239,,,,,,,,,,,,,,,,,,
,,1,213,,,,,,,3,3,3,stim/33.jpeg,Instruments,2,stim/objects/Instruments/musicstand2.png,0.9,2,0.2,0.15,right,17,2020-12-01_12h08.39.646,premup-three_ses-01_part-01_label-phase1,3.2.4,MacIntel,60,right,1.11199975,4,0,4,0,1,3,1,0,240,182,1,239,,,,,,,,,,,,,,,,,,
,,0,214,,,,,,,3,4,3,stim/43.jpeg,HouseObjects,1,stim/objects/HouseObjects/rubbergloves2.png,0.9,4,0.2,-0.15,left,17,2020-12-01_12h08.39.646,premup-three_ses-01_part-01_label-phase1,3.2.4,MacIntel,60,right,1.361000061,4,0,4,0,1,3,1,0,240,202,1,239,,,,,,,,,,,,,,,,,,
,,0,215,,,,,,,1,5,1,stim/51.jpeg,HouseObjects,1,stim/objects/HouseObjects/iron.png,0.5,2,0.2,0.15,left,17,2020-12-01_12h08.39.646,premup-three_ses-01_part-01_label-phase1,3.2.4,MacIntel,60,right,1.272000074,4,0,4,0,1,3,1,0,240,12,1,239,,,,,,,,,,,,,,,,,,
,,1,216,,,,,,,2,1,4,stim/14.jpeg,Instruments,2,stim/objects/Instruments/record_player.png,0.7,4,0.2,-0.15,right,17,2020-12-01_12h08.39.646,premup-three_ses-01_part-01_label-phase1,3.2.4,MacIntel,60,right,1.153999805,4,0,4,0,1,3,1,0,240,119,1,239,,,,,,,,,,,,,,,,,,
,,0,217,,,,,,,2,2,3,stim/23.jpeg,Instruments,2,stim/objects/Instruments/maraca2.png,0.3,1,-0.2,0.15,right,17,2020-12-01_12h08.39.646,premup-three_ses-01_part-01_label-phase1,3.2.4,MacIntel,60,left,0.930999994,4,0,4,0,1,3,1,0,240,158,1,239,,,,,,,,,,,,,,,,,,
,,1,218,,,,,,,2,1,2,stim/12.jpeg,HouseObjects,1,stim/objects/HouseObjects/remote.png,0.3,1,-0.2,0.15,left,17,2020-12-01_12h08.39.646,premup-three_ses-01_part-01_label-phase1,3.2.4,MacIntel,60,left,1.336999893,4,0,4,0,1,3,1,0,240,89,1,239,,,,,,,,,,,,,,,,,,
,,1,219,,,,,,,3,4,2,stim/42.jpeg,HouseObjects,1,stim/objects/HouseObjects/remote2.png,0.9,1,-0.2,0.15,left,17,2020-12-01_12h08.39.646,premup-three_ses-01_part-01_label-phase1,3.2.4,MacIntel,60,left,1.307999849,4,0,4,0,1,3,1,0,240,209,1,239,,,,,,,,,,,,,,,,,,
,,0,220,,,,,,,3,3,4,stim/34.jpeg,Instruments,2,stim/objects/Instruments/oboe2.png,0.9,3,-0.2,-0.15,right,17,2020-12-01_12h08.39.646,premup-three_ses-01_part-01_label-phase1,3.2.4,MacIntel,60,,,4,0,4,0,1,3,1,0,240,191,1,239,,,,,,,,,,,,,,,,,,
,,0,221,,,,,,,3,4,4,stim/44.jpeg,HouseObjects,1,stim/objects/HouseObjects/rug2.png,0.9,2,0.2,0.15,left,17,2020-12-01_12h08.39.646,premup-three_ses-01_part-01_label-phase1,3.2.4,MacIntel,60,right,1.02699995,4,0,4,0,1,3,1,0,240,203,1,239,,,,,,,,,,,,,,,,,,
,,0,222,,,,,,,1,5,1,stim/51.jpeg,Instruments,2,stim/objects/Instruments/keyboard.png,0.5,1,-0.2,0.15,right,17,2020-12-01_12h08.39.646,premup-three_ses-01_part-01_label-phase1,3.2.4,MacIntel,60,left,1.103999853,4,0,4,0,1,3,1,0,240,24,1,239,,,,,,,,,,,,,,,,,,
,,1,223,,,,,,,3,3,3,stim/33.jpeg,Instruments,2,stim/objects/Instruments/musicstand2.png,0.9,2,0.2,0.15,right,17,2020-12-01_12h08.39.646,premup-three_ses-01_part-01_label-phase1,3.2.4,MacIntel,60,right,0.883999825,4,0,4,0,1,3,1,0,240,198,1,239,,,,,,,,,,,,,,,,,,
,,0,224,,,,,,,1,5,2,stim/52.jpeg,Instruments,2,stim/objects/Instruments/laud.png,0.5,3,-0.2,-0.15,right,17,2020-12-01_12h08.39.646,premup-three_ses-01_part-01_label-phase1,3.2.4,MacIntel,60,left,0.862999916,4,0,4,0,1,3,1,0,240,25,1,239,,,,,,,,,,,,,,,,,,
,,0,225,,,,,,,1,6,2,stim/62.jpeg,Instruments,2,stim/objects/Instruments/musicsheet.png,0.5,1,-0.2,0.15,right,17,2020-12-01_12h08.39.646,premup-three_ses-01_part-01_label-phase1,3.2.4,MacIntel,60,left,1.039999962,4,0,4,0,1,3,1,0,240,69,1,239,,,,,,,,,,,,,,,,,,
,,1,226,,,,,,,3,4,4,stim/44.jpeg,HouseObjects,1,stim/objects/HouseObjects/rug2.png,0.9,2,0.2,0.15,left,17,2020-12-01_12h08.39.646,premup-three_ses-01_part-01_label-phase1,3.2.4,MacIntel,60,left,0.880000114,4,0,4,0,1,3,1,0,240,219,1,239,,,,,,,,,,,,,,,,,,
,,0,227,,,,,,,2,2,4,stim/24.jpeg,HouseObjects,1,stim/objects/HouseObjects/knife2.png,0.7,4,0.2,-0.15,left,17,2020-12-01_12h08.39.646,premup-three_ses-01_part-01_label-phase1,3.2.4,MacIntel,60,right,0.993999958,4,0,4,0,1,3,1,0,240,147,1,239,,,,,,,,,,,,,,,,,,
,,1,228,,,,,,,2,2,3,stim/23.jpeg,HouseObjects,1,stim/objects/HouseObjects/key2.png,0.7,3,-0.2,-0.15,left,17,2020-12-01_12h08.39.646,premup-three_ses-01_part-01_label-phase1,3.2.4,MacIntel,60,left,1.240999699,4,0,4,0,1,3,1,0,240,142,1,239,,,,,,,,,,,,,,,,,,
,,1,229,,,,,,,2,2,2,stim/22.jpeg,HouseObjects,1,stim/objects/HouseObjects/ironingboard2.png,0.7,1,-0.2,0.15,left,17,2020-12-01_12h08.39.646,premup-three_ses-01_part-01_label-phase1,3.2.4,MacIntel,60,left,1.025999784,4,0,4,0,1,3,1,0,240,133,1,239,,,,,,,,,,,,,,,,,,
,,1,230,,,,,,,1,6,2,stim/62.jpeg,HouseObjects,1,stim/objects/HouseObjects/match.png,0.5,1,-0.2,0.15,left,17,2020-12-01_12h08.39.646,premup-three_ses-01_part-01_label-phase1,3.2.4,MacIntel,60,left,1.117000103,4,0,4,0,1,3,1,0,240,53,1,239,,,,,,,,,,,,,,,,,,
,,1,231,,,,,,,1,5,2,stim/52.jpeg,HouseObjects,1,stim/objects/HouseObjects/ironingboard.png,0.5,3,-0.2,-0.15,left,17,2020-12-01_12h08.39.646,premup-three_ses-01_part-01_label-phase1,3.2.4,MacIntel,60,left,0.975999832,4,0,4,0,1,3,1,0,240,5,1,239,,,,,,,,,,,,,,,,,,
,,0,232,,,,,,,2,2,4,stim/24.jpeg,HouseObjects,1,stim/objects/HouseObjects/knife2.png,0.7,4,0.2,-0.15,left,17,2020-12-01_12h08.39.646,premup-three_ses-01_part-01_label-phase1,3.2.4,MacIntel,60,right,1.095999718,4,0,4,0,1,3,1,0,240,123,1,239,,,,,,,,,,,,,,,,,,
,,1,233,,,,,,,3,4,2,stim/42.jpeg,HouseObjects,1,stim/objects/HouseObjects/remote2.png,0.9,2,0.2,0.15,left,17,2020-12-01_12h08.39.646,premup-three_ses-01_part-01_label-phase1,3.2.4,MacIntel,60,left,1.266000032,4,0,4,0,1,3,1,0,240,225,1,239,,,,,,,,,,,,,,,,,,
,,0,234,,,,,,,2,1,4,stim/14.jpeg,Instruments,2,stim/objects/Instruments/record_player.png,0.7,3,-0.2,-0.15,right,17,2020-12-01_12h08.39.646,premup-three_ses-01_part-01_label-phase1,3.2.4,MacIntel,60,left,1.295999765,4,0,4,0,1,3,1,0,240,111,1,239,,,,,,,,,,,,,,,,,,
,,1,235,,,,,,,3,3,3,stim/33.jpeg,Instruments,2,stim/objects/Instruments/musicstand2.png,0.9,4,0.2,-0.15,right,17,2020-12-01_12h08.39.646,premup-three_ses-01_part-01_label-phase1,3.2.4,MacIntel,60,right,1.130000114,4,0,4,0,1,3,1,0,240,178,1,239,,,,,,,,,,,,,,,,,,
,,1,236,,,,,,,3,4,4,stim/44.jpeg,HouseObjects,1,stim/objects/HouseObjects/rug2.png,0.9,4,0.2,-0.15,left,17,2020-12-01_12h08.39.646,premup-three_ses-01_part-01_label-phase1,3.2.4,MacIntel,60,left,1.149999857,4,0,4,0,1,3,1,0,240,211,1,239,,,,,,,,,,,,,,,,,,
,,1,237,,,,,,,3,4,1,stim/41.jpeg,Instruments,2,stim/objects/Instruments/panflute2.png,0.1,1,-0.2,0.15,right,17,2020-12-01_12h08.39.646,premup-three_ses-01_part-01_label-phase1,3.2.4,MacIntel,60,right,1.303999901,4,0,4,0,1,3,1,0,240,236,1,239,,,,,,,,,,,,,,,,,,
,,1,238,,,,,,,3,3,3,stim/33.jpeg,Instruments,2,stim/objects/Instruments/musicstand2.png,0.9,2,0.2,0.15,right,17,2020-12-01_12h08.39.646,premup-three_ses-01_part-01_label-phase1,3.2.4,MacIntel,60,right,0.90199995,4,0,4,0,1,3,1,0,240,190,1,239,,,,,,,,,,,,,,,,,,
,,1,239,,,,,,,1,5,2,stim/52.jpeg,HouseObjects,1,stim/objects/HouseObjects/ironingboard.png,0.5,1,-0.2,0.15,left,17,2020-12-01_12h08.39.646,premup-three_ses-01_part-01_label-phase1,3.2.4,MacIntel,60,left,1.33100009,4,0,4,0,1,3,1,0,240,13,1,239,,,,,,,,,,,,,,,,,,
,,1,240,,,,,,,1,6,4,stim/64.jpeg,Instruments,2,stim/objects/Instruments/oboe.png,0.5,2,0.2,0.15,right,17,2020-12-01_12h08.39.646,premup-three_ses-01_part-01_label-phase1,3.2.4,MacIntel,60,right,1.085000038,4,0,4,0,1,3,1,0,240,67,1,239,,,,,,,,,,,,,,,,,,
,,,,,,,,,,,4,,stim/41.jpeg,,,,,,,,,17,2020-12-01_12h08.39.646,premup-three_ses-01_part-01_label-phase1,3.2.4,MacIntel,60,,,4,0,4,0,1,3,,,,,,,1,0,80,10.63800001,,,1,0,6,3,1,5,Household items,65,75,Music items,25,35
,,,,,,,,,,,5,,stim/51.jpeg,,,,,,,,,17,2020-12-01_12h08.39.646,premup-three_ses-01_part-01_label-phase1,3.2.4,MacIntel,60,,,4,0,4,0,1,3,,,,,,,1,0,60,4.562000036,,,1,0,6,4,1,5,Music items,5,15,Household items,85,95
,,,,,,,,,,,6,,stim/61.jpeg,,,,,,,,,17,2020-12-01_12h08.39.646,premup-three_ses-01_part-01_label-phase1,3.2.4,MacIntel,60,,,4,0,4,0,1,3,,,,,,,1,0,20,4.536999941,,,1,0,6,5,1,5,Household items,5,15,Music items,85,95
,,,,,,,,,,,3,,stim/31.jpeg,,,,,,,,,17,2020-12-01_12h08.39.646,premup-three_ses-01_part-01_label-phase1,3.2.4,MacIntel,60,,,4,0,4,0,1,3,,,,,,,1,0,20,1.853999853,,,1,0,6,2,1,5,Household items,65,75,Music items,25,35
,,,,,,,,,,,2,,stim/21.jpeg,,,,,,,,,17,2020-12-01_12h08.39.646,premup-three_ses-01_part-01_label-phase1,3.2.4,MacIntel,60,,,4,0,4,0,1,3,,,,,,,1,0,30,12.29399991,,,1,0,6,1,1,5,Music items,45,55,Household items,45,55
,,,,,,,,,,,1,,stim/11.jpeg,,,,,,,,,17,2020-12-01_12h08.39.646,premup-three_ses-01_part-01_label-phase1,3.2.4,MacIntel,60,,,4,0,4,0,1,3,,,,,,,1,0,21,5.677999973,,,1,0,6,0,1,5,Household items,45,55,Music items,45,55
,,,,,,,,,,,,,,,,,,,,,,17,2020-12-01_12h08.39.646,premup-three_ses-01_part-01_label-phase1,3.2.4,MacIntel,60,,,4,0,4,0,1,3,,,,,,,,,,,,,,,,,,,,,,,,
,,1,1,,,,,,,2,1,2,stim/12.jpeg,Instruments,2,stim/objects/Instruments/pipepiano.png,0.7,2,0.2,0.15,right,17,2020-12-01_12h08.39.646,premup-three_ses-01_part-01_label-phase1,3.2.4,MacIntel,60,right,1.508999825,4,0,4,0,1,3,1,0,240,109,1,239,,,,,,,,,,,,,,,,,,
,,0,2,,,,,,,1,6,4,stim/64.jpeg,HouseObjects,1,stim/objects/HouseObjects/pitcher.png,0.5,1,-0.2,0.15,left,17,2020-12-01_12h08.39.646,premup-three_ses-01_part-01_label-phase1,3.2.4,MacIntel,60,right,0.990999937,4,0,4,0,1,3,1,0,240,55,1,239,,,,,,,,,,,,,,,,,,
,,1,3,,,,,,,3,4,1,stim/41.jpeg,HouseObjects,1,stim/objects/HouseObjects/recyclingbin2.png,0.9,3,-0.2,-0.15,left,17,2020-12-01_12h08.39.646,premup-three_ses-01_part-01_label-phase1,3.2.4,MacIntel,60,left,1.029999971,4,0,4,0,1,3,1,0,240,204,1,239,,,,,,,,,,,,,,,,,,
,,1,4,,,,,,,3,4,4,stim/44.jpeg,HouseObjects,1,stim/objects/HouseObjects/rug2.png,0.9,2,0.2,0.15,left,17,2020-12-01_12h08.39.646,premup-three_ses-01_part-01_label-phase1,3.2.4,MacIntel,60,left,1.024999857,4,0,4,0,1,3,1,0,240,231,1,239,,,,,,,,,,,,,,,,,,
,,0,5,,,,,,,2,2,1,stim/21.jpeg,HouseObjects,1,stim/objects/HouseObjects/iron2.png,0.7,2,0.2,0.15,left,17,2020-12-01_12h08.39.646,premup-three_ses-01_part-01_label-phase1,3.2.4,MacIntel,60,right,1.226000071,4,0,4,0,1,3,1,0,240,144,1,239,,,,,,,,,,,,,,,,,,
,,0,6,,,,,,,2,2,3,stim/23.jpeg,HouseObjects,1,stim/objects/HouseObjects/key2.png,0.7,4,0.2,-0.15,left,17,2020-12-01_12h08.39.646,premup-three_ses-01_part-01_label-phase1,3.2.4,MacIntel,60,right,1.444000006,4,0,4,0,1,3,1,0,240,122,1,239,,,,,,,,,,,,,,,,,,
,,0,7,,,,,,,1,6,1,stim/61.jpeg,HouseObjects,1,stim/objects/HouseObjects/lintroller.png,0.5,4,0.2,-0.15,left,17,2020-12-01_12h08.39.646,premup-three_ses-01_part-01_label-phase1,3.2.4,MacIntel,60,right,0.924999952,4,0,4,0,1,3,1,0,240,40,1,239,,,,,,,,,,,,,,,,,,
,,0,8,,,,,,,1,5,1,stim/51.jpeg,Instruments,2,stim/objects/Instruments/keyboard.png,0.5,1,-0.2,0.15,right,17,2020-12-01_12h08.39.646,premup-three_ses-01_part-01_label-phase1,3.2.4,MacIntel,60,left,0.79399991,4,0,4,0,1,3,1,0,240,24,1,239,,,,,,,,,,,,,,,,,,
,,1,9,,,,,,,3,4,1,stim/41.jpeg,HouseObjects,1,stim/objects/HouseObjects/recyclingbin2.png,0.9,2,0.2,0.15,left,17,2020-12-01_12h08.39.646,premup-three_ses-01_part-01_label-phase1,3.2.4,MacIntel,60,left,1.507999897,4,0,4,0,1,3,1,0,240,216,1,239,,,,,,,,,,,,,,,,,,
,,0,10,,,,,,,2,2,4,stim/24.jpeg,Instruments,2,stim/objects/Instruments/marimba2.png,0.3,2,0.2,0.15,right,17,2020-12-01_12h08.39.646,premup-three_ses-01_part-01_label-phase1,3.2.4,MacIntel,60,left,0.944999933,4,0,4,0,1,3,1,0,240,155,1,239,,,,,,,,,,,,,,,,,,
,,0,11,,,,,,,1,6,1,stim/61.jpeg,HouseObjects,1,stim/objects/HouseObjects/lintroller.png,0.5,2,0.2,0.15,left,17,2020-12-01_12h08.39.646,premup-three_ses-01_part-01_label-phase1,3.2.4,MacIntel,60,right,1.078999996,4,0,4,0,1,3,1,0,240,48,1,239,,,,,,,,,,,,,,,,,,
,,1,12,,,,,,,3,4,3,stim/43.jpeg,HouseObjects,1,stim/objects/HouseObjects/rubbergloves2.png,0.9,1,-0.2,0.15,left,17,2020-12-01_12h08.39.646,premup-three_ses-01_part-01_label-phase1,3.2.4,MacIntel,60,left,0.875,4,0,4,0,1,3,1,0,240,234,1,239,,,,,,,,,,,,,,,,,,
,,1,13,,,,,,,3,3,1,stim/31.jpeg,Instruments,2,stim/objects/Instruments/metronome2.png,0.9,4,0.2,-0.15,right,17,2020-12-01_12h08.39.646,premup-three_ses-01_part-01_label-phase1,3.2.4,MacIntel,60,right,0.852999926,4,0,4,0,1,3,1,0,240,168,1,239,,,,,,,,,,,,,,,,,,
,,1,14,,,,,,,3,4,2,stim/42.jpeg,HouseObjects,1,stim/objects/HouseObjects/remote2.png,0.9,4,0.2,-0.15,left,17,2020-12-01_12h08.39.646,premup-three_ses-01_part-01_label-phase1,3.2.4,MacIntel,60,left,0.936999798,4,0,4,0,1,3,1,0,240,217,1,239,,,,,,,,,,,,,,,,,,
,,0,15,,,,,,,3,4,4,stim/44.jpeg,Instruments,2,stim/objects/Instruments/record_player2.png,0.1,3,-0.2,-0.15,right,17,2020-12-01_12h08.39.646,premup-three_ses-01_part-01_label-phase1,3.2.4,MacIntel,60,left,0.814999819,4,0,4,0,1,3,1,0,240,239,1,239,,,,,,,,,,,,,,,,,,
,,1,16,,,,,,,3,4,2,stim/42.jpeg,HouseObjects,1,stim/objects/HouseObjects/remote2.png,0.9,3,-0.2,-0.15,left,17,2020-12-01_12h08.39.646,premup-three_ses-01_part-01_label-phase1,3.2.4,MacIntel,60,left,1.021999836,4,0,4,0,1,3,1,0,240,221,1,239,,,,,,,,,,,,,,,,,,
,,0,17,,,,,,,1,5,3,stim/53.jpeg,Instruments,2,stim/objects/Instruments/maraca.png,0.5,3,-0.2,-0.15,right,17,2020-12-01_12h08.39.646,premup-three_ses-01_part-01_label-phase1,3.2.4,MacIntel,60,left,1.371999741,4,0,4,0,1,3,1,0,240,30,1,239,,,,,,,,,,,,,,,,,,
,,1,18,,,,,,,1,6,2,stim/62.jpeg,HouseObjects,1,stim/objects/HouseObjects/match.png,0.5,3,-0.2,-0.15,left,17,2020-12-01_12h08.39.646,premup-three_ses-01_part-01_label-phase1,3.2.4,MacIntel,60,left,1.318000078,4,0,4,0,1,3,1,0,240,41,1,239,,,,,,,,,,,,,,,,,,
,,1,19,,,,,,,1,6,2,stim/62.jpeg,HouseObjects,1,stim/objects/HouseObjects/match.png,0.5,1,-0.2,0.15,left,17,2020-12-01_12h08.39.646,premup-three_ses-01_part-01_label-phase1,3.2.4,MacIntel,60,left,1.131999969,4,0,4,0,1,3,1,0,240,53,1,239,,,,,,,,,,,,,,,,,,
,,1,20,,,,,,,3,3,4,stim/34.jpeg,Instruments,2,stim/objects/Instruments/oboe2.png,0.9,2,0.2,0.15,right,17,2020-12-01_12h08.39.646,premup-three_ses-01_part-01_label-phase1,3.2.4,MacIntel,60,right,1.24000001,4,0,4,0,1,3,1,0,240,175,1,239,,,,,,,,,,,,,,,,,,
,,1,21,,,,,,,1,5,2,stim/52.jpeg,Instruments,2,stim/objects/Instruments/laud.png,0.5,2,0.2,0.15,right,17,2020-12-01_12h08.39.646,premup-three_ses-01_part-01_label-phase1,3.2.4,MacIntel,60,right,1.238999844,4,0,4,0,1,3,1,0,240,29,1,239,,,,,,,,,,,,,,,,,,
,,1,22,,,,,,,2,1,3,stim/13.jpeg,Instruments,2,stim/objects/Instruments/record.png,0.7,2,0.2,0.15,right,17,2020-12-01_12h08.39.646,premup-three_ses-01_part-01_label-phase1,3.2.4,MacIntel,60,right,0.995000124,4,0,4,0,1,3,1,0,240,98,1,239,,,,,,,,,,,,,,,,,,
,,0,23,,,,,,,1,5,2,stim/52.jpeg,Instruments,2,stim/objects/Instruments/laud.png,0.5,4,0.2,-0.15,right,17,2020-12-01_12h08.39.646,premup-three_ses-01_part-01_label-phase1,3.2.4,MacIntel,60,left,1.30099988,4,0,4,0,1,3,1,0,240,37,1,239,,,,,,,,,,,,,,,,,,
,,1,24,,,,,,,1,5,2,stim/52.jpeg,HouseObjects,1,stim/objects/HouseObjects/ironingboard.png,0.5,3,-0.2,-0.15,left,17,2020-12-01_12h08.39.646,premup-three_ses-01_part-01_label-phase1,3.2.4,MacIntel,60,left,1.131999969,4,0,4,0,1,3,1,0,240,5,1,239,,,,,,,,,,,,,,,,,,
,,1,25,,,,,,,3,4,3,stim/43.jpeg,HouseObjects,1,stim/objects/HouseObjects/rubbergloves2.png,0.9,4,0.2,-0.15,left,17,2020-12-01_12h08.39.646,premup-three_ses-01_part-01_label-phase1,3.2.4,MacIntel,60,left,1.154999733,4,0,4,0,1,3,1,0,240,202,1,239,,,,,,,,,,,,,,,,,,
,,0,26,,,,,,,2,1,4,stim/14.jpeg,Instruments,2,stim/objects/Instruments/record_player.png,0.7,3,-0.2,-0.15,right,17,2020-12-01_12h08.39.646,premup-three_ses-01_part-01_label-phase1,3.2.4,MacIntel,60,left,1.144999981,4,0,4,0,1,3,1,0,240,111,1,239,,,,,,,,,,,,,,,,,,
,,0,27,,,,,,,1,5,4,stim/54.jpeg,Instruments,2,stim/objects/Instruments/marimba.png,0.5,3,-0.2,-0.15,right,17,2020-12-01_12h08.39.646,premup-three_ses-01_part-01_label-phase1,3.2.4,MacIntel,60,left,1.078000069,4,0,4,0,1,3,1,0,240,31,1,239,,,,,,,,,,,,,,,,,,
,,1,28,,,,,,,2,2,1,stim/21.jpeg,Instruments,2,stim/objects/Instruments/keyboard2.png,0.3,4,0.2,-0.15,right,17,2020-12-01_12h08.39.646,premup-three_ses-01_part-01_label-phase1,3.2.4,MacIntel,60,right,1.030999899,4,0,4,0,1,3,1,0,240,152,1,239,,,,,,,,,,,,,,,,,,
,,1,29,,,,,,,1,5,2,stim/52.jpeg,Instruments,2,stim/objects/Instruments/laud.png,0.5,2,0.2,0.15,right,17,2020-12-01_12h08.39.646,premup-three_ses-01_part-01_label-phase1,3.2.4,MacIntel,60,right,1.058000088,4,0,4,0,1,3,1,0,240,21,1,239,,,,,,,,,,,,,,,,,,
,,0,30,,,,,,,1,6,4,stim/64.jpeg,HouseObjects,1,stim/objects/HouseObjects/pitcher.png,0.5,4,0.2,-0.15,left,17,2020-12-01_12h08.39.646,premup-three_ses-01_part-01_label-phase1,3.2.4,MacIntel,60,right,0.987999916,4,0,4,0,1,3,1,0,240,51,1,239,,,,,,,,,,,,,,,,,,
,,0,31,,,,,,,2,1,4,stim/14.jpeg,Instruments,2,stim/objects/Instruments/record_player.png,0.7,3,-0.2,-0.15,right,17,2020-12-01_12h08.39.646,premup-three_ses-01_part-01_label-phase1,3.2.4,MacIntel,60,left,1.046000004,4,0,4,0,1,3,1,0,240,103,1,239,,,,,,,,,,,,,,,,,,
,,1,32,,,,,,,3,3,4,stim/34.jpeg,Instruments,2,stim/objects/Instruments/oboe2.png,0.9,1,-0.2,0.15,right,17,2020-12-01_12h08.39.646,premup-three_ses-01_part-01_label-phase1,3.2.4,MacIntel,60,right,0.858999968,4,0,4,0,1,3,1,0,240,183,1,239,,,,,,,,,,,,,,,,,,
,,0,33,,,,,,,3,4,3,stim/43.jpeg,Instruments,2,stim/objects/Instruments/record2.png,0.1,3,-0.2,-0.15,right,17,2020-12-01_12h08.39.646,premup-three_ses-01_part-01_label-phase1,3.2.4,MacIntel,60,left,1.039000034,4,0,4,0,1,3,1,0,240,238,1,239,,,,,,,,,,,,,,,,,,
,,1,34,,,,,,,1,6,1,stim/61.jpeg,Instruments,2,stim/objects/Instruments/metronome.png,0.5,3,-0.2,-0.15,right,17,2020-12-01_12h08.39.646,premup-three_ses-01_part-01_label-phase1,3.2.4,MacIntel,60,right,1.167999983,4,0,4,0,1,3,1,0,240,68,1,239,,,,,,,,,,,,,,,,,,
,,1,35,,,,,,,3,3,1,stim/31.jpeg,Instruments,2,stim/objects/Instruments/metronome2.png,0.9,1,-0.2,0.15,right,17,2020-12-01_12h08.39.646,premup-three_ses-01_part-01_label-phase1,3.2.4,MacIntel,60,right,0.937999964,4,0,4,0,1,3,1,0,240,172,1,239,,,,,,,,,,,,,,,,,,
,,0,36,,,,,,,2,2,1,stim/21.jpeg,Instruments,2,stim/objects/Instruments/keyboard2.png,0.3,2,0.2,0.15,right,17,2020-12-01_12h08.39.646,premup-three_ses-01_part-01_label-phase1,3.2.4,MacIntel,60,left,1.487999916,4,0,4,0,1,3,1,0,240,148,1,239,,,,,,,,,,,,,,,,,,
,,1,37,,,,,,,3,4,2,stim/42.jpeg,HouseObjects,1,stim/objects/HouseObjects/remote2.png,0.9,3,-0.2,-0.15,left,17,2020-12-01_12h08.39.646,premup-three_ses-01_part-01_label-phase1,3.2.4,MacIntel,60,left,1.41899991,4,0,4,0,1,3,1,0,240,205,1,239,,,,,,,,,,,,,,,,,,
,,0,38,,,,,,,1,6,2,stim/62.jpeg,Instruments,2,stim/objects/Instruments/musicsheet.png,0.5,2,0.2,0.15,right,17,2020-12-01_12h08.39.646,premup-three_ses-01_part-01_label-phase1,3.2.4,MacIntel,60,left,1.520999908,4,0,4,0,1,3,1,0,240,77,1,239,,,,,,,,,,,,,,,,,,
,,1,39,,,,,,,1,5,3,stim/53.jpeg,Instruments,2,stim/objects/Instruments/maraca.png,0.5,2,0.2,0.15,right,17,2020-12-01_12h08.39.646,premup-three_ses-01_part-01_label-phase1,3.2.4,MacIntel,60,right,1.220000029,4,0,4,0,1,3,1,0,240,34,1,239,,,,,,,,,,,,,,,,,,
,,0,40,,,,,,,1,5,1,stim/51.jpeg,HouseObjects,1,stim/objects/HouseObjects/iron.png,0.5,2,0.2,0.15,left,17,2020-12-01_12h08.39.646,premup-three_ses-01_part-01_label-phase1,3.2.4,MacIntel,60,right,0.900999784,4,0,4,0,1,3,1,0,240,12,1,239,,,,,,,,,,,,,,,,,,
,,1,41,,,,,,,1,5,1,stim/51.jpeg,HouseObjects,1,stim/objects/HouseObjects/iron.png,0.5,3,-0.2,-0.15,left,17,2020-12-01_12h08.39.646,premup-three_ses-01_part-01_label-phase1,3.2.4,MacIntel,60,left,1.03399992,4,0,4,0,1,3,1,0,240,0,1,239,,,,,,,,,,,,,,,,,,
,,1,42,,,,,,,2,2,1,stim/21.jpeg,HouseObjects,1,stim/objects/HouseObjects/iron2.png,0.7,1,-0.2,0.15,left,17,2020-12-01_12h08.39.646,premup-three_ses-01_part-01_label-phase1,3.2.4,MacIntel,60,left,0.885999918,4,0,4,0,1,3,1,0,240,136,1,239,,,,,,,,,,,,,,,,,,
,,0,43,,,,,,,1,6,4,stim/64.jpeg,Instruments,2,stim/objects/Instruments/oboe.png,0.5,1,-0.2,0.15,right,17,2020-12-01_12h08.39.646,premup-three_ses-01_part-01_label-phase1,3.2.4,MacIntel,60,left,1.151000023,4,0,4,0,1,3,1,0,240,71,1,239,,,,,,,,,,,,,,,,,,
,,1,44,,,,,,,1,5,3,stim/53.jpeg,HouseObjects,1,stim/objects/HouseObjects/key.png,0.5,1,-0.2,0.15,left,17,2020-12-01_12h08.39.646,premup-three_ses-01_part-01_label-phase1,3.2.4,MacIntel,60,left,1.02699995,4,0,4,0,1,3,1,0,240,2,1,239,,,,,,,,,,,,,,,,,,
,,1,45,,,,,,,1,6,3,stim/63.jpeg,HouseObjects,1,stim/objects/HouseObjects/pan.png,0.5,3,-0.2,-0.15,left,17,2020-12-01_12h08.39.646,premup-three_ses-01_part-01_label-phase1,3.2.4,MacIntel,60,left,0.77699995,4,0,4,0,1,3,1,0,240,54,1,239,,,,,,,,,,,,,,,,,,
,,0,46,,,,,,,2,2,4,stim/24.jpeg,HouseObjects,1,stim/objects/HouseObjects/knife2.png,0.7,2,0.2,0.15,left,17,2020-12-01_12h08.39.646,premup-three_ses-01_part-01_label-phase1,3.2.4,MacIntel,60,right,1.072999954,4,0,4,0,1,3,1,0,240,131,1,239,,,,,,,,,,,,,,,,,,
,,1,47,,,,,,,1,5,1,stim/51.jpeg,Instruments,2,stim/objects/Instruments/keyboard.png,0.5,4,0.2,-0.15,right,17,2020-12-01_12h08.39.646,premup-three_ses-01_part-01_label-phase1,3.2.4,MacIntel,60,right,0.92599988,4,0,4,0,1,3,1,0,240,20,1,239,,,,,,,,,,,,,,,,,,
,,1,48,,,,,,,2,1,3,stim/13.jpeg,HouseObjects,1,stim/objects/HouseObjects/rubbergloves.png,0.3,1,-0.2,0.15,left,17,2020-12-01_12h08.39.646,premup-three_ses-01_part-01_label-phase1,3.2.4,MacIntel,60,left,1.047999859,4,0,4,0,1,3,1,0,240,90,1,239,,,,,,,,,,,,,,,,,,
,,0,49,,,,,,,2,1,1,stim/11.jpeg,Instruments,2,stim/objects/Instruments/panflute.png,0.7,1,-0.2,0.15,right,17,2020-12-01_12h08.39.646,premup-three_ses-01_part-01_label-phase1,3.2.4,MacIntel,60,left,0.845000029,4,0,4,0,1,3,1,0,240,92,1,239,,,,,,,,,,,,,,,,,,
,,0,50,,,,,,,1,5,2,stim/52.jpeg,HouseObjects,1,stim/objects/HouseObjects/ironingboard.png,0.5,2,0.2,0.15,left,17,2020-12-01_12h08.39.646,premup-three_ses-01_part-01_label-phase1,3.2.4,MacIntel,60,right,1.049999952,4,0,4,0,1,3,1,0,240,17,1,239,,,,,,,,,,,,,,,,,,
,,1,51,,,,,,,1,5,1,stim/51.jpeg,Instruments,2,stim/objects/Instruments/keyboard.png,0.5,4,0.2,-0.15,right,17,2020-12-01_12h08.39.646,premup-three_ses-01_part-01_label-phase1,3.2.4,MacIntel,60,right,0.937999964,4,0,4,0,1,3,1,0,240,36,1,239,,,,,,,,,,,,,,,,,,
,,0,52,,,,,,,2,1,2,stim/12.jpeg,Instruments,2,stim/objects/Instruments/pipepiano.png,0.7,3,-0.2,-0.15,right,17,2020-12-01_12h08.39.646,premup-three_ses-01_part-01_label-phase1,3.2.4,MacIntel,60,left,1.335000038,4,0,4,0,1,3,1,0,240,97,1,239,,,,,,,,,,,,,,,,,,
,,0,53,,,,,,,1,6,1,stim/61.jpeg,Instruments,2,stim/objects/Instruments/metronome.png,0.5,3,-0.2,-0.15,right,17,2020-12-01_12h08.39.646,premup-three_ses-01_part-01_label-phase1,3.2.4,MacIntel,60,left,1.463999987,4,0,4,0,1,3,1,0,240,76,1,239,,,,,,,,,,,,,,,,,,
,,1,54,,,,,,,3,3,1,stim/31.jpeg,Instruments,2,stim/objects/Instruments/metronome2.png,0.9,2,0.2,0.15,right,17,2020-12-01_12h08.39.646,premup-three_ses-01_part-01_label-phase1,3.2.4,MacIntel,60,right,1.236000061,4,0,4,0,1,3,1,0,240,176,1,239,,,,,,,,,,,,,,,,,,
,,1,55,,,,,,,2,2,4,stim/24.jpeg,HouseObjects,1,stim/objects/HouseObjects/knife2.png,0.7,4,0.2,-0.15,left,17,2020-12-01_12h08.39.646,premup-three_ses-01_part-01_label-phase1,3.2.4,MacIntel,60,left,0.788000107,4,0,4,0,1,3,1,0,240,123,1,239,,,,,,,,,,,,,,,,,,
,,1,56,,,,,,,3,3,2,stim/32.jpeg,Instruments,2,stim/objects/Instruments/musicsheet2.png,0.9,3,-0.2,-0.15,right,17,2020-12-01_12h08.39.646,premup-three_ses-01_part-01_label-phase1,3.2.4,MacIntel,60,right,1.02699995,4,0,4,0,1,3,1,0,240,169,1,239,,,,,,,,,,,,,,,,,,
,,1,57,,,,,,,2,1,4,stim/14.jpeg,Instruments,2,stim/objects/Instruments/record_player.png,0.7,2,0.2,0.15,right,17,2020-12-01_12h08.39.646,premup-three_ses-01_part-01_label-phase1,3.2.4,MacIntel,60,right,1.15199995,4,0,4,0,1,3,1,0,240,107,1,239,,,,,,,,,,,,,,,,,,
,,0,58,,,,,,,3,3,2,stim/32.jpeg,HouseObjects,1,stim/objects/HouseObjects/match2.png,0.1,4,0.2,-0.15,left,17,2020-12-01_12h08.39.646,premup-three_ses-01_part-01_label-phase1,3.2.4,MacIntel,60,right,0.652999878,4,0,4,0,1,3,1,0,240,161,1,239,,,,,,,,,,,,,,,,,,
,,1,59,,,,,,,3,3,4,stim/34.jpeg,Instruments,2,stim/objects/Instruments/oboe2.png,0.9,4,0.2,-0.15,right,17,2020-12-01_12h08.39.646,premup-three_ses-01_part-01_label-phase1,3.2.4,MacIntel,60,right,1.079999924,4,0,4,0,1,3,1,0,240,179,1,239,,,,,,,,,,,,,,,,,,
,,1,60,,,,,,,2,1,3,stim/13.jpeg,Instruments,2,stim/objects/Instruments/record.png,0.7,4,0.2,-0.15,right,17,2020-12-01_12h08.39.646,premup-three_ses-01_part-01_label-phase1,3.2.4,MacIntel,60,right,0.998999834,4,0,4,0,1,3,1,0,240,110,1,239,,,,,,,,,,,,,,,,,,
,,0,61,,,,,,,1,6,2,stim/62.jpeg,Instruments,2,stim/objects/Instruments/musicsheet.png,0.5,4,0.2,-0.15,right,17,2020-12-01_12h08.39.646,premup-three_ses-01_part-01_label-phase1,3.2.4,MacIntel,60,left,0.954999924,4,0,4,0,1,3,1,0,240,61,1,239,,,,,,,,,,,,,,,,,,
,,1,62,,,,,,,3,3,4,stim/34.jpeg,Instruments,2,stim/objects/Instruments/oboe2.png,0.9,2,0.2,0.15,right,17,2020-12-01_12h08.39.646,premup-three_ses-01_part-01_label-phase1,3.2.4,MacIntel,60,right,1.104000092,4,0,4,0,1,3,1,0,240,171,1,239,,,,,,,,,,,,,,,,,,
,,1,63,,,,,,,2,2,4,stim/24.jpeg,HouseObjects,1,stim/objects/HouseObjects/knife2.png,0.7,3,-0.2,-0.15,left,17,2020-12-01_12h08.39.646,premup-three_ses-01_part-01_label-phase1,3.2.4,MacIntel,60,left,1.131999969,4,0,4,0,1,3,1,0,240,143,1,239,,,,,,,,,,,,,,,,,,
,,0,64,,,,,,,3,3,1,stim/31.jpeg,Instruments,2,stim/objects/Instruments/metronome2.png,0.9,1,-0.2,0.15,right,17,2020-12-01_12h08.39.646,premup-three_ses-01_part-01_label-phase1,3.2.4,MacIntel,60,left,1.109999895,4,0,4,0,1,3,1,0,240,164,1,239,,,,,,,,,,,,,,,,,,
,,1,65,,,,,,,2,1,1,stim/11.jpeg,Instruments,2,stim/objects/Instruments/panflute.png,0.7,2,0.2,0.15,right,17,2020-12-01_12h08.39.646,premup-three_ses-01_part-01_label-phase1,3.2.4,MacIntel,60,right,0.893000126,4,0,4,0,1,3,1,0,240,112,1,239,,,,,,,,,,,,,,,,,,
,,0,66,,,,,,,1,6,4,stim/64.jpeg,HouseObjects,1,stim/objects/HouseObjects/pitcher.png,0.5,3,-0.2,-0.15,left,17,2020-12-01_12h08.39.646,premup-three_ses-01_part-01_label-phase1,3.2.4,MacIntel,60,right,1.320999861,4,0,4,0,1,3,1,0,240,47,1,239,,,,,,,,,,,,,,,,,,
,,1,67,,,,,,,3,4,2,stim/42.jpeg,HouseObjects,1,stim/objects/HouseObjects/remote2.png,0.9,2,0.2,0.15,left,17,2020-12-01_12h08.39.646,premup-three_ses-01_part-01_label-phase1,3.2.4,MacIntel,60,left,1.18599987,4,0,4,0,1,3,1,0,240,225,1,239,,,,,,,,,,,,,,,,,,
,,0,68,,,,,,,1,6,4,stim/64.jpeg,Instruments,2,stim/objects/Instruments/oboe.png,0.5,3,-0.2,-0.15,right,17,2020-12-01_12h08.39.646,premup-three_ses-01_part-01_label-phase1,3.2.4,MacIntel,60,left,0.572000027,4,0,4,0,1,3,1,0,240,75,1,239,,,,,,,,,,,,,,,,,,
,,0,69,,,,,,,2,1,2,stim/12.jpeg,Instruments,2,stim/objects/Instruments/pipepiano.png,0.7,3,-0.2,-0.15,right,17,2020-12-01_12h08.39.646,premup-three_ses-01_part-01_label-phase1,3.2.4,MacIntel,60,left,1.17599988,4,0,4,0,1,3,1,0,240,101,1,239,,,,,,,,,,,,,,,,,,
,,1,70,,,,,,,3,3,3,stim/33.jpeg,Instruments,2,stim/objects/Instruments/musicstand2.png,0.9,2,0.2,0.15,right,17,2020-12-01_12h08.39.646,premup-three_ses-01_part-01_label-phase1,3.2.4,MacIntel,60,right,1.256000042,4,0,4,0,1,3,1,0,240,166,1,239,,,,,,,,,,,,,,,,,,
,,0,71,,,,,,,1,6,3,stim/63.jpeg,HouseObjects,1,stim/objects/HouseObjects/pan.png,0.5,4,0.2,-0.15,left,17,2020-12-01_12h08.39.646,premup-three_ses-01_part-01_label-phase1,3.2.4,MacIntel,60,right,1.101999998,4,0,4,0,1,3,1,0,240,46,1,239,,,,,,,,,,,,,,,,,,
,,1,72,,,,,,,2,2,3,stim/23.jpeg,HouseObjects,1,stim/objects/HouseObjects/key2.png,0.7,2,0.2,0.15,left,17,2020-12-01_12h08.39.646,premup-three_ses-01_part-01_label-phase1,3.2.4,MacIntel,60,left,1.349999905,4,0,4,0,1,3,1,0,240,134,1,239,,,,,,,,,,,,,,,,,,
,,0,73,,,,,,,1,5,2,stim/52.jpeg,HouseObjects,1,stim/objects/HouseObjects/ironingboard.png,0.5,2,0.2,0.15,left,17,2020-12-01_12h08.39.646,premup-three_ses-01_part-01_label-phase1,3.2.4,MacIntel,60,right,1.116999865,4,0,4,0,1,3,1,0,240,9,1,239,,,,,,,,,,,,,,,,,,
,,1,74,,,,,,,3,3,4,stim/34.jpeg,HouseObjects,1,stim/objects/HouseObjects/pitcher2.png,0.1,3,-0.2,-0.15,left,17,2020-12-01_12h08.39.646,premup-three_ses-01_part-01_label-phase1,3.2.4,MacIntel,60,left,0.778999805,4,0,4,0,1,3,1,0,240,163,1,239,,,,,,,,,,,,,,,,,,
,,1,75,,,,,,,2,2,2,stim/22.jpeg,HouseObjects,1,stim/objects/HouseObjects/ironingboard2.png,0.7,3,-0.2,-0.15,left,17,2020-12-01_12h08.39.646,premup-three_ses-01_part-01_label-phase1,3.2.4,MacIntel,60,left,0.769999981,4,0,4,0,1,3,1,0,240,129,1,239,,,,,,,,,,,,,,,,,,
,,1,76,,,,,,,3,4,4,stim/44.jpeg,HouseObjects,1,stim/objects/HouseObjects/rug2.png,0.9,2,0.2,0.15,left,17,2020-12-01_12h08.39.646,premup-three_ses-01_part-01_label-phase1,3.2.4,MacIntel,60,left,1.090999842,4,0,4,0,1,3,1,0,240,219,1,239,,,,,,,,,,,,,,,,,,
,,1,77,,,,,,,3,4,4,stim/44.jpeg,HouseObjects,1,stim/objects/HouseObjects/rug2.png,0.9,1,-0.2,0.15,left,17,2020-12-01_12h08.39.646,premup-three_ses-01_part-01_label-phase1,3.2.4,MacIntel,60,left,0.861999989,4,0,4,0,1,3,1,0,240,207,1,239,,,,,,,,,,,,,,,,,,
,,0,78,,,,,,,2,2,3,stim/23.jpeg,Instruments,2,stim/objects/Instruments/maraca2.png,0.3,1,-0.2,0.15,right,17,2020-12-01_12h08.39.646,premup-three_ses-01_part-01_label-phase1,3.2.4,MacIntel,60,left,0.892999887,4,0,4,0,1,3,1,0,240,150,1,239,,,,,,,,,,,,,,,,,,
,,1,79,,,,,,,3,4,1,stim/41.jpeg,HouseObjects,1,stim/objects/HouseObjects/recyclingbin2.png,0.9,3,-0.2,-0.15,left,17,2020-12-01_12h08.39.646,premup-three_ses-01_part-01_label-phase1,3.2.4,MacIntel,60,left,0.759000063,4,0,4,0,1,3,1,0,240,232,1,239,,,,,,,,,,,,,,,,,,
,,1,80,,,,,,,3,3,3,stim/33.jpeg,Instruments,2,stim/objects/Instruments/musicstand2.png,0.9,4,0.2,-0.15,right,17,2020-12-01_12h08.39.646,premup-three_ses-01_part-01_label-phase1,3.2.4,MacIntel,60,right,0.857999802,4,0,4,0,1,3,1,0,240,178,1,239,,,,,,,,,,,,,,,,,,
,,1,81,,,,,,,3,4,2,stim/42.jpeg,HouseObjects,1,stim/objects/HouseObjects/remote2.png,0.9,1,-0.2,0.15,left,17,2020-12-01_12h08.39.646,premup-three_ses-01_part-01_label-phase1,3.2.4,MacIntel,60,left,0.887999773,4,0,4,0,1,3,1,0,240,233,1,239,,,,,,,,,,,,,,,,,,
,,1,82,,,,,,,2,2,2,stim/22.jpeg,Instruments,2,stim/objects/Instruments/laud2.png,0.3,4,0.2,-0.15,right,17,2020-12-01_12h08.39.646,premup-three_ses-01_part-01_label-phase1,3.2.4,MacIntel,60,right,1.177999973,4,0,4,0,1,3,1,0,240,149,1,239,,,,,,,,,,,,,,,,,,
,,1,83,,,,,,,2,2,1,stim/21.jpeg,HouseObjects,1,stim/objects/HouseObjects/iron2.png,0.7,3,-0.2,-0.15,left,17,2020-12-01_12h08.39.646,premup-three_ses-01_part-01_label-phase1,3.2.4,MacIntel,60,left,1.09100008,4,0,4,0,1,3,1,0,240,140,1,239,,,,,,,,,,,,,,,,,,
,,0,84,,,,,,,3,3,4,stim/34.jpeg,Instruments,2,stim/objects/Instruments/oboe2.png,0.9,3,-0.2,-0.15,right,17,2020-12-01_12h08.39.646,premup-three_ses-01_part-01_label-phase1,3.2.4,MacIntel,60,left,0.854999781,4,0,4,0,1,3,1,0,240,195,1,239,,,,,,,,,,,,,,,,,,
,,1,85,,,,,,,1,5,2,stim/52.jpeg,HouseObjects,1,stim/objects/HouseObjects/ironingboard.png,0.5,2,0.2,0.15,left,17,2020-12-01_12h08.39.646,premup-three_ses-01_part-01_label-phase1,3.2.4,MacIntel,60,left,1.289999962,4,0,4,0,1,3,1,0,240,1,1,239,,,,,,,,,,,,,,,,,,
,,1,86,,,,,,,3,3,2,stim/32.jpeg,Instruments,2,stim/objects/Instruments/musicsheet2.png,0.9,4,0.2,-0.15,right,17,2020-12-01_12h08.39.646,premup-three_ses-01_part-01_label-phase1,3.2.4,MacIntel,60,right,0.832000017,4,0,4,0,1,3,1,0,240,173,1,239,,,,,,,,,,,,,,,,,,
,,1,87,,,,,,,2,1,4,stim/14.jpeg,Instruments,2,stim/objects/Instruments/record_player.png,0.7,3,-0.2,-0.15,right,17,2020-12-01_12h08.39.646,premup-three_ses-01_part-01_label-phase1,3.2.4,MacIntel,60,right,1.328999996,4,0,4,0,1,3,1,0,240,95,1,239,,,,,,,,,,,,,,,,,,
,,1,88,,,,,,,2,1,1,stim/11.jpeg,Instruments,2,stim/objects/Instruments/panflute.png,0.7,2,0.2,0.15,right,17,2020-12-01_12h08.39.646,premup-three_ses-01_part-01_label-phase1,3.2.4,MacIntel,60,right,1.039999962,4,0,4,0,1,3,1,0,240,96,1,239,,,,,,,,,,,,,,,,,,
,,1,89,,,,,,,1,6,4,stim/64.jpeg,Instruments,2,stim/objects/Instruments/oboe.png,0.5,2,0.2,0.15,right,17,2020-12-01_12h08.39.646,premup-three_ses-01_part-01_label-phase1,3.2.4,MacIntel,60,right,1.026000023,4,0,4,0,1,3,1,0,240,67,1,239,,,,,,,,,,,,,,,,,,
,,1,90,,,,,,,1,5,1,stim/51.jpeg,Instruments,2,stim/objects/Instruments/keyboard.png,0.5,4,0.2,-0.15,right,17,2020-12-01_12h08.39.646,premup-three_ses-01_part-01_label-phase1,3.2.4,MacIntel,60,right,0.852999926,4,0,4,0,1,3,1,0,240,28,1,239,,,,,,,,,,,,,,,,,,
,,0,91,,,,,,,1,6,4,stim/64.jpeg,Instruments,2,stim/objects/Instruments/oboe.png,0.5,3,-0.2,-0.15,right,17,2020-12-01_12h08.39.646,premup-three_ses-01_part-01_label-phase1,3.2.4,MacIntel,60,left,1.028999805,4,0,4,0,1,3,1,0,240,63,1,239,,,,,,,,,,,,,,,,,,
,,1,92,,,,,,,2,1,4,stim/14.jpeg,HouseObjects,1,stim/objects/HouseObjects/rug.png,0.3,3,-0.2,-0.15,left,17,2020-12-01_12h08.39.646,premup-three_ses-01_part-01_label-phase1,3.2.4,MacIntel,60,left,1.364999771,4,0,4,0,1,3,1,0,240,91,1,239,,,,,,,,,,,,,,,,,,
,,1,93,,,,,,,2,2,3,stim/23.jpeg,HouseObjects,1,stim/objects/HouseObjects/key2.png,0.7,3,-0.2,-0.15,left,17,2020-12-01_12h08.39.646,premup-three_ses-01_part-01_label-phase1,3.2.4,MacIntel,60,left,1.120999813,4,0,4,0,1,3,1,0,240,142,1,239,,,,,,,,,,,,,,,,,,
,,0,94,,,,,,,2,2,2,stim/22.jpeg,Instruments,2,stim/objects/Instruments/laud2.png,0.3,3,-0.2,-0.15,right,17,2020-12-01_12h08.39.646,premup-three_ses-01_part-01_label-phase1,3.2.4,MacIntel,60,left,0.813999891,4,0,4,0,1,3,1,0,240,153,1,239,,,,,,,,,,,,,,,,,,
,,1,95,,,,,,,1,5,2,stim/52.jpeg,Instruments,2,stim/objects/Instruments/laud.png,0.5,4,0.2,-0.15,right,17,2020-12-01_12h08.39.646,premup-three_ses-01_part-01_label-phase1,3.2.4,MacIntel,60,right,1.145999908,4,0,4,0,1,3,1,0,240,33,1,239,,,,,,,,,,,,,,,,,,
,,1,96,,,,,,,1,6,2,stim/62.jpeg,Instruments,2,stim/objects/Instruments/musicsheet.png,0.5,2,0.2,0.15,right,17,2020-12-01_12h08.39.646,premup-three_ses-01_part-01_label-phase1,3.2.4,MacIntel,60,right,1.111000061,4,0,4,0,1,3,1,0,240,65,1,239,,,,,,,,,,,,,,,,,,
,,0,97,,,,,,,3,4,4,stim/44.jpeg,HouseObjects,1,stim/objects/HouseObjects/rug2.png,0.9,4,0.2,-0.15,left,17,2020-12-01_12h08.39.646,premup-three_ses-01_part-01_label-phase1,3.2.4,MacIntel,60,right,1.388999939,4,0,4,0,1,3,1,0,240,223,1,239,,,,,,,,,,,,,,,,,,
,,1,98,,,,,,,3,4,1,stim/41.jpeg,HouseObjects,1,stim/objects/HouseObjects/recyclingbin2.png,0.9,1,-0.2,0.15,left,17,2020-12-01_12h08.39.646,premup-three_ses-01_part-01_label-phase1,3.2.4,MacIntel,60,left,0.903999805,4,0,4,0,1,3,1,0,240,224,1,239,,,,,,,,,,,,,,,,,,
,,1,99,,,,,,,3,4,4,stim/44.jpeg,HouseObjects,1,stim/objects/HouseObjects/rug2.png,0.9,4,0.2,-0.15,left,17,2020-12-01_12h08.39.646,premup-three_ses-01_part-01_label-phase1,3.2.4,MacIntel,60,left,0.716999769,4,0,4,0,1,3,1,0,240,211,1,239,,,,,,,,,,,,,,,,,,
,,1,100,,,,,,,1,5,4,stim/54.jpeg,HouseObjects,1,stim/objects/HouseObjects/knife.png,0.5,2,0.2,0.15,left,17,2020-12-01_12h08.39.646,premup-three_ses-01_part-01_label-phase1,3.2.4,MacIntel,60,left,0.857000113,4,0,4,0,1,3,1,0,240,7,1,239,,,,,,,,,,,,,,,,,,
,,1,101,,,,,,,1,5,3,stim/53.jpeg,HouseObjects,1,stim/objects/HouseObjects/key.png,0.5,3,-0.2,-0.15,left,17,2020-12-01_12h08.39.646,premup-three_ses-01_part-01_label-phase1,3.2.4,MacIntel,60,left,0.809999943,4,0,4,0,1,3,1,0,240,10,1,239,,,,,,,,,,,,,,,,,,
,,0,102,,,,,,,1,6,2,stim/62.jpeg,Instruments,2,stim/objects/Instruments/musicsheet.png,0.5,1,-0.2,0.15,right,17,2020-12-01_12h08.39.646,premup-three_ses-01_part-01_label-phase1,3.2.4,MacIntel,60,left,1.068999767,4,0,4,0,1,3,1,0,240,73,1,239,,,,,,,,,,,,,,,,,,
,,1,103,,,,,,,3,4,3,stim/43.jpeg,HouseObjects,1,stim/objects/HouseObjects/rubbergloves2.png,0.9,3,-0.2,-0.15,left,17,2020-12-01_12h08.39.646,premup-three_ses-01_part-01_label-phase1,3.2.4,MacIntel,60,left,1.199999809,4,0,4,0,1,3,1,0,240,206,1,239,,,,,,,,,,,,,,,,,,
,,1,104,,,,,,,3,3,2,stim/32.jpeg,Instruments,2,stim/objects/Instruments/musicsheet2.png,0.9,3,-0.2,-0.15,right,17,2020-12-01_12h08.39.646,premup-three_ses-01_part-01_label-phase1,3.2.4,MacIntel,60,right,1.075999975,4,0,4,0,1,3,1,0,240,193,1,239,,,,,,,,,,,,,,,,,,
,,1,105,,,,,,,3,3,3,stim/33.jpeg,Instruments,2,stim/objects/Instruments/musicstand2.png,0.9,2,0.2,0.15,right,17,2020-12-01_12h08.39.646,premup-three_ses-01_part-01_label-phase1,3.2.4,MacIntel,60,right,1.014999866,4,0,4,0,1,3,1,0,240,174,1,239,,,,,,,,,,,,,,,,,,
,,1,106,,,,,,,2,2,2,stim/22.jpeg,HouseObjects,1,stim/objects/HouseObjects/ironingboard2.png,0.7,3,-0.2,-0.15,left,17,2020-12-01_12h08.39.646,premup-three_ses-01_part-01_label-phase1,3.2.4,MacIntel,60,left,0.915999889,4,0,4,0,1,3,1,0,240,121,1,239,,,,,,,,,,,,,,,,,,
,,0,107,,,,,,,3,4,1,stim/41.jpeg,Instruments,2,stim/objects/Instruments/panflute2.png,0.1,1,-0.2,0.15,right,17,2020-12-01_12h08.39.646,premup-three_ses-01_part-01_label-phase1,3.2.4,MacIntel,60,left,0.993000031,4,0,4,0,1,3,1,0,240,236,1,239,,,,,,,,,,,,,,,,,,
,,0,108,,,,,,,2,2,4,stim/24.jpeg,Instruments,2,stim/objects/Instruments/marimba2.png,0.3,3,-0.2,-0.15,right,17,2020-12-01_12h08.39.646,premup-three_ses-01_part-01_label-phase1,3.2.4,MacIntel,60,left,0.826999903,4,0,4,0,1,3,1,0,240,151,1,239,,,,,,,,,,,,,,,,,,
,,0,109,,,,,,,2,1,1,stim/11.jpeg,Instruments,2,stim/objects/Instruments/panflute.png,0.7,3,-0.2,-0.15,right,17,2020-12-01_12h08.39.646,premup-three_ses-01_part-01_label-phase1,3.2.4,MacIntel,60,left,1.213999987,4,0,4,0,1,3,1,0,240,100,1,239,,,,,,,,,,,,,,,,,,
,,0,110,,,,,,,1,5,4,stim/54.jpeg,Instruments,2,stim/objects/Instruments/marimba.png,0.5,2,0.2,0.15,right,17,2020-12-01_12h08.39.646,premup-three_ses-01_part-01_label-phase1,3.2.4,MacIntel,60,left,0.932999849,4,0,4,0,1,3,1,0,240,27,1,239,,,,,,,,,,,,,,,,,,
,,1,111,,,,,,,3,4,2,stim/42.jpeg,HouseObjects,1,stim/objects/HouseObjects/remote2.png,0.9,1,-0.2,0.15,left,17,2020-12-01_12h08.39.646,premup-three_ses-01_part-01_label-phase1,3.2.4,MacIntel,60,left,0.953000069,4,0,4,0,1,3,1,0,240,201,1,239,,,,,,,,,,,,,,,,,,
,,1,112,,,,,,,2,1,1,stim/11.jpeg,HouseObjects,1,stim/objects/HouseObjects/recyclingbin.png,0.3,1,-0.2,0.15,left,17,2020-12-01_12h08.39.646,premup-three_ses-01_part-01_label-phase1,3.2.4,MacIntel,60,left,0.965999842,4,0,4,0,1,3,1,0,240,80,1,239,,,,,,,,,,,,,,,,,,
,,1,113,,,,,,,2,2,2,stim/22.jpeg,Instruments,2,stim/objects/Instruments/laud2.png,0.3,4,0.2,-0.15,right,17,2020-12-01_12h08.39.646,premup-three_ses-01_part-01_label-phase1,3.2.4,MacIntel,60,right,0.890999794,4,0,4,0,1,3,1,0,240,157,1,239,,,,,,,,,,,,,,,,,,
,,1,114,,,,,,,2,2,3,stim/23.jpeg,HouseObjects,1,stim/objects/HouseObjects/key2.png,0.7,3,-0.2,-0.15,left,17,2020-12-01_12h08.39.646,premup-three_ses-01_part-01_label-phase1,3.2.4,MacIntel,60,left,0.787999868,4,0,4,0,1,3,1,0,240,130,1,239,,,,,,,,,,,,,,,,,,
,,0,115,,,,,,,3,4,2,stim/42.jpeg,HouseObjects,1,stim/objects/HouseObjects/remote2.png,0.9,2,0.2,0.15,left,17,2020-12-01_12h08.39.646,premup-three_ses-01_part-01_label-phase1,3.2.4,MacIntel,60,right,0.861000061,4,0,4,0,1,3,1,0,240,213,1,239,,,,,,,,,,,,,,,,,,
,,1,116,,,,,,,2,2,4,stim/24.jpeg,HouseObjects,1,stim/objects/HouseObjects/knife2.png,0.7,3,-0.2,-0.15,left,17,2020-12-01_12h08.39.646,premup-three_ses-01_part-01_label-phase1,3.2.4,MacIntel,60,left,0.926999807,4,0,4,0,1,3,1,0,240,139,1,239,,,,,,,,,,,,,,,,,,
,,0,117,,,,,,,1,6,1,stim/61.jpeg,HouseObjects,1,stim/objects/HouseObjects/lintroller.png,0.5,4,0.2,-0.15,left,17,2020-12-01_12h08.39.646,premup-three_ses-01_part-01_label-phase1,3.2.4,MacIntel,60,right,0.814999819,4,0,4,0,1,3,1,0,240,44,1,239,,,,,,,,,,,,,,,,,,
,,0,118,,,,,,,3,3,4,stim/34.jpeg,Instruments,2,stim/objects/Instruments/oboe2.png,0.9,3,-0.2,-0.15,right,17,2020-12-01_12h08.39.646,premup-three_ses-01_part-01_label-phase1,3.2.4,MacIntel,60,left,1.467999935,4,0,4,0,1,3,1,0,240,191,1,239,,,,,,,,,,,,,,,,,,
,,1,119,,,,,,,1,5,2,stim/52.jpeg,HouseObjects,1,stim/objects/HouseObjects/ironingboard.png,0.5,1,-0.2,0.15,left,17,2020-12-01_12h08.39.646,premup-three_ses-01_part-01_label-phase1,3.2.4,MacIntel,60,left,0.874000072,4,0,4,0,1,3,1,0,240,13,1,239,,,,,,,,,,,,,,,,,,
,,0,120,,,,,,,2,1,4,stim/14.jpeg,Instruments,2,stim/objects/Instruments/record_player.png,0.7,4,0.2,-0.15,right,17,2020-12-01_12h08.39.646,premup-three_ses-01_part-01_label-phase1,3.2.4,MacIntel,60,left,1.020999908,4,0,4,0,1,3,1,0,240,119,1,239,,,,,,,,,,,,,,,,,,
,,1,121,,,,,,,1,5,4,stim/54.jpeg,HouseObjects,1,stim/objects/HouseObjects/knife.png,0.5,4,0.2,-0.15,left,17,2020-12-01_12h08.39.646,premup-three_ses-01_part-01_label-phase1,3.2.4,MacIntel,60,left,1.107999802,4,0,4,0,1,3,1,0,240,3,1,239,,,,,,,,,,,,,,,,,,
,,1,122,,,,,,,3,3,3,stim/33.jpeg,Instruments,2,stim/objects/Instruments/musicstand2.png,0.9,2,0.2,0.15,right,17,2020-12-01_12h08.39.646,premup-three_ses-01_part-01_label-phase1,3.2.4,MacIntel,60,right,1.112999916,4,0,4,0,1,3,1,0,240,198,1,239,,,,,,,,,,,,,,,,,,
,,0,123,,,,,,,2,1,2,stim/12.jpeg,Instruments,2,stim/objects/Instruments/pipepiano.png,0.7,1,-0.2,0.15,right,17,2020-12-01_12h08.39.646,premup-three_ses-01_part-01_label-phase1,3.2.4,MacIntel,60,left,1.040999889,4,0,4,0,1,3,1,0,240,93,1,239,,,,,,,,,,,,,,,,,,
,,1,124,,,,,,,3,3,1,stim/31.jpeg,Instruments,2,stim/objects/Instruments/metronome2.png,0.9,3,-0.2,-0.15,right,17,2020-12-01_12h08.39.646,premup-three_ses-01_part-01_label-phase1,3.2.4,MacIntel,60,right,1.174000025,4,0,4,0,1,3,1,0,240,192,1,239,,,,,,,,,,,,,,,,,,
,,1,125,,,,,,,1,6,3,stim/63.jpeg,HouseObjects,1,stim/objects/HouseObjects/pan.png,0.5,1,-0.2,0.15,left,17,2020-12-01_12h08.39.646,premup-three_ses-01_part-01_label-phase1,3.2.4,MacIntel,60,left,1.0849998,4,0,4,0,1,3,1,0,240,42,1,239,,,,,,,,,,,,,,,,,,
,,1,126,,,,,,,1,5,1,stim/51.jpeg,HouseObjects,1,stim/objects/HouseObjects/iron.png,0.5,1,-0.2,0.15,left,17,2020-12-01_12h08.39.646,premup-three_ses-01_part-01_label-phase1,3.2.4,MacIntel,60,left,1.002999783,4,0,4,0,1,3,1,0,240,16,1,239,,,,,,,,,,,,,,,,,,
,,1,127,,,,,,,2,1,3,stim/13.jpeg,Instruments,2,stim/objects/Instruments/record.png,0.7,4,0.2,-0.15,right,17,2020-12-01_12h08.39.646,premup-three_ses-01_part-01_label-phase1,3.2.4,MacIntel,60,right,0.930999756,4,0,4,0,1,3,1,0,240,106,1,239,,,,,,,,,,,,,,,,,,
,,1,128,,,,,,,3,4,1,stim/41.jpeg,HouseObjects,1,stim/objects/HouseObjects/recyclingbin2.png,0.9,1,-0.2,0.15,left,17,2020-12-01_12h08.39.646,premup-three_ses-01_part-01_label-phase1,3.2.4,MacIntel,60,left,0.89199996,4,0,4,0,1,3,1,0,240,200,1,239,,,,,,,,,,,,,,,,,,
,,0,129,,,,,,,2,1,2,stim/12.jpeg,Instruments,2,stim/objects/Instruments/pipepiano.png,0.7,1,-0.2,0.15,right,17,2020-12-01_12h08.39.646,premup-three_ses-01_part-01_label-phase1,3.2.4,MacIntel,60,left,0.739999771,4,0,4,0,1,3,1,0,240,113,1,239,,,,,,,,,,,,,,,,,,
