key_resp_trial.keys,key_resp_trial.rt,trial_acc,trial_index,iterations.thisRepN,iterations.thisTrialN,iterations.thisN,iterations.thisIndex,iterations.ran,iterations.order,task_innerloop.thisRepN,task_innerloop.thisTrialN,task_innerloop.thisN,task_innerloop.thisIndex,task_innerloop.ran,task_innerloop.order,scn_condition,scn_cat,scn_inst,scn_file,obj_cat,obj_cat_num,obj_file,trial_cond,quadrant,obj_x,obj_y,corr_ans,participant,date,expName,psychopyVersion,OS,frameRate,slider.response,slider.rt,slider_2.response,slider_2.rt,ratings.thisRepN,ratings.thisTrialN,ratings.thisN,ratings.thisIndex,ratings.ran,ratings.order,obj_cat_top,min_resp_top,max_resp_top,obj_cat_bottom,min_resp_bottom,max_resp_bottom,enc_trials.thisRepN,enc_trials.thisTrialN,enc_trials.thisN,enc_trials.thisIndex,enc_trials.ran,enc_trials.order,fillers,ratings_final.thisRepN,ratings_final.thisTrialN,ratings_final.thisN,ratings_final.thisIndex,ratings_final.ran,ratings_final.order
left,0.746999979,0,1,1,0,1,0,1,0,1,0,240,36,1,239,1,1,1,stim/11.jpeg,Instruments,2,stim/objects/Instruments/accordion.png,0.5,3,-0.2,-0.15,right,10,2020-12-16_12h35.20.862,premup-three_ses-02_part-02_label-phase2,3.2.4,Win32,60,,,,,,,,,,,,,,,,,,,,,,,,,,,,,
right,0.608999968,0,2,1,0,1,0,1,0,1,0,240,222,1,239,3,6,3,stim/63.jpeg,HouseObjects,1,stim/objects/HouseObjects/clothesdryingrack2.png,0.9,4,0.2,-0.15,left,10,2020-12-16_12h35.20.862,premup-three_ses-02_part-02_label-phase2,3.2.4,Win32,60,,,,,,,,,,,,,,,,,,,,,,,,,,,,,
left,0.578999996,0,3,1,0,1,0,1,0,1,0,240,71,1,239,1,2,4,stim/24.jpeg,Instruments,2,stim/objects/Instruments/chime.png,0.5,1,-0.2,0.15,right,10,2020-12-16_12h35.20.862,premup-three_ses-02_part-02_label-phase2,3.2.4,Win32,60,,,,,,,,,,,,,,,,,,,,,,,,,,,,,
right,0.572000027,1,4,1,0,1,0,1,0,1,0,240,65,1,239,1,2,2,stim/22.jpeg,Instruments,2,stim/objects/Instruments/bassguitar.png,0.5,1,-0.2,0.15,right,10,2020-12-16_12h35.20.862,premup-three_ses-02_part-02_label-phase2,3.2.4,Win32,60,,,,,,,,,,,,,,,,,,,,,,,,,,,,,
left,0.664000034,0,5,1,0,1,0,1,0,1,0,240,33,1,239,1,1,2,stim/12.jpeg,Instruments,2,stim/objects/Instruments/acousticguitar.png,0.5,3,-0.2,-0.15,right,10,2020-12-16_12h35.20.862,premup-three_ses-02_part-02_label-phase2,3.2.4,Win32,60,,,,,,,,,,,,,,,,,,,,,,,,,,,,,
right,0.782000065,0,6,1,0,1,0,1,0,1,0,240,125,1,239,2,4,2,stim/42.jpeg,HouseObjects,1,stim/objects/HouseObjects/ballofstring2.png,0.7,4,0.2,-0.15,left,10,2020-12-16_12h35.20.862,premup-three_ses-02_part-02_label-phase2,3.2.4,Win32,60,,,,,,,,,,,,,,,,,,,,,,,,,,,,,
left,0.506000042,1,7,1,0,1,0,1,0,1,0,240,2,1,239,1,1,3,stim/13.jpeg,HouseObjects,1,stim/objects/HouseObjects/barbecuelighter.png,0.5,3,-0.2,-0.15,left,10,2020-12-16_12h35.20.862,premup-three_ses-02_part-02_label-phase2,3.2.4,Win32,60,,,,,,,,,,,,,,,,,,,,,,,,,,,,,
right,0.286000013,0,8,1,0,1,0,1,0,1,0,240,121,1,239,2,4,2,stim/42.jpeg,HouseObjects,1,stim/objects/HouseObjects/ballofstring2.png,0.7,3,-0.2,-0.15,left,10,2020-12-16_12h35.20.862,premup-three_ses-02_part-02_label-phase2,3.2.4,Win32,60,,,,,,,,,,,,,,,,,,,,,,,,,,,,,
right,0.820999861,0,9,1,0,1,0,1,0,1,0,240,51,1,239,1,2,4,stim/24.jpeg,HouseObjects,1,stim/objects/HouseObjects/broom.png,0.5,4,0.2,-0.15,left,10,2020-12-16_12h35.20.862,premup-three_ses-02_part-02_label-phase2,3.2.4,Win32,60,,,,,,,,,,,,,,,,,,,,,,,,,,,,,
left,0.381999969,0,10,1,0,1,0,1,0,1,0,240,191,1,239,3,5,4,stim/54.jpeg,Instruments,2,stim/objects/Instruments/chime2.png,0.9,2,0.2,0.15,right,10,2020-12-16_12h35.20.862,premup-three_ses-02_part-02_label-phase2,3.2.4,Win32,60,,,,,,,,,,,,,,,,,,,,,,,,,,,,,
right,0.325000048,0,11,1,0,1,0,1,0,1,0,240,226,1,239,3,6,3,stim/63.jpeg,HouseObjects,1,stim/objects/HouseObjects/clothesdryingrack2.png,0.9,1,-0.2,0.15,left,10,2020-12-16_12h35.20.862,premup-three_ses-02_part-02_label-phase2,3.2.4,Win32,60,,,,,,,,,,,,,,,,,,,,,,,,,,,,,
left,0.404999971,1,12,1,0,1,0,1,0,1,0,240,57,1,239,1,2,2,stim/22.jpeg,HouseObjects,1,stim/objects/HouseObjects/blender.png,0.5,3,-0.2,-0.15,left,10,2020-12-16_12h35.20.862,premup-three_ses-02_part-02_label-phase2,3.2.4,Win32,60,,,,,,,,,,,,,,,,,,,,,,,,,,,,,
right,0.626999855,0,13,1,0,1,0,1,0,1,0,240,128,1,239,2,4,1,stim/41.jpeg,HouseObjects,1,stim/objects/HouseObjects/ashtray2.png,0.7,4,0.2,-0.15,left,10,2020-12-16_12h35.20.862,premup-three_ses-02_part-02_label-phase2,3.2.4,Win32,60,,,,,,,,,,,,,,,,,,,,,,,,,,,,,
left,0.400000095,0,14,1,0,1,0,1,0,1,0,240,60,1,239,1,2,1,stim/21.jpeg,Instruments,2,stim/objects/Instruments/bassdrum.png,0.5,2,0.2,0.15,right,10,2020-12-16_12h35.20.862,premup-three_ses-02_part-02_label-phase2,3.2.4,Win32,60,,,,,,,,,,,,,,,,,,,,,,,,,,,,,
right,0.610000134,0,15,1,0,1,0,1,0,1,0,240,89,1,239,2,3,2,stim/32.jpeg,HouseObjects,1,stim/objects/HouseObjects/clock.png,0.3,4,0.2,-0.15,left,10,2020-12-16_12h35.20.862,premup-three_ses-02_part-02_label-phase2,3.2.4,Win32,60,,,,,,,,,,,,,,,,,,,,,,,,,,,,,
,,0,16,1,0,1,0,1,0,1,0,240,115,1,239,2,3,4,stim/34.jpeg,Instruments,2,stim/objects/Instruments/doublebass.png,0.7,4,0.2,-0.15,right,10,2020-12-16_12h35.20.862,premup-three_ses-02_part-02_label-phase2,3.2.4,Win32,60,,,,,,,,,,,,,,,,,,,,,,,,,,,,,
left,0.355999947,1,17,1,0,1,0,1,0,1,0,240,4,1,239,1,1,1,stim/11.jpeg,HouseObjects,1,stim/objects/HouseObjects/ashtray.png,0.5,2,0.2,0.15,left,10,2020-12-16_12h35.20.862,premup-three_ses-02_part-02_label-phase2,3.2.4,Win32,60,,,,,,,,,,,,,,,,,,,,,,,,,,,,,
left,0.728000164,1,18,1,0,1,0,1,0,1,0,240,0,1,239,1,1,1,stim/11.jpeg,HouseObjects,1,stim/objects/HouseObjects/ashtray.png,0.5,2,0.2,0.15,left,10,2020-12-16_12h35.20.862,premup-three_ses-02_part-02_label-phase2,3.2.4,Win32,60,,,,,,,,,,,,,,,,,,,,,,,,,,,,,
left,0.917000055,0,19,1,0,1,0,1,0,1,0,240,174,1,239,3,5,3,stim/53.jpeg,Instruments,2,stim/objects/Instruments/cello2.png,0.9,1,-0.2,0.15,right,10,2020-12-16_12h35.20.862,premup-three_ses-02_part-02_label-phase2,3.2.4,Win32,60,,,,,,,,,,,,,,,,,,,,,,,,,,,,,
right,0.755000114,0,20,1,0,1,0,1,0,1,0,240,43,1,239,1,2,4,stim/24.jpeg,HouseObjects,1,stim/objects/HouseObjects/broom.png,0.5,4,0.2,-0.15,left,10,2020-12-16_12h35.20.862,premup-three_ses-02_part-02_label-phase2,3.2.4,Win32,60,,,,,,,,,,,,,,,,,,,,,,,,,,,,,
,,0,21,1,0,1,0,1,0,1,0,240,50,1,239,1,2,3,stim/23.jpeg,HouseObjects,1,stim/objects/HouseObjects/bottle.png,0.5,3,-0.2,-0.15,left,10,2020-12-16_12h35.20.862,premup-three_ses-02_part-02_label-phase2,3.2.4,Win32,60,,,,,,,,,,,,,,,,,,,,,,,,,,,,,
right,0.174999952,1,22,1,0,1,0,1,0,1,0,240,110,1,239,2,3,3,stim/33.jpeg,Instruments,2,stim/objects/Instruments/cymbal.png,0.7,2,0.2,0.15,right,10,2020-12-16_12h35.20.862,premup-three_ses-02_part-02_label-phase2,3.2.4,Win32,60,,,,,,,,,,,,,,,,,,,,,,,,,,,,,
right,0.410000086,1,23,1,0,1,0,1,0,1,0,240,152,1,239,2,4,1,stim/41.jpeg,Instruments,2,stim/objects/Instruments/accordion2.png,0.3,3,-0.2,-0.15,right,10,2020-12-16_12h35.20.862,premup-three_ses-02_part-02_label-phase2,3.2.4,Win32,60,,,,,,,,,,,,,,,,,,,,,,,,,,,,,
right,0.54700017,1,24,1,0,1,0,1,0,1,0,240,179,1,239,3,5,4,stim/54.jpeg,Instruments,2,stim/objects/Instruments/chime2.png,0.9,4,0.2,-0.15,right,10,2020-12-16_12h35.20.862,premup-three_ses-02_part-02_label-phase2,3.2.4,Win32,60,,,,,,,,,,,,,,,,,,,,,,,,,,,,,
right,0.512000084,0,25,1,0,1,0,1,0,1,0,240,228,1,239,3,6,1,stim/61.jpeg,HouseObjects,1,stim/objects/HouseObjects/bucket2.png,0.9,3,-0.2,-0.15,left,10,2020-12-16_12h35.20.862,premup-three_ses-02_part-02_label-phase2,3.2.4,Win32,60,,,,,,,,,,,,,,,,,,,,,,,,,,,,,
left,0.621000051,1,26,1,0,1,0,1,0,1,0,240,6,1,239,1,1,3,stim/13.jpeg,HouseObjects,1,stim/objects/HouseObjects/barbecuelighter.png,0.5,1,-0.2,0.15,left,10,2020-12-16_12h35.20.862,premup-three_ses-02_part-02_label-phase2,3.2.4,Win32,60,,,,,,,,,,,,,,,,,,,,,,,,,,,,,
right,0.710000038,1,27,1,0,1,0,1,0,1,0,240,66,1,239,1,2,3,stim/23.jpeg,Instruments,2,stim/objects/Instruments/cello.png,0.5,3,-0.2,-0.15,right,10,2020-12-16_12h35.20.862,premup-three_ses-02_part-02_label-phase2,3.2.4,Win32,60,,,,,,,,,,,,,,,,,,,,,,,,,,,,,
,,0,28,1,0,1,0,1,0,1,0,240,82,1,239,2,3,3,stim/33.jpeg,HouseObjects,1,stim/objects/HouseObjects/clothesdryingrack.png,0.3,4,0.2,-0.15,left,10,2020-12-16_12h35.20.862,premup-three_ses-02_part-02_label-phase2,3.2.4,Win32,60,,,,,,,,,,,,,,,,,,,,,,,,,,,,,
left,0.248999834,0,29,1,0,1,0,1,0,1,0,240,180,1,239,3,5,1,stim/51.jpeg,Instruments,2,stim/objects/Instruments/bassdrum2.png,0.9,2,0.2,0.15,right,10,2020-12-16_12h35.20.862,premup-three_ses-02_part-02_label-phase2,3.2.4,Win32,60,,,,,,,,,,,,,,,,,,,,,,,,,,,,,
right,0.291999817,0,30,1,0,1,0,1,0,1,0,240,80,1,239,2,3,1,stim/31.jpeg,HouseObjects,1,stim/objects/HouseObjects/bucket.png,0.3,3,-0.2,-0.15,left,10,2020-12-16_12h35.20.862,premup-three_ses-02_part-02_label-phase2,3.2.4,Win32,60,,,,,,,,,,,,,,,,,,,,,,,,,,,,,
left,0.134000063,0,31,1,0,1,0,1,0,1,0,240,34,1,239,1,1,3,stim/13.jpeg,Instruments,2,stim/objects/Instruments/balalaika.png,0.5,4,0.2,-0.15,right,10,2020-12-16_12h35.20.862,premup-three_ses-02_part-02_label-phase2,3.2.4,Win32,60,,,,,,,,,,,,,,,,,,,,,,,,,,,,,
right,0.480999947,1,32,1,0,1,0,1,0,1,0,240,111,1,239,2,3,4,stim/34.jpeg,Instruments,2,stim/objects/Instruments/doublebass.png,0.7,3,-0.2,-0.15,right,10,2020-12-16_12h35.20.862,premup-three_ses-02_part-02_label-phase2,3.2.4,Win32,60,,,,,,,,,,,,,,,,,,,,,,,,,,,,,
right,0.475000143,1,33,1,0,1,0,1,0,1,0,240,188,1,239,3,5,1,stim/51.jpeg,Instruments,2,stim/objects/Instruments/bassdrum2.png,0.9,1,-0.2,0.15,right,10,2020-12-16_12h35.20.862,premup-three_ses-02_part-02_label-phase2,3.2.4,Win32,60,,,,,,,,,,,,,,,,,,,,,,,,,,,,,
right,0.42599988,1,34,1,0,1,0,1,0,1,0,240,93,1,239,2,3,2,stim/32.jpeg,Instruments,2,stim/objects/Instruments/cornet.png,0.7,1,-0.2,0.15,right,10,2020-12-16_12h35.20.862,premup-three_ses-02_part-02_label-phase2,3.2.4,Win32,60,,,,,,,,,,,,,,,,,,,,,,,,,,,,,
right,0.56099987,0,35,1,0,1,0,1,0,1,0,240,81,1,239,2,3,2,stim/32.jpeg,HouseObjects,1,stim/objects/HouseObjects/clock.png,0.3,2,0.2,0.15,left,10,2020-12-16_12h35.20.862,premup-three_ses-02_part-02_label-phase2,3.2.4,Win32,60,,,,,,,,,,,,,,,,,,,,,,,,,,,,,
left,0.373000145,1,36,1,0,1,0,1,0,1,0,240,147,1,239,2,4,4,stim/44.jpeg,HouseObjects,1,stim/objects/HouseObjects/basket2.png,0.7,3,-0.2,-0.15,left,10,2020-12-16_12h35.20.862,premup-three_ses-02_part-02_label-phase2,3.2.4,Win32,60,,,,,,,,,,,,,,,,,,,,,,,,,,,,,
left,0.480999947,0,37,1,0,1,0,1,0,1,0,240,119,1,239,2,3,4,stim/34.jpeg,Instruments,2,stim/objects/Instruments/doublebass.png,0.7,4,0.2,-0.15,right,10,2020-12-16_12h35.20.862,premup-three_ses-02_part-02_label-phase2,3.2.4,Win32,60,,,,,,,,,,,,,,,,,,,,,,,,,,,,,
right,0.332000017,0,38,1,0,1,0,1,0,1,0,240,123,1,239,2,4,4,stim/44.jpeg,HouseObjects,1,stim/objects/HouseObjects/basket2.png,0.7,1,-0.2,0.15,left,10,2020-12-16_12h35.20.862,premup-three_ses-02_part-02_label-phase2,3.2.4,Win32,60,,,,,,,,,,,,,,,,,,,,,,,,,,,,,
left,0.309000015,0,39,1,0,1,0,1,0,1,0,240,112,1,239,2,3,1,stim/31.jpeg,Instruments,2,stim/objects/Instruments/clarinet.png,0.7,3,-0.2,-0.15,right,10,2020-12-16_12h35.20.862,premup-three_ses-02_part-02_label-phase2,3.2.4,Win32,60,,,,,,,,,,,,,,,,,,,,,,,,,,,,,
right,0.232000113,0,40,1,0,1,0,1,0,1,0,240,208,1,239,3,6,1,stim/61.jpeg,HouseObjects,1,stim/objects/HouseObjects/bucket2.png,0.9,2,0.2,0.15,left,10,2020-12-16_12h35.20.862,premup-three_ses-02_part-02_label-phase2,3.2.4,Win32,60,,,,,,,,,,,,,,,,,,,,,,,,,,,,,
left,0.305999994,1,41,1,0,1,0,1,0,1,0,240,137,1,239,2,4,2,stim/42.jpeg,HouseObjects,1,stim/objects/HouseObjects/ballofstring2.png,0.7,2,0.2,0.15,left,10,2020-12-16_12h35.20.862,premup-three_ses-02_part-02_label-phase2,3.2.4,Win32,60,,,,,,,,,,,,,,,,,,,,,,,,,,,,,
left,0.219000101,0,42,1,0,1,0,1,0,1,0,240,72,1,239,1,2,1,stim/21.jpeg,Instruments,2,stim/objects/Instruments/bassdrum.png,0.5,2,0.2,0.15,right,10,2020-12-16_12h35.20.862,premup-three_ses-02_part-02_label-phase2,3.2.4,Win32,60,,,,,,,,,,,,,,,,,,,,,,,,,,,,,
right,0.322000027,0,43,1,0,1,0,1,0,1,0,240,48,1,239,1,2,1,stim/21.jpeg,HouseObjects,1,stim/objects/HouseObjects/bleachbottle.png,0.5,4,0.2,-0.15,left,10,2020-12-16_12h35.20.862,premup-three_ses-02_part-02_label-phase2,3.2.4,Win32,60,,,,,,,,,,,,,,,,,,,,,,,,,,,,,
left,0.330000162,0,44,1,0,1,0,1,0,1,0,240,108,1,239,2,3,1,stim/31.jpeg,Instruments,2,stim/objects/Instruments/clarinet.png,0.7,4,0.2,-0.15,right,10,2020-12-16_12h35.20.862,premup-three_ses-02_part-02_label-phase2,3.2.4,Win32,60,,,,,,,,,,,,,,,,,,,,,,,,,,,,,
right,0.374000072,0,45,1,0,1,0,1,0,1,0,240,126,1,239,2,4,3,stim/43.jpeg,HouseObjects,1,stim/objects/HouseObjects/barbecuelighter2.png,0.7,2,0.2,0.15,left,10,2020-12-16_12h35.20.862,premup-three_ses-02_part-02_label-phase2,3.2.4,Win32,60,,,,,,,,,,,,,,,,,,,,,,,,,,,,,
left,0.410000086,1,46,1,0,1,0,1,0,1,0,240,133,1,239,2,4,2,stim/42.jpeg,HouseObjects,1,stim/objects/HouseObjects/ballofstring2.png,0.7,2,0.2,0.15,left,10,2020-12-16_12h35.20.862,premup-three_ses-02_part-02_label-phase2,3.2.4,Win32,60,,,,,,,,,,,,,,,,,,,,,,,,,,,,,
left,0.648000002,0,47,1,0,1,0,1,0,1,0,240,149,1,239,2,4,2,stim/42.jpeg,Instruments,2,stim/objects/Instruments/acousticguitar2.png,0.3,4,0.2,-0.15,right,10,2020-12-16_12h35.20.862,premup-three_ses-02_part-02_label-phase2,3.2.4,Win32,60,,,,,,,,,,,,,,,,,,,,,,,,,,,,,
left,0.510999918,1,48,1,0,1,0,1,0,1,0,240,212,1,239,3,6,1,stim/61.jpeg,HouseObjects,1,stim/objects/HouseObjects/bucket2.png,0.9,2,0.2,0.15,left,10,2020-12-16_12h35.20.862,premup-three_ses-02_part-02_label-phase2,3.2.4,Win32,60,,,,,,,,,,,,,,,,,,,,,,,,,,,,,
left,0.631000042,0,49,1,0,1,0,1,0,1,0,240,238,1,239,3,6,3,stim/63.jpeg,Instruments,2,stim/objects/Instruments/cymbal2.png,0.1,4,0.2,-0.15,right,10,2020-12-16_12h35.20.862,premup-three_ses-02_part-02_label-phase2,3.2.4,Win32,60,,,,,,,,,,,,,,,,,,,,,,,,,,,,,
right,0.205000162,1,50,1,0,1,0,1,0,1,0,240,168,1,239,3,5,1,stim/51.jpeg,Instruments,2,stim/objects/Instruments/bassdrum2.png,0.9,1,-0.2,0.15,right,10,2020-12-16_12h35.20.862,premup-three_ses-02_part-02_label-phase2,3.2.4,Win32,60,,,,,,,,,,,,,,,,,,,,,,,,,,,,,
left,0.595000029,1,51,1,0,1,0,1,0,1,0,240,220,1,239,3,6,1,stim/61.jpeg,HouseObjects,1,stim/objects/HouseObjects/bucket2.png,0.9,3,-0.2,-0.15,left,10,2020-12-16_12h35.20.862,premup-three_ses-02_part-02_label-phase2,3.2.4,Win32,60,,,,,,,,,,,,,,,,,,,,,,,,,,,,,
left,0.480000019,0,52,1,0,1,0,1,0,1,0,240,184,1,239,3,5,1,stim/51.jpeg,Instruments,2,stim/objects/Instruments/bassdrum2.png,0.9,1,-0.2,0.15,right,10,2020-12-16_12h35.20.862,premup-three_ses-02_part-02_label-phase2,3.2.4,Win32,60,,,,,,,,,,,,,,,,,,,,,,,,,,,,,
right,0.321000099,0,53,1,0,1,0,1,0,1,0,240,40,1,239,1,2,1,stim/21.jpeg,HouseObjects,1,stim/objects/HouseObjects/bleachbottle.png,0.5,1,-0.2,0.15,left,10,2020-12-16_12h35.20.862,premup-three_ses-02_part-02_label-phase2,3.2.4,Win32,60,,,,,,,,,,,,,,,,,,,,,,,,,,,,,
left,0.284999847,1,54,1,0,1,0,1,0,1,0,240,46,1,239,1,2,3,stim/23.jpeg,HouseObjects,1,stim/objects/HouseObjects/bottle.png,0.5,1,-0.2,0.15,left,10,2020-12-16_12h35.20.862,premup-three_ses-02_part-02_label-phase2,3.2.4,Win32,60,,,,,,,,,,,,,,,,,,,,,,,,,,,,,
left,0.736999989,1,55,1,0,1,0,1,0,1,0,240,202,1,239,3,6,3,stim/63.jpeg,HouseObjects,1,stim/objects/HouseObjects/clothesdryingrack2.png,0.9,2,0.2,0.15,left,10,2020-12-16_12h35.20.862,premup-three_ses-02_part-02_label-phase2,3.2.4,Win32,60,,,,,,,,,,,,,,,,,,,,,,,,,,,,,
left,0.736999989,0,56,1,0,1,0,1,0,1,0,240,31,1,239,1,1,4,stim/14.jpeg,Instruments,2,stim/objects/Instruments/banjo.png,0.5,3,-0.2,-0.15,right,10,2020-12-16_12h35.20.862,premup-three_ses-02_part-02_label-phase2,3.2.4,Win32,60,,,,,,,,,,,,,,,,,,,,,,,,,,,,,
left,0.812999964,1,57,1,0,1,0,1,0,1,0,240,47,1,239,1,2,4,stim/24.jpeg,HouseObjects,1,stim/objects/HouseObjects/broom.png,0.5,3,-0.2,-0.15,left,10,2020-12-16_12h35.20.862,premup-three_ses-02_part-02_label-phase2,3.2.4,Win32,60,,,,,,,,,,,,,,,,,,,,,,,,,,,,,
right,0.871999979,1,58,1,0,1,0,1,0,1,0,240,164,1,239,3,5,1,stim/51.jpeg,Instruments,2,stim/objects/Instruments/bassdrum2.png,0.9,4,0.2,-0.15,right,10,2020-12-16_12h35.20.862,premup-three_ses-02_part-02_label-phase2,3.2.4,Win32,60,,,,,,,,,,,,,,,,,,,,,,,,,,,,,
left,0.852999926,0,59,1,0,1,0,1,0,1,0,240,94,1,239,2,3,3,stim/33.jpeg,Instruments,2,stim/objects/Instruments/cymbal.png,0.7,1,-0.2,0.15,right,10,2020-12-16_12h35.20.862,premup-three_ses-02_part-02_label-phase2,3.2.4,Win32,60,,,,,,,,,,,,,,,,,,,,,,,,,,,,,
left,0.827000141,1,60,1,0,1,0,1,0,1,0,240,45,1,239,1,2,2,stim/22.jpeg,HouseObjects,1,stim/objects/HouseObjects/blender.png,0.5,2,0.2,0.15,left,10,2020-12-16_12h35.20.862,premup-three_ses-02_part-02_label-phase2,3.2.4,Win32,60,,,,,,,,,,,,,,,,,,,,,,,,,,,,,
right,0.570999861,1,61,1,0,1,0,1,0,1,0,240,154,1,239,2,4,3,stim/43.jpeg,Instruments,2,stim/objects/Instruments/balalaika2.png,0.3,1,-0.2,0.15,right,10,2020-12-16_12h35.20.862,premup-three_ses-02_part-02_label-phase2,3.2.4,Win32,60,,,,,,,,,,,,,,,,,,,,,,,,,,,,,
right,0.400000095,1,62,1,0,1,0,1,0,1,0,240,199,1,239,3,5,4,stim/54.jpeg,Instruments,2,stim/objects/Instruments/chime2.png,0.9,3,-0.2,-0.15,right,10,2020-12-16_12h35.20.862,premup-three_ses-02_part-02_label-phase2,3.2.4,Win32,60,,,,,,,,,,,,,,,,,,,,,,,,,,,,,
right,0.230000019,0,63,1,0,1,0,1,0,1,0,240,131,1,239,2,4,4,stim/44.jpeg,HouseObjects,1,stim/objects/HouseObjects/basket2.png,0.7,3,-0.2,-0.15,left,10,2020-12-16_12h35.20.862,premup-three_ses-02_part-02_label-phase2,3.2.4,Win32,60,,,,,,,,,,,,,,,,,,,,,,,,,,,,,
left,0.48300004,1,64,1,0,1,0,1,0,1,0,240,211,1,239,3,6,4,stim/64.jpeg,HouseObjects,1,stim/objects/HouseObjects/clothespin2.png,0.9,3,-0.2,-0.15,left,10,2020-12-16_12h35.20.862,premup-three_ses-02_part-02_label-phase2,3.2.4,Win32,60,,,,,,,,,,,,,,,,,,,,,,,,,,,,,
left,0.781000137,1,65,1,0,1,0,1,0,1,0,240,200,1,239,3,6,1,stim/61.jpeg,HouseObjects,1,stim/objects/HouseObjects/bucket2.png,0.9,2,0.2,0.15,left,10,2020-12-16_12h35.20.862,premup-three_ses-02_part-02_label-phase2,3.2.4,Win32,60,,,,,,,,,,,,,,,,,,,,,,,,,,,,,
left,0.856000185,0,66,1,0,1,0,1,0,1,0,240,68,1,239,1,2,1,stim/21.jpeg,Instruments,2,stim/objects/Instruments/bassdrum.png,0.5,4,0.2,-0.15,right,10,2020-12-16_12h35.20.862,premup-three_ses-02_part-02_label-phase2,3.2.4,Win32,60,,,,,,,,,,,,,,,,,,,,,,,,,,,,,
right,0.562000036,0,67,1,0,1,0,1,0,1,0,240,207,1,239,3,6,4,stim/64.jpeg,HouseObjects,1,stim/objects/HouseObjects/clothespin2.png,0.9,1,-0.2,0.15,left,10,2020-12-16_12h35.20.862,premup-three_ses-02_part-02_label-phase2,3.2.4,Win32,60,,,,,,,,,,,,,,,,,,,,,,,,,,,,,
,,0,68,1,0,1,0,1,0,1,0,240,198,1,239,3,5,3,stim/53.jpeg,Instruments,2,stim/objects/Instruments/cello2.png,0.9,1,-0.2,0.15,right,10,2020-12-16_12h35.20.862,premup-three_ses-02_part-02_label-phase2,3.2.4,Win32,60,,,,,,,,,,,,,,,,,,,,,,,,,,,,,
left,0.595999956,1,69,1,0,1,0,1,0,1,0,240,16,1,239,1,1,1,stim/11.jpeg,HouseObjects,1,stim/objects/HouseObjects/ashtray.png,0.5,4,0.2,-0.15,left,10,2020-12-16_12h35.20.862,premup-three_ses-02_part-02_label-phase2,3.2.4,Win32,60,,,,,,,,,,,,,,,,,,,,,,,,,,,,,
left,0.282999992,1,70,1,0,1,0,1,0,1,0,240,9,1,239,1,1,2,stim/12.jpeg,HouseObjects,1,stim/objects/HouseObjects/ballofstring.png,0.5,3,-0.2,-0.15,left,10,2020-12-16_12h35.20.862,premup-three_ses-02_part-02_label-phase2,3.2.4,Win32,60,,,,,,,,,,,,,,,,,,,,,,,,,,,,,
left,0.633999825,1,71,1,0,1,0,1,0,1,0,240,230,1,239,3,6,3,stim/63.jpeg,HouseObjects,1,stim/objects/HouseObjects/clothesdryingrack2.png,0.9,3,-0.2,-0.15,left,10,2020-12-16_12h35.20.862,premup-three_ses-02_part-02_label-phase2,3.2.4,Win32,60,,,,,,,,,,,,,,,,,,,,,,,,,,,,,
left,0.697000027,0,72,1,0,1,0,1,0,1,0,240,61,1,239,1,2,2,stim/22.jpeg,Instruments,2,stim/objects/Instruments/bassguitar.png,0.5,1,-0.2,0.15,right,10,2020-12-16_12h35.20.862,premup-three_ses-02_part-02_label-phase2,3.2.4,Win32,60,,,,,,,,,,,,,,,,,,,,,,,,,,,,,
right,0.375,1,73,1,0,1,0,1,0,1,0,240,69,1,239,1,2,2,stim/22.jpeg,Instruments,2,stim/objects/Instruments/bassguitar.png,0.5,1,-0.2,0.15,right,10,2020-12-16_12h35.20.862,premup-three_ses-02_part-02_label-phase2,3.2.4,Win32,60,,,,,,,,,,,,,,,,,,,,,,,,,,,,,
right,0.391000032,0,74,1,0,1,0,1,0,1,0,240,90,1,239,2,3,3,stim/33.jpeg,HouseObjects,1,stim/objects/HouseObjects/clothesdryingrack.png,0.3,3,-0.2,-0.15,left,10,2020-12-16_12h35.20.862,premup-three_ses-02_part-02_label-phase2,3.2.4,Win32,60,,,,,,,,,,,,,,,,,,,,,,,,,,,,,
right,0.312999964,1,75,1,0,1,0,1,0,1,0,240,166,1,239,3,5,3,stim/53.jpeg,Instruments,2,stim/objects/Instruments/cello2.png,0.9,3,-0.2,-0.15,right,10,2020-12-16_12h35.20.862,premup-three_ses-02_part-02_label-phase2,3.2.4,Win32,60,,,,,,,,,,,,,,,,,,,,,,,,,,,,,
left,0.627999783,0,76,1,0,1,0,1,0,1,0,240,29,1,239,1,1,2,stim/12.jpeg,Instruments,2,stim/objects/Instruments/acousticguitar.png,0.5,3,-0.2,-0.15,right,10,2020-12-16_12h35.20.862,premup-three_ses-02_part-02_label-phase2,3.2.4,Win32,60,,,,,,,,,,,,,,,,,,,,,,,,,,,,,
right,0.262000084,1,77,1,0,1,0,1,0,1,0,240,67,1,239,1,2,4,stim/24.jpeg,Instruments,2,stim/objects/Instruments/chime.png,0.5,3,-0.2,-0.15,right,10,2020-12-16_12h35.20.862,premup-three_ses-02_part-02_label-phase2,3.2.4,Win32,60,,,,,,,,,,,,,,,,,,,,,,,,,,,,,
right,0.394999981,1,78,1,0,1,0,1,0,1,0,240,73,1,239,1,2,2,stim/22.jpeg,Instruments,2,stim/objects/Instruments/bassguitar.png,0.5,2,0.2,0.15,right,10,2020-12-16_12h35.20.862,premup-three_ses-02_part-02_label-phase2,3.2.4,Win32,60,,,,,,,,,,,,,,,,,,,,,,,,,,,,,
right,0.326999903,0,79,1,0,1,0,1,0,1,0,240,203,1,239,3,6,4,stim/64.jpeg,HouseObjects,1,stim/objects/HouseObjects/clothespin2.png,0.9,4,0.2,-0.15,left,10,2020-12-16_12h35.20.862,premup-three_ses-02_part-02_label-phase2,3.2.4,Win32,60,,,,,,,,,,,,,,,,,,,,,,,,,,,,,
left,0.569000006,1,80,1,0,1,0,1,0,1,0,240,217,1,239,3,6,2,stim/62.jpeg,HouseObjects,1,stim/objects/HouseObjects/clock2.png,0.9,4,0.2,-0.15,left,10,2020-12-16_12h35.20.862,premup-three_ses-02_part-02_label-phase2,3.2.4,Win32,60,,,,,,,,,,,,,,,,,,,,,,,,,,,,,
left,0.482000113,1,81,1,0,1,0,1,0,1,0,240,41,1,239,1,2,2,stim/22.jpeg,HouseObjects,1,stim/objects/HouseObjects/blender.png,0.5,3,-0.2,-0.15,left,10,2020-12-16_12h35.20.862,premup-three_ses-02_part-02_label-phase2,3.2.4,Win32,60,,,,,,,,,,,,,,,,,,,,,,,,,,,,,
left,0.410000086,1,82,1,0,1,0,1,0,1,0,240,163,1,239,3,5,4,stim/54.jpeg,HouseObjects,1,stim/objects/HouseObjects/broom2.png,0.1,4,0.2,-0.15,left,10,2020-12-16_12h35.20.862,premup-three_ses-02_part-02_label-phase2,3.2.4,Win32,60,,,,,,,,,,,,,,,,,,,,,,,,,,,,,
left,0.521999836,1,83,1,0,1,0,1,0,1,0,240,122,1,239,2,4,3,stim/43.jpeg,HouseObjects,1,stim/objects/HouseObjects/barbecuelighter2.png,0.7,2,0.2,0.15,left,10,2020-12-16_12h35.20.862,premup-three_ses-02_part-02_label-phase2,3.2.4,Win32,60,,,,,,,,,,,,,,,,,,,,,,,,,,,,,
right,0.248999834,0,84,1,0,1,0,1,0,1,0,240,210,1,239,3,6,3,stim/63.jpeg,HouseObjects,1,stim/objects/HouseObjects/clothesdryingrack2.png,0.9,4,0.2,-0.15,left,10,2020-12-16_12h35.20.862,premup-three_ses-02_part-02_label-phase2,3.2.4,Win32,60,,,,,,,,,,,,,,,,,,,,,,,,,,,,,
left,0.31799984,0,85,1,0,1,0,1,0,1,0,240,26,1,239,1,1,3,stim/13.jpeg,Instruments,2,stim/objects/Instruments/balalaika.png,0.5,4,0.2,-0.15,right,10,2020-12-16_12h35.20.862,premup-three_ses-02_part-02_label-phase2,3.2.4,Win32,60,,,,,,,,,,,,,,,,,,,,,,,,,,,,,
right,0.361999989,0,86,1,0,1,0,1,0,1,0,240,8,1,239,1,1,1,stim/11.jpeg,HouseObjects,1,stim/objects/HouseObjects/ashtray.png,0.5,2,0.2,0.15,left,10,2020-12-16_12h35.20.862,premup-three_ses-02_part-02_label-phase2,3.2.4,Win32,60,,,,,,,,,,,,,,,,,,,,,,,,,,,,,
left,0.36500001,1,87,1,0,1,0,1,0,1,0,240,134,1,239,2,4,3,stim/43.jpeg,HouseObjects,1,stim/objects/HouseObjects/barbecuelighter2.png,0.7,4,0.2,-0.15,left,10,2020-12-16_12h35.20.862,premup-three_ses-02_part-02_label-phase2,3.2.4,Win32,60,,,,,,,,,,,,,,,,,,,,,,,,,,,,,
left,0.529999971,0,88,1,0,1,0,1,0,1,0,240,107,1,239,2,3,4,stim/34.jpeg,Instruments,2,stim/objects/Instruments/doublebass.png,0.7,3,-0.2,-0.15,right,10,2020-12-16_12h35.20.862,premup-three_ses-02_part-02_label-phase2,3.2.4,Win32,60,,,,,,,,,,,,,,,,,,,,,,,,,,,,,
right,0.487999916,0,89,1,0,1,0,1,0,1,0,240,161,1,239,3,5,2,stim/52.jpeg,HouseObjects,1,stim/objects/HouseObjects/blender2.png,0.1,3,-0.2,-0.15,left,10,2020-12-16_12h35.20.862,premup-three_ses-02_part-02_label-phase2,3.2.4,Win32,60,,,,,,,,,,,,,,,,,,,,,,,,,,,,,
left,0.298000097,0,90,1,0,1,0,1,0,1,0,240,70,1,239,1,2,3,stim/23.jpeg,Instruments,2,stim/objects/Instruments/cello.png,0.5,4,0.2,-0.15,right,10,2020-12-16_12h35.20.862,premup-three_ses-02_part-02_label-phase2,3.2.4,Win32,60,,,,,,,,,,,,,,,,,,,,,,,,,,,,,
left,0.697999954,0,91,1,0,1,0,1,0,1,0,240,189,1,239,3,5,2,stim/52.jpeg,Instruments,2,stim/objects/Instruments/bassguitar2.png,0.9,1,-0.2,0.15,right,10,2020-12-16_12h35.20.862,premup-three_ses-02_part-02_label-phase2,3.2.4,Win32,60,,,,,,,,,,,,,,,,,,,,,,,,,,,,,
right,0.332000017,1,92,1,0,1,0,1,0,1,0,240,150,1,239,2,4,3,stim/43.jpeg,Instruments,2,stim/objects/Instruments/balalaika2.png,0.3,3,-0.2,-0.15,right,10,2020-12-16_12h35.20.862,premup-three_ses-02_part-02_label-phase2,3.2.4,Win32,60,,,,,,,,,,,,,,,,,,,,,,,,,,,,,
right,0.655999899,1,93,1,0,1,0,1,0,1,0,240,100,1,239,2,3,1,stim/31.jpeg,Instruments,2,stim/objects/Instruments/clarinet.png,0.7,1,-0.2,0.15,right,10,2020-12-16_12h35.20.862,premup-three_ses-02_part-02_label-phase2,3.2.4,Win32,60,,,,,,,,,,,,,,,,,,,,,,,,,,,,,
right,0.371000051,1,94,1,0,1,0,1,0,1,0,240,173,1,239,3,5,2,stim/52.jpeg,Instruments,2,stim/objects/Instruments/bassguitar2.png,0.9,1,-0.2,0.15,right,10,2020-12-16_12h35.20.862,premup-three_ses-02_part-02_label-phase2,3.2.4,Win32,60,,,,,,,,,,,,,,,,,,,,,,,,,,,,,
right,0.359999895,1,95,1,0,1,0,1,0,1,0,240,172,1,239,3,5,1,stim/51.jpeg,Instruments,2,stim/objects/Instruments/bassdrum2.png,0.9,1,-0.2,0.15,right,10,2020-12-16_12h35.20.862,premup-three_ses-02_part-02_label-phase2,3.2.4,Win32,60,,,,,,,,,,,,,,,,,,,,,,,,,,,,,
right,0.44900012,1,96,1,0,1,0,1,0,1,0,240,177,1,239,3,5,2,stim/52.jpeg,Instruments,2,stim/objects/Instruments/bassguitar2.png,0.9,3,-0.2,-0.15,right,10,2020-12-16_12h35.20.862,premup-three_ses-02_part-02_label-phase2,3.2.4,Win32,60,,,,,,,,,,,,,,,,,,,,,,,,,,,,,
right,0.302999973,1,97,1,0,1,0,1,0,1,0,240,116,1,239,2,3,1,stim/31.jpeg,Instruments,2,stim/objects/Instruments/clarinet.png,0.7,3,-0.2,-0.15,right,10,2020-12-16_12h35.20.862,premup-three_ses-02_part-02_label-phase2,3.2.4,Win32,60,,,,,,,,,,,,,,,,,,,,,,,,,,,,,
right,0.509000063,1,98,1,0,1,0,1,0,1,0,240,118,1,239,2,3,3,stim/33.jpeg,Instruments,2,stim/objects/Instruments/cymbal.png,0.7,1,-0.2,0.15,right,10,2020-12-16_12h35.20.862,premup-three_ses-02_part-02_label-phase2,3.2.4,Win32,60,,,,,,,,,,,,,,,,,,,,,,,,,,,,,
right,0.680999994,0,99,1,0,1,0,1,0,1,0,240,218,1,239,3,6,3,stim/63.jpeg,HouseObjects,1,stim/objects/HouseObjects/clothesdryingrack2.png,0.9,2,0.2,0.15,left,10,2020-12-16_12h35.20.862,premup-three_ses-02_part-02_label-phase2,3.2.4,Win32,60,,,,,,,,,,,,,,,,,,,,,,,,,,,,,
,,0,100,1,0,1,0,1,0,1,0,240,192,1,239,3,5,1,stim/51.jpeg,Instruments,2,stim/objects/Instruments/bassdrum2.png,0.9,3,-0.2,-0.15,right,10,2020-12-16_12h35.20.862,premup-three_ses-02_part-02_label-phase2,3.2.4,Win32,60,,,,,,,,,,,,,,,,,,,,,,,,,,,,,
left,0.255000114,0,101,1,0,1,0,1,0,1,0,240,190,1,239,3,5,3,stim/53.jpeg,Instruments,2,stim/objects/Instruments/cello2.png,0.9,1,-0.2,0.15,right,10,2020-12-16_12h35.20.862,premup-three_ses-02_part-02_label-phase2,3.2.4,Win32,60,,,,,,,,,,,,,,,,,,,,,,,,,,,,,
right,0.455999851,1,102,1,0,1,0,1,0,1,0,240,37,1,239,1,1,2,stim/12.jpeg,Instruments,2,stim/objects/Instruments/acousticguitar.png,0.5,4,0.2,-0.15,right,10,2020-12-16_12h35.20.862,premup-three_ses-02_part-02_label-phase2,3.2.4,Win32,60,,,,,,,,,,,,,,,,,,,,,,,,,,,,,
right,0.361000061,1,103,1,0,1,0,1,0,1,0,240,35,1,239,1,1,4,stim/14.jpeg,Instruments,2,stim/objects/Instruments/banjo.png,0.5,2,0.2,0.15,right,10,2020-12-16_12h35.20.862,premup-three_ses-02_part-02_label-phase2,3.2.4,Win32,60,,,,,,,,,,,,,,,,,,,,,,,,,,,,,
right,0.520999908,0,104,1,0,1,0,1,0,1,0,240,234,1,239,3,6,3,stim/63.jpeg,HouseObjects,1,stim/objects/HouseObjects/clothesdryingrack2.png,0.9,4,0.2,-0.15,left,10,2020-12-16_12h35.20.862,premup-three_ses-02_part-02_label-phase2,3.2.4,Win32,60,,,,,,,,,,,,,,,,,,,,,,,,,,,,,
left,0.382000208,1,105,1,0,1,0,1,0,1,0,240,215,1,239,3,6,4,stim/64.jpeg,HouseObjects,1,stim/objects/HouseObjects/clothespin2.png,0.9,1,-0.2,0.15,left,10,2020-12-16_12h35.20.862,premup-three_ses-02_part-02_label-phase2,3.2.4,Win32,60,,,,,,,,,,,,,,,,,,,,,,,,,,,,,
left,0.342000008,1,106,1,0,1,0,1,0,1,0,240,140,1,239,2,4,1,stim/41.jpeg,HouseObjects,1,stim/objects/HouseObjects/ashtray2.png,0.7,2,0.2,0.15,left,10,2020-12-16_12h35.20.862,premup-three_ses-02_part-02_label-phase2,3.2.4,Win32,60,,,,,,,,,,,,,,,,,,,,,,,,,,,,,
left,0.491999865,0,107,1,0,1,0,1,0,1,0,240,236,1,239,3,6,1,stim/61.jpeg,Instruments,2,stim/objects/Instruments/clarinet2.png,0.1,4,0.2,-0.15,right,10,2020-12-16_12h35.20.862,premup-three_ses-02_part-02_label-phase2,3.2.4,Win32,60,,,,,,,,,,,,,,,,,,,,,,,,,,,,,
right,0.248000145,0,108,1,0,1,0,1,0,1,0,240,11,1,239,1,1,4,stim/14.jpeg,HouseObjects,1,stim/objects/HouseObjects/basket.png,0.5,3,-0.2,-0.15,left,10,2020-12-16_12h35.20.862,premup-three_ses-02_part-02_label-phase2,3.2.4,Win32,60,,,,,,,,,,,,,,,,,,,,,,,,,,,,,
left,0.279999971,0,109,1,0,1,0,1,0,1,0,240,76,1,239,1,2,1,stim/21.jpeg,Instruments,2,stim/objects/Instruments/bassdrum.png,0.5,1,-0.2,0.15,right,10,2020-12-16_12h35.20.862,premup-three_ses-02_part-02_label-phase2,3.2.4,Win32,60,,,,,,,,,,,,,,,,,,,,,,,,,,,,,
right,0,0,110,1,0,1,0,1,0,1,0,240,135,1,239,2,4,4,stim/44.jpeg,HouseObjects,1,stim/objects/HouseObjects/basket2.png,0.7,4,0.2,-0.15,left,10,2020-12-16_12h35.20.862,premup-three_ses-02_part-02_label-phase2,3.2.4,Win32,60,,,,,,,,,,,,,,,,,,,,,,,,,,,,,
left,0.535000086,0,111,1,0,1,0,1,0,1,0,240,182,1,239,3,5,3,stim/53.jpeg,Instruments,2,stim/objects/Instruments/cello2.png,0.9,2,0.2,0.15,right,10,2020-12-16_12h35.20.862,premup-three_ses-02_part-02_label-phase2,3.2.4,Win32,60,,,,,,,,,,,,,,,,,,,,,,,,,,,,,
,,0,112,1,0,1,0,1,0,1,0,240,104,1,239,2,3,1,stim/31.jpeg,Instruments,2,stim/objects/Instruments/clarinet.png,0.7,1,-0.2,0.15,right,10,2020-12-16_12h35.20.862,premup-three_ses-02_part-02_label-phase2,3.2.4,Win32,60,,,,,,,,,,,,,,,,,,,,,,,,,,,,,
,,0,113,1,0,1,0,1,0,1,0,240,98,1,239,2,3,3,stim/33.jpeg,Instruments,2,stim/objects/Instruments/cymbal.png,0.7,3,-0.2,-0.15,right,10,2020-12-16_12h35.20.862,premup-three_ses-02_part-02_label-phase2,3.2.4,Win32,60,,,,,,,,,,,,,,,,,,,,,,,,,,,,,
right,0.399999857,1,114,1,0,1,0,1,0,1,0,240,114,1,239,2,3,3,stim/33.jpeg,Instruments,2,stim/objects/Instruments/cymbal.png,0.7,1,-0.2,0.15,right,10,2020-12-16_12h35.20.862,premup-three_ses-02_part-02_label-phase2,3.2.4,Win32,60,,,,,,,,,,,,,,,,,,,,,,,,,,,,,
,,0,115,1,0,1,0,1,0,1,0,240,197,1,239,3,5,2,stim/52.jpeg,Instruments,2,stim/objects/Instruments/bassguitar2.png,0.9,2,0.2,0.15,right,10,2020-12-16_12h35.20.862,premup-three_ses-02_part-02_label-phase2,3.2.4,Win32,60,,,,,,,,,,,,,,,,,,,,,,,,,,,,,
,,0,116,1,0,1,0,1,0,1,0,240,171,1,239,3,5,4,stim/54.jpeg,Instruments,2,stim/objects/Instruments/chime2.png,0.9,2,0.2,0.15,right,10,2020-12-16_12h35.20.862,premup-three_ses-02_part-02_label-phase2,3.2.4,Win32,60,,,,,,,,,,,,,,,,,,,,,,,,,,,,,
right,0.857999802,1,117,1,0,1,0,1,0,1,0,240,77,1,239,1,2,2,stim/22.jpeg,Instruments,2,stim/objects/Instruments/bassguitar.png,0.5,1,-0.2,0.15,right,10,2020-12-16_12h35.20.862,premup-three_ses-02_part-02_label-phase2,3.2.4,Win32,60,,,,,,,,,,,,,,,,,,,,,,,,,,,,,
left,0.360000134,0,118,1,0,1,0,1,0,1,0,240,39,1,239,1,1,4,stim/14.jpeg,Instruments,2,stim/objects/Instruments/banjo.png,0.5,3,-0.2,-0.15,right,10,2020-12-16_12h35.20.862,premup-three_ses-02_part-02_label-phase2,3.2.4,Win32,60,,,,,,,,,,,,,,,,,,,,,,,,,,,,,
right,0.5400002,1,119,1,0,1,0,1,0,1,0,240,153,1,239,2,4,2,stim/42.jpeg,Instruments,2,stim/objects/Instruments/acousticguitar2.png,0.3,2,0.2,0.15,right,10,2020-12-16_12h35.20.862,premup-three_ses-02_part-02_label-phase2,3.2.4,Win32,60,,,,,,,,,,,,,,,,,,,,,,,,,,,,,
right,0.812999964,1,120,1,0,1,0,1,0,1,0,240,105,1,239,2,3,2,stim/32.jpeg,Instruments,2,stim/objects/Instruments/cornet.png,0.7,1,-0.2,0.15,right,10,2020-12-16_12h35.20.862,premup-three_ses-02_part-02_label-phase2,3.2.4,Win32,60,,,,,,,,,,,,,,,,,,,,,,,,,,,,,
right,0.169999838,0,121,1,0,1,0,1,0,1,0,240,7,1,239,1,1,4,stim/14.jpeg,HouseObjects,1,stim/objects/HouseObjects/basket.png,0.5,4,0.2,-0.15,left,10,2020-12-16_12h35.20.862,premup-three_ses-02_part-02_label-phase2,3.2.4,Win32,60,,,,,,,,,,,,,,,,,,,,,,,,,,,,,
left,0.774999857,1,122,1,0,1,0,1,0,1,0,240,232,1,239,3,6,1,stim/61.jpeg,HouseObjects,1,stim/objects/HouseObjects/bucket2.png,0.9,4,0.2,-0.15,left,10,2020-12-16_12h35.20.862,premup-three_ses-02_part-02_label-phase2,3.2.4,Win32,60,,,,,,,,,,,,,,,,,,,,,,,,,,,,,
left,0.355000019,0,123,1,0,1,0,1,0,1,0,240,101,1,239,2,3,2,stim/32.jpeg,Instruments,2,stim/objects/Instruments/cornet.png,0.7,2,0.2,0.15,right,10,2020-12-16_12h35.20.862,premup-three_ses-02_part-02_label-phase2,3.2.4,Win32,60,,,,,,,,,,,,,,,,,,,,,,,,,,,,,
left,0.368000031,1,124,1,0,1,0,1,0,1,0,240,17,1,239,1,1,2,stim/12.jpeg,HouseObjects,1,stim/objects/HouseObjects/ballofstring.png,0.5,4,0.2,-0.15,left,10,2020-12-16_12h35.20.862,premup-three_ses-02_part-02_label-phase2,3.2.4,Win32,60,,,,,,,,,,,,,,,,,,,,,,,,,,,,,
left,0.413999796,1,125,1,0,1,0,1,0,1,0,240,130,1,239,2,4,3,stim/43.jpeg,HouseObjects,1,stim/objects/HouseObjects/barbecuelighter2.png,0.7,1,-0.2,0.15,left,10,2020-12-16_12h35.20.862,premup-three_ses-02_part-02_label-phase2,3.2.4,Win32,60,,,,,,,,,,,,,,,,,,,,,,,,,,,,,
left,0.272000074,0,126,1,0,1,0,1,0,1,0,240,156,1,239,2,4,1,stim/41.jpeg,Instruments,2,stim/objects/Instruments/accordion2.png,0.3,1,-0.2,0.15,right,10,2020-12-16_12h35.20.862,premup-three_ses-02_part-02_label-phase2,3.2.4,Win32,60,,,,,,,,,,,,,,,,,,,,,,,,,,,,,
right,0.242000103,1,127,1,0,1,0,1,0,1,0,240,148,1,239,2,4,1,stim/41.jpeg,Instruments,2,stim/objects/Instruments/accordion2.png,0.3,2,0.2,0.15,right,10,2020-12-16_12h35.20.862,premup-three_ses-02_part-02_label-phase2,3.2.4,Win32,60,,,,,,,,,,,,,,,,,,,,,,,,,,,,,
,,0,128,1,0,1,0,1,0,1,0,240,162,1,239,3,5,3,stim/53.jpeg,HouseObjects,1,stim/objects/HouseObjects/bottle2.png,0.1,2,0.2,0.15,left,10,2020-12-16_12h35.20.862,premup-three_ses-02_part-02_label-phase2,3.2.4,Win32,60,,,,,,,,,,,,,,,,,,,,,,,,,,,,,
left,0.280999899,0,129,1,0,1,0,1,0,1,0,240,193,1,239,3,5,2,stim/52.jpeg,Instruments,2,stim/objects/Instruments/bassguitar2.png,0.9,3,-0.2,-0.15,right,10,2020-12-16_12h35.20.862,premup-three_ses-02_part-02_label-phase2,3.2.4,Win32,60,,,,,,,,,,,,,,,,,,,,,,,,,,,,,
right,0.529999971,0,130,1,0,1,0,1,0,1,0,240,216,1,239,3,6,1,stim/61.jpeg,HouseObjects,1,stim/objects/HouseObjects/bucket2.png,0.9,1,-0.2,0.15,left,10,2020-12-16_12h35.20.862,premup-three_ses-02_part-02_label-phase2,3.2.4,Win32,60,,,,,,,,,,,,,,,,,,,,,,,,,,,,,
left,0.463000059,0,131,1,0,1,0,1,0,1,0,240,20,1,239,1,1,1,stim/11.jpeg,Instruments,2,stim/objects/Instruments/accordion.png,0.5,3,-0.2,-0.15,right,10,2020-12-16_12h35.20.862,premup-three_ses-02_part-02_label-phase2,3.2.4,Win32,60,,,,,,,,,,,,,,,,,,,,,,,,,,,,,
right,0.312000036,1,132,1,0,1,0,1,0,1,0,240,158,1,239,2,4,3,stim/43.jpeg,Instruments,2,stim/objects/Instruments/balalaika2.png,0.3,2,0.2,0.15,right,10,2020-12-16_12h35.20.862,premup-three_ses-02_part-02_label-phase2,3.2.4,Win32,60,,,,,,,,,,,,,,,,,,,,,,,,,,,,,
,,0,133,1,0,1,0,1,0,1,0,240,21,1,239,1,1,2,stim/12.jpeg,Instruments,2,stim/objects/Instruments/acousticguitar.png,0.5,2,0.2,0.15,right,10,2020-12-16_12h35.20.862,premup-three_ses-02_part-02_label-phase2,3.2.4,Win32,60,,,,,,,,,,,,,,,,,,,,,,,,,,,,,
right,0.447000027,1,134,1,0,1,0,1,0,1,0,240,22,1,239,1,1,3,stim/13.jpeg,Instruments,2,stim/objects/Instruments/balalaika.png,0.5,2,0.2,0.15,right,10,2020-12-16_12h35.20.862,premup-three_ses-02_part-02_label-phase2,3.2.4,Win32,60,,,,,,,,,,,,,,,,,,,,,,,,,,,,,
,,0,135,1,0,1,0,1,0,1,0,240,84,1,239,2,3,1,stim/31.jpeg,HouseObjects,1,stim/objects/HouseObjects/bucket.png,0.3,2,0.2,0.15,left,10,2020-12-16_12h35.20.862,premup-three_ses-02_part-02_label-phase2,3.2.4,Win32,60,,,,,,,,,,,,,,,,,,,,,,,,,,,,,
,,0,136,1,0,1,0,1,0,1,0,240,183,1,239,3,5,4,stim/54.jpeg,Instruments,2,stim/objects/Instruments/chime2.png,0.9,3,-0.2,-0.15,right,10,2020-12-16_12h35.20.862,premup-three_ses-02_part-02_label-phase2,3.2.4,Win32,60,,,,,,,,,,,,,,,,,,,,,,,,,,,,,
left,0.361000061,1,137,1,0,1,0,1,0,1,0,240,127,1,239,2,4,4,stim/44.jpeg,HouseObjects,1,stim/objects/HouseObjects/basket2.png,0.7,3,-0.2,-0.15,left,10,2020-12-16_12h35.20.862,premup-three_ses-02_part-02_label-phase2,3.2.4,Win32,60,,,,,,,,,,,,,,,,,,,,,,,,,,,,,
left,0.412999868,0,138,1,0,1,0,1,0,1,0,240,178,1,239,3,5,3,stim/53.jpeg,Instruments,2,stim/objects/Instruments/cello2.png,0.9,2,0.2,0.15,right,10,2020-12-16_12h35.20.862,premup-three_ses-02_part-02_label-phase2,3.2.4,Win32,60,,,,,,,,,,,,,,,,,,,,,,,,,,,,,
right,0.35800004,0,139,1,0,1,0,1,0,1,0,240,223,1,239,3,6,4,stim/64.jpeg,HouseObjects,1,stim/objects/HouseObjects/clothespin2.png,0.9,2,0.2,0.15,left,10,2020-12-16_12h35.20.862,premup-three_ses-02_part-02_label-phase2,3.2.4,Win32,60,,,,,,,,,,,,,,,,,,,,,,,,,,,,,
left,0.336000204,1,140,1,0,1,0,1,0,1,0,240,44,1,239,1,2,1,stim/21.jpeg,HouseObjects,1,stim/objects/HouseObjects/bleachbottle.png,0.5,1,-0.2,0.15,left,10,2020-12-16_12h35.20.862,premup-three_ses-02_part-02_label-phase2,3.2.4,Win32,60,,,,,,,,,,,,,,,,,,,,,,,,,,,,,
left,0.357999802,0,141,1,0,1,0,1,0,1,0,240,176,1,239,3,5,1,stim/51.jpeg,Instruments,2,stim/objects/Instruments/bassdrum2.png,0.9,4,0.2,-0.15,right,10,2020-12-16_12h35.20.862,premup-three_ses-02_part-02_label-phase2,3.2.4,Win32,60,,,,,,,,,,,,,,,,,,,,,,,,,,,,,
right,0.518000126,1,142,1,0,1,0,1,0,1,0,240,151,1,239,2,4,4,stim/44.jpeg,Instruments,2,stim/objects/Instruments/banjo2.png,0.3,1,-0.2,0.15,right,10,2020-12-16_12h35.20.862,premup-three_ses-02_part-02_label-phase2,3.2.4,Win32,60,,,,,,,,,,,,,,,,,,,,,,,,,,,,,
,,0,143,1,0,1,0,1,0,1,0,240,27,1,239,1,1,4,stim/14.jpeg,Instruments,2,stim/objects/Instruments/banjo.png,0.5,1,-0.2,0.15,right,10,2020-12-16_12h35.20.862,premup-three_ses-02_part-02_label-phase2,3.2.4,Win32,60,,,,,,,,,,,,,,,,,,,,,,,,,,,,,
right,0.313000202,1,144,1,0,1,0,1,0,1,0,240,25,1,239,1,1,2,stim/12.jpeg,Instruments,2,stim/objects/Instruments/acousticguitar.png,0.5,2,0.2,0.15,right,10,2020-12-16_12h35.20.862,premup-three_ses-02_part-02_label-phase2,3.2.4,Win32,60,,,,,,,,,,,,,,,,,,,,,,,,,,,,,
right,0.549999952,0,145,1,0,1,0,1,0,1,0,240,1,1,239,1,1,2,stim/12.jpeg,HouseObjects,1,stim/objects/HouseObjects/ballofstring.png,0.5,2,0.2,0.15,left,10,2020-12-16_12h35.20.862,premup-three_ses-02_part-02_label-phase2,3.2.4,Win32,60,,,,,,,,,,,,,,,,,,,,,,,,,,,,,
left,0.436000109,1,146,1,0,1,0,1,0,1,0,240,221,1,239,3,6,2,stim/62.jpeg,HouseObjects,1,stim/objects/HouseObjects/clock2.png,0.9,2,0.2,0.15,left,10,2020-12-16_12h35.20.862,premup-three_ses-02_part-02_label-phase2,3.2.4,Win32,60,,,,,,,,,,,,,,,,,,,,,,,,,,,,,
left,0.548999786,1,147,1,0,1,0,1,0,1,0,240,204,1,239,3,6,1,stim/61.jpeg,HouseObjects,1,stim/objects/HouseObjects/bucket2.png,0.9,2,0.2,0.15,left,10,2020-12-16_12h35.20.862,premup-three_ses-02_part-02_label-phase2,3.2.4,Win32,60,,,,,,,,,,,,,,,,,,,,,,,,,,,,,
left,0.440000057,1,148,1,0,1,0,1,0,1,0,240,14,1,239,1,1,3,stim/13.jpeg,HouseObjects,1,stim/objects/HouseObjects/barbecuelighter.png,0.5,1,-0.2,0.15,left,10,2020-12-16_12h35.20.862,premup-three_ses-02_part-02_label-phase2,3.2.4,Win32,60,,,,,,,,,,,,,,,,,,,,,,,,,,,,,
left,0.648999929,1,149,1,0,1,0,1,0,1,0,240,146,1,239,2,4,3,stim/43.jpeg,HouseObjects,1,stim/objects/HouseObjects/barbecuelighter2.png,0.7,4,0.2,-0.15,left,10,2020-12-16_12h35.20.862,premup-three_ses-02_part-02_label-phase2,3.2.4,Win32,60,,,,,,,,,,,,,,,,,,,,,,,,,,,,,
left,0.570999861,1,150,1,0,1,0,1,0,1,0,240,54,1,239,1,2,3,stim/23.jpeg,HouseObjects,1,stim/objects/HouseObjects/bottle.png,0.5,2,0.2,0.15,left,10,2020-12-16_12h35.20.862,premup-three_ses-02_part-02_label-phase2,3.2.4,Win32,60,,,,,,,,,,,,,,,,,,,,,,,,,,,,,
left,0.376000166,0,151,1,0,1,0,1,0,1,0,240,165,1,239,3,5,2,stim/52.jpeg,Instruments,2,stim/objects/Instruments/bassguitar2.png,0.9,4,0.2,-0.15,right,10,2020-12-16_12h35.20.862,premup-three_ses-02_part-02_label-phase2,3.2.4,Win32,60,,,,,,,,,,,,,,,,,,,,,,,,,,,,,
right,0.534999847,1,152,1,0,1,0,1,0,1,0,240,175,1,239,3,5,4,stim/54.jpeg,Instruments,2,stim/objects/Instruments/chime2.png,0.9,1,-0.2,0.15,right,10,2020-12-16_12h35.20.862,premup-three_ses-02_part-02_label-phase2,3.2.4,Win32,60,,,,,,,,,,,,,,,,,,,,,,,,,,,,,
right,0.297999859,0,153,1,0,1,0,1,0,1,0,240,124,1,239,2,4,1,stim/41.jpeg,HouseObjects,1,stim/objects/HouseObjects/ashtray2.png,0.7,2,0.2,0.15,left,10,2020-12-16_12h35.20.862,premup-three_ses-02_part-02_label-phase2,3.2.4,Win32,60,,,,,,,,,,,,,,,,,,,,,,,,,,,,,
left,0.345999956,1,154,1,0,1,0,1,0,1,0,240,87,1,239,2,3,4,stim/34.jpeg,HouseObjects,1,stim/objects/HouseObjects/clothespin.png,0.3,1,-0.2,0.15,left,10,2020-12-16_12h35.20.862,premup-three_ses-02_part-02_label-phase2,3.2.4,Win32,60,,,,,,,,,,,,,,,,,,,,,,,,,,,,,
left,0.3349998,1,155,1,0,1,0,1,0,1,0,240,233,1,239,3,6,2,stim/62.jpeg,HouseObjects,1,stim/objects/HouseObjects/clock2.png,0.9,1,-0.2,0.15,left,10,2020-12-16_12h35.20.862,premup-three_ses-02_part-02_label-phase2,3.2.4,Win32,60,,,,,,,,,,,,,,,,,,,,,,,,,,,,,
left,0.286000013,0,156,1,0,1,0,1,0,1,0,240,28,1,239,1,1,1,stim/11.jpeg,Instruments,2,stim/objects/Instruments/accordion.png,0.5,3,-0.2,-0.15,right,10,2020-12-16_12h35.20.862,premup-three_ses-02_part-02_label-phase2,3.2.4,Win32,60,,,,,,,,,,,,,,,,,,,,,,,,,,,,,
left,0.437000036,0,157,1,0,1,0,1,0,1,0,240,95,1,239,2,3,4,stim/34.jpeg,Instruments,2,stim/objects/Instruments/doublebass.png,0.7,1,-0.2,0.15,right,10,2020-12-16_12h35.20.862,premup-three_ses-02_part-02_label-phase2,3.2.4,Win32,60,,,,,,,,,,,,,,,,,,,,,,,,,,,,,
right,0.244000196,0,158,1,0,1,0,1,0,1,0,240,143,1,239,2,4,4,stim/44.jpeg,HouseObjects,1,stim/objects/HouseObjects/basket2.png,0.7,1,-0.2,0.15,left,10,2020-12-16_12h35.20.862,premup-three_ses-02_part-02_label-phase2,3.2.4,Win32,60,,,,,,,,,,,,,,,,,,,,,,,,,,,,,
left,0.266000032,1,159,1,0,1,0,1,0,1,0,240,219,1,239,3,6,4,stim/64.jpeg,HouseObjects,1,stim/objects/HouseObjects/clothespin2.png,0.9,3,-0.2,-0.15,left,10,2020-12-16_12h35.20.862,premup-three_ses-02_part-02_label-phase2,3.2.4,Win32,60,,,,,,,,,,,,,,,,,,,,,,,,,,,,,
left,0.279000044,1,160,1,0,1,0,1,0,1,0,240,5,1,239,1,1,2,stim/12.jpeg,HouseObjects,1,stim/objects/HouseObjects/ballofstring.png,0.5,2,0.2,0.15,left,10,2020-12-16_12h35.20.862,premup-three_ses-02_part-02_label-phase2,3.2.4,Win32,60,,,,,,,,,,,,,,,,,,,,,,,,,,,,,
left,0.424000025,0,161,1,0,1,0,1,0,1,0,240,23,1,239,1,1,4,stim/14.jpeg,Instruments,2,stim/objects/Instruments/banjo.png,0.5,1,-0.2,0.15,right,10,2020-12-16_12h35.20.862,premup-three_ses-02_part-02_label-phase2,3.2.4,Win32,60,,,,,,,,,,,,,,,,,,,,,,,,,,,,,
right,0.238000154,0,162,1,0,1,0,1,0,1,0,240,52,1,239,1,2,1,stim/21.jpeg,HouseObjects,1,stim/objects/HouseObjects/bleachbottle.png,0.5,1,-0.2,0.15,left,10,2020-12-16_12h35.20.862,premup-three_ses-02_part-02_label-phase2,3.2.4,Win32,60,,,,,,,,,,,,,,,,,,,,,,,,,,,,,
left,0.318000078,1,163,1,0,1,0,1,0,1,0,240,139,1,239,2,4,4,stim/44.jpeg,HouseObjects,1,stim/objects/HouseObjects/basket2.png,0.7,2,0.2,0.15,left,10,2020-12-16_12h35.20.862,premup-three_ses-02_part-02_label-phase2,3.2.4,Win32,60,,,,,,,,,,,,,,,,,,,,,,,,,,,,,
left,0.279999971,1,164,1,0,1,0,1,0,1,0,240,83,1,239,2,3,4,stim/34.jpeg,HouseObjects,1,stim/objects/HouseObjects/clothespin.png,0.3,1,-0.2,0.15,left,10,2020-12-16_12h35.20.862,premup-three_ses-02_part-02_label-phase2,3.2.4,Win32,60,,,,,,,,,,,,,,,,,,,,,,,,,,,,,
left,0.390999794,0,165,1,0,1,0,1,0,1,0,240,96,1,239,2,3,1,stim/31.jpeg,Instruments,2,stim/objects/Instruments/clarinet.png,0.7,4,0.2,-0.15,right,10,2020-12-16_12h35.20.862,premup-three_ses-02_part-02_label-phase2,3.2.4,Win32,60,,,,,,,,,,,,,,,,,,,,,,,,,,,,,
right,0.221999884,0,166,1,0,1,0,1,0,1,0,240,18,1,239,1,1,3,stim/13.jpeg,HouseObjects,1,stim/objects/HouseObjects/barbecuelighter.png,0.5,3,-0.2,-0.15,left,10,2020-12-16_12h35.20.862,premup-three_ses-02_part-02_label-phase2,3.2.4,Win32,60,,,,,,,,,,,,,,,,,,,,,,,,,,,,,
left,0.378999949,0,167,1,0,1,0,1,0,1,0,240,194,1,239,3,5,3,stim/53.jpeg,Instruments,2,stim/objects/Instruments/cello2.png,0.9,4,0.2,-0.15,right,10,2020-12-16_12h35.20.862,premup-three_ses-02_part-02_label-phase2,3.2.4,Win32,60,,,,,,,,,,,,,,,,,,,,,,,,,,,,,
right,0.249000072,1,168,1,0,1,0,1,0,1,0,240,75,1,239,1,2,4,stim/24.jpeg,Instruments,2,stim/objects/Instruments/chime.png,0.5,1,-0.2,0.15,right,10,2020-12-16_12h35.20.862,premup-three_ses-02_part-02_label-phase2,3.2.4,Win32,60,,,,,,,,,,,,,,,,,,,,,,,,,,,,,
right,0.263000011,1,169,1,0,1,0,1,0,1,0,240,195,1,239,3,5,4,stim/54.jpeg,Instruments,2,stim/objects/Instruments/chime2.png,0.9,4,0.2,-0.15,right,10,2020-12-16_12h35.20.862,premup-three_ses-02_part-02_label-phase2,3.2.4,Win32,60,,,,,,,,,,,,,,,,,,,,,,,,,,,,,
right,0.121999979,1,170,1,0,1,0,1,0,1,0,240,109,1,239,2,3,2,stim/32.jpeg,Instruments,2,stim/objects/Instruments/cornet.png,0.7,1,-0.2,0.15,right,10,2020-12-16_12h35.20.862,premup-three_ses-02_part-02_label-phase2,3.2.4,Win32,60,,,,,,,,,,,,,,,,,,,,,,,,,,,,,
right,0.45600009,1,171,1,0,1,0,1,0,1,0,240,63,1,239,1,2,4,stim/24.jpeg,Instruments,2,stim/objects/Instruments/chime.png,0.5,4,0.2,-0.15,right,10,2020-12-16_12h35.20.862,premup-three_ses-02_part-02_label-phase2,3.2.4,Win32,60,,,,,,,,,,,,,,,,,,,,,,,,,,,,,
left,0.317000151,0,172,1,0,1,0,1,0,1,0,240,155,1,239,2,4,4,stim/44.jpeg,Instruments,2,stim/objects/Instruments/banjo2.png,0.3,3,-0.2,-0.15,right,10,2020-12-16_12h35.20.862,premup-three_ses-02_part-02_label-phase2,3.2.4,Win32,60,,,,,,,,,,,,,,,,,,,,,,,,,,,,,
right,0.447000027,0,173,1,0,1,0,1,0,1,0,240,160,1,239,3,5,1,stim/51.jpeg,HouseObjects,1,stim/objects/HouseObjects/bleachbottle2.png,0.1,1,-0.2,0.15,left,10,2020-12-16_12h35.20.862,premup-three_ses-02_part-02_label-phase2,3.2.4,Win32,60,,,,,,,,,,,,,,,,,,,,,,,,,,,,,
left,0.222999811,1,174,1,0,1,0,1,0,1,0,240,138,1,239,2,4,3,stim/43.jpeg,HouseObjects,1,stim/objects/HouseObjects/barbecuelighter2.png,0.7,2,0.2,0.15,left,10,2020-12-16_12h35.20.862,premup-three_ses-02_part-02_label-phase2,3.2.4,Win32,60,,,,,,,,,,,,,,,,,,,,,,,,,,,,,
left,0.377000093,1,175,1,0,1,0,1,0,1,0,240,136,1,239,2,4,1,stim/41.jpeg,HouseObjects,1,stim/objects/HouseObjects/ashtray2.png,0.7,2,0.2,0.15,left,10,2020-12-16_12h35.20.862,premup-three_ses-02_part-02_label-phase2,3.2.4,Win32,60,,,,,,,,,,,,,,,,,,,,,,,,,,,,,
left,0.221999884,1,176,1,0,1,0,1,0,1,0,240,12,1,239,1,1,1,stim/11.jpeg,HouseObjects,1,stim/objects/HouseObjects/ashtray.png,0.5,4,0.2,-0.15,left,10,2020-12-16_12h35.20.862,premup-three_ses-02_part-02_label-phase2,3.2.4,Win32,60,,,,,,,,,,,,,,,,,,,,,,,,,,,,,
left,0.154000044,0,177,1,0,1,0,1,0,1,0,240,186,1,239,3,5,3,stim/53.jpeg,Instruments,2,stim/objects/Instruments/cello2.png,0.9,2,0.2,0.15,right,10,2020-12-16_12h35.20.862,premup-three_ses-02_part-02_label-phase2,3.2.4,Win32,60,,,,,,,,,,,,,,,,,,,,,,,,,,,,,
right,0.22300005,1,178,1,0,1,0,1,0,1,0,240,181,1,239,3,5,2,stim/52.jpeg,Instruments,2,stim/objects/Instruments/bassguitar2.png,0.9,1,-0.2,0.15,right,10,2020-12-16_12h35.20.862,premup-three_ses-02_part-02_label-phase2,3.2.4,Win32,60,,,,,,,,,,,,,,,,,,,,,,,,,,,,,
right,0.279000044,1,179,1,0,1,0,1,0,1,0,240,237,1,239,3,6,2,stim/62.jpeg,Instruments,2,stim/objects/Instruments/cornet2.png,0.1,1,-0.2,0.15,right,10,2020-12-16_12h35.20.862,premup-three_ses-02_part-02_label-phase2,3.2.4,Win32,60,,,,,,,,,,,,,,,,,,,,,,,,,,,,,
right,0.322999954,1,180,1,0,1,0,1,0,1,0,240,78,1,239,1,2,3,stim/23.jpeg,Instruments,2,stim/objects/Instruments/cello.png,0.5,2,0.2,0.15,right,10,2020-12-16_12h35.20.862,premup-three_ses-02_part-02_label-phase2,3.2.4,Win32,60,,,,,,,,,,,,,,,,,,,,,,,,,,,,,
right,0.116000175,1,181,1,0,1,0,1,0,1,0,240,38,1,239,1,1,3,stim/13.jpeg,Instruments,2,stim/objects/Instruments/balalaika.png,0.5,3,-0.2,-0.15,right,10,2020-12-16_12h35.20.862,premup-three_ses-02_part-02_label-phase2,3.2.4,Win32,60,,,,,,,,,,,,,,,,,,,,,,,,,,,,,
right,0.291000128,1,182,1,0,1,0,1,0,1,0,240,32,1,239,1,1,1,stim/11.jpeg,Instruments,2,stim/objects/Instruments/accordion.png,0.5,2,0.2,0.15,right,10,2020-12-16_12h35.20.862,premup-three_ses-02_part-02_label-phase2,3.2.4,Win32,60,,,,,,,,,,,,,,,,,,,,,,,,,,,,,
right,0.337999821,1,183,1,0,1,0,1,0,1,0,240,187,1,239,3,5,4,stim/54.jpeg,Instruments,2,stim/objects/Instruments/chime2.png,0.9,2,0.2,0.15,right,10,2020-12-16_12h35.20.862,premup-three_ses-02_part-02_label-phase2,3.2.4,Win32,60,,,,,,,,,,,,,,,,,,,,,,,,,,,,,
left,0.698999882,0,184,1,0,1,0,1,0,1,0,240,169,1,239,3,5,2,stim/52.jpeg,Instruments,2,stim/objects/Instruments/bassguitar2.png,0.9,3,-0.2,-0.15,right,10,2020-12-16_12h35.20.862,premup-three_ses-02_part-02_label-phase2,3.2.4,Win32,60,,,,,,,,,,,,,,,,,,,,,,,,,,,,,
right,0.251000166,0,185,1,0,1,0,1,0,1,0,240,201,1,239,3,6,2,stim/62.jpeg,HouseObjects,1,stim/objects/HouseObjects/clock2.png,0.9,4,0.2,-0.15,left,10,2020-12-16_12h35.20.862,premup-three_ses-02_part-02_label-phase2,3.2.4,Win32,60,,,,,,,,,,,,,,,,,,,,,,,,,,,,,
left,0.315000057,0,186,1,0,1,0,1,0,1,0,240,159,1,239,2,4,4,stim/44.jpeg,Instruments,2,stim/objects/Instruments/banjo2.png,0.3,4,0.2,-0.15,right,10,2020-12-16_12h35.20.862,premup-three_ses-02_part-02_label-phase2,3.2.4,Win32,60,,,,,,,,,,,,,,,,,,,,,,,,,,,,,
right,0.210000038,0,187,1,0,1,0,1,0,1,0,240,13,1,239,1,1,2,stim/12.jpeg,HouseObjects,1,stim/objects/HouseObjects/ballofstring.png,0.5,1,-0.2,0.15,left,10,2020-12-16_12h35.20.862,premup-three_ses-02_part-02_label-phase2,3.2.4,Win32,60,,,,,,,,,,,,,,,,,,,,,,,,,,,,,
left,0.448999882,0,188,1,0,1,0,1,0,1,0,240,106,1,239,2,3,3,stim/33.jpeg,Instruments,2,stim/objects/Instruments/cymbal.png,0.7,2,0.2,0.15,right,10,2020-12-16_12h35.20.862,premup-three_ses-02_part-02_label-phase2,3.2.4,Win32,60,,,,,,,,,,,,,,,,,,,,,,,,,,,,,
right,0.269999981,1,189,1,0,1,0,1,0,1,0,240,30,1,239,1,1,3,stim/13.jpeg,Instruments,2,stim/objects/Instruments/balalaika.png,0.5,2,0.2,0.15,right,10,2020-12-16_12h35.20.862,premup-three_ses-02_part-02_label-phase2,3.2.4,Win32,60,,,,,,,,,,,,,,,,,,,,,,,,,,,,,
right,0.395999908,1,190,1,0,1,0,1,0,1,0,240,167,1,239,3,5,4,stim/54.jpeg,Instruments,2,stim/objects/Instruments/chime2.png,0.9,4,0.2,-0.15,right,10,2020-12-16_12h35.20.862,premup-three_ses-02_part-02_label-phase2,3.2.4,Win32,60,,,,,,,,,,,,,,,,,,,,,,,,,,,,,
right,0.279999971,1,191,1,0,1,0,1,0,1,0,240,113,1,239,2,3,2,stim/32.jpeg,Instruments,2,stim/objects/Instruments/cornet.png,0.7,3,-0.2,-0.15,right,10,2020-12-16_12h35.20.862,premup-three_ses-02_part-02_label-phase2,3.2.4,Win32,60,,,,,,,,,,,,,,,,,,,,,,,,,,,,,
right,0.825000048,1,192,1,0,1,0,1,0,1,0,240,64,1,239,1,2,1,stim/21.jpeg,Instruments,2,stim/objects/Instruments/bassdrum.png,0.5,1,-0.2,0.15,right,10,2020-12-16_12h35.20.862,premup-three_ses-02_part-02_label-phase2,3.2.4,Win32,60,,,,,,,,,,,,,,,,,,,,,,,,,,,,,
left,0.471000195,1,193,1,0,1,0,1,0,1,0,240,209,1,239,3,6,2,stim/62.jpeg,HouseObjects,1,stim/objects/HouseObjects/clock2.png,0.9,1,-0.2,0.15,left,10,2020-12-16_12h35.20.862,premup-three_ses-02_part-02_label-phase2,3.2.4,Win32,60,,,,,,,,,,,,,,,,,,,,,,,,,,,,,
left,0.363999844,1,194,1,0,1,0,1,0,1,0,240,15,1,239,1,1,4,stim/14.jpeg,HouseObjects,1,stim/objects/HouseObjects/basket.png,0.5,3,-0.2,-0.15,left,10,2020-12-16_12h35.20.862,premup-three_ses-02_part-02_label-phase2,3.2.4,Win32,60,,,,,,,,,,,,,,,,,,,,,,,,,,,,,
left,0.460000038,0,195,1,0,1,0,1,0,1,0,240,196,1,239,3,5,1,stim/51.jpeg,Instruments,2,stim/objects/Instruments/bassdrum2.png,0.9,3,-0.2,-0.15,right,10,2020-12-16_12h35.20.862,premup-three_ses-02_part-02_label-phase2,3.2.4,Win32,60,,,,,,,,,,,,,,,,,,,,,,,,,,,,,
right,0.230999947,0,196,1,0,1,0,1,0,1,0,240,49,1,239,1,2,2,stim/22.jpeg,HouseObjects,1,stim/objects/HouseObjects/blender.png,0.5,2,0.2,0.15,left,10,2020-12-16_12h35.20.862,premup-three_ses-02_part-02_label-phase2,3.2.4,Win32,60,,,,,,,,,,,,,,,,,,,,,,,,,,,,,
left,0.21600008,1,197,1,0,1,0,1,0,1,0,240,206,1,239,3,6,3,stim/63.jpeg,HouseObjects,1,stim/objects/HouseObjects/clothesdryingrack2.png,0.9,2,0.2,0.15,left,10,2020-12-16_12h35.20.862,premup-three_ses-02_part-02_label-phase2,3.2.4,Win32,60,,,,,,,,,,,,,,,,,,,,,,,,,,,,,
left,0.265000105,1,198,1,0,1,0,1,0,1,0,240,132,1,239,2,4,1,stim/41.jpeg,HouseObjects,1,stim/objects/HouseObjects/ashtray2.png,0.7,4,0.2,-0.15,left,10,2020-12-16_12h35.20.862,premup-three_ses-02_part-02_label-phase2,3.2.4,Win32,60,,,,,,,,,,,,,,,,,,,,,,,,,,,,,
left,0.229000092,0,199,1,0,1,0,1,0,1,0,240,99,1,239,2,3,4,stim/34.jpeg,Instruments,2,stim/objects/Instruments/doublebass.png,0.7,4,0.2,-0.15,right,10,2020-12-16_12h35.20.862,premup-three_ses-02_part-02_label-phase2,3.2.4,Win32,60,,,,,,,,,,,,,,,,,,,,,,,,,,,,,
right,0.213999987,0,200,1,0,1,0,1,0,1,0,240,59,1,239,1,2,4,stim/24.jpeg,HouseObjects,1,stim/objects/HouseObjects/broom.png,0.5,2,0.2,0.15,left,10,2020-12-16_12h35.20.862,premup-three_ses-02_part-02_label-phase2,3.2.4,Win32,60,,,,,,,,,,,,,,,,,,,,,,,,,,,,,
left,0.275000095,1,201,1,0,1,0,1,0,1,0,240,144,1,239,2,4,1,stim/41.jpeg,HouseObjects,1,stim/objects/HouseObjects/ashtray2.png,0.7,4,0.2,-0.15,left,10,2020-12-16_12h35.20.862,premup-three_ses-02_part-02_label-phase2,3.2.4,Win32,60,,,,,,,,,,,,,,,,,,,,,,,,,,,,,
left,0.237999916,1,202,1,0,1,0,1,0,1,0,240,86,1,239,2,3,3,stim/33.jpeg,HouseObjects,1,stim/objects/HouseObjects/clothesdryingrack.png,0.3,1,-0.2,0.15,left,10,2020-12-16_12h35.20.862,premup-three_ses-02_part-02_label-phase2,3.2.4,Win32,60,,,,,,,,,,,,,,,,,,,,,,,,,,,,,
left,0.447999954,1,203,1,0,1,0,1,0,1,0,240,141,1,239,2,4,2,stim/42.jpeg,HouseObjects,1,stim/objects/HouseObjects/ballofstring2.png,0.7,4,0.2,-0.15,left,10,2020-12-16_12h35.20.862,premup-three_ses-02_part-02_label-phase2,3.2.4,Win32,60,,,,,,,,,,,,,,,,,,,,,,,,,,,,,
left,0.279999971,1,204,1,0,1,0,1,0,1,0,240,214,1,239,3,6,3,stim/63.jpeg,HouseObjects,1,stim/objects/HouseObjects/clothesdryingrack2.png,0.9,4,0.2,-0.15,left,10,2020-12-16_12h35.20.862,premup-three_ses-02_part-02_label-phase2,3.2.4,Win32,60,,,,,,,,,,,,,,,,,,,,,,,,,,,,,
left,0.480999947,0,205,1,0,1,0,1,0,1,0,240,117,1,239,2,3,2,stim/32.jpeg,Instruments,2,stim/objects/Instruments/cornet.png,0.7,4,0.2,-0.15,right,10,2020-12-16_12h35.20.862,premup-three_ses-02_part-02_label-phase2,3.2.4,Win32,60,,,,,,,,,,,,,,,,,,,,,,,,,,,,,
right,0.198999882,0,206,1,0,1,0,1,0,1,0,240,55,1,239,1,2,4,stim/24.jpeg,HouseObjects,1,stim/objects/HouseObjects/broom.png,0.5,4,0.2,-0.15,left,10,2020-12-16_12h35.20.862,premup-three_ses-02_part-02_label-phase2,3.2.4,Win32,60,,,,,,,,,,,,,,,,,,,,,,,,,,,,,
left,0.467999935,1,207,1,0,1,0,1,0,1,0,240,129,1,239,2,4,2,stim/42.jpeg,HouseObjects,1,stim/objects/HouseObjects/ballofstring2.png,0.7,2,0.2,0.15,left,10,2020-12-16_12h35.20.862,premup-three_ses-02_part-02_label-phase2,3.2.4,Win32,60,,,,,,,,,,,,,,,,,,,,,,,,,,,,,
left,0.447000027,0,208,1,0,1,0,1,0,1,0,240,74,1,239,1,2,3,stim/23.jpeg,Instruments,2,stim/objects/Instruments/cello.png,0.5,4,0.2,-0.15,right,10,2020-12-16_12h35.20.862,premup-three_ses-02_part-02_label-phase2,3.2.4,Win32,60,,,,,,,,,,,,,,,,,,,,,,,,,,,,,
right,0.246999979,0,209,1,0,1,0,1,0,1,0,240,91,1,239,2,3,4,stim/34.jpeg,HouseObjects,1,stim/objects/HouseObjects/clothespin.png,0.3,4,0.2,-0.15,left,10,2020-12-16_12h35.20.862,premup-three_ses-02_part-02_label-phase2,3.2.4,Win32,60,,,,,,,,,,,,,,,,,,,,,,,,,,,,,
left,0.210999966,1,210,1,0,1,0,1,0,1,0,240,53,1,239,1,2,2,stim/22.jpeg,HouseObjects,1,stim/objects/HouseObjects/blender.png,0.5,4,0.2,-0.15,left,10,2020-12-16_12h35.20.862,premup-three_ses-02_part-02_label-phase2,3.2.4,Win32,60,,,,,,,,,,,,,,,,,,,,,,,,,,,,,
left,0.534999847,1,211,1,0,1,0,1,0,1,0,240,145,1,239,2,4,2,stim/42.jpeg,HouseObjects,1,stim/objects/HouseObjects/ballofstring2.png,0.7,3,-0.2,-0.15,left,10,2020-12-16_12h35.20.862,premup-three_ses-02_part-02_label-phase2,3.2.4,Win32,60,,,,,,,,,,,,,,,,,,,,,,,,,,,,,
left,0.13499999,0,212,1,0,1,0,1,0,1,0,240,62,1,239,1,2,3,stim/23.jpeg,Instruments,2,stim/objects/Instruments/cello.png,0.5,4,0.2,-0.15,right,10,2020-12-16_12h35.20.862,premup-three_ses-02_part-02_label-phase2,3.2.4,Win32,60,,,,,,,,,,,,,,,,,,,,,,,,,,,,,
right,0.412999868,0,213,1,0,1,0,1,0,1,0,240,42,1,239,1,2,3,stim/23.jpeg,HouseObjects,1,stim/objects/HouseObjects/bottle.png,0.5,1,-0.2,0.15,left,10,2020-12-16_12h35.20.862,premup-three_ses-02_part-02_label-phase2,3.2.4,Win32,60,,,,,,,,,,,,,,,,,,,,,,,,,,,,,
left,0.302000046,1,214,1,0,1,0,1,0,1,0,240,229,1,239,3,6,2,stim/62.jpeg,HouseObjects,1,stim/objects/HouseObjects/clock2.png,0.9,3,-0.2,-0.15,left,10,2020-12-16_12h35.20.862,premup-three_ses-02_part-02_label-phase2,3.2.4,Win32,60,,,,,,,,,,,,,,,,,,,,,,,,,,,,,
left,0.230999947,0,215,1,0,1,0,1,0,1,0,240,103,1,239,2,3,4,stim/34.jpeg,Instruments,2,stim/objects/Instruments/doublebass.png,0.7,3,-0.2,-0.15,right,10,2020-12-16_12h35.20.862,premup-three_ses-02_part-02_label-phase2,3.2.4,Win32,60,,,,,,,,,,,,,,,,,,,,,,,,,,,,,
right,0.213000059,0,216,1,0,1,0,1,0,1,0,240,10,1,239,1,1,3,stim/13.jpeg,HouseObjects,1,stim/objects/HouseObjects/barbecuelighter.png,0.5,4,0.2,-0.15,left,10,2020-12-16_12h35.20.862,premup-three_ses-02_part-02_label-phase2,3.2.4,Win32,60,,,,,,,,,,,,,,,,,,,,,,,,,,,,,
left,0.407999992,1,217,1,0,1,0,1,0,1,0,240,225,1,239,3,6,2,stim/62.jpeg,HouseObjects,1,stim/objects/HouseObjects/clock2.png,0.9,4,0.2,-0.15,left,10,2020-12-16_12h35.20.862,premup-three_ses-02_part-02_label-phase2,3.2.4,Win32,60,,,,,,,,,,,,,,,,,,,,,,,,,,,,,
left,0.249000072,1,218,1,0,1,0,1,0,1,0,240,224,1,239,3,6,1,stim/61.jpeg,HouseObjects,1,stim/objects/HouseObjects/bucket2.png,0.9,2,0.2,0.15,left,10,2020-12-16_12h35.20.862,premup-three_ses-02_part-02_label-phase2,3.2.4,Win32,60,,,,,,,,,,,,,,,,,,,,,,,,,,,,,
left,0.497999907,0,219,1,0,1,0,1,0,1,0,240,185,1,239,3,5,2,stim/52.jpeg,Instruments,2,stim/objects/Instruments/bassguitar2.png,0.9,3,-0.2,-0.15,right,10,2020-12-16_12h35.20.862,premup-three_ses-02_part-02_label-phase2,3.2.4,Win32,60,,,,,,,,,,,,,,,,,,,,,,,,,,,,,
right,0.240999937,0,220,1,0,1,0,1,0,1,0,240,231,1,239,3,6,4,stim/64.jpeg,HouseObjects,1,stim/objects/HouseObjects/clothespin2.png,0.9,3,-0.2,-0.15,left,10,2020-12-16_12h35.20.862,premup-three_ses-02_part-02_label-phase2,3.2.4,Win32,60,,,,,,,,,,,,,,,,,,,,,,,,,,,,,
left,0.398000002,0,221,1,0,1,0,1,0,1,0,240,24,1,239,1,1,1,stim/11.jpeg,Instruments,2,stim/objects/Instruments/accordion.png,0.5,4,0.2,-0.15,right,10,2020-12-16_12h35.20.862,premup-three_ses-02_part-02_label-phase2,3.2.4,Win32,60,,,,,,,,,,,,,,,,,,,,,,,,,,,,,
right,0.19299984,0,222,1,0,1,0,1,0,1,0,240,227,1,239,3,6,4,stim/64.jpeg,HouseObjects,1,stim/objects/HouseObjects/clothespin2.png,0.9,4,0.2,-0.15,left,10,2020-12-16_12h35.20.862,premup-three_ses-02_part-02_label-phase2,3.2.4,Win32,60,,,,,,,,,,,,,,,,,,,,,,,,,,,,,
left,0.230999947,0,223,1,0,1,0,1,0,1,0,240,97,1,239,2,3,2,stim/32.jpeg,Instruments,2,stim/objects/Instruments/cornet.png,0.7,2,0.2,0.15,right,10,2020-12-16_12h35.20.862,premup-three_ses-02_part-02_label-phase2,3.2.4,Win32,60,,,,,,,,,,,,,,,,,,,,,,,,,,,,,
right,0.228999853,0,224,1,0,1,0,1,0,1,0,240,205,1,239,3,6,2,stim/62.jpeg,HouseObjects,1,stim/objects/HouseObjects/clock2.png,0.9,3,-0.2,-0.15,left,10,2020-12-16_12h35.20.862,premup-three_ses-02_part-02_label-phase2,3.2.4,Win32,60,,,,,,,,,,,,,,,,,,,,,,,,,,,,,
left,0.038999796,0,225,1,0,1,0,1,0,1,0,240,102,1,239,2,3,3,stim/33.jpeg,Instruments,2,stim/objects/Instruments/cymbal.png,0.7,3,-0.2,-0.15,right,10,2020-12-16_12h35.20.862,premup-three_ses-02_part-02_label-phase2,3.2.4,Win32,60,,,,,,,,,,,,,,,,,,,,,,,,,,,,,
right,0.130000114,0,226,1,0,1,0,1,0,1,0,240,88,1,239,2,3,1,stim/31.jpeg,HouseObjects,1,stim/objects/HouseObjects/bucket.png,0.3,1,-0.2,0.15,left,10,2020-12-16_12h35.20.862,premup-three_ses-02_part-02_label-phase2,3.2.4,Win32,60,,,,,,,,,,,,,,,,,,,,,,,,,,,,,
left,0.30099988,1,227,1,0,1,0,1,0,1,0,240,3,1,239,1,1,4,stim/14.jpeg,HouseObjects,1,stim/objects/HouseObjects/basket.png,0.5,4,0.2,-0.15,left,10,2020-12-16_12h35.20.862,premup-three_ses-02_part-02_label-phase2,3.2.4,Win32,60,,,,,,,,,,,,,,,,,,,,,,,,,,,,,
left,0.263000011,0,228,1,0,1,0,1,0,1,0,240,79,1,239,1,2,4,stim/24.jpeg,Instruments,2,stim/objects/Instruments/chime.png,0.5,1,-0.2,0.15,right,10,2020-12-16_12h35.20.862,premup-three_ses-02_part-02_label-phase2,3.2.4,Win32,60,,,,,,,,,,,,,,,,,,,,,,,,,,,,,
left,0.115999937,1,229,1,0,1,0,1,0,1,0,240,19,1,239,1,1,4,stim/14.jpeg,HouseObjects,1,stim/objects/HouseObjects/basket.png,0.5,2,0.2,0.15,left,10,2020-12-16_12h35.20.862,premup-three_ses-02_part-02_label-phase2,3.2.4,Win32,60,,,,,,,,,,,,,,,,,,,,,,,,,,,,,
left,0.247999907,0,230,1,0,1,0,1,0,1,0,240,170,1,239,3,5,3,stim/53.jpeg,Instruments,2,stim/objects/Instruments/cello2.png,0.9,2,0.2,0.15,right,10,2020-12-16_12h35.20.862,premup-three_ses-02_part-02_label-phase2,3.2.4,Win32,60,,,,,,,,,,,,,,,,,,,,,,,,,,,,,
right,0.282999992,1,231,1,0,1,0,1,0,1,0,240,239,1,239,3,6,4,stim/64.jpeg,Instruments,2,stim/objects/Instruments/doublebass2.png,0.1,3,-0.2,-0.15,right,10,2020-12-16_12h35.20.862,premup-three_ses-02_part-02_label-phase2,3.2.4,Win32,60,,,,,,,,,,,,,,,,,,,,,,,,,,,,,
right,0.245000124,0,232,1,0,1,0,1,0,1,0,240,235,1,239,3,6,4,stim/64.jpeg,HouseObjects,1,stim/objects/HouseObjects/clothespin2.png,0.9,1,-0.2,0.15,left,10,2020-12-16_12h35.20.862,premup-three_ses-02_part-02_label-phase2,3.2.4,Win32,60,,,,,,,,,,,,,,,,,,,,,,,,,,,,,
left,0.247999907,1,233,1,0,1,0,1,0,1,0,240,58,1,239,1,2,3,stim/23.jpeg,HouseObjects,1,stim/objects/HouseObjects/bottle.png,0.5,1,-0.2,0.15,left,10,2020-12-16_12h35.20.862,premup-three_ses-02_part-02_label-phase2,3.2.4,Win32,60,,,,,,,,,,,,,,,,,,,,,,,,,,,,,
left,0.514999866,1,234,1,0,1,0,1,0,1,0,240,120,1,239,2,4,1,stim/41.jpeg,HouseObjects,1,stim/objects/HouseObjects/ashtray2.png,0.7,2,0.2,0.15,left,10,2020-12-16_12h35.20.862,premup-three_ses-02_part-02_label-phase2,3.2.4,Win32,60,,,,,,,,,,,,,,,,,,,,,,,,,,,,,
left,0.29399991,0,235,1,0,1,0,1,0,1,0,240,157,1,239,2,4,2,stim/42.jpeg,Instruments,2,stim/objects/Instruments/acousticguitar2.png,0.3,3,-0.2,-0.15,right,10,2020-12-16_12h35.20.862,premup-three_ses-02_part-02_label-phase2,3.2.4,Win32,60,,,,,,,,,,,,,,,,,,,,,,,,,,,,,
right,0.273000002,0,236,1,0,1,0,1,0,1,0,240,213,1,239,3,6,2,stim/62.jpeg,HouseObjects,1,stim/objects/HouseObjects/clock2.png,0.9,3,-0.2,-0.15,left,10,2020-12-16_12h35.20.862,premup-three_ses-02_part-02_label-phase2,3.2.4,Win32,60,,,,,,,,,,,,,,,,,,,,,,,,,,,,,
left,0.417000055,0,237,1,0,1,0,1,0,1,0,240,92,1,239,2,3,1,stim/31.jpeg,Instruments,2,stim/objects/Instruments/clarinet.png,0.7,1,-0.2,0.15,right,10,2020-12-16_12h35.20.862,premup-three_ses-02_part-02_label-phase2,3.2.4,Win32,60,,,,,,,,,,,,,,,,,,,,,,,,,,,,,
right,0.584000111,0,238,1,0,1,0,1,0,1,0,240,85,1,239,2,3,2,stim/32.jpeg,HouseObjects,1,stim/objects/HouseObjects/clock.png,0.3,3,-0.2,-0.15,left,10,2020-12-16_12h35.20.862,premup-three_ses-02_part-02_label-phase2,3.2.4,Win32,60,,,,,,,,,,,,,,,,,,,,,,,,,,,,,
left,0.362999916,1,239,1,0,1,0,1,0,1,0,240,56,1,239,1,2,1,stim/21.jpeg,HouseObjects,1,stim/objects/HouseObjects/bleachbottle.png,0.5,3,-0.2,-0.15,left,10,2020-12-16_12h35.20.862,premup-three_ses-02_part-02_label-phase2,3.2.4,Win32,60,,,,,,,,,,,,,,,,,,,,,,,,,,,,,
left,0.796000004,1,240,1,0,1,0,1,0,1,0,240,142,1,239,2,4,3,stim/43.jpeg,HouseObjects,1,stim/objects/HouseObjects/barbecuelighter2.png,0.7,4,0.2,-0.15,left,10,2020-12-16_12h35.20.862,premup-three_ses-02_part-02_label-phase2,3.2.4,Win32,60,,,,,,,,,,,,,,,,,,,,,,,,,,,,,
,,,,1,0,1,0,1,0,,,,,,,,6,,stim/61.jpeg,,,,,,,,,10,2020-12-16_12h35.20.862,premup-three_ses-02_part-02_label-phase2,3.2.4,Win32,60,95,11.53400016,,,1,0,6,5,1,5,Household items,5,15,Music items,85,95,,,,,,,,,,,,,
,,,,1,0,1,0,1,0,,,,,,,,5,,stim/51.jpeg,,,,,,,,,10,2020-12-16_12h35.20.862,premup-three_ses-02_part-02_label-phase2,3.2.4,Win32,60,81,4.754000187,,,1,0,6,4,1,5,Music items,5,15,Household items,85,95,,,,,,,,,,,,,
,,,,1,0,1,0,1,0,,,,,,,,1,,stim/11.jpeg,,,,,,,,,10,2020-12-16_12h35.20.862,premup-three_ses-02_part-02_label-phase2,3.2.4,Win32,60,61,10.20099998,,,1,0,6,0,1,5,Household items,45,55,Music items,45,55,,,,,,,,,,,,,
,,,,1,0,1,0,1,0,,,,,,,,4,,stim/41.jpeg,,,,,,,,,10,2020-12-16_12h35.20.862,premup-three_ses-02_part-02_label-phase2,3.2.4,Win32,60,83,7.048000097,,,1,0,6,3,1,5,Household items,65,75,Music items,25,35,,,,,,,,,,,,,
,,,,1,0,1,0,1,0,,,,,,,,3,,stim/31.jpeg,,,,,,,,,10,2020-12-16_12h35.20.862,premup-three_ses-02_part-02_label-phase2,3.2.4,Win32,60,86,6.750999928,,,1,0,6,2,1,5,Household items,65,75,Music items,25,35,,,,,,,,,,,,,
,,,,1,0,1,0,1,0,,,,,,,,2,,stim/21.jpeg,,,,,,,,,10,2020-12-16_12h35.20.862,premup-three_ses-02_part-02_label-phase2,3.2.4,Win32,60,86,2.504000187,,,1,0,6,1,1,5,Music items,45,55,Household items,45,55,,,,,,,,,,,,,
,,,,1,0,1,0,1,0,,,,,,,,,,,,,,,,,,,10,2020-12-16_12h35.20.862,premup-three_ses-02_part-02_label-phase2,3.2.4,Win32,60,,,,,,,,,,,,,,,,,,,,,,,,,,,,,
right,0.614000082,0,241,,,,,,,,,,,,,3,6,1,stim/61.jpeg,HouseObjects,1,stim/objects/HouseObjects/match.png,0.9,4,0.2,-0.15,left,10,2020-12-16_12h35.20.862,premup-three_ses-02_part-02_label-phase2,3.2.4,Win32,60,,,,,,,,,,,,,,,,,1,0,330,282,1,329,2,,,,,,
right,0.513000011,1,242,,,,,,,,,,,,,3,6,4,stim/64.jpeg,Instruments,2,stim/objects/Instruments/xylophone2.png,0.1,4,0.2,-0.15,right,10,2020-12-16_12h35.20.862,premup-three_ses-02_part-02_label-phase2,3.2.4,Win32,60,,,,,,,,,,,,,,,,,1,0,330,329,1,329,1,,,,,,
left,0.502000093,0,243,,,,,,,,,,,,,3,5,3,stim/53.jpeg,Instruments,2,stim/objects/Instruments/oboe2.png,0.9,4,0.2,-0.15,right,10,2020-12-16_12h35.20.862,premup-three_ses-02_part-02_label-phase2,3.2.4,Win32,60,,,,,,,,,,,,,,,,,1,0,330,224,1,329,1,,,,,,
right,0.345000029,0,244,,,,,,,,,,,,,1,1,1,stim/11.jpeg,HouseObjects,1,stim/objects/HouseObjects/rubbergloves.png,0.5,4,0.2,-0.15,left,10,2020-12-16_12h35.20.862,premup-three_ses-02_part-02_label-phase2,3.2.4,Win32,60,,,,,,,,,,,,,,,,,1,0,330,12,1,329,1,,,,,,
left,0.231999874,0,245,,,,,,,,,,,,,3,5,3,stim/53.jpeg,Instruments,2,stim/objects/Instruments/marimba2.png,0.9,1,-0.2,0.15,right,10,2020-12-16_12h35.20.862,premup-three_ses-02_part-02_label-phase2,3.2.4,Win32,60,,,,,,,,,,,,,,,,,1,0,330,220,1,329,1,,,,,,
right,0.307999849,0,246,,,,,,,,,,,,,1,1,4,stim/14.jpeg,HouseObjects,1,stim/objects/HouseObjects/doormat.png,0.5,4,0.2,-0.15,left,10,2020-12-16_12h35.20.862,premup-three_ses-02_part-02_label-phase2,3.2.4,Win32,60,,,,,,,,,,,,,,,,,1,0,330,3,1,329,2,,,,,,
right,0.367000103,1,247,,,,,,,,,,,,,2,3,3,stim/33.jpeg,Instruments,2,stim/objects/Instruments/tuba.png,0.7,4,0.2,-0.15,right,10,2020-12-16_12h35.20.862,premup-three_ses-02_part-02_label-phase2,3.2.4,Win32,60,,,,,,,,,,,,,,,,,1,0,330,86,1,329,1,,,,,,
left,0.378000021,1,248,,,,,,,,,,,,,2,4,4,stim/44.jpeg,HouseObjects,1,stim/objects/HouseObjects/iron.png,0.7,3,-0.2,-0.15,left,10,2020-12-16_12h35.20.862,premup-three_ses-02_part-02_label-phase2,3.2.4,Win32,60,,,,,,,,,,,,,,,,,1,0,330,102,1,329,2,,,,,,
,,0,249,,,,,,,,,,,,,2,4,2,stim/42.jpeg,HouseObjects,1,stim/objects/HouseObjects/ironingboard.png,0.7,1,-0.2,0.15,left,10,2020-12-16_12h35.20.862,premup-three_ses-02_part-02_label-phase2,3.2.4,Win32,60,,,,,,,,,,,,,,,,,1,0,330,108,1,329,2,,,,,,
right,0.326999903,1,250,,,,,,,,,,,,,2,3,2,stim/32.jpeg,Instruments,2,stim/objects/Instruments/laud.png,0.7,2,0.2,0.15,right,10,2020-12-16_12h35.20.862,premup-three_ses-02_part-02_label-phase2,3.2.4,Win32,60,,,,,,,,,,,,,,,,,1,0,330,73,1,329,2,,,,,,
right,0.312000036,1,251,,,,,,,,,,,,,1,2,3,stim/23.jpeg,Instruments,2,stim/objects/Instruments/triangle.png,0.5,2,0.2,0.15,right,10,2020-12-16_12h35.20.862,premup-three_ses-02_part-02_label-phase2,3.2.4,Win32,60,,,,,,,,,,,,,,,,,1,0,330,58,1,329,1,,,,,,
right,0.71600008,0,252,,,,,,,,,,,,,3,6,1,stim/61.jpeg,HouseObjects,1,stim/objects/HouseObjects/knife.png,0.9,2,0.2,0.15,left,10,2020-12-16_12h35.20.862,premup-three_ses-02_part-02_label-phase2,3.2.4,Win32,60,,,,,,,,,,,,,,,,,1,0,330,290,1,329,2,,,,,,
left,0.312000036,1,253,,,,,,,,,,,,,3,6,1,stim/61.jpeg,HouseObjects,1,stim/objects/HouseObjects/pitcher.png,0.9,3,-0.2,-0.15,left,10,2020-12-16_12h35.20.862,premup-three_ses-02_part-02_label-phase2,3.2.4,Win32,60,,,,,,,,,,,,,,,,,1,0,330,234,1,329,2,,,,,,
right,0.555000067,1,254,,,,,,,,,,,,,3,5,2,stim/52.jpeg,Instruments,2,stim/objects/Instruments/marimba.png,0.9,2,0.2,0.15,right,10,2020-12-16_12h35.20.862,premup-three_ses-02_part-02_label-phase2,3.2.4,Win32,60,,,,,,,,,,,,,,,,,1,0,330,175,1,329,2,,,,,,
left,0.630000114,0,255,,,,,,,,,,,,,1,1,3,stim/13.jpeg,Instruments,2,stim/objects/Instruments/flute.png,0.5,2,0.2,0.15,right,10,2020-12-16_12h35.20.862,premup-three_ses-02_part-02_label-phase2,3.2.4,Win32,60,,,,,,,,,,,,,,,,,1,0,330,18,1,329,2,,,,,,
right,0.21999979,1,256,,,,,,,,,,,,,1,1,3,stim/13.jpeg,Instruments,2,stim/objects/Instruments/pipepiano.png,0.5,2,0.2,0.15,right,10,2020-12-16_12h35.20.862,premup-three_ses-02_part-02_label-phase2,3.2.4,Win32,60,,,,,,,,,,,,,,,,,1,0,330,26,1,329,1,,,,,,
left,0.245999813,1,257,,,,,,,,,,,,,3,6,2,stim/62.jpeg,HouseObjects,1,stim/objects/HouseObjects/knife.png,0.9,4,0.2,-0.15,left,10,2020-12-16_12h35.20.862,premup-three_ses-02_part-02_label-phase2,3.2.4,Win32,60,,,,,,,,,,,,,,,,,1,0,330,275,1,329,2,,,,,,
left,0.575000048,0,258,,,,,,,,,,,,,3,6,1,stim/61.jpeg,Instruments,2,stim/objects/Instruments/timbal2.png,0.1,2,0.2,0.15,right,10,2020-12-16_12h35.20.862,premup-three_ses-02_part-02_label-phase2,3.2.4,Win32,60,,,,,,,,,,,,,,,,,1,0,330,322,1,329,1,,,,,,
right,0.25999999,1,259,,,,,,,,,,,,,3,5,3,stim/53.jpeg,Instruments,2,stim/objects/Instruments/oboe.png,0.9,3,-0.2,-0.15,right,10,2020-12-16_12h35.20.862,premup-three_ses-02_part-02_label-phase2,3.2.4,Win32,60,,,,,,,,,,,,,,,,,1,0,330,184,1,329,2,,,,,,
right,0.343999863,1,260,,,,,,,,,,,,,1,2,1,stim/21.jpeg,Instruments,2,stim/objects/Instruments/tambourine.png,0.5,2,0.2,0.15,right,10,2020-12-16_12h35.20.862,premup-three_ses-02_part-02_label-phase2,3.2.4,Win32,60,,,,,,,,,,,,,,,,,1,0,330,56,1,329,1,,,,,,
right,0.26699996,1,261,,,,,,,,,,,,,3,5,1,stim/51.jpeg,Instruments,2,stim/objects/Instruments/oboe.png,0.9,3,-0.2,-0.15,right,10,2020-12-16_12h35.20.862,premup-three_ses-02_part-02_label-phase2,3.2.4,Win32,60,,,,,,,,,,,,,,,,,1,0,330,154,1,329,2,,,,,,
right,0.50999999,0,262,,,,,,,,,,,,,2,3,2,stim/32.jpeg,HouseObjects,1,stim/objects/HouseObjects/coffee2.png,0.3,2,0.2,0.15,left,10,2020-12-16_12h35.20.862,premup-three_ses-02_part-02_label-phase2,3.2.4,Win32,60,,,,,,,,,,,,,,,,,1,0,330,65,1,329,1,,,,,,
right,0.202000141,1,263,,,,,,,,,,,,,2,4,2,stim/42.jpeg,Instruments,2,stim/objects/Instruments/laud2.png,0.3,3,-0.2,-0.15,right,10,2020-12-16_12h35.20.862,premup-three_ses-02_part-02_label-phase2,3.2.4,Win32,60,,,,,,,,,,,,,,,,,1,0,330,128,1,329,1,,,,,,
left,0.26699996,1,264,,,,,,,,,,,,,2,3,1,stim/31.jpeg,HouseObjects,1,stim/objects/HouseObjects/wateringcan.png,0.3,1,-0.2,0.15,left,10,2020-12-16_12h35.20.862,premup-three_ses-02_part-02_label-phase2,3.2.4,Win32,60,,,,,,,,,,,,,,,,,1,0,330,64,1,329,1,,,,,,
right,0.204999924,0,265,,,,,,,,,,,,,3,6,3,stim/63.jpeg,HouseObjects,1,stim/objects/HouseObjects/knife.png,0.9,4,0.2,-0.15,left,10,2020-12-16_12h35.20.862,premup-three_ses-02_part-02_label-phase2,3.2.4,Win32,60,,,,,,,,,,,,,,,,,1,0,330,300,1,329,2,,,,,,
right,0.421999931,0,266,,,,,,,,,,,,,2,4,3,stim/43.jpeg,HouseObjects,1,stim/objects/HouseObjects/glassmop2.png,0.7,3,-0.2,-0.15,left,10,2020-12-16_12h35.20.862,premup-three_ses-02_part-02_label-phase2,3.2.4,Win32,60,,,,,,,,,,,,,,,,,1,0,330,113,1,329,1,,,,,,
left,0.122999907,1,267,,,,,,,,,,,,,3,6,4,stim/64.jpeg,HouseObjects,1,stim/objects/HouseObjects/knife.png,0.9,2,0.2,0.15,left,10,2020-12-16_12h35.20.862,premup-three_ses-02_part-02_label-phase2,3.2.4,Win32,60,,,,,,,,,,,,,,,,,1,0,330,245,1,329,2,,,,,,
left,0.17200017,0,268,,,,,,,,,,,,,3,5,3,stim/53.jpeg,Instruments,2,stim/objects/Instruments/musicsheet.png,0.9,1,-0.2,0.15,right,10,2020-12-16_12h35.20.862,premup-three_ses-02_part-02_label-phase2,3.2.4,Win32,60,,,,,,,,,,,,,,,,,1,0,330,212,1,329,2,,,,,,
left,0.246999979,0,269,,,,,,,,,,,,,3,5,3,stim/53.jpeg,Instruments,2,stim/objects/Instruments/musicstand.png,0.9,2,0.2,0.15,right,10,2020-12-16_12h35.20.862,premup-three_ses-02_part-02_label-phase2,3.2.4,Win32,60,,,,,,,,,,,,,,,,,1,0,330,208,1,329,2,,,,,,
right,0.194000006,1,270,,,,,,,,,,,,,1,2,4,stim/24.jpeg,Instruments,2,stim/objects/Instruments/trombone.png,0.5,1,-0.2,0.15,right,10,2020-12-16_12h35.20.862,premup-three_ses-02_part-02_label-phase2,3.2.4,Win32,60,,,,,,,,,,,,,,,,,1,0,330,59,1,329,1,,,,,,
right,0.316000223,0,271,,,,,,,,,,,,,3,6,4,stim/64.jpeg,HouseObjects,1,stim/objects/HouseObjects/knife.png,0.9,4,0.2,-0.15,left,10,2020-12-16_12h35.20.862,premup-three_ses-02_part-02_label-phase2,3.2.4,Win32,60,,,,,,,,,,,,,,,,,1,0,330,305,1,329,2,,,,,,
left,0.117000103,1,272,,,,,,,,,,,,,3,6,3,stim/63.jpeg,HouseObjects,1,stim/objects/HouseObjects/pitcher.png,0.9,2,0.2,0.15,left,10,2020-12-16_12h35.20.862,premup-three_ses-02_part-02_label-phase2,3.2.4,Win32,60,,,,,,,,,,,,,,,,,1,0,330,284,1,329,2,,,,,,
left,0.380000114,0,273,,,,,,,,,,,,,3,5,4,stim/54.jpeg,Instruments,2,stim/objects/Instruments/oboe.png,0.9,2,0.2,0.15,right,10,2020-12-16_12h35.20.862,premup-three_ses-02_part-02_label-phase2,3.2.4,Win32,60,,,,,,,,,,,,,,,,,1,0,330,189,1,329,2,,,,,,
left,0.289000034,0,274,,,,,,,,,,,,,3,5,1,stim/51.jpeg,Instruments,2,stim/objects/Instruments/oboe.png,0.9,1,-0.2,0.15,right,10,2020-12-16_12h35.20.862,premup-three_ses-02_part-02_label-phase2,3.2.4,Win32,60,,,,,,,,,,,,,,,,,1,0,330,214,1,329,2,,,,,,
left,0.444000006,0,275,,,,,,,,,,,,,1,1,1,stim/11.jpeg,Instruments,2,stim/objects/Instruments/electricdrumset.png,0.5,1,-0.2,0.15,right,10,2020-12-16_12h35.20.862,premup-three_ses-02_part-02_label-phase2,3.2.4,Win32,60,,,,,,,,,,,,,,,,,1,0,330,16,1,329,2,,,,,,
left,0.334000111,0,276,,,,,,,,,,,,,3,6,1,stim/61.jpeg,Instruments,2,stim/objects/Instruments/tuba2.png,0.1,2,0.2,0.15,right,10,2020-12-16_12h35.20.862,premup-three_ses-02_part-02_label-phase2,3.2.4,Win32,60,,,,,,,,,,,,,,,,,1,0,330,326,1,329,1,,,,,,
right,0.445000172,1,277,,,,,,,,,,,,,1,2,4,stim/24.jpeg,Instruments,2,stim/objects/Instruments/grandpiano.png,0.5,1,-0.2,0.15,right,10,2020-12-16_12h35.20.862,premup-three_ses-02_part-02_label-phase2,3.2.4,Win32,60,,,,,,,,,,,,,,,,,1,0,330,47,1,329,2,,,,,,
right,0.304000139,0,278,,,,,,,,,,,,,3,5,1,stim/51.jpeg,HouseObjects,1,stim/objects/HouseObjects/knife2.png,0.1,3,-0.2,-0.15,left,10,2020-12-16_12h35.20.862,premup-three_ses-02_part-02_label-phase2,3.2.4,Win32,60,,,,,,,,,,,,,,,,,1,0,330,130,1,329,1,,,,,,
left,0.223999977,0,279,,,,,,,,,,,,,2,3,4,stim/34.jpeg,Instruments,2,stim/objects/Instruments/electricdrumset2.png,0.7,1,-0.2,0.15,right,10,2020-12-16_12h35.20.862,premup-three_ses-02_part-02_label-phase2,3.2.4,Win32,60,,,,,,,,,,,,,,,,,1,0,330,91,1,329,1,,,,,,
right,0.763000011,1,280,,,,,,,,,,,,,1,2,1,stim/21.jpeg,Instruments,2,stim/objects/Instruments/grandpiano.png,0.5,3,-0.2,-0.15,right,10,2020-12-16_12h35.20.862,premup-three_ses-02_part-02_label-phase2,3.2.4,Win32,60,,,,,,,,,,,,,,,,,1,0,330,52,1,329,2,,,,,,
right,0.677999973,1,281,,,,,,,,,,,,,3,5,4,stim/54.jpeg,Instruments,2,stim/objects/Instruments/metronome.png,0.9,2,0.2,0.15,right,10,2020-12-16_12h35.20.862,premup-three_ses-02_part-02_label-phase2,3.2.4,Win32,60,,,,,,,,,,,,,,,,,1,0,330,161,1,329,2,,,,,,
right,0.32400012,1,282,,,,,,,,,,,,,1,1,3,stim/13.jpeg,Instruments,2,stim/objects/Instruments/electricguitar.png,0.5,3,-0.2,-0.15,right,10,2020-12-16_12h35.20.862,premup-three_ses-02_part-02_label-phase2,3.2.4,Win32,60,,,,,,,,,,,,,,,,,1,0,330,22,1,329,2,,,,,,
,,0,283,,,,,,,,,,,,,3,5,3,stim/53.jpeg,Instruments,2,stim/objects/Instruments/musicstand.png,0.9,1,-0.2,0.15,right,10,2020-12-16_12h35.20.862,premup-three_ses-02_part-02_label-phase2,3.2.4,Win32,60,,,,,,,,,,,,,,,,,1,0,330,188,1,329,2,,,,,,
left,0.634000063,1,284,,,,,,,,,,,,,3,6,4,stim/64.jpeg,HouseObjects,1,stim/objects/HouseObjects/pitcher.png,0.9,2,0.2,0.15,left,10,2020-12-16_12h35.20.862,premup-three_ses-02_part-02_label-phase2,3.2.4,Win32,60,,,,,,,,,,,,,,,,,1,0,330,309,1,329,2,,,,,,
left,0.25999999,0,285,,,,,,,,,,,,,3,5,2,stim/52.jpeg,Instruments,2,stim/objects/Instruments/metronome.png,0.9,1,-0.2,0.15,right,10,2020-12-16_12h35.20.862,premup-three_ses-02_part-02_label-phase2,3.2.4,Win32,60,,,,,,,,,,,,,,,,,1,0,330,151,1,329,2,,,,,,
right,0.253000021,1,286,,,,,,,,,,,,,2,3,4,stim/34.jpeg,Instruments,2,stim/objects/Instruments/maraca.png,0.7,2,0.2,0.15,right,10,2020-12-16_12h35.20.862,premup-three_ses-02_part-02_label-phase2,3.2.4,Win32,60,,,,,,,,,,,,,,,,,1,0,330,79,1,329,2,,,,,,
right,0.429000139,1,287,,,,,,,,,,,,,2,3,1,stim/31.jpeg,Instruments,2,stim/objects/Instruments/maraca.png,0.7,1,-0.2,0.15,right,10,2020-12-16_12h35.20.862,premup-three_ses-02_part-02_label-phase2,3.2.4,Win32,60,,,,,,,,,,,,,,,,,1,0,330,84,1,329,2,,,,,,
right,0.378000021,1,288,,,,,,,,,,,,,2,4,3,stim/43.jpeg,Instruments,2,stim/objects/Instruments/gong2.png,0.3,4,0.2,-0.15,right,10,2020-12-16_12h35.20.862,premup-three_ses-02_part-02_label-phase2,3.2.4,Win32,60,,,,,,,,,,,,,,,,,1,0,330,121,1,329,1,,,,,,
left,0.476999998,1,289,,,,,,,,,,,,,3,6,1,stim/61.jpeg,HouseObjects,1,stim/objects/HouseObjects/knife.png,0.9,2,0.2,0.15,left,10,2020-12-16_12h35.20.862,premup-three_ses-02_part-02_label-phase2,3.2.4,Win32,60,,,,,,,,,,,,,,,,,1,0,330,250,1,329,2,,,,,,
left,0.315000057,1,290,,,,,,,,,,,,,1,2,2,stim/22.jpeg,HouseObjects,1,stim/objects/HouseObjects/scale.png,0.5,2,0.2,0.15,left,10,2020-12-16_12h35.20.862,premup-three_ses-02_part-02_label-phase2,3.2.4,Win32,60,,,,,,,,,,,,,,,,,1,0,330,41,1,329,1,,,,,,
right,0.348999977,1,291,,,,,,,,,,,,,3,5,4,stim/54.jpeg,Instruments,2,stim/objects/Instruments/oboe.png,0.9,1,-0.2,0.15,right,10,2020-12-16_12h35.20.862,premup-three_ses-02_part-02_label-phase2,3.2.4,Win32,60,,,,,,,,,,,,,,,,,1,0,330,209,1,329,2,,,,,,
left,0.299000025,1,292,,,,,,,,,,,,,3,6,3,stim/63.jpeg,HouseObjects,1,stim/objects/HouseObjects/pitcher.png,0.9,4,0.2,-0.15,left,10,2020-12-16_12h35.20.862,premup-three_ses-02_part-02_label-phase2,3.2.4,Win32,60,,,,,,,,,,,,,,,,,1,0,330,244,1,329,2,,,,,,
right,0.32799983,0,293,,,,,,,,,,,,,2,3,2,stim/32.jpeg,HouseObjects,1,stim/objects/HouseObjects/thread.png,0.3,1,-0.2,0.15,left,10,2020-12-16_12h35.20.862,premup-three_ses-02_part-02_label-phase2,3.2.4,Win32,60,,,,,,,,,,,,,,,,,1,0,330,61,1,329,1,,,,,,
left,0.454999924,0,294,,,,,,,,,,,,,3,6,2,stim/62.jpeg,Instruments,2,stim/objects/Instruments/violin2.png,0.1,4,0.2,-0.15,right,10,2020-12-16_12h35.20.862,premup-three_ses-02_part-02_label-phase2,3.2.4,Win32,60,,,,,,,,,,,,,,,,,1,0,330,327,1,329,1,,,,,,
right,0.45600009,1,295,,,,,,,,,,,,,3,5,4,stim/54.jpeg,Instruments,2,stim/objects/Instruments/marimba.png,0.9,2,0.2,0.15,right,10,2020-12-16_12h35.20.862,premup-three_ses-02_part-02_label-phase2,3.2.4,Win32,60,,,,,,,,,,,,,,,,,1,0,330,205,1,329,2,,,,,,
left,0.279000044,1,296,,,,,,,,,,,,,3,6,1,stim/61.jpeg,HouseObjects,1,stim/objects/HouseObjects/match.png,0.9,3,-0.2,-0.15,left,10,2020-12-16_12h35.20.862,premup-three_ses-02_part-02_label-phase2,3.2.4,Win32,60,,,,,,,,,,,,,,,,,1,0,330,242,1,329,2,,,,,,
left,0.295000076,1,297,,,,,,,,,,,,,3,6,4,stim/64.jpeg,HouseObjects,1,stim/objects/HouseObjects/match.png,0.9,1,-0.2,0.15,left,10,2020-12-16_12h35.20.862,premup-three_ses-02_part-02_label-phase2,3.2.4,Win32,60,,,,,,,,,,,,,,,,,1,0,330,277,1,329,2,,,,,,
left,0.346999884,0,298,,,,,,,,,,,,,3,5,2,stim/52.jpeg,Instruments,2,stim/objects/Instruments/record2.png,0.9,2,0.2,0.15,right,10,2020-12-16_12h35.20.862,premup-three_ses-02_part-02_label-phase2,3.2.4,Win32,60,,,,,,,,,,,,,,,,,1,0,330,227,1,329,1,,,,,,
right,0.768999815,0,299,,,,,,,,,,,,,2,4,3,stim/43.jpeg,HouseObjects,1,stim/objects/HouseObjects/handbrush.png,0.7,2,0.2,0.15,left,10,2020-12-16_12h35.20.862,premup-three_ses-02_part-02_label-phase2,3.2.4,Win32,60,,,,,,,,,,,,,,,,,1,0,330,105,1,329,2,,,,,,
right,0.539000034,0,300,,,,,,,,,,,,,3,6,3,stim/63.jpeg,HouseObjects,1,stim/objects/HouseObjects/knife.png,0.9,2,0.2,0.15,left,10,2020-12-16_12h35.20.862,premup-three_ses-02_part-02_label-phase2,3.2.4,Win32,60,,,,,,,,,,,,,,,,,1,0,330,240,1,329,2,,,,,,
right,0.552000046,1,301,,,,,,,,,,,,,1,1,2,stim/12.jpeg,Instruments,2,stim/objects/Instruments/electricguitar.png,0.5,2,0.2,0.15,right,10,2020-12-16_12h35.20.862,premup-three_ses-02_part-02_label-phase2,3.2.4,Win32,60,,,,,,,,,,,,,,,,,1,0,330,17,1,329,2,,,,,,
left,0.304000139,0,302,,,,,,,,,,,,,1,2,3,stim/23.jpeg,Instruments,2,stim/objects/Instruments/gong.png,0.5,2,0.2,0.15,right,10,2020-12-16_12h35.20.862,premup-three_ses-02_part-02_label-phase2,3.2.4,Win32,60,,,,,,,,,,,,,,,,,1,0,330,46,1,329,2,,,,,,
left,0.042000055,0,303,,,,,,,,,,,,,3,5,1,stim/51.jpeg,Instruments,2,stim/objects/Instruments/marimba.png,0.9,3,-0.2,-0.15,right,10,2020-12-16_12h35.20.862,premup-three_ses-02_part-02_label-phase2,3.2.4,Win32,60,,,,,,,,,,,,,,,,,1,0,330,210,1,329,2,,,,,,
left,0.382999897,0,304,,,,,,,,,,,,,1,2,4,stim/24.jpeg,Instruments,2,stim/objects/Instruments/gong.png,0.5,2,0.2,0.15,right,10,2020-12-16_12h35.20.862,premup-three_ses-02_part-02_label-phase2,3.2.4,Win32,60,,,,,,,,,,,,,,,,,1,0,330,51,1,329,2,,,,,,
left,0.43599987,1,305,,,,,,,,,,,,,3,6,3,stim/63.jpeg,HouseObjects,1,stim/objects/HouseObjects/knife.png,0.9,1,-0.2,0.15,left,10,2020-12-16_12h35.20.862,premup-three_ses-02_part-02_label-phase2,3.2.4,Win32,60,,,,,,,,,,,,,,,,,1,0,330,280,1,329,2,,,,,,
left,0.284999847,0,306,,,,,,,,,,,,,2,4,1,stim/41.jpeg,Instruments,2,stim/objects/Instruments/keyboard2.png,0.3,4,0.2,-0.15,right,10,2020-12-16_12h35.20.862,premup-three_ses-02_part-02_label-phase2,3.2.4,Win32,60,,,,,,,,,,,,,,,,,1,0,330,127,1,329,1,,,,,,
left,0.580999851,0,307,,,,,,,,,,,,,2,3,4,stim/34.jpeg,Instruments,2,stim/objects/Instruments/laud.png,0.7,3,-0.2,-0.15,right,10,2020-12-16_12h35.20.862,premup-three_ses-02_part-02_label-phase2,3.2.4,Win32,60,,,,,,,,,,,,,,,,,1,0,330,83,1,329,2,,,,,,
right,0.397000074,1,308,,,,,,,,,,,,,3,5,1,stim/51.jpeg,Instruments,2,stim/objects/Instruments/metronome.png,0.9,1,-0.2,0.15,right,10,2020-12-16_12h35.20.862,premup-three_ses-02_part-02_label-phase2,3.2.4,Win32,60,,,,,,,,,,,,,,,,,1,0,330,206,1,329,2,,,,,,
left,0.337000132,0,309,,,,,,,,,,,,,2,4,3,stim/43.jpeg,Instruments,2,stim/objects/Instruments/harp2.png,0.3,4,0.2,-0.15,right,10,2020-12-16_12h35.20.862,premup-three_ses-02_part-02_label-phase2,3.2.4,Win32,60,,,,,,,,,,,,,,,,,1,0,330,125,1,329,1,,,,,,
right,0.384000063,1,310,,,,,,,,,,,,,3,5,1,stim/51.jpeg,Instruments,2,stim/objects/Instruments/musicsheet.png,0.9,2,0.2,0.15,right,10,2020-12-16_12h35.20.862,premup-three_ses-02_part-02_label-phase2,3.2.4,Win32,60,,,,,,,,,,,,,,,,,1,0,330,142,1,329,2,,,,,,
right,0.263999939,0,311,,,,,,,,,,,,,3,6,2,stim/62.jpeg,HouseObjects,1,stim/objects/HouseObjects/thermometer2.png,0.9,2,0.2,0.15,left,10,2020-12-16_12h35.20.862,premup-three_ses-02_part-02_label-phase2,3.2.4,Win32,60,,,,,,,,,,,,,,,,,1,0,330,315,1,329,1,,,,,,
left,0.400000095,1,312,,,,,,,,,,,,,1,2,4,stim/24.jpeg,HouseObjects,1,stim/objects/HouseObjects/garbagebin.png,0.5,4,0.2,-0.15,left,10,2020-12-16_12h35.20.862,premup-three_ses-02_part-02_label-phase2,3.2.4,Win32,60,,,,,,,,,,,,,,,,,1,0,330,31,1,329,2,,,,,,
left,0.404000044,1,313,,,,,,,,,,,,,3,6,3,stim/63.jpeg,HouseObjects,1,stim/objects/HouseObjects/pan.png,0.9,4,0.2,-0.15,left,10,2020-12-16_12h35.20.862,premup-three_ses-02_part-02_label-phase2,3.2.4,Win32,60,,,,,,,,,,,,,,,,,1,0,330,248,1,329,2,,,,,,
left,0.746000051,0,314,,,,,,,,,,,,,3,5,3,stim/53.jpeg,Instruments,2,stim/objects/Instruments/oboe.png,0.9,4,0.2,-0.15,right,10,2020-12-16_12h35.20.862,premup-three_ses-02_part-02_label-phase2,3.2.4,Win32,60,,,,,,,,,,,,,,,,,1,0,330,144,1,329,2,,,,,,
left,0.629999876,0,315,,,,,,,,,,,,,2,3,4,stim/34.jpeg,Instruments,2,stim/objects/Instruments/harp.png,0.7,2,0.2,0.15,right,10,2020-12-16_12h35.20.862,premup-three_ses-02_part-02_label-phase2,3.2.4,Win32,60,,,,,,,,,,,,,,,,,1,0,330,75,1,329,2,,,,,,
right,0.608999968,1,316,,,,,,,,,,,,,3,5,4,stim/54.jpeg,Instruments,2,stim/objects/Instruments/musicstand.png,0.9,4,0.2,-0.15,right,10,2020-12-16_12h35.20.862,premup-three_ses-02_part-02_label-phase2,3.2.4,Win32,60,,,,,,,,,,,,,,,,,1,0,330,213,1,329,2,,,,,,
right,0.273999929,1,317,,,,,,,,,,,,,3,5,4,stim/54.jpeg,Instruments,2,stim/objects/Instruments/musicstand.png,0.9,3,-0.2,-0.15,right,10,2020-12-16_12h35.20.862,premup-three_ses-02_part-02_label-phase2,3.2.4,Win32,60,,,,,,,,,,,,,,,,,1,0,330,193,1,329,2,,,,,,
right,0.266000032,0,318,,,,,,,,,,,,,3,6,2,stim/62.jpeg,HouseObjects,1,stim/objects/HouseObjects/lintroller.png,0.9,1,-0.2,0.15,left,10,2020-12-16_12h35.20.862,premup-three_ses-02_part-02_label-phase2,3.2.4,Win32,60,,,,,,,,,,,,,,,,,1,0,330,291,1,329,2,,,,,,
right,0.328999996,0,319,,,,,,,,,,,,,3,6,4,stim/64.jpeg,HouseObjects,1,stim/objects/HouseObjects/pan.png,0.9,4,0.2,-0.15,left,10,2020-12-16_12h35.20.862,premup-three_ses-02_part-02_label-phase2,3.2.4,Win32,60,,,,,,,,,,,,,,,,,1,0,330,233,1,329,2,,,,,,
left,0.434000015,1,320,,,,,,,,,,,,,3,6,1,stim/61.jpeg,HouseObjects,1,stim/objects/HouseObjects/match.png,0.9,2,0.2,0.15,left,10,2020-12-16_12h35.20.862,premup-three_ses-02_part-02_label-phase2,3.2.4,Win32,60,,,,,,,,,,,,,,,,,1,0,330,302,1,329,2,,,,,,
right,0.228000164,0,321,,,,,,,,,,,,,3,6,4,stim/64.jpeg,HouseObjects,1,stim/objects/HouseObjects/lintroller.png,0.9,2,0.2,0.15,left,10,2020-12-16_12h35.20.862,premup-three_ses-02_part-02_label-phase2,3.2.4,Win32,60,,,,,,,,,,,,,,,,,1,0,330,261,1,329,2,,,,,,
right,0.306999922,0,322,,,,,,,,,,,,,3,6,2,stim/62.jpeg,HouseObjects,1,stim/objects/HouseObjects/pan.png,0.9,4,0.2,-0.15,left,10,2020-12-16_12h35.20.862,premup-three_ses-02_part-02_label-phase2,3.2.4,Win32,60,,,,,,,,,,,,,,,,,1,0,330,243,1,329,2,,,,,,
right,0.444000006,1,323,,,,,,,,,,,,,2,3,1,stim/31.jpeg,Instruments,2,stim/objects/Instruments/keyboard.png,0.7,3,-0.2,-0.15,right,10,2020-12-16_12h35.20.862,premup-three_ses-02_part-02_label-phase2,3.2.4,Win32,60,,,,,,,,,,,,,,,,,1,0,330,72,1,329,2,,,,,,
left,0.263999939,0,324,,,,,,,,,,,,,3,5,3,stim/53.jpeg,Instruments,2,stim/objects/Instruments/musicsheet.png,0.9,1,-0.2,0.15,right,10,2020-12-16_12h35.20.862,premup-three_ses-02_part-02_label-phase2,3.2.4,Win32,60,,,,,,,,,,,,,,,,,1,0,330,152,1,329,2,,,,,,
left,0.334000111,1,325,,,,,,,,,,,,,2,3,4,stim/34.jpeg,HouseObjects,1,stim/objects/HouseObjects/dishsoap2.png,0.3,1,-0.2,0.15,left,10,2020-12-16_12h35.20.862,premup-three_ses-02_part-02_label-phase2,3.2.4,Win32,60,,,,,,,,,,,,,,,,,1,0,330,67,1,329,1,,,,,,
right,0.519999981,1,326,,,,,,,,,,,,,1,2,2,stim/22.jpeg,Instruments,2,stim/objects/Instruments/guitarcase.png,0.5,2,0.2,0.15,right,10,2020-12-16_12h35.20.862,premup-three_ses-02_part-02_label-phase2,3.2.4,Win32,60,,,,,,,,,,,,,,,,,1,0,330,53,1,329,2,,,,,,
left,0.687999964,0,327,,,,,,,,,,,,,2,3,3,stim/33.jpeg,Instruments,2,stim/objects/Instruments/laud.png,0.7,3,-0.2,-0.15,right,10,2020-12-16_12h35.20.862,premup-three_ses-02_part-02_label-phase2,3.2.4,Win32,60,,,,,,,,,,,,,,,,,1,0,330,78,1,329,2,,,,,,
right,0.429000139,0,328,,,,,,,,,,,,,3,6,1,stim/61.jpeg,HouseObjects,1,stim/objects/HouseObjects/pitcher.png,0.9,1,-0.2,0.15,left,10,2020-12-16_12h35.20.862,premup-three_ses-02_part-02_label-phase2,3.2.4,Win32,60,,,,,,,,,,,,,,,,,1,0,330,254,1,329,2,,,,,,
right,0.311000109,1,329,,,,,,,,,,,,,3,5,2,stim/52.jpeg,Instruments,2,stim/objects/Instruments/musicsheet.png,0.9,4,0.2,-0.15,right,10,2020-12-16_12h35.20.862,premup-three_ses-02_part-02_label-phase2,3.2.4,Win32,60,,,,,,,,,,,,,,,,,1,0,330,167,1,329,2,,,,,,
left,0.265000105,1,330,,,,,,,,,,,,,2,4,4,stim/44.jpeg,HouseObjects,1,stim/objects/HouseObjects/ironingboard2.png,0.7,1,-0.2,0.15,left,10,2020-12-16_12h35.20.862,premup-three_ses-02_part-02_label-phase2,3.2.4,Win32,60,,,,,,,,,,,,,,,,,1,0,330,118,1,329,1,,,,,,
right,0.230000019,0,331,,,,,,,,,,,,,2,4,2,stim/42.jpeg,HouseObjects,1,stim/objects/HouseObjects/key.png,0.7,1,-0.2,0.15,left,10,2020-12-16_12h35.20.862,premup-three_ses-02_part-02_label-phase2,3.2.4,Win32,60,,,,,,,,,,,,,,,,,1,0,330,104,1,329,2,,,,,,
right,0.402000189,1,332,,,,,,,,,,,,,2,3,1,stim/31.jpeg,Instruments,2,stim/objects/Instruments/electricguitar2.png,0.7,1,-0.2,0.15,right,10,2020-12-16_12h35.20.862,premup-three_ses-02_part-02_label-phase2,3.2.4,Win32,60,,,,,,,,,,,,,,,,,1,0,330,92,1,329,1,,,,,,
right,0.453000069,1,333,,,,,,,,,,,,,3,5,4,stim/54.jpeg,Instruments,2,stim/objects/Instruments/marimba.png,0.9,4,0.2,-0.15,right,10,2020-12-16_12h35.20.862,premup-three_ses-02_part-02_label-phase2,3.2.4,Win32,60,,,,,,,,,,,,,,,,,1,0,330,185,1,329,2,,,,,,
left,0.598999977,1,334,,,,,,,,,,,,,1,2,2,stim/22.jpeg,HouseObjects,1,stim/objects/HouseObjects/glass.png,0.5,4,0.2,-0.15,left,10,2020-12-16_12h35.20.862,premup-three_ses-02_part-02_label-phase2,3.2.4,Win32,60,,,,,,,,,,,,,,,,,1,0,330,37,1,329,2,,,,,,
right,0.261999846,1,335,,,,,,,,,,,,,3,5,4,stim/54.jpeg,Instruments,2,stim/objects/Instruments/musicsheet.png,0.9,3,-0.2,-0.15,right,10,2020-12-16_12h35.20.862,premup-three_ses-02_part-02_label-phase2,3.2.4,Win32,60,,,,,,,,,,,,,,,,,1,0,330,197,1,329,2,,,,,,
right,0.871999979,1,336,,,,,,,,,,,,,3,5,3,stim/53.jpeg,Instruments,2,stim/objects/Instruments/marimba.png,0.9,2,0.2,0.15,right,10,2020-12-16_12h35.20.862,premup-three_ses-02_part-02_label-phase2,3.2.4,Win32,60,,,,,,,,,,,,,,,,,1,0,330,140,1,329,2,,,,,,
right,0.713000059,1,337,,,,,,,,,,,,,3,6,4,stim/64.jpeg,Instruments,2,stim/objects/Instruments/tambourine2.png,0.1,4,0.2,-0.15,right,10,2020-12-16_12h35.20.862,premup-three_ses-02_part-02_label-phase2,3.2.4,Win32,60,,,,,,,,,,,,,,,,,1,0,330,321,1,329,1,,,,,,
left,0.669999838,1,338,,,,,,,,,,,,,3,5,4,stim/54.jpeg,HouseObjects,1,stim/objects/HouseObjects/rubbergloves2.png,0.1,1,-0.2,0.15,left,10,2020-12-16_12h35.20.862,premup-three_ses-02_part-02_label-phase2,3.2.4,Win32,60,,,,,,,,,,,,,,,,,1,0,330,137,1,329,1,,,,,,
,,0,339,,,,,,,,,,,,,1,2,3,stim/23.jpeg,HouseObjects,1,stim/objects/HouseObjects/flyswatter.png,0.5,4,0.2,-0.15,left,10,2020-12-16_12h35.20.862,premup-three_ses-02_part-02_label-phase2,3.2.4,Win32,60,,,,,,,,,,,,,,,,,1,0,330,30,1,329,2,,,,,,
left,0.915999889,1,340,,,,,,,,,,,,,3,6,3,stim/63.jpeg,HouseObjects,1,stim/objects/HouseObjects/pitcher.png,0.9,3,-0.2,-0.15,left,10,2020-12-16_12h35.20.862,premup-three_ses-02_part-02_label-phase2,3.2.4,Win32,60,,,,,,,,,,,,,,,,,1,0,330,304,1,329,2,,,,,,
left,0.297999859,1,341,,,,,,,,,,,,,2,4,2,stim/42.jpeg,HouseObjects,1,stim/objects/HouseObjects/handvacuum2.png,0.7,4,0.2,-0.15,left,10,2020-12-16_12h35.20.862,premup-three_ses-02_part-02_label-phase2,3.2.4,Win32,60,,,,,,,,,,,,,,,,,1,0,330,116,1,329,1,,,,,,
left,0.356999874,0,342,,,,,,,,,,,,,1,1,1,stim/11.jpeg,Instruments,2,stim/objects/Instruments/record_player.png,0.5,3,-0.2,-0.15,right,10,2020-12-16_12h35.20.862,premup-three_ses-02_part-02_label-phase2,3.2.4,Win32,60,,,,,,,,,,,,,,,,,1,0,330,28,1,329,1,,,,,,
left,0.763000011,0,343,,,,,,,,,,,,,3,5,3,stim/53.jpeg,Instruments,2,stim/objects/Instruments/musicsheet.png,0.9,3,-0.2,-0.15,right,10,2020-12-16_12h35.20.862,premup-three_ses-02_part-02_label-phase2,3.2.4,Win32,60,,,,,,,,,,,,,,,,,1,0,330,192,1,329,2,,,,,,
left,0.376000166,1,344,,,,,,,,,,,,,3,6,1,stim/61.jpeg,HouseObjects,1,stim/objects/HouseObjects/pitcher.png,0.9,2,0.2,0.15,left,10,2020-12-16_12h35.20.862,premup-three_ses-02_part-02_label-phase2,3.2.4,Win32,60,,,,,,,,,,,,,,,,,1,0,330,274,1,329,2,,,,,,
,,0,345,,,,,,,,,,,,,2,4,1,stim/41.jpeg,HouseObjects,1,stim/objects/HouseObjects/key2.png,0.7,1,-0.2,0.15,left,10,2020-12-16_12h35.20.862,premup-three_ses-02_part-02_label-phase2,3.2.4,Win32,60,,,,,,,,,,,,,,,,,1,0,330,119,1,329,1,,,,,,
,,0,346,,,,,,,,,,,,,1,1,2,stim/12.jpeg,Instruments,2,stim/objects/Instruments/electricdrumset.png,0.5,1,-0.2,0.15,right,10,2020-12-16_12h35.20.862,premup-three_ses-02_part-02_label-phase2,3.2.4,Win32,60,,,,,,,,,,,,,,,,,1,0,330,21,1,329,2,,,,,,
left,0.620000124,1,347,,,,,,,,,,,,,3,5,2,stim/52.jpeg,HouseObjects,1,stim/objects/HouseObjects/lintroller2.png,0.1,3,-0.2,-0.15,left,10,2020-12-16_12h35.20.862,premup-three_ses-02_part-02_label-phase2,3.2.4,Win32,60,,,,,,,,,,,,,,,,,1,0,330,131,1,329,1,,,,,,
left,0.375999928,1,348,,,,,,,,,,,,,3,6,2,stim/62.jpeg,HouseObjects,1,stim/objects/HouseObjects/match.png,0.9,4,0.2,-0.15,left,10,2020-12-16_12h35.20.862,premup-three_ses-02_part-02_label-phase2,3.2.4,Win32,60,,,,,,,,,,,,,,,,,1,0,330,307,1,329,2,,,,,,
left,0.311000109,0,349,,,,,,,,,,,,,3,6,2,stim/62.jpeg,Instruments,2,stim/objects/Instruments/triangle2.png,0.1,2,0.2,0.15,right,10,2020-12-16_12h35.20.862,premup-three_ses-02_part-02_label-phase2,3.2.4,Win32,60,,,,,,,,,,,,,,,,,1,0,330,323,1,329,1,,,,,,
left,0.399999857,0,350,,,,,,,,,,,,,3,5,4,stim/54.jpeg,Instruments,2,stim/objects/Instruments/panflute2.png,0.9,3,-0.2,-0.15,right,10,2020-12-16_12h35.20.862,premup-three_ses-02_part-02_label-phase2,3.2.4,Win32,60,,,,,,,,,,,,,,,,,1,0,330,225,1,329,1,,,,,,
left,0.345999956,0,351,,,,,,,,,,,,,3,5,4,stim/54.jpeg,Instruments,2,stim/objects/Instruments/musicstand.png,0.9,3,-0.2,-0.15,right,10,2020-12-16_12h35.20.862,premup-three_ses-02_part-02_label-phase2,3.2.4,Win32,60,,,,,,,,,,,,,,,,,1,0,330,153,1,329,2,,,,,,
right,0.219000101,1,352,,,,,,,,,,,,,3,5,4,stim/54.jpeg,Instruments,2,stim/objects/Instruments/metronome2.png,0.9,3,-0.2,-0.15,right,10,2020-12-16_12h35.20.862,premup-three_ses-02_part-02_label-phase2,3.2.4,Win32,60,,,,,,,,,,,,,,,,,1,0,330,221,1,329,1,,,,,,
right,0.258000135,0,353,,,,,,,,,,,,,3,6,4,stim/64.jpeg,HouseObjects,1,stim/objects/HouseObjects/pan.png,0.9,1,-0.2,0.15,left,10,2020-12-16_12h35.20.862,premup-three_ses-02_part-02_label-phase2,3.2.4,Win32,60,,,,,,,,,,,,,,,,,1,0,330,253,1,329,2,,,,,,
left,0.286000013,1,354,,,,,,,,,,,,,3,6,4,stim/64.jpeg,HouseObjects,1,stim/objects/HouseObjects/match.png,0.9,3,-0.2,-0.15,left,10,2020-12-16_12h35.20.862,premup-three_ses-02_part-02_label-phase2,3.2.4,Win32,60,,,,,,,,,,,,,,,,,1,0,330,257,1,329,2,,,,,,
left,0.246000051,0,355,,,,,,,,,,,,,2,3,2,stim/32.jpeg,Instruments,2,stim/objects/Instruments/hihat.png,0.7,2,0.2,0.15,right,10,2020-12-16_12h35.20.862,premup-three_ses-02_part-02_label-phase2,3.2.4,Win32,60,,,,,,,,,,,,,,,,,1,0,330,81,1,329,2,,,,,,
left,0.263999939,1,356,,,,,,,,,,,,,3,6,1,stim/61.jpeg,HouseObjects,1,stim/objects/HouseObjects/pan.png,0.9,4,0.2,-0.15,left,10,2020-12-16_12h35.20.862,premup-three_ses-02_part-02_label-phase2,3.2.4,Win32,60,,,,,,,,,,,,,,,,,1,0,330,258,1,329,2,,,,,,
left,0.392999887,1,357,,,,,,,,,,,,,3,5,3,stim/53.jpeg,HouseObjects,1,stim/objects/HouseObjects/remote2.png,0.1,1,-0.2,0.15,left,10,2020-12-16_12h35.20.862,premup-three_ses-02_part-02_label-phase2,3.2.4,Win32,60,,,,,,,,,,,,,,,,,1,0,330,136,1,329,1,,,,,,
left,0.549999952,0,358,,,,,,,,,,,,,1,1,1,stim/11.jpeg,Instruments,2,stim/objects/Instruments/drums.png,0.5,3,-0.2,-0.15,right,10,2020-12-16_12h35.20.862,premup-three_ses-02_part-02_label-phase2,3.2.4,Win32,60,,,,,,,,,,,,,,,,,1,0,330,20,1,329,2,,,,,,
left,0.299000025,0,359,,,,,,,,,,,,,3,5,4,stim/54.jpeg,Instruments,2,stim/objects/Instruments/saxophone2.png,0.9,1,-0.2,0.15,right,10,2020-12-16_12h35.20.862,premup-three_ses-02_part-02_label-phase2,3.2.4,Win32,60,,,,,,,,,,,,,,,,,1,0,330,229,1,329,1,,,,,,
right,0.273000002,1,360,,,,,,,,,,,,,3,5,2,stim/52.jpeg,Instruments,2,stim/objects/Instruments/marimba.png,0.9,2,0.2,0.15,right,10,2020-12-16_12h35.20.862,premup-three_ses-02_part-02_label-phase2,3.2.4,Win32,60,,,,,,,,,,,,,,,,,1,0,330,195,1,329,2,,,,,,
right,0.362999916,0,361,,,,,,,,,,,,,3,6,3,stim/63.jpeg,HouseObjects,1,stim/objects/HouseObjects/pan.png,0.9,1,-0.2,0.15,left,10,2020-12-16_12h35.20.862,premup-three_ses-02_part-02_label-phase2,3.2.4,Win32,60,,,,,,,,,,,,,,,,,1,0,330,308,1,329,2,,,,,,
left,0.569000006,0,362,,,,,,,,,,,,,3,5,3,stim/53.jpeg,Instruments,2,stim/objects/Instruments/musicsheet.png,0.9,1,-0.2,0.15,right,10,2020-12-16_12h35.20.862,premup-three_ses-02_part-02_label-phase2,3.2.4,Win32,60,,,,,,,,,,,,,,,,,1,0,330,172,1,329,2,,,,,,
left,0.398999929,1,363,,,,,,,,,,,,,1,1,1,stim/11.jpeg,HouseObjects,1,stim/objects/HouseObjects/doormat.png,0.5,1,-0.2,0.15,left,10,2020-12-16_12h35.20.862,premup-three_ses-02_part-02_label-phase2,3.2.4,Win32,60,,,,,,,,,,,,,,,,,1,0,330,8,1,329,2,,,,,,
left,0.738999844,1,364,,,,,,,,,,,,,3,6,3,stim/63.jpeg,HouseObjects,1,stim/objects/HouseObjects/lintroller.png,0.9,1,-0.2,0.15,left,10,2020-12-16_12h35.20.862,premup-three_ses-02_part-02_label-phase2,3.2.4,Win32,60,,,,,,,,,,,,,,,,,1,0,330,276,1,329,2,,,,,,
left,0.364000082,1,365,,,,,,,,,,,,,3,6,4,stim/64.jpeg,HouseObjects,1,stim/objects/HouseObjects/pan.png,0.9,1,-0.2,0.15,left,10,2020-12-16_12h35.20.862,premup-three_ses-02_part-02_label-phase2,3.2.4,Win32,60,,,,,,,,,,,,,,,,,1,0,330,273,1,329,2,,,,,,
left,0.474999905,1,366,,,,,,,,,,,,,3,6,2,stim/62.jpeg,HouseObjects,1,stim/objects/HouseObjects/knife.png,0.9,1,-0.2,0.15,left,10,2020-12-16_12h35.20.862,premup-three_ses-02_part-02_label-phase2,3.2.4,Win32,60,,,,,,,,,,,,,,,,,1,0,330,295,1,329,2,,,,,,
left,0.589999914,1,367,,,,,,,,,,,,,2,4,4,stim/44.jpeg,HouseObjects,1,stim/objects/HouseObjects/ironingboard.png,0.7,2,0.2,0.15,left,10,2020-12-16_12h35.20.862,premup-three_ses-02_part-02_label-phase2,3.2.4,Win32,60,,,,,,,,,,,,,,,,,1,0,330,98,1,329,2,,,,,,
left,0.316999912,0,368,,,,,,,,,,,,,1,2,4,stim/24.jpeg,Instruments,2,stim/objects/Instruments/speaker.png,0.5,1,-0.2,0.15,right,10,2020-12-16_12h35.20.862,premup-three_ses-02_part-02_label-phase2,3.2.4,Win32,60,,,,,,,,,,,,,,,,,1,0,330,55,1,329,1,,,,,,
left,0.763000011,0,369,,,,,,,,,,,,,3,5,2,stim/52.jpeg,Instruments,2,stim/objects/Instruments/musicsheet.png,0.9,4,0.2,-0.15,right,10,2020-12-16_12h35.20.862,premup-three_ses-02_part-02_label-phase2,3.2.4,Win32,60,,,,,,,,,,,,,,,,,1,0,330,187,1,329,2,,,,,,
right,0.411999941,1,370,,,,,,,,,,,,,3,5,3,stim/53.jpeg,Instruments,2,stim/objects/Instruments/marimba.png,0.9,3,-0.2,-0.15,right,10,2020-12-16_12h35.20.862,premup-three_ses-02_part-02_label-phase2,3.2.4,Win32,60,,,,,,,,,,,,,,,,,1,0,330,160,1,329,2,,,,,,
right,0.552999973,0,371,,,,,,,,,,,,,2,4,1,stim/41.jpeg,HouseObjects,1,stim/objects/HouseObjects/handbrush2.png,0.7,1,-0.2,0.15,left,10,2020-12-16_12h35.20.862,premup-three_ses-02_part-02_label-phase2,3.2.4,Win32,60,,,,,,,,,,,,,,,,,1,0,330,115,1,329,1,,,,,,
right,0.444000006,0,372,,,,,,,,,,,,,1,2,2,stim/22.jpeg,HouseObjects,1,stim/objects/HouseObjects/glassmop.png,0.5,1,-0.2,0.15,left,10,2020-12-16_12h35.20.862,premup-three_ses-02_part-02_label-phase2,3.2.4,Win32,60,,,,,,,,,,,,,,,,,1,0,330,33,1,329,2,,,,,,
right,0.251999855,0,373,,,,,,,,,,,,,2,3,4,stim/34.jpeg,HouseObjects,1,stim/objects/HouseObjects/vacuumcleaner.png,0.3,3,-0.2,-0.15,left,10,2020-12-16_12h35.20.862,premup-three_ses-02_part-02_label-phase2,3.2.4,Win32,60,,,,,,,,,,,,,,,,,1,0,330,63,1,329,1,,,,,,
right,0.295000076,1,374,,,,,,,,,,,,,3,5,2,stim/52.jpeg,Instruments,2,stim/objects/Instruments/oboe.png,0.9,2,0.2,0.15,right,10,2020-12-16_12h35.20.862,premup-three_ses-02_part-02_label-phase2,3.2.4,Win32,60,,,,,,,,,,,,,,,,,1,0,330,159,1,329,2,,,,,,
right,0.582000017,0,375,,,,,,,,,,,,,3,6,4,stim/64.jpeg,HouseObjects,1,stim/objects/HouseObjects/match.png,0.9,1,-0.2,0.15,left,10,2020-12-16_12h35.20.862,premup-three_ses-02_part-02_label-phase2,3.2.4,Win32,60,,,,,,,,,,,,,,,,,1,0,330,237,1,329,2,,,,,,
left,0.411999941,0,376,,,,,,,,,,,,,1,2,1,stim/21.jpeg,Instruments,2,stim/objects/Instruments/guitarcase.png,0.5,1,-0.2,0.15,right,10,2020-12-16_12h35.20.862,premup-three_ses-02_part-02_label-phase2,3.2.4,Win32,60,,,,,,,,,,,,,,,,,1,0,330,48,1,329,2,,,,,,
left,0.39199996,1,377,,,,,,,,,,,,,3,6,3,stim/63.jpeg,HouseObjects,1,stim/objects/HouseObjects/match.png,0.9,2,0.2,0.15,left,10,2020-12-16_12h35.20.862,premup-three_ses-02_part-02_label-phase2,3.2.4,Win32,60,,,,,,,,,,,,,,,,,1,0,330,252,1,329,2,,,,,,
left,0.401000023,0,378,,,,,,,,,,,,,2,3,2,stim/32.jpeg,Instruments,2,stim/objects/Instruments/flute2.png,0.7,2,0.2,0.15,right,10,2020-12-16_12h35.20.862,premup-three_ses-02_part-02_label-phase2,3.2.4,Win32,60,,,,,,,,,,,,,,,,,1,0,330,93,1,329,1,,,,,,
left,0.414000034,1,379,,,,,,,,,,,,,2,4,4,stim/44.jpeg,HouseObjects,1,stim/objects/HouseObjects/flyswatter2.png,0.7,1,-0.2,0.15,left,10,2020-12-16_12h35.20.862,premup-three_ses-02_part-02_label-phase2,3.2.4,Win32,60,,,,,,,,,,,,,,,,,1,0,330,110,1,329,1,,,,,,
right,0.678999901,1,380,,,,,,,,,,,,,3,5,1,stim/51.jpeg,Instruments,2,stim/objects/Instruments/musicsheet.png,0.9,4,0.2,-0.15,right,10,2020-12-16_12h35.20.862,premup-three_ses-02_part-02_label-phase2,3.2.4,Win32,60,,,,,,,,,,,,,,,,,1,0,330,182,1,329,2,,,,,,
,,0,381,,,,,,,,,,,,,3,6,3,stim/63.jpeg,HouseObjects,1,stim/objects/HouseObjects/match.png,0.9,1,-0.2,0.15,left,10,2020-12-16_12h35.20.862,premup-three_ses-02_part-02_label-phase2,3.2.4,Win32,60,,,,,,,,,,,,,,,,,1,0,330,272,1,329,2,,,,,,
