id_acc,key_resp_id.keys,key_resp_id.rt,key_resp_conf.keys,key_resp_conf.rt,assoc_acc,key_resp_assoc.keys,key_resp_assoc.rt,loc_acc,key_resp_loc.keys,key_resp_loc.rt,task_innerloop.thisRepN,task_innerloop.thisTrialN,task_innerloop.thisN,task_innerloop.thisIndex,task_innerloop.ran,task_innerloop.order,context_type,object_cat,PE_level,OvsN,obj_file,scn_file,corr_scn_cat,assoc_file,corr_scn_inst,corr_loc,participant,date,expName,psychopyVersion,OS,frameRate
1,left,1.243999958,,,0,,,0,,,1,0,200,164,1,199,0,1,0,2,stim/objects/Instruments/xylophone.png,,0,stim/0.png,0,0,8,2020-11-18_12h43.18.424,premup-three_ses-02_part-03_label-phase3,3.2.4,MacIntel,60
1,left,0.805999994,,,0,,,0,,,1,0,200,127,1,199,0,1,0,2,stim/objects/Instruments/frenchhorn.png,,0,stim/0.png,0,0,8,2020-11-18_12h43.18.424,premup-three_ses-02_part-03_label-phase3,3.2.4,MacIntel,60
1,left,0.831999779,4,3.156999826,0,4,8.576999903,0,2,5.370999813,1,0,200,85,1,199,3,1,0.9,1,stim/objects/Instruments/musicstand4.png,stim/62.jpeg,6,stim/6.png,2,1,8,2020-11-18_12h43.18.424,premup-three_ses-02_part-03_label-phase3,3.2.4,MacIntel,60
1,left,2.426000118,,,0,,,0,,,1,0,200,167,1,199,0,1,0,2,stim/objects/Instruments/balalaika2.png,,0,stim/0.png,0,0,8,2020-11-18_12h43.18.424,premup-three_ses-02_part-03_label-phase3,3.2.4,MacIntel,60
1,left,1.105999947,,,0,,,0,,,1,0,200,193,1,199,0,2,0,2,stim/objects/HouseObjects/bucket2.png,,0,stim/0.png,0,0,8,2020-11-18_12h43.18.424,premup-three_ses-02_part-03_label-phase3,3.2.4,MacIntel,60
1,left,1.539000034,,,0,,,0,,,1,0,200,111,1,199,0,2,0,2,stim/objects/HouseObjects/ballofstring.png,,0,stim/0.png,0,0,8,2020-11-18_12h43.18.424,premup-three_ses-02_part-03_label-phase3,3.2.4,MacIntel,60
1,left,1.097999811,4,1.621999979,0,4,3.127000093,0,4,1.878999949,1,0,200,88,1,199,3,1,0.9,1,stim/objects/Instruments/vuvuzela4.png,stim/61.jpeg,6,stim/6.png,1,2,8,2020-11-18_12h43.18.424,premup-three_ses-02_part-03_label-phase3,3.2.4,MacIntel,60
1,right,1.996999979,3,2.648000002,0,1,13.64999986,0,3,5.090999842,1,0,200,22,1,199,2,1,0.3,1,stim/objects/Instruments/violin3.png,stim/33.jpeg,3,stim/3.png,3,1,8,2020-11-18_12h43.18.424,premup-three_ses-02_part-03_label-phase3,3.2.4,MacIntel,60
1,right,1.497999907,3,2.832999945,0,1,3.536999941,0,4,2.856999874,1,0,200,28,1,199,2,1,0.3,1,stim/objects/Instruments/banjo4.png,stim/31.jpeg,3,stim/3.png,1,1,8,2020-11-18_12h43.18.424,premup-three_ses-02_part-03_label-phase3,3.2.4,MacIntel,60
1,right,2.27699995,2,3.232999802,0,4,4.318999767,0,1,2.241999865,1,0,200,36,1,199,2,2,0.7,1,stim/objects/HouseObjects/ballofstring4.png,stim/34.jpeg,3,stim/3.png,4,2,8,2020-11-18_12h43.18.424,premup-three_ses-02_part-03_label-phase3,3.2.4,MacIntel,60
1,right,1.572999954,,,0,,,0,,,1,0,200,106,1,199,0,1,0,2,stim/objects/Instruments/cello.png,,0,stim/0.png,0,0,8,2020-11-18_12h43.18.424,premup-three_ses-02_part-03_label-phase3,3.2.4,MacIntel,60
1,left,1.397999763,4,1.353999853,0,3,3.512999773,0,2,1.967999935,1,0,200,79,1,199,3,2,0.9,1,stim/objects/HouseObjects/iron4.png,stim/54.jpeg,5,stim/5.png,4,4,8,2020-11-18_12h43.18.424,premup-three_ses-02_part-03_label-phase3,3.2.4,MacIntel,60
1,right,1.689999819,,,0,,,0,,,1,0,200,170,1,199,0,2,0,2,stim/objects/HouseObjects/pan.png,,0,stim/0.png,0,0,8,2020-11-18_12h43.18.424,premup-three_ses-02_part-03_label-phase3,3.2.4,MacIntel,60
1,left,0.993000031,4,1.049000025,0,1,2.982999802,0,2,2.651999712,1,0,200,10,1,199,1,2,0.5,1,stim/objects/Instruments/laud3.png,stim/21.jpeg,2,stim/2.png,1,4,8,2020-11-18_12h43.18.424,premup-three_ses-02_part-03_label-phase3,3.2.4,MacIntel,60
1,right,1.497999907,,,0,,,0,,,1,0,200,121,1,199,0,1,0,2,stim/objects/Instruments/doublebass.png,,0,stim/0.png,0,0,8,2020-11-18_12h43.18.424,premup-three_ses-02_part-03_label-phase3,3.2.4,MacIntel,60
1,right,1.628000021,,,0,,,0,,,1,0,200,172,1,199,0,2,0,2,stim/objects/HouseObjects/towel.png,,0,stim/0.png,0,0,8,2020-11-18_12h43.18.424,premup-three_ses-02_part-03_label-phase3,3.2.4,MacIntel,60
1,left,1.207999945,3,3.088999987,0,4,4.694000006,0,4,0.950000048,1,0,200,68,1,199,3,1,0.1,1,stim/objects/Instruments/hihat4.png,stim/51.jpeg,5,stim/5.png,1,4,8,2020-11-18_12h43.18.424,premup-three_ses-02_part-03_label-phase3,3.2.4,MacIntel,60
1,right,2.111000061,,,0,,,0,,,1,0,200,141,1,199,0,1,0,2,stim/objects/Instruments/harmonica.png,,0,stim/0.png,0,0,8,2020-11-18_12h43.18.424,premup-three_ses-02_part-03_label-phase3,3.2.4,MacIntel,60
1,left,1.307999849,3,0.906000137,0,1,6.729999781,0,2,2.9599998,1,0,200,46,1,199,2,1,0.7,1,stim/objects/Instruments/doublebass4.png,stim/42.jpeg,4,stim/4.png,2,3,8,2020-11-18_12h43.18.424,premup-three_ses-02_part-03_label-phase3,3.2.4,MacIntel,60
1,right,1.269999743,,,0,,,0,,,1,0,200,156,1,199,0,2,0,2,stim/objects/HouseObjects/key.png,,0,stim/0.png,0,0,8,2020-11-18_12h43.18.424,premup-three_ses-02_part-03_label-phase3,3.2.4,MacIntel,60
1,right,0.951999903,,,0,,,0,,,1,0,200,147,1,199,0,1,0,2,stim/objects/Instruments/marimba.png,,0,stim/0.png,0,0,8,2020-11-18_12h43.18.424,premup-three_ses-02_part-03_label-phase3,3.2.4,MacIntel,60
1,left,0.90899992,4,0.832999706,0,1,4.825999975,0,2,0.98699975,1,0,200,72,1,199,3,2,0.9,1,stim/objects/HouseObjects/flyswatter4.png,stim/51.jpeg,5,stim/5.png,1,2,8,2020-11-18_12h43.18.424,premup-three_ses-02_part-03_label-phase3,3.2.4,MacIntel,60
1,right,1.463999987,2,1.154999971,0,2,3.378000021,0,2,2.338999987,1,0,200,30,1,199,2,2,0.7,1,stim/objects/HouseObjects/pan3.png,stim/32.jpeg,3,stim/3.png,2,4,8,2020-11-18_12h43.18.424,premup-three_ses-02_part-03_label-phase3,3.2.4,MacIntel,60
1,right,0.914000034,3,1.742999792,0,3,3.030999899,0,1,1.498999834,1,0,200,96,1,199,3,2,0.1,1,stim/objects/HouseObjects/pitcher4.png,stim/61.jpeg,6,stim/6.png,1,2,8,2020-11-18_12h43.18.424,premup-three_ses-02_part-03_label-phase3,3.2.4,MacIntel,60
1,right,1.161000013,3,1.602999926,0,2,1.882999897,0,2,1.113999844,1,0,200,87,1,199,3,1,0.9,1,stim/objects/Instruments/violin4.png,stim/64.jpeg,6,stim/6.png,4,4,8,2020-11-18_12h43.18.424,premup-three_ses-02_part-03_label-phase3,3.2.4,MacIntel,60
1,left,2.243999958,4,1.054000139,0,4,7.368000031,0,1,1.161999941,1,0,200,19,1,199,1,2,0.5,1,stim/objects/HouseObjects/match3.png,stim/24.jpeg,2,stim/2.png,4,2,8,2020-11-18_12h43.18.424,premup-three_ses-02_part-03_label-phase3,3.2.4,MacIntel,60
1,right,0.975999832,2,1.338999987,0,2,5.234999895,0,1,1.875999928,1,0,200,86,1,199,3,1,0.9,1,stim/objects/Instruments/oboe4.png,stim/63.jpeg,6,stim/6.png,3,4,8,2020-11-18_12h43.18.424,premup-three_ses-02_part-03_label-phase3,3.2.4,MacIntel,60
1,right,0.876999855,,,0,,,0,,,1,0,200,185,1,199,0,1,0,2,stim/objects/Instruments/cymbal2.png,,0,stim/0.png,0,0,8,2020-11-18_12h43.18.424,premup-three_ses-02_part-03_label-phase3,3.2.4,MacIntel,60
1,left,0.845000029,,,0,,,0,,,1,0,200,143,1,199,0,1,0,2,stim/objects/Instruments/hihat.png,,0,stim/0.png,0,0,8,2020-11-18_12h43.18.424,premup-three_ses-02_part-03_label-phase3,3.2.4,MacIntel,60
1,left,1.677000046,,,0,,,0,,,1,0,200,146,1,199,0,1,0,2,stim/objects/Instruments/maraca.png,,0,stim/0.png,0,0,8,2020-11-18_12h43.18.424,premup-three_ses-02_part-03_label-phase3,3.2.4,MacIntel,60
1,right,1.312000036,3,1.055000067,0,2,1.739000082,0,3,0.778999805,1,0,200,6,1,199,1,1,0.5,1,stim/objects/HouseObjects/hairdryer3.png,stim/13.jpeg,1,stim/1.png,3,1,8,2020-11-18_12h43.18.424,premup-three_ses-02_part-03_label-phase3,3.2.4,MacIntel,60
1,left,1.373999834,4,1.217000008,0,3,5.484999895,0,2,0.845000029,1,0,200,76,1,199,3,2,0.9,1,stim/objects/HouseObjects/hairdryer4.png,stim/51.jpeg,5,stim/5.png,1,1,8,2020-11-18_12h43.18.424,premup-three_ses-02_part-03_label-phase3,3.2.4,MacIntel,60
1,left,1.559999943,4,0.902999878,0,1,3.766000032,0,1,2.595000029,1,0,200,2,1,199,1,1,0.5,1,stim/objects/Instruments/harp3.png,stim/11.jpeg,1,stim/1.png,1,3,8,2020-11-18_12h43.18.424,premup-three_ses-02_part-03_label-phase3,3.2.4,MacIntel,60
1,right,1.007999897,,,0,,,0,,,1,0,200,166,1,199,0,1,0,2,stim/objects/Instruments/acousticguitar2.png,,0,stim/0.png,0,0,8,2020-11-18_12h43.18.424,premup-three_ses-02_part-03_label-phase3,3.2.4,MacIntel,60
1,right,1.055999994,,,0,,,0,,,1,0,200,171,1,199,0,2,0,2,stim/objects/HouseObjects/pitcher.png,,0,stim/0.png,0,0,8,2020-11-18_12h43.18.424,premup-three_ses-02_part-03_label-phase3,3.2.4,MacIntel,60
1,right,0.825000048,,,0,,,0,,,1,0,200,176,1,199,0,2,0,2,stim/objects/HouseObjects/ballofstring2.png,,0,stim/0.png,0,0,8,2020-11-18_12h43.18.424,premup-three_ses-02_part-03_label-phase3,3.2.4,MacIntel,60
1,right,0.85800004,,,0,,,0,,,1,0,200,115,1,199,0,2,0,2,stim/objects/HouseObjects/blender.png,,0,stim/0.png,0,0,8,2020-11-18_12h43.18.424,premup-three_ses-02_part-03_label-phase3,3.2.4,MacIntel,60
1,right,1.446999788,2,1.157999992,0,2,1.013999939,0,3,0.818000078,1,0,200,89,1,199,3,1,0.9,1,stim/objects/Instruments/xylophone4.png,stim/62.jpeg,6,stim/6.png,2,2,8,2020-11-18_12h43.18.424,premup-three_ses-02_part-03_label-phase3,3.2.4,MacIntel,60
1,left,2.4599998,,,0,,,0,,,1,0,200,153,1,199,0,2,0,2,stim/objects/HouseObjects/handvacuum.png,,0,stim/0.png,0,0,8,2020-11-18_12h43.18.424,premup-three_ses-02_part-03_label-phase3,3.2.4,MacIntel,60
1,left,2.823999882,,,0,,,0,,,1,0,200,100,1,199,0,1,0,2,stim/objects/Instruments/accordion.png,,0,stim/0.png,0,0,8,2020-11-18_12h43.18.424,premup-three_ses-02_part-03_label-phase3,3.2.4,MacIntel,60
1,left,0.878000021,4,1.069999933,0,1,8.402999878,0,1,2.713999987,1,0,200,20,1,199,2,1,0.3,1,stim/objects/Instruments/musicstand3.png,stim/31.jpeg,3,stim/3.png,1,4,8,2020-11-18_12h43.18.424,premup-three_ses-02_part-03_label-phase3,3.2.4,MacIntel,60
1,right,1.939999819,2,1.232999802,0,4,5.850999832,0,2,1.291999817,1,0,200,53,1,199,2,2,0.3,1,stim/objects/HouseObjects/bucket4.png,stim/41.jpeg,4,stim/4.png,1,4,8,2020-11-18_12h43.18.424,premup-three_ses-02_part-03_label-phase3,3.2.4,MacIntel,60
1,right,1.409999847,,,0,,,0,,,1,0,200,112,1,199,0,2,0,2,stim/objects/HouseObjects/barbecuelighter.png,,0,stim/0.png,0,0,8,2020-11-18_12h43.18.424,premup-three_ses-02_part-03_label-phase3,3.2.4,MacIntel,60
1,right,0.723999739,,,0,,,0,,,1,0,200,178,1,199,0,2,0,2,stim/objects/HouseObjects/basket2.png,,0,stim/0.png,0,0,8,2020-11-18_12h43.18.424,premup-three_ses-02_part-03_label-phase3,3.2.4,MacIntel,60
1,right,1.248999834,1,1.200000048,0,3,2.290999889,0,4,3.740999937,1,0,200,55,1,199,2,2,0.3,1,stim/objects/HouseObjects/clothesdryingrack4.png,stim/43.jpeg,4,stim/4.png,3,3,8,2020-11-18_12h43.18.424,premup-three_ses-02_part-03_label-phase3,3.2.4,MacIntel,60
1,left,1.330999851,4,0.689999819,0,1,2.085999966,0,2,0.934000015,1,0,200,25,1,199,2,1,0.3,1,stim/objects/Instruments/accordion4.png,stim/32.jpeg,3,stim/3.png,2,4,8,2020-11-18_12h43.18.424,premup-three_ses-02_part-03_label-phase3,3.2.4,MacIntel,60
1,right,1.251999855,,,0,,,0,,,1,0,200,129,1,199,0,1,0,2,stim/objects/Instruments/grandpiano.png,,0,stim/0.png,0,0,8,2020-11-18_12h43.18.424,premup-three_ses-02_part-03_label-phase3,3.2.4,MacIntel,60
1,left,1.028999805,,,0,,,0,,,1,0,200,194,1,199,0,2,0,2,stim/objects/HouseObjects/clock2.png,,0,stim/0.png,0,0,8,2020-11-18_12h43.18.424,premup-three_ses-02_part-03_label-phase3,3.2.4,MacIntel,60
1,left,0.895999908,4,0.829999924,0,2,4.883999825,0,3,0.828000069,1,0,200,7,1,199,1,1,0.5,1,stim/objects/HouseObjects/handbrush3.png,stim/14.jpeg,1,stim/1.png,4,1,8,2020-11-18_12h43.18.424,premup-three_ses-02_part-03_label-phase3,3.2.4,MacIntel,60
1,right,2.180999756,,,0,,,0,,,1,0,200,130,1,199,0,2,0,2,stim/objects/HouseObjects/clothesdryingrack.png,,0,stim/0.png,0,0,8,2020-11-18_12h43.18.424,premup-three_ses-02_part-03_label-phase3,3.2.4,MacIntel,60
1,right,0.897000074,,,0,,,0,,,1,0,200,199,1,199,0,2,0,2,stim/objects/HouseObjects/dishsoap2.png,,0,stim/0.png,0,0,8,2020-11-18_12h43.18.424,premup-three_ses-02_part-03_label-phase3,3.2.4,MacIntel,60
1,left,0.748999834,4,0.684000015,0,2,5.194000006,0,1,1.894000053,1,0,200,18,1,199,1,2,0.5,1,stim/objects/HouseObjects/lintroller3.png,stim/23.jpeg,2,stim/2.png,3,3,8,2020-11-18_12h43.18.424,premup-three_ses-02_part-03_label-phase3,3.2.4,MacIntel,60
1,left,1.325999975,4,0.936999798,0,4,5.285000086,0,2,0.932999849,1,0,200,84,1,199,3,1,0.9,1,stim/objects/Instruments/musicsheet4.png,stim/61.jpeg,6,stim/6.png,1,2,8,2020-11-18_12h43.18.424,premup-three_ses-02_part-03_label-phase3,3.2.4,MacIntel,60
1,left,2.042999983,4,0.598999977,0,2,3.825999975,0,2,3.431999922,1,0,200,50,1,199,2,2,0.3,1,stim/objects/HouseObjects/blender4.png,stim/42.jpeg,4,stim/4.png,2,1,8,2020-11-18_12h43.18.424,premup-three_ses-02_part-03_label-phase3,3.2.4,MacIntel,60
1,left,1.269000053,4,0.703000069,0,2,6.211999893,0,3,3.345999956,1,0,200,26,1,199,2,1,0.3,1,stim/objects/Instruments/acousticguitar4.png,stim/33.jpeg,3,stim/3.png,3,2,8,2020-11-18_12h43.18.424,premup-three_ses-02_part-03_label-phase3,3.2.4,MacIntel,60
1,right,3.82799983,,,0,,,0,,,1,0,200,140,1,199,0,1,0,2,stim/objects/Instruments/guitarcase.png,,0,stim/0.png,0,0,8,2020-11-18_12h43.18.424,premup-three_ses-02_part-03_label-phase3,3.2.4,MacIntel,60
1,left,0.931999922,4,0.588999987,0,2,2.562000036,0,3,0.947000027,1,0,200,1,1,199,1,1,0.5,1,stim/objects/Instruments/harmonica3.png,stim/14.jpeg,1,stim/1.png,4,4,8,2020-11-18_12h43.18.424,premup-three_ses-02_part-03_label-phase3,3.2.4,MacIntel,60
1,right,1.90199995,2,1.822000027,0,2,2.365999937,0,1,1.529999971,1,0,200,69,1,199,3,1,0.1,1,stim/objects/Instruments/keyboard4.png,stim/52.jpeg,5,stim/5.png,2,2,8,2020-11-18_12h43.18.424,premup-three_ses-02_part-03_label-phase3,3.2.4,MacIntel,60
1,left,3.02699995,,,0,,,0,,,1,0,200,145,1,199,0,1,0,2,stim/objects/Instruments/laud.png,,0,stim/0.png,0,0,8,2020-11-18_12h43.18.424,premup-three_ses-02_part-03_label-phase3,3.2.4,MacIntel,60
1,left,1.065999746,4,0.651000023,0,1,2.683999777,0,4,4.572999954,1,0,200,45,1,199,2,1,0.7,1,stim/objects/Instruments/cymbal4.png,stim/41.jpeg,4,stim/4.png,1,3,8,2020-11-18_12h43.18.424,premup-three_ses-02_part-03_label-phase3,3.2.4,MacIntel,60
1,left,1.996000051,4,0.489000082,0,1,6.395999908,0,2,1.576999903,1,0,200,9,1,199,1,1,0.5,1,stim/objects/HouseObjects/iron3.png,stim/12.jpeg,1,stim/1.png,2,1,8,2020-11-18_12h43.18.424,premup-three_ses-02_part-03_label-phase3,3.2.4,MacIntel,60
1,left,1.644999743,4,0.591999769,0,4,5.028999805,0,2,1.519999981,1,0,200,97,1,199,3,2,0.1,1,stim/objects/HouseObjects/towel4.png,stim/62.jpeg,6,stim/6.png,2,1,8,2020-11-18_12h43.18.424,premup-three_ses-02_part-03_label-phase3,3.2.4,MacIntel,60
1,left,1.994999886,4,0.497999907,0,2,4.975999832,0,1,3.118000031,1,0,200,31,1,199,2,2,0.7,1,stim/objects/HouseObjects/pitcher3.png,stim/33.jpeg,3,stim/3.png,3,4,8,2020-11-18_12h43.18.424,premup-three_ses-02_part-03_label-phase3,3.2.4,MacIntel,60
1,left,1.264999866,,,0,,,0,,,1,0,200,109,1,199,0,1,0,2,stim/objects/Instruments/cornet.png,,0,stim/0.png,0,0,8,2020-11-18_12h43.18.424,premup-three_ses-02_part-03_label-phase3,3.2.4,MacIntel,60
1,left,0.711999893,4,0.682999849,0,2,6.944999933,0,2,2.152999878,1,0,200,29,1,199,2,1,0.3,1,stim/objects/Instruments/bassdrum4.png,stim/32.jpeg,3,stim/3.png,2,2,8,2020-11-18_12h43.18.424,premup-three_ses-02_part-03_label-phase3,3.2.4,MacIntel,60
1,right,0.927999973,2,0.984999895,0,4,3.763000011,0,3,0.718999863,1,0,200,93,1,199,3,2,0.1,1,stim/objects/HouseObjects/lintroller4.png,stim/62.jpeg,6,stim/6.png,2,2,8,2020-11-18_12h43.18.424,premup-three_ses-02_part-03_label-phase3,3.2.4,MacIntel,60
1,left,2.042999983,4,1.06799984,0,2,1.970000029,0,2,1.767999887,1,0,200,17,1,199,1,2,0.5,1,stim/objects/HouseObjects/knife3.png,stim/22.jpeg,2,stim/2.png,2,1,8,2020-11-18_12h43.18.424,premup-three_ses-02_part-03_label-phase3,3.2.4,MacIntel,60
1,right,1.348999977,1,1.016000032,0,4,4.061000109,0,1,1.212999821,1,0,200,57,1,199,2,2,0.3,1,stim/objects/HouseObjects/coffee4.png,stim/41.jpeg,4,stim/4.png,1,2,8,2020-11-18_12h43.18.424,premup-three_ses-02_part-03_label-phase3,3.2.4,MacIntel,60
1,right,1.953999996,,,0,,,0,,,1,0,200,148,1,199,0,1,0,2,stim/objects/Instruments/metronome.png,,0,stim/0.png,0,0,8,2020-11-18_12h43.18.424,premup-three_ses-02_part-03_label-phase3,3.2.4,MacIntel,60
1,left,1.000999928,4,0.664000034,0,2,3.144000053,0,1,2.167999983,1,0,200,27,1,199,2,1,0.3,1,stim/objects/Instruments/balalaika4.png,stim/34.jpeg,3,stim/3.png,4,2,8,2020-11-18_12h43.18.424,premup-three_ses-02_part-03_label-phase3,3.2.4,MacIntel,60
1,left,1.378999949,4,0.763999939,0,1,4.236999989,0,4,2.815999985,1,0,200,42,1,199,2,1,0.7,1,stim/objects/Instruments/chime4.png,stim/42.jpeg,4,stim/4.png,2,3,8,2020-11-18_12h43.18.424,premup-three_ses-02_part-03_label-phase3,3.2.4,MacIntel,60
1,left,1.181999922,,,0,,,0,,,1,0,200,168,1,199,0,1,0,2,stim/objects/Instruments/banjo2.png,,0,stim/0.png,0,0,8,2020-11-18_12h43.18.424,premup-three_ses-02_part-03_label-phase3,3.2.4,MacIntel,60
1,left,1.458999872,4,0.605000019,0,1,1.713999987,0,1,0.895999908,1,0,200,75,1,199,3,2,0.9,1,stim/objects/HouseObjects/glassmop4.png,stim/54.jpeg,5,stim/5.png,4,2,8,2020-11-18_12h43.18.424,premup-three_ses-02_part-03_label-phase3,3.2.4,MacIntel,60
1,left,1.559999943,,,0,,,0,,,1,0,200,187,1,199,0,1,0,2,stim/objects/Instruments/drums2.png,,0,stim/0.png,0,0,8,2020-11-18_12h43.18.424,premup-three_ses-02_part-03_label-phase3,3.2.4,MacIntel,60
1,left,0.830999851,4,0.566999912,0,1,5.126999855,0,2,1.013999939,1,0,200,23,1,199,2,1,0.3,1,stim/objects/Instruments/vuvuzela3.png,stim/34.jpeg,3,stim/3.png,4,4,8,2020-11-18_12h43.18.424,premup-three_ses-02_part-03_label-phase3,3.2.4,MacIntel,60
1,right,1.096999884,,,0,,,0,,,1,0,200,135,1,199,0,2,0,2,stim/objects/HouseObjects/doormat.png,,0,stim/0.png,0,0,8,2020-11-18_12h43.18.424,premup-three_ses-02_part-03_label-phase3,3.2.4,MacIntel,60
1,left,1.080999851,,,0,,,0,,,1,0,200,195,1,199,0,2,0,2,stim/objects/HouseObjects/clothesdryingrack2.png,,0,stim/0.png,0,0,8,2020-11-18_12h43.18.424,premup-three_ses-02_part-03_label-phase3,3.2.4,MacIntel,60
1,left,1.339999914,,,0,,,0,,,1,0,200,184,1,199,0,1,0,2,stim/objects/Instruments/cornet2.png,,0,stim/0.png,0,0,8,2020-11-18_12h43.18.424,premup-three_ses-02_part-03_label-phase3,3.2.4,MacIntel,60
1,left,0.811999798,4,0.639999866,0,3,9.217999935,0,2,4.129999876,1,0,200,65,1,199,3,1,0.1,1,stim/objects/Instruments/guitarcase4.png,stim/52.jpeg,5,stim/5.png,2,2,8,2020-11-18_12h43.18.424,premup-three_ses-02_part-03_label-phase3,3.2.4,MacIntel,60
1,right,1.564999819,1,0.85800004,0,4,1.613999844,0,1,0.826999903,1,0,200,44,1,199,2,1,0.7,1,stim/objects/Instruments/cornet4.png,stim/44.jpeg,4,stim/4.png,4,3,8,2020-11-18_12h43.18.424,premup-three_ses-02_part-03_label-phase3,3.2.4,MacIntel,60
1,left,1.737999916,4,0.84800005,0,4,0.399999857,0,4,1.297999859,1,0,200,73,1,199,3,2,0.9,1,stim/objects/HouseObjects/garbagebin4.png,stim/52.jpeg,5,stim/5.png,2,1,8,2020-11-18_12h43.18.424,premup-three_ses-02_part-03_label-phase3,3.2.4,MacIntel,60
1,right,2.048999786,,,0,,,0,,,1,0,200,137,1,199,0,2,0,2,stim/objects/HouseObjects/flyswatter.png,,0,stim/0.png,0,0,8,2020-11-18_12h43.18.424,premup-three_ses-02_part-03_label-phase3,3.2.4,MacIntel,60
1,left,1.128000021,,,0,,,0,,,1,0,200,189,1,199,0,1,0,2,stim/objects/Instruments/electricguitar2.png,,0,stim/0.png,0,0,8,2020-11-18_12h43.18.424,premup-three_ses-02_part-03_label-phase3,3.2.4,MacIntel,60
1,left,0.957999945,4,0.648000002,0,4,2.774999857,0,1,0.878999949,1,0,200,90,1,199,3,2,0.1,1,stim/objects/HouseObjects/ironingboard4.png,stim/63.jpeg,6,stim/6.png,3,1,8,2020-11-18_12h43.18.424,premup-three_ses-02_part-03_label-phase3,3.2.4,MacIntel,60
1,right,2.273999929,,,0,,,0,,,1,0,200,128,1,199,0,1,0,2,stim/objects/Instruments/gong.png,,0,stim/0.png,0,0,8,2020-11-18_12h43.18.424,premup-three_ses-02_part-03_label-phase3,3.2.4,MacIntel,60
1,left,0.980999947,4,0.5,0,1,7.401000023,0,1,2.819000006,1,0,200,47,1,199,2,1,0.7,1,stim/objects/Instruments/drums4.png,stim/43.jpeg,4,stim/4.png,3,2,8,2020-11-18_12h43.18.424,premup-three_ses-02_part-03_label-phase3,3.2.4,MacIntel,60
1,right,1.195999861,,,0,,,0,,,1,0,200,152,1,199,0,2,0,2,stim/objects/HouseObjects/handbrush.png,,0,stim/0.png,0,0,8,2020-11-18_12h43.18.424,premup-three_ses-02_part-03_label-phase3,3.2.4,MacIntel,60
1,left,0.842999935,4,0.620999813,0,3,3.829999924,0,2,2.387000084,1,0,200,66,1,199,3,1,0.1,1,stim/objects/Instruments/harmonica4.png,stim/53.jpeg,5,stim/5.png,3,3,8,2020-11-18_12h43.18.424,premup-three_ses-02_part-03_label-phase3,3.2.4,MacIntel,60
1,left,1.961999893,4,0.76699996,0,4,6.961999893,0,2,2.595999956,1,0,200,58,1,199,2,2,0.3,1,stim/objects/HouseObjects/cushion4.png,stim/42.jpeg,4,stim/4.png,2,4,8,2020-11-18_12h43.18.424,premup-three_ses-02_part-03_label-phase3,3.2.4,MacIntel,60
1,left,1.200000048,,,0,,,0,,,1,0,200,123,1,199,0,1,0,2,stim/objects/Instruments/electricdrumset.png,,0,stim/0.png,0,0,8,2020-11-18_12h43.18.424,premup-three_ses-02_part-03_label-phase3,3.2.4,MacIntel,60
1,left,0.767999887,4,0.947999954,0,2,1.248999834,0,1,0.830999851,1,0,200,12,1,199,1,2,0.5,1,stim/objects/Instruments/marimba3.png,stim/23.jpeg,2,stim/2.png,3,1,8,2020-11-18_12h43.18.424,premup-three_ses-02_part-03_label-phase3,3.2.4,MacIntel,60
1,right,1.044999838,,,0,,,0,,,1,0,200,117,1,199,0,2,0,2,stim/objects/HouseObjects/broom.png,,0,stim/0.png,0,0,8,2020-11-18_12h43.18.424,premup-three_ses-02_part-03_label-phase3,3.2.4,MacIntel,60
1,left,0.872999907,,,0,,,0,,,1,0,200,122,1,199,0,1,0,2,stim/objects/Instruments/drums.png,,0,stim/0.png,0,0,8,2020-11-18_12h43.18.424,premup-three_ses-02_part-03_label-phase3,3.2.4,MacIntel,60
1,right,0.974999905,,,0,,,0,,,1,0,200,198,1,199,0,2,0,2,stim/objects/HouseObjects/cushion2.png,,0,stim/0.png,0,0,8,2020-11-18_12h43.18.424,premup-three_ses-02_part-03_label-phase3,3.2.4,MacIntel,60
1,left,0.84499979,4,0.624000072,0,2,3.013999939,0,1,0.645999908,1,0,200,67,1,199,3,1,0.1,1,stim/objects/Instruments/harp4.png,stim/54.jpeg,5,stim/5.png,4,2,8,2020-11-18_12h43.18.424,premup-three_ses-02_part-03_label-phase3,3.2.4,MacIntel,60
1,left,1.092000008,4,0.953000069,0,4,3.462999821,0,3,1.536000013,1,0,200,39,1,199,2,2,0.7,1,stim/objects/HouseObjects/bleachbottle4.png,stim/33.jpeg,3,stim/3.png,3,1,8,2020-11-18_12h43.18.424,premup-three_ses-02_part-03_label-phase3,3.2.4,MacIntel,60
1,right,1.29399991,,,0,,,0,,,1,0,200,162,1,199,0,1,0,2,stim/objects/Instruments/violin.png,,0,stim/0.png,0,0,8,2020-11-18_12h43.18.424,premup-three_ses-02_part-03_label-phase3,3.2.4,MacIntel,60
1,left,0.753999949,,,0,,,0,,,1,0,200,142,1,199,0,1,0,2,stim/objects/Instruments/harp.png,,0,stim/0.png,0,0,8,2020-11-18_12h43.18.424,premup-three_ses-02_part-03_label-phase3,3.2.4,MacIntel,60
1,left,0.790999889,4,0.597999811,0,2,4.2099998,0,1,0.711999893,1,0,200,0,1,199,1,1,0.5,1,stim/objects/Instruments/guitarcase3.png,stim/13.jpeg,1,stim/1.png,3,3,8,2020-11-18_12h43.18.424,premup-three_ses-02_part-03_label-phase3,3.2.4,MacIntel,60
1,right,0.912999868,,,0,,,0,,,1,0,200,173,1,199,0,2,0,2,stim/objects/HouseObjects/vacuumcleaner.png,,0,stim/0.png,0,0,8,2020-11-18_12h43.18.424,premup-three_ses-02_part-03_label-phase3,3.2.4,MacIntel,60
1,left,0.929999828,4,0.636999846,0,4,6.513000011,0,1,1.735999823,1,0,200,54,1,199,2,2,0.3,1,stim/objects/HouseObjects/clock4.png,stim/42.jpeg,4,stim/4.png,2,3,8,2020-11-18_12h43.18.424,premup-three_ses-02_part-03_label-phase3,3.2.4,MacIntel,60
1,left,1.326999903,4,0.470999956,0,2,2.046000004,0,1,0.781000137,1,0,200,80,1,199,3,1,0.9,1,stim/objects/Instruments/laud4.png,stim/61.jpeg,6,stim/6.png,1,1,8,2020-11-18_12h43.18.424,premup-three_ses-02_part-03_label-phase3,3.2.4,MacIntel,60
1,right,0.855000019,,,0,,,0,,,1,0,200,107,1,199,0,1,0,2,stim/objects/Instruments/chime.png,,0,stim/0.png,0,0,8,2020-11-18_12h43.18.424,premup-three_ses-02_part-03_label-phase3,3.2.4,MacIntel,60
1,right,0.907000065,,,0,,,0,,,1,0,200,159,1,199,0,2,0,2,stim/objects/HouseObjects/match.png,,0,stim/0.png,0,0,8,2020-11-18_12h43.18.424,premup-three_ses-02_part-03_label-phase3,3.2.4,MacIntel,60
1,left,1.021000147,,,0,,,0,,,1,0,200,174,1,199,0,2,0,2,stim/objects/HouseObjects/wateringcan.png,,0,stim/0.png,0,0,8,2020-11-18_12h43.18.424,premup-three_ses-02_part-03_label-phase3,3.2.4,MacIntel,60
1,right,0.775000095,,,0,,,0,,,1,0,200,163,1,199,0,1,0,2,stim/objects/Instruments/vuvuzela.png,,0,stim/0.png,0,0,8,2020-11-18_12h43.18.424,premup-three_ses-02_part-03_label-phase3,3.2.4,MacIntel,60
1,right,1.010999918,,,0,,,0,,,1,0,200,165,1,199,0,1,0,2,stim/objects/Instruments/accordion2.png,,0,stim/0.png,0,0,8,2020-11-18_12h43.18.424,premup-three_ses-02_part-03_label-phase3,3.2.4,MacIntel,60
1,right,0.826999903,,,0,,,0,,,1,0,200,181,1,199,0,1,0,2,stim/objects/Instruments/cello2.png,,0,stim/0.png,0,0,8,2020-11-18_12h43.18.424,premup-three_ses-02_part-03_label-phase3,3.2.4,MacIntel,60
1,left,0.731999874,4,0.554999828,0,1,3.599999905,0,2,0.697999954,1,0,200,48,1,199,2,1,0.7,1,stim/objects/Instruments/electricdrumset4.png,stim/44.jpeg,4,stim/4.png,4,2,8,2020-11-18_12h43.18.424,premup-three_ses-02_part-03_label-phase3,3.2.4,MacIntel,60
1,left,2.557999849,4,0.515999794,0,1,1.86500001,0,4,2.536999941,1,0,200,41,1,199,2,1,0.7,1,stim/objects/Instruments/cello4.png,stim/41.jpeg,4,stim/4.png,1,4,8,2020-11-18_12h43.18.424,premup-three_ses-02_part-03_label-phase3,3.2.4,MacIntel,60
1,left,1.335999966,,,0,,,0,,,1,0,200,183,1,199,0,1,0,2,stim/objects/Instruments/clarinet2.png,,0,stim/0.png,0,0,8,2020-11-18_12h43.18.424,premup-three_ses-02_part-03_label-phase3,3.2.4,MacIntel,60
1,left,0.790999889,4,0.471999884,0,1,2.481999874,0,2,0.796999931,1,0,200,70,1,199,3,2,0.9,1,stim/objects/HouseObjects/doormat4.png,stim/53.jpeg,5,stim/5.png,3,4,8,2020-11-18_12h43.18.424,premup-three_ses-02_part-03_label-phase3,3.2.4,MacIntel,60
1,right,2.224999905,,,0,,,0,,,1,0,200,125,1,199,0,1,0,2,stim/objects/Instruments/flute.png,,0,stim/0.png,0,0,8,2020-11-18_12h43.18.424,premup-three_ses-02_part-03_label-phase3,3.2.4,MacIntel,60
1,left,0.914999962,4,0.598999977,0,2,2.610999823,0,1,0.680999994,1,0,200,91,1,199,3,2,0.1,1,stim/objects/HouseObjects/key4.png,stim/64.jpeg,6,stim/6.png,4,4,8,2020-11-18_12h43.18.424,premup-three_ses-02_part-03_label-phase3,3.2.4,MacIntel,60
1,right,1.553999901,,,0,,,0,,,1,0,200,191,1,199,0,2,0,2,stim/objects/HouseObjects/bottle2.png,,0,stim/0.png,0,0,8,2020-11-18_12h43.18.424,premup-three_ses-02_part-03_label-phase3,3.2.4,MacIntel,60
1,left,0.972999811,4,0.547999859,0,2,3.212000132,0,1,0.897999763,1,0,200,56,1,199,2,2,0.3,1,stim/objects/HouseObjects/clothespin4.png,stim/44.jpeg,4,stim/4.png,4,1,8,2020-11-18_12h43.18.424,premup-three_ses-02_part-03_label-phase3,3.2.4,MacIntel,60
1,left,1.495999813,4,0.532999992,0,1,3.858999968,0,2,1.845999956,1,0,200,15,1,199,1,2,0.5,1,stim/objects/HouseObjects/ironingboard3.png,stim/24.jpeg,2,stim/2.png,4,2,8,2020-11-18_12h43.18.424,premup-three_ses-02_part-03_label-phase3,3.2.4,MacIntel,60
1,left,1.184000015,4,0.785999775,0,1,3.870000124,0,3,1.645999908,1,0,200,74,1,199,3,2,0.9,1,stim/objects/HouseObjects/glass4.png,stim/53.jpeg,5,stim/5.png,3,4,8,2020-11-18_12h43.18.424,premup-three_ses-02_part-03_label-phase3,3.2.4,MacIntel,60
1,right,0.973999977,,,0,,,0,,,1,0,200,105,1,199,0,1,0,2,stim/objects/Instruments/bassguitar.png,,0,stim/0.png,0,0,8,2020-11-18_12h43.18.424,premup-three_ses-02_part-03_label-phase3,3.2.4,MacIntel,60
1,right,0.761000156,,,0,,,0,,,1,0,200,160,1,199,0,1,0,2,stim/objects/Instruments/musicstand.png,,0,stim/0.png,0,0,8,2020-11-18_12h43.18.424,premup-three_ses-02_part-03_label-phase3,3.2.4,MacIntel,60
1,left,0.809000015,,,0,,,0,,,1,0,200,102,1,199,0,1,0,2,stim/objects/Instruments/balalaika.png,,0,stim/0.png,0,0,8,2020-11-18_12h43.18.424,premup-three_ses-02_part-03_label-phase3,3.2.4,MacIntel,60
1,right,1.302000046,2,1.547999859,0,4,4.399999857,0,2,0.832000017,1,0,200,38,1,199,2,2,0.7,1,stim/objects/HouseObjects/basket4.png,stim/32.jpeg,3,stim/3.png,2,1,8,2020-11-18_12h43.18.424,premup-three_ses-02_part-03_label-phase3,3.2.4,MacIntel,60
1,right,2.228999853,1,1.03399992,0,3,2.042999983,0,1,0.779000044,1,0,200,24,1,199,2,1,0.3,1,stim/objects/Instruments/xylophone3.png,stim/31.jpeg,3,stim/3.png,1,3,8,2020-11-18_12h43.18.424,premup-three_ses-02_part-03_label-phase3,3.2.4,MacIntel,60
1,right,1.447000027,,,0,,,0,,,1,0,200,182,1,199,0,1,0,2,stim/objects/Instruments/chime2.png,,0,stim/0.png,0,0,8,2020-11-18_12h43.18.424,premup-three_ses-02_part-03_label-phase3,3.2.4,MacIntel,60
1,right,0.814999819,,,0,,,0,,,1,0,200,113,1,199,0,2,0,2,stim/objects/HouseObjects/basket.png,,0,stim/0.png,0,0,8,2020-11-18_12h43.18.424,premup-three_ses-02_part-03_label-phase3,3.2.4,MacIntel,60
1,left,0.759999752,,,0,,,0,,,1,0,200,180,1,199,0,1,0,2,stim/objects/Instruments/bassguitar2.png,,0,stim/0.png,0,0,8,2020-11-18_12h43.18.424,premup-three_ses-02_part-03_label-phase3,3.2.4,MacIntel,60
1,right,0.753999949,,,0,,,0,,,1,0,200,118,1,199,0,2,0,2,stim/objects/HouseObjects/bucket.png,,0,stim/0.png,0,0,8,2020-11-18_12h43.18.424,premup-three_ses-02_part-03_label-phase3,3.2.4,MacIntel,60
1,left,0.996000051,4,0.531999826,0,3,3.978999853,0,1,2.180999994,1,0,200,81,1,199,3,1,0.9,1,stim/objects/Instruments/maraca4.png,stim/62.jpeg,6,stim/6.png,2,1,8,2020-11-18_12h43.18.424,premup-three_ses-02_part-03_label-phase3,3.2.4,MacIntel,60
1,left,1.708999872,4,0.836999893,0,3,3.763000011,0,2,1.545000076,1,0,200,13,1,199,1,2,0.5,1,stim/objects/Instruments/metronome3.png,stim/24.jpeg,2,stim/2.png,4,1,8,2020-11-18_12h43.18.424,premup-three_ses-02_part-03_label-phase3,3.2.4,MacIntel,60
1,left,1.338999748,4,0.746999979,0,3,1.715999842,0,1,2.286000013,1,0,200,59,1,199,2,2,0.3,1,stim/objects/HouseObjects/dishsoap4.png,stim/43.jpeg,4,stim/4.png,3,2,8,2020-11-18_12h43.18.424,premup-three_ses-02_part-03_label-phase3,3.2.4,MacIntel,60
1,left,1.049000025,,,0,,,0,,,1,0,200,186,1,199,0,1,0,2,stim/objects/Instruments/doublebass2.png,,0,stim/0.png,0,0,8,2020-11-18_12h43.18.424,premup-three_ses-02_part-03_label-phase3,3.2.4,MacIntel,60
1,left,0.90199995,4,0.388000011,0,2,3.868000031,0,2,2.230000019,1,0,200,94,1,199,3,2,0.1,1,stim/objects/HouseObjects/match4.png,stim/63.jpeg,6,stim/6.png,3,1,8,2020-11-18_12h43.18.424,premup-three_ses-02_part-03_label-phase3,3.2.4,MacIntel,60
1,right,0.828999996,,,0,,,0,,,1,0,200,179,1,199,0,2,0,2,stim/objects/HouseObjects/bleachbottle2.png,,0,stim/0.png,0,0,8,2020-11-18_12h43.18.424,premup-three_ses-02_part-03_label-phase3,3.2.4,MacIntel,60
1,right,0.727999926,,,0,,,0,,,1,0,200,132,1,199,0,2,0,2,stim/objects/HouseObjects/coffee.png,,0,stim/0.png,0,0,8,2020-11-18_12h43.18.424,premup-three_ses-02_part-03_label-phase3,3.2.4,MacIntel,60
1,right,0.725999832,1,1.547999859,0,4,8.360999823,0,1,5.116999865,1,0,200,63,1,199,3,1,0.1,1,stim/objects/Instruments/gong4.png,stim/54.jpeg,5,stim/5.png,4,4,8,2020-11-18_12h43.18.424,premup-three_ses-02_part-03_label-phase3,3.2.4,MacIntel,60
1,right,0.911999941,,,0,,,0,,,1,0,200,133,1,199,0,2,0,2,stim/objects/HouseObjects/cushion.png,,0,stim/0.png,0,0,8,2020-11-18_12h43.18.424,premup-three_ses-02_part-03_label-phase3,3.2.4,MacIntel,60
1,right,1.155999899,2,2.154999971,0,2,1.268999815,0,3,0.75399971,1,0,200,8,1,199,1,1,0.5,1,stim/objects/HouseObjects/handvacuum3.png,stim/11.jpeg,1,stim/1.png,1,4,8,2020-11-18_12h43.18.424,premup-three_ses-02_part-03_label-phase3,3.2.4,MacIntel,60
1,right,1.576999903,,,0,,,0,,,1,0,200,131,1,199,0,2,0,2,stim/objects/HouseObjects/clothespin.png,,0,stim/0.png,0,0,8,2020-11-18_12h43.18.424,premup-three_ses-02_part-03_label-phase3,3.2.4,MacIntel,60
1,left,1.215999842,,,0,,,0,,,1,0,200,126,1,199,0,1,0,2,stim/objects/Instruments/flutetrans.png,,0,stim/0.png,0,0,8,2020-11-18_12h43.18.424,premup-three_ses-02_part-03_label-phase3,3.2.4,MacIntel,60
1,left,1.529000044,4,0.691999912,0,4,1.768999815,0,2,1.030999899,1,0,200,37,1,199,2,2,0.7,1,stim/objects/HouseObjects/barbecuelighter4.png,stim/31.jpeg,3,stim/3.png,1,3,8,2020-11-18_12h43.18.424,premup-three_ses-02_part-03_label-phase3,3.2.4,MacIntel,60
1,right,2.726999998,,,0,,,0,,,1,0,200,104,1,199,0,1,0,2,stim/objects/Instruments/bassdrum.png,,0,stim/0.png,0,0,8,2020-11-18_12h43.18.424,premup-three_ses-02_part-03_label-phase3,3.2.4,MacIntel,60
1,right,1.105999947,,,0,,,0,,,1,0,200,119,1,199,0,2,0,2,stim/objects/HouseObjects/clock.png,,0,stim/0.png,0,0,8,2020-11-18_12h43.18.424,premup-three_ses-02_part-03_label-phase3,3.2.4,MacIntel,60
1,left,1.342999935,,,0,,,0,,,1,0,200,161,1,199,0,1,0,2,stim/objects/Instruments/oboe.png,,0,stim/0.png,0,0,8,2020-11-18_12h43.18.424,premup-three_ses-02_part-03_label-phase3,3.2.4,MacIntel,60
1,right,1.420000076,,,0,,,0,,,1,0,200,144,1,199,0,1,0,2,stim/objects/Instruments/keyboard.png,,0,stim/0.png,0,0,8,2020-11-18_12h43.18.424,premup-three_ses-02_part-03_label-phase3,3.2.4,MacIntel,60
1,right,1.121999979,,,0,,,0,,,1,0,200,155,1,199,0,2,0,2,stim/objects/HouseObjects/ironingboard.png,,0,stim/0.png,0,0,8,2020-11-18_12h43.18.424,premup-three_ses-02_part-03_label-phase3,3.2.4,MacIntel,60
1,right,0.839999914,2,0.990999937,0,2,0.678999901,0,1,0.65199995,1,0,200,51,1,199,2,2,0.3,1,stim/objects/HouseObjects/bottle4.png,stim/43.jpeg,4,stim/4.png,3,3,8,2020-11-18_12h43.18.424,premup-three_ses-02_part-03_label-phase3,3.2.4,MacIntel,60
1,right,0.911000013,1,1.429999828,0,3,1.799999952,0,2,0.80099988,1,0,200,16,1,199,1,2,0.5,1,stim/objects/HouseObjects/key3.png,stim/21.jpeg,2,stim/2.png,1,2,8,2020-11-18_12h43.18.424,premup-three_ses-02_part-03_label-phase3,3.2.4,MacIntel,60
1,right,0.854000092,,,0,,,0,,,1,0,200,114,1,199,0,2,0,2,stim/objects/HouseObjects/bleachbottle.png,,0,stim/0.png,0,0,8,2020-11-18_12h43.18.424,premup-three_ses-02_part-03_label-phase3,3.2.4,MacIntel,60
1,left,0.911000013,4,1.448999882,0,2,7.250999928,0,2,1.162999868,1,0,200,92,1,199,3,2,0.1,1,stim/objects/HouseObjects/knife4.png,stim/61.jpeg,6,stim/6.png,1,3,8,2020-11-18_12h43.18.424,premup-three_ses-02_part-03_label-phase3,3.2.4,MacIntel,60
1,left,2.047999859,4,0.746999979,0,3,7.4599998,0,4,2.125,1,0,200,62,1,199,3,1,0.1,1,stim/objects/Instruments/frenchhorn4.png,stim/53.jpeg,5,stim/5.png,3,3,8,2020-11-18_12h43.18.424,premup-three_ses-02_part-03_label-phase3,3.2.4,MacIntel,60
1,right,1.357999802,1,0.980999947,0,4,2.77699995,0,1,0.897999763,1,0,200,34,1,199,2,2,0.7,1,stim/objects/HouseObjects/wateringcan3.png,stim/32.jpeg,3,stim/3.png,2,4,8,2020-11-18_12h43.18.424,premup-three_ses-02_part-03_label-phase3,3.2.4,MacIntel,60
1,right,1.378000021,2,0.804999828,0,2,0.679999828,0,3,3.01699996,1,0,200,61,1,199,3,1,0.1,1,stim/objects/Instruments/flutetrans4.png,stim/52.jpeg,5,stim/5.png,2,4,8,2020-11-18_12h43.18.424,premup-three_ses-02_part-03_label-phase3,3.2.4,MacIntel,60
1,right,0.845000029,,,0,,,0,,,1,0,200,136,1,199,0,2,0,2,stim/objects/HouseObjects/dustpan.png,,0,stim/0.png,0,0,8,2020-11-18_12h43.18.424,premup-three_ses-02_part-03_label-phase3,3.2.4,MacIntel,60
1,left,0.972999811,,,0,,,0,,,1,0,200,175,1,199,0,2,0,2,stim/objects/HouseObjects/ashtray2.png,,0,stim/0.png,0,0,8,2020-11-18_12h43.18.424,premup-three_ses-02_part-03_label-phase3,3.2.4,MacIntel,60
1,left,0.963999987,4,0.756999969,0,1,2.852999926,0,2,0.901000023,1,0,200,43,1,199,2,1,0.7,1,stim/objects/Instruments/clarinet4.png,stim/43.jpeg,4,stim/4.png,3,1,8,2020-11-18_12h43.18.424,premup-three_ses-02_part-03_label-phase3,3.2.4,MacIntel,60
1,right,1.092000008,,,0,,,0,,,1,0,200,157,1,199,0,2,0,2,stim/objects/HouseObjects/knife.png,,0,stim/0.png,0,0,8,2020-11-18_12h43.18.424,premup-three_ses-02_part-03_label-phase3,3.2.4,MacIntel,60
1,left,1.004999876,,,0,,,0,,,1,0,200,120,1,199,0,1,0,2,stim/objects/Instruments/cymbal.png,,0,stim/0.png,0,0,8,2020-11-18_12h43.18.424,premup-three_ses-02_part-03_label-phase3,3.2.4,MacIntel,60
1,right,0.826999903,2,0.830999851,0,2,0.514999866,0,3,1.079999924,1,0,200,49,1,199,2,1,0.7,1,stim/objects/Instruments/electricguitar4.png,stim/41.jpeg,4,stim/4.png,1,1,8,2020-11-18_12h43.18.424,premup-three_ses-02_part-03_label-phase3,3.2.4,MacIntel,60
1,left,1.189999819,4,1.536000013,0,3,2.41899991,0,1,1.217000008,1,0,200,60,1,199,3,1,0.1,1,stim/objects/Instruments/flute4.png,stim/51.jpeg,5,stim/5.png,1,3,8,2020-11-18_12h43.18.424,premup-three_ses-02_part-03_label-phase3,3.2.4,MacIntel,60
1,left,1.108999968,4,0.672999859,0,3,2.312999964,0,4,2.812999964,1,0,200,35,1,199,2,2,0.7,1,stim/objects/HouseObjects/ashtray4.png,stim/33.jpeg,3,stim/3.png,3,4,8,2020-11-18_12h43.18.424,premup-three_ses-02_part-03_label-phase3,3.2.4,MacIntel,60
1,left,1.273999929,4,0.513999939,0,4,3.144999981,0,3,1.250999928,1,0,200,77,1,199,3,2,0.9,1,stim/objects/HouseObjects/handbrush4.png,stim/52.jpeg,5,stim/5.png,2,1,8,2020-11-18_12h43.18.424,premup-three_ses-02_part-03_label-phase3,3.2.4,MacIntel,60
1,left,1.088999987,4,0.430999756,0,3,2.792999983,0,1,1.212999821,1,0,200,5,1,199,1,1,0.5,1,stim/objects/HouseObjects/glassmop3.png,stim/12.jpeg,1,stim/1.png,2,3,8,2020-11-18_12h43.18.424,premup-three_ses-02_part-03_label-phase3,3.2.4,MacIntel,60
1,left,1.454999924,4,0.486999989,0,4,2.845000029,0,2,1.347000122,1,0,200,99,1,199,3,2,0.1,1,stim/objects/HouseObjects/wateringcan4.png,stim/64.jpeg,6,stim/6.png,4,2,8,2020-11-18_12h43.18.424,premup-three_ses-02_part-03_label-phase3,3.2.4,MacIntel,60
1,left,1.412999868,,,0,,,0,,,1,0,200,177,1,199,0,2,0,2,stim/objects/HouseObjects/barbecuelighter2.png,,0,stim/0.png,0,0,8,2020-11-18_12h43.18.424,premup-three_ses-02_part-03_label-phase3,3.2.4,MacIntel,60
1,left,0.871999979,,,0,,,0,,,1,0,200,149,1,199,0,1,0,2,stim/objects/Instruments/musicsheet.png,,0,stim/0.png,0,0,8,2020-11-18_12h43.18.424,premup-three_ses-02_part-03_label-phase3,3.2.4,MacIntel,60
1,left,0.752000093,4,0.539999962,0,2,0.534999847,0,2,1.494999886,1,0,200,32,1,199,2,2,0.7,1,stim/objects/HouseObjects/towel3.png,stim/34.jpeg,3,stim/3.png,4,2,8,2020-11-18_12h43.18.424,premup-three_ses-02_part-03_label-phase3,3.2.4,MacIntel,60
1,right,1.141000032,,,0,,,0,,,1,0,200,103,1,199,0,1,0,2,stim/objects/Instruments/banjo.png,,0,stim/0.png,0,0,8,2020-11-18_12h43.18.424,premup-three_ses-02_part-03_label-phase3,3.2.4,MacIntel,60
1,right,0.625,,,0,,,0,,,1,0,200,138,1,199,0,2,0,2,stim/objects/HouseObjects/garbagebin.png,,0,stim/0.png,0,0,8,2020-11-18_12h43.18.424,premup-three_ses-02_part-03_label-phase3,3.2.4,MacIntel,60
1,right,0.674000025,2,0.949999809,0,2,0.497999907,0,1,0.910000086,1,0,200,82,1,199,3,1,0.9,1,stim/objects/Instruments/marimba4.png,stim/63.jpeg,6,stim/6.png,3,4,8,2020-11-18_12h43.18.424,premup-three_ses-02_part-03_label-phase3,3.2.4,MacIntel,60
1,right,0.855999947,,,0,,,0,,,1,0,200,190,1,199,0,2,0,2,stim/objects/HouseObjects/blender2.png,,0,stim/0.png,0,0,8,2020-11-18_12h43.18.424,premup-three_ses-02_part-03_label-phase3,3.2.4,MacIntel,60
1,right,1.107999802,,,0,,,0,,,1,0,200,124,1,199,0,1,0,2,stim/objects/Instruments/electricguitar.png,,0,stim/0.png,0,0,8,2020-11-18_12h43.18.424,premup-three_ses-02_part-03_label-phase3,3.2.4,MacIntel,60
1,right,0.77699995,,,0,,,0,,,1,0,200,110,1,199,0,2,0,2,stim/objects/HouseObjects/ashtray.png,,0,stim/0.png,0,0,8,2020-11-18_12h43.18.424,premup-three_ses-02_part-03_label-phase3,3.2.4,MacIntel,60
1,right,0.965999842,1,1.059999943,0,1,0.677000046,0,2,0.695999861,1,0,200,21,1,199,2,1,0.3,1,stim/objects/Instruments/oboe3.png,stim/32.jpeg,3,stim/3.png,2,3,8,2020-11-18_12h43.18.424,premup-three_ses-02_part-03_label-phase3,3.2.4,MacIntel,60
1,right,1.2099998,,,0,,,0,,,1,0,200,101,1,199,0,1,0,2,stim/objects/Instruments/acousticguitar.png,,0,stim/0.png,0,0,8,2020-11-18_12h43.18.424,premup-three_ses-02_part-03_label-phase3,3.2.4,MacIntel,60
1,right,0.875,,,0,,,0,,,1,0,200,139,1,199,0,2,0,2,stim/objects/HouseObjects/glass.png,,0,stim/0.png,0,0,8,2020-11-18_12h43.18.424,premup-three_ses-02_part-03_label-phase3,3.2.4,MacIntel,60
1,right,0.828000069,,,0,,,0,,,1,0,200,196,1,199,0,2,0,2,stim/objects/HouseObjects/clothespin2.png,,0,stim/0.png,0,0,8,2020-11-18_12h43.18.424,premup-three_ses-02_part-03_label-phase3,3.2.4,MacIntel,60
1,right,0.934000015,,,0,,,0,,,1,0,200,192,1,199,0,2,0,2,stim/objects/HouseObjects/broom2.png,,0,stim/0.png,0,0,8,2020-11-18_12h43.18.424,premup-three_ses-02_part-03_label-phase3,3.2.4,MacIntel,60
1,left,0.958999872,4,0.744999886,0,3,1.25999999,0,1,1.075999975,1,0,200,71,1,199,3,2,0.9,1,stim/objects/HouseObjects/dustpan4.png,stim/54.jpeg,5,stim/5.png,4,3,8,2020-11-18_12h43.18.424,premup-three_ses-02_part-03_label-phase3,3.2.4,MacIntel,60
1,left,1.973999977,4,0.669999838,0,4,5.887999773,0,1,1.569000006,1,0,200,83,1,199,3,1,0.9,1,stim/objects/Instruments/metronome4.png,stim/64.jpeg,6,stim/6.png,4,1,8,2020-11-18_12h43.18.424,premup-three_ses-02_part-03_label-phase3,3.2.4,MacIntel,60
1,right,0.934000015,,,0,,,0,,,1,0,200,108,1,199,0,1,0,2,stim/objects/Instruments/clarinet.png,,0,stim/0.png,0,0,8,2020-11-18_12h43.18.424,premup-three_ses-02_part-03_label-phase3,3.2.4,MacIntel,60
1,right,0.74000001,,,0,,,0,,,1,0,200,169,1,199,0,1,0,2,stim/objects/Instruments/bassdrum2.png,,0,stim/0.png,0,0,8,2020-11-18_12h43.18.424,premup-three_ses-02_part-03_label-phase3,3.2.4,MacIntel,60
1,right,0.960999966,1,1.022000074,0,2,0.648000002,0,1,0.711999893,1,0,200,14,1,199,1,2,0.5,1,stim/objects/Instruments/musicsheet3.png,stim/21.jpeg,2,stim/2.png,1,1,8,2020-11-18_12h43.18.424,premup-three_ses-02_part-03_label-phase3,3.2.4,MacIntel,60
1,left,1.240999937,4,0.601999998,0,1,2.87899971,0,1,0.950000048,1,0,200,3,1,199,1,1,0.5,1,stim/objects/Instruments/hihat3.png,stim/12.jpeg,1,stim/1.png,2,4,8,2020-11-18_12h43.18.424,premup-three_ses-02_part-03_label-phase3,3.2.4,MacIntel,60
1,right,1.592000008,,,0,,,0,,,1,0,200,134,1,199,0,2,0,2,stim/objects/HouseObjects/dishsoap.png,,0,stim/0.png,0,0,8,2020-11-18_12h43.18.424,premup-three_ses-02_part-03_label-phase3,3.2.4,MacIntel,60
1,right,1.007999897,,,0,,,0,,,1,0,200,151,1,199,0,2,0,2,stim/objects/HouseObjects/hairdryer.png,,0,stim/0.png,0,0,8,2020-11-18_12h43.18.424,premup-three_ses-02_part-03_label-phase3,3.2.4,MacIntel,60
1,right,0.924000025,2,0.865999937,0,3,1.690999985,0,1,0.585999966,1,0,200,64,1,199,3,1,0.1,1,stim/objects/Instruments/grandpiano4.png,stim/51.jpeg,5,stim/5.png,1,2,8,2020-11-18_12h43.18.424,premup-three_ses-02_part-03_label-phase3,3.2.4,MacIntel,60
1,right,1.126999855,1,0.848999977,0,1,1.109999895,0,2,0.870999813,1,0,200,40,1,199,2,1,0.7,1,stim/objects/Instruments/bassguitar4.png,stim/44.jpeg,4,stim/4.png,4,1,8,2020-11-18_12h43.18.424,premup-three_ses-02_part-03_label-phase3,3.2.4,MacIntel,60
1,right,1.592999935,,,0,,,0,,,1,0,200,150,1,199,0,2,0,2,stim/objects/HouseObjects/glassmop.png,,0,stim/0.png,0,0,8,2020-11-18_12h43.18.424,premup-three_ses-02_part-03_label-phase3,3.2.4,MacIntel,60
1,right,0.638999939,2,0.895999908,0,2,0.67599988,0,1,0.651000023,1,0,200,4,1,199,1,1,0.5,1,stim/objects/Instruments/keyboard3.png,stim/13.jpeg,1,stim/1.png,3,2,8,2020-11-18_12h43.18.424,premup-three_ses-02_part-03_label-phase3,3.2.4,MacIntel,60
1,left,1.459000111,4,0.695999861,0,3,3.932999849,0,1,0.684999943,1,0,200,11,1,199,1,2,0.5,1,stim/objects/Instruments/maraca3.png,stim/22.jpeg,2,stim/2.png,2,4,8,2020-11-18_12h43.18.424,premup-three_ses-02_part-03_label-phase3,3.2.4,MacIntel,60
1,right,1.440999985,2,0.855999947,0,4,2.345999956,0,4,1.996999741,1,0,200,95,1,199,3,2,0.1,1,stim/objects/HouseObjects/pan4.png,stim/64.jpeg,6,stim/6.png,4,2,8,2020-11-18_12h43.18.424,premup-three_ses-02_part-03_label-phase3,3.2.4,MacIntel,60
1,right,0.830999851,2,1.106999874,0,2,0.934000015,0,1,0.788999796,1,0,200,33,1,199,2,2,0.7,1,stim/objects/HouseObjects/vacuumcleaner3.png,stim/31.jpeg,3,stim/3.png,1,4,8,2020-11-18_12h43.18.424,premup-three_ses-02_part-03_label-phase3,3.2.4,MacIntel,60
1,left,1.246999979,,,0,,,0,,,1,0,200,158,1,199,0,2,0,2,stim/objects/HouseObjects/lintroller.png,,0,stim/0.png,0,0,8,2020-11-18_12h43.18.424,premup-three_ses-02_part-03_label-phase3,3.2.4,MacIntel,60
1,right,1.739000082,,,0,,,0,,,1,0,200,197,1,199,0,2,0,2,stim/objects/HouseObjects/coffee2.png,,0,stim/0.png,0,0,8,2020-11-18_12h43.18.424,premup-three_ses-02_part-03_label-phase3,3.2.4,MacIntel,60
1,right,0.707999945,,,0,,,0,,,1,0,200,116,1,199,0,2,0,2,stim/objects/HouseObjects/bottle.png,,0,stim/0.png,0,0,8,2020-11-18_12h43.18.424,premup-three_ses-02_part-03_label-phase3,3.2.4,MacIntel,60
1,left,0.820999861,,,0,,,0,,,1,0,200,188,1,199,0,1,0,2,stim/objects/Instruments/electricdrumset2.png,,0,stim/0.png,0,0,8,2020-11-18_12h43.18.424,premup-three_ses-02_part-03_label-phase3,3.2.4,MacIntel,60
1,left,1.157000065,,,0,,,0,,,1,0,200,154,1,199,0,2,0,2,stim/objects/HouseObjects/iron.png,,0,stim/0.png,0,0,8,2020-11-18_12h43.18.424,premup-three_ses-02_part-03_label-phase3,3.2.4,MacIntel,60
1,left,1.32799983,4,0.838999987,0,2,6.069999933,0,1,0.753999949,1,0,200,78,1,199,3,2,0.9,1,stim/objects/HouseObjects/handvacuum4.png,stim/53.jpeg,5,stim/5.png,3,4,8,2020-11-18_12h43.18.424,premup-three_ses-02_part-03_label-phase3,3.2.4,MacIntel,60
1,right,1.213999987,2,0.69900012,0,2,0.59800005,0,2,0.59800005,1,0,200,98,1,199,3,2,0.1,1,stim/objects/HouseObjects/vacuumcleaner4.png,stim/63.jpeg,6,stim/6.png,3,3,8,2020-11-18_12h43.18.424,premup-three_ses-02_part-03_label-phase3,3.2.4,MacIntel,60
1,right,1.795999765,2,0.858999968,0,3,0.812000036,0,1,1.787999868,1,0,200,52,1,199,2,2,0.3,1,stim/objects/HouseObjects/broom4.png,stim/44.jpeg,4,stim/4.png,4,4,8,2020-11-18_12h43.18.424,premup-three_ses-02_part-03_label-phase3,3.2.4,MacIntel,60
