id_acc,key_resp_id.keys,key_resp_id.rt,key_resp_conf.keys,key_resp_conf.rt,assoc_acc,key_resp_assoc.keys,key_resp_assoc.rt,loc_acc,key_resp_loc.keys,key_resp_loc.rt,task_innerloop.thisRepN,task_innerloop.thisTrialN,task_innerloop.thisN,task_innerloop.thisIndex,task_innerloop.ran,task_innerloop.order,context_type,object_cat,PE_level,OvsN,obj_file,scn_file,corr_scn_cat,assoc_file,corr_scn_inst,corr_loc,participant,date,expName,psychopyVersion,OS,frameRate
1,right,1.473999977,,,0,,,0,,,1,0,200,195,1,199,0,2,0,2,stim/objects/Instruments/cymbal4.png,,0,stim/0.png,0,0,7,2020-11-18_11h52.23.478,premup-three_ses-02_part-03_label-phase3,3.2.4,Linux x86_64,60
1,left,0.931999922,3,3.008999825,0,3,3.227999926,0,1,4.532000065,1,0,200,47,1,199,2,1,0.7,1,stim/objects/HouseObjects/coffee2.png,stim/23.jpeg,2,stim/2.png,3,3,7,2020-11-18_11h52.23.478,premup-three_ses-02_part-03_label-phase3,3.2.4,Linux x86_64,60
1,right,1.632999897,,,0,,,0,,,1,0,200,106,1,199,0,1,0,2,stim/objects/HouseObjects/bottle3.png,,0,stim/0.png,0,0,7,2020-11-18_11h52.23.478,premup-three_ses-02_part-03_label-phase3,3.2.4,Linux x86_64,60
1,left,1.622999907,3,2.434000015,0,3,2.501999855,0,1,3.984999895,1,0,200,62,1,199,3,1,0.1,1,stim/objects/HouseObjects/flyswatter2.png,stim/33.jpeg,3,stim/3.png,3,1,7,2020-11-18_11h52.23.478,premup-three_ses-02_part-03_label-phase3,3.2.4,Linux x86_64,60
1,left,1.430999994,3,1.927000046,0,1,3.187000036,0,1,3.215999842,1,0,200,32,1,199,2,2,0.7,1,stim/objects/Instruments/violin.png,stim/14.jpeg,1,stim/1.png,4,1,7,2020-11-18_11h52.23.478,premup-three_ses-02_part-03_label-phase3,3.2.4,Linux x86_64,60
1,right,1.062999964,,,0,,,0,,,1,0,200,143,1,199,0,1,0,2,stim/objects/HouseObjects/handvacuum3.png,,0,stim/0.png,0,0,7,2020-11-18_11h52.23.478,premup-three_ses-02_part-03_label-phase3,3.2.4,Linux x86_64,60
1,right,1.127000093,,,0,,,0,,,1,0,200,190,1,199,0,2,0,2,stim/objects/Instruments/bassguitar4.png,,0,stim/0.png,0,0,7,2020-11-18_11h52.23.478,premup-three_ses-02_part-03_label-phase3,3.2.4,Linux x86_64,60
1,left,1.114000082,2,1.878000021,0,2,2.353000164,0,1,2.960000038,1,0,200,51,1,199,2,2,0.3,1,stim/objects/Instruments/cello2.png,stim/23.jpeg,2,stim/2.png,3,4,7,2020-11-18_11h52.23.478,premup-three_ses-02_part-03_label-phase3,3.2.4,Linux x86_64,60
1,left,1.159999847,3,2.225000143,0,3,3.796000004,0,2,6.766000032,1,0,200,31,1,199,2,2,0.7,1,stim/objects/Instruments/tuba.png,stim/13.jpeg,1,stim/1.png,3,4,7,2020-11-18_11h52.23.478,premup-three_ses-02_part-03_label-phase3,3.2.4,Linux x86_64,60
1,right,1.002000093,,,0,,,0,,,1,0,200,173,1,199,0,2,0,2,stim/objects/Instruments/vuvuzela3.png,,0,stim/0.png,0,0,7,2020-11-18_11h52.23.478,premup-three_ses-02_part-03_label-phase3,3.2.4,Linux x86_64,60
1,right,4.398999929,,,0,,,0,,,1,0,200,126,1,199,0,1,0,2,stim/objects/HouseObjects/dustpan3.png,,0,stim/0.png,0,0,7,2020-11-18_11h52.23.478,premup-three_ses-02_part-03_label-phase3,3.2.4,Linux x86_64,60
1,right,2.746000051,,,0,,,0,,,1,0,200,166,1,199,0,1,0,2,stim/objects/HouseObjects/ballofstring4.png,,0,stim/0.png,0,0,7,2020-11-18_11h52.23.478,premup-three_ses-02_part-03_label-phase3,3.2.4,Linux x86_64,60
1,right,2.149999857,4,2.969000101,0,1,1.986000061,0,4,3.232999802,1,0,200,60,1,199,3,1,0.1,1,stim/objects/HouseObjects/doormat2.png,stim/31.jpeg,3,stim/3.png,1,3,7,2020-11-18_11h52.23.478,premup-three_ses-02_part-03_label-phase3,3.2.4,Linux x86_64,60
1,right,4.51699996,3,1.667999983,0,3,3.019999981,0,3,2.000999928,1,0,200,80,1,199,3,1,0.9,1,stim/objects/HouseObjects/saw2.png,stim/41.jpeg,4,stim/4.png,1,4,7,2020-11-18_11h52.23.478,premup-three_ses-02_part-03_label-phase3,3.2.4,Linux x86_64,60
1,left,1.244999886,3,1.154999971,0,3,1.618000031,0,2,4.414999962,1,0,200,66,1,199,3,1,0.1,1,stim/objects/HouseObjects/hairdryer2.png,stim/33.jpeg,3,stim/3.png,3,2,7,2020-11-18_11h52.23.478,premup-three_ses-02_part-03_label-phase3,3.2.4,Linux x86_64,60
1,left,1.007999897,4,0.948999882,0,3,2.73300004,0,4,1.90199995,1,0,200,82,1,199,3,1,0.9,1,stim/objects/HouseObjects/sponge2.png,stim/43.jpeg,4,stim/4.png,3,4,7,2020-11-18_11h52.23.478,premup-three_ses-02_part-03_label-phase3,3.2.4,Linux x86_64,60
1,left,1.833000183,3,0.986000061,0,3,3.046000004,0,2,2.578000069,1,0,200,23,1,199,2,1,0.3,1,stim/objects/HouseObjects/vacuumcleaner.png,stim/14.jpeg,1,stim/1.png,4,2,7,2020-11-18_11h52.23.478,premup-three_ses-02_part-03_label-phase3,3.2.4,Linux x86_64,60
1,right,2.470999956,2,2.44900012,0,1,2.097000122,0,2,2.509000063,1,0,200,77,1,199,3,2,0.9,1,stim/objects/Instruments/harp2.png,stim/32.jpeg,3,stim/3.png,2,2,7,2020-11-18_11h52.23.478,premup-three_ses-02_part-03_label-phase3,3.2.4,Linux x86_64,60
1,right,1.078999996,,,0,,,0,,,1,0,200,104,1,199,0,1,0,2,stim/objects/HouseObjects/bleachbottle3.png,,0,stim/0.png,0,0,7,2020-11-18_11h52.23.478,premup-three_ses-02_part-03_label-phase3,3.2.4,Linux x86_64,60
1,right,2.640000105,2,2.445000172,0,3,1.588000059,0,3,2.156000137,1,0,200,20,1,199,2,1,0.3,1,stim/objects/HouseObjects/thermometer.png,stim/11.jpeg,1,stim/1.png,1,3,7,2020-11-18_11h52.23.478,premup-three_ses-02_part-03_label-phase3,3.2.4,Linux x86_64,60
1,left,1.943000078,3,1.756999969,0,2,1.075999975,0,3,1.357000113,1,0,200,72,1,199,3,2,0.9,1,stim/objects/Instruments/frenchhorn2.png,stim/31.jpeg,3,stim/3.png,1,4,7,2020-11-18_11h52.23.478,premup-three_ses-02_part-03_label-phase3,3.2.4,Linux x86_64,60
1,right,1.157999992,,,0,,,0,,,1,0,200,178,1,199,0,2,0,2,stim/objects/Instruments/banjo4.png,,0,stim/0.png,0,0,7,2020-11-18_11h52.23.478,premup-three_ses-02_part-03_label-phase3,3.2.4,Linux x86_64,60
1,right,1.355999947,,,0,,,0,,,1,0,200,170,1,199,0,2,0,2,stim/objects/Instruments/trumpet3.png,,0,stim/0.png,0,0,7,2020-11-18_11h52.23.478,premup-three_ses-02_part-03_label-phase3,3.2.4,Linux x86_64,60
1,right,0.690000057,2,1.421999931,0,4,1.411000013,0,4,1.420000076,1,0,200,65,1,199,3,1,0.1,1,stim/objects/HouseObjects/glassmop2.png,stim/32.jpeg,3,stim/3.png,2,4,7,2020-11-18_11h52.23.478,premup-three_ses-02_part-03_label-phase3,3.2.4,Linux x86_64,60
1,left,1.394000053,2,1.40500021,0,2,1.565999985,0,1,1.061000109,1,0,200,37,1,199,2,2,0.7,1,stim/objects/Instruments/balalaika2.png,stim/11.jpeg,1,stim/1.png,1,4,7,2020-11-18_11h52.23.478,premup-three_ses-02_part-03_label-phase3,3.2.4,Linux x86_64,60
1,right,6.246000051,,,0,,,0,,,1,0,200,114,1,199,0,2,0,2,stim/objects/Instruments/bassdrum3.png,,0,stim/0.png,0,0,7,2020-11-18_11h52.23.478,premup-three_ses-02_part-03_label-phase3,3.2.4,Linux x86_64,60
1,left,2.646000147,3,1.092000008,0,3,1.00999999,0,2,1.529000044,1,0,200,79,1,199,3,2,0.9,1,stim/objects/Instruments/saxophone2.png,stim/34.jpeg,3,stim/3.png,4,2,7,2020-11-18_11h52.23.478,premup-three_ses-02_part-03_label-phase3,3.2.4,Linux x86_64,60
1,left,1.745999813,,,0,,,0,,,1,0,200,121,1,199,0,1,0,2,stim/objects/HouseObjects/clothespin3.png,,0,stim/0.png,0,0,7,2020-11-18_11h52.23.478,premup-three_ses-02_part-03_label-phase3,3.2.4,Linux x86_64,60
1,right,0.953999996,4,2.378000021,0,3,1.601999998,0,3,1.451999903,1,0,200,14,1,199,1,2,0.5,1,stim/objects/HouseObjects/teapot.png,stim/61.jpeg,6,stim/6.png,1,2,7,2020-11-18_11h52.23.478,premup-three_ses-02_part-03_label-phase3,3.2.4,Linux x86_64,60
1,right,1.315999985,2,1.742000103,0,2,1.845999956,0,3,1.278000116,1,0,200,0,1,199,1,1,0.5,1,stim/objects/HouseObjects/glassmop.png,stim/53.jpeg,5,stim/5.png,3,4,7,2020-11-18_11h52.23.478,premup-three_ses-02_part-03_label-phase3,3.2.4,Linux x86_64,60
1,right,2.565999985,3,1.203000069,0,3,1.411999941,0,4,1.776000023,1,0,200,74,1,199,3,2,0.9,1,stim/objects/Instruments/grandpiano2.png,stim/33.jpeg,3,stim/3.png,3,2,7,2020-11-18_11h52.23.478,premup-three_ses-02_part-03_label-phase3,3.2.4,Linux x86_64,60
1,left,1.116999865,3,1.138999939,0,3,3.57400012,0,1,1.082000017,1,0,200,48,1,199,2,1,0.7,1,stim/objects/HouseObjects/cushion2.png,stim/24.jpeg,2,stim/2.png,4,1,7,2020-11-18_11h52.23.478,premup-three_ses-02_part-03_label-phase3,3.2.4,Linux x86_64,60
1,left,2.936000109,,,0,,,0,,,1,0,200,107,1,199,0,1,0,2,stim/objects/HouseObjects/broom3.png,,0,stim/0.png,0,0,7,2020-11-18_11h52.23.478,premup-three_ses-02_part-03_label-phase3,3.2.4,Linux x86_64,60
1,right,1.222000122,2,3.25,0,2,1.60800004,0,4,1.698999882,1,0,200,70,1,199,3,2,0.9,1,stim/objects/Instruments/flute2.png,stim/33.jpeg,3,stim/3.png,3,4,7,2020-11-18_11h52.23.478,premup-three_ses-02_part-03_label-phase3,3.2.4,Linux x86_64,60
1,right,0.99000001,,,0,,,0,,,1,0,200,140,1,199,0,1,0,2,stim/objects/HouseObjects/glassmop3.png,,0,stim/0.png,0,0,7,2020-11-18_11h52.23.478,premup-three_ses-02_part-03_label-phase3,3.2.4,Linux x86_64,60
1,right,3.163000107,,,0,,,0,,,1,0,200,135,1,199,0,2,0,2,stim/objects/Instruments/flute3.png,,0,stim/0.png,0,0,7,2020-11-18_11h52.23.478,premup-three_ses-02_part-03_label-phase3,3.2.4,Linux x86_64,60
1,right,1.054999828,3,1.906000137,0,3,1.200000048,0,4,1.93200016,1,0,200,96,1,199,3,2,0.1,1,stim/objects/Instruments/tuba2.png,stim/41.jpeg,4,stim/4.png,1,1,7,2020-11-18_11h52.23.478,premup-three_ses-02_part-03_label-phase3,3.2.4,Linux x86_64,60
1,left,3.224999905,,,0,,,0,,,1,0,200,172,1,199,0,2,0,2,stim/objects/Instruments/violin3.png,,0,stim/0.png,0,0,7,2020-11-18_11h52.23.478,premup-three_ses-02_part-03_label-phase3,3.2.4,Linux x86_64,60
1,right,1.338000059,,,0,,,0,,,1,0,200,184,1,199,0,1,0,2,stim/objects/HouseObjects/clock4.png,,0,stim/0.png,0,0,7,2020-11-18_11h52.23.478,premup-three_ses-02_part-03_label-phase3,3.2.4,Linux x86_64,60
1,right,0.866000175,3,1.345000029,0,1,1.157999992,0,3,1.447999954,1,0,200,83,1,199,3,1,0.9,1,stim/objects/HouseObjects/spraybottle2.png,stim/44.jpeg,4,stim/4.png,4,3,7,2020-11-18_11h52.23.478,premup-three_ses-02_part-03_label-phase3,3.2.4,Linux x86_64,60
1,right,1.400000095,,,0,,,0,,,1,0,200,182,1,199,0,1,0,2,stim/objects/HouseObjects/broom4.png,,0,stim/0.png,0,0,7,2020-11-18_11h52.23.478,premup-three_ses-02_part-03_label-phase3,3.2.4,Linux x86_64,60
1,right,1.044000149,,,0,,,0,,,1,0,200,141,1,199,0,1,0,2,stim/objects/HouseObjects/hairdryer3.png,,0,stim/0.png,0,0,7,2020-11-18_11h52.23.478,premup-three_ses-02_part-03_label-phase3,3.2.4,Linux x86_64,60
1,right,1.63499999,3,1.044999838,0,3,0.776000023,0,4,0.575000048,1,0,200,67,1,199,3,1,0.1,1,stim/objects/HouseObjects/handbrush2.png,stim/34.jpeg,3,stim/3.png,4,4,7,2020-11-18_11h52.23.478,premup-three_ses-02_part-03_label-phase3,3.2.4,Linux x86_64,60
1,right,1.093000174,,,0,,,0,,,1,0,200,124,1,199,0,1,0,2,stim/objects/HouseObjects/dishsoap3.png,,0,stim/0.png,0,0,7,2020-11-18_11h52.23.478,premup-three_ses-02_part-03_label-phase3,3.2.4,Linux x86_64,60
1,right,0.93200016,,,0,,,0,,,1,0,200,119,1,199,0,2,0,2,stim/objects/Instruments/cornet3.png,,0,stim/0.png,0,0,7,2020-11-18_11h52.23.478,premup-three_ses-02_part-03_label-phase3,3.2.4,Linux x86_64,60
1,left,4.334000111,3,1.810000181,0,3,3.54700017,0,1,2.005000114,1,0,200,6,1,199,1,1,0.5,1,stim/objects/Instruments/harmonica.png,stim/53.jpeg,5,stim/5.png,3,1,7,2020-11-18_11h52.23.478,premup-three_ses-02_part-03_label-phase3,3.2.4,Linux x86_64,60
1,right,1.38499999,3,3.927000046,0,3,2.141000032,0,3,1.345000029,1,0,200,98,1,199,3,2,0.1,1,stim/objects/Instruments/vuvuzela2.png,stim/43.jpeg,4,stim/4.png,3,2,7,2020-11-18_11h52.23.478,premup-three_ses-02_part-03_label-phase3,3.2.4,Linux x86_64,60
1,right,0.809000015,,,0,,,0,,,1,0,200,111,1,199,0,2,0,2,stim/objects/Instruments/acousticguitar3.png,,0,stim/0.png,0,0,7,2020-11-18_11h52.23.478,premup-three_ses-02_part-03_label-phase3,3.2.4,Linux x86_64,60
1,right,1.111000061,,,0,,,0,,,1,0,200,147,1,199,0,1,0,2,stim/objects/HouseObjects/sponge3.png,,0,stim/0.png,0,0,7,2020-11-18_11h52.23.478,premup-three_ses-02_part-03_label-phase3,3.2.4,Linux x86_64,60
1,right,1.428999901,4,1.928999901,0,1,2.678999901,0,3,2.770999908,1,0,200,92,1,199,3,2,0.1,1,stim/objects/Instruments/timbal2.png,stim/41.jpeg,4,stim/4.png,1,1,7,2020-11-18_11h52.23.478,premup-three_ses-02_part-03_label-phase3,3.2.4,Linux x86_64,60
1,left,2.148000002,3,1.686999798,0,4,2.582000017,0,2,1.28399992,1,0,200,87,1,199,3,1,0.9,1,stim/objects/HouseObjects/towel2.png,stim/44.jpeg,4,stim/4.png,4,1,7,2020-11-18_11h52.23.478,premup-three_ses-02_part-03_label-phase3,3.2.4,Linux x86_64,60
1,right,1.851000071,,,0,,,0,,,1,0,200,185,1,199,0,1,0,2,stim/objects/HouseObjects/clothesdryingrack4.png,,0,stim/0.png,0,0,7,2020-11-18_11h52.23.478,premup-three_ses-02_part-03_label-phase3,3.2.4,Linux x86_64,60
1,right,1.452000141,,,0,,,0,,,1,0,200,100,1,199,0,1,0,2,stim/objects/HouseObjects/ashtray3.png,,0,stim/0.png,0,0,7,2020-11-18_11h52.23.478,premup-three_ses-02_part-03_label-phase3,3.2.4,Linux x86_64,60
1,left,1.345000029,3,1.088000059,0,4,2.43900013,0,3,2.919000149,1,0,200,99,1,199,3,2,0.1,1,stim/objects/Instruments/xylophone2.png,stim/44.jpeg,4,stim/4.png,4,3,7,2020-11-18_11h52.23.478,premup-three_ses-02_part-03_label-phase3,3.2.4,Linux x86_64,60
1,right,2.298000097,2,1.595999956,0,4,1.138999939,0,3,2.660000086,1,0,200,56,1,199,2,2,0.3,1,stim/objects/Instruments/doublebass2.png,stim/24.jpeg,2,stim/2.png,4,1,7,2020-11-18_11h52.23.478,premup-three_ses-02_part-03_label-phase3,3.2.4,Linux x86_64,60
1,right,3.119000196,2,2.538999796,0,3,1.045000076,0,3,1.421999931,1,0,200,5,1,199,1,1,0.5,1,stim/objects/Instruments/guitarcase.png,stim/52.jpeg,5,stim/5.png,2,3,7,2020-11-18_11h52.23.478,premup-three_ses-02_part-03_label-phase3,3.2.4,Linux x86_64,60
1,right,1.152000189,3,2.503999949,0,1,1.00999999,0,2,1.523000002,1,0,200,90,1,199,3,2,0.1,1,stim/objects/Instruments/speaker2.png,stim/43.jpeg,4,stim/4.png,3,4,7,2020-11-18_11h52.23.478,premup-three_ses-02_part-03_label-phase3,3.2.4,Linux x86_64,60
1,right,0.85800004,3,1.569999933,0,2,1.135999918,0,3,0.947999954,1,0,200,29,1,199,2,1,0.3,1,stim/objects/HouseObjects/bleachbottle2.png,stim/12.jpeg,1,stim/1.png,2,2,7,2020-11-18_11h52.23.478,premup-three_ses-02_part-03_label-phase3,3.2.4,Linux x86_64,60
1,right,0.802000046,2,1.402999878,0,1,1.061000109,0,3,1.65899992,1,0,200,41,1,199,2,1,0.7,1,stim/objects/HouseObjects/bottle2.png,stim/21.jpeg,2,stim/2.png,1,2,7,2020-11-18_11h52.23.478,premup-three_ses-02_part-03_label-phase3,3.2.4,Linux x86_64,60
1,right,0.885999918,,,0,,,0,,,1,0,200,130,1,199,0,2,0,2,stim/objects/Instruments/cymbal3.png,,0,stim/0.png,0,0,7,2020-11-18_11h52.23.478,premup-three_ses-02_part-03_label-phase3,3.2.4,Linux x86_64,60
1,right,0.754000187,,,0,,,0,,,1,0,200,194,1,199,0,2,0,2,stim/objects/Instruments/cornet4.png,,0,stim/0.png,0,0,7,2020-11-18_11h52.23.478,premup-three_ses-02_part-03_label-phase3,3.2.4,Linux x86_64,60
1,right,0.980000019,,,0,,,0,,,1,0,200,137,1,199,0,2,0,2,stim/objects/Instruments/frenchhorn3.png,,0,stim/0.png,0,0,7,2020-11-18_11h52.23.478,premup-three_ses-02_part-03_label-phase3,3.2.4,Linux x86_64,60
1,right,0.752000093,,,0,,,0,,,1,0,200,167,1,199,0,1,0,2,stim/objects/HouseObjects/barbecuelighter4.png,,0,stim/0.png,0,0,7,2020-11-18_11h52.23.478,premup-three_ses-02_part-03_label-phase3,3.2.4,Linux x86_64,60
1,right,1.020999908,,,0,,,0,,,1,0,200,133,1,199,0,2,0,2,stim/objects/Instruments/electricdrumset3.png,,0,stim/0.png,0,0,7,2020-11-18_11h52.23.478,premup-three_ses-02_part-03_label-phase3,3.2.4,Linux x86_64,60
1,right,0.738999844,,,0,,,0,,,1,0,200,152,1,199,0,2,0,2,stim/objects/Instruments/harp3.png,,0,stim/0.png,0,0,7,2020-11-18_11h52.23.478,premup-three_ses-02_part-03_label-phase3,3.2.4,Linux x86_64,60
1,right,1.159000158,,,0,,,0,,,1,0,200,145,1,199,0,1,0,2,stim/objects/HouseObjects/saw3.png,,0,stim/0.png,0,0,7,2020-11-18_11h52.23.478,premup-three_ses-02_part-03_label-phase3,3.2.4,Linux x86_64,60
1,right,0.708999872,,,0,,,0,,,1,0,200,154,1,199,0,2,0,2,stim/objects/Instruments/saxophone3.png,,0,stim/0.png,0,0,7,2020-11-18_11h52.23.478,premup-three_ses-02_part-03_label-phase3,3.2.4,Linux x86_64,60
1,right,0.920000076,2,2.725000143,0,3,1.235000134,0,4,1.223999977,1,0,200,18,1,199,1,2,0.5,1,stim/objects/Instruments/triangle.png,stim/63.jpeg,6,stim/6.png,3,1,7,2020-11-18_11h52.23.478,premup-three_ses-02_part-03_label-phase3,3.2.4,Linux x86_64,60
1,right,0.796000004,1,3.369999886,0,4,1.320000172,0,4,2.242000103,1,0,200,36,1,199,2,2,0.7,1,stim/objects/Instruments/acousticguitar2.png,stim/14.jpeg,1,stim/1.png,4,1,7,2020-11-18_11h52.23.478,premup-three_ses-02_part-03_label-phase3,3.2.4,Linux x86_64,60
1,left,2.389000177,3,2.029000044,0,3,1.965000153,0,2,2.912000179,1,0,200,59,1,199,2,2,0.3,1,stim/objects/Instruments/electricguitar2.png,stim/23.jpeg,2,stim/2.png,3,4,7,2020-11-18_11h52.23.478,premup-three_ses-02_part-03_label-phase3,3.2.4,Linux x86_64,60
1,right,0.911999941,3,3.414000034,0,3,1.036000013,0,2,1.5849998,1,0,200,88,1,199,3,1,0.9,1,stim/objects/HouseObjects/vacuumcleaner2.png,stim/41.jpeg,4,stim/4.png,1,2,7,2020-11-18_11h52.23.478,premup-three_ses-02_part-03_label-phase3,3.2.4,Linux x86_64,60
1,right,1.173999786,,,0,,,0,,,1,0,200,115,1,199,0,2,0,2,stim/objects/Instruments/bassguitar3.png,,0,stim/0.png,0,0,7,2020-11-18_11h52.23.478,premup-three_ses-02_part-03_label-phase3,3.2.4,Linux x86_64,60
1,right,2.940000057,,,0,,,0,,,1,0,200,188,1,199,0,1,0,2,stim/objects/HouseObjects/cushion4.png,,0,stim/0.png,0,0,7,2020-11-18_11h52.23.478,premup-three_ses-02_part-03_label-phase3,3.2.4,Linux x86_64,60
1,right,0.769000053,2,1.964999914,0,3,1.447000027,0,2,0.998000145,1,0,200,85,1,199,3,1,0.9,1,stim/objects/HouseObjects/thermometer2.png,stim/42.jpeg,4,stim/4.png,2,3,7,2020-11-18_11h52.23.478,premup-three_ses-02_part-03_label-phase3,3.2.4,Linux x86_64,60
1,right,2.464999914,2,1.472000122,0,2,1.210000038,0,3,1.417999983,1,0,200,45,1,199,2,1,0.7,1,stim/objects/HouseObjects/clothesdryingrack2.png,stim/21.jpeg,2,stim/2.png,1,2,7,2020-11-18_11h52.23.478,premup-three_ses-02_part-03_label-phase3,3.2.4,Linux x86_64,60
1,right,0.669000149,3,0.961000204,0,3,3.898999929,0,2,1.557999849,1,0,200,97,1,199,3,2,0.1,1,stim/objects/Instruments/violin2.png,stim/42.jpeg,4,stim/4.png,2,4,7,2020-11-18_11h52.23.478,premup-three_ses-02_part-03_label-phase3,3.2.4,Linux x86_64,60
1,right,0.814999819,,,0,,,0,,,1,0,200,163,1,199,0,1,0,2,stim/objects/HouseObjects/vacuumcleaner3.png,,0,stim/0.png,0,0,7,2020-11-18_11h52.23.478,premup-three_ses-02_part-03_label-phase3,3.2.4,Linux x86_64,60
1,right,0.739000082,3,1.697000027,0,1,2.606000185,0,1,1.09800005,1,0,200,27,1,199,2,1,0.3,1,stim/objects/HouseObjects/barbecuelighter2.png,stim/14.jpeg,1,stim/1.png,4,4,7,2020-11-18_11h52.23.478,premup-three_ses-02_part-03_label-phase3,3.2.4,Linux x86_64,60
1,right,0.707999945,3,1.058000088,0,2,0.93900013,0,2,2.378000021,1,0,200,13,1,199,1,2,0.5,1,stim/objects/HouseObjects/spraybottle.png,stim/64.jpeg,6,stim/6.png,4,2,7,2020-11-18_11h52.23.478,premup-three_ses-02_part-03_label-phase3,3.2.4,Linux x86_64,60
1,right,0.602999926,,,0,,,0,,,1,0,200,118,1,199,0,2,0,2,stim/objects/Instruments/clarinet3.png,,0,stim/0.png,0,0,7,2020-11-18_11h52.23.478,premup-three_ses-02_part-03_label-phase3,3.2.4,Linux x86_64,60
1,right,1.390000105,2,1.413000107,0,3,1.152999878,0,3,1.140000105,1,0,200,78,1,199,3,2,0.9,1,stim/objects/Instruments/hihat2.png,stim/33.jpeg,3,stim/3.png,3,4,7,2020-11-18_11h52.23.478,premup-three_ses-02_part-03_label-phase3,3.2.4,Linux x86_64,60
1,right,1.204999924,3,0.886000156,0,1,3.055999994,0,2,0.815999985,1,0,200,63,1,199,3,1,0.1,1,stim/objects/HouseObjects/garbagebin2.png,stim/34.jpeg,3,stim/3.png,4,2,7,2020-11-18_11h52.23.478,premup-three_ses-02_part-03_label-phase3,3.2.4,Linux x86_64,60
1,right,0.797999859,3,0.937999964,0,3,1.654000044,0,4,1.303999901,1,0,200,55,1,199,2,2,0.3,1,stim/objects/Instruments/cymbal2.png,stim/23.jpeg,2,stim/2.png,3,1,7,2020-11-18_11h52.23.478,premup-three_ses-02_part-03_label-phase3,3.2.4,Linux x86_64,60
1,right,0.759000063,,,0,,,0,,,1,0,200,116,1,199,0,2,0,2,stim/objects/Instruments/cello3.png,,0,stim/0.png,0,0,7,2020-11-18_11h52.23.478,premup-three_ses-02_part-03_label-phase3,3.2.4,Linux x86_64,60
1,right,1.318000078,3,0.828999996,0,3,1.230000019,0,4,0.871000051,1,0,200,40,1,199,2,1,0.7,1,stim/objects/HouseObjects/blender2.png,stim/24.jpeg,2,stim/2.png,4,2,7,2020-11-18_11h52.23.478,premup-three_ses-02_part-03_label-phase3,3.2.4,Linux x86_64,60
1,right,0.926000118,,,0,,,0,,,1,0,200,176,1,199,0,2,0,2,stim/objects/Instruments/acousticguitar4.png,,0,stim/0.png,0,0,7,2020-11-18_11h52.23.478,premup-three_ses-02_part-03_label-phase3,3.2.4,Linux x86_64,60
1,right,0.726999998,2,1.663000107,0,2,1.218000174,0,3,1.474999905,1,0,200,64,1,199,3,1,0.1,1,stim/objects/HouseObjects/glass2.png,stim/31.jpeg,3,stim/3.png,1,2,7,2020-11-18_11h52.23.478,premup-three_ses-02_part-03_label-phase3,3.2.4,Linux x86_64,60
1,right,0.77699995,2,1.207000017,0,2,0.964999914,0,3,0.789999962,1,0,200,52,1,199,2,2,0.3,1,stim/objects/Instruments/chime2.png,stim/24.jpeg,2,stim/2.png,4,3,7,2020-11-18_11h52.23.478,premup-three_ses-02_part-03_label-phase3,3.2.4,Linux x86_64,60
1,right,1.311999798,2,1.088000059,0,4,0.940000057,0,3,1.386999846,1,0,200,11,1,199,1,2,0.5,1,stim/objects/HouseObjects/scale.png,stim/62.jpeg,6,stim/6.png,2,3,7,2020-11-18_11h52.23.478,premup-three_ses-02_part-03_label-phase3,3.2.4,Linux x86_64,60
1,right,0.609999895,2,1.01699996,0,1,1.119999886,0,3,1.56799984,1,0,200,16,1,199,1,2,0.5,1,stim/objects/Instruments/tambourine.png,stim/61.jpeg,6,stim/6.png,1,2,7,2020-11-18_11h52.23.478,premup-three_ses-02_part-03_label-phase3,3.2.4,Linux x86_64,60
1,right,0.661000013,1,0.894999981,0,4,0.934000015,0,3,1.438999891,1,0,200,86,1,199,3,1,0.9,1,stim/objects/HouseObjects/thread2.png,stim/43.jpeg,4,stim/4.png,3,2,7,2020-11-18_11h52.23.478,premup-three_ses-02_part-03_label-phase3,3.2.4,Linux x86_64,60
1,right,0.620999813,,,0,,,0,,,1,0,200,150,1,199,0,2,0,2,stim/objects/Instruments/guitarcase3.png,,0,stim/0.png,0,0,7,2020-11-18_11h52.23.478,premup-three_ses-02_part-03_label-phase3,3.2.4,Linux x86_64,60
1,right,0.669999838,2,2.042000055,0,3,0.955999851,0,3,0.924999952,1,0,200,35,1,199,2,2,0.7,1,stim/objects/Instruments/accordion2.png,stim/13.jpeg,1,stim/1.png,3,4,7,2020-11-18_11h52.23.478,premup-three_ses-02_part-03_label-phase3,3.2.4,Linux x86_64,60
1,right,0.743000031,,,0,,,0,,,1,0,200,186,1,199,0,1,0,2,stim/objects/HouseObjects/clothespin4.png,,0,stim/0.png,0,0,7,2020-11-18_11h52.23.478,premup-three_ses-02_part-03_label-phase3,3.2.4,Linux x86_64,60
1,right,0.697999954,,,0,,,0,,,1,0,200,193,1,199,0,2,0,2,stim/objects/Instruments/clarinet4.png,,0,stim/0.png,0,0,7,2020-11-18_11h52.23.478,premup-three_ses-02_part-03_label-phase3,3.2.4,Linux x86_64,60
1,right,0.582999945,,,0,,,0,,,1,0,200,146,1,199,0,1,0,2,stim/objects/HouseObjects/scale3.png,,0,stim/0.png,0,0,7,2020-11-18_11h52.23.478,premup-three_ses-02_part-03_label-phase3,3.2.4,Linux x86_64,60
1,right,0.578999996,3,1.055000067,0,3,2.167000055,0,1,4.272000074,1,0,200,84,1,199,3,1,0.9,1,stim/objects/HouseObjects/teapot2.png,stim/41.jpeg,4,stim/4.png,1,3,7,2020-11-18_11h52.23.478,premup-three_ses-02_part-03_label-phase3,3.2.4,Linux x86_64,60
1,right,1.927000046,1,4.411000013,0,2,1.503999949,0,2,1.338999987,1,0,200,10,1,199,1,2,0.5,1,stim/objects/HouseObjects/saw.png,stim/61.jpeg,6,stim/6.png,1,4,7,2020-11-18_11h52.23.478,premup-three_ses-02_part-03_label-phase3,3.2.4,Linux x86_64,60
1,right,0.893000126,,,0,,,0,,,1,0,200,180,1,199,0,1,0,2,stim/objects/HouseObjects/blender4.png,,0,stim/0.png,0,0,7,2020-11-18_11h52.23.478,premup-three_ses-02_part-03_label-phase3,3.2.4,Linux x86_64,60
1,left,4.518000126,,,0,,,0,,,1,0,200,151,1,199,0,2,0,2,stim/objects/Instruments/harmonica3.png,,0,stim/0.png,0,0,7,2020-11-18_11h52.23.478,premup-three_ses-02_part-03_label-phase3,3.2.4,Linux x86_64,60
1,right,1.145999908,2,1.005000114,0,3,0.917000055,0,3,2.148000002,1,0,200,95,1,199,3,2,0.1,1,stim/objects/Instruments/trumpet2.png,stim/44.jpeg,4,stim/4.png,4,1,7,2020-11-18_11h52.23.478,premup-three_ses-02_part-03_label-phase3,3.2.4,Linux x86_64,60
1,right,1.401000023,,,0,,,0,,,1,0,200,159,1,199,0,2,0,2,stim/objects/Instruments/trombone3.png,,0,stim/0.png,0,0,7,2020-11-18_11h52.23.478,premup-three_ses-02_part-03_label-phase3,3.2.4,Linux x86_64,60
1,right,0.684000015,3,1.698999882,0,2,0.78399992,0,3,0.846999884,1,0,200,49,1,199,2,1,0.7,1,stim/objects/HouseObjects/dishsoap2.png,stim/21.jpeg,2,stim/2.png,1,3,7,2020-11-18_11h52.23.478,premup-three_ses-02_part-03_label-phase3,3.2.4,Linux x86_64,60
1,right,0.728999853,,,0,,,0,,,1,0,200,181,1,199,0,1,0,2,stim/objects/HouseObjects/bottle4.png,,0,stim/0.png,0,0,7,2020-11-18_11h52.23.478,premup-three_ses-02_part-03_label-phase3,3.2.4,Linux x86_64,60
1,right,0.896999836,,,0,,,0,,,1,0,200,191,1,199,0,2,0,2,stim/objects/Instruments/cello4.png,,0,stim/0.png,0,0,7,2020-11-18_11h52.23.478,premup-three_ses-02_part-03_label-phase3,3.2.4,Linux x86_64,60
1,right,0.984999895,,,0,,,0,,,1,0,200,199,1,199,0,2,0,2,stim/objects/Instruments/electricguitar4.png,,0,stim/0.png,0,0,7,2020-11-18_11h52.23.478,premup-three_ses-02_part-03_label-phase3,3.2.4,Linux x86_64,60
1,right,1.75,,,0,,,0,,,1,0,200,138,1,199,0,2,0,2,stim/objects/Instruments/gong3.png,,0,stim/0.png,0,0,7,2020-11-18_11h52.23.478,premup-three_ses-02_part-03_label-phase3,3.2.4,Linux x86_64,60
1,right,0.739000082,,,0,,,0,,,1,0,200,120,1,199,0,1,0,2,stim/objects/HouseObjects/clothesdryingrack3.png,,0,stim/0.png,0,0,7,2020-11-18_11h52.23.478,premup-three_ses-02_part-03_label-phase3,3.2.4,Linux x86_64,60
1,right,0.654000044,2,2.766000032,0,3,0.986999989,0,3,0.95600009,1,0,200,28,1,199,2,1,0.3,1,stim/objects/HouseObjects/basket2.png,stim/11.jpeg,1,stim/1.png,1,1,7,2020-11-18_11h52.23.478,premup-three_ses-02_part-03_label-phase3,3.2.4,Linux x86_64,60
1,right,0.773000002,,,0,,,0,,,1,0,200,117,1,199,0,2,0,2,stim/objects/Instruments/chime3.png,,0,stim/0.png,0,0,7,2020-11-18_11h52.23.478,premup-three_ses-02_part-03_label-phase3,3.2.4,Linux x86_64,60
1,right,1.095000029,2,1.513999939,0,3,1.451999903,0,4,2.465999842,1,0,200,61,1,199,3,1,0.1,1,stim/objects/HouseObjects/dustpan2.png,stim/32.jpeg,3,stim/3.png,2,2,7,2020-11-18_11h52.23.478,premup-three_ses-02_part-03_label-phase3,3.2.4,Linux x86_64,60
1,right,0.825000048,2,2.436999798,0,4,1.085000038,0,4,0.957000017,1,0,200,38,1,199,2,2,0.7,1,stim/objects/Instruments/banjo2.png,stim/12.jpeg,1,stim/1.png,2,1,7,2020-11-18_11h52.23.478,premup-three_ses-02_part-03_label-phase3,3.2.4,Linux x86_64,60
1,right,4.082000017,,,0,,,0,,,1,0,200,160,1,199,0,1,0,2,stim/objects/HouseObjects/thermometer3.png,,0,stim/0.png,0,0,7,2020-11-18_11h52.23.478,premup-three_ses-02_part-03_label-phase3,3.2.4,Linux x86_64,60
1,right,0.700000048,2,1.393999815,0,2,0.907999992,0,3,0.948999882,1,0,200,43,1,199,2,1,0.7,1,stim/objects/HouseObjects/bucket2.png,stim/23.jpeg,2,stim/2.png,3,2,7,2020-11-18_11h52.23.478,premup-three_ses-02_part-03_label-phase3,3.2.4,Linux x86_64,60
1,right,2.927000046,3,1.134000063,0,4,1.457999945,0,2,1.292000055,1,0,200,25,1,199,2,1,0.3,1,stim/objects/HouseObjects/ashtray2.png,stim/12.jpeg,1,stim/1.png,2,2,7,2020-11-18_11h52.23.478,premup-three_ses-02_part-03_label-phase3,3.2.4,Linux x86_64,60
1,right,1.26699996,3,1.409000158,0,2,4.475999832,0,3,1.621000051,1,0,200,81,1,199,3,1,0.9,1,stim/objects/HouseObjects/scale2.png,stim/42.jpeg,4,stim/4.png,2,4,7,2020-11-18_11h52.23.478,premup-three_ses-02_part-03_label-phase3,3.2.4,Linux x86_64,60
1,left,2.115999937,2,1.419999838,0,2,1.242000103,0,3,2.171999931,1,0,200,9,1,199,1,1,0.5,1,stim/objects/Instruments/saxophone.png,stim/52.jpeg,5,stim/5.png,2,3,7,2020-11-18_11h52.23.478,premup-three_ses-02_part-03_label-phase3,3.2.4,Linux x86_64,60
1,right,0.595999956,3,1.103000164,0,2,0.823999882,0,3,0.825999975,1,0,200,17,1,199,1,2,0.5,1,stim/objects/Instruments/timbal.png,stim/62.jpeg,6,stim/6.png,2,4,7,2020-11-18_11h52.23.478,premup-three_ses-02_part-03_label-phase3,3.2.4,Linux x86_64,60
1,right,1.298000097,,,0,,,0,,,1,0,200,161,1,199,0,1,0,2,stim/objects/HouseObjects/thread3.png,,0,stim/0.png,0,0,7,2020-11-18_11h52.23.478,premup-three_ses-02_part-03_label-phase3,3.2.4,Linux x86_64,60
1,right,5.078000069,,,0,,,0,,,1,0,200,158,1,199,0,2,0,2,stim/objects/Instruments/triangle3.png,,0,stim/0.png,0,0,7,2020-11-18_11h52.23.478,premup-three_ses-02_part-03_label-phase3,3.2.4,Linux x86_64,60
1,right,0.79700017,,,0,,,0,,,1,0,200,131,1,199,0,2,0,2,stim/objects/Instruments/doublebass3.png,,0,stim/0.png,0,0,7,2020-11-18_11h52.23.478,premup-three_ses-02_part-03_label-phase3,3.2.4,Linux x86_64,60
1,left,3.697999954,3,1.322000027,0,1,0.872999907,0,3,1.007999897,1,0,200,44,1,199,2,1,0.7,1,stim/objects/HouseObjects/clock2.png,stim/24.jpeg,2,stim/2.png,4,1,7,2020-11-18_11h52.23.478,premup-three_ses-02_part-03_label-phase3,3.2.4,Linux x86_64,60
1,right,0.68200016,,,0,,,0,,,1,0,200,132,1,199,0,2,0,2,stim/objects/Instruments/drums3.png,,0,stim/0.png,0,0,7,2020-11-18_11h52.23.478,premup-three_ses-02_part-03_label-phase3,3.2.4,Linux x86_64,60
1,right,0.559999943,,,0,,,0,,,1,0,200,157,1,199,0,2,0,2,stim/objects/Instruments/timbal3.png,,0,stim/0.png,0,0,7,2020-11-18_11h52.23.478,premup-three_ses-02_part-03_label-phase3,3.2.4,Linux x86_64,60
1,left,2.137000084,1,0.853999853,0,3,1.440000057,0,2,0.000999928,1,0,200,50,1,199,2,2,0.3,1,stim/objects/Instruments/bassguitar2.png,stim/22.jpeg,2,stim/2.png,2,1,7,2020-11-18_11h52.23.478,premup-three_ses-02_part-03_label-phase3,3.2.4,Linux x86_64,60
1,right,0.871000051,,,0,,,0,,,1,0,200,183,1,199,0,1,0,2,stim/objects/HouseObjects/bucket4.png,,0,stim/0.png,0,0,7,2020-11-18_11h52.23.478,premup-three_ses-02_part-03_label-phase3,3.2.4,Linux x86_64,60
1,right,0.730999947,2,2.504999876,0,3,0.736999989,0,1,2.215999842,1,0,200,73,1,199,3,2,0.9,1,stim/objects/Instruments/gong2.png,stim/32.jpeg,3,stim/3.png,2,3,7,2020-11-18_11h52.23.478,premup-three_ses-02_part-03_label-phase3,3.2.4,Linux x86_64,60
1,right,0.815000057,2,1.226000071,0,2,1.082000017,0,1,1.177999973,1,0,200,26,1,199,2,1,0.3,1,stim/objects/HouseObjects/ballofstring2.png,stim/13.jpeg,1,stim/1.png,3,2,7,2020-11-18_11h52.23.478,premup-three_ses-02_part-03_label-phase3,3.2.4,Linux x86_64,60
1,right,0.953999996,,,0,,,0,,,1,0,200,189,1,199,0,1,0,2,stim/objects/HouseObjects/dishsoap4.png,,0,stim/0.png,0,0,7,2020-11-18_11h52.23.478,premup-three_ses-02_part-03_label-phase3,3.2.4,Linux x86_64,60
1,right,2.458000183,2,2.148000002,0,2,0.822000027,0,1,1.191999912,1,0,200,54,1,199,2,2,0.3,1,stim/objects/Instruments/cornet2.png,stim/22.jpeg,2,stim/2.png,2,1,7,2020-11-18_11h52.23.478,premup-three_ses-02_part-03_label-phase3,3.2.4,Linux x86_64,60
1,right,0.59800005,3,1.154000044,0,3,0.859999895,0,3,1.161000013,1,0,200,75,1,199,3,2,0.9,1,stim/objects/Instruments/guitarcase2.png,stim/34.jpeg,3,stim/3.png,4,1,7,2020-11-18_11h52.23.478,premup-three_ses-02_part-03_label-phase3,3.2.4,Linux x86_64,60
1,right,0.651000023,,,0,,,0,,,1,0,200,108,1,199,0,1,0,2,stim/objects/HouseObjects/bucket3.png,,0,stim/0.png,0,0,7,2020-11-18_11h52.23.478,premup-three_ses-02_part-03_label-phase3,3.2.4,Linux x86_64,60
1,right,1.09100008,2,1.322000027,0,3,0.943000078,0,1,0.892999887,1,0,200,1,1,199,1,1,0.5,1,stim/objects/HouseObjects/hairdryer.png,stim/54.jpeg,5,stim/5.png,4,2,7,2020-11-18_11h52.23.478,premup-three_ses-02_part-03_label-phase3,3.2.4,Linux x86_64,60
1,right,0.714999914,2,1.128999949,0,3,0.871999979,0,3,1.396000147,1,0,200,33,1,199,2,2,0.7,1,stim/objects/Instruments/vuvuzela.png,stim/11.jpeg,1,stim/1.png,1,4,7,2020-11-18_11h52.23.478,premup-three_ses-02_part-03_label-phase3,3.2.4,Linux x86_64,60
1,right,0.81099987,,,0,,,0,,,1,0,200,149,1,199,0,1,0,2,stim/objects/HouseObjects/teapot3.png,,0,stim/0.png,0,0,7,2020-11-18_11h52.23.478,premup-three_ses-02_part-03_label-phase3,3.2.4,Linux x86_64,60
1,right,1.094000101,1,1.424000025,0,4,1.310000181,0,3,0.996000051,1,0,200,91,1,199,3,2,0.1,1,stim/objects/Instruments/tambourine2.png,stim/44.jpeg,4,stim/4.png,4,1,7,2020-11-18_11h52.23.478,premup-three_ses-02_part-03_label-phase3,3.2.4,Linux x86_64,60
1,right,0.664999962,2,0.85800004,0,3,0.695000172,0,3,1.214999914,1,0,200,19,1,199,1,2,0.5,1,stim/objects/Instruments/trombone.png,stim/64.jpeg,6,stim/6.png,4,2,7,2020-11-18_11h52.23.478,premup-three_ses-02_part-03_label-phase3,3.2.4,Linux x86_64,60
1,left,1.319000006,,,0,,,0,,,1,0,200,196,1,199,0,2,0,2,stim/objects/Instruments/doublebass4.png,,0,stim/0.png,0,0,7,2020-11-18_11h52.23.478,premup-three_ses-02_part-03_label-phase3,3.2.4,Linux x86_64,60
1,right,1.481999874,,,0,,,0,,,1,0,200,110,1,199,0,2,0,2,stim/objects/Instruments/accordion3.png,,0,stim/0.png,0,0,7,2020-11-18_11h52.23.478,premup-three_ses-02_part-03_label-phase3,3.2.4,Linux x86_64,60
1,right,0.914000034,,,0,,,0,,,1,0,200,155,1,199,0,2,0,2,stim/objects/Instruments/speaker3.png,,0,stim/0.png,0,0,7,2020-11-18_11h52.23.478,premup-three_ses-02_part-03_label-phase3,3.2.4,Linux x86_64,60
1,right,0.789000034,2,1.201999903,0,3,0.911999941,0,1,3.858999968,1,0,200,30,1,199,2,2,0.7,1,stim/objects/Instruments/trumpet.png,stim/12.jpeg,1,stim/1.png,2,3,7,2020-11-18_11h52.23.478,premup-three_ses-02_part-03_label-phase3,3.2.4,Linux x86_64,60
1,right,0.730000019,,,0,,,0,,,1,0,200,168,1,199,0,1,0,2,stim/objects/HouseObjects/basket4.png,,0,stim/0.png,0,0,7,2020-11-18_11h52.23.478,premup-three_ses-02_part-03_label-phase3,3.2.4,Linux x86_64,60
1,right,0.643000126,,,0,,,0,,,1,0,200,197,1,199,0,2,0,2,stim/objects/Instruments/drums4.png,,0,stim/0.png,0,0,7,2020-11-18_11h52.23.478,premup-three_ses-02_part-03_label-phase3,3.2.4,Linux x86_64,60
1,right,0.677000046,,,0,,,0,,,1,0,200,164,1,199,0,1,0,2,stim/objects/HouseObjects/wateringcan3.png,,0,stim/0.png,0,0,7,2020-11-18_11h52.23.478,premup-three_ses-02_part-03_label-phase3,3.2.4,Linux x86_64,60
1,right,0.853999853,,,0,,,0,,,1,0,200,103,1,199,0,1,0,2,stim/objects/HouseObjects/basket3.png,,0,stim/0.png,0,0,7,2020-11-18_11h52.23.478,premup-three_ses-02_part-03_label-phase3,3.2.4,Linux x86_64,60
1,right,1.291000128,3,1.820000172,0,3,0.796000004,0,3,1.22300005,1,0,200,76,1,199,3,2,0.9,1,stim/objects/Instruments/harmonica2.png,stim/31.jpeg,3,stim/3.png,1,4,7,2020-11-18_11h52.23.478,premup-three_ses-02_part-03_label-phase3,3.2.4,Linux x86_64,60
1,left,1.565000057,4,1.526000023,0,4,1.66899991,0,2,2.932999849,1,0,200,93,1,199,3,2,0.1,1,stim/objects/Instruments/triangle2.png,stim/42.jpeg,4,stim/4.png,2,2,7,2020-11-18_11h52.23.478,premup-three_ses-02_part-03_label-phase3,3.2.4,Linux x86_64,60
1,right,0.769999981,2,0.887000084,0,3,0.649000168,0,3,0.692000151,1,0,200,94,1,199,3,2,0.1,1,stim/objects/Instruments/trombone2.png,stim/43.jpeg,4,stim/4.png,3,4,7,2020-11-18_11h52.23.478,premup-three_ses-02_part-03_label-phase3,3.2.4,Linux x86_64,60
1,right,0.832000017,2,1.524000168,0,3,0.676000118,0,2,1.316999912,1,0,200,68,1,199,3,1,0.1,1,stim/objects/HouseObjects/handvacuum2.png,stim/31.jpeg,3,stim/3.png,1,1,7,2020-11-18_11h52.23.478,premup-three_ses-02_part-03_label-phase3,3.2.4,Linux x86_64,60
1,right,0.980000019,3,0.93200016,0,2,1.493000031,0,3,0.904000044,1,0,200,3,1,199,1,1,0.5,1,stim/objects/HouseObjects/handvacuum.png,stim/52.jpeg,5,stim/5.png,2,1,7,2020-11-18_11h52.23.478,premup-three_ses-02_part-03_label-phase3,3.2.4,Linux x86_64,60
1,right,0.850999832,,,0,,,0,,,1,0,200,101,1,199,0,1,0,2,stim/objects/HouseObjects/ballofstring3.png,,0,stim/0.png,0,0,7,2020-11-18_11h52.23.478,premup-three_ses-02_part-03_label-phase3,3.2.4,Linux x86_64,60
1,right,2.324999809,2,1.173000097,0,2,2.280999899,0,4,1.645999908,1,0,200,53,1,199,2,2,0.3,1,stim/objects/Instruments/clarinet2.png,stim/21.jpeg,2,stim/2.png,1,4,7,2020-11-18_11h52.23.478,premup-three_ses-02_part-03_label-phase3,3.2.4,Linux x86_64,60
1,right,1.094000101,,,0,,,0,,,1,0,200,122,1,199,0,1,0,2,stim/objects/HouseObjects/coffee3.png,,0,stim/0.png,0,0,7,2020-11-18_11h52.23.478,premup-three_ses-02_part-03_label-phase3,3.2.4,Linux x86_64,60
1,right,0.913000107,2,1.970999956,0,1,0.894999981,0,3,0.878999949,1,0,200,58,1,199,2,2,0.3,1,stim/objects/Instruments/electricdrumset2.png,stim/22.jpeg,2,stim/2.png,2,2,7,2020-11-18_11h52.23.478,premup-three_ses-02_part-03_label-phase3,3.2.4,Linux x86_64,60
1,right,0.865999937,,,0,,,0,,,1,0,200,187,1,199,0,1,0,2,stim/objects/HouseObjects/coffee4.png,,0,stim/0.png,0,0,7,2020-11-18_11h52.23.478,premup-three_ses-02_part-03_label-phase3,3.2.4,Linux x86_64,60
1,right,1.183000088,,,0,,,0,,,1,0,200,109,1,199,0,1,0,2,stim/objects/HouseObjects/clock3.png,,0,stim/0.png,0,0,7,2020-11-18_11h52.23.478,premup-three_ses-02_part-03_label-phase3,3.2.4,Linux x86_64,60
1,right,0.704999924,,,0,,,0,,,1,0,200,134,1,199,0,2,0,2,stim/objects/Instruments/electricguitar3.png,,0,stim/0.png,0,0,7,2020-11-18_11h52.23.478,premup-three_ses-02_part-03_label-phase3,3.2.4,Linux x86_64,60
1,right,0.648000002,,,0,,,0,,,1,0,200,148,1,199,0,1,0,2,stim/objects/HouseObjects/spraybottle3.png,,0,stim/0.png,0,0,7,2020-11-18_11h52.23.478,premup-three_ses-02_part-03_label-phase3,3.2.4,Linux x86_64,60
1,right,1.03399992,2,1.247999907,0,3,1.276000023,0,4,0.763000011,1,0,200,8,1,199,1,1,0.5,1,stim/objects/Instruments/hihat.png,stim/51.jpeg,5,stim/5.png,1,4,7,2020-11-18_11h52.23.478,premup-three_ses-02_part-03_label-phase3,3.2.4,Linux x86_64,60
1,right,1.907999992,,,0,,,0,,,1,0,200,171,1,199,0,2,0,2,stim/objects/Instruments/tuba3.png,,0,stim/0.png,0,0,7,2020-11-18_11h52.23.478,premup-three_ses-02_part-03_label-phase3,3.2.4,Linux x86_64,60
1,right,0.864000082,,,0,,,0,,,1,0,200,192,1,199,0,2,0,2,stim/objects/Instruments/chime4.png,,0,stim/0.png,0,0,7,2020-11-18_11h52.23.478,premup-three_ses-02_part-03_label-phase3,3.2.4,Linux x86_64,60
1,right,0.633999825,3,0.883999825,0,3,1.092999935,0,3,2.307999849,1,0,200,69,1,199,3,1,0.1,1,stim/objects/HouseObjects/safetypin2.png,stim/32.jpeg,3,stim/3.png,2,3,7,2020-11-18_11h52.23.478,premup-three_ses-02_part-03_label-phase3,3.2.4,Linux x86_64,60
1,right,0.690999985,3,3.677999973,0,2,1.187999964,0,3,0.896000147,1,0,200,89,1,199,3,1,0.9,1,stim/objects/HouseObjects/wateringcan2.png,stim/42.jpeg,4,stim/4.png,2,1,7,2020-11-18_11h52.23.478,premup-three_ses-02_part-03_label-phase3,3.2.4,Linux x86_64,60
1,right,2.614000082,,,0,,,0,,,1,0,200,198,1,199,0,2,0,2,stim/objects/Instruments/electricdrumset4.png,,0,stim/0.png,0,0,7,2020-11-18_11h52.23.478,premup-three_ses-02_part-03_label-phase3,3.2.4,Linux x86_64,60
1,right,1.088000059,4,3.342999935,0,2,2.911000013,0,2,0.898999929,1,0,200,22,1,199,2,1,0.3,1,stim/objects/HouseObjects/towel.png,stim/13.jpeg,1,stim/1.png,3,2,7,2020-11-18_11h52.23.478,premup-three_ses-02_part-03_label-phase3,3.2.4,Linux x86_64,60
1,right,3.078000069,,,0,,,0,,,1,0,200,105,1,199,0,1,0,2,stim/objects/HouseObjects/blender3.png,,0,stim/0.png,0,0,7,2020-11-18_11h52.23.478,premup-three_ses-02_part-03_label-phase3,3.2.4,Linux x86_64,60
1,right,0.652999878,3,0.957000017,0,4,2.222000122,0,1,1.424999952,1,0,200,2,1,199,1,1,0.5,1,stim/objects/HouseObjects/handbrush.png,stim/51.jpeg,5,stim/5.png,1,3,7,2020-11-18_11h52.23.478,premup-three_ses-02_part-03_label-phase3,3.2.4,Linux x86_64,60
1,left,1.54700017,,,0,,,0,,,1,0,200,177,1,199,0,2,0,2,stim/objects/Instruments/balalaika4.png,,0,stim/0.png,0,0,7,2020-11-18_11h52.23.478,premup-three_ses-02_part-03_label-phase3,3.2.4,Linux x86_64,60
1,right,0.837000132,,,0,,,0,,,1,0,200,128,1,199,0,1,0,2,stim/objects/HouseObjects/garbagebin3.png,,0,stim/0.png,0,0,7,2020-11-18_11h52.23.478,premup-three_ses-02_part-03_label-phase3,3.2.4,Linux x86_64,60
1,right,1.36500001,,,0,,,0,,,1,0,200,165,1,199,0,1,0,2,stim/objects/HouseObjects/ashtray4.png,,0,stim/0.png,0,0,7,2020-11-18_11h52.23.478,premup-three_ses-02_part-03_label-phase3,3.2.4,Linux x86_64,60
1,right,0.552000046,,,0,,,0,,,1,0,200,123,1,199,0,1,0,2,stim/objects/HouseObjects/cushion3.png,,0,stim/0.png,0,0,7,2020-11-18_11h52.23.478,premup-three_ses-02_part-03_label-phase3,3.2.4,Linux x86_64,60
1,right,0.758000135,,,0,,,0,,,1,0,200,162,1,199,0,1,0,2,stim/objects/HouseObjects/towel3.png,,0,stim/0.png,0,0,7,2020-11-18_11h52.23.478,premup-three_ses-02_part-03_label-phase3,3.2.4,Linux x86_64,60
1,right,0.81400013,,,0,,,0,,,1,0,200,113,1,199,0,2,0,2,stim/objects/Instruments/banjo3.png,,0,stim/0.png,0,0,7,2020-11-18_11h52.23.478,premup-three_ses-02_part-03_label-phase3,3.2.4,Linux x86_64,60
1,right,1.261000156,,,0,,,0,,,1,0,200,179,1,199,0,2,0,2,stim/objects/Instruments/bassdrum4.png,,0,stim/0.png,0,0,7,2020-11-18_11h52.23.478,premup-three_ses-02_part-03_label-phase3,3.2.4,Linux x86_64,60
1,right,0.485000134,,,0,,,0,,,1,0,200,127,1,199,0,1,0,2,stim/objects/HouseObjects/flyswatter3.png,,0,stim/0.png,0,0,7,2020-11-18_11h52.23.478,premup-three_ses-02_part-03_label-phase3,3.2.4,Linux x86_64,60
1,left,1.868000031,3,3.433999777,0,3,0.976999998,0,1,1.752000093,1,0,200,46,1,199,2,1,0.7,1,stim/objects/HouseObjects/clothespin2.png,stim/22.jpeg,2,stim/2.png,2,4,7,2020-11-18_11h52.23.478,premup-three_ses-02_part-03_label-phase3,3.2.4,Linux x86_64,60
1,left,1.042000055,,,0,,,0,,,1,0,200,112,1,199,0,2,0,2,stim/objects/Instruments/balalaika3.png,,0,stim/0.png,0,0,7,2020-11-18_11h52.23.478,premup-three_ses-02_part-03_label-phase3,3.2.4,Linux x86_64,60
1,right,0.824999809,,,0,,,0,,,1,0,200,174,1,199,0,2,0,2,stim/objects/Instruments/xylophone3.png,,0,stim/0.png,0,0,7,2020-11-18_11h52.23.478,premup-three_ses-02_part-03_label-phase3,3.2.4,Linux x86_64,60
1,right,0.826999903,2,1.630000114,0,3,0.892000198,0,3,1.511000156,1,0,200,7,1,199,1,1,0.5,1,stim/objects/Instruments/harp.png,stim/54.jpeg,5,stim/5.png,4,4,7,2020-11-18_11h52.23.478,premup-three_ses-02_part-03_label-phase3,3.2.4,Linux x86_64,60
1,right,1.150000095,,,0,,,0,,,1,0,200,102,1,199,0,1,0,2,stim/objects/HouseObjects/barbecuelighter3.png,,0,stim/0.png,0,0,7,2020-11-18_11h52.23.478,premup-three_ses-02_part-03_label-phase3,3.2.4,Linux x86_64,60
1,right,0.612999916,3,1.308000088,0,2,0.975000143,0,2,1.178999901,1,0,200,21,1,199,2,1,0.3,1,stim/objects/HouseObjects/thread.png,stim/12.jpeg,1,stim/1.png,2,3,7,2020-11-18_11h52.23.478,premup-three_ses-02_part-03_label-phase3,3.2.4,Linux x86_64,60
1,right,0.779999971,3,1.059000015,0,4,1.109999895,0,3,2.032999992,1,0,200,39,1,199,2,2,0.7,1,stim/objects/Instruments/bassdrum2.png,stim/13.jpeg,1,stim/1.png,3,3,7,2020-11-18_11h52.23.478,premup-three_ses-02_part-03_label-phase3,3.2.4,Linux x86_64,60
1,right,0.69900012,,,0,,,0,,,1,0,200,156,1,199,0,2,0,2,stim/objects/Instruments/tambourine3.png,,0,stim/0.png,0,0,7,2020-11-18_11h52.23.478,premup-three_ses-02_part-03_label-phase3,3.2.4,Linux x86_64,60
1,right,0.805999994,3,1.227999926,0,2,1.732000113,0,4,1.809999943,1,0,200,34,1,199,2,2,0.7,1,stim/objects/Instruments/xylophone.png,stim/12.jpeg,1,stim/1.png,2,3,7,2020-11-18_11h52.23.478,premup-three_ses-02_part-03_label-phase3,3.2.4,Linux x86_64,60
1,right,0.631999969,,,0,,,0,,,1,0,200,129,1,199,0,1,0,2,stim/objects/HouseObjects/glass3.png,,0,stim/0.png,0,0,7,2020-11-18_11h52.23.478,premup-three_ses-02_part-03_label-phase3,3.2.4,Linux x86_64,60
1,right,0.786000013,4,3.805000067,0,3,1.826999903,0,1,1.407999992,1,0,200,15,1,199,1,2,0.5,1,stim/objects/Instruments/speaker.png,stim/64.jpeg,6,stim/6.png,4,1,7,2020-11-18_11h52.23.478,premup-three_ses-02_part-03_label-phase3,3.2.4,Linux x86_64,60
1,right,4.032999992,3,4.217000008,0,2,0.944000006,0,2,0.823000193,1,0,200,42,1,199,2,1,0.7,1,stim/objects/HouseObjects/broom2.png,stim/22.jpeg,2,stim/2.png,2,4,7,2020-11-18_11h52.23.478,premup-three_ses-02_part-03_label-phase3,3.2.4,Linux x86_64,60
1,right,0.871000051,,,0,,,0,,,1,0,200,175,1,199,0,2,0,2,stim/objects/Instruments/accordion4.png,,0,stim/0.png,0,0,7,2020-11-18_11h52.23.478,premup-three_ses-02_part-03_label-phase3,3.2.4,Linux x86_64,60
1,right,1.032999992,,,0,,,0,,,1,0,200,136,1,199,0,2,0,2,stim/objects/Instruments/flutetrans3.png,,0,stim/0.png,0,0,7,2020-11-18_11h52.23.478,premup-three_ses-02_part-03_label-phase3,3.2.4,Linux x86_64,60
1,right,1.640000105,2,1.379999876,0,2,0.812999964,0,3,0.934999943,1,0,200,4,1,199,1,1,0.5,1,stim/objects/HouseObjects/safetypin.png,stim/53.jpeg,5,stim/5.png,3,4,7,2020-11-18_11h52.23.478,premup-three_ses-02_part-03_label-phase3,3.2.4,Linux x86_64,60
1,right,1.00999999,2,1.693000078,0,3,0.826999903,0,2,2.469000101,1,0,200,12,1,199,1,2,0.5,1,stim/objects/HouseObjects/sponge.png,stim/63.jpeg,6,stim/6.png,3,3,7,2020-11-18_11h52.23.478,premup-three_ses-02_part-03_label-phase3,3.2.4,Linux x86_64,60
1,right,0.681999922,3,0.72300005,0,3,1.016000032,0,3,1.131999969,1,0,200,24,1,199,2,1,0.3,1,stim/objects/HouseObjects/wateringcan.png,stim/11.jpeg,1,stim/1.png,1,4,7,2020-11-18_11h52.23.478,premup-three_ses-02_part-03_label-phase3,3.2.4,Linux x86_64,60
1,right,1.482000113,,,0,,,0,,,1,0,200,153,1,199,0,2,0,2,stim/objects/Instruments/hihat3.png,,0,stim/0.png,0,0,7,2020-11-18_11h52.23.478,premup-three_ses-02_part-03_label-phase3,3.2.4,Linux x86_64,60
1,right,0.653000116,2,1.374000072,0,3,0.651000023,0,2,0.79399991,1,0,200,57,1,199,2,2,0.3,1,stim/objects/Instruments/drums2.png,stim/21.jpeg,2,stim/2.png,1,2,7,2020-11-18_11h52.23.478,premup-three_ses-02_part-03_label-phase3,3.2.4,Linux x86_64,60
1,right,0.775000095,,,0,,,0,,,1,0,200,144,1,199,0,1,0,2,stim/objects/HouseObjects/safetypin3.png,,0,stim/0.png,0,0,7,2020-11-18_11h52.23.478,premup-three_ses-02_part-03_label-phase3,3.2.4,Linux x86_64,60
1,right,1.184000015,2,2.099999905,0,2,0.106999874,0,2,1.391000032,1,0,200,71,1,199,3,2,0.9,1,stim/objects/Instruments/flutetrans2.png,stim/34.jpeg,3,stim/3.png,4,3,7,2020-11-18_11h52.23.478,premup-three_ses-02_part-03_label-phase3,3.2.4,Linux x86_64,60
1,right,0.647000074,,,0,,,0,,,1,0,200,142,1,199,0,1,0,2,stim/objects/HouseObjects/handbrush3.png,,0,stim/0.png,0,0,7,2020-11-18_11h52.23.478,premup-three_ses-02_part-03_label-phase3,3.2.4,Linux x86_64,60
1,right,0.733999968,,,0,,,0,,,1,0,200,139,1,199,0,2,0,2,stim/objects/Instruments/grandpiano3.png,,0,stim/0.png,0,0,7,2020-11-18_11h52.23.478,premup-three_ses-02_part-03_label-phase3,3.2.4,Linux x86_64,60
1,right,0.607999802,,,0,,,0,,,1,0,200,169,1,199,0,1,0,2,stim/objects/HouseObjects/bleachbottle4.png,,0,stim/0.png,0,0,7,2020-11-18_11h52.23.478,premup-three_ses-02_part-03_label-phase3,3.2.4,Linux x86_64,60
1,right,1.037999868,,,0,,,0,,,1,0,200,125,1,199,0,1,0,2,stim/objects/HouseObjects/doormat3.png,,0,stim/0.png,0,0,7,2020-11-18_11h52.23.478,premup-three_ses-02_part-03_label-phase3,3.2.4,Linux x86_64,60
