key_resp_pract.keys,key_resp_pract.rt,trial_acc,trial_index,practice_loop.thisRepN,practice_loop.thisTrialN,practice_loop.thisN,practice_loop.thisIndex,practice_loop.ran,practice_loop.order,scn_condition,scn_cat,scn_inst,scn_file,obj_cat,obj_cat_num,obj_file,trial_cond,quadrant,obj_x,obj_y,corr_ans,participant,date,expName,psychopyVersion,OS,frameRate,key_resp_trial.keys,key_resp_trial.rt,iterations.thisRepN,iterations.thisTrialN,iterations.thisN,iterations.thisIndex,iterations.ran,iterations.order,task_innerloop.thisRepN,task_innerloop.thisTrialN,task_innerloop.thisN,task_innerloop.thisIndex,task_innerloop.ran,task_innerloop.order,iteration_index,rating_acc,slider.response,slider.rt,slider_2.response,slider_2.rt,ratings.thisRepN,ratings.thisTrialN,ratings.thisN,ratings.thisIndex,ratings.ran,ratings.order,obj_cat_top,min_resp_top,max_resp_top,obj_cat_bottom,min_resp_bottom,max_resp_bottom
left,1.282000065,0,1,1,0,240,199,1,239,3,5,4,stim/54.jpeg,Instruments,2,stim/objects/Instruments/chime2.png,0.9,3,-0.2,-0.15,right,5,2020-12-08_10h04.34.556,premup-three_ses-01_part-01_label-phase1,3.2.4,Win32,60,,,,,,,,,,,,,,,,,,,,,,,,,,,,,,,,
left,1.028000116,0,2,1,0,240,24,1,239,1,1,1,stim/11.jpeg,Instruments,2,stim/objects/Instruments/accordion.png,0.5,4,0.2,-0.15,right,5,2020-12-08_10h04.34.556,premup-three_ses-01_part-01_label-phase1,3.2.4,Win32,60,,,,,,,,,,,,,,,,,,,,,,,,,,,,,,,,
right,0.785000086,1,3,1,0,240,192,1,239,3,5,1,stim/51.jpeg,Instruments,2,stim/objects/Instruments/bassdrum2.png,0.9,3,-0.2,-0.15,right,5,2020-12-08_10h04.34.556,premup-three_ses-01_part-01_label-phase1,3.2.4,Win32,60,,,,,,,,,,,,,,,,,,,,,,,,,,,,,,,,
right,0.71600008,0,4,1,0,240,1,1,239,1,1,2,stim/12.jpeg,HouseObjects,1,stim/objects/HouseObjects/ballofstring.png,0.5,2,0.2,0.15,left,5,2020-12-08_10h04.34.556,premup-three_ses-01_part-01_label-phase1,3.2.4,Win32,60,,,,,,,,,,,,,,,,,,,,,,,,,,,,,,,,
right,0.667999983,1,5,1,0,240,39,1,239,1,1,4,stim/14.jpeg,Instruments,2,stim/objects/Instruments/banjo.png,0.5,3,-0.2,-0.15,right,5,2020-12-08_10h04.34.556,premup-three_ses-01_part-01_label-phase1,3.2.4,Win32,60,,,,,,,,,,,,,,,,,,,,,,,,,,,,,,,,
right,0.621999979,1,6,1,0,240,179,1,239,3,5,4,stim/54.jpeg,Instruments,2,stim/objects/Instruments/chime2.png,0.9,4,0.2,-0.15,right,5,2020-12-08_10h04.34.556,premup-three_ses-01_part-01_label-phase1,3.2.4,Win32,60,,,,,,,,,,,,,,,,,,,,,,,,,,,,,,,,
right,0.687000036,1,7,1,0,240,154,1,239,2,4,3,stim/43.jpeg,Instruments,2,stim/objects/Instruments/balalaika2.png,0.3,1,-0.2,0.15,right,5,2020-12-08_10h04.34.556,premup-three_ses-01_part-01_label-phase1,3.2.4,Win32,60,,,,,,,,,,,,,,,,,,,,,,,,,,,,,,,,
right,0.666999817,1,8,1,0,240,63,1,239,1,2,4,stim/24.jpeg,Instruments,2,stim/objects/Instruments/chime.png,0.5,4,0.2,-0.15,right,5,2020-12-08_10h04.34.556,premup-three_ses-01_part-01_label-phase1,3.2.4,Win32,60,,,,,,,,,,,,,,,,,,,,,,,,,,,,,,,,
right,0.499000072,0,9,1,0,240,2,1,239,1,1,3,stim/13.jpeg,HouseObjects,1,stim/objects/HouseObjects/barbecuelighter.png,0.5,3,-0.2,-0.15,left,5,2020-12-08_10h04.34.556,premup-three_ses-01_part-01_label-phase1,3.2.4,Win32,60,,,,,,,,,,,,,,,,,,,,,,,,,,,,,,,,
left,0.785000086,1,10,1,0,240,10,1,239,1,1,3,stim/13.jpeg,HouseObjects,1,stim/objects/HouseObjects/barbecuelighter.png,0.5,4,0.2,-0.15,left,5,2020-12-08_10h04.34.556,premup-three_ses-01_part-01_label-phase1,3.2.4,Win32,60,,,,,,,,,,,,,,,,,,,,,,,,,,,,,,,,
,,1,1,,,,,,,3,5,3,stim/53.jpeg,Instruments,2,stim/objects/Instruments/cello2.png,0.9,2,0.2,0.15,right,5,2020-12-08_10h04.34.556,premup-three_ses-01_part-01_label-phase1,3.2.4,Win32,60,right,1.013999939,4,0,4,0,1,3,1,0,240,186,1,239,,,,,,,,,,,,,,,,,,
,,1,2,,,,,,,2,4,2,stim/42.jpeg,Instruments,2,stim/objects/Instruments/acousticguitar2.png,0.3,4,0.2,-0.15,right,5,2020-12-08_10h04.34.556,premup-three_ses-01_part-01_label-phase1,3.2.4,Win32,60,right,0.68200016,4,0,4,0,1,3,1,0,240,149,1,239,,,,,,,,,,,,,,,,,,
,,1,3,,,,,,,3,6,4,stim/64.jpeg,HouseObjects,1,stim/objects/HouseObjects/clothespin2.png,0.9,1,-0.2,0.15,left,5,2020-12-08_10h04.34.556,premup-three_ses-01_part-01_label-phase1,3.2.4,Win32,60,left,0.592999935,4,0,4,0,1,3,1,0,240,235,1,239,,,,,,,,,,,,,,,,,,
,,0,4,,,,,,,2,4,2,stim/42.jpeg,HouseObjects,1,stim/objects/HouseObjects/ballofstring2.png,0.7,2,0.2,0.15,left,5,2020-12-08_10h04.34.556,premup-three_ses-01_part-01_label-phase1,3.2.4,Win32,60,right,0.703000069,4,0,4,0,1,3,1,0,240,133,1,239,,,,,,,,,,,,,,,,,,
,,0,5,,,,,,,1,2,3,stim/23.jpeg,HouseObjects,1,stim/objects/HouseObjects/bottle.png,0.5,1,-0.2,0.15,left,5,2020-12-08_10h04.34.556,premup-three_ses-01_part-01_label-phase1,3.2.4,Win32,60,right,1.11500001,4,0,4,0,1,3,1,0,240,46,1,239,,,,,,,,,,,,,,,,,,
,,0,6,,,,,,,2,4,4,stim/44.jpeg,HouseObjects,1,stim/objects/HouseObjects/basket2.png,0.7,2,0.2,0.15,left,5,2020-12-08_10h04.34.556,premup-three_ses-01_part-01_label-phase1,3.2.4,Win32,60,right,1.267999887,4,0,4,0,1,3,1,0,240,139,1,239,,,,,,,,,,,,,,,,,,
,,1,7,,,,,,,3,6,1,stim/61.jpeg,HouseObjects,1,stim/objects/HouseObjects/bucket2.png,0.9,2,0.2,0.15,left,5,2020-12-08_10h04.34.556,premup-three_ses-01_part-01_label-phase1,3.2.4,Win32,60,left,0.842999935,4,0,4,0,1,3,1,0,240,224,1,239,,,,,,,,,,,,,,,,,,
,,1,8,,,,,,,3,6,4,stim/64.jpeg,HouseObjects,1,stim/objects/HouseObjects/clothespin2.png,0.9,3,-0.2,-0.15,left,5,2020-12-08_10h04.34.556,premup-three_ses-01_part-01_label-phase1,3.2.4,Win32,60,left,0.677999973,4,0,4,0,1,3,1,0,240,219,1,239,,,,,,,,,,,,,,,,,,
,,1,9,,,,,,,1,2,3,stim/23.jpeg,HouseObjects,1,stim/objects/HouseObjects/bottle.png,0.5,2,0.2,0.15,left,5,2020-12-08_10h04.34.556,premup-three_ses-01_part-01_label-phase1,3.2.4,Win32,60,left,0.648999929,4,0,4,0,1,3,1,0,240,54,1,239,,,,,,,,,,,,,,,,,,
,,1,10,,,,,,,3,6,4,stim/64.jpeg,HouseObjects,1,stim/objects/HouseObjects/clothespin2.png,0.9,3,-0.2,-0.15,left,5,2020-12-08_10h04.34.556,premup-three_ses-01_part-01_label-phase1,3.2.4,Win32,60,left,0.572000027,4,0,4,0,1,3,1,0,240,231,1,239,,,,,,,,,,,,,,,,,,
,,1,11,,,,,,,3,5,4,stim/54.jpeg,Instruments,2,stim/objects/Instruments/chime2.png,0.9,2,0.2,0.15,right,5,2020-12-08_10h04.34.556,premup-three_ses-01_part-01_label-phase1,3.2.4,Win32,60,right,0.825000048,4,0,4,0,1,3,1,0,240,191,1,239,,,,,,,,,,,,,,,,,,
,,1,12,,,,,,,1,1,4,stim/14.jpeg,HouseObjects,1,stim/objects/HouseObjects/basket.png,0.5,3,-0.2,-0.15,left,5,2020-12-08_10h04.34.556,premup-three_ses-01_part-01_label-phase1,3.2.4,Win32,60,left,0.54399991,4,0,4,0,1,3,1,0,240,15,1,239,,,,,,,,,,,,,,,,,,
,,0,13,,,,,,,2,3,1,stim/31.jpeg,Instruments,2,stim/objects/Instruments/clarinet.png,0.7,1,-0.2,0.15,right,5,2020-12-08_10h04.34.556,premup-three_ses-01_part-01_label-phase1,3.2.4,Win32,60,left,1.274999857,4,0,4,0,1,3,1,0,240,92,1,239,,,,,,,,,,,,,,,,,,
,,0,14,,,,,,,3,5,4,stim/54.jpeg,HouseObjects,1,stim/objects/HouseObjects/broom2.png,0.1,4,0.2,-0.15,left,5,2020-12-08_10h04.34.556,premup-three_ses-01_part-01_label-phase1,3.2.4,Win32,60,,,4,0,4,0,1,3,1,0,240,163,1,239,,,,,,,,,,,,,,,,,,
,,1,15,,,,,,,1,1,3,stim/13.jpeg,HouseObjects,1,stim/objects/HouseObjects/barbecuelighter.png,0.5,3,-0.2,-0.15,left,5,2020-12-08_10h04.34.556,premup-three_ses-01_part-01_label-phase1,3.2.4,Win32,60,left,0.902000189,4,0,4,0,1,3,1,0,240,2,1,239,,,,,,,,,,,,,,,,,,
,,1,16,,,,,,,1,2,1,stim/21.jpeg,Instruments,2,stim/objects/Instruments/bassdrum.png,0.5,2,0.2,0.15,right,5,2020-12-08_10h04.34.556,premup-three_ses-01_part-01_label-phase1,3.2.4,Win32,60,right,0.833999872,4,0,4,0,1,3,1,0,240,60,1,239,,,,,,,,,,,,,,,,,,
,,1,17,,,,,,,3,6,2,stim/62.jpeg,HouseObjects,1,stim/objects/HouseObjects/clock2.png,0.9,2,0.2,0.15,left,5,2020-12-08_10h04.34.556,premup-three_ses-01_part-01_label-phase1,3.2.4,Win32,60,left,0.83100009,4,0,4,0,1,3,1,0,240,221,1,239,,,,,,,,,,,,,,,,,,
,,1,18,,,,,,,2,3,2,stim/32.jpeg,Instruments,2,stim/objects/Instruments/cornet.png,0.7,2,0.2,0.15,right,5,2020-12-08_10h04.34.556,premup-three_ses-01_part-01_label-phase1,3.2.4,Win32,60,right,0.656000137,4,0,4,0,1,3,1,0,240,97,1,239,,,,,,,,,,,,,,,,,,
,,1,19,,,,,,,3,5,4,stim/54.jpeg,Instruments,2,stim/objects/Instruments/chime2.png,0.9,4,0.2,-0.15,right,5,2020-12-08_10h04.34.556,premup-three_ses-01_part-01_label-phase1,3.2.4,Win32,60,right,0.667999983,4,0,4,0,1,3,1,0,240,179,1,239,,,,,,,,,,,,,,,,,,
,,0,20,,,,,,,1,1,3,stim/13.jpeg,Instruments,2,stim/objects/Instruments/balalaika.png,0.5,2,0.2,0.15,right,5,2020-12-08_10h04.34.556,premup-three_ses-01_part-01_label-phase1,3.2.4,Win32,60,left,0.665999889,4,0,4,0,1,3,1,0,240,30,1,239,,,,,,,,,,,,,,,,,,
,,1,21,,,,,,,3,6,2,stim/62.jpeg,HouseObjects,1,stim/objects/HouseObjects/clock2.png,0.9,3,-0.2,-0.15,left,5,2020-12-08_10h04.34.556,premup-three_ses-01_part-01_label-phase1,3.2.4,Win32,60,left,0.602999926,4,0,4,0,1,3,1,0,240,213,1,239,,,,,,,,,,,,,,,,,,
,,0,22,,,,,,,1,1,3,stim/13.jpeg,Instruments,2,stim/objects/Instruments/balalaika.png,0.5,4,0.2,-0.15,right,5,2020-12-08_10h04.34.556,premup-three_ses-01_part-01_label-phase1,3.2.4,Win32,60,left,0.639000177,4,0,4,0,1,3,1,0,240,26,1,239,,,,,,,,,,,,,,,,,,
,,1,23,,,,,,,1,2,4,stim/24.jpeg,Instruments,2,stim/objects/Instruments/chime.png,0.5,3,-0.2,-0.15,right,5,2020-12-08_10h04.34.556,premup-three_ses-01_part-01_label-phase1,3.2.4,Win32,60,right,0.575000048,4,0,4,0,1,3,1,0,240,67,1,239,,,,,,,,,,,,,,,,,,
,,0,24,,,,,,,2,3,3,stim/33.jpeg,HouseObjects,1,stim/objects/HouseObjects/clothesdryingrack.png,0.3,3,-0.2,-0.15,left,5,2020-12-08_10h04.34.556,premup-three_ses-01_part-01_label-phase1,3.2.4,Win32,60,right,0.845000029,4,0,4,0,1,3,1,0,240,90,1,239,,,,,,,,,,,,,,,,,,
,,1,25,,,,,,,2,3,2,stim/32.jpeg,Instruments,2,stim/objects/Instruments/cornet.png,0.7,1,-0.2,0.15,right,5,2020-12-08_10h04.34.556,premup-three_ses-01_part-01_label-phase1,3.2.4,Win32,60,right,0.725000143,4,0,4,0,1,3,1,0,240,109,1,239,,,,,,,,,,,,,,,,,,
,,1,26,,,,,,,3,6,3,stim/63.jpeg,HouseObjects,1,stim/objects/HouseObjects/clothesdryingrack2.png,0.9,4,0.2,-0.15,left,5,2020-12-08_10h04.34.556,premup-three_ses-01_part-01_label-phase1,3.2.4,Win32,60,left,0.854000092,4,0,4,0,1,3,1,0,240,222,1,239,,,,,,,,,,,,,,,,,,
,,0,27,,,,,,,2,4,3,stim/43.jpeg,HouseObjects,1,stim/objects/HouseObjects/barbecuelighter2.png,0.7,4,0.2,-0.15,left,5,2020-12-08_10h04.34.556,premup-three_ses-01_part-01_label-phase1,3.2.4,Win32,60,right,0.633999825,4,0,4,0,1,3,1,0,240,146,1,239,,,,,,,,,,,,,,,,,,
,,0,28,,,,,,,2,3,3,stim/33.jpeg,HouseObjects,1,stim/objects/HouseObjects/clothesdryingrack.png,0.3,4,0.2,-0.15,left,5,2020-12-08_10h04.34.556,premup-three_ses-01_part-01_label-phase1,3.2.4,Win32,60,right,0.798000097,4,0,4,0,1,3,1,0,240,82,1,239,,,,,,,,,,,,,,,,,,
,,1,29,,,,,,,3,6,4,stim/64.jpeg,HouseObjects,1,stim/objects/HouseObjects/clothespin2.png,0.9,1,-0.2,0.15,left,5,2020-12-08_10h04.34.556,premup-three_ses-01_part-01_label-phase1,3.2.4,Win32,60,left,0.973999977,4,0,4,0,1,3,1,0,240,207,1,239,,,,,,,,,,,,,,,,,,
,,1,30,,,,,,,1,2,2,stim/22.jpeg,Instruments,2,stim/objects/Instruments/bassguitar.png,0.5,1,-0.2,0.15,right,5,2020-12-08_10h04.34.556,premup-three_ses-01_part-01_label-phase1,3.2.4,Win32,60,right,0.724999905,4,0,4,0,1,3,1,0,240,77,1,239,,,,,,,,,,,,,,,,,,
,,1,31,,,,,,,1,2,3,stim/23.jpeg,Instruments,2,stim/objects/Instruments/cello.png,0.5,4,0.2,-0.15,right,5,2020-12-08_10h04.34.556,premup-three_ses-01_part-01_label-phase1,3.2.4,Win32,60,right,0.680000067,4,0,4,0,1,3,1,0,240,74,1,239,,,,,,,,,,,,,,,,,,
,,0,32,,,,,,,1,2,4,stim/24.jpeg,HouseObjects,1,stim/objects/HouseObjects/broom.png,0.5,4,0.2,-0.15,left,5,2020-12-08_10h04.34.556,premup-three_ses-01_part-01_label-phase1,3.2.4,Win32,60,right,0.897000074,4,0,4,0,1,3,1,0,240,43,1,239,,,,,,,,,,,,,,,,,,
,,0,33,,,,,,,1,1,2,stim/12.jpeg,Instruments,2,stim/objects/Instruments/acousticguitar.png,0.5,3,-0.2,-0.15,right,5,2020-12-08_10h04.34.556,premup-three_ses-01_part-01_label-phase1,3.2.4,Win32,60,left,0.68599987,4,0,4,0,1,3,1,0,240,29,1,239,,,,,,,,,,,,,,,,,,
,,1,34,,,,,,,1,1,4,stim/14.jpeg,HouseObjects,1,stim/objects/HouseObjects/basket.png,0.5,4,0.2,-0.15,left,5,2020-12-08_10h04.34.556,premup-three_ses-01_part-01_label-phase1,3.2.4,Win32,60,left,0.540999889,4,0,4,0,1,3,1,0,240,7,1,239,,,,,,,,,,,,,,,,,,
,,0,35,,,,,,,2,4,1,stim/41.jpeg,HouseObjects,1,stim/objects/HouseObjects/ashtray2.png,0.7,4,0.2,-0.15,left,5,2020-12-08_10h04.34.556,premup-three_ses-01_part-01_label-phase1,3.2.4,Win32,60,right,0.758000135,4,0,4,0,1,3,1,0,240,128,1,239,,,,,,,,,,,,,,,,,,
,,1,36,,,,,,,3,6,2,stim/62.jpeg,HouseObjects,1,stim/objects/HouseObjects/clock2.png,0.9,1,-0.2,0.15,left,5,2020-12-08_10h04.34.556,premup-three_ses-01_part-01_label-phase1,3.2.4,Win32,60,left,0.575999975,4,0,4,0,1,3,1,0,240,233,1,239,,,,,,,,,,,,,,,,,,
,,1,37,,,,,,,3,6,1,stim/61.jpeg,HouseObjects,1,stim/objects/HouseObjects/bucket2.png,0.9,2,0.2,0.15,left,5,2020-12-08_10h04.34.556,premup-three_ses-01_part-01_label-phase1,3.2.4,Win32,60,left,0.740999937,4,0,4,0,1,3,1,0,240,212,1,239,,,,,,,,,,,,,,,,,,
,,1,38,,,,,,,2,3,1,stim/31.jpeg,HouseObjects,1,stim/objects/HouseObjects/bucket.png,0.3,3,-0.2,-0.15,left,5,2020-12-08_10h04.34.556,premup-three_ses-01_part-01_label-phase1,3.2.4,Win32,60,left,0.498000145,4,0,4,0,1,3,1,0,240,80,1,239,,,,,,,,,,,,,,,,,,
,,1,39,,,,,,,3,6,4,stim/64.jpeg,HouseObjects,1,stim/objects/HouseObjects/clothespin2.png,0.9,1,-0.2,0.15,left,5,2020-12-08_10h04.34.556,premup-three_ses-01_part-01_label-phase1,3.2.4,Win32,60,left,0.597999811,4,0,4,0,1,3,1,0,240,215,1,239,,,,,,,,,,,,,,,,,,
,,1,40,,,,,,,3,6,3,stim/63.jpeg,HouseObjects,1,stim/objects/HouseObjects/clothesdryingrack2.png,0.9,4,0.2,-0.15,left,5,2020-12-08_10h04.34.556,premup-three_ses-01_part-01_label-phase1,3.2.4,Win32,60,left,0.605999947,4,0,4,0,1,3,1,0,240,214,1,239,,,,,,,,,,,,,,,,,,
,,1,41,,,,,,,3,6,1,stim/61.jpeg,HouseObjects,1,stim/objects/HouseObjects/bucket2.png,0.9,4,0.2,-0.15,left,5,2020-12-08_10h04.34.556,premup-three_ses-01_part-01_label-phase1,3.2.4,Win32,60,left,0.495000124,4,0,4,0,1,3,1,0,240,232,1,239,,,,,,,,,,,,,,,,,,
,,1,42,,,,,,,1,1,1,stim/11.jpeg,HouseObjects,1,stim/objects/HouseObjects/ashtray.png,0.5,4,0.2,-0.15,left,5,2020-12-08_10h04.34.556,premup-three_ses-01_part-01_label-phase1,3.2.4,Win32,60,left,0.506000042,4,0,4,0,1,3,1,0,240,16,1,239,,,,,,,,,,,,,,,,,,
,,0,43,,,,,,,1,2,4,stim/24.jpeg,HouseObjects,1,stim/objects/HouseObjects/broom.png,0.5,3,-0.2,-0.15,left,5,2020-12-08_10h04.34.556,premup-three_ses-01_part-01_label-phase1,3.2.4,Win32,60,right,0.690999985,4,0,4,0,1,3,1,0,240,47,1,239,,,,,,,,,,,,,,,,,,
,,1,44,,,,,,,2,4,3,stim/43.jpeg,Instruments,2,stim/objects/Instruments/balalaika2.png,0.3,1,-0.2,0.15,right,5,2020-12-08_10h04.34.556,premup-three_ses-01_part-01_label-phase1,3.2.4,Win32,60,right,0.717999935,4,0,4,0,1,3,1,0,240,154,1,239,,,,,,,,,,,,,,,,,,
,,0,45,,,,,,,2,4,1,stim/41.jpeg,HouseObjects,1,stim/objects/HouseObjects/ashtray2.png,0.7,4,0.2,-0.15,left,5,2020-12-08_10h04.34.556,premup-three_ses-01_part-01_label-phase1,3.2.4,Win32,60,right,0.589999914,4,0,4,0,1,3,1,0,240,132,1,239,,,,,,,,,,,,,,,,,,
,,1,46,,,,,,,1,1,2,stim/12.jpeg,HouseObjects,1,stim/objects/HouseObjects/ballofstring.png,0.5,3,-0.2,-0.15,left,5,2020-12-08_10h04.34.556,premup-three_ses-01_part-01_label-phase1,3.2.4,Win32,60,left,0.745999813,4,0,4,0,1,3,1,0,240,9,1,239,,,,,,,,,,,,,,,,,,
,,1,47,,,,,,,3,6,3,stim/63.jpeg,HouseObjects,1,stim/objects/HouseObjects/clothesdryingrack2.png,0.9,4,0.2,-0.15,left,5,2020-12-08_10h04.34.556,premup-three_ses-01_part-01_label-phase1,3.2.4,Win32,60,left,0.566999912,4,0,4,0,1,3,1,0,240,234,1,239,,,,,,,,,,,,,,,,,,
,,1,48,,,,,,,1,1,4,stim/14.jpeg,HouseObjects,1,stim/objects/HouseObjects/basket.png,0.5,3,-0.2,-0.15,left,5,2020-12-08_10h04.34.556,premup-three_ses-01_part-01_label-phase1,3.2.4,Win32,60,left,0.554000139,4,0,4,0,1,3,1,0,240,11,1,239,,,,,,,,,,,,,,,,,,
,,1,49,,,,,,,3,5,1,stim/51.jpeg,Instruments,2,stim/objects/Instruments/bassdrum2.png,0.9,1,-0.2,0.15,right,5,2020-12-08_10h04.34.556,premup-three_ses-01_part-01_label-phase1,3.2.4,Win32,60,right,0.768000126,4,0,4,0,1,3,1,0,240,188,1,239,,,,,,,,,,,,,,,,,,
,,1,50,,,,,,,1,1,4,stim/14.jpeg,HouseObjects,1,stim/objects/HouseObjects/basket.png,0.5,2,0.2,0.15,left,5,2020-12-08_10h04.34.556,premup-three_ses-01_part-01_label-phase1,3.2.4,Win32,60,left,0.587000132,4,0,4,0,1,3,1,0,240,19,1,239,,,,,,,,,,,,,,,,,,
,,1,51,,,,,,,3,5,4,stim/54.jpeg,Instruments,2,stim/objects/Instruments/chime2.png,0.9,4,0.2,-0.15,right,5,2020-12-08_10h04.34.556,premup-three_ses-01_part-01_label-phase1,3.2.4,Win32,60,right,1.118000031,4,0,4,0,1,3,1,0,240,167,1,239,,,,,,,,,,,,,,,,,,
,,1,52,,,,,,,2,3,1,stim/31.jpeg,Instruments,2,stim/objects/Instruments/clarinet.png,0.7,4,0.2,-0.15,right,5,2020-12-08_10h04.34.556,premup-three_ses-01_part-01_label-phase1,3.2.4,Win32,60,right,0.744000196,4,0,4,0,1,3,1,0,240,108,1,239,,,,,,,,,,,,,,,,,,
,,1,53,,,,,,,3,6,1,stim/61.jpeg,HouseObjects,1,stim/objects/HouseObjects/bucket2.png,0.9,2,0.2,0.15,left,5,2020-12-08_10h04.34.556,premup-three_ses-01_part-01_label-phase1,3.2.4,Win32,60,left,0.792999983,4,0,4,0,1,3,1,0,240,200,1,239,,,,,,,,,,,,,,,,,,
,,1,54,,,,,,,2,3,3,stim/33.jpeg,Instruments,2,stim/objects/Instruments/cymbal.png,0.7,1,-0.2,0.15,right,5,2020-12-08_10h04.34.556,premup-three_ses-01_part-01_label-phase1,3.2.4,Win32,60,right,0.740999937,4,0,4,0,1,3,1,0,240,118,1,239,,,,,,,,,,,,,,,,,,
,,1,55,,,,,,,3,5,3,stim/53.jpeg,Instruments,2,stim/objects/Instruments/cello2.png,0.9,2,0.2,0.15,right,5,2020-12-08_10h04.34.556,premup-three_ses-01_part-01_label-phase1,3.2.4,Win32,60,right,0.780999899,4,0,4,0,1,3,1,0,240,178,1,239,,,,,,,,,,,,,,,,,,
,,1,56,,,,,,,2,3,4,stim/34.jpeg,Instruments,2,stim/objects/Instruments/doublebass.png,0.7,1,-0.2,0.15,right,5,2020-12-08_10h04.34.556,premup-three_ses-01_part-01_label-phase1,3.2.4,Win32,60,right,0.936000109,4,0,4,0,1,3,1,0,240,95,1,239,,,,,,,,,,,,,,,,,,
,,1,57,,,,,,,1,2,2,stim/22.jpeg,HouseObjects,1,stim/objects/HouseObjects/blender.png,0.5,3,-0.2,-0.15,left,5,2020-12-08_10h04.34.556,premup-three_ses-01_part-01_label-phase1,3.2.4,Win32,60,left,0.666000128,4,0,4,0,1,3,1,0,240,41,1,239,,,,,,,,,,,,,,,,,,
,,1,58,,,,,,,2,3,3,stim/33.jpeg,Instruments,2,stim/objects/Instruments/cymbal.png,0.7,1,-0.2,0.15,right,5,2020-12-08_10h04.34.556,premup-three_ses-01_part-01_label-phase1,3.2.4,Win32,60,right,0.680999994,4,0,4,0,1,3,1,0,240,94,1,239,,,,,,,,,,,,,,,,,,
,,1,59,,,,,,,3,5,1,stim/51.jpeg,Instruments,2,stim/objects/Instruments/bassdrum2.png,0.9,1,-0.2,0.15,right,5,2020-12-08_10h04.34.556,premup-three_ses-01_part-01_label-phase1,3.2.4,Win32,60,right,0.728999853,4,0,4,0,1,3,1,0,240,168,1,239,,,,,,,,,,,,,,,,,,
,,0,60,,,,,,,1,2,4,stim/24.jpeg,HouseObjects,1,stim/objects/HouseObjects/broom.png,0.5,4,0.2,-0.15,left,5,2020-12-08_10h04.34.556,premup-three_ses-01_part-01_label-phase1,3.2.4,Win32,60,right,0.659999847,4,0,4,0,1,3,1,0,240,55,1,239,,,,,,,,,,,,,,,,,,
,,1,61,,,,,,,3,5,1,stim/51.jpeg,Instruments,2,stim/objects/Instruments/bassdrum2.png,0.9,2,0.2,0.15,right,5,2020-12-08_10h04.34.556,premup-three_ses-01_part-01_label-phase1,3.2.4,Win32,60,right,0.583999872,4,0,4,0,1,3,1,0,240,180,1,239,,,,,,,,,,,,,,,,,,
,,1,62,,,,,,,2,3,4,stim/34.jpeg,Instruments,2,stim/objects/Instruments/doublebass.png,0.7,3,-0.2,-0.15,right,5,2020-12-08_10h04.34.556,premup-three_ses-01_part-01_label-phase1,3.2.4,Win32,60,right,0.743999958,4,0,4,0,1,3,1,0,240,111,1,239,,,,,,,,,,,,,,,,,,
,,0,63,,,,,,,2,4,2,stim/42.jpeg,HouseObjects,1,stim/objects/HouseObjects/ballofstring2.png,0.7,4,0.2,-0.15,left,5,2020-12-08_10h04.34.556,premup-three_ses-01_part-01_label-phase1,3.2.4,Win32,60,right,0.930999994,4,0,4,0,1,3,1,0,240,125,1,239,,,,,,,,,,,,,,,,,,
,,1,64,,,,,,,1,2,2,stim/22.jpeg,Instruments,2,stim/objects/Instruments/bassguitar.png,0.5,1,-0.2,0.15,right,5,2020-12-08_10h04.34.556,premup-three_ses-01_part-01_label-phase1,3.2.4,Win32,60,right,0.870000124,4,0,4,0,1,3,1,0,240,69,1,239,,,,,,,,,,,,,,,,,,
,,1,65,,,,,,,1,1,1,stim/11.jpeg,HouseObjects,1,stim/objects/HouseObjects/ashtray.png,0.5,2,0.2,0.15,left,5,2020-12-08_10h04.34.556,premup-three_ses-01_part-01_label-phase1,3.2.4,Win32,60,left,0.648999929,4,0,4,0,1,3,1,0,240,4,1,239,,,,,,,,,,,,,,,,,,
,,1,66,,,,,,,3,6,3,stim/63.jpeg,HouseObjects,1,stim/objects/HouseObjects/clothesdryingrack2.png,0.9,4,0.2,-0.15,left,5,2020-12-08_10h04.34.556,premup-three_ses-01_part-01_label-phase1,3.2.4,Win32,60,left,0.57400012,4,0,4,0,1,3,1,0,240,210,1,239,,,,,,,,,,,,,,,,,,
,,1,67,,,,,,,3,6,4,stim/64.jpeg,HouseObjects,1,stim/objects/HouseObjects/clothespin2.png,0.9,4,0.2,-0.15,left,5,2020-12-08_10h04.34.556,premup-three_ses-01_part-01_label-phase1,3.2.4,Win32,60,left,0.461999893,4,0,4,0,1,3,1,0,240,227,1,239,,,,,,,,,,,,,,,,,,
,,1,68,,,,,,,1,1,4,stim/14.jpeg,HouseObjects,1,stim/objects/HouseObjects/basket.png,0.5,4,0.2,-0.15,left,5,2020-12-08_10h04.34.556,premup-three_ses-01_part-01_label-phase1,3.2.4,Win32,60,left,0.525000095,4,0,4,0,1,3,1,0,240,3,1,239,,,,,,,,,,,,,,,,,,
,,1,69,,,,,,,1,2,3,stim/23.jpeg,Instruments,2,stim/objects/Instruments/cello.png,0.5,2,0.2,0.15,right,5,2020-12-08_10h04.34.556,premup-three_ses-01_part-01_label-phase1,3.2.4,Win32,60,right,0.595999956,4,0,4,0,1,3,1,0,240,78,1,239,,,,,,,,,,,,,,,,,,
,,0,70,,,,,,,1,1,4,stim/14.jpeg,Instruments,2,stim/objects/Instruments/banjo.png,0.5,1,-0.2,0.15,right,5,2020-12-08_10h04.34.556,premup-three_ses-01_part-01_label-phase1,3.2.4,Win32,60,left,0.555999994,4,0,4,0,1,3,1,0,240,27,1,239,,,,,,,,,,,,,,,,,,
,,1,71,,,,,,,3,5,3,stim/53.jpeg,Instruments,2,stim/objects/Instruments/cello2.png,0.9,2,0.2,0.15,right,5,2020-12-08_10h04.34.556,premup-three_ses-01_part-01_label-phase1,3.2.4,Win32,60,right,0.725000143,4,0,4,0,1,3,1,0,240,170,1,239,,,,,,,,,,,,,,,,,,
,,1,72,,,,,,,2,4,2,stim/42.jpeg,Instruments,2,stim/objects/Instruments/acousticguitar2.png,0.3,2,0.2,0.15,right,5,2020-12-08_10h04.34.556,premup-three_ses-01_part-01_label-phase1,3.2.4,Win32,60,right,0.957000017,4,0,4,0,1,3,1,0,240,153,1,239,,,,,,,,,,,,,,,,,,
,,0,73,,,,,,,2,4,1,stim/41.jpeg,HouseObjects,1,stim/objects/HouseObjects/ashtray2.png,0.7,4,0.2,-0.15,left,5,2020-12-08_10h04.34.556,premup-three_ses-01_part-01_label-phase1,3.2.4,Win32,60,right,1.119999886,4,0,4,0,1,3,1,0,240,144,1,239,,,,,,,,,,,,,,,,,,
,,0,74,,,,,,,3,5,2,stim/52.jpeg,Instruments,2,stim/objects/Instruments/bassguitar2.png,0.9,3,-0.2,-0.15,right,5,2020-12-08_10h04.34.556,premup-three_ses-01_part-01_label-phase1,3.2.4,Win32,60,left,0.744000196,4,0,4,0,1,3,1,0,240,169,1,239,,,,,,,,,,,,,,,,,,
,,1,75,,,,,,,1,2,4,stim/24.jpeg,Instruments,2,stim/objects/Instruments/chime.png,0.5,1,-0.2,0.15,right,5,2020-12-08_10h04.34.556,premup-three_ses-01_part-01_label-phase1,3.2.4,Win32,60,right,0.732999802,4,0,4,0,1,3,1,0,240,71,1,239,,,,,,,,,,,,,,,,,,
,,1,76,,,,,,,3,5,4,stim/54.jpeg,Instruments,2,stim/objects/Instruments/chime2.png,0.9,3,-0.2,-0.15,right,5,2020-12-08_10h04.34.556,premup-three_ses-01_part-01_label-phase1,3.2.4,Win32,60,right,0.819000006,4,0,4,0,1,3,1,0,240,183,1,239,,,,,,,,,,,,,,,,,,
,,0,77,,,,,,,3,5,1,stim/51.jpeg,Instruments,2,stim/objects/Instruments/bassdrum2.png,0.9,4,0.2,-0.15,right,5,2020-12-08_10h04.34.556,premup-three_ses-01_part-01_label-phase1,3.2.4,Win32,60,left,1.43599987,4,0,4,0,1,3,1,0,240,176,1,239,,,,,,,,,,,,,,,,,,
,,1,78,,,,,,,2,4,4,stim/44.jpeg,Instruments,2,stim/objects/Instruments/banjo2.png,0.3,1,-0.2,0.15,right,5,2020-12-08_10h04.34.556,premup-three_ses-01_part-01_label-phase1,3.2.4,Win32,60,right,0.835000038,4,0,4,0,1,3,1,0,240,151,1,239,,,,,,,,,,,,,,,,,,
,,1,79,,,,,,,3,6,2,stim/62.jpeg,HouseObjects,1,stim/objects/HouseObjects/clock2.png,0.9,4,0.2,-0.15,left,5,2020-12-08_10h04.34.556,premup-three_ses-01_part-01_label-phase1,3.2.4,Win32,60,left,0.656000137,4,0,4,0,1,3,1,0,240,201,1,239,,,,,,,,,,,,,,,,,,
,,1,80,,,,,,,1,1,3,stim/13.jpeg,HouseObjects,1,stim/objects/HouseObjects/barbecuelighter.png,0.5,3,-0.2,-0.15,left,5,2020-12-08_10h04.34.556,premup-three_ses-01_part-01_label-phase1,3.2.4,Win32,60,left,0.710999966,4,0,4,0,1,3,1,0,240,18,1,239,,,,,,,,,,,,,,,,,,
,,0,81,,,,,,,2,4,1,stim/41.jpeg,HouseObjects,1,stim/objects/HouseObjects/ashtray2.png,0.7,2,0.2,0.15,left,5,2020-12-08_10h04.34.556,premup-three_ses-01_part-01_label-phase1,3.2.4,Win32,60,right,0.792000055,4,0,4,0,1,3,1,0,240,120,1,239,,,,,,,,,,,,,,,,,,
,,0,82,,,,,,,2,3,2,stim/32.jpeg,HouseObjects,1,stim/objects/HouseObjects/clock.png,0.3,2,0.2,0.15,left,5,2020-12-08_10h04.34.556,premup-three_ses-01_part-01_label-phase1,3.2.4,Win32,60,right,1.110999823,4,0,4,0,1,3,1,0,240,81,1,239,,,,,,,,,,,,,,,,,,
,,0,83,,,,,,,1,1,2,stim/12.jpeg,Instruments,2,stim/objects/Instruments/acousticguitar.png,0.5,3,-0.2,-0.15,right,5,2020-12-08_10h04.34.556,premup-three_ses-01_part-01_label-phase1,3.2.4,Win32,60,left,0.781999826,4,0,4,0,1,3,1,0,240,33,1,239,,,,,,,,,,,,,,,,,,
,,0,84,,,,,,,1,1,1,stim/11.jpeg,Instruments,2,stim/objects/Instruments/accordion.png,0.5,2,0.2,0.15,right,5,2020-12-08_10h04.34.556,premup-three_ses-01_part-01_label-phase1,3.2.4,Win32,60,left,0.710999966,4,0,4,0,1,3,1,0,240,32,1,239,,,,,,,,,,,,,,,,,,
,,1,85,,,,,,,2,4,4,stim/44.jpeg,Instruments,2,stim/objects/Instruments/banjo2.png,0.3,4,0.2,-0.15,right,5,2020-12-08_10h04.34.556,premup-three_ses-01_part-01_label-phase1,3.2.4,Win32,60,right,1.060000181,4,0,4,0,1,3,1,0,240,159,1,239,,,,,,,,,,,,,,,,,,
,,0,86,,,,,,,2,4,3,stim/43.jpeg,HouseObjects,1,stim/objects/HouseObjects/barbecuelighter2.png,0.7,4,0.2,-0.15,left,5,2020-12-08_10h04.34.556,premup-three_ses-01_part-01_label-phase1,3.2.4,Win32,60,right,0.86500001,4,0,4,0,1,3,1,0,240,134,1,239,,,,,,,,,,,,,,,,,,
,,1,87,,,,,,,1,1,3,stim/13.jpeg,HouseObjects,1,stim/objects/HouseObjects/barbecuelighter.png,0.5,4,0.2,-0.15,left,5,2020-12-08_10h04.34.556,premup-three_ses-01_part-01_label-phase1,3.2.4,Win32,60,left,0.603000164,4,0,4,0,1,3,1,0,240,10,1,239,,,,,,,,,,,,,,,,,,
,,1,88,,,,,,,2,4,2,stim/42.jpeg,HouseObjects,1,stim/objects/HouseObjects/ballofstring2.png,0.7,4,0.2,-0.15,left,5,2020-12-08_10h04.34.556,premup-three_ses-01_part-01_label-phase1,3.2.4,Win32,60,left,0.487999916,4,0,4,0,1,3,1,0,240,141,1,239,,,,,,,,,,,,,,,,,,
,,0,89,,,,,,,1,2,1,stim/21.jpeg,Instruments,2,stim/objects/Instruments/bassdrum.png,0.5,2,0.2,0.15,right,5,2020-12-08_10h04.34.556,premup-three_ses-01_part-01_label-phase1,3.2.4,Win32,60,left,1.334000111,4,0,4,0,1,3,1,0,240,72,1,239,,,,,,,,,,,,,,,,,,
,,1,90,,,,,,,3,6,2,stim/62.jpeg,HouseObjects,1,stim/objects/HouseObjects/clock2.png,0.9,3,-0.2,-0.15,left,5,2020-12-08_10h04.34.556,premup-three_ses-01_part-01_label-phase1,3.2.4,Win32,60,left,0.561999798,4,0,4,0,1,3,1,0,240,229,1,239,,,,,,,,,,,,,,,,,,
,,0,91,,,,,,,2,3,3,stim/33.jpeg,Instruments,2,stim/objects/Instruments/cymbal.png,0.7,1,-0.2,0.15,right,5,2020-12-08_10h04.34.556,premup-three_ses-01_part-01_label-phase1,3.2.4,Win32,60,,,4,0,4,0,1,3,1,0,240,114,1,239,,,,,,,,,,,,,,,,,,
,,0,92,,,,,,,1,1,2,stim/12.jpeg,Instruments,2,stim/objects/Instruments/acousticguitar.png,0.5,2,0.2,0.15,right,5,2020-12-08_10h04.34.556,premup-three_ses-01_part-01_label-phase1,3.2.4,Win32,60,left,0.601000071,4,0,4,0,1,3,1,0,240,21,1,239,,,,,,,,,,,,,,,,,,
,,1,93,,,,,,,2,4,4,stim/44.jpeg,Instruments,2,stim/objects/Instruments/banjo2.png,0.3,3,-0.2,-0.15,right,5,2020-12-08_10h04.34.556,premup-three_ses-01_part-01_label-phase1,3.2.4,Win32,60,right,0.661999941,4,0,4,0,1,3,1,0,240,155,1,239,,,,,,,,,,,,,,,,,,
,,0,94,,,,,,,1,2,3,stim/23.jpeg,HouseObjects,1,stim/objects/HouseObjects/bottle.png,0.5,3,-0.2,-0.15,left,5,2020-12-08_10h04.34.556,premup-three_ses-01_part-01_label-phase1,3.2.4,Win32,60,right,0.729000092,4,0,4,0,1,3,1,0,240,50,1,239,,,,,,,,,,,,,,,,,,
,,0,95,,,,,,,1,2,1,stim/21.jpeg,HouseObjects,1,stim/objects/HouseObjects/bleachbottle.png,0.5,1,-0.2,0.15,left,5,2020-12-08_10h04.34.556,premup-three_ses-01_part-01_label-phase1,3.2.4,Win32,60,right,0.516000032,4,0,4,0,1,3,1,0,240,52,1,239,,,,,,,,,,,,,,,,,,
,,1,96,,,,,,,3,6,4,stim/64.jpeg,HouseObjects,1,stim/objects/HouseObjects/clothespin2.png,0.9,3,-0.2,-0.15,left,5,2020-12-08_10h04.34.556,premup-three_ses-01_part-01_label-phase1,3.2.4,Win32,60,left,0.451999903,4,0,4,0,1,3,1,0,240,211,1,239,,,,,,,,,,,,,,,,,,
,,1,97,,,,,,,1,1,1,stim/11.jpeg,HouseObjects,1,stim/objects/HouseObjects/ashtray.png,0.5,4,0.2,-0.15,left,5,2020-12-08_10h04.34.556,premup-three_ses-01_part-01_label-phase1,3.2.4,Win32,60,left,0.446000099,4,0,4,0,1,3,1,0,240,12,1,239,,,,,,,,,,,,,,,,,,
,,0,98,,,,,,,3,6,3,stim/63.jpeg,Instruments,2,stim/objects/Instruments/cymbal2.png,0.1,4,0.2,-0.15,right,5,2020-12-08_10h04.34.556,premup-three_ses-01_part-01_label-phase1,3.2.4,Win32,60,left,0.475999832,4,0,4,0,1,3,1,0,240,238,1,239,,,,,,,,,,,,,,,,,,
,,1,99,,,,,,,3,6,3,stim/63.jpeg,HouseObjects,1,stim/objects/HouseObjects/clothesdryingrack2.png,0.9,3,-0.2,-0.15,left,5,2020-12-08_10h04.34.556,premup-three_ses-01_part-01_label-phase1,3.2.4,Win32,60,left,0.524000168,4,0,4,0,1,3,1,0,240,230,1,239,,,,,,,,,,,,,,,,,,
,,0,100,,,,,,,1,1,3,stim/13.jpeg,Instruments,2,stim/objects/Instruments/balalaika.png,0.5,3,-0.2,-0.15,right,5,2020-12-08_10h04.34.556,premup-three_ses-01_part-01_label-phase1,3.2.4,Win32,60,left,0.479000092,4,0,4,0,1,3,1,0,240,38,1,239,,,,,,,,,,,,,,,,,,
,,0,101,,,,,,,2,3,3,stim/33.jpeg,Instruments,2,stim/objects/Instruments/cymbal.png,0.7,3,-0.2,-0.15,right,5,2020-12-08_10h04.34.556,premup-three_ses-01_part-01_label-phase1,3.2.4,Win32,60,left,0.457999945,4,0,4,0,1,3,1,0,240,98,1,239,,,,,,,,,,,,,,,,,,
,,1,102,,,,,,,1,2,4,stim/24.jpeg,Instruments,2,stim/objects/Instruments/chime.png,0.5,1,-0.2,0.15,right,5,2020-12-08_10h04.34.556,premup-three_ses-01_part-01_label-phase1,3.2.4,Win32,60,right,1.59800005,4,0,4,0,1,3,1,0,240,75,1,239,,,,,,,,,,,,,,,,,,
,,0,103,,,,,,,1,2,4,stim/24.jpeg,HouseObjects,1,stim/objects/HouseObjects/broom.png,0.5,2,0.2,0.15,left,5,2020-12-08_10h04.34.556,premup-three_ses-01_part-01_label-phase1,3.2.4,Win32,60,right,0.568000078,4,0,4,0,1,3,1,0,240,59,1,239,,,,,,,,,,,,,,,,,,
,,0,104,,,,,,,1,1,2,stim/12.jpeg,Instruments,2,stim/objects/Instruments/acousticguitar.png,0.5,2,0.2,0.15,right,5,2020-12-08_10h04.34.556,premup-three_ses-01_part-01_label-phase1,3.2.4,Win32,60,left,0.546000004,4,0,4,0,1,3,1,0,240,25,1,239,,,,,,,,,,,,,,,,,,
,,0,105,,,,,,,3,5,4,stim/54.jpeg,Instruments,2,stim/objects/Instruments/chime2.png,0.9,1,-0.2,0.15,right,5,2020-12-08_10h04.34.556,premup-three_ses-01_part-01_label-phase1,3.2.4,Win32,60,left,0.473999977,4,0,4,0,1,3,1,0,240,175,1,239,,,,,,,,,,,,,,,,,,
,,1,106,,,,,,,1,2,1,stim/21.jpeg,HouseObjects,1,stim/objects/HouseObjects/bleachbottle.png,0.5,3,-0.2,-0.15,left,5,2020-12-08_10h04.34.556,premup-three_ses-01_part-01_label-phase1,3.2.4,Win32,60,left,0.753999949,4,0,4,0,1,3,1,0,240,56,1,239,,,,,,,,,,,,,,,,,,
,,0,107,,,,,,,2,3,2,stim/32.jpeg,HouseObjects,1,stim/objects/HouseObjects/clock.png,0.3,4,0.2,-0.15,left,5,2020-12-08_10h04.34.556,premup-three_ses-01_part-01_label-phase1,3.2.4,Win32,60,right,0.81799984,4,0,4,0,1,3,1,0,240,89,1,239,,,,,,,,,,,,,,,,,,
,,1,108,,,,,,,3,5,1,stim/51.jpeg,Instruments,2,stim/objects/Instruments/bassdrum2.png,0.9,4,0.2,-0.15,right,5,2020-12-08_10h04.34.556,premup-three_ses-01_part-01_label-phase1,3.2.4,Win32,60,right,0.855999947,4,0,4,0,1,3,1,0,240,164,1,239,,,,,,,,,,,,,,,,,,
,,1,109,,,,,,,1,1,3,stim/13.jpeg,HouseObjects,1,stim/objects/HouseObjects/barbecuelighter.png,0.5,1,-0.2,0.15,left,5,2020-12-08_10h04.34.556,premup-three_ses-01_part-01_label-phase1,3.2.4,Win32,60,left,0.690999985,4,0,4,0,1,3,1,0,240,6,1,239,,,,,,,,,,,,,,,,,,
,,0,110,,,,,,,1,1,1,stim/11.jpeg,Instruments,2,stim/objects/Instruments/accordion.png,0.5,4,0.2,-0.15,right,5,2020-12-08_10h04.34.556,premup-three_ses-01_part-01_label-phase1,3.2.4,Win32,60,left,0.632999897,4,0,4,0,1,3,1,0,240,24,1,239,,,,,,,,,,,,,,,,,,
,,1,111,,,,,,,3,6,3,stim/63.jpeg,HouseObjects,1,stim/objects/HouseObjects/clothesdryingrack2.png,0.9,1,-0.2,0.15,left,5,2020-12-08_10h04.34.556,premup-three_ses-01_part-01_label-phase1,3.2.4,Win32,60,left,0.64199996,4,0,4,0,1,3,1,0,240,226,1,239,,,,,,,,,,,,,,,,,,
,,0,112,,,,,,,2,4,3,stim/43.jpeg,HouseObjects,1,stim/objects/HouseObjects/barbecuelighter2.png,0.7,4,0.2,-0.15,left,5,2020-12-08_10h04.34.556,premup-three_ses-01_part-01_label-phase1,3.2.4,Win32,60,right,0.812999964,4,0,4,0,1,3,1,0,240,142,1,239,,,,,,,,,,,,,,,,,,
,,0,113,,,,,,,2,4,1,stim/41.jpeg,HouseObjects,1,stim/objects/HouseObjects/ashtray2.png,0.7,2,0.2,0.15,left,5,2020-12-08_10h04.34.556,premup-three_ses-01_part-01_label-phase1,3.2.4,Win32,60,right,0.785000086,4,0,4,0,1,3,1,0,240,124,1,239,,,,,,,,,,,,,,,,,,
,,1,114,,,,,,,2,3,3,stim/33.jpeg,Instruments,2,stim/objects/Instruments/cymbal.png,0.7,2,0.2,0.15,right,5,2020-12-08_10h04.34.556,premup-three_ses-01_part-01_label-phase1,3.2.4,Win32,60,right,1.501000166,4,0,4,0,1,3,1,0,240,110,1,239,,,,,,,,,,,,,,,,,,
,,1,115,,,,,,,1,1,3,stim/13.jpeg,HouseObjects,1,stim/objects/HouseObjects/barbecuelighter.png,0.5,1,-0.2,0.15,left,5,2020-12-08_10h04.34.556,premup-three_ses-01_part-01_label-phase1,3.2.4,Win32,60,left,0.469000101,4,0,4,0,1,3,1,0,240,14,1,239,,,,,,,,,,,,,,,,,,
,,0,116,,,,,,,1,2,1,stim/21.jpeg,Instruments,2,stim/objects/Instruments/bassdrum.png,0.5,1,-0.2,0.15,right,5,2020-12-08_10h04.34.556,premup-three_ses-01_part-01_label-phase1,3.2.4,Win32,60,left,0.572000027,4,0,4,0,1,3,1,0,240,64,1,239,,,,,,,,,,,,,,,,,,
,,0,117,,,,,,,1,1,4,stim/14.jpeg,Instruments,2,stim/objects/Instruments/banjo.png,0.5,2,0.2,0.15,right,5,2020-12-08_10h04.34.556,premup-three_ses-01_part-01_label-phase1,3.2.4,Win32,60,left,0.626000166,4,0,4,0,1,3,1,0,240,35,1,239,,,,,,,,,,,,,,,,,,
,,0,118,,,,,,,2,4,2,stim/42.jpeg,Instruments,2,stim/objects/Instruments/acousticguitar2.png,0.3,3,-0.2,-0.15,right,5,2020-12-08_10h04.34.556,premup-three_ses-01_part-01_label-phase1,3.2.4,Win32,60,left,0.858999968,4,0,4,0,1,3,1,0,240,157,1,239,,,,,,,,,,,,,,,,,,
,,1,119,,,,,,,2,3,4,stim/34.jpeg,Instruments,2,stim/objects/Instruments/doublebass.png,0.7,4,0.2,-0.15,right,5,2020-12-08_10h04.34.556,premup-three_ses-01_part-01_label-phase1,3.2.4,Win32,60,right,0.809000015,4,0,4,0,1,3,1,0,240,99,1,239,,,,,,,,,,,,,,,,,,
,,0,120,,,,,,,1,2,2,stim/22.jpeg,HouseObjects,1,stim/objects/HouseObjects/blender.png,0.5,4,0.2,-0.15,left,5,2020-12-08_10h04.34.556,premup-three_ses-01_part-01_label-phase1,3.2.4,Win32,60,right,0.75999999,4,0,4,0,1,3,1,0,240,53,1,239,,,,,,,,,,,,,,,,,,
,,1,121,,,,,,,2,3,1,stim/31.jpeg,Instruments,2,stim/objects/Instruments/clarinet.png,0.7,4,0.2,-0.15,right,5,2020-12-08_10h04.34.556,premup-three_ses-01_part-01_label-phase1,3.2.4,Win32,60,right,0.653000116,4,0,4,0,1,3,1,0,240,96,1,239,,,,,,,,,,,,,,,,,,
,,1,122,,,,,,,1,1,2,stim/12.jpeg,HouseObjects,1,stim/objects/HouseObjects/ballofstring.png,0.5,4,0.2,-0.15,left,5,2020-12-08_10h04.34.556,premup-three_ses-01_part-01_label-phase1,3.2.4,Win32,60,left,0.813999891,4,0,4,0,1,3,1,0,240,17,1,239,,,,,,,,,,,,,,,,,,
,,0,123,,,,,,,3,5,4,stim/54.jpeg,Instruments,2,stim/objects/Instruments/chime2.png,0.9,2,0.2,0.15,right,5,2020-12-08_10h04.34.556,premup-three_ses-01_part-01_label-phase1,3.2.4,Win32,60,left,0.982000113,4,0,4,0,1,3,1,0,240,171,1,239,,,,,,,,,,,,,,,,,,
,,0,124,,,,,,,2,4,1,stim/41.jpeg,Instruments,2,stim/objects/Instruments/accordion2.png,0.3,1,-0.2,0.15,right,5,2020-12-08_10h04.34.556,premup-three_ses-01_part-01_label-phase1,3.2.4,Win32,60,left,0.710000038,4,0,4,0,1,3,1,0,240,156,1,239,,,,,,,,,,,,,,,,,,
,,0,125,,,,,,,1,2,1,stim/21.jpeg,Instruments,2,stim/objects/Instruments/bassdrum.png,0.5,4,0.2,-0.15,right,5,2020-12-08_10h04.34.556,premup-three_ses-01_part-01_label-phase1,3.2.4,Win32,60,left,0.756000042,4,0,4,0,1,3,1,0,240,68,1,239,,,,,,,,,,,,,,,,,,
,,1,126,,,,,,,3,5,2,stim/52.jpeg,Instruments,2,stim/objects/Instruments/bassguitar2.png,0.9,2,0.2,0.15,right,5,2020-12-08_10h04.34.556,premup-three_ses-01_part-01_label-phase1,3.2.4,Win32,60,right,0.707999945,4,0,4,0,1,3,1,0,240,197,1,239,,,,,,,,,,,,,,,,,,
,,0,127,,,,,,,2,3,1,stim/31.jpeg,HouseObjects,1,stim/objects/HouseObjects/bucket.png,0.3,1,-0.2,0.15,left,5,2020-12-08_10h04.34.556,premup-three_ses-01_part-01_label-phase1,3.2.4,Win32,60,right,0.787999868,4,0,4,0,1,3,1,0,240,88,1,239,,,,,,,,,,,,,,,,,,
,,0,128,,,,,,,1,2,2,stim/22.jpeg,Instruments,2,stim/objects/Instruments/bassguitar.png,0.5,2,0.2,0.15,right,5,2020-12-08_10h04.34.556,premup-three_ses-01_part-01_label-phase1,3.2.4,Win32,60,left,0.849999905,4,0,4,0,1,3,1,0,240,73,1,239,,,,,,,,,,,,,,,,,,
,,0,129,,,,,,,1,2,2,stim/22.jpeg,Instruments,2,stim/objects/Instruments/bassguitar.png,0.5,1,-0.2,0.15,right,5,2020-12-08_10h04.34.556,premup-three_ses-01_part-01_label-phase1,3.2.4,Win32,60,left,0.822999954,4,0,4,0,1,3,1,0,240,61,1,239,,,,,,,,,,,,,,,,,,
,,1,130,,,,,,,3,6,4,stim/64.jpeg,HouseObjects,1,stim/objects/HouseObjects/clothespin2.png,0.9,2,0.2,0.15,left,5,2020-12-08_10h04.34.556,premup-three_ses-01_part-01_label-phase1,3.2.4,Win32,60,left,0.536000013,4,0,4,0,1,3,1,0,240,223,1,239,,,,,,,,,,,,,,,,,,
,,1,131,,,,,,,1,2,2,stim/22.jpeg,Instruments,2,stim/objects/Instruments/bassguitar.png,0.5,1,-0.2,0.15,right,5,2020-12-08_10h04.34.556,premup-three_ses-01_part-01_label-phase1,3.2.4,Win32,60,right,0.720000029,4,0,4,0,1,3,1,0,240,65,1,239,,,,,,,,,,,,,,,,,,
,,1,132,,,,,,,1,2,1,stim/21.jpeg,HouseObjects,1,stim/objects/HouseObjects/bleachbottle.png,0.5,4,0.2,-0.15,left,5,2020-12-08_10h04.34.556,premup-three_ses-01_part-01_label-phase1,3.2.4,Win32,60,left,0.792999983,4,0,4,0,1,3,1,0,240,48,1,239,,,,,,,,,,,,,,,,,,
,,1,133,,,,,,,3,6,1,stim/61.jpeg,HouseObjects,1,stim/objects/HouseObjects/bucket2.png,0.9,1,-0.2,0.15,left,5,2020-12-08_10h04.34.556,premup-three_ses-01_part-01_label-phase1,3.2.4,Win32,60,left,0.625,4,0,4,0,1,3,1,0,240,216,1,239,,,,,,,,,,,,,,,,,,
,,0,134,,,,,,,2,4,4,stim/44.jpeg,HouseObjects,1,stim/objects/HouseObjects/basket2.png,0.7,4,0.2,-0.15,left,5,2020-12-08_10h04.34.556,premup-three_ses-01_part-01_label-phase1,3.2.4,Win32,60,right,0.637000084,4,0,4,0,1,3,1,0,240,135,1,239,,,,,,,,,,,,,,,,,,
,,1,135,,,,,,,2,4,4,stim/44.jpeg,HouseObjects,1,stim/objects/HouseObjects/basket2.png,0.7,1,-0.2,0.15,left,5,2020-12-08_10h04.34.556,premup-three_ses-01_part-01_label-phase1,3.2.4,Win32,60,left,0.589999914,4,0,4,0,1,3,1,0,240,143,1,239,,,,,,,,,,,,,,,,,,
,,1,136,,,,,,,3,6,1,stim/61.jpeg,HouseObjects,1,stim/objects/HouseObjects/bucket2.png,0.9,2,0.2,0.15,left,5,2020-12-08_10h04.34.556,premup-three_ses-01_part-01_label-phase1,3.2.4,Win32,60,left,0.63499999,4,0,4,0,1,3,1,0,240,208,1,239,,,,,,,,,,,,,,,,,,
,,1,137,,,,,,,2,3,2,stim/32.jpeg,HouseObjects,1,stim/objects/HouseObjects/clock.png,0.3,3,-0.2,-0.15,left,5,2020-12-08_10h04.34.556,premup-three_ses-01_part-01_label-phase1,3.2.4,Win32,60,left,0.911999941,4,0,4,0,1,3,1,0,240,85,1,239,,,,,,,,,,,,,,,,,,
,,1,138,,,,,,,1,2,3,stim/23.jpeg,HouseObjects,1,stim/objects/HouseObjects/bottle.png,0.5,1,-0.2,0.15,left,5,2020-12-08_10h04.34.556,premup-three_ses-01_part-01_label-phase1,3.2.4,Win32,60,left,0.851999998,4,0,4,0,1,3,1,0,240,42,1,239,,,,,,,,,,,,,,,,,,
,,1,139,,,,,,,2,3,4,stim/34.jpeg,Instruments,2,stim/objects/Instruments/doublebass.png,0.7,3,-0.2,-0.15,right,5,2020-12-08_10h04.34.556,premup-three_ses-01_part-01_label-phase1,3.2.4,Win32,60,right,0.896000147,4,0,4,0,1,3,1,0,240,103,1,239,,,,,,,,,,,,,,,,,,
,,1,140,,,,,,,3,6,3,stim/63.jpeg,HouseObjects,1,stim/objects/HouseObjects/clothesdryingrack2.png,0.9,2,0.2,0.15,left,5,2020-12-08_10h04.34.556,premup-three_ses-01_part-01_label-phase1,3.2.4,Win32,60,left,0.585000038,4,0,4,0,1,3,1,0,240,218,1,239,,,,,,,,,,,,,,,,,,
,,0,141,,,,,,,2,3,1,stim/31.jpeg,HouseObjects,1,stim/objects/HouseObjects/bucket.png,0.3,2,0.2,0.15,left,5,2020-12-08_10h04.34.556,premup-three_ses-01_part-01_label-phase1,3.2.4,Win32,60,right,0.812000036,4,0,4,0,1,3,1,0,240,84,1,239,,,,,,,,,,,,,,,,,,
,,0,142,,,,,,,2,3,2,stim/32.jpeg,Instruments,2,stim/objects/Instruments/cornet.png,0.7,4,0.2,-0.15,right,5,2020-12-08_10h04.34.556,premup-three_ses-01_part-01_label-phase1,3.2.4,Win32,60,left,0.726999998,4,0,4,0,1,3,1,0,240,117,1,239,,,,,,,,,,,,,,,,,,
,,0,143,,,,,,,1,1,1,stim/11.jpeg,Instruments,2,stim/objects/Instruments/accordion.png,0.5,3,-0.2,-0.15,right,5,2020-12-08_10h04.34.556,premup-three_ses-01_part-01_label-phase1,3.2.4,Win32,60,left,0.671000004,4,0,4,0,1,3,1,0,240,36,1,239,,,,,,,,,,,,,,,,,,
,,0,144,,,,,,,1,2,1,stim/21.jpeg,HouseObjects,1,stim/objects/HouseObjects/bleachbottle.png,0.5,1,-0.2,0.15,left,5,2020-12-08_10h04.34.556,premup-three_ses-01_part-01_label-phase1,3.2.4,Win32,60,right,0.683000088,4,0,4,0,1,3,1,0,240,44,1,239,,,,,,,,,,,,,,,,,,
,,0,145,,,,,,,1,1,4,stim/14.jpeg,Instruments,2,stim/objects/Instruments/banjo.png,0.5,3,-0.2,-0.15,right,5,2020-12-08_10h04.34.556,premup-three_ses-01_part-01_label-phase1,3.2.4,Win32,60,left,0.610999823,4,0,4,0,1,3,1,0,240,39,1,239,,,,,,,,,,,,,,,,,,
,,0,146,,,,,,,2,3,1,stim/31.jpeg,Instruments,2,stim/objects/Instruments/clarinet.png,0.7,1,-0.2,0.15,right,5,2020-12-08_10h04.34.556,premup-three_ses-01_part-01_label-phase1,3.2.4,Win32,60,left,1.036999941,4,0,4,0,1,3,1,0,240,104,1,239,,,,,,,,,,,,,,,,,,
,,0,147,,,,,,,1,2,1,stim/21.jpeg,HouseObjects,1,stim/objects/HouseObjects/bleachbottle.png,0.5,1,-0.2,0.15,left,5,2020-12-08_10h04.34.556,premup-three_ses-01_part-01_label-phase1,3.2.4,Win32,60,right,0.703999996,4,0,4,0,1,3,1,0,240,40,1,239,,,,,,,,,,,,,,,,,,
,,1,148,,,,,,,1,1,1,stim/11.jpeg,HouseObjects,1,stim/objects/HouseObjects/ashtray.png,0.5,2,0.2,0.15,left,5,2020-12-08_10h04.34.556,premup-three_ses-01_part-01_label-phase1,3.2.4,Win32,60,left,0.720000029,4,0,4,0,1,3,1,0,240,0,1,239,,,,,,,,,,,,,,,,,,
,,1,149,,,,,,,1,1,1,stim/11.jpeg,HouseObjects,1,stim/objects/HouseObjects/ashtray.png,0.5,2,0.2,0.15,left,5,2020-12-08_10h04.34.556,premup-three_ses-01_part-01_label-phase1,3.2.4,Win32,60,left,0.696000099,4,0,4,0,1,3,1,0,240,8,1,239,,,,,,,,,,,,,,,,,,
,,1,150,,,,,,,2,3,2,stim/32.jpeg,Instruments,2,stim/objects/Instruments/cornet.png,0.7,1,-0.2,0.15,right,5,2020-12-08_10h04.34.556,premup-three_ses-01_part-01_label-phase1,3.2.4,Win32,60,right,0.928999901,4,0,4,0,1,3,1,0,240,93,1,239,,,,,,,,,,,,,,,,,,
,,0,151,,,,,,,2,4,3,stim/43.jpeg,HouseObjects,1,stim/objects/HouseObjects/barbecuelighter2.png,0.7,2,0.2,0.15,left,5,2020-12-08_10h04.34.556,premup-three_ses-01_part-01_label-phase1,3.2.4,Win32,60,right,1.089000225,4,0,4,0,1,3,1,0,240,138,1,239,,,,,,,,,,,,,,,,,,
,,0,152,,,,,,,1,2,4,stim/24.jpeg,Instruments,2,stim/objects/Instruments/chime.png,0.5,1,-0.2,0.15,right,5,2020-12-08_10h04.34.556,premup-three_ses-01_part-01_label-phase1,3.2.4,Win32,60,left,0.791999817,4,0,4,0,1,3,1,0,240,79,1,239,,,,,,,,,,,,,,,,,,
,,1,153,,,,,,,3,5,1,stim/51.jpeg,Instruments,2,stim/objects/Instruments/bassdrum2.png,0.9,1,-0.2,0.15,right,5,2020-12-08_10h04.34.556,premup-three_ses-01_part-01_label-phase1,3.2.4,Win32,60,right,0.657000065,4,0,4,0,1,3,1,0,240,172,1,239,,,,,,,,,,,,,,,,,,
,,0,154,,,,,,,2,4,4,stim/44.jpeg,HouseObjects,1,stim/objects/HouseObjects/basket2.png,0.7,3,-0.2,-0.15,left,5,2020-12-08_10h04.34.556,premup-three_ses-01_part-01_label-phase1,3.2.4,Win32,60,right,0.769999981,4,0,4,0,1,3,1,0,240,131,1,239,,,,,,,,,,,,,,,,,,
,,1,155,,,,,,,1,2,2,stim/22.jpeg,HouseObjects,1,stim/objects/HouseObjects/blender.png,0.5,2,0.2,0.15,left,5,2020-12-08_10h04.34.556,premup-three_ses-01_part-01_label-phase1,3.2.4,Win32,60,left,0.724000216,4,0,4,0,1,3,1,0,240,49,1,239,,,,,,,,,,,,,,,,,,
,,1,156,,,,,,,3,6,4,stim/64.jpeg,HouseObjects,1,stim/objects/HouseObjects/clothespin2.png,0.9,4,0.2,-0.15,left,5,2020-12-08_10h04.34.556,premup-three_ses-01_part-01_label-phase1,3.2.4,Win32,60,left,0.583999872,4,0,4,0,1,3,1,0,240,203,1,239,,,,,,,,,,,,,,,,,,
,,0,157,,,,,,,3,5,3,stim/53.jpeg,HouseObjects,1,stim/objects/HouseObjects/bottle2.png,0.1,2,0.2,0.15,left,5,2020-12-08_10h04.34.556,premup-three_ses-01_part-01_label-phase1,3.2.4,Win32,60,right,0.984999895,4,0,4,0,1,3,1,0,240,162,1,239,,,,,,,,,,,,,,,,,,
,,1,158,,,,,,,3,5,3,stim/53.jpeg,Instruments,2,stim/objects/Instruments/cello2.png,0.9,3,-0.2,-0.15,right,5,2020-12-08_10h04.34.556,premup-three_ses-01_part-01_label-phase1,3.2.4,Win32,60,right,0.823999882,4,0,4,0,1,3,1,0,240,166,1,239,,,,,,,,,,,,,,,,,,
,,0,159,,,,,,,1,2,3,stim/23.jpeg,Instruments,2,stim/objects/Instruments/cello.png,0.5,4,0.2,-0.15,right,5,2020-12-08_10h04.34.556,premup-three_ses-01_part-01_label-phase1,3.2.4,Win32,60,left,0.660000086,4,0,4,0,1,3,1,0,240,70,1,239,,,,,,,,,,,,,,,,,,
,,0,160,,,,,,,3,6,1,stim/61.jpeg,Instruments,2,stim/objects/Instruments/clarinet2.png,0.1,4,0.2,-0.15,right,5,2020-12-08_10h04.34.556,premup-three_ses-01_part-01_label-phase1,3.2.4,Win32,60,left,0.612000227,4,0,4,0,1,3,1,0,240,236,1,239,,,,,,,,,,,,,,,,,,
,,0,161,,,,,,,1,2,3,stim/23.jpeg,HouseObjects,1,stim/objects/HouseObjects/bottle.png,0.5,1,-0.2,0.15,left,5,2020-12-08_10h04.34.556,premup-three_ses-01_part-01_label-phase1,3.2.4,Win32,60,right,0.614000082,4,0,4,0,1,3,1,0,240,58,1,239,,,,,,,,,,,,,,,,,,
,,0,162,,,,,,,3,5,3,stim/53.jpeg,Instruments,2,stim/objects/Instruments/cello2.png,0.9,1,-0.2,0.15,right,5,2020-12-08_10h04.34.556,premup-three_ses-01_part-01_label-phase1,3.2.4,Win32,60,left,0.615999937,4,0,4,0,1,3,1,0,240,174,1,239,,,,,,,,,,,,,,,,,,
,,1,163,,,,,,,1,2,4,stim/24.jpeg,HouseObjects,1,stim/objects/HouseObjects/broom.png,0.5,4,0.2,-0.15,left,5,2020-12-08_10h04.34.556,premup-three_ses-01_part-01_label-phase1,3.2.4,Win32,60,left,0.664000034,4,0,4,0,1,3,1,0,240,51,1,239,,,,,,,,,,,,,,,,,,
,,1,164,,,,,,,3,6,2,stim/62.jpeg,HouseObjects,1,stim/objects/HouseObjects/clock2.png,0.9,3,-0.2,-0.15,left,5,2020-12-08_10h04.34.556,premup-three_ses-01_part-01_label-phase1,3.2.4,Win32,60,left,0.488999844,4,0,4,0,1,3,1,0,240,205,1,239,,,,,,,,,,,,,,,,,,
,,0,165,,,,,,,2,4,3,stim/43.jpeg,HouseObjects,1,stim/objects/HouseObjects/barbecuelighter2.png,0.7,1,-0.2,0.15,left,5,2020-12-08_10h04.34.556,premup-three_ses-01_part-01_label-phase1,3.2.4,Win32,60,right,0.714000225,4,0,4,0,1,3,1,0,240,130,1,239,,,,,,,,,,,,,,,,,,
,,1,166,,,,,,,1,1,2,stim/12.jpeg,HouseObjects,1,stim/objects/HouseObjects/ballofstring.png,0.5,2,0.2,0.15,left,5,2020-12-08_10h04.34.556,premup-three_ses-01_part-01_label-phase1,3.2.4,Win32,60,left,0.599000216,4,0,4,0,1,3,1,0,240,1,1,239,,,,,,,,,,,,,,,,,,
,,1,167,,,,,,,3,5,2,stim/52.jpeg,Instruments,2,stim/objects/Instruments/bassguitar2.png,0.9,3,-0.2,-0.15,right,5,2020-12-08_10h04.34.556,premup-three_ses-01_part-01_label-phase1,3.2.4,Win32,60,right,0.680999994,4,0,4,0,1,3,1,0,240,193,1,239,,,,,,,,,,,,,,,,,,
,,1,168,,,,,,,3,5,3,stim/53.jpeg,Instruments,2,stim/objects/Instruments/cello2.png,0.9,1,-0.2,0.15,right,5,2020-12-08_10h04.34.556,premup-three_ses-01_part-01_label-phase1,3.2.4,Win32,60,right,0.827000141,4,0,4,0,1,3,1,0,240,198,1,239,,,,,,,,,,,,,,,,,,
,,1,169,,,,,,,2,3,1,stim/31.jpeg,Instruments,2,stim/objects/Instruments/clarinet.png,0.7,1,-0.2,0.15,right,5,2020-12-08_10h04.34.556,premup-three_ses-01_part-01_label-phase1,3.2.4,Win32,60,right,0.755000114,4,0,4,0,1,3,1,0,240,100,1,239,,,,,,,,,,,,,,,,,,
,,1,170,,,,,,,3,5,1,stim/51.jpeg,Instruments,2,stim/objects/Instruments/bassdrum2.png,0.9,3,-0.2,-0.15,right,5,2020-12-08_10h04.34.556,premup-three_ses-01_part-01_label-phase1,3.2.4,Win32,60,right,0.96600008,4,0,4,0,1,3,1,0,240,196,1,239,,,,,,,,,,,,,,,,,,
,,1,171,,,,,,,1,2,3,stim/23.jpeg,Instruments,2,stim/objects/Instruments/cello.png,0.5,4,0.2,-0.15,right,5,2020-12-08_10h04.34.556,premup-three_ses-01_part-01_label-phase1,3.2.4,Win32,60,right,0.836999893,4,0,4,0,1,3,1,0,240,62,1,239,,,,,,,,,,,,,,,,,,
,,0,172,,,,,,,1,2,1,stim/21.jpeg,Instruments,2,stim/objects/Instruments/bassdrum.png,0.5,1,-0.2,0.15,right,5,2020-12-08_10h04.34.556,premup-three_ses-01_part-01_label-phase1,3.2.4,Win32,60,left,0.822999954,4,0,4,0,1,3,1,0,240,76,1,239,,,,,,,,,,,,,,,,,,
,,0,173,,,,,,,1,1,3,stim/13.jpeg,Instruments,2,stim/objects/Instruments/balalaika.png,0.5,4,0.2,-0.15,right,5,2020-12-08_10h04.34.556,premup-three_ses-01_part-01_label-phase1,3.2.4,Win32,60,left,0.671999931,4,0,4,0,1,3,1,0,240,34,1,239,,,,,,,,,,,,,,,,,,
,,0,174,,,,,,,2,3,1,stim/31.jpeg,Instruments,2,stim/objects/Instruments/clarinet.png,0.7,3,-0.2,-0.15,right,5,2020-12-08_10h04.34.556,premup-three_ses-01_part-01_label-phase1,3.2.4,Win32,60,left,1.111999989,4,0,4,0,1,3,1,0,240,112,1,239,,,,,,,,,,,,,,,,,,
,,1,175,,,,,,,3,6,2,stim/62.jpeg,HouseObjects,1,stim/objects/HouseObjects/clock2.png,0.9,1,-0.2,0.15,left,5,2020-12-08_10h04.34.556,premup-three_ses-01_part-01_label-phase1,3.2.4,Win32,60,left,0.518000126,4,0,4,0,1,3,1,0,240,209,1,239,,,,,,,,,,,,,,,,,,
,,1,176,,,,,,,2,4,3,stim/43.jpeg,Instruments,2,stim/objects/Instruments/balalaika2.png,0.3,3,-0.2,-0.15,right,5,2020-12-08_10h04.34.556,premup-three_ses-01_part-01_label-phase1,3.2.4,Win32,60,right,0.88499999,4,0,4,0,1,3,1,0,240,150,1,239,,,,,,,,,,,,,,,,,,
,,1,177,,,,,,,3,5,2,stim/52.jpeg,Instruments,2,stim/objects/Instruments/bassguitar2.png,0.9,4,0.2,-0.15,right,5,2020-12-08_10h04.34.556,premup-three_ses-01_part-01_label-phase1,3.2.4,Win32,60,right,0.758000135,4,0,4,0,1,3,1,0,240,165,1,239,,,,,,,,,,,,,,,,,,
,,1,178,,,,,,,3,6,3,stim/63.jpeg,HouseObjects,1,stim/objects/HouseObjects/clothesdryingrack2.png,0.9,2,0.2,0.15,left,5,2020-12-08_10h04.34.556,premup-three_ses-01_part-01_label-phase1,3.2.4,Win32,60,left,0.551000118,4,0,4,0,1,3,1,0,240,206,1,239,,,,,,,,,,,,,,,,,,
,,1,179,,,,,,,2,4,3,stim/43.jpeg,Instruments,2,stim/objects/Instruments/balalaika2.png,0.3,2,0.2,0.15,right,5,2020-12-08_10h04.34.556,premup-three_ses-01_part-01_label-phase1,3.2.4,Win32,60,right,0.69299984,4,0,4,0,1,3,1,0,240,158,1,239,,,,,,,,,,,,,,,,,,
,,1,180,,,,,,,2,4,1,stim/41.jpeg,Instruments,2,stim/objects/Instruments/accordion2.png,0.3,2,0.2,0.15,right,5,2020-12-08_10h04.34.556,premup-three_ses-01_part-01_label-phase1,3.2.4,Win32,60,right,0.708999872,4,0,4,0,1,3,1,0,240,148,1,239,,,,,,,,,,,,,,,,,,
,,1,181,,,,,,,3,6,1,stim/61.jpeg,HouseObjects,1,stim/objects/HouseObjects/bucket2.png,0.9,3,-0.2,-0.15,left,5,2020-12-08_10h04.34.556,premup-three_ses-01_part-01_label-phase1,3.2.4,Win32,60,left,0.644999981,4,0,4,0,1,3,1,0,240,220,1,239,,,,,,,,,,,,,,,,,,
,,1,182,,,,,,,3,6,3,stim/63.jpeg,HouseObjects,1,stim/objects/HouseObjects/clothesdryingrack2.png,0.9,2,0.2,0.15,left,5,2020-12-08_10h04.34.556,premup-three_ses-01_part-01_label-phase1,3.2.4,Win32,60,left,0.595000029,4,0,4,0,1,3,1,0,240,202,1,239,,,,,,,,,,,,,,,,,,
,,0,183,,,,,,,2,3,3,stim/33.jpeg,Instruments,2,stim/objects/Instruments/cymbal.png,0.7,3,-0.2,-0.15,right,5,2020-12-08_10h04.34.556,premup-three_ses-01_part-01_label-phase1,3.2.4,Win32,60,left,1.092999935,4,0,4,0,1,3,1,0,240,102,1,239,,,,,,,,,,,,,,,,,,
,,1,184,,,,,,,3,5,2,stim/52.jpeg,Instruments,2,stim/objects/Instruments/bassguitar2.png,0.9,1,-0.2,0.15,right,5,2020-12-08_10h04.34.556,premup-three_ses-01_part-01_label-phase1,3.2.4,Win32,60,right,0.711999893,4,0,4,0,1,3,1,0,240,181,1,239,,,,,,,,,,,,,,,,,,
,,0,185,,,,,,,3,6,2,stim/62.jpeg,Instruments,2,stim/objects/Instruments/cornet2.png,0.1,1,-0.2,0.15,right,5,2020-12-08_10h04.34.556,premup-three_ses-01_part-01_label-phase1,3.2.4,Win32,60,left,0.610999823,4,0,4,0,1,3,1,0,240,237,1,239,,,,,,,,,,,,,,,,,,
,,1,186,,,,,,,3,5,2,stim/52.jpeg,Instruments,2,stim/objects/Instruments/bassguitar2.png,0.9,1,-0.2,0.15,right,5,2020-12-08_10h04.34.556,premup-three_ses-01_part-01_label-phase1,3.2.4,Win32,60,right,1.008999825,4,0,4,0,1,3,1,0,240,173,1,239,,,,,,,,,,,,,,,,,,
,,1,187,,,,,,,3,5,2,stim/52.jpeg,Instruments,2,stim/objects/Instruments/bassguitar2.png,0.9,1,-0.2,0.15,right,5,2020-12-08_10h04.34.556,premup-three_ses-01_part-01_label-phase1,3.2.4,Win32,60,right,0.486999989,4,0,4,0,1,3,1,0,240,189,1,239,,,,,,,,,,,,,,,,,,
,,1,188,,,,,,,3,5,4,stim/54.jpeg,Instruments,2,stim/objects/Instruments/chime2.png,0.9,2,0.2,0.15,right,5,2020-12-08_10h04.34.556,premup-three_ses-01_part-01_label-phase1,3.2.4,Win32,60,right,0.803000212,4,0,4,0,1,3,1,0,240,187,1,239,,,,,,,,,,,,,,,,,,
,,1,189,,,,,,,3,5,4,stim/54.jpeg,Instruments,2,stim/objects/Instruments/chime2.png,0.9,4,0.2,-0.15,right,5,2020-12-08_10h04.34.556,premup-three_ses-01_part-01_label-phase1,3.2.4,Win32,60,right,0.557999849,4,0,4,0,1,3,1,0,240,195,1,239,,,,,,,,,,,,,,,,,,
,,1,190,,,,,,,3,5,3,stim/53.jpeg,Instruments,2,stim/objects/Instruments/cello2.png,0.9,4,0.2,-0.15,right,5,2020-12-08_10h04.34.556,premup-three_ses-01_part-01_label-phase1,3.2.4,Win32,60,right,0.892999887,4,0,4,0,1,3,1,0,240,194,1,239,,,,,,,,,,,,,,,,,,
,,1,191,,,,,,,2,3,3,stim/33.jpeg,Instruments,2,stim/objects/Instruments/cymbal.png,0.7,2,0.2,0.15,right,5,2020-12-08_10h04.34.556,premup-three_ses-01_part-01_label-phase1,3.2.4,Win32,60,right,0.734999895,4,0,4,0,1,3,1,0,240,106,1,239,,,,,,,,,,,,,,,,,,
,,1,192,,,,,,,1,1,2,stim/12.jpeg,HouseObjects,1,stim/objects/HouseObjects/ballofstring.png,0.5,2,0.2,0.15,left,5,2020-12-08_10h04.34.556,premup-three_ses-01_part-01_label-phase1,3.2.4,Win32,60,left,0.677000046,4,0,4,0,1,3,1,0,240,5,1,239,,,,,,,,,,,,,,,,,,
,,1,193,,,,,,,1,2,4,stim/24.jpeg,Instruments,2,stim/objects/Instruments/chime.png,0.5,4,0.2,-0.15,right,5,2020-12-08_10h04.34.556,premup-three_ses-01_part-01_label-phase1,3.2.4,Win32,60,right,0.809999943,4,0,4,0,1,3,1,0,240,63,1,239,,,,,,,,,,,,,,,,,,
,,0,194,,,,,,,1,2,2,stim/22.jpeg,HouseObjects,1,stim/objects/HouseObjects/blender.png,0.5,3,-0.2,-0.15,left,5,2020-12-08_10h04.34.556,premup-three_ses-01_part-01_label-phase1,3.2.4,Win32,60,right,0.610000134,4,0,4,0,1,3,1,0,240,57,1,239,,,,,,,,,,,,,,,,,,
,,0,195,,,,,,,2,4,4,stim/44.jpeg,HouseObjects,1,stim/objects/HouseObjects/basket2.png,0.7,3,-0.2,-0.15,left,5,2020-12-08_10h04.34.556,premup-three_ses-01_part-01_label-phase1,3.2.4,Win32,60,right,0.532999992,4,0,4,0,1,3,1,0,240,127,1,239,,,,,,,,,,,,,,,,,,
,,1,196,,,,,,,3,6,1,stim/61.jpeg,HouseObjects,1,stim/objects/HouseObjects/bucket2.png,0.9,2,0.2,0.15,left,5,2020-12-08_10h04.34.556,premup-three_ses-01_part-01_label-phase1,3.2.4,Win32,60,left,0.530999899,4,0,4,0,1,3,1,0,240,204,1,239,,,,,,,,,,,,,,,,,,
,,0,197,,,,,,,2,3,4,stim/34.jpeg,Instruments,2,stim/objects/Instruments/doublebass.png,0.7,4,0.2,-0.15,right,5,2020-12-08_10h04.34.556,premup-three_ses-01_part-01_label-phase1,3.2.4,Win32,60,left,0.703000069,4,0,4,0,1,3,1,0,240,119,1,239,,,,,,,,,,,,,,,,,,
,,1,198,,,,,,,2,3,1,stim/31.jpeg,Instruments,2,stim/objects/Instruments/clarinet.png,0.7,3,-0.2,-0.15,right,5,2020-12-08_10h04.34.556,premup-three_ses-01_part-01_label-phase1,3.2.4,Win32,60,right,0.637000084,4,0,4,0,1,3,1,0,240,116,1,239,,,,,,,,,,,,,,,,,,
,,0,199,,,,,,,3,5,2,stim/52.jpeg,HouseObjects,1,stim/objects/HouseObjects/blender2.png,0.1,3,-0.2,-0.15,left,5,2020-12-08_10h04.34.556,premup-three_ses-01_part-01_label-phase1,3.2.4,Win32,60,right,0.68200016,4,0,4,0,1,3,1,0,240,161,1,239,,,,,,,,,,,,,,,,,,
,,1,200,,,,,,,3,5,3,stim/53.jpeg,Instruments,2,stim/objects/Instruments/cello2.png,0.9,1,-0.2,0.15,right,5,2020-12-08_10h04.34.556,premup-three_ses-01_part-01_label-phase1,3.2.4,Win32,60,right,0.612999916,4,0,4,0,1,3,1,0,240,190,1,239,,,,,,,,,,,,,,,,,,
,,0,201,,,,,,,3,6,4,stim/64.jpeg,Instruments,2,stim/objects/Instruments/doublebass2.png,0.1,3,-0.2,-0.15,right,5,2020-12-08_10h04.34.556,premup-three_ses-01_part-01_label-phase1,3.2.4,Win32,60,left,0.680999994,4,0,4,0,1,3,1,0,240,239,1,239,,,,,,,,,,,,,,,,,,
,,1,202,,,,,,,1,1,2,stim/12.jpeg,Instruments,2,stim/objects/Instruments/acousticguitar.png,0.5,4,0.2,-0.15,right,5,2020-12-08_10h04.34.556,premup-three_ses-01_part-01_label-phase1,3.2.4,Win32,60,right,1.098999977,4,0,4,0,1,3,1,0,240,37,1,239,,,,,,,,,,,,,,,,,,
,,0,203,,,,,,,2,4,3,stim/43.jpeg,HouseObjects,1,stim/objects/HouseObjects/barbecuelighter2.png,0.7,2,0.2,0.15,left,5,2020-12-08_10h04.34.556,premup-three_ses-01_part-01_label-phase1,3.2.4,Win32,60,right,0.832000017,4,0,4,0,1,3,1,0,240,126,1,239,,,,,,,,,,,,,,,,,,
,,0,204,,,,,,,3,5,1,stim/51.jpeg,HouseObjects,1,stim/objects/HouseObjects/bleachbottle2.png,0.1,1,-0.2,0.15,left,5,2020-12-08_10h04.34.556,premup-three_ses-01_part-01_label-phase1,3.2.4,Win32,60,right,0.674999952,4,0,4,0,1,3,1,0,240,160,1,239,,,,,,,,,,,,,,,,,,
,,0,205,,,,,,,2,4,4,stim/44.jpeg,HouseObjects,1,stim/objects/HouseObjects/basket2.png,0.7,1,-0.2,0.15,left,5,2020-12-08_10h04.34.556,premup-three_ses-01_part-01_label-phase1,3.2.4,Win32,60,right,0.746999979,4,0,4,0,1,3,1,0,240,123,1,239,,,,,,,,,,,,,,,,,,
,,0,206,,,,,,,1,1,4,stim/14.jpeg,Instruments,2,stim/objects/Instruments/banjo.png,0.5,1,-0.2,0.15,right,5,2020-12-08_10h04.34.556,premup-three_ses-01_part-01_label-phase1,3.2.4,Win32,60,left,0.647000074,4,0,4,0,1,3,1,0,240,23,1,239,,,,,,,,,,,,,,,,,,
,,1,207,,,,,,,3,6,1,stim/61.jpeg,HouseObjects,1,stim/objects/HouseObjects/bucket2.png,0.9,3,-0.2,-0.15,left,5,2020-12-08_10h04.34.556,premup-three_ses-01_part-01_label-phase1,3.2.4,Win32,60,left,0.607000113,4,0,4,0,1,3,1,0,240,228,1,239,,,,,,,,,,,,,,,,,,
,,1,208,,,,,,,3,5,3,stim/53.jpeg,Instruments,2,stim/objects/Instruments/cello2.png,0.9,2,0.2,0.15,right,5,2020-12-08_10h04.34.556,premup-three_ses-01_part-01_label-phase1,3.2.4,Win32,60,right,0.724999905,4,0,4,0,1,3,1,0,240,182,1,239,,,,,,,,,,,,,,,,,,
,,1,209,,,,,,,1,1,2,stim/12.jpeg,HouseObjects,1,stim/objects/HouseObjects/ballofstring.png,0.5,1,-0.2,0.15,left,5,2020-12-08_10h04.34.556,premup-three_ses-01_part-01_label-phase1,3.2.4,Win32,60,left,0.812000036,4,0,4,0,1,3,1,0,240,13,1,239,,,,,,,,,,,,,,,,,,
,,1,210,,,,,,,3,6,2,stim/62.jpeg,HouseObjects,1,stim/objects/HouseObjects/clock2.png,0.9,4,0.2,-0.15,left,5,2020-12-08_10h04.34.556,premup-three_ses-01_part-01_label-phase1,3.2.4,Win32,60,left,0.61500001,4,0,4,0,1,3,1,0,240,217,1,239,,,,,,,,,,,,,,,,,,
,,1,211,,,,,,,3,5,1,stim/51.jpeg,Instruments,2,stim/objects/Instruments/bassdrum2.png,0.9,1,-0.2,0.15,right,5,2020-12-08_10h04.34.556,premup-three_ses-01_part-01_label-phase1,3.2.4,Win32,60,right,0.622999907,4,0,4,0,1,3,1,0,240,184,1,239,,,,,,,,,,,,,,,,,,
,,0,212,,,,,,,2,4,2,stim/42.jpeg,HouseObjects,1,stim/objects/HouseObjects/ballofstring2.png,0.7,2,0.2,0.15,left,5,2020-12-08_10h04.34.556,premup-three_ses-01_part-01_label-phase1,3.2.4,Win32,60,right,1.160000086,4,0,4,0,1,3,1,0,240,137,1,239,,,,,,,,,,,,,,,,,,
,,1,213,,,,,,,3,5,4,stim/54.jpeg,Instruments,2,stim/objects/Instruments/chime2.png,0.9,3,-0.2,-0.15,right,5,2020-12-08_10h04.34.556,premup-three_ses-01_part-01_label-phase1,3.2.4,Win32,60,right,0.510999918,4,0,4,0,1,3,1,0,240,199,1,239,,,,,,,,,,,,,,,,,,
,,0,214,,,,,,,2,4,2,stim/42.jpeg,HouseObjects,1,stim/objects/HouseObjects/ballofstring2.png,0.7,2,0.2,0.15,left,5,2020-12-08_10h04.34.556,premup-three_ses-01_part-01_label-phase1,3.2.4,Win32,60,right,0.605999947,4,0,4,0,1,3,1,0,240,129,1,239,,,,,,,,,,,,,,,,,,
,,0,215,,,,,,,1,2,2,stim/22.jpeg,HouseObjects,1,stim/objects/HouseObjects/blender.png,0.5,2,0.2,0.15,left,5,2020-12-08_10h04.34.556,premup-three_ses-01_part-01_label-phase1,3.2.4,Win32,60,right,0.743999958,4,0,4,0,1,3,1,0,240,45,1,239,,,,,,,,,,,,,,,,,,
,,0,216,,,,,,,2,3,4,stim/34.jpeg,HouseObjects,1,stim/objects/HouseObjects/clothespin.png,0.3,1,-0.2,0.15,left,5,2020-12-08_10h04.34.556,premup-three_ses-01_part-01_label-phase1,3.2.4,Win32,60,right,0.85800004,4,0,4,0,1,3,1,0,240,83,1,239,,,,,,,,,,,,,,,,,,
,,0,217,,,,,,,2,3,3,stim/33.jpeg,HouseObjects,1,stim/objects/HouseObjects/clothesdryingrack.png,0.3,1,-0.2,0.15,left,5,2020-12-08_10h04.34.556,premup-three_ses-01_part-01_label-phase1,3.2.4,Win32,60,right,0.737000227,4,0,4,0,1,3,1,0,240,86,1,239,,,,,,,,,,,,,,,,,,
,,1,218,,,,,,,3,6,2,stim/62.jpeg,HouseObjects,1,stim/objects/HouseObjects/clock2.png,0.9,4,0.2,-0.15,left,5,2020-12-08_10h04.34.556,premup-three_ses-01_part-01_label-phase1,3.2.4,Win32,60,left,0.560000181,4,0,4,0,1,3,1,0,240,225,1,239,,,,,,,,,,,,,,,,,,
,,0,219,,,,,,,2,4,3,stim/43.jpeg,HouseObjects,1,stim/objects/HouseObjects/barbecuelighter2.png,0.7,2,0.2,0.15,left,5,2020-12-08_10h04.34.556,premup-three_ses-01_part-01_label-phase1,3.2.4,Win32,60,right,0.916999817,4,0,4,0,1,3,1,0,240,122,1,239,,,,,,,,,,,,,,,,,,
,,0,220,,,,,,,1,1,1,stim/11.jpeg,Instruments,2,stim/objects/Instruments/accordion.png,0.5,3,-0.2,-0.15,right,5,2020-12-08_10h04.34.556,premup-three_ses-01_part-01_label-phase1,3.2.4,Win32,60,left,0.555000067,4,0,4,0,1,3,1,0,240,28,1,239,,,,,,,,,,,,,,,,,,
,,1,221,,,,,,,3,5,2,stim/52.jpeg,Instruments,2,stim/objects/Instruments/bassguitar2.png,0.9,3,-0.2,-0.15,right,5,2020-12-08_10h04.34.556,premup-three_ses-01_part-01_label-phase1,3.2.4,Win32,60,right,0.677000046,4,0,4,0,1,3,1,0,240,185,1,239,,,,,,,,,,,,,,,,,,
,,1,222,,,,,,,1,1,4,stim/14.jpeg,Instruments,2,stim/objects/Instruments/banjo.png,0.5,3,-0.2,-0.15,right,5,2020-12-08_10h04.34.556,premup-three_ses-01_part-01_label-phase1,3.2.4,Win32,60,right,0.993000031,4,0,4,0,1,3,1,0,240,31,1,239,,,,,,,,,,,,,,,,,,
,,1,223,,,,,,,2,3,4,stim/34.jpeg,Instruments,2,stim/objects/Instruments/doublebass.png,0.7,4,0.2,-0.15,right,5,2020-12-08_10h04.34.556,premup-three_ses-01_part-01_label-phase1,3.2.4,Win32,60,right,0.885999918,4,0,4,0,1,3,1,0,240,115,1,239,,,,,,,,,,,,,,,,,,
,,1,224,,,,,,,3,5,2,stim/52.jpeg,Instruments,2,stim/objects/Instruments/bassguitar2.png,0.9,3,-0.2,-0.15,right,5,2020-12-08_10h04.34.556,premup-three_ses-01_part-01_label-phase1,3.2.4,Win32,60,right,0.624000072,4,0,4,0,1,3,1,0,240,177,1,239,,,,,,,,,,,,,,,,,,
,,0,225,,,,,,,1,1,3,stim/13.jpeg,Instruments,2,stim/objects/Instruments/balalaika.png,0.5,2,0.2,0.15,right,5,2020-12-08_10h04.34.556,premup-three_ses-01_part-01_label-phase1,3.2.4,Win32,60,left,0.878000021,4,0,4,0,1,3,1,0,240,22,1,239,,,,,,,,,,,,,,,,,,
,,1,226,,,,,,,2,3,2,stim/32.jpeg,Instruments,2,stim/objects/Instruments/cornet.png,0.7,2,0.2,0.15,right,5,2020-12-08_10h04.34.556,premup-three_ses-01_part-01_label-phase1,3.2.4,Win32,60,right,0.582999945,4,0,4,0,1,3,1,0,240,101,1,239,,,,,,,,,,,,,,,,,,
,,1,227,,,,,,,2,4,1,stim/41.jpeg,Instruments,2,stim/objects/Instruments/accordion2.png,0.3,3,-0.2,-0.15,right,5,2020-12-08_10h04.34.556,premup-three_ses-01_part-01_label-phase1,3.2.4,Win32,60,right,0.684000015,4,0,4,0,1,3,1,0,240,152,1,239,,,,,,,,,,,,,,,,,,
,,0,228,,,,,,,2,4,1,stim/41.jpeg,HouseObjects,1,stim/objects/HouseObjects/ashtray2.png,0.7,2,0.2,0.15,left,5,2020-12-08_10h04.34.556,premup-three_ses-01_part-01_label-phase1,3.2.4,Win32,60,right,0.660000086,4,0,4,0,1,3,1,0,240,140,1,239,,,,,,,,,,,,,,,,,,
,,1,229,,,,,,,3,5,1,stim/51.jpeg,Instruments,2,stim/objects/Instruments/bassdrum2.png,0.9,3,-0.2,-0.15,right,5,2020-12-08_10h04.34.556,premup-three_ses-01_part-01_label-phase1,3.2.4,Win32,60,right,0.763000011,4,0,4,0,1,3,1,0,240,192,1,239,,,,,,,,,,,,,,,,,,
,,0,230,,,,,,,2,3,4,stim/34.jpeg,Instruments,2,stim/objects/Instruments/doublebass.png,0.7,3,-0.2,-0.15,right,5,2020-12-08_10h04.34.556,premup-three_ses-01_part-01_label-phase1,3.2.4,Win32,60,left,0.827000141,4,0,4,0,1,3,1,0,240,107,1,239,,,,,,,,,,,,,,,,,,
,,0,231,,,,,,,2,3,4,stim/34.jpeg,HouseObjects,1,stim/objects/HouseObjects/clothespin.png,0.3,1,-0.2,0.15,left,5,2020-12-08_10h04.34.556,premup-three_ses-01_part-01_label-phase1,3.2.4,Win32,60,right,0.610000134,4,0,4,0,1,3,1,0,240,87,1,239,,,,,,,,,,,,,,,,,,
,,0,232,,,,,,,2,3,4,stim/34.jpeg,HouseObjects,1,stim/objects/HouseObjects/clothespin.png,0.3,4,0.2,-0.15,left,5,2020-12-08_10h04.34.556,premup-three_ses-01_part-01_label-phase1,3.2.4,Win32,60,right,0.726999998,4,0,4,0,1,3,1,0,240,91,1,239,,,,,,,,,,,,,,,,,,
,,0,233,,,,,,,2,4,2,stim/42.jpeg,HouseObjects,1,stim/objects/HouseObjects/ballofstring2.png,0.7,3,-0.2,-0.15,left,5,2020-12-08_10h04.34.556,premup-three_ses-01_part-01_label-phase1,3.2.4,Win32,60,right,0.773000002,4,0,4,0,1,3,1,0,240,121,1,239,,,,,,,,,,,,,,,,,,
,,1,234,,,,,,,2,4,2,stim/42.jpeg,HouseObjects,1,stim/objects/HouseObjects/ballofstring2.png,0.7,3,-0.2,-0.15,left,5,2020-12-08_10h04.34.556,premup-three_ses-01_part-01_label-phase1,3.2.4,Win32,60,left,0.422999859,4,0,4,0,1,3,1,0,240,145,1,239,,,,,,,,,,,,,,,,,,
,,0,235,,,,,,,1,1,1,stim/11.jpeg,Instruments,2,stim/objects/Instruments/accordion.png,0.5,3,-0.2,-0.15,right,5,2020-12-08_10h04.34.556,premup-three_ses-01_part-01_label-phase1,3.2.4,Win32,60,left,0.540999889,4,0,4,0,1,3,1,0,240,20,1,239,,,,,,,,,,,,,,,,,,
,,1,236,,,,,,,2,4,4,stim/44.jpeg,HouseObjects,1,stim/objects/HouseObjects/basket2.png,0.7,3,-0.2,-0.15,left,5,2020-12-08_10h04.34.556,premup-three_ses-01_part-01_label-phase1,3.2.4,Win32,60,left,1.81400013,4,0,4,0,1,3,1,0,240,147,1,239,,,,,,,,,,,,,,,,,,
,,1,237,,,,,,,2,3,2,stim/32.jpeg,Instruments,2,stim/objects/Instruments/cornet.png,0.7,1,-0.2,0.15,right,5,2020-12-08_10h04.34.556,premup-three_ses-01_part-01_label-phase1,3.2.4,Win32,60,right,0.585999966,4,0,4,0,1,3,1,0,240,105,1,239,,,,,,,,,,,,,,,,,,
,,1,238,,,,,,,2,3,2,stim/32.jpeg,Instruments,2,stim/objects/Instruments/cornet.png,0.7,3,-0.2,-0.15,right,5,2020-12-08_10h04.34.556,premup-three_ses-01_part-01_label-phase1,3.2.4,Win32,60,right,0.498999834,4,0,4,0,1,3,1,0,240,113,1,239,,,,,,,,,,,,,,,,,,
,,0,239,,,,,,,2,4,1,stim/41.jpeg,HouseObjects,1,stim/objects/HouseObjects/ashtray2.png,0.7,2,0.2,0.15,left,5,2020-12-08_10h04.34.556,premup-three_ses-01_part-01_label-phase1,3.2.4,Win32,60,right,0.718999863,4,0,4,0,1,3,1,0,240,136,1,239,,,,,,,,,,,,,,,,,,
,,1,240,,,,,,,1,2,3,stim/23.jpeg,Instruments,2,stim/objects/Instruments/cello.png,0.5,3,-0.2,-0.15,right,5,2020-12-08_10h04.34.556,premup-three_ses-01_part-01_label-phase1,3.2.4,Win32,60,right,0.617000103,4,0,4,0,1,3,1,0,240,66,1,239,,,,,,,,,,,,,,,,,,
,,,,,,,,,,,6,,stim/61.jpeg,,,,,,,,,5,2020-12-08_10h04.34.556,premup-three_ses-01_part-01_label-phase1,3.2.4,Win32,60,,,4,0,4,0,1,3,,,,,,,1,0,90,6.97300005,,,1,0,6,5,1,5,Household items,5,15,Music items,85,95
,,,,,,,,,,,3,,stim/31.jpeg,,,,,,,,,5,2020-12-08_10h04.34.556,premup-three_ses-01_part-01_label-phase1,3.2.4,Win32,60,,,4,0,4,0,1,3,,,,,,,1,1,70,6.003999949,,,1,0,6,2,1,5,Household items,65,75,Music items,25,35
,,,,,,,,,,,4,,stim/41.jpeg,,,,,,,,,5,2020-12-08_10h04.34.556,premup-three_ses-01_part-01_label-phase1,3.2.4,Win32,60,,,4,0,4,0,1,3,,,,,,,1,1,20,7.65199995,,,1,0,6,3,1,5,Household items,65,75,Music items,25,35
,,,,,,,,,,,1,,stim/11.jpeg,,,,,,,,,5,2020-12-08_10h04.34.556,premup-three_ses-01_part-01_label-phase1,3.2.4,Win32,60,,,4,0,4,0,1,3,,,,,,,1,1,70,9.503999949,,,1,0,6,0,1,5,Household items,45,55,Music items,45,55
,,,,,,,,,,,2,,stim/21.jpeg,,,,,,,,,5,2020-12-08_10h04.34.556,premup-three_ses-01_part-01_label-phase1,3.2.4,Win32,60,,,4,0,4,0,1,3,,,,,,,1,1,70,6.201999903,,,1,0,6,1,1,5,Music items,45,55,Household items,45,55
,,,,,,,,,,,5,,stim/51.jpeg,,,,,,,,,5,2020-12-08_10h04.34.556,premup-three_ses-01_part-01_label-phase1,3.2.4,Win32,60,,,4,0,4,0,1,3,,,,,,,1,1,90,7.457000017,,,1,0,6,4,1,5,Music items,5,15,Household items,85,95
,,,,,,,,,,,,,,,,,,,,,,5,2020-12-08_10h04.34.556,premup-three_ses-01_part-01_label-phase1,3.2.4,Win32,60,,,4,0,4,0,1,3,,,,,,,,,,,,,,,,,,,,,,,,
,,0,1,,,,,,,1,1,2,stim/12.jpeg,HouseObjects,1,stim/objects/HouseObjects/ballofstring.png,0.5,4,0.2,-0.15,left,5,2020-12-08_10h04.34.556,premup-three_ses-01_part-01_label-phase1,3.2.4,Win32,60,right,1.421999931,4,0,4,0,1,3,1,0,240,17,1,239,,,,,,,,,,,,,,,,,,
,,0,2,,,,,,,1,2,4,stim/24.jpeg,HouseObjects,1,stim/objects/HouseObjects/broom.png,0.5,3,-0.2,-0.15,left,5,2020-12-08_10h04.34.556,premup-three_ses-01_part-01_label-phase1,3.2.4,Win32,60,right,0.720999956,4,0,4,0,1,3,1,0,240,47,1,239,,,,,,,,,,,,,,,,,,
,,1,3,,,,,,,2,3,3,stim/33.jpeg,Instruments,2,stim/objects/Instruments/cymbal.png,0.7,2,0.2,0.15,right,5,2020-12-08_10h04.34.556,premup-three_ses-01_part-01_label-phase1,3.2.4,Win32,60,right,1.196999788,4,0,4,0,1,3,1,0,240,110,1,239,,,,,,,,,,,,,,,,,,
,,1,4,,,,,,,2,4,4,stim/44.jpeg,HouseObjects,1,stim/objects/HouseObjects/basket2.png,0.7,1,-0.2,0.15,left,5,2020-12-08_10h04.34.556,premup-three_ses-01_part-01_label-phase1,3.2.4,Win32,60,left,0.776000023,4,0,4,0,1,3,1,0,240,123,1,239,,,,,,,,,,,,,,,,,,
,,1,5,,,,,,,3,5,2,stim/52.jpeg,Instruments,2,stim/objects/Instruments/bassguitar2.png,0.9,2,0.2,0.15,right,5,2020-12-08_10h04.34.556,premup-three_ses-01_part-01_label-phase1,3.2.4,Win32,60,right,0.623999834,4,0,4,0,1,3,1,0,240,197,1,239,,,,,,,,,,,,,,,,,,
,,1,6,,,,,,,2,4,3,stim/43.jpeg,Instruments,2,stim/objects/Instruments/balalaika2.png,0.3,2,0.2,0.15,right,5,2020-12-08_10h04.34.556,premup-three_ses-01_part-01_label-phase1,3.2.4,Win32,60,right,0.628000021,4,0,4,0,1,3,1,0,240,158,1,239,,,,,,,,,,,,,,,,,,
,,1,7,,,,,,,3,5,2,stim/52.jpeg,Instruments,2,stim/objects/Instruments/bassguitar2.png,0.9,3,-0.2,-0.15,right,5,2020-12-08_10h04.34.556,premup-three_ses-01_part-01_label-phase1,3.2.4,Win32,60,right,0.677999973,4,0,4,0,1,3,1,0,240,177,1,239,,,,,,,,,,,,,,,,,,
,,0,8,,,,,,,1,2,1,stim/21.jpeg,HouseObjects,1,stim/objects/HouseObjects/bleachbottle.png,0.5,1,-0.2,0.15,left,5,2020-12-08_10h04.34.556,premup-three_ses-01_part-01_label-phase1,3.2.4,Win32,60,right,0.756000042,4,0,4,0,1,3,1,0,240,40,1,239,,,,,,,,,,,,,,,,,,
,,1,9,,,,,,,3,6,2,stim/62.jpeg,HouseObjects,1,stim/objects/HouseObjects/clock2.png,0.9,1,-0.2,0.15,left,5,2020-12-08_10h04.34.556,premup-three_ses-01_part-01_label-phase1,3.2.4,Win32,60,left,0.694000006,4,0,4,0,1,3,1,0,240,209,1,239,,,,,,,,,,,,,,,,,,
,,1,10,,,,,,,3,6,2,stim/62.jpeg,HouseObjects,1,stim/objects/HouseObjects/clock2.png,0.9,2,0.2,0.15,left,5,2020-12-08_10h04.34.556,premup-three_ses-01_part-01_label-phase1,3.2.4,Win32,60,left,0.760999918,4,0,4,0,1,3,1,0,240,221,1,239,,,,,,,,,,,,,,,,,,
,,0,11,,,,,,,2,3,1,stim/31.jpeg,HouseObjects,1,stim/objects/HouseObjects/bucket.png,0.3,1,-0.2,0.15,left,5,2020-12-08_10h04.34.556,premup-three_ses-01_part-01_label-phase1,3.2.4,Win32,60,right,0.910000086,4,0,4,0,1,3,1,0,240,88,1,239,,,,,,,,,,,,,,,,,,
,,1,12,,,,,,,3,5,3,stim/53.jpeg,Instruments,2,stim/objects/Instruments/cello2.png,0.9,2,0.2,0.15,right,5,2020-12-08_10h04.34.556,premup-three_ses-01_part-01_label-phase1,3.2.4,Win32,60,right,0.726999998,4,0,4,0,1,3,1,0,240,178,1,239,,,,,,,,,,,,,,,,,,
,,0,13,,,,,,,1,1,4,stim/14.jpeg,Instruments,2,stim/objects/Instruments/banjo.png,0.5,3,-0.2,-0.15,right,5,2020-12-08_10h04.34.556,premup-three_ses-01_part-01_label-phase1,3.2.4,Win32,60,left,0.636999846,4,0,4,0,1,3,1,0,240,31,1,239,,,,,,,,,,,,,,,,,,
,,1,14,,,,,,,1,1,4,stim/14.jpeg,HouseObjects,1,stim/objects/HouseObjects/basket.png,0.5,3,-0.2,-0.15,left,5,2020-12-08_10h04.34.556,premup-three_ses-01_part-01_label-phase1,3.2.4,Win32,60,left,0.605999947,4,0,4,0,1,3,1,0,240,15,1,239,,,,,,,,,,,,,,,,,,
,,1,15,,,,,,,3,5,2,stim/52.jpeg,Instruments,2,stim/objects/Instruments/bassguitar2.png,0.9,1,-0.2,0.15,right,5,2020-12-08_10h04.34.556,premup-three_ses-01_part-01_label-phase1,3.2.4,Win32,60,right,0.593999863,4,0,4,0,1,3,1,0,240,181,1,239,,,,,,,,,,,,,,,,,,
,,0,16,,,,,,,2,4,4,stim/44.jpeg,HouseObjects,1,stim/objects/HouseObjects/basket2.png,0.7,1,-0.2,0.15,left,5,2020-12-08_10h04.34.556,premup-three_ses-01_part-01_label-phase1,3.2.4,Win32,60,right,0.475000143,4,0,4,0,1,3,1,0,240,143,1,239,,,,,,,,,,,,,,,,,,
,,1,17,,,,,,,3,6,3,stim/63.jpeg,HouseObjects,1,stim/objects/HouseObjects/clothesdryingrack2.png,0.9,4,0.2,-0.15,left,5,2020-12-08_10h04.34.556,premup-three_ses-01_part-01_label-phase1,3.2.4,Win32,60,left,0.629999876,4,0,4,0,1,3,1,0,240,214,1,239,,,,,,,,,,,,,,,,,,
,,1,18,,,,,,,1,2,2,stim/22.jpeg,Instruments,2,stim/objects/Instruments/bassguitar.png,0.5,1,-0.2,0.15,right,5,2020-12-08_10h04.34.556,premup-three_ses-01_part-01_label-phase1,3.2.4,Win32,60,right,0.651000023,4,0,4,0,1,3,1,0,240,69,1,239,,,,,,,,,,,,,,,,,,
,,0,19,,,,,,,1,2,3,stim/23.jpeg,HouseObjects,1,stim/objects/HouseObjects/bottle.png,0.5,3,-0.2,-0.15,left,5,2020-12-08_10h04.34.556,premup-three_ses-01_part-01_label-phase1,3.2.4,Win32,60,right,0.630000114,4,0,4,0,1,3,1,0,240,50,1,239,,,,,,,,,,,,,,,,,,
,,1,20,,,,,,,1,2,1,stim/21.jpeg,HouseObjects,1,stim/objects/HouseObjects/bleachbottle.png,0.5,3,-0.2,-0.15,left,5,2020-12-08_10h04.34.556,premup-three_ses-01_part-01_label-phase1,3.2.4,Win32,60,left,1.16899991,4,0,4,0,1,3,1,0,240,56,1,239,,,,,,,,,,,,,,,,,,
,,1,21,,,,,,,1,2,4,stim/24.jpeg,Instruments,2,stim/objects/Instruments/chime.png,0.5,4,0.2,-0.15,right,5,2020-12-08_10h04.34.556,premup-three_ses-01_part-01_label-phase1,3.2.4,Win32,60,right,1.019999981,4,0,4,0,1,3,1,0,240,63,1,239,,,,,,,,,,,,,,,,,,
,,1,22,,,,,,,1,2,1,stim/21.jpeg,Instruments,2,stim/objects/Instruments/bassdrum.png,0.5,2,0.2,0.15,right,5,2020-12-08_10h04.34.556,premup-three_ses-01_part-01_label-phase1,3.2.4,Win32,60,right,1.113999844,4,0,4,0,1,3,1,0,240,60,1,239,,,,,,,,,,,,,,,,,,
,,1,23,,,,,,,3,5,4,stim/54.jpeg,Instruments,2,stim/objects/Instruments/chime2.png,0.9,1,-0.2,0.15,right,5,2020-12-08_10h04.34.556,premup-three_ses-01_part-01_label-phase1,3.2.4,Win32,60,right,0.65199995,4,0,4,0,1,3,1,0,240,175,1,239,,,,,,,,,,,,,,,,,,
,,0,24,,,,,,,3,6,3,stim/63.jpeg,Instruments,2,stim/objects/Instruments/cymbal2.png,0.1,4,0.2,-0.15,right,5,2020-12-08_10h04.34.556,premup-three_ses-01_part-01_label-phase1,3.2.4,Win32,60,left,0.605999947,4,0,4,0,1,3,1,0,240,238,1,239,,,,,,,,,,,,,,,,,,
,,1,25,,,,,,,3,6,3,stim/63.jpeg,HouseObjects,1,stim/objects/HouseObjects/clothesdryingrack2.png,0.9,2,0.2,0.15,left,5,2020-12-08_10h04.34.556,premup-three_ses-01_part-01_label-phase1,3.2.4,Win32,60,left,0.655999899,4,0,4,0,1,3,1,0,240,218,1,239,,,,,,,,,,,,,,,,,,
,,1,26,,,,,,,3,5,1,stim/51.jpeg,Instruments,2,stim/objects/Instruments/bassdrum2.png,0.9,3,-0.2,-0.15,right,5,2020-12-08_10h04.34.556,premup-three_ses-01_part-01_label-phase1,3.2.4,Win32,60,right,0.654000044,4,0,4,0,1,3,1,0,240,196,1,239,,,,,,,,,,,,,,,,,,
,,1,27,,,,,,,3,5,4,stim/54.jpeg,Instruments,2,stim/objects/Instruments/chime2.png,0.9,2,0.2,0.15,right,5,2020-12-08_10h04.34.556,premup-three_ses-01_part-01_label-phase1,3.2.4,Win32,60,right,0.843000174,4,0,4,0,1,3,1,0,240,187,1,239,,,,,,,,,,,,,,,,,,
,,1,28,,,,,,,3,6,4,stim/64.jpeg,HouseObjects,1,stim/objects/HouseObjects/clothespin2.png,0.9,2,0.2,0.15,left,5,2020-12-08_10h04.34.556,premup-three_ses-01_part-01_label-phase1,3.2.4,Win32,60,left,0.628999949,4,0,4,0,1,3,1,0,240,223,1,239,,,,,,,,,,,,,,,,,,
,,1,29,,,,,,,3,5,4,stim/54.jpeg,Instruments,2,stim/objects/Instruments/chime2.png,0.9,2,0.2,0.15,right,5,2020-12-08_10h04.34.556,premup-three_ses-01_part-01_label-phase1,3.2.4,Win32,60,right,0.615999937,4,0,4,0,1,3,1,0,240,171,1,239,,,,,,,,,,,,,,,,,,
,,1,30,,,,,,,2,4,1,stim/41.jpeg,HouseObjects,1,stim/objects/HouseObjects/ashtray2.png,0.7,4,0.2,-0.15,left,5,2020-12-08_10h04.34.556,premup-three_ses-01_part-01_label-phase1,3.2.4,Win32,60,left,0.835999966,4,0,4,0,1,3,1,0,240,144,1,239,,,,,,,,,,,,,,,,,,
,,1,31,,,,,,,3,6,4,stim/64.jpeg,HouseObjects,1,stim/objects/HouseObjects/clothespin2.png,0.9,1,-0.2,0.15,left,5,2020-12-08_10h04.34.556,premup-three_ses-01_part-01_label-phase1,3.2.4,Win32,60,left,0.631999969,4,0,4,0,1,3,1,0,240,207,1,239,,,,,,,,,,,,,,,,,,
,,1,32,,,,,,,1,1,1,stim/11.jpeg,HouseObjects,1,stim/objects/HouseObjects/ashtray.png,0.5,2,0.2,0.15,left,5,2020-12-08_10h04.34.556,premup-three_ses-01_part-01_label-phase1,3.2.4,Win32,60,left,0.678999901,4,0,4,0,1,3,1,0,240,0,1,239,,,,,,,,,,,,,,,,,,
,,1,33,,,,,,,1,1,3,stim/13.jpeg,Instruments,2,stim/objects/Instruments/balalaika.png,0.5,4,0.2,-0.15,right,5,2020-12-08_10h04.34.556,premup-three_ses-01_part-01_label-phase1,3.2.4,Win32,60,right,0.977999926,4,0,4,0,1,3,1,0,240,26,1,239,,,,,,,,,,,,,,,,,,
,,0,34,,,,,,,3,5,1,stim/51.jpeg,HouseObjects,1,stim/objects/HouseObjects/bleachbottle2.png,0.1,1,-0.2,0.15,left,5,2020-12-08_10h04.34.556,premup-three_ses-01_part-01_label-phase1,3.2.4,Win32,60,right,0.647000074,4,0,4,0,1,3,1,0,240,160,1,239,,,,,,,,,,,,,,,,,,
,,0,35,,,,,,,1,2,2,stim/22.jpeg,Instruments,2,stim/objects/Instruments/bassguitar.png,0.5,2,0.2,0.15,right,5,2020-12-08_10h04.34.556,premup-three_ses-01_part-01_label-phase1,3.2.4,Win32,60,left,0.640000105,4,0,4,0,1,3,1,0,240,73,1,239,,,,,,,,,,,,,,,,,,
,,1,36,,,,,,,2,3,1,stim/31.jpeg,Instruments,2,stim/objects/Instruments/clarinet.png,0.7,1,-0.2,0.15,right,5,2020-12-08_10h04.34.556,premup-three_ses-01_part-01_label-phase1,3.2.4,Win32,60,right,0.727999926,4,0,4,0,1,3,1,0,240,100,1,239,,,,,,,,,,,,,,,,,,
,,1,37,,,,,,,1,2,1,stim/21.jpeg,HouseObjects,1,stim/objects/HouseObjects/bleachbottle.png,0.5,4,0.2,-0.15,left,5,2020-12-08_10h04.34.556,premup-three_ses-01_part-01_label-phase1,3.2.4,Win32,60,left,0.828000069,4,0,4,0,1,3,1,0,240,48,1,239,,,,,,,,,,,,,,,,,,
,,0,38,,,,,,,2,4,1,stim/41.jpeg,Instruments,2,stim/objects/Instruments/accordion2.png,0.3,1,-0.2,0.15,right,5,2020-12-08_10h04.34.556,premup-three_ses-01_part-01_label-phase1,3.2.4,Win32,60,left,0.973999977,4,0,4,0,1,3,1,0,240,156,1,239,,,,,,,,,,,,,,,,,,
,,1,39,,,,,,,2,3,2,stim/32.jpeg,Instruments,2,stim/objects/Instruments/cornet.png,0.7,1,-0.2,0.15,right,5,2020-12-08_10h04.34.556,premup-three_ses-01_part-01_label-phase1,3.2.4,Win32,60,right,0.714999914,4,0,4,0,1,3,1,0,240,109,1,239,,,,,,,,,,,,,,,,,,
,,0,40,,,,,,,1,1,1,stim/11.jpeg,Instruments,2,stim/objects/Instruments/accordion.png,0.5,2,0.2,0.15,right,5,2020-12-08_10h04.34.556,premup-three_ses-01_part-01_label-phase1,3.2.4,Win32,60,left,0.590999842,4,0,4,0,1,3,1,0,240,32,1,239,,,,,,,,,,,,,,,,,,
,,1,41,,,,,,,2,3,3,stim/33.jpeg,Instruments,2,stim/objects/Instruments/cymbal.png,0.7,1,-0.2,0.15,right,5,2020-12-08_10h04.34.556,premup-three_ses-01_part-01_label-phase1,3.2.4,Win32,60,right,0.690999985,4,0,4,0,1,3,1,0,240,94,1,239,,,,,,,,,,,,,,,,,,
,,1,42,,,,,,,1,1,2,stim/12.jpeg,Instruments,2,stim/objects/Instruments/acousticguitar.png,0.5,3,-0.2,-0.15,right,5,2020-12-08_10h04.34.556,premup-three_ses-01_part-01_label-phase1,3.2.4,Win32,60,right,0.833999872,4,0,4,0,1,3,1,0,240,29,1,239,,,,,,,,,,,,,,,,,,
,,1,43,,,,,,,1,2,1,stim/21.jpeg,Instruments,2,stim/objects/Instruments/bassdrum.png,0.5,1,-0.2,0.15,right,5,2020-12-08_10h04.34.556,premup-three_ses-01_part-01_label-phase1,3.2.4,Win32,60,right,0.736000061,4,0,4,0,1,3,1,0,240,64,1,239,,,,,,,,,,,,,,,,,,
,,0,44,,,,,,,2,3,3,stim/33.jpeg,HouseObjects,1,stim/objects/HouseObjects/clothesdryingrack.png,0.3,4,0.2,-0.15,left,5,2020-12-08_10h04.34.556,premup-three_ses-01_part-01_label-phase1,3.2.4,Win32,60,right,0.654999971,4,0,4,0,1,3,1,0,240,82,1,239,,,,,,,,,,,,,,,,,,
,,1,45,,,,,,,1,2,1,stim/21.jpeg,Instruments,2,stim/objects/Instruments/bassdrum.png,0.5,1,-0.2,0.15,right,5,2020-12-08_10h04.34.556,premup-three_ses-01_part-01_label-phase1,3.2.4,Win32,60,right,0.728999853,4,0,4,0,1,3,1,0,240,76,1,239,,,,,,,,,,,,,,,,,,
,,0,46,,,,,,,2,3,2,stim/32.jpeg,Instruments,2,stim/objects/Instruments/cornet.png,0.7,1,-0.2,0.15,right,5,2020-12-08_10h04.34.556,premup-three_ses-01_part-01_label-phase1,3.2.4,Win32,60,left,0.501000166,4,0,4,0,1,3,1,0,240,93,1,239,,,,,,,,,,,,,,,,,,
,,1,47,,,,,,,2,4,2,stim/42.jpeg,Instruments,2,stim/objects/Instruments/acousticguitar2.png,0.3,3,-0.2,-0.15,right,5,2020-12-08_10h04.34.556,premup-three_ses-01_part-01_label-phase1,3.2.4,Win32,60,right,1.068000078,4,0,4,0,1,3,1,0,240,157,1,239,,,,,,,,,,,,,,,,,,
,,1,48,,,,,,,1,2,4,stim/24.jpeg,Instruments,2,stim/objects/Instruments/chime.png,0.5,3,-0.2,-0.15,right,5,2020-12-08_10h04.34.556,premup-three_ses-01_part-01_label-phase1,3.2.4,Win32,60,right,0.940999985,4,0,4,0,1,3,1,0,240,67,1,239,,,,,,,,,,,,,,,,,,
,,1,49,,,,,,,2,3,1,stim/31.jpeg,Instruments,2,stim/objects/Instruments/clarinet.png,0.7,4,0.2,-0.15,right,5,2020-12-08_10h04.34.556,premup-three_ses-01_part-01_label-phase1,3.2.4,Win32,60,right,0.592999935,4,0,4,0,1,3,1,0,240,108,1,239,,,,,,,,,,,,,,,,,,
,,1,50,,,,,,,3,6,4,stim/64.jpeg,HouseObjects,1,stim/objects/HouseObjects/clothespin2.png,0.9,1,-0.2,0.15,left,5,2020-12-08_10h04.34.556,premup-three_ses-01_part-01_label-phase1,3.2.4,Win32,60,left,0.509000063,4,0,4,0,1,3,1,0,240,215,1,239,,,,,,,,,,,,,,,,,,
,,0,51,,,,,,,2,3,1,stim/31.jpeg,HouseObjects,1,stim/objects/HouseObjects/bucket.png,0.3,3,-0.2,-0.15,left,5,2020-12-08_10h04.34.556,premup-three_ses-01_part-01_label-phase1,3.2.4,Win32,60,right,0.645999908,4,0,4,0,1,3,1,0,240,80,1,239,,,,,,,,,,,,,,,,,,
,,1,52,,,,,,,3,5,3,stim/53.jpeg,Instruments,2,stim/objects/Instruments/cello2.png,0.9,3,-0.2,-0.15,right,5,2020-12-08_10h04.34.556,premup-three_ses-01_part-01_label-phase1,3.2.4,Win32,60,right,0.639000177,4,0,4,0,1,3,1,0,240,166,1,239,,,,,,,,,,,,,,,,,,
,,1,53,,,,,,,3,5,3,stim/53.jpeg,Instruments,2,stim/objects/Instruments/cello2.png,0.9,4,0.2,-0.15,right,5,2020-12-08_10h04.34.556,premup-three_ses-01_part-01_label-phase1,3.2.4,Win32,60,right,0.628999949,4,0,4,0,1,3,1,0,240,194,1,239,,,,,,,,,,,,,,,,,,
,,0,54,,,,,,,2,4,4,stim/44.jpeg,HouseObjects,1,stim/objects/HouseObjects/basket2.png,0.7,3,-0.2,-0.15,left,5,2020-12-08_10h04.34.556,premup-three_ses-01_part-01_label-phase1,3.2.4,Win32,60,right,0.48300004,4,0,4,0,1,3,1,0,240,147,1,239,,,,,,,,,,,,,,,,,,
,,0,55,,,,,,,2,3,2,stim/32.jpeg,HouseObjects,1,stim/objects/HouseObjects/clock.png,0.3,4,0.2,-0.15,left,5,2020-12-08_10h04.34.556,premup-three_ses-01_part-01_label-phase1,3.2.4,Win32,60,right,0.726999998,4,0,4,0,1,3,1,0,240,89,1,239,,,,,,,,,,,,,,,,,,
,,0,56,,,,,,,2,3,2,stim/32.jpeg,Instruments,2,stim/objects/Instruments/cornet.png,0.7,4,0.2,-0.15,right,5,2020-12-08_10h04.34.556,premup-three_ses-01_part-01_label-phase1,3.2.4,Win32,60,left,0.639000177,4,0,4,0,1,3,1,0,240,117,1,239,,,,,,,,,,,,,,,,,,
,,1,57,,,,,,,3,5,2,stim/52.jpeg,Instruments,2,stim/objects/Instruments/bassguitar2.png,0.9,4,0.2,-0.15,right,5,2020-12-08_10h04.34.556,premup-three_ses-01_part-01_label-phase1,3.2.4,Win32,60,right,0.56799984,4,0,4,0,1,3,1,0,240,165,1,239,,,,,,,,,,,,,,,,,,
,,1,58,,,,,,,2,4,1,stim/41.jpeg,HouseObjects,1,stim/objects/HouseObjects/ashtray2.png,0.7,2,0.2,0.15,left,5,2020-12-08_10h04.34.556,premup-three_ses-01_part-01_label-phase1,3.2.4,Win32,60,left,1.15199995,4,0,4,0,1,3,1,0,240,120,1,239,,,,,,,,,,,,,,,,,,
,,0,59,,,,,,,2,3,2,stim/32.jpeg,Instruments,2,stim/objects/Instruments/cornet.png,0.7,2,0.2,0.15,right,5,2020-12-08_10h04.34.556,premup-three_ses-01_part-01_label-phase1,3.2.4,Win32,60,left,0.659999847,4,0,4,0,1,3,1,0,240,97,1,239,,,,,,,,,,,,,,,,,,
,,1,60,,,,,,,2,3,1,stim/31.jpeg,HouseObjects,1,stim/objects/HouseObjects/bucket.png,0.3,2,0.2,0.15,left,5,2020-12-08_10h04.34.556,premup-three_ses-01_part-01_label-phase1,3.2.4,Win32,60,left,0.65899992,4,0,4,0,1,3,1,0,240,84,1,239,,,,,,,,,,,,,,,,,,
,,1,61,,,,,,,3,5,4,stim/54.jpeg,Instruments,2,stim/objects/Instruments/chime2.png,0.9,3,-0.2,-0.15,right,5,2020-12-08_10h04.34.556,premup-three_ses-01_part-01_label-phase1,3.2.4,Win32,60,right,0.455999851,4,0,4,0,1,3,1,0,240,183,1,239,,,,,,,,,,,,,,,,,,
,,1,62,,,,,,,2,4,2,stim/42.jpeg,HouseObjects,1,stim/objects/HouseObjects/ballofstring2.png,0.7,2,0.2,0.15,left,5,2020-12-08_10h04.34.556,premup-three_ses-01_part-01_label-phase1,3.2.4,Win32,60,left,0.853000164,4,0,4,0,1,3,1,0,240,129,1,239,,,,,,,,,,,,,,,,,,
,,1,63,,,,,,,3,6,2,stim/62.jpeg,HouseObjects,1,stim/objects/HouseObjects/clock2.png,0.9,1,-0.2,0.15,left,5,2020-12-08_10h04.34.556,premup-three_ses-01_part-01_label-phase1,3.2.4,Win32,60,left,0.632999897,4,0,4,0,1,3,1,0,240,233,1,239,,,,,,,,,,,,,,,,,,
,,1,64,,,,,,,3,5,3,stim/53.jpeg,Instruments,2,stim/objects/Instruments/cello2.png,0.9,1,-0.2,0.15,right,5,2020-12-08_10h04.34.556,premup-three_ses-01_part-01_label-phase1,3.2.4,Win32,60,right,0.870999813,4,0,4,0,1,3,1,0,240,198,1,239,,,,,,,,,,,,,,,,,,
,,1,65,,,,,,,1,1,4,stim/14.jpeg,HouseObjects,1,stim/objects/HouseObjects/basket.png,0.5,4,0.2,-0.15,left,5,2020-12-08_10h04.34.556,premup-three_ses-01_part-01_label-phase1,3.2.4,Win32,60,left,0.758000135,4,0,4,0,1,3,1,0,240,7,1,239,,,,,,,,,,,,,,,,,,
,,0,66,,,,,,,1,1,1,stim/11.jpeg,Instruments,2,stim/objects/Instruments/accordion.png,0.5,3,-0.2,-0.15,right,5,2020-12-08_10h04.34.556,premup-three_ses-01_part-01_label-phase1,3.2.4,Win32,60,left,0.726999998,4,0,4,0,1,3,1,0,240,28,1,239,,,,,,,,,,,,,,,,,,
,,1,67,,,,,,,2,4,4,stim/44.jpeg,Instruments,2,stim/objects/Instruments/banjo2.png,0.3,4,0.2,-0.15,right,5,2020-12-08_10h04.34.556,premup-three_ses-01_part-01_label-phase1,3.2.4,Win32,60,right,0.458000183,4,0,4,0,1,3,1,0,240,159,1,239,,,,,,,,,,,,,,,,,,
,,0,68,,,,,,,2,4,2,stim/42.jpeg,Instruments,2,stim/objects/Instruments/acousticguitar2.png,0.3,4,0.2,-0.15,right,5,2020-12-08_10h04.34.556,premup-three_ses-01_part-01_label-phase1,3.2.4,Win32,60,left,0.642999887,4,0,4,0,1,3,1,0,240,149,1,239,,,,,,,,,,,,,,,,,,
,,1,69,,,,,,,2,3,4,stim/34.jpeg,Instruments,2,stim/objects/Instruments/doublebass.png,0.7,4,0.2,-0.15,right,5,2020-12-08_10h04.34.556,premup-three_ses-01_part-01_label-phase1,3.2.4,Win32,60,right,0.727999926,4,0,4,0,1,3,1,0,240,119,1,239,,,,,,,,,,,,,,,,,,
,,1,70,,,,,,,3,6,4,stim/64.jpeg,HouseObjects,1,stim/objects/HouseObjects/clothespin2.png,0.9,3,-0.2,-0.15,left,5,2020-12-08_10h04.34.556,premup-three_ses-01_part-01_label-phase1,3.2.4,Win32,60,left,0.536000013,4,0,4,0,1,3,1,0,240,231,1,239,,,,,,,,,,,,,,,,,,
,,1,71,,,,,,,2,3,3,stim/33.jpeg,Instruments,2,stim/objects/Instruments/cymbal.png,0.7,3,-0.2,-0.15,right,5,2020-12-08_10h04.34.556,premup-three_ses-01_part-01_label-phase1,3.2.4,Win32,60,right,0.926000118,4,0,4,0,1,3,1,0,240,98,1,239,,,,,,,,,,,,,,,,,,
,,0,72,,,,,,,2,4,2,stim/42.jpeg,HouseObjects,1,stim/objects/HouseObjects/ballofstring2.png,0.7,3,-0.2,-0.15,left,5,2020-12-08_10h04.34.556,premup-three_ses-01_part-01_label-phase1,3.2.4,Win32,60,right,0.661999941,4,0,4,0,1,3,1,0,240,121,1,239,,,,,,,,,,,,,,,,,,
,,0,73,,,,,,,2,3,3,stim/33.jpeg,HouseObjects,1,stim/objects/HouseObjects/clothesdryingrack.png,0.3,1,-0.2,0.15,left,5,2020-12-08_10h04.34.556,premup-three_ses-01_part-01_label-phase1,3.2.4,Win32,60,right,0.717000008,4,0,4,0,1,3,1,0,240,86,1,239,,,,,,,,,,,,,,,,,,
,,1,74,,,,,,,1,1,1,stim/11.jpeg,HouseObjects,1,stim/objects/HouseObjects/ashtray.png,0.5,4,0.2,-0.15,left,5,2020-12-08_10h04.34.556,premup-three_ses-01_part-01_label-phase1,3.2.4,Win32,60,left,0.812000036,4,0,4,0,1,3,1,0,240,16,1,239,,,,,,,,,,,,,,,,,,
,,1,75,,,,,,,2,4,1,stim/41.jpeg,HouseObjects,1,stim/objects/HouseObjects/ashtray2.png,0.7,2,0.2,0.15,left,5,2020-12-08_10h04.34.556,premup-three_ses-01_part-01_label-phase1,3.2.4,Win32,60,left,0.957999945,4,0,4,0,1,3,1,0,240,136,1,239,,,,,,,,,,,,,,,,,,
,,1,76,,,,,,,3,6,3,stim/63.jpeg,HouseObjects,1,stim/objects/HouseObjects/clothesdryingrack2.png,0.9,2,0.2,0.15,left,5,2020-12-08_10h04.34.556,premup-three_ses-01_part-01_label-phase1,3.2.4,Win32,60,left,0.528000116,4,0,4,0,1,3,1,0,240,202,1,239,,,,,,,,,,,,,,,,,,
,,0,77,,,,,,,1,1,2,stim/12.jpeg,Instruments,2,stim/objects/Instruments/acousticguitar.png,0.5,2,0.2,0.15,right,5,2020-12-08_10h04.34.556,premup-three_ses-01_part-01_label-phase1,3.2.4,Win32,60,left,0.571000099,4,0,4,0,1,3,1,0,240,25,1,239,,,,,,,,,,,,,,,,,,
,,0,78,,,,,,,2,4,3,stim/43.jpeg,HouseObjects,1,stim/objects/HouseObjects/barbecuelighter2.png,0.7,2,0.2,0.15,left,5,2020-12-08_10h04.34.556,premup-three_ses-01_part-01_label-phase1,3.2.4,Win32,60,right,0.899000168,4,0,4,0,1,3,1,0,240,126,1,239,,,,,,,,,,,,,,,,,,
,,0,79,,,,,,,2,4,1,stim/41.jpeg,HouseObjects,1,stim/objects/HouseObjects/ashtray2.png,0.7,4,0.2,-0.15,left,5,2020-12-08_10h04.34.556,premup-three_ses-01_part-01_label-phase1,3.2.4,Win32,60,right,0.549999952,4,0,4,0,1,3,1,0,240,128,1,239,,,,,,,,,,,,,,,,,,
,,1,80,,,,,,,2,4,2,stim/42.jpeg,HouseObjects,1,stim/objects/HouseObjects/ballofstring2.png,0.7,2,0.2,0.15,left,5,2020-12-08_10h04.34.556,premup-three_ses-01_part-01_label-phase1,3.2.4,Win32,60,left,0.742999792,4,0,4,0,1,3,1,0,240,133,1,239,,,,,,,,,,,,,,,,,,
,,1,81,,,,,,,3,5,1,stim/51.jpeg,Instruments,2,stim/objects/Instruments/bassdrum2.png,0.9,1,-0.2,0.15,right,5,2020-12-08_10h04.34.556,premup-three_ses-01_part-01_label-phase1,3.2.4,Win32,60,right,0.573999882,4,0,4,0,1,3,1,0,240,188,1,239,,,,,,,,,,,,,,,,,,
,,0,82,,,,,,,2,4,3,stim/43.jpeg,HouseObjects,1,stim/objects/HouseObjects/barbecuelighter2.png,0.7,2,0.2,0.15,left,5,2020-12-08_10h04.34.556,premup-three_ses-01_part-01_label-phase1,3.2.4,Win32,60,right,0.650000095,4,0,4,0,1,3,1,0,240,122,1,239,,,,,,,,,,,,,,,,,,
,,1,83,,,,,,,1,1,3,stim/13.jpeg,HouseObjects,1,stim/objects/HouseObjects/barbecuelighter.png,0.5,1,-0.2,0.15,left,5,2020-12-08_10h04.34.556,premup-three_ses-01_part-01_label-phase1,3.2.4,Win32,60,left,0.801999807,4,0,4,0,1,3,1,0,240,6,1,239,,,,,,,,,,,,,,,,,,
,,1,84,,,,,,,1,2,3,stim/23.jpeg,Instruments,2,stim/objects/Instruments/cello.png,0.5,4,0.2,-0.15,right,5,2020-12-08_10h04.34.556,premup-three_ses-01_part-01_label-phase1,3.2.4,Win32,60,right,0.707000017,4,0,4,0,1,3,1,0,240,74,1,239,,,,,,,,,,,,,,,,,,
,,1,85,,,,,,,3,5,3,stim/53.jpeg,Instruments,2,stim/objects/Instruments/cello2.png,0.9,1,-0.2,0.15,right,5,2020-12-08_10h04.34.556,premup-three_ses-01_part-01_label-phase1,3.2.4,Win32,60,right,0.608999968,4,0,4,0,1,3,1,0,240,174,1,239,,,,,,,,,,,,,,,,,,
,,0,86,,,,,,,1,2,4,stim/24.jpeg,HouseObjects,1,stim/objects/HouseObjects/broom.png,0.5,4,0.2,-0.15,left,5,2020-12-08_10h04.34.556,premup-three_ses-01_part-01_label-phase1,3.2.4,Win32,60,right,0.720000029,4,0,4,0,1,3,1,0,240,51,1,239,,,,,,,,,,,,,,,,,,
,,1,87,,,,,,,3,6,2,stim/62.jpeg,HouseObjects,1,stim/objects/HouseObjects/clock2.png,0.9,3,-0.2,-0.15,left,5,2020-12-08_10h04.34.556,premup-three_ses-01_part-01_label-phase1,3.2.4,Win32,60,left,0.529999971,4,0,4,0,1,3,1,0,240,229,1,239,,,,,,,,,,,,,,,,,,
,,0,88,,,,,,,2,3,3,stim/33.jpeg,Instruments,2,stim/objects/Instruments/cymbal.png,0.7,1,-0.2,0.15,right,5,2020-12-08_10h04.34.556,premup-three_ses-01_part-01_label-phase1,3.2.4,Win32,60,left,1.180999994,4,0,4,0,1,3,1,0,240,114,1,239,,,,,,,,,,,,,,,,,,
,,0,89,,,,,,,3,6,2,stim/62.jpeg,Instruments,2,stim/objects/Instruments/cornet2.png,0.1,1,-0.2,0.15,right,5,2020-12-08_10h04.34.556,premup-three_ses-01_part-01_label-phase1,3.2.4,Win32,60,left,0.585000038,4,0,4,0,1,3,1,0,240,237,1,239,,,,,,,,,,,,,,,,,,
,,1,90,,,,,,,1,2,3,stim/23.jpeg,HouseObjects,1,stim/objects/HouseObjects/bottle.png,0.5,2,0.2,0.15,left,5,2020-12-08_10h04.34.556,premup-three_ses-01_part-01_label-phase1,3.2.4,Win32,60,left,0.80099988,4,0,4,0,1,3,1,0,240,54,1,239,,,,,,,,,,,,,,,,,,
,,0,91,,,,,,,2,4,2,stim/42.jpeg,Instruments,2,stim/objects/Instruments/acousticguitar2.png,0.3,2,0.2,0.15,right,5,2020-12-08_10h04.34.556,premup-three_ses-01_part-01_label-phase1,3.2.4,Win32,60,left,0.85800004,4,0,4,0,1,3,1,0,240,153,1,239,,,,,,,,,,,,,,,,,,
,,1,92,,,,,,,1,2,3,stim/23.jpeg,Instruments,2,stim/objects/Instruments/cello.png,0.5,3,-0.2,-0.15,right,5,2020-12-08_10h04.34.556,premup-three_ses-01_part-01_label-phase1,3.2.4,Win32,60,right,0.898999929,4,0,4,0,1,3,1,0,240,66,1,239,,,,,,,,,,,,,,,,,,
,,1,93,,,,,,,3,6,3,stim/63.jpeg,HouseObjects,1,stim/objects/HouseObjects/clothesdryingrack2.png,0.9,1,-0.2,0.15,left,5,2020-12-08_10h04.34.556,premup-three_ses-01_part-01_label-phase1,3.2.4,Win32,60,left,0.618999958,4,0,4,0,1,3,1,0,240,226,1,239,,,,,,,,,,,,,,,,,,
,,1,94,,,,,,,1,2,2,stim/22.jpeg,Instruments,2,stim/objects/Instruments/bassguitar.png,0.5,1,-0.2,0.15,right,5,2020-12-08_10h04.34.556,premup-three_ses-01_part-01_label-phase1,3.2.4,Win32,60,right,1.065999985,4,0,4,0,1,3,1,0,240,61,1,239,,,,,,,,,,,,,,,,,,
,,1,95,,,,,,,1,1,4,stim/14.jpeg,HouseObjects,1,stim/objects/HouseObjects/basket.png,0.5,3,-0.2,-0.15,left,5,2020-12-08_10h04.34.556,premup-three_ses-01_part-01_label-phase1,3.2.4,Win32,60,left,0.819000006,4,0,4,0,1,3,1,0,240,11,1,239,,,,,,,,,,,,,,,,,,
,,1,96,,,,,,,3,5,2,stim/52.jpeg,Instruments,2,stim/objects/Instruments/bassguitar2.png,0.9,3,-0.2,-0.15,right,5,2020-12-08_10h04.34.556,premup-three_ses-01_part-01_label-phase1,3.2.4,Win32,60,right,0.644999981,4,0,4,0,1,3,1,0,240,185,1,239,,,,,,,,,,,,,,,,,,
,,1,97,,,,,,,3,6,2,stim/62.jpeg,HouseObjects,1,stim/objects/HouseObjects/clock2.png,0.9,3,-0.2,-0.15,left,5,2020-12-08_10h04.34.556,premup-three_ses-01_part-01_label-phase1,3.2.4,Win32,60,left,0.625999928,4,0,4,0,1,3,1,0,240,213,1,239,,,,,,,,,,,,,,,,,,
,,0,98,,,,,,,1,2,4,stim/24.jpeg,Instruments,2,stim/objects/Instruments/chime.png,0.5,1,-0.2,0.15,right,5,2020-12-08_10h04.34.556,premup-three_ses-01_part-01_label-phase1,3.2.4,Win32,60,left,1.101000071,4,0,4,0,1,3,1,0,240,79,1,239,,,,,,,,,,,,,,,,,,
,,1,99,,,,,,,3,6,4,stim/64.jpeg,HouseObjects,1,stim/objects/HouseObjects/clothespin2.png,0.9,3,-0.2,-0.15,left,5,2020-12-08_10h04.34.556,premup-three_ses-01_part-01_label-phase1,3.2.4,Win32,60,left,0.522999763,4,0,4,0,1,3,1,0,240,219,1,239,,,,,,,,,,,,,,,,,,
,,1,100,,,,,,,1,2,4,stim/24.jpeg,Instruments,2,stim/objects/Instruments/chime.png,0.5,1,-0.2,0.15,right,5,2020-12-08_10h04.34.556,premup-three_ses-01_part-01_label-phase1,3.2.4,Win32,60,right,1.129999876,4,0,4,0,1,3,1,0,240,71,1,239,,,,,,,,,,,,,,,,,,
,,0,101,,,,,,,2,3,2,stim/32.jpeg,HouseObjects,1,stim/objects/HouseObjects/clock.png,0.3,2,0.2,0.15,left,5,2020-12-08_10h04.34.556,premup-three_ses-01_part-01_label-phase1,3.2.4,Win32,60,right,0.871000051,4,0,4,0,1,3,1,0,240,81,1,239,,,,,,,,,,,,,,,,,,
,,0,102,,,,,,,2,3,3,stim/33.jpeg,Instruments,2,stim/objects/Instruments/cymbal.png,0.7,2,0.2,0.15,right,5,2020-12-08_10h04.34.556,premup-three_ses-01_part-01_label-phase1,3.2.4,Win32,60,left,0.605000019,4,0,4,0,1,3,1,0,240,106,1,239,,,,,,,,,,,,,,,,,,
,,1,103,,,,,,,2,4,1,stim/41.jpeg,HouseObjects,1,stim/objects/HouseObjects/ashtray2.png,0.7,2,0.2,0.15,left,5,2020-12-08_10h04.34.556,premup-three_ses-01_part-01_label-phase1,3.2.4,Win32,60,left,1.387000084,4,0,4,0,1,3,1,0,240,124,1,239,,,,,,,,,,,,,,,,,,
,,1,104,,,,,,,3,6,1,stim/61.jpeg,HouseObjects,1,stim/objects/HouseObjects/bucket2.png,0.9,2,0.2,0.15,left,5,2020-12-08_10h04.34.556,premup-three_ses-01_part-01_label-phase1,3.2.4,Win32,60,left,0.61500001,4,0,4,0,1,3,1,0,240,200,1,239,,,,,,,,,,,,,,,,,,
,,1,105,,,,,,,3,5,2,stim/52.jpeg,Instruments,2,stim/objects/Instruments/bassguitar2.png,0.9,1,-0.2,0.15,right,5,2020-12-08_10h04.34.556,premup-three_ses-01_part-01_label-phase1,3.2.4,Win32,60,right,0.764999866,4,0,4,0,1,3,1,0,240,173,1,239,,,,,,,,,,,,,,,,,,
,,1,106,,,,,,,3,6,4,stim/64.jpeg,HouseObjects,1,stim/objects/HouseObjects/clothespin2.png,0.9,3,-0.2,-0.15,left,5,2020-12-08_10h04.34.556,premup-three_ses-01_part-01_label-phase1,3.2.4,Win32,60,left,0.523000002,4,0,4,0,1,3,1,0,240,211,1,239,,,,,,,,,,,,,,,,,,
,,1,107,,,,,,,2,3,4,stim/34.jpeg,Instruments,2,stim/objects/Instruments/doublebass.png,0.7,3,-0.2,-0.15,right,5,2020-12-08_10h04.34.556,premup-three_ses-01_part-01_label-phase1,3.2.4,Win32,60,right,0.788999796,4,0,4,0,1,3,1,0,240,111,1,239,,,,,,,,,,,,,,,,,,
,,0,108,,,,,,,1,1,2,stim/12.jpeg,HouseObjects,1,stim/objects/HouseObjects/ballofstring.png,0.5,1,-0.2,0.15,left,5,2020-12-08_10h04.34.556,premup-three_ses-01_part-01_label-phase1,3.2.4,Win32,60,right,1.112999916,4,0,4,0,1,3,1,0,240,13,1,239,,,,,,,,,,,,,,,,,,
,,1,109,,,,,,,3,5,2,stim/52.jpeg,Instruments,2,stim/objects/Instruments/bassguitar2.png,0.9,1,-0.2,0.15,right,5,2020-12-08_10h04.34.556,premup-three_ses-01_part-01_label-phase1,3.2.4,Win32,60,right,0.608999968,4,0,4,0,1,3,1,0,240,189,1,239,,,,,,,,,,,,,,,,,,
,,1,110,,,,,,,3,5,3,stim/53.jpeg,Instruments,2,stim/objects/Instruments/cello2.png,0.9,2,0.2,0.15,right,5,2020-12-08_10h04.34.556,premup-three_ses-01_part-01_label-phase1,3.2.4,Win32,60,right,0.705000162,4,0,4,0,1,3,1,0,240,170,1,239,,,,,,,,,,,,,,,,,,
,,0,111,,,,,,,2,3,4,stim/34.jpeg,HouseObjects,1,stim/objects/HouseObjects/clothespin.png,0.3,1,-0.2,0.15,left,5,2020-12-08_10h04.34.556,premup-three_ses-01_part-01_label-phase1,3.2.4,Win32,60,right,0.843999863,4,0,4,0,1,3,1,0,240,87,1,239,,,,,,,,,,,,,,,,,,
,,1,112,,,,,,,3,6,1,stim/61.jpeg,HouseObjects,1,stim/objects/HouseObjects/bucket2.png,0.9,3,-0.2,-0.15,left,5,2020-12-08_10h04.34.556,premup-three_ses-01_part-01_label-phase1,3.2.4,Win32,60,left,0.57400012,4,0,4,0,1,3,1,0,240,220,1,239,,,,,,,,,,,,,,,,,,
,,1,113,,,,,,,3,6,3,stim/63.jpeg,HouseObjects,1,stim/objects/HouseObjects/clothesdryingrack2.png,0.9,2,0.2,0.15,left,5,2020-12-08_10h04.34.556,premup-three_ses-01_part-01_label-phase1,3.2.4,Win32,60,left,0.611999989,4,0,4,0,1,3,1,0,240,206,1,239,,,,,,,,,,,,,,,,,,
,,1,114,,,,,,,3,5,4,stim/54.jpeg,Instruments,2,stim/objects/Instruments/chime2.png,0.9,3,-0.2,-0.15,right,5,2020-12-08_10h04.34.556,premup-three_ses-01_part-01_label-phase1,3.2.4,Win32,60,right,0.643000126,4,0,4,0,1,3,1,0,240,199,1,239,,,,,,,,,,,,,,,,,,
,,1,115,,,,,,,1,1,3,stim/13.jpeg,HouseObjects,1,stim/objects/HouseObjects/barbecuelighter.png,0.5,3,-0.2,-0.15,left,5,2020-12-08_10h04.34.556,premup-three_ses-01_part-01_label-phase1,3.2.4,Win32,60,left,0.975999832,4,0,4,0,1,3,1,0,240,2,1,239,,,,,,,,,,,,,,,,,,
,,1,116,,,,,,,1,1,4,stim/14.jpeg,Instruments,2,stim/objects/Instruments/banjo.png,0.5,3,-0.2,-0.15,right,5,2020-12-08_10h04.34.556,premup-three_ses-01_part-01_label-phase1,3.2.4,Win32,60,right,0.819999933,4,0,4,0,1,3,1,0,240,39,1,239,,,,,,,,,,,,,,,,,,
,,0,117,,,,,,,1,2,2,stim/22.jpeg,Instruments,2,stim/objects/Instruments/bassguitar.png,0.5,1,-0.2,0.15,right,5,2020-12-08_10h04.34.556,premup-three_ses-01_part-01_label-phase1,3.2.4,Win32,60,left,1.210000038,4,0,4,0,1,3,1,0,240,77,1,239,,,,,,,,,,,,,,,,,,
,,1,118,,,,,,,1,2,3,stim/23.jpeg,Instruments,2,stim/objects/Instruments/cello.png,0.5,4,0.2,-0.15,right,5,2020-12-08_10h04.34.556,premup-three_ses-01_part-01_label-phase1,3.2.4,Win32,60,right,0.930000067,4,0,4,0,1,3,1,0,240,62,1,239,,,,,,,,,,,,,,,,,,
,,1,119,,,,,,,1,1,4,stim/14.jpeg,HouseObjects,1,stim/objects/HouseObjects/basket.png,0.5,2,0.2,0.15,left,5,2020-12-08_10h04.34.556,premup-three_ses-01_part-01_label-phase1,3.2.4,Win32,60,left,0.862999916,4,0,4,0,1,3,1,0,240,19,1,239,,,,,,,,,,,,,,,,,,
,,1,120,,,,,,,1,1,4,stim/14.jpeg,HouseObjects,1,stim/objects/HouseObjects/basket.png,0.5,4,0.2,-0.15,left,5,2020-12-08_10h04.34.556,premup-three_ses-01_part-01_label-phase1,3.2.4,Win32,60,left,0.825999975,4,0,4,0,1,3,1,0,240,3,1,239,,,,,,,,,,,,,,,,,,
,,1,121,,,,,,,3,6,2,stim/62.jpeg,HouseObjects,1,stim/objects/HouseObjects/clock2.png,0.9,4,0.2,-0.15,left,5,2020-12-08_10h04.34.556,premup-three_ses-01_part-01_label-phase1,3.2.4,Win32,60,left,0.57400012,4,0,4,0,1,3,1,0,240,201,1,239,,,,,,,,,,,,,,,,,,
,,1,122,,,,,,,2,3,1,stim/31.jpeg,Instruments,2,stim/objects/Instruments/clarinet.png,0.7,3,-0.2,-0.15,right,5,2020-12-08_10h04.34.556,premup-three_ses-01_part-01_label-phase1,3.2.4,Win32,60,right,0.932999849,4,0,4,0,1,3,1,0,240,112,1,239,,,,,,,,,,,,,,,,,,
,,0,123,,,,,,,1,1,4,stim/14.jpeg,Instruments,2,stim/objects/Instruments/banjo.png,0.5,1,-0.2,0.15,right,5,2020-12-08_10h04.34.556,premup-three_ses-01_part-01_label-phase1,3.2.4,Win32,60,left,0.746999979,4,0,4,0,1,3,1,0,240,23,1,239,,,,,,,,,,,,,,,,,,
,,0,124,,,,,,,2,3,4,stim/34.jpeg,Instruments,2,stim/objects/Instruments/doublebass.png,0.7,3,-0.2,-0.15,right,5,2020-12-08_10h04.34.556,premup-three_ses-01_part-01_label-phase1,3.2.4,Win32,60,left,1.17599988,4,0,4,0,1,3,1,0,240,107,1,239,,,,,,,,,,,,,,,,,,
,,0,125,,,,,,,1,1,1,stim/11.jpeg,Instruments,2,stim/objects/Instruments/accordion.png,0.5,4,0.2,-0.15,right,5,2020-12-08_10h04.34.556,premup-three_ses-01_part-01_label-phase1,3.2.4,Win32,60,left,1.125,4,0,4,0,1,3,1,0,240,24,1,239,,,,,,,,,,,,,,,,,,
,,1,126,,,,,,,1,1,3,stim/13.jpeg,HouseObjects,1,stim/objects/HouseObjects/barbecuelighter.png,0.5,3,-0.2,-0.15,left,5,2020-12-08_10h04.34.556,premup-three_ses-01_part-01_label-phase1,3.2.4,Win32,60,left,0.727999926,4,0,4,0,1,3,1,0,240,18,1,239,,,,,,,,,,,,,,,,,,
,,0,127,,,,,,,3,6,1,stim/61.jpeg,HouseObjects,1,stim/objects/HouseObjects/bucket2.png,0.9,2,0.2,0.15,left,5,2020-12-08_10h04.34.556,premup-three_ses-01_part-01_label-phase1,3.2.4,Win32,60,right,0.489000082,4,0,4,0,1,3,1,0,240,208,1,239,,,,,,,,,,,,,,,,,,
,,0,128,,,,,,,2,4,2,stim/42.jpeg,HouseObjects,1,stim/objects/HouseObjects/ballofstring2.png,0.7,3,-0.2,-0.15,left,5,2020-12-08_10h04.34.556,premup-three_ses-01_part-01_label-phase1,3.2.4,Win32,60,right,0.831999779,4,0,4,0,1,3,1,0,240,145,1,239,,,,,,,,,,,,,,,,,,
,,0,129,,,,,,,1,1,2,stim/12.jpeg,Instruments,2,stim/objects/Instruments/acousticguitar.png,0.5,4,0.2,-0.15,right,5,2020-12-08_10h04.34.556,premup-three_ses-01_part-01_label-phase1,3.2.4,Win32,60,left,0.759000063,4,0,4,0,1,3,1,0,240,37,1,239,,,,,,,,,,,,,,,,,,
,,1,130,,,,,,,2,3,1,stim/31.jpeg,Instruments,2,stim/objects/Instruments/clarinet.png,0.7,3,-0.2,-0.15,right,5,2020-12-08_10h04.34.556,premup-three_ses-01_part-01_label-phase1,3.2.4,Win32,60,right,1.309000015,4,0,4,0,1,3,1,0,240,116,1,239,,,,,,,,,,,,,,,,,,
,,1,131,,,,,,,3,6,1,stim/61.jpeg,HouseObjects,1,stim/objects/HouseObjects/bucket2.png,0.9,2,0.2,0.15,left,5,2020-12-08_10h04.34.556,premup-three_ses-01_part-01_label-phase1,3.2.4,Win32,60,left,0.555999994,4,0,4,0,1,3,1,0,240,224,1,239,,,,,,,,,,,,,,,,,,
,,1,132,,,,,,,1,1,4,stim/14.jpeg,Instruments,2,stim/objects/Instruments/banjo.png,0.5,1,-0.2,0.15,right,5,2020-12-08_10h04.34.556,premup-three_ses-01_part-01_label-phase1,3.2.4,Win32,60,right,0.73300004,4,0,4,0,1,3,1,0,240,27,1,239,,,,,,,,,,,,,,,,,,
,,1,133,,,,,,,1,1,2,stim/12.jpeg,HouseObjects,1,stim/objects/HouseObjects/ballofstring.png,0.5,2,0.2,0.15,left,5,2020-12-08_10h04.34.556,premup-three_ses-01_part-01_label-phase1,3.2.4,Win32,60,left,0.878000021,4,0,4,0,1,3,1,0,240,5,1,239,,,,,,,,,,,,,,,,,,
