key_resp_pract.keys,key_resp_pract.rt,trial_acc,trial_index,practice_loop.thisRepN,practice_loop.thisTrialN,practice_loop.thisN,practice_loop.thisIndex,practice_loop.ran,practice_loop.order,scn_condition,scn_cat,scn_inst,scn_file,obj_cat,obj_cat_num,obj_file,trial_cond,quadrant,obj_x,obj_y,corr_ans,participant,date,expName,psychopyVersion,OS,frameRate,key_resp_trial.keys,key_resp_trial.rt,iterations.thisRepN,iterations.thisTrialN,iterations.thisN,iterations.thisIndex,iterations.ran,iterations.order,task_innerloop.thisRepN,task_innerloop.thisTrialN,task_innerloop.thisN,task_innerloop.thisIndex,task_innerloop.ran,task_innerloop.order,iteration_index,rating_acc,slider.response,slider.rt,slider_2.response,slider_2.rt,ratings.thisRepN,ratings.thisTrialN,ratings.thisN,ratings.thisIndex,ratings.ran,ratings.order,obj_cat_top,min_resp_top,max_resp_top,obj_cat_bottom,min_resp_bottom,max_resp_bottom
,,0,1,1,0,240,89,1,239,2,1,2,stim/12.jpeg,HouseObjects,1,stim/objects/HouseObjects/remote.png,0.3,3,-0.2,-0.15,left,7,2020-11-17_18h17.36.804,premup-three_ses-01_part-01_label-phase1,3.2.4,Linux x86_64,60,,,,,,,,,,,,,,,,,,,,,,,,,,,,,,,,
,,0,2,1,0,240,19,1,239,1,5,4,stim/54.jpeg,HouseObjects,1,stim/objects/HouseObjects/knife.png,0.5,3,-0.2,-0.15,left,7,2020-11-17_18h17.36.804,premup-three_ses-01_part-01_label-phase1,3.2.4,Linux x86_64,60,,,,,,,,,,,,,,,,,,,,,,,,,,,,,,,,
,,0,3,1,0,240,208,1,239,3,4,1,stim/41.jpeg,HouseObjects,1,stim/objects/HouseObjects/recyclingbin2.png,0.9,4,0.2,-0.15,left,7,2020-11-17_18h17.36.804,premup-three_ses-01_part-01_label-phase1,3.2.4,Linux x86_64,60,,,,,,,,,,,,,,,,,,,,,,,,,,,,,,,,
,,0,4,1,0,240,86,1,239,2,1,3,stim/13.jpeg,HouseObjects,1,stim/objects/HouseObjects/rubbergloves.png,0.3,4,0.2,-0.15,left,7,2020-11-17_18h17.36.804,premup-three_ses-01_part-01_label-phase1,3.2.4,Linux x86_64,60,,,,,,,,,,,,,,,,,,,,,,,,,,,,,,,,
,,0,5,1,0,240,220,1,239,3,4,1,stim/41.jpeg,HouseObjects,1,stim/objects/HouseObjects/recyclingbin2.png,0.9,2,0.2,0.15,left,7,2020-11-17_18h17.36.804,premup-three_ses-01_part-01_label-phase1,3.2.4,Linux x86_64,60,,,,,,,,,,,,,,,,,,,,,,,,,,,,,,,,
,,0,6,1,0,240,163,1,239,3,3,4,stim/34.jpeg,HouseObjects,1,stim/objects/HouseObjects/pitcher2.png,0.1,4,0.2,-0.15,left,7,2020-11-17_18h17.36.804,premup-three_ses-01_part-01_label-phase1,3.2.4,Linux x86_64,60,,,,,,,,,,,,,,,,,,,,,,,,,,,,,,,,
,,0,7,1,0,240,36,1,239,1,5,1,stim/51.jpeg,Instruments,2,stim/objects/Instruments/keyboard.png,0.5,3,-0.2,-0.15,right,7,2020-11-17_18h17.36.804,premup-three_ses-01_part-01_label-phase1,3.2.4,Linux x86_64,60,,,,,,,,,,,,,,,,,,,,,,,,,,,,,,,,
,,0,8,1,0,240,14,1,239,1,5,3,stim/53.jpeg,HouseObjects,1,stim/objects/HouseObjects/key.png,0.5,4,0.2,-0.15,left,7,2020-11-17_18h17.36.804,premup-three_ses-01_part-01_label-phase1,3.2.4,Linux x86_64,60,,,,,,,,,,,,,,,,,,,,,,,,,,,,,,,,
,,0,9,1,0,240,160,1,239,3,3,1,stim/31.jpeg,HouseObjects,1,stim/objects/HouseObjects/lintroller2.png,0.1,4,0.2,-0.15,left,7,2020-11-17_18h17.36.804,premup-three_ses-01_part-01_label-phase1,3.2.4,Linux x86_64,60,,,,,,,,,,,,,,,,,,,,,,,,,,,,,,,,
,,0,10,1,0,240,107,1,239,2,1,4,stim/14.jpeg,Instruments,2,stim/objects/Instruments/record_player.png,0.7,1,-0.2,0.15,right,7,2020-11-17_18h17.36.804,premup-three_ses-01_part-01_label-phase1,3.2.4,Linux x86_64,60,,,,,,,,,,,,,,,,,,,,,,,,,,,,,,,,
,,0,1,,,,,,,1,6,2,stim/62.jpeg,Instruments,2,stim/objects/Instruments/musicsheet.png,0.5,4,0.2,-0.15,right,7,2020-11-17_18h17.36.804,premup-three_ses-01_part-01_label-phase1,3.2.4,Linux x86_64,60,,,4,0,4,0,1,3,1,0,240,69,1,239,,,,,,,,,,,,,,,,,,
,,0,2,,,,,,,3,3,2,stim/32.jpeg,Instruments,2,stim/objects/Instruments/musicsheet2.png,0.9,4,0.2,-0.15,right,7,2020-11-17_18h17.36.804,premup-three_ses-01_part-01_label-phase1,3.2.4,Linux x86_64,60,,,4,0,4,0,1,3,1,0,240,165,1,239,,,,,,,,,,,,,,,,,,
,,0,3,,,,,,,1,6,1,stim/61.jpeg,HouseObjects,1,stim/objects/HouseObjects/lintroller.png,0.5,4,0.2,-0.15,left,7,2020-11-17_18h17.36.804,premup-three_ses-01_part-01_label-phase1,3.2.4,Linux x86_64,60,,,4,0,4,0,1,3,1,0,240,52,1,239,,,,,,,,,,,,,,,,,,
,,0,4,,,,,,,3,3,4,stim/34.jpeg,Instruments,2,stim/objects/Instruments/oboe2.png,0.9,4,0.2,-0.15,right,7,2020-11-17_18h17.36.804,premup-three_ses-01_part-01_label-phase1,3.2.4,Linux x86_64,60,left,1.769000053,4,0,4,0,1,3,1,0,240,175,1,239,,,,,,,,,,,,,,,,,,
,,0,5,,,,,,,3,3,2,stim/32.jpeg,Instruments,2,stim/objects/Instruments/musicsheet2.png,0.9,3,-0.2,-0.15,right,7,2020-11-17_18h17.36.804,premup-three_ses-01_part-01_label-phase1,3.2.4,Linux x86_64,60,left,1.842999935,4,0,4,0,1,3,1,0,240,177,1,239,,,,,,,,,,,,,,,,,,
,,1,6,,,,,,,2,2,3,stim/23.jpeg,Instruments,2,stim/objects/Instruments/maraca2.png,0.3,4,0.2,-0.15,right,7,2020-11-17_18h17.36.804,premup-three_ses-01_part-01_label-phase1,3.2.4,Linux x86_64,60,right,1.269999981,4,0,4,0,1,3,1,0,240,158,1,239,,,,,,,,,,,,,,,,,,
,,0,7,,,,,,,1,5,3,stim/53.jpeg,Instruments,2,stim/objects/Instruments/maraca.png,0.5,4,0.2,-0.15,right,7,2020-11-17_18h17.36.804,premup-three_ses-01_part-01_label-phase1,3.2.4,Linux x86_64,60,,,4,0,4,0,1,3,1,0,240,22,1,239,,,,,,,,,,,,,,,,,,
,,0,8,,,,,,,2,2,1,stim/21.jpeg,HouseObjects,1,stim/objects/HouseObjects/iron2.png,0.7,1,-0.2,0.15,left,7,2020-11-17_18h17.36.804,premup-three_ses-01_part-01_label-phase1,3.2.4,Linux x86_64,60,right,1.789000034,4,0,4,0,1,3,1,0,240,144,1,239,,,,,,,,,,,,,,,,,,
,,0,9,,,,,,,3,3,3,stim/33.jpeg,Instruments,2,stim/objects/Instruments/musicstand2.png,0.9,4,0.2,-0.15,right,7,2020-11-17_18h17.36.804,premup-three_ses-01_part-01_label-phase1,3.2.4,Linux x86_64,60,,,4,0,4,0,1,3,1,0,240,194,1,239,,,,,,,,,,,,,,,,,,
,,1,10,,,,,,,2,2,4,stim/24.jpeg,HouseObjects,1,stim/objects/HouseObjects/knife2.png,0.7,2,0.2,0.15,left,7,2020-11-17_18h17.36.804,premup-three_ses-01_part-01_label-phase1,3.2.4,Linux x86_64,60,left,1.587000132,4,0,4,0,1,3,1,0,240,123,1,239,,,,,,,,,,,,,,,,,,
,,0,11,,,,,,,1,6,4,stim/64.jpeg,HouseObjects,1,stim/objects/HouseObjects/pitcher.png,0.5,4,0.2,-0.15,left,7,2020-11-17_18h17.36.804,premup-three_ses-01_part-01_label-phase1,3.2.4,Linux x86_64,60,,,4,0,4,0,1,3,1,0,240,47,1,239,,,,,,,,,,,,,,,,,,
,,1,12,,,,,,,2,1,3,stim/13.jpeg,Instruments,2,stim/objects/Instruments/record.png,0.7,1,-0.2,0.15,right,7,2020-11-17_18h17.36.804,premup-three_ses-01_part-01_label-phase1,3.2.4,Linux x86_64,60,right,1.078999996,4,0,4,0,1,3,1,0,240,114,1,239,,,,,,,,,,,,,,,,,,
,,0,13,,,,,,,2,2,2,stim/22.jpeg,Instruments,2,stim/objects/Instruments/laud2.png,0.3,3,-0.2,-0.15,right,7,2020-11-17_18h17.36.804,premup-three_ses-01_part-01_label-phase1,3.2.4,Linux x86_64,60,left,1,4,0,4,0,1,3,1,0,240,157,1,239,,,,,,,,,,,,,,,,,,
,,0,14,,,,,,,3,3,4,stim/34.jpeg,Instruments,2,stim/objects/Instruments/oboe2.png,0.9,2,0.2,0.15,right,7,2020-11-17_18h17.36.804,premup-three_ses-01_part-01_label-phase1,3.2.4,Linux x86_64,60,left,1.381999969,4,0,4,0,1,3,1,0,240,195,1,239,,,,,,,,,,,,,,,,,,
,,1,15,,,,,,,3,4,1,stim/41.jpeg,HouseObjects,1,stim/objects/HouseObjects/recyclingbin2.png,0.9,2,0.2,0.15,left,7,2020-11-17_18h17.36.804,premup-three_ses-01_part-01_label-phase1,3.2.4,Linux x86_64,60,left,1.343999863,4,0,4,0,1,3,1,0,240,212,1,239,,,,,,,,,,,,,,,,,,
,,1,16,,,,,,,3,4,1,stim/41.jpeg,HouseObjects,1,stim/objects/HouseObjects/recyclingbin2.png,0.9,4,0.2,-0.15,left,7,2020-11-17_18h17.36.804,premup-three_ses-01_part-01_label-phase1,3.2.4,Linux x86_64,60,left,0.979999781,4,0,4,0,1,3,1,0,240,208,1,239,,,,,,,,,,,,,,,,,,
,,1,17,,,,,,,1,6,3,stim/63.jpeg,HouseObjects,1,stim/objects/HouseObjects/pan.png,0.5,1,-0.2,0.15,left,7,2020-11-17_18h17.36.804,premup-three_ses-01_part-01_label-phase1,3.2.4,Linux x86_64,60,left,1.287999868,4,0,4,0,1,3,1,0,240,46,1,239,,,,,,,,,,,,,,,,,,
,,1,18,,,,,,,1,5,3,stim/53.jpeg,HouseObjects,1,stim/objects/HouseObjects/key.png,0.5,2,0.2,0.15,left,7,2020-11-17_18h17.36.804,premup-three_ses-01_part-01_label-phase1,3.2.4,Linux x86_64,60,left,1.873000145,4,0,4,0,1,3,1,0,240,6,1,239,,,,,,,,,,,,,,,,,,
,,0,19,,,,,,,1,6,1,stim/61.jpeg,Instruments,2,stim/objects/Instruments/metronome.png,0.5,1,-0.2,0.15,right,7,2020-11-17_18h17.36.804,premup-three_ses-01_part-01_label-phase1,3.2.4,Linux x86_64,60,left,1.556999922,4,0,4,0,1,3,1,0,240,72,1,239,,,,,,,,,,,,,,,,,,
,,0,20,,,,,,,3,3,3,stim/33.jpeg,Instruments,2,stim/objects/Instruments/musicstand2.png,0.9,3,-0.2,-0.15,right,7,2020-11-17_18h17.36.804,premup-three_ses-01_part-01_label-phase1,3.2.4,Linux x86_64,60,left,1.31400013,4,0,4,0,1,3,1,0,240,190,1,239,,,,,,,,,,,,,,,,,,
,,0,21,,,,,,,2,1,2,stim/12.jpeg,Instruments,2,stim/objects/Instruments/pipepiano.png,0.7,4,0.2,-0.15,right,7,2020-11-17_18h17.36.804,premup-three_ses-01_part-01_label-phase1,3.2.4,Linux x86_64,60,left,1.056999922,4,0,4,0,1,3,1,0,240,93,1,239,,,,,,,,,,,,,,,,,,
,,0,22,,,,,,,3,4,2,stim/42.jpeg,HouseObjects,1,stim/objects/HouseObjects/remote2.png,0.9,4,0.2,-0.15,left,7,2020-11-17_18h17.36.804,premup-three_ses-01_part-01_label-phase1,3.2.4,Linux x86_64,60,right,1.121000051,4,0,4,0,1,3,1,0,240,225,1,239,,,,,,,,,,,,,,,,,,
,,1,23,,,,,,,1,6,2,stim/62.jpeg,HouseObjects,1,stim/objects/HouseObjects/match.png,0.5,3,-0.2,-0.15,left,7,2020-11-17_18h17.36.804,premup-three_ses-01_part-01_label-phase1,3.2.4,Linux x86_64,60,left,1.813999891,4,0,4,0,1,3,1,0,240,49,1,239,,,,,,,,,,,,,,,,,,
,,0,24,,,,,,,3,3,3,stim/33.jpeg,Instruments,2,stim/objects/Instruments/musicstand2.png,0.9,4,0.2,-0.15,right,7,2020-11-17_18h17.36.804,premup-three_ses-01_part-01_label-phase1,3.2.4,Linux x86_64,60,left,1.529999971,4,0,4,0,1,3,1,0,240,174,1,239,,,,,,,,,,,,,,,,,,
,,0,25,,,,,,,1,6,3,stim/63.jpeg,HouseObjects,1,stim/objects/HouseObjects/pan.png,0.5,2,0.2,0.15,left,7,2020-11-17_18h17.36.804,premup-three_ses-01_part-01_label-phase1,3.2.4,Linux x86_64,60,,,4,0,4,0,1,3,1,0,240,54,1,239,,,,,,,,,,,,,,,,,,
,,1,26,,,,,,,1,5,2,stim/52.jpeg,HouseObjects,1,stim/objects/HouseObjects/ironingboard.png,0.5,3,-0.2,-0.15,left,7,2020-11-17_18h17.36.804,premup-three_ses-01_part-01_label-phase1,3.2.4,Linux x86_64,60,left,1.434999943,4,0,4,0,1,3,1,0,240,17,1,239,,,,,,,,,,,,,,,,,,
,,0,27,,,,,,,3,4,1,stim/41.jpeg,HouseObjects,1,stim/objects/HouseObjects/recyclingbin2.png,0.9,2,0.2,0.15,left,7,2020-11-17_18h17.36.804,premup-three_ses-01_part-01_label-phase1,3.2.4,Linux x86_64,60,right,1.296999931,4,0,4,0,1,3,1,0,240,216,1,239,,,,,,,,,,,,,,,,,,
,,1,28,,,,,,,1,6,2,stim/62.jpeg,Instruments,2,stim/objects/Instruments/musicsheet.png,0.5,3,-0.2,-0.15,right,7,2020-11-17_18h17.36.804,premup-three_ses-01_part-01_label-phase1,3.2.4,Linux x86_64,60,right,1.139999866,4,0,4,0,1,3,1,0,240,73,1,239,,,,,,,,,,,,,,,,,,
,,0,29,,,,,,,3,4,2,stim/42.jpeg,HouseObjects,1,stim/objects/HouseObjects/remote2.png,0.9,3,-0.2,-0.15,left,7,2020-11-17_18h17.36.804,premup-three_ses-01_part-01_label-phase1,3.2.4,Linux x86_64,60,,,4,0,4,0,1,3,1,0,240,205,1,239,,,,,,,,,,,,,,,,,,
,,1,30,,,,,,,1,6,1,stim/61.jpeg,Instruments,2,stim/objects/Instruments/metronome.png,0.5,1,-0.2,0.15,right,7,2020-11-17_18h17.36.804,premup-three_ses-01_part-01_label-phase1,3.2.4,Linux x86_64,60,right,1.444000006,4,0,4,0,1,3,1,0,240,60,1,239,,,,,,,,,,,,,,,,,,
,,0,31,,,,,,,2,1,1,stim/11.jpeg,Instruments,2,stim/objects/Instruments/panflute.png,0.7,2,0.2,0.15,right,7,2020-11-17_18h17.36.804,premup-three_ses-01_part-01_label-phase1,3.2.4,Linux x86_64,60,,,4,0,4,0,1,3,1,0,240,116,1,239,,,,,,,,,,,,,,,,,,
,,1,32,,,,,,,1,6,4,stim/64.jpeg,Instruments,2,stim/objects/Instruments/oboe.png,0.5,3,-0.2,-0.15,right,7,2020-11-17_18h17.36.804,premup-three_ses-01_part-01_label-phase1,3.2.4,Linux x86_64,60,right,1.240999937,4,0,4,0,1,3,1,0,240,71,1,239,,,,,,,,,,,,,,,,,,
,,1,33,,,,,,,3,4,1,stim/41.jpeg,HouseObjects,1,stim/objects/HouseObjects/recyclingbin2.png,0.9,1,-0.2,0.15,left,7,2020-11-17_18h17.36.804,premup-three_ses-01_part-01_label-phase1,3.2.4,Linux x86_64,60,left,1.355999947,4,0,4,0,1,3,1,0,240,228,1,239,,,,,,,,,,,,,,,,,,
,,0,34,,,,,,,3,3,4,stim/34.jpeg,Instruments,2,stim/objects/Instruments/oboe2.png,0.9,3,-0.2,-0.15,right,7,2020-11-17_18h17.36.804,premup-three_ses-01_part-01_label-phase1,3.2.4,Linux x86_64,60,,,4,0,4,0,1,3,1,0,240,187,1,239,,,,,,,,,,,,,,,,,,
,,1,35,,,,,,,1,6,4,stim/64.jpeg,HouseObjects,1,stim/objects/HouseObjects/pitcher.png,0.5,4,0.2,-0.15,left,7,2020-11-17_18h17.36.804,premup-three_ses-01_part-01_label-phase1,3.2.4,Linux x86_64,60,left,1.422999859,4,0,4,0,1,3,1,0,240,51,1,239,,,,,,,,,,,,,,,,,,
,,0,36,,,,,,,2,2,1,stim/21.jpeg,HouseObjects,1,stim/objects/HouseObjects/iron2.png,0.7,3,-0.2,-0.15,left,7,2020-11-17_18h17.36.804,premup-three_ses-01_part-01_label-phase1,3.2.4,Linux x86_64,60,right,1.221999884,4,0,4,0,1,3,1,0,240,136,1,239,,,,,,,,,,,,,,,,,,
,,0,37,,,,,,,1,6,3,stim/63.jpeg,Instruments,2,stim/objects/Instruments/musicstand.png,0.5,2,0.2,0.15,right,7,2020-11-17_18h17.36.804,premup-three_ses-01_part-01_label-phase1,3.2.4,Linux x86_64,60,,,4,0,4,0,1,3,1,0,240,70,1,239,,,,,,,,,,,,,,,,,,
,,0,38,,,,,,,2,2,2,stim/22.jpeg,Instruments,2,stim/objects/Instruments/laud2.png,0.3,2,0.2,0.15,right,7,2020-11-17_18h17.36.804,premup-three_ses-01_part-01_label-phase1,3.2.4,Linux x86_64,60,,,4,0,4,0,1,3,1,0,240,149,1,239,,,,,,,,,,,,,,,,,,
,,0,39,,,,,,,3,3,1,stim/31.jpeg,Instruments,2,stim/objects/Instruments/metronome2.png,0.9,4,0.2,-0.15,right,7,2020-11-17_18h17.36.804,premup-three_ses-01_part-01_label-phase1,3.2.4,Linux x86_64,60,,,4,0,4,0,1,3,1,0,240,180,1,239,,,,,,,,,,,,,,,,,,
,,0,40,,,,,,,2,1,2,stim/12.jpeg,HouseObjects,1,stim/objects/HouseObjects/remote.png,0.3,1,-0.2,0.15,left,7,2020-11-17_18h17.36.804,premup-three_ses-01_part-01_label-phase1,3.2.4,Linux x86_64,60,,,4,0,4,0,1,3,1,0,240,85,1,239,,,,,,,,,,,,,,,,,,
,,1,41,,,,,,,3,4,3,stim/43.jpeg,HouseObjects,1,stim/objects/HouseObjects/rubbergloves2.png,0.9,4,0.2,-0.15,left,7,2020-11-17_18h17.36.804,premup-three_ses-01_part-01_label-phase1,3.2.4,Linux x86_64,60,left,1.67599988,4,0,4,0,1,3,1,0,240,202,1,239,,,,,,,,,,,,,,,,,,
,,0,42,,,,,,,3,4,1,stim/41.jpeg,Instruments,2,stim/objects/Instruments/panflute2.png,0.1,1,-0.2,0.15,right,7,2020-11-17_18h17.36.804,premup-three_ses-01_part-01_label-phase1,3.2.4,Linux x86_64,60,left,1.136999846,4,0,4,0,1,3,1,0,240,236,1,239,,,,,,,,,,,,,,,,,,
,,0,43,,,,,,,3,3,4,stim/34.jpeg,HouseObjects,1,stim/objects/HouseObjects/pitcher2.png,0.1,4,0.2,-0.15,left,7,2020-11-17_18h17.36.804,premup-three_ses-01_part-01_label-phase1,3.2.4,Linux x86_64,60,right,1.825000048,4,0,4,0,1,3,1,0,240,163,1,239,,,,,,,,,,,,,,,,,,
,,1,44,,,,,,,2,2,2,stim/22.jpeg,HouseObjects,1,stim/objects/HouseObjects/ironingboard2.png,0.7,3,-0.2,-0.15,left,7,2020-11-17_18h17.36.804,premup-three_ses-01_part-01_label-phase1,3.2.4,Linux x86_64,60,left,1.628000021,4,0,4,0,1,3,1,0,240,141,1,239,,,,,,,,,,,,,,,,,,
,,1,45,,,,,,,3,4,3,stim/43.jpeg,HouseObjects,1,stim/objects/HouseObjects/rubbergloves2.png,0.9,2,0.2,0.15,left,7,2020-11-17_18h17.36.804,premup-three_ses-01_part-01_label-phase1,3.2.4,Linux x86_64,60,left,1.79399991,4,0,4,0,1,3,1,0,240,218,1,239,,,,,,,,,,,,,,,,,,
,,1,46,,,,,,,1,6,4,stim/64.jpeg,HouseObjects,1,stim/objects/HouseObjects/pitcher.png,0.5,1,-0.2,0.15,left,7,2020-11-17_18h17.36.804,premup-three_ses-01_part-01_label-phase1,3.2.4,Linux x86_64,60,left,1.444999933,4,0,4,0,1,3,1,0,240,43,1,239,,,,,,,,,,,,,,,,,,
,,1,47,,,,,,,2,1,2,stim/12.jpeg,Instruments,2,stim/objects/Instruments/pipepiano.png,0.7,1,-0.2,0.15,right,7,2020-11-17_18h17.36.804,premup-three_ses-01_part-01_label-phase1,3.2.4,Linux x86_64,60,right,1.214999914,4,0,4,0,1,3,1,0,240,113,1,239,,,,,,,,,,,,,,,,,,
,,0,48,,,,,,,3,3,1,stim/31.jpeg,Instruments,2,stim/objects/Instruments/metronome2.png,0.9,3,-0.2,-0.15,right,7,2020-11-17_18h17.36.804,premup-three_ses-01_part-01_label-phase1,3.2.4,Linux x86_64,60,left,1.437000036,4,0,4,0,1,3,1,0,240,188,1,239,,,,,,,,,,,,,,,,,,
,,1,49,,,,,,,1,5,2,stim/52.jpeg,HouseObjects,1,stim/objects/HouseObjects/ironingboard.png,0.5,2,0.2,0.15,left,7,2020-11-17_18h17.36.804,premup-three_ses-01_part-01_label-phase1,3.2.4,Linux x86_64,60,left,1.131999969,4,0,4,0,1,3,1,0,240,1,1,239,,,,,,,,,,,,,,,,,,
,,0,50,,,,,,,1,5,1,stim/51.jpeg,HouseObjects,1,stim/objects/HouseObjects/iron.png,0.5,2,0.2,0.15,left,7,2020-11-17_18h17.36.804,premup-three_ses-01_part-01_label-phase1,3.2.4,Linux x86_64,60,right,1.009000063,4,0,4,0,1,3,1,0,240,8,1,239,,,,,,,,,,,,,,,,,,
,,1,51,,,,,,,1,6,4,stim/64.jpeg,Instruments,2,stim/objects/Instruments/oboe.png,0.5,1,-0.2,0.15,right,7,2020-11-17_18h17.36.804,premup-three_ses-01_part-01_label-phase1,3.2.4,Linux x86_64,60,right,1.510999918,4,0,4,0,1,3,1,0,240,67,1,239,,,,,,,,,,,,,,,,,,
,,0,52,,,,,,,1,5,3,stim/53.jpeg,HouseObjects,1,stim/objects/HouseObjects/key.png,0.5,2,0.2,0.15,left,7,2020-11-17_18h17.36.804,premup-three_ses-01_part-01_label-phase1,3.2.4,Linux x86_64,60,,,4,0,4,0,1,3,1,0,240,18,1,239,,,,,,,,,,,,,,,,,,
,,0,53,,,,,,,3,3,2,stim/32.jpeg,Instruments,2,stim/objects/Instruments/musicsheet2.png,0.9,4,0.2,-0.15,right,7,2020-11-17_18h17.36.804,premup-three_ses-01_part-01_label-phase1,3.2.4,Linux x86_64,60,left,1.121999979,4,0,4,0,1,3,1,0,240,169,1,239,,,,,,,,,,,,,,,,,,
,,1,54,,,,,,,3,3,2,stim/32.jpeg,Instruments,2,stim/objects/Instruments/musicsheet2.png,0.9,4,0.2,-0.15,right,7,2020-11-17_18h17.36.804,premup-three_ses-01_part-01_label-phase1,3.2.4,Linux x86_64,60,right,1.672999859,4,0,4,0,1,3,1,0,240,193,1,239,,,,,,,,,,,,,,,,,,
,,0,55,,,,,,,2,1,2,stim/12.jpeg,HouseObjects,1,stim/objects/HouseObjects/remote.png,0.3,4,0.2,-0.15,left,7,2020-11-17_18h17.36.804,premup-three_ses-01_part-01_label-phase1,3.2.4,Linux x86_64,60,right,1.528999805,4,0,4,0,1,3,1,0,240,81,1,239,,,,,,,,,,,,,,,,,,
,,0,56,,,,,,,1,5,3,stim/53.jpeg,Instruments,2,stim/objects/Instruments/maraca.png,0.5,3,-0.2,-0.15,right,7,2020-11-17_18h17.36.804,premup-three_ses-01_part-01_label-phase1,3.2.4,Linux x86_64,60,,,4,0,4,0,1,3,1,0,240,38,1,239,,,,,,,,,,,,,,,,,,
,,0,57,,,,,,,1,5,4,stim/54.jpeg,Instruments,2,stim/objects/Instruments/marimba.png,0.5,1,-0.2,0.15,right,7,2020-11-17_18h17.36.804,premup-three_ses-01_part-01_label-phase1,3.2.4,Linux x86_64,60,left,1.470000029,4,0,4,0,1,3,1,0,240,31,1,239,,,,,,,,,,,,,,,,,,
,,0,58,,,,,,,3,3,2,stim/32.jpeg,Instruments,2,stim/objects/Instruments/musicsheet2.png,0.9,2,0.2,0.15,right,7,2020-11-17_18h17.36.804,premup-three_ses-01_part-01_label-phase1,3.2.4,Linux x86_64,60,left,1.200000048,4,0,4,0,1,3,1,0,240,173,1,239,,,,,,,,,,,,,,,,,,
,,0,59,,,,,,,2,1,4,stim/14.jpeg,HouseObjects,1,stim/objects/HouseObjects/rug.png,0.3,1,-0.2,0.15,left,7,2020-11-17_18h17.36.804,premup-three_ses-01_part-01_label-phase1,3.2.4,Linux x86_64,60,,,4,0,4,0,1,3,1,0,240,87,1,239,,,,,,,,,,,,,,,,,,
,,0,60,,,,,,,2,1,4,stim/14.jpeg,Instruments,2,stim/objects/Instruments/record_player.png,0.7,1,-0.2,0.15,right,7,2020-11-17_18h17.36.804,premup-three_ses-01_part-01_label-phase1,3.2.4,Linux x86_64,60,left,1.588999987,4,0,4,0,1,3,1,0,240,99,1,239,,,,,,,,,,,,,,,,,,
,,0,61,,,,,,,3,3,2,stim/32.jpeg,Instruments,2,stim/objects/Instruments/musicsheet2.png,0.9,4,0.2,-0.15,right,7,2020-11-17_18h17.36.804,premup-three_ses-01_part-01_label-phase1,3.2.4,Linux x86_64,60,,,4,0,4,0,1,3,1,0,240,197,1,239,,,,,,,,,,,,,,,,,,
,,1,62,,,,,,,3,3,4,stim/34.jpeg,Instruments,2,stim/objects/Instruments/oboe2.png,0.9,1,-0.2,0.15,right,7,2020-11-17_18h17.36.804,premup-three_ses-01_part-01_label-phase1,3.2.4,Linux x86_64,60,right,1.602999926,4,0,4,0,1,3,1,0,240,167,1,239,,,,,,,,,,,,,,,,,,
,,0,63,,,,,,,1,5,4,stim/54.jpeg,Instruments,2,stim/objects/Instruments/marimba.png,0.5,3,-0.2,-0.15,right,7,2020-11-17_18h17.36.804,premup-three_ses-01_part-01_label-phase1,3.2.4,Linux x86_64,60,left,1.240999937,4,0,4,0,1,3,1,0,240,23,1,239,,,,,,,,,,,,,,,,,,
,,0,64,,,,,,,2,2,3,stim/23.jpeg,Instruments,2,stim/objects/Instruments/maraca2.png,0.3,2,0.2,0.15,right,7,2020-11-17_18h17.36.804,premup-three_ses-01_part-01_label-phase1,3.2.4,Linux x86_64,60,left,1.467999935,4,0,4,0,1,3,1,0,240,154,1,239,,,,,,,,,,,,,,,,,,
,,0,65,,,,,,,2,1,3,stim/13.jpeg,Instruments,2,stim/objects/Instruments/record.png,0.7,2,0.2,0.15,right,7,2020-11-17_18h17.36.804,premup-three_ses-01_part-01_label-phase1,3.2.4,Linux x86_64,60,,,4,0,4,0,1,3,1,0,240,106,1,239,,,,,,,,,,,,,,,,,,
,,0,66,,,,,,,3,3,2,stim/32.jpeg,Instruments,2,stim/objects/Instruments/musicsheet2.png,0.9,3,-0.2,-0.15,right,7,2020-11-17_18h17.36.804,premup-three_ses-01_part-01_label-phase1,3.2.4,Linux x86_64,60,left,0.868999958,4,0,4,0,1,3,1,0,240,181,1,239,,,,,,,,,,,,,,,,,,
,,1,67,,,,,,,2,1,3,stim/13.jpeg,Instruments,2,stim/objects/Instruments/record.png,0.7,4,0.2,-0.15,right,7,2020-11-17_18h17.36.804,premup-three_ses-01_part-01_label-phase1,3.2.4,Linux x86_64,60,right,1.148000002,4,0,4,0,1,3,1,0,240,110,1,239,,,,,,,,,,,,,,,,,,
,,0,68,,,,,,,1,5,4,stim/54.jpeg,HouseObjects,1,stim/objects/HouseObjects/knife.png,0.5,1,-0.2,0.15,left,7,2020-11-17_18h17.36.804,premup-three_ses-01_part-01_label-phase1,3.2.4,Linux x86_64,60,,,4,0,4,0,1,3,1,0,240,3,1,239,,,,,,,,,,,,,,,,,,
,,0,69,,,,,,,2,2,1,stim/21.jpeg,HouseObjects,1,stim/objects/HouseObjects/iron2.png,0.7,3,-0.2,-0.15,left,7,2020-11-17_18h17.36.804,premup-three_ses-01_part-01_label-phase1,3.2.4,Linux x86_64,60,right,1.240999937,4,0,4,0,1,3,1,0,240,132,1,239,,,,,,,,,,,,,,,,,,
,,1,70,,,,,,,3,4,1,stim/41.jpeg,HouseObjects,1,stim/objects/HouseObjects/recyclingbin2.png,0.9,3,-0.2,-0.15,left,7,2020-11-17_18h17.36.804,premup-three_ses-01_part-01_label-phase1,3.2.4,Linux x86_64,60,left,1.484999895,4,0,4,0,1,3,1,0,240,232,1,239,,,,,,,,,,,,,,,,,,
,,1,71,,,,,,,1,5,4,stim/54.jpeg,Instruments,2,stim/objects/Instruments/marimba.png,0.5,2,0.2,0.15,right,7,2020-11-17_18h17.36.804,premup-three_ses-01_part-01_label-phase1,3.2.4,Linux x86_64,60,right,1.602999926,4,0,4,0,1,3,1,0,240,35,1,239,,,,,,,,,,,,,,,,,,
,,0,72,,,,,,,1,6,3,stim/63.jpeg,HouseObjects,1,stim/objects/HouseObjects/pan.png,0.5,4,0.2,-0.15,left,7,2020-11-17_18h17.36.804,premup-three_ses-01_part-01_label-phase1,3.2.4,Linux x86_64,60,right,1.576999903,4,0,4,0,1,3,1,0,240,42,1,239,,,,,,,,,,,,,,,,,,
,,0,73,,,,,,,3,4,2,stim/42.jpeg,HouseObjects,1,stim/objects/HouseObjects/remote2.png,0.9,1,-0.2,0.15,left,7,2020-11-17_18h17.36.804,premup-three_ses-01_part-01_label-phase1,3.2.4,Linux x86_64,60,right,1.209000111,4,0,4,0,1,3,1,0,240,229,1,239,,,,,,,,,,,,,,,,,,
,,0,74,,,,,,,1,5,2,stim/52.jpeg,Instruments,2,stim/objects/Instruments/laud.png,0.5,4,0.2,-0.15,right,7,2020-11-17_18h17.36.804,premup-three_ses-01_part-01_label-phase1,3.2.4,Linux x86_64,60,left,1.139999866,4,0,4,0,1,3,1,0,240,25,1,239,,,,,,,,,,,,,,,,,,
,,0,75,,,,,,,3,4,4,stim/44.jpeg,HouseObjects,1,stim/objects/HouseObjects/rug2.png,0.9,3,-0.2,-0.15,left,7,2020-11-17_18h17.36.804,premup-three_ses-01_part-01_label-phase1,3.2.4,Linux x86_64,60,,,4,0,4,0,1,3,1,0,240,203,1,239,,,,,,,,,,,,,,,,,,
,,0,76,,,,,,,2,1,1,stim/11.jpeg,HouseObjects,1,stim/objects/HouseObjects/recyclingbin.png,0.3,4,0.2,-0.15,left,7,2020-11-17_18h17.36.804,premup-three_ses-01_part-01_label-phase1,3.2.4,Linux x86_64,60,right,0.96600008,4,0,4,0,1,3,1,0,240,80,1,239,,,,,,,,,,,,,,,,,,
,,0,77,,,,,,,3,4,1,stim/41.jpeg,HouseObjects,1,stim/objects/HouseObjects/recyclingbin2.png,0.9,2,0.2,0.15,left,7,2020-11-17_18h17.36.804,premup-three_ses-01_part-01_label-phase1,3.2.4,Linux x86_64,60,,,4,0,4,0,1,3,1,0,240,224,1,239,,,,,,,,,,,,,,,,,,
,,1,78,,,,,,,1,5,2,stim/52.jpeg,Instruments,2,stim/objects/Instruments/laud.png,0.5,2,0.2,0.15,right,7,2020-11-17_18h17.36.804,premup-three_ses-01_part-01_label-phase1,3.2.4,Linux x86_64,60,right,1.739000082,4,0,4,0,1,3,1,0,240,37,1,239,,,,,,,,,,,,,,,,,,
,,1,79,,,,,,,3,3,1,stim/31.jpeg,Instruments,2,stim/objects/Instruments/metronome2.png,0.9,2,0.2,0.15,right,7,2020-11-17_18h17.36.804,premup-three_ses-01_part-01_label-phase1,3.2.4,Linux x86_64,60,right,1.210999966,4,0,4,0,1,3,1,0,240,168,1,239,,,,,,,,,,,,,,,,,,
,,1,80,,,,,,,2,1,3,stim/13.jpeg,HouseObjects,1,stim/objects/HouseObjects/rubbergloves.png,0.3,2,0.2,0.15,left,7,2020-11-17_18h17.36.804,premup-three_ses-01_part-01_label-phase1,3.2.4,Linux x86_64,60,left,1.164000034,4,0,4,0,1,3,1,0,240,90,1,239,,,,,,,,,,,,,,,,,,
,,1,81,,,,,,,1,5,1,stim/51.jpeg,HouseObjects,1,stim/objects/HouseObjects/iron.png,0.5,3,-0.2,-0.15,left,7,2020-11-17_18h17.36.804,premup-three_ses-01_part-01_label-phase1,3.2.4,Linux x86_64,60,left,1.802000046,4,0,4,0,1,3,1,0,240,16,1,239,,,,,,,,,,,,,,,,,,
,,0,82,,,,,,,2,1,3,stim/13.jpeg,HouseObjects,1,stim/objects/HouseObjects/rubbergloves.png,0.3,2,0.2,0.15,left,7,2020-11-17_18h17.36.804,premup-three_ses-01_part-01_label-phase1,3.2.4,Linux x86_64,60,right,0.892999887,4,0,4,0,1,3,1,0,240,82,1,239,,,,,,,,,,,,,,,,,,
,,0,83,,,,,,,2,2,4,stim/24.jpeg,Instruments,2,stim/objects/Instruments/marimba2.png,0.3,3,-0.2,-0.15,right,7,2020-11-17_18h17.36.804,premup-three_ses-01_part-01_label-phase1,3.2.4,Linux x86_64,60,left,1.151000023,4,0,4,0,1,3,1,0,240,159,1,239,,,,,,,,,,,,,,,,,,
,,0,84,,,,,,,1,5,3,stim/53.jpeg,HouseObjects,1,stim/objects/HouseObjects/key.png,0.5,4,0.2,-0.15,left,7,2020-11-17_18h17.36.804,premup-three_ses-01_part-01_label-phase1,3.2.4,Linux x86_64,60,right,1.559000015,4,0,4,0,1,3,1,0,240,14,1,239,,,,,,,,,,,,,,,,,,
,,0,85,,,,,,,2,1,2,stim/12.jpeg,Instruments,2,stim/objects/Instruments/pipepiano.png,0.7,1,-0.2,0.15,right,7,2020-11-17_18h17.36.804,premup-three_ses-01_part-01_label-phase1,3.2.4,Linux x86_64,60,left,1.763999939,4,0,4,0,1,3,1,0,240,105,1,239,,,,,,,,,,,,,,,,,,
,,1,86,,,,,,,2,1,4,stim/14.jpeg,Instruments,2,stim/objects/Instruments/record_player.png,0.7,1,-0.2,0.15,right,7,2020-11-17_18h17.36.804,premup-three_ses-01_part-01_label-phase1,3.2.4,Linux x86_64,60,right,1.164999962,4,0,4,0,1,3,1,0,240,107,1,239,,,,,,,,,,,,,,,,,,
,,0,87,,,,,,,1,5,1,stim/51.jpeg,HouseObjects,1,stim/objects/HouseObjects/iron.png,0.5,3,-0.2,-0.15,left,7,2020-11-17_18h17.36.804,premup-three_ses-01_part-01_label-phase1,3.2.4,Linux x86_64,60,,,4,0,4,0,1,3,1,0,240,0,1,239,,,,,,,,,,,,,,,,,,
,,1,88,,,,,,,3,3,3,stim/33.jpeg,Instruments,2,stim/objects/Instruments/musicstand2.png,0.9,2,0.2,0.15,right,7,2020-11-17_18h17.36.804,premup-three_ses-01_part-01_label-phase1,3.2.4,Linux x86_64,60,right,1.654999971,4,0,4,0,1,3,1,0,240,182,1,239,,,,,,,,,,,,,,,,,,
,,0,89,,,,,,,2,2,2,stim/22.jpeg,HouseObjects,1,stim/objects/HouseObjects/ironingboard2.png,0.7,4,0.2,-0.15,left,7,2020-11-17_18h17.36.804,premup-three_ses-01_part-01_label-phase1,3.2.4,Linux x86_64,60,,,4,0,4,0,1,3,1,0,240,137,1,239,,,,,,,,,,,,,,,,,,
,,1,90,,,,,,,1,5,4,stim/54.jpeg,HouseObjects,1,stim/objects/HouseObjects/knife.png,0.5,4,0.2,-0.15,left,7,2020-11-17_18h17.36.804,premup-three_ses-01_part-01_label-phase1,3.2.4,Linux x86_64,60,left,1.188999891,4,0,4,0,1,3,1,0,240,15,1,239,,,,,,,,,,,,,,,,,,
,,1,91,,,,,,,3,3,3,stim/33.jpeg,Instruments,2,stim/objects/Instruments/musicstand2.png,0.9,3,-0.2,-0.15,right,7,2020-11-17_18h17.36.804,premup-three_ses-01_part-01_label-phase1,3.2.4,Linux x86_64,60,right,1.262000084,4,0,4,0,1,3,1,0,240,198,1,239,,,,,,,,,,,,,,,,,,
,,1,92,,,,,,,3,4,4,stim/44.jpeg,HouseObjects,1,stim/objects/HouseObjects/rug2.png,0.9,1,-0.2,0.15,left,7,2020-11-17_18h17.36.804,premup-three_ses-01_part-01_label-phase1,3.2.4,Linux x86_64,60,left,1.190999746,4,0,4,0,1,3,1,0,240,215,1,239,,,,,,,,,,,,,,,,,,
,,0,93,,,,,,,1,6,1,stim/61.jpeg,Instruments,2,stim/objects/Instruments/metronome.png,0.5,3,-0.2,-0.15,right,7,2020-11-17_18h17.36.804,premup-three_ses-01_part-01_label-phase1,3.2.4,Linux x86_64,60,left,0.978999853,4,0,4,0,1,3,1,0,240,76,1,239,,,,,,,,,,,,,,,,,,
,,1,94,,,,,,,1,5,4,stim/54.jpeg,Instruments,2,stim/objects/Instruments/marimba.png,0.5,1,-0.2,0.15,right,7,2020-11-17_18h17.36.804,premup-three_ses-01_part-01_label-phase1,3.2.4,Linux x86_64,60,right,0.664000034,4,0,4,0,1,3,1,0,240,39,1,239,,,,,,,,,,,,,,,,,,
,,1,95,,,,,,,1,5,4,stim/54.jpeg,HouseObjects,1,stim/objects/HouseObjects/knife.png,0.5,3,-0.2,-0.15,left,7,2020-11-17_18h17.36.804,premup-three_ses-01_part-01_label-phase1,3.2.4,Linux x86_64,60,left,0.823999882,4,0,4,0,1,3,1,0,240,11,1,239,,,,,,,,,,,,,,,,,,
,,1,96,,,,,,,3,4,2,stim/42.jpeg,HouseObjects,1,stim/objects/HouseObjects/remote2.png,0.9,2,0.2,0.15,left,7,2020-11-17_18h17.36.804,premup-three_ses-01_part-01_label-phase1,3.2.4,Linux x86_64,60,left,1.099999905,4,0,4,0,1,3,1,0,240,201,1,239,,,,,,,,,,,,,,,,,,
,,0,97,,,,,,,3,4,4,stim/44.jpeg,HouseObjects,1,stim/objects/HouseObjects/rug2.png,0.9,1,-0.2,0.15,left,7,2020-11-17_18h17.36.804,premup-three_ses-01_part-01_label-phase1,3.2.4,Linux x86_64,60,,,4,0,4,0,1,3,1,0,240,223,1,239,,,,,,,,,,,,,,,,,,
,,0,98,,,,,,,1,5,4,stim/54.jpeg,HouseObjects,1,stim/objects/HouseObjects/knife.png,0.5,3,-0.2,-0.15,left,7,2020-11-17_18h17.36.804,premup-three_ses-01_part-01_label-phase1,3.2.4,Linux x86_64,60,right,1.09499979,4,0,4,0,1,3,1,0,240,19,1,239,,,,,,,,,,,,,,,,,,
,,0,99,,,,,,,3,3,4,stim/34.jpeg,Instruments,2,stim/objects/Instruments/oboe2.png,0.9,3,-0.2,-0.15,right,7,2020-11-17_18h17.36.804,premup-three_ses-01_part-01_label-phase1,3.2.4,Linux x86_64,60,left,1.146999836,4,0,4,0,1,3,1,0,240,199,1,239,,,,,,,,,,,,,,,,,,
,,0,100,,,,,,,3,4,2,stim/42.jpeg,HouseObjects,1,stim/objects/HouseObjects/remote2.png,0.9,4,0.2,-0.15,left,7,2020-11-17_18h17.36.804,premup-three_ses-01_part-01_label-phase1,3.2.4,Linux x86_64,60,right,0.812000036,4,0,4,0,1,3,1,0,240,217,1,239,,,,,,,,,,,,,,,,,,
,,1,101,,,,,,,3,3,4,stim/34.jpeg,Instruments,2,stim/objects/Instruments/oboe2.png,0.9,1,-0.2,0.15,right,7,2020-11-17_18h17.36.804,premup-three_ses-01_part-01_label-phase1,3.2.4,Linux x86_64,60,right,1.546999931,4,0,4,0,1,3,1,0,240,183,1,239,,,,,,,,,,,,,,,,,,
,,1,102,,,,,,,2,1,3,stim/13.jpeg,Instruments,2,stim/objects/Instruments/record.png,0.7,4,0.2,-0.15,right,7,2020-11-17_18h17.36.804,premup-three_ses-01_part-01_label-phase1,3.2.4,Linux x86_64,60,right,1.156000137,4,0,4,0,1,3,1,0,240,118,1,239,,,,,,,,,,,,,,,,,,
,,0,103,,,,,,,2,1,1,stim/11.jpeg,Instruments,2,stim/objects/Instruments/panflute.png,0.7,1,-0.2,0.15,right,7,2020-11-17_18h17.36.804,premup-three_ses-01_part-01_label-phase1,3.2.4,Linux x86_64,60,left,1.095999956,4,0,4,0,1,3,1,0,240,100,1,239,,,,,,,,,,,,,,,,,,
,,0,104,,,,,,,2,2,4,stim/24.jpeg,HouseObjects,1,stim/objects/HouseObjects/knife2.png,0.7,1,-0.2,0.15,left,7,2020-11-17_18h17.36.804,premup-three_ses-01_part-01_label-phase1,3.2.4,Linux x86_64,60,right,1.788999796,4,0,4,0,1,3,1,0,240,131,1,239,,,,,,,,,,,,,,,,,,
,,0,105,,,,,,,2,1,3,stim/13.jpeg,Instruments,2,stim/objects/Instruments/record.png,0.7,2,0.2,0.15,right,7,2020-11-17_18h17.36.804,premup-three_ses-01_part-01_label-phase1,3.2.4,Linux x86_64,60,left,1.575999975,4,0,4,0,1,3,1,0,240,102,1,239,,,,,,,,,,,,,,,,,,
,,1,106,,,,,,,1,6,3,stim/63.jpeg,Instruments,2,stim/objects/Instruments/musicstand.png,0.5,2,0.2,0.15,right,7,2020-11-17_18h17.36.804,premup-three_ses-01_part-01_label-phase1,3.2.4,Linux x86_64,60,right,0.883999825,4,0,4,0,1,3,1,0,240,66,1,239,,,,,,,,,,,,,,,,,,
,,0,107,,,,,,,3,4,2,stim/42.jpeg,HouseObjects,1,stim/objects/HouseObjects/remote2.png,0.9,2,0.2,0.15,left,7,2020-11-17_18h17.36.804,premup-three_ses-01_part-01_label-phase1,3.2.4,Linux x86_64,60,right,1.125999928,4,0,4,0,1,3,1,0,240,209,1,239,,,,,,,,,,,,,,,,,,
,,1,108,,,,,,,2,2,2,stim/22.jpeg,HouseObjects,1,stim/objects/HouseObjects/ironingboard2.png,0.7,3,-0.2,-0.15,left,7,2020-11-17_18h17.36.804,premup-three_ses-01_part-01_label-phase1,3.2.4,Linux x86_64,60,left,0.985000134,4,0,4,0,1,3,1,0,240,121,1,239,,,,,,,,,,,,,,,,,,
,,1,109,,,,,,,2,1,1,stim/11.jpeg,Instruments,2,stim/objects/Instruments/panflute.png,0.7,1,-0.2,0.15,right,7,2020-11-17_18h17.36.804,premup-three_ses-01_part-01_label-phase1,3.2.4,Linux x86_64,60,right,1.338000059,4,0,4,0,1,3,1,0,240,108,1,239,,,,,,,,,,,,,,,,,,
,,0,110,,,,,,,1,5,1,stim/51.jpeg,Instruments,2,stim/objects/Instruments/keyboard.png,0.5,2,0.2,0.15,right,7,2020-11-17_18h17.36.804,premup-three_ses-01_part-01_label-phase1,3.2.4,Linux x86_64,60,,,4,0,4,0,1,3,1,0,240,32,1,239,,,,,,,,,,,,,,,,,,
,,1,111,,,,,,,3,4,3,stim/43.jpeg,HouseObjects,1,stim/objects/HouseObjects/rubbergloves2.png,0.9,1,-0.2,0.15,left,7,2020-11-17_18h17.36.804,premup-three_ses-01_part-01_label-phase1,3.2.4,Linux x86_64,60,left,0.8349998,4,0,4,0,1,3,1,0,240,226,1,239,,,,,,,,,,,,,,,,,,
,,1,112,,,,,,,3,3,3,stim/33.jpeg,Instruments,2,stim/objects/Instruments/musicstand2.png,0.9,1,-0.2,0.15,right,7,2020-11-17_18h17.36.804,premup-three_ses-01_part-01_label-phase1,3.2.4,Linux x86_64,60,right,1.010999918,4,0,4,0,1,3,1,0,240,186,1,239,,,,,,,,,,,,,,,,,,
,,0,113,,,,,,,3,3,3,stim/33.jpeg,Instruments,2,stim/objects/Instruments/musicstand2.png,0.9,4,0.2,-0.15,right,7,2020-11-17_18h17.36.804,premup-three_ses-01_part-01_label-phase1,3.2.4,Linux x86_64,60,left,0.997999907,4,0,4,0,1,3,1,0,240,166,1,239,,,,,,,,,,,,,,,,,,
,,0,114,,,,,,,2,2,3,stim/23.jpeg,HouseObjects,1,stim/objects/HouseObjects/key2.png,0.7,3,-0.2,-0.15,left,7,2020-11-17_18h17.36.804,premup-three_ses-01_part-01_label-phase1,3.2.4,Linux x86_64,60,right,1.15899992,4,0,4,0,1,3,1,0,240,138,1,239,,,,,,,,,,,,,,,,,,
,,0,115,,,,,,,3,3,1,stim/31.jpeg,Instruments,2,stim/objects/Instruments/metronome2.png,0.9,2,0.2,0.15,right,7,2020-11-17_18h17.36.804,premup-three_ses-01_part-01_label-phase1,3.2.4,Linux x86_64,60,left,0.921999931,4,0,4,0,1,3,1,0,240,172,1,239,,,,,,,,,,,,,,,,,,
,,1,116,,,,,,,2,2,3,stim/23.jpeg,HouseObjects,1,stim/objects/HouseObjects/key2.png,0.7,4,0.2,-0.15,left,7,2020-11-17_18h17.36.804,premup-three_ses-01_part-01_label-phase1,3.2.4,Linux x86_64,60,left,1.69299984,4,0,4,0,1,3,1,0,240,130,1,239,,,,,,,,,,,,,,,,,,
,,1,117,,,,,,,3,4,3,stim/43.jpeg,HouseObjects,1,stim/objects/HouseObjects/rubbergloves2.png,0.9,1,-0.2,0.15,left,7,2020-11-17_18h17.36.804,premup-three_ses-01_part-01_label-phase1,3.2.4,Linux x86_64,60,left,0.958999872,4,0,4,0,1,3,1,0,240,230,1,239,,,,,,,,,,,,,,,,,,
,,0,118,,,,,,,2,1,2,stim/12.jpeg,HouseObjects,1,stim/objects/HouseObjects/remote.png,0.3,3,-0.2,-0.15,left,7,2020-11-17_18h17.36.804,premup-three_ses-01_part-01_label-phase1,3.2.4,Linux x86_64,60,right,1.148999929,4,0,4,0,1,3,1,0,240,89,1,239,,,,,,,,,,,,,,,,,,
,,1,119,,,,,,,1,5,3,stim/53.jpeg,HouseObjects,1,stim/objects/HouseObjects/key.png,0.5,3,-0.2,-0.15,left,7,2020-11-17_18h17.36.804,premup-three_ses-01_part-01_label-phase1,3.2.4,Linux x86_64,60,left,1.046999931,4,0,4,0,1,3,1,0,240,10,1,239,,,,,,,,,,,,,,,,,,
,,0,120,,,,,,,2,2,2,stim/22.jpeg,Instruments,2,stim/objects/Instruments/laud2.png,0.3,3,-0.2,-0.15,right,7,2020-11-17_18h17.36.804,premup-three_ses-01_part-01_label-phase1,3.2.4,Linux x86_64,60,left,1.789999723,4,0,4,0,1,3,1,0,240,153,1,239,,,,,,,,,,,,,,,,,,
,,0,121,,,,,,,2,2,4,stim/24.jpeg,HouseObjects,1,stim/objects/HouseObjects/knife2.png,0.7,4,0.2,-0.15,left,7,2020-11-17_18h17.36.804,premup-three_ses-01_part-01_label-phase1,3.2.4,Linux x86_64,60,right,0.802999973,4,0,4,0,1,3,1,0,240,143,1,239,,,,,,,,,,,,,,,,,,
,,1,122,,,,,,,3,4,1,stim/41.jpeg,HouseObjects,1,stim/objects/HouseObjects/recyclingbin2.png,0.9,1,-0.2,0.15,left,7,2020-11-17_18h17.36.804,premup-three_ses-01_part-01_label-phase1,3.2.4,Linux x86_64,60,left,0.710999966,4,0,4,0,1,3,1,0,240,200,1,239,,,,,,,,,,,,,,,,,,
,,0,123,,,,,,,2,1,4,stim/14.jpeg,HouseObjects,1,stim/objects/HouseObjects/rug.png,0.3,4,0.2,-0.15,left,7,2020-11-17_18h17.36.804,premup-three_ses-01_part-01_label-phase1,3.2.4,Linux x86_64,60,right,1.261999846,4,0,4,0,1,3,1,0,240,83,1,239,,,,,,,,,,,,,,,,,,
,,0,124,,,,,,,2,2,3,stim/23.jpeg,HouseObjects,1,stim/objects/HouseObjects/key2.png,0.7,3,-0.2,-0.15,left,7,2020-11-17_18h17.36.804,premup-three_ses-01_part-01_label-phase1,3.2.4,Linux x86_64,60,,,4,0,4,0,1,3,1,0,240,122,1,239,,,,,,,,,,,,,,,,,,
,,0,125,,,,,,,1,6,1,stim/61.jpeg,HouseObjects,1,stim/objects/HouseObjects/lintroller.png,0.5,3,-0.2,-0.15,left,7,2020-11-17_18h17.36.804,premup-three_ses-01_part-01_label-phase1,3.2.4,Linux x86_64,60,,,4,0,4,0,1,3,1,0,240,44,1,239,,,,,,,,,,,,,,,,,,
,,1,126,,,,,,,3,3,1,stim/31.jpeg,Instruments,2,stim/objects/Instruments/metronome2.png,0.9,3,-0.2,-0.15,right,7,2020-11-17_18h17.36.804,premup-three_ses-01_part-01_label-phase1,3.2.4,Linux x86_64,60,right,0.812999964,4,0,4,0,1,3,1,0,240,184,1,239,,,,,,,,,,,,,,,,,,
,,1,127,,,,,,,2,2,2,stim/22.jpeg,HouseObjects,1,stim/objects/HouseObjects/ironingboard2.png,0.7,4,0.2,-0.15,left,7,2020-11-17_18h17.36.804,premup-three_ses-01_part-01_label-phase1,3.2.4,Linux x86_64,60,left,0.85800004,4,0,4,0,1,3,1,0,240,133,1,239,,,,,,,,,,,,,,,,,,
,,0,128,,,,,,,2,1,2,stim/12.jpeg,Instruments,2,stim/objects/Instruments/pipepiano.png,0.7,4,0.2,-0.15,right,7,2020-11-17_18h17.36.804,premup-three_ses-01_part-01_label-phase1,3.2.4,Linux x86_64,60,left,1.496999979,4,0,4,0,1,3,1,0,240,101,1,239,,,,,,,,,,,,,,,,,,
,,1,129,,,,,,,2,1,1,stim/11.jpeg,Instruments,2,stim/objects/Instruments/panflute.png,0.7,1,-0.2,0.15,right,7,2020-11-17_18h17.36.804,premup-three_ses-01_part-01_label-phase1,3.2.4,Linux x86_64,60,right,0.829999924,4,0,4,0,1,3,1,0,240,92,1,239,,,,,,,,,,,,,,,,,,
,,0,130,,,,,,,2,1,1,stim/11.jpeg,Instruments,2,stim/objects/Instruments/panflute.png,0.7,1,-0.2,0.15,right,7,2020-11-17_18h17.36.804,premup-three_ses-01_part-01_label-phase1,3.2.4,Linux x86_64,60,left,1.285000086,4,0,4,0,1,3,1,0,240,104,1,239,,,,,,,,,,,,,,,,,,
,,0,131,,,,,,,1,6,2,stim/62.jpeg,HouseObjects,1,stim/objects/HouseObjects/match.png,0.5,2,0.2,0.15,left,7,2020-11-17_18h17.36.804,premup-three_ses-01_part-01_label-phase1,3.2.4,Linux x86_64,60,right,0.825999975,4,0,4,0,1,3,1,0,240,41,1,239,,,,,,,,,,,,,,,,,,
,,0,132,,,,,,,2,1,4,stim/14.jpeg,Instruments,2,stim/objects/Instruments/record_player.png,0.7,1,-0.2,0.15,right,7,2020-11-17_18h17.36.804,premup-three_ses-01_part-01_label-phase1,3.2.4,Linux x86_64,60,,,4,0,4,0,1,3,1,0,240,115,1,239,,,,,,,,,,,,,,,,,,
,,1,133,,,,,,,3,4,4,stim/44.jpeg,HouseObjects,1,stim/objects/HouseObjects/rug2.png,0.9,3,-0.2,-0.15,left,7,2020-11-17_18h17.36.804,premup-three_ses-01_part-01_label-phase1,3.2.4,Linux x86_64,60,left,0.940999985,4,0,4,0,1,3,1,0,240,235,1,239,,,,,,,,,,,,,,,,,,
,,1,134,,,,,,,3,3,1,stim/31.jpeg,Instruments,2,stim/objects/Instruments/metronome2.png,0.9,1,-0.2,0.15,right,7,2020-11-17_18h17.36.804,premup-three_ses-01_part-01_label-phase1,3.2.4,Linux x86_64,60,right,1.631999969,4,0,4,0,1,3,1,0,240,192,1,239,,,,,,,,,,,,,,,,,,
,,0,135,,,,,,,1,5,3,stim/53.jpeg,Instruments,2,stim/objects/Instruments/maraca.png,0.5,4,0.2,-0.15,right,7,2020-11-17_18h17.36.804,premup-three_ses-01_part-01_label-phase1,3.2.4,Linux x86_64,60,,,4,0,4,0,1,3,1,0,240,30,1,239,,,,,,,,,,,,,,,,,,
,,1,136,,,,,,,3,4,3,stim/43.jpeg,HouseObjects,1,stim/objects/HouseObjects/rubbergloves2.png,0.9,4,0.2,-0.15,left,7,2020-11-17_18h17.36.804,premup-three_ses-01_part-01_label-phase1,3.2.4,Linux x86_64,60,left,1.421999931,4,0,4,0,1,3,1,0,240,210,1,239,,,,,,,,,,,,,,,,,,
,,0,137,,,,,,,1,6,3,stim/63.jpeg,Instruments,2,stim/objects/Instruments/musicstand.png,0.5,3,-0.2,-0.15,right,7,2020-11-17_18h17.36.804,premup-three_ses-01_part-01_label-phase1,3.2.4,Linux x86_64,60,,,4,0,4,0,1,3,1,0,240,62,1,239,,,,,,,,,,,,,,,,,,
,,1,138,,,,,,,3,4,2,stim/42.jpeg,HouseObjects,1,stim/objects/HouseObjects/remote2.png,0.9,2,0.2,0.15,left,7,2020-11-17_18h17.36.804,premup-three_ses-01_part-01_label-phase1,3.2.4,Linux x86_64,60,left,1.673999786,4,0,4,0,1,3,1,0,240,221,1,239,,,,,,,,,,,,,,,,,,
,,0,139,,,,,,,2,2,1,stim/21.jpeg,HouseObjects,1,stim/objects/HouseObjects/iron2.png,0.7,1,-0.2,0.15,left,7,2020-11-17_18h17.36.804,premup-three_ses-01_part-01_label-phase1,3.2.4,Linux x86_64,60,right,1.082999945,4,0,4,0,1,3,1,0,240,128,1,239,,,,,,,,,,,,,,,,,,
,,1,140,,,,,,,1,5,2,stim/52.jpeg,HouseObjects,1,stim/objects/HouseObjects/ironingboard.png,0.5,2,0.2,0.15,left,7,2020-11-17_18h17.36.804,premup-three_ses-01_part-01_label-phase1,3.2.4,Linux x86_64,60,left,1.023000002,4,0,4,0,1,3,1,0,240,9,1,239,,,,,,,,,,,,,,,,,,
,,1,141,,,,,,,1,6,4,stim/64.jpeg,Instruments,2,stim/objects/Instruments/oboe.png,0.5,1,-0.2,0.15,right,7,2020-11-17_18h17.36.804,premup-three_ses-01_part-01_label-phase1,3.2.4,Linux x86_64,60,right,1.56799984,4,0,4,0,1,3,1,0,240,63,1,239,,,,,,,,,,,,,,,,,,
,,0,142,,,,,,,2,2,4,stim/24.jpeg,Instruments,2,stim/objects/Instruments/marimba2.png,0.3,3,-0.2,-0.15,right,7,2020-11-17_18h17.36.804,premup-three_ses-01_part-01_label-phase1,3.2.4,Linux x86_64,60,,,4,0,4,0,1,3,1,0,240,155,1,239,,,,,,,,,,,,,,,,,,
,,0,143,,,,,,,2,1,3,stim/13.jpeg,Instruments,2,stim/objects/Instruments/record.png,0.7,2,0.2,0.15,right,7,2020-11-17_18h17.36.804,premup-three_ses-01_part-01_label-phase1,3.2.4,Linux x86_64,60,left,1.294999838,4,0,4,0,1,3,1,0,240,94,1,239,,,,,,,,,,,,,,,,,,
,,1,144,,,,,,,1,5,1,stim/51.jpeg,Instruments,2,stim/objects/Instruments/keyboard.png,0.5,3,-0.2,-0.15,right,7,2020-11-17_18h17.36.804,premup-three_ses-01_part-01_label-phase1,3.2.4,Linux x86_64,60,right,0.963000059,4,0,4,0,1,3,1,0,240,28,1,239,,,,,,,,,,,,,,,,,,
,,1,145,,,,,,,3,3,1,stim/31.jpeg,Instruments,2,stim/objects/Instruments/metronome2.png,0.9,2,0.2,0.15,right,7,2020-11-17_18h17.36.804,premup-three_ses-01_part-01_label-phase1,3.2.4,Linux x86_64,60,right,1.023000002,4,0,4,0,1,3,1,0,240,164,1,239,,,,,,,,,,,,,,,,,,
,,1,146,,,,,,,1,6,4,stim/64.jpeg,Instruments,2,stim/objects/Instruments/oboe.png,0.5,1,-0.2,0.15,right,7,2020-11-17_18h17.36.804,premup-three_ses-01_part-01_label-phase1,3.2.4,Linux x86_64,60,right,1.292000055,4,0,4,0,1,3,1,0,240,75,1,239,,,,,,,,,,,,,,,,,,
,,1,147,,,,,,,3,4,2,stim/42.jpeg,HouseObjects,1,stim/objects/HouseObjects/remote2.png,0.9,4,0.2,-0.15,left,7,2020-11-17_18h17.36.804,premup-three_ses-01_part-01_label-phase1,3.2.4,Linux x86_64,60,left,1.638999939,4,0,4,0,1,3,1,0,240,213,1,239,,,,,,,,,,,,,,,,,,
,,0,148,,,,,,,3,3,4,stim/34.jpeg,Instruments,2,stim/objects/Instruments/oboe2.png,0.9,1,-0.2,0.15,right,7,2020-11-17_18h17.36.804,premup-three_ses-01_part-01_label-phase1,3.2.4,Linux x86_64,60,left,1.371999979,4,0,4,0,1,3,1,0,240,171,1,239,,,,,,,,,,,,,,,,,,
,,1,149,,,,,,,1,6,2,stim/62.jpeg,Instruments,2,stim/objects/Instruments/musicsheet.png,0.5,4,0.2,-0.15,right,7,2020-11-17_18h17.36.804,premup-three_ses-01_part-01_label-phase1,3.2.4,Linux x86_64,60,right,1.042000055,4,0,4,0,1,3,1,0,240,77,1,239,,,,,,,,,,,,,,,,,,
,,1,150,,,,,,,1,5,4,stim/54.jpeg,Instruments,2,stim/objects/Instruments/marimba.png,0.5,2,0.2,0.15,right,7,2020-11-17_18h17.36.804,premup-three_ses-01_part-01_label-phase1,3.2.4,Linux x86_64,60,right,1.381000042,4,0,4,0,1,3,1,0,240,27,1,239,,,,,,,,,,,,,,,,,,
,,1,151,,,,,,,3,4,3,stim/43.jpeg,HouseObjects,1,stim/objects/HouseObjects/rubbergloves2.png,0.9,1,-0.2,0.15,left,7,2020-11-17_18h17.36.804,premup-three_ses-01_part-01_label-phase1,3.2.4,Linux x86_64,60,left,0.996000051,4,0,4,0,1,3,1,0,240,206,1,239,,,,,,,,,,,,,,,,,,
,,0,152,,,,,,,2,1,2,stim/12.jpeg,Instruments,2,stim/objects/Instruments/pipepiano.png,0.7,2,0.2,0.15,right,7,2020-11-17_18h17.36.804,premup-three_ses-01_part-01_label-phase1,3.2.4,Linux x86_64,60,left,1.606999874,4,0,4,0,1,3,1,0,240,97,1,239,,,,,,,,,,,,,,,,,,
,,1,153,,,,,,,2,1,4,stim/14.jpeg,Instruments,2,stim/objects/Instruments/record_player.png,0.7,1,-0.2,0.15,right,7,2020-11-17_18h17.36.804,premup-three_ses-01_part-01_label-phase1,3.2.4,Linux x86_64,60,right,0.888000011,4,0,4,0,1,3,1,0,240,103,1,239,,,,,,,,,,,,,,,,,,
,,0,154,,,,,,,1,6,4,stim/64.jpeg,Instruments,2,stim/objects/Instruments/oboe.png,0.5,2,0.2,0.15,right,7,2020-11-17_18h17.36.804,premup-three_ses-01_part-01_label-phase1,3.2.4,Linux x86_64,60,left,0.880000114,4,0,4,0,1,3,1,0,240,79,1,239,,,,,,,,,,,,,,,,,,
,,1,155,,,,,,,1,5,2,stim/52.jpeg,Instruments,2,stim/objects/Instruments/laud.png,0.5,2,0.2,0.15,right,7,2020-11-17_18h17.36.804,premup-three_ses-01_part-01_label-phase1,3.2.4,Linux x86_64,60,right,0.869999886,4,0,4,0,1,3,1,0,240,33,1,239,,,,,,,,,,,,,,,,,,
,,1,156,,,,,,,1,5,1,stim/51.jpeg,Instruments,2,stim/objects/Instruments/keyboard.png,0.5,4,0.2,-0.15,right,7,2020-11-17_18h17.36.804,premup-three_ses-01_part-01_label-phase1,3.2.4,Linux x86_64,60,right,1.759000063,4,0,4,0,1,3,1,0,240,24,1,239,,,,,,,,,,,,,,,,,,
,,1,157,,,,,,,1,5,2,stim/52.jpeg,HouseObjects,1,stim/objects/HouseObjects/ironingboard.png,0.5,1,-0.2,0.15,left,7,2020-11-17_18h17.36.804,premup-three_ses-01_part-01_label-phase1,3.2.4,Linux x86_64,60,left,1.671999931,4,0,4,0,1,3,1,0,240,13,1,239,,,,,,,,,,,,,,,,,,
,,1,158,,,,,,,2,2,3,stim/23.jpeg,Instruments,2,stim/objects/Instruments/maraca2.png,0.3,3,-0.2,-0.15,right,7,2020-11-17_18h17.36.804,premup-three_ses-01_part-01_label-phase1,3.2.4,Linux x86_64,60,right,1.238999844,4,0,4,0,1,3,1,0,240,150,1,239,,,,,,,,,,,,,,,,,,
,,0,159,,,,,,,1,6,2,stim/62.jpeg,Instruments,2,stim/objects/Instruments/musicsheet.png,0.5,4,0.2,-0.15,right,7,2020-11-17_18h17.36.804,premup-three_ses-01_part-01_label-phase1,3.2.4,Linux x86_64,60,left,1.384999752,4,0,4,0,1,3,1,0,240,65,1,239,,,,,,,,,,,,,,,,,,
,,0,160,,,,,,,2,1,1,stim/11.jpeg,HouseObjects,1,stim/objects/HouseObjects/recyclingbin.png,0.3,4,0.2,-0.15,left,7,2020-11-17_18h17.36.804,premup-three_ses-01_part-01_label-phase1,3.2.4,Linux x86_64,60,right,1.266000032,4,0,4,0,1,3,1,0,240,84,1,239,,,,,,,,,,,,,,,,,,
,,1,161,,,,,,,2,1,2,stim/12.jpeg,Instruments,2,stim/objects/Instruments/pipepiano.png,0.7,4,0.2,-0.15,right,7,2020-11-17_18h17.36.804,premup-three_ses-01_part-01_label-phase1,3.2.4,Linux x86_64,60,right,1.032999992,4,0,4,0,1,3,1,0,240,109,1,239,,,,,,,,,,,,,,,,,,
,,0,162,,,,,,,2,1,4,stim/14.jpeg,Instruments,2,stim/objects/Instruments/record_player.png,0.7,3,-0.2,-0.15,right,7,2020-11-17_18h17.36.804,premup-three_ses-01_part-01_label-phase1,3.2.4,Linux x86_64,60,left,0.724999905,4,0,4,0,1,3,1,0,240,119,1,239,,,,,,,,,,,,,,,,,,
,,1,163,,,,,,,3,3,2,stim/32.jpeg,Instruments,2,stim/objects/Instruments/musicsheet2.png,0.9,1,-0.2,0.15,right,7,2020-11-17_18h17.36.804,premup-three_ses-01_part-01_label-phase1,3.2.4,Linux x86_64,60,right,0.643999815,4,0,4,0,1,3,1,0,240,189,1,239,,,,,,,,,,,,,,,,,,
,,1,164,,,,,,,3,4,2,stim/42.jpeg,HouseObjects,1,stim/objects/HouseObjects/remote2.png,0.9,2,0.2,0.15,left,7,2020-11-17_18h17.36.804,premup-three_ses-01_part-01_label-phase1,3.2.4,Linux x86_64,60,left,0.782000065,4,0,4,0,1,3,1,0,240,233,1,239,,,,,,,,,,,,,,,,,,
,,1,165,,,,,,,2,2,1,stim/21.jpeg,Instruments,2,stim/objects/Instruments/keyboard2.png,0.3,4,0.2,-0.15,right,7,2020-11-17_18h17.36.804,premup-three_ses-01_part-01_label-phase1,3.2.4,Linux x86_64,60,right,1.348999977,4,0,4,0,1,3,1,0,240,156,1,239,,,,,,,,,,,,,,,,,,
,,1,166,,,,,,,2,2,3,stim/23.jpeg,HouseObjects,1,stim/objects/HouseObjects/key2.png,0.7,3,-0.2,-0.15,left,7,2020-11-17_18h17.36.804,premup-three_ses-01_part-01_label-phase1,3.2.4,Linux x86_64,60,left,0.78399992,4,0,4,0,1,3,1,0,240,134,1,239,,,,,,,,,,,,,,,,,,
,,1,167,,,,,,,2,2,3,stim/23.jpeg,HouseObjects,1,stim/objects/HouseObjects/key2.png,0.7,3,-0.2,-0.15,left,7,2020-11-17_18h17.36.804,premup-three_ses-01_part-01_label-phase1,3.2.4,Linux x86_64,60,left,0.700999737,4,0,4,0,1,3,1,0,240,146,1,239,,,,,,,,,,,,,,,,,,
,,1,168,,,,,,,1,6,3,stim/63.jpeg,Instruments,2,stim/objects/Instruments/musicstand.png,0.5,1,-0.2,0.15,right,7,2020-11-17_18h17.36.804,premup-three_ses-01_part-01_label-phase1,3.2.4,Linux x86_64,60,right,1.217999935,4,0,4,0,1,3,1,0,240,78,1,239,,,,,,,,,,,,,,,,,,
,,0,169,,,,,,,1,5,3,stim/53.jpeg,Instruments,2,stim/objects/Instruments/maraca.png,0.5,3,-0.2,-0.15,right,7,2020-11-17_18h17.36.804,premup-three_ses-01_part-01_label-phase1,3.2.4,Linux x86_64,60,left,0.868000031,4,0,4,0,1,3,1,0,240,34,1,239,,,,,,,,,,,,,,,,,,
,,0,170,,,,,,,2,1,4,stim/14.jpeg,HouseObjects,1,stim/objects/HouseObjects/rug.png,0.3,1,-0.2,0.15,left,7,2020-11-17_18h17.36.804,premup-three_ses-01_part-01_label-phase1,3.2.4,Linux x86_64,60,right,0.690000057,4,0,4,0,1,3,1,0,240,91,1,239,,,,,,,,,,,,,,,,,,
,,0,171,,,,,,,2,1,4,stim/14.jpeg,Instruments,2,stim/objects/Instruments/record_player.png,0.7,2,0.2,0.15,right,7,2020-11-17_18h17.36.804,premup-three_ses-01_part-01_label-phase1,3.2.4,Linux x86_64,60,left,0.767999887,4,0,4,0,1,3,1,0,240,95,1,239,,,,,,,,,,,,,,,,,,
,,0,172,,,,,,,3,4,1,stim/41.jpeg,HouseObjects,1,stim/objects/HouseObjects/recyclingbin2.png,0.9,2,0.2,0.15,left,7,2020-11-17_18h17.36.804,premup-three_ses-01_part-01_label-phase1,3.2.4,Linux x86_64,60,right,1.088999987,4,0,4,0,1,3,1,0,240,220,1,239,,,,,,,,,,,,,,,,,,
,,0,173,,,,,,,3,3,1,stim/31.jpeg,Instruments,2,stim/objects/Instruments/metronome2.png,0.9,4,0.2,-0.15,right,7,2020-11-17_18h17.36.804,premup-three_ses-01_part-01_label-phase1,3.2.4,Linux x86_64,60,left,0.898000002,4,0,4,0,1,3,1,0,240,196,1,239,,,,,,,,,,,,,,,,,,
,,1,174,,,,,,,1,6,1,stim/61.jpeg,Instruments,2,stim/objects/Instruments/metronome.png,0.5,1,-0.2,0.15,right,7,2020-11-17_18h17.36.804,premup-three_ses-01_part-01_label-phase1,3.2.4,Linux x86_64,60,right,1.430999756,4,0,4,0,1,3,1,0,240,64,1,239,,,,,,,,,,,,,,,,,,
,,1,175,,,,,,,2,1,3,stim/13.jpeg,Instruments,2,stim/objects/Instruments/record.png,0.7,3,-0.2,-0.15,right,7,2020-11-17_18h17.36.804,premup-three_ses-01_part-01_label-phase1,3.2.4,Linux x86_64,60,right,1.760999918,4,0,4,0,1,3,1,0,240,98,1,239,,,,,,,,,,,,,,,,,,
,,0,176,,,,,,,2,2,2,stim/22.jpeg,HouseObjects,1,stim/objects/HouseObjects/ironingboard2.png,0.7,2,0.2,0.15,left,7,2020-11-17_18h17.36.804,premup-three_ses-01_part-01_label-phase1,3.2.4,Linux x86_64,60,,,4,0,4,0,1,3,1,0,240,129,1,239,,,,,,,,,,,,,,,,,,
,,0,177,,,,,,,1,5,1,stim/51.jpeg,HouseObjects,1,stim/objects/HouseObjects/iron.png,0.5,1,-0.2,0.15,left,7,2020-11-17_18h17.36.804,premup-three_ses-01_part-01_label-phase1,3.2.4,Linux x86_64,60,right,0.734999895,4,0,4,0,1,3,1,0,240,12,1,239,,,,,,,,,,,,,,,,,,
,,1,178,,,,,,,2,2,2,stim/22.jpeg,HouseObjects,1,stim/objects/HouseObjects/ironingboard2.png,0.7,1,-0.2,0.15,left,7,2020-11-17_18h17.36.804,premup-three_ses-01_part-01_label-phase1,3.2.4,Linux x86_64,60,left,0.637000084,4,0,4,0,1,3,1,0,240,145,1,239,,,,,,,,,,,,,,,,,,
,,0,179,,,,,,,1,6,2,stim/62.jpeg,HouseObjects,1,stim/objects/HouseObjects/match.png,0.5,4,0.2,-0.15,left,7,2020-11-17_18h17.36.804,premup-three_ses-01_part-01_label-phase1,3.2.4,Linux x86_64,60,right,0.802999973,4,0,4,0,1,3,1,0,240,57,1,239,,,,,,,,,,,,,,,,,,
,,1,180,,,,,,,2,2,4,stim/24.jpeg,HouseObjects,1,stim/objects/HouseObjects/knife2.png,0.7,4,0.2,-0.15,left,7,2020-11-17_18h17.36.804,premup-three_ses-01_part-01_label-phase1,3.2.4,Linux x86_64,60,left,0.608999968,4,0,4,0,1,3,1,0,240,127,1,239,,,,,,,,,,,,,,,,,,
,,1,181,,,,,,,3,3,4,stim/34.jpeg,Instruments,2,stim/objects/Instruments/oboe2.png,0.9,2,0.2,0.15,right,7,2020-11-17_18h17.36.804,premup-three_ses-01_part-01_label-phase1,3.2.4,Linux x86_64,60,right,0.71600008,4,0,4,0,1,3,1,0,240,191,1,239,,,,,,,,,,,,,,,,,,
,,0,182,,,,,,,1,6,4,stim/64.jpeg,HouseObjects,1,stim/objects/HouseObjects/pitcher.png,0.5,1,-0.2,0.15,left,7,2020-11-17_18h17.36.804,premup-three_ses-01_part-01_label-phase1,3.2.4,Linux x86_64,60,right,1.387000084,4,0,4,0,1,3,1,0,240,55,1,239,,,,,,,,,,,,,,,,,,
,,1,183,,,,,,,3,3,3,stim/33.jpeg,HouseObjects,1,stim/objects/HouseObjects/pan2.png,0.1,3,-0.2,-0.15,left,7,2020-11-17_18h17.36.804,premup-three_ses-01_part-01_label-phase1,3.2.4,Linux x86_64,60,left,0.934999943,4,0,4,0,1,3,1,0,240,162,1,239,,,,,,,,,,,,,,,,,,
,,0,184,,,,,,,1,6,2,stim/62.jpeg,HouseObjects,1,stim/objects/HouseObjects/match.png,0.5,2,0.2,0.15,left,7,2020-11-17_18h17.36.804,premup-three_ses-01_part-01_label-phase1,3.2.4,Linux x86_64,60,right,1.490999937,4,0,4,0,1,3,1,0,240,53,1,239,,,,,,,,,,,,,,,,,,
,,0,185,,,,,,,1,6,3,stim/63.jpeg,Instruments,2,stim/objects/Instruments/musicstand.png,0.5,3,-0.2,-0.15,right,7,2020-11-17_18h17.36.804,premup-three_ses-01_part-01_label-phase1,3.2.4,Linux x86_64,60,left,0.880999804,4,0,4,0,1,3,1,0,240,74,1,239,,,,,,,,,,,,,,,,,,
,,0,186,,,,,,,3,3,1,stim/31.jpeg,HouseObjects,1,stim/objects/HouseObjects/lintroller2.png,0.1,4,0.2,-0.15,left,7,2020-11-17_18h17.36.804,premup-three_ses-01_part-01_label-phase1,3.2.4,Linux x86_64,60,right,1.195999861,4,0,4,0,1,3,1,0,240,160,1,239,,,,,,,,,,,,,,,,,,
,,1,187,,,,,,,1,6,1,stim/61.jpeg,HouseObjects,1,stim/objects/HouseObjects/lintroller.png,0.5,1,-0.2,0.15,left,7,2020-11-17_18h17.36.804,premup-three_ses-01_part-01_label-phase1,3.2.4,Linux x86_64,60,left,0.570999861,4,0,4,0,1,3,1,0,240,48,1,239,,,,,,,,,,,,,,,,,,
,,0,188,,,,,,,1,5,3,stim/53.jpeg,Instruments,2,stim/objects/Instruments/maraca.png,0.5,1,-0.2,0.15,right,7,2020-11-17_18h17.36.804,premup-three_ses-01_part-01_label-phase1,3.2.4,Linux x86_64,60,left,0.757999897,4,0,4,0,1,3,1,0,240,26,1,239,,,,,,,,,,,,,,,,,,
,,0,189,,,,,,,1,5,4,stim/54.jpeg,HouseObjects,1,stim/objects/HouseObjects/knife.png,0.5,2,0.2,0.15,left,7,2020-11-17_18h17.36.804,premup-three_ses-01_part-01_label-phase1,3.2.4,Linux x86_64,60,right,0.934999943,4,0,4,0,1,3,1,0,240,7,1,239,,,,,,,,,,,,,,,,,,
,,0,190,,,,,,,2,2,1,stim/21.jpeg,Instruments,2,stim/objects/Instruments/keyboard2.png,0.3,2,0.2,0.15,right,7,2020-11-17_18h17.36.804,premup-three_ses-01_part-01_label-phase1,3.2.4,Linux x86_64,60,left,0.864000082,4,0,4,0,1,3,1,0,240,148,1,239,,,,,,,,,,,,,,,,,,
,,0,191,,,,,,,1,5,3,stim/53.jpeg,HouseObjects,1,stim/objects/HouseObjects/key.png,0.5,4,0.2,-0.15,left,7,2020-11-17_18h17.36.804,premup-three_ses-01_part-01_label-phase1,3.2.4,Linux x86_64,60,right,1.585999966,4,0,4,0,1,3,1,0,240,2,1,239,,,,,,,,,,,,,,,,,,
,,0,192,,,,,,,2,2,4,stim/24.jpeg,Instruments,2,stim/objects/Instruments/marimba2.png,0.3,2,0.2,0.15,right,7,2020-11-17_18h17.36.804,premup-three_ses-01_part-01_label-phase1,3.2.4,Linux x86_64,60,left,0.736999989,4,0,4,0,1,3,1,0,240,151,1,239,,,,,,,,,,,,,,,,,,
,,1,193,,,,,,,3,3,1,stim/31.jpeg,Instruments,2,stim/objects/Instruments/metronome2.png,0.9,1,-0.2,0.15,right,7,2020-11-17_18h17.36.804,premup-three_ses-01_part-01_label-phase1,3.2.4,Linux x86_64,60,right,0.684999943,4,0,4,0,1,3,1,0,240,176,1,239,,,,,,,,,,,,,,,,,,
,,0,194,,,,,,,3,3,2,stim/32.jpeg,HouseObjects,1,stim/objects/HouseObjects/match2.png,0.1,2,0.2,0.15,left,7,2020-11-17_18h17.36.804,premup-three_ses-01_part-01_label-phase1,3.2.4,Linux x86_64,60,right,1.15899992,4,0,4,0,1,3,1,0,240,161,1,239,,,,,,,,,,,,,,,,,,
,,1,195,,,,,,,1,5,1,stim/51.jpeg,Instruments,2,stim/objects/Instruments/keyboard.png,0.5,1,-0.2,0.15,right,7,2020-11-17_18h17.36.804,premup-three_ses-01_part-01_label-phase1,3.2.4,Linux x86_64,60,right,1.525000095,4,0,4,0,1,3,1,0,240,20,1,239,,,,,,,,,,,,,,,,,,
,,0,196,,,,,,,2,2,2,stim/22.jpeg,HouseObjects,1,stim/objects/HouseObjects/ironingboard2.png,0.7,1,-0.2,0.15,left,7,2020-11-17_18h17.36.804,premup-three_ses-01_part-01_label-phase1,3.2.4,Linux x86_64,60,right,1.048999786,4,0,4,0,1,3,1,0,240,125,1,239,,,,,,,,,,,,,,,,,,
,,0,197,,,,,,,3,4,3,stim/43.jpeg,Instruments,2,stim/objects/Instruments/record2.png,0.1,2,0.2,0.15,right,7,2020-11-17_18h17.36.804,premup-three_ses-01_part-01_label-phase1,3.2.4,Linux x86_64,60,left,0.769000053,4,0,4,0,1,3,1,0,240,238,1,239,,,,,,,,,,,,,,,,,,
,,1,198,,,,,,,1,5,2,stim/52.jpeg,Instruments,2,stim/objects/Instruments/laud.png,0.5,1,-0.2,0.15,right,7,2020-11-17_18h17.36.804,premup-three_ses-01_part-01_label-phase1,3.2.4,Linux x86_64,60,right,0.886999846,4,0,4,0,1,3,1,0,240,21,1,239,,,,,,,,,,,,,,,,,,
,,0,199,,,,,,,2,2,1,stim/21.jpeg,Instruments,2,stim/objects/Instruments/keyboard2.png,0.3,2,0.2,0.15,right,7,2020-11-17_18h17.36.804,premup-three_ses-01_part-01_label-phase1,3.2.4,Linux x86_64,60,left,1.04399991,4,0,4,0,1,3,1,0,240,152,1,239,,,,,,,,,,,,,,,,,,
,,1,200,,,,,,,3,4,4,stim/44.jpeg,Instruments,2,stim/objects/Instruments/record_player2.png,0.1,3,-0.2,-0.15,right,7,2020-11-17_18h17.36.804,premup-three_ses-01_part-01_label-phase1,3.2.4,Linux x86_64,60,right,1.838000059,4,0,4,0,1,3,1,0,240,239,1,239,,,,,,,,,,,,,,,,,,
,,0,201,,,,,,,3,4,3,stim/43.jpeg,HouseObjects,1,stim/objects/HouseObjects/rubbergloves2.png,0.9,1,-0.2,0.15,left,7,2020-11-17_18h17.36.804,premup-three_ses-01_part-01_label-phase1,3.2.4,Linux x86_64,60,right,1.549000025,4,0,4,0,1,3,1,0,240,234,1,239,,,,,,,,,,,,,,,,,,
,,0,202,,,,,,,1,5,2,stim/52.jpeg,HouseObjects,1,stim/objects/HouseObjects/ironingboard.png,0.5,2,0.2,0.15,left,7,2020-11-17_18h17.36.804,premup-three_ses-01_part-01_label-phase1,3.2.4,Linux x86_64,60,,,4,0,4,0,1,3,1,0,240,5,1,239,,,,,,,,,,,,,,,,,,
,,0,203,,,,,,,1,5,1,stim/51.jpeg,Instruments,2,stim/objects/Instruments/keyboard.png,0.5,3,-0.2,-0.15,right,7,2020-11-17_18h17.36.804,premup-three_ses-01_part-01_label-phase1,3.2.4,Linux x86_64,60,left,1.039999962,4,0,4,0,1,3,1,0,240,36,1,239,,,,,,,,,,,,,,,,,,
,,1,204,,,,,,,2,1,1,stim/11.jpeg,HouseObjects,1,stim/objects/HouseObjects/recyclingbin.png,0.3,2,0.2,0.15,left,7,2020-11-17_18h17.36.804,premup-three_ses-01_part-01_label-phase1,3.2.4,Linux x86_64,60,left,1.385999918,4,0,4,0,1,3,1,0,240,88,1,239,,,,,,,,,,,,,,,,,,
,,0,205,,,,,,,2,2,4,stim/24.jpeg,HouseObjects,1,stim/objects/HouseObjects/knife2.png,0.7,3,-0.2,-0.15,left,7,2020-11-17_18h17.36.804,premup-three_ses-01_part-01_label-phase1,3.2.4,Linux x86_64,60,right,0.955999851,4,0,4,0,1,3,1,0,240,139,1,239,,,,,,,,,,,,,,,,,,
,,1,206,,,,,,,3,4,4,stim/44.jpeg,HouseObjects,1,stim/objects/HouseObjects/rug2.png,0.9,3,-0.2,-0.15,left,7,2020-11-17_18h17.36.804,premup-three_ses-01_part-01_label-phase1,3.2.4,Linux x86_64,60,left,1.064999819,4,0,4,0,1,3,1,0,240,211,1,239,,,,,,,,,,,,,,,,,,
,,1,207,,,,,,,2,1,3,stim/13.jpeg,HouseObjects,1,stim/objects/HouseObjects/rubbergloves.png,0.3,4,0.2,-0.15,left,7,2020-11-17_18h17.36.804,premup-three_ses-01_part-01_label-phase1,3.2.4,Linux x86_64,60,left,0.947999954,4,0,4,0,1,3,1,0,240,86,1,239,,,,,,,,,,,,,,,,,,
,,0,208,,,,,,,2,2,1,stim/21.jpeg,HouseObjects,1,stim/objects/HouseObjects/iron2.png,0.7,3,-0.2,-0.15,left,7,2020-11-17_18h17.36.804,premup-three_ses-01_part-01_label-phase1,3.2.4,Linux x86_64,60,right,0.68599987,4,0,4,0,1,3,1,0,240,124,1,239,,,,,,,,,,,,,,,,,,
,,1,209,,,,,,,3,4,3,stim/43.jpeg,HouseObjects,1,stim/objects/HouseObjects/rubbergloves2.png,0.9,1,-0.2,0.15,left,7,2020-11-17_18h17.36.804,premup-three_ses-01_part-01_label-phase1,3.2.4,Linux x86_64,60,left,0.722999811,4,0,4,0,1,3,1,0,240,222,1,239,,,,,,,,,,,,,,,,,,
,,0,210,,,,,,,1,6,3,stim/63.jpeg,HouseObjects,1,stim/objects/HouseObjects/pan.png,0.5,3,-0.2,-0.15,left,7,2020-11-17_18h17.36.804,premup-three_ses-01_part-01_label-phase1,3.2.4,Linux x86_64,60,right,0.509999752,4,0,4,0,1,3,1,0,240,50,1,239,,,,,,,,,,,,,,,,,,
,,1,211,,,,,,,2,2,3,stim/23.jpeg,HouseObjects,1,stim/objects/HouseObjects/key2.png,0.7,1,-0.2,0.15,left,7,2020-11-17_18h17.36.804,premup-three_ses-01_part-01_label-phase1,3.2.4,Linux x86_64,60,left,0.669000149,4,0,4,0,1,3,1,0,240,142,1,239,,,,,,,,,,,,,,,,,,
,,0,212,,,,,,,1,6,2,stim/62.jpeg,Instruments,2,stim/objects/Instruments/musicsheet.png,0.5,4,0.2,-0.15,right,7,2020-11-17_18h17.36.804,premup-three_ses-01_part-01_label-phase1,3.2.4,Linux x86_64,60,left,0.738999844,4,0,4,0,1,3,1,0,240,61,1,239,,,,,,,,,,,,,,,,,,
,,1,213,,,,,,,3,3,3,stim/33.jpeg,Instruments,2,stim/objects/Instruments/musicstand2.png,0.9,2,0.2,0.15,right,7,2020-11-17_18h17.36.804,premup-three_ses-01_part-01_label-phase1,3.2.4,Linux x86_64,60,right,0.82400012,4,0,4,0,1,3,1,0,240,178,1,239,,,,,,,,,,,,,,,,,,
,,0,214,,,,,,,2,1,1,stim/11.jpeg,Instruments,2,stim/objects/Instruments/panflute.png,0.7,3,-0.2,-0.15,right,7,2020-11-17_18h17.36.804,premup-three_ses-01_part-01_label-phase1,3.2.4,Linux x86_64,60,left,1.042999983,4,0,4,0,1,3,1,0,240,112,1,239,,,,,,,,,,,,,,,,,,
,,1,215,,,,,,,3,4,2,stim/42.jpeg,Instruments,2,stim/objects/Instruments/pipepiano2.png,0.1,3,-0.2,-0.15,right,7,2020-11-17_18h17.36.804,premup-three_ses-01_part-01_label-phase1,3.2.4,Linux x86_64,60,right,0.976000071,4,0,4,0,1,3,1,0,240,237,1,239,,,,,,,,,,,,,,,,,,
,,0,216,,,,,,,1,5,1,stim/51.jpeg,HouseObjects,1,stim/objects/HouseObjects/iron.png,0.5,4,0.2,-0.15,left,7,2020-11-17_18h17.36.804,premup-three_ses-01_part-01_label-phase1,3.2.4,Linux x86_64,60,right,0.81099987,4,0,4,0,1,3,1,0,240,4,1,239,,,,,,,,,,,,,,,,,,
,,1,217,,,,,,,3,4,4,stim/44.jpeg,HouseObjects,1,stim/objects/HouseObjects/rug2.png,0.9,3,-0.2,-0.15,left,7,2020-11-17_18h17.36.804,premup-three_ses-01_part-01_label-phase1,3.2.4,Linux x86_64,60,left,0.998999834,4,0,4,0,1,3,1,0,240,231,1,239,,,,,,,,,,,,,,,,,,
,,0,218,,,,,,,2,2,1,stim/21.jpeg,HouseObjects,1,stim/objects/HouseObjects/iron2.png,0.7,4,0.2,-0.15,left,7,2020-11-17_18h17.36.804,premup-three_ses-01_part-01_label-phase1,3.2.4,Linux x86_64,60,right,1.020999908,4,0,4,0,1,3,1,0,240,120,1,239,,,,,,,,,,,,,,,,,,
,,0,219,,,,,,,3,3,2,stim/32.jpeg,Instruments,2,stim/objects/Instruments/musicsheet2.png,0.9,3,-0.2,-0.15,right,7,2020-11-17_18h17.36.804,premup-three_ses-01_part-01_label-phase1,3.2.4,Linux x86_64,60,left,0.618999958,4,0,4,0,1,3,1,0,240,185,1,239,,,,,,,,,,,,,,,,,,
,,1,220,,,,,,,1,5,2,stim/52.jpeg,Instruments,2,stim/objects/Instruments/laud.png,0.5,2,0.2,0.15,right,7,2020-11-17_18h17.36.804,premup-three_ses-01_part-01_label-phase1,3.2.4,Linux x86_64,60,right,0.852999926,4,0,4,0,1,3,1,0,240,29,1,239,,,,,,,,,,,,,,,,,,
,,0,221,,,,,,,3,3,4,stim/34.jpeg,Instruments,2,stim/objects/Instruments/oboe2.png,0.9,4,0.2,-0.15,right,7,2020-11-17_18h17.36.804,premup-three_ses-01_part-01_label-phase1,3.2.4,Linux x86_64,60,left,1.23300004,4,0,4,0,1,3,1,0,240,179,1,239,,,,,,,,,,,,,,,,,,
,,0,222,,,,,,,1,6,4,stim/64.jpeg,HouseObjects,1,stim/objects/HouseObjects/pitcher.png,0.5,2,0.2,0.15,left,7,2020-11-17_18h17.36.804,premup-three_ses-01_part-01_label-phase1,3.2.4,Linux x86_64,60,right,0.846999884,4,0,4,0,1,3,1,0,240,59,1,239,,,,,,,,,,,,,,,,,,
,,0,223,,,,,,,1,6,1,stim/61.jpeg,Instruments,2,stim/objects/Instruments/metronome.png,0.5,3,-0.2,-0.15,right,7,2020-11-17_18h17.36.804,premup-three_ses-01_part-01_label-phase1,3.2.4,Linux x86_64,60,left,1.453999996,4,0,4,0,1,3,1,0,240,68,1,239,,,,,,,,,,,,,,,,,,
,,1,224,,,,,,,3,4,3,stim/43.jpeg,HouseObjects,1,stim/objects/HouseObjects/rubbergloves2.png,0.9,1,-0.2,0.15,left,7,2020-11-17_18h17.36.804,premup-three_ses-01_part-01_label-phase1,3.2.4,Linux x86_64,60,left,1.40899992,4,0,4,0,1,3,1,0,240,214,1,239,,,,,,,,,,,,,,,,,,
,,0,225,,,,,,,3,4,4,stim/44.jpeg,HouseObjects,1,stim/objects/HouseObjects/rug2.png,0.9,4,0.2,-0.15,left,7,2020-11-17_18h17.36.804,premup-three_ses-01_part-01_label-phase1,3.2.4,Linux x86_64,60,right,1.604999781,4,0,4,0,1,3,1,0,240,219,1,239,,,,,,,,,,,,,,,,,,
,,1,226,,,,,,,2,2,4,stim/24.jpeg,HouseObjects,1,stim/objects/HouseObjects/knife2.png,0.7,2,0.2,0.15,left,7,2020-11-17_18h17.36.804,premup-three_ses-01_part-01_label-phase1,3.2.4,Linux x86_64,60,left,1.032999992,4,0,4,0,1,3,1,0,240,147,1,239,,,,,,,,,,,,,,,,,,
,,1,227,,,,,,,1,6,1,stim/61.jpeg,HouseObjects,1,stim/objects/HouseObjects/lintroller.png,0.5,4,0.2,-0.15,left,7,2020-11-17_18h17.36.804,premup-three_ses-01_part-01_label-phase1,3.2.4,Linux x86_64,60,left,0.951999903,4,0,4,0,1,3,1,0,240,40,1,239,,,,,,,,,,,,,,,,,,
,,1,228,,,,,,,2,2,4,stim/24.jpeg,HouseObjects,1,stim/objects/HouseObjects/knife2.png,0.7,2,0.2,0.15,left,7,2020-11-17_18h17.36.804,premup-three_ses-01_part-01_label-phase1,3.2.4,Linux x86_64,60,left,1.132999897,4,0,4,0,1,3,1,0,240,135,1,239,,,,,,,,,,,,,,,,,,
,,0,229,,,,,,,2,1,1,stim/11.jpeg,Instruments,2,stim/objects/Instruments/panflute.png,0.7,2,0.2,0.15,right,7,2020-11-17_18h17.36.804,premup-three_ses-01_part-01_label-phase1,3.2.4,Linux x86_64,60,left,1.315000057,4,0,4,0,1,3,1,0,240,96,1,239,,,,,,,,,,,,,,,,,,
,,1,230,,,,,,,2,2,3,stim/23.jpeg,HouseObjects,1,stim/objects/HouseObjects/key2.png,0.7,2,0.2,0.15,left,7,2020-11-17_18h17.36.804,premup-three_ses-01_part-01_label-phase1,3.2.4,Linux x86_64,60,left,0.960999966,4,0,4,0,1,3,1,0,240,126,1,239,,,,,,,,,,,,,,,,,,
,,0,231,,,,,,,1,6,1,stim/61.jpeg,HouseObjects,1,stim/objects/HouseObjects/lintroller.png,0.5,4,0.2,-0.15,left,7,2020-11-17_18h17.36.804,premup-three_ses-01_part-01_label-phase1,3.2.4,Linux x86_64,60,right,1.345000029,4,0,4,0,1,3,1,0,240,56,1,239,,,,,,,,,,,,,,,,,,
,,0,232,,,,,,,2,2,1,stim/21.jpeg,HouseObjects,1,stim/objects/HouseObjects/iron2.png,0.7,4,0.2,-0.15,left,7,2020-11-17_18h17.36.804,premup-three_ses-01_part-01_label-phase1,3.2.4,Linux x86_64,60,right,1.487999916,4,0,4,0,1,3,1,0,240,140,1,239,,,,,,,,,,,,,,,,,,
,,1,233,,,,,,,3,3,3,stim/33.jpeg,Instruments,2,stim/objects/Instruments/musicstand2.png,0.9,2,0.2,0.15,right,7,2020-11-17_18h17.36.804,premup-three_ses-01_part-01_label-phase1,3.2.4,Linux x86_64,60,right,1.176999807,4,0,4,0,1,3,1,0,240,170,1,239,,,,,,,,,,,,,,,,,,
,,0,234,,,,,,,1,6,2,stim/62.jpeg,HouseObjects,1,stim/objects/HouseObjects/match.png,0.5,4,0.2,-0.15,left,7,2020-11-17_18h17.36.804,premup-three_ses-01_part-01_label-phase1,3.2.4,Linux x86_64,60,right,1.398999929,4,0,4,0,1,3,1,0,240,45,1,239,,,,,,,,,,,,,,,,,,
,,1,235,,,,,,,1,6,3,stim/63.jpeg,HouseObjects,1,stim/objects/HouseObjects/pan.png,0.5,1,-0.2,0.15,left,7,2020-11-17_18h17.36.804,premup-three_ses-01_part-01_label-phase1,3.2.4,Linux x86_64,60,left,0.957999945,4,0,4,0,1,3,1,0,240,58,1,239,,,,,,,,,,,,,,,,,,
,,0,236,,,,,,,2,1,4,stim/14.jpeg,Instruments,2,stim/objects/Instruments/record_player.png,0.7,4,0.2,-0.15,right,7,2020-11-17_18h17.36.804,premup-three_ses-01_part-01_label-phase1,3.2.4,Linux x86_64,60,,,4,0,4,0,1,3,1,0,240,111,1,239,,,,,,,,,,,,,,,,,,
,,0,237,,,,,,,2,1,2,stim/12.jpeg,Instruments,2,stim/objects/Instruments/pipepiano.png,0.7,3,-0.2,-0.15,right,7,2020-11-17_18h17.36.804,premup-three_ses-01_part-01_label-phase1,3.2.4,Linux x86_64,60,left,1.036999941,4,0,4,0,1,3,1,0,240,117,1,239,,,,,,,,,,,,,,,,,,
,,0,238,,,,,,,3,4,4,stim/44.jpeg,HouseObjects,1,stim/objects/HouseObjects/rug2.png,0.9,3,-0.2,-0.15,left,7,2020-11-17_18h17.36.804,premup-three_ses-01_part-01_label-phase1,3.2.4,Linux x86_64,60,,,4,0,4,0,1,3,1,0,240,207,1,239,,,,,,,,,,,,,,,,,,
,,0,239,,,,,,,3,4,1,stim/41.jpeg,HouseObjects,1,stim/objects/HouseObjects/recyclingbin2.png,0.9,1,-0.2,0.15,left,7,2020-11-17_18h17.36.804,premup-three_ses-01_part-01_label-phase1,3.2.4,Linux x86_64,60,right,1.468999863,4,0,4,0,1,3,1,0,240,204,1,239,,,,,,,,,,,,,,,,,,
,,0,240,,,,,,,3,4,4,stim/44.jpeg,HouseObjects,1,stim/objects/HouseObjects/rug2.png,0.9,3,-0.2,-0.15,left,7,2020-11-17_18h17.36.804,premup-three_ses-01_part-01_label-phase1,3.2.4,Linux x86_64,60,right,1.587000132,4,0,4,0,1,3,1,0,240,227,1,239,,,,,,,,,,,,,,,,,,
,,,,,,,,,,,6,,stim/61.jpeg,,,,,,,,,7,2020-11-17_18h17.36.804,premup-three_ses-01_part-01_label-phase1,3.2.4,Linux x86_64,60,,,4,0,4,0,1,3,,,,,,,1,0,75,35.43799996,,,1,0,6,5,1,5,Household items,5,15,Music items,85,95
,,,,,,,,,,,2,,stim/21.jpeg,,,,,,,,,7,2020-11-17_18h17.36.804,premup-three_ses-01_part-01_label-phase1,3.2.4,Linux x86_64,60,,,4,0,4,0,1,3,,,,,,,1,0,65,13.75100017,,,1,0,6,1,1,5,Music items,45,55,Household items,45,55
,,,,,,,,,,,4,,stim/41.jpeg,,,,,,,,,7,2020-11-17_18h17.36.804,premup-three_ses-01_part-01_label-phase1,3.2.4,Linux x86_64,60,,,4,0,4,0,1,3,,,,,,,1,0,85,6.809999943,,,1,0,6,3,1,5,Household items,65,75,Music items,25,35
,,,,,,,,,,,5,,stim/51.jpeg,,,,,,,,,7,2020-11-17_18h17.36.804,premup-three_ses-01_part-01_label-phase1,3.2.4,Linux x86_64,60,,,4,0,4,0,1,3,,,,,,,1,0,89,6.778000116,,,1,0,6,4,1,5,Music items,5,15,Household items,85,95
,,,,,,,,,,,3,,stim/31.jpeg,,,,,,,,,7,2020-11-17_18h17.36.804,premup-three_ses-01_part-01_label-phase1,3.2.4,Linux x86_64,60,,,4,0,4,0,1,3,,,,,,,1,0,88,7.262000084,,,1,0,6,2,1,5,Household items,65,75,Music items,25,35
,,,,,,,,,,,1,,stim/11.jpeg,,,,,,,,,7,2020-11-17_18h17.36.804,premup-three_ses-01_part-01_label-phase1,3.2.4,Linux x86_64,60,,,4,0,4,0,1,3,,,,,,,1,0,70,13.80599999,,,1,0,6,0,1,5,Household items,45,55,Music items,45,55
,,,,,,,,,,,,,,,,,,,,,,7,2020-11-17_18h17.36.804,premup-three_ses-01_part-01_label-phase1,3.2.4,Linux x86_64,60,,,4,0,4,0,1,3,,,,,,,,,,,,,,,,,,,,,,,,
,,0,1,,,,,,,2,2,2,stim/22.jpeg,HouseObjects,1,stim/objects/HouseObjects/ironingboard2.png,0.7,4,0.2,-0.15,left,7,2020-11-17_18h17.36.804,premup-three_ses-01_part-01_label-phase1,3.2.4,Linux x86_64,60,,,4,0,4,0,1,3,1,0,240,137,1,239,,,,,,,,,,,,,,,,,,
,,1,2,,,,,,,2,2,1,stim/21.jpeg,HouseObjects,1,stim/objects/HouseObjects/iron2.png,0.7,4,0.2,-0.15,left,7,2020-11-17_18h17.36.804,premup-three_ses-01_part-01_label-phase1,3.2.4,Linux x86_64,60,left,1.299999952,4,0,4,0,1,3,1,0,240,140,1,239,,,,,,,,,,,,,,,,,,
,,1,3,,,,,,,3,3,4,stim/34.jpeg,Instruments,2,stim/objects/Instruments/oboe2.png,0.9,3,-0.2,-0.15,right,7,2020-11-17_18h17.36.804,premup-three_ses-01_part-01_label-phase1,3.2.4,Linux x86_64,60,right,1.058999777,4,0,4,0,1,3,1,0,240,199,1,239,,,,,,,,,,,,,,,,,,
,,1,4,,,,,,,3,4,2,stim/42.jpeg,HouseObjects,1,stim/objects/HouseObjects/remote2.png,0.9,2,0.2,0.15,left,7,2020-11-17_18h17.36.804,premup-three_ses-01_part-01_label-phase1,3.2.4,Linux x86_64,60,left,1.220999718,4,0,4,0,1,3,1,0,240,201,1,239,,,,,,,,,,,,,,,,,,
,,1,5,,,,,,,1,5,1,stim/51.jpeg,Instruments,2,stim/objects/Instruments/keyboard.png,0.5,1,-0.2,0.15,right,7,2020-11-17_18h17.36.804,premup-three_ses-01_part-01_label-phase1,3.2.4,Linux x86_64,60,right,1.230999947,4,0,4,0,1,3,1,0,240,20,1,239,,,,,,,,,,,,,,,,,,
,,0,6,,,,,,,2,1,1,stim/11.jpeg,HouseObjects,1,stim/objects/HouseObjects/recyclingbin.png,0.3,4,0.2,-0.15,left,7,2020-11-17_18h17.36.804,premup-three_ses-01_part-01_label-phase1,3.2.4,Linux x86_64,60,right,1.649999857,4,0,4,0,1,3,1,0,240,80,1,239,,,,,,,,,,,,,,,,,,
,,0,7,,,,,,,3,4,2,stim/42.jpeg,Instruments,2,stim/objects/Instruments/pipepiano2.png,0.1,3,-0.2,-0.15,right,7,2020-11-17_18h17.36.804,premup-three_ses-01_part-01_label-phase1,3.2.4,Linux x86_64,60,left,1.214999914,4,0,4,0,1,3,1,0,240,237,1,239,,,,,,,,,,,,,,,,,,
,,0,8,,,,,,,1,5,3,stim/53.jpeg,HouseObjects,1,stim/objects/HouseObjects/key.png,0.5,4,0.2,-0.15,left,7,2020-11-17_18h17.36.804,premup-three_ses-01_part-01_label-phase1,3.2.4,Linux x86_64,60,right,1.726999998,4,0,4,0,1,3,1,0,240,2,1,239,,,,,,,,,,,,,,,,,,
,,1,9,,,,,,,3,3,1,stim/31.jpeg,Instruments,2,stim/objects/Instruments/metronome2.png,0.9,2,0.2,0.15,right,7,2020-11-17_18h17.36.804,premup-three_ses-01_part-01_label-phase1,3.2.4,Linux x86_64,60,right,0.807999849,4,0,4,0,1,3,1,0,240,172,1,239,,,,,,,,,,,,,,,,,,
,,1,10,,,,,,,3,4,4,stim/44.jpeg,HouseObjects,1,stim/objects/HouseObjects/rug2.png,0.9,3,-0.2,-0.15,left,7,2020-11-17_18h17.36.804,premup-three_ses-01_part-01_label-phase1,3.2.4,Linux x86_64,60,left,1.021999836,4,0,4,0,1,3,1,0,240,203,1,239,,,,,,,,,,,,,,,,,,
,,0,11,,,,,,,3,3,4,stim/34.jpeg,Instruments,2,stim/objects/Instruments/oboe2.png,0.9,1,-0.2,0.15,right,7,2020-11-17_18h17.36.804,premup-three_ses-01_part-01_label-phase1,3.2.4,Linux x86_64,60,left,0.972000122,4,0,4,0,1,3,1,0,240,171,1,239,,,,,,,,,,,,,,,,,,
,,0,12,,,,,,,2,1,1,stim/11.jpeg,Instruments,2,stim/objects/Instruments/panflute.png,0.7,2,0.2,0.15,right,7,2020-11-17_18h17.36.804,premup-three_ses-01_part-01_label-phase1,3.2.4,Linux x86_64,60,left,1.559999704,4,0,4,0,1,3,1,0,240,96,1,239,,,,,,,,,,,,,,,,,,
,,1,13,,,,,,,3,3,4,stim/34.jpeg,Instruments,2,stim/objects/Instruments/oboe2.png,0.9,4,0.2,-0.15,right,7,2020-11-17_18h17.36.804,premup-three_ses-01_part-01_label-phase1,3.2.4,Linux x86_64,60,right,1.020999908,4,0,4,0,1,3,1,0,240,179,1,239,,,,,,,,,,,,,,,,,,
,,0,14,,,,,,,2,1,2,stim/12.jpeg,Instruments,2,stim/objects/Instruments/pipepiano.png,0.7,4,0.2,-0.15,right,7,2020-11-17_18h17.36.804,premup-three_ses-01_part-01_label-phase1,3.2.4,Linux x86_64,60,left,1.05099988,4,0,4,0,1,3,1,0,240,101,1,239,,,,,,,,,,,,,,,,,,
,,1,15,,,,,,,2,1,4,stim/14.jpeg,Instruments,2,stim/objects/Instruments/record_player.png,0.7,4,0.2,-0.15,right,7,2020-11-17_18h17.36.804,premup-three_ses-01_part-01_label-phase1,3.2.4,Linux x86_64,60,right,0.885999918,4,0,4,0,1,3,1,0,240,111,1,239,,,,,,,,,,,,,,,,,,
,,1,16,,,,,,,2,2,1,stim/21.jpeg,HouseObjects,1,stim/objects/HouseObjects/iron2.png,0.7,4,0.2,-0.15,left,7,2020-11-17_18h17.36.804,premup-three_ses-01_part-01_label-phase1,3.2.4,Linux x86_64,60,left,1.150999784,4,0,4,0,1,3,1,0,240,120,1,239,,,,,,,,,,,,,,,,,,
,,0,17,,,,,,,1,6,2,stim/62.jpeg,HouseObjects,1,stim/objects/HouseObjects/match.png,0.5,2,0.2,0.15,left,7,2020-11-17_18h17.36.804,premup-three_ses-01_part-01_label-phase1,3.2.4,Linux x86_64,60,,,4,0,4,0,1,3,1,0,240,53,1,239,,,,,,,,,,,,,,,,,,
,,1,18,,,,,,,2,1,2,stim/12.jpeg,Instruments,2,stim/objects/Instruments/pipepiano.png,0.7,4,0.2,-0.15,right,7,2020-11-17_18h17.36.804,premup-three_ses-01_part-01_label-phase1,3.2.4,Linux x86_64,60,right,1.496000051,4,0,4,0,1,3,1,0,240,109,1,239,,,,,,,,,,,,,,,,,,
,,1,19,,,,,,,1,5,3,stim/53.jpeg,HouseObjects,1,stim/objects/HouseObjects/key.png,0.5,2,0.2,0.15,left,7,2020-11-17_18h17.36.804,premup-three_ses-01_part-01_label-phase1,3.2.4,Linux x86_64,60,left,0.8349998,4,0,4,0,1,3,1,0,240,18,1,239,,,,,,,,,,,,,,,,,,
,,0,20,,,,,,,2,1,3,stim/13.jpeg,HouseObjects,1,stim/objects/HouseObjects/rubbergloves.png,0.3,4,0.2,-0.15,left,7,2020-11-17_18h17.36.804,premup-three_ses-01_part-01_label-phase1,3.2.4,Linux x86_64,60,right,1.124999762,4,0,4,0,1,3,1,0,240,86,1,239,,,,,,,,,,,,,,,,,,
,,1,21,,,,,,,1,6,4,stim/64.jpeg,Instruments,2,stim/objects/Instruments/oboe.png,0.5,1,-0.2,0.15,right,7,2020-11-17_18h17.36.804,premup-three_ses-01_part-01_label-phase1,3.2.4,Linux x86_64,60,right,0.90899992,4,0,4,0,1,3,1,0,240,63,1,239,,,,,,,,,,,,,,,,,,
,,1,22,,,,,,,3,4,2,stim/42.jpeg,HouseObjects,1,stim/objects/HouseObjects/remote2.png,0.9,2,0.2,0.15,left,7,2020-11-17_18h17.36.804,premup-three_ses-01_part-01_label-phase1,3.2.4,Linux x86_64,60,left,0.835000038,4,0,4,0,1,3,1,0,240,233,1,239,,,,,,,,,,,,,,,,,,
,,0,23,,,,,,,2,1,1,stim/11.jpeg,HouseObjects,1,stim/objects/HouseObjects/recyclingbin.png,0.3,2,0.2,0.15,left,7,2020-11-17_18h17.36.804,premup-three_ses-01_part-01_label-phase1,3.2.4,Linux x86_64,60,right,1.315999985,4,0,4,0,1,3,1,0,240,88,1,239,,,,,,,,,,,,,,,,,,
,,1,24,,,,,,,2,2,1,stim/21.jpeg,HouseObjects,1,stim/objects/HouseObjects/iron2.png,0.7,1,-0.2,0.15,left,7,2020-11-17_18h17.36.804,premup-three_ses-01_part-01_label-phase1,3.2.4,Linux x86_64,60,left,0.756999969,4,0,4,0,1,3,1,0,240,144,1,239,,,,,,,,,,,,,,,,,,
,,1,25,,,,,,,3,3,2,stim/32.jpeg,Instruments,2,stim/objects/Instruments/musicsheet2.png,0.9,4,0.2,-0.15,right,7,2020-11-17_18h17.36.804,premup-three_ses-01_part-01_label-phase1,3.2.4,Linux x86_64,60,right,0.940999746,4,0,4,0,1,3,1,0,240,193,1,239,,,,,,,,,,,,,,,,,,
,,1,26,,,,,,,1,5,2,stim/52.jpeg,HouseObjects,1,stim/objects/HouseObjects/ironingboard.png,0.5,2,0.2,0.15,left,7,2020-11-17_18h17.36.804,premup-three_ses-01_part-01_label-phase1,3.2.4,Linux x86_64,60,left,0.823999882,4,0,4,0,1,3,1,0,240,9,1,239,,,,,,,,,,,,,,,,,,
,,1,27,,,,,,,3,4,1,stim/41.jpeg,HouseObjects,1,stim/objects/HouseObjects/recyclingbin2.png,0.9,2,0.2,0.15,left,7,2020-11-17_18h17.36.804,premup-three_ses-01_part-01_label-phase1,3.2.4,Linux x86_64,60,left,1.485999823,4,0,4,0,1,3,1,0,240,220,1,239,,,,,,,,,,,,,,,,,,
,,1,28,,,,,,,3,4,4,stim/44.jpeg,HouseObjects,1,stim/objects/HouseObjects/rug2.png,0.9,1,-0.2,0.15,left,7,2020-11-17_18h17.36.804,premup-three_ses-01_part-01_label-phase1,3.2.4,Linux x86_64,60,left,0.879999876,4,0,4,0,1,3,1,0,240,223,1,239,,,,,,,,,,,,,,,,,,
,,1,29,,,,,,,1,5,2,stim/52.jpeg,HouseObjects,1,stim/objects/HouseObjects/ironingboard.png,0.5,1,-0.2,0.15,left,7,2020-11-17_18h17.36.804,premup-three_ses-01_part-01_label-phase1,3.2.4,Linux x86_64,60,left,1.188999891,4,0,4,0,1,3,1,0,240,13,1,239,,,,,,,,,,,,,,,,,,
,,0,30,,,,,,,1,6,1,stim/61.jpeg,HouseObjects,1,stim/objects/HouseObjects/lintroller.png,0.5,4,0.2,-0.15,left,7,2020-11-17_18h17.36.804,premup-three_ses-01_part-01_label-phase1,3.2.4,Linux x86_64,60,right,1.117000103,4,0,4,0,1,3,1,0,240,52,1,239,,,,,,,,,,,,,,,,,,
,,1,31,,,,,,,1,5,3,stim/53.jpeg,Instruments,2,stim/objects/Instruments/maraca.png,0.5,4,0.2,-0.15,right,7,2020-11-17_18h17.36.804,premup-three_ses-01_part-01_label-phase1,3.2.4,Linux x86_64,60,right,1.535000086,4,0,4,0,1,3,1,0,240,30,1,239,,,,,,,,,,,,,,,,,,
,,0,32,,,,,,,1,5,4,stim/54.jpeg,Instruments,2,stim/objects/Instruments/marimba.png,0.5,2,0.2,0.15,right,7,2020-11-17_18h17.36.804,premup-three_ses-01_part-01_label-phase1,3.2.4,Linux x86_64,60,left,1.372999907,4,0,4,0,1,3,1,0,240,27,1,239,,,,,,,,,,,,,,,,,,
,,1,33,,,,,,,3,3,1,stim/31.jpeg,Instruments,2,stim/objects/Instruments/metronome2.png,0.9,1,-0.2,0.15,right,7,2020-11-17_18h17.36.804,premup-three_ses-01_part-01_label-phase1,3.2.4,Linux x86_64,60,right,1.135999918,4,0,4,0,1,3,1,0,240,176,1,239,,,,,,,,,,,,,,,,,,
,,0,34,,,,,,,1,6,4,stim/64.jpeg,HouseObjects,1,stim/objects/HouseObjects/pitcher.png,0.5,1,-0.2,0.15,left,7,2020-11-17_18h17.36.804,premup-three_ses-01_part-01_label-phase1,3.2.4,Linux x86_64,60,right,1.190999746,4,0,4,0,1,3,1,0,240,43,1,239,,,,,,,,,,,,,,,,,,
,,0,35,,,,,,,1,5,1,stim/51.jpeg,Instruments,2,stim/objects/Instruments/keyboard.png,0.5,3,-0.2,-0.15,right,7,2020-11-17_18h17.36.804,premup-three_ses-01_part-01_label-phase1,3.2.4,Linux x86_64,60,left,0.8349998,4,0,4,0,1,3,1,0,240,28,1,239,,,,,,,,,,,,,,,,,,
,,0,36,,,,,,,2,1,4,stim/14.jpeg,Instruments,2,stim/objects/Instruments/record_player.png,0.7,1,-0.2,0.15,right,7,2020-11-17_18h17.36.804,premup-three_ses-01_part-01_label-phase1,3.2.4,Linux x86_64,60,left,1.417000055,4,0,4,0,1,3,1,0,240,115,1,239,,,,,,,,,,,,,,,,,,
,,0,37,,,,,,,3,4,3,stim/43.jpeg,HouseObjects,1,stim/objects/HouseObjects/rubbergloves2.png,0.9,2,0.2,0.15,left,7,2020-11-17_18h17.36.804,premup-three_ses-01_part-01_label-phase1,3.2.4,Linux x86_64,60,right,1.569999933,4,0,4,0,1,3,1,0,240,218,1,239,,,,,,,,,,,,,,,,,,
,,1,38,,,,,,,3,3,2,stim/32.jpeg,Instruments,2,stim/objects/Instruments/musicsheet2.png,0.9,2,0.2,0.15,right,7,2020-11-17_18h17.36.804,premup-three_ses-01_part-01_label-phase1,3.2.4,Linux x86_64,60,right,0.771999836,4,0,4,0,1,3,1,0,240,173,1,239,,,,,,,,,,,,,,,,,,
,,0,39,,,,,,,3,3,4,stim/34.jpeg,HouseObjects,1,stim/objects/HouseObjects/pitcher2.png,0.1,4,0.2,-0.15,left,7,2020-11-17_18h17.36.804,premup-three_ses-01_part-01_label-phase1,3.2.4,Linux x86_64,60,right,1.468999863,4,0,4,0,1,3,1,0,240,163,1,239,,,,,,,,,,,,,,,,,,
,,1,40,,,,,,,2,2,2,stim/22.jpeg,HouseObjects,1,stim/objects/HouseObjects/ironingboard2.png,0.7,1,-0.2,0.15,left,7,2020-11-17_18h17.36.804,premup-three_ses-01_part-01_label-phase1,3.2.4,Linux x86_64,60,left,1.243999958,4,0,4,0,1,3,1,0,240,125,1,239,,,,,,,,,,,,,,,,,,
,,1,41,,,,,,,2,1,2,stim/12.jpeg,HouseObjects,1,stim/objects/HouseObjects/remote.png,0.3,3,-0.2,-0.15,left,7,2020-11-17_18h17.36.804,premup-three_ses-01_part-01_label-phase1,3.2.4,Linux x86_64,60,left,0.875,4,0,4,0,1,3,1,0,240,89,1,239,,,,,,,,,,,,,,,,,,
,,0,42,,,,,,,2,2,4,stim/24.jpeg,Instruments,2,stim/objects/Instruments/marimba2.png,0.3,3,-0.2,-0.15,right,7,2020-11-17_18h17.36.804,premup-three_ses-01_part-01_label-phase1,3.2.4,Linux x86_64,60,left,0.869999886,4,0,4,0,1,3,1,0,240,155,1,239,,,,,,,,,,,,,,,,,,
,,0,43,,,,,,,1,5,4,stim/54.jpeg,HouseObjects,1,stim/objects/HouseObjects/knife.png,0.5,3,-0.2,-0.15,left,7,2020-11-17_18h17.36.804,premup-three_ses-01_part-01_label-phase1,3.2.4,Linux x86_64,60,right,0.520999908,4,0,4,0,1,3,1,0,240,11,1,239,,,,,,,,,,,,,,,,,,
,,0,44,,,,,,,1,6,4,stim/64.jpeg,HouseObjects,1,stim/objects/HouseObjects/pitcher.png,0.5,4,0.2,-0.15,left,7,2020-11-17_18h17.36.804,premup-three_ses-01_part-01_label-phase1,3.2.4,Linux x86_64,60,right,1.163999796,4,0,4,0,1,3,1,0,240,51,1,239,,,,,,,,,,,,,,,,,,
,,0,45,,,,,,,2,1,1,stim/11.jpeg,Instruments,2,stim/objects/Instruments/panflute.png,0.7,1,-0.2,0.15,right,7,2020-11-17_18h17.36.804,premup-three_ses-01_part-01_label-phase1,3.2.4,Linux x86_64,60,left,0.974999905,4,0,4,0,1,3,1,0,240,92,1,239,,,,,,,,,,,,,,,,,,
,,0,46,,,,,,,1,6,1,stim/61.jpeg,Instruments,2,stim/objects/Instruments/metronome.png,0.5,3,-0.2,-0.15,right,7,2020-11-17_18h17.36.804,premup-three_ses-01_part-01_label-phase1,3.2.4,Linux x86_64,60,left,0.97300005,4,0,4,0,1,3,1,0,240,68,1,239,,,,,,,,,,,,,,,,,,
,,0,47,,,,,,,1,5,2,stim/52.jpeg,Instruments,2,stim/objects/Instruments/laud.png,0.5,2,0.2,0.15,right,7,2020-11-17_18h17.36.804,premup-three_ses-01_part-01_label-phase1,3.2.4,Linux x86_64,60,left,0.737999916,4,0,4,0,1,3,1,0,240,37,1,239,,,,,,,,,,,,,,,,,,
,,1,48,,,,,,,2,1,3,stim/13.jpeg,HouseObjects,1,stim/objects/HouseObjects/rubbergloves.png,0.3,2,0.2,0.15,left,7,2020-11-17_18h17.36.804,premup-three_ses-01_part-01_label-phase1,3.2.4,Linux x86_64,60,left,0.907999992,4,0,4,0,1,3,1,0,240,90,1,239,,,,,,,,,,,,,,,,,,
,,1,49,,,,,,,3,4,2,stim/42.jpeg,HouseObjects,1,stim/objects/HouseObjects/remote2.png,0.9,1,-0.2,0.15,left,7,2020-11-17_18h17.36.804,premup-three_ses-01_part-01_label-phase1,3.2.4,Linux x86_64,60,left,1.194999933,4,0,4,0,1,3,1,0,240,229,1,239,,,,,,,,,,,,,,,,,,
,,0,50,,,,,,,3,3,2,stim/32.jpeg,HouseObjects,1,stim/objects/HouseObjects/match2.png,0.1,2,0.2,0.15,left,7,2020-11-17_18h17.36.804,premup-three_ses-01_part-01_label-phase1,3.2.4,Linux x86_64,60,right,1.428999901,4,0,4,0,1,3,1,0,240,161,1,239,,,,,,,,,,,,,,,,,,
,,0,51,,,,,,,1,5,3,stim/53.jpeg,Instruments,2,stim/objects/Instruments/maraca.png,0.5,3,-0.2,-0.15,right,7,2020-11-17_18h17.36.804,premup-three_ses-01_part-01_label-phase1,3.2.4,Linux x86_64,60,left,1.796999931,4,0,4,0,1,3,1,0,240,34,1,239,,,,,,,,,,,,,,,,,,
,,1,52,,,,,,,1,6,3,stim/63.jpeg,HouseObjects,1,stim/objects/HouseObjects/pan.png,0.5,3,-0.2,-0.15,left,7,2020-11-17_18h17.36.804,premup-three_ses-01_part-01_label-phase1,3.2.4,Linux x86_64,60,left,1.592000008,4,0,4,0,1,3,1,0,240,50,1,239,,,,,,,,,,,,,,,,,,
,,0,53,,,,,,,3,4,1,stim/41.jpeg,HouseObjects,1,stim/objects/HouseObjects/recyclingbin2.png,0.9,1,-0.2,0.15,left,7,2020-11-17_18h17.36.804,premup-three_ses-01_part-01_label-phase1,3.2.4,Linux x86_64,60,right,1.74000001,4,0,4,0,1,3,1,0,240,200,1,239,,,,,,,,,,,,,,,,,,
,,0,54,,,,,,,2,2,4,stim/24.jpeg,Instruments,2,stim/objects/Instruments/marimba2.png,0.3,3,-0.2,-0.15,right,7,2020-11-17_18h17.36.804,premup-three_ses-01_part-01_label-phase1,3.2.4,Linux x86_64,60,,,4,0,4,0,1,3,1,0,240,159,1,239,,,,,,,,,,,,,,,,,,
,,1,55,,,,,,,3,3,1,stim/31.jpeg,Instruments,2,stim/objects/Instruments/metronome2.png,0.9,1,-0.2,0.15,right,7,2020-11-17_18h17.36.804,premup-three_ses-01_part-01_label-phase1,3.2.4,Linux x86_64,60,right,0.854999781,4,0,4,0,1,3,1,0,240,192,1,239,,,,,,,,,,,,,,,,,,
,,0,56,,,,,,,1,6,1,stim/61.jpeg,HouseObjects,1,stim/objects/HouseObjects/lintroller.png,0.5,1,-0.2,0.15,left,7,2020-11-17_18h17.36.804,premup-three_ses-01_part-01_label-phase1,3.2.4,Linux x86_64,60,right,1.135999918,4,0,4,0,1,3,1,0,240,48,1,239,,,,,,,,,,,,,,,,,,
,,0,57,,,,,,,2,2,3,stim/23.jpeg,HouseObjects,1,stim/objects/HouseObjects/key2.png,0.7,1,-0.2,0.15,left,7,2020-11-17_18h17.36.804,premup-three_ses-01_part-01_label-phase1,3.2.4,Linux x86_64,60,right,0.93599987,4,0,4,0,1,3,1,0,240,142,1,239,,,,,,,,,,,,,,,,,,
,,0,58,,,,,,,1,5,4,stim/54.jpeg,Instruments,2,stim/objects/Instruments/marimba.png,0.5,1,-0.2,0.15,right,7,2020-11-17_18h17.36.804,premup-three_ses-01_part-01_label-phase1,3.2.4,Linux x86_64,60,left,0.539000034,4,0,4,0,1,3,1,0,240,31,1,239,,,,,,,,,,,,,,,,,,
,,1,59,,,,,,,2,1,1,stim/11.jpeg,HouseObjects,1,stim/objects/HouseObjects/recyclingbin.png,0.3,4,0.2,-0.15,left,7,2020-11-17_18h17.36.804,premup-three_ses-01_part-01_label-phase1,3.2.4,Linux x86_64,60,left,0.975999832,4,0,4,0,1,3,1,0,240,84,1,239,,,,,,,,,,,,,,,,,,
,,0,60,,,,,,,3,3,3,stim/33.jpeg,HouseObjects,1,stim/objects/HouseObjects/pan2.png,0.1,3,-0.2,-0.15,left,7,2020-11-17_18h17.36.804,premup-three_ses-01_part-01_label-phase1,3.2.4,Linux x86_64,60,right,1.153999805,4,0,4,0,1,3,1,0,240,162,1,239,,,,,,,,,,,,,,,,,,
,,1,61,,,,,,,1,5,3,stim/53.jpeg,HouseObjects,1,stim/objects/HouseObjects/key.png,0.5,4,0.2,-0.15,left,7,2020-11-17_18h17.36.804,premup-three_ses-01_part-01_label-phase1,3.2.4,Linux x86_64,60,left,0.744999886,4,0,4,0,1,3,1,0,240,14,1,239,,,,,,,,,,,,,,,,,,
,,0,62,,,,,,,3,4,3,stim/43.jpeg,Instruments,2,stim/objects/Instruments/record2.png,0.1,2,0.2,0.15,right,7,2020-11-17_18h17.36.804,premup-three_ses-01_part-01_label-phase1,3.2.4,Linux x86_64,60,left,0.812999964,4,0,4,0,1,3,1,0,240,238,1,239,,,,,,,,,,,,,,,,,,
,,1,63,,,,,,,1,5,1,stim/51.jpeg,HouseObjects,1,stim/objects/HouseObjects/iron.png,0.5,3,-0.2,-0.15,left,7,2020-11-17_18h17.36.804,premup-three_ses-01_part-01_label-phase1,3.2.4,Linux x86_64,60,left,0.941999912,4,0,4,0,1,3,1,0,240,0,1,239,,,,,,,,,,,,,,,,,,
,,1,64,,,,,,,3,3,4,stim/34.jpeg,Instruments,2,stim/objects/Instruments/oboe2.png,0.9,1,-0.2,0.15,right,7,2020-11-17_18h17.36.804,premup-three_ses-01_part-01_label-phase1,3.2.4,Linux x86_64,60,right,0.993000031,4,0,4,0,1,3,1,0,240,183,1,239,,,,,,,,,,,,,,,,,,
,,0,65,,,,,,,1,5,1,stim/51.jpeg,Instruments,2,stim/objects/Instruments/keyboard.png,0.5,3,-0.2,-0.15,right,7,2020-11-17_18h17.36.804,premup-three_ses-01_part-01_label-phase1,3.2.4,Linux x86_64,60,left,0.987999916,4,0,4,0,1,3,1,0,240,36,1,239,,,,,,,,,,,,,,,,,,
,,0,66,,,,,,,2,1,3,stim/13.jpeg,Instruments,2,stim/objects/Instruments/record.png,0.7,2,0.2,0.15,right,7,2020-11-17_18h17.36.804,premup-three_ses-01_part-01_label-phase1,3.2.4,Linux x86_64,60,left,0.903999805,4,0,4,0,1,3,1,0,240,94,1,239,,,,,,,,,,,,,,,,,,
,,0,67,,,,,,,3,4,4,stim/44.jpeg,HouseObjects,1,stim/objects/HouseObjects/rug2.png,0.9,4,0.2,-0.15,left,7,2020-11-17_18h17.36.804,premup-three_ses-01_part-01_label-phase1,3.2.4,Linux x86_64,60,right,0.701999903,4,0,4,0,1,3,1,0,240,219,1,239,,,,,,,,,,,,,,,,,,
,,1,68,,,,,,,1,6,4,stim/64.jpeg,HouseObjects,1,stim/objects/HouseObjects/pitcher.png,0.5,2,0.2,0.15,left,7,2020-11-17_18h17.36.804,premup-three_ses-01_part-01_label-phase1,3.2.4,Linux x86_64,60,left,0.954999924,4,0,4,0,1,3,1,0,240,59,1,239,,,,,,,,,,,,,,,,,,
,,0,69,,,,,,,2,1,3,stim/13.jpeg,Instruments,2,stim/objects/Instruments/record.png,0.7,2,0.2,0.15,right,7,2020-11-17_18h17.36.804,premup-three_ses-01_part-01_label-phase1,3.2.4,Linux x86_64,60,left,1.007999897,4,0,4,0,1,3,1,0,240,106,1,239,,,,,,,,,,,,,,,,,,
,,0,70,,,,,,,3,3,1,stim/31.jpeg,Instruments,2,stim/objects/Instruments/metronome2.png,0.9,2,0.2,0.15,right,7,2020-11-17_18h17.36.804,premup-three_ses-01_part-01_label-phase1,3.2.4,Linux x86_64,60,left,0.928999901,4,0,4,0,1,3,1,0,240,164,1,239,,,,,,,,,,,,,,,,,,
,,0,71,,,,,,,2,2,3,stim/23.jpeg,HouseObjects,1,stim/objects/HouseObjects/key2.png,0.7,3,-0.2,-0.15,left,7,2020-11-17_18h17.36.804,premup-three_ses-01_part-01_label-phase1,3.2.4,Linux x86_64,60,right,0.689999819,4,0,4,0,1,3,1,0,240,146,1,239,,,,,,,,,,,,,,,,,,
,,1,72,,,,,,,1,5,1,stim/51.jpeg,HouseObjects,1,stim/objects/HouseObjects/iron.png,0.5,3,-0.2,-0.15,left,7,2020-11-17_18h17.36.804,premup-three_ses-01_part-01_label-phase1,3.2.4,Linux x86_64,60,left,0.932999849,4,0,4,0,1,3,1,0,240,16,1,239,,,,,,,,,,,,,,,,,,
,,1,73,,,,,,,3,4,1,stim/41.jpeg,HouseObjects,1,stim/objects/HouseObjects/recyclingbin2.png,0.9,4,0.2,-0.15,left,7,2020-11-17_18h17.36.804,premup-three_ses-01_part-01_label-phase1,3.2.4,Linux x86_64,60,left,1.056999922,4,0,4,0,1,3,1,0,240,208,1,239,,,,,,,,,,,,,,,,,,
,,1,74,,,,,,,3,3,3,stim/33.jpeg,Instruments,2,stim/objects/Instruments/musicstand2.png,0.9,3,-0.2,-0.15,right,7,2020-11-17_18h17.36.804,premup-three_ses-01_part-01_label-phase1,3.2.4,Linux x86_64,60,right,1.18900013,4,0,4,0,1,3,1,0,240,190,1,239,,,,,,,,,,,,,,,,,,
,,1,75,,,,,,,3,4,2,stim/42.jpeg,HouseObjects,1,stim/objects/HouseObjects/remote2.png,0.9,4,0.2,-0.15,left,7,2020-11-17_18h17.36.804,premup-three_ses-01_part-01_label-phase1,3.2.4,Linux x86_64,60,left,1.28399992,4,0,4,0,1,3,1,0,240,225,1,239,,,,,,,,,,,,,,,,,,
,,1,76,,,,,,,3,3,2,stim/32.jpeg,Instruments,2,stim/objects/Instruments/musicsheet2.png,0.9,1,-0.2,0.15,right,7,2020-11-17_18h17.36.804,premup-three_ses-01_part-01_label-phase1,3.2.4,Linux x86_64,60,right,1.004999876,4,0,4,0,1,3,1,0,240,189,1,239,,,,,,,,,,,,,,,,,,
,,0,77,,,,,,,1,6,3,stim/63.jpeg,Instruments,2,stim/objects/Instruments/musicstand.png,0.5,3,-0.2,-0.15,right,7,2020-11-17_18h17.36.804,premup-three_ses-01_part-01_label-phase1,3.2.4,Linux x86_64,60,left,1.671999931,4,0,4,0,1,3,1,0,240,62,1,239,,,,,,,,,,,,,,,,,,
,,0,78,,,,,,,1,5,4,stim/54.jpeg,HouseObjects,1,stim/objects/HouseObjects/knife.png,0.5,1,-0.2,0.15,left,7,2020-11-17_18h17.36.804,premup-three_ses-01_part-01_label-phase1,3.2.4,Linux x86_64,60,right,0.733999968,4,0,4,0,1,3,1,0,240,3,1,239,,,,,,,,,,,,,,,,,,
,,0,79,,,,,,,3,3,3,stim/33.jpeg,Instruments,2,stim/objects/Instruments/musicstand2.png,0.9,4,0.2,-0.15,right,7,2020-11-17_18h17.36.804,premup-three_ses-01_part-01_label-phase1,3.2.4,Linux x86_64,60,left,0.805999756,4,0,4,0,1,3,1,0,240,174,1,239,,,,,,,,,,,,,,,,,,
,,1,80,,,,,,,2,2,2,stim/22.jpeg,HouseObjects,1,stim/objects/HouseObjects/ironingboard2.png,0.7,1,-0.2,0.15,left,7,2020-11-17_18h17.36.804,premup-three_ses-01_part-01_label-phase1,3.2.4,Linux x86_64,60,left,0.773000002,4,0,4,0,1,3,1,0,240,145,1,239,,,,,,,,,,,,,,,,,,
,,0,81,,,,,,,2,1,2,stim/12.jpeg,Instruments,2,stim/objects/Instruments/pipepiano.png,0.7,1,-0.2,0.15,right,7,2020-11-17_18h17.36.804,premup-three_ses-01_part-01_label-phase1,3.2.4,Linux x86_64,60,left,1.462999821,4,0,4,0,1,3,1,0,240,113,1,239,,,,,,,,,,,,,,,,,,
,,1,82,,,,,,,2,1,1,stim/11.jpeg,Instruments,2,stim/objects/Instruments/panflute.png,0.7,2,0.2,0.15,right,7,2020-11-17_18h17.36.804,premup-three_ses-01_part-01_label-phase1,3.2.4,Linux x86_64,60,right,1.249000072,4,0,4,0,1,3,1,0,240,116,1,239,,,,,,,,,,,,,,,,,,
,,1,83,,,,,,,1,5,2,stim/52.jpeg,HouseObjects,1,stim/objects/HouseObjects/ironingboard.png,0.5,3,-0.2,-0.15,left,7,2020-11-17_18h17.36.804,premup-three_ses-01_part-01_label-phase1,3.2.4,Linux x86_64,60,left,0.763999939,4,0,4,0,1,3,1,0,240,17,1,239,,,,,,,,,,,,,,,,,,
,,0,84,,,,,,,1,6,4,stim/64.jpeg,Instruments,2,stim/objects/Instruments/oboe.png,0.5,1,-0.2,0.15,right,7,2020-11-17_18h17.36.804,premup-three_ses-01_part-01_label-phase1,3.2.4,Linux x86_64,60,left,1.42599988,4,0,4,0,1,3,1,0,240,67,1,239,,,,,,,,,,,,,,,,,,
,,0,85,,,,,,,1,5,1,stim/51.jpeg,Instruments,2,stim/objects/Instruments/keyboard.png,0.5,2,0.2,0.15,right,7,2020-11-17_18h17.36.804,premup-three_ses-01_part-01_label-phase1,3.2.4,Linux x86_64,60,left,0.632999897,4,0,4,0,1,3,1,0,240,32,1,239,,,,,,,,,,,,,,,,,,
,,0,86,,,,,,,3,4,4,stim/44.jpeg,HouseObjects,1,stim/objects/HouseObjects/rug2.png,0.9,1,-0.2,0.15,left,7,2020-11-17_18h17.36.804,premup-three_ses-01_part-01_label-phase1,3.2.4,Linux x86_64,60,right,0.395999908,4,0,4,0,1,3,1,0,240,215,1,239,,,,,,,,,,,,,,,,,,
,,0,87,,,,,,,1,6,3,stim/63.jpeg,Instruments,2,stim/objects/Instruments/musicstand.png,0.5,2,0.2,0.15,right,7,2020-11-17_18h17.36.804,premup-three_ses-01_part-01_label-phase1,3.2.4,Linux x86_64,60,left,0.684999943,4,0,4,0,1,3,1,0,240,66,1,239,,,,,,,,,,,,,,,,,,
,,0,88,,,,,,,2,2,2,stim/22.jpeg,Instruments,2,stim/objects/Instruments/laud2.png,0.3,2,0.2,0.15,right,7,2020-11-17_18h17.36.804,premup-three_ses-01_part-01_label-phase1,3.2.4,Linux x86_64,60,left,1.07799983,4,0,4,0,1,3,1,0,240,149,1,239,,,,,,,,,,,,,,,,,,
,,0,89,,,,,,,1,6,4,stim/64.jpeg,Instruments,2,stim/objects/Instruments/oboe.png,0.5,2,0.2,0.15,right,7,2020-11-17_18h17.36.804,premup-three_ses-01_part-01_label-phase1,3.2.4,Linux x86_64,60,left,0.95299983,4,0,4,0,1,3,1,0,240,79,1,239,,,,,,,,,,,,,,,,,,
,,0,90,,,,,,,2,1,3,stim/13.jpeg,HouseObjects,1,stim/objects/HouseObjects/rubbergloves.png,0.3,2,0.2,0.15,left,7,2020-11-17_18h17.36.804,premup-three_ses-01_part-01_label-phase1,3.2.4,Linux x86_64,60,,,4,0,4,0,1,3,1,0,240,82,1,239,,,,,,,,,,,,,,,,,,
,,0,91,,,,,,,1,6,1,stim/61.jpeg,Instruments,2,stim/objects/Instruments/metronome.png,0.5,1,-0.2,0.15,right,7,2020-11-17_18h17.36.804,premup-three_ses-01_part-01_label-phase1,3.2.4,Linux x86_64,60,,,4,0,4,0,1,3,1,0,240,64,1,239,,,,,,,,,,,,,,,,,,
,,1,92,,,,,,,3,3,1,stim/31.jpeg,Instruments,2,stim/objects/Instruments/metronome2.png,0.9,3,-0.2,-0.15,right,7,2020-11-17_18h17.36.804,premup-three_ses-01_part-01_label-phase1,3.2.4,Linux x86_64,60,right,1.05099988,4,0,4,0,1,3,1,0,240,188,1,239,,,,,,,,,,,,,,,,,,
,,0,93,,,,,,,1,6,1,stim/61.jpeg,HouseObjects,1,stim/objects/HouseObjects/lintroller.png,0.5,4,0.2,-0.15,left,7,2020-11-17_18h17.36.804,premup-three_ses-01_part-01_label-phase1,3.2.4,Linux x86_64,60,,,4,0,4,0,1,3,1,0,240,40,1,239,,,,,,,,,,,,,,,,,,
,,1,94,,,,,,,2,1,1,stim/11.jpeg,Instruments,2,stim/objects/Instruments/panflute.png,0.7,3,-0.2,-0.15,right,7,2020-11-17_18h17.36.804,premup-three_ses-01_part-01_label-phase1,3.2.4,Linux x86_64,60,right,0.78399992,4,0,4,0,1,3,1,0,240,112,1,239,,,,,,,,,,,,,,,,,,
,,0,95,,,,,,,2,2,1,stim/21.jpeg,Instruments,2,stim/objects/Instruments/keyboard2.png,0.3,2,0.2,0.15,right,7,2020-11-17_18h17.36.804,premup-three_ses-01_part-01_label-phase1,3.2.4,Linux x86_64,60,left,1.487999916,4,0,4,0,1,3,1,0,240,148,1,239,,,,,,,,,,,,,,,,,,
,,0,96,,,,,,,1,6,2,stim/62.jpeg,HouseObjects,1,stim/objects/HouseObjects/match.png,0.5,4,0.2,-0.15,left,7,2020-11-17_18h17.36.804,premup-three_ses-01_part-01_label-phase1,3.2.4,Linux x86_64,60,right,0.821999788,4,0,4,0,1,3,1,0,240,57,1,239,,,,,,,,,,,,,,,,,,
,,1,97,,,,,,,1,5,4,stim/54.jpeg,HouseObjects,1,stim/objects/HouseObjects/knife.png,0.5,2,0.2,0.15,left,7,2020-11-17_18h17.36.804,premup-three_ses-01_part-01_label-phase1,3.2.4,Linux x86_64,60,left,0.588999987,4,0,4,0,1,3,1,0,240,7,1,239,,,,,,,,,,,,,,,,,,
,,1,98,,,,,,,3,3,3,stim/33.jpeg,Instruments,2,stim/objects/Instruments/musicstand2.png,0.9,1,-0.2,0.15,right,7,2020-11-17_18h17.36.804,premup-three_ses-01_part-01_label-phase1,3.2.4,Linux x86_64,60,right,0.816999912,4,0,4,0,1,3,1,0,240,186,1,239,,,,,,,,,,,,,,,,,,
,,1,99,,,,,,,1,6,3,stim/63.jpeg,HouseObjects,1,stim/objects/HouseObjects/pan.png,0.5,1,-0.2,0.15,left,7,2020-11-17_18h17.36.804,premup-three_ses-01_part-01_label-phase1,3.2.4,Linux x86_64,60,left,0.924999952,4,0,4,0,1,3,1,0,240,58,1,239,,,,,,,,,,,,,,,,,,
,,0,100,,,,,,,3,3,2,stim/32.jpeg,Instruments,2,stim/objects/Instruments/musicsheet2.png,0.9,4,0.2,-0.15,right,7,2020-11-17_18h17.36.804,premup-three_ses-01_part-01_label-phase1,3.2.4,Linux x86_64,60,left,1.06099987,4,0,4,0,1,3,1,0,240,165,1,239,,,,,,,,,,,,,,,,,,
,,1,101,,,,,,,2,1,3,stim/13.jpeg,Instruments,2,stim/objects/Instruments/record.png,0.7,3,-0.2,-0.15,right,7,2020-11-17_18h17.36.804,premup-three_ses-01_part-01_label-phase1,3.2.4,Linux x86_64,60,right,0.751999855,4,0,4,0,1,3,1,0,240,98,1,239,,,,,,,,,,,,,,,,,,
,,0,102,,,,,,,3,3,1,stim/31.jpeg,Instruments,2,stim/objects/Instruments/metronome2.png,0.9,4,0.2,-0.15,right,7,2020-11-17_18h17.36.804,premup-three_ses-01_part-01_label-phase1,3.2.4,Linux x86_64,60,left,0.803999901,4,0,4,0,1,3,1,0,240,196,1,239,,,,,,,,,,,,,,,,,,
,,1,103,,,,,,,3,4,1,stim/41.jpeg,HouseObjects,1,stim/objects/HouseObjects/recyclingbin2.png,0.9,3,-0.2,-0.15,left,7,2020-11-17_18h17.36.804,premup-three_ses-01_part-01_label-phase1,3.2.4,Linux x86_64,60,left,0.976000071,4,0,4,0,1,3,1,0,240,232,1,239,,,,,,,,,,,,,,,,,,
,,0,104,,,,,,,2,2,2,stim/22.jpeg,Instruments,2,stim/objects/Instruments/laud2.png,0.3,3,-0.2,-0.15,right,7,2020-11-17_18h17.36.804,premup-three_ses-01_part-01_label-phase1,3.2.4,Linux x86_64,60,left,1.154999971,4,0,4,0,1,3,1,0,240,153,1,239,,,,,,,,,,,,,,,,,,
,,1,105,,,,,,,2,1,3,stim/13.jpeg,Instruments,2,stim/objects/Instruments/record.png,0.7,4,0.2,-0.15,right,7,2020-11-17_18h17.36.804,premup-three_ses-01_part-01_label-phase1,3.2.4,Linux x86_64,60,right,0.721999884,4,0,4,0,1,3,1,0,240,118,1,239,,,,,,,,,,,,,,,,,,
,,1,106,,,,,,,3,4,4,stim/44.jpeg,HouseObjects,1,stim/objects/HouseObjects/rug2.png,0.9,3,-0.2,-0.15,left,7,2020-11-17_18h17.36.804,premup-three_ses-01_part-01_label-phase1,3.2.4,Linux x86_64,60,left,1.062000036,4,0,4,0,1,3,1,0,240,211,1,239,,,,,,,,,,,,,,,,,,
,,1,107,,,,,,,3,4,1,stim/41.jpeg,HouseObjects,1,stim/objects/HouseObjects/recyclingbin2.png,0.9,1,-0.2,0.15,left,7,2020-11-17_18h17.36.804,premup-three_ses-01_part-01_label-phase1,3.2.4,Linux x86_64,60,left,1.171999931,4,0,4,0,1,3,1,0,240,228,1,239,,,,,,,,,,,,,,,,,,
,,0,108,,,,,,,1,5,3,stim/53.jpeg,HouseObjects,1,stim/objects/HouseObjects/key.png,0.5,2,0.2,0.15,left,7,2020-11-17_18h17.36.804,premup-three_ses-01_part-01_label-phase1,3.2.4,Linux x86_64,60,right,1.176999807,4,0,4,0,1,3,1,0,240,6,1,239,,,,,,,,,,,,,,,,,,
,,0,109,,,,,,,2,1,4,stim/14.jpeg,Instruments,2,stim/objects/Instruments/record_player.png,0.7,2,0.2,0.15,right,7,2020-11-17_18h17.36.804,premup-three_ses-01_part-01_label-phase1,3.2.4,Linux x86_64,60,left,0.570999861,4,0,4,0,1,3,1,0,240,95,1,239,,,,,,,,,,,,,,,,,,
,,0,110,,,,,,,1,6,2,stim/62.jpeg,Instruments,2,stim/objects/Instruments/musicsheet.png,0.5,4,0.2,-0.15,right,7,2020-11-17_18h17.36.804,premup-three_ses-01_part-01_label-phase1,3.2.4,Linux x86_64,60,left,1.163000107,4,0,4,0,1,3,1,0,240,77,1,239,,,,,,,,,,,,,,,,,,
,,0,111,,,,,,,3,4,1,stim/41.jpeg,HouseObjects,1,stim/objects/HouseObjects/recyclingbin2.png,0.9,2,0.2,0.15,left,7,2020-11-17_18h17.36.804,premup-three_ses-01_part-01_label-phase1,3.2.4,Linux x86_64,60,right,0.960000038,4,0,4,0,1,3,1,0,240,216,1,239,,,,,,,,,,,,,,,,,,
,,1,112,,,,,,,2,2,4,stim/24.jpeg,HouseObjects,1,stim/objects/HouseObjects/knife2.png,0.7,2,0.2,0.15,left,7,2020-11-17_18h17.36.804,premup-three_ses-01_part-01_label-phase1,3.2.4,Linux x86_64,60,left,0.885999918,4,0,4,0,1,3,1,0,240,123,1,239,,,,,,,,,,,,,,,,,,
,,1,113,,,,,,,3,4,2,stim/42.jpeg,HouseObjects,1,stim/objects/HouseObjects/remote2.png,0.9,2,0.2,0.15,left,7,2020-11-17_18h17.36.804,premup-three_ses-01_part-01_label-phase1,3.2.4,Linux x86_64,60,left,1.062999964,4,0,4,0,1,3,1,0,240,209,1,239,,,,,,,,,,,,,,,,,,
,,0,114,,,,,,,2,2,2,stim/22.jpeg,Instruments,2,stim/objects/Instruments/laud2.png,0.3,3,-0.2,-0.15,right,7,2020-11-17_18h17.36.804,premup-three_ses-01_part-01_label-phase1,3.2.4,Linux x86_64,60,left,0.866999865,4,0,4,0,1,3,1,0,240,157,1,239,,,,,,,,,,,,,,,,,,
,,1,115,,,,,,,3,3,3,stim/33.jpeg,Instruments,2,stim/objects/Instruments/musicstand2.png,0.9,2,0.2,0.15,right,7,2020-11-17_18h17.36.804,premup-three_ses-01_part-01_label-phase1,3.2.4,Linux x86_64,60,right,1.214999914,4,0,4,0,1,3,1,0,240,178,1,239,,,,,,,,,,,,,,,,,,
,,0,116,,,,,,,1,5,3,stim/53.jpeg,Instruments,2,stim/objects/Instruments/maraca.png,0.5,1,-0.2,0.15,right,7,2020-11-17_18h17.36.804,premup-three_ses-01_part-01_label-phase1,3.2.4,Linux x86_64,60,left,0.768999815,4,0,4,0,1,3,1,0,240,26,1,239,,,,,,,,,,,,,,,,,,
,,0,117,,,,,,,1,6,3,stim/63.jpeg,HouseObjects,1,stim/objects/HouseObjects/pan.png,0.5,2,0.2,0.15,left,7,2020-11-17_18h17.36.804,premup-three_ses-01_part-01_label-phase1,3.2.4,Linux x86_64,60,right,0.743000031,4,0,4,0,1,3,1,0,240,54,1,239,,,,,,,,,,,,,,,,,,
,,0,118,,,,,,,2,2,3,stim/23.jpeg,Instruments,2,stim/objects/Instruments/maraca2.png,0.3,2,0.2,0.15,right,7,2020-11-17_18h17.36.804,premup-three_ses-01_part-01_label-phase1,3.2.4,Linux x86_64,60,left,0.977999926,4,0,4,0,1,3,1,0,240,154,1,239,,,,,,,,,,,,,,,,,,
,,0,119,,,,,,,1,5,4,stim/54.jpeg,Instruments,2,stim/objects/Instruments/marimba.png,0.5,3,-0.2,-0.15,right,7,2020-11-17_18h17.36.804,premup-three_ses-01_part-01_label-phase1,3.2.4,Linux x86_64,60,left,0.993999958,4,0,4,0,1,3,1,0,240,23,1,239,,,,,,,,,,,,,,,,,,
,,1,120,,,,,,,3,4,3,stim/43.jpeg,HouseObjects,1,stim/objects/HouseObjects/rubbergloves2.png,0.9,1,-0.2,0.15,left,7,2020-11-17_18h17.36.804,premup-three_ses-01_part-01_label-phase1,3.2.4,Linux x86_64,60,left,1.743000031,4,0,4,0,1,3,1,0,240,206,1,239,,,,,,,,,,,,,,,,,,
,,0,121,,,,,,,2,2,4,stim/24.jpeg,HouseObjects,1,stim/objects/HouseObjects/knife2.png,0.7,3,-0.2,-0.15,left,7,2020-11-17_18h17.36.804,premup-three_ses-01_part-01_label-phase1,3.2.4,Linux x86_64,60,right,1.038000107,4,0,4,0,1,3,1,0,240,139,1,239,,,,,,,,,,,,,,,,,,
,,0,122,,,,,,,1,5,3,stim/53.jpeg,Instruments,2,stim/objects/Instruments/maraca.png,0.5,4,0.2,-0.15,right,7,2020-11-17_18h17.36.804,premup-three_ses-01_part-01_label-phase1,3.2.4,Linux x86_64,60,left,0.597999811,4,0,4,0,1,3,1,0,240,22,1,239,,,,,,,,,,,,,,,,,,
,,0,123,,,,,,,2,2,3,stim/23.jpeg,HouseObjects,1,stim/objects/HouseObjects/key2.png,0.7,3,-0.2,-0.15,left,7,2020-11-17_18h17.36.804,premup-three_ses-01_part-01_label-phase1,3.2.4,Linux x86_64,60,right,0.732999802,4,0,4,0,1,3,1,0,240,138,1,239,,,,,,,,,,,,,,,,,,
,,0,124,,,,,,,1,6,3,stim/63.jpeg,Instruments,2,stim/objects/Instruments/musicstand.png,0.5,2,0.2,0.15,right,7,2020-11-17_18h17.36.804,premup-three_ses-01_part-01_label-phase1,3.2.4,Linux x86_64,60,left,0.536000013,4,0,4,0,1,3,1,0,240,70,1,239,,,,,,,,,,,,,,,,,,
,,0,125,,,,,,,2,1,4,stim/14.jpeg,Instruments,2,stim/objects/Instruments/record_player.png,0.7,1,-0.2,0.15,right,7,2020-11-17_18h17.36.804,premup-three_ses-01_part-01_label-phase1,3.2.4,Linux x86_64,60,left,0.905999899,4,0,4,0,1,3,1,0,240,103,1,239,,,,,,,,,,,,,,,,,,
,,1,126,,,,,,,1,5,2,stim/52.jpeg,Instruments,2,stim/objects/Instruments/laud.png,0.5,2,0.2,0.15,right,7,2020-11-17_18h17.36.804,premup-three_ses-01_part-01_label-phase1,3.2.4,Linux x86_64,60,right,0.565000057,4,0,4,0,1,3,1,0,240,33,1,239,,,,,,,,,,,,,,,,,,
,,1,127,,,,,,,3,3,1,stim/31.jpeg,Instruments,2,stim/objects/Instruments/metronome2.png,0.9,3,-0.2,-0.15,right,7,2020-11-17_18h17.36.804,premup-three_ses-01_part-01_label-phase1,3.2.4,Linux x86_64,60,right,0.828999758,4,0,4,0,1,3,1,0,240,184,1,239,,,,,,,,,,,,,,,,,,
