key_resp_pract.keys,key_resp_pract.rt,trial_acc,trial_index,practice_loop.thisRepN,practice_loop.thisTrialN,practice_loop.thisN,practice_loop.thisIndex,practice_loop.ran,practice_loop.order,scn_condition,scn_cat,scn_inst,scn_file,obj_cat,obj_cat_num,obj_file,trial_cond,quadrant,obj_x,obj_y,corr_ans,participant,date,expName,psychopyVersion,OS,frameRate,key_resp_trial.keys,key_resp_trial.rt,iterations.thisRepN,iterations.thisTrialN,iterations.thisN,iterations.thisIndex,iterations.ran,iterations.order,task_innerloop.thisRepN,task_innerloop.thisTrialN,task_innerloop.thisN,task_innerloop.thisIndex,task_innerloop.ran,task_innerloop.order,iteration_index,rating_acc,slider.response,slider.rt,slider_2.response,slider_2.rt,ratings.thisRepN,ratings.thisTrialN,ratings.thisN,ratings.thisIndex,ratings.ran,ratings.order,obj_cat_top,min_resp_top,max_resp_top,obj_cat_bottom,min_resp_bottom,max_resp_bottom
right,1.09499979,1,1,1,0,240,78,1,239,1,4,3,stim/43.jpeg,HouseObjects,2,stim/objects/HouseObjects/garbagebin.png,0.5,1,-0.2,0.15,right,16,2020-12-01_12h46.01.007,premup-three_ses-01_part-01_label-phase1,3.2.4,Win32,60,,,,,,,,,,,,,,,,,,,,,,,,,,,,,,,,
,,0,2,1,0,240,83,1,239,2,5,4,stim/54.jpeg,Instruments,1,stim/objects/Instruments/hihat.png,0.3,1,-0.2,0.15,left,16,2020-12-01_12h46.01.007,premup-three_ses-01_part-01_label-phase1,3.2.4,Win32,60,,,,,,,,,,,,,,,,,,,,,,,,,,,,,,,,
right,0.911000013,0,3,1,0,240,222,1,239,3,2,3,stim/23.jpeg,Instruments,1,stim/objects/Instruments/harp2.png,0.9,4,0.2,-0.15,left,16,2020-12-01_12h46.01.007,premup-three_ses-01_part-01_label-phase1,3.2.4,Win32,60,,,,,,,,,,,,,,,,,,,,,,,,,,,,,,,,
right,1.338999987,0,4,1,0,240,138,1,239,2,6,3,stim/63.jpeg,Instruments,1,stim/objects/Instruments/electricguitar2.png,0.7,2,0.2,0.15,left,16,2020-12-01_12h46.01.007,premup-three_ses-01_part-01_label-phase1,3.2.4,Win32,60,,,,,,,,,,,,,,,,,,,,,,,,,,,,,,,,
right,0.976000071,1,5,1,0,240,61,1,239,1,4,2,stim/42.jpeg,HouseObjects,2,stim/objects/HouseObjects/flyswatter.png,0.5,2,0.2,0.15,right,16,2020-12-01_12h46.01.007,premup-three_ses-01_part-01_label-phase1,3.2.4,Win32,60,,,,,,,,,,,,,,,,,,,,,,,,,,,,,,,,
right,1.06400013,1,6,1,0,240,31,1,239,1,3,4,stim/34.jpeg,HouseObjects,2,stim/objects/HouseObjects/doormat.png,0.5,1,-0.2,0.15,right,16,2020-12-01_12h46.01.007,premup-three_ses-01_part-01_label-phase1,3.2.4,Win32,60,,,,,,,,,,,,,,,,,,,,,,,,,,,,,,,,
right,1.116999865,1,7,1,0,240,238,1,239,3,2,3,stim/23.jpeg,HouseObjects,2,stim/objects/HouseObjects/handbrush2.png,0.1,4,0.2,-0.15,right,16,2020-12-01_12h46.01.007,premup-three_ses-01_part-01_label-phase1,3.2.4,Win32,60,,,,,,,,,,,,,,,,,,,,,,,,,,,,,,,,
right,1.105000019,0,8,1,0,240,132,1,239,2,6,1,stim/61.jpeg,Instruments,1,stim/objects/Instruments/drums2.png,0.7,3,-0.2,-0.15,left,16,2020-12-01_12h46.01.007,premup-three_ses-01_part-01_label-phase1,3.2.4,Win32,60,,,,,,,,,,,,,,,,,,,,,,,,,,,,,,,,
left,1.276999712,1,9,1,0,240,136,1,239,2,6,1,stim/61.jpeg,Instruments,1,stim/objects/Instruments/drums2.png,0.7,1,-0.2,0.15,left,16,2020-12-01_12h46.01.007,premup-three_ses-01_part-01_label-phase1,3.2.4,Win32,60,,,,,,,,,,,,,,,,,,,,,,,,,,,,,,,,
right,1.210999966,1,10,1,0,240,187,1,239,3,1,4,stim/14.jpeg,HouseObjects,2,stim/objects/HouseObjects/glass2.png,0.9,4,0.2,-0.15,right,16,2020-12-01_12h46.01.007,premup-three_ses-01_part-01_label-phase1,3.2.4,Win32,60,,,,,,,,,,,,,,,,,,,,,,,,,,,,,,,,
,,0,1,,,,,,,1,4,1,stim/41.jpeg,Instruments,1,stim/objects/Instruments/flutetrans.png,0.5,2,0.2,0.15,left,16,2020-12-01_12h46.01.007,premup-three_ses-01_part-01_label-phase1,3.2.4,Win32,60,,,4,0,4,0,1,3,1,0,240,56,1,239,,,,,,,,,,,,,,,,,,
,,0,2,,,,,,,3,2,3,stim/23.jpeg,Instruments,1,stim/objects/Instruments/harp2.png,0.9,2,0.2,0.15,left,16,2020-12-01_12h46.01.007,premup-three_ses-01_part-01_label-phase1,3.2.4,Win32,60,right,0.973999739,4,0,4,0,1,3,1,0,240,218,1,239,,,,,,,,,,,,,,,,,,
,,1,3,,,,,,,3,1,4,stim/14.jpeg,HouseObjects,2,stim/objects/HouseObjects/glass2.png,0.9,2,0.2,0.15,right,16,2020-12-01_12h46.01.007,premup-three_ses-01_part-01_label-phase1,3.2.4,Win32,60,right,1.538999796,4,0,4,0,1,3,1,0,240,175,1,239,,,,,,,,,,,,,,,,,,
,,1,4,,,,,,,3,2,2,stim/22.jpeg,Instruments,1,stim/objects/Instruments/harmonica2.png,0.9,3,-0.2,-0.15,left,16,2020-12-01_12h46.01.007,premup-three_ses-01_part-01_label-phase1,3.2.4,Win32,60,left,0.894999981,4,0,4,0,1,3,1,0,240,217,1,239,,,,,,,,,,,,,,,,,,
,,1,5,,,,,,,3,1,4,stim/14.jpeg,HouseObjects,2,stim/objects/HouseObjects/glass2.png,0.9,4,0.2,-0.15,right,16,2020-12-01_12h46.01.007,premup-three_ses-01_part-01_label-phase1,3.2.4,Win32,60,right,0.723999977,4,0,4,0,1,3,1,0,240,191,1,239,,,,,,,,,,,,,,,,,,
,,0,6,,,,,,,1,4,2,stim/42.jpeg,Instruments,1,stim/objects/Instruments/frenchhorn.png,0.5,3,-0.2,-0.15,left,16,2020-12-01_12h46.01.007,premup-three_ses-01_part-01_label-phase1,3.2.4,Win32,60,right,1.151999712,4,0,4,0,1,3,1,0,240,45,1,239,,,,,,,,,,,,,,,,,,
,,0,7,,,,,,,2,5,2,stim/52.jpeg,Instruments,1,stim/objects/Instruments/harmonica.png,0.3,1,-0.2,0.15,left,16,2020-12-01_12h46.01.007,premup-three_ses-01_part-01_label-phase1,3.2.4,Win32,60,right,1.389999866,4,0,4,0,1,3,1,0,240,89,1,239,,,,,,,,,,,,,,,,,,
,,0,8,,,,,,,1,4,4,stim/44.jpeg,HouseObjects,2,stim/objects/HouseObjects/glass.png,0.5,3,-0.2,-0.15,right,16,2020-12-01_12h46.01.007,premup-three_ses-01_part-01_label-phase1,3.2.4,Win32,60,left,0.980000019,4,0,4,0,1,3,1,0,240,71,1,239,,,,,,,,,,,,,,,,,,
,,0,9,,,,,,,1,3,4,stim/34.jpeg,Instruments,1,stim/objects/Instruments/flute.png,0.5,1,-0.2,0.15,left,16,2020-12-01_12h46.01.007,premup-three_ses-01_part-01_label-phase1,3.2.4,Win32,60,right,1.171999931,4,0,4,0,1,3,1,0,240,19,1,239,,,,,,,,,,,,,,,,,,
,,1,10,,,,,,,2,6,1,stim/61.jpeg,Instruments,1,stim/objects/Instruments/drums2.png,0.7,1,-0.2,0.15,left,16,2020-12-01_12h46.01.007,premup-three_ses-01_part-01_label-phase1,3.2.4,Win32,60,left,1.068999767,4,0,4,0,1,3,1,0,240,136,1,239,,,,,,,,,,,,,,,,,,
,,0,11,,,,,,,2,5,2,stim/52.jpeg,HouseObjects,2,stim/objects/HouseObjects/hairdryer.png,0.7,1,-0.2,0.15,right,16,2020-12-01_12h46.01.007,premup-three_ses-01_part-01_label-phase1,3.2.4,Win32,60,left,0.956999779,4,0,4,0,1,3,1,0,240,97,1,239,,,,,,,,,,,,,,,,,,
,,1,12,,,,,,,2,5,3,stim/53.jpeg,Instruments,1,stim/objects/Instruments/harp.png,0.3,1,-0.2,0.15,left,16,2020-12-01_12h46.01.007,premup-three_ses-01_part-01_label-phase1,3.2.4,Win32,60,left,1.04399991,4,0,4,0,1,3,1,0,240,90,1,239,,,,,,,,,,,,,,,,,,
,,0,13,,,,,,,2,6,2,stim/62.jpeg,Instruments,1,stim/objects/Instruments/electricdrumset2.png,0.7,1,-0.2,0.15,left,16,2020-12-01_12h46.01.007,premup-three_ses-01_part-01_label-phase1,3.2.4,Win32,60,right,0.710999966,4,0,4,0,1,3,1,0,240,141,1,239,,,,,,,,,,,,,,,,,,
,,0,14,,,,,,,3,2,1,stim/21.jpeg,Instruments,1,stim/objects/Instruments/guitarcase2.png,0.9,2,0.2,0.15,left,16,2020-12-01_12h46.01.007,premup-three_ses-01_part-01_label-phase1,3.2.4,Win32,60,right,0.860999823,4,0,4,0,1,3,1,0,240,224,1,239,,,,,,,,,,,,,,,,,,
,,1,15,,,,,,,3,1,1,stim/11.jpeg,HouseObjects,2,stim/objects/HouseObjects/dustpan2.png,0.9,1,-0.2,0.15,right,16,2020-12-01_12h46.01.007,premup-three_ses-01_part-01_label-phase1,3.2.4,Win32,60,right,1.001999855,4,0,4,0,1,3,1,0,240,164,1,239,,,,,,,,,,,,,,,,,,
,,1,16,,,,,,,3,1,2,stim/12.jpeg,HouseObjects,2,stim/objects/HouseObjects/flyswatter2.png,0.9,1,-0.2,0.15,right,16,2020-12-01_12h46.01.007,premup-three_ses-01_part-01_label-phase1,3.2.4,Win32,60,right,1.125999928,4,0,4,0,1,3,1,0,240,169,1,239,,,,,,,,,,,,,,,,,,
,,1,17,,,,,,,3,2,2,stim/22.jpeg,Instruments,1,stim/objects/Instruments/harmonica2.png,0.9,1,-0.2,0.15,left,16,2020-12-01_12h46.01.007,premup-three_ses-01_part-01_label-phase1,3.2.4,Win32,60,left,0.855999947,4,0,4,0,1,3,1,0,240,201,1,239,,,,,,,,,,,,,,,,,,
,,0,18,,,,,,,3,1,3,stim/13.jpeg,HouseObjects,2,stim/objects/HouseObjects/garbagebin2.png,0.9,3,-0.2,-0.15,right,16,2020-12-01_12h46.01.007,premup-three_ses-01_part-01_label-phase1,3.2.4,Win32,60,left,0.894000053,4,0,4,0,1,3,1,0,240,170,1,239,,,,,,,,,,,,,,,,,,
,,0,19,,,,,,,1,4,4,stim/44.jpeg,Instruments,1,stim/objects/Instruments/grandpiano.png,0.5,4,0.2,-0.15,left,16,2020-12-01_12h46.01.007,premup-three_ses-01_part-01_label-phase1,3.2.4,Win32,60,right,0.740999937,4,0,4,0,1,3,1,0,240,59,1,239,,,,,,,,,,,,,,,,,,
,,1,20,,,,,,,2,6,4,stim/64.jpeg,HouseObjects,2,stim/objects/HouseObjects/doormat2.png,0.3,2,0.2,0.15,right,16,2020-12-01_12h46.01.007,premup-three_ses-01_part-01_label-phase1,3.2.4,Win32,60,right,0.99000001,4,0,4,0,1,3,1,0,240,159,1,239,,,,,,,,,,,,,,,,,,
,,1,21,,,,,,,2,5,1,stim/51.jpeg,HouseObjects,2,stim/objects/HouseObjects/glassmop.png,0.7,4,0.2,-0.15,right,16,2020-12-01_12h46.01.007,premup-three_ses-01_part-01_label-phase1,3.2.4,Win32,60,right,0.973999977,4,0,4,0,1,3,1,0,240,112,1,239,,,,,,,,,,,,,,,,,,
,,0,22,,,,,,,3,1,2,stim/12.jpeg,HouseObjects,2,stim/objects/HouseObjects/flyswatter2.png,0.9,4,0.2,-0.15,right,16,2020-12-01_12h46.01.007,premup-three_ses-01_part-01_label-phase1,3.2.4,Win32,60,left,0.838999987,4,0,4,0,1,3,1,0,240,177,1,239,,,,,,,,,,,,,,,,,,
,,0,23,,,,,,,1,3,4,stim/34.jpeg,Instruments,1,stim/objects/Instruments/flute.png,0.5,3,-0.2,-0.15,left,16,2020-12-01_12h46.01.007,premup-three_ses-01_part-01_label-phase1,3.2.4,Win32,60,right,0.913999796,4,0,4,0,1,3,1,0,240,7,1,239,,,,,,,,,,,,,,,,,,
,,0,24,,,,,,,1,3,2,stim/32.jpeg,Instruments,1,stim/objects/Instruments/electricdrumset.png,0.5,4,0.2,-0.15,left,16,2020-12-01_12h46.01.007,premup-three_ses-01_part-01_label-phase1,3.2.4,Win32,60,right,0.777999878,4,0,4,0,1,3,1,0,240,13,1,239,,,,,,,,,,,,,,,,,,
,,1,25,,,,,,,1,4,1,stim/41.jpeg,Instruments,1,stim/objects/Instruments/flutetrans.png,0.5,2,0.2,0.15,left,16,2020-12-01_12h46.01.007,premup-three_ses-01_part-01_label-phase1,3.2.4,Win32,60,left,1.024999857,4,0,4,0,1,3,1,0,240,52,1,239,,,,,,,,,,,,,,,,,,
,,0,26,,,,,,,2,6,3,stim/63.jpeg,Instruments,1,stim/objects/Instruments/electricguitar2.png,0.7,2,0.2,0.15,left,16,2020-12-01_12h46.01.007,premup-three_ses-01_part-01_label-phase1,3.2.4,Win32,60,right,0.97300005,4,0,4,0,1,3,1,0,240,138,1,239,,,,,,,,,,,,,,,,,,
,,0,27,,,,,,,1,3,1,stim/31.jpeg,HouseObjects,2,stim/objects/HouseObjects/coffee.png,0.5,2,0.2,0.15,right,16,2020-12-01_12h46.01.007,premup-three_ses-01_part-01_label-phase1,3.2.4,Win32,60,left,1.049000025,4,0,4,0,1,3,1,0,240,24,1,239,,,,,,,,,,,,,,,,,,
,,1,28,,,,,,,2,6,3,stim/63.jpeg,Instruments,1,stim/objects/Instruments/electricguitar2.png,0.7,3,-0.2,-0.15,left,16,2020-12-01_12h46.01.007,premup-three_ses-01_part-01_label-phase1,3.2.4,Win32,60,left,0.879999876,4,0,4,0,1,3,1,0,240,142,1,239,,,,,,,,,,,,,,,,,,
,,0,29,,,,,,,3,2,1,stim/21.jpeg,Instruments,1,stim/objects/Instruments/guitarcase2.png,0.9,2,0.2,0.15,left,16,2020-12-01_12h46.01.007,premup-three_ses-01_part-01_label-phase1,3.2.4,Win32,60,right,0.632999897,4,0,4,0,1,3,1,0,240,232,1,239,,,,,,,,,,,,,,,,,,
,,0,30,,,,,,,1,4,2,stim/42.jpeg,HouseObjects,2,stim/objects/HouseObjects/flyswatter.png,0.5,4,0.2,-0.15,right,16,2020-12-01_12h46.01.007,premup-three_ses-01_part-01_label-phase1,3.2.4,Win32,60,left,0.904000044,4,0,4,0,1,3,1,0,240,65,1,239,,,,,,,,,,,,,,,,,,
,,1,31,,,,,,,1,3,4,stim/34.jpeg,Instruments,1,stim/objects/Instruments/flute.png,0.5,2,0.2,0.15,left,16,2020-12-01_12h46.01.007,premup-three_ses-01_part-01_label-phase1,3.2.4,Win32,60,left,1.07799983,4,0,4,0,1,3,1,0,240,11,1,239,,,,,,,,,,,,,,,,,,
,,0,32,,,,,,,3,2,2,stim/22.jpeg,Instruments,1,stim/objects/Instruments/harmonica2.png,0.9,4,0.2,-0.15,left,16,2020-12-01_12h46.01.007,premup-three_ses-01_part-01_label-phase1,3.2.4,Win32,60,right,1.248999834,4,0,4,0,1,3,1,0,240,209,1,239,,,,,,,,,,,,,,,,,,
,,1,33,,,,,,,2,6,4,stim/64.jpeg,Instruments,1,stim/objects/Instruments/flute2.png,0.7,3,-0.2,-0.15,left,16,2020-12-01_12h46.01.007,premup-three_ses-01_part-01_label-phase1,3.2.4,Win32,60,left,0.786999941,4,0,4,0,1,3,1,0,240,123,1,239,,,,,,,,,,,,,,,,,,
,,1,34,,,,,,,3,2,3,stim/23.jpeg,Instruments,1,stim/objects/Instruments/harp2.png,0.9,4,0.2,-0.15,left,16,2020-12-01_12h46.01.007,premup-three_ses-01_part-01_label-phase1,3.2.4,Win32,60,left,0.556999922,4,0,4,0,1,3,1,0,240,210,1,239,,,,,,,,,,,,,,,,,,
,,0,35,,,,,,,2,5,3,stim/53.jpeg,HouseObjects,2,stim/objects/HouseObjects/handbrush.png,0.7,3,-0.2,-0.15,right,16,2020-12-01_12h46.01.007,premup-three_ses-01_part-01_label-phase1,3.2.4,Win32,60,left,0.78399992,4,0,4,0,1,3,1,0,240,114,1,239,,,,,,,,,,,,,,,,,,
,,1,36,,,,,,,3,1,1,stim/11.jpeg,HouseObjects,2,stim/objects/HouseObjects/dustpan2.png,0.9,2,0.2,0.15,right,16,2020-12-01_12h46.01.007,premup-three_ses-01_part-01_label-phase1,3.2.4,Win32,60,right,0.753000021,4,0,4,0,1,3,1,0,240,196,1,239,,,,,,,,,,,,,,,,,,
,,1,37,,,,,,,3,2,2,stim/22.jpeg,Instruments,1,stim/objects/Instruments/harmonica2.png,0.9,2,0.2,0.15,left,16,2020-12-01_12h46.01.007,premup-three_ses-01_part-01_label-phase1,3.2.4,Win32,60,left,0.823999882,4,0,4,0,1,3,1,0,240,205,1,239,,,,,,,,,,,,,,,,,,
,,1,38,,,,,,,2,5,4,stim/54.jpeg,HouseObjects,2,stim/objects/HouseObjects/handvacuum.png,0.7,4,0.2,-0.15,right,16,2020-12-01_12h46.01.007,premup-three_ses-01_part-01_label-phase1,3.2.4,Win32,60,right,0.664999962,4,0,4,0,1,3,1,0,240,103,1,239,,,,,,,,,,,,,,,,,,
,,0,39,,,,,,,3,1,4,stim/14.jpeg,HouseObjects,2,stim/objects/HouseObjects/glass2.png,0.9,3,-0.2,-0.15,right,16,2020-12-01_12h46.01.007,premup-three_ses-01_part-01_label-phase1,3.2.4,Win32,60,left,0.654999971,4,0,4,0,1,3,1,0,240,195,1,239,,,,,,,,,,,,,,,,,,
,,1,40,,,,,,,1,4,2,stim/42.jpeg,HouseObjects,2,stim/objects/HouseObjects/flyswatter.png,0.5,2,0.2,0.15,right,16,2020-12-01_12h46.01.007,premup-three_ses-01_part-01_label-phase1,3.2.4,Win32,60,right,1.148000002,4,0,4,0,1,3,1,0,240,73,1,239,,,,,,,,,,,,,,,,,,
,,0,41,,,,,,,1,3,4,stim/34.jpeg,HouseObjects,2,stim/objects/HouseObjects/doormat.png,0.5,1,-0.2,0.15,right,16,2020-12-01_12h46.01.007,premup-three_ses-01_part-01_label-phase1,3.2.4,Win32,60,left,1.164000034,4,0,4,0,1,3,1,0,240,31,1,239,,,,,,,,,,,,,,,,,,
,,0,42,,,,,,,3,2,3,stim/23.jpeg,Instruments,1,stim/objects/Instruments/harp2.png,0.9,1,-0.2,0.15,left,16,2020-12-01_12h46.01.007,premup-three_ses-01_part-01_label-phase1,3.2.4,Win32,60,right,1.017999887,4,0,4,0,1,3,1,0,240,234,1,239,,,,,,,,,,,,,,,,,,
,,1,43,,,,,,,1,3,3,stim/33.jpeg,Instruments,1,stim/objects/Instruments/electricguitar.png,0.5,1,-0.2,0.15,left,16,2020-12-01_12h46.01.007,premup-three_ses-01_part-01_label-phase1,3.2.4,Win32,60,left,1.088999987,4,0,4,0,1,3,1,0,240,18,1,239,,,,,,,,,,,,,,,,,,
,,1,44,,,,,,,2,5,3,stim/53.jpeg,Instruments,1,stim/objects/Instruments/harp.png,0.3,4,0.2,-0.15,left,16,2020-12-01_12h46.01.007,premup-three_ses-01_part-01_label-phase1,3.2.4,Win32,60,left,1.22699976,4,0,4,0,1,3,1,0,240,86,1,239,,,,,,,,,,,,,,,,,,
,,1,45,,,,,,,2,6,3,stim/63.jpeg,Instruments,1,stim/objects/Instruments/electricguitar2.png,0.7,3,-0.2,-0.15,left,16,2020-12-01_12h46.01.007,premup-three_ses-01_part-01_label-phase1,3.2.4,Win32,60,left,0.825999975,4,0,4,0,1,3,1,0,240,122,1,239,,,,,,,,,,,,,,,,,,
,,0,46,,,,,,,3,2,4,stim/24.jpeg,Instruments,1,stim/objects/Instruments/hihat2.png,0.9,1,-0.2,0.15,left,16,2020-12-01_12h46.01.007,premup-three_ses-01_part-01_label-phase1,3.2.4,Win32,60,right,0.605999947,4,0,4,0,1,3,1,0,240,223,1,239,,,,,,,,,,,,,,,,,,
,,1,47,,,,,,,3,1,1,stim/11.jpeg,HouseObjects,2,stim/objects/HouseObjects/dustpan2.png,0.9,3,-0.2,-0.15,right,16,2020-12-01_12h46.01.007,premup-three_ses-01_part-01_label-phase1,3.2.4,Win32,60,right,1.197999954,4,0,4,0,1,3,1,0,240,168,1,239,,,,,,,,,,,,,,,,,,
,,1,48,,,,,,,3,1,2,stim/12.jpeg,HouseObjects,2,stim/objects/HouseObjects/flyswatter2.png,0.9,2,0.2,0.15,right,16,2020-12-01_12h46.01.007,premup-three_ses-01_part-01_label-phase1,3.2.4,Win32,60,right,0.769999981,4,0,4,0,1,3,1,0,240,173,1,239,,,,,,,,,,,,,,,,,,
,,0,49,,,,,,,2,6,3,stim/63.jpeg,HouseObjects,2,stim/objects/HouseObjects/dishsoap2.png,0.3,2,0.2,0.15,right,16,2020-12-01_12h46.01.007,premup-three_ses-01_part-01_label-phase1,3.2.4,Win32,60,left,0.680000067,4,0,4,0,1,3,1,0,240,154,1,239,,,,,,,,,,,,,,,,,,
,,0,50,,,,,,,1,3,3,stim/33.jpeg,HouseObjects,2,stim/objects/HouseObjects/dishsoap.png,0.5,3,-0.2,-0.15,right,16,2020-12-01_12h46.01.007,premup-three_ses-01_part-01_label-phase1,3.2.4,Win32,60,left,1.178999901,4,0,4,0,1,3,1,0,240,30,1,239,,,,,,,,,,,,,,,,,,
,,0,51,,,,,,,3,2,4,stim/24.jpeg,Instruments,1,stim/objects/Instruments/hihat2.png,0.9,3,-0.2,-0.15,left,16,2020-12-01_12h46.01.007,premup-three_ses-01_part-01_label-phase1,3.2.4,Win32,60,right,0.632999897,4,0,4,0,1,3,1,0,240,235,1,239,,,,,,,,,,,,,,,,,,
,,0,52,,,,,,,2,5,1,stim/51.jpeg,HouseObjects,2,stim/objects/HouseObjects/glassmop.png,0.7,3,-0.2,-0.15,right,16,2020-12-01_12h46.01.007,premup-three_ses-01_part-01_label-phase1,3.2.4,Win32,60,left,1.220999956,4,0,4,0,1,3,1,0,240,116,1,239,,,,,,,,,,,,,,,,,,
,,0,53,,,,,,,1,3,3,stim/33.jpeg,Instruments,1,stim/objects/Instruments/electricguitar.png,0.5,4,0.2,-0.15,left,16,2020-12-01_12h46.01.007,premup-three_ses-01_part-01_label-phase1,3.2.4,Win32,60,right,0.662999868,4,0,4,0,1,3,1,0,240,14,1,239,,,,,,,,,,,,,,,,,,
,,0,54,,,,,,,1,3,4,stim/34.jpeg,HouseObjects,2,stim/objects/HouseObjects/doormat.png,0.5,1,-0.2,0.15,right,16,2020-12-01_12h46.01.007,premup-three_ses-01_part-01_label-phase1,3.2.4,Win32,60,left,0.589999914,4,0,4,0,1,3,1,0,240,27,1,239,,,,,,,,,,,,,,,,,,
,,0,55,,,,,,,1,4,1,stim/41.jpeg,Instruments,1,stim/objects/Instruments/flutetrans.png,0.5,1,-0.2,0.15,left,16,2020-12-01_12h46.01.007,premup-three_ses-01_part-01_label-phase1,3.2.4,Win32,60,right,0.389999866,4,0,4,0,1,3,1,0,240,44,1,239,,,,,,,,,,,,,,,,,,
,,0,56,,,,,,,3,1,4,stim/14.jpeg,Instruments,1,stim/objects/Instruments/grandpiano2.png,0.1,2,0.2,0.15,left,16,2020-12-01_12h46.01.007,premup-three_ses-01_part-01_label-phase1,3.2.4,Win32,60,,,4,0,4,0,1,3,1,0,240,163,1,239,,,,,,,,,,,,,,,,,,
,,0,57,,,,,,,1,4,2,stim/42.jpeg,Instruments,1,stim/objects/Instruments/frenchhorn.png,0.5,4,0.2,-0.15,left,16,2020-12-01_12h46.01.007,premup-three_ses-01_part-01_label-phase1,3.2.4,Win32,60,right,0.440999985,4,0,4,0,1,3,1,0,240,49,1,239,,,,,,,,,,,,,,,,,,
,,0,58,,,,,,,3,1,3,stim/13.jpeg,HouseObjects,2,stim/objects/HouseObjects/garbagebin2.png,0.9,1,-0.2,0.15,right,16,2020-12-01_12h46.01.007,premup-three_ses-01_part-01_label-phase1,3.2.4,Win32,60,left,0.714999914,4,0,4,0,1,3,1,0,240,182,1,239,,,,,,,,,,,,,,,,,,
,,1,59,,,,,,,3,1,4,stim/14.jpeg,HouseObjects,2,stim/objects/HouseObjects/glass2.png,0.9,1,-0.2,0.15,right,16,2020-12-01_12h46.01.007,premup-three_ses-01_part-01_label-phase1,3.2.4,Win32,60,right,0.786000013,4,0,4,0,1,3,1,0,240,199,1,239,,,,,,,,,,,,,,,,,,
,,1,60,,,,,,,2,5,4,stim/54.jpeg,Instruments,1,stim/objects/Instruments/hihat.png,0.3,2,0.2,0.15,left,16,2020-12-01_12h46.01.007,premup-three_ses-01_part-01_label-phase1,3.2.4,Win32,60,left,0.740999937,4,0,4,0,1,3,1,0,240,91,1,239,,,,,,,,,,,,,,,,,,
,,1,61,,,,,,,1,4,1,stim/41.jpeg,HouseObjects,2,stim/objects/HouseObjects/dustpan.png,0.5,4,0.2,-0.15,right,16,2020-12-01_12h46.01.007,premup-three_ses-01_part-01_label-phase1,3.2.4,Win32,60,right,0.999000072,4,0,4,0,1,3,1,0,240,68,1,239,,,,,,,,,,,,,,,,,,
,,0,62,,,,,,,2,5,2,stim/52.jpeg,Instruments,1,stim/objects/Instruments/harmonica.png,0.3,1,-0.2,0.15,left,16,2020-12-01_12h46.01.007,premup-three_ses-01_part-01_label-phase1,3.2.4,Win32,60,right,0.612999916,4,0,4,0,1,3,1,0,240,81,1,239,,,,,,,,,,,,,,,,,,
,,1,63,,,,,,,2,6,2,stim/62.jpeg,Instruments,1,stim/objects/Instruments/electricdrumset2.png,0.7,2,0.2,0.15,left,16,2020-12-01_12h46.01.007,premup-three_ses-01_part-01_label-phase1,3.2.4,Win32,60,left,0.645999908,4,0,4,0,1,3,1,0,240,137,1,239,,,,,,,,,,,,,,,,,,
,,0,64,,,,,,,3,1,1,stim/11.jpeg,Instruments,1,stim/objects/Instruments/flutetrans2.png,0.1,3,-0.2,-0.15,left,16,2020-12-01_12h46.01.007,premup-three_ses-01_part-01_label-phase1,3.2.4,Win32,60,right,0.688999891,4,0,4,0,1,3,1,0,240,160,1,239,,,,,,,,,,,,,,,,,,
,,0,65,,,,,,,2,6,1,stim/61.jpeg,HouseObjects,2,stim/objects/HouseObjects/coffee2.png,0.3,3,-0.2,-0.15,right,16,2020-12-01_12h46.01.007,premup-three_ses-01_part-01_label-phase1,3.2.4,Win32,60,left,0.874999762,4,0,4,0,1,3,1,0,240,156,1,239,,,,,,,,,,,,,,,,,,
,,1,66,,,,,,,3,1,4,stim/14.jpeg,HouseObjects,2,stim/objects/HouseObjects/glass2.png,0.9,2,0.2,0.15,right,16,2020-12-01_12h46.01.007,premup-three_ses-01_part-01_label-phase1,3.2.4,Win32,60,right,0.736999989,4,0,4,0,1,3,1,0,240,171,1,239,,,,,,,,,,,,,,,,,,
,,0,67,,,,,,,2,5,4,stim/54.jpeg,Instruments,1,stim/objects/Instruments/hihat.png,0.3,1,-0.2,0.15,left,16,2020-12-01_12h46.01.007,premup-three_ses-01_part-01_label-phase1,3.2.4,Win32,60,right,1.04399991,4,0,4,0,1,3,1,0,240,83,1,239,,,,,,,,,,,,,,,,,,
,,1,68,,,,,,,1,3,2,stim/32.jpeg,Instruments,1,stim/objects/Instruments/electricdrumset.png,0.5,4,0.2,-0.15,left,16,2020-12-01_12h46.01.007,premup-three_ses-01_part-01_label-phase1,3.2.4,Win32,60,left,0.957000017,4,0,4,0,1,3,1,0,240,9,1,239,,,,,,,,,,,,,,,,,,
,,0,69,,,,,,,1,3,3,stim/33.jpeg,HouseObjects,2,stim/objects/HouseObjects/dishsoap.png,0.5,2,0.2,0.15,right,16,2020-12-01_12h46.01.007,premup-three_ses-01_part-01_label-phase1,3.2.4,Win32,60,left,0.481999874,4,0,4,0,1,3,1,0,240,26,1,239,,,,,,,,,,,,,,,,,,
,,1,70,,,,,,,3,2,2,stim/22.jpeg,HouseObjects,2,stim/objects/HouseObjects/hairdryer2.png,0.1,2,0.2,0.15,right,16,2020-12-01_12h46.01.007,premup-three_ses-01_part-01_label-phase1,3.2.4,Win32,60,right,0.447999954,4,0,4,0,1,3,1,0,240,237,1,239,,,,,,,,,,,,,,,,,,
,,0,71,,,,,,,3,2,3,stim/23.jpeg,Instruments,1,stim/objects/Instruments/harp2.png,0.9,4,0.2,-0.15,left,16,2020-12-01_12h46.01.007,premup-three_ses-01_part-01_label-phase1,3.2.4,Win32,60,right,0.482000113,4,0,4,0,1,3,1,0,240,230,1,239,,,,,,,,,,,,,,,,,,
,,0,72,,,,,,,2,6,1,stim/61.jpeg,Instruments,1,stim/objects/Instruments/drums2.png,0.7,4,0.2,-0.15,left,16,2020-12-01_12h46.01.007,premup-three_ses-01_part-01_label-phase1,3.2.4,Win32,60,right,0.683999777,4,0,4,0,1,3,1,0,240,144,1,239,,,,,,,,,,,,,,,,,,
,,1,73,,,,,,,2,5,1,stim/51.jpeg,Instruments,1,stim/objects/Instruments/guitarcase.png,0.3,1,-0.2,0.15,left,16,2020-12-01_12h46.01.007,premup-three_ses-01_part-01_label-phase1,3.2.4,Win32,60,left,0.722000122,4,0,4,0,1,3,1,0,240,84,1,239,,,,,,,,,,,,,,,,,,
,,0,74,,,,,,,1,3,1,stim/31.jpeg,HouseObjects,2,stim/objects/HouseObjects/coffee.png,0.5,1,-0.2,0.15,right,16,2020-12-01_12h46.01.007,premup-three_ses-01_part-01_label-phase1,3.2.4,Win32,60,left,0.65899992,4,0,4,0,1,3,1,0,240,20,1,239,,,,,,,,,,,,,,,,,,
,,1,75,,,,,,,3,1,2,stim/12.jpeg,HouseObjects,2,stim/objects/HouseObjects/flyswatter2.png,0.9,1,-0.2,0.15,right,16,2020-12-01_12h46.01.007,premup-three_ses-01_part-01_label-phase1,3.2.4,Win32,60,right,0.899999857,4,0,4,0,1,3,1,0,240,165,1,239,,,,,,,,,,,,,,,,,,
,,0,76,,,,,,,2,6,3,stim/63.jpeg,HouseObjects,2,stim/objects/HouseObjects/dishsoap2.png,0.3,4,0.2,-0.15,right,16,2020-12-01_12h46.01.007,premup-three_ses-01_part-01_label-phase1,3.2.4,Win32,60,left,0.770999908,4,0,4,0,1,3,1,0,240,150,1,239,,,,,,,,,,,,,,,,,,
,,1,77,,,,,,,3,1,2,stim/12.jpeg,HouseObjects,2,stim/objects/HouseObjects/flyswatter2.png,0.9,3,-0.2,-0.15,right,16,2020-12-01_12h46.01.007,premup-three_ses-01_part-01_label-phase1,3.2.4,Win32,60,right,0.468999863,4,0,4,0,1,3,1,0,240,193,1,239,,,,,,,,,,,,,,,,,,
,,1,78,,,,,,,3,2,2,stim/22.jpeg,Instruments,1,stim/objects/Instruments/harmonica2.png,0.9,4,0.2,-0.15,left,16,2020-12-01_12h46.01.007,premup-three_ses-01_part-01_label-phase1,3.2.4,Win32,60,left,1.167000055,4,0,4,0,1,3,1,0,240,225,1,239,,,,,,,,,,,,,,,,,,
,,0,79,,,,,,,2,5,2,stim/52.jpeg,HouseObjects,2,stim/objects/HouseObjects/hairdryer.png,0.7,3,-0.2,-0.15,right,16,2020-12-01_12h46.01.007,premup-three_ses-01_part-01_label-phase1,3.2.4,Win32,60,left,0.616999865,4,0,4,0,1,3,1,0,240,113,1,239,,,,,,,,,,,,,,,,,,
,,0,80,,,,,,,3,2,4,stim/24.jpeg,Instruments,1,stim/objects/Instruments/hihat2.png,0.9,4,0.2,-0.15,left,16,2020-12-01_12h46.01.007,premup-three_ses-01_part-01_label-phase1,3.2.4,Win32,60,right,0.373999834,4,0,4,0,1,3,1,0,240,231,1,239,,,,,,,,,,,,,,,,,,
,,1,81,,,,,,,3,1,4,stim/14.jpeg,HouseObjects,2,stim/objects/HouseObjects/glass2.png,0.9,3,-0.2,-0.15,right,16,2020-12-01_12h46.01.007,premup-three_ses-01_part-01_label-phase1,3.2.4,Win32,60,right,1.364000082,4,0,4,0,1,3,1,0,240,179,1,239,,,,,,,,,,,,,,,,,,
,,1,82,,,,,,,2,6,3,stim/63.jpeg,Instruments,1,stim/objects/Instruments/electricguitar2.png,0.7,4,0.2,-0.15,left,16,2020-12-01_12h46.01.007,premup-three_ses-01_part-01_label-phase1,3.2.4,Win32,60,left,0.75999999,4,0,4,0,1,3,1,0,240,146,1,239,,,,,,,,,,,,,,,,,,
,,1,83,,,,,,,1,3,2,stim/32.jpeg,Instruments,1,stim/objects/Instruments/electricdrumset.png,0.5,2,0.2,0.15,left,16,2020-12-01_12h46.01.007,premup-three_ses-01_part-01_label-phase1,3.2.4,Win32,60,left,0.947000027,4,0,4,0,1,3,1,0,240,17,1,239,,,,,,,,,,,,,,,,,,
,,1,84,,,,,,,2,5,1,stim/51.jpeg,Instruments,1,stim/objects/Instruments/guitarcase.png,0.3,3,-0.2,-0.15,left,16,2020-12-01_12h46.01.007,premup-three_ses-01_part-01_label-phase1,3.2.4,Win32,60,left,0.776999712,4,0,4,0,1,3,1,0,240,80,1,239,,,,,,,,,,,,,,,,,,
,,1,85,,,,,,,2,6,3,stim/63.jpeg,Instruments,1,stim/objects/Instruments/electricguitar2.png,0.7,1,-0.2,0.15,left,16,2020-12-01_12h46.01.007,premup-three_ses-01_part-01_label-phase1,3.2.4,Win32,60,left,0.764999866,4,0,4,0,1,3,1,0,240,126,1,239,,,,,,,,,,,,,,,,,,
,,0,86,,,,,,,3,2,4,stim/24.jpeg,Instruments,1,stim/objects/Instruments/hihat2.png,0.9,2,0.2,0.15,left,16,2020-12-01_12h46.01.007,premup-three_ses-01_part-01_label-phase1,3.2.4,Win32,60,right,0.453999996,4,0,4,0,1,3,1,0,240,227,1,239,,,,,,,,,,,,,,,,,,
,,0,87,,,,,,,3,2,3,stim/23.jpeg,Instruments,1,stim/objects/Instruments/harp2.png,0.9,4,0.2,-0.15,left,16,2020-12-01_12h46.01.007,premup-three_ses-01_part-01_label-phase1,3.2.4,Win32,60,right,0.447000027,4,0,4,0,1,3,1,0,240,222,1,239,,,,,,,,,,,,,,,,,,
,,1,88,,,,,,,3,2,3,stim/23.jpeg,Instruments,1,stim/objects/Instruments/harp2.png,0.9,1,-0.2,0.15,left,16,2020-12-01_12h46.01.007,premup-three_ses-01_part-01_label-phase1,3.2.4,Win32,60,left,0.517999887,4,0,4,0,1,3,1,0,240,226,1,239,,,,,,,,,,,,,,,,,,
,,1,89,,,,,,,2,6,1,stim/61.jpeg,Instruments,1,stim/objects/Instruments/drums2.png,0.7,1,-0.2,0.15,left,16,2020-12-01_12h46.01.007,premup-three_ses-01_part-01_label-phase1,3.2.4,Win32,60,left,0.690000057,4,0,4,0,1,3,1,0,240,128,1,239,,,,,,,,,,,,,,,,,,
,,1,90,,,,,,,1,4,1,stim/41.jpeg,HouseObjects,2,stim/objects/HouseObjects/dustpan.png,0.5,4,0.2,-0.15,right,16,2020-12-01_12h46.01.007,premup-three_ses-01_part-01_label-phase1,3.2.4,Win32,60,right,0.782000065,4,0,4,0,1,3,1,0,240,64,1,239,,,,,,,,,,,,,,,,,,
,,1,91,,,,,,,2,6,2,stim/62.jpeg,Instruments,1,stim/objects/Instruments/electricdrumset2.png,0.7,3,-0.2,-0.15,left,16,2020-12-01_12h46.01.007,premup-three_ses-01_part-01_label-phase1,3.2.4,Win32,60,left,0.910999775,4,0,4,0,1,3,1,0,240,125,1,239,,,,,,,,,,,,,,,,,,
,,1,92,,,,,,,3,2,1,stim/21.jpeg,HouseObjects,2,stim/objects/HouseObjects/glassmop2.png,0.1,3,-0.2,-0.15,right,16,2020-12-01_12h46.01.007,premup-three_ses-01_part-01_label-phase1,3.2.4,Win32,60,right,0.604999781,4,0,4,0,1,3,1,0,240,236,1,239,,,,,,,,,,,,,,,,,,
,,1,93,,,,,,,2,6,2,stim/62.jpeg,Instruments,1,stim/objects/Instruments/electricdrumset2.png,0.7,3,-0.2,-0.15,left,16,2020-12-01_12h46.01.007,premup-three_ses-01_part-01_label-phase1,3.2.4,Win32,60,left,1.11500001,4,0,4,0,1,3,1,0,240,121,1,239,,,,,,,,,,,,,,,,,,
,,1,94,,,,,,,1,4,3,stim/43.jpeg,HouseObjects,2,stim/objects/HouseObjects/garbagebin.png,0.5,4,0.2,-0.15,right,16,2020-12-01_12h46.01.007,premup-three_ses-01_part-01_label-phase1,3.2.4,Win32,60,right,1.178999901,4,0,4,0,1,3,1,0,240,62,1,239,,,,,,,,,,,,,,,,,,
,,0,95,,,,,,,2,5,1,stim/51.jpeg,HouseObjects,2,stim/objects/HouseObjects/glassmop.png,0.7,4,0.2,-0.15,right,16,2020-12-01_12h46.01.007,premup-three_ses-01_part-01_label-phase1,3.2.4,Win32,60,left,1.16899991,4,0,4,0,1,3,1,0,240,100,1,239,,,,,,,,,,,,,,,,,,
,,1,96,,,,,,,1,4,2,stim/42.jpeg,HouseObjects,2,stim/objects/HouseObjects/flyswatter.png,0.5,2,0.2,0.15,right,16,2020-12-01_12h46.01.007,premup-three_ses-01_part-01_label-phase1,3.2.4,Win32,60,right,0.68900013,4,0,4,0,1,3,1,0,240,77,1,239,,,,,,,,,,,,,,,,,,
,,1,97,,,,,,,2,5,4,stim/54.jpeg,Instruments,1,stim/objects/Instruments/hihat.png,0.3,2,0.2,0.15,left,16,2020-12-01_12h46.01.007,premup-three_ses-01_part-01_label-phase1,3.2.4,Win32,60,left,1.598999977,4,0,4,0,1,3,1,0,240,87,1,239,,,,,,,,,,,,,,,,,,
,,0,98,,,,,,,1,3,4,stim/34.jpeg,HouseObjects,2,stim/objects/HouseObjects/doormat.png,0.5,1,-0.2,0.15,right,16,2020-12-01_12h46.01.007,premup-three_ses-01_part-01_label-phase1,3.2.4,Win32,60,left,1.254999876,4,0,4,0,1,3,1,0,240,23,1,239,,,,,,,,,,,,,,,,,,
,,1,99,,,,,,,1,3,2,stim/32.jpeg,HouseObjects,2,stim/objects/HouseObjects/cushion.png,0.5,1,-0.2,0.15,right,16,2020-12-01_12h46.01.007,premup-three_ses-01_part-01_label-phase1,3.2.4,Win32,60,right,0.864999771,4,0,4,0,1,3,1,0,240,29,1,239,,,,,,,,,,,,,,,,,,
,,0,100,,,,,,,3,2,3,stim/23.jpeg,Instruments,1,stim/objects/Instruments/harp2.png,0.9,3,-0.2,-0.15,left,16,2020-12-01_12h46.01.007,premup-three_ses-01_part-01_label-phase1,3.2.4,Win32,60,right,0.553999901,4,0,4,0,1,3,1,0,240,206,1,239,,,,,,,,,,,,,,,,,,
,,1,101,,,,,,,1,4,3,stim/43.jpeg,HouseObjects,2,stim/objects/HouseObjects/garbagebin.png,0.5,1,-0.2,0.15,right,16,2020-12-01_12h46.01.007,premup-three_ses-01_part-01_label-phase1,3.2.4,Win32,60,right,1.070999861,4,0,4,0,1,3,1,0,240,70,1,239,,,,,,,,,,,,,,,,,,
,,0,102,,,,,,,1,4,4,stim/44.jpeg,Instruments,1,stim/objects/Instruments/grandpiano.png,0.5,2,0.2,0.15,left,16,2020-12-01_12h46.01.007,premup-three_ses-01_part-01_label-phase1,3.2.4,Win32,60,right,0.782999992,4,0,4,0,1,3,1,0,240,55,1,239,,,,,,,,,,,,,,,,,,
,,0,103,,,,,,,2,5,2,stim/52.jpeg,Instruments,1,stim/objects/Instruments/harmonica.png,0.3,2,0.2,0.15,left,16,2020-12-01_12h46.01.007,premup-three_ses-01_part-01_label-phase1,3.2.4,Win32,60,right,0.656999826,4,0,4,0,1,3,1,0,240,85,1,239,,,,,,,,,,,,,,,,,,
,,0,104,,,,,,,3,1,4,stim/14.jpeg,HouseObjects,2,stim/objects/HouseObjects/glass2.png,0.9,3,-0.2,-0.15,right,16,2020-12-01_12h46.01.007,premup-three_ses-01_part-01_label-phase1,3.2.4,Win32,60,left,0.699999809,4,0,4,0,1,3,1,0,240,167,1,239,,,,,,,,,,,,,,,,,,
,,0,105,,,,,,,3,2,4,stim/24.jpeg,Instruments,1,stim/objects/Instruments/hihat2.png,0.9,3,-0.2,-0.15,left,16,2020-12-01_12h46.01.007,premup-three_ses-01_part-01_label-phase1,3.2.4,Win32,60,right,0.601000071,4,0,4,0,1,3,1,0,240,211,1,239,,,,,,,,,,,,,,,,,,
,,1,106,,,,,,,2,6,4,stim/64.jpeg,Instruments,1,stim/objects/Instruments/flute2.png,0.7,4,0.2,-0.15,left,16,2020-12-01_12h46.01.007,premup-three_ses-01_part-01_label-phase1,3.2.4,Win32,60,left,1.589999914,4,0,4,0,1,3,1,0,240,127,1,239,,,,,,,,,,,,,,,,,,
,,0,107,,,,,,,3,1,3,stim/13.jpeg,Instruments,1,stim/objects/Instruments/gong2.png,0.1,2,0.2,0.15,left,16,2020-12-01_12h46.01.007,premup-three_ses-01_part-01_label-phase1,3.2.4,Win32,60,right,1.39199996,4,0,4,0,1,3,1,0,240,162,1,239,,,,,,,,,,,,,,,,,,
,,0,108,,,,,,,2,5,3,stim/53.jpeg,HouseObjects,2,stim/objects/HouseObjects/handbrush.png,0.7,3,-0.2,-0.15,right,16,2020-12-01_12h46.01.007,premup-three_ses-01_part-01_label-phase1,3.2.4,Win32,60,left,1.674000025,4,0,4,0,1,3,1,0,240,118,1,239,,,,,,,,,,,,,,,,,,
,,0,109,,,,,,,3,2,1,stim/21.jpeg,Instruments,1,stim/objects/Instruments/guitarcase2.png,0.9,1,-0.2,0.15,left,16,2020-12-01_12h46.01.007,premup-three_ses-01_part-01_label-phase1,3.2.4,Win32,60,right,0.957999945,4,0,4,0,1,3,1,0,240,200,1,239,,,,,,,,,,,,,,,,,,
,,0,110,,,,,,,3,2,1,stim/21.jpeg,Instruments,1,stim/objects/Instruments/guitarcase2.png,0.9,1,-0.2,0.15,left,16,2020-12-01_12h46.01.007,premup-three_ses-01_part-01_label-phase1,3.2.4,Win32,60,right,0.511999846,4,0,4,0,1,3,1,0,240,208,1,239,,,,,,,,,,,,,,,,,,
,,1,111,,,,,,,2,5,1,stim/51.jpeg,Instruments,1,stim/objects/Instruments/guitarcase.png,0.3,1,-0.2,0.15,left,16,2020-12-01_12h46.01.007,premup-three_ses-01_part-01_label-phase1,3.2.4,Win32,60,left,0.73699975,4,0,4,0,1,3,1,0,240,88,1,239,,,,,,,,,,,,,,,,,,
,,0,112,,,,,,,3,2,1,stim/21.jpeg,Instruments,1,stim/objects/Instruments/guitarcase2.png,0.9,4,0.2,-0.15,left,16,2020-12-01_12h46.01.007,premup-three_ses-01_part-01_label-phase1,3.2.4,Win32,60,right,0.661000013,4,0,4,0,1,3,1,0,240,204,1,239,,,,,,,,,,,,,,,,,,
,,1,113,,,,,,,2,6,3,stim/63.jpeg,Instruments,1,stim/objects/Instruments/electricguitar2.png,0.7,2,0.2,0.15,left,16,2020-12-01_12h46.01.007,premup-three_ses-01_part-01_label-phase1,3.2.4,Win32,60,left,0.872999907,4,0,4,0,1,3,1,0,240,130,1,239,,,,,,,,,,,,,,,,,,
,,0,114,,,,,,,3,2,4,stim/24.jpeg,Instruments,1,stim/objects/Instruments/hihat2.png,0.9,1,-0.2,0.15,left,16,2020-12-01_12h46.01.007,premup-three_ses-01_part-01_label-phase1,3.2.4,Win32,60,right,1.540999889,4,0,4,0,1,3,1,0,240,203,1,239,,,,,,,,,,,,,,,,,,
,,0,115,,,,,,,3,2,4,stim/24.jpeg,Instruments,1,stim/objects/Instruments/hihat2.png,0.9,4,0.2,-0.15,left,16,2020-12-01_12h46.01.007,premup-three_ses-01_part-01_label-phase1,3.2.4,Win32,60,right,1.041999817,4,0,4,0,1,3,1,0,240,215,1,239,,,,,,,,,,,,,,,,,,
,,0,116,,,,,,,1,4,1,stim/41.jpeg,HouseObjects,2,stim/objects/HouseObjects/dustpan.png,0.5,1,-0.2,0.15,right,16,2020-12-01_12h46.01.007,premup-three_ses-01_part-01_label-phase1,3.2.4,Win32,60,left,0.495999813,4,0,4,0,1,3,1,0,240,60,1,239,,,,,,,,,,,,,,,,,,
,,0,117,,,,,,,1,4,3,stim/43.jpeg,Instruments,1,stim/objects/Instruments/gong.png,0.5,2,0.2,0.15,left,16,2020-12-01_12h46.01.007,premup-three_ses-01_part-01_label-phase1,3.2.4,Win32,60,right,0.490999937,4,0,4,0,1,3,1,0,240,54,1,239,,,,,,,,,,,,,,,,,,
,,1,118,,,,,,,1,3,1,stim/31.jpeg,Instruments,1,stim/objects/Instruments/drums.png,0.5,2,0.2,0.15,left,16,2020-12-01_12h46.01.007,premup-three_ses-01_part-01_label-phase1,3.2.4,Win32,60,left,0.646999836,4,0,4,0,1,3,1,0,240,16,1,239,,,,,,,,,,,,,,,,,,
,,1,119,,,,,,,1,4,3,stim/43.jpeg,Instruments,1,stim/objects/Instruments/gong.png,0.5,2,0.2,0.15,left,16,2020-12-01_12h46.01.007,premup-three_ses-01_part-01_label-phase1,3.2.4,Win32,60,left,0.669999838,4,0,4,0,1,3,1,0,240,58,1,239,,,,,,,,,,,,,,,,,,
,,1,120,,,,,,,3,1,3,stim/13.jpeg,HouseObjects,2,stim/objects/HouseObjects/garbagebin2.png,0.9,3,-0.2,-0.15,right,16,2020-12-01_12h46.01.007,premup-three_ses-01_part-01_label-phase1,3.2.4,Win32,60,right,0.581999779,4,0,4,0,1,3,1,0,240,186,1,239,,,,,,,,,,,,,,,,,,
,,0,121,,,,,,,2,6,4,stim/64.jpeg,HouseObjects,2,stim/objects/HouseObjects/doormat2.png,0.3,1,-0.2,0.15,right,16,2020-12-01_12h46.01.007,premup-three_ses-01_part-01_label-phase1,3.2.4,Win32,60,left,0.545999765,4,0,4,0,1,3,1,0,240,155,1,239,,,,,,,,,,,,,,,,,,
,,1,122,,,,,,,1,3,4,stim/34.jpeg,HouseObjects,2,stim/objects/HouseObjects/doormat.png,0.5,3,-0.2,-0.15,right,16,2020-12-01_12h46.01.007,premup-three_ses-01_part-01_label-phase1,3.2.4,Win32,60,right,0.455999851,4,0,4,0,1,3,1,0,240,39,1,239,,,,,,,,,,,,,,,,,,
,,1,123,,,,,,,1,3,1,stim/31.jpeg,HouseObjects,2,stim/objects/HouseObjects/coffee.png,0.5,4,0.2,-0.15,right,16,2020-12-01_12h46.01.007,premup-three_ses-01_part-01_label-phase1,3.2.4,Win32,60,right,0.510999918,4,0,4,0,1,3,1,0,240,28,1,239,,,,,,,,,,,,,,,,,,
,,1,124,,,,,,,1,4,1,stim/41.jpeg,HouseObjects,2,stim/objects/HouseObjects/dustpan.png,0.5,4,0.2,-0.15,right,16,2020-12-01_12h46.01.007,premup-three_ses-01_part-01_label-phase1,3.2.4,Win32,60,right,0.437999725,4,0,4,0,1,3,1,0,240,76,1,239,,,,,,,,,,,,,,,,,,
,,1,125,,,,,,,2,5,3,stim/53.jpeg,Instruments,1,stim/objects/Instruments/harp.png,0.3,1,-0.2,0.15,left,16,2020-12-01_12h46.01.007,premup-three_ses-01_part-01_label-phase1,3.2.4,Win32,60,left,0.471999884,4,0,4,0,1,3,1,0,240,82,1,239,,,,,,,,,,,,,,,,,,
,,0,126,,,,,,,2,6,1,stim/61.jpeg,HouseObjects,2,stim/objects/HouseObjects/coffee2.png,0.3,2,0.2,0.15,right,16,2020-12-01_12h46.01.007,premup-three_ses-01_part-01_label-phase1,3.2.4,Win32,60,left,0.575999975,4,0,4,0,1,3,1,0,240,152,1,239,,,,,,,,,,,,,,,,,,
,,1,127,,,,,,,3,1,1,stim/11.jpeg,HouseObjects,2,stim/objects/HouseObjects/dustpan2.png,0.9,3,-0.2,-0.15,right,16,2020-12-01_12h46.01.007,premup-three_ses-01_part-01_label-phase1,3.2.4,Win32,60,right,0.639999866,4,0,4,0,1,3,1,0,240,192,1,239,,,,,,,,,,,,,,,,,,
,,1,128,,,,,,,2,5,2,stim/52.jpeg,HouseObjects,2,stim/objects/HouseObjects/hairdryer.png,0.7,3,-0.2,-0.15,right,16,2020-12-01_12h46.01.007,premup-three_ses-01_part-01_label-phase1,3.2.4,Win32,60,right,0.59800005,4,0,4,0,1,3,1,0,240,93,1,239,,,,,,,,,,,,,,,,,,
,,0,129,,,,,,,1,3,3,stim/33.jpeg,HouseObjects,2,stim/objects/HouseObjects/dishsoap.png,0.5,3,-0.2,-0.15,right,16,2020-12-01_12h46.01.007,premup-three_ses-01_part-01_label-phase1,3.2.4,Win32,60,left,0.681999922,4,0,4,0,1,3,1,0,240,22,1,239,,,,,,,,,,,,,,,,,,
,,1,130,,,,,,,3,1,2,stim/12.jpeg,HouseObjects,2,stim/objects/HouseObjects/flyswatter2.png,0.9,2,0.2,0.15,right,16,2020-12-01_12h46.01.007,premup-three_ses-01_part-01_label-phase1,3.2.4,Win32,60,right,0.511999846,4,0,4,0,1,3,1,0,240,197,1,239,,,,,,,,,,,,,,,,,,
,,0,131,,,,,,,2,5,3,stim/53.jpeg,HouseObjects,2,stim/objects/HouseObjects/handbrush.png,0.7,3,-0.2,-0.15,right,16,2020-12-01_12h46.01.007,premup-three_ses-01_part-01_label-phase1,3.2.4,Win32,60,left,0.832999945,4,0,4,0,1,3,1,0,240,94,1,239,,,,,,,,,,,,,,,,,,
,,1,132,,,,,,,3,1,1,stim/11.jpeg,HouseObjects,2,stim/objects/HouseObjects/dustpan2.png,0.9,4,0.2,-0.15,right,16,2020-12-01_12h46.01.007,premup-three_ses-01_part-01_label-phase1,3.2.4,Win32,60,right,0.631999969,4,0,4,0,1,3,1,0,240,180,1,239,,,,,,,,,,,,,,,,,,
,,0,133,,,,,,,1,4,4,stim/44.jpeg,HouseObjects,2,stim/objects/HouseObjects/glass.png,0.5,2,0.2,0.15,right,16,2020-12-01_12h46.01.007,premup-three_ses-01_part-01_label-phase1,3.2.4,Win32,60,left,0.835000038,4,0,4,0,1,3,1,0,240,67,1,239,,,,,,,,,,,,,,,,,,
,,0,134,,,,,,,1,4,3,stim/43.jpeg,Instruments,1,stim/objects/Instruments/gong.png,0.5,1,-0.2,0.15,left,16,2020-12-01_12h46.01.007,premup-three_ses-01_part-01_label-phase1,3.2.4,Win32,60,right,0.471999884,4,0,4,0,1,3,1,0,240,50,1,239,,,,,,,,,,,,,,,,,,
,,0,135,,,,,,,1,3,3,stim/33.jpeg,HouseObjects,2,stim/objects/HouseObjects/dishsoap.png,0.5,3,-0.2,-0.15,right,16,2020-12-01_12h46.01.007,premup-three_ses-01_part-01_label-phase1,3.2.4,Win32,60,left,0.477999926,4,0,4,0,1,3,1,0,240,38,1,239,,,,,,,,,,,,,,,,,,
,,1,136,,,,,,,1,3,3,stim/33.jpeg,HouseObjects,2,stim/objects/HouseObjects/dishsoap.png,0.5,4,0.2,-0.15,right,16,2020-12-01_12h46.01.007,premup-three_ses-01_part-01_label-phase1,3.2.4,Win32,60,right,0.90199995,4,0,4,0,1,3,1,0,240,34,1,239,,,,,,,,,,,,,,,,,,
,,0,137,,,,,,,1,4,3,stim/43.jpeg,HouseObjects,2,stim/objects/HouseObjects/garbagebin.png,0.5,3,-0.2,-0.15,right,16,2020-12-01_12h46.01.007,premup-three_ses-01_part-01_label-phase1,3.2.4,Win32,60,left,0.684999943,4,0,4,0,1,3,1,0,240,74,1,239,,,,,,,,,,,,,,,,,,
,,0,138,,,,,,,2,6,2,stim/62.jpeg,HouseObjects,2,stim/objects/HouseObjects/cushion2.png,0.3,1,-0.2,0.15,right,16,2020-12-01_12h46.01.007,premup-three_ses-01_part-01_label-phase1,3.2.4,Win32,60,left,0.823999882,4,0,4,0,1,3,1,0,240,157,1,239,,,,,,,,,,,,,,,,,,
,,1,139,,,,,,,3,1,1,stim/11.jpeg,HouseObjects,2,stim/objects/HouseObjects/dustpan2.png,0.9,1,-0.2,0.15,right,16,2020-12-01_12h46.01.007,premup-three_ses-01_part-01_label-phase1,3.2.4,Win32,60,right,0.552999973,4,0,4,0,1,3,1,0,240,184,1,239,,,,,,,,,,,,,,,,,,
,,0,140,,,,,,,1,3,2,stim/32.jpeg,Instruments,1,stim/objects/Instruments/electricdrumset.png,0.5,4,0.2,-0.15,left,16,2020-12-01_12h46.01.007,premup-three_ses-01_part-01_label-phase1,3.2.4,Win32,60,right,0.305999994,4,0,4,0,1,3,1,0,240,1,1,239,,,,,,,,,,,,,,,,,,
,,1,141,,,,,,,2,6,4,stim/64.jpeg,Instruments,1,stim/objects/Instruments/flute2.png,0.7,2,0.2,0.15,left,16,2020-12-01_12h46.01.007,premup-three_ses-01_part-01_label-phase1,3.2.4,Win32,60,left,0.687999964,4,0,4,0,1,3,1,0,240,135,1,239,,,,,,,,,,,,,,,,,,
,,1,142,,,,,,,2,6,1,stim/61.jpeg,Instruments,1,stim/objects/Instruments/drums2.png,0.7,4,0.2,-0.15,left,16,2020-12-01_12h46.01.007,premup-three_ses-01_part-01_label-phase1,3.2.4,Win32,60,left,0.519999981,4,0,4,0,1,3,1,0,240,140,1,239,,,,,,,,,,,,,,,,,,
,,1,143,,,,,,,2,5,1,stim/51.jpeg,HouseObjects,2,stim/objects/HouseObjects/glassmop.png,0.7,3,-0.2,-0.15,right,16,2020-12-01_12h46.01.007,premup-three_ses-01_part-01_label-phase1,3.2.4,Win32,60,right,0.529999733,4,0,4,0,1,3,1,0,240,96,1,239,,,,,,,,,,,,,,,,,,
,,0,144,,,,,,,2,6,2,stim/62.jpeg,HouseObjects,2,stim/objects/HouseObjects/cushion2.png,0.3,2,0.2,0.15,right,16,2020-12-01_12h46.01.007,premup-three_ses-01_part-01_label-phase1,3.2.4,Win32,60,left,0.665999889,4,0,4,0,1,3,1,0,240,153,1,239,,,,,,,,,,,,,,,,,,
,,0,145,,,,,,,1,3,3,stim/33.jpeg,Instruments,1,stim/objects/Instruments/electricguitar.png,0.5,4,0.2,-0.15,left,16,2020-12-01_12h46.01.007,premup-three_ses-01_part-01_label-phase1,3.2.4,Win32,60,right,0.606999874,4,0,4,0,1,3,1,0,240,6,1,239,,,,,,,,,,,,,,,,,,
,,0,146,,,,,,,1,4,4,stim/44.jpeg,HouseObjects,2,stim/objects/HouseObjects/glass.png,0.5,4,0.2,-0.15,right,16,2020-12-01_12h46.01.007,premup-three_ses-01_part-01_label-phase1,3.2.4,Win32,60,left,0.522999763,4,0,4,0,1,3,1,0,240,63,1,239,,,,,,,,,,,,,,,,,,
,,1,147,,,,,,,3,1,2,stim/12.jpeg,HouseObjects,2,stim/objects/HouseObjects/flyswatter2.png,0.9,4,0.2,-0.15,right,16,2020-12-01_12h46.01.007,premup-three_ses-01_part-01_label-phase1,3.2.4,Win32,60,right,0.386999846,4,0,4,0,1,3,1,0,240,189,1,239,,,,,,,,,,,,,,,,,,
,,1,148,,,,,,,2,6,4,stim/64.jpeg,HouseObjects,2,stim/objects/HouseObjects/doormat2.png,0.3,4,0.2,-0.15,right,16,2020-12-01_12h46.01.007,premup-three_ses-01_part-01_label-phase1,3.2.4,Win32,60,right,0.4599998,4,0,4,0,1,3,1,0,240,151,1,239,,,,,,,,,,,,,,,,,,
,,1,149,,,,,,,3,2,3,stim/23.jpeg,Instruments,1,stim/objects/Instruments/harp2.png,0.9,3,-0.2,-0.15,left,16,2020-12-01_12h46.01.007,premup-three_ses-01_part-01_label-phase1,3.2.4,Win32,60,left,0.863999844,4,0,4,0,1,3,1,0,240,202,1,239,,,,,,,,,,,,,,,,,,
,,0,150,,,,,,,1,3,4,stim/34.jpeg,Instruments,1,stim/objects/Instruments/flute.png,0.5,3,-0.2,-0.15,left,16,2020-12-01_12h46.01.007,premup-three_ses-01_part-01_label-phase1,3.2.4,Win32,60,right,0.730000019,4,0,4,0,1,3,1,0,240,15,1,239,,,,,,,,,,,,,,,,,,
,,1,151,,,,,,,1,3,4,stim/34.jpeg,Instruments,1,stim/objects/Instruments/flute.png,0.5,2,0.2,0.15,left,16,2020-12-01_12h46.01.007,premup-three_ses-01_part-01_label-phase1,3.2.4,Win32,60,left,0.790999889,4,0,4,0,1,3,1,0,240,3,1,239,,,,,,,,,,,,,,,,,,
,,1,152,,,,,,,3,1,3,stim/13.jpeg,HouseObjects,2,stim/objects/HouseObjects/garbagebin2.png,0.9,2,0.2,0.15,right,16,2020-12-01_12h46.01.007,premup-three_ses-01_part-01_label-phase1,3.2.4,Win32,60,right,0.992999792,4,0,4,0,1,3,1,0,240,178,1,239,,,,,,,,,,,,,,,,,,
,,0,153,,,,,,,3,2,4,stim/24.jpeg,HouseObjects,2,stim/objects/HouseObjects/handvacuum2.png,0.1,3,-0.2,-0.15,right,16,2020-12-01_12h46.01.007,premup-three_ses-01_part-01_label-phase1,3.2.4,Win32,60,left,0.717999935,4,0,4,0,1,3,1,0,240,239,1,239,,,,,,,,,,,,,,,,,,
,,1,154,,,,,,,3,1,3,stim/13.jpeg,HouseObjects,2,stim/objects/HouseObjects/garbagebin2.png,0.9,4,0.2,-0.15,right,16,2020-12-01_12h46.01.007,premup-three_ses-01_part-01_label-phase1,3.2.4,Win32,60,right,1.47699976,4,0,4,0,1,3,1,0,240,174,1,239,,,,,,,,,,,,,,,,,,
,,0,155,,,,,,,1,3,1,stim/31.jpeg,Instruments,1,stim/objects/Instruments/drums.png,0.5,2,0.2,0.15,left,16,2020-12-01_12h46.01.007,premup-three_ses-01_part-01_label-phase1,3.2.4,Win32,60,right,0.42599988,4,0,4,0,1,3,1,0,240,12,1,239,,,,,,,,,,,,,,,,,,
,,0,156,,,,,,,1,3,4,stim/34.jpeg,HouseObjects,2,stim/objects/HouseObjects/doormat.png,0.5,3,-0.2,-0.15,right,16,2020-12-01_12h46.01.007,premup-three_ses-01_part-01_label-phase1,3.2.4,Win32,60,left,0.338999987,4,0,4,0,1,3,1,0,240,35,1,239,,,,,,,,,,,,,,,,,,
,,0,157,,,,,,,2,6,4,stim/64.jpeg,Instruments,1,stim/objects/Instruments/flute2.png,0.7,4,0.2,-0.15,left,16,2020-12-01_12h46.01.007,premup-three_ses-01_part-01_label-phase1,3.2.4,Win32,60,right,0.665999889,4,0,4,0,1,3,1,0,240,143,1,239,,,,,,,,,,,,,,,,,,
,,1,158,,,,,,,3,2,1,stim/21.jpeg,Instruments,1,stim/objects/Instruments/guitarcase2.png,0.9,2,0.2,0.15,left,16,2020-12-01_12h46.01.007,premup-three_ses-01_part-01_label-phase1,3.2.4,Win32,60,left,0.620999813,4,0,4,0,1,3,1,0,240,212,1,239,,,,,,,,,,,,,,,,,,
,,0,159,,,,,,,2,5,3,stim/53.jpeg,HouseObjects,2,stim/objects/HouseObjects/handbrush.png,0.7,2,0.2,0.15,right,16,2020-12-01_12h46.01.007,premup-three_ses-01_part-01_label-phase1,3.2.4,Win32,60,left,0.521000147,4,0,4,0,1,3,1,0,240,110,1,239,,,,,,,,,,,,,,,,,,
,,1,160,,,,,,,2,5,1,stim/51.jpeg,HouseObjects,2,stim/objects/HouseObjects/glassmop.png,0.7,2,0.2,0.15,right,16,2020-12-01_12h46.01.007,premup-three_ses-01_part-01_label-phase1,3.2.4,Win32,60,right,0.773000002,4,0,4,0,1,3,1,0,240,108,1,239,,,,,,,,,,,,,,,,,,
,,1,161,,,,,,,1,4,3,stim/43.jpeg,HouseObjects,2,stim/objects/HouseObjects/garbagebin.png,0.5,1,-0.2,0.15,right,16,2020-12-01_12h46.01.007,premup-three_ses-01_part-01_label-phase1,3.2.4,Win32,60,right,0.789000034,4,0,4,0,1,3,1,0,240,78,1,239,,,,,,,,,,,,,,,,,,
,,0,162,,,,,,,1,4,1,stim/41.jpeg,Instruments,1,stim/objects/Instruments/flutetrans.png,0.5,4,0.2,-0.15,left,16,2020-12-01_12h46.01.007,premup-three_ses-01_part-01_label-phase1,3.2.4,Win32,60,right,0.617000103,4,0,4,0,1,3,1,0,240,48,1,239,,,,,,,,,,,,,,,,,,
,,0,163,,,,,,,2,5,4,stim/54.jpeg,HouseObjects,2,stim/objects/HouseObjects/handvacuum.png,0.7,3,-0.2,-0.15,right,16,2020-12-01_12h46.01.007,premup-three_ses-01_part-01_label-phase1,3.2.4,Win32,60,left,0.455000162,4,0,4,0,1,3,1,0,240,95,1,239,,,,,,,,,,,,,,,,,,
,,0,164,,,,,,,1,4,4,stim/44.jpeg,Instruments,1,stim/objects/Instruments/grandpiano.png,0.5,2,0.2,0.15,left,16,2020-12-01_12h46.01.007,premup-three_ses-01_part-01_label-phase1,3.2.4,Win32,60,right,0.520999908,4,0,4,0,1,3,1,0,240,47,1,239,,,,,,,,,,,,,,,,,,
,,1,165,,,,,,,1,4,2,stim/42.jpeg,HouseObjects,2,stim/objects/HouseObjects/flyswatter.png,0.5,3,-0.2,-0.15,right,16,2020-12-01_12h46.01.007,premup-three_ses-01_part-01_label-phase1,3.2.4,Win32,60,right,0.705999851,4,0,4,0,1,3,1,0,240,69,1,239,,,,,,,,,,,,,,,,,,
,,0,166,,,,,,,2,5,2,stim/52.jpeg,HouseObjects,2,stim/objects/HouseObjects/hairdryer.png,0.7,3,-0.2,-0.15,right,16,2020-12-01_12h46.01.007,premup-three_ses-01_part-01_label-phase1,3.2.4,Win32,60,left,0.811999798,4,0,4,0,1,3,1,0,240,117,1,239,,,,,,,,,,,,,,,,,,
,,0,167,,,,,,,1,4,4,stim/44.jpeg,Instruments,1,stim/objects/Instruments/grandpiano.png,0.5,3,-0.2,-0.15,left,16,2020-12-01_12h46.01.007,premup-three_ses-01_part-01_label-phase1,3.2.4,Win32,60,right,0.507999897,4,0,4,0,1,3,1,0,240,51,1,239,,,,,,,,,,,,,,,,,,
,,1,168,,,,,,,1,4,2,stim/42.jpeg,Instruments,1,stim/objects/Instruments/frenchhorn.png,0.5,2,0.2,0.15,left,16,2020-12-01_12h46.01.007,premup-three_ses-01_part-01_label-phase1,3.2.4,Win32,60,left,0.789999723,4,0,4,0,1,3,1,0,240,41,1,239,,,,,,,,,,,,,,,,,,
,,1,169,,,,,,,2,6,4,stim/64.jpeg,Instruments,1,stim/objects/Instruments/flute2.png,0.7,2,0.2,0.15,left,16,2020-12-01_12h46.01.007,premup-three_ses-01_part-01_label-phase1,3.2.4,Win32,60,left,0.787999868,4,0,4,0,1,3,1,0,240,131,1,239,,,,,,,,,,,,,,,,,,
,,0,170,,,,,,,2,5,2,stim/52.jpeg,HouseObjects,2,stim/objects/HouseObjects/hairdryer.png,0.7,2,0.2,0.15,right,16,2020-12-01_12h46.01.007,premup-three_ses-01_part-01_label-phase1,3.2.4,Win32,60,left,1.184000015,4,0,4,0,1,3,1,0,240,105,1,239,,,,,,,,,,,,,,,,,,
,,1,171,,,,,,,2,6,1,stim/61.jpeg,Instruments,1,stim/objects/Instruments/drums2.png,0.7,2,0.2,0.15,left,16,2020-12-01_12h46.01.007,premup-three_ses-01_part-01_label-phase1,3.2.4,Win32,60,left,0.656999826,4,0,4,0,1,3,1,0,240,124,1,239,,,,,,,,,,,,,,,,,,
,,1,172,,,,,,,1,4,3,stim/43.jpeg,HouseObjects,2,stim/objects/HouseObjects/garbagebin.png,0.5,3,-0.2,-0.15,right,16,2020-12-01_12h46.01.007,premup-three_ses-01_part-01_label-phase1,3.2.4,Win32,60,right,0.690999985,4,0,4,0,1,3,1,0,240,66,1,239,,,,,,,,,,,,,,,,,,
,,1,173,,,,,,,1,3,1,stim/31.jpeg,Instruments,1,stim/objects/Instruments/drums.png,0.5,1,-0.2,0.15,left,16,2020-12-01_12h46.01.007,premup-three_ses-01_part-01_label-phase1,3.2.4,Win32,60,left,0.696999788,4,0,4,0,1,3,1,0,240,8,1,239,,,,,,,,,,,,,,,,,,
,,1,174,,,,,,,3,1,3,stim/13.jpeg,HouseObjects,2,stim/objects/HouseObjects/garbagebin2.png,0.9,2,0.2,0.15,right,16,2020-12-01_12h46.01.007,premup-three_ses-01_part-01_label-phase1,3.2.4,Win32,60,right,0.835999727,4,0,4,0,1,3,1,0,240,190,1,239,,,,,,,,,,,,,,,,,,
,,0,175,,,,,,,1,4,4,stim/44.jpeg,HouseObjects,2,stim/objects/HouseObjects/glass.png,0.5,1,-0.2,0.15,right,16,2020-12-01_12h46.01.007,premup-three_ses-01_part-01_label-phase1,3.2.4,Win32,60,left,1.769999743,4,0,4,0,1,3,1,0,240,79,1,239,,,,,,,,,,,,,,,,,,
,,1,176,,,,,,,2,6,3,stim/63.jpeg,Instruments,1,stim/objects/Instruments/electricguitar2.png,0.7,2,0.2,0.15,left,16,2020-12-01_12h46.01.007,premup-three_ses-01_part-01_label-phase1,3.2.4,Win32,60,left,0.781999826,4,0,4,0,1,3,1,0,240,134,1,239,,,,,,,,,,,,,,,,,,
,,1,177,,,,,,,3,1,4,stim/14.jpeg,HouseObjects,2,stim/objects/HouseObjects/glass2.png,0.9,4,0.2,-0.15,right,16,2020-12-01_12h46.01.007,premup-three_ses-01_part-01_label-phase1,3.2.4,Win32,60,right,0.645999908,4,0,4,0,1,3,1,0,240,187,1,239,,,,,,,,,,,,,,,,,,
,,1,178,,,,,,,3,1,1,stim/11.jpeg,HouseObjects,2,stim/objects/HouseObjects/dustpan2.png,0.9,4,0.2,-0.15,right,16,2020-12-01_12h46.01.007,premup-three_ses-01_part-01_label-phase1,3.2.4,Win32,60,right,0.476000071,4,0,4,0,1,3,1,0,240,188,1,239,,,,,,,,,,,,,,,,,,
,,1,179,,,,,,,1,4,4,stim/44.jpeg,HouseObjects,2,stim/objects/HouseObjects/glass.png,0.5,3,-0.2,-0.15,right,16,2020-12-01_12h46.01.007,premup-three_ses-01_part-01_label-phase1,3.2.4,Win32,60,right,0.674000025,4,0,4,0,1,3,1,0,240,75,1,239,,,,,,,,,,,,,,,,,,
,,1,180,,,,,,,2,6,3,stim/63.jpeg,HouseObjects,2,stim/objects/HouseObjects/dishsoap2.png,0.3,4,0.2,-0.15,right,16,2020-12-01_12h46.01.007,premup-three_ses-01_part-01_label-phase1,3.2.4,Win32,60,right,0.476000071,4,0,4,0,1,3,1,0,240,158,1,239,,,,,,,,,,,,,,,,,,
,,1,181,,,,,,,2,6,2,stim/62.jpeg,Instruments,1,stim/objects/Instruments/electricdrumset2.png,0.7,4,0.2,-0.15,left,16,2020-12-01_12h46.01.007,premup-three_ses-01_part-01_label-phase1,3.2.4,Win32,60,left,0.65199995,4,0,4,0,1,3,1,0,240,145,1,239,,,,,,,,,,,,,,,,,,
,,1,182,,,,,,,3,1,4,stim/14.jpeg,HouseObjects,2,stim/objects/HouseObjects/glass2.png,0.9,1,-0.2,0.15,right,16,2020-12-01_12h46.01.007,premup-three_ses-01_part-01_label-phase1,3.2.4,Win32,60,right,0.280999899,4,0,4,0,1,3,1,0,240,183,1,239,,,,,,,,,,,,,,,,,,
,,0,183,,,,,,,2,5,2,stim/52.jpeg,HouseObjects,2,stim/objects/HouseObjects/hairdryer.png,0.7,4,0.2,-0.15,right,16,2020-12-01_12h46.01.007,premup-three_ses-01_part-01_label-phase1,3.2.4,Win32,60,left,0.495000124,4,0,4,0,1,3,1,0,240,109,1,239,,,,,,,,,,,,,,,,,,
,,1,184,,,,,,,2,5,1,stim/51.jpeg,HouseObjects,2,stim/objects/HouseObjects/glassmop.png,0.7,1,-0.2,0.15,right,16,2020-12-01_12h46.01.007,premup-three_ses-01_part-01_label-phase1,3.2.4,Win32,60,right,0.619999886,4,0,4,0,1,3,1,0,240,104,1,239,,,,,,,,,,,,,,,,,,
,,1,185,,,,,,,2,5,3,stim/53.jpeg,HouseObjects,2,stim/objects/HouseObjects/handbrush.png,0.7,2,0.2,0.15,right,16,2020-12-01_12h46.01.007,premup-three_ses-01_part-01_label-phase1,3.2.4,Win32,60,right,0.461999893,4,0,4,0,1,3,1,0,240,98,1,239,,,,,,,,,,,,,,,,,,
,,1,186,,,,,,,1,3,3,stim/33.jpeg,Instruments,1,stim/objects/Instruments/electricguitar.png,0.5,1,-0.2,0.15,left,16,2020-12-01_12h46.01.007,premup-three_ses-01_part-01_label-phase1,3.2.4,Win32,60,left,0.306999922,4,0,4,0,1,3,1,0,240,10,1,239,,,,,,,,,,,,,,,,,,
,,1,187,,,,,,,3,2,3,stim/23.jpeg,Instruments,1,stim/objects/Instruments/harp2.png,0.9,1,-0.2,0.15,left,16,2020-12-01_12h46.01.007,premup-three_ses-01_part-01_label-phase1,3.2.4,Win32,60,left,0.900999784,4,0,4,0,1,3,1,0,240,214,1,239,,,,,,,,,,,,,,,,,,
,,1,188,,,,,,,1,4,2,stim/42.jpeg,Instruments,1,stim/objects/Instruments/frenchhorn.png,0.5,3,-0.2,-0.15,left,16,2020-12-01_12h46.01.007,premup-three_ses-01_part-01_label-phase1,3.2.4,Win32,60,left,0.628000021,4,0,4,0,1,3,1,0,240,53,1,239,,,,,,,,,,,,,,,,,,
,,0,189,,,,,,,1,3,3,stim/33.jpeg,Instruments,1,stim/objects/Instruments/electricguitar.png,0.5,3,-0.2,-0.15,left,16,2020-12-01_12h46.01.007,premup-three_ses-01_part-01_label-phase1,3.2.4,Win32,60,right,0.427000046,4,0,4,0,1,3,1,0,240,2,1,239,,,,,,,,,,,,,,,,,,
,,0,190,,,,,,,2,6,1,stim/61.jpeg,HouseObjects,2,stim/objects/HouseObjects/coffee2.png,0.3,3,-0.2,-0.15,right,16,2020-12-01_12h46.01.007,premup-three_ses-01_part-01_label-phase1,3.2.4,Win32,60,left,0.437000036,4,0,4,0,1,3,1,0,240,148,1,239,,,,,,,,,,,,,,,,,,
,,0,191,,,,,,,3,2,2,stim/22.jpeg,Instruments,1,stim/objects/Instruments/harmonica2.png,0.9,3,-0.2,-0.15,left,16,2020-12-01_12h46.01.007,premup-three_ses-01_part-01_label-phase1,3.2.4,Win32,60,right,0.354000092,4,0,4,0,1,3,1,0,240,229,1,239,,,,,,,,,,,,,,,,,,
,,0,192,,,,,,,2,5,4,stim/54.jpeg,HouseObjects,2,stim/objects/HouseObjects/handvacuum.png,0.7,1,-0.2,0.15,right,16,2020-12-01_12h46.01.007,premup-three_ses-01_part-01_label-phase1,3.2.4,Win32,60,left,0.838999987,4,0,4,0,1,3,1,0,240,99,1,239,,,,,,,,,,,,,,,,,,
,,0,193,,,,,,,1,4,4,stim/44.jpeg,Instruments,1,stim/objects/Instruments/grandpiano.png,0.5,3,-0.2,-0.15,left,16,2020-12-01_12h46.01.007,premup-three_ses-01_part-01_label-phase1,3.2.4,Win32,60,right,0.584000111,4,0,4,0,1,3,1,0,240,43,1,239,,,,,,,,,,,,,,,,,,
,,1,194,,,,,,,3,1,3,stim/13.jpeg,HouseObjects,2,stim/objects/HouseObjects/garbagebin2.png,0.9,3,-0.2,-0.15,right,16,2020-12-01_12h46.01.007,premup-three_ses-01_part-01_label-phase1,3.2.4,Win32,60,right,0.674999714,4,0,4,0,1,3,1,0,240,198,1,239,,,,,,,,,,,,,,,,,,
,,0,195,,,,,,,3,2,1,stim/21.jpeg,Instruments,1,stim/objects/Instruments/guitarcase2.png,0.9,1,-0.2,0.15,left,16,2020-12-01_12h46.01.007,premup-three_ses-01_part-01_label-phase1,3.2.4,Win32,60,right,0.343999863,4,0,4,0,1,3,1,0,240,216,1,239,,,,,,,,,,,,,,,,,,
,,0,196,,,,,,,1,3,2,stim/32.jpeg,HouseObjects,2,stim/objects/HouseObjects/cushion.png,0.5,1,-0.2,0.15,right,16,2020-12-01_12h46.01.007,premup-three_ses-01_part-01_label-phase1,3.2.4,Win32,60,left,1.089999914,4,0,4,0,1,3,1,0,240,33,1,239,,,,,,,,,,,,,,,,,,
,,1,197,,,,,,,1,3,2,stim/32.jpeg,Instruments,1,stim/objects/Instruments/electricdrumset.png,0.5,3,-0.2,-0.15,left,16,2020-12-01_12h46.01.007,premup-three_ses-01_part-01_label-phase1,3.2.4,Win32,60,left,0.506999969,4,0,4,0,1,3,1,0,240,5,1,239,,,,,,,,,,,,,,,,,,
,,0,198,,,,,,,1,3,2,stim/32.jpeg,HouseObjects,2,stim/objects/HouseObjects/cushion.png,0.5,1,-0.2,0.15,right,16,2020-12-01_12h46.01.007,premup-three_ses-01_part-01_label-phase1,3.2.4,Win32,60,left,0.491999865,4,0,4,0,1,3,1,0,240,21,1,239,,,,,,,,,,,,,,,,,,
,,1,199,,,,,,,2,6,2,stim/62.jpeg,Instruments,1,stim/objects/Instruments/electricdrumset2.png,0.7,4,0.2,-0.15,left,16,2020-12-01_12h46.01.007,premup-three_ses-01_part-01_label-phase1,3.2.4,Win32,60,left,0.401000023,4,0,4,0,1,3,1,0,240,133,1,239,,,,,,,,,,,,,,,,,,
,,1,200,,,,,,,2,6,1,stim/61.jpeg,Instruments,1,stim/objects/Instruments/drums2.png,0.7,3,-0.2,-0.15,left,16,2020-12-01_12h46.01.007,premup-three_ses-01_part-01_label-phase1,3.2.4,Win32,60,left,0.509000063,4,0,4,0,1,3,1,0,240,132,1,239,,,,,,,,,,,,,,,,,,
,,1,201,,,,,,,1,3,1,stim/31.jpeg,HouseObjects,2,stim/objects/HouseObjects/coffee.png,0.5,3,-0.2,-0.15,right,16,2020-12-01_12h46.01.007,premup-three_ses-01_part-01_label-phase1,3.2.4,Win32,60,right,0.644999743,4,0,4,0,1,3,1,0,240,36,1,239,,,,,,,,,,,,,,,,,,
,,1,202,,,,,,,1,3,2,stim/32.jpeg,HouseObjects,2,stim/objects/HouseObjects/cushion.png,0.5,4,0.2,-0.15,right,16,2020-12-01_12h46.01.007,premup-three_ses-01_part-01_label-phase1,3.2.4,Win32,60,right,0.540999889,4,0,4,0,1,3,1,0,240,37,1,239,,,,,,,,,,,,,,,,,,
,,1,203,,,,,,,1,4,3,stim/43.jpeg,Instruments,1,stim/objects/Instruments/gong.png,0.5,4,0.2,-0.15,left,16,2020-12-01_12h46.01.007,premup-three_ses-01_part-01_label-phase1,3.2.4,Win32,60,left,0.732999802,4,0,4,0,1,3,1,0,240,46,1,239,,,,,,,,,,,,,,,,,,
,,1,204,,,,,,,2,5,4,stim/54.jpeg,HouseObjects,2,stim/objects/HouseObjects/handvacuum.png,0.7,2,0.2,0.15,right,16,2020-12-01_12h46.01.007,premup-three_ses-01_part-01_label-phase1,3.2.4,Win32,60,right,1.049999952,4,0,4,0,1,3,1,0,240,107,1,239,,,,,,,,,,,,,,,,,,
,,0,205,,,,,,,1,3,2,stim/32.jpeg,HouseObjects,2,stim/objects/HouseObjects/cushion.png,0.5,3,-0.2,-0.15,right,16,2020-12-01_12h46.01.007,premup-three_ses-01_part-01_label-phase1,3.2.4,Win32,60,left,0.737999916,4,0,4,0,1,3,1,0,240,25,1,239,,,,,,,,,,,,,,,,,,
,,1,206,,,,,,,2,6,2,stim/62.jpeg,Instruments,1,stim/objects/Instruments/electricdrumset2.png,0.7,3,-0.2,-0.15,left,16,2020-12-01_12h46.01.007,premup-three_ses-01_part-01_label-phase1,3.2.4,Win32,60,left,1.144999981,4,0,4,0,1,3,1,0,240,129,1,239,,,,,,,,,,,,,,,,,,
,,1,207,,,,,,,2,6,4,stim/64.jpeg,Instruments,1,stim/objects/Instruments/flute2.png,0.7,1,-0.2,0.15,left,16,2020-12-01_12h46.01.007,premup-three_ses-01_part-01_label-phase1,3.2.4,Win32,60,left,0.893000126,4,0,4,0,1,3,1,0,240,139,1,239,,,,,,,,,,,,,,,,,,
,,1,208,,,,,,,2,5,3,stim/53.jpeg,HouseObjects,2,stim/objects/HouseObjects/handbrush.png,0.7,3,-0.2,-0.15,right,16,2020-12-01_12h46.01.007,premup-three_ses-01_part-01_label-phase1,3.2.4,Win32,60,right,0.799999952,4,0,4,0,1,3,1,0,240,106,1,239,,,,,,,,,,,,,,,,,,
,,1,209,,,,,,,3,1,3,stim/13.jpeg,HouseObjects,2,stim/objects/HouseObjects/garbagebin2.png,0.9,1,-0.2,0.15,right,16,2020-12-01_12h46.01.007,premup-three_ses-01_part-01_label-phase1,3.2.4,Win32,60,right,0.755000114,4,0,4,0,1,3,1,0,240,194,1,239,,,,,,,,,,,,,,,,,,
,,0,210,,,,,,,1,4,3,stim/43.jpeg,Instruments,1,stim/objects/Instruments/gong.png,0.5,4,0.2,-0.15,left,16,2020-12-01_12h46.01.007,premup-three_ses-01_part-01_label-phase1,3.2.4,Win32,60,right,0.534999847,4,0,4,0,1,3,1,0,240,42,1,239,,,,,,,,,,,,,,,,,,
,,0,211,,,,,,,1,3,1,stim/31.jpeg,Instruments,1,stim/objects/Instruments/drums.png,0.5,2,0.2,0.15,left,16,2020-12-01_12h46.01.007,premup-three_ses-01_part-01_label-phase1,3.2.4,Win32,60,right,0.414999962,4,0,4,0,1,3,1,0,240,0,1,239,,,,,,,,,,,,,,,,,,
,,1,212,,,,,,,3,2,2,stim/22.jpeg,Instruments,1,stim/objects/Instruments/harmonica2.png,0.9,2,0.2,0.15,left,16,2020-12-01_12h46.01.007,premup-three_ses-01_part-01_label-phase1,3.2.4,Win32,60,left,0.471999884,4,0,4,0,1,3,1,0,240,221,1,239,,,,,,,,,,,,,,,,,,
,,0,213,,,,,,,3,1,2,stim/12.jpeg,Instruments,1,stim/objects/Instruments/frenchhorn2.png,0.1,3,-0.2,-0.15,left,16,2020-12-01_12h46.01.007,premup-three_ses-01_part-01_label-phase1,3.2.4,Win32,60,right,0.826999903,4,0,4,0,1,3,1,0,240,161,1,239,,,,,,,,,,,,,,,,,,
,,1,214,,,,,,,2,6,4,stim/64.jpeg,Instruments,1,stim/objects/Instruments/flute2.png,0.7,4,0.2,-0.15,left,16,2020-12-01_12h46.01.007,premup-three_ses-01_part-01_label-phase1,3.2.4,Win32,60,left,0.776000023,4,0,4,0,1,3,1,0,240,147,1,239,,,,,,,,,,,,,,,,,,
,,1,215,,,,,,,3,1,1,stim/11.jpeg,HouseObjects,2,stim/objects/HouseObjects/dustpan2.png,0.9,4,0.2,-0.15,right,16,2020-12-01_12h46.01.007,premup-three_ses-01_part-01_label-phase1,3.2.4,Win32,60,right,0.494999886,4,0,4,0,1,3,1,0,240,176,1,239,,,,,,,,,,,,,,,,,,
,,0,216,,,,,,,3,2,2,stim/22.jpeg,Instruments,1,stim/objects/Instruments/harmonica2.png,0.9,3,-0.2,-0.15,left,16,2020-12-01_12h46.01.007,premup-three_ses-01_part-01_label-phase1,3.2.4,Win32,60,right,0.523000002,4,0,4,0,1,3,1,0,240,213,1,239,,,,,,,,,,,,,,,,,,
,,0,217,,,,,,,3,2,2,stim/22.jpeg,Instruments,1,stim/objects/Instruments/harmonica2.png,0.9,4,0.2,-0.15,left,16,2020-12-01_12h46.01.007,premup-three_ses-01_part-01_label-phase1,3.2.4,Win32,60,right,0.686000109,4,0,4,0,1,3,1,0,240,233,1,239,,,,,,,,,,,,,,,,,,
,,0,218,,,,,,,2,5,1,stim/51.jpeg,HouseObjects,2,stim/objects/HouseObjects/glassmop.png,0.7,4,0.2,-0.15,right,16,2020-12-01_12h46.01.007,premup-three_ses-01_part-01_label-phase1,3.2.4,Win32,60,left,0.824999809,4,0,4,0,1,3,1,0,240,92,1,239,,,,,,,,,,,,,,,,,,
,,1,219,,,,,,,2,5,4,stim/54.jpeg,HouseObjects,2,stim/objects/HouseObjects/handvacuum.png,0.7,1,-0.2,0.15,right,16,2020-12-01_12h46.01.007,premup-three_ses-01_part-01_label-phase1,3.2.4,Win32,60,right,0.693000078,4,0,4,0,1,3,1,0,240,111,1,239,,,,,,,,,,,,,,,,,,
,,1,220,,,,,,,3,1,3,stim/13.jpeg,HouseObjects,2,stim/objects/HouseObjects/garbagebin2.png,0.9,1,-0.2,0.15,right,16,2020-12-01_12h46.01.007,premup-three_ses-01_part-01_label-phase1,3.2.4,Win32,60,right,0.46600008,4,0,4,0,1,3,1,0,240,166,1,239,,,,,,,,,,,,,,,,,,
,,1,221,,,,,,,2,5,4,stim/54.jpeg,HouseObjects,2,stim/objects/HouseObjects/handvacuum.png,0.7,4,0.2,-0.15,right,16,2020-12-01_12h46.01.007,premup-three_ses-01_part-01_label-phase1,3.2.4,Win32,60,right,0.524999857,4,0,4,0,1,3,1,0,240,115,1,239,,,,,,,,,,,,,,,,,,
,,1,222,,,,,,,3,1,1,stim/11.jpeg,HouseObjects,2,stim/objects/HouseObjects/dustpan2.png,0.9,2,0.2,0.15,right,16,2020-12-01_12h46.01.007,premup-three_ses-01_part-01_label-phase1,3.2.4,Win32,60,right,0.856999874,4,0,4,0,1,3,1,0,240,172,1,239,,,,,,,,,,,,,,,,,,
,,1,223,,,,,,,2,6,1,stim/61.jpeg,Instruments,1,stim/objects/Instruments/drums2.png,0.7,1,-0.2,0.15,left,16,2020-12-01_12h46.01.007,premup-three_ses-01_part-01_label-phase1,3.2.4,Win32,60,left,0.781999826,4,0,4,0,1,3,1,0,240,120,1,239,,,,,,,,,,,,,,,,,,
,,1,224,,,,,,,3,1,2,stim/12.jpeg,HouseObjects,2,stim/objects/HouseObjects/flyswatter2.png,0.9,2,0.2,0.15,right,16,2020-12-01_12h46.01.007,premup-three_ses-01_part-01_label-phase1,3.2.4,Win32,60,right,0.809999943,4,0,4,0,1,3,1,0,240,185,1,239,,,,,,,,,,,,,,,,,,
,,1,225,,,,,,,3,2,1,stim/21.jpeg,Instruments,1,stim/objects/Instruments/guitarcase2.png,0.9,1,-0.2,0.15,left,16,2020-12-01_12h46.01.007,premup-three_ses-01_part-01_label-phase1,3.2.4,Win32,60,left,0.809000015,4,0,4,0,1,3,1,0,240,220,1,239,,,,,,,,,,,,,,,,,,
,,1,226,,,,,,,2,5,2,stim/52.jpeg,HouseObjects,2,stim/objects/HouseObjects/hairdryer.png,0.7,2,0.2,0.15,right,16,2020-12-01_12h46.01.007,premup-three_ses-01_part-01_label-phase1,3.2.4,Win32,60,right,0.805999994,4,0,4,0,1,3,1,0,240,101,1,239,,,,,,,,,,,,,,,,,,
,,0,227,,,,,,,1,3,1,stim/31.jpeg,HouseObjects,2,stim/objects/HouseObjects/coffee.png,0.5,1,-0.2,0.15,right,16,2020-12-01_12h46.01.007,premup-three_ses-01_part-01_label-phase1,3.2.4,Win32,60,left,0.927999973,4,0,4,0,1,3,1,0,240,32,1,239,,,,,,,,,,,,,,,,,,
,,0,228,,,,,,,3,2,3,stim/23.jpeg,HouseObjects,2,stim/objects/HouseObjects/handbrush2.png,0.1,4,0.2,-0.15,right,16,2020-12-01_12h46.01.007,premup-three_ses-01_part-01_label-phase1,3.2.4,Win32,60,,,4,0,4,0,1,3,1,0,240,238,1,239,,,,,,,,,,,,,,,,,,
,,1,229,,,,,,,2,6,2,stim/62.jpeg,HouseObjects,2,stim/objects/HouseObjects/cushion2.png,0.3,4,0.2,-0.15,right,16,2020-12-01_12h46.01.007,premup-three_ses-01_part-01_label-phase1,3.2.4,Win32,60,right,0.430000067,4,0,4,0,1,3,1,0,240,149,1,239,,,,,,,,,,,,,,,,,,
,,0,230,,,,,,,1,3,1,stim/31.jpeg,Instruments,1,stim/objects/Instruments/drums.png,0.5,1,-0.2,0.15,left,16,2020-12-01_12h46.01.007,premup-three_ses-01_part-01_label-phase1,3.2.4,Win32,60,right,0.421000004,4,0,4,0,1,3,1,0,240,4,1,239,,,,,,,,,,,,,,,,,,
,,1,231,,,,,,,3,2,1,stim/21.jpeg,Instruments,1,stim/objects/Instruments/guitarcase2.png,0.9,2,0.2,0.15,left,16,2020-12-01_12h46.01.007,premup-three_ses-01_part-01_label-phase1,3.2.4,Win32,60,left,0.539999962,4,0,4,0,1,3,1,0,240,228,1,239,,,,,,,,,,,,,,,,,,
,,1,232,,,,,,,3,1,2,stim/12.jpeg,HouseObjects,2,stim/objects/HouseObjects/flyswatter2.png,0.9,4,0.2,-0.15,right,16,2020-12-01_12h46.01.007,premup-three_ses-01_part-01_label-phase1,3.2.4,Win32,60,right,0.500999928,4,0,4,0,1,3,1,0,240,181,1,239,,,,,,,,,,,,,,,,,,
,,0,233,,,,,,,1,4,1,stim/41.jpeg,Instruments,1,stim/objects/Instruments/flutetrans.png,0.5,2,0.2,0.15,left,16,2020-12-01_12h46.01.007,premup-three_ses-01_part-01_label-phase1,3.2.4,Win32,60,right,0.443999767,4,0,4,0,1,3,1,0,240,40,1,239,,,,,,,,,,,,,,,,,,
,,0,234,,,,,,,1,4,1,stim/41.jpeg,HouseObjects,2,stim/objects/HouseObjects/dustpan.png,0.5,1,-0.2,0.15,right,16,2020-12-01_12h46.01.007,premup-three_ses-01_part-01_label-phase1,3.2.4,Win32,60,left,0.527999878,4,0,4,0,1,3,1,0,240,72,1,239,,,,,,,,,,,,,,,,,,
,,1,235,,,,,,,1,4,2,stim/42.jpeg,HouseObjects,2,stim/objects/HouseObjects/flyswatter.png,0.5,2,0.2,0.15,right,16,2020-12-01_12h46.01.007,premup-three_ses-01_part-01_label-phase1,3.2.4,Win32,60,right,0.391000032,4,0,4,0,1,3,1,0,240,61,1,239,,,,,,,,,,,,,,,,,,
,,1,236,,,,,,,2,5,4,stim/54.jpeg,HouseObjects,2,stim/objects/HouseObjects/handvacuum.png,0.7,4,0.2,-0.15,right,16,2020-12-01_12h46.01.007,premup-three_ses-01_part-01_label-phase1,3.2.4,Win32,60,right,0.991999865,4,0,4,0,1,3,1,0,240,119,1,239,,,,,,,,,,,,,,,,,,
,,0,237,,,,,,,1,4,2,stim/42.jpeg,Instruments,1,stim/objects/Instruments/frenchhorn.png,0.5,4,0.2,-0.15,left,16,2020-12-01_12h46.01.007,premup-three_ses-01_part-01_label-phase1,3.2.4,Win32,60,right,0.700000048,4,0,4,0,1,3,1,0,240,57,1,239,,,,,,,,,,,,,,,,,,
,,1,238,,,,,,,3,2,4,stim/24.jpeg,Instruments,1,stim/objects/Instruments/hihat2.png,0.9,4,0.2,-0.15,left,16,2020-12-01_12h46.01.007,premup-three_ses-01_part-01_label-phase1,3.2.4,Win32,60,left,1.77699995,4,0,4,0,1,3,1,0,240,207,1,239,,,,,,,,,,,,,,,,,,
,,0,239,,,,,,,2,5,3,stim/53.jpeg,HouseObjects,2,stim/objects/HouseObjects/handbrush.png,0.7,1,-0.2,0.15,right,16,2020-12-01_12h46.01.007,premup-three_ses-01_part-01_label-phase1,3.2.4,Win32,60,left,1.269999743,4,0,4,0,1,3,1,0,240,102,1,239,,,,,,,,,,,,,,,,,,
,,0,240,,,,,,,3,2,4,stim/24.jpeg,Instruments,1,stim/objects/Instruments/hihat2.png,0.9,1,-0.2,0.15,left,16,2020-12-01_12h46.01.007,premup-three_ses-01_part-01_label-phase1,3.2.4,Win32,60,right,0.592000008,4,0,4,0,1,3,1,0,240,219,1,239,,,,,,,,,,,,,,,,,,
,,,,,,,,,,,3,,stim/31.jpeg,,,,,,,,,16,2020-12-01_12h46.01.007,premup-three_ses-01_part-01_label-phase1,3.2.4,Win32,60,,,4,0,4,0,1,3,,,,,,,1,0,60,20.29299998,,,1,0,6,2,1,5,Music items,65,75,Household items,25,35
,,,,,,,,,,,1,,stim/11.jpeg,,,,,,,,,16,2020-12-01_12h46.01.007,premup-three_ses-01_part-01_label-phase1,3.2.4,Win32,60,,,4,0,4,0,1,3,,,,,,,1,0,30,11.81299996,,,1,0,6,0,1,5,Music items,45,55,Household items,45,55
,,,,,,,,,,,2,,stim/21.jpeg,,,,,,,,,16,2020-12-01_12h46.01.007,premup-three_ses-01_part-01_label-phase1,3.2.4,Win32,60,,,4,0,4,0,1,3,,,,,,,1,0,70,4.452000141,,,1,0,6,1,1,5,Household items,45,55,Music items,45,55
,,,,,,,,,,,6,,stim/61.jpeg,,,,,,,,,16,2020-12-01_12h46.01.007,premup-three_ses-01_part-01_label-phase1,3.2.4,Win32,60,,,4,0,4,0,1,3,,,,,,,1,0,54,7.796999931,,,1,0,6,5,1,5,Music items,5,15,Household items,85,95
,,,,,,,,,,,4,,stim/41.jpeg,,,,,,,,,16,2020-12-01_12h46.01.007,premup-three_ses-01_part-01_label-phase1,3.2.4,Win32,60,,,4,0,4,0,1,3,,,,,,,1,0,64,6.578000069,,,1,0,6,3,1,5,Music items,65,75,Household items,25,35
,,,,,,,,,,,5,,stim/51.jpeg,,,,,,,,,16,2020-12-01_12h46.01.007,premup-three_ses-01_part-01_label-phase1,3.2.4,Win32,60,,,4,0,4,0,1,3,,,,,,,1,1,12,4.748000145,,,1,0,6,4,1,5,Household items,5,15,Music items,85,95
,,,,,,,,,,,,,,,,,,,,,,16,2020-12-01_12h46.01.007,premup-three_ses-01_part-01_label-phase1,3.2.4,Win32,60,,,4,0,4,0,1,3,,,,,,,,,,,,,,,,,,,,,,,,
,,0,1,,,,,,,2,6,3,stim/63.jpeg,Instruments,1,stim/objects/Instruments/electricguitar2.png,0.7,2,0.2,0.15,left,16,2020-12-01_12h46.01.007,premup-three_ses-01_part-01_label-phase1,3.2.4,Win32,60,right,1.377999783,4,0,4,0,1,3,1,0,240,130,1,239,,,,,,,,,,,,,,,,,,
,,0,2,,,,,,,3,2,3,stim/23.jpeg,Instruments,1,stim/objects/Instruments/harp2.png,0.9,2,0.2,0.15,left,16,2020-12-01_12h46.01.007,premup-three_ses-01_part-01_label-phase1,3.2.4,Win32,60,right,1.409999847,4,0,4,0,1,3,1,0,240,218,1,239,,,,,,,,,,,,,,,,,,
,,1,3,,,,,,,3,2,3,stim/23.jpeg,Instruments,1,stim/objects/Instruments/harp2.png,0.9,1,-0.2,0.15,left,16,2020-12-01_12h46.01.007,premup-three_ses-01_part-01_label-phase1,3.2.4,Win32,60,left,0.84800005,4,0,4,0,1,3,1,0,240,226,1,239,,,,,,,,,,,,,,,,,,
,,1,4,,,,,,,1,4,3,stim/43.jpeg,Instruments,1,stim/objects/Instruments/gong.png,0.5,2,0.2,0.15,left,16,2020-12-01_12h46.01.007,premup-three_ses-01_part-01_label-phase1,3.2.4,Win32,60,left,0.828000069,4,0,4,0,1,3,1,0,240,58,1,239,,,,,,,,,,,,,,,,,,
,,1,5,,,,,,,1,4,1,stim/41.jpeg,Instruments,1,stim/objects/Instruments/flutetrans.png,0.5,1,-0.2,0.15,left,16,2020-12-01_12h46.01.007,premup-three_ses-01_part-01_label-phase1,3.2.4,Win32,60,left,0.751999855,4,0,4,0,1,3,1,0,240,44,1,239,,,,,,,,,,,,,,,,,,
,,1,6,,,,,,,1,3,4,stim/34.jpeg,HouseObjects,2,stim/objects/HouseObjects/doormat.png,0.5,3,-0.2,-0.15,right,16,2020-12-01_12h46.01.007,premup-three_ses-01_part-01_label-phase1,3.2.4,Win32,60,right,0.787999868,4,0,4,0,1,3,1,0,240,39,1,239,,,,,,,,,,,,,,,,,,
,,0,7,,,,,,,1,3,1,stim/31.jpeg,HouseObjects,2,stim/objects/HouseObjects/coffee.png,0.5,1,-0.2,0.15,right,16,2020-12-01_12h46.01.007,premup-three_ses-01_part-01_label-phase1,3.2.4,Win32,60,left,0.893999815,4,0,4,0,1,3,1,0,240,32,1,239,,,,,,,,,,,,,,,,,,
,,1,8,,,,,,,2,5,3,stim/53.jpeg,HouseObjects,2,stim/objects/HouseObjects/handbrush.png,0.7,1,-0.2,0.15,right,16,2020-12-01_12h46.01.007,premup-three_ses-01_part-01_label-phase1,3.2.4,Win32,60,right,0.880999804,4,0,4,0,1,3,1,0,240,102,1,239,,,,,,,,,,,,,,,,,,
,,0,9,,,,,,,3,1,2,stim/12.jpeg,HouseObjects,2,stim/objects/HouseObjects/flyswatter2.png,0.9,4,0.2,-0.15,right,16,2020-12-01_12h46.01.007,premup-three_ses-01_part-01_label-phase1,3.2.4,Win32,60,left,1.519999743,4,0,4,0,1,3,1,0,240,189,1,239,,,,,,,,,,,,,,,,,,
,,1,10,,,,,,,1,3,2,stim/32.jpeg,HouseObjects,2,stim/objects/HouseObjects/cushion.png,0.5,1,-0.2,0.15,right,16,2020-12-01_12h46.01.007,premup-three_ses-01_part-01_label-phase1,3.2.4,Win32,60,right,1.294999838,4,0,4,0,1,3,1,0,240,21,1,239,,,,,,,,,,,,,,,,,,
,,1,11,,,,,,,2,5,1,stim/51.jpeg,HouseObjects,2,stim/objects/HouseObjects/glassmop.png,0.7,2,0.2,0.15,right,16,2020-12-01_12h46.01.007,premup-three_ses-01_part-01_label-phase1,3.2.4,Win32,60,right,1.030999899,4,0,4,0,1,3,1,0,240,108,1,239,,,,,,,,,,,,,,,,,,
,,1,12,,,,,,,3,1,4,stim/14.jpeg,HouseObjects,2,stim/objects/HouseObjects/glass2.png,0.9,1,-0.2,0.15,right,16,2020-12-01_12h46.01.007,premup-three_ses-01_part-01_label-phase1,3.2.4,Win32,60,right,1.227999926,4,0,4,0,1,3,1,0,240,183,1,239,,,,,,,,,,,,,,,,,,
,,0,13,,,,,,,3,1,2,stim/12.jpeg,HouseObjects,2,stim/objects/HouseObjects/flyswatter2.png,0.9,4,0.2,-0.15,right,16,2020-12-01_12h46.01.007,premup-three_ses-01_part-01_label-phase1,3.2.4,Win32,60,left,0.743999958,4,0,4,0,1,3,1,0,240,181,1,239,,,,,,,,,,,,,,,,,,
,,0,14,,,,,,,1,4,4,stim/44.jpeg,Instruments,1,stim/objects/Instruments/grandpiano.png,0.5,3,-0.2,-0.15,left,16,2020-12-01_12h46.01.007,premup-three_ses-01_part-01_label-phase1,3.2.4,Win32,60,right,1.413999796,4,0,4,0,1,3,1,0,240,51,1,239,,,,,,,,,,,,,,,,,,
,,0,15,,,,,,,2,5,4,stim/54.jpeg,Instruments,1,stim/objects/Instruments/hihat.png,0.3,1,-0.2,0.15,left,16,2020-12-01_12h46.01.007,premup-three_ses-01_part-01_label-phase1,3.2.4,Win32,60,right,0.921000004,4,0,4,0,1,3,1,0,240,83,1,239,,,,,,,,,,,,,,,,,,
,,1,16,,,,,,,3,2,2,stim/22.jpeg,Instruments,1,stim/objects/Instruments/harmonica2.png,0.9,4,0.2,-0.15,left,16,2020-12-01_12h46.01.007,premup-three_ses-01_part-01_label-phase1,3.2.4,Win32,60,left,1.064999819,4,0,4,0,1,3,1,0,240,233,1,239,,,,,,,,,,,,,,,,,,
,,0,17,,,,,,,2,5,1,stim/51.jpeg,Instruments,1,stim/objects/Instruments/guitarcase.png,0.3,1,-0.2,0.15,left,16,2020-12-01_12h46.01.007,premup-three_ses-01_part-01_label-phase1,3.2.4,Win32,60,right,0.99000001,4,0,4,0,1,3,1,0,240,84,1,239,,,,,,,,,,,,,,,,,,
,,0,18,,,,,,,1,3,3,stim/33.jpeg,HouseObjects,2,stim/objects/HouseObjects/dishsoap.png,0.5,3,-0.2,-0.15,right,16,2020-12-01_12h46.01.007,premup-three_ses-01_part-01_label-phase1,3.2.4,Win32,60,left,1.072999954,4,0,4,0,1,3,1,0,240,30,1,239,,,,,,,,,,,,,,,,,,
,,1,19,,,,,,,2,6,1,stim/61.jpeg,Instruments,1,stim/objects/Instruments/drums2.png,0.7,2,0.2,0.15,left,16,2020-12-01_12h46.01.007,premup-three_ses-01_part-01_label-phase1,3.2.4,Win32,60,left,1.229999781,4,0,4,0,1,3,1,0,240,124,1,239,,,,,,,,,,,,,,,,,,
,,1,20,,,,,,,1,4,4,stim/44.jpeg,HouseObjects,2,stim/objects/HouseObjects/glass.png,0.5,3,-0.2,-0.15,right,16,2020-12-01_12h46.01.007,premup-three_ses-01_part-01_label-phase1,3.2.4,Win32,60,right,1.01699996,4,0,4,0,1,3,1,0,240,75,1,239,,,,,,,,,,,,,,,,,,
,,1,21,,,,,,,3,2,4,stim/24.jpeg,Instruments,1,stim/objects/Instruments/hihat2.png,0.9,3,-0.2,-0.15,left,16,2020-12-01_12h46.01.007,premup-three_ses-01_part-01_label-phase1,3.2.4,Win32,60,left,1.110000134,4,0,4,0,1,3,1,0,240,235,1,239,,,,,,,,,,,,,,,,,,
,,0,22,,,,,,,3,2,1,stim/21.jpeg,Instruments,1,stim/objects/Instruments/guitarcase2.png,0.9,1,-0.2,0.15,left,16,2020-12-01_12h46.01.007,premup-three_ses-01_part-01_label-phase1,3.2.4,Win32,60,right,0.890000105,4,0,4,0,1,3,1,0,240,208,1,239,,,,,,,,,,,,,,,,,,
,,1,23,,,,,,,2,5,2,stim/52.jpeg,Instruments,1,stim/objects/Instruments/harmonica.png,0.3,1,-0.2,0.15,left,16,2020-12-01_12h46.01.007,premup-three_ses-01_part-01_label-phase1,3.2.4,Win32,60,left,0.686999798,4,0,4,0,1,3,1,0,240,81,1,239,,,,,,,,,,,,,,,,,,
,,1,24,,,,,,,1,4,1,stim/41.jpeg,HouseObjects,2,stim/objects/HouseObjects/dustpan.png,0.5,4,0.2,-0.15,right,16,2020-12-01_12h46.01.007,premup-three_ses-01_part-01_label-phase1,3.2.4,Win32,60,right,1.114000082,4,0,4,0,1,3,1,0,240,76,1,239,,,,,,,,,,,,,,,,,,
,,0,25,,,,,,,2,6,4,stim/64.jpeg,HouseObjects,2,stim/objects/HouseObjects/doormat2.png,0.3,4,0.2,-0.15,right,16,2020-12-01_12h46.01.007,premup-three_ses-01_part-01_label-phase1,3.2.4,Win32,60,left,1.059000015,4,0,4,0,1,3,1,0,240,151,1,239,,,,,,,,,,,,,,,,,,
,,1,26,,,,,,,1,3,4,stim/34.jpeg,Instruments,1,stim/objects/Instruments/flute.png,0.5,3,-0.2,-0.15,left,16,2020-12-01_12h46.01.007,premup-three_ses-01_part-01_label-phase1,3.2.4,Win32,60,left,1.561999798,4,0,4,0,1,3,1,0,240,15,1,239,,,,,,,,,,,,,,,,,,
,,0,27,,,,,,,2,6,3,stim/63.jpeg,HouseObjects,2,stim/objects/HouseObjects/dishsoap2.png,0.3,2,0.2,0.15,right,16,2020-12-01_12h46.01.007,premup-three_ses-01_part-01_label-phase1,3.2.4,Win32,60,left,0.775999784,4,0,4,0,1,3,1,0,240,154,1,239,,,,,,,,,,,,,,,,,,
,,0,28,,,,,,,2,5,3,stim/53.jpeg,HouseObjects,2,stim/objects/HouseObjects/handbrush.png,0.7,2,0.2,0.15,right,16,2020-12-01_12h46.01.007,premup-three_ses-01_part-01_label-phase1,3.2.4,Win32,60,,,4,0,4,0,1,3,1,0,240,98,1,239,,,,,,,,,,,,,,,,,,
,,1,29,,,,,,,2,5,4,stim/54.jpeg,HouseObjects,2,stim/objects/HouseObjects/handvacuum.png,0.7,3,-0.2,-0.15,right,16,2020-12-01_12h46.01.007,premup-three_ses-01_part-01_label-phase1,3.2.4,Win32,60,right,0.745999813,4,0,4,0,1,3,1,0,240,95,1,239,,,,,,,,,,,,,,,,,,
,,0,30,,,,,,,3,1,1,stim/11.jpeg,Instruments,1,stim/objects/Instruments/flutetrans2.png,0.1,3,-0.2,-0.15,left,16,2020-12-01_12h46.01.007,premup-three_ses-01_part-01_label-phase1,3.2.4,Win32,60,right,0.828999758,4,0,4,0,1,3,1,0,240,160,1,239,,,,,,,,,,,,,,,,,,
,,0,31,,,,,,,2,5,2,stim/52.jpeg,Instruments,1,stim/objects/Instruments/harmonica.png,0.3,2,0.2,0.15,left,16,2020-12-01_12h46.01.007,premup-three_ses-01_part-01_label-phase1,3.2.4,Win32,60,right,0.891000032,4,0,4,0,1,3,1,0,240,85,1,239,,,,,,,,,,,,,,,,,,
,,1,32,,,,,,,3,2,1,stim/21.jpeg,Instruments,1,stim/objects/Instruments/guitarcase2.png,0.9,2,0.2,0.15,left,16,2020-12-01_12h46.01.007,premup-three_ses-01_part-01_label-phase1,3.2.4,Win32,60,left,0.954999924,4,0,4,0,1,3,1,0,240,232,1,239,,,,,,,,,,,,,,,,,,
,,0,33,,,,,,,2,5,4,stim/54.jpeg,HouseObjects,2,stim/objects/HouseObjects/handvacuum.png,0.7,1,-0.2,0.15,right,16,2020-12-01_12h46.01.007,premup-three_ses-01_part-01_label-phase1,3.2.4,Win32,60,left,0.706999779,4,0,4,0,1,3,1,0,240,111,1,239,,,,,,,,,,,,,,,,,,
,,0,34,,,,,,,1,4,2,stim/42.jpeg,HouseObjects,2,stim/objects/HouseObjects/flyswatter.png,0.5,3,-0.2,-0.15,right,16,2020-12-01_12h46.01.007,premup-three_ses-01_part-01_label-phase1,3.2.4,Win32,60,left,0.55099988,4,0,4,0,1,3,1,0,240,69,1,239,,,,,,,,,,,,,,,,,,
,,0,35,,,,,,,2,6,4,stim/64.jpeg,HouseObjects,2,stim/objects/HouseObjects/doormat2.png,0.3,2,0.2,0.15,right,16,2020-12-01_12h46.01.007,premup-three_ses-01_part-01_label-phase1,3.2.4,Win32,60,left,0.960999966,4,0,4,0,1,3,1,0,240,159,1,239,,,,,,,,,,,,,,,,,,
,,1,36,,,,,,,1,4,2,stim/42.jpeg,HouseObjects,2,stim/objects/HouseObjects/flyswatter.png,0.5,4,0.2,-0.15,right,16,2020-12-01_12h46.01.007,premup-three_ses-01_part-01_label-phase1,3.2.4,Win32,60,right,0.691999912,4,0,4,0,1,3,1,0,240,65,1,239,,,,,,,,,,,,,,,,,,
,,0,37,,,,,,,2,6,2,stim/62.jpeg,Instruments,1,stim/objects/Instruments/electricdrumset2.png,0.7,4,0.2,-0.15,left,16,2020-12-01_12h46.01.007,premup-three_ses-01_part-01_label-phase1,3.2.4,Win32,60,right,1.019999981,4,0,4,0,1,3,1,0,240,133,1,239,,,,,,,,,,,,,,,,,,
,,1,38,,,,,,,3,2,4,stim/24.jpeg,Instruments,1,stim/objects/Instruments/hihat2.png,0.9,3,-0.2,-0.15,left,16,2020-12-01_12h46.01.007,premup-three_ses-01_part-01_label-phase1,3.2.4,Win32,60,left,0.758999825,4,0,4,0,1,3,1,0,240,211,1,239,,,,,,,,,,,,,,,,,,
,,1,39,,,,,,,3,1,1,stim/11.jpeg,HouseObjects,2,stim/objects/HouseObjects/dustpan2.png,0.9,1,-0.2,0.15,right,16,2020-12-01_12h46.01.007,premup-three_ses-01_part-01_label-phase1,3.2.4,Win32,60,right,1.628999949,4,0,4,0,1,3,1,0,240,164,1,239,,,,,,,,,,,,,,,,,,
,,0,40,,,,,,,2,5,2,stim/52.jpeg,HouseObjects,2,stim/objects/HouseObjects/hairdryer.png,0.7,3,-0.2,-0.15,right,16,2020-12-01_12h46.01.007,premup-three_ses-01_part-01_label-phase1,3.2.4,Win32,60,left,1.36500001,4,0,4,0,1,3,1,0,240,93,1,239,,,,,,,,,,,,,,,,,,
,,0,41,,,,,,,1,3,1,stim/31.jpeg,HouseObjects,2,stim/objects/HouseObjects/coffee.png,0.5,2,0.2,0.15,right,16,2020-12-01_12h46.01.007,premup-three_ses-01_part-01_label-phase1,3.2.4,Win32,60,left,1.289000034,4,0,4,0,1,3,1,0,240,24,1,239,,,,,,,,,,,,,,,,,,
,,1,42,,,,,,,3,1,3,stim/13.jpeg,HouseObjects,2,stim/objects/HouseObjects/garbagebin2.png,0.9,1,-0.2,0.15,right,16,2020-12-01_12h46.01.007,premup-three_ses-01_part-01_label-phase1,3.2.4,Win32,60,right,0.893999815,4,0,4,0,1,3,1,0,240,194,1,239,,,,,,,,,,,,,,,,,,
,,1,43,,,,,,,2,5,1,stim/51.jpeg,HouseObjects,2,stim/objects/HouseObjects/glassmop.png,0.7,4,0.2,-0.15,right,16,2020-12-01_12h46.01.007,premup-three_ses-01_part-01_label-phase1,3.2.4,Win32,60,right,0.813999891,4,0,4,0,1,3,1,0,240,112,1,239,,,,,,,,,,,,,,,,,,
,,1,44,,,,,,,3,1,1,stim/11.jpeg,HouseObjects,2,stim/objects/HouseObjects/dustpan2.png,0.9,4,0.2,-0.15,right,16,2020-12-01_12h46.01.007,premup-three_ses-01_part-01_label-phase1,3.2.4,Win32,60,right,0.789000034,4,0,4,0,1,3,1,0,240,176,1,239,,,,,,,,,,,,,,,,,,
,,0,45,,,,,,,2,6,1,stim/61.jpeg,HouseObjects,2,stim/objects/HouseObjects/coffee2.png,0.3,3,-0.2,-0.15,right,16,2020-12-01_12h46.01.007,premup-three_ses-01_part-01_label-phase1,3.2.4,Win32,60,left,0.620999813,4,0,4,0,1,3,1,0,240,148,1,239,,,,,,,,,,,,,,,,,,
,,1,46,,,,,,,1,3,4,stim/34.jpeg,HouseObjects,2,stim/objects/HouseObjects/doormat.png,0.5,1,-0.2,0.15,right,16,2020-12-01_12h46.01.007,premup-three_ses-01_part-01_label-phase1,3.2.4,Win32,60,right,0.513000011,4,0,4,0,1,3,1,0,240,27,1,239,,,,,,,,,,,,,,,,,,
,,0,47,,,,,,,2,5,3,stim/53.jpeg,HouseObjects,2,stim/objects/HouseObjects/handbrush.png,0.7,3,-0.2,-0.15,right,16,2020-12-01_12h46.01.007,premup-three_ses-01_part-01_label-phase1,3.2.4,Win32,60,left,0.720000029,4,0,4,0,1,3,1,0,240,118,1,239,,,,,,,,,,,,,,,,,,
,,1,48,,,,,,,2,6,2,stim/62.jpeg,Instruments,1,stim/objects/Instruments/electricdrumset2.png,0.7,2,0.2,0.15,left,16,2020-12-01_12h46.01.007,premup-three_ses-01_part-01_label-phase1,3.2.4,Win32,60,left,0.774999857,4,0,4,0,1,3,1,0,240,137,1,239,,,,,,,,,,,,,,,,,,
,,0,49,,,,,,,3,2,3,stim/23.jpeg,Instruments,1,stim/objects/Instruments/harp2.png,0.9,1,-0.2,0.15,left,16,2020-12-01_12h46.01.007,premup-three_ses-01_part-01_label-phase1,3.2.4,Win32,60,right,0.649999857,4,0,4,0,1,3,1,0,240,214,1,239,,,,,,,,,,,,,,,,,,
,,0,50,,,,,,,2,6,2,stim/62.jpeg,HouseObjects,2,stim/objects/HouseObjects/cushion2.png,0.3,4,0.2,-0.15,right,16,2020-12-01_12h46.01.007,premup-three_ses-01_part-01_label-phase1,3.2.4,Win32,60,left,1.140999794,4,0,4,0,1,3,1,0,240,149,1,239,,,,,,,,,,,,,,,,,,
,,0,51,,,,,,,2,6,2,stim/62.jpeg,Instruments,1,stim/objects/Instruments/electricdrumset2.png,0.7,3,-0.2,-0.15,left,16,2020-12-01_12h46.01.007,premup-three_ses-01_part-01_label-phase1,3.2.4,Win32,60,right,0.678999901,4,0,4,0,1,3,1,0,240,121,1,239,,,,,,,,,,,,,,,,,,
,,1,52,,,,,,,1,4,1,stim/41.jpeg,Instruments,1,stim/objects/Instruments/flutetrans.png,0.5,2,0.2,0.15,left,16,2020-12-01_12h46.01.007,premup-three_ses-01_part-01_label-phase1,3.2.4,Win32,60,left,1.097000122,4,0,4,0,1,3,1,0,240,56,1,239,,,,,,,,,,,,,,,,,,
,,0,53,,,,,,,1,4,3,stim/43.jpeg,HouseObjects,2,stim/objects/HouseObjects/garbagebin.png,0.5,3,-0.2,-0.15,right,16,2020-12-01_12h46.01.007,premup-three_ses-01_part-01_label-phase1,3.2.4,Win32,60,left,0.606999874,4,0,4,0,1,3,1,0,240,74,1,239,,,,,,,,,,,,,,,,,,
,,1,54,,,,,,,2,6,2,stim/62.jpeg,Instruments,1,stim/objects/Instruments/electricdrumset2.png,0.7,1,-0.2,0.15,left,16,2020-12-01_12h46.01.007,premup-three_ses-01_part-01_label-phase1,3.2.4,Win32,60,left,0.645999908,4,0,4,0,1,3,1,0,240,141,1,239,,,,,,,,,,,,,,,,,,
,,1,55,,,,,,,1,3,2,stim/32.jpeg,HouseObjects,2,stim/objects/HouseObjects/cushion.png,0.5,1,-0.2,0.15,right,16,2020-12-01_12h46.01.007,premup-three_ses-01_part-01_label-phase1,3.2.4,Win32,60,right,0.792000055,4,0,4,0,1,3,1,0,240,33,1,239,,,,,,,,,,,,,,,,,,
,,0,56,,,,,,,1,4,3,stim/43.jpeg,Instruments,1,stim/objects/Instruments/gong.png,0.5,4,0.2,-0.15,left,16,2020-12-01_12h46.01.007,premup-three_ses-01_part-01_label-phase1,3.2.4,Win32,60,right,1.148999929,4,0,4,0,1,3,1,0,240,46,1,239,,,,,,,,,,,,,,,,,,
,,1,57,,,,,,,1,3,2,stim/32.jpeg,Instruments,1,stim/objects/Instruments/electricdrumset.png,0.5,4,0.2,-0.15,left,16,2020-12-01_12h46.01.007,premup-three_ses-01_part-01_label-phase1,3.2.4,Win32,60,left,0.714999914,4,0,4,0,1,3,1,0,240,9,1,239,,,,,,,,,,,,,,,,,,
,,1,58,,,,,,,3,1,3,stim/13.jpeg,HouseObjects,2,stim/objects/HouseObjects/garbagebin2.png,0.9,2,0.2,0.15,right,16,2020-12-01_12h46.01.007,premup-three_ses-01_part-01_label-phase1,3.2.4,Win32,60,right,0.691999912,4,0,4,0,1,3,1,0,240,190,1,239,,,,,,,,,,,,,,,,,,
,,0,59,,,,,,,2,5,3,stim/53.jpeg,Instruments,1,stim/objects/Instruments/harp.png,0.3,4,0.2,-0.15,left,16,2020-12-01_12h46.01.007,premup-three_ses-01_part-01_label-phase1,3.2.4,Win32,60,right,1.014999866,4,0,4,0,1,3,1,0,240,86,1,239,,,,,,,,,,,,,,,,,,
,,0,60,,,,,,,2,5,4,stim/54.jpeg,HouseObjects,2,stim/objects/HouseObjects/handvacuum.png,0.7,2,0.2,0.15,right,16,2020-12-01_12h46.01.007,premup-three_ses-01_part-01_label-phase1,3.2.4,Win32,60,left,0.822999954,4,0,4,0,1,3,1,0,240,107,1,239,,,,,,,,,,,,,,,,,,
,,0,61,,,,,,,1,4,1,stim/41.jpeg,Instruments,1,stim/objects/Instruments/flutetrans.png,0.5,2,0.2,0.15,left,16,2020-12-01_12h46.01.007,premup-three_ses-01_part-01_label-phase1,3.2.4,Win32,60,right,0.594000101,4,0,4,0,1,3,1,0,240,52,1,239,,,,,,,,,,,,,,,,,,
,,1,62,,,,,,,2,5,1,stim/51.jpeg,HouseObjects,2,stim/objects/HouseObjects/glassmop.png,0.7,3,-0.2,-0.15,right,16,2020-12-01_12h46.01.007,premup-three_ses-01_part-01_label-phase1,3.2.4,Win32,60,right,1.134999752,4,0,4,0,1,3,1,0,240,96,1,239,,,,,,,,,,,,,,,,,,
,,1,63,,,,,,,1,4,2,stim/42.jpeg,HouseObjects,2,stim/objects/HouseObjects/flyswatter.png,0.5,2,0.2,0.15,right,16,2020-12-01_12h46.01.007,premup-three_ses-01_part-01_label-phase1,3.2.4,Win32,60,right,0.980999947,4,0,4,0,1,3,1,0,240,61,1,239,,,,,,,,,,,,,,,,,,
,,1,64,,,,,,,3,1,2,stim/12.jpeg,HouseObjects,2,stim/objects/HouseObjects/flyswatter2.png,0.9,4,0.2,-0.15,right,16,2020-12-01_12h46.01.007,premup-three_ses-01_part-01_label-phase1,3.2.4,Win32,60,right,0.894999743,4,0,4,0,1,3,1,0,240,177,1,239,,,,,,,,,,,,,,,,,,
,,1,65,,,,,,,2,6,4,stim/64.jpeg,Instruments,1,stim/objects/Instruments/flute2.png,0.7,2,0.2,0.15,left,16,2020-12-01_12h46.01.007,premup-three_ses-01_part-01_label-phase1,3.2.4,Win32,60,left,0.503999949,4,0,4,0,1,3,1,0,240,135,1,239,,,,,,,,,,,,,,,,,,
,,1,66,,,,,,,2,5,2,stim/52.jpeg,HouseObjects,2,stim/objects/HouseObjects/hairdryer.png,0.7,3,-0.2,-0.15,right,16,2020-12-01_12h46.01.007,premup-three_ses-01_part-01_label-phase1,3.2.4,Win32,60,right,0.664000034,4,0,4,0,1,3,1,0,240,113,1,239,,,,,,,,,,,,,,,,,,
,,1,67,,,,,,,2,5,3,stim/53.jpeg,HouseObjects,2,stim/objects/HouseObjects/handbrush.png,0.7,2,0.2,0.15,right,16,2020-12-01_12h46.01.007,premup-three_ses-01_part-01_label-phase1,3.2.4,Win32,60,right,0.569999933,4,0,4,0,1,3,1,0,240,110,1,239,,,,,,,,,,,,,,,,,,
,,0,68,,,,,,,3,1,3,stim/13.jpeg,Instruments,1,stim/objects/Instruments/gong2.png,0.1,2,0.2,0.15,left,16,2020-12-01_12h46.01.007,premup-three_ses-01_part-01_label-phase1,3.2.4,Win32,60,right,0.934999943,4,0,4,0,1,3,1,0,240,162,1,239,,,,,,,,,,,,,,,,,,
,,0,69,,,,,,,3,1,3,stim/13.jpeg,HouseObjects,2,stim/objects/HouseObjects/garbagebin2.png,0.9,3,-0.2,-0.15,right,16,2020-12-01_12h46.01.007,premup-three_ses-01_part-01_label-phase1,3.2.4,Win32,60,left,0.945999861,4,0,4,0,1,3,1,0,240,186,1,239,,,,,,,,,,,,,,,,,,
,,0,70,,,,,,,2,6,2,stim/62.jpeg,Instruments,1,stim/objects/Instruments/electricdrumset2.png,0.7,4,0.2,-0.15,left,16,2020-12-01_12h46.01.007,premup-three_ses-01_part-01_label-phase1,3.2.4,Win32,60,right,0.787999868,4,0,4,0,1,3,1,0,240,145,1,239,,,,,,,,,,,,,,,,,,
,,0,71,,,,,,,3,1,2,stim/12.jpeg,HouseObjects,2,stim/objects/HouseObjects/flyswatter2.png,0.9,1,-0.2,0.15,right,16,2020-12-01_12h46.01.007,premup-three_ses-01_part-01_label-phase1,3.2.4,Win32,60,left,0.571999788,4,0,4,0,1,3,1,0,240,169,1,239,,,,,,,,,,,,,,,,,,
,,0,72,,,,,,,3,2,3,stim/23.jpeg,Instruments,1,stim/objects/Instruments/harp2.png,0.9,1,-0.2,0.15,left,16,2020-12-01_12h46.01.007,premup-three_ses-01_part-01_label-phase1,3.2.4,Win32,60,right,0.7099998,4,0,4,0,1,3,1,0,240,234,1,239,,,,,,,,,,,,,,,,,,
,,0,73,,,,,,,1,3,4,stim/34.jpeg,Instruments,1,stim/objects/Instruments/flute.png,0.5,1,-0.2,0.15,left,16,2020-12-01_12h46.01.007,premup-three_ses-01_part-01_label-phase1,3.2.4,Win32,60,right,1.42599988,4,0,4,0,1,3,1,0,240,19,1,239,,,,,,,,,,,,,,,,,,
,,1,74,,,,,,,1,3,4,stim/34.jpeg,HouseObjects,2,stim/objects/HouseObjects/doormat.png,0.5,1,-0.2,0.15,right,16,2020-12-01_12h46.01.007,premup-three_ses-01_part-01_label-phase1,3.2.4,Win32,60,right,0.440999985,4,0,4,0,1,3,1,0,240,31,1,239,,,,,,,,,,,,,,,,,,
,,0,75,,,,,,,1,4,3,stim/43.jpeg,HouseObjects,2,stim/objects/HouseObjects/garbagebin.png,0.5,1,-0.2,0.15,right,16,2020-12-01_12h46.01.007,premup-three_ses-01_part-01_label-phase1,3.2.4,Win32,60,left,1.001999855,4,0,4,0,1,3,1,0,240,70,1,239,,,,,,,,,,,,,,,,,,
,,0,76,,,,,,,3,2,1,stim/21.jpeg,Instruments,1,stim/objects/Instruments/guitarcase2.png,0.9,2,0.2,0.15,left,16,2020-12-01_12h46.01.007,premup-three_ses-01_part-01_label-phase1,3.2.4,Win32,60,right,1.292999983,4,0,4,0,1,3,1,0,240,212,1,239,,,,,,,,,,,,,,,,,,
,,0,77,,,,,,,3,2,4,stim/24.jpeg,Instruments,1,stim/objects/Instruments/hihat2.png,0.9,4,0.2,-0.15,left,16,2020-12-01_12h46.01.007,premup-three_ses-01_part-01_label-phase1,3.2.4,Win32,60,,,4,0,4,0,1,3,1,0,240,215,1,239,,,,,,,,,,,,,,,,,,
,,1,78,,,,,,,2,6,2,stim/62.jpeg,Instruments,1,stim/objects/Instruments/electricdrumset2.png,0.7,3,-0.2,-0.15,left,16,2020-12-01_12h46.01.007,premup-three_ses-01_part-01_label-phase1,3.2.4,Win32,60,left,0.308000088,4,0,4,0,1,3,1,0,240,125,1,239,,,,,,,,,,,,,,,,,,
,,0,79,,,,,,,3,2,4,stim/24.jpeg,HouseObjects,2,stim/objects/HouseObjects/handvacuum2.png,0.1,3,-0.2,-0.15,right,16,2020-12-01_12h46.01.007,premup-three_ses-01_part-01_label-phase1,3.2.4,Win32,60,left,0.443999767,4,0,4,0,1,3,1,0,240,239,1,239,,,,,,,,,,,,,,,,,,
,,0,80,,,,,,,1,3,3,stim/33.jpeg,Instruments,1,stim/objects/Instruments/electricguitar.png,0.5,4,0.2,-0.15,left,16,2020-12-01_12h46.01.007,premup-three_ses-01_part-01_label-phase1,3.2.4,Win32,60,right,0.707999945,4,0,4,0,1,3,1,0,240,6,1,239,,,,,,,,,,,,,,,,,,
,,0,81,,,,,,,3,2,2,stim/22.jpeg,Instruments,1,stim/objects/Instruments/harmonica2.png,0.9,2,0.2,0.15,left,16,2020-12-01_12h46.01.007,premup-three_ses-01_part-01_label-phase1,3.2.4,Win32,60,right,0.755999804,4,0,4,0,1,3,1,0,240,205,1,239,,,,,,,,,,,,,,,,,,
,,1,82,,,,,,,3,2,4,stim/24.jpeg,Instruments,1,stim/objects/Instruments/hihat2.png,0.9,1,-0.2,0.15,left,16,2020-12-01_12h46.01.007,premup-three_ses-01_part-01_label-phase1,3.2.4,Win32,60,left,1.373999834,4,0,4,0,1,3,1,0,240,223,1,239,,,,,,,,,,,,,,,,,,
,,0,83,,,,,,,2,5,2,stim/52.jpeg,HouseObjects,2,stim/objects/HouseObjects/hairdryer.png,0.7,2,0.2,0.15,right,16,2020-12-01_12h46.01.007,premup-three_ses-01_part-01_label-phase1,3.2.4,Win32,60,left,0.47300005,4,0,4,0,1,3,1,0,240,101,1,239,,,,,,,,,,,,,,,,,,
,,0,84,,,,,,,1,4,2,stim/42.jpeg,Instruments,1,stim/objects/Instruments/frenchhorn.png,0.5,4,0.2,-0.15,left,16,2020-12-01_12h46.01.007,premup-three_ses-01_part-01_label-phase1,3.2.4,Win32,60,right,0.574999809,4,0,4,0,1,3,1,0,240,49,1,239,,,,,,,,,,,,,,,,,,
,,0,85,,,,,,,3,2,1,stim/21.jpeg,Instruments,1,stim/objects/Instruments/guitarcase2.png,0.9,1,-0.2,0.15,left,16,2020-12-01_12h46.01.007,premup-three_ses-01_part-01_label-phase1,3.2.4,Win32,60,right,0.528999805,4,0,4,0,1,3,1,0,240,216,1,239,,,,,,,,,,,,,,,,,,
,,0,86,,,,,,,1,3,1,stim/31.jpeg,Instruments,1,stim/objects/Instruments/drums.png,0.5,2,0.2,0.15,left,16,2020-12-01_12h46.01.007,premup-three_ses-01_part-01_label-phase1,3.2.4,Win32,60,right,0.34499979,4,0,4,0,1,3,1,0,240,16,1,239,,,,,,,,,,,,,,,,,,
,,0,87,,,,,,,3,1,2,stim/12.jpeg,Instruments,1,stim/objects/Instruments/frenchhorn2.png,0.1,3,-0.2,-0.15,left,16,2020-12-01_12h46.01.007,premup-three_ses-01_part-01_label-phase1,3.2.4,Win32,60,right,0.680000067,4,0,4,0,1,3,1,0,240,161,1,239,,,,,,,,,,,,,,,,,,
,,1,88,,,,,,,2,6,4,stim/64.jpeg,Instruments,1,stim/objects/Instruments/flute2.png,0.7,4,0.2,-0.15,left,16,2020-12-01_12h46.01.007,premup-three_ses-01_part-01_label-phase1,3.2.4,Win32,60,left,1.122999907,4,0,4,0,1,3,1,0,240,147,1,239,,,,,,,,,,,,,,,,,,
,,1,89,,,,,,,3,2,4,stim/24.jpeg,Instruments,1,stim/objects/Instruments/hihat2.png,0.9,2,0.2,0.15,left,16,2020-12-01_12h46.01.007,premup-three_ses-01_part-01_label-phase1,3.2.4,Win32,60,left,0.588999987,4,0,4,0,1,3,1,0,240,227,1,239,,,,,,,,,,,,,,,,,,
,,1,90,,,,,,,2,5,4,stim/54.jpeg,Instruments,1,stim/objects/Instruments/hihat.png,0.3,2,0.2,0.15,left,16,2020-12-01_12h46.01.007,premup-three_ses-01_part-01_label-phase1,3.2.4,Win32,60,left,0.382999897,4,0,4,0,1,3,1,0,240,91,1,239,,,,,,,,,,,,,,,,,,
,,1,91,,,,,,,2,5,1,stim/51.jpeg,HouseObjects,2,stim/objects/HouseObjects/glassmop.png,0.7,4,0.2,-0.15,right,16,2020-12-01_12h46.01.007,premup-three_ses-01_part-01_label-phase1,3.2.4,Win32,60,right,0.308000088,4,0,4,0,1,3,1,0,240,100,1,239,,,,,,,,,,,,,,,,,,
,,0,92,,,,,,,1,4,4,stim/44.jpeg,Instruments,1,stim/objects/Instruments/grandpiano.png,0.5,2,0.2,0.15,left,16,2020-12-01_12h46.01.007,premup-three_ses-01_part-01_label-phase1,3.2.4,Win32,60,right,0.451999903,4,0,4,0,1,3,1,0,240,55,1,239,,,,,,,,,,,,,,,,,,
,,1,93,,,,,,,2,6,3,stim/63.jpeg,Instruments,1,stim/objects/Instruments/electricguitar2.png,0.7,1,-0.2,0.15,left,16,2020-12-01_12h46.01.007,premup-three_ses-01_part-01_label-phase1,3.2.4,Win32,60,left,0.767999887,4,0,4,0,1,3,1,0,240,126,1,239,,,,,,,,,,,,,,,,,,
,,0,94,,,,,,,1,3,3,stim/33.jpeg,HouseObjects,2,stim/objects/HouseObjects/dishsoap.png,0.5,3,-0.2,-0.15,right,16,2020-12-01_12h46.01.007,premup-three_ses-01_part-01_label-phase1,3.2.4,Win32,60,left,0.507999897,4,0,4,0,1,3,1,0,240,38,1,239,,,,,,,,,,,,,,,,,,
,,1,95,,,,,,,1,3,2,stim/32.jpeg,HouseObjects,2,stim/objects/HouseObjects/cushion.png,0.5,4,0.2,-0.15,right,16,2020-12-01_12h46.01.007,premup-three_ses-01_part-01_label-phase1,3.2.4,Win32,60,right,0.224999905,4,0,4,0,1,3,1,0,240,37,1,239,,,,,,,,,,,,,,,,,,
,,1,96,,,,,,,3,1,2,stim/12.jpeg,HouseObjects,2,stim/objects/HouseObjects/flyswatter2.png,0.9,2,0.2,0.15,right,16,2020-12-01_12h46.01.007,premup-three_ses-01_part-01_label-phase1,3.2.4,Win32,60,right,0.600999832,4,0,4,0,1,3,1,0,240,185,1,239,,,,,,,,,,,,,,,,,,
,,1,97,,,,,,,1,3,2,stim/32.jpeg,Instruments,1,stim/objects/Instruments/electricdrumset.png,0.5,3,-0.2,-0.15,left,16,2020-12-01_12h46.01.007,premup-three_ses-01_part-01_label-phase1,3.2.4,Win32,60,left,0.775999784,4,0,4,0,1,3,1,0,240,5,1,239,,,,,,,,,,,,,,,,,,
,,1,98,,,,,,,3,2,3,stim/23.jpeg,Instruments,1,stim/objects/Instruments/harp2.png,0.9,3,-0.2,-0.15,left,16,2020-12-01_12h46.01.007,premup-three_ses-01_part-01_label-phase1,3.2.4,Win32,60,left,0.530999899,4,0,4,0,1,3,1,0,240,202,1,239,,,,,,,,,,,,,,,,,,
,,1,99,,,,,,,2,5,2,stim/52.jpeg,HouseObjects,2,stim/objects/HouseObjects/hairdryer.png,0.7,2,0.2,0.15,right,16,2020-12-01_12h46.01.007,premup-three_ses-01_part-01_label-phase1,3.2.4,Win32,60,right,0.789000034,4,0,4,0,1,3,1,0,240,105,1,239,,,,,,,,,,,,,,,,,,
,,1,100,,,,,,,1,4,4,stim/44.jpeg,HouseObjects,2,stim/objects/HouseObjects/glass.png,0.5,3,-0.2,-0.15,right,16,2020-12-01_12h46.01.007,premup-three_ses-01_part-01_label-phase1,3.2.4,Win32,60,right,0.401000023,4,0,4,0,1,3,1,0,240,71,1,239,,,,,,,,,,,,,,,,,,
,,1,101,,,,,,,3,1,3,stim/13.jpeg,HouseObjects,2,stim/objects/HouseObjects/garbagebin2.png,0.9,3,-0.2,-0.15,right,16,2020-12-01_12h46.01.007,premup-three_ses-01_part-01_label-phase1,3.2.4,Win32,60,right,0.847000122,4,0,4,0,1,3,1,0,240,170,1,239,,,,,,,,,,,,,,,,,,
,,1,102,,,,,,,2,6,4,stim/64.jpeg,Instruments,1,stim/objects/Instruments/flute2.png,0.7,2,0.2,0.15,left,16,2020-12-01_12h46.01.007,premup-three_ses-01_part-01_label-phase1,3.2.4,Win32,60,left,0.64199996,4,0,4,0,1,3,1,0,240,131,1,239,,,,,,,,,,,,,,,,,,
,,1,103,,,,,,,1,3,3,stim/33.jpeg,HouseObjects,2,stim/objects/HouseObjects/dishsoap.png,0.5,4,0.2,-0.15,right,16,2020-12-01_12h46.01.007,premup-three_ses-01_part-01_label-phase1,3.2.4,Win32,60,right,0.661999941,4,0,4,0,1,3,1,0,240,34,1,239,,,,,,,,,,,,,,,,,,
,,1,104,,,,,,,2,5,1,stim/51.jpeg,HouseObjects,2,stim/objects/HouseObjects/glassmop.png,0.7,1,-0.2,0.15,right,16,2020-12-01_12h46.01.007,premup-three_ses-01_part-01_label-phase1,3.2.4,Win32,60,right,0.953000069,4,0,4,0,1,3,1,0,240,104,1,239,,,,,,,,,,,,,,,,,,
,,1,105,,,,,,,2,5,2,stim/52.jpeg,HouseObjects,2,stim/objects/HouseObjects/hairdryer.png,0.7,1,-0.2,0.15,right,16,2020-12-01_12h46.01.007,premup-three_ses-01_part-01_label-phase1,3.2.4,Win32,60,right,0.513999939,4,0,4,0,1,3,1,0,240,97,1,239,,,,,,,,,,,,,,,,,,
,,0,106,,,,,,,2,5,3,stim/53.jpeg,HouseObjects,2,stim/objects/HouseObjects/handbrush.png,0.7,3,-0.2,-0.15,right,16,2020-12-01_12h46.01.007,premup-three_ses-01_part-01_label-phase1,3.2.4,Win32,60,left,0.94299984,4,0,4,0,1,3,1,0,240,114,1,239,,,,,,,,,,,,,,,,,,
,,0,107,,,,,,,2,6,3,stim/63.jpeg,HouseObjects,2,stim/objects/HouseObjects/dishsoap2.png,0.3,4,0.2,-0.15,right,16,2020-12-01_12h46.01.007,premup-three_ses-01_part-01_label-phase1,3.2.4,Win32,60,left,0.769999981,4,0,4,0,1,3,1,0,240,158,1,239,,,,,,,,,,,,,,,,,,
,,0,108,,,,,,,2,6,3,stim/63.jpeg,Instruments,1,stim/objects/Instruments/electricguitar2.png,0.7,2,0.2,0.15,left,16,2020-12-01_12h46.01.007,premup-three_ses-01_part-01_label-phase1,3.2.4,Win32,60,right,0.875,4,0,4,0,1,3,1,0,240,138,1,239,,,,,,,,,,,,,,,,,,
,,1,109,,,,,,,2,6,4,stim/64.jpeg,Instruments,1,stim/objects/Instruments/flute2.png,0.7,4,0.2,-0.15,left,16,2020-12-01_12h46.01.007,premup-three_ses-01_part-01_label-phase1,3.2.4,Win32,60,left,0.912999868,4,0,4,0,1,3,1,0,240,127,1,239,,,,,,,,,,,,,,,,,,
,,1,110,,,,,,,1,3,4,stim/34.jpeg,Instruments,1,stim/objects/Instruments/flute.png,0.5,2,0.2,0.15,left,16,2020-12-01_12h46.01.007,premup-three_ses-01_part-01_label-phase1,3.2.4,Win32,60,left,0.957000017,4,0,4,0,1,3,1,0,240,11,1,239,,,,,,,,,,,,,,,,,,
,,0,111,,,,,,,1,3,3,stim/33.jpeg,Instruments,1,stim/objects/Instruments/electricguitar.png,0.5,1,-0.2,0.15,left,16,2020-12-01_12h46.01.007,premup-three_ses-01_part-01_label-phase1,3.2.4,Win32,60,right,1.223999977,4,0,4,0,1,3,1,0,240,18,1,239,,,,,,,,,,,,,,,,,,
,,1,112,,,,,,,3,1,3,stim/13.jpeg,HouseObjects,2,stim/objects/HouseObjects/garbagebin2.png,0.9,4,0.2,-0.15,right,16,2020-12-01_12h46.01.007,premup-three_ses-01_part-01_label-phase1,3.2.4,Win32,60,right,1.05099988,4,0,4,0,1,3,1,0,240,174,1,239,,,,,,,,,,,,,,,,,,
,,1,113,,,,,,,1,3,4,stim/34.jpeg,HouseObjects,2,stim/objects/HouseObjects/doormat.png,0.5,1,-0.2,0.15,right,16,2020-12-01_12h46.01.007,premup-three_ses-01_part-01_label-phase1,3.2.4,Win32,60,right,1.157000065,4,0,4,0,1,3,1,0,240,23,1,239,,,,,,,,,,,,,,,,,,
,,0,114,,,,,,,1,3,3,stim/33.jpeg,Instruments,1,stim/objects/Instruments/electricguitar.png,0.5,4,0.2,-0.15,left,16,2020-12-01_12h46.01.007,premup-three_ses-01_part-01_label-phase1,3.2.4,Win32,60,right,1.431999922,4,0,4,0,1,3,1,0,240,14,1,239,,,,,,,,,,,,,,,,,,
,,1,115,,,,,,,1,3,3,stim/33.jpeg,Instruments,1,stim/objects/Instruments/electricguitar.png,0.5,3,-0.2,-0.15,left,16,2020-12-01_12h46.01.007,premup-three_ses-01_part-01_label-phase1,3.2.4,Win32,60,left,1.019999981,4,0,4,0,1,3,1,0,240,2,1,239,,,,,,,,,,,,,,,,,,
,,1,116,,,,,,,2,6,1,stim/61.jpeg,Instruments,1,stim/objects/Instruments/drums2.png,0.7,3,-0.2,-0.15,left,16,2020-12-01_12h46.01.007,premup-three_ses-01_part-01_label-phase1,3.2.4,Win32,60,left,1.139999866,4,0,4,0,1,3,1,0,240,132,1,239,,,,,,,,,,,,,,,,,,
,,0,117,,,,,,,3,2,3,stim/23.jpeg,HouseObjects,2,stim/objects/HouseObjects/handbrush2.png,0.1,4,0.2,-0.15,right,16,2020-12-01_12h46.01.007,premup-three_ses-01_part-01_label-phase1,3.2.4,Win32,60,left,1.131999731,4,0,4,0,1,3,1,0,240,238,1,239,,,,,,,,,,,,,,,,,,
,,0,118,,,,,,,1,3,4,stim/34.jpeg,Instruments,1,stim/objects/Instruments/flute.png,0.5,3,-0.2,-0.15,left,16,2020-12-01_12h46.01.007,premup-three_ses-01_part-01_label-phase1,3.2.4,Win32,60,right,0.924000025,4,0,4,0,1,3,1,0,240,7,1,239,,,,,,,,,,,,,,,,,,
,,1,119,,,,,,,2,5,1,stim/51.jpeg,Instruments,1,stim/objects/Instruments/guitarcase.png,0.3,3,-0.2,-0.15,left,16,2020-12-01_12h46.01.007,premup-three_ses-01_part-01_label-phase1,3.2.4,Win32,60,left,0.593999863,4,0,4,0,1,3,1,0,240,80,1,239,,,,,,,,,,,,,,,,,,
,,0,120,,,,,,,1,4,1,stim/41.jpeg,HouseObjects,2,stim/objects/HouseObjects/dustpan.png,0.5,1,-0.2,0.15,right,16,2020-12-01_12h46.01.007,premup-three_ses-01_part-01_label-phase1,3.2.4,Win32,60,left,0.825000048,4,0,4,0,1,3,1,0,240,72,1,239,,,,,,,,,,,,,,,,,,
,,1,121,,,,,,,2,5,1,stim/51.jpeg,HouseObjects,2,stim/objects/HouseObjects/glassmop.png,0.7,4,0.2,-0.15,right,16,2020-12-01_12h46.01.007,premup-three_ses-01_part-01_label-phase1,3.2.4,Win32,60,right,0.546999931,4,0,4,0,1,3,1,0,240,92,1,239,,,,,,,,,,,,,,,,,,
,,0,122,,,,,,,3,1,2,stim/12.jpeg,HouseObjects,2,stim/objects/HouseObjects/flyswatter2.png,0.9,3,-0.2,-0.15,right,16,2020-12-01_12h46.01.007,premup-three_ses-01_part-01_label-phase1,3.2.4,Win32,60,left,1.253999949,4,0,4,0,1,3,1,0,240,193,1,239,,,,,,,,,,,,,,,,,,
,,1,123,,,,,,,1,4,4,stim/44.jpeg,Instruments,1,stim/objects/Instruments/grandpiano.png,0.5,2,0.2,0.15,left,16,2020-12-01_12h46.01.007,premup-three_ses-01_part-01_label-phase1,3.2.4,Win32,60,left,0.953999758,4,0,4,0,1,3,1,0,240,47,1,239,,,,,,,,,,,,,,,,,,
,,0,124,,,,,,,3,2,1,stim/21.jpeg,Instruments,1,stim/objects/Instruments/guitarcase2.png,0.9,4,0.2,-0.15,left,16,2020-12-01_12h46.01.007,premup-three_ses-01_part-01_label-phase1,3.2.4,Win32,60,right,0.68900013,4,0,4,0,1,3,1,0,240,204,1,239,,,,,,,,,,,,,,,,,,
,,1,125,,,,,,,1,4,1,stim/41.jpeg,HouseObjects,2,stim/objects/HouseObjects/dustpan.png,0.5,4,0.2,-0.15,right,16,2020-12-01_12h46.01.007,premup-three_ses-01_part-01_label-phase1,3.2.4,Win32,60,right,1.142999887,4,0,4,0,1,3,1,0,240,68,1,239,,,,,,,,,,,,,,,,,,
,,1,126,,,,,,,1,4,3,stim/43.jpeg,HouseObjects,2,stim/objects/HouseObjects/garbagebin.png,0.5,4,0.2,-0.15,right,16,2020-12-01_12h46.01.007,premup-three_ses-01_part-01_label-phase1,3.2.4,Win32,60,right,0.948999882,4,0,4,0,1,3,1,0,240,62,1,239,,,,,,,,,,,,,,,,,,
,,1,127,,,,,,,3,1,2,stim/12.jpeg,HouseObjects,2,stim/objects/HouseObjects/flyswatter2.png,0.9,2,0.2,0.15,right,16,2020-12-01_12h46.01.007,premup-three_ses-01_part-01_label-phase1,3.2.4,Win32,60,right,1.031000137,4,0,4,0,1,3,1,0,240,173,1,239,,,,,,,,,,,,,,,,,,
,,0,128,,,,,,,1,4,1,stim/41.jpeg,HouseObjects,2,stim/objects/HouseObjects/dustpan.png,0.5,4,0.2,-0.15,right,16,2020-12-01_12h46.01.007,premup-three_ses-01_part-01_label-phase1,3.2.4,Win32,60,left,1.051999807,4,0,4,0,1,3,1,0,240,64,1,239,,,,,,,,,,,,,,,,,,
,,1,129,,,,,,,3,2,1,stim/21.jpeg,Instruments,1,stim/objects/Instruments/guitarcase2.png,0.9,1,-0.2,0.15,left,16,2020-12-01_12h46.01.007,premup-three_ses-01_part-01_label-phase1,3.2.4,Win32,60,left,0.971999884,4,0,4,0,1,3,1,0,240,220,1,239,,,,,,,,,,,,,,,,,,
,,1,130,,,,,,,3,2,3,stim/23.jpeg,Instruments,1,stim/objects/Instruments/harp2.png,0.9,4,0.2,-0.15,left,16,2020-12-01_12h46.01.007,premup-three_ses-01_part-01_label-phase1,3.2.4,Win32,60,left,0.963999987,4,0,4,0,1,3,1,0,240,230,1,239,,,,,,,,,,,,,,,,,,
,,1,131,,,,,,,3,2,2,stim/22.jpeg,Instruments,1,stim/objects/Instruments/harmonica2.png,0.9,4,0.2,-0.15,left,16,2020-12-01_12h46.01.007,premup-three_ses-01_part-01_label-phase1,3.2.4,Win32,60,left,0.542000055,4,0,4,0,1,3,1,0,240,209,1,239,,,,,,,,,,,,,,,,,,
,,1,132,,,,,,,2,5,3,stim/53.jpeg,HouseObjects,2,stim/objects/HouseObjects/handbrush.png,0.7,3,-0.2,-0.15,right,16,2020-12-01_12h46.01.007,premup-three_ses-01_part-01_label-phase1,3.2.4,Win32,60,right,1.089999914,4,0,4,0,1,3,1,0,240,94,1,239,,,,,,,,,,,,,,,,,,
