key_resp_trial.keys,key_resp_trial.rt,trial_acc,trial_index,iterations.thisRepN,iterations.thisTrialN,iterations.thisN,iterations.thisIndex,iterations.ran,iterations.order,task_innerloop.thisRepN,task_innerloop.thisTrialN,task_innerloop.thisN,task_innerloop.thisIndex,task_innerloop.ran,task_innerloop.order,scn_condition,scn_cat,scn_inst,scn_file,obj_cat,obj_cat_num,obj_file,trial_cond,quadrant,obj_x,obj_y,corr_ans,participant,date,expName,psychopyVersion,OS,frameRate,slider.response,slider.rt,slider_2.response,slider_2.rt,ratings.thisRepN,ratings.thisTrialN,ratings.thisN,ratings.thisIndex,ratings.ran,ratings.order,obj_cat_top,min_resp_top,max_resp_top,obj_cat_bottom,min_resp_bottom,max_resp_bottom,enc_trials.thisRepN,enc_trials.thisTrialN,enc_trials.thisN,enc_trials.thisIndex,enc_trials.ran,enc_trials.order,fillers,ratings_final.thisRepN,ratings_final.thisTrialN,ratings_final.thisN,ratings_final.thisIndex,ratings_final.ran,ratings_final.order
,,0,1,1,0,1,0,1,0,1,0,240,86,1,239,2,1,3,stim/13.jpeg,HouseObjects,1,stim/objects/HouseObjects/rubbergloves.png,0.3,4,0.2,-0.15,left,7,2020-11-18_11h08.06.578,premup-three_ses-02_part-02_label-phase2,3.2.4,Linux x86_64,60,,,,,,,,,,,,,,,,,,,,,,,,,,,,,
left,0.776000023,1,2,1,0,1,0,1,0,1,0,240,120,1,239,2,2,1,stim/21.jpeg,HouseObjects,1,stim/objects/HouseObjects/iron2.png,0.7,4,0.2,-0.15,left,7,2020-11-18_11h08.06.578,premup-three_ses-02_part-02_label-phase2,3.2.4,Linux x86_64,60,,,,,,,,,,,,,,,,,,,,,,,,,,,,,
,,0,3,1,0,1,0,1,0,1,0,240,62,1,239,1,6,3,stim/63.jpeg,Instruments,2,stim/objects/Instruments/musicstand.png,0.5,3,-0.2,-0.15,right,7,2020-11-18_11h08.06.578,premup-three_ses-02_part-02_label-phase2,3.2.4,Linux x86_64,60,,,,,,,,,,,,,,,,,,,,,,,,,,,,,
right,0.778000116,0,4,1,0,1,0,1,0,1,0,240,51,1,239,1,6,4,stim/64.jpeg,HouseObjects,1,stim/objects/HouseObjects/pitcher.png,0.5,4,0.2,-0.15,left,7,2020-11-18_11h08.06.578,premup-three_ses-02_part-02_label-phase2,3.2.4,Linux x86_64,60,,,,,,,,,,,,,,,,,,,,,,,,,,,,,
right,0.877000093,0,5,1,0,1,0,1,0,1,0,240,16,1,239,1,5,1,stim/51.jpeg,HouseObjects,1,stim/objects/HouseObjects/iron.png,0.5,3,-0.2,-0.15,left,7,2020-11-18_11h08.06.578,premup-three_ses-02_part-02_label-phase2,3.2.4,Linux x86_64,60,,,,,,,,,,,,,,,,,,,,,,,,,,,,,
left,0.819999933,1,6,1,0,1,0,1,0,1,0,240,17,1,239,1,5,2,stim/52.jpeg,HouseObjects,1,stim/objects/HouseObjects/ironingboard.png,0.5,3,-0.2,-0.15,left,7,2020-11-18_11h08.06.578,premup-three_ses-02_part-02_label-phase2,3.2.4,Linux x86_64,60,,,,,,,,,,,,,,,,,,,,,,,,,,,,,
right,0.826999903,0,7,1,0,1,0,1,0,1,0,240,54,1,239,1,6,3,stim/63.jpeg,HouseObjects,1,stim/objects/HouseObjects/pan.png,0.5,2,0.2,0.15,left,7,2020-11-18_11h08.06.578,premup-three_ses-02_part-02_label-phase2,3.2.4,Linux x86_64,60,,,,,,,,,,,,,,,,,,,,,,,,,,,,,
right,0.61500001,1,8,1,0,1,0,1,0,1,0,240,166,1,239,3,3,3,stim/33.jpeg,Instruments,2,stim/objects/Instruments/musicstand2.png,0.9,4,0.2,-0.15,right,7,2020-11-18_11h08.06.578,premup-three_ses-02_part-02_label-phase2,3.2.4,Linux x86_64,60,,,,,,,,,,,,,,,,,,,,,,,,,,,,,
,,0,9,1,0,1,0,1,0,1,0,240,114,1,239,2,1,3,stim/13.jpeg,Instruments,2,stim/objects/Instruments/record.png,0.7,1,-0.2,0.15,right,7,2020-11-18_11h08.06.578,premup-three_ses-02_part-02_label-phase2,3.2.4,Linux x86_64,60,,,,,,,,,,,,,,,,,,,,,,,,,,,,,
left,0.592000008,1,10,1,0,1,0,1,0,1,0,240,215,1,239,3,4,4,stim/44.jpeg,HouseObjects,1,stim/objects/HouseObjects/rug2.png,0.9,1,-0.2,0.15,left,7,2020-11-18_11h08.06.578,premup-three_ses-02_part-02_label-phase2,3.2.4,Linux x86_64,60,,,,,,,,,,,,,,,,,,,,,,,,,,,,,
left,0.541999817,1,11,1,0,1,0,1,0,1,0,240,231,1,239,3,4,4,stim/44.jpeg,HouseObjects,1,stim/objects/HouseObjects/rug2.png,0.9,3,-0.2,-0.15,left,7,2020-11-18_11h08.06.578,premup-three_ses-02_part-02_label-phase2,3.2.4,Linux x86_64,60,,,,,,,,,,,,,,,,,,,,,,,,,,,,,
right,0.70600009,1,12,1,0,1,0,1,0,1,0,240,109,1,239,2,1,2,stim/12.jpeg,Instruments,2,stim/objects/Instruments/pipepiano.png,0.7,4,0.2,-0.15,right,7,2020-11-18_11h08.06.578,premup-three_ses-02_part-02_label-phase2,3.2.4,Linux x86_64,60,,,,,,,,,,,,,,,,,,,,,,,,,,,,,
right,0.788999796,1,13,1,0,1,0,1,0,1,0,240,115,1,239,2,1,4,stim/14.jpeg,Instruments,2,stim/objects/Instruments/record_player.png,0.7,1,-0.2,0.15,right,7,2020-11-18_11h08.06.578,premup-three_ses-02_part-02_label-phase2,3.2.4,Linux x86_64,60,,,,,,,,,,,,,,,,,,,,,,,,,,,,,
,,0,14,1,0,1,0,1,0,1,0,240,37,1,239,1,5,2,stim/52.jpeg,Instruments,2,stim/objects/Instruments/laud.png,0.5,2,0.2,0.15,right,7,2020-11-18_11h08.06.578,premup-three_ses-02_part-02_label-phase2,3.2.4,Linux x86_64,60,,,,,,,,,,,,,,,,,,,,,,,,,,,,,
left,0.792999983,0,15,1,0,1,0,1,0,1,0,240,152,1,239,2,2,1,stim/21.jpeg,Instruments,2,stim/objects/Instruments/keyboard2.png,0.3,2,0.2,0.15,right,7,2020-11-18_11h08.06.578,premup-three_ses-02_part-02_label-phase2,3.2.4,Linux x86_64,60,,,,,,,,,,,,,,,,,,,,,,,,,,,,,
right,0.552000046,1,16,1,0,1,0,1,0,1,0,240,189,1,239,3,3,2,stim/32.jpeg,Instruments,2,stim/objects/Instruments/musicsheet2.png,0.9,1,-0.2,0.15,right,7,2020-11-18_11h08.06.578,premup-three_ses-02_part-02_label-phase2,3.2.4,Linux x86_64,60,,,,,,,,,,,,,,,,,,,,,,,,,,,,,
left,0.599999905,1,17,1,0,1,0,1,0,1,0,240,206,1,239,3,4,3,stim/43.jpeg,HouseObjects,1,stim/objects/HouseObjects/rubbergloves2.png,0.9,1,-0.2,0.15,left,7,2020-11-18_11h08.06.578,premup-three_ses-02_part-02_label-phase2,3.2.4,Linux x86_64,60,,,,,,,,,,,,,,,,,,,,,,,,,,,,,
,,0,18,1,0,1,0,1,0,1,0,240,35,1,239,1,5,4,stim/54.jpeg,Instruments,2,stim/objects/Instruments/marimba.png,0.5,2,0.2,0.15,right,7,2020-11-18_11h08.06.578,premup-three_ses-02_part-02_label-phase2,3.2.4,Linux x86_64,60,,,,,,,,,,,,,,,,,,,,,,,,,,,,,
right,0.878999949,0,19,1,0,1,0,1,0,1,0,240,7,1,239,1,5,4,stim/54.jpeg,HouseObjects,1,stim/objects/HouseObjects/knife.png,0.5,2,0.2,0.15,left,7,2020-11-18_11h08.06.578,premup-three_ses-02_part-02_label-phase2,3.2.4,Linux x86_64,60,,,,,,,,,,,,,,,,,,,,,,,,,,,,,
right,0.582999945,0,20,1,0,1,0,1,0,1,0,240,162,1,239,3,3,3,stim/33.jpeg,HouseObjects,1,stim/objects/HouseObjects/pan2.png,0.1,3,-0.2,-0.15,left,7,2020-11-18_11h08.06.578,premup-three_ses-02_part-02_label-phase2,3.2.4,Linux x86_64,60,,,,,,,,,,,,,,,,,,,,,,,,,,,,,
right,0.802000046,1,21,1,0,1,0,1,0,1,0,240,167,1,239,3,3,4,stim/34.jpeg,Instruments,2,stim/objects/Instruments/oboe2.png,0.9,1,-0.2,0.15,right,7,2020-11-18_11h08.06.578,premup-three_ses-02_part-02_label-phase2,3.2.4,Linux x86_64,60,,,,,,,,,,,,,,,,,,,,,,,,,,,,,
left,0.809000015,1,22,1,0,1,0,1,0,1,0,240,2,1,239,1,5,3,stim/53.jpeg,HouseObjects,1,stim/objects/HouseObjects/key.png,0.5,4,0.2,-0.15,left,7,2020-11-18_11h08.06.578,premup-three_ses-02_part-02_label-phase2,3.2.4,Linux x86_64,60,,,,,,,,,,,,,,,,,,,,,,,,,,,,,
right,0.843999863,1,23,1,0,1,0,1,0,1,0,240,95,1,239,2,1,4,stim/14.jpeg,Instruments,2,stim/objects/Instruments/record_player.png,0.7,2,0.2,0.15,right,7,2020-11-18_11h08.06.578,premup-three_ses-02_part-02_label-phase2,3.2.4,Linux x86_64,60,,,,,,,,,,,,,,,,,,,,,,,,,,,,,
right,0.578999996,1,24,1,0,1,0,1,0,1,0,240,187,1,239,3,3,4,stim/34.jpeg,Instruments,2,stim/objects/Instruments/oboe2.png,0.9,3,-0.2,-0.15,right,7,2020-11-18_11h08.06.578,premup-three_ses-02_part-02_label-phase2,3.2.4,Linux x86_64,60,,,,,,,,,,,,,,,,,,,,,,,,,,,,,
left,0.633999825,0,25,1,0,1,0,1,0,1,0,240,149,1,239,2,2,2,stim/22.jpeg,Instruments,2,stim/objects/Instruments/laud2.png,0.3,2,0.2,0.15,right,7,2020-11-18_11h08.06.578,premup-three_ses-02_part-02_label-phase2,3.2.4,Linux x86_64,60,,,,,,,,,,,,,,,,,,,,,,,,,,,,,
right,0.611999989,1,26,1,0,1,0,1,0,1,0,240,175,1,239,3,3,4,stim/34.jpeg,Instruments,2,stim/objects/Instruments/oboe2.png,0.9,4,0.2,-0.15,right,7,2020-11-18_11h08.06.578,premup-three_ses-02_part-02_label-phase2,3.2.4,Linux x86_64,60,,,,,,,,,,,,,,,,,,,,,,,,,,,,,
right,0.784999847,0,27,1,0,1,0,1,0,1,0,240,44,1,239,1,6,1,stim/61.jpeg,HouseObjects,1,stim/objects/HouseObjects/lintroller.png,0.5,3,-0.2,-0.15,left,7,2020-11-18_11h08.06.578,premup-three_ses-02_part-02_label-phase2,3.2.4,Linux x86_64,60,,,,,,,,,,,,,,,,,,,,,,,,,,,,,
,,0,28,1,0,1,0,1,0,1,0,240,42,1,239,1,6,3,stim/63.jpeg,HouseObjects,1,stim/objects/HouseObjects/pan.png,0.5,4,0.2,-0.15,left,7,2020-11-18_11h08.06.578,premup-three_ses-02_part-02_label-phase2,3.2.4,Linux x86_64,60,,,,,,,,,,,,,,,,,,,,,,,,,,,,,
right,0.69299984,1,29,1,0,1,0,1,0,1,0,240,105,1,239,2,1,2,stim/12.jpeg,Instruments,2,stim/objects/Instruments/pipepiano.png,0.7,1,-0.2,0.15,right,7,2020-11-18_11h08.06.578,premup-three_ses-02_part-02_label-phase2,3.2.4,Linux x86_64,60,,,,,,,,,,,,,,,,,,,,,,,,,,,,,
,,0,30,1,0,1,0,1,0,1,0,240,65,1,239,1,6,2,stim/62.jpeg,Instruments,2,stim/objects/Instruments/musicsheet.png,0.5,4,0.2,-0.15,right,7,2020-11-18_11h08.06.578,premup-three_ses-02_part-02_label-phase2,3.2.4,Linux x86_64,60,,,,,,,,,,,,,,,,,,,,,,,,,,,,,
left,0.799999952,1,31,1,0,1,0,1,0,1,0,240,141,1,239,2,2,2,stim/22.jpeg,HouseObjects,1,stim/objects/HouseObjects/ironingboard2.png,0.7,3,-0.2,-0.15,left,7,2020-11-18_11h08.06.578,premup-three_ses-02_part-02_label-phase2,3.2.4,Linux x86_64,60,,,,,,,,,,,,,,,,,,,,,,,,,,,,,
left,0.726999998,1,32,1,0,1,0,1,0,1,0,240,136,1,239,2,2,1,stim/21.jpeg,HouseObjects,1,stim/objects/HouseObjects/iron2.png,0.7,3,-0.2,-0.15,left,7,2020-11-18_11h08.06.578,premup-three_ses-02_part-02_label-phase2,3.2.4,Linux x86_64,60,,,,,,,,,,,,,,,,,,,,,,,,,,,,,
right,0.812999964,0,33,1,0,1,0,1,0,1,0,240,18,1,239,1,5,3,stim/53.jpeg,HouseObjects,1,stim/objects/HouseObjects/key.png,0.5,2,0.2,0.15,left,7,2020-11-18_11h08.06.578,premup-three_ses-02_part-02_label-phase2,3.2.4,Linux x86_64,60,,,,,,,,,,,,,,,,,,,,,,,,,,,,,
left,0.64199996,1,34,1,0,1,0,1,0,1,0,240,210,1,239,3,4,3,stim/43.jpeg,HouseObjects,1,stim/objects/HouseObjects/rubbergloves2.png,0.9,4,0.2,-0.15,left,7,2020-11-18_11h08.06.578,premup-three_ses-02_part-02_label-phase2,3.2.4,Linux x86_64,60,,,,,,,,,,,,,,,,,,,,,,,,,,,,,
left,0.749999762,1,35,1,0,1,0,1,0,1,0,240,223,1,239,3,4,4,stim/44.jpeg,HouseObjects,1,stim/objects/HouseObjects/rug2.png,0.9,1,-0.2,0.15,left,7,2020-11-18_11h08.06.578,premup-three_ses-02_part-02_label-phase2,3.2.4,Linux x86_64,60,,,,,,,,,,,,,,,,,,,,,,,,,,,,,
,,0,36,1,0,1,0,1,0,1,0,240,218,1,239,3,4,3,stim/43.jpeg,HouseObjects,1,stim/objects/HouseObjects/rubbergloves2.png,0.9,2,0.2,0.15,left,7,2020-11-18_11h08.06.578,premup-three_ses-02_part-02_label-phase2,3.2.4,Linux x86_64,60,,,,,,,,,,,,,,,,,,,,,,,,,,,,,
left,0.631000042,1,37,1,0,1,0,1,0,1,0,240,139,1,239,2,2,4,stim/24.jpeg,HouseObjects,1,stim/objects/HouseObjects/knife2.png,0.7,3,-0.2,-0.15,left,7,2020-11-18_11h08.06.578,premup-three_ses-02_part-02_label-phase2,3.2.4,Linux x86_64,60,,,,,,,,,,,,,,,,,,,,,,,,,,,,,
left,0.661999941,1,38,1,0,1,0,1,0,1,0,240,0,1,239,1,5,1,stim/51.jpeg,HouseObjects,1,stim/objects/HouseObjects/iron.png,0.5,3,-0.2,-0.15,left,7,2020-11-18_11h08.06.578,premup-three_ses-02_part-02_label-phase2,3.2.4,Linux x86_64,60,,,,,,,,,,,,,,,,,,,,,,,,,,,,,
left,0.59800005,1,39,1,0,1,0,1,0,1,0,240,135,1,239,2,2,4,stim/24.jpeg,HouseObjects,1,stim/objects/HouseObjects/knife2.png,0.7,2,0.2,0.15,left,7,2020-11-18_11h08.06.578,premup-three_ses-02_part-02_label-phase2,3.2.4,Linux x86_64,60,,,,,,,,,,,,,,,,,,,,,,,,,,,,,
,,0,40,1,0,1,0,1,0,1,0,240,80,1,239,2,1,1,stim/11.jpeg,HouseObjects,1,stim/objects/HouseObjects/recyclingbin.png,0.3,4,0.2,-0.15,left,7,2020-11-18_11h08.06.578,premup-three_ses-02_part-02_label-phase2,3.2.4,Linux x86_64,60,,,,,,,,,,,,,,,,,,,,,,,,,,,,,
right,0.64199996,1,41,1,0,1,0,1,0,1,0,240,174,1,239,3,3,3,stim/33.jpeg,Instruments,2,stim/objects/Instruments/musicstand2.png,0.9,4,0.2,-0.15,right,7,2020-11-18_11h08.06.578,premup-three_ses-02_part-02_label-phase2,3.2.4,Linux x86_64,60,,,,,,,,,,,,,,,,,,,,,,,,,,,,,
left,0.641000032,0,42,1,0,1,0,1,0,1,0,240,20,1,239,1,5,1,stim/51.jpeg,Instruments,2,stim/objects/Instruments/keyboard.png,0.5,1,-0.2,0.15,right,7,2020-11-18_11h08.06.578,premup-three_ses-02_part-02_label-phase2,3.2.4,Linux x86_64,60,,,,,,,,,,,,,,,,,,,,,,,,,,,,,
right,0.628999949,1,43,1,0,1,0,1,0,1,0,240,183,1,239,3,3,4,stim/34.jpeg,Instruments,2,stim/objects/Instruments/oboe2.png,0.9,1,-0.2,0.15,right,7,2020-11-18_11h08.06.578,premup-three_ses-02_part-02_label-phase2,3.2.4,Linux x86_64,60,,,,,,,,,,,,,,,,,,,,,,,,,,,,,
left,0.701999903,1,44,1,0,1,0,1,0,1,0,240,222,1,239,3,4,3,stim/43.jpeg,HouseObjects,1,stim/objects/HouseObjects/rubbergloves2.png,0.9,1,-0.2,0.15,left,7,2020-11-18_11h08.06.578,premup-three_ses-02_part-02_label-phase2,3.2.4,Linux x86_64,60,,,,,,,,,,,,,,,,,,,,,,,,,,,,,
right,0.625,0,45,1,0,1,0,1,0,1,0,240,160,1,239,3,3,1,stim/31.jpeg,HouseObjects,1,stim/objects/HouseObjects/lintroller2.png,0.1,4,0.2,-0.15,left,7,2020-11-18_11h08.06.578,premup-three_ses-02_part-02_label-phase2,3.2.4,Linux x86_64,60,,,,,,,,,,,,,,,,,,,,,,,,,,,,,
,,0,46,1,0,1,0,1,0,1,0,240,46,1,239,1,6,3,stim/63.jpeg,HouseObjects,1,stim/objects/HouseObjects/pan.png,0.5,1,-0.2,0.15,left,7,2020-11-18_11h08.06.578,premup-three_ses-02_part-02_label-phase2,3.2.4,Linux x86_64,60,,,,,,,,,,,,,,,,,,,,,,,,,,,,,
,,0,47,1,0,1,0,1,0,1,0,240,29,1,239,1,5,2,stim/52.jpeg,Instruments,2,stim/objects/Instruments/laud.png,0.5,2,0.2,0.15,right,7,2020-11-18_11h08.06.578,premup-three_ses-02_part-02_label-phase2,3.2.4,Linux x86_64,60,,,,,,,,,,,,,,,,,,,,,,,,,,,,,
right,0.68599987,0,48,1,0,1,0,1,0,1,0,240,87,1,239,2,1,4,stim/14.jpeg,HouseObjects,1,stim/objects/HouseObjects/rug.png,0.3,1,-0.2,0.15,left,7,2020-11-18_11h08.06.578,premup-three_ses-02_part-02_label-phase2,3.2.4,Linux x86_64,60,,,,,,,,,,,,,,,,,,,,,,,,,,,,,
,,0,49,1,0,1,0,1,0,1,0,240,107,1,239,2,1,4,stim/14.jpeg,Instruments,2,stim/objects/Instruments/record_player.png,0.7,1,-0.2,0.15,right,7,2020-11-18_11h08.06.578,premup-three_ses-02_part-02_label-phase2,3.2.4,Linux x86_64,60,,,,,,,,,,,,,,,,,,,,,,,,,,,,,
right,0.705999851,1,50,1,0,1,0,1,0,1,0,240,101,1,239,2,1,2,stim/12.jpeg,Instruments,2,stim/objects/Instruments/pipepiano.png,0.7,4,0.2,-0.15,right,7,2020-11-18_11h08.06.578,premup-three_ses-02_part-02_label-phase2,3.2.4,Linux x86_64,60,,,,,,,,,,,,,,,,,,,,,,,,,,,,,
right,0.836999893,1,51,1,0,1,0,1,0,1,0,240,27,1,239,1,5,4,stim/54.jpeg,Instruments,2,stim/objects/Instruments/marimba.png,0.5,2,0.2,0.15,right,7,2020-11-18_11h08.06.578,premup-three_ses-02_part-02_label-phase2,3.2.4,Linux x86_64,60,,,,,,,,,,,,,,,,,,,,,,,,,,,,,
,,0,52,1,0,1,0,1,0,1,0,240,74,1,239,1,6,3,stim/63.jpeg,Instruments,2,stim/objects/Instruments/musicstand.png,0.5,3,-0.2,-0.15,right,7,2020-11-18_11h08.06.578,premup-three_ses-02_part-02_label-phase2,3.2.4,Linux x86_64,60,,,,,,,,,,,,,,,,,,,,,,,,,,,,,
left,0.655999899,1,53,1,0,1,0,1,0,1,0,240,214,1,239,3,4,3,stim/43.jpeg,HouseObjects,1,stim/objects/HouseObjects/rubbergloves2.png,0.9,1,-0.2,0.15,left,7,2020-11-18_11h08.06.578,premup-three_ses-02_part-02_label-phase2,3.2.4,Linux x86_64,60,,,,,,,,,,,,,,,,,,,,,,,,,,,,,
right,0.589999914,1,54,1,0,1,0,1,0,1,0,240,199,1,239,3,3,4,stim/34.jpeg,Instruments,2,stim/objects/Instruments/oboe2.png,0.9,3,-0.2,-0.15,right,7,2020-11-18_11h08.06.578,premup-three_ses-02_part-02_label-phase2,3.2.4,Linux x86_64,60,,,,,,,,,,,,,,,,,,,,,,,,,,,,,
right,0.618000031,1,55,1,0,1,0,1,0,1,0,240,76,1,239,1,6,1,stim/61.jpeg,Instruments,2,stim/objects/Instruments/metronome.png,0.5,3,-0.2,-0.15,right,7,2020-11-18_11h08.06.578,premup-three_ses-02_part-02_label-phase2,3.2.4,Linux x86_64,60,,,,,,,,,,,,,,,,,,,,,,,,,,,,,
right,0.684000015,1,56,1,0,1,0,1,0,1,0,240,72,1,239,1,6,1,stim/61.jpeg,Instruments,2,stim/objects/Instruments/metronome.png,0.5,1,-0.2,0.15,right,7,2020-11-18_11h08.06.578,premup-three_ses-02_part-02_label-phase2,3.2.4,Linux x86_64,60,,,,,,,,,,,,,,,,,,,,,,,,,,,,,
right,0.864000082,0,57,1,0,1,0,1,0,1,0,240,143,1,239,2,2,4,stim/24.jpeg,HouseObjects,1,stim/objects/HouseObjects/knife2.png,0.7,4,0.2,-0.15,left,7,2020-11-18_11h08.06.578,premup-three_ses-02_part-02_label-phase2,3.2.4,Linux x86_64,60,,,,,,,,,,,,,,,,,,,,,,,,,,,,,
right,0.756999969,1,58,1,0,1,0,1,0,1,0,240,108,1,239,2,1,1,stim/11.jpeg,Instruments,2,stim/objects/Instruments/panflute.png,0.7,1,-0.2,0.15,right,7,2020-11-18_11h08.06.578,premup-three_ses-02_part-02_label-phase2,3.2.4,Linux x86_64,60,,,,,,,,,,,,,,,,,,,,,,,,,,,,,
left,0.598999977,0,59,1,0,1,0,1,0,1,0,240,238,1,239,3,4,3,stim/43.jpeg,Instruments,2,stim/objects/Instruments/record2.png,0.1,2,0.2,0.15,right,7,2020-11-18_11h08.06.578,premup-three_ses-02_part-02_label-phase2,3.2.4,Linux x86_64,60,,,,,,,,,,,,,,,,,,,,,,,,,,,,,
right,0.812999964,0,60,1,0,1,0,1,0,1,0,240,9,1,239,1,5,2,stim/52.jpeg,HouseObjects,1,stim/objects/HouseObjects/ironingboard.png,0.5,2,0.2,0.15,left,7,2020-11-18_11h08.06.578,premup-three_ses-02_part-02_label-phase2,3.2.4,Linux x86_64,60,,,,,,,,,,,,,,,,,,,,,,,,,,,,,
right,0.708999872,1,61,1,0,1,0,1,0,1,0,240,181,1,239,3,3,2,stim/32.jpeg,Instruments,2,stim/objects/Instruments/musicsheet2.png,0.9,3,-0.2,-0.15,right,7,2020-11-18_11h08.06.578,premup-three_ses-02_part-02_label-phase2,3.2.4,Linux x86_64,60,,,,,,,,,,,,,,,,,,,,,,,,,,,,,
left,0.704999924,0,62,1,0,1,0,1,0,1,0,240,150,1,239,2,2,3,stim/23.jpeg,Instruments,2,stim/objects/Instruments/maraca2.png,0.3,3,-0.2,-0.15,right,7,2020-11-18_11h08.06.578,premup-three_ses-02_part-02_label-phase2,3.2.4,Linux x86_64,60,,,,,,,,,,,,,,,,,,,,,,,,,,,,,
right,0.655999899,1,63,1,0,1,0,1,0,1,0,240,111,1,239,2,1,4,stim/14.jpeg,Instruments,2,stim/objects/Instruments/record_player.png,0.7,4,0.2,-0.15,right,7,2020-11-18_11h08.06.578,premup-three_ses-02_part-02_label-phase2,3.2.4,Linux x86_64,60,,,,,,,,,,,,,,,,,,,,,,,,,,,,,
right,0.601000071,1,64,1,0,1,0,1,0,1,0,240,164,1,239,3,3,1,stim/31.jpeg,Instruments,2,stim/objects/Instruments/metronome2.png,0.9,2,0.2,0.15,right,7,2020-11-18_11h08.06.578,premup-three_ses-02_part-02_label-phase2,3.2.4,Linux x86_64,60,,,,,,,,,,,,,,,,,,,,,,,,,,,,,
left,0.681999922,1,65,1,0,1,0,1,0,1,0,240,212,1,239,3,4,1,stim/41.jpeg,HouseObjects,1,stim/objects/HouseObjects/recyclingbin2.png,0.9,2,0.2,0.15,left,7,2020-11-18_11h08.06.578,premup-three_ses-02_part-02_label-phase2,3.2.4,Linux x86_64,60,,,,,,,,,,,,,,,,,,,,,,,,,,,,,
,,0,66,1,0,1,0,1,0,1,0,240,112,1,239,2,1,1,stim/11.jpeg,Instruments,2,stim/objects/Instruments/panflute.png,0.7,3,-0.2,-0.15,right,7,2020-11-18_11h08.06.578,premup-three_ses-02_part-02_label-phase2,3.2.4,Linux x86_64,60,,,,,,,,,,,,,,,,,,,,,,,,,,,,,
right,0.657999992,1,67,1,0,1,0,1,0,1,0,240,173,1,239,3,3,2,stim/32.jpeg,Instruments,2,stim/objects/Instruments/musicsheet2.png,0.9,2,0.2,0.15,right,7,2020-11-18_11h08.06.578,premup-three_ses-02_part-02_label-phase2,3.2.4,Linux x86_64,60,,,,,,,,,,,,,,,,,,,,,,,,,,,,,
left,0.626999855,1,68,1,0,1,0,1,0,1,0,240,124,1,239,2,2,1,stim/21.jpeg,HouseObjects,1,stim/objects/HouseObjects/iron2.png,0.7,3,-0.2,-0.15,left,7,2020-11-18_11h08.06.578,premup-three_ses-02_part-02_label-phase2,3.2.4,Linux x86_64,60,,,,,,,,,,,,,,,,,,,,,,,,,,,,,
left,0.761999846,1,69,1,0,1,0,1,0,1,0,240,147,1,239,2,2,4,stim/24.jpeg,HouseObjects,1,stim/objects/HouseObjects/knife2.png,0.7,2,0.2,0.15,left,7,2020-11-18_11h08.06.578,premup-three_ses-02_part-02_label-phase2,3.2.4,Linux x86_64,60,,,,,,,,,,,,,,,,,,,,,,,,,,,,,
,,0,70,1,0,1,0,1,0,1,0,240,53,1,239,1,6,2,stim/62.jpeg,HouseObjects,1,stim/objects/HouseObjects/match.png,0.5,2,0.2,0.15,left,7,2020-11-18_11h08.06.578,premup-three_ses-02_part-02_label-phase2,3.2.4,Linux x86_64,60,,,,,,,,,,,,,,,,,,,,,,,,,,,,,
right,0.78399992,1,71,1,0,1,0,1,0,1,0,240,119,1,239,2,1,4,stim/14.jpeg,Instruments,2,stim/objects/Instruments/record_player.png,0.7,3,-0.2,-0.15,right,7,2020-11-18_11h08.06.578,premup-three_ses-02_part-02_label-phase2,3.2.4,Linux x86_64,60,,,,,,,,,,,,,,,,,,,,,,,,,,,,,
right,0.625999928,0,72,1,0,1,0,1,0,1,0,240,45,1,239,1,6,2,stim/62.jpeg,HouseObjects,1,stim/objects/HouseObjects/match.png,0.5,4,0.2,-0.15,left,7,2020-11-18_11h08.06.578,premup-three_ses-02_part-02_label-phase2,3.2.4,Linux x86_64,60,,,,,,,,,,,,,,,,,,,,,,,,,,,,,
,,0,73,1,0,1,0,1,0,1,0,240,39,1,239,1,5,4,stim/54.jpeg,Instruments,2,stim/objects/Instruments/marimba.png,0.5,1,-0.2,0.15,right,7,2020-11-18_11h08.06.578,premup-three_ses-02_part-02_label-phase2,3.2.4,Linux x86_64,60,,,,,,,,,,,,,,,,,,,,,,,,,,,,,
,,0,74,1,0,1,0,1,0,1,0,240,66,1,239,1,6,3,stim/63.jpeg,Instruments,2,stim/objects/Instruments/musicstand.png,0.5,2,0.2,0.15,right,7,2020-11-18_11h08.06.578,premup-three_ses-02_part-02_label-phase2,3.2.4,Linux x86_64,60,,,,,,,,,,,,,,,,,,,,,,,,,,,,,
right,0.777999878,1,75,1,0,1,0,1,0,1,0,240,31,1,239,1,5,4,stim/54.jpeg,Instruments,2,stim/objects/Instruments/marimba.png,0.5,1,-0.2,0.15,right,7,2020-11-18_11h08.06.578,premup-three_ses-02_part-02_label-phase2,3.2.4,Linux x86_64,60,,,,,,,,,,,,,,,,,,,,,,,,,,,,,
,,0,76,1,0,1,0,1,0,1,0,240,25,1,239,1,5,2,stim/52.jpeg,Instruments,2,stim/objects/Instruments/laud.png,0.5,4,0.2,-0.15,right,7,2020-11-18_11h08.06.578,premup-three_ses-02_part-02_label-phase2,3.2.4,Linux x86_64,60,,,,,,,,,,,,,,,,,,,,,,,,,,,,,
right,0.60800004,1,77,1,0,1,0,1,0,1,0,240,77,1,239,1,6,2,stim/62.jpeg,Instruments,2,stim/objects/Instruments/musicsheet.png,0.5,4,0.2,-0.15,right,7,2020-11-18_11h08.06.578,premup-three_ses-02_part-02_label-phase2,3.2.4,Linux x86_64,60,,,,,,,,,,,,,,,,,,,,,,,,,,,,,
left,0.832999945,1,78,1,0,1,0,1,0,1,0,240,88,1,239,2,1,1,stim/11.jpeg,HouseObjects,1,stim/objects/HouseObjects/recyclingbin.png,0.3,2,0.2,0.15,left,7,2020-11-18_11h08.06.578,premup-three_ses-02_part-02_label-phase2,3.2.4,Linux x86_64,60,,,,,,,,,,,,,,,,,,,,,,,,,,,,,
,,0,79,1,0,1,0,1,0,1,0,240,26,1,239,1,5,3,stim/53.jpeg,Instruments,2,stim/objects/Instruments/maraca.png,0.5,1,-0.2,0.15,right,7,2020-11-18_11h08.06.578,premup-three_ses-02_part-02_label-phase2,3.2.4,Linux x86_64,60,,,,,,,,,,,,,,,,,,,,,,,,,,,,,
right,0.559999943,1,80,1,0,1,0,1,0,1,0,240,38,1,239,1,5,3,stim/53.jpeg,Instruments,2,stim/objects/Instruments/maraca.png,0.5,3,-0.2,-0.15,right,7,2020-11-18_11h08.06.578,premup-three_ses-02_part-02_label-phase2,3.2.4,Linux x86_64,60,,,,,,,,,,,,,,,,,,,,,,,,,,,,,
left,0.851000071,0,81,1,0,1,0,1,0,1,0,240,237,1,239,3,4,2,stim/42.jpeg,Instruments,2,stim/objects/Instruments/pipepiano2.png,0.1,3,-0.2,-0.15,right,7,2020-11-18_11h08.06.578,premup-three_ses-02_part-02_label-phase2,3.2.4,Linux x86_64,60,,,,,,,,,,,,,,,,,,,,,,,,,,,,,
left,0.744999886,1,82,1,0,1,0,1,0,1,0,240,132,1,239,2,2,1,stim/21.jpeg,HouseObjects,1,stim/objects/HouseObjects/iron2.png,0.7,3,-0.2,-0.15,left,7,2020-11-18_11h08.06.578,premup-three_ses-02_part-02_label-phase2,3.2.4,Linux x86_64,60,,,,,,,,,,,,,,,,,,,,,,,,,,,,,
right,0.599999905,1,83,1,0,1,0,1,0,1,0,240,182,1,239,3,3,3,stim/33.jpeg,Instruments,2,stim/objects/Instruments/musicstand2.png,0.9,2,0.2,0.15,right,7,2020-11-18_11h08.06.578,premup-three_ses-02_part-02_label-phase2,3.2.4,Linux x86_64,60,,,,,,,,,,,,,,,,,,,,,,,,,,,,,
left,0.701999903,1,84,1,0,1,0,1,0,1,0,240,131,1,239,2,2,4,stim/24.jpeg,HouseObjects,1,stim/objects/HouseObjects/knife2.png,0.7,1,-0.2,0.15,left,7,2020-11-18_11h08.06.578,premup-three_ses-02_part-02_label-phase2,3.2.4,Linux x86_64,60,,,,,,,,,,,,,,,,,,,,,,,,,,,,,
left,0.644999981,1,85,1,0,1,0,1,0,1,0,240,230,1,239,3,4,3,stim/43.jpeg,HouseObjects,1,stim/objects/HouseObjects/rubbergloves2.png,0.9,1,-0.2,0.15,left,7,2020-11-18_11h08.06.578,premup-three_ses-02_part-02_label-phase2,3.2.4,Linux x86_64,60,,,,,,,,,,,,,,,,,,,,,,,,,,,,,
right,0.848999977,0,86,1,0,1,0,1,0,1,0,240,59,1,239,1,6,4,stim/64.jpeg,HouseObjects,1,stim/objects/HouseObjects/pitcher.png,0.5,2,0.2,0.15,left,7,2020-11-18_11h08.06.578,premup-three_ses-02_part-02_label-phase2,3.2.4,Linux x86_64,60,,,,,,,,,,,,,,,,,,,,,,,,,,,,,
right,0.575000048,1,87,1,0,1,0,1,0,1,0,240,170,1,239,3,3,3,stim/33.jpeg,Instruments,2,stim/objects/Instruments/musicstand2.png,0.9,2,0.2,0.15,right,7,2020-11-18_11h08.06.578,premup-three_ses-02_part-02_label-phase2,3.2.4,Linux x86_64,60,,,,,,,,,,,,,,,,,,,,,,,,,,,,,
right,0.693999767,1,88,1,0,1,0,1,0,1,0,240,97,1,239,2,1,2,stim/12.jpeg,Instruments,2,stim/objects/Instruments/pipepiano.png,0.7,2,0.2,0.15,right,7,2020-11-18_11h08.06.578,premup-three_ses-02_part-02_label-phase2,3.2.4,Linux x86_64,60,,,,,,,,,,,,,,,,,,,,,,,,,,,,,
right,0.582000017,1,89,1,0,1,0,1,0,1,0,240,106,1,239,2,1,3,stim/13.jpeg,Instruments,2,stim/objects/Instruments/record.png,0.7,2,0.2,0.15,right,7,2020-11-18_11h08.06.578,premup-three_ses-02_part-02_label-phase2,3.2.4,Linux x86_64,60,,,,,,,,,,,,,,,,,,,,,,,,,,,,,
left,0.640999794,1,90,1,0,1,0,1,0,1,0,240,129,1,239,2,2,2,stim/22.jpeg,HouseObjects,1,stim/objects/HouseObjects/ironingboard2.png,0.7,2,0.2,0.15,left,7,2020-11-18_11h08.06.578,premup-three_ses-02_part-02_label-phase2,3.2.4,Linux x86_64,60,,,,,,,,,,,,,,,,,,,,,,,,,,,,,
left,0.718999863,1,91,1,0,1,0,1,0,1,0,240,203,1,239,3,4,4,stim/44.jpeg,HouseObjects,1,stim/objects/HouseObjects/rug2.png,0.9,3,-0.2,-0.15,left,7,2020-11-18_11h08.06.578,premup-three_ses-02_part-02_label-phase2,3.2.4,Linux x86_64,60,,,,,,,,,,,,,,,,,,,,,,,,,,,,,
,,0,92,1,0,1,0,1,0,1,0,240,104,1,239,2,1,1,stim/11.jpeg,Instruments,2,stim/objects/Instruments/panflute.png,0.7,1,-0.2,0.15,right,7,2020-11-18_11h08.06.578,premup-three_ses-02_part-02_label-phase2,3.2.4,Linux x86_64,60,,,,,,,,,,,,,,,,,,,,,,,,,,,,,
left,0.718999863,1,93,1,0,1,0,1,0,1,0,240,15,1,239,1,5,4,stim/54.jpeg,HouseObjects,1,stim/objects/HouseObjects/knife.png,0.5,4,0.2,-0.15,left,7,2020-11-18_11h08.06.578,premup-three_ses-02_part-02_label-phase2,3.2.4,Linux x86_64,60,,,,,,,,,,,,,,,,,,,,,,,,,,,,,
left,0.845000029,1,94,1,0,1,0,1,0,1,0,240,55,1,239,1,6,4,stim/64.jpeg,HouseObjects,1,stim/objects/HouseObjects/pitcher.png,0.5,1,-0.2,0.15,left,7,2020-11-18_11h08.06.578,premup-three_ses-02_part-02_label-phase2,3.2.4,Linux x86_64,60,,,,,,,,,,,,,,,,,,,,,,,,,,,,,
,,0,95,1,0,1,0,1,0,1,0,240,24,1,239,1,5,1,stim/51.jpeg,Instruments,2,stim/objects/Instruments/keyboard.png,0.5,4,0.2,-0.15,right,7,2020-11-18_11h08.06.578,premup-three_ses-02_part-02_label-phase2,3.2.4,Linux x86_64,60,,,,,,,,,,,,,,,,,,,,,,,,,,,,,
left,0.729999781,1,96,1,0,1,0,1,0,1,0,240,225,1,239,3,4,2,stim/42.jpeg,HouseObjects,1,stim/objects/HouseObjects/remote2.png,0.9,4,0.2,-0.15,left,7,2020-11-18_11h08.06.578,premup-three_ses-02_part-02_label-phase2,3.2.4,Linux x86_64,60,,,,,,,,,,,,,,,,,,,,,,,,,,,,,
left,0.612999916,1,97,1,0,1,0,1,0,1,0,240,125,1,239,2,2,2,stim/22.jpeg,HouseObjects,1,stim/objects/HouseObjects/ironingboard2.png,0.7,1,-0.2,0.15,left,7,2020-11-18_11h08.06.578,premup-three_ses-02_part-02_label-phase2,3.2.4,Linux x86_64,60,,,,,,,,,,,,,,,,,,,,,,,,,,,,,
right,0.667999744,1,98,1,0,1,0,1,0,1,0,240,177,1,239,3,3,2,stim/32.jpeg,Instruments,2,stim/objects/Instruments/musicsheet2.png,0.9,3,-0.2,-0.15,right,7,2020-11-18_11h08.06.578,premup-three_ses-02_part-02_label-phase2,3.2.4,Linux x86_64,60,,,,,,,,,,,,,,,,,,,,,,,,,,,,,
,,0,99,1,0,1,0,1,0,1,0,240,4,1,239,1,5,1,stim/51.jpeg,HouseObjects,1,stim/objects/HouseObjects/iron.png,0.5,4,0.2,-0.15,left,7,2020-11-18_11h08.06.578,premup-three_ses-02_part-02_label-phase2,3.2.4,Linux x86_64,60,,,,,,,,,,,,,,,,,,,,,,,,,,,,,
right,0.510999918,0,100,1,0,1,0,1,0,1,0,240,14,1,239,1,5,3,stim/53.jpeg,HouseObjects,1,stim/objects/HouseObjects/key.png,0.5,4,0.2,-0.15,left,7,2020-11-18_11h08.06.578,premup-three_ses-02_part-02_label-phase2,3.2.4,Linux x86_64,60,,,,,,,,,,,,,,,,,,,,,,,,,,,,,
left,0.619999886,1,101,1,0,1,0,1,0,1,0,240,200,1,239,3,4,1,stim/41.jpeg,HouseObjects,1,stim/objects/HouseObjects/recyclingbin2.png,0.9,1,-0.2,0.15,left,7,2020-11-18_11h08.06.578,premup-three_ses-02_part-02_label-phase2,3.2.4,Linux x86_64,60,,,,,,,,,,,,,,,,,,,,,,,,,,,,,
left,0.572000027,1,102,1,0,1,0,1,0,1,0,240,232,1,239,3,4,1,stim/41.jpeg,HouseObjects,1,stim/objects/HouseObjects/recyclingbin2.png,0.9,3,-0.2,-0.15,left,7,2020-11-18_11h08.06.578,premup-three_ses-02_part-02_label-phase2,3.2.4,Linux x86_64,60,,,,,,,,,,,,,,,,,,,,,,,,,,,,,
left,0.683000088,1,103,1,0,1,0,1,0,1,0,240,234,1,239,3,4,3,stim/43.jpeg,HouseObjects,1,stim/objects/HouseObjects/rubbergloves2.png,0.9,1,-0.2,0.15,left,7,2020-11-18_11h08.06.578,premup-three_ses-02_part-02_label-phase2,3.2.4,Linux x86_64,60,,,,,,,,,,,,,,,,,,,,,,,,,,,,,
left,0.655999899,0,104,1,0,1,0,1,0,1,0,240,110,1,239,2,1,3,stim/13.jpeg,Instruments,2,stim/objects/Instruments/record.png,0.7,4,0.2,-0.15,right,7,2020-11-18_11h08.06.578,premup-three_ses-02_part-02_label-phase2,3.2.4,Linux x86_64,60,,,,,,,,,,,,,,,,,,,,,,,,,,,,,
right,0.540999889,1,105,1,0,1,0,1,0,1,0,240,171,1,239,3,3,4,stim/34.jpeg,Instruments,2,stim/objects/Instruments/oboe2.png,0.9,1,-0.2,0.15,right,7,2020-11-18_11h08.06.578,premup-three_ses-02_part-02_label-phase2,3.2.4,Linux x86_64,60,,,,,,,,,,,,,,,,,,,,,,,,,,,,,
right,0.672999859,0,106,1,0,1,0,1,0,1,0,240,50,1,239,1,6,3,stim/63.jpeg,HouseObjects,1,stim/objects/HouseObjects/pan.png,0.5,3,-0.2,-0.15,left,7,2020-11-18_11h08.06.578,premup-three_ses-02_part-02_label-phase2,3.2.4,Linux x86_64,60,,,,,,,,,,,,,,,,,,,,,,,,,,,,,
left,0.525000095,0,107,1,0,1,0,1,0,1,0,240,153,1,239,2,2,2,stim/22.jpeg,Instruments,2,stim/objects/Instruments/laud2.png,0.3,3,-0.2,-0.15,right,7,2020-11-18_11h08.06.578,premup-three_ses-02_part-02_label-phase2,3.2.4,Linux x86_64,60,,,,,,,,,,,,,,,,,,,,,,,,,,,,,
left,0.558000088,1,108,1,0,1,0,1,0,1,0,240,126,1,239,2,2,3,stim/23.jpeg,HouseObjects,1,stim/objects/HouseObjects/key2.png,0.7,2,0.2,0.15,left,7,2020-11-18_11h08.06.578,premup-three_ses-02_part-02_label-phase2,3.2.4,Linux x86_64,60,,,,,,,,,,,,,,,,,,,,,,,,,,,,,
left,0.559999943,0,109,1,0,1,0,1,0,1,0,240,155,1,239,2,2,4,stim/24.jpeg,Instruments,2,stim/objects/Instruments/marimba2.png,0.3,3,-0.2,-0.15,right,7,2020-11-18_11h08.06.578,premup-three_ses-02_part-02_label-phase2,3.2.4,Linux x86_64,60,,,,,,,,,,,,,,,,,,,,,,,,,,,,,
left,0.731999874,0,110,1,0,1,0,1,0,1,0,240,67,1,239,1,6,4,stim/64.jpeg,Instruments,2,stim/objects/Instruments/oboe.png,0.5,1,-0.2,0.15,right,7,2020-11-18_11h08.06.578,premup-three_ses-02_part-02_label-phase2,3.2.4,Linux x86_64,60,,,,,,,,,,,,,,,,,,,,,,,,,,,,,
left,0.722999811,0,111,1,0,1,0,1,0,1,0,240,113,1,239,2,1,2,stim/12.jpeg,Instruments,2,stim/objects/Instruments/pipepiano.png,0.7,1,-0.2,0.15,right,7,2020-11-18_11h08.06.578,premup-three_ses-02_part-02_label-phase2,3.2.4,Linux x86_64,60,,,,,,,,,,,,,,,,,,,,,,,,,,,,,
left,0.613999844,0,112,1,0,1,0,1,0,1,0,240,151,1,239,2,2,4,stim/24.jpeg,Instruments,2,stim/objects/Instruments/marimba2.png,0.3,2,0.2,0.15,right,7,2020-11-18_11h08.06.578,premup-three_ses-02_part-02_label-phase2,3.2.4,Linux x86_64,60,,,,,,,,,,,,,,,,,,,,,,,,,,,,,
,,0,113,1,0,1,0,1,0,1,0,240,194,1,239,3,3,3,stim/33.jpeg,Instruments,2,stim/objects/Instruments/musicstand2.png,0.9,4,0.2,-0.15,right,7,2020-11-18_11h08.06.578,premup-three_ses-02_part-02_label-phase2,3.2.4,Linux x86_64,60,,,,,,,,,,,,,,,,,,,,,,,,,,,,,
right,0.764999866,1,114,1,0,1,0,1,0,1,0,240,73,1,239,1,6,2,stim/62.jpeg,Instruments,2,stim/objects/Instruments/musicsheet.png,0.5,3,-0.2,-0.15,right,7,2020-11-18_11h08.06.578,premup-three_ses-02_part-02_label-phase2,3.2.4,Linux x86_64,60,,,,,,,,,,,,,,,,,,,,,,,,,,,,,
left,0.708999872,1,115,1,0,1,0,1,0,1,0,240,207,1,239,3,4,4,stim/44.jpeg,HouseObjects,1,stim/objects/HouseObjects/rug2.png,0.9,3,-0.2,-0.15,left,7,2020-11-18_11h08.06.578,premup-three_ses-02_part-02_label-phase2,3.2.4,Linux x86_64,60,,,,,,,,,,,,,,,,,,,,,,,,,,,,,
left,0.707999945,1,116,1,0,1,0,1,0,1,0,240,140,1,239,2,2,1,stim/21.jpeg,HouseObjects,1,stim/objects/HouseObjects/iron2.png,0.7,4,0.2,-0.15,left,7,2020-11-18_11h08.06.578,premup-three_ses-02_part-02_label-phase2,3.2.4,Linux x86_64,60,,,,,,,,,,,,,,,,,,,,,,,,,,,,,
,,0,117,1,0,1,0,1,0,1,0,240,91,1,239,2,1,4,stim/14.jpeg,HouseObjects,1,stim/objects/HouseObjects/rug.png,0.3,1,-0.2,0.15,left,7,2020-11-18_11h08.06.578,premup-three_ses-02_part-02_label-phase2,3.2.4,Linux x86_64,60,,,,,,,,,,,,,,,,,,,,,,,,,,,,,
left,0.599999905,1,118,1,0,1,0,1,0,1,0,240,123,1,239,2,2,4,stim/24.jpeg,HouseObjects,1,stim/objects/HouseObjects/knife2.png,0.7,2,0.2,0.15,left,7,2020-11-18_11h08.06.578,premup-three_ses-02_part-02_label-phase2,3.2.4,Linux x86_64,60,,,,,,,,,,,,,,,,,,,,,,,,,,,,,
left,0.649999857,0,119,1,0,1,0,1,0,1,0,240,23,1,239,1,5,4,stim/54.jpeg,Instruments,2,stim/objects/Instruments/marimba.png,0.5,3,-0.2,-0.15,right,7,2020-11-18_11h08.06.578,premup-three_ses-02_part-02_label-phase2,3.2.4,Linux x86_64,60,,,,,,,,,,,,,,,,,,,,,,,,,,,,,
right,0.588999748,1,120,1,0,1,0,1,0,1,0,240,178,1,239,3,3,3,stim/33.jpeg,Instruments,2,stim/objects/Instruments/musicstand2.png,0.9,2,0.2,0.15,right,7,2020-11-18_11h08.06.578,premup-three_ses-02_part-02_label-phase2,3.2.4,Linux x86_64,60,,,,,,,,,,,,,,,,,,,,,,,,,,,,,
right,0.806999922,0,121,1,0,1,0,1,0,1,0,240,47,1,239,1,6,4,stim/64.jpeg,HouseObjects,1,stim/objects/HouseObjects/pitcher.png,0.5,4,0.2,-0.15,left,7,2020-11-18_11h08.06.578,premup-three_ses-02_part-02_label-phase2,3.2.4,Linux x86_64,60,,,,,,,,,,,,,,,,,,,,,,,,,,,,,
left,0.589999914,1,122,1,0,1,0,1,0,1,0,240,134,1,239,2,2,3,stim/23.jpeg,HouseObjects,1,stim/objects/HouseObjects/key2.png,0.7,3,-0.2,-0.15,left,7,2020-11-18_11h08.06.578,premup-three_ses-02_part-02_label-phase2,3.2.4,Linux x86_64,60,,,,,,,,,,,,,,,,,,,,,,,,,,,,,
right,0.791999817,0,123,1,0,1,0,1,0,1,0,240,81,1,239,2,1,2,stim/12.jpeg,HouseObjects,1,stim/objects/HouseObjects/remote.png,0.3,4,0.2,-0.15,left,7,2020-11-18_11h08.06.578,premup-three_ses-02_part-02_label-phase2,3.2.4,Linux x86_64,60,,,,,,,,,,,,,,,,,,,,,,,,,,,,,
right,0.642999887,1,124,1,0,1,0,1,0,1,0,240,195,1,239,3,3,4,stim/34.jpeg,Instruments,2,stim/objects/Instruments/oboe2.png,0.9,2,0.2,0.15,right,7,2020-11-18_11h08.06.578,premup-three_ses-02_part-02_label-phase2,3.2.4,Linux x86_64,60,,,,,,,,,,,,,,,,,,,,,,,,,,,,,
left,0.565999746,1,125,1,0,1,0,1,0,1,0,240,138,1,239,2,2,3,stim/23.jpeg,HouseObjects,1,stim/objects/HouseObjects/key2.png,0.7,3,-0.2,-0.15,left,7,2020-11-18_11h08.06.578,premup-three_ses-02_part-02_label-phase2,3.2.4,Linux x86_64,60,,,,,,,,,,,,,,,,,,,,,,,,,,,,,
,,0,126,1,0,1,0,1,0,1,0,240,49,1,239,1,6,2,stim/62.jpeg,HouseObjects,1,stim/objects/HouseObjects/match.png,0.5,3,-0.2,-0.15,left,7,2020-11-18_11h08.06.578,premup-three_ses-02_part-02_label-phase2,3.2.4,Linux x86_64,60,,,,,,,,,,,,,,,,,,,,,,,,,,,,,
right,0.540999889,1,127,1,0,1,0,1,0,1,0,240,197,1,239,3,3,2,stim/32.jpeg,Instruments,2,stim/objects/Instruments/musicsheet2.png,0.9,4,0.2,-0.15,right,7,2020-11-18_11h08.06.578,premup-three_ses-02_part-02_label-phase2,3.2.4,Linux x86_64,60,,,,,,,,,,,,,,,,,,,,,,,,,,,,,
,,0,128,1,0,1,0,1,0,1,0,240,79,1,239,1,6,4,stim/64.jpeg,Instruments,2,stim/objects/Instruments/oboe.png,0.5,2,0.2,0.15,right,7,2020-11-18_11h08.06.578,premup-three_ses-02_part-02_label-phase2,3.2.4,Linux x86_64,60,,,,,,,,,,,,,,,,,,,,,,,,,,,,,
right,0.695999861,1,129,1,0,1,0,1,0,1,0,240,188,1,239,3,3,1,stim/31.jpeg,Instruments,2,stim/objects/Instruments/metronome2.png,0.9,3,-0.2,-0.15,right,7,2020-11-18_11h08.06.578,premup-three_ses-02_part-02_label-phase2,3.2.4,Linux x86_64,60,,,,,,,,,,,,,,,,,,,,,,,,,,,,,
left,0.624999762,1,130,1,0,1,0,1,0,1,0,240,211,1,239,3,4,4,stim/44.jpeg,HouseObjects,1,stim/objects/HouseObjects/rug2.png,0.9,3,-0.2,-0.15,left,7,2020-11-18_11h08.06.578,premup-three_ses-02_part-02_label-phase2,3.2.4,Linux x86_64,60,,,,,,,,,,,,,,,,,,,,,,,,,,,,,
left,0.682999849,1,131,1,0,1,0,1,0,1,0,240,216,1,239,3,4,1,stim/41.jpeg,HouseObjects,1,stim/objects/HouseObjects/recyclingbin2.png,0.9,2,0.2,0.15,left,7,2020-11-18_11h08.06.578,premup-three_ses-02_part-02_label-phase2,3.2.4,Linux x86_64,60,,,,,,,,,,,,,,,,,,,,,,,,,,,,,
left,0.687999725,0,132,1,0,1,0,1,0,1,0,240,70,1,239,1,6,3,stim/63.jpeg,Instruments,2,stim/objects/Instruments/musicstand.png,0.5,2,0.2,0.15,right,7,2020-11-18_11h08.06.578,premup-three_ses-02_part-02_label-phase2,3.2.4,Linux x86_64,60,,,,,,,,,,,,,,,,,,,,,,,,,,,,,
left,0.565000057,1,133,1,0,1,0,1,0,1,0,240,205,1,239,3,4,2,stim/42.jpeg,HouseObjects,1,stim/objects/HouseObjects/remote2.png,0.9,3,-0.2,-0.15,left,7,2020-11-18_11h08.06.578,premup-three_ses-02_part-02_label-phase2,3.2.4,Linux x86_64,60,,,,,,,,,,,,,,,,,,,,,,,,,,,,,
left,0.641000032,1,134,1,0,1,0,1,0,1,0,240,221,1,239,3,4,2,stim/42.jpeg,HouseObjects,1,stim/objects/HouseObjects/remote2.png,0.9,2,0.2,0.15,left,7,2020-11-18_11h08.06.578,premup-three_ses-02_part-02_label-phase2,3.2.4,Linux x86_64,60,,,,,,,,,,,,,,,,,,,,,,,,,,,,,
right,0.595999956,0,135,1,0,1,0,1,0,1,0,240,161,1,239,3,3,2,stim/32.jpeg,HouseObjects,1,stim/objects/HouseObjects/match2.png,0.1,2,0.2,0.15,left,7,2020-11-18_11h08.06.578,premup-three_ses-02_part-02_label-phase2,3.2.4,Linux x86_64,60,,,,,,,,,,,,,,,,,,,,,,,,,,,,,
left,0.65899992,1,136,1,0,1,0,1,0,1,0,240,209,1,239,3,4,2,stim/42.jpeg,HouseObjects,1,stim/objects/HouseObjects/remote2.png,0.9,2,0.2,0.15,left,7,2020-11-18_11h08.06.578,premup-three_ses-02_part-02_label-phase2,3.2.4,Linux x86_64,60,,,,,,,,,,,,,,,,,,,,,,,,,,,,,
left,0.529999971,1,137,1,0,1,0,1,0,1,0,240,146,1,239,2,2,3,stim/23.jpeg,HouseObjects,1,stim/objects/HouseObjects/key2.png,0.7,3,-0.2,-0.15,left,7,2020-11-18_11h08.06.578,premup-three_ses-02_part-02_label-phase2,3.2.4,Linux x86_64,60,,,,,,,,,,,,,,,,,,,,,,,,,,,,,
left,0.707000017,0,138,1,0,1,0,1,0,1,0,240,98,1,239,2,1,3,stim/13.jpeg,Instruments,2,stim/objects/Instruments/record.png,0.7,3,-0.2,-0.15,right,7,2020-11-18_11h08.06.578,premup-three_ses-02_part-02_label-phase2,3.2.4,Linux x86_64,60,,,,,,,,,,,,,,,,,,,,,,,,,,,,,
,,0,139,1,0,1,0,1,0,1,0,240,48,1,239,1,6,1,stim/61.jpeg,HouseObjects,1,stim/objects/HouseObjects/lintroller.png,0.5,1,-0.2,0.15,left,7,2020-11-18_11h08.06.578,premup-three_ses-02_part-02_label-phase2,3.2.4,Linux x86_64,60,,,,,,,,,,,,,,,,,,,,,,,,,,,,,
,,0,140,1,0,1,0,1,0,1,0,240,93,1,239,2,1,2,stim/12.jpeg,Instruments,2,stim/objects/Instruments/pipepiano.png,0.7,4,0.2,-0.15,right,7,2020-11-18_11h08.06.578,premup-three_ses-02_part-02_label-phase2,3.2.4,Linux x86_64,60,,,,,,,,,,,,,,,,,,,,,,,,,,,,,
left,0.5849998,1,141,1,0,1,0,1,0,1,0,240,227,1,239,3,4,4,stim/44.jpeg,HouseObjects,1,stim/objects/HouseObjects/rug2.png,0.9,3,-0.2,-0.15,left,7,2020-11-18_11h08.06.578,premup-three_ses-02_part-02_label-phase2,3.2.4,Linux x86_64,60,,,,,,,,,,,,,,,,,,,,,,,,,,,,,
,,0,142,1,0,1,0,1,0,1,0,240,103,1,239,2,1,4,stim/14.jpeg,Instruments,2,stim/objects/Instruments/record_player.png,0.7,1,-0.2,0.15,right,7,2020-11-18_11h08.06.578,premup-three_ses-02_part-02_label-phase2,3.2.4,Linux x86_64,60,,,,,,,,,,,,,,,,,,,,,,,,,,,,,
left,0.743000031,1,143,1,0,1,0,1,0,1,0,240,10,1,239,1,5,3,stim/53.jpeg,HouseObjects,1,stim/objects/HouseObjects/key.png,0.5,3,-0.2,-0.15,left,7,2020-11-18_11h08.06.578,premup-three_ses-02_part-02_label-phase2,3.2.4,Linux x86_64,60,,,,,,,,,,,,,,,,,,,,,,,,,,,,,
left,0.633999825,1,144,1,0,1,0,1,0,1,0,240,137,1,239,2,2,2,stim/22.jpeg,HouseObjects,1,stim/objects/HouseObjects/ironingboard2.png,0.7,4,0.2,-0.15,left,7,2020-11-18_11h08.06.578,premup-three_ses-02_part-02_label-phase2,3.2.4,Linux x86_64,60,,,,,,,,,,,,,,,,,,,,,,,,,,,,,
right,0.586999893,1,145,1,0,1,0,1,0,1,0,240,168,1,239,3,3,1,stim/31.jpeg,Instruments,2,stim/objects/Instruments/metronome2.png,0.9,2,0.2,0.15,right,7,2020-11-18_11h08.06.578,premup-three_ses-02_part-02_label-phase2,3.2.4,Linux x86_64,60,,,,,,,,,,,,,,,,,,,,,,,,,,,,,
,,0,146,1,0,1,0,1,0,1,0,240,90,1,239,2,1,3,stim/13.jpeg,HouseObjects,1,stim/objects/HouseObjects/rubbergloves.png,0.3,2,0.2,0.15,left,7,2020-11-18_11h08.06.578,premup-three_ses-02_part-02_label-phase2,3.2.4,Linux x86_64,60,,,,,,,,,,,,,,,,,,,,,,,,,,,,,
left,0.677999973,1,147,1,0,1,0,1,0,1,0,240,228,1,239,3,4,1,stim/41.jpeg,HouseObjects,1,stim/objects/HouseObjects/recyclingbin2.png,0.9,1,-0.2,0.15,left,7,2020-11-18_11h08.06.578,premup-three_ses-02_part-02_label-phase2,3.2.4,Linux x86_64,60,,,,,,,,,,,,,,,,,,,,,,,,,,,,,
left,0.725999832,1,148,1,0,1,0,1,0,1,0,240,229,1,239,3,4,2,stim/42.jpeg,HouseObjects,1,stim/objects/HouseObjects/remote2.png,0.9,1,-0.2,0.15,left,7,2020-11-18_11h08.06.578,premup-three_ses-02_part-02_label-phase2,3.2.4,Linux x86_64,60,,,,,,,,,,,,,,,,,,,,,,,,,,,,,
right,0.54399991,1,149,1,0,1,0,1,0,1,0,240,192,1,239,3,3,1,stim/31.jpeg,Instruments,2,stim/objects/Instruments/metronome2.png,0.9,1,-0.2,0.15,right,7,2020-11-18_11h08.06.578,premup-three_ses-02_part-02_label-phase2,3.2.4,Linux x86_64,60,,,,,,,,,,,,,,,,,,,,,,,,,,,,,
right,0.581999779,1,150,1,0,1,0,1,0,1,0,240,169,1,239,3,3,2,stim/32.jpeg,Instruments,2,stim/objects/Instruments/musicsheet2.png,0.9,4,0.2,-0.15,right,7,2020-11-18_11h08.06.578,premup-three_ses-02_part-02_label-phase2,3.2.4,Linux x86_64,60,,,,,,,,,,,,,,,,,,,,,,,,,,,,,
left,0.631999969,0,151,1,0,1,0,1,0,1,0,240,157,1,239,2,2,2,stim/22.jpeg,Instruments,2,stim/objects/Instruments/laud2.png,0.3,3,-0.2,-0.15,right,7,2020-11-18_11h08.06.578,premup-three_ses-02_part-02_label-phase2,3.2.4,Linux x86_64,60,,,,,,,,,,,,,,,,,,,,,,,,,,,,,
left,0.677000046,1,152,1,0,1,0,1,0,1,0,240,82,1,239,2,1,3,stim/13.jpeg,HouseObjects,1,stim/objects/HouseObjects/rubbergloves.png,0.3,2,0.2,0.15,left,7,2020-11-18_11h08.06.578,premup-three_ses-02_part-02_label-phase2,3.2.4,Linux x86_64,60,,,,,,,,,,,,,,,,,,,,,,,,,,,,,
left,0.707999945,1,153,1,0,1,0,1,0,1,0,240,235,1,239,3,4,4,stim/44.jpeg,HouseObjects,1,stim/objects/HouseObjects/rug2.png,0.9,3,-0.2,-0.15,left,7,2020-11-18_11h08.06.578,premup-three_ses-02_part-02_label-phase2,3.2.4,Linux x86_64,60,,,,,,,,,,,,,,,,,,,,,,,,,,,,,
left,0.845000029,1,154,1,0,1,0,1,0,1,0,240,40,1,239,1,6,1,stim/61.jpeg,HouseObjects,1,stim/objects/HouseObjects/lintroller.png,0.5,4,0.2,-0.15,left,7,2020-11-18_11h08.06.578,premup-three_ses-02_part-02_label-phase2,3.2.4,Linux x86_64,60,,,,,,,,,,,,,,,,,,,,,,,,,,,,,
left,0.832999945,1,155,1,0,1,0,1,0,1,0,240,56,1,239,1,6,1,stim/61.jpeg,HouseObjects,1,stim/objects/HouseObjects/lintroller.png,0.5,4,0.2,-0.15,left,7,2020-11-18_11h08.06.578,premup-three_ses-02_part-02_label-phase2,3.2.4,Linux x86_64,60,,,,,,,,,,,,,,,,,,,,,,,,,,,,,
left,0.759000063,1,156,1,0,1,0,1,0,1,0,240,226,1,239,3,4,3,stim/43.jpeg,HouseObjects,1,stim/objects/HouseObjects/rubbergloves2.png,0.9,1,-0.2,0.15,left,7,2020-11-18_11h08.06.578,premup-three_ses-02_part-02_label-phase2,3.2.4,Linux x86_64,60,,,,,,,,,,,,,,,,,,,,,,,,,,,,,
left,0.853999853,1,157,1,0,1,0,1,0,1,0,240,89,1,239,2,1,2,stim/12.jpeg,HouseObjects,1,stim/objects/HouseObjects/remote.png,0.3,3,-0.2,-0.15,left,7,2020-11-18_11h08.06.578,premup-three_ses-02_part-02_label-phase2,3.2.4,Linux x86_64,60,,,,,,,,,,,,,,,,,,,,,,,,,,,,,
left,0.803999901,1,158,1,0,1,0,1,0,1,0,240,5,1,239,1,5,2,stim/52.jpeg,HouseObjects,1,stim/objects/HouseObjects/ironingboard.png,0.5,2,0.2,0.15,left,7,2020-11-18_11h08.06.578,premup-three_ses-02_part-02_label-phase2,3.2.4,Linux x86_64,60,,,,,,,,,,,,,,,,,,,,,,,,,,,,,
left,0.763999939,0,159,1,0,1,0,1,0,1,0,240,239,1,239,3,4,4,stim/44.jpeg,Instruments,2,stim/objects/Instruments/record_player2.png,0.1,3,-0.2,-0.15,right,7,2020-11-18_11h08.06.578,premup-three_ses-02_part-02_label-phase2,3.2.4,Linux x86_64,60,,,,,,,,,,,,,,,,,,,,,,,,,,,,,
,,0,160,1,0,1,0,1,0,1,0,240,78,1,239,1,6,3,stim/63.jpeg,Instruments,2,stim/objects/Instruments/musicstand.png,0.5,1,-0.2,0.15,right,7,2020-11-18_11h08.06.578,premup-three_ses-02_part-02_label-phase2,3.2.4,Linux x86_64,60,,,,,,,,,,,,,,,,,,,,,,,,,,,,,
left,0.623999834,1,161,1,0,1,0,1,0,1,0,240,201,1,239,3,4,2,stim/42.jpeg,HouseObjects,1,stim/objects/HouseObjects/remote2.png,0.9,2,0.2,0.15,left,7,2020-11-18_11h08.06.578,premup-three_ses-02_part-02_label-phase2,3.2.4,Linux x86_64,60,,,,,,,,,,,,,,,,,,,,,,,,,,,,,
left,0.728999853,0,162,1,0,1,0,1,0,1,0,240,60,1,239,1,6,1,stim/61.jpeg,Instruments,2,stim/objects/Instruments/metronome.png,0.5,1,-0.2,0.15,right,7,2020-11-18_11h08.06.578,premup-three_ses-02_part-02_label-phase2,3.2.4,Linux x86_64,60,,,,,,,,,,,,,,,,,,,,,,,,,,,,,
left,0.707999706,1,163,1,0,1,0,1,0,1,0,240,145,1,239,2,2,2,stim/22.jpeg,HouseObjects,1,stim/objects/HouseObjects/ironingboard2.png,0.7,1,-0.2,0.15,left,7,2020-11-18_11h08.06.578,premup-three_ses-02_part-02_label-phase2,3.2.4,Linux x86_64,60,,,,,,,,,,,,,,,,,,,,,,,,,,,,,
left,0.621999979,1,164,1,0,1,0,1,0,1,0,240,208,1,239,3,4,1,stim/41.jpeg,HouseObjects,1,stim/objects/HouseObjects/recyclingbin2.png,0.9,4,0.2,-0.15,left,7,2020-11-18_11h08.06.578,premup-three_ses-02_part-02_label-phase2,3.2.4,Linux x86_64,60,,,,,,,,,,,,,,,,,,,,,,,,,,,,,
right,0.665999889,1,165,1,0,1,0,1,0,1,0,240,69,1,239,1,6,2,stim/62.jpeg,Instruments,2,stim/objects/Instruments/musicsheet.png,0.5,4,0.2,-0.15,right,7,2020-11-18_11h08.06.578,premup-three_ses-02_part-02_label-phase2,3.2.4,Linux x86_64,60,,,,,,,,,,,,,,,,,,,,,,,,,,,,,
left,0.715999842,1,166,1,0,1,0,1,0,1,0,240,128,1,239,2,2,1,stim/21.jpeg,HouseObjects,1,stim/objects/HouseObjects/iron2.png,0.7,1,-0.2,0.15,left,7,2020-11-18_11h08.06.578,premup-three_ses-02_part-02_label-phase2,3.2.4,Linux x86_64,60,,,,,,,,,,,,,,,,,,,,,,,,,,,,,
left,0.648999929,0,167,1,0,1,0,1,0,1,0,240,148,1,239,2,2,1,stim/21.jpeg,Instruments,2,stim/objects/Instruments/keyboard2.png,0.3,2,0.2,0.15,right,7,2020-11-18_11h08.06.578,premup-three_ses-02_part-02_label-phase2,3.2.4,Linux x86_64,60,,,,,,,,,,,,,,,,,,,,,,,,,,,,,
right,0.7099998,0,168,1,0,1,0,1,0,1,0,240,41,1,239,1,6,2,stim/62.jpeg,HouseObjects,1,stim/objects/HouseObjects/match.png,0.5,2,0.2,0.15,left,7,2020-11-18_11h08.06.578,premup-three_ses-02_part-02_label-phase2,3.2.4,Linux x86_64,60,,,,,,,,,,,,,,,,,,,,,,,,,,,,,
right,0.840999842,1,169,1,0,1,0,1,0,1,0,240,196,1,239,3,3,1,stim/31.jpeg,Instruments,2,stim/objects/Instruments/metronome2.png,0.9,4,0.2,-0.15,right,7,2020-11-18_11h08.06.578,premup-three_ses-02_part-02_label-phase2,3.2.4,Linux x86_64,60,,,,,,,,,,,,,,,,,,,,,,,,,,,,,
,,0,170,1,0,1,0,1,0,1,0,240,217,1,239,3,4,2,stim/42.jpeg,HouseObjects,1,stim/objects/HouseObjects/remote2.png,0.9,4,0.2,-0.15,left,7,2020-11-18_11h08.06.578,premup-three_ses-02_part-02_label-phase2,3.2.4,Linux x86_64,60,,,,,,,,,,,,,,,,,,,,,,,,,,,,,
left,0.878000021,0,171,1,0,1,0,1,0,1,0,240,102,1,239,2,1,3,stim/13.jpeg,Instruments,2,stim/objects/Instruments/record.png,0.7,2,0.2,0.15,right,7,2020-11-18_11h08.06.578,premup-three_ses-02_part-02_label-phase2,3.2.4,Linux x86_64,60,,,,,,,,,,,,,,,,,,,,,,,,,,,,,
right,0.85800004,1,172,1,0,1,0,1,0,1,0,240,63,1,239,1,6,4,stim/64.jpeg,Instruments,2,stim/objects/Instruments/oboe.png,0.5,1,-0.2,0.15,right,7,2020-11-18_11h08.06.578,premup-three_ses-02_part-02_label-phase2,3.2.4,Linux x86_64,60,,,,,,,,,,,,,,,,,,,,,,,,,,,,,
right,0.56099987,1,173,1,0,1,0,1,0,1,0,240,186,1,239,3,3,3,stim/33.jpeg,Instruments,2,stim/objects/Instruments/musicstand2.png,0.9,1,-0.2,0.15,right,7,2020-11-18_11h08.06.578,premup-three_ses-02_part-02_label-phase2,3.2.4,Linux x86_64,60,,,,,,,,,,,,,,,,,,,,,,,,,,,,,
left,0.589999914,1,174,1,0,1,0,1,0,1,0,240,233,1,239,3,4,2,stim/42.jpeg,HouseObjects,1,stim/objects/HouseObjects/remote2.png,0.9,2,0.2,0.15,left,7,2020-11-18_11h08.06.578,premup-three_ses-02_part-02_label-phase2,3.2.4,Linux x86_64,60,,,,,,,,,,,,,,,,,,,,,,,,,,,,,
left,0.696999788,1,175,1,0,1,0,1,0,1,0,240,204,1,239,3,4,1,stim/41.jpeg,HouseObjects,1,stim/objects/HouseObjects/recyclingbin2.png,0.9,1,-0.2,0.15,left,7,2020-11-18_11h08.06.578,premup-three_ses-02_part-02_label-phase2,3.2.4,Linux x86_64,60,,,,,,,,,,,,,,,,,,,,,,,,,,,,,
left,0.84800005,0,176,1,0,1,0,1,0,1,0,240,94,1,239,2,1,3,stim/13.jpeg,Instruments,2,stim/objects/Instruments/record.png,0.7,2,0.2,0.15,right,7,2020-11-18_11h08.06.578,premup-three_ses-02_part-02_label-phase2,3.2.4,Linux x86_64,60,,,,,,,,,,,,,,,,,,,,,,,,,,,,,
right,0.549999952,1,177,1,0,1,0,1,0,1,0,240,179,1,239,3,3,4,stim/34.jpeg,Instruments,2,stim/objects/Instruments/oboe2.png,0.9,4,0.2,-0.15,right,7,2020-11-18_11h08.06.578,premup-three_ses-02_part-02_label-phase2,3.2.4,Linux x86_64,60,,,,,,,,,,,,,,,,,,,,,,,,,,,,,
right,0.789999962,1,178,1,0,1,0,1,0,1,0,240,116,1,239,2,1,1,stim/11.jpeg,Instruments,2,stim/objects/Instruments/panflute.png,0.7,2,0.2,0.15,right,7,2020-11-18_11h08.06.578,premup-three_ses-02_part-02_label-phase2,3.2.4,Linux x86_64,60,,,,,,,,,,,,,,,,,,,,,,,,,,,,,
right,0.599999905,1,179,1,0,1,0,1,0,1,0,240,185,1,239,3,3,2,stim/32.jpeg,Instruments,2,stim/objects/Instruments/musicsheet2.png,0.9,3,-0.2,-0.15,right,7,2020-11-18_11h08.06.578,premup-three_ses-02_part-02_label-phase2,3.2.4,Linux x86_64,60,,,,,,,,,,,,,,,,,,,,,,,,,,,,,
left,0.700000048,0,180,1,0,1,0,1,0,1,0,240,34,1,239,1,5,3,stim/53.jpeg,Instruments,2,stim/objects/Instruments/maraca.png,0.5,3,-0.2,-0.15,right,7,2020-11-18_11h08.06.578,premup-three_ses-02_part-02_label-phase2,3.2.4,Linux x86_64,60,,,,,,,,,,,,,,,,,,,,,,,,,,,,,
right,0.860000134,1,181,1,0,1,0,1,0,1,0,240,30,1,239,1,5,3,stim/53.jpeg,Instruments,2,stim/objects/Instruments/maraca.png,0.5,4,0.2,-0.15,right,7,2020-11-18_11h08.06.578,premup-three_ses-02_part-02_label-phase2,3.2.4,Linux x86_64,60,,,,,,,,,,,,,,,,,,,,,,,,,,,,,
left,0.674999952,1,182,1,0,1,0,1,0,1,0,240,220,1,239,3,4,1,stim/41.jpeg,HouseObjects,1,stim/objects/HouseObjects/recyclingbin2.png,0.9,2,0.2,0.15,left,7,2020-11-18_11h08.06.578,premup-three_ses-02_part-02_label-phase2,3.2.4,Linux x86_64,60,,,,,,,,,,,,,,,,,,,,,,,,,,,,,
left,0.733999968,1,183,1,0,1,0,1,0,1,0,240,202,1,239,3,4,3,stim/43.jpeg,HouseObjects,1,stim/objects/HouseObjects/rubbergloves2.png,0.9,4,0.2,-0.15,left,7,2020-11-18_11h08.06.578,premup-three_ses-02_part-02_label-phase2,3.2.4,Linux x86_64,60,,,,,,,,,,,,,,,,,,,,,,,,,,,,,
right,0.760999918,1,184,1,0,1,0,1,0,1,0,240,68,1,239,1,6,1,stim/61.jpeg,Instruments,2,stim/objects/Instruments/metronome.png,0.5,3,-0.2,-0.15,right,7,2020-11-18_11h08.06.578,premup-three_ses-02_part-02_label-phase2,3.2.4,Linux x86_64,60,,,,,,,,,,,,,,,,,,,,,,,,,,,,,
left,0.576999903,1,185,1,0,1,0,1,0,1,0,240,142,1,239,2,2,3,stim/23.jpeg,HouseObjects,1,stim/objects/HouseObjects/key2.png,0.7,1,-0.2,0.15,left,7,2020-11-18_11h08.06.578,premup-three_ses-02_part-02_label-phase2,3.2.4,Linux x86_64,60,,,,,,,,,,,,,,,,,,,,,,,,,,,,,
left,0.708999872,1,186,1,0,1,0,1,0,1,0,240,19,1,239,1,5,4,stim/54.jpeg,HouseObjects,1,stim/objects/HouseObjects/knife.png,0.5,3,-0.2,-0.15,left,7,2020-11-18_11h08.06.578,premup-three_ses-02_part-02_label-phase2,3.2.4,Linux x86_64,60,,,,,,,,,,,,,,,,,,,,,,,,,,,,,
,,0,187,1,0,1,0,1,0,1,0,240,96,1,239,2,1,1,stim/11.jpeg,Instruments,2,stim/objects/Instruments/panflute.png,0.7,2,0.2,0.15,right,7,2020-11-18_11h08.06.578,premup-three_ses-02_part-02_label-phase2,3.2.4,Linux x86_64,60,,,,,,,,,,,,,,,,,,,,,,,,,,,,,
left,0.673000097,1,188,1,0,1,0,1,0,1,0,240,133,1,239,2,2,2,stim/22.jpeg,HouseObjects,1,stim/objects/HouseObjects/ironingboard2.png,0.7,4,0.2,-0.15,left,7,2020-11-18_11h08.06.578,premup-three_ses-02_part-02_label-phase2,3.2.4,Linux x86_64,60,,,,,,,,,,,,,,,,,,,,,,,,,,,,,
,,0,189,1,0,1,0,1,0,1,0,240,33,1,239,1,5,2,stim/52.jpeg,Instruments,2,stim/objects/Instruments/laud.png,0.5,2,0.2,0.15,right,7,2020-11-18_11h08.06.578,premup-three_ses-02_part-02_label-phase2,3.2.4,Linux x86_64,60,,,,,,,,,,,,,,,,,,,,,,,,,,,,,
left,0.582999945,0,190,1,0,1,0,1,0,1,0,240,159,1,239,2,2,4,stim/24.jpeg,Instruments,2,stim/objects/Instruments/marimba2.png,0.3,3,-0.2,-0.15,right,7,2020-11-18_11h08.06.578,premup-three_ses-02_part-02_label-phase2,3.2.4,Linux x86_64,60,,,,,,,,,,,,,,,,,,,,,,,,,,,,,
right,0.678999901,1,191,1,0,1,0,1,0,1,0,240,165,1,239,3,3,2,stim/32.jpeg,Instruments,2,stim/objects/Instruments/musicsheet2.png,0.9,4,0.2,-0.15,right,7,2020-11-18_11h08.06.578,premup-three_ses-02_part-02_label-phase2,3.2.4,Linux x86_64,60,,,,,,,,,,,,,,,,,,,,,,,,,,,,,
right,0.770999908,0,192,1,0,1,0,1,0,1,0,240,3,1,239,1,5,4,stim/54.jpeg,HouseObjects,1,stim/objects/HouseObjects/knife.png,0.5,1,-0.2,0.15,left,7,2020-11-18_11h08.06.578,premup-three_ses-02_part-02_label-phase2,3.2.4,Linux x86_64,60,,,,,,,,,,,,,,,,,,,,,,,,,,,,,
right,0.625,1,193,1,0,1,0,1,0,1,0,240,180,1,239,3,3,1,stim/31.jpeg,Instruments,2,stim/objects/Instruments/metronome2.png,0.9,4,0.2,-0.15,right,7,2020-11-18_11h08.06.578,premup-three_ses-02_part-02_label-phase2,3.2.4,Linux x86_64,60,,,,,,,,,,,,,,,,,,,,,,,,,,,,,
right,0.667999744,0,194,1,0,1,0,1,0,1,0,240,6,1,239,1,5,3,stim/53.jpeg,HouseObjects,1,stim/objects/HouseObjects/key.png,0.5,2,0.2,0.15,left,7,2020-11-18_11h08.06.578,premup-three_ses-02_part-02_label-phase2,3.2.4,Linux x86_64,60,,,,,,,,,,,,,,,,,,,,,,,,,,,,,
left,0.861999989,0,195,1,0,1,0,1,0,1,0,240,36,1,239,1,5,1,stim/51.jpeg,Instruments,2,stim/objects/Instruments/keyboard.png,0.5,3,-0.2,-0.15,right,7,2020-11-18_11h08.06.578,premup-three_ses-02_part-02_label-phase2,3.2.4,Linux x86_64,60,,,,,,,,,,,,,,,,,,,,,,,,,,,,,
right,0.649999857,1,196,1,0,1,0,1,0,1,0,240,118,1,239,2,1,3,stim/13.jpeg,Instruments,2,stim/objects/Instruments/record.png,0.7,4,0.2,-0.15,right,7,2020-11-18_11h08.06.578,premup-three_ses-02_part-02_label-phase2,3.2.4,Linux x86_64,60,,,,,,,,,,,,,,,,,,,,,,,,,,,,,
right,0.489000082,1,197,1,0,1,0,1,0,1,0,240,191,1,239,3,3,4,stim/34.jpeg,Instruments,2,stim/objects/Instruments/oboe2.png,0.9,2,0.2,0.15,right,7,2020-11-18_11h08.06.578,premup-three_ses-02_part-02_label-phase2,3.2.4,Linux x86_64,60,,,,,,,,,,,,,,,,,,,,,,,,,,,,,
,,0,198,1,0,1,0,1,0,1,0,240,71,1,239,1,6,4,stim/64.jpeg,Instruments,2,stim/objects/Instruments/oboe.png,0.5,3,-0.2,-0.15,right,7,2020-11-18_11h08.06.578,premup-three_ses-02_part-02_label-phase2,3.2.4,Linux x86_64,60,,,,,,,,,,,,,,,,,,,,,,,,,,,,,
right,0.575000048,1,199,1,0,1,0,1,0,1,0,240,61,1,239,1,6,2,stim/62.jpeg,Instruments,2,stim/objects/Instruments/musicsheet.png,0.5,4,0.2,-0.15,right,7,2020-11-18_11h08.06.578,premup-three_ses-02_part-02_label-phase2,3.2.4,Linux x86_64,60,,,,,,,,,,,,,,,,,,,,,,,,,,,,,
left,0.649999857,1,200,1,0,1,0,1,0,1,0,240,144,1,239,2,2,1,stim/21.jpeg,HouseObjects,1,stim/objects/HouseObjects/iron2.png,0.7,1,-0.2,0.15,left,7,2020-11-18_11h08.06.578,premup-three_ses-02_part-02_label-phase2,3.2.4,Linux x86_64,60,,,,,,,,,,,,,,,,,,,,,,,,,,,,,
right,0.634999752,1,201,1,0,1,0,1,0,1,0,240,190,1,239,3,3,3,stim/33.jpeg,Instruments,2,stim/objects/Instruments/musicstand2.png,0.9,3,-0.2,-0.15,right,7,2020-11-18_11h08.06.578,premup-three_ses-02_part-02_label-phase2,3.2.4,Linux x86_64,60,,,,,,,,,,,,,,,,,,,,,,,,,,,,,
right,0.569999933,1,202,1,0,1,0,1,0,1,0,240,193,1,239,3,3,2,stim/32.jpeg,Instruments,2,stim/objects/Instruments/musicsheet2.png,0.9,4,0.2,-0.15,right,7,2020-11-18_11h08.06.578,premup-three_ses-02_part-02_label-phase2,3.2.4,Linux x86_64,60,,,,,,,,,,,,,,,,,,,,,,,,,,,,,
left,0.569999933,1,203,1,0,1,0,1,0,1,0,240,130,1,239,2,2,3,stim/23.jpeg,HouseObjects,1,stim/objects/HouseObjects/key2.png,0.7,4,0.2,-0.15,left,7,2020-11-18_11h08.06.578,premup-three_ses-02_part-02_label-phase2,3.2.4,Linux x86_64,60,,,,,,,,,,,,,,,,,,,,,,,,,,,,,
right,0.575999975,1,204,1,0,1,0,1,0,1,0,240,176,1,239,3,3,1,stim/31.jpeg,Instruments,2,stim/objects/Instruments/metronome2.png,0.9,1,-0.2,0.15,right,7,2020-11-18_11h08.06.578,premup-three_ses-02_part-02_label-phase2,3.2.4,Linux x86_64,60,,,,,,,,,,,,,,,,,,,,,,,,,,,,,
,,0,205,1,0,1,0,1,0,1,0,240,85,1,239,2,1,2,stim/12.jpeg,HouseObjects,1,stim/objects/HouseObjects/remote.png,0.3,1,-0.2,0.15,left,7,2020-11-18_11h08.06.578,premup-three_ses-02_part-02_label-phase2,3.2.4,Linux x86_64,60,,,,,,,,,,,,,,,,,,,,,,,,,,,,,
right,0.595000029,1,206,1,0,1,0,1,0,1,0,240,75,1,239,1,6,4,stim/64.jpeg,Instruments,2,stim/objects/Instruments/oboe.png,0.5,1,-0.2,0.15,right,7,2020-11-18_11h08.06.578,premup-three_ses-02_part-02_label-phase2,3.2.4,Linux x86_64,60,,,,,,,,,,,,,,,,,,,,,,,,,,,,,
left,0.68599987,1,207,1,0,1,0,1,0,1,0,240,224,1,239,3,4,1,stim/41.jpeg,HouseObjects,1,stim/objects/HouseObjects/recyclingbin2.png,0.9,2,0.2,0.15,left,7,2020-11-18_11h08.06.578,premup-three_ses-02_part-02_label-phase2,3.2.4,Linux x86_64,60,,,,,,,,,,,,,,,,,,,,,,,,,,,,,
right,0.621999979,1,208,1,0,1,0,1,0,1,0,240,184,1,239,3,3,1,stim/31.jpeg,Instruments,2,stim/objects/Instruments/metronome2.png,0.9,3,-0.2,-0.15,right,7,2020-11-18_11h08.06.578,premup-three_ses-02_part-02_label-phase2,3.2.4,Linux x86_64,60,,,,,,,,,,,,,,,,,,,,,,,,,,,,,
left,0.743999958,1,209,1,0,1,0,1,0,1,0,240,12,1,239,1,5,1,stim/51.jpeg,HouseObjects,1,stim/objects/HouseObjects/iron.png,0.5,1,-0.2,0.15,left,7,2020-11-18_11h08.06.578,premup-three_ses-02_part-02_label-phase2,3.2.4,Linux x86_64,60,,,,,,,,,,,,,,,,,,,,,,,,,,,,,
left,0.861999989,1,210,1,0,1,0,1,0,1,0,240,8,1,239,1,5,1,stim/51.jpeg,HouseObjects,1,stim/objects/HouseObjects/iron.png,0.5,2,0.2,0.15,left,7,2020-11-18_11h08.06.578,premup-three_ses-02_part-02_label-phase2,3.2.4,Linux x86_64,60,,,,,,,,,,,,,,,,,,,,,,,,,,,,,
,,0,211,1,0,1,0,1,0,1,0,240,32,1,239,1,5,1,stim/51.jpeg,Instruments,2,stim/objects/Instruments/keyboard.png,0.5,2,0.2,0.15,right,7,2020-11-18_11h08.06.578,premup-three_ses-02_part-02_label-phase2,3.2.4,Linux x86_64,60,,,,,,,,,,,,,,,,,,,,,,,,,,,,,
left,0.69900012,1,212,1,0,1,0,1,0,1,0,240,58,1,239,1,6,3,stim/63.jpeg,HouseObjects,1,stim/objects/HouseObjects/pan.png,0.5,1,-0.2,0.15,left,7,2020-11-18_11h08.06.578,premup-three_ses-02_part-02_label-phase2,3.2.4,Linux x86_64,60,,,,,,,,,,,,,,,,,,,,,,,,,,,,,
left,0.786000013,1,213,1,0,1,0,1,0,1,0,240,84,1,239,2,1,1,stim/11.jpeg,HouseObjects,1,stim/objects/HouseObjects/recyclingbin.png,0.3,4,0.2,-0.15,left,7,2020-11-18_11h08.06.578,premup-three_ses-02_part-02_label-phase2,3.2.4,Linux x86_64,60,,,,,,,,,,,,,,,,,,,,,,,,,,,,,
left,0.734999895,0,214,1,0,1,0,1,0,1,0,240,64,1,239,1,6,1,stim/61.jpeg,Instruments,2,stim/objects/Instruments/metronome.png,0.5,1,-0.2,0.15,right,7,2020-11-18_11h08.06.578,premup-three_ses-02_part-02_label-phase2,3.2.4,Linux x86_64,60,,,,,,,,,,,,,,,,,,,,,,,,,,,,,
,,0,215,1,0,1,0,1,0,1,0,240,22,1,239,1,5,3,stim/53.jpeg,Instruments,2,stim/objects/Instruments/maraca.png,0.5,4,0.2,-0.15,right,7,2020-11-18_11h08.06.578,premup-three_ses-02_part-02_label-phase2,3.2.4,Linux x86_64,60,,,,,,,,,,,,,,,,,,,,,,,,,,,,,
left,0.779999971,1,216,1,0,1,0,1,0,1,0,240,43,1,239,1,6,4,stim/64.jpeg,HouseObjects,1,stim/objects/HouseObjects/pitcher.png,0.5,1,-0.2,0.15,left,7,2020-11-18_11h08.06.578,premup-three_ses-02_part-02_label-phase2,3.2.4,Linux x86_64,60,,,,,,,,,,,,,,,,,,,,,,,,,,,,,
left,0.681999922,1,217,1,0,1,0,1,0,1,0,240,121,1,239,2,2,2,stim/22.jpeg,HouseObjects,1,stim/objects/HouseObjects/ironingboard2.png,0.7,3,-0.2,-0.15,left,7,2020-11-18_11h08.06.578,premup-three_ses-02_part-02_label-phase2,3.2.4,Linux x86_64,60,,,,,,,,,,,,,,,,,,,,,,,,,,,,,
right,0.842999935,1,218,1,0,1,0,1,0,1,0,240,198,1,239,3,3,3,stim/33.jpeg,Instruments,2,stim/objects/Instruments/musicstand2.png,0.9,3,-0.2,-0.15,right,7,2020-11-18_11h08.06.578,premup-three_ses-02_part-02_label-phase2,3.2.4,Linux x86_64,60,,,,,,,,,,,,,,,,,,,,,,,,,,,,,
right,0.816999912,1,219,1,0,1,0,1,0,1,0,240,21,1,239,1,5,2,stim/52.jpeg,Instruments,2,stim/objects/Instruments/laud.png,0.5,1,-0.2,0.15,right,7,2020-11-18_11h08.06.578,premup-three_ses-02_part-02_label-phase2,3.2.4,Linux x86_64,60,,,,,,,,,,,,,,,,,,,,,,,,,,,,,
left,0.706999779,1,220,1,0,1,0,1,0,1,0,240,11,1,239,1,5,4,stim/54.jpeg,HouseObjects,1,stim/objects/HouseObjects/knife.png,0.5,3,-0.2,-0.15,left,7,2020-11-18_11h08.06.578,premup-three_ses-02_part-02_label-phase2,3.2.4,Linux x86_64,60,,,,,,,,,,,,,,,,,,,,,,,,,,,,,
right,0.661000013,0,221,1,0,1,0,1,0,1,0,240,57,1,239,1,6,2,stim/62.jpeg,HouseObjects,1,stim/objects/HouseObjects/match.png,0.5,4,0.2,-0.15,left,7,2020-11-18_11h08.06.578,premup-three_ses-02_part-02_label-phase2,3.2.4,Linux x86_64,60,,,,,,,,,,,,,,,,,,,,,,,,,,,,,
left,0.651000023,0,222,1,0,1,0,1,0,1,0,240,28,1,239,1,5,1,stim/51.jpeg,Instruments,2,stim/objects/Instruments/keyboard.png,0.5,3,-0.2,-0.15,right,7,2020-11-18_11h08.06.578,premup-three_ses-02_part-02_label-phase2,3.2.4,Linux x86_64,60,,,,,,,,,,,,,,,,,,,,,,,,,,,,,
,,0,223,1,0,1,0,1,0,1,0,240,163,1,239,3,3,4,stim/34.jpeg,HouseObjects,1,stim/objects/HouseObjects/pitcher2.png,0.1,4,0.2,-0.15,left,7,2020-11-18_11h08.06.578,premup-three_ses-02_part-02_label-phase2,3.2.4,Linux x86_64,60,,,,,,,,,,,,,,,,,,,,,,,,,,,,,
,,0,224,1,0,1,0,1,0,1,0,240,92,1,239,2,1,1,stim/11.jpeg,Instruments,2,stim/objects/Instruments/panflute.png,0.7,1,-0.2,0.15,right,7,2020-11-18_11h08.06.578,premup-three_ses-02_part-02_label-phase2,3.2.4,Linux x86_64,60,,,,,,,,,,,,,,,,,,,,,,,,,,,,,
,,0,225,1,0,1,0,1,0,1,0,240,52,1,239,1,6,1,stim/61.jpeg,HouseObjects,1,stim/objects/HouseObjects/lintroller.png,0.5,4,0.2,-0.15,left,7,2020-11-18_11h08.06.578,premup-three_ses-02_part-02_label-phase2,3.2.4,Linux x86_64,60,,,,,,,,,,,,,,,,,,,,,,,,,,,,,
,,0,226,1,0,1,0,1,0,1,0,240,219,1,239,3,4,4,stim/44.jpeg,HouseObjects,1,stim/objects/HouseObjects/rug2.png,0.9,4,0.2,-0.15,left,7,2020-11-18_11h08.06.578,premup-three_ses-02_part-02_label-phase2,3.2.4,Linux x86_64,60,,,,,,,,,,,,,,,,,,,,,,,,,,,,,
left,0.638000011,0,227,1,0,1,0,1,0,1,0,240,154,1,239,2,2,3,stim/23.jpeg,Instruments,2,stim/objects/Instruments/maraca2.png,0.3,2,0.2,0.15,right,7,2020-11-18_11h08.06.578,premup-three_ses-02_part-02_label-phase2,3.2.4,Linux x86_64,60,,,,,,,,,,,,,,,,,,,,,,,,,,,,,
,,0,228,1,0,1,0,1,0,1,0,240,100,1,239,2,1,1,stim/11.jpeg,Instruments,2,stim/objects/Instruments/panflute.png,0.7,1,-0.2,0.15,right,7,2020-11-18_11h08.06.578,premup-three_ses-02_part-02_label-phase2,3.2.4,Linux x86_64,60,,,,,,,,,,,,,,,,,,,,,,,,,,,,,
left,0.645999908,1,229,1,0,1,0,1,0,1,0,240,127,1,239,2,2,4,stim/24.jpeg,HouseObjects,1,stim/objects/HouseObjects/knife2.png,0.7,4,0.2,-0.15,left,7,2020-11-18_11h08.06.578,premup-three_ses-02_part-02_label-phase2,3.2.4,Linux x86_64,60,,,,,,,,,,,,,,,,,,,,,,,,,,,,,
left,0.669999838,1,230,1,0,1,0,1,0,1,0,240,83,1,239,2,1,4,stim/14.jpeg,HouseObjects,1,stim/objects/HouseObjects/rug.png,0.3,4,0.2,-0.15,left,7,2020-11-18_11h08.06.578,premup-three_ses-02_part-02_label-phase2,3.2.4,Linux x86_64,60,,,,,,,,,,,,,,,,,,,,,,,,,,,,,
right,0.65899992,1,231,1,0,1,0,1,0,1,0,240,172,1,239,3,3,1,stim/31.jpeg,Instruments,2,stim/objects/Instruments/metronome2.png,0.9,2,0.2,0.15,right,7,2020-11-18_11h08.06.578,premup-three_ses-02_part-02_label-phase2,3.2.4,Linux x86_64,60,,,,,,,,,,,,,,,,,,,,,,,,,,,,,
left,0.611999989,1,232,1,0,1,0,1,0,1,0,240,122,1,239,2,2,3,stim/23.jpeg,HouseObjects,1,stim/objects/HouseObjects/key2.png,0.7,3,-0.2,-0.15,left,7,2020-11-18_11h08.06.578,premup-three_ses-02_part-02_label-phase2,3.2.4,Linux x86_64,60,,,,,,,,,,,,,,,,,,,,,,,,,,,,,
,,0,233,1,0,1,0,1,0,1,0,240,1,1,239,1,5,2,stim/52.jpeg,HouseObjects,1,stim/objects/HouseObjects/ironingboard.png,0.5,2,0.2,0.15,left,7,2020-11-18_11h08.06.578,premup-three_ses-02_part-02_label-phase2,3.2.4,Linux x86_64,60,,,,,,,,,,,,,,,,,,,,,,,,,,,,,
left,0.64199996,1,234,1,0,1,0,1,0,1,0,240,13,1,239,1,5,2,stim/52.jpeg,HouseObjects,1,stim/objects/HouseObjects/ironingboard.png,0.5,1,-0.2,0.15,left,7,2020-11-18_11h08.06.578,premup-three_ses-02_part-02_label-phase2,3.2.4,Linux x86_64,60,,,,,,,,,,,,,,,,,,,,,,,,,,,,,
right,0.59499979,1,235,1,0,1,0,1,0,1,0,240,117,1,239,2,1,2,stim/12.jpeg,Instruments,2,stim/objects/Instruments/pipepiano.png,0.7,3,-0.2,-0.15,right,7,2020-11-18_11h08.06.578,premup-three_ses-02_part-02_label-phase2,3.2.4,Linux x86_64,60,,,,,,,,,,,,,,,,,,,,,,,,,,,,,
left,0.650000095,0,236,1,0,1,0,1,0,1,0,240,156,1,239,2,2,1,stim/21.jpeg,Instruments,2,stim/objects/Instruments/keyboard2.png,0.3,4,0.2,-0.15,right,7,2020-11-18_11h08.06.578,premup-three_ses-02_part-02_label-phase2,3.2.4,Linux x86_64,60,,,,,,,,,,,,,,,,,,,,,,,,,,,,,
left,0.617000103,0,237,1,0,1,0,1,0,1,0,240,99,1,239,2,1,4,stim/14.jpeg,Instruments,2,stim/objects/Instruments/record_player.png,0.7,1,-0.2,0.15,right,7,2020-11-18_11h08.06.578,premup-three_ses-02_part-02_label-phase2,3.2.4,Linux x86_64,60,,,,,,,,,,,,,,,,,,,,,,,,,,,,,
left,0.633999825,1,238,1,0,1,0,1,0,1,0,240,213,1,239,3,4,2,stim/42.jpeg,HouseObjects,1,stim/objects/HouseObjects/remote2.png,0.9,4,0.2,-0.15,left,7,2020-11-18_11h08.06.578,premup-three_ses-02_part-02_label-phase2,3.2.4,Linux x86_64,60,,,,,,,,,,,,,,,,,,,,,,,,,,,,,
left,0.546999931,0,239,1,0,1,0,1,0,1,0,240,158,1,239,2,2,3,stim/23.jpeg,Instruments,2,stim/objects/Instruments/maraca2.png,0.3,4,0.2,-0.15,right,7,2020-11-18_11h08.06.578,premup-three_ses-02_part-02_label-phase2,3.2.4,Linux x86_64,60,,,,,,,,,,,,,,,,,,,,,,,,,,,,,
left,0.589999914,0,240,1,0,1,0,1,0,1,0,240,236,1,239,3,4,1,stim/41.jpeg,Instruments,2,stim/objects/Instruments/panflute2.png,0.1,1,-0.2,0.15,right,7,2020-11-18_11h08.06.578,premup-three_ses-02_part-02_label-phase2,3.2.4,Linux x86_64,60,,,,,,,,,,,,,,,,,,,,,,,,,,,,,
,,,,1,0,1,0,1,0,,,,,,,,3,,stim/31.jpeg,,,,,,,,,7,2020-11-18_11h08.06.578,premup-three_ses-02_part-02_label-phase2,3.2.4,Linux x86_64,60,10,19.02799988,,,1,0,6,2,1,5,Household items,65,75,Music items,25,35,,,,,,,,,,,,,
,,,,1,0,1,0,1,0,,,,,,,,1,,stim/11.jpeg,,,,,,,,,7,2020-11-18_11h08.06.578,premup-three_ses-02_part-02_label-phase2,3.2.4,Linux x86_64,60,30,5.890000105,,,1,0,6,0,1,5,Household items,45,55,Music items,45,55,,,,,,,,,,,,,
,,,,1,0,1,0,1,0,,,,,,,,2,,stim/21.jpeg,,,,,,,,,7,2020-11-18_11h08.06.578,premup-three_ses-02_part-02_label-phase2,3.2.4,Linux x86_64,60,10,5.632999897,,,1,0,6,1,1,5,Music items,45,55,Household items,45,55,,,,,,,,,,,,,
,,,,1,0,1,0,1,0,,,,,,,,5,,stim/51.jpeg,,,,,,,,,7,2020-11-18_11h08.06.578,premup-three_ses-02_part-02_label-phase2,3.2.4,Linux x86_64,60,66,6.888000011,,,1,0,6,4,1,5,Music items,5,15,Household items,85,95,,,,,,,,,,,,,
,,,,1,0,1,0,1,0,,,,,,,,6,,stim/61.jpeg,,,,,,,,,7,2020-11-18_11h08.06.578,premup-three_ses-02_part-02_label-phase2,3.2.4,Linux x86_64,60,50,3.489000082,,,1,0,6,5,1,5,Household items,5,15,Music items,85,95,,,,,,,,,,,,,
,,,,1,0,1,0,1,0,,,,,,,,4,,stim/41.jpeg,,,,,,,,,7,2020-11-18_11h08.06.578,premup-three_ses-02_part-02_label-phase2,3.2.4,Linux x86_64,60,89,5.700999975,,,1,0,6,3,1,5,Household items,65,75,Music items,25,35,,,,,,,,,,,,,
,,,,1,0,1,0,1,0,,,,,,,,,,,,,,,,,,,7,2020-11-18_11h08.06.578,premup-three_ses-02_part-02_label-phase2,3.2.4,Linux x86_64,60,,,,,,,,,,,,,,,,,,,,,,,,,,,,,
,,0,241,,,,,,,,,,,,,3,3,3,stim/33.jpeg,Instruments,2,stim/objects/Instruments/frenchhorn.png,0.9,3,-0.2,-0.15,right,7,2020-11-18_11h08.06.578,premup-three_ses-02_part-02_label-phase2,3.2.4,Linux x86_64,60,,,,,,,,,,,,,,,,,1,0,330,152,1,329,2,,,,,,
right,0.781999826,1,242,,,,,,,,,,,,,3,3,1,stim/31.jpeg,Instruments,2,stim/objects/Instruments/frenchhorn.png,0.9,3,-0.2,-0.15,right,7,2020-11-18_11h08.06.578,premup-three_ses-02_part-02_label-phase2,3.2.4,Linux x86_64,60,,,,,,,,,,,,,,,,,1,0,330,162,1,329,2,,,,,,
right,0.601999998,1,243,,,,,,,,,,,,,3,3,1,stim/31.jpeg,Instruments,2,stim/objects/Instruments/grandpiano.png,0.9,1,-0.2,0.15,right,7,2020-11-18_11h08.06.578,premup-three_ses-02_part-02_label-phase2,3.2.4,Linux x86_64,60,,,,,,,,,,,,,,,,,1,0,330,154,1,329,2,,,,,,
,,0,244,,,,,,,,,,,,,1,6,2,stim/62.jpeg,Instruments,2,stim/objects/Instruments/timbal.png,0.5,4,0.2,-0.15,right,7,2020-11-18_11h08.06.578,premup-three_ses-02_part-02_label-phase2,3.2.4,Linux x86_64,60,,,,,,,,,,,,,,,,,1,0,330,57,1,329,1,,,,,,
,,0,245,,,,,,,,,,,,,1,5,4,stim/54.jpeg,HouseObjects,1,stim/objects/HouseObjects/barbecuelighter.png,0.5,3,-0.2,-0.15,left,7,2020-11-18_11h08.06.578,premup-three_ses-02_part-02_label-phase2,3.2.4,Linux x86_64,60,,,,,,,,,,,,,,,,,1,0,330,7,1,329,2,,,,,,
right,0.608999968,0,246,,,,,,,,,,,,,3,3,1,stim/31.jpeg,HouseObjects,1,stim/objects/HouseObjects/glass2.png,0.1,2,0.2,0.15,left,7,2020-11-18_11h08.06.578,premup-three_ses-02_part-02_label-phase2,3.2.4,Linux x86_64,60,,,,,,,,,,,,,,,,,1,0,330,134,1,329,1,,,,,,
left,0.623000145,1,247,,,,,,,,,,,,,3,4,3,stim/43.jpeg,HouseObjects,1,stim/objects/HouseObjects/thread2.png,0.9,2,0.2,0.15,left,7,2020-11-18_11h08.06.578,premup-three_ses-02_part-02_label-phase2,3.2.4,Linux x86_64,60,,,,,,,,,,,,,,,,,1,0,330,316,1,329,1,,,,,,
right,0.653999805,1,248,,,,,,,,,,,,,3,3,2,stim/32.jpeg,Instruments,2,stim/objects/Instruments/gong.png,0.9,3,-0.2,-0.15,right,7,2020-11-18_11h08.06.578,premup-three_ses-02_part-02_label-phase2,3.2.4,Linux x86_64,60,,,,,,,,,,,,,,,,,1,0,330,143,1,329,2,,,,,,
,,0,249,,,,,,,,,,,,,3,4,4,stim/44.jpeg,HouseObjects,1,stim/objects/HouseObjects/dustpan.png,0.9,3,-0.2,-0.15,left,7,2020-11-18_11h08.06.578,premup-three_ses-02_part-02_label-phase2,3.2.4,Linux x86_64,60,,,,,,,,,,,,,,,,,1,0,330,301,1,329,2,,,,,,
right,0.671999931,0,250,,,,,,,,,,,,,3,3,2,stim/32.jpeg,HouseObjects,1,stim/objects/HouseObjects/glassmop2.png,0.1,4,0.2,-0.15,left,7,2020-11-18_11h08.06.578,premup-three_ses-02_part-02_label-phase2,3.2.4,Linux x86_64,60,,,,,,,,,,,,,,,,,1,0,330,135,1,329,1,,,,,,
right,0.590999842,1,251,,,,,,,,,,,,,3,3,3,stim/33.jpeg,Instruments,2,stim/objects/Instruments/grandpiano.png,0.9,3,-0.2,-0.15,right,7,2020-11-18_11h08.06.578,premup-three_ses-02_part-02_label-phase2,3.2.4,Linux x86_64,60,,,,,,,,,,,,,,,,,1,0,330,184,1,329,2,,,,,,
,,0,252,,,,,,,,,,,,,3,3,4,stim/34.jpeg,Instruments,2,stim/objects/Instruments/grandpiano.png,0.9,1,-0.2,0.15,right,7,2020-11-18_11h08.06.578,premup-three_ses-02_part-02_label-phase2,3.2.4,Linux x86_64,60,,,,,,,,,,,,,,,,,1,0,330,169,1,329,2,,,,,,
,,0,253,,,,,,,,,,,,,1,5,2,stim/52.jpeg,HouseObjects,1,stim/objects/HouseObjects/ashtray.png,0.5,3,-0.2,-0.15,left,7,2020-11-18_11h08.06.578,premup-three_ses-02_part-02_label-phase2,3.2.4,Linux x86_64,60,,,,,,,,,,,,,,,,,1,0,330,5,1,329,2,,,,,,
,,0,254,,,,,,,,,,,,,3,4,2,stim/42.jpeg,HouseObjects,1,stim/objects/HouseObjects/doormat.png,0.9,1,-0.2,0.15,left,7,2020-11-18_11h08.06.578,premup-three_ses-02_part-02_label-phase2,3.2.4,Linux x86_64,60,,,,,,,,,,,,,,,,,1,0,330,255,1,329,2,,,,,,
right,0.710999966,0,255,,,,,,,,,,,,,1,6,2,stim/62.jpeg,HouseObjects,1,stim/objects/HouseObjects/bucket.png,0.5,3,-0.2,-0.15,left,7,2020-11-18_11h08.06.578,premup-three_ses-02_part-02_label-phase2,3.2.4,Linux x86_64,60,,,,,,,,,,,,,,,,,1,0,330,33,1,329,2,,,,,,
left,0.662999868,0,256,,,,,,,,,,,,,1,5,4,stim/54.jpeg,Instruments,2,stim/objects/Instruments/accordion.png,0.5,2,0.2,0.15,right,7,2020-11-18_11h08.06.578,premup-three_ses-02_part-02_label-phase2,3.2.4,Linux x86_64,60,,,,,,,,,,,,,,,,,1,0,330,15,1,329,2,,,,,,
right,0.493999958,1,257,,,,,,,,,,,,,3,3,4,stim/34.jpeg,Instruments,2,stim/objects/Instruments/frenchhorn.png,0.9,2,0.2,0.15,right,7,2020-11-18_11h08.06.578,premup-three_ses-02_part-02_label-phase2,3.2.4,Linux x86_64,60,,,,,,,,,,,,,,,,,1,0,330,157,1,329,2,,,,,,
left,0.502000093,1,258,,,,,,,,,,,,,3,4,3,stim/43.jpeg,HouseObjects,1,stim/objects/HouseObjects/dustpan.png,0.9,1,-0.2,0.15,left,7,2020-11-18_11h08.06.578,premup-three_ses-02_part-02_label-phase2,3.2.4,Linux x86_64,60,,,,,,,,,,,,,,,,,1,0,330,256,1,329,2,,,,,,
right,0.572999954,1,259,,,,,,,,,,,,,3,3,4,stim/34.jpeg,Instruments,2,stim/objects/Instruments/frenchhorn.png,0.9,1,-0.2,0.15,right,7,2020-11-18_11h08.06.578,premup-three_ses-02_part-02_label-phase2,3.2.4,Linux x86_64,60,,,,,,,,,,,,,,,,,1,0,330,217,1,329,2,,,,,,
,,0,260,,,,,,,,,,,,,3,3,4,stim/34.jpeg,HouseObjects,1,stim/objects/HouseObjects/garbagebin2.png,0.1,2,0.2,0.15,left,7,2020-11-18_11h08.06.578,premup-three_ses-02_part-02_label-phase2,3.2.4,Linux x86_64,60,,,,,,,,,,,,,,,,,1,0,330,133,1,329,1,,,,,,
right,0.880000114,1,261,,,,,,,,,,,,,3,3,2,stim/32.jpeg,Instruments,2,stim/objects/Instruments/flute.png,0.9,1,-0.2,0.15,right,7,2020-11-18_11h08.06.578,premup-three_ses-02_part-02_label-phase2,3.2.4,Linux x86_64,60,,,,,,,,,,,,,,,,,1,0,330,215,1,329,2,,,,,,
,,0,262,,,,,,,,,,,,,1,5,4,stim/54.jpeg,Instruments,2,stim/objects/Instruments/banjo.png,0.5,2,0.2,0.15,right,7,2020-11-18_11h08.06.578,premup-three_ses-02_part-02_label-phase2,3.2.4,Linux x86_64,60,,,,,,,,,,,,,,,,,1,0,330,23,1,329,2,,,,,,
right,0.657999992,1,263,,,,,,,,,,,,,2,1,3,stim/13.jpeg,Instruments,2,stim/objects/Instruments/accordion2.png,0.7,4,0.2,-0.15,right,7,2020-11-18_11h08.06.578,premup-three_ses-02_part-02_label-phase2,3.2.4,Linux x86_64,60,,,,,,,,,,,,,,,,,1,0,330,90,1,329,1,,,,,,
right,0.846999884,1,264,,,,,,,,,,,,,3,3,4,stim/34.jpeg,Instruments,2,stim/objects/Instruments/flutetrans2.png,0.9,3,-0.2,-0.15,right,7,2020-11-18_11h08.06.578,premup-three_ses-02_part-02_label-phase2,3.2.4,Linux x86_64,60,,,,,,,,,,,,,,,,,1,0,330,221,1,329,1,,,,,,
left,0.575999737,1,265,,,,,,,,,,,,,3,4,2,stim/42.jpeg,HouseObjects,1,stim/objects/HouseObjects/glass.png,0.9,2,0.2,0.15,left,7,2020-11-18_11h08.06.578,premup-three_ses-02_part-02_label-phase2,3.2.4,Linux x86_64,60,,,,,,,,,,,,,,,,,1,0,330,299,1,329,2,,,,,,
left,0.809999943,0,266,,,,,,,,,,,,,2,2,4,stim/24.jpeg,Instruments,2,stim/objects/Instruments/doublebass2.png,0.3,1,-0.2,0.15,right,7,2020-11-18_11h08.06.578,premup-three_ses-02_part-02_label-phase2,3.2.4,Linux x86_64,60,,,,,,,,,,,,,,,,,1,0,330,126,1,329,1,,,,,,
left,0.839999914,1,267,,,,,,,,,,,,,1,5,2,stim/52.jpeg,HouseObjects,1,stim/objects/HouseObjects/handvacuum.png,0.5,1,-0.2,0.15,left,7,2020-11-18_11h08.06.578,premup-three_ses-02_part-02_label-phase2,3.2.4,Linux x86_64,60,,,,,,,,,,,,,,,,,1,0,330,13,1,329,1,,,,,,
,,0,268,,,,,,,,,,,,,3,4,3,stim/43.jpeg,HouseObjects,1,stim/objects/HouseObjects/glass.png,0.9,4,0.2,-0.15,left,7,2020-11-18_11h08.06.578,premup-three_ses-02_part-02_label-phase2,3.2.4,Linux x86_64,60,,,,,,,,,,,,,,,,,1,0,330,264,1,329,2,,,,,,
right,0.742999792,1,269,,,,,,,,,,,,,1,6,4,stim/64.jpeg,Instruments,2,stim/objects/Instruments/trombone.png,0.5,2,0.2,0.15,right,7,2020-11-18_11h08.06.578,premup-three_ses-02_part-02_label-phase2,3.2.4,Linux x86_64,60,,,,,,,,,,,,,,,,,1,0,330,59,1,329,1,,,,,,
left,0.63499999,1,270,,,,,,,,,,,,,3,4,2,stim/42.jpeg,HouseObjects,1,stim/objects/HouseObjects/doormat.png,0.9,1,-0.2,0.15,left,7,2020-11-18_11h08.06.578,premup-three_ses-02_part-02_label-phase2,3.2.4,Linux x86_64,60,,,,,,,,,,,,,,,,,1,0,330,275,1,329,2,,,,,,
left,0.628000021,0,271,,,,,,,,,,,,,1,5,1,stim/51.jpeg,Instruments,2,stim/objects/Instruments/bassdrum.png,0.5,2,0.2,0.15,right,7,2020-11-18_11h08.06.578,premup-three_ses-02_part-02_label-phase2,3.2.4,Linux x86_64,60,,,,,,,,,,,,,,,,,1,0,330,24,1,329,2,,,,,,
left,0.578000069,1,272,,,,,,,,,,,,,3,4,2,stim/42.jpeg,HouseObjects,1,stim/objects/HouseObjects/garbagebin.png,0.9,2,0.2,0.15,left,7,2020-11-18_11h08.06.578,premup-three_ses-02_part-02_label-phase2,3.2.4,Linux x86_64,60,,,,,,,,,,,,,,,,,1,0,330,243,1,329,2,,,,,,
,,0,273,,,,,,,,,,,,,2,1,1,stim/11.jpeg,HouseObjects,1,stim/objects/HouseObjects/wateringcan.png,0.3,4,0.2,-0.15,left,7,2020-11-18_11h08.06.578,premup-three_ses-02_part-02_label-phase2,3.2.4,Linux x86_64,60,,,,,,,,,,,,,,,,,1,0,330,64,1,329,1,,,,,,
left,0.544999838,1,274,,,,,,,,,,,,,3,4,1,stim/41.jpeg,HouseObjects,1,stim/objects/HouseObjects/doormat.png,0.9,3,-0.2,-0.15,left,7,2020-11-18_11h08.06.578,premup-three_ses-02_part-02_label-phase2,3.2.4,Linux x86_64,60,,,,,,,,,,,,,,,,,1,0,330,270,1,329,2,,,,,,
left,0.632999897,1,275,,,,,,,,,,,,,1,5,2,stim/52.jpeg,HouseObjects,1,stim/objects/HouseObjects/ballofstring.png,0.5,4,0.2,-0.15,left,7,2020-11-18_11h08.06.578,premup-three_ses-02_part-02_label-phase2,3.2.4,Linux x86_64,60,,,,,,,,,,,,,,,,,1,0,330,1,1,329,2,,,,,,
right,0.55099988,1,276,,,,,,,,,,,,,3,3,3,stim/33.jpeg,Instruments,2,stim/objects/Instruments/flute.png,0.9,3,-0.2,-0.15,right,7,2020-11-18_11h08.06.578,premup-three_ses-02_part-02_label-phase2,3.2.4,Linux x86_64,60,,,,,,,,,,,,,,,,,1,0,330,140,1,329,2,,,,,,
right,0.555000067,1,277,,,,,,,,,,,,,3,3,1,stim/31.jpeg,Instruments,2,stim/objects/Instruments/flute.png,0.9,4,0.2,-0.15,right,7,2020-11-18_11h08.06.578,premup-three_ses-02_part-02_label-phase2,3.2.4,Linux x86_64,60,,,,,,,,,,,,,,,,,1,0,330,170,1,329,2,,,,,,
left,0.80700016,1,278,,,,,,,,,,,,,2,1,1,stim/11.jpeg,HouseObjects,1,stim/objects/HouseObjects/basket2.png,0.3,1,-0.2,0.15,left,7,2020-11-18_11h08.06.578,premup-three_ses-02_part-02_label-phase2,3.2.4,Linux x86_64,60,,,,,,,,,,,,,,,,,1,0,330,68,1,329,1,,,,,,
left,0.586999893,1,279,,,,,,,,,,,,,3,4,3,stim/43.jpeg,HouseObjects,1,stim/objects/HouseObjects/flyswatter.png,0.9,1,-0.2,0.15,left,7,2020-11-18_11h08.06.578,premup-three_ses-02_part-02_label-phase2,3.2.4,Linux x86_64,60,,,,,,,,,,,,,,,,,1,0,330,252,1,329,2,,,,,,
right,0.611000061,1,280,,,,,,,,,,,,,3,3,2,stim/32.jpeg,Instruments,2,stim/objects/Instruments/frenchhorn.png,0.9,3,-0.2,-0.15,right,7,2020-11-18_11h08.06.578,premup-three_ses-02_part-02_label-phase2,3.2.4,Linux x86_64,60,,,,,,,,,,,,,,,,,1,0,330,187,1,329,2,,,,,,
right,0.570999861,0,281,,,,,,,,,,,,,3,3,1,stim/31.jpeg,HouseObjects,1,stim/objects/HouseObjects/handvacuum2.png,0.1,1,-0.2,0.15,left,7,2020-11-18_11h08.06.578,premup-three_ses-02_part-02_label-phase2,3.2.4,Linux x86_64,60,,,,,,,,,,,,,,,,,1,0,330,138,1,329,1,,,,,,
right,0.559999943,1,282,,,,,,,,,,,,,3,3,3,stim/33.jpeg,Instruments,2,stim/objects/Instruments/flute.png,0.9,3,-0.2,-0.15,right,7,2020-11-18_11h08.06.578,premup-three_ses-02_part-02_label-phase2,3.2.4,Linux x86_64,60,,,,,,,,,,,,,,,,,1,0,330,180,1,329,2,,,,,,
right,0.50999999,1,283,,,,,,,,,,,,,3,3,3,stim/33.jpeg,Instruments,2,stim/objects/Instruments/grandpiano.png,0.9,1,-0.2,0.15,right,7,2020-11-18_11h08.06.578,premup-three_ses-02_part-02_label-phase2,3.2.4,Linux x86_64,60,,,,,,,,,,,,,,,,,1,0,330,164,1,329,2,,,,,,
left,0.63499999,1,284,,,,,,,,,,,,,3,4,1,stim/41.jpeg,HouseObjects,1,stim/objects/HouseObjects/vacuumcleaner2.png,0.9,2,0.2,0.15,left,7,2020-11-18_11h08.06.578,premup-three_ses-02_part-02_label-phase2,3.2.4,Linux x86_64,60,,,,,,,,,,,,,,,,,1,0,330,318,1,329,1,,,,,,
left,0.566999912,1,285,,,,,,,,,,,,,2,2,3,stim/23.jpeg,HouseObjects,1,stim/objects/HouseObjects/dishsoap.png,0.7,4,0.2,-0.15,left,7,2020-11-18_11h08.06.578,premup-three_ses-02_part-02_label-phase2,3.2.4,Linux x86_64,60,,,,,,,,,,,,,,,,,1,0,330,109,1,329,2,,,,,,
left,0.614000082,1,286,,,,,,,,,,,,,3,4,3,stim/43.jpeg,HouseObjects,1,stim/objects/HouseObjects/flyswatter.png,0.9,2,0.2,0.15,left,7,2020-11-18_11h08.06.578,premup-three_ses-02_part-02_label-phase2,3.2.4,Linux x86_64,60,,,,,,,,,,,,,,,,,1,0,330,292,1,329,2,,,,,,
,,0,287,,,,,,,,,,,,,2,1,1,stim/11.jpeg,Instruments,2,stim/objects/Instruments/vuvuzela.png,0.7,4,0.2,-0.15,right,7,2020-11-18_11h08.06.578,premup-three_ses-02_part-02_label-phase2,3.2.4,Linux x86_64,60,,,,,,,,,,,,,,,,,1,0,330,88,1,329,1,,,,,,
right,0.53399992,1,288,,,,,,,,,,,,,3,3,2,stim/32.jpeg,Instruments,2,stim/objects/Instruments/frenchhorn.png,0.9,4,0.2,-0.15,right,7,2020-11-18_11h08.06.578,premup-three_ses-02_part-02_label-phase2,3.2.4,Linux x86_64,60,,,,,,,,,,,,,,,,,1,0,330,207,1,329,2,,,,,,
left,0.495999813,1,289,,,,,,,,,,,,,2,2,2,stim/22.jpeg,HouseObjects,1,stim/objects/HouseObjects/clothespin2.png,0.7,4,0.2,-0.15,left,7,2020-11-18_11h08.06.578,premup-three_ses-02_part-02_label-phase2,3.2.4,Linux x86_64,60,,,,,,,,,,,,,,,,,1,0,330,116,1,329,1,,,,,,
left,0.703999758,1,290,,,,,,,,,,,,,1,5,1,stim/51.jpeg,HouseObjects,1,stim/objects/HouseObjects/handbrush.png,0.5,3,-0.2,-0.15,left,7,2020-11-18_11h08.06.578,premup-three_ses-02_part-02_label-phase2,3.2.4,Linux x86_64,60,,,,,,,,,,,,,,,,,1,0,330,12,1,329,1,,,,,,
right,0.558999777,1,291,,,,,,,,,,,,,3,3,4,stim/34.jpeg,Instruments,2,stim/objects/Instruments/flutetrans.png,0.9,2,0.2,0.15,right,7,2020-11-18_11h08.06.578,premup-three_ses-02_part-02_label-phase2,3.2.4,Linux x86_64,60,,,,,,,,,,,,,,,,,1,0,330,141,1,329,2,,,,,,
left,0.620000124,1,292,,,,,,,,,,,,,1,5,1,stim/51.jpeg,HouseObjects,1,stim/objects/HouseObjects/basket.png,0.5,2,0.2,0.15,left,7,2020-11-18_11h08.06.578,premup-three_ses-02_part-02_label-phase2,3.2.4,Linux x86_64,60,,,,,,,,,,,,,,,,,1,0,330,8,1,329,2,,,,,,
right,0.489999771,1,293,,,,,,,,,,,,,3,3,2,stim/32.jpeg,Instruments,2,stim/objects/Instruments/flutetrans.png,0.9,1,-0.2,0.15,right,7,2020-11-18_11h08.06.578,premup-three_ses-02_part-02_label-phase2,3.2.4,Linux x86_64,60,,,,,,,,,,,,,,,,,1,0,330,191,1,329,2,,,,,,
right,0.47300005,1,294,,,,,,,,,,,,,3,3,3,stim/33.jpeg,Instruments,2,stim/objects/Instruments/flutetrans.png,0.9,2,0.2,0.15,right,7,2020-11-18_11h08.06.578,premup-three_ses-02_part-02_label-phase2,3.2.4,Linux x86_64,60,,,,,,,,,,,,,,,,,1,0,330,216,1,329,2,,,,,,
right,0.847999811,0,295,,,,,,,,,,,,,1,6,1,stim/61.jpeg,HouseObjects,1,stim/objects/HouseObjects/saw.png,0.5,4,0.2,-0.15,left,7,2020-11-18_11h08.06.578,premup-three_ses-02_part-02_label-phase2,3.2.4,Linux x86_64,60,,,,,,,,,,,,,,,,,1,0,330,40,1,329,1,,,,,,
left,0.57799983,1,296,,,,,,,,,,,,,3,4,4,stim/44.jpeg,HouseObjects,1,stim/objects/HouseObjects/garbagebin.png,0.9,4,0.2,-0.15,left,7,2020-11-18_11h08.06.578,premup-three_ses-02_part-02_label-phase2,3.2.4,Linux x86_64,60,,,,,,,,,,,,,,,,,1,0,330,293,1,329,2,,,,,,
left,0.548000097,1,297,,,,,,,,,,,,,3,4,4,stim/44.jpeg,HouseObjects,1,stim/objects/HouseObjects/garbagebin.png,0.9,1,-0.2,0.15,left,7,2020-11-18_11h08.06.578,premup-three_ses-02_part-02_label-phase2,3.2.4,Linux x86_64,60,,,,,,,,,,,,,,,,,1,0,330,233,1,329,2,,,,,,
left,0.681999922,0,298,,,,,,,,,,,,,1,6,1,stim/61.jpeg,Instruments,2,stim/objects/Instruments/clarinet.png,0.5,4,0.2,-0.15,right,7,2020-11-18_11h08.06.578,premup-three_ses-02_part-02_label-phase2,3.2.4,Linux x86_64,60,,,,,,,,,,,,,,,,,1,0,330,48,1,329,2,,,,,,
right,0.555999994,1,299,,,,,,,,,,,,,3,3,4,stim/34.jpeg,Instruments,2,stim/objects/Instruments/frenchhorn.png,0.9,4,0.2,-0.15,right,7,2020-11-18_11h08.06.578,premup-three_ses-02_part-02_label-phase2,3.2.4,Linux x86_64,60,,,,,,,,,,,,,,,,,1,0,330,177,1,329,2,,,,,,
left,0.760999918,1,300,,,,,,,,,,,,,3,4,3,stim/43.jpeg,HouseObjects,1,stim/objects/HouseObjects/glass.png,0.9,3,-0.2,-0.15,left,7,2020-11-18_11h08.06.578,premup-three_ses-02_part-02_label-phase2,3.2.4,Linux x86_64,60,,,,,,,,,,,,,,,,,1,0,330,304,1,329,2,,,,,,
right,0.727999926,1,301,,,,,,,,,,,,,3,3,2,stim/32.jpeg,Instruments,2,stim/objects/Instruments/frenchhorn.png,0.9,4,0.2,-0.15,right,7,2020-11-18_11h08.06.578,premup-three_ses-02_part-02_label-phase2,3.2.4,Linux x86_64,60,,,,,,,,,,,,,,,,,1,0,330,147,1,329,2,,,,,,
right,0.49000001,1,302,,,,,,,,,,,,,3,3,1,stim/31.jpeg,Instruments,2,stim/objects/Instruments/flute.png,0.9,4,0.2,-0.15,right,7,2020-11-18_11h08.06.578,premup-three_ses-02_part-02_label-phase2,3.2.4,Linux x86_64,60,,,,,,,,,,,,,,,,,1,0,330,190,1,329,2,,,,,,
left,0.634000063,1,303,,,,,,,,,,,,,2,2,1,stim/21.jpeg,HouseObjects,1,stim/objects/HouseObjects/clothesdryingrack.png,0.7,3,-0.2,-0.15,left,7,2020-11-18_11h08.06.578,premup-three_ses-02_part-02_label-phase2,3.2.4,Linux x86_64,60,,,,,,,,,,,,,,,,,1,0,330,95,1,329,2,,,,,,
left,0.539999962,1,304,,,,,,,,,,,,,3,4,1,stim/41.jpeg,HouseObjects,1,stim/objects/HouseObjects/glass.png,0.9,3,-0.2,-0.15,left,7,2020-11-18_11h08.06.578,premup-three_ses-02_part-02_label-phase2,3.2.4,Linux x86_64,60,,,,,,,,,,,,,,,,,1,0,330,294,1,329,2,,,,,,
left,0.54399991,0,305,,,,,,,,,,,,,2,1,2,stim/12.jpeg,Instruments,2,stim/objects/Instruments/electricdrumset.png,0.7,3,-0.2,-0.15,right,7,2020-11-18_11h08.06.578,premup-three_ses-02_part-02_label-phase2,3.2.4,Linux x86_64,60,,,,,,,,,,,,,,,,,1,0,330,73,1,329,2,,,,,,
left,0.625,1,306,,,,,,,,,,,,,2,2,2,stim/22.jpeg,HouseObjects,1,stim/objects/HouseObjects/clothesdryingrack.png,0.7,2,0.2,0.15,left,7,2020-11-18_11h08.06.578,premup-three_ses-02_part-02_label-phase2,3.2.4,Linux x86_64,60,,,,,,,,,,,,,,,,,1,0,330,100,1,329,2,,,,,,
right,0.565999746,1,307,,,,,,,,,,,,,3,3,1,stim/31.jpeg,Instruments,2,stim/objects/Instruments/flutetrans.png,0.9,3,-0.2,-0.15,right,7,2020-11-18_11h08.06.578,premup-three_ses-02_part-02_label-phase2,3.2.4,Linux x86_64,60,,,,,,,,,,,,,,,,,1,0,330,166,1,329,2,,,,,,
left,0.654999733,0,308,,,,,,,,,,,,,2,1,4,stim/14.jpeg,Instruments,2,stim/objects/Instruments/electricguitar.png,0.7,1,-0.2,0.15,right,7,2020-11-18_11h08.06.578,premup-three_ses-02_part-02_label-phase2,3.2.4,Linux x86_64,60,,,,,,,,,,,,,,,,,1,0,330,79,1,329,2,,,,,,
left,0.641000032,1,309,,,,,,,,,,,,,2,2,4,stim/24.jpeg,HouseObjects,1,stim/objects/HouseObjects/clothespin.png,0.7,1,-0.2,0.15,left,7,2020-11-18_11h08.06.578,premup-three_ses-02_part-02_label-phase2,3.2.4,Linux x86_64,60,,,,,,,,,,,,,,,,,1,0,330,106,1,329,2,,,,,,
,,0,310,,,,,,,,,,,,,3,4,3,stim/43.jpeg,Instruments,2,stim/objects/Instruments/speaker2.png,0.1,4,0.2,-0.15,right,7,2020-11-18_11h08.06.578,premup-three_ses-02_part-02_label-phase2,3.2.4,Linux x86_64,60,,,,,,,,,,,,,,,,,1,0,330,320,1,329,1,,,,,,
,,0,311,,,,,,,,,,,,,3,3,2,stim/32.jpeg,Instruments,2,stim/objects/Instruments/gong.png,0.9,2,0.2,0.15,right,7,2020-11-18_11h08.06.578,premup-three_ses-02_part-02_label-phase2,3.2.4,Linux x86_64,60,,,,,,,,,,,,,,,,,1,0,330,203,1,329,2,,,,,,
left,0.541000128,0,312,,,,,,,,,,,,,2,2,2,stim/22.jpeg,Instruments,2,stim/objects/Instruments/electricdrumset2.png,0.3,2,0.2,0.15,right,7,2020-11-18_11h08.06.578,premup-three_ses-02_part-02_label-phase2,3.2.4,Linux x86_64,60,,,,,,,,,,,,,,,,,1,0,330,128,1,329,1,,,,,,
right,0.548999786,1,313,,,,,,,,,,,,,3,3,1,stim/31.jpeg,Instruments,2,stim/objects/Instruments/flutetrans.png,0.9,3,-0.2,-0.15,right,7,2020-11-18_11h08.06.578,premup-three_ses-02_part-02_label-phase2,3.2.4,Linux x86_64,60,,,,,,,,,,,,,,,,,1,0,330,186,1,329,2,,,,,,
left,0.526000023,0,314,,,,,,,,,,,,,2,2,2,stim/22.jpeg,Instruments,2,stim/objects/Instruments/cornet2.png,0.3,1,-0.2,0.15,right,7,2020-11-18_11h08.06.578,premup-three_ses-02_part-02_label-phase2,3.2.4,Linux x86_64,60,,,,,,,,,,,,,,,,,1,0,330,124,1,329,1,,,,,,
right,0.573999882,1,315,,,,,,,,,,,,,3,3,4,stim/34.jpeg,Instruments,2,stim/objects/Instruments/flutetrans.png,0.9,1,-0.2,0.15,right,7,2020-11-18_11h08.06.578,premup-three_ses-02_part-02_label-phase2,3.2.4,Linux x86_64,60,,,,,,,,,,,,,,,,,1,0,330,201,1,329,2,,,,,,
right,0.804999828,1,316,,,,,,,,,,,,,3,3,3,stim/33.jpeg,Instruments,2,stim/objects/Instruments/flute.png,0.9,3,-0.2,-0.15,right,7,2020-11-18_11h08.06.578,premup-three_ses-02_part-02_label-phase2,3.2.4,Linux x86_64,60,,,,,,,,,,,,,,,,,1,0,330,200,1,329,2,,,,,,
left,0.536000013,1,317,,,,,,,,,,,,,3,4,1,stim/41.jpeg,HouseObjects,1,stim/objects/HouseObjects/glass.png,0.9,3,-0.2,-0.15,left,7,2020-11-18_11h08.06.578,premup-three_ses-02_part-02_label-phase2,3.2.4,Linux x86_64,60,,,,,,,,,,,,,,,,,1,0,330,234,1,329,2,,,,,,
left,0.707999945,0,318,,,,,,,,,,,,,2,2,1,stim/21.jpeg,Instruments,2,stim/objects/Instruments/clarinet2.png,0.3,4,0.2,-0.15,right,7,2020-11-18_11h08.06.578,premup-three_ses-02_part-02_label-phase2,3.2.4,Linux x86_64,60,,,,,,,,,,,,,,,,,1,0,330,123,1,329,1,,,,,,
left,0.728999853,0,319,,,,,,,,,,,,,3,4,3,stim/43.jpeg,Instruments,2,stim/objects/Instruments/trombone2.png,0.1,4,0.2,-0.15,right,7,2020-11-18_11h08.06.578,premup-three_ses-02_part-02_label-phase2,3.2.4,Linux x86_64,60,,,,,,,,,,,,,,,,,1,0,330,324,1,329,1,,,,,,
left,0.625999928,0,320,,,,,,,,,,,,,3,4,1,stim/41.jpeg,Instruments,2,stim/objects/Instruments/tuba2.png,0.1,1,-0.2,0.15,right,7,2020-11-18_11h08.06.578,premup-three_ses-02_part-02_label-phase2,3.2.4,Linux x86_64,60,,,,,,,,,,,,,,,,,1,0,330,326,1,329,1,,,,,,
right,0.493999958,1,321,,,,,,,,,,,,,3,3,2,stim/32.jpeg,Instruments,2,stim/objects/Instruments/grandpiano.png,0.9,4,0.2,-0.15,right,7,2020-11-18_11h08.06.578,premup-three_ses-02_part-02_label-phase2,3.2.4,Linux x86_64,60,,,,,,,,,,,,,,,,,1,0,330,199,1,329,2,,,,,,
left,0.573999882,1,322,,,,,,,,,,,,,3,4,2,stim/42.jpeg,HouseObjects,1,stim/objects/HouseObjects/flyswatter.png,0.9,1,-0.2,0.15,left,7,2020-11-18_11h08.06.578,premup-three_ses-02_part-02_label-phase2,3.2.4,Linux x86_64,60,,,,,,,,,,,,,,,,,1,0,330,307,1,329,2,,,,,,
left,0.605000019,1,323,,,,,,,,,,,,,2,1,2,stim/12.jpeg,HouseObjects,1,stim/objects/HouseObjects/thread.png,0.3,3,-0.2,-0.15,left,7,2020-11-18_11h08.06.578,premup-three_ses-02_part-02_label-phase2,3.2.4,Linux x86_64,60,,,,,,,,,,,,,,,,,1,0,330,61,1,329,1,,,,,,
left,0.493999958,1,324,,,,,,,,,,,,,3,4,1,stim/41.jpeg,HouseObjects,1,stim/objects/HouseObjects/flyswatter.png,0.9,2,0.2,0.15,left,7,2020-11-18_11h08.06.578,premup-three_ses-02_part-02_label-phase2,3.2.4,Linux x86_64,60,,,,,,,,,,,,,,,,,1,0,330,242,1,329,2,,,,,,
left,0.640999794,1,325,,,,,,,,,,,,,3,4,1,stim/41.jpeg,HouseObjects,1,stim/objects/HouseObjects/dustpan.png,0.9,4,0.2,-0.15,left,7,2020-11-18_11h08.06.578,premup-three_ses-02_part-02_label-phase2,3.2.4,Linux x86_64,60,,,,,,,,,,,,,,,,,1,0,330,266,1,329,2,,,,,,
right,0.653999805,1,326,,,,,,,,,,,,,1,6,2,stim/62.jpeg,Instruments,2,stim/objects/Instruments/bassguitar.png,0.5,3,-0.2,-0.15,right,7,2020-11-18_11h08.06.578,premup-three_ses-02_part-02_label-phase2,3.2.4,Linux x86_64,60,,,,,,,,,,,,,,,,,1,0,330,45,1,329,2,,,,,,
right,0.50999999,1,327,,,,,,,,,,,,,3,3,1,stim/31.jpeg,Instruments,2,stim/objects/Instruments/grandpiano.png,0.9,1,-0.2,0.15,right,7,2020-11-18_11h08.06.578,premup-three_ses-02_part-02_label-phase2,3.2.4,Linux x86_64,60,,,,,,,,,,,,,,,,,1,0,330,174,1,329,2,,,,,,
left,0.623999834,1,328,,,,,,,,,,,,,3,4,2,stim/42.jpeg,HouseObjects,1,stim/objects/HouseObjects/thermometer2.png,0.9,3,-0.2,-0.15,left,7,2020-11-18_11h08.06.578,premup-three_ses-02_part-02_label-phase2,3.2.4,Linux x86_64,60,,,,,,,,,,,,,,,,,1,0,330,315,1,329,1,,,,,,
left,0.773999929,1,329,,,,,,,,,,,,,1,6,3,stim/63.jpeg,HouseObjects,1,stim/objects/HouseObjects/bucket.png,0.5,4,0.2,-0.15,left,7,2020-11-18_11h08.06.578,premup-three_ses-02_part-02_label-phase2,3.2.4,Linux x86_64,60,,,,,,,,,,,,,,,,,1,0,330,38,1,329,2,,,,,,
left,0.578999996,1,330,,,,,,,,,,,,,3,4,3,stim/43.jpeg,HouseObjects,1,stim/objects/HouseObjects/garbagebin.png,0.9,2,0.2,0.15,left,7,2020-11-18_11h08.06.578,premup-three_ses-02_part-02_label-phase2,3.2.4,Linux x86_64,60,,,,,,,,,,,,,,,,,1,0,330,308,1,329,2,,,,,,
,,0,331,,,,,,,,,,,,,3,3,3,stim/33.jpeg,Instruments,2,stim/objects/Instruments/flutetrans.png,0.9,2,0.2,0.15,right,7,2020-11-18_11h08.06.578,premup-three_ses-02_part-02_label-phase2,3.2.4,Linux x86_64,60,,,,,,,,,,,,,,,,,1,0,330,196,1,329,2,,,,,,
left,0.589999914,1,332,,,,,,,,,,,,,3,4,4,stim/44.jpeg,HouseObjects,1,stim/objects/HouseObjects/doormat.png,0.9,4,0.2,-0.15,left,7,2020-11-18_11h08.06.578,premup-three_ses-02_part-02_label-phase2,3.2.4,Linux x86_64,60,,,,,,,,,,,,,,,,,1,0,330,245,1,329,2,,,,,,
right,0.562999964,1,333,,,,,,,,,,,,,3,3,4,stim/34.jpeg,Instruments,2,stim/objects/Instruments/grandpiano.png,0.9,3,-0.2,-0.15,right,7,2020-11-18_11h08.06.578,premup-three_ses-02_part-02_label-phase2,3.2.4,Linux x86_64,60,,,,,,,,,,,,,,,,,1,0,330,189,1,329,2,,,,,,
left,0.609999895,1,334,,,,,,,,,,,,,3,4,4,stim/44.jpeg,HouseObjects,1,stim/objects/HouseObjects/glass.png,0.9,3,-0.2,-0.15,left,7,2020-11-18_11h08.06.578,premup-three_ses-02_part-02_label-phase2,3.2.4,Linux x86_64,60,,,,,,,,,,,,,,,,,1,0,330,309,1,329,2,,,,,,
right,0.540999889,1,335,,,,,,,,,,,,,3,3,4,stim/34.jpeg,Instruments,2,stim/objects/Instruments/grandpiano.png,0.9,1,-0.2,0.15,right,7,2020-11-18_11h08.06.578,premup-three_ses-02_part-02_label-phase2,3.2.4,Linux x86_64,60,,,,,,,,,,,,,,,,,1,0,330,149,1,329,2,,,,,,
right,0.608999968,1,336,,,,,,,,,,,,,3,3,3,stim/33.jpeg,Instruments,2,stim/objects/Instruments/grandpiano2.png,0.9,2,0.2,0.15,right,7,2020-11-18_11h08.06.578,premup-three_ses-02_part-02_label-phase2,3.2.4,Linux x86_64,60,,,,,,,,,,,,,,,,,1,0,330,224,1,329,1,,,,,,
right,0.573999882,1,337,,,,,,,,,,,,,3,3,3,stim/33.jpeg,Instruments,2,stim/objects/Instruments/frenchhorn.png,0.9,4,0.2,-0.15,right,7,2020-11-18_11h08.06.578,premup-three_ses-02_part-02_label-phase2,3.2.4,Linux x86_64,60,,,,,,,,,,,,,,,,,1,0,330,192,1,329,2,,,,,,
left,0.526000023,1,338,,,,,,,,,,,,,2,2,2,stim/22.jpeg,HouseObjects,1,stim/objects/HouseObjects/broom2.png,0.7,4,0.2,-0.15,left,7,2020-11-18_11h08.06.578,premup-three_ses-02_part-02_label-phase2,3.2.4,Linux x86_64,60,,,,,,,,,,,,,,,,,1,0,330,112,1,329,1,,,,,,
right,0.56099987,1,339,,,,,,,,,,,,,3,3,4,stim/34.jpeg,Instruments,2,stim/objects/Instruments/frenchhorn.png,0.9,1,-0.2,0.15,right,7,2020-11-18_11h08.06.578,premup-three_ses-02_part-02_label-phase2,3.2.4,Linux x86_64,60,,,,,,,,,,,,,,,,,1,0,330,197,1,329,2,,,,,,
left,0.687999964,1,340,,,,,,,,,,,,,3,4,2,stim/42.jpeg,HouseObjects,1,stim/objects/HouseObjects/doormat.png,0.9,4,0.2,-0.15,left,7,2020-11-18_11h08.06.578,premup-three_ses-02_part-02_label-phase2,3.2.4,Linux x86_64,60,,,,,,,,,,,,,,,,,1,0,330,235,1,329,2,,,,,,
left,0.70600009,1,341,,,,,,,,,,,,,1,5,3,stim/53.jpeg,HouseObjects,1,stim/objects/HouseObjects/ballofstring.png,0.5,3,-0.2,-0.15,left,7,2020-11-18_11h08.06.578,premup-three_ses-02_part-02_label-phase2,3.2.4,Linux x86_64,60,,,,,,,,,,,,,,,,,1,0,330,6,1,329,2,,,,,,
left,0.682999849,0,342,,,,,,,,,,,,,1,5,3,stim/53.jpeg,Instruments,2,stim/objects/Instruments/balalaika.png,0.5,3,-0.2,-0.15,right,7,2020-11-18_11h08.06.578,premup-three_ses-02_part-02_label-phase2,3.2.4,Linux x86_64,60,,,,,,,,,,,,,,,,,1,0,330,22,1,329,2,,,,,,
right,0.780999899,0,343,,,,,,,,,,,,,1,6,2,stim/62.jpeg,HouseObjects,1,stim/objects/HouseObjects/broom.png,0.5,3,-0.2,-0.15,left,7,2020-11-18_11h08.06.578,premup-three_ses-02_part-02_label-phase2,3.2.4,Linux x86_64,60,,,,,,,,,,,,,,,,,1,0,330,37,1,329,2,,,,,,
left,0.455999851,1,344,,,,,,,,,,,,,3,4,2,stim/42.jpeg,HouseObjects,1,stim/objects/HouseObjects/flyswatter.png,0.9,2,0.2,0.15,left,7,2020-11-18_11h08.06.578,premup-three_ses-02_part-02_label-phase2,3.2.4,Linux x86_64,60,,,,,,,,,,,,,,,,,1,0,330,267,1,329,2,,,,,,
left,0.578999996,1,345,,,,,,,,,,,,,2,2,1,stim/21.jpeg,HouseObjects,1,stim/objects/HouseObjects/cushion.png,0.7,2,0.2,0.15,left,7,2020-11-18_11h08.06.578,premup-three_ses-02_part-02_label-phase2,3.2.4,Linux x86_64,60,,,,,,,,,,,,,,,,,1,0,330,103,1,329,2,,,,,,
left,0.566999912,1,346,,,,,,,,,,,,,2,1,2,stim/12.jpeg,HouseObjects,1,stim/objects/HouseObjects/ashtray2.png,0.3,2,0.2,0.15,left,7,2020-11-18_11h08.06.578,premup-three_ses-02_part-02_label-phase2,3.2.4,Linux x86_64,60,,,,,,,,,,,,,,,,,1,0,330,65,1,329,1,,,,,,
right,0.57799983,1,347,,,,,,,,,,,,,1,6,3,stim/63.jpeg,Instruments,2,stim/objects/Instruments/bassguitar.png,0.5,1,-0.2,0.15,right,7,2020-11-18_11h08.06.578,premup-three_ses-02_part-02_label-phase2,3.2.4,Linux x86_64,60,,,,,,,,,,,,,,,,,1,0,330,50,1,329,2,,,,,,
left,0.578999996,1,348,,,,,,,,,,,,,3,4,2,stim/42.jpeg,HouseObjects,1,stim/objects/HouseObjects/wateringcan2.png,0.9,1,-0.2,0.15,left,7,2020-11-18_11h08.06.578,premup-three_ses-02_part-02_label-phase2,3.2.4,Linux x86_64,60,,,,,,,,,,,,,,,,,1,0,330,319,1,329,1,,,,,,
right,0.638000011,1,349,,,,,,,,,,,,,3,3,3,stim/33.jpeg,Instruments,2,stim/objects/Instruments/gong.png,0.9,2,0.2,0.15,right,7,2020-11-18_11h08.06.578,premup-three_ses-02_part-02_label-phase2,3.2.4,Linux x86_64,60,,,,,,,,,,,,,,,,,1,0,330,188,1,329,2,,,,,,
left,0.604999781,1,350,,,,,,,,,,,,,3,4,4,stim/44.jpeg,HouseObjects,1,stim/objects/HouseObjects/glass.png,0.9,4,0.2,-0.15,left,7,2020-11-18_11h08.06.578,premup-three_ses-02_part-02_label-phase2,3.2.4,Linux x86_64,60,,,,,,,,,,,,,,,,,1,0,330,289,1,329,2,,,,,,
left,0.562999964,0,351,,,,,,,,,,,,,2,1,2,stim/12.jpeg,Instruments,2,stim/objects/Instruments/doublebass.png,0.7,3,-0.2,-0.15,right,7,2020-11-18_11h08.06.578,premup-three_ses-02_part-02_label-phase2,3.2.4,Linux x86_64,60,,,,,,,,,,,,,,,,,1,0,330,81,1,329,2,,,,,,
left,0.573999882,1,352,,,,,,,,,,,,,3,4,4,stim/44.jpeg,HouseObjects,1,stim/objects/HouseObjects/glass.png,0.9,2,0.2,0.15,left,7,2020-11-18_11h08.06.578,premup-three_ses-02_part-02_label-phase2,3.2.4,Linux x86_64,60,,,,,,,,,,,,,,,,,1,0,330,269,1,329,2,,,,,,
left,0.638999939,0,353,,,,,,,,,,,,,1,6,3,stim/63.jpeg,Instruments,2,stim/objects/Instruments/cello.png,0.5,1,-0.2,0.15,right,7,2020-11-18_11h08.06.578,premup-three_ses-02_part-02_label-phase2,3.2.4,Linux x86_64,60,,,,,,,,,,,,,,,,,1,0,330,46,1,329,2,,,,,,
left,0.627000093,1,354,,,,,,,,,,,,,3,4,2,stim/42.jpeg,HouseObjects,1,stim/objects/HouseObjects/dustpan.png,0.9,2,0.2,0.15,left,7,2020-11-18_11h08.06.578,premup-three_ses-02_part-02_label-phase2,3.2.4,Linux x86_64,60,,,,,,,,,,,,,,,,,1,0,330,291,1,329,2,,,,,,
left,0.597999811,1,355,,,,,,,,,,,,,1,5,3,stim/53.jpeg,HouseObjects,1,stim/objects/HouseObjects/safetypin.png,0.5,4,0.2,-0.15,left,7,2020-11-18_11h08.06.578,premup-three_ses-02_part-02_label-phase2,3.2.4,Linux x86_64,60,,,,,,,,,,,,,,,,,1,0,330,14,1,329,1,,,,,,
,,0,356,,,,,,,,,,,,,3,4,4,stim/44.jpeg,HouseObjects,1,stim/objects/HouseObjects/flyswatter.png,0.9,2,0.2,0.15,left,7,2020-11-18_11h08.06.578,premup-three_ses-02_part-02_label-phase2,3.2.4,Linux x86_64,60,,,,,,,,,,,,,,,,,1,0,330,277,1,329,2,,,,,,
left,0.56099987,1,357,,,,,,,,,,,,,1,5,2,stim/52.jpeg,HouseObjects,1,stim/objects/HouseObjects/bleachbottle.png,0.5,4,0.2,-0.15,left,7,2020-11-18_11h08.06.578,premup-three_ses-02_part-02_label-phase2,3.2.4,Linux x86_64,60,,,,,,,,,,,,,,,,,1,0,330,9,1,329,2,,,,,,
right,0.59499979,1,358,,,,,,,,,,,,,3,3,3,stim/33.jpeg,Instruments,2,stim/objects/Instruments/grandpiano.png,0.9,1,-0.2,0.15,right,7,2020-11-18_11h08.06.578,premup-three_ses-02_part-02_label-phase2,3.2.4,Linux x86_64,60,,,,,,,,,,,,,,,,,1,0,330,144,1,329,2,,,,,,
left,0.663999796,1,359,,,,,,,,,,,,,3,4,1,stim/41.jpeg,HouseObjects,1,stim/objects/HouseObjects/dustpan.png,0.9,3,-0.2,-0.15,left,7,2020-11-18_11h08.06.578,premup-three_ses-02_part-02_label-phase2,3.2.4,Linux x86_64,60,,,,,,,,,,,,,,,,,1,0,330,286,1,329,2,,,,,,
right,0.513000011,1,360,,,,,,,,,,,,,3,3,4,stim/34.jpeg,Instruments,2,stim/objects/Instruments/flute.png,0.9,2,0.2,0.15,right,7,2020-11-18_11h08.06.578,premup-three_ses-02_part-02_label-phase2,3.2.4,Linux x86_64,60,,,,,,,,,,,,,,,,,1,0,330,205,1,329,2,,,,,,
left,0.572000027,0,361,,,,,,,,,,,,,1,5,3,stim/53.jpeg,Instruments,2,stim/objects/Instruments/banjo.png,0.5,3,-0.2,-0.15,right,7,2020-11-18_11h08.06.578,premup-three_ses-02_part-02_label-phase2,3.2.4,Linux x86_64,60,,,,,,,,,,,,,,,,,1,0,330,18,1,329,2,,,,,,
right,0.566999912,0,362,,,,,,,,,,,,,1,6,1,stim/61.jpeg,HouseObjects,1,stim/objects/HouseObjects/broom.png,0.5,4,0.2,-0.15,left,7,2020-11-18_11h08.06.578,premup-three_ses-02_part-02_label-phase2,3.2.4,Linux x86_64,60,,,,,,,,,,,,,,,,,1,0,330,32,1,329,2,,,,,,
left,0.806999922,1,363,,,,,,,,,,,,,3,4,1,stim/41.jpeg,HouseObjects,1,stim/objects/HouseObjects/doormat.png,0.9,2,0.2,0.15,left,7,2020-11-18_11h08.06.578,premup-three_ses-02_part-02_label-phase2,3.2.4,Linux x86_64,60,,,,,,,,,,,,,,,,,1,0,330,290,1,329,2,,,,,,
left,0.643999815,1,364,,,,,,,,,,,,,3,4,4,stim/44.jpeg,HouseObjects,1,stim/objects/HouseObjects/flyswatter.png,0.9,1,-0.2,0.15,left,7,2020-11-18_11h08.06.578,premup-three_ses-02_part-02_label-phase2,3.2.4,Linux x86_64,60,,,,,,,,,,,,,,,,,1,0,330,257,1,329,2,,,,,,
left,0.81099987,0,365,,,,,,,,,,,,,1,6,4,stim/64.jpeg,Instruments,2,stim/objects/Instruments/speaker.png,0.5,1,-0.2,0.15,right,7,2020-11-18_11h08.06.578,premup-three_ses-02_part-02_label-phase2,3.2.4,Linux x86_64,60,,,,,,,,,,,,,,,,,1,0,330,55,1,329,1,,,,,,
left,0.713000059,1,366,,,,,,,,,,,,,3,4,2,stim/42.jpeg,HouseObjects,1,stim/objects/HouseObjects/flyswatter.png,0.9,4,0.2,-0.15,left,7,2020-11-18_11h08.06.578,premup-three_ses-02_part-02_label-phase2,3.2.4,Linux x86_64,60,,,,,,,,,,,,,,,,,1,0,330,287,1,329,2,,,,,,
right,0.608999968,1,367,,,,,,,,,,,,,3,3,4,stim/34.jpeg,Instruments,2,stim/objects/Instruments/flutetrans.png,0.9,3,-0.2,-0.15,right,7,2020-11-18_11h08.06.578,premup-three_ses-02_part-02_label-phase2,3.2.4,Linux x86_64,60,,,,,,,,,,,,,,,,,1,0,330,181,1,329,2,,,,,,
right,0.621000051,1,368,,,,,,,,,,,,,3,3,4,stim/34.jpeg,Instruments,2,stim/objects/Instruments/grandpiano.png,0.9,2,0.2,0.15,right,7,2020-11-18_11h08.06.578,premup-three_ses-02_part-02_label-phase2,3.2.4,Linux x86_64,60,,,,,,,,,,,,,,,,,1,0,330,209,1,329,2,,,,,,
left,0.607000113,1,369,,,,,,,,,,,,,2,2,1,stim/21.jpeg,HouseObjects,1,stim/objects/HouseObjects/bottle2.png,0.7,2,0.2,0.15,left,7,2020-11-18_11h08.06.578,premup-three_ses-02_part-02_label-phase2,3.2.4,Linux x86_64,60,,,,,,,,,,,,,,,,,1,0,330,111,1,329,1,,,,,,
right,0.55099988,1,370,,,,,,,,,,,,,3,3,2,stim/32.jpeg,Instruments,2,stim/objects/Instruments/flutetrans.png,0.9,3,-0.2,-0.15,right,7,2020-11-18_11h08.06.578,premup-three_ses-02_part-02_label-phase2,3.2.4,Linux x86_64,60,,,,,,,,,,,,,,,,,1,0,330,151,1,329,2,,,,,,
left,0.59100008,1,371,,,,,,,,,,,,,3,4,2,stim/42.jpeg,HouseObjects,1,stim/objects/HouseObjects/dustpan.png,0.9,1,-0.2,0.15,left,7,2020-11-18_11h08.06.578,premup-three_ses-02_part-02_label-phase2,3.2.4,Linux x86_64,60,,,,,,,,,,,,,,,,,1,0,330,251,1,329,2,,,,,,
left,0.638000011,1,372,,,,,,,,,,,,,3,4,4,stim/44.jpeg,HouseObjects,1,stim/objects/HouseObjects/garbagebin.png,0.9,1,-0.2,0.15,left,7,2020-11-18_11h08.06.578,premup-three_ses-02_part-02_label-phase2,3.2.4,Linux x86_64,60,,,,,,,,,,,,,,,,,1,0,330,253,1,329,2,,,,,,
right,0.565999985,1,373,,,,,,,,,,,,,3,3,2,stim/32.jpeg,Instruments,2,stim/objects/Instruments/gong2.png,0.9,3,-0.2,-0.15,right,7,2020-11-18_11h08.06.578,premup-three_ses-02_part-02_label-phase2,3.2.4,Linux x86_64,60,,,,,,,,,,,,,,,,,1,0,330,223,1,329,1,,,,,,
right,0.710999966,0,374,,,,,,,,,,,,,3,4,3,stim/43.jpeg,HouseObjects,1,stim/objects/HouseObjects/sponge2.png,0.9,4,0.2,-0.15,left,7,2020-11-18_11h08.06.578,premup-three_ses-02_part-02_label-phase2,3.2.4,Linux x86_64,60,,,,,,,,,,,,,,,,,1,0,330,312,1,329,1,,,,,,
right,0.764999866,1,375,,,,,,,,,,,,,3,3,4,stim/34.jpeg,Instruments,2,stim/objects/Instruments/guitarcase2.png,0.9,1,-0.2,0.15,right,7,2020-11-18_11h08.06.578,premup-three_ses-02_part-02_label-phase2,3.2.4,Linux x86_64,60,,,,,,,,,,,,,,,,,1,0,330,225,1,329,1,,,,,,
