key_resp_pract.keys,key_resp_pract.rt,trial_acc,trial_index,practice_loop.thisRepN,practice_loop.thisTrialN,practice_loop.thisN,practice_loop.thisIndex,practice_loop.ran,practice_loop.order,scn_condition,scn_cat,scn_inst,scn_file,obj_cat,obj_cat_num,obj_file,trial_cond,quadrant,obj_x,obj_y,corr_ans,participant,date,expName,psychopyVersion,OS,frameRate,key_resp_trial.keys,key_resp_trial.rt,iterations.thisRepN,iterations.thisTrialN,iterations.thisN,iterations.thisIndex,iterations.ran,iterations.order,task_innerloop.thisRepN,task_innerloop.thisTrialN,task_innerloop.thisN,task_innerloop.thisIndex,task_innerloop.ran,task_innerloop.order,iteration_index,rating_acc,slider.response,slider.rt,slider_2.response,slider_2.rt,ratings.thisRepN,ratings.thisTrialN,ratings.thisN,ratings.thisIndex,ratings.ran,ratings.order,obj_cat_top,min_resp_top,max_resp_top,obj_cat_bottom,min_resp_bottom,max_resp_bottom
left,1.536000013,0,1,1,0,240,174,1,239,3,3,3,stim/33.jpeg,Instruments,2,stim/objects/Instruments/musicstand2.png,0.9,2,0.2,0.15,right,42,2020-12-15_09h16.09.115,premup-three_ses-01_part-01_label-phase1,3.2.4,Win32,60,,,,,,,,,,,,,,,,,,,,,,,,,,,,,,,,
left,1.073000193,1,2,1,0,240,0,1,239,1,5,1,stim/51.jpeg,HouseObjects,1,stim/objects/HouseObjects/iron.png,0.5,3,-0.2,-0.15,left,42,2020-12-15_09h16.09.115,premup-three_ses-01_part-01_label-phase1,3.2.4,Win32,60,,,,,,,,,,,,,,,,,,,,,,,,,,,,,,,,
right,1.157999992,0,3,1,0,240,201,1,239,3,4,2,stim/42.jpeg,HouseObjects,1,stim/objects/HouseObjects/remote2.png,0.9,1,-0.2,0.15,left,42,2020-12-15_09h16.09.115,premup-three_ses-01_part-01_label-phase1,3.2.4,Win32,60,,,,,,,,,,,,,,,,,,,,,,,,,,,,,,,,
right,1.030999899,1,4,1,0,240,117,1,239,2,1,2,stim/12.jpeg,Instruments,2,stim/objects/Instruments/pipepiano.png,0.7,1,-0.2,0.15,right,42,2020-12-15_09h16.09.115,premup-three_ses-01_part-01_label-phase1,3.2.4,Win32,60,,,,,,,,,,,,,,,,,,,,,,,,,,,,,,,,
right,0.84800005,0,5,1,0,240,211,1,239,3,4,4,stim/44.jpeg,HouseObjects,1,stim/objects/HouseObjects/rug2.png,0.9,4,0.2,-0.15,left,42,2020-12-15_09h16.09.115,premup-three_ses-01_part-01_label-phase1,3.2.4,Win32,60,,,,,,,,,,,,,,,,,,,,,,,,,,,,,,,,
left,1.80700016,1,6,1,0,240,143,1,239,2,2,4,stim/24.jpeg,HouseObjects,1,stim/objects/HouseObjects/knife2.png,0.7,3,-0.2,-0.15,left,42,2020-12-15_09h16.09.115,premup-three_ses-01_part-01_label-phase1,3.2.4,Win32,60,,,,,,,,,,,,,,,,,,,,,,,,,,,,,,,,
right,1.732000113,1,7,1,0,240,171,1,239,3,3,4,stim/34.jpeg,Instruments,2,stim/objects/Instruments/oboe2.png,0.9,2,0.2,0.15,right,42,2020-12-15_09h16.09.115,premup-three_ses-01_part-01_label-phase1,3.2.4,Win32,60,,,,,,,,,,,,,,,,,,,,,,,,,,,,,,,,
left,0.950000048,1,8,1,0,240,17,1,239,1,5,2,stim/52.jpeg,HouseObjects,1,stim/objects/HouseObjects/ironingboard.png,0.5,2,0.2,0.15,left,42,2020-12-15_09h16.09.115,premup-three_ses-01_part-01_label-phase1,3.2.4,Win32,60,,,,,,,,,,,,,,,,,,,,,,,,,,,,,,,,
right,0.496000051,1,9,1,0,240,199,1,239,3,3,4,stim/34.jpeg,Instruments,2,stim/objects/Instruments/oboe2.png,0.9,1,-0.2,0.15,right,42,2020-12-15_09h16.09.115,premup-three_ses-01_part-01_label-phase1,3.2.4,Win32,60,,,,,,,,,,,,,,,,,,,,,,,,,,,,,,,,
left,0.639999866,1,10,1,0,240,223,1,239,3,4,4,stim/44.jpeg,HouseObjects,1,stim/objects/HouseObjects/rug2.png,0.9,4,0.2,-0.15,left,42,2020-12-15_09h16.09.115,premup-three_ses-01_part-01_label-phase1,3.2.4,Win32,60,,,,,,,,,,,,,,,,,,,,,,,,,,,,,,,,
,,1,1,,,,,,,1,5,2,stim/52.jpeg,HouseObjects,1,stim/objects/HouseObjects/ironingboard.png,0.5,3,-0.2,-0.15,left,42,2020-12-15_09h16.09.115,premup-three_ses-01_part-01_label-phase1,3.2.4,Win32,60,left,1.555000067,4,0,4,0,1,3,1,0,240,5,1,239,,,,,,,,,,,,,,,,,,
,,0,2,,,,,,,1,6,1,stim/61.jpeg,Instruments,2,stim/objects/Instruments/metronome.png,0.5,3,-0.2,-0.15,right,42,2020-12-15_09h16.09.115,premup-three_ses-01_part-01_label-phase1,3.2.4,Win32,60,left,1.122999907,4,0,4,0,1,3,1,0,240,76,1,239,,,,,,,,,,,,,,,,,,
,,0,3,,,,,,,1,5,1,stim/51.jpeg,Instruments,2,stim/objects/Instruments/keyboard.png,0.5,1,-0.2,0.15,right,42,2020-12-15_09h16.09.115,premup-three_ses-01_part-01_label-phase1,3.2.4,Win32,60,,,4,0,4,0,1,3,1,0,240,24,1,239,,,,,,,,,,,,,,,,,,
,,1,4,,,,,,,2,2,4,stim/24.jpeg,HouseObjects,1,stim/objects/HouseObjects/knife2.png,0.7,4,0.2,-0.15,left,42,2020-12-15_09h16.09.115,premup-three_ses-01_part-01_label-phase1,3.2.4,Win32,60,left,1.354000092,4,0,4,0,1,3,1,0,240,123,1,239,,,,,,,,,,,,,,,,,,
,,1,5,,,,,,,2,2,2,stim/22.jpeg,HouseObjects,1,stim/objects/HouseObjects/ironingboard2.png,0.7,4,0.2,-0.15,left,42,2020-12-15_09h16.09.115,premup-three_ses-01_part-01_label-phase1,3.2.4,Win32,60,left,0.633999825,4,0,4,0,1,3,1,0,240,125,1,239,,,,,,,,,,,,,,,,,,
,,0,6,,,,,,,1,6,3,stim/63.jpeg,HouseObjects,1,stim/objects/HouseObjects/pan.png,0.5,4,0.2,-0.15,left,42,2020-12-15_09h16.09.115,premup-three_ses-01_part-01_label-phase1,3.2.4,Win32,60,right,0.776000023,4,0,4,0,1,3,1,0,240,50,1,239,,,,,,,,,,,,,,,,,,
,,1,7,,,,,,,1,5,3,stim/53.jpeg,Instruments,2,stim/objects/Instruments/maraca.png,0.5,2,0.2,0.15,right,42,2020-12-15_09h16.09.115,premup-three_ses-01_part-01_label-phase1,3.2.4,Win32,60,right,1.536000013,4,0,4,0,1,3,1,0,240,34,1,239,,,,,,,,,,,,,,,,,,
,,0,8,,,,,,,2,1,3,stim/13.jpeg,HouseObjects,1,stim/objects/HouseObjects/rubbergloves.png,0.3,4,0.2,-0.15,left,42,2020-12-15_09h16.09.115,premup-three_ses-01_part-01_label-phase1,3.2.4,Win32,60,right,1.389999866,4,0,4,0,1,3,1,0,240,82,1,239,,,,,,,,,,,,,,,,,,
,,1,9,,,,,,,2,2,1,stim/21.jpeg,HouseObjects,1,stim/objects/HouseObjects/iron2.png,0.7,1,-0.2,0.15,left,42,2020-12-15_09h16.09.115,premup-three_ses-01_part-01_label-phase1,3.2.4,Win32,60,left,1.058000088,4,0,4,0,1,3,1,0,240,120,1,239,,,,,,,,,,,,,,,,,,
,,0,10,,,,,,,3,4,3,stim/43.jpeg,Instruments,2,stim/objects/Instruments/record2.png,0.1,3,-0.2,-0.15,right,42,2020-12-15_09h16.09.115,premup-three_ses-01_part-01_label-phase1,3.2.4,Win32,60,left,0.953999996,4,0,4,0,1,3,1,0,240,238,1,239,,,,,,,,,,,,,,,,,,
,,0,11,,,,,,,2,2,3,stim/23.jpeg,Instruments,2,stim/objects/Instruments/maraca2.png,0.3,1,-0.2,0.15,right,42,2020-12-15_09h16.09.115,premup-three_ses-01_part-01_label-phase1,3.2.4,Win32,60,left,0.707999945,4,0,4,0,1,3,1,0,240,158,1,239,,,,,,,,,,,,,,,,,,
,,1,12,,,,,,,3,3,4,stim/34.jpeg,Instruments,2,stim/objects/Instruments/oboe2.png,0.9,1,-0.2,0.15,right,42,2020-12-15_09h16.09.115,premup-three_ses-01_part-01_label-phase1,3.2.4,Win32,60,right,1.082999945,4,0,4,0,1,3,1,0,240,199,1,239,,,,,,,,,,,,,,,,,,
,,1,13,,,,,,,3,3,3,stim/33.jpeg,Instruments,2,stim/objects/Instruments/musicstand2.png,0.9,2,0.2,0.15,right,42,2020-12-15_09h16.09.115,premup-three_ses-01_part-01_label-phase1,3.2.4,Win32,60,right,0.725000143,4,0,4,0,1,3,1,0,240,198,1,239,,,,,,,,,,,,,,,,,,
,,1,14,,,,,,,3,4,4,stim/44.jpeg,HouseObjects,1,stim/objects/HouseObjects/rug2.png,0.9,4,0.2,-0.15,left,42,2020-12-15_09h16.09.115,premup-three_ses-01_part-01_label-phase1,3.2.4,Win32,60,left,0.822999954,4,0,4,0,1,3,1,0,240,223,1,239,,,,,,,,,,,,,,,,,,
,,0,15,,,,,,,1,5,4,stim/54.jpeg,HouseObjects,1,stim/objects/HouseObjects/knife.png,0.5,4,0.2,-0.15,left,42,2020-12-15_09h16.09.115,premup-three_ses-01_part-01_label-phase1,3.2.4,Win32,60,right,1.353999853,4,0,4,0,1,3,1,0,240,3,1,239,,,,,,,,,,,,,,,,,,
,,0,16,,,,,,,2,1,3,stim/13.jpeg,Instruments,2,stim/objects/Instruments/record.png,0.7,4,0.2,-0.15,right,42,2020-12-15_09h16.09.115,premup-three_ses-01_part-01_label-phase1,3.2.4,Win32,60,,,4,0,4,0,1,3,1,0,240,106,1,239,,,,,,,,,,,,,,,,,,
,,0,17,,,,,,,1,5,3,stim/53.jpeg,Instruments,2,stim/objects/Instruments/maraca.png,0.5,4,0.2,-0.15,right,42,2020-12-15_09h16.09.115,premup-three_ses-01_part-01_label-phase1,3.2.4,Win32,60,left,1.528000116,4,0,4,0,1,3,1,0,240,38,1,239,,,,,,,,,,,,,,,,,,
,,1,18,,,,,,,3,3,1,stim/31.jpeg,Instruments,2,stim/objects/Instruments/metronome2.png,0.9,2,0.2,0.15,right,42,2020-12-15_09h16.09.115,premup-three_ses-01_part-01_label-phase1,3.2.4,Win32,60,right,0.809999943,4,0,4,0,1,3,1,0,240,176,1,239,,,,,,,,,,,,,,,,,,
,,0,19,,,,,,,1,5,1,stim/51.jpeg,HouseObjects,1,stim/objects/HouseObjects/iron.png,0.5,2,0.2,0.15,left,42,2020-12-15_09h16.09.115,premup-three_ses-01_part-01_label-phase1,3.2.4,Win32,60,right,1.348999977,4,0,4,0,1,3,1,0,240,12,1,239,,,,,,,,,,,,,,,,,,
,,1,20,,,,,,,3,3,4,stim/34.jpeg,Instruments,2,stim/objects/Instruments/oboe2.png,0.9,3,-0.2,-0.15,right,42,2020-12-15_09h16.09.115,premup-three_ses-01_part-01_label-phase1,3.2.4,Win32,60,right,1.510999918,4,0,4,0,1,3,1,0,240,195,1,239,,,,,,,,,,,,,,,,,,
,,1,21,,,,,,,1,6,3,stim/63.jpeg,Instruments,2,stim/objects/Instruments/musicstand.png,0.5,1,-0.2,0.15,right,42,2020-12-15_09h16.09.115,premup-three_ses-01_part-01_label-phase1,3.2.4,Win32,60,right,1.217999935,4,0,4,0,1,3,1,0,240,74,1,239,,,,,,,,,,,,,,,,,,
,,0,22,,,,,,,2,2,4,stim/24.jpeg,Instruments,2,stim/objects/Instruments/marimba2.png,0.3,2,0.2,0.15,right,42,2020-12-15_09h16.09.115,premup-three_ses-01_part-01_label-phase1,3.2.4,Win32,60,left,1.203000069,4,0,4,0,1,3,1,0,240,159,1,239,,,,,,,,,,,,,,,,,,
,,1,23,,,,,,,3,4,3,stim/43.jpeg,HouseObjects,1,stim/objects/HouseObjects/rubbergloves2.png,0.9,1,-0.2,0.15,left,42,2020-12-15_09h16.09.115,premup-three_ses-01_part-01_label-phase1,3.2.4,Win32,60,left,1.246999979,4,0,4,0,1,3,1,0,240,210,1,239,,,,,,,,,,,,,,,,,,
,,0,24,,,,,,,2,1,1,stim/11.jpeg,Instruments,2,stim/objects/Instruments/panflute.png,0.7,1,-0.2,0.15,right,42,2020-12-15_09h16.09.115,premup-three_ses-01_part-01_label-phase1,3.2.4,Win32,60,left,1.605999947,4,0,4,0,1,3,1,0,240,108,1,239,,,,,,,,,,,,,,,,,,
,,1,25,,,,,,,1,6,2,stim/62.jpeg,Instruments,2,stim/objects/Instruments/musicsheet.png,0.5,2,0.2,0.15,right,42,2020-12-15_09h16.09.115,premup-three_ses-01_part-01_label-phase1,3.2.4,Win32,60,right,1.786999941,4,0,4,0,1,3,1,0,240,77,1,239,,,,,,,,,,,,,,,,,,
,,0,26,,,,,,,1,6,1,stim/61.jpeg,HouseObjects,1,stim/objects/HouseObjects/lintroller.png,0.5,2,0.2,0.15,left,42,2020-12-15_09h16.09.115,premup-three_ses-01_part-01_label-phase1,3.2.4,Win32,60,right,0.741000175,4,0,4,0,1,3,1,0,240,48,1,239,,,,,,,,,,,,,,,,,,
,,1,27,,,,,,,1,6,2,stim/62.jpeg,Instruments,2,stim/objects/Instruments/musicsheet.png,0.5,2,0.2,0.15,right,42,2020-12-15_09h16.09.115,premup-three_ses-01_part-01_label-phase1,3.2.4,Win32,60,right,0.620999813,4,0,4,0,1,3,1,0,240,65,1,239,,,,,,,,,,,,,,,,,,
,,1,28,,,,,,,3,3,4,stim/34.jpeg,Instruments,2,stim/objects/Instruments/oboe2.png,0.9,4,0.2,-0.15,right,42,2020-12-15_09h16.09.115,premup-three_ses-01_part-01_label-phase1,3.2.4,Win32,60,right,1.29399991,4,0,4,0,1,3,1,0,240,179,1,239,,,,,,,,,,,,,,,,,,
,,1,29,,,,,,,3,4,2,stim/42.jpeg,HouseObjects,1,stim/objects/HouseObjects/remote2.png,0.9,1,-0.2,0.15,left,42,2020-12-15_09h16.09.115,premup-three_ses-01_part-01_label-phase1,3.2.4,Win32,60,left,0.627000093,4,0,4,0,1,3,1,0,240,209,1,239,,,,,,,,,,,,,,,,,,
,,0,30,,,,,,,1,6,3,stim/63.jpeg,HouseObjects,1,stim/objects/HouseObjects/pan.png,0.5,1,-0.2,0.15,left,42,2020-12-15_09h16.09.115,premup-three_ses-01_part-01_label-phase1,3.2.4,Win32,60,right,0.664999962,4,0,4,0,1,3,1,0,240,58,1,239,,,,,,,,,,,,,,,,,,
,,1,31,,,,,,,2,1,1,stim/11.jpeg,Instruments,2,stim/objects/Instruments/panflute.png,0.7,2,0.2,0.15,right,42,2020-12-15_09h16.09.115,premup-three_ses-01_part-01_label-phase1,3.2.4,Win32,60,right,1.042000055,4,0,4,0,1,3,1,0,240,112,1,239,,,,,,,,,,,,,,,,,,
,,1,32,,,,,,,1,5,1,stim/51.jpeg,HouseObjects,1,stim/objects/HouseObjects/iron.png,0.5,3,-0.2,-0.15,left,42,2020-12-15_09h16.09.115,premup-three_ses-01_part-01_label-phase1,3.2.4,Win32,60,left,1.322999954,4,0,4,0,1,3,1,0,240,0,1,239,,,,,,,,,,,,,,,,,,
,,0,33,,,,,,,1,5,2,stim/52.jpeg,Instruments,2,stim/objects/Instruments/laud.png,0.5,3,-0.2,-0.15,right,42,2020-12-15_09h16.09.115,premup-three_ses-01_part-01_label-phase1,3.2.4,Win32,60,left,1.502000093,4,0,4,0,1,3,1,0,240,25,1,239,,,,,,,,,,,,,,,,,,
,,1,34,,,,,,,3,4,4,stim/44.jpeg,HouseObjects,1,stim/objects/HouseObjects/rug2.png,0.9,2,0.2,0.15,left,42,2020-12-15_09h16.09.115,premup-three_ses-01_part-01_label-phase1,3.2.4,Win32,60,left,1.711999893,4,0,4,0,1,3,1,0,240,227,1,239,,,,,,,,,,,,,,,,,,
,,1,35,,,,,,,1,5,3,stim/53.jpeg,HouseObjects,1,stim/objects/HouseObjects/key.png,0.5,1,-0.2,0.15,left,42,2020-12-15_09h16.09.115,premup-three_ses-01_part-01_label-phase1,3.2.4,Win32,60,left,0.996999979,4,0,4,0,1,3,1,0,240,2,1,239,,,,,,,,,,,,,,,,,,
,,1,36,,,,,,,3,4,4,stim/44.jpeg,HouseObjects,1,stim/objects/HouseObjects/rug2.png,0.9,4,0.2,-0.15,left,42,2020-12-15_09h16.09.115,premup-three_ses-01_part-01_label-phase1,3.2.4,Win32,60,left,0.84100008,4,0,4,0,1,3,1,0,240,215,1,239,,,,,,,,,,,,,,,,,,
,,1,37,,,,,,,3,4,4,stim/44.jpeg,HouseObjects,1,stim/objects/HouseObjects/rug2.png,0.9,2,0.2,0.15,left,42,2020-12-15_09h16.09.115,premup-three_ses-01_part-01_label-phase1,3.2.4,Win32,60,left,0.845000029,4,0,4,0,1,3,1,0,240,219,1,239,,,,,,,,,,,,,,,,,,
,,1,38,,,,,,,2,2,1,stim/21.jpeg,HouseObjects,1,stim/objects/HouseObjects/iron2.png,0.7,2,0.2,0.15,left,42,2020-12-15_09h16.09.115,premup-three_ses-01_part-01_label-phase1,3.2.4,Win32,60,left,0.588000059,4,0,4,0,1,3,1,0,240,144,1,239,,,,,,,,,,,,,,,,,,
,,1,39,,,,,,,3,4,4,stim/44.jpeg,HouseObjects,1,stim/objects/HouseObjects/rug2.png,0.9,1,-0.2,0.15,left,42,2020-12-15_09h16.09.115,premup-three_ses-01_part-01_label-phase1,3.2.4,Win32,60,left,0.618000031,4,0,4,0,1,3,1,0,240,207,1,239,,,,,,,,,,,,,,,,,,
,,1,40,,,,,,,3,4,4,stim/44.jpeg,HouseObjects,1,stim/objects/HouseObjects/rug2.png,0.9,4,0.2,-0.15,left,42,2020-12-15_09h16.09.115,premup-three_ses-01_part-01_label-phase1,3.2.4,Win32,60,left,0.539000034,4,0,4,0,1,3,1,0,240,211,1,239,,,,,,,,,,,,,,,,,,
,,1,41,,,,,,,1,6,3,stim/63.jpeg,Instruments,2,stim/objects/Instruments/musicstand.png,0.5,4,0.2,-0.15,right,42,2020-12-15_09h16.09.115,premup-three_ses-01_part-01_label-phase1,3.2.4,Win32,60,right,0.957999945,4,0,4,0,1,3,1,0,240,62,1,239,,,,,,,,,,,,,,,,,,
,,1,42,,,,,,,2,1,4,stim/14.jpeg,HouseObjects,1,stim/objects/HouseObjects/rug.png,0.3,4,0.2,-0.15,left,42,2020-12-15_09h16.09.115,premup-three_ses-01_part-01_label-phase1,3.2.4,Win32,60,left,1.039999962,4,0,4,0,1,3,1,0,240,83,1,239,,,,,,,,,,,,,,,,,,
,,1,43,,,,,,,2,1,3,stim/13.jpeg,HouseObjects,1,stim/objects/HouseObjects/rubbergloves.png,0.3,1,-0.2,0.15,left,42,2020-12-15_09h16.09.115,premup-three_ses-01_part-01_label-phase1,3.2.4,Win32,60,left,0.944000006,4,0,4,0,1,3,1,0,240,90,1,239,,,,,,,,,,,,,,,,,,
,,1,44,,,,,,,3,3,2,stim/32.jpeg,Instruments,2,stim/objects/Instruments/musicsheet2.png,0.9,3,-0.2,-0.15,right,42,2020-12-15_09h16.09.115,premup-three_ses-01_part-01_label-phase1,3.2.4,Win32,60,right,0.588999987,4,0,4,0,1,3,1,0,240,193,1,239,,,,,,,,,,,,,,,,,,
,,0,45,,,,,,,1,6,2,stim/62.jpeg,HouseObjects,1,stim/objects/HouseObjects/match.png,0.5,4,0.2,-0.15,left,42,2020-12-15_09h16.09.115,premup-three_ses-01_part-01_label-phase1,3.2.4,Win32,60,right,0.734000206,4,0,4,0,1,3,1,0,240,45,1,239,,,,,,,,,,,,,,,,,,
,,0,46,,,,,,,2,2,4,stim/24.jpeg,Instruments,2,stim/objects/Instruments/marimba2.png,0.3,2,0.2,0.15,right,42,2020-12-15_09h16.09.115,premup-three_ses-01_part-01_label-phase1,3.2.4,Win32,60,left,0.578000069,4,0,4,0,1,3,1,0,240,155,1,239,,,,,,,,,,,,,,,,,,
,,1,47,,,,,,,1,5,2,stim/52.jpeg,HouseObjects,1,stim/objects/HouseObjects/ironingboard.png,0.5,1,-0.2,0.15,left,42,2020-12-15_09h16.09.115,premup-three_ses-01_part-01_label-phase1,3.2.4,Win32,60,left,0.789000034,4,0,4,0,1,3,1,0,240,13,1,239,,,,,,,,,,,,,,,,,,
,,0,48,,,,,,,1,5,1,stim/51.jpeg,Instruments,2,stim/objects/Instruments/keyboard.png,0.5,4,0.2,-0.15,right,42,2020-12-15_09h16.09.115,premup-three_ses-01_part-01_label-phase1,3.2.4,Win32,60,left,0.912999868,4,0,4,0,1,3,1,0,240,20,1,239,,,,,,,,,,,,,,,,,,
,,0,49,,,,,,,3,3,1,stim/31.jpeg,HouseObjects,1,stim/objects/HouseObjects/lintroller2.png,0.1,4,0.2,-0.15,left,42,2020-12-15_09h16.09.115,premup-three_ses-01_part-01_label-phase1,3.2.4,Win32,60,right,1.118000031,4,0,4,0,1,3,1,0,240,160,1,239,,,,,,,,,,,,,,,,,,
,,1,50,,,,,,,2,1,2,stim/12.jpeg,Instruments,2,stim/objects/Instruments/pipepiano.png,0.7,1,-0.2,0.15,right,42,2020-12-15_09h16.09.115,premup-three_ses-01_part-01_label-phase1,3.2.4,Win32,60,right,1.128000021,4,0,4,0,1,3,1,0,240,117,1,239,,,,,,,,,,,,,,,,,,
,,1,51,,,,,,,2,1,4,stim/14.jpeg,Instruments,2,stim/objects/Instruments/record_player.png,0.7,4,0.2,-0.15,right,42,2020-12-15_09h16.09.115,premup-three_ses-01_part-01_label-phase1,3.2.4,Win32,60,right,0.91899991,4,0,4,0,1,3,1,0,240,119,1,239,,,,,,,,,,,,,,,,,,
,,0,52,,,,,,,3,3,4,stim/34.jpeg,HouseObjects,1,stim/objects/HouseObjects/pitcher2.png,0.1,3,-0.2,-0.15,left,42,2020-12-15_09h16.09.115,premup-three_ses-01_part-01_label-phase1,3.2.4,Win32,60,right,1.325999975,4,0,4,0,1,3,1,0,240,163,1,239,,,,,,,,,,,,,,,,,,
,,0,53,,,,,,,1,5,1,stim/51.jpeg,HouseObjects,1,stim/objects/HouseObjects/iron.png,0.5,1,-0.2,0.15,left,42,2020-12-15_09h16.09.115,premup-three_ses-01_part-01_label-phase1,3.2.4,Win32,60,,,4,0,4,0,1,3,1,0,240,4,1,239,,,,,,,,,,,,,,,,,,
,,0,54,,,,,,,1,5,1,stim/51.jpeg,Instruments,2,stim/objects/Instruments/keyboard.png,0.5,4,0.2,-0.15,right,42,2020-12-15_09h16.09.115,premup-three_ses-01_part-01_label-phase1,3.2.4,Win32,60,,,4,0,4,0,1,3,1,0,240,28,1,239,,,,,,,,,,,,,,,,,,
,,0,55,,,,,,,1,6,2,stim/62.jpeg,HouseObjects,1,stim/objects/HouseObjects/match.png,0.5,3,-0.2,-0.15,left,42,2020-12-15_09h16.09.115,premup-three_ses-01_part-01_label-phase1,3.2.4,Win32,60,,,4,0,4,0,1,3,1,0,240,41,1,239,,,,,,,,,,,,,,,,,,
,,0,56,,,,,,,3,4,1,stim/41.jpeg,HouseObjects,1,stim/objects/HouseObjects/recyclingbin2.png,0.9,1,-0.2,0.15,left,42,2020-12-15_09h16.09.115,premup-three_ses-01_part-01_label-phase1,3.2.4,Win32,60,,,4,0,4,0,1,3,1,0,240,200,1,239,,,,,,,,,,,,,,,,,,
,,0,57,,,,,,,2,1,1,stim/11.jpeg,Instruments,2,stim/objects/Instruments/panflute.png,0.7,2,0.2,0.15,right,42,2020-12-15_09h16.09.115,premup-three_ses-01_part-01_label-phase1,3.2.4,Win32,60,,,4,0,4,0,1,3,1,0,240,96,1,239,,,,,,,,,,,,,,,,,,
,,0,58,,,,,,,3,3,3,stim/33.jpeg,Instruments,2,stim/objects/Instruments/musicstand2.png,0.9,2,0.2,0.15,right,42,2020-12-15_09h16.09.115,premup-three_ses-01_part-01_label-phase1,3.2.4,Win32,60,,,4,0,4,0,1,3,1,0,240,190,1,239,,,,,,,,,,,,,,,,,,
,,0,59,,,,,,,1,5,2,stim/52.jpeg,HouseObjects,1,stim/objects/HouseObjects/ironingboard.png,0.5,2,0.2,0.15,left,42,2020-12-15_09h16.09.115,premup-three_ses-01_part-01_label-phase1,3.2.4,Win32,60,,,4,0,4,0,1,3,1,0,240,17,1,239,,,,,,,,,,,,,,,,,,
,,0,60,,,,,,,2,1,1,stim/11.jpeg,Instruments,2,stim/objects/Instruments/panflute.png,0.7,3,-0.2,-0.15,right,42,2020-12-15_09h16.09.115,premup-three_ses-01_part-01_label-phase1,3.2.4,Win32,60,,,4,0,4,0,1,3,1,0,240,116,1,239,,,,,,,,,,,,,,,,,,
,,0,61,,,,,,,3,3,3,stim/33.jpeg,Instruments,2,stim/objects/Instruments/musicstand2.png,0.9,4,0.2,-0.15,right,42,2020-12-15_09h16.09.115,premup-three_ses-01_part-01_label-phase1,3.2.4,Win32,60,,,4,0,4,0,1,3,1,0,240,178,1,239,,,,,,,,,,,,,,,,,,
,,0,62,,,,,,,3,4,3,stim/43.jpeg,HouseObjects,1,stim/objects/HouseObjects/rubbergloves2.png,0.9,3,-0.2,-0.15,left,42,2020-12-15_09h16.09.115,premup-three_ses-01_part-01_label-phase1,3.2.4,Win32,60,,,4,0,4,0,1,3,1,0,240,230,1,239,,,,,,,,,,,,,,,,,,
,,0,63,,,,,,,2,1,2,stim/12.jpeg,Instruments,2,stim/objects/Instruments/pipepiano.png,0.7,2,0.2,0.15,right,42,2020-12-15_09h16.09.115,premup-three_ses-01_part-01_label-phase1,3.2.4,Win32,60,,,4,0,4,0,1,3,1,0,240,105,1,239,,,,,,,,,,,,,,,,,,
,,0,64,,,,,,,2,1,4,stim/14.jpeg,Instruments,2,stim/objects/Instruments/record_player.png,0.7,1,-0.2,0.15,right,42,2020-12-15_09h16.09.115,premup-three_ses-01_part-01_label-phase1,3.2.4,Win32,60,,,4,0,4,0,1,3,1,0,240,99,1,239,,,,,,,,,,,,,,,,,,
,,0,65,,,,,,,2,1,3,stim/13.jpeg,Instruments,2,stim/objects/Instruments/record.png,0.7,4,0.2,-0.15,right,42,2020-12-15_09h16.09.115,premup-three_ses-01_part-01_label-phase1,3.2.4,Win32,60,,,4,0,4,0,1,3,1,0,240,94,1,239,,,,,,,,,,,,,,,,,,
,,1,66,,,,,,,3,4,3,stim/43.jpeg,HouseObjects,1,stim/objects/HouseObjects/rubbergloves2.png,0.9,3,-0.2,-0.15,left,42,2020-12-15_09h16.09.115,premup-three_ses-01_part-01_label-phase1,3.2.4,Win32,60,left,0.795000076,4,0,4,0,1,3,1,0,240,206,1,239,,,,,,,,,,,,,,,,,,
,,0,67,,,,,,,2,2,3,stim/23.jpeg,Instruments,2,stim/objects/Instruments/maraca2.png,0.3,1,-0.2,0.15,right,42,2020-12-15_09h16.09.115,premup-three_ses-01_part-01_label-phase1,3.2.4,Win32,60,left,0.68599987,4,0,4,0,1,3,1,0,240,150,1,239,,,,,,,,,,,,,,,,,,
,,0,68,,,,,,,1,5,4,stim/54.jpeg,Instruments,2,stim/objects/Instruments/marimba.png,0.5,2,0.2,0.15,right,42,2020-12-15_09h16.09.115,premup-three_ses-01_part-01_label-phase1,3.2.4,Win32,60,left,0.897000074,4,0,4,0,1,3,1,0,240,27,1,239,,,,,,,,,,,,,,,,,,
,,1,69,,,,,,,1,5,1,stim/51.jpeg,HouseObjects,1,stim/objects/HouseObjects/iron.png,0.5,1,-0.2,0.15,left,42,2020-12-15_09h16.09.115,premup-three_ses-01_part-01_label-phase1,3.2.4,Win32,60,left,0.782000065,4,0,4,0,1,3,1,0,240,8,1,239,,,,,,,,,,,,,,,,,,
,,1,70,,,,,,,2,1,3,stim/13.jpeg,Instruments,2,stim/objects/Instruments/record.png,0.7,1,-0.2,0.15,right,42,2020-12-15_09h16.09.115,premup-three_ses-01_part-01_label-phase1,3.2.4,Win32,60,right,0.786000013,4,0,4,0,1,3,1,0,240,102,1,239,,,,,,,,,,,,,,,,,,
,,1,71,,,,,,,1,6,1,stim/61.jpeg,Instruments,2,stim/objects/Instruments/metronome.png,0.5,1,-0.2,0.15,right,42,2020-12-15_09h16.09.115,premup-three_ses-01_part-01_label-phase1,3.2.4,Win32,60,right,0.580000162,4,0,4,0,1,3,1,0,240,72,1,239,,,,,,,,,,,,,,,,,,
,,1,72,,,,,,,1,5,1,stim/51.jpeg,HouseObjects,1,stim/objects/HouseObjects/iron.png,0.5,1,-0.2,0.15,left,42,2020-12-15_09h16.09.115,premup-three_ses-01_part-01_label-phase1,3.2.4,Win32,60,left,0.970999956,4,0,4,0,1,3,1,0,240,16,1,239,,,,,,,,,,,,,,,,,,
,,0,73,,,,,,,1,6,4,stim/64.jpeg,HouseObjects,1,stim/objects/HouseObjects/pitcher.png,0.5,4,0.2,-0.15,left,42,2020-12-15_09h16.09.115,premup-three_ses-01_part-01_label-phase1,3.2.4,Win32,60,right,0.789999962,4,0,4,0,1,3,1,0,240,59,1,239,,,,,,,,,,,,,,,,,,
,,1,74,,,,,,,3,4,1,stim/41.jpeg,HouseObjects,1,stim/objects/HouseObjects/recyclingbin2.png,0.9,2,0.2,0.15,left,42,2020-12-15_09h16.09.115,premup-three_ses-01_part-01_label-phase1,3.2.4,Win32,60,left,1.011999846,4,0,4,0,1,3,1,0,240,216,1,239,,,,,,,,,,,,,,,,,,
,,1,75,,,,,,,3,3,4,stim/34.jpeg,Instruments,2,stim/objects/Instruments/oboe2.png,0.9,2,0.2,0.15,right,42,2020-12-15_09h16.09.115,premup-three_ses-01_part-01_label-phase1,3.2.4,Win32,60,right,0.750999928,4,0,4,0,1,3,1,0,240,171,1,239,,,,,,,,,,,,,,,,,,
,,1,76,,,,,,,2,2,2,stim/22.jpeg,HouseObjects,1,stim/objects/HouseObjects/ironingboard2.png,0.7,3,-0.2,-0.15,left,42,2020-12-15_09h16.09.115,premup-three_ses-01_part-01_label-phase1,3.2.4,Win32,60,left,0.616000175,4,0,4,0,1,3,1,0,240,137,1,239,,,,,,,,,,,,,,,,,,
,,1,77,,,,,,,1,5,2,stim/52.jpeg,HouseObjects,1,stim/objects/HouseObjects/ironingboard.png,0.5,2,0.2,0.15,left,42,2020-12-15_09h16.09.115,premup-three_ses-01_part-01_label-phase1,3.2.4,Win32,60,left,0.91899991,4,0,4,0,1,3,1,0,240,1,1,239,,,,,,,,,,,,,,,,,,
,,1,78,,,,,,,1,6,1,stim/61.jpeg,Instruments,2,stim/objects/Instruments/metronome.png,0.5,2,0.2,0.15,right,42,2020-12-15_09h16.09.115,premup-three_ses-01_part-01_label-phase1,3.2.4,Win32,60,right,0.644999981,4,0,4,0,1,3,1,0,240,60,1,239,,,,,,,,,,,,,,,,,,
,,1,79,,,,,,,2,2,4,stim/24.jpeg,HouseObjects,1,stim/objects/HouseObjects/knife2.png,0.7,4,0.2,-0.15,left,42,2020-12-15_09h16.09.115,premup-three_ses-01_part-01_label-phase1,3.2.4,Win32,60,left,0.532000065,4,0,4,0,1,3,1,0,240,127,1,239,,,,,,,,,,,,,,,,,,
,,1,80,,,,,,,2,2,3,stim/23.jpeg,HouseObjects,1,stim/objects/HouseObjects/key2.png,0.7,2,0.2,0.15,left,42,2020-12-15_09h16.09.115,premup-three_ses-01_part-01_label-phase1,3.2.4,Win32,60,left,0.802999973,4,0,4,0,1,3,1,0,240,134,1,239,,,,,,,,,,,,,,,,,,
,,1,81,,,,,,,2,2,1,stim/21.jpeg,HouseObjects,1,stim/objects/HouseObjects/iron2.png,0.7,3,-0.2,-0.15,left,42,2020-12-15_09h16.09.115,premup-three_ses-01_part-01_label-phase1,3.2.4,Win32,60,left,0.578999996,4,0,4,0,1,3,1,0,240,140,1,239,,,,,,,,,,,,,,,,,,
,,1,82,,,,,,,3,3,1,stim/31.jpeg,Instruments,2,stim/objects/Instruments/metronome2.png,0.9,1,-0.2,0.15,right,42,2020-12-15_09h16.09.115,premup-three_ses-01_part-01_label-phase1,3.2.4,Win32,60,right,0.762000084,4,0,4,0,1,3,1,0,240,164,1,239,,,,,,,,,,,,,,,,,,
,,1,83,,,,,,,2,2,3,stim/23.jpeg,HouseObjects,1,stim/objects/HouseObjects/key2.png,0.7,1,-0.2,0.15,left,42,2020-12-15_09h16.09.115,premup-three_ses-01_part-01_label-phase1,3.2.4,Win32,60,left,0.518000126,4,0,4,0,1,3,1,0,240,126,1,239,,,,,,,,,,,,,,,,,,
,,1,84,,,,,,,3,3,1,stim/31.jpeg,Instruments,2,stim/objects/Instruments/metronome2.png,0.9,1,-0.2,0.15,right,42,2020-12-15_09h16.09.115,premup-three_ses-01_part-01_label-phase1,3.2.4,Win32,60,right,0.651000023,4,0,4,0,1,3,1,0,240,172,1,239,,,,,,,,,,,,,,,,,,
,,1,85,,,,,,,1,6,3,stim/63.jpeg,Instruments,2,stim/objects/Instruments/musicstand.png,0.5,3,-0.2,-0.15,right,42,2020-12-15_09h16.09.115,premup-three_ses-01_part-01_label-phase1,3.2.4,Win32,60,right,0.585000038,4,0,4,0,1,3,1,0,240,70,1,239,,,,,,,,,,,,,,,,,,
,,1,86,,,,,,,3,4,1,stim/41.jpeg,HouseObjects,1,stim/objects/HouseObjects/recyclingbin2.png,0.9,1,-0.2,0.15,left,42,2020-12-15_09h16.09.115,premup-three_ses-01_part-01_label-phase1,3.2.4,Win32,60,left,0.585999966,4,0,4,0,1,3,1,0,240,224,1,239,,,,,,,,,,,,,,,,,,
,,1,87,,,,,,,3,4,2,stim/42.jpeg,HouseObjects,1,stim/objects/HouseObjects/remote2.png,0.9,2,0.2,0.15,left,42,2020-12-15_09h16.09.115,premup-three_ses-01_part-01_label-phase1,3.2.4,Win32,60,left,0.828000069,4,0,4,0,1,3,1,0,240,225,1,239,,,,,,,,,,,,,,,,,,
,,1,88,,,,,,,2,1,4,stim/14.jpeg,Instruments,2,stim/objects/Instruments/record_player.png,0.7,2,0.2,0.15,right,42,2020-12-15_09h16.09.115,premup-three_ses-01_part-01_label-phase1,3.2.4,Win32,60,right,0.516000032,4,0,4,0,1,3,1,0,240,107,1,239,,,,,,,,,,,,,,,,,,
,,1,89,,,,,,,3,3,1,stim/31.jpeg,Instruments,2,stim/objects/Instruments/metronome2.png,0.9,2,0.2,0.15,right,42,2020-12-15_09h16.09.115,premup-three_ses-01_part-01_label-phase1,3.2.4,Win32,60,right,0.549000025,4,0,4,0,1,3,1,0,240,180,1,239,,,,,,,,,,,,,,,,,,
,,0,90,,,,,,,2,1,1,stim/11.jpeg,HouseObjects,1,stim/objects/HouseObjects/recyclingbin.png,0.3,2,0.2,0.15,left,42,2020-12-15_09h16.09.115,premup-three_ses-01_part-01_label-phase1,3.2.4,Win32,60,right,0.708999872,4,0,4,0,1,3,1,0,240,88,1,239,,,,,,,,,,,,,,,,,,
,,0,91,,,,,,,3,4,1,stim/41.jpeg,Instruments,2,stim/objects/Instruments/panflute2.png,0.1,1,-0.2,0.15,right,42,2020-12-15_09h16.09.115,premup-three_ses-01_part-01_label-phase1,3.2.4,Win32,60,left,0.548000097,4,0,4,0,1,3,1,0,240,236,1,239,,,,,,,,,,,,,,,,,,
,,1,92,,,,,,,2,2,2,stim/22.jpeg,HouseObjects,1,stim/objects/HouseObjects/ironingboard2.png,0.7,3,-0.2,-0.15,left,42,2020-12-15_09h16.09.115,premup-three_ses-01_part-01_label-phase1,3.2.4,Win32,60,left,0.400000095,4,0,4,0,1,3,1,0,240,145,1,239,,,,,,,,,,,,,,,,,,
,,0,93,,,,,,,1,5,3,stim/53.jpeg,Instruments,2,stim/objects/Instruments/maraca.png,0.5,3,-0.2,-0.15,right,42,2020-12-15_09h16.09.115,premup-three_ses-01_part-01_label-phase1,3.2.4,Win32,60,left,1.355000019,4,0,4,0,1,3,1,0,240,22,1,239,,,,,,,,,,,,,,,,,,
,,1,94,,,,,,,1,6,4,stim/64.jpeg,Instruments,2,stim/objects/Instruments/oboe.png,0.5,2,0.2,0.15,right,42,2020-12-15_09h16.09.115,premup-three_ses-01_part-01_label-phase1,3.2.4,Win32,60,right,0.545000076,4,0,4,0,1,3,1,0,240,67,1,239,,,,,,,,,,,,,,,,,,
,,0,95,,,,,,,2,2,4,stim/24.jpeg,Instruments,2,stim/objects/Instruments/marimba2.png,0.3,3,-0.2,-0.15,right,42,2020-12-15_09h16.09.115,premup-three_ses-01_part-01_label-phase1,3.2.4,Win32,60,left,0.572000027,4,0,4,0,1,3,1,0,240,151,1,239,,,,,,,,,,,,,,,,,,
,,1,96,,,,,,,3,3,1,stim/31.jpeg,Instruments,2,stim/objects/Instruments/metronome2.png,0.9,1,-0.2,0.15,right,42,2020-12-15_09h16.09.115,premup-three_ses-01_part-01_label-phase1,3.2.4,Win32,60,right,0.701999903,4,0,4,0,1,3,1,0,240,196,1,239,,,,,,,,,,,,,,,,,,
,,0,97,,,,,,,2,1,2,stim/12.jpeg,Instruments,2,stim/objects/Instruments/pipepiano.png,0.7,1,-0.2,0.15,right,42,2020-12-15_09h16.09.115,premup-three_ses-01_part-01_label-phase1,3.2.4,Win32,60,left,1.205999851,4,0,4,0,1,3,1,0,240,93,1,239,,,,,,,,,,,,,,,,,,
,,0,98,,,,,,,2,1,1,stim/11.jpeg,HouseObjects,1,stim/objects/HouseObjects/recyclingbin.png,0.3,1,-0.2,0.15,left,42,2020-12-15_09h16.09.115,premup-three_ses-01_part-01_label-phase1,3.2.4,Win32,60,right,0.849999905,4,0,4,0,1,3,1,0,240,80,1,239,,,,,,,,,,,,,,,,,,
,,0,99,,,,,,,1,6,1,stim/61.jpeg,HouseObjects,1,stim/objects/HouseObjects/lintroller.png,0.5,1,-0.2,0.15,left,42,2020-12-15_09h16.09.115,premup-three_ses-01_part-01_label-phase1,3.2.4,Win32,60,right,0.898000002,4,0,4,0,1,3,1,0,240,56,1,239,,,,,,,,,,,,,,,,,,
,,1,100,,,,,,,3,4,1,stim/41.jpeg,HouseObjects,1,stim/objects/HouseObjects/recyclingbin2.png,0.9,3,-0.2,-0.15,left,42,2020-12-15_09h16.09.115,premup-three_ses-01_part-01_label-phase1,3.2.4,Win32,60,left,1.099999905,4,0,4,0,1,3,1,0,240,204,1,239,,,,,,,,,,,,,,,,,,
,,1,101,,,,,,,3,4,3,stim/43.jpeg,HouseObjects,1,stim/objects/HouseObjects/rubbergloves2.png,0.9,4,0.2,-0.15,left,42,2020-12-15_09h16.09.115,premup-three_ses-01_part-01_label-phase1,3.2.4,Win32,60,left,0.631999969,4,0,4,0,1,3,1,0,240,222,1,239,,,,,,,,,,,,,,,,,,
,,0,102,,,,,,,3,4,1,stim/41.jpeg,HouseObjects,1,stim/objects/HouseObjects/recyclingbin2.png,0.9,1,-0.2,0.15,left,42,2020-12-15_09h16.09.115,premup-three_ses-01_part-01_label-phase1,3.2.4,Win32,60,,,4,0,4,0,1,3,1,0,240,220,1,239,,,,,,,,,,,,,,,,,,
,,1,103,,,,,,,3,4,2,stim/42.jpeg,HouseObjects,1,stim/objects/HouseObjects/remote2.png,0.9,3,-0.2,-0.15,left,42,2020-12-15_09h16.09.115,premup-three_ses-01_part-01_label-phase1,3.2.4,Win32,60,left,0.693000078,4,0,4,0,1,3,1,0,240,229,1,239,,,,,,,,,,,,,,,,,,
,,1,104,,,,,,,1,5,4,stim/54.jpeg,Instruments,2,stim/objects/Instruments/marimba.png,0.5,3,-0.2,-0.15,right,42,2020-12-15_09h16.09.115,premup-three_ses-01_part-01_label-phase1,3.2.4,Win32,60,right,0.878000021,4,0,4,0,1,3,1,0,240,31,1,239,,,,,,,,,,,,,,,,,,
,,1,105,,,,,,,2,1,1,stim/11.jpeg,Instruments,2,stim/objects/Instruments/panflute.png,0.7,3,-0.2,-0.15,right,42,2020-12-15_09h16.09.115,premup-three_ses-01_part-01_label-phase1,3.2.4,Win32,60,right,1.035000086,4,0,4,0,1,3,1,0,240,100,1,239,,,,,,,,,,,,,,,,,,
,,0,106,,,,,,,1,5,2,stim/52.jpeg,Instruments,2,stim/objects/Instruments/laud.png,0.5,2,0.2,0.15,right,42,2020-12-15_09h16.09.115,premup-three_ses-01_part-01_label-phase1,3.2.4,Win32,60,left,1.528000116,4,0,4,0,1,3,1,0,240,29,1,239,,,,,,,,,,,,,,,,,,
,,0,107,,,,,,,1,6,1,stim/61.jpeg,HouseObjects,1,stim/objects/HouseObjects/lintroller.png,0.5,4,0.2,-0.15,left,42,2020-12-15_09h16.09.115,premup-three_ses-01_part-01_label-phase1,3.2.4,Win32,60,right,0.868000031,4,0,4,0,1,3,1,0,240,44,1,239,,,,,,,,,,,,,,,,,,
,,0,108,,,,,,,1,6,2,stim/62.jpeg,HouseObjects,1,stim/objects/HouseObjects/match.png,0.5,1,-0.2,0.15,left,42,2020-12-15_09h16.09.115,premup-three_ses-01_part-01_label-phase1,3.2.4,Win32,60,right,0.740999937,4,0,4,0,1,3,1,0,240,53,1,239,,,,,,,,,,,,,,,,,,
,,1,109,,,,,,,1,6,4,stim/64.jpeg,Instruments,2,stim/objects/Instruments/oboe.png,0.5,3,-0.2,-0.15,right,42,2020-12-15_09h16.09.115,premup-three_ses-01_part-01_label-phase1,3.2.4,Win32,60,right,0.833999872,4,0,4,0,1,3,1,0,240,63,1,239,,,,,,,,,,,,,,,,,,
,,1,110,,,,,,,3,4,4,stim/44.jpeg,HouseObjects,1,stim/objects/HouseObjects/rug2.png,0.9,2,0.2,0.15,left,42,2020-12-15_09h16.09.115,premup-three_ses-01_part-01_label-phase1,3.2.4,Win32,60,left,0.759000063,4,0,4,0,1,3,1,0,240,203,1,239,,,,,,,,,,,,,,,,,,
,,0,111,,,,,,,1,6,4,stim/64.jpeg,HouseObjects,1,stim/objects/HouseObjects/pitcher.png,0.5,4,0.2,-0.15,left,42,2020-12-15_09h16.09.115,premup-three_ses-01_part-01_label-phase1,3.2.4,Win32,60,right,0.596999884,4,0,4,0,1,3,1,0,240,51,1,239,,,,,,,,,,,,,,,,,,
,,1,112,,,,,,,3,3,2,stim/32.jpeg,Instruments,2,stim/objects/Instruments/musicsheet2.png,0.9,1,-0.2,0.15,right,42,2020-12-15_09h16.09.115,premup-three_ses-01_part-01_label-phase1,3.2.4,Win32,60,right,0.659999847,4,0,4,0,1,3,1,0,240,185,1,239,,,,,,,,,,,,,,,,,,
,,1,113,,,,,,,1,5,3,stim/53.jpeg,HouseObjects,1,stim/objects/HouseObjects/key.png,0.5,3,-0.2,-0.15,left,42,2020-12-15_09h16.09.115,premup-three_ses-01_part-01_label-phase1,3.2.4,Win32,60,left,0.868999958,4,0,4,0,1,3,1,0,240,10,1,239,,,,,,,,,,,,,,,,,,
,,0,114,,,,,,,2,1,3,stim/13.jpeg,Instruments,2,stim/objects/Instruments/record.png,0.7,4,0.2,-0.15,right,42,2020-12-15_09h16.09.115,premup-three_ses-01_part-01_label-phase1,3.2.4,Win32,60,left,1.302000046,4,0,4,0,1,3,1,0,240,110,1,239,,,,,,,,,,,,,,,,,,
,,1,115,,,,,,,3,4,3,stim/43.jpeg,HouseObjects,1,stim/objects/HouseObjects/rubbergloves2.png,0.9,1,-0.2,0.15,left,42,2020-12-15_09h16.09.115,premup-three_ses-01_part-01_label-phase1,3.2.4,Win32,60,left,0.725000143,4,0,4,0,1,3,1,0,240,234,1,239,,,,,,,,,,,,,,,,,,
,,1,116,,,,,,,3,3,4,stim/34.jpeg,Instruments,2,stim/objects/Instruments/oboe2.png,0.9,2,0.2,0.15,right,42,2020-12-15_09h16.09.115,premup-three_ses-01_part-01_label-phase1,3.2.4,Win32,60,right,0.667000055,4,0,4,0,1,3,1,0,240,175,1,239,,,,,,,,,,,,,,,,,,
,,0,117,,,,,,,1,6,1,stim/61.jpeg,HouseObjects,1,stim/objects/HouseObjects/lintroller.png,0.5,4,0.2,-0.15,left,42,2020-12-15_09h16.09.115,premup-three_ses-01_part-01_label-phase1,3.2.4,Win32,60,right,0.746999979,4,0,4,0,1,3,1,0,240,40,1,239,,,,,,,,,,,,,,,,,,
,,1,118,,,,,,,3,3,2,stim/32.jpeg,Instruments,2,stim/objects/Instruments/musicsheet2.png,0.9,4,0.2,-0.15,right,42,2020-12-15_09h16.09.115,premup-three_ses-01_part-01_label-phase1,3.2.4,Win32,60,right,0.633000135,4,0,4,0,1,3,1,0,240,165,1,239,,,,,,,,,,,,,,,,,,
,,0,119,,,,,,,1,6,2,stim/62.jpeg,HouseObjects,1,stim/objects/HouseObjects/match.png,0.5,3,-0.2,-0.15,left,42,2020-12-15_09h16.09.115,premup-three_ses-01_part-01_label-phase1,3.2.4,Win32,60,right,1.011000156,4,0,4,0,1,3,1,0,240,57,1,239,,,,,,,,,,,,,,,,,,
,,1,120,,,,,,,1,5,2,stim/52.jpeg,Instruments,2,stim/objects/Instruments/laud.png,0.5,2,0.2,0.15,right,42,2020-12-15_09h16.09.115,premup-three_ses-01_part-01_label-phase1,3.2.4,Win32,60,right,1.432999849,4,0,4,0,1,3,1,0,240,21,1,239,,,,,,,,,,,,,,,,,,
,,1,121,,,,,,,2,1,3,stim/13.jpeg,Instruments,2,stim/objects/Instruments/record.png,0.7,4,0.2,-0.15,right,42,2020-12-15_09h16.09.115,premup-three_ses-01_part-01_label-phase1,3.2.4,Win32,60,right,1.572000027,4,0,4,0,1,3,1,0,240,114,1,239,,,,,,,,,,,,,,,,,,
,,1,122,,,,,,,3,3,2,stim/32.jpeg,Instruments,2,stim/objects/Instruments/musicsheet2.png,0.9,4,0.2,-0.15,right,42,2020-12-15_09h16.09.115,premup-three_ses-01_part-01_label-phase1,3.2.4,Win32,60,right,0.914000034,4,0,4,0,1,3,1,0,240,197,1,239,,,,,,,,,,,,,,,,,,
,,0,123,,,,,,,2,2,1,stim/21.jpeg,Instruments,2,stim/objects/Instruments/keyboard2.png,0.3,4,0.2,-0.15,right,42,2020-12-15_09h16.09.115,premup-three_ses-01_part-01_label-phase1,3.2.4,Win32,60,left,0.684999943,4,0,4,0,1,3,1,0,240,152,1,239,,,,,,,,,,,,,,,,,,
,,1,124,,,,,,,2,2,4,stim/24.jpeg,HouseObjects,1,stim/objects/HouseObjects/knife2.png,0.7,2,0.2,0.15,left,42,2020-12-15_09h16.09.115,premup-three_ses-01_part-01_label-phase1,3.2.4,Win32,60,left,0.504999876,4,0,4,0,1,3,1,0,240,135,1,239,,,,,,,,,,,,,,,,,,
,,1,125,,,,,,,2,2,4,stim/24.jpeg,HouseObjects,1,stim/objects/HouseObjects/knife2.png,0.7,4,0.2,-0.15,left,42,2020-12-15_09h16.09.115,premup-three_ses-01_part-01_label-phase1,3.2.4,Win32,60,left,0.761000156,4,0,4,0,1,3,1,0,240,147,1,239,,,,,,,,,,,,,,,,,,
,,1,126,,,,,,,3,3,1,stim/31.jpeg,Instruments,2,stim/objects/Instruments/metronome2.png,0.9,4,0.2,-0.15,right,42,2020-12-15_09h16.09.115,premup-three_ses-01_part-01_label-phase1,3.2.4,Win32,60,right,1.805999994,4,0,4,0,1,3,1,0,240,168,1,239,,,,,,,,,,,,,,,,,,
,,1,127,,,,,,,3,4,3,stim/43.jpeg,HouseObjects,1,stim/objects/HouseObjects/rubbergloves2.png,0.9,2,0.2,0.15,left,42,2020-12-15_09h16.09.115,premup-three_ses-01_part-01_label-phase1,3.2.4,Win32,60,left,1.374000072,4,0,4,0,1,3,1,0,240,226,1,239,,,,,,,,,,,,,,,,,,
,,1,128,,,,,,,3,4,3,stim/43.jpeg,HouseObjects,1,stim/objects/HouseObjects/rubbergloves2.png,0.9,2,0.2,0.15,left,42,2020-12-15_09h16.09.115,premup-three_ses-01_part-01_label-phase1,3.2.4,Win32,60,left,1.258999825,4,0,4,0,1,3,1,0,240,214,1,239,,,,,,,,,,,,,,,,,,
,,0,129,,,,,,,3,4,2,stim/42.jpeg,Instruments,2,stim/objects/Instruments/pipepiano2.png,0.1,3,-0.2,-0.15,right,42,2020-12-15_09h16.09.115,premup-three_ses-01_part-01_label-phase1,3.2.4,Win32,60,left,1.365999937,4,0,4,0,1,3,1,0,240,237,1,239,,,,,,,,,,,,,,,,,,
,,1,130,,,,,,,3,4,4,stim/44.jpeg,HouseObjects,1,stim/objects/HouseObjects/rug2.png,0.9,4,0.2,-0.15,left,42,2020-12-15_09h16.09.115,premup-three_ses-01_part-01_label-phase1,3.2.4,Win32,60,left,1.024000168,4,0,4,0,1,3,1,0,240,235,1,239,,,,,,,,,,,,,,,,,,
,,0,131,,,,,,,1,6,4,stim/64.jpeg,HouseObjects,1,stim/objects/HouseObjects/pitcher.png,0.5,1,-0.2,0.15,left,42,2020-12-15_09h16.09.115,premup-three_ses-01_part-01_label-phase1,3.2.4,Win32,60,right,1.280999899,4,0,4,0,1,3,1,0,240,55,1,239,,,,,,,,,,,,,,,,,,
,,0,132,,,,,,,2,2,1,stim/21.jpeg,Instruments,2,stim/objects/Instruments/keyboard2.png,0.3,2,0.2,0.15,right,42,2020-12-15_09h16.09.115,premup-three_ses-01_part-01_label-phase1,3.2.4,Win32,60,left,0.667000055,4,0,4,0,1,3,1,0,240,148,1,239,,,,,,,,,,,,,,,,,,
,,1,133,,,,,,,3,3,2,stim/32.jpeg,Instruments,2,stim/objects/Instruments/musicsheet2.png,0.9,4,0.2,-0.15,right,42,2020-12-15_09h16.09.115,premup-three_ses-01_part-01_label-phase1,3.2.4,Win32,60,right,0.710999966,4,0,4,0,1,3,1,0,240,181,1,239,,,,,,,,,,,,,,,,,,
,,1,134,,,,,,,2,2,2,stim/22.jpeg,HouseObjects,1,stim/objects/HouseObjects/ironingboard2.png,0.7,1,-0.2,0.15,left,42,2020-12-15_09h16.09.115,premup-three_ses-01_part-01_label-phase1,3.2.4,Win32,60,left,0.835999966,4,0,4,0,1,3,1,0,240,133,1,239,,,,,,,,,,,,,,,,,,
,,1,135,,,,,,,3,4,1,stim/41.jpeg,HouseObjects,1,stim/objects/HouseObjects/recyclingbin2.png,0.9,3,-0.2,-0.15,left,42,2020-12-15_09h16.09.115,premup-three_ses-01_part-01_label-phase1,3.2.4,Win32,60,left,0.822999954,4,0,4,0,1,3,1,0,240,212,1,239,,,,,,,,,,,,,,,,,,
,,1,136,,,,,,,2,2,1,stim/21.jpeg,HouseObjects,1,stim/objects/HouseObjects/iron2.png,0.7,1,-0.2,0.15,left,42,2020-12-15_09h16.09.115,premup-three_ses-01_part-01_label-phase1,3.2.4,Win32,60,left,0.663000107,4,0,4,0,1,3,1,0,240,124,1,239,,,,,,,,,,,,,,,,,,
,,0,137,,,,,,,1,5,2,stim/52.jpeg,HouseObjects,1,stim/objects/HouseObjects/ironingboard.png,0.5,2,0.2,0.15,left,42,2020-12-15_09h16.09.115,premup-three_ses-01_part-01_label-phase1,3.2.4,Win32,60,right,1.086000204,4,0,4,0,1,3,1,0,240,9,1,239,,,,,,,,,,,,,,,,,,
,,0,138,,,,,,,1,5,4,stim/54.jpeg,HouseObjects,1,stim/objects/HouseObjects/knife.png,0.5,4,0.2,-0.15,left,42,2020-12-15_09h16.09.115,premup-three_ses-01_part-01_label-phase1,3.2.4,Win32,60,right,0.611999989,4,0,4,0,1,3,1,0,240,19,1,239,,,,,,,,,,,,,,,,,,
,,1,139,,,,,,,2,1,3,stim/13.jpeg,Instruments,2,stim/objects/Instruments/record.png,0.7,2,0.2,0.15,right,42,2020-12-15_09h16.09.115,premup-three_ses-01_part-01_label-phase1,3.2.4,Win32,60,right,1.641000032,4,0,4,0,1,3,1,0,240,98,1,239,,,,,,,,,,,,,,,,,,
,,0,140,,,,,,,1,5,4,stim/54.jpeg,Instruments,2,stim/objects/Instruments/marimba.png,0.5,3,-0.2,-0.15,right,42,2020-12-15_09h16.09.115,premup-three_ses-01_part-01_label-phase1,3.2.4,Win32,60,left,0.522000074,4,0,4,0,1,3,1,0,240,39,1,239,,,,,,,,,,,,,,,,,,
,,0,141,,,,,,,1,6,1,stim/61.jpeg,Instruments,2,stim/objects/Instruments/metronome.png,0.5,3,-0.2,-0.15,right,42,2020-12-15_09h16.09.115,premup-three_ses-01_part-01_label-phase1,3.2.4,Win32,60,left,1.00999999,4,0,4,0,1,3,1,0,240,68,1,239,,,,,,,,,,,,,,,,,,
,,0,142,,,,,,,1,5,3,stim/53.jpeg,HouseObjects,1,stim/objects/HouseObjects/key.png,0.5,4,0.2,-0.15,left,42,2020-12-15_09h16.09.115,premup-three_ses-01_part-01_label-phase1,3.2.4,Win32,60,,,4,0,4,0,1,3,1,0,240,6,1,239,,,,,,,,,,,,,,,,,,
,,1,143,,,,,,,2,1,1,stim/11.jpeg,Instruments,2,stim/objects/Instruments/panflute.png,0.7,1,-0.2,0.15,right,42,2020-12-15_09h16.09.115,premup-three_ses-01_part-01_label-phase1,3.2.4,Win32,60,right,1.394000053,4,0,4,0,1,3,1,0,240,92,1,239,,,,,,,,,,,,,,,,,,
,,0,144,,,,,,,3,4,2,stim/42.jpeg,HouseObjects,1,stim/objects/HouseObjects/remote2.png,0.9,2,0.2,0.15,left,42,2020-12-15_09h16.09.115,premup-three_ses-01_part-01_label-phase1,3.2.4,Win32,60,right,1.458999872,4,0,4,0,1,3,1,0,240,213,1,239,,,,,,,,,,,,,,,,,,
,,0,145,,,,,,,1,5,4,stim/54.jpeg,HouseObjects,1,stim/objects/HouseObjects/knife.png,0.5,1,-0.2,0.15,left,42,2020-12-15_09h16.09.115,premup-three_ses-01_part-01_label-phase1,3.2.4,Win32,60,,,4,0,4,0,1,3,1,0,240,11,1,239,,,,,,,,,,,,,,,,,,
,,0,146,,,,,,,2,2,1,stim/21.jpeg,Instruments,2,stim/objects/Instruments/keyboard2.png,0.3,4,0.2,-0.15,right,42,2020-12-15_09h16.09.115,premup-three_ses-01_part-01_label-phase1,3.2.4,Win32,60,left,1.462000132,4,0,4,0,1,3,1,0,240,156,1,239,,,,,,,,,,,,,,,,,,
,,0,147,,,,,,,1,6,4,stim/64.jpeg,Instruments,2,stim/objects/Instruments/oboe.png,0.5,1,-0.2,0.15,right,42,2020-12-15_09h16.09.115,premup-three_ses-01_part-01_label-phase1,3.2.4,Win32,60,left,1.099999905,4,0,4,0,1,3,1,0,240,71,1,239,,,,,,,,,,,,,,,,,,
,,1,148,,,,,,,2,1,2,stim/12.jpeg,HouseObjects,1,stim/objects/HouseObjects/remote.png,0.3,2,0.2,0.15,left,42,2020-12-15_09h16.09.115,premup-three_ses-01_part-01_label-phase1,3.2.4,Win32,60,left,0.973999977,4,0,4,0,1,3,1,0,240,81,1,239,,,,,,,,,,,,,,,,,,
,,0,149,,,,,,,3,4,1,stim/41.jpeg,HouseObjects,1,stim/objects/HouseObjects/recyclingbin2.png,0.9,1,-0.2,0.15,left,42,2020-12-15_09h16.09.115,premup-three_ses-01_part-01_label-phase1,3.2.4,Win32,60,right,0.742000103,4,0,4,0,1,3,1,0,240,228,1,239,,,,,,,,,,,,,,,,,,
,,1,150,,,,,,,3,4,2,stim/42.jpeg,HouseObjects,1,stim/objects/HouseObjects/remote2.png,0.9,3,-0.2,-0.15,left,42,2020-12-15_09h16.09.115,premup-three_ses-01_part-01_label-phase1,3.2.4,Win32,60,left,1.299000025,4,0,4,0,1,3,1,0,240,205,1,239,,,,,,,,,,,,,,,,,,
,,1,151,,,,,,,1,5,2,stim/52.jpeg,Instruments,2,stim/objects/Instruments/laud.png,0.5,4,0.2,-0.15,right,42,2020-12-15_09h16.09.115,premup-three_ses-01_part-01_label-phase1,3.2.4,Win32,60,right,0.618999958,4,0,4,0,1,3,1,0,240,37,1,239,,,,,,,,,,,,,,,,,,
,,0,152,,,,,,,3,4,4,stim/44.jpeg,Instruments,2,stim/objects/Instruments/record_player2.png,0.1,3,-0.2,-0.15,right,42,2020-12-15_09h16.09.115,premup-three_ses-01_part-01_label-phase1,3.2.4,Win32,60,left,0.378000021,4,0,4,0,1,3,1,0,240,239,1,239,,,,,,,,,,,,,,,,,,
,,1,153,,,,,,,2,2,2,stim/22.jpeg,HouseObjects,1,stim/objects/HouseObjects/ironingboard2.png,0.7,4,0.2,-0.15,left,42,2020-12-15_09h16.09.115,premup-three_ses-01_part-01_label-phase1,3.2.4,Win32,60,left,0.94900012,4,0,4,0,1,3,1,0,240,141,1,239,,,,,,,,,,,,,,,,,,
,,1,154,,,,,,,3,4,1,stim/41.jpeg,HouseObjects,1,stim/objects/HouseObjects/recyclingbin2.png,0.9,3,-0.2,-0.15,left,42,2020-12-15_09h16.09.115,premup-three_ses-01_part-01_label-phase1,3.2.4,Win32,60,left,0.671000004,4,0,4,0,1,3,1,0,240,232,1,239,,,,,,,,,,,,,,,,,,
,,1,155,,,,,,,2,2,2,stim/22.jpeg,HouseObjects,1,stim/objects/HouseObjects/ironingboard2.png,0.7,3,-0.2,-0.15,left,42,2020-12-15_09h16.09.115,premup-three_ses-01_part-01_label-phase1,3.2.4,Win32,60,left,0.483999968,4,0,4,0,1,3,1,0,240,129,1,239,,,,,,,,,,,,,,,,,,
,,1,156,,,,,,,3,4,2,stim/42.jpeg,HouseObjects,1,stim/objects/HouseObjects/remote2.png,0.9,1,-0.2,0.15,left,42,2020-12-15_09h16.09.115,premup-three_ses-01_part-01_label-phase1,3.2.4,Win32,60,left,0.950999975,4,0,4,0,1,3,1,0,240,233,1,239,,,,,,,,,,,,,,,,,,
,,1,157,,,,,,,2,2,3,stim/23.jpeg,HouseObjects,1,stim/objects/HouseObjects/key2.png,0.7,3,-0.2,-0.15,left,42,2020-12-15_09h16.09.115,premup-three_ses-01_part-01_label-phase1,3.2.4,Win32,60,left,0.537000179,4,0,4,0,1,3,1,0,240,130,1,239,,,,,,,,,,,,,,,,,,
,,0,158,,,,,,,2,2,3,stim/23.jpeg,Instruments,2,stim/objects/Instruments/maraca2.png,0.3,2,0.2,0.15,right,42,2020-12-15_09h16.09.115,premup-three_ses-01_part-01_label-phase1,3.2.4,Win32,60,left,0.395999908,4,0,4,0,1,3,1,0,240,154,1,239,,,,,,,,,,,,,,,,,,
,,0,159,,,,,,,2,2,2,stim/22.jpeg,Instruments,2,stim/objects/Instruments/laud2.png,0.3,3,-0.2,-0.15,right,42,2020-12-15_09h16.09.115,premup-three_ses-01_part-01_label-phase1,3.2.4,Win32,60,left,0.355000019,4,0,4,0,1,3,1,0,240,153,1,239,,,,,,,,,,,,,,,,,,
,,1,160,,,,,,,1,6,2,stim/62.jpeg,Instruments,2,stim/objects/Instruments/musicsheet.png,0.5,1,-0.2,0.15,right,42,2020-12-15_09h16.09.115,premup-three_ses-01_part-01_label-phase1,3.2.4,Win32,60,right,0.664000034,4,0,4,0,1,3,1,0,240,73,1,239,,,,,,,,,,,,,,,,,,
,,1,161,,,,,,,3,3,3,stim/33.jpeg,Instruments,2,stim/objects/Instruments/musicstand2.png,0.9,3,-0.2,-0.15,right,42,2020-12-15_09h16.09.115,premup-three_ses-01_part-01_label-phase1,3.2.4,Win32,60,right,0.921000004,4,0,4,0,1,3,1,0,240,186,1,239,,,,,,,,,,,,,,,,,,
,,0,162,,,,,,,2,1,2,stim/12.jpeg,HouseObjects,1,stim/objects/HouseObjects/remote.png,0.3,2,0.2,0.15,left,42,2020-12-15_09h16.09.115,premup-three_ses-01_part-01_label-phase1,3.2.4,Win32,60,right,1.065000057,4,0,4,0,1,3,1,0,240,85,1,239,,,,,,,,,,,,,,,,,,
,,0,163,,,,,,,2,1,4,stim/14.jpeg,Instruments,2,stim/objects/Instruments/record_player.png,0.7,3,-0.2,-0.15,right,42,2020-12-15_09h16.09.115,premup-three_ses-01_part-01_label-phase1,3.2.4,Win32,60,left,0.746999979,4,0,4,0,1,3,1,0,240,95,1,239,,,,,,,,,,,,,,,,,,
,,0,164,,,,,,,2,1,4,stim/14.jpeg,HouseObjects,1,stim/objects/HouseObjects/rug.png,0.3,2,0.2,0.15,left,42,2020-12-15_09h16.09.115,premup-three_ses-01_part-01_label-phase1,3.2.4,Win32,60,right,0.643000126,4,0,4,0,1,3,1,0,240,87,1,239,,,,,,,,,,,,,,,,,,
,,0,165,,,,,,,1,6,3,stim/63.jpeg,HouseObjects,1,stim/objects/HouseObjects/pan.png,0.5,3,-0.2,-0.15,left,42,2020-12-15_09h16.09.115,premup-three_ses-01_part-01_label-phase1,3.2.4,Win32,60,right,0.911000013,4,0,4,0,1,3,1,0,240,54,1,239,,,,,,,,,,,,,,,,,,
,,1,166,,,,,,,2,1,4,stim/14.jpeg,Instruments,2,stim/objects/Instruments/record_player.png,0.7,3,-0.2,-0.15,right,42,2020-12-15_09h16.09.115,premup-three_ses-01_part-01_label-phase1,3.2.4,Win32,60,right,0.726000071,4,0,4,0,1,3,1,0,240,111,1,239,,,,,,,,,,,,,,,,,,
,,1,167,,,,,,,3,3,2,stim/32.jpeg,Instruments,2,stim/objects/Instruments/musicsheet2.png,0.9,4,0.2,-0.15,right,42,2020-12-15_09h16.09.115,premup-three_ses-01_part-01_label-phase1,3.2.4,Win32,60,right,1.197000027,4,0,4,0,1,3,1,0,240,189,1,239,,,,,,,,,,,,,,,,,,
,,0,168,,,,,,,1,5,4,stim/54.jpeg,HouseObjects,1,stim/objects/HouseObjects/knife.png,0.5,2,0.2,0.15,left,42,2020-12-15_09h16.09.115,premup-three_ses-01_part-01_label-phase1,3.2.4,Win32,60,,,4,0,4,0,1,3,1,0,240,7,1,239,,,,,,,,,,,,,,,,,,
,,1,169,,,,,,,3,4,2,stim/42.jpeg,HouseObjects,1,stim/objects/HouseObjects/remote2.png,0.9,4,0.2,-0.15,left,42,2020-12-15_09h16.09.115,premup-three_ses-01_part-01_label-phase1,3.2.4,Win32,60,left,1.472000122,4,0,4,0,1,3,1,0,240,217,1,239,,,,,,,,,,,,,,,,,,
,,1,170,,,,,,,3,3,4,stim/34.jpeg,Instruments,2,stim/objects/Instruments/oboe2.png,0.9,1,-0.2,0.15,right,42,2020-12-15_09h16.09.115,premup-three_ses-01_part-01_label-phase1,3.2.4,Win32,60,right,1.868999958,4,0,4,0,1,3,1,0,240,183,1,239,,,,,,,,,,,,,,,,,,
,,0,171,,,,,,,1,5,1,stim/51.jpeg,Instruments,2,stim/objects/Instruments/keyboard.png,0.5,1,-0.2,0.15,right,42,2020-12-15_09h16.09.115,premup-three_ses-01_part-01_label-phase1,3.2.4,Win32,60,left,1.621999979,4,0,4,0,1,3,1,0,240,32,1,239,,,,,,,,,,,,,,,,,,
,,0,172,,,,,,,2,2,4,stim/24.jpeg,HouseObjects,1,stim/objects/HouseObjects/knife2.png,0.7,2,0.2,0.15,left,42,2020-12-15_09h16.09.115,premup-three_ses-01_part-01_label-phase1,3.2.4,Win32,60,,,4,0,4,0,1,3,1,0,240,131,1,239,,,,,,,,,,,,,,,,,,
,,0,173,,,,,,,1,6,3,stim/63.jpeg,HouseObjects,1,stim/objects/HouseObjects/pan.png,0.5,4,0.2,-0.15,left,42,2020-12-15_09h16.09.115,premup-three_ses-01_part-01_label-phase1,3.2.4,Win32,60,right,0.977999926,4,0,4,0,1,3,1,0,240,46,1,239,,,,,,,,,,,,,,,,,,
,,1,174,,,,,,,3,3,3,stim/33.jpeg,Instruments,2,stim/objects/Instruments/musicstand2.png,0.9,1,-0.2,0.15,right,42,2020-12-15_09h16.09.115,premup-three_ses-01_part-01_label-phase1,3.2.4,Win32,60,right,0.698999882,4,0,4,0,1,3,1,0,240,194,1,239,,,,,,,,,,,,,,,,,,
,,1,175,,,,,,,3,4,2,stim/42.jpeg,HouseObjects,1,stim/objects/HouseObjects/remote2.png,0.9,1,-0.2,0.15,left,42,2020-12-15_09h16.09.115,premup-three_ses-01_part-01_label-phase1,3.2.4,Win32,60,left,0.620000124,4,0,4,0,1,3,1,0,240,201,1,239,,,,,,,,,,,,,,,,,,
,,0,176,,,,,,,1,6,3,stim/63.jpeg,HouseObjects,1,stim/objects/HouseObjects/pan.png,0.5,1,-0.2,0.15,left,42,2020-12-15_09h16.09.115,premup-three_ses-01_part-01_label-phase1,3.2.4,Win32,60,right,0.684999943,4,0,4,0,1,3,1,0,240,42,1,239,,,,,,,,,,,,,,,,,,
,,1,177,,,,,,,3,4,3,stim/43.jpeg,HouseObjects,1,stim/objects/HouseObjects/rubbergloves2.png,0.9,4,0.2,-0.15,left,42,2020-12-15_09h16.09.115,premup-three_ses-01_part-01_label-phase1,3.2.4,Win32,60,left,0.710000038,4,0,4,0,1,3,1,0,240,202,1,239,,,,,,,,,,,,,,,,,,
,,0,178,,,,,,,2,2,2,stim/22.jpeg,Instruments,2,stim/objects/Instruments/laud2.png,0.3,4,0.2,-0.15,right,42,2020-12-15_09h16.09.115,premup-three_ses-01_part-01_label-phase1,3.2.4,Win32,60,left,0.599999905,4,0,4,0,1,3,1,0,240,149,1,239,,,,,,,,,,,,,,,,,,
,,0,179,,,,,,,1,5,3,stim/53.jpeg,HouseObjects,1,stim/objects/HouseObjects/key.png,0.5,4,0.2,-0.15,left,42,2020-12-15_09h16.09.115,premup-three_ses-01_part-01_label-phase1,3.2.4,Win32,60,right,1.285000086,4,0,4,0,1,3,1,0,240,18,1,239,,,,,,,,,,,,,,,,,,
,,0,180,,,,,,,2,1,1,stim/11.jpeg,Instruments,2,stim/objects/Instruments/panflute.png,0.7,3,-0.2,-0.15,right,42,2020-12-15_09h16.09.115,premup-three_ses-01_part-01_label-phase1,3.2.4,Win32,60,left,0.871000051,4,0,4,0,1,3,1,0,240,104,1,239,,,,,,,,,,,,,,,,,,
,,1,181,,,,,,,2,2,1,stim/21.jpeg,HouseObjects,1,stim/objects/HouseObjects/iron2.png,0.7,2,0.2,0.15,left,42,2020-12-15_09h16.09.115,premup-three_ses-01_part-01_label-phase1,3.2.4,Win32,60,left,0.501999855,4,0,4,0,1,3,1,0,240,128,1,239,,,,,,,,,,,,,,,,,,
,,0,182,,,,,,,3,3,3,stim/33.jpeg,HouseObjects,1,stim/objects/HouseObjects/pan2.png,0.1,4,0.2,-0.15,left,42,2020-12-15_09h16.09.115,premup-three_ses-01_part-01_label-phase1,3.2.4,Win32,60,right,0.868000031,4,0,4,0,1,3,1,0,240,162,1,239,,,,,,,,,,,,,,,,,,
,,1,183,,,,,,,3,3,3,stim/33.jpeg,Instruments,2,stim/objects/Instruments/musicstand2.png,0.9,2,0.2,0.15,right,42,2020-12-15_09h16.09.115,premup-three_ses-01_part-01_label-phase1,3.2.4,Win32,60,right,0.521999836,4,0,4,0,1,3,1,0,240,174,1,239,,,,,,,,,,,,,,,,,,
,,0,184,,,,,,,1,5,3,stim/53.jpeg,HouseObjects,1,stim/objects/HouseObjects/key.png,0.5,2,0.2,0.15,left,42,2020-12-15_09h16.09.115,premup-three_ses-01_part-01_label-phase1,3.2.4,Win32,60,right,0.854000092,4,0,4,0,1,3,1,0,240,14,1,239,,,,,,,,,,,,,,,,,,
,,0,185,,,,,,,1,6,3,stim/63.jpeg,Instruments,2,stim/objects/Instruments/musicstand.png,0.5,1,-0.2,0.15,right,42,2020-12-15_09h16.09.115,premup-three_ses-01_part-01_label-phase1,3.2.4,Win32,60,left,0.546999931,4,0,4,0,1,3,1,0,240,66,1,239,,,,,,,,,,,,,,,,,,
,,1,186,,,,,,,2,2,1,stim/21.jpeg,HouseObjects,1,stim/objects/HouseObjects/iron2.png,0.7,1,-0.2,0.15,left,42,2020-12-15_09h16.09.115,premup-three_ses-01_part-01_label-phase1,3.2.4,Win32,60,left,0.611000061,4,0,4,0,1,3,1,0,240,132,1,239,,,,,,,,,,,,,,,,,,
,,0,187,,,,,,,2,2,2,stim/22.jpeg,Instruments,2,stim/objects/Instruments/laud2.png,0.3,4,0.2,-0.15,right,42,2020-12-15_09h16.09.115,premup-three_ses-01_part-01_label-phase1,3.2.4,Win32,60,left,0.53399992,4,0,4,0,1,3,1,0,240,157,1,239,,,,,,,,,,,,,,,,,,
,,1,188,,,,,,,2,1,2,stim/12.jpeg,Instruments,2,stim/objects/Instruments/pipepiano.png,0.7,3,-0.2,-0.15,right,42,2020-12-15_09h16.09.115,premup-three_ses-01_part-01_label-phase1,3.2.4,Win32,60,right,1.023999929,4,0,4,0,1,3,1,0,240,101,1,239,,,,,,,,,,,,,,,,,,
,,1,189,,,,,,,3,3,3,stim/33.jpeg,Instruments,2,stim/objects/Instruments/musicstand2.png,0.9,2,0.2,0.15,right,42,2020-12-15_09h16.09.115,premup-three_ses-01_part-01_label-phase1,3.2.4,Win32,60,right,0.820999861,4,0,4,0,1,3,1,0,240,182,1,239,,,,,,,,,,,,,,,,,,
,,1,190,,,,,,,3,3,2,stim/32.jpeg,Instruments,2,stim/objects/Instruments/musicsheet2.png,0.9,3,-0.2,-0.15,right,42,2020-12-15_09h16.09.115,premup-three_ses-01_part-01_label-phase1,3.2.4,Win32,60,right,1.264000177,4,0,4,0,1,3,1,0,240,169,1,239,,,,,,,,,,,,,,,,,,
,,1,191,,,,,,,3,3,1,stim/31.jpeg,Instruments,2,stim/objects/Instruments/metronome2.png,0.9,3,-0.2,-0.15,right,42,2020-12-15_09h16.09.115,premup-three_ses-01_part-01_label-phase1,3.2.4,Win32,60,right,1.211999893,4,0,4,0,1,3,1,0,240,192,1,239,,,,,,,,,,,,,,,,,,
,,1,192,,,,,,,2,1,2,stim/12.jpeg,HouseObjects,1,stim/objects/HouseObjects/remote.png,0.3,1,-0.2,0.15,left,42,2020-12-15_09h16.09.115,premup-three_ses-01_part-01_label-phase1,3.2.4,Win32,60,left,1.521000147,4,0,4,0,1,3,1,0,240,89,1,239,,,,,,,,,,,,,,,,,,
,,1,193,,,,,,,1,6,4,stim/64.jpeg,Instruments,2,stim/objects/Instruments/oboe.png,0.5,3,-0.2,-0.15,right,42,2020-12-15_09h16.09.115,premup-three_ses-01_part-01_label-phase1,3.2.4,Win32,60,right,0.79399991,4,0,4,0,1,3,1,0,240,79,1,239,,,,,,,,,,,,,,,,,,
,,1,194,,,,,,,3,4,1,stim/41.jpeg,HouseObjects,1,stim/objects/HouseObjects/recyclingbin2.png,0.9,1,-0.2,0.15,left,42,2020-12-15_09h16.09.115,premup-three_ses-01_part-01_label-phase1,3.2.4,Win32,60,left,1.200999975,4,0,4,0,1,3,1,0,240,208,1,239,,,,,,,,,,,,,,,,,,
,,1,195,,,,,,,1,5,3,stim/53.jpeg,Instruments,2,stim/objects/Instruments/maraca.png,0.5,2,0.2,0.15,right,42,2020-12-15_09h16.09.115,premup-three_ses-01_part-01_label-phase1,3.2.4,Win32,60,right,1.224999905,4,0,4,0,1,3,1,0,240,26,1,239,,,,,,,,,,,,,,,,,,
,,1,196,,,,,,,3,3,4,stim/34.jpeg,Instruments,2,stim/objects/Instruments/oboe2.png,0.9,2,0.2,0.15,right,42,2020-12-15_09h16.09.115,premup-three_ses-01_part-01_label-phase1,3.2.4,Win32,60,right,0.70299983,4,0,4,0,1,3,1,0,240,187,1,239,,,,,,,,,,,,,,,,,,
,,0,197,,,,,,,2,1,4,stim/14.jpeg,HouseObjects,1,stim/objects/HouseObjects/rug.png,0.3,3,-0.2,-0.15,left,42,2020-12-15_09h16.09.115,premup-three_ses-01_part-01_label-phase1,3.2.4,Win32,60,right,1.346000195,4,0,4,0,1,3,1,0,240,91,1,239,,,,,,,,,,,,,,,,,,
,,0,198,,,,,,,2,1,2,stim/12.jpeg,Instruments,2,stim/objects/Instruments/pipepiano.png,0.7,3,-0.2,-0.15,right,42,2020-12-15_09h16.09.115,premup-three_ses-01_part-01_label-phase1,3.2.4,Win32,60,left,1.669999838,4,0,4,0,1,3,1,0,240,97,1,239,,,,,,,,,,,,,,,,,,
,,1,199,,,,,,,2,1,4,stim/14.jpeg,Instruments,2,stim/objects/Instruments/record_player.png,0.7,4,0.2,-0.15,right,42,2020-12-15_09h16.09.115,premup-three_ses-01_part-01_label-phase1,3.2.4,Win32,60,right,1.500999928,4,0,4,0,1,3,1,0,240,115,1,239,,,,,,,,,,,,,,,,,,
,,1,200,,,,,,,1,5,1,stim/51.jpeg,Instruments,2,stim/objects/Instruments/keyboard.png,0.5,4,0.2,-0.15,right,42,2020-12-15_09h16.09.115,premup-three_ses-01_part-01_label-phase1,3.2.4,Win32,60,right,1.868000031,4,0,4,0,1,3,1,0,240,36,1,239,,,,,,,,,,,,,,,,,,
,,1,201,,,,,,,2,2,4,stim/24.jpeg,HouseObjects,1,stim/objects/HouseObjects/knife2.png,0.7,3,-0.2,-0.15,left,42,2020-12-15_09h16.09.115,premup-three_ses-01_part-01_label-phase1,3.2.4,Win32,60,left,1.016000032,4,0,4,0,1,3,1,0,240,139,1,239,,,,,,,,,,,,,,,,,,
,,0,202,,,,,,,2,1,2,stim/12.jpeg,Instruments,2,stim/objects/Instruments/pipepiano.png,0.7,2,0.2,0.15,right,42,2020-12-15_09h16.09.115,premup-three_ses-01_part-01_label-phase1,3.2.4,Win32,60,,,4,0,4,0,1,3,1,0,240,109,1,239,,,,,,,,,,,,,,,,,,
,,0,203,,,,,,,2,1,2,stim/12.jpeg,Instruments,2,stim/objects/Instruments/pipepiano.png,0.7,1,-0.2,0.15,right,42,2020-12-15_09h16.09.115,premup-three_ses-01_part-01_label-phase1,3.2.4,Win32,60,,,4,0,4,0,1,3,1,0,240,113,1,239,,,,,,,,,,,,,,,,,,
,,1,204,,,,,,,2,2,4,stim/24.jpeg,HouseObjects,1,stim/objects/HouseObjects/knife2.png,0.7,3,-0.2,-0.15,left,42,2020-12-15_09h16.09.115,premup-three_ses-01_part-01_label-phase1,3.2.4,Win32,60,left,1.132999897,4,0,4,0,1,3,1,0,240,143,1,239,,,,,,,,,,,,,,,,,,
,,1,205,,,,,,,2,2,1,stim/21.jpeg,HouseObjects,1,stim/objects/HouseObjects/iron2.png,0.7,1,-0.2,0.15,left,42,2020-12-15_09h16.09.115,premup-three_ses-01_part-01_label-phase1,3.2.4,Win32,60,left,1.15199995,4,0,4,0,1,3,1,0,240,136,1,239,,,,,,,,,,,,,,,,,,
,,0,206,,,,,,,1,6,2,stim/62.jpeg,HouseObjects,1,stim/objects/HouseObjects/match.png,0.5,1,-0.2,0.15,left,42,2020-12-15_09h16.09.115,premup-three_ses-01_part-01_label-phase1,3.2.4,Win32,60,,,4,0,4,0,1,3,1,0,240,49,1,239,,,,,,,,,,,,,,,,,,
,,1,207,,,,,,,2,1,4,stim/14.jpeg,Instruments,2,stim/objects/Instruments/record_player.png,0.7,3,-0.2,-0.15,right,42,2020-12-15_09h16.09.115,premup-three_ses-01_part-01_label-phase1,3.2.4,Win32,60,right,0.775000095,4,0,4,0,1,3,1,0,240,103,1,239,,,,,,,,,,,,,,,,,,
,,0,208,,,,,,,1,5,2,stim/52.jpeg,Instruments,2,stim/objects/Instruments/laud.png,0.5,4,0.2,-0.15,right,42,2020-12-15_09h16.09.115,premup-three_ses-01_part-01_label-phase1,3.2.4,Win32,60,left,1.635999918,4,0,4,0,1,3,1,0,240,33,1,239,,,,,,,,,,,,,,,,,,
,,0,209,,,,,,,1,6,1,stim/61.jpeg,HouseObjects,1,stim/objects/HouseObjects/lintroller.png,0.5,2,0.2,0.15,left,42,2020-12-15_09h16.09.115,premup-three_ses-01_part-01_label-phase1,3.2.4,Win32,60,right,1.860000134,4,0,4,0,1,3,1,0,240,52,1,239,,,,,,,,,,,,,,,,,,
,,0,210,,,,,,,1,6,4,stim/64.jpeg,HouseObjects,1,stim/objects/HouseObjects/pitcher.png,0.5,3,-0.2,-0.15,left,42,2020-12-15_09h16.09.115,premup-three_ses-01_part-01_label-phase1,3.2.4,Win32,60,right,1.894999981,4,0,4,0,1,3,1,0,240,43,1,239,,,,,,,,,,,,,,,,,,
,,1,211,,,,,,,2,2,3,stim/23.jpeg,HouseObjects,1,stim/objects/HouseObjects/key2.png,0.7,3,-0.2,-0.15,left,42,2020-12-15_09h16.09.115,premup-three_ses-01_part-01_label-phase1,3.2.4,Win32,60,left,0.832999945,4,0,4,0,1,3,1,0,240,142,1,239,,,,,,,,,,,,,,,,,,
,,1,212,,,,,,,1,6,2,stim/62.jpeg,Instruments,2,stim/objects/Instruments/musicsheet.png,0.5,1,-0.2,0.15,right,42,2020-12-15_09h16.09.115,premup-three_ses-01_part-01_label-phase1,3.2.4,Win32,60,right,0.748999834,4,0,4,0,1,3,1,0,240,69,1,239,,,,,,,,,,,,,,,,,,
,,1,213,,,,,,,3,4,4,stim/44.jpeg,HouseObjects,1,stim/objects/HouseObjects/rug2.png,0.9,2,0.2,0.15,left,42,2020-12-15_09h16.09.115,premup-three_ses-01_part-01_label-phase1,3.2.4,Win32,60,left,0.636999846,4,0,4,0,1,3,1,0,240,231,1,239,,,,,,,,,,,,,,,,,,
,,1,214,,,,,,,3,3,1,stim/31.jpeg,Instruments,2,stim/objects/Instruments/metronome2.png,0.9,3,-0.2,-0.15,right,42,2020-12-15_09h16.09.115,premup-three_ses-01_part-01_label-phase1,3.2.4,Win32,60,right,0.661000013,4,0,4,0,1,3,1,0,240,188,1,239,,,,,,,,,,,,,,,,,,
,,1,215,,,,,,,1,6,2,stim/62.jpeg,Instruments,2,stim/objects/Instruments/musicsheet.png,0.5,4,0.2,-0.15,right,42,2020-12-15_09h16.09.115,premup-three_ses-01_part-01_label-phase1,3.2.4,Win32,60,right,0.927000046,4,0,4,0,1,3,1,0,240,61,1,239,,,,,,,,,,,,,,,,,,
,,1,216,,,,,,,1,5,4,stim/54.jpeg,HouseObjects,1,stim/objects/HouseObjects/knife.png,0.5,3,-0.2,-0.15,left,42,2020-12-15_09h16.09.115,premup-three_ses-01_part-01_label-phase1,3.2.4,Win32,60,left,1.141000032,4,0,4,0,1,3,1,0,240,15,1,239,,,,,,,,,,,,,,,,,,
,,1,217,,,,,,,2,2,3,stim/23.jpeg,HouseObjects,1,stim/objects/HouseObjects/key2.png,0.7,2,0.2,0.15,left,42,2020-12-15_09h16.09.115,premup-three_ses-01_part-01_label-phase1,3.2.4,Win32,60,left,0.520000219,4,0,4,0,1,3,1,0,240,146,1,239,,,,,,,,,,,,,,,,,,
,,1,218,,,,,,,3,3,3,stim/33.jpeg,Instruments,2,stim/objects/Instruments/musicstand2.png,0.9,1,-0.2,0.15,right,42,2020-12-15_09h16.09.115,premup-three_ses-01_part-01_label-phase1,3.2.4,Win32,60,right,1.108999968,4,0,4,0,1,3,1,0,240,170,1,239,,,,,,,,,,,,,,,,,,
,,0,219,,,,,,,1,5,3,stim/53.jpeg,Instruments,2,stim/objects/Instruments/maraca.png,0.5,3,-0.2,-0.15,right,42,2020-12-15_09h16.09.115,premup-three_ses-01_part-01_label-phase1,3.2.4,Win32,60,left,1.504999876,4,0,4,0,1,3,1,0,240,30,1,239,,,,,,,,,,,,,,,,,,
,,1,220,,,,,,,3,3,4,stim/34.jpeg,Instruments,2,stim/objects/Instruments/oboe2.png,0.9,3,-0.2,-0.15,right,42,2020-12-15_09h16.09.115,premup-three_ses-01_part-01_label-phase1,3.2.4,Win32,60,right,1.49000001,4,0,4,0,1,3,1,0,240,191,1,239,,,,,,,,,,,,,,,,,,
,,0,221,,,,,,,3,3,4,stim/34.jpeg,Instruments,2,stim/objects/Instruments/oboe2.png,0.9,4,0.2,-0.15,right,42,2020-12-15_09h16.09.115,premup-three_ses-01_part-01_label-phase1,3.2.4,Win32,60,,,4,0,4,0,1,3,1,0,240,167,1,239,,,,,,,,,,,,,,,,,,
,,1,222,,,,,,,1,5,4,stim/54.jpeg,Instruments,2,stim/objects/Instruments/marimba.png,0.5,4,0.2,-0.15,right,42,2020-12-15_09h16.09.115,premup-three_ses-01_part-01_label-phase1,3.2.4,Win32,60,right,1.109999895,4,0,4,0,1,3,1,0,240,35,1,239,,,,,,,,,,,,,,,,,,
,,0,223,,,,,,,2,1,3,stim/13.jpeg,Instruments,2,stim/objects/Instruments/record.png,0.7,1,-0.2,0.15,right,42,2020-12-15_09h16.09.115,premup-three_ses-01_part-01_label-phase1,3.2.4,Win32,60,left,1.139999866,4,0,4,0,1,3,1,0,240,118,1,239,,,,,,,,,,,,,,,,,,
,,1,224,,,,,,,3,3,2,stim/32.jpeg,Instruments,2,stim/objects/Instruments/musicsheet2.png,0.9,4,0.2,-0.15,right,42,2020-12-15_09h16.09.115,premup-three_ses-01_part-01_label-phase1,3.2.4,Win32,60,right,0.80099988,4,0,4,0,1,3,1,0,240,177,1,239,,,,,,,,,,,,,,,,,,
,,0,225,,,,,,,3,3,2,stim/32.jpeg,HouseObjects,1,stim/objects/HouseObjects/match2.png,0.1,4,0.2,-0.15,left,42,2020-12-15_09h16.09.115,premup-three_ses-01_part-01_label-phase1,3.2.4,Win32,60,right,0.782999992,4,0,4,0,1,3,1,0,240,161,1,239,,,,,,,,,,,,,,,,,,
,,1,226,,,,,,,3,4,2,stim/42.jpeg,HouseObjects,1,stim/objects/HouseObjects/remote2.png,0.9,3,-0.2,-0.15,left,42,2020-12-15_09h16.09.115,premup-three_ses-01_part-01_label-phase1,3.2.4,Win32,60,left,0.528000116,4,0,4,0,1,3,1,0,240,221,1,239,,,,,,,,,,,,,,,,,,
,,1,227,,,,,,,1,6,1,stim/61.jpeg,Instruments,2,stim/objects/Instruments/metronome.png,0.5,2,0.2,0.15,right,42,2020-12-15_09h16.09.115,premup-three_ses-01_part-01_label-phase1,3.2.4,Win32,60,right,0.530999899,4,0,4,0,1,3,1,0,240,64,1,239,,,,,,,,,,,,,,,,,,
,,1,228,,,,,,,3,3,2,stim/32.jpeg,Instruments,2,stim/objects/Instruments/musicsheet2.png,0.9,4,0.2,-0.15,right,42,2020-12-15_09h16.09.115,premup-three_ses-01_part-01_label-phase1,3.2.4,Win32,60,right,0.411999941,4,0,4,0,1,3,1,0,240,173,1,239,,,,,,,,,,,,,,,,,,
,,1,229,,,,,,,2,2,3,stim/23.jpeg,HouseObjects,1,stim/objects/HouseObjects/key2.png,0.7,1,-0.2,0.15,left,42,2020-12-15_09h16.09.115,premup-three_ses-01_part-01_label-phase1,3.2.4,Win32,60,left,0.549999952,4,0,4,0,1,3,1,0,240,138,1,239,,,,,,,,,,,,,,,,,,
,,1,230,,,,,,,1,6,3,stim/63.jpeg,Instruments,2,stim/objects/Instruments/musicstand.png,0.5,2,0.2,0.15,right,42,2020-12-15_09h16.09.115,premup-three_ses-01_part-01_label-phase1,3.2.4,Win32,60,right,0.422999859,4,0,4,0,1,3,1,0,240,78,1,239,,,,,,,,,,,,,,,,,,
,,0,231,,,,,,,2,1,3,stim/13.jpeg,HouseObjects,1,stim/objects/HouseObjects/rubbergloves.png,0.3,4,0.2,-0.15,left,42,2020-12-15_09h16.09.115,premup-three_ses-01_part-01_label-phase1,3.2.4,Win32,60,right,0.51699996,4,0,4,0,1,3,1,0,240,86,1,239,,,,,,,,,,,,,,,,,,
,,1,232,,,,,,,3,3,3,stim/33.jpeg,Instruments,2,stim/objects/Instruments/musicstand2.png,0.9,2,0.2,0.15,right,42,2020-12-15_09h16.09.115,premup-three_ses-01_part-01_label-phase1,3.2.4,Win32,60,right,0.513000011,4,0,4,0,1,3,1,0,240,166,1,239,,,,,,,,,,,,,,,,,,
,,0,233,,,,,,,1,6,4,stim/64.jpeg,HouseObjects,1,stim/objects/HouseObjects/pitcher.png,0.5,3,-0.2,-0.15,left,42,2020-12-15_09h16.09.115,premup-three_ses-01_part-01_label-phase1,3.2.4,Win32,60,right,0.663000107,4,0,4,0,1,3,1,0,240,47,1,239,,,,,,,,,,,,,,,,,,
,,1,234,,,,,,,3,3,1,stim/31.jpeg,Instruments,2,stim/objects/Instruments/metronome2.png,0.9,3,-0.2,-0.15,right,42,2020-12-15_09h16.09.115,premup-three_ses-01_part-01_label-phase1,3.2.4,Win32,60,right,0.602999926,4,0,4,0,1,3,1,0,240,184,1,239,,,,,,,,,,,,,,,,,,
,,1,235,,,,,,,1,6,4,stim/64.jpeg,Instruments,2,stim/objects/Instruments/oboe.png,0.5,3,-0.2,-0.15,right,42,2020-12-15_09h16.09.115,premup-three_ses-01_part-01_label-phase1,3.2.4,Win32,60,right,0.555000067,4,0,4,0,1,3,1,0,240,75,1,239,,,,,,,,,,,,,,,,,,
,,0,236,,,,,,,1,5,4,stim/54.jpeg,Instruments,2,stim/objects/Instruments/marimba.png,0.5,2,0.2,0.15,right,42,2020-12-15_09h16.09.115,premup-three_ses-01_part-01_label-phase1,3.2.4,Win32,60,left,0.586999893,4,0,4,0,1,3,1,0,240,23,1,239,,,,,,,,,,,,,,,,,,
,,1,237,,,,,,,2,1,1,stim/11.jpeg,HouseObjects,1,stim/objects/HouseObjects/recyclingbin.png,0.3,4,0.2,-0.15,left,42,2020-12-15_09h16.09.115,premup-three_ses-01_part-01_label-phase1,3.2.4,Win32,60,left,0.670999765,4,0,4,0,1,3,1,0,240,84,1,239,,,,,,,,,,,,,,,,,,
,,1,238,,,,,,,2,2,3,stim/23.jpeg,HouseObjects,1,stim/objects/HouseObjects/key2.png,0.7,4,0.2,-0.15,left,42,2020-12-15_09h16.09.115,premup-three_ses-01_part-01_label-phase1,3.2.4,Win32,60,left,0.536999941,4,0,4,0,1,3,1,0,240,122,1,239,,,,,,,,,,,,,,,,,,
,,1,239,,,,,,,2,2,2,stim/22.jpeg,HouseObjects,1,stim/objects/HouseObjects/ironingboard2.png,0.7,3,-0.2,-0.15,left,42,2020-12-15_09h16.09.115,premup-three_ses-01_part-01_label-phase1,3.2.4,Win32,60,left,0.379000187,4,0,4,0,1,3,1,0,240,121,1,239,,,,,,,,,,,,,,,,,,
,,1,240,,,,,,,3,4,3,stim/43.jpeg,HouseObjects,1,stim/objects/HouseObjects/rubbergloves2.png,0.9,2,0.2,0.15,left,42,2020-12-15_09h16.09.115,premup-three_ses-01_part-01_label-phase1,3.2.4,Win32,60,left,0.493999958,4,0,4,0,1,3,1,0,240,218,1,239,,,,,,,,,,,,,,,,,,
,,,,,,,,,,,6,,stim/61.jpeg,,,,,,,,,42,2020-12-15_09h16.09.115,premup-three_ses-01_part-01_label-phase1,3.2.4,Win32,60,,,4,0,4,0,1,3,,,,,,,1,0,20,24.15900016,,,1,0,6,5,1,5,Household items,5,15,Music items,85,95
,,,,,,,,,,,3,,stim/31.jpeg,,,,,,,,,42,2020-12-15_09h16.09.115,premup-three_ses-01_part-01_label-phase1,3.2.4,Win32,60,,,4,0,4,0,1,3,,,,,,,1,0,20,9.625,,,1,0,6,2,1,5,Household items,65,75,Music items,25,35
,,,,,,,,,,,1,,stim/11.jpeg,,,,,,,,,42,2020-12-15_09h16.09.115,premup-three_ses-01_part-01_label-phase1,3.2.4,Win32,60,,,4,0,4,0,1,3,,,,,,,1,0,65,12.63100004,,,1,0,6,0,1,5,Household items,45,55,Music items,45,55
,,,,,,,,,,,4,,stim/41.jpeg,,,,,,,,,42,2020-12-15_09h16.09.115,premup-three_ses-01_part-01_label-phase1,3.2.4,Win32,60,,,4,0,4,0,1,3,,,,,,,1,0,80,4.542000055,,,1,0,6,3,1,5,Household items,65,75,Music items,25,35
,,,,,,,,,,,2,,stim/21.jpeg,,,,,,,,,42,2020-12-15_09h16.09.115,premup-three_ses-01_part-01_label-phase1,3.2.4,Win32,60,,,4,0,4,0,1,3,,,,,,,1,0,90,3.335000038,,,1,0,6,1,1,5,Music items,45,55,Household items,45,55
,,,,,,,,,,,5,,stim/51.jpeg,,,,,,,,,42,2020-12-15_09h16.09.115,premup-three_ses-01_part-01_label-phase1,3.2.4,Win32,60,,,4,0,4,0,1,3,,,,,,,1,0,33,6.570000172,,,1,0,6,4,1,5,Music items,5,15,Household items,85,95
,,,,,,,,,,,,,,,,,,,,,,42,2020-12-15_09h16.09.115,premup-three_ses-01_part-01_label-phase1,3.2.4,Win32,60,,,4,0,4,0,1,3,,,,,,,,,,,,,,,,,,,,,,,,
,,0,1,,,,,,,2,2,4,stim/24.jpeg,HouseObjects,1,stim/objects/HouseObjects/knife2.png,0.7,2,0.2,0.15,left,42,2020-12-15_09h16.09.115,premup-three_ses-01_part-01_label-phase1,3.2.4,Win32,60,,,4,0,4,0,1,3,1,0,240,135,1,239,,,,,,,,,,,,,,,,,,
,,0,2,,,,,,,1,5,3,stim/53.jpeg,HouseObjects,1,stim/objects/HouseObjects/key.png,0.5,3,-0.2,-0.15,left,42,2020-12-15_09h16.09.115,premup-three_ses-01_part-01_label-phase1,3.2.4,Win32,60,right,1.414000034,4,0,4,0,1,3,1,0,240,10,1,239,,,,,,,,,,,,,,,,,,
,,0,3,,,,,,,2,1,4,stim/14.jpeg,HouseObjects,1,stim/objects/HouseObjects/rug.png,0.3,3,-0.2,-0.15,left,42,2020-12-15_09h16.09.115,premup-three_ses-01_part-01_label-phase1,3.2.4,Win32,60,,,4,0,4,0,1,3,1,0,240,91,1,239,,,,,,,,,,,,,,,,,,
,,0,4,,,,,,,1,6,2,stim/62.jpeg,HouseObjects,1,stim/objects/HouseObjects/match.png,0.5,3,-0.2,-0.15,left,42,2020-12-15_09h16.09.115,premup-three_ses-01_part-01_label-phase1,3.2.4,Win32,60,right,0.722000122,4,0,4,0,1,3,1,0,240,57,1,239,,,,,,,,,,,,,,,,,,
,,0,5,,,,,,,2,1,4,stim/14.jpeg,Instruments,2,stim/objects/Instruments/record_player.png,0.7,4,0.2,-0.15,right,42,2020-12-15_09h16.09.115,premup-three_ses-01_part-01_label-phase1,3.2.4,Win32,60,left,1.073999882,4,0,4,0,1,3,1,0,240,119,1,239,,,,,,,,,,,,,,,,,,
,,0,6,,,,,,,2,1,3,stim/13.jpeg,Instruments,2,stim/objects/Instruments/record.png,0.7,4,0.2,-0.15,right,42,2020-12-15_09h16.09.115,premup-three_ses-01_part-01_label-phase1,3.2.4,Win32,60,left,1.101000071,4,0,4,0,1,3,1,0,240,94,1,239,,,,,,,,,,,,,,,,,,
,,0,7,,,,,,,2,2,4,stim/24.jpeg,Instruments,2,stim/objects/Instruments/marimba2.png,0.3,2,0.2,0.15,right,42,2020-12-15_09h16.09.115,premup-three_ses-01_part-01_label-phase1,3.2.4,Win32,60,left,0.631999969,4,0,4,0,1,3,1,0,240,155,1,239,,,,,,,,,,,,,,,,,,
,,0,8,,,,,,,3,3,4,stim/34.jpeg,Instruments,2,stim/objects/Instruments/oboe2.png,0.9,2,0.2,0.15,right,42,2020-12-15_09h16.09.115,premup-three_ses-01_part-01_label-phase1,3.2.4,Win32,60,left,0.802999973,4,0,4,0,1,3,1,0,240,187,1,239,,,,,,,,,,,,,,,,,,
,,1,9,,,,,,,2,1,3,stim/13.jpeg,HouseObjects,1,stim/objects/HouseObjects/rubbergloves.png,0.3,1,-0.2,0.15,left,42,2020-12-15_09h16.09.115,premup-three_ses-01_part-01_label-phase1,3.2.4,Win32,60,left,0.924999952,4,0,4,0,1,3,1,0,240,90,1,239,,,,,,,,,,,,,,,,,,
,,1,10,,,,,,,1,6,4,stim/64.jpeg,Instruments,2,stim/objects/Instruments/oboe.png,0.5,1,-0.2,0.15,right,42,2020-12-15_09h16.09.115,premup-three_ses-01_part-01_label-phase1,3.2.4,Win32,60,right,1.15899992,4,0,4,0,1,3,1,0,240,71,1,239,,,,,,,,,,,,,,,,,,
,,0,11,,,,,,,3,3,3,stim/33.jpeg,HouseObjects,1,stim/objects/HouseObjects/pan2.png,0.1,4,0.2,-0.15,left,42,2020-12-15_09h16.09.115,premup-three_ses-01_part-01_label-phase1,3.2.4,Win32,60,right,0.877000093,4,0,4,0,1,3,1,0,240,162,1,239,,,,,,,,,,,,,,,,,,
,,1,12,,,,,,,1,6,4,stim/64.jpeg,Instruments,2,stim/objects/Instruments/oboe.png,0.5,3,-0.2,-0.15,right,42,2020-12-15_09h16.09.115,premup-three_ses-01_part-01_label-phase1,3.2.4,Win32,60,right,0.52699995,4,0,4,0,1,3,1,0,240,79,1,239,,,,,,,,,,,,,,,,,,
,,0,13,,,,,,,1,6,3,stim/63.jpeg,HouseObjects,1,stim/objects/HouseObjects/pan.png,0.5,3,-0.2,-0.15,left,42,2020-12-15_09h16.09.115,premup-three_ses-01_part-01_label-phase1,3.2.4,Win32,60,right,0.51699996,4,0,4,0,1,3,1,0,240,54,1,239,,,,,,,,,,,,,,,,,,
,,0,14,,,,,,,3,3,1,stim/31.jpeg,HouseObjects,1,stim/objects/HouseObjects/lintroller2.png,0.1,4,0.2,-0.15,left,42,2020-12-15_09h16.09.115,premup-three_ses-01_part-01_label-phase1,3.2.4,Win32,60,right,1.197000027,4,0,4,0,1,3,1,0,240,160,1,239,,,,,,,,,,,,,,,,,,
,,1,15,,,,,,,3,3,4,stim/34.jpeg,Instruments,2,stim/objects/Instruments/oboe2.png,0.9,3,-0.2,-0.15,right,42,2020-12-15_09h16.09.115,premup-three_ses-01_part-01_label-phase1,3.2.4,Win32,60,right,0.643000126,4,0,4,0,1,3,1,0,240,195,1,239,,,,,,,,,,,,,,,,,,
,,1,16,,,,,,,3,4,3,stim/43.jpeg,HouseObjects,1,stim/objects/HouseObjects/rubbergloves2.png,0.9,3,-0.2,-0.15,left,42,2020-12-15_09h16.09.115,premup-three_ses-01_part-01_label-phase1,3.2.4,Win32,60,left,0.802999973,4,0,4,0,1,3,1,0,240,206,1,239,,,,,,,,,,,,,,,,,,
,,0,17,,,,,,,1,6,4,stim/64.jpeg,HouseObjects,1,stim/objects/HouseObjects/pitcher.png,0.5,3,-0.2,-0.15,left,42,2020-12-15_09h16.09.115,premup-three_ses-01_part-01_label-phase1,3.2.4,Win32,60,right,0.582000017,4,0,4,0,1,3,1,0,240,43,1,239,,,,,,,,,,,,,,,,,,
,,0,18,,,,,,,1,6,4,stim/64.jpeg,Instruments,2,stim/objects/Instruments/oboe.png,0.5,3,-0.2,-0.15,right,42,2020-12-15_09h16.09.115,premup-three_ses-01_part-01_label-phase1,3.2.4,Win32,60,left,1.127999783,4,0,4,0,1,3,1,0,240,75,1,239,,,,,,,,,,,,,,,,,,
,,1,19,,,,,,,3,3,3,stim/33.jpeg,Instruments,2,stim/objects/Instruments/musicstand2.png,0.9,2,0.2,0.15,right,42,2020-12-15_09h16.09.115,premup-three_ses-01_part-01_label-phase1,3.2.4,Win32,60,right,1.245999813,4,0,4,0,1,3,1,0,240,198,1,239,,,,,,,,,,,,,,,,,,
,,0,20,,,,,,,3,4,1,stim/41.jpeg,Instruments,2,stim/objects/Instruments/panflute2.png,0.1,1,-0.2,0.15,right,42,2020-12-15_09h16.09.115,premup-three_ses-01_part-01_label-phase1,3.2.4,Win32,60,left,1.111000061,4,0,4,0,1,3,1,0,240,236,1,239,,,,,,,,,,,,,,,,,,
,,0,21,,,,,,,1,5,3,stim/53.jpeg,HouseObjects,1,stim/objects/HouseObjects/key.png,0.5,4,0.2,-0.15,left,42,2020-12-15_09h16.09.115,premup-three_ses-01_part-01_label-phase1,3.2.4,Win32,60,right,0.645999908,4,0,4,0,1,3,1,0,240,6,1,239,,,,,,,,,,,,,,,,,,
,,1,22,,,,,,,2,2,3,stim/23.jpeg,HouseObjects,1,stim/objects/HouseObjects/key2.png,0.7,2,0.2,0.15,left,42,2020-12-15_09h16.09.115,premup-three_ses-01_part-01_label-phase1,3.2.4,Win32,60,left,0.736000061,4,0,4,0,1,3,1,0,240,146,1,239,,,,,,,,,,,,,,,,,,
,,1,23,,,,,,,1,6,4,stim/64.jpeg,Instruments,2,stim/objects/Instruments/oboe.png,0.5,3,-0.2,-0.15,right,42,2020-12-15_09h16.09.115,premup-three_ses-01_part-01_label-phase1,3.2.4,Win32,60,right,0.710000038,4,0,4,0,1,3,1,0,240,63,1,239,,,,,,,,,,,,,,,,,,
,,1,24,,,,,,,3,4,1,stim/41.jpeg,HouseObjects,1,stim/objects/HouseObjects/recyclingbin2.png,0.9,3,-0.2,-0.15,left,42,2020-12-15_09h16.09.115,premup-three_ses-01_part-01_label-phase1,3.2.4,Win32,60,left,0.808000088,4,0,4,0,1,3,1,0,240,204,1,239,,,,,,,,,,,,,,,,,,
,,0,25,,,,,,,1,6,3,stim/63.jpeg,HouseObjects,1,stim/objects/HouseObjects/pan.png,0.5,4,0.2,-0.15,left,42,2020-12-15_09h16.09.115,premup-three_ses-01_part-01_label-phase1,3.2.4,Win32,60,right,1.45299983,4,0,4,0,1,3,1,0,240,50,1,239,,,,,,,,,,,,,,,,,,
,,1,26,,,,,,,2,1,3,stim/13.jpeg,HouseObjects,1,stim/objects/HouseObjects/rubbergloves.png,0.3,4,0.2,-0.15,left,42,2020-12-15_09h16.09.115,premup-three_ses-01_part-01_label-phase1,3.2.4,Win32,60,left,0.855999947,4,0,4,0,1,3,1,0,240,86,1,239,,,,,,,,,,,,,,,,,,
,,1,27,,,,,,,1,6,2,stim/62.jpeg,Instruments,2,stim/objects/Instruments/musicsheet.png,0.5,4,0.2,-0.15,right,42,2020-12-15_09h16.09.115,premup-three_ses-01_part-01_label-phase1,3.2.4,Win32,60,right,0.977999926,4,0,4,0,1,3,1,0,240,61,1,239,,,,,,,,,,,,,,,,,,
,,1,28,,,,,,,1,5,2,stim/52.jpeg,HouseObjects,1,stim/objects/HouseObjects/ironingboard.png,0.5,3,-0.2,-0.15,left,42,2020-12-15_09h16.09.115,premup-three_ses-01_part-01_label-phase1,3.2.4,Win32,60,left,0.745000124,4,0,4,0,1,3,1,0,240,5,1,239,,,,,,,,,,,,,,,,,,
,,1,29,,,,,,,2,2,2,stim/22.jpeg,HouseObjects,1,stim/objects/HouseObjects/ironingboard2.png,0.7,3,-0.2,-0.15,left,42,2020-12-15_09h16.09.115,premup-three_ses-01_part-01_label-phase1,3.2.4,Win32,60,left,0.582999945,4,0,4,0,1,3,1,0,240,137,1,239,,,,,,,,,,,,,,,,,,
,,1,30,,,,,,,2,1,1,stim/11.jpeg,HouseObjects,1,stim/objects/HouseObjects/recyclingbin.png,0.3,1,-0.2,0.15,left,42,2020-12-15_09h16.09.115,premup-three_ses-01_part-01_label-phase1,3.2.4,Win32,60,left,0.551999807,4,0,4,0,1,3,1,0,240,80,1,239,,,,,,,,,,,,,,,,,,
,,1,31,,,,,,,2,1,2,stim/12.jpeg,HouseObjects,1,stim/objects/HouseObjects/remote.png,0.3,2,0.2,0.15,left,42,2020-12-15_09h16.09.115,premup-three_ses-01_part-01_label-phase1,3.2.4,Win32,60,left,0.717000008,4,0,4,0,1,3,1,0,240,81,1,239,,,,,,,,,,,,,,,,,,
,,0,32,,,,,,,3,4,3,stim/43.jpeg,Instruments,2,stim/objects/Instruments/record2.png,0.1,3,-0.2,-0.15,right,42,2020-12-15_09h16.09.115,premup-three_ses-01_part-01_label-phase1,3.2.4,Win32,60,left,0.655999899,4,0,4,0,1,3,1,0,240,238,1,239,,,,,,,,,,,,,,,,,,
,,1,33,,,,,,,1,5,2,stim/52.jpeg,HouseObjects,1,stim/objects/HouseObjects/ironingboard.png,0.5,2,0.2,0.15,left,42,2020-12-15_09h16.09.115,premup-three_ses-01_part-01_label-phase1,3.2.4,Win32,60,left,0.54399991,4,0,4,0,1,3,1,0,240,9,1,239,,,,,,,,,,,,,,,,,,
,,1,34,,,,,,,3,3,3,stim/33.jpeg,Instruments,2,stim/objects/Instruments/musicstand2.png,0.9,2,0.2,0.15,right,42,2020-12-15_09h16.09.115,premup-three_ses-01_part-01_label-phase1,3.2.4,Win32,60,right,0.861999989,4,0,4,0,1,3,1,0,240,182,1,239,,,,,,,,,,,,,,,,,,
,,0,35,,,,,,,1,5,2,stim/52.jpeg,Instruments,2,stim/objects/Instruments/laud.png,0.5,3,-0.2,-0.15,right,42,2020-12-15_09h16.09.115,premup-three_ses-01_part-01_label-phase1,3.2.4,Win32,60,left,1.208999872,4,0,4,0,1,3,1,0,240,25,1,239,,,,,,,,,,,,,,,,,,
,,1,36,,,,,,,2,1,3,stim/13.jpeg,HouseObjects,1,stim/objects/HouseObjects/rubbergloves.png,0.3,4,0.2,-0.15,left,42,2020-12-15_09h16.09.115,premup-three_ses-01_part-01_label-phase1,3.2.4,Win32,60,left,0.717000008,4,0,4,0,1,3,1,0,240,82,1,239,,,,,,,,,,,,,,,,,,
,,1,37,,,,,,,3,4,1,stim/41.jpeg,HouseObjects,1,stim/objects/HouseObjects/recyclingbin2.png,0.9,3,-0.2,-0.15,left,42,2020-12-15_09h16.09.115,premup-three_ses-01_part-01_label-phase1,3.2.4,Win32,60,left,0.618999958,4,0,4,0,1,3,1,0,240,232,1,239,,,,,,,,,,,,,,,,,,
,,1,38,,,,,,,3,3,3,stim/33.jpeg,Instruments,2,stim/objects/Instruments/musicstand2.png,0.9,1,-0.2,0.15,right,42,2020-12-15_09h16.09.115,premup-three_ses-01_part-01_label-phase1,3.2.4,Win32,60,right,0.598999977,4,0,4,0,1,3,1,0,240,170,1,239,,,,,,,,,,,,,,,,,,
,,0,39,,,,,,,2,2,2,stim/22.jpeg,Instruments,2,stim/objects/Instruments/laud2.png,0.3,4,0.2,-0.15,right,42,2020-12-15_09h16.09.115,premup-three_ses-01_part-01_label-phase1,3.2.4,Win32,60,left,0.180000067,4,0,4,0,1,3,1,0,240,157,1,239,,,,,,,,,,,,,,,,,,
,,1,40,,,,,,,1,6,3,stim/63.jpeg,Instruments,2,stim/objects/Instruments/musicstand.png,0.5,4,0.2,-0.15,right,42,2020-12-15_09h16.09.115,premup-three_ses-01_part-01_label-phase1,3.2.4,Win32,60,right,0.219000101,4,0,4,0,1,3,1,0,240,62,1,239,,,,,,,,,,,,,,,,,,
,,1,41,,,,,,,2,1,3,stim/13.jpeg,Instruments,2,stim/objects/Instruments/record.png,0.7,4,0.2,-0.15,right,42,2020-12-15_09h16.09.115,premup-three_ses-01_part-01_label-phase1,3.2.4,Win32,60,right,0.601999998,4,0,4,0,1,3,1,0,240,114,1,239,,,,,,,,,,,,,,,,,,
,,0,42,,,,,,,2,1,3,stim/13.jpeg,Instruments,2,stim/objects/Instruments/record.png,0.7,2,0.2,0.15,right,42,2020-12-15_09h16.09.115,premup-three_ses-01_part-01_label-phase1,3.2.4,Win32,60,left,0.519000053,4,0,4,0,1,3,1,0,240,98,1,239,,,,,,,,,,,,,,,,,,
,,0,43,,,,,,,2,2,4,stim/24.jpeg,HouseObjects,1,stim/objects/HouseObjects/knife2.png,0.7,4,0.2,-0.15,left,42,2020-12-15_09h16.09.115,premup-three_ses-01_part-01_label-phase1,3.2.4,Win32,60,right,1.167999983,4,0,4,0,1,3,1,0,240,147,1,239,,,,,,,,,,,,,,,,,,
,,0,44,,,,,,,2,2,3,stim/23.jpeg,HouseObjects,1,stim/objects/HouseObjects/key2.png,0.7,2,0.2,0.15,left,42,2020-12-15_09h16.09.115,premup-three_ses-01_part-01_label-phase1,3.2.4,Win32,60,right,1.124000072,4,0,4,0,1,3,1,0,240,134,1,239,,,,,,,,,,,,,,,,,,
,,1,45,,,,,,,3,3,2,stim/32.jpeg,Instruments,2,stim/objects/Instruments/musicsheet2.png,0.9,4,0.2,-0.15,right,42,2020-12-15_09h16.09.115,premup-three_ses-01_part-01_label-phase1,3.2.4,Win32,60,right,1.154000044,4,0,4,0,1,3,1,0,240,173,1,239,,,,,,,,,,,,,,,,,,
,,1,46,,,,,,,3,4,1,stim/41.jpeg,HouseObjects,1,stim/objects/HouseObjects/recyclingbin2.png,0.9,1,-0.2,0.15,left,42,2020-12-15_09h16.09.115,premup-three_ses-01_part-01_label-phase1,3.2.4,Win32,60,left,0.68900013,4,0,4,0,1,3,1,0,240,200,1,239,,,,,,,,,,,,,,,,,,
,,1,47,,,,,,,3,4,2,stim/42.jpeg,HouseObjects,1,stim/objects/HouseObjects/remote2.png,0.9,4,0.2,-0.15,left,42,2020-12-15_09h16.09.115,premup-three_ses-01_part-01_label-phase1,3.2.4,Win32,60,left,1.621999979,4,0,4,0,1,3,1,0,240,217,1,239,,,,,,,,,,,,,,,,,,
,,0,48,,,,,,,2,1,3,stim/13.jpeg,Instruments,2,stim/objects/Instruments/record.png,0.7,4,0.2,-0.15,right,42,2020-12-15_09h16.09.115,premup-three_ses-01_part-01_label-phase1,3.2.4,Win32,60,left,1.063999891,4,0,4,0,1,3,1,0,240,110,1,239,,,,,,,,,,,,,,,,,,
,,0,49,,,,,,,1,5,4,stim/54.jpeg,Instruments,2,stim/objects/Instruments/marimba.png,0.5,3,-0.2,-0.15,right,42,2020-12-15_09h16.09.115,premup-three_ses-01_part-01_label-phase1,3.2.4,Win32,60,left,0.618000031,4,0,4,0,1,3,1,0,240,39,1,239,,,,,,,,,,,,,,,,,,
,,0,50,,,,,,,2,1,1,stim/11.jpeg,HouseObjects,1,stim/objects/HouseObjects/recyclingbin.png,0.3,4,0.2,-0.15,left,42,2020-12-15_09h16.09.115,premup-three_ses-01_part-01_label-phase1,3.2.4,Win32,60,right,0.944000006,4,0,4,0,1,3,1,0,240,84,1,239,,,,,,,,,,,,,,,,,,
,,0,51,,,,,,,2,2,4,stim/24.jpeg,Instruments,2,stim/objects/Instruments/marimba2.png,0.3,3,-0.2,-0.15,right,42,2020-12-15_09h16.09.115,premup-three_ses-01_part-01_label-phase1,3.2.4,Win32,60,left,0.697999954,4,0,4,0,1,3,1,0,240,151,1,239,,,,,,,,,,,,,,,,,,
,,0,52,,,,,,,1,5,4,stim/54.jpeg,Instruments,2,stim/objects/Instruments/marimba.png,0.5,3,-0.2,-0.15,right,42,2020-12-15_09h16.09.115,premup-three_ses-01_part-01_label-phase1,3.2.4,Win32,60,left,0.739000082,4,0,4,0,1,3,1,0,240,31,1,239,,,,,,,,,,,,,,,,,,
,,0,53,,,,,,,2,1,3,stim/13.jpeg,Instruments,2,stim/objects/Instruments/record.png,0.7,1,-0.2,0.15,right,42,2020-12-15_09h16.09.115,premup-three_ses-01_part-01_label-phase1,3.2.4,Win32,60,left,0.878999949,4,0,4,0,1,3,1,0,240,118,1,239,,,,,,,,,,,,,,,,,,
,,1,54,,,,,,,3,3,4,stim/34.jpeg,Instruments,2,stim/objects/Instruments/oboe2.png,0.9,4,0.2,-0.15,right,42,2020-12-15_09h16.09.115,premup-three_ses-01_part-01_label-phase1,3.2.4,Win32,60,right,0.487999916,4,0,4,0,1,3,1,0,240,167,1,239,,,,,,,,,,,,,,,,,,
,,1,55,,,,,,,1,6,3,stim/63.jpeg,Instruments,2,stim/objects/Instruments/musicstand.png,0.5,1,-0.2,0.15,right,42,2020-12-15_09h16.09.115,premup-three_ses-01_part-01_label-phase1,3.2.4,Win32,60,right,0.802999973,4,0,4,0,1,3,1,0,240,74,1,239,,,,,,,,,,,,,,,,,,
,,1,56,,,,,,,1,6,2,stim/62.jpeg,Instruments,2,stim/objects/Instruments/musicsheet.png,0.5,1,-0.2,0.15,right,42,2020-12-15_09h16.09.115,premup-three_ses-01_part-01_label-phase1,3.2.4,Win32,60,right,0.930999994,4,0,4,0,1,3,1,0,240,73,1,239,,,,,,,,,,,,,,,,,,
,,1,57,,,,,,,2,1,4,stim/14.jpeg,Instruments,2,stim/objects/Instruments/record_player.png,0.7,1,-0.2,0.15,right,42,2020-12-15_09h16.09.115,premup-three_ses-01_part-01_label-phase1,3.2.4,Win32,60,right,1.447000027,4,0,4,0,1,3,1,0,240,99,1,239,,,,,,,,,,,,,,,,,,
,,1,58,,,,,,,3,3,2,stim/32.jpeg,Instruments,2,stim/objects/Instruments/musicsheet2.png,0.9,3,-0.2,-0.15,right,42,2020-12-15_09h16.09.115,premup-three_ses-01_part-01_label-phase1,3.2.4,Win32,60,right,0.967999935,4,0,4,0,1,3,1,0,240,169,1,239,,,,,,,,,,,,,,,,,,
,,1,59,,,,,,,2,2,4,stim/24.jpeg,HouseObjects,1,stim/objects/HouseObjects/knife2.png,0.7,3,-0.2,-0.15,left,42,2020-12-15_09h16.09.115,premup-three_ses-01_part-01_label-phase1,3.2.4,Win32,60,left,1.171000004,4,0,4,0,1,3,1,0,240,143,1,239,,,,,,,,,,,,,,,,,,
,,1,60,,,,,,,1,5,4,stim/54.jpeg,HouseObjects,1,stim/objects/HouseObjects/knife.png,0.5,2,0.2,0.15,left,42,2020-12-15_09h16.09.115,premup-three_ses-01_part-01_label-phase1,3.2.4,Win32,60,left,0.654999971,4,0,4,0,1,3,1,0,240,7,1,239,,,,,,,,,,,,,,,,,,
,,0,61,,,,,,,1,6,3,stim/63.jpeg,HouseObjects,1,stim/objects/HouseObjects/pan.png,0.5,4,0.2,-0.15,left,42,2020-12-15_09h16.09.115,premup-three_ses-01_part-01_label-phase1,3.2.4,Win32,60,right,0.628999949,4,0,4,0,1,3,1,0,240,46,1,239,,,,,,,,,,,,,,,,,,
,,1,62,,,,,,,3,3,1,stim/31.jpeg,Instruments,2,stim/objects/Instruments/metronome2.png,0.9,3,-0.2,-0.15,right,42,2020-12-15_09h16.09.115,premup-three_ses-01_part-01_label-phase1,3.2.4,Win32,60,right,0.734000206,4,0,4,0,1,3,1,0,240,184,1,239,,,,,,,,,,,,,,,,,,
,,1,63,,,,,,,2,2,1,stim/21.jpeg,HouseObjects,1,stim/objects/HouseObjects/iron2.png,0.7,2,0.2,0.15,left,42,2020-12-15_09h16.09.115,premup-three_ses-01_part-01_label-phase1,3.2.4,Win32,60,left,1.854000092,4,0,4,0,1,3,1,0,240,144,1,239,,,,,,,,,,,,,,,,,,
,,0,64,,,,,,,2,1,2,stim/12.jpeg,Instruments,2,stim/objects/Instruments/pipepiano.png,0.7,1,-0.2,0.15,right,42,2020-12-15_09h16.09.115,premup-three_ses-01_part-01_label-phase1,3.2.4,Win32,60,,,4,0,4,0,1,3,1,0,240,93,1,239,,,,,,,,,,,,,,,,,,
,,1,65,,,,,,,2,1,4,stim/14.jpeg,Instruments,2,stim/objects/Instruments/record_player.png,0.7,2,0.2,0.15,right,42,2020-12-15_09h16.09.115,premup-three_ses-01_part-01_label-phase1,3.2.4,Win32,60,right,0.487999916,4,0,4,0,1,3,1,0,240,107,1,239,,,,,,,,,,,,,,,,,,
,,0,66,,,,,,,2,1,1,stim/11.jpeg,Instruments,2,stim/objects/Instruments/panflute.png,0.7,3,-0.2,-0.15,right,42,2020-12-15_09h16.09.115,premup-three_ses-01_part-01_label-phase1,3.2.4,Win32,60,left,0.917000055,4,0,4,0,1,3,1,0,240,104,1,239,,,,,,,,,,,,,,,,,,
,,1,67,,,,,,,3,3,4,stim/34.jpeg,Instruments,2,stim/objects/Instruments/oboe2.png,0.9,4,0.2,-0.15,right,42,2020-12-15_09h16.09.115,premup-three_ses-01_part-01_label-phase1,3.2.4,Win32,60,right,0.808000088,4,0,4,0,1,3,1,0,240,179,1,239,,,,,,,,,,,,,,,,,,
,,1,68,,,,,,,1,6,4,stim/64.jpeg,Instruments,2,stim/objects/Instruments/oboe.png,0.5,2,0.2,0.15,right,42,2020-12-15_09h16.09.115,premup-three_ses-01_part-01_label-phase1,3.2.4,Win32,60,right,0.782999992,4,0,4,0,1,3,1,0,240,67,1,239,,,,,,,,,,,,,,,,,,
,,1,69,,,,,,,1,6,3,stim/63.jpeg,Instruments,2,stim/objects/Instruments/musicstand.png,0.5,2,0.2,0.15,right,42,2020-12-15_09h16.09.115,premup-three_ses-01_part-01_label-phase1,3.2.4,Win32,60,right,0.860999823,4,0,4,0,1,3,1,0,240,78,1,239,,,,,,,,,,,,,,,,,,
,,1,70,,,,,,,2,1,2,stim/12.jpeg,Instruments,2,stim/objects/Instruments/pipepiano.png,0.7,2,0.2,0.15,right,42,2020-12-15_09h16.09.115,premup-three_ses-01_part-01_label-phase1,3.2.4,Win32,60,right,1.927999973,4,0,4,0,1,3,1,0,240,105,1,239,,,,,,,,,,,,,,,,,,
,,1,71,,,,,,,3,4,3,stim/43.jpeg,HouseObjects,1,stim/objects/HouseObjects/rubbergloves2.png,0.9,2,0.2,0.15,left,42,2020-12-15_09h16.09.115,premup-three_ses-01_part-01_label-phase1,3.2.4,Win32,60,left,0.557999849,4,0,4,0,1,3,1,0,240,214,1,239,,,,,,,,,,,,,,,,,,
,,0,72,,,,,,,1,6,3,stim/63.jpeg,HouseObjects,1,stim/objects/HouseObjects/pan.png,0.5,1,-0.2,0.15,left,42,2020-12-15_09h16.09.115,premup-three_ses-01_part-01_label-phase1,3.2.4,Win32,60,right,0.769999981,4,0,4,0,1,3,1,0,240,42,1,239,,,,,,,,,,,,,,,,,,
,,1,73,,,,,,,3,4,2,stim/42.jpeg,HouseObjects,1,stim/objects/HouseObjects/remote2.png,0.9,1,-0.2,0.15,left,42,2020-12-15_09h16.09.115,premup-three_ses-01_part-01_label-phase1,3.2.4,Win32,60,left,0.840999842,4,0,4,0,1,3,1,0,240,201,1,239,,,,,,,,,,,,,,,,,,
,,1,74,,,,,,,3,4,4,stim/44.jpeg,HouseObjects,1,stim/objects/HouseObjects/rug2.png,0.9,1,-0.2,0.15,left,42,2020-12-15_09h16.09.115,premup-three_ses-01_part-01_label-phase1,3.2.4,Win32,60,left,0.748000145,4,0,4,0,1,3,1,0,240,207,1,239,,,,,,,,,,,,,,,,,,
,,1,75,,,,,,,2,2,1,stim/21.jpeg,HouseObjects,1,stim/objects/HouseObjects/iron2.png,0.7,1,-0.2,0.15,left,42,2020-12-15_09h16.09.115,premup-three_ses-01_part-01_label-phase1,3.2.4,Win32,60,left,0.584000111,4,0,4,0,1,3,1,0,240,136,1,239,,,,,,,,,,,,,,,,,,
,,1,76,,,,,,,2,1,4,stim/14.jpeg,Instruments,2,stim/objects/Instruments/record_player.png,0.7,3,-0.2,-0.15,right,42,2020-12-15_09h16.09.115,premup-three_ses-01_part-01_label-phase1,3.2.4,Win32,60,right,1.325999975,4,0,4,0,1,3,1,0,240,95,1,239,,,,,,,,,,,,,,,,,,
,,1,77,,,,,,,2,2,3,stim/23.jpeg,HouseObjects,1,stim/objects/HouseObjects/key2.png,0.7,3,-0.2,-0.15,left,42,2020-12-15_09h16.09.115,premup-three_ses-01_part-01_label-phase1,3.2.4,Win32,60,left,0.674999952,4,0,4,0,1,3,1,0,240,130,1,239,,,,,,,,,,,,,,,,,,
,,0,78,,,,,,,2,2,1,stim/21.jpeg,Instruments,2,stim/objects/Instruments/keyboard2.png,0.3,4,0.2,-0.15,right,42,2020-12-15_09h16.09.115,premup-three_ses-01_part-01_label-phase1,3.2.4,Win32,60,left,0.461999893,4,0,4,0,1,3,1,0,240,152,1,239,,,,,,,,,,,,,,,,,,
,,0,79,,,,,,,1,5,4,stim/54.jpeg,Instruments,2,stim/objects/Instruments/marimba.png,0.5,4,0.2,-0.15,right,42,2020-12-15_09h16.09.115,premup-three_ses-01_part-01_label-phase1,3.2.4,Win32,60,left,1.815000057,4,0,4,0,1,3,1,0,240,35,1,239,,,,,,,,,,,,,,,,,,
,,1,80,,,,,,,3,4,4,stim/44.jpeg,HouseObjects,1,stim/objects/HouseObjects/rug2.png,0.9,2,0.2,0.15,left,42,2020-12-15_09h16.09.115,premup-three_ses-01_part-01_label-phase1,3.2.4,Win32,60,left,0.563999891,4,0,4,0,1,3,1,0,240,219,1,239,,,,,,,,,,,,,,,,,,
,,0,81,,,,,,,1,5,1,stim/51.jpeg,HouseObjects,1,stim/objects/HouseObjects/iron.png,0.5,2,0.2,0.15,left,42,2020-12-15_09h16.09.115,premup-three_ses-01_part-01_label-phase1,3.2.4,Win32,60,right,0.954999924,4,0,4,0,1,3,1,0,240,12,1,239,,,,,,,,,,,,,,,,,,
,,0,82,,,,,,,3,3,2,stim/32.jpeg,HouseObjects,1,stim/objects/HouseObjects/match2.png,0.1,4,0.2,-0.15,left,42,2020-12-15_09h16.09.115,premup-three_ses-01_part-01_label-phase1,3.2.4,Win32,60,right,1.256999969,4,0,4,0,1,3,1,0,240,161,1,239,,,,,,,,,,,,,,,,,,
,,0,83,,,,,,,1,5,1,stim/51.jpeg,HouseObjects,1,stim/objects/HouseObjects/iron.png,0.5,1,-0.2,0.15,left,42,2020-12-15_09h16.09.115,premup-three_ses-01_part-01_label-phase1,3.2.4,Win32,60,right,1.152000189,4,0,4,0,1,3,1,0,240,8,1,239,,,,,,,,,,,,,,,,,,
,,1,84,,,,,,,1,5,2,stim/52.jpeg,Instruments,2,stim/objects/Instruments/laud.png,0.5,2,0.2,0.15,right,42,2020-12-15_09h16.09.115,premup-three_ses-01_part-01_label-phase1,3.2.4,Win32,60,right,1.180999994,4,0,4,0,1,3,1,0,240,29,1,239,,,,,,,,,,,,,,,,,,
,,1,85,,,,,,,2,1,1,stim/11.jpeg,Instruments,2,stim/objects/Instruments/panflute.png,0.7,2,0.2,0.15,right,42,2020-12-15_09h16.09.115,premup-three_ses-01_part-01_label-phase1,3.2.4,Win32,60,right,0.81400013,4,0,4,0,1,3,1,0,240,96,1,239,,,,,,,,,,,,,,,,,,
,,0,86,,,,,,,1,5,2,stim/52.jpeg,HouseObjects,1,stim/objects/HouseObjects/ironingboard.png,0.5,2,0.2,0.15,left,42,2020-12-15_09h16.09.115,premup-three_ses-01_part-01_label-phase1,3.2.4,Win32,60,right,1.292999983,4,0,4,0,1,3,1,0,240,17,1,239,,,,,,,,,,,,,,,,,,
,,1,87,,,,,,,2,1,4,stim/14.jpeg,Instruments,2,stim/objects/Instruments/record_player.png,0.7,4,0.2,-0.15,right,42,2020-12-15_09h16.09.115,premup-three_ses-01_part-01_label-phase1,3.2.4,Win32,60,right,0.82799983,4,0,4,0,1,3,1,0,240,115,1,239,,,,,,,,,,,,,,,,,,
,,1,88,,,,,,,2,1,1,stim/11.jpeg,Instruments,2,stim/objects/Instruments/panflute.png,0.7,2,0.2,0.15,right,42,2020-12-15_09h16.09.115,premup-three_ses-01_part-01_label-phase1,3.2.4,Win32,60,right,0.910000086,4,0,4,0,1,3,1,0,240,112,1,239,,,,,,,,,,,,,,,,,,
,,0,89,,,,,,,1,6,2,stim/62.jpeg,HouseObjects,1,stim/objects/HouseObjects/match.png,0.5,3,-0.2,-0.15,left,42,2020-12-15_09h16.09.115,premup-three_ses-01_part-01_label-phase1,3.2.4,Win32,60,right,0.754999876,4,0,4,0,1,3,1,0,240,41,1,239,,,,,,,,,,,,,,,,,,
,,0,90,,,,,,,1,5,3,stim/53.jpeg,Instruments,2,stim/objects/Instruments/maraca.png,0.5,4,0.2,-0.15,right,42,2020-12-15_09h16.09.115,premup-three_ses-01_part-01_label-phase1,3.2.4,Win32,60,left,0.688999891,4,0,4,0,1,3,1,0,240,38,1,239,,,,,,,,,,,,,,,,,,
,,1,91,,,,,,,3,3,2,stim/32.jpeg,Instruments,2,stim/objects/Instruments/musicsheet2.png,0.9,4,0.2,-0.15,right,42,2020-12-15_09h16.09.115,premup-three_ses-01_part-01_label-phase1,3.2.4,Win32,60,right,0.622999907,4,0,4,0,1,3,1,0,240,197,1,239,,,,,,,,,,,,,,,,,,
,,1,92,,,,,,,3,3,3,stim/33.jpeg,Instruments,2,stim/objects/Instruments/musicstand2.png,0.9,2,0.2,0.15,right,42,2020-12-15_09h16.09.115,premup-three_ses-01_part-01_label-phase1,3.2.4,Win32,60,right,0.881000042,4,0,4,0,1,3,1,0,240,166,1,239,,,,,,,,,,,,,,,,,,
,,0,93,,,,,,,1,6,1,stim/61.jpeg,Instruments,2,stim/objects/Instruments/metronome.png,0.5,3,-0.2,-0.15,right,42,2020-12-15_09h16.09.115,premup-three_ses-01_part-01_label-phase1,3.2.4,Win32,60,left,0.779999971,4,0,4,0,1,3,1,0,240,76,1,239,,,,,,,,,,,,,,,,,,
,,1,94,,,,,,,1,6,1,stim/61.jpeg,Instruments,2,stim/objects/Instruments/metronome.png,0.5,3,-0.2,-0.15,right,42,2020-12-15_09h16.09.115,premup-three_ses-01_part-01_label-phase1,3.2.4,Win32,60,right,0.336999893,4,0,4,0,1,3,1,0,240,68,1,239,,,,,,,,,,,,,,,,,,
,,1,95,,,,,,,2,2,1,stim/21.jpeg,HouseObjects,1,stim/objects/HouseObjects/iron2.png,0.7,1,-0.2,0.15,left,42,2020-12-15_09h16.09.115,premup-three_ses-01_part-01_label-phase1,3.2.4,Win32,60,left,0.687000036,4,0,4,0,1,3,1,0,240,120,1,239,,,,,,,,,,,,,,,,,,
,,1,96,,,,,,,1,5,2,stim/52.jpeg,HouseObjects,1,stim/objects/HouseObjects/ironingboard.png,0.5,1,-0.2,0.15,left,42,2020-12-15_09h16.09.115,premup-three_ses-01_part-01_label-phase1,3.2.4,Win32,60,left,1.032000065,4,0,4,0,1,3,1,0,240,13,1,239,,,,,,,,,,,,,,,,,,
,,1,97,,,,,,,3,3,4,stim/34.jpeg,Instruments,2,stim/objects/Instruments/oboe2.png,0.9,2,0.2,0.15,right,42,2020-12-15_09h16.09.115,premup-three_ses-01_part-01_label-phase1,3.2.4,Win32,60,right,1.219000101,4,0,4,0,1,3,1,0,240,171,1,239,,,,,,,,,,,,,,,,,,
,,1,98,,,,,,,1,6,2,stim/62.jpeg,Instruments,2,stim/objects/Instruments/musicsheet.png,0.5,2,0.2,0.15,right,42,2020-12-15_09h16.09.115,premup-three_ses-01_part-01_label-phase1,3.2.4,Win32,60,right,0.670000076,4,0,4,0,1,3,1,0,240,65,1,239,,,,,,,,,,,,,,,,,,
,,1,99,,,,,,,2,1,1,stim/11.jpeg,Instruments,2,stim/objects/Instruments/panflute.png,0.7,3,-0.2,-0.15,right,42,2020-12-15_09h16.09.115,premup-three_ses-01_part-01_label-phase1,3.2.4,Win32,60,right,1.50999999,4,0,4,0,1,3,1,0,240,100,1,239,,,,,,,,,,,,,,,,,,
,,1,100,,,,,,,3,3,2,stim/32.jpeg,Instruments,2,stim/objects/Instruments/musicsheet2.png,0.9,4,0.2,-0.15,right,42,2020-12-15_09h16.09.115,premup-three_ses-01_part-01_label-phase1,3.2.4,Win32,60,right,0.592000008,4,0,4,0,1,3,1,0,240,165,1,239,,,,,,,,,,,,,,,,,,
,,1,101,,,,,,,3,3,3,stim/33.jpeg,Instruments,2,stim/objects/Instruments/musicstand2.png,0.9,2,0.2,0.15,right,42,2020-12-15_09h16.09.115,premup-three_ses-01_part-01_label-phase1,3.2.4,Win32,60,right,0.687000036,4,0,4,0,1,3,1,0,240,174,1,239,,,,,,,,,,,,,,,,,,
,,1,102,,,,,,,3,3,3,stim/33.jpeg,Instruments,2,stim/objects/Instruments/musicstand2.png,0.9,1,-0.2,0.15,right,42,2020-12-15_09h16.09.115,premup-three_ses-01_part-01_label-phase1,3.2.4,Win32,60,right,0.579999924,4,0,4,0,1,3,1,0,240,194,1,239,,,,,,,,,,,,,,,,,,
,,0,103,,,,,,,1,5,4,stim/54.jpeg,HouseObjects,1,stim/objects/HouseObjects/knife.png,0.5,1,-0.2,0.15,left,42,2020-12-15_09h16.09.115,premup-three_ses-01_part-01_label-phase1,3.2.4,Win32,60,right,1.525000095,4,0,4,0,1,3,1,0,240,11,1,239,,,,,,,,,,,,,,,,,,
,,1,104,,,,,,,2,2,4,stim/24.jpeg,HouseObjects,1,stim/objects/HouseObjects/knife2.png,0.7,4,0.2,-0.15,left,42,2020-12-15_09h16.09.115,premup-three_ses-01_part-01_label-phase1,3.2.4,Win32,60,left,0.588999987,4,0,4,0,1,3,1,0,240,123,1,239,,,,,,,,,,,,,,,,,,
,,0,105,,,,,,,2,1,1,stim/11.jpeg,Instruments,2,stim/objects/Instruments/panflute.png,0.7,1,-0.2,0.15,right,42,2020-12-15_09h16.09.115,premup-three_ses-01_part-01_label-phase1,3.2.4,Win32,60,left,0.677000046,4,0,4,0,1,3,1,0,240,108,1,239,,,,,,,,,,,,,,,,,,
,,1,106,,,,,,,3,3,1,stim/31.jpeg,Instruments,2,stim/objects/Instruments/metronome2.png,0.9,3,-0.2,-0.15,right,42,2020-12-15_09h16.09.115,premup-three_ses-01_part-01_label-phase1,3.2.4,Win32,60,right,1.204999924,4,0,4,0,1,3,1,0,240,188,1,239,,,,,,,,,,,,,,,,,,
,,1,107,,,,,,,1,5,3,stim/53.jpeg,HouseObjects,1,stim/objects/HouseObjects/key.png,0.5,1,-0.2,0.15,left,42,2020-12-15_09h16.09.115,premup-three_ses-01_part-01_label-phase1,3.2.4,Win32,60,left,1.139999866,4,0,4,0,1,3,1,0,240,2,1,239,,,,,,,,,,,,,,,,,,
,,1,108,,,,,,,2,2,2,stim/22.jpeg,HouseObjects,1,stim/objects/HouseObjects/ironingboard2.png,0.7,3,-0.2,-0.15,left,42,2020-12-15_09h16.09.115,premup-three_ses-01_part-01_label-phase1,3.2.4,Win32,60,left,1.100999832,4,0,4,0,1,3,1,0,240,145,1,239,,,,,,,,,,,,,,,,,,
,,1,109,,,,,,,3,3,4,stim/34.jpeg,Instruments,2,stim/objects/Instruments/oboe2.png,0.9,3,-0.2,-0.15,right,42,2020-12-15_09h16.09.115,premup-three_ses-01_part-01_label-phase1,3.2.4,Win32,60,right,0.68900013,4,0,4,0,1,3,1,0,240,191,1,239,,,,,,,,,,,,,,,,,,
,,1,110,,,,,,,2,2,4,stim/24.jpeg,HouseObjects,1,stim/objects/HouseObjects/knife2.png,0.7,3,-0.2,-0.15,left,42,2020-12-15_09h16.09.115,premup-three_ses-01_part-01_label-phase1,3.2.4,Win32,60,left,0.825000048,4,0,4,0,1,3,1,0,240,139,1,239,,,,,,,,,,,,,,,,,,
,,0,111,,,,,,,2,1,1,stim/11.jpeg,Instruments,2,stim/objects/Instruments/panflute.png,0.7,1,-0.2,0.15,right,42,2020-12-15_09h16.09.115,premup-three_ses-01_part-01_label-phase1,3.2.4,Win32,60,left,1.286999941,4,0,4,0,1,3,1,0,240,92,1,239,,,,,,,,,,,,,,,,,,
,,1,112,,,,,,,3,3,4,stim/34.jpeg,Instruments,2,stim/objects/Instruments/oboe2.png,0.9,1,-0.2,0.15,right,42,2020-12-15_09h16.09.115,premup-three_ses-01_part-01_label-phase1,3.2.4,Win32,60,right,0.900000095,4,0,4,0,1,3,1,0,240,199,1,239,,,,,,,,,,,,,,,,,,
,,1,113,,,,,,,3,3,2,stim/32.jpeg,Instruments,2,stim/objects/Instruments/musicsheet2.png,0.9,4,0.2,-0.15,right,42,2020-12-15_09h16.09.115,premup-three_ses-01_part-01_label-phase1,3.2.4,Win32,60,right,0.467000008,4,0,4,0,1,3,1,0,240,189,1,239,,,,,,,,,,,,,,,,,,
,,0,114,,,,,,,2,2,1,stim/21.jpeg,Instruments,2,stim/objects/Instruments/keyboard2.png,0.3,2,0.2,0.15,right,42,2020-12-15_09h16.09.115,premup-three_ses-01_part-01_label-phase1,3.2.4,Win32,60,left,0.511000156,4,0,4,0,1,3,1,0,240,148,1,239,,,,,,,,,,,,,,,,,,
,,1,115,,,,,,,2,1,2,stim/12.jpeg,Instruments,2,stim/objects/Instruments/pipepiano.png,0.7,1,-0.2,0.15,right,42,2020-12-15_09h16.09.115,premup-three_ses-01_part-01_label-phase1,3.2.4,Win32,60,right,0.888999939,4,0,4,0,1,3,1,0,240,113,1,239,,,,,,,,,,,,,,,,,,
,,0,116,,,,,,,2,1,2,stim/12.jpeg,HouseObjects,1,stim/objects/HouseObjects/remote.png,0.3,1,-0.2,0.15,left,42,2020-12-15_09h16.09.115,premup-three_ses-01_part-01_label-phase1,3.2.4,Win32,60,right,0.687999964,4,0,4,0,1,3,1,0,240,89,1,239,,,,,,,,,,,,,,,,,,
,,0,117,,,,,,,1,5,3,stim/53.jpeg,HouseObjects,1,stim/objects/HouseObjects/key.png,0.5,4,0.2,-0.15,left,42,2020-12-15_09h16.09.115,premup-three_ses-01_part-01_label-phase1,3.2.4,Win32,60,right,1.132999897,4,0,4,0,1,3,1,0,240,18,1,239,,,,,,,,,,,,,,,,,,
,,0,118,,,,,,,2,1,1,stim/11.jpeg,HouseObjects,1,stim/objects/HouseObjects/recyclingbin.png,0.3,2,0.2,0.15,left,42,2020-12-15_09h16.09.115,premup-three_ses-01_part-01_label-phase1,3.2.4,Win32,60,right,0.566999912,4,0,4,0,1,3,1,0,240,88,1,239,,,,,,,,,,,,,,,,,,
,,0,119,,,,,,,1,6,2,stim/62.jpeg,HouseObjects,1,stim/objects/HouseObjects/match.png,0.5,1,-0.2,0.15,left,42,2020-12-15_09h16.09.115,premup-three_ses-01_part-01_label-phase1,3.2.4,Win32,60,right,1.25,4,0,4,0,1,3,1,0,240,49,1,239,,,,,,,,,,,,,,,,,,
,,0,120,,,,,,,2,2,3,stim/23.jpeg,Instruments,2,stim/objects/Instruments/maraca2.png,0.3,2,0.2,0.15,right,42,2020-12-15_09h16.09.115,premup-three_ses-01_part-01_label-phase1,3.2.4,Win32,60,left,1.251000166,4,0,4,0,1,3,1,0,240,154,1,239,,,,,,,,,,,,,,,,,,
,,1,121,,,,,,,3,4,1,stim/41.jpeg,HouseObjects,1,stim/objects/HouseObjects/recyclingbin2.png,0.9,1,-0.2,0.15,left,42,2020-12-15_09h16.09.115,premup-three_ses-01_part-01_label-phase1,3.2.4,Win32,60,left,0.963999987,4,0,4,0,1,3,1,0,240,208,1,239,,,,,,,,,,,,,,,,,,
,,0,122,,,,,,,2,2,2,stim/22.jpeg,Instruments,2,stim/objects/Instruments/laud2.png,0.3,4,0.2,-0.15,right,42,2020-12-15_09h16.09.115,premup-three_ses-01_part-01_label-phase1,3.2.4,Win32,60,left,1.347999811,4,0,4,0,1,3,1,0,240,149,1,239,,,,,,,,,,,,,,,,,,
,,1,123,,,,,,,1,6,1,stim/61.jpeg,Instruments,2,stim/objects/Instruments/metronome.png,0.5,1,-0.2,0.15,right,42,2020-12-15_09h16.09.115,premup-three_ses-01_part-01_label-phase1,3.2.4,Win32,60,right,1.288000107,4,0,4,0,1,3,1,0,240,72,1,239,,,,,,,,,,,,,,,,,,
,,0,124,,,,,,,2,1,2,stim/12.jpeg,Instruments,2,stim/objects/Instruments/pipepiano.png,0.7,3,-0.2,-0.15,right,42,2020-12-15_09h16.09.115,premup-three_ses-01_part-01_label-phase1,3.2.4,Win32,60,left,0.761000156,4,0,4,0,1,3,1,0,240,97,1,239,,,,,,,,,,,,,,,,,,
,,0,125,,,,,,,2,2,4,stim/24.jpeg,Instruments,2,stim/objects/Instruments/marimba2.png,0.3,2,0.2,0.15,right,42,2020-12-15_09h16.09.115,premup-three_ses-01_part-01_label-phase1,3.2.4,Win32,60,left,0.505000114,4,0,4,0,1,3,1,0,240,159,1,239,,,,,,,,,,,,,,,,,,
,,0,126,,,,,,,1,5,4,stim/54.jpeg,Instruments,2,stim/objects/Instruments/marimba.png,0.5,2,0.2,0.15,right,42,2020-12-15_09h16.09.115,premup-three_ses-01_part-01_label-phase1,3.2.4,Win32,60,left,0.626999855,4,0,4,0,1,3,1,0,240,23,1,239,,,,,,,,,,,,,,,,,,
,,1,127,,,,,,,3,4,2,stim/42.jpeg,HouseObjects,1,stim/objects/HouseObjects/remote2.png,0.9,2,0.2,0.15,left,42,2020-12-15_09h16.09.115,premup-three_ses-01_part-01_label-phase1,3.2.4,Win32,60,left,1.157999992,4,0,4,0,1,3,1,0,240,213,1,239,,,,,,,,,,,,,,,,,,
,,0,128,,,,,,,3,4,1,stim/41.jpeg,HouseObjects,1,stim/objects/HouseObjects/recyclingbin2.png,0.9,1,-0.2,0.15,left,42,2020-12-15_09h16.09.115,premup-three_ses-01_part-01_label-phase1,3.2.4,Win32,60,,,4,0,4,0,1,3,1,0,240,224,1,239,,,,,,,,,,,,,,,,,,
,,0,129,,,,,,,1,5,2,stim/52.jpeg,Instruments,2,stim/objects/Instruments/laud.png,0.5,2,0.2,0.15,right,42,2020-12-15_09h16.09.115,premup-three_ses-01_part-01_label-phase1,3.2.4,Win32,60,left,0.796000004,4,0,4,0,1,3,1,0,240,21,1,239,,,,,,,,,,,,,,,,,,
,,0,130,,,,,,,1,5,2,stim/52.jpeg,Instruments,2,stim/objects/Instruments/laud.png,0.5,4,0.2,-0.15,right,42,2020-12-15_09h16.09.115,premup-three_ses-01_part-01_label-phase1,3.2.4,Win32,60,left,0.836999893,4,0,4,0,1,3,1,0,240,37,1,239,,,,,,,,,,,,,,,,,,
,,0,131,,,,,,,1,5,1,stim/51.jpeg,Instruments,2,stim/objects/Instruments/keyboard.png,0.5,1,-0.2,0.15,right,42,2020-12-15_09h16.09.115,premup-three_ses-01_part-01_label-phase1,3.2.4,Win32,60,left,0.746999979,4,0,4,0,1,3,1,0,240,32,1,239,,,,,,,,,,,,,,,,,,
,,0,132,,,,,,,1,5,1,stim/51.jpeg,Instruments,2,stim/objects/Instruments/keyboard.png,0.5,1,-0.2,0.15,right,42,2020-12-15_09h16.09.115,premup-three_ses-01_part-01_label-phase1,3.2.4,Win32,60,left,0.871999979,4,0,4,0,1,3,1,0,240,24,1,239,,,,,,,,,,,,,,,,,,
,,1,133,,,,,,,3,4,4,stim/44.jpeg,HouseObjects,1,stim/objects/HouseObjects/rug2.png,0.9,2,0.2,0.15,left,42,2020-12-15_09h16.09.115,premup-three_ses-01_part-01_label-phase1,3.2.4,Win32,60,left,0.898999929,4,0,4,0,1,3,1,0,240,231,1,239,,,,,,,,,,,,,,,,,,
,,1,134,,,,,,,3,3,2,stim/32.jpeg,Instruments,2,stim/objects/Instruments/musicsheet2.png,0.9,4,0.2,-0.15,right,42,2020-12-15_09h16.09.115,premup-three_ses-01_part-01_label-phase1,3.2.4,Win32,60,right,1.209000111,4,0,4,0,1,3,1,0,240,177,1,239,,,,,,,,,,,,,,,,,,
,,0,135,,,,,,,1,5,4,stim/54.jpeg,Instruments,2,stim/objects/Instruments/marimba.png,0.5,2,0.2,0.15,right,42,2020-12-15_09h16.09.115,premup-three_ses-01_part-01_label-phase1,3.2.4,Win32,60,left,1.409000158,4,0,4,0,1,3,1,0,240,27,1,239,,,,,,,,,,,,,,,,,,
