id_acc,key_resp_id.keys,key_resp_id.rt,key_resp_conf.keys,key_resp_conf.rt,assoc_acc,key_resp_assoc.keys,key_resp_assoc.rt,loc_acc,key_resp_loc.keys,key_resp_loc.rt,task_innerloop.thisRepN,task_innerloop.thisTrialN,task_innerloop.thisN,task_innerloop.thisIndex,task_innerloop.ran,task_innerloop.order,context_type,object_cat,PE_level,OvsN,obj_file,scn_file,corr_scn_cat,assoc_file,corr_scn_inst,corr_loc,participant,date,expName,psychopyVersion,OS,frameRate
1,right,2.493000269,3,2.503000021,0,2,12.0480001,0,3,5.021000147,1,0,200,80,1,199,3,1,0.9,1,stim/objects/HouseObjects/saw2.png,stim/41.jpeg,4,stim/4.png,1,3,42,2020-12-09_07h29.14.670,premup-three_ses-02_part-03_label-phase3,3.2.4,MacIntel,60
1,left,3.096000195,,,0,,,0,,,1,0,200,137,1,199,0,2,0,2,stim/objects/Instruments/frenchhorn3.png,,0,stim/0.png,0,0,42,2020-12-09_07h29.14.670,premup-three_ses-02_part-03_label-phase3,3.2.4,MacIntel,60
1,right,2.157000065,2,2.650000095,0,1,1.451000214,0,2,5.450000048,1,0,200,4,1,199,1,1,0.5,1,stim/objects/HouseObjects/safetypin.png,stim/53.jpeg,5,stim/5.png,3,3,42,2020-12-09_07h29.14.670,premup-three_ses-02_part-03_label-phase3,3.2.4,MacIntel,60
1,right,1.795000076,,,0,,,0,,,1,0,200,154,1,199,0,2,0,2,stim/objects/Instruments/saxophone3.png,,0,stim/0.png,0,0,42,2020-12-09_07h29.14.670,premup-three_ses-02_part-03_label-phase3,3.2.4,MacIntel,60
1,right,1.869000196,3,5.388000011,0,4,5.952000141,0,1,1.317000151,1,0,200,66,1,199,3,1,0.1,1,stim/objects/HouseObjects/hairdryer2.png,stim/33.jpeg,3,stim/3.png,3,3,42,2020-12-09_07h29.14.670,premup-three_ses-02_part-03_label-phase3,3.2.4,MacIntel,60
1,left,1.359000206,4,1.160000086,0,1,4.725000143,0,3,2.774000168,1,0,200,64,1,199,3,1,0.1,1,stim/objects/HouseObjects/glass2.png,stim/31.jpeg,3,stim/3.png,1,1,42,2020-12-09_07h29.14.670,premup-three_ses-02_part-03_label-phase3,3.2.4,MacIntel,60
1,right,1.043000221,,,0,,,0,,,1,0,200,108,1,199,0,1,0,2,stim/objects/HouseObjects/bucket3.png,,0,stim/0.png,0,0,42,2020-12-09_07h29.14.670,premup-three_ses-02_part-03_label-phase3,3.2.4,MacIntel,60
1,right,1.531000137,,,0,,,0,,,1,0,200,180,1,199,0,1,0,2,stim/objects/HouseObjects/blender4.png,,0,stim/0.png,0,0,42,2020-12-09_07h29.14.670,premup-three_ses-02_part-03_label-phase3,3.2.4,MacIntel,60
1,right,1.133000135,,,0,,,0,,,1,0,200,173,1,199,0,2,0,2,stim/objects/Instruments/vuvuzela3.png,,0,stim/0.png,0,0,42,2020-12-09_07h29.14.670,premup-three_ses-02_part-03_label-phase3,3.2.4,MacIntel,60
1,right,0.970999956,,,0,,,0,,,1,0,200,158,1,199,0,2,0,2,stim/objects/Instruments/triangle3.png,,0,stim/0.png,0,0,42,2020-12-09_07h29.14.670,premup-three_ses-02_part-03_label-phase3,3.2.4,MacIntel,60
1,right,0.897000074,,,0,,,0,,,1,0,200,113,1,199,0,2,0,2,stim/objects/Instruments/banjo3.png,,0,stim/0.png,0,0,42,2020-12-09_07h29.14.670,premup-three_ses-02_part-03_label-phase3,3.2.4,MacIntel,60
1,right,1.434000015,,,0,,,0,,,1,0,200,149,1,199,0,1,0,2,stim/objects/HouseObjects/teapot3.png,,0,stim/0.png,0,0,42,2020-12-09_07h29.14.670,premup-three_ses-02_part-03_label-phase3,3.2.4,MacIntel,60
1,left,0.851000071,4,0.866000175,0,4,4.180000067,0,2,4.258000135,1,0,200,85,1,199,3,1,0.9,1,stim/objects/HouseObjects/thermometer2.png,stim/42.jpeg,4,stim/4.png,2,1,42,2020-12-09_07h29.14.670,premup-three_ses-02_part-03_label-phase3,3.2.4,MacIntel,60
1,right,1.82400012,2,3.381999969,0,2,6.276000261,0,1,1.118000269,1,0,200,47,1,199,2,1,0.7,1,stim/objects/HouseObjects/coffee2.png,stim/23.jpeg,2,stim/2.png,3,2,42,2020-12-09_07h29.14.670,premup-three_ses-02_part-03_label-phase3,3.2.4,MacIntel,60
1,left,1.525000095,4,1.317000151,0,3,8.110000134,0,2,1.302000284,1,0,200,6,1,199,1,1,0.5,1,stim/objects/Instruments/harmonica.png,stim/53.jpeg,5,stim/5.png,3,3,42,2020-12-09_07h29.14.670,premup-three_ses-02_part-03_label-phase3,3.2.4,MacIntel,60
1,right,1.400000095,,,0,,,0,,,1,0,200,130,1,199,0,2,0,2,stim/objects/Instruments/cymbal3.png,,0,stim/0.png,0,0,42,2020-12-09_07h29.14.670,premup-three_ses-02_part-03_label-phase3,3.2.4,MacIntel,60
1,right,1.049000025,,,0,,,0,,,1,0,200,190,1,199,0,2,0,2,stim/objects/Instruments/bassguitar4.png,,0,stim/0.png,0,0,42,2020-12-09_07h29.14.670,premup-three_ses-02_part-03_label-phase3,3.2.4,MacIntel,60
1,right,1.161000013,,,0,,,0,,,1,0,200,160,1,199,0,1,0,2,stim/objects/HouseObjects/thermometer3.png,,0,stim/0.png,0,0,42,2020-12-09_07h29.14.670,premup-three_ses-02_part-03_label-phase3,3.2.4,MacIntel,60
1,right,0.726999998,,,0,,,0,,,1,0,200,134,1,199,0,2,0,2,stim/objects/Instruments/electricguitar3.png,,0,stim/0.png,0,0,42,2020-12-09_07h29.14.670,premup-three_ses-02_part-03_label-phase3,3.2.4,MacIntel,60
1,right,1.162000179,4,3.046000004,0,1,1.269000053,0,1,0.890000105,1,0,200,99,1,199,3,2,0.1,1,stim/objects/Instruments/xylophone2.png,stim/44.jpeg,4,stim/4.png,4,2,42,2020-12-09_07h29.14.670,premup-three_ses-02_part-03_label-phase3,3.2.4,MacIntel,60
1,left,1.299999952,3,1.553000212,0,4,0.910000086,0,4,0.860000134,1,0,200,56,1,199,2,2,0.3,1,stim/objects/Instruments/doublebass2.png,stim/24.jpeg,2,stim/2.png,4,3,42,2020-12-09_07h29.14.670,premup-three_ses-02_part-03_label-phase3,3.2.4,MacIntel,60
1,right,1.760999918,2,1.862999916,0,1,0.781000137,0,4,2.370000124,1,0,200,95,1,199,3,2,0.1,1,stim/objects/Instruments/trumpet2.png,stim/44.jpeg,4,stim/4.png,4,1,42,2020-12-09_07h29.14.670,premup-three_ses-02_part-03_label-phase3,3.2.4,MacIntel,60
1,left,1.104000092,3,1.20600009,0,3,5.037999868,0,2,2.021000147,1,0,200,18,1,199,1,2,0.5,1,stim/objects/Instruments/triangle.png,stim/63.jpeg,6,stim/6.png,3,4,42,2020-12-09_07h29.14.670,premup-three_ses-02_part-03_label-phase3,3.2.4,MacIntel,60
1,left,1.03399992,3,0.947999954,0,2,1.035000086,0,1,0.930000067,1,0,200,68,1,199,3,1,0.1,1,stim/objects/HouseObjects/handvacuum2.png,stim/31.jpeg,3,stim/3.png,1,2,42,2020-12-09_07h29.14.670,premup-three_ses-02_part-03_label-phase3,3.2.4,MacIntel,60
1,right,2.5,3,4.766000032,0,4,0.700999975,0,4,0.45600009,1,0,200,35,1,199,2,2,0.7,1,stim/objects/Instruments/accordion2.png,stim/13.jpeg,1,stim/1.png,3,2,42,2020-12-09_07h29.14.670,premup-three_ses-02_part-03_label-phase3,3.2.4,MacIntel,60
1,right,1.023000002,,,0,,,0,,,1,0,200,145,1,199,0,1,0,2,stim/objects/HouseObjects/saw3.png,,0,stim/0.png,0,0,42,2020-12-09_07h29.14.670,premup-three_ses-02_part-03_label-phase3,3.2.4,MacIntel,60
1,right,1.268000126,1,1.628000259,0,1,0.935000181,0,1,3.546999931,1,0,200,5,1,199,1,1,0.5,1,stim/objects/Instruments/guitarcase.png,stim/52.jpeg,5,stim/5.png,2,3,42,2020-12-09_07h29.14.670,premup-three_ses-02_part-03_label-phase3,3.2.4,MacIntel,60
1,right,2.015000105,2,1.65899992,0,4,1.083000183,0,3,1.116000175,1,0,200,75,1,199,3,2,0.9,1,stim/objects/Instruments/guitarcase2.png,stim/34.jpeg,3,stim/3.png,4,4,42,2020-12-09_07h29.14.670,premup-three_ses-02_part-03_label-phase3,3.2.4,MacIntel,60
1,left,0.981999874,3,0.819000006,0,3,2.891000032,0,4,1.38100028,1,0,200,3,1,199,1,1,0.5,1,stim/objects/HouseObjects/handvacuum.png,stim/52.jpeg,5,stim/5.png,2,4,42,2020-12-09_07h29.14.670,premup-three_ses-02_part-03_label-phase3,3.2.4,MacIntel,60
1,right,1.196000099,,,0,,,0,,,1,0,200,112,1,199,0,2,0,2,stim/objects/Instruments/balalaika3.png,,0,stim/0.png,0,0,42,2020-12-09_07h29.14.670,premup-three_ses-02_part-03_label-phase3,3.2.4,MacIntel,60
1,right,0.84800005,,,0,,,0,,,1,0,200,101,1,199,0,1,0,2,stim/objects/HouseObjects/ballofstring3.png,,0,stim/0.png,0,0,42,2020-12-09_07h29.14.670,premup-three_ses-02_part-03_label-phase3,3.2.4,MacIntel,60
1,right,1.262000084,4,1.453999996,0,3,1.141000032,0,3,1.524000168,1,0,200,55,1,199,2,2,0.3,1,stim/objects/Instruments/cymbal2.png,stim/23.jpeg,2,stim/2.png,3,4,42,2020-12-09_07h29.14.670,premup-three_ses-02_part-03_label-phase3,3.2.4,MacIntel,60
1,right,1.039000034,3,1.305000067,0,4,0.76699996,0,1,1.027000189,1,0,200,82,1,199,3,1,0.9,1,stim/objects/HouseObjects/sponge2.png,stim/43.jpeg,4,stim/4.png,3,4,42,2020-12-09_07h29.14.670,premup-three_ses-02_part-03_label-phase3,3.2.4,MacIntel,60
1,left,1.034000158,,,0,,,0,,,1,0,200,182,1,199,0,1,0,2,stim/objects/HouseObjects/broom4.png,,0,stim/0.png,0,0,42,2020-12-09_07h29.14.670,premup-three_ses-02_part-03_label-phase3,3.2.4,MacIntel,60
1,right,2.263999939,4,7.060000181,0,2,0.961000204,0,3,1.599000216,1,0,200,76,1,199,3,2,0.9,1,stim/objects/Instruments/harmonica2.png,stim/31.jpeg,3,stim/3.png,1,1,42,2020-12-09_07h29.14.670,premup-three_ses-02_part-03_label-phase3,3.2.4,MacIntel,60
1,left,1.881000042,3,1.43900013,0,3,0.850000143,0,1,1.023000002,1,0,200,19,1,199,1,2,0.5,1,stim/objects/Instruments/trombone.png,stim/64.jpeg,6,stim/6.png,4,1,42,2020-12-09_07h29.14.670,premup-three_ses-02_part-03_label-phase3,3.2.4,MacIntel,60
1,left,1.358999968,,,0,,,0,,,1,0,200,195,1,199,0,2,0,2,stim/objects/Instruments/cymbal4.png,,0,stim/0.png,0,0,42,2020-12-09_07h29.14.670,premup-three_ses-02_part-03_label-phase3,3.2.4,MacIntel,60
1,right,0.861999989,,,0,,,0,,,1,0,200,124,1,199,0,1,0,2,stim/objects/HouseObjects/dishsoap3.png,,0,stim/0.png,0,0,42,2020-12-09_07h29.14.670,premup-three_ses-02_part-03_label-phase3,3.2.4,MacIntel,60
1,right,1.430999994,1,0.633000135,0,2,1.460000038,0,2,1.177000046,1,0,200,51,1,199,2,2,0.3,1,stim/objects/Instruments/cello2.png,stim/23.jpeg,2,stim/2.png,3,3,42,2020-12-09_07h29.14.670,premup-three_ses-02_part-03_label-phase3,3.2.4,MacIntel,60
1,right,1.026000023,,,0,,,0,,,1,0,200,194,1,199,0,2,0,2,stim/objects/Instruments/cornet4.png,,0,stim/0.png,0,0,42,2020-12-09_07h29.14.670,premup-three_ses-02_part-03_label-phase3,3.2.4,MacIntel,60
1,right,0.837000132,4,1.565000057,0,4,3.643000126,0,4,2.964000225,1,0,200,7,1,199,1,1,0.5,1,stim/objects/Instruments/harp.png,stim/54.jpeg,5,stim/5.png,4,4,42,2020-12-09_07h29.14.670,premup-three_ses-02_part-03_label-phase3,3.2.4,MacIntel,60
1,left,1.24000001,4,0.567000151,0,1,1.077000141,0,3,1.060000181,1,0,200,15,1,199,1,2,0.5,1,stim/objects/Instruments/speaker.png,stim/64.jpeg,6,stim/6.png,4,1,42,2020-12-09_07h29.14.670,premup-three_ses-02_part-03_label-phase3,3.2.4,MacIntel,60
1,right,1.446000099,2,1.767000198,0,2,1.092999935,0,3,0.833000183,1,0,200,88,1,199,3,1,0.9,1,stim/objects/HouseObjects/vacuumcleaner2.png,stim/41.jpeg,4,stim/4.png,1,2,42,2020-12-09_07h29.14.670,premup-three_ses-02_part-03_label-phase3,3.2.4,MacIntel,60
1,right,1.000000238,4,0.907000065,0,4,0.671999931,0,4,0.758000135,1,0,200,45,1,199,2,1,0.7,1,stim/objects/HouseObjects/clothesdryingrack2.png,stim/21.jpeg,2,stim/2.png,1,3,42,2020-12-09_07h29.14.670,premup-three_ses-02_part-03_label-phase3,3.2.4,MacIntel,60
1,right,4.622999907,,,0,,,0,,,1,0,200,179,1,199,0,2,0,2,stim/objects/Instruments/bassdrum4.png,,0,stim/0.png,0,0,42,2020-12-09_07h29.14.670,premup-three_ses-02_part-03_label-phase3,3.2.4,MacIntel,60
1,right,1.040999889,3,3.003000259,0,1,1.601000071,0,1,0.935000181,1,0,200,20,1,199,2,1,0.3,1,stim/objects/HouseObjects/thermometer.png,stim/11.jpeg,1,stim/1.png,1,1,42,2020-12-09_07h29.14.670,premup-three_ses-02_part-03_label-phase3,3.2.4,MacIntel,60
1,right,0.887000084,2,0.907000065,0,2,2.808000088,0,1,2.088000059,1,0,200,78,1,199,3,2,0.9,1,stim/objects/Instruments/hihat2.png,stim/33.jpeg,3,stim/3.png,3,3,42,2020-12-09_07h29.14.670,premup-three_ses-02_part-03_label-phase3,3.2.4,MacIntel,60
1,right,2.424999952,4,5.33100009,0,4,0.715000153,0,1,0.853000164,1,0,200,62,1,199,3,1,0.1,1,stim/objects/HouseObjects/flyswatter2.png,stim/33.jpeg,3,stim/3.png,3,3,42,2020-12-09_07h29.14.670,premup-three_ses-02_part-03_label-phase3,3.2.4,MacIntel,60
1,left,2.18200016,,,0,,,0,,,1,0,200,178,1,199,0,2,0,2,stim/objects/Instruments/banjo4.png,,0,stim/0.png,0,0,42,2020-12-09_07h29.14.670,premup-three_ses-02_part-03_label-phase3,3.2.4,MacIntel,60
1,right,1.014000177,4,3.137000084,0,4,1.309000015,0,3,1.883000135,1,0,200,28,1,199,2,1,0.3,1,stim/objects/HouseObjects/basket2.png,stim/11.jpeg,1,stim/1.png,1,2,42,2020-12-09_07h29.14.670,premup-three_ses-02_part-03_label-phase3,3.2.4,MacIntel,60
1,right,0.861000299,,,0,,,0,,,1,0,200,140,1,199,0,1,0,2,stim/objects/HouseObjects/glassmop3.png,,0,stim/0.png,0,0,42,2020-12-09_07h29.14.670,premup-three_ses-02_part-03_label-phase3,3.2.4,MacIntel,60
1,left,1.180000067,3,0.94900012,0,2,1.09800005,0,2,0.746999979,1,0,200,37,1,199,2,2,0.7,1,stim/objects/Instruments/balalaika2.png,stim/11.jpeg,1,stim/1.png,1,4,42,2020-12-09_07h29.14.670,premup-three_ses-02_part-03_label-phase3,3.2.4,MacIntel,60
1,right,0.848999977,,,0,,,0,,,1,0,200,155,1,199,0,2,0,2,stim/objects/Instruments/speaker3.png,,0,stim/0.png,0,0,42,2020-12-09_07h29.14.670,premup-three_ses-02_part-03_label-phase3,3.2.4,MacIntel,60
1,right,0.901000261,,,0,,,0,,,1,0,200,114,1,199,0,2,0,2,stim/objects/Instruments/bassdrum3.png,,0,stim/0.png,0,0,42,2020-12-09_07h29.14.670,premup-three_ses-02_part-03_label-phase3,3.2.4,MacIntel,60
1,left,1.555000305,,,0,,,0,,,1,0,200,177,1,199,0,2,0,2,stim/objects/Instruments/balalaika4.png,,0,stim/0.png,0,0,42,2020-12-09_07h29.14.670,premup-three_ses-02_part-03_label-phase3,3.2.4,MacIntel,60
1,right,1.430000067,,,0,,,0,,,1,0,200,174,1,199,0,2,0,2,stim/objects/Instruments/xylophone3.png,,0,stim/0.png,0,0,42,2020-12-09_07h29.14.670,premup-three_ses-02_part-03_label-phase3,3.2.4,MacIntel,60
1,right,1.230000019,3,2.49000001,0,3,0.972000122,0,2,1.412000179,1,0,200,25,1,199,2,1,0.3,1,stim/objects/HouseObjects/ashtray2.png,stim/12.jpeg,1,stim/1.png,2,2,42,2020-12-09_07h29.14.670,premup-three_ses-02_part-03_label-phase3,3.2.4,MacIntel,60
1,right,0.964000225,,,0,,,0,,,1,0,200,167,1,199,0,1,0,2,stim/objects/HouseObjects/barbecuelighter4.png,,0,stim/0.png,0,0,42,2020-12-09_07h29.14.670,premup-three_ses-02_part-03_label-phase3,3.2.4,MacIntel,60
1,right,1.036000252,,,0,,,0,,,1,0,200,106,1,199,0,1,0,2,stim/objects/HouseObjects/bottle3.png,,0,stim/0.png,0,0,42,2020-12-09_07h29.14.670,premup-three_ses-02_part-03_label-phase3,3.2.4,MacIntel,60
1,right,0.590000153,4,1.358999968,0,1,1.549000263,0,1,0.947000027,1,0,200,34,1,199,2,2,0.7,1,stim/objects/Instruments/xylophone.png,stim/12.jpeg,1,stim/1.png,2,3,42,2020-12-09_07h29.14.670,premup-three_ses-02_part-03_label-phase3,3.2.4,MacIntel,60
1,left,1.056000233,4,0.653000116,0,1,1.27300024,0,3,3.743999958,1,0,200,14,1,199,1,2,0.5,1,stim/objects/HouseObjects/teapot.png,stim/61.jpeg,6,stim/6.png,1,1,42,2020-12-09_07h29.14.670,premup-three_ses-02_part-03_label-phase3,3.2.4,MacIntel,60
1,right,5.004000187,,,0,,,0,,,1,0,200,109,1,199,0,1,0,2,stim/objects/HouseObjects/clock3.png,,0,stim/0.png,0,0,42,2020-12-09_07h29.14.670,premup-three_ses-02_part-03_label-phase3,3.2.4,MacIntel,60
1,right,0.745000124,,,0,,,0,,,1,0,200,129,1,199,0,1,0,2,stim/objects/HouseObjects/glass3.png,,0,stim/0.png,0,0,42,2020-12-09_07h29.14.670,premup-three_ses-02_part-03_label-phase3,3.2.4,MacIntel,60
1,right,0.70600009,3,0.866000175,0,4,1.142000198,0,3,1.102999926,1,0,200,10,1,199,1,2,0.5,1,stim/objects/HouseObjects/saw.png,stim/61.jpeg,6,stim/6.png,1,2,42,2020-12-09_07h29.14.670,premup-three_ses-02_part-03_label-phase3,3.2.4,MacIntel,60
1,left,1.715000153,4,0.864000082,0,2,1.251000166,0,2,1.606000185,1,0,200,21,1,199,2,1,0.3,1,stim/objects/HouseObjects/thread.png,stim/12.jpeg,1,stim/1.png,2,3,42,2020-12-09_07h29.14.670,premup-three_ses-02_part-03_label-phase3,3.2.4,MacIntel,60
1,right,0.911999941,,,0,,,0,,,1,0,200,148,1,199,0,1,0,2,stim/objects/HouseObjects/spraybottle3.png,,0,stim/0.png,0,0,42,2020-12-09_07h29.14.670,premup-three_ses-02_part-03_label-phase3,3.2.4,MacIntel,60
1,right,1.532999992,2,1.503000021,0,4,1.52699995,0,4,2.653000116,1,0,200,8,1,199,1,1,0.5,1,stim/objects/Instruments/hihat.png,stim/51.jpeg,5,stim/5.png,1,2,42,2020-12-09_07h29.14.670,premup-three_ses-02_part-03_label-phase3,3.2.4,MacIntel,60
1,right,1.470000267,,,0,,,0,,,1,0,200,151,1,199,0,2,0,2,stim/objects/Instruments/harmonica3.png,,0,stim/0.png,0,0,42,2020-12-09_07h29.14.670,premup-three_ses-02_part-03_label-phase3,3.2.4,MacIntel,60
1,left,1.132000208,4,0.688000202,0,1,1.878000259,0,1,0.828000307,1,0,200,69,1,199,3,1,0.1,1,stim/objects/HouseObjects/safetypin2.png,stim/32.jpeg,3,stim/3.png,2,1,42,2020-12-09_07h29.14.670,premup-three_ses-02_part-03_label-phase3,3.2.4,MacIntel,60
1,right,0.803000212,,,0,,,0,,,1,0,200,184,1,199,0,1,0,2,stim/objects/HouseObjects/clock4.png,,0,stim/0.png,0,0,42,2020-12-09_07h29.14.670,premup-three_ses-02_part-03_label-phase3,3.2.4,MacIntel,60
1,right,1.236999989,,,0,,,0,,,1,0,200,169,1,199,0,1,0,2,stim/objects/HouseObjects/bleachbottle4.png,,0,stim/0.png,0,0,42,2020-12-09_07h29.14.670,premup-three_ses-02_part-03_label-phase3,3.2.4,MacIntel,60
1,left,0.842000008,4,0.514000177,0,4,0.613000154,0,1,1.181999922,1,0,200,98,1,199,3,2,0.1,1,stim/objects/Instruments/vuvuzela2.png,stim/43.jpeg,4,stim/4.png,3,3,42,2020-12-09_07h29.14.670,premup-three_ses-02_part-03_label-phase3,3.2.4,MacIntel,60
1,left,1.355999947,4,0.838999987,0,3,1.769000053,0,4,2.830000162,1,0,200,26,1,199,2,1,0.3,1,stim/objects/HouseObjects/ballofstring2.png,stim/13.jpeg,1,stim/1.png,3,3,42,2020-12-09_07h29.14.670,premup-three_ses-02_part-03_label-phase3,3.2.4,MacIntel,60
1,left,1.044000149,3,0.93900013,0,3,2.198000193,0,1,1.163000107,1,0,200,23,1,199,2,1,0.3,1,stim/objects/HouseObjects/vacuumcleaner.png,stim/14.jpeg,1,stim/1.png,4,1,42,2020-12-09_07h29.14.670,premup-three_ses-02_part-03_label-phase3,3.2.4,MacIntel,60
1,right,1.613000154,,,0,,,0,,,1,0,200,172,1,199,0,2,0,2,stim/objects/Instruments/violin3.png,,0,stim/0.png,0,0,42,2020-12-09_07h29.14.670,premup-three_ses-02_part-03_label-phase3,3.2.4,MacIntel,60
1,right,0.691000223,,,0,,,0,,,1,0,200,162,1,199,0,1,0,2,stim/objects/HouseObjects/towel3.png,,0,stim/0.png,0,0,42,2020-12-09_07h29.14.670,premup-three_ses-02_part-03_label-phase3,3.2.4,MacIntel,60
1,right,0.73300004,,,0,,,0,,,1,0,200,128,1,199,0,1,0,2,stim/objects/HouseObjects/garbagebin3.png,,0,stim/0.png,0,0,42,2020-12-09_07h29.14.670,premup-three_ses-02_part-03_label-phase3,3.2.4,MacIntel,60
1,right,0.674000025,,,0,,,0,,,1,0,200,185,1,199,0,1,0,2,stim/objects/HouseObjects/clothesdryingrack4.png,,0,stim/0.png,0,0,42,2020-12-09_07h29.14.670,premup-three_ses-02_part-03_label-phase3,3.2.4,MacIntel,60
1,right,0.586000204,,,0,,,0,,,1,0,200,125,1,199,0,1,0,2,stim/objects/HouseObjects/doormat3.png,,0,stim/0.png,0,0,42,2020-12-09_07h29.14.670,premup-three_ses-02_part-03_label-phase3,3.2.4,MacIntel,60
1,right,0.84800005,3,1.336000204,0,3,1.286000013,0,2,0.848999977,1,0,200,94,1,199,3,2,0.1,1,stim/objects/Instruments/trombone2.png,stim/43.jpeg,4,stim/4.png,3,4,42,2020-12-09_07h29.14.670,premup-three_ses-02_part-03_label-phase3,3.2.4,MacIntel,60
1,right,1.625000238,1,1.463000298,0,1,1.262000084,0,2,1.598999977,1,0,200,70,1,199,3,2,0.9,1,stim/objects/Instruments/flute2.png,stim/33.jpeg,3,stim/3.png,3,4,42,2020-12-09_07h29.14.670,premup-three_ses-02_part-03_label-phase3,3.2.4,MacIntel,60
1,right,2.080000162,2,1.460000038,0,4,1.350000143,0,4,0.976000071,1,0,200,39,1,199,2,2,0.7,1,stim/objects/Instruments/bassdrum2.png,stim/13.jpeg,1,stim/1.png,3,1,42,2020-12-09_07h29.14.670,premup-three_ses-02_part-03_label-phase3,3.2.4,MacIntel,60
1,right,1.168000221,,,0,,,0,,,1,0,200,159,1,199,0,2,0,2,stim/objects/Instruments/trombone3.png,,0,stim/0.png,0,0,42,2020-12-09_07h29.14.670,premup-three_ses-02_part-03_label-phase3,3.2.4,MacIntel,60
1,right,0.85800004,3,1.719000101,0,3,1.119999886,0,3,1.065000296,1,0,200,13,1,199,1,2,0.5,1,stim/objects/HouseObjects/spraybottle.png,stim/64.jpeg,6,stim/6.png,4,3,42,2020-12-09_07h29.14.670,premup-three_ses-02_part-03_label-phase3,3.2.4,MacIntel,60
1,right,0.93900013,,,0,,,0,,,1,0,200,118,1,199,0,2,0,2,stim/objects/Instruments/clarinet3.png,,0,stim/0.png,0,0,42,2020-12-09_07h29.14.670,premup-three_ses-02_part-03_label-phase3,3.2.4,MacIntel,60
1,right,0.809000015,,,0,,,0,,,1,0,200,166,1,199,0,1,0,2,stim/objects/HouseObjects/ballofstring4.png,,0,stim/0.png,0,0,42,2020-12-09_07h29.14.670,premup-three_ses-02_part-03_label-phase3,3.2.4,MacIntel,60
1,right,0.641000032,,,0,,,0,,,1,0,200,139,1,199,0,2,0,2,stim/objects/Instruments/grandpiano3.png,,0,stim/0.png,0,0,42,2020-12-09_07h29.14.670,premup-three_ses-02_part-03_label-phase3,3.2.4,MacIntel,60
1,right,0.917000055,,,0,,,0,,,1,0,200,133,1,199,0,2,0,2,stim/objects/Instruments/electricdrumset3.png,,0,stim/0.png,0,0,42,2020-12-09_07h29.14.670,premup-three_ses-02_part-03_label-phase3,3.2.4,MacIntel,60
1,right,0.586000204,2,2.957000017,0,2,0.881999969,0,1,1.033000231,1,0,200,16,1,199,1,2,0.5,1,stim/objects/Instruments/tambourine.png,stim/61.jpeg,6,stim/6.png,1,2,42,2020-12-09_07h29.14.670,premup-three_ses-02_part-03_label-phase3,3.2.4,MacIntel,60
1,right,1.59100008,,,0,,,0,,,1,0,200,150,1,199,0,2,0,2,stim/objects/Instruments/guitarcase3.png,,0,stim/0.png,0,0,42,2020-12-09_07h29.14.670,premup-three_ses-02_part-03_label-phase3,3.2.4,MacIntel,60
1,left,1.255000114,4,0.413000107,0,1,0.937999964,0,2,1.753000259,1,0,200,12,1,199,1,2,0.5,1,stim/objects/HouseObjects/sponge.png,stim/63.jpeg,6,stim/6.png,3,1,42,2020-12-09_07h29.14.670,premup-three_ses-02_part-03_label-phase3,3.2.4,MacIntel,60
1,left,1.423000097,,,0,,,0,,,1,0,200,144,1,199,0,1,0,2,stim/objects/HouseObjects/safetypin3.png,,0,stim/0.png,0,0,42,2020-12-09_07h29.14.670,premup-three_ses-02_part-03_label-phase3,3.2.4,MacIntel,60
1,right,1.032999992,,,0,,,0,,,1,0,200,104,1,199,0,1,0,2,stim/objects/HouseObjects/bleachbottle3.png,,0,stim/0.png,0,0,42,2020-12-09_07h29.14.670,premup-three_ses-02_part-03_label-phase3,3.2.4,MacIntel,60
1,right,0.712000132,,,0,,,0,,,1,0,200,188,1,199,0,1,0,2,stim/objects/HouseObjects/cushion4.png,,0,stim/0.png,0,0,42,2020-12-09_07h29.14.670,premup-three_ses-02_part-03_label-phase3,3.2.4,MacIntel,60
1,left,0.942000151,4,0.617000103,0,1,2.348999977,0,2,1.634000063,1,0,200,91,1,199,3,2,0.1,1,stim/objects/Instruments/tambourine2.png,stim/44.jpeg,4,stim/4.png,4,4,42,2020-12-09_07h29.14.670,premup-three_ses-02_part-03_label-phase3,3.2.4,MacIntel,60
1,right,1.953999996,4,5.970000267,0,3,0.877000093,0,1,0.931000233,1,0,200,71,1,199,3,2,0.9,1,stim/objects/Instruments/flutetrans2.png,stim/34.jpeg,3,stim/3.png,4,4,42,2020-12-09_07h29.14.670,premup-three_ses-02_part-03_label-phase3,3.2.4,MacIntel,60
1,right,0.996999979,4,1.171000004,0,4,0.630000114,0,4,0.361000061,1,0,200,46,1,199,2,1,0.7,1,stim/objects/HouseObjects/clothespin2.png,stim/22.jpeg,2,stim/2.png,2,3,42,2020-12-09_07h29.14.670,premup-three_ses-02_part-03_label-phase3,3.2.4,MacIntel,60
1,left,2.77300024,3,0.766000032,0,2,1.75999999,0,3,1.395999908,1,0,200,30,1,199,2,2,0.7,1,stim/objects/Instruments/trumpet.png,stim/12.jpeg,1,stim/1.png,2,4,42,2020-12-09_07h29.14.670,premup-three_ses-02_part-03_label-phase3,3.2.4,MacIntel,60
1,left,1.092000246,,,0,,,0,,,1,0,200,183,1,199,0,1,0,2,stim/objects/HouseObjects/bucket4.png,,0,stim/0.png,0,0,42,2020-12-09_07h29.14.670,premup-three_ses-02_part-03_label-phase3,3.2.4,MacIntel,60
1,right,1.187000036,3,1.516000032,0,3,1.149000168,0,1,0.96600008,1,0,200,40,1,199,2,1,0.7,1,stim/objects/HouseObjects/blender2.png,stim/24.jpeg,2,stim/2.png,4,3,42,2020-12-09_07h29.14.670,premup-three_ses-02_part-03_label-phase3,3.2.4,MacIntel,60
1,right,1.177999973,,,0,,,0,,,1,0,200,191,1,199,0,2,0,2,stim/objects/Instruments/cello4.png,,0,stim/0.png,0,0,42,2020-12-09_07h29.14.670,premup-three_ses-02_part-03_label-phase3,3.2.4,MacIntel,60
1,left,1.402999878,4,1.630000114,0,2,1.565000057,0,2,1.083000183,1,0,200,58,1,199,2,2,0.3,1,stim/objects/Instruments/electricdrumset2.png,stim/22.jpeg,2,stim/2.png,2,2,42,2020-12-09_07h29.14.670,premup-three_ses-02_part-03_label-phase3,3.2.4,MacIntel,60
1,left,1.607000113,4,0.588999987,0,1,1.003999949,0,1,0.986999989,1,0,200,1,1,199,1,1,0.5,1,stim/objects/HouseObjects/hairdryer.png,stim/54.jpeg,5,stim/5.png,4,3,42,2020-12-09_07h29.14.670,premup-three_ses-02_part-03_label-phase3,3.2.4,MacIntel,60
1,left,1.565000057,3,0.817000151,0,4,0.648999929,0,2,1.027000189,1,0,200,83,1,199,3,1,0.9,1,stim/objects/HouseObjects/spraybottle2.png,stim/44.jpeg,4,stim/4.png,4,1,42,2020-12-09_07h29.14.670,premup-three_ses-02_part-03_label-phase3,3.2.4,MacIntel,60
1,right,0.976000071,3,1.317000151,0,1,1.934000015,0,2,1.788000107,1,0,200,27,1,199,2,1,0.3,1,stim/objects/HouseObjects/barbecuelighter2.png,stim/14.jpeg,1,stim/1.png,4,3,42,2020-12-09_07h29.14.670,premup-three_ses-02_part-03_label-phase3,3.2.4,MacIntel,60
1,right,2.613000154,,,0,,,0,,,1,0,200,168,1,199,0,1,0,2,stim/objects/HouseObjects/basket4.png,,0,stim/0.png,0,0,42,2020-12-09_07h29.14.670,premup-three_ses-02_part-03_label-phase3,3.2.4,MacIntel,60
1,right,0.792000055,,,0,,,0,,,1,0,200,121,1,199,0,1,0,2,stim/objects/HouseObjects/clothespin3.png,,0,stim/0.png,0,0,42,2020-12-09_07h29.14.670,premup-three_ses-02_part-03_label-phase3,3.2.4,MacIntel,60
1,right,0.571000099,,,0,,,0,,,1,0,200,110,1,199,0,2,0,2,stim/objects/Instruments/accordion3.png,,0,stim/0.png,0,0,42,2020-12-09_07h29.14.670,premup-three_ses-02_part-03_label-phase3,3.2.4,MacIntel,60
1,right,0.838999987,4,2.090000153,0,3,2.399000168,0,1,1.552000046,1,0,200,96,1,199,3,2,0.1,1,stim/objects/Instruments/tuba2.png,stim/41.jpeg,4,stim/4.png,1,3,42,2020-12-09_07h29.14.670,premup-three_ses-02_part-03_label-phase3,3.2.4,MacIntel,60
1,left,1.083000183,,,0,,,0,,,1,0,200,198,1,199,0,2,0,2,stim/objects/Instruments/electricdrumset4.png,,0,stim/0.png,0,0,42,2020-12-09_07h29.14.670,premup-three_ses-02_part-03_label-phase3,3.2.4,MacIntel,60
1,right,0.972000122,3,1.431999922,0,4,0.882000208,0,4,0.883000135,1,0,200,84,1,199,3,1,0.9,1,stim/objects/HouseObjects/teapot2.png,stim/41.jpeg,4,stim/4.png,1,4,42,2020-12-09_07h29.14.670,premup-three_ses-02_part-03_label-phase3,3.2.4,MacIntel,60
1,left,1.042999983,4,0.483999968,0,4,4.127000093,0,2,1.667000294,1,0,200,72,1,199,3,2,0.9,1,stim/objects/Instruments/frenchhorn2.png,stim/31.jpeg,3,stim/3.png,1,1,42,2020-12-09_07h29.14.670,premup-three_ses-02_part-03_label-phase3,3.2.4,MacIntel,60
1,left,1.497000217,4,0.901000023,0,2,1.294000149,0,1,0.864000082,1,0,200,29,1,199,2,1,0.3,1,stim/objects/HouseObjects/bleachbottle2.png,stim/12.jpeg,1,stim/1.png,2,4,42,2020-12-09_07h29.14.670,premup-three_ses-02_part-03_label-phase3,3.2.4,MacIntel,60
1,right,0.962000132,4,1.174000025,0,1,0.701000214,0,1,0.315000057,1,0,200,33,1,199,2,2,0.7,1,stim/objects/Instruments/vuvuzela.png,stim/11.jpeg,1,stim/1.png,1,2,42,2020-12-09_07h29.14.670,premup-three_ses-02_part-03_label-phase3,3.2.4,MacIntel,60
1,right,1.055999994,4,2.083000183,0,3,0.882000208,0,3,0.161999941,1,0,200,17,1,199,1,2,0.5,1,stim/objects/Instruments/timbal.png,stim/62.jpeg,6,stim/6.png,2,4,42,2020-12-09_07h29.14.670,premup-three_ses-02_part-03_label-phase3,3.2.4,MacIntel,60
1,right,1.082000017,4,1.874000072,0,4,0.555000067,0,4,0.180999994,1,0,200,49,1,199,2,1,0.7,1,stim/objects/HouseObjects/dishsoap2.png,stim/21.jpeg,2,stim/2.png,1,4,42,2020-12-09_07h29.14.670,premup-three_ses-02_part-03_label-phase3,3.2.4,MacIntel,60
1,right,0.769999981,,,0,,,0,,,1,0,200,161,1,199,0,1,0,2,stim/objects/HouseObjects/thread3.png,,0,stim/0.png,0,0,42,2020-12-09_07h29.14.670,premup-three_ses-02_part-03_label-phase3,3.2.4,MacIntel,60
1,left,1.353000164,4,0.61500001,0,4,0.549000025,0,4,1.784000158,1,0,200,42,1,199,2,1,0.7,1,stim/objects/HouseObjects/broom2.png,stim/22.jpeg,2,stim/2.png,2,4,42,2020-12-09_07h29.14.670,premup-three_ses-02_part-03_label-phase3,3.2.4,MacIntel,60
1,right,0.873000145,3,2.416000128,0,3,1.582999945,0,4,1.687000036,1,0,200,24,1,199,2,1,0.3,1,stim/objects/HouseObjects/wateringcan.png,stim/11.jpeg,1,stim/1.png,1,1,42,2020-12-09_07h29.14.670,premup-three_ses-02_part-03_label-phase3,3.2.4,MacIntel,60
1,left,1,4,0.464999914,0,2,1.867000103,0,1,0.971999884,1,0,200,11,1,199,1,2,0.5,1,stim/objects/HouseObjects/scale.png,stim/62.jpeg,6,stim/6.png,2,2,42,2020-12-09_07h29.14.670,premup-three_ses-02_part-03_label-phase3,3.2.4,MacIntel,60
1,right,0.827000141,,,0,,,0,,,1,0,200,141,1,199,0,1,0,2,stim/objects/HouseObjects/hairdryer3.png,,0,stim/0.png,0,0,42,2020-12-09_07h29.14.670,premup-three_ses-02_part-03_label-phase3,3.2.4,MacIntel,60
1,right,2.409000158,,,0,,,0,,,1,0,200,126,1,199,0,1,0,2,stim/objects/HouseObjects/dustpan3.png,,0,stim/0.png,0,0,42,2020-12-09_07h29.14.670,premup-three_ses-02_part-03_label-phase3,3.2.4,MacIntel,60
1,right,0.592999935,,,0,,,0,,,1,0,200,103,1,199,0,1,0,2,stim/objects/HouseObjects/basket3.png,,0,stim/0.png,0,0,42,2020-12-09_07h29.14.670,premup-three_ses-02_part-03_label-phase3,3.2.4,MacIntel,60
1,right,0.661000252,,,0,,,0,,,1,0,200,142,1,199,0,1,0,2,stim/objects/HouseObjects/handbrush3.png,,0,stim/0.png,0,0,42,2020-12-09_07h29.14.670,premup-three_ses-02_part-03_label-phase3,3.2.4,MacIntel,60
1,right,0.849000216,4,1.285000086,0,4,0.717000008,0,1,1.036000252,1,0,200,0,1,199,1,1,0.5,1,stim/objects/HouseObjects/glassmop.png,stim/53.jpeg,5,stim/5.png,3,3,42,2020-12-09_07h29.14.670,premup-three_ses-02_part-03_label-phase3,3.2.4,MacIntel,60
1,right,1.493999958,4,1.034000158,0,1,1.099000216,0,1,0.634000063,1,0,200,60,1,199,3,1,0.1,1,stim/objects/HouseObjects/doormat2.png,stim/31.jpeg,3,stim/3.png,1,1,42,2020-12-09_07h29.14.670,premup-three_ses-02_part-03_label-phase3,3.2.4,MacIntel,60
1,left,4.373000145,,,0,,,0,,,1,0,200,116,1,199,0,2,0,2,stim/objects/Instruments/cello3.png,,0,stim/0.png,0,0,42,2020-12-09_07h29.14.670,premup-three_ses-02_part-03_label-phase3,3.2.4,MacIntel,60
1,left,1.649000168,,,0,,,0,,,1,0,200,152,1,199,0,2,0,2,stim/objects/Instruments/harp3.png,,0,stim/0.png,0,0,42,2020-12-09_07h29.14.670,premup-three_ses-02_part-03_label-phase3,3.2.4,MacIntel,60
1,right,0.953000307,,,0,,,0,,,1,0,200,122,1,199,0,1,0,2,stim/objects/HouseObjects/coffee3.png,,0,stim/0.png,0,0,42,2020-12-09_07h29.14.670,premup-three_ses-02_part-03_label-phase3,3.2.4,MacIntel,60
1,right,0.775000095,,,0,,,0,,,1,0,200,102,1,199,0,1,0,2,stim/objects/HouseObjects/barbecuelighter3.png,,0,stim/0.png,0,0,42,2020-12-09_07h29.14.670,premup-three_ses-02_part-03_label-phase3,3.2.4,MacIntel,60
1,right,0.59800005,,,0,,,0,,,1,0,200,120,1,199,0,1,0,2,stim/objects/HouseObjects/clothesdryingrack3.png,,0,stim/0.png,0,0,42,2020-12-09_07h29.14.670,premup-three_ses-02_part-03_label-phase3,3.2.4,MacIntel,60
1,right,0.799000025,,,0,,,0,,,1,0,200,135,1,199,0,2,0,2,stim/objects/Instruments/flute3.png,,0,stim/0.png,0,0,42,2020-12-09_07h29.14.670,premup-three_ses-02_part-03_label-phase3,3.2.4,MacIntel,60
1,right,0.914000034,4,1.631000042,0,2,1.342999935,0,4,0.36500001,1,0,200,90,1,199,3,2,0.1,1,stim/objects/Instruments/speaker2.png,stim/43.jpeg,4,stim/4.png,3,1,42,2020-12-09_07h29.14.670,premup-three_ses-02_part-03_label-phase3,3.2.4,MacIntel,60
1,left,1.60800004,3,0.986000061,0,3,1.117000103,0,1,0.72300005,1,0,200,43,1,199,2,1,0.7,1,stim/objects/HouseObjects/bucket2.png,stim/23.jpeg,2,stim/2.png,3,3,42,2020-12-09_07h29.14.670,premup-three_ses-02_part-03_label-phase3,3.2.4,MacIntel,60
1,left,1.358999968,,,0,,,0,,,1,0,200,115,1,199,0,2,0,2,stim/objects/Instruments/bassguitar3.png,,0,stim/0.png,0,0,42,2020-12-09_07h29.14.670,premup-three_ses-02_part-03_label-phase3,3.2.4,MacIntel,60
1,left,1.029000044,,,0,,,0,,,1,0,200,143,1,199,0,1,0,2,stim/objects/HouseObjects/handvacuum3.png,,0,stim/0.png,0,0,42,2020-12-09_07h29.14.670,premup-three_ses-02_part-03_label-phase3,3.2.4,MacIntel,60
1,right,0.808000088,,,0,,,0,,,1,0,200,163,1,199,0,1,0,2,stim/objects/HouseObjects/vacuumcleaner3.png,,0,stim/0.png,0,0,42,2020-12-09_07h29.14.670,premup-three_ses-02_part-03_label-phase3,3.2.4,MacIntel,60
1,right,0.830000162,,,0,,,0,,,1,0,200,157,1,199,0,2,0,2,stim/objects/Instruments/timbal3.png,,0,stim/0.png,0,0,42,2020-12-09_07h29.14.670,premup-three_ses-02_part-03_label-phase3,3.2.4,MacIntel,60
1,right,1.671000004,,,0,,,0,,,1,0,200,123,1,199,0,1,0,2,stim/objects/HouseObjects/cushion3.png,,0,stim/0.png,0,0,42,2020-12-09_07h29.14.670,premup-three_ses-02_part-03_label-phase3,3.2.4,MacIntel,60
1,left,1.133000135,4,0.805000067,0,2,1.381000042,0,1,1.702000141,1,0,200,65,1,199,3,1,0.1,1,stim/objects/HouseObjects/glassmop2.png,stim/32.jpeg,3,stim/3.png,2,3,42,2020-12-09_07h29.14.670,premup-three_ses-02_part-03_label-phase3,3.2.4,MacIntel,60
1,right,1.33100009,,,0,,,0,,,1,0,200,199,1,199,0,2,0,2,stim/objects/Instruments/electricguitar4.png,,0,stim/0.png,0,0,42,2020-12-09_07h29.14.670,premup-three_ses-02_part-03_label-phase3,3.2.4,MacIntel,60
1,right,0.836000204,,,0,,,0,,,1,0,200,175,1,199,0,2,0,2,stim/objects/Instruments/accordion4.png,,0,stim/0.png,0,0,42,2020-12-09_07h29.14.670,premup-three_ses-02_part-03_label-phase3,3.2.4,MacIntel,60
1,right,1.024000168,,,0,,,0,,,1,0,200,117,1,199,0,2,0,2,stim/objects/Instruments/chime3.png,,0,stim/0.png,0,0,42,2020-12-09_07h29.14.670,premup-three_ses-02_part-03_label-phase3,3.2.4,MacIntel,60
1,right,1.099000216,2,2.965000153,0,2,0.907000065,0,1,0.618000031,1,0,200,54,1,199,2,2,0.3,1,stim/objects/Instruments/cornet2.png,stim/22.jpeg,2,stim/2.png,2,4,42,2020-12-09_07h29.14.670,premup-three_ses-02_part-03_label-phase3,3.2.4,MacIntel,60
1,left,1.101000071,4,0.585000038,0,2,1.272000074,0,1,0.57400012,1,0,200,86,1,199,3,1,0.9,1,stim/objects/HouseObjects/thread2.png,stim/43.jpeg,4,stim/4.png,3,3,42,2020-12-09_07h29.14.670,premup-three_ses-02_part-03_label-phase3,3.2.4,MacIntel,60
1,right,1.952000141,3,1.523000002,0,4,0.670000076,0,4,2.053000212,1,0,200,73,1,199,3,2,0.9,1,stim/objects/Instruments/gong2.png,stim/32.jpeg,3,stim/3.png,2,2,42,2020-12-09_07h29.14.670,premup-three_ses-02_part-03_label-phase3,3.2.4,MacIntel,60
1,right,3.205000162,,,0,,,0,,,1,0,200,131,1,199,0,2,0,2,stim/objects/Instruments/doublebass3.png,,0,stim/0.png,0,0,42,2020-12-09_07h29.14.670,premup-three_ses-02_part-03_label-phase3,3.2.4,MacIntel,60
1,right,0.942000151,2,1.82400012,0,4,1.430999994,0,1,0.529000044,1,0,200,48,1,199,2,1,0.7,1,stim/objects/HouseObjects/cushion2.png,stim/24.jpeg,2,stim/2.png,4,4,42,2020-12-09_07h29.14.670,premup-three_ses-02_part-03_label-phase3,3.2.4,MacIntel,60
1,left,1.560000181,3,0.850000143,0,4,1.05099988,0,4,1.319999933,1,0,200,44,1,199,2,1,0.7,1,stim/objects/HouseObjects/clock2.png,stim/24.jpeg,2,stim/2.png,4,3,42,2020-12-09_07h29.14.670,premup-three_ses-02_part-03_label-phase3,3.2.4,MacIntel,60
1,right,0.931999922,,,0,,,0,,,1,0,200,111,1,199,0,2,0,2,stim/objects/Instruments/acousticguitar3.png,,0,stim/0.png,0,0,42,2020-12-09_07h29.14.670,premup-three_ses-02_part-03_label-phase3,3.2.4,MacIntel,60
1,right,0.904000044,2,3.049000025,0,1,0.69900012,0,1,0.721000195,1,0,200,67,1,199,3,1,0.1,1,stim/objects/HouseObjects/handbrush2.png,stim/34.jpeg,3,stim/3.png,4,3,42,2020-12-09_07h29.14.670,premup-three_ses-02_part-03_label-phase3,3.2.4,MacIntel,60
1,right,1.544000149,1,1.568000078,0,2,0.815000296,0,4,0.798000097,1,0,200,87,1,199,3,1,0.9,1,stim/objects/HouseObjects/towel2.png,stim/44.jpeg,4,stim/4.png,4,3,42,2020-12-09_07h29.14.670,premup-three_ses-02_part-03_label-phase3,3.2.4,MacIntel,60
1,right,2.009000063,4,1.268000126,0,3,0.743000031,0,3,0.593000174,1,0,200,81,1,199,3,1,0.9,1,stim/objects/HouseObjects/scale2.png,stim/42.jpeg,4,stim/4.png,2,4,42,2020-12-09_07h29.14.670,premup-three_ses-02_part-03_label-phase3,3.2.4,MacIntel,60
1,left,1.325999975,,,0,,,0,,,1,0,200,127,1,199,0,1,0,2,stim/objects/HouseObjects/flyswatter3.png,,0,stim/0.png,0,0,42,2020-12-09_07h29.14.670,premup-three_ses-02_part-03_label-phase3,3.2.4,MacIntel,60
1,left,1.310000181,,,0,,,0,,,1,0,200,100,1,199,0,1,0,2,stim/objects/HouseObjects/ashtray3.png,,0,stim/0.png,0,0,42,2020-12-09_07h29.14.670,premup-three_ses-02_part-03_label-phase3,3.2.4,MacIntel,60
1,right,0.894999981,,,0,,,0,,,1,0,200,147,1,199,0,1,0,2,stim/objects/HouseObjects/sponge3.png,,0,stim/0.png,0,0,42,2020-12-09_07h29.14.670,premup-three_ses-02_part-03_label-phase3,3.2.4,MacIntel,60
1,right,0.643000126,,,0,,,0,,,1,0,200,197,1,199,0,2,0,2,stim/objects/Instruments/drums4.png,,0,stim/0.png,0,0,42,2020-12-09_07h29.14.670,premup-three_ses-02_part-03_label-phase3,3.2.4,MacIntel,60
1,right,0.57400012,3,1.825000286,0,3,0.587000132,0,4,1.500000238,1,0,200,92,1,199,3,2,0.1,1,stim/objects/Instruments/timbal2.png,stim/41.jpeg,4,stim/4.png,1,1,42,2020-12-09_07h29.14.670,premup-three_ses-02_part-03_label-phase3,3.2.4,MacIntel,60
1,right,1.953000069,,,0,,,0,,,1,0,200,187,1,199,0,1,0,2,stim/objects/HouseObjects/coffee4.png,,0,stim/0.png,0,0,42,2020-12-09_07h29.14.670,premup-three_ses-02_part-03_label-phase3,3.2.4,MacIntel,60
1,right,0.701999903,,,0,,,0,,,1,0,200,196,1,199,0,2,0,2,stim/objects/Instruments/doublebass4.png,,0,stim/0.png,0,0,42,2020-12-09_07h29.14.670,premup-three_ses-02_part-03_label-phase3,3.2.4,MacIntel,60
1,right,0.704999924,,,0,,,0,,,1,0,200,181,1,199,0,1,0,2,stim/objects/HouseObjects/bottle4.png,,0,stim/0.png,0,0,42,2020-12-09_07h29.14.670,premup-three_ses-02_part-03_label-phase3,3.2.4,MacIntel,60
1,left,1.091000319,4,0.470999956,0,3,1.184000015,0,1,1.587000132,1,0,200,31,1,199,2,2,0.7,1,stim/objects/Instruments/tuba.png,stim/13.jpeg,1,stim/1.png,3,3,42,2020-12-09_07h29.14.670,premup-three_ses-02_part-03_label-phase3,3.2.4,MacIntel,60
1,right,1.578000307,4,0.82400012,0,4,0.299000263,0,4,0.237000227,1,0,200,77,1,199,3,2,0.9,1,stim/objects/Instruments/harp2.png,stim/32.jpeg,3,stim/3.png,2,1,42,2020-12-09_07h29.14.670,premup-three_ses-02_part-03_label-phase3,3.2.4,MacIntel,60
1,right,0.955000162,,,0,,,0,,,1,0,200,138,1,199,0,2,0,2,stim/objects/Instruments/gong3.png,,0,stim/0.png,0,0,42,2020-12-09_07h29.14.670,premup-three_ses-02_part-03_label-phase3,3.2.4,MacIntel,60
1,right,0.918000221,1,1.433000088,0,1,0.317000151,0,1,0.42200017,1,0,200,38,1,199,2,2,0.7,1,stim/objects/Instruments/banjo2.png,stim/12.jpeg,1,stim/1.png,2,2,42,2020-12-09_07h29.14.670,premup-three_ses-02_part-03_label-phase3,3.2.4,MacIntel,60
1,right,0.829000235,,,0,,,0,,,1,0,200,189,1,199,0,1,0,2,stim/objects/HouseObjects/dishsoap4.png,,0,stim/0.png,0,0,42,2020-12-09_07h29.14.670,premup-three_ses-02_part-03_label-phase3,3.2.4,MacIntel,60
1,right,1.072000027,,,0,,,0,,,1,0,200,146,1,199,0,1,0,2,stim/objects/HouseObjects/scale3.png,,0,stim/0.png,0,0,42,2020-12-09_07h29.14.670,premup-three_ses-02_part-03_label-phase3,3.2.4,MacIntel,60
1,right,0.560000181,,,0,,,0,,,1,0,200,186,1,199,0,1,0,2,stim/objects/HouseObjects/clothespin4.png,,0,stim/0.png,0,0,42,2020-12-09_07h29.14.670,premup-three_ses-02_part-03_label-phase3,3.2.4,MacIntel,60
1,right,0.555000067,2,2.989000082,0,2,0.648000002,0,1,0.553000212,1,0,200,32,1,199,2,2,0.7,1,stim/objects/Instruments/violin.png,stim/14.jpeg,1,stim/1.png,4,2,42,2020-12-09_07h29.14.670,premup-three_ses-02_part-03_label-phase3,3.2.4,MacIntel,60
1,right,1.450000048,,,0,,,0,,,1,0,200,170,1,199,0,2,0,2,stim/objects/Instruments/trumpet3.png,,0,stim/0.png,0,0,42,2020-12-09_07h29.14.670,premup-three_ses-02_part-03_label-phase3,3.2.4,MacIntel,60
1,right,0.756000042,,,0,,,0,,,1,0,200,171,1,199,0,2,0,2,stim/objects/Instruments/tuba3.png,,0,stim/0.png,0,0,42,2020-12-09_07h29.14.670,premup-three_ses-02_part-03_label-phase3,3.2.4,MacIntel,60
1,right,0.707000256,,,0,,,0,,,1,0,200,153,1,199,0,2,0,2,stim/objects/Instruments/hihat3.png,,0,stim/0.png,0,0,42,2020-12-09_07h29.14.670,premup-three_ses-02_part-03_label-phase3,3.2.4,MacIntel,60
1,right,1.054000139,2,1.467000008,0,3,0.71600008,0,4,0.47300005,1,0,200,22,1,199,2,1,0.3,1,stim/objects/HouseObjects/towel.png,stim/13.jpeg,1,stim/1.png,3,1,42,2020-12-09_07h29.14.670,premup-three_ses-02_part-03_label-phase3,3.2.4,MacIntel,60
1,right,0.975000143,,,0,,,0,,,1,0,200,136,1,199,0,2,0,2,stim/objects/Instruments/flutetrans3.png,,0,stim/0.png,0,0,42,2020-12-09_07h29.14.670,premup-three_ses-02_part-03_label-phase3,3.2.4,MacIntel,60
1,right,0.575000048,3,2.284000158,0,4,0.408000231,0,1,0.996000051,1,0,200,63,1,199,3,1,0.1,1,stim/objects/HouseObjects/garbagebin2.png,stim/34.jpeg,3,stim/3.png,4,4,42,2020-12-09_07h29.14.670,premup-three_ses-02_part-03_label-phase3,3.2.4,MacIntel,60
1,left,1.395000219,4,0.649000168,0,1,1.492000103,0,3,1.909000158,1,0,200,41,1,199,2,1,0.7,1,stim/objects/HouseObjects/bottle2.png,stim/21.jpeg,2,stim/2.png,1,1,42,2020-12-09_07h29.14.670,premup-three_ses-02_part-03_label-phase3,3.2.4,MacIntel,60
1,left,1.376000166,3,1.016000032,0,4,0.549999952,0,4,0.306000233,1,0,200,93,1,199,3,2,0.1,1,stim/objects/Instruments/triangle2.png,stim/42.jpeg,4,stim/4.png,2,1,42,2020-12-09_07h29.14.670,premup-three_ses-02_part-03_label-phase3,3.2.4,MacIntel,60
1,right,0.942000151,1,1.072000027,0,1,0.633000135,0,2,0.593000174,1,0,200,74,1,199,3,2,0.9,1,stim/objects/Instruments/grandpiano2.png,stim/33.jpeg,3,stim/3.png,3,2,42,2020-12-09_07h29.14.670,premup-three_ses-02_part-03_label-phase3,3.2.4,MacIntel,60
1,right,1.073000193,,,0,,,0,,,1,0,200,132,1,199,0,2,0,2,stim/objects/Instruments/drums3.png,,0,stim/0.png,0,0,42,2020-12-09_07h29.14.670,premup-three_ses-02_part-03_label-phase3,3.2.4,MacIntel,60
1,right,3.375,,,0,,,0,,,1,0,200,176,1,199,0,2,0,2,stim/objects/Instruments/acousticguitar4.png,,0,stim/0.png,0,0,42,2020-12-09_07h29.14.670,premup-three_ses-02_part-03_label-phase3,3.2.4,MacIntel,60
1,right,2.678999901,2,1.072000027,0,3,0.529999971,0,2,0.867000103,1,0,200,97,1,199,3,2,0.1,1,stim/objects/Instruments/violin2.png,stim/42.jpeg,4,stim/4.png,2,2,42,2020-12-09_07h29.14.670,premup-three_ses-02_part-03_label-phase3,3.2.4,MacIntel,60
1,right,1.394000292,3,1.282999992,0,1,0.479000092,0,1,0.654000282,1,0,200,50,1,199,2,2,0.3,1,stim/objects/Instruments/bassguitar2.png,stim/22.jpeg,2,stim/2.png,2,4,42,2020-12-09_07h29.14.670,premup-three_ses-02_part-03_label-phase3,3.2.4,MacIntel,60
1,right,1.166000128,,,0,,,0,,,1,0,200,192,1,199,0,2,0,2,stim/objects/Instruments/chime4.png,,0,stim/0.png,0,0,42,2020-12-09_07h29.14.670,premup-three_ses-02_part-03_label-phase3,3.2.4,MacIntel,60
1,right,0.825999975,4,1.234000206,0,3,0.328999996,0,1,1.580000162,1,0,200,79,1,199,3,2,0.9,1,stim/objects/Instruments/saxophone2.png,stim/34.jpeg,3,stim/3.png,4,2,42,2020-12-09_07h29.14.670,premup-three_ses-02_part-03_label-phase3,3.2.4,MacIntel,60
1,right,0.68900013,,,0,,,0,,,1,0,200,165,1,199,0,1,0,2,stim/objects/HouseObjects/ashtray4.png,,0,stim/0.png,0,0,42,2020-12-09_07h29.14.670,premup-three_ses-02_part-03_label-phase3,3.2.4,MacIntel,60
1,right,0.722000122,3,0.856000185,0,3,0.434000015,0,2,1.304000139,1,0,200,61,1,199,3,1,0.1,1,stim/objects/HouseObjects/dustpan2.png,stim/32.jpeg,3,stim/3.png,2,2,42,2020-12-09_07h29.14.670,premup-three_ses-02_part-03_label-phase3,3.2.4,MacIntel,60
1,right,1.822000265,,,0,,,0,,,1,0,200,164,1,199,0,1,0,2,stim/objects/HouseObjects/wateringcan3.png,,0,stim/0.png,0,0,42,2020-12-09_07h29.14.670,premup-three_ses-02_part-03_label-phase3,3.2.4,MacIntel,60
1,right,0.755000114,,,0,,,0,,,1,0,200,107,1,199,0,1,0,2,stim/objects/HouseObjects/broom3.png,,0,stim/0.png,0,0,42,2020-12-09_07h29.14.670,premup-three_ses-02_part-03_label-phase3,3.2.4,MacIntel,60
1,left,0.904000044,4,0.70600009,0,4,0.414000034,0,1,1.214999914,1,0,200,9,1,199,1,1,0.5,1,stim/objects/Instruments/saxophone.png,stim/52.jpeg,5,stim/5.png,2,2,42,2020-12-09_07h29.14.670,premup-three_ses-02_part-03_label-phase3,3.2.4,MacIntel,60
1,right,1.765000105,4,1.486000299,0,4,0.667000055,0,4,0.266000032,1,0,200,57,1,199,2,2,0.3,1,stim/objects/Instruments/drums2.png,stim/21.jpeg,2,stim/2.png,1,3,42,2020-12-09_07h29.14.670,premup-three_ses-02_part-03_label-phase3,3.2.4,MacIntel,60
1,right,1.24600029,,,0,,,0,,,1,0,200,156,1,199,0,2,0,2,stim/objects/Instruments/tambourine3.png,,0,stim/0.png,0,0,42,2020-12-09_07h29.14.670,premup-three_ses-02_part-03_label-phase3,3.2.4,MacIntel,60
1,right,0.811000109,2,2.301000118,0,2,1.448000193,0,1,0.899000168,1,0,200,59,1,199,2,2,0.3,1,stim/objects/Instruments/electricguitar2.png,stim/23.jpeg,2,stim/2.png,3,1,42,2020-12-09_07h29.14.670,premup-three_ses-02_part-03_label-phase3,3.2.4,MacIntel,60
1,right,1.905999899,,,0,,,0,,,1,0,200,105,1,199,0,1,0,2,stim/objects/HouseObjects/blender3.png,,0,stim/0.png,0,0,42,2020-12-09_07h29.14.670,premup-three_ses-02_part-03_label-phase3,3.2.4,MacIntel,60
1,left,0.83100009,4,0.601000071,0,4,2.713999987,0,1,1.084000111,1,0,200,53,1,199,2,2,0.3,1,stim/objects/Instruments/clarinet2.png,stim/21.jpeg,2,stim/2.png,1,1,42,2020-12-09_07h29.14.670,premup-three_ses-02_part-03_label-phase3,3.2.4,MacIntel,60
1,right,0.887000084,1,1.502000093,0,2,0.825999975,0,4,0.382000208,1,0,200,89,1,199,3,1,0.9,1,stim/objects/HouseObjects/wateringcan2.png,stim/42.jpeg,4,stim/4.png,2,4,42,2020-12-09_07h29.14.670,premup-three_ses-02_part-03_label-phase3,3.2.4,MacIntel,60
1,right,2.419000149,1,0.986999989,0,1,0.394000292,0,1,0.350000143,1,0,200,36,1,199,2,2,0.7,1,stim/objects/Instruments/acousticguitar2.png,stim/14.jpeg,1,stim/1.png,4,4,42,2020-12-09_07h29.14.670,premup-three_ses-02_part-03_label-phase3,3.2.4,MacIntel,60
1,right,1.009000063,,,0,,,0,,,1,0,200,193,1,199,0,2,0,2,stim/objects/Instruments/clarinet4.png,,0,stim/0.png,0,0,42,2020-12-09_07h29.14.670,premup-three_ses-02_part-03_label-phase3,3.2.4,MacIntel,60
1,right,0.837000132,,,0,,,0,,,1,0,200,119,1,199,0,2,0,2,stim/objects/Instruments/cornet3.png,,0,stim/0.png,0,0,42,2020-12-09_07h29.14.670,premup-three_ses-02_part-03_label-phase3,3.2.4,MacIntel,60
1,right,0.694999933,4,1.541000128,0,3,0.668000221,0,3,0.201999903,1,0,200,2,1,199,1,1,0.5,1,stim/objects/HouseObjects/handbrush.png,stim/51.jpeg,5,stim/5.png,1,1,42,2020-12-09_07h29.14.670,premup-three_ses-02_part-03_label-phase3,3.2.4,MacIntel,60
1,right,2.207000017,3,1.988000154,0,2,0.569000006,0,2,0.437000036,1,0,200,52,1,199,2,2,0.3,1,stim/objects/Instruments/chime2.png,stim/24.jpeg,2,stim/2.png,4,1,42,2020-12-09_07h29.14.670,premup-three_ses-02_part-03_label-phase3,3.2.4,MacIntel,60
