"","obj_file","X.x","participant.x","trialN.x","trial_cond","scn_file.x","scn_cat","scn_inst","scn_condition","fillers","obj_cat","obj_cat_num","quadrant","corr_ans","key_resp_trial.keys","key_resp_trial.rt","trial_acc","trial_acc_manual","group.x","practice","X.y","participant.y","OvsN","PE_level","object_cat","scn_file.y","corr_scn_cat","corr_scn_inst","scn_file.1","corr_loc","key_resp_id.keys","key_resp_id.rt","key_resp_conf.keys","key_resp_assoc.keys","key_resp_assoc.rt","key_resp_loc.keys","key_resp_loc.rt","trialN.y","id_acc","assoc.acc","cond_assoc","loc.acc","cond_loc","group.y"
"38","stim/objects/HouseObjects/safetypin2.png",1,38,1,0.9,"stim/51.jpeg",5,1,3,NA,"HouseObjects",2,1,"right","",NA,0,0,1,1,NA,NA,NA,NA,NA,NA,NA,NA,NA,NA,NA,NA,NA,NA,NA,NA,NA,NA,NA,NA,NA,NA,NA,NA
"1","stim/objects/HouseObjects/recyclingbin.png",2,38,2,0.5,"stim/11.jpeg",1,1,1,NA,"HouseObjects",2,2,"right","",NA,0,0,1,1,NA,NA,NA,NA,NA,NA,NA,NA,NA,NA,NA,NA,NA,NA,NA,NA,NA,NA,NA,NA,NA,NA,NA,NA
"126","stim/objects/Instruments/panflute2.png",3,38,3,0.7,"stim/41.jpeg",4,1,2,NA,"Instruments",1,2,"left","left",0.542000055,1,1,1,1,NA,NA,NA,NA,NA,NA,NA,NA,NA,NA,NA,NA,NA,NA,NA,NA,NA,NA,NA,NA,NA,NA,NA,NA
"97","stim/objects/HouseObjects/teapot.png",4,38,4,0.7,"stim/32.jpeg",3,2,2,NA,"HouseObjects",2,1,"right","right",0.407999992,1,1,1,1,NA,NA,NA,NA,NA,NA,NA,NA,NA,NA,NA,NA,NA,NA,NA,NA,NA,NA,NA,NA,NA,NA,NA,NA
"127","stim/objects/Instruments/panflute2.png",5,38,5,0.7,"stim/41.jpeg",4,1,2,NA,"Instruments",1,1,"left","right",0.383000135,0,0,1,1,NA,NA,NA,NA,NA,NA,NA,NA,NA,NA,NA,NA,NA,NA,NA,NA,NA,NA,NA,NA,NA,NA,NA,NA
"39","stim/objects/HouseObjects/safetypin2.png",6,38,6,0.9,"stim/51.jpeg",5,1,3,NA,"HouseObjects",2,4,"right","right",0.467000008,1,1,1,1,NA,NA,NA,NA,NA,NA,NA,NA,NA,NA,NA,NA,NA,NA,NA,NA,NA,NA,NA,NA,NA,NA,NA,NA
"14","stim/objects/HouseObjects/remote2.png",7,38,7,0.3,"stim/42.jpeg",4,2,2,NA,"HouseObjects",2,2,"right","left",0.46600008,0,0,1,1,NA,NA,NA,NA,NA,NA,NA,NA,NA,NA,NA,NA,NA,NA,NA,NA,NA,NA,NA,NA,NA,NA,NA,NA
"187","stim/objects/Instruments/timbal.png",8,38,8,0.5,"stim/24.jpeg",2,4,1,NA,"Instruments",1,3,"left","left",0.526000023,1,1,1,1,NA,NA,NA,NA,NA,NA,NA,NA,NA,NA,NA,NA,NA,NA,NA,NA,NA,NA,NA,NA,NA,NA,NA,NA
"2","stim/objects/HouseObjects/recyclingbin.png",9,38,9,0.5,"stim/11.jpeg",1,1,1,NA,"HouseObjects",2,1,"right","left",0.583000183,0,0,1,1,NA,NA,NA,NA,NA,NA,NA,NA,NA,NA,NA,NA,NA,NA,NA,NA,NA,NA,NA,NA,NA,NA,NA,NA
"181","stim/objects/Instruments/tambourine.png",10,38,10,0.5,"stim/23.jpeg",2,3,1,NA,"Instruments",1,4,"left","left",0.496000051,1,1,1,1,NA,NA,NA,NA,NA,NA,NA,NA,NA,NA,NA,NA,NA,NA,NA,NA,NA,NA,NA,NA,NA,NA,NA,NA
"33","stim/objects/HouseObjects/safetypin.png",11,38,11,0.5,"stim/21.jpeg",2,1,1,NA,"HouseObjects",2,4,"right","left",0.511999846,0,0,1,1,NA,NA,NA,NA,NA,NA,NA,NA,NA,NA,NA,NA,NA,NA,NA,NA,NA,NA,NA,NA,NA,NA,NA,NA
"105","stim/objects/HouseObjects/thermometer.png",12,38,12,0.7,"stim/33.jpeg",3,3,2,NA,"HouseObjects",2,2,"right","right",0.450000048,1,1,1,1,NA,NA,NA,NA,NA,NA,NA,NA,NA,NA,NA,NA,NA,NA,NA,NA,NA,NA,NA,NA,NA,NA,NA,NA
"40","stim/objects/HouseObjects/safetypin2.png",13,38,13,0.9,"stim/51.jpeg",5,1,3,NA,"HouseObjects",2,4,"right","right",0.45600009,1,1,1,1,NA,NA,NA,NA,NA,NA,NA,NA,NA,NA,NA,NA,NA,NA,NA,NA,NA,NA,NA,NA,NA,NA,NA,NA
"106","stim/objects/HouseObjects/thermometer.png",14,38,14,0.7,"stim/33.jpeg",3,3,2,NA,"HouseObjects",2,1,"right","right",0.497000217,1,1,1,1,NA,NA,NA,NA,NA,NA,NA,NA,NA,NA,NA,NA,NA,NA,NA,NA,NA,NA,NA,NA,NA,NA,NA,NA
"89","stim/objects/HouseObjects/spraybottle.png",15,38,15,0.7,"stim/31.jpeg",3,1,2,NA,"HouseObjects",2,3,"right","right",0.532999992,1,1,1,1,NA,NA,NA,NA,NA,NA,NA,NA,NA,NA,NA,NA,NA,NA,NA,NA,NA,NA,NA,NA,NA,NA,NA,NA
"196","stim/objects/Instruments/triangle2.png",16,38,16,0.9,"stim/61.jpeg",6,1,3,NA,"Instruments",1,2,"left","left",0.483999968,1,1,1,1,NA,NA,NA,NA,NA,NA,NA,NA,NA,NA,NA,NA,NA,NA,NA,NA,NA,NA,NA,NA,NA,NA,NA,NA
"80","stim/objects/HouseObjects/sponge2.png",17,38,17,0.9,"stim/54.jpeg",5,4,3,NA,"HouseObjects",2,1,"right","right",0.486000061,1,1,1,1,NA,NA,NA,NA,NA,NA,NA,NA,NA,NA,NA,NA,NA,NA,NA,NA,NA,NA,NA,NA,NA,NA,NA,NA
"81","stim/objects/HouseObjects/sponge2.png",18,38,18,0.9,"stim/54.jpeg",5,4,3,NA,"HouseObjects",2,3,"right","right",0.598999977,1,1,1,1,NA,NA,NA,NA,NA,NA,NA,NA,NA,NA,NA,NA,NA,NA,NA,NA,NA,NA,NA,NA,NA,NA,NA,NA
"41","stim/objects/HouseObjects/safetypin2.png",19,38,19,0.9,"stim/51.jpeg",5,1,3,NA,"HouseObjects",2,4,"right","right",0.454999924,1,1,1,1,NA,NA,NA,NA,NA,NA,NA,NA,NA,NA,NA,NA,NA,NA,NA,NA,NA,NA,NA,NA,NA,NA,NA,NA
"208","stim/objects/Instruments/trombone2.png",20,38,20,0.9,"stim/62.jpeg",6,2,3,NA,"Instruments",1,1,"left","left",0.486000061,1,1,1,1,NA,NA,NA,NA,NA,NA,NA,NA,NA,NA,NA,NA,NA,NA,NA,NA,NA,NA,NA,NA,NA,NA,NA,NA
"232","stim/objects/Instruments/tuba2.png",21,38,21,0.9,"stim/64.jpeg",6,4,3,NA,"Instruments",1,2,"left","left",0.47300005,1,1,1,1,NA,NA,NA,NA,NA,NA,NA,NA,NA,NA,NA,NA,NA,NA,NA,NA,NA,NA,NA,NA,NA,NA,NA,NA
"34","stim/objects/HouseObjects/safetypin.png",22,38,22,0.5,"stim/21.jpeg",2,1,1,NA,"HouseObjects",2,3,"right","left",0.523999929,0,0,1,1,NA,NA,NA,NA,NA,NA,NA,NA,NA,NA,NA,NA,NA,NA,NA,NA,NA,NA,NA,NA,NA,NA,NA,NA
"9","stim/objects/HouseObjects/remote.png",23,38,23,0.5,"stim/12.jpeg",1,2,1,NA,"HouseObjects",2,2,"right","left",0.629999876,0,0,1,1,NA,NA,NA,NA,NA,NA,NA,NA,NA,NA,NA,NA,NA,NA,NA,NA,NA,NA,NA,NA,NA,NA,NA,NA
"66","stim/objects/HouseObjects/scale2.png",24,38,24,0.9,"stim/53.jpeg",5,3,3,NA,"HouseObjects",2,1,"right","right",0.457000017,1,1,1,1,NA,NA,NA,NA,NA,NA,NA,NA,NA,NA,NA,NA,NA,NA,NA,NA,NA,NA,NA,NA,NA,NA,NA,NA
"209","stim/objects/Instruments/trombone2.png",25,38,25,0.9,"stim/62.jpeg",6,2,3,NA,"Instruments",1,1,"left","left",0.463000059,1,1,1,1,NA,NA,NA,NA,NA,NA,NA,NA,NA,NA,NA,NA,NA,NA,NA,NA,NA,NA,NA,NA,NA,NA,NA,NA
"30","stim/objects/HouseObjects/rug2.png",26,38,26,0.3,"stim/44.jpeg",4,4,2,NA,"HouseObjects",2,1,"right","left",0.657000065,0,0,1,1,NA,NA,NA,NA,NA,NA,NA,NA,NA,NA,NA,NA,NA,NA,NA,NA,NA,NA,NA,NA,NA,NA,NA,NA
"98","stim/objects/HouseObjects/teapot.png",27,38,27,0.7,"stim/32.jpeg",3,2,2,NA,"HouseObjects",2,4,"right","right",0.551000118,1,1,1,1,NA,NA,NA,NA,NA,NA,NA,NA,NA,NA,NA,NA,NA,NA,NA,NA,NA,NA,NA,NA,NA,NA,NA,NA
"22","stim/objects/HouseObjects/rubbergloves2.png",28,38,28,0.3,"stim/43.jpeg",4,3,2,NA,"HouseObjects",2,3,"right","left",0.554000139,0,0,1,1,NA,NA,NA,NA,NA,NA,NA,NA,NA,NA,NA,NA,NA,NA,NA,NA,NA,NA,NA,NA,NA,NA,NA,NA
"10","stim/objects/HouseObjects/remote.png",29,38,29,0.5,"stim/12.jpeg",1,2,1,NA,"HouseObjects",2,2,"right","left",0.825999975,0,0,1,1,NA,NA,NA,NA,NA,NA,NA,NA,NA,NA,NA,NA,NA,NA,NA,NA,NA,NA,NA,NA,NA,NA,NA,NA
"75","stim/objects/HouseObjects/sponge.png",30,38,30,0.5,"stim/24.jpeg",2,4,1,NA,"HouseObjects",2,2,"right","left",0.576000214,0,0,1,1,NA,NA,NA,NA,NA,NA,NA,NA,NA,NA,NA,NA,NA,NA,NA,NA,NA,NA,NA,NA,NA,NA,NA,NA
"112","stim/objects/HouseObjects/thermometer2.png",31,38,31,0.1,"stim/63.jpeg",6,3,3,NA,"HouseObjects",2,4,"right","left",0.499000072,0,0,1,1,NA,NA,NA,NA,NA,NA,NA,NA,NA,NA,NA,NA,NA,NA,NA,NA,NA,NA,NA,NA,NA,NA,NA,NA
"25","stim/objects/HouseObjects/rug.png",32,38,32,0.5,"stim/14.jpeg",1,4,1,NA,"HouseObjects",2,2,"right","left",0.756999969,0,0,1,1,NA,NA,NA,NA,NA,NA,NA,NA,NA,NA,NA,NA,NA,NA,NA,NA,NA,NA,NA,NA,NA,NA,NA,NA
"17","stim/objects/HouseObjects/rubbergloves.png",33,38,33,0.5,"stim/13.jpeg",1,3,1,NA,"HouseObjects",2,3,"right","",NA,0,0,1,1,NA,NA,NA,NA,NA,NA,NA,NA,NA,NA,NA,NA,NA,NA,NA,NA,NA,NA,NA,NA,NA,NA,NA,NA
"104","stim/objects/HouseObjects/teapot2.png",34,38,34,0.1,"stim/62.jpeg",6,2,3,NA,"HouseObjects",2,1,"right","left",0.502000093,0,0,1,1,NA,NA,NA,NA,NA,NA,NA,NA,NA,NA,NA,NA,NA,NA,NA,NA,NA,NA,NA,NA,NA,NA,NA,NA
"162","stim/objects/Instruments/record2.png",35,38,35,0.7,"stim/43.jpeg",4,3,2,NA,"Instruments",1,4,"left","right",0.855999947,0,0,1,1,NA,NA,NA,NA,NA,NA,NA,NA,NA,NA,NA,NA,NA,NA,NA,NA,NA,NA,NA,NA,NA,NA,NA,NA
"128","stim/objects/Instruments/panflute2.png",36,38,36,0.7,"stim/41.jpeg",4,1,2,NA,"Instruments",1,1,"left","left",0.483999968,1,1,1,1,NA,NA,NA,NA,NA,NA,NA,NA,NA,NA,NA,NA,NA,NA,NA,NA,NA,NA,NA,NA,NA,NA,NA,NA
"52","stim/objects/HouseObjects/saw2.png",37,38,37,0.9,"stim/52.jpeg",5,2,3,NA,"HouseObjects",2,4,"right","right",0.536000013,1,1,1,1,NA,NA,NA,NA,NA,NA,NA,NA,NA,NA,NA,NA,NA,NA,NA,NA,NA,NA,NA,NA,NA,NA,NA,NA
"220","stim/objects/Instruments/trumpet2.png",38,38,38,0.9,"stim/63.jpeg",6,3,3,NA,"Instruments",1,3,"left","left",0.494999886,1,1,1,1,NA,NA,NA,NA,NA,NA,NA,NA,NA,NA,NA,NA,NA,NA,NA,NA,NA,NA,NA,NA,NA,NA,NA,NA
"53","stim/objects/HouseObjects/saw2.png",39,38,39,0.9,"stim/52.jpeg",5,2,3,NA,"HouseObjects",2,4,"right","right",0.486000061,1,1,1,1,NA,NA,NA,NA,NA,NA,NA,NA,NA,NA,NA,NA,NA,NA,NA,NA,NA,NA,NA,NA,NA,NA,NA,NA
"150","stim/objects/Instruments/record_player2.png",40,38,40,0.7,"stim/44.jpeg",4,4,2,NA,"Instruments",1,2,"left","left",0.493999958,1,1,1,1,NA,NA,NA,NA,NA,NA,NA,NA,NA,NA,NA,NA,NA,NA,NA,NA,NA,NA,NA,NA,NA,NA,NA,NA
"188","stim/objects/Instruments/timbal.png",41,38,41,0.5,"stim/24.jpeg",2,4,1,NA,"Instruments",1,4,"left","left",0.730999947,1,1,1,1,NA,NA,NA,NA,NA,NA,NA,NA,NA,NA,NA,NA,NA,NA,NA,NA,NA,NA,NA,NA,NA,NA,NA,NA
"129","stim/objects/Instruments/panflute2.png",42,38,42,0.7,"stim/41.jpeg",4,1,2,NA,"Instruments",1,2,"left","left",0.542000055,1,1,1,1,NA,NA,NA,NA,NA,NA,NA,NA,NA,NA,NA,NA,NA,NA,NA,NA,NA,NA,NA,NA,NA,NA,NA,NA
"197","stim/objects/Instruments/triangle2.png",43,38,43,0.9,"stim/61.jpeg",6,1,3,NA,"Instruments",1,2,"left","left",0.436000109,1,1,1,1,NA,NA,NA,NA,NA,NA,NA,NA,NA,NA,NA,NA,NA,NA,NA,NA,NA,NA,NA,NA,NA,NA,NA,NA
"67","stim/objects/HouseObjects/scale2.png",44,38,44,0.9,"stim/53.jpeg",5,3,3,NA,"HouseObjects",2,2,"right","right",0.411999941,1,1,1,1,NA,NA,NA,NA,NA,NA,NA,NA,NA,NA,NA,NA,NA,NA,NA,NA,NA,NA,NA,NA,NA,NA,NA,NA
"229","stim/objects/Instruments/tuba.png",45,38,45,0.3,"stim/34.jpeg",3,4,2,NA,"Instruments",1,3,"left","right",0.578999996,0,0,1,1,NA,NA,NA,NA,NA,NA,NA,NA,NA,NA,NA,NA,NA,NA,NA,NA,NA,NA,NA,NA,NA,NA,NA,NA
"138","stim/objects/Instruments/pipepiano2.png",46,38,46,0.7,"stim/42.jpeg",4,2,2,NA,"Instruments",1,1,"left","left",0.383000135,1,1,1,1,NA,NA,NA,NA,NA,NA,NA,NA,NA,NA,NA,NA,NA,NA,NA,NA,NA,NA,NA,NA,NA,NA,NA,NA
"233","stim/objects/Instruments/tuba2.png",47,38,47,0.9,"stim/64.jpeg",6,4,3,NA,"Instruments",1,3,"left","left",0.470999956,1,1,1,1,NA,NA,NA,NA,NA,NA,NA,NA,NA,NA,NA,NA,NA,NA,NA,NA,NA,NA,NA,NA,NA,NA,NA,NA
"82","stim/objects/HouseObjects/sponge2.png",48,38,48,0.9,"stim/54.jpeg",5,4,3,NA,"HouseObjects",2,2,"right","right",0.463000059,1,1,1,1,NA,NA,NA,NA,NA,NA,NA,NA,NA,NA,NA,NA,NA,NA,NA,NA,NA,NA,NA,NA,NA,NA,NA,NA
"83","stim/objects/HouseObjects/sponge2.png",49,38,49,0.9,"stim/54.jpeg",5,4,3,NA,"HouseObjects",2,4,"right","right",0.440000057,1,1,1,1,NA,NA,NA,NA,NA,NA,NA,NA,NA,NA,NA,NA,NA,NA,NA,NA,NA,NA,NA,NA,NA,NA,NA,NA
"18","stim/objects/HouseObjects/rubbergloves.png",50,38,50,0.5,"stim/13.jpeg",1,3,1,NA,"HouseObjects",2,3,"right","left",0.580999851,0,0,1,1,NA,NA,NA,NA,NA,NA,NA,NA,NA,NA,NA,NA,NA,NA,NA,NA,NA,NA,NA,NA,NA,NA,NA,NA
"26","stim/objects/HouseObjects/rug.png",51,38,51,0.5,"stim/14.jpeg",1,4,1,NA,"HouseObjects",2,4,"right","right",0.530999899,1,1,1,1,NA,NA,NA,NA,NA,NA,NA,NA,NA,NA,NA,NA,NA,NA,NA,NA,NA,NA,NA,NA,NA,NA,NA,NA
"113","stim/objects/HouseObjects/thread.png",52,38,52,0.7,"stim/34.jpeg",3,4,2,NA,"HouseObjects",2,2,"right","right",0.541000128,1,1,1,1,NA,NA,NA,NA,NA,NA,NA,NA,NA,NA,NA,NA,NA,NA,NA,NA,NA,NA,NA,NA,NA,NA,NA,NA
"90","stim/objects/HouseObjects/spraybottle.png",53,38,53,0.7,"stim/31.jpeg",3,1,2,NA,"HouseObjects",2,3,"right","right",0.6650002,1,1,1,1,NA,NA,NA,NA,NA,NA,NA,NA,NA,NA,NA,NA,NA,NA,NA,NA,NA,NA,NA,NA,NA,NA,NA,NA
"114","stim/objects/HouseObjects/thread.png",54,38,54,0.7,"stim/34.jpeg",3,4,2,NA,"HouseObjects",2,4,"right","right",0.630999804,1,1,1,1,NA,NA,NA,NA,NA,NA,NA,NA,NA,NA,NA,NA,NA,NA,NA,NA,NA,NA,NA,NA,NA,NA,NA,NA
"198","stim/objects/Instruments/triangle2.png",55,38,55,0.9,"stim/61.jpeg",6,1,3,NA,"Instruments",1,2,"left","left",0.502000093,1,1,1,1,NA,NA,NA,NA,NA,NA,NA,NA,NA,NA,NA,NA,NA,NA,NA,NA,NA,NA,NA,NA,NA,NA,NA,NA
"3","stim/objects/HouseObjects/recyclingbin.png",56,38,56,0.5,"stim/11.jpeg",1,1,1,NA,"HouseObjects",2,2,"right","left",0.710000038,0,0,1,1,NA,NA,NA,NA,NA,NA,NA,NA,NA,NA,NA,NA,NA,NA,NA,NA,NA,NA,NA,NA,NA,NA,NA,NA
"210","stim/objects/Instruments/trombone2.png",57,38,57,0.9,"stim/62.jpeg",6,2,3,NA,"Instruments",1,4,"left","left",0.486000061,1,1,1,1,NA,NA,NA,NA,NA,NA,NA,NA,NA,NA,NA,NA,NA,NA,NA,NA,NA,NA,NA,NA,NA,NA,NA,NA
"157","stim/objects/Instruments/record.png",58,38,58,0.5,"stim/13.jpeg",1,3,1,NA,"Instruments",1,1,"left","right",0.529000044,0,0,1,1,NA,NA,NA,NA,NA,NA,NA,NA,NA,NA,NA,NA,NA,NA,NA,NA,NA,NA,NA,NA,NA,NA,NA,NA
"23","stim/objects/HouseObjects/rubbergloves2.png",59,38,59,0.3,"stim/43.jpeg",4,3,2,NA,"HouseObjects",2,4,"right","left",0.602999926,0,0,1,1,NA,NA,NA,NA,NA,NA,NA,NA,NA,NA,NA,NA,NA,NA,NA,NA,NA,NA,NA,NA,NA,NA,NA,NA
"61","stim/objects/HouseObjects/scale.png",60,38,60,0.5,"stim/23.jpeg",2,3,1,NA,"HouseObjects",2,2,"right","left",0.5,0,0,1,1,NA,NA,NA,NA,NA,NA,NA,NA,NA,NA,NA,NA,NA,NA,NA,NA,NA,NA,NA,NA,NA,NA,NA,NA
"91","stim/objects/HouseObjects/spraybottle.png",61,38,61,0.7,"stim/31.jpeg",3,1,2,NA,"HouseObjects",2,2,"right","right",0.628999949,1,1,1,1,NA,NA,NA,NA,NA,NA,NA,NA,NA,NA,NA,NA,NA,NA,NA,NA,NA,NA,NA,NA,NA,NA,NA,NA
"205","stim/objects/Instruments/trombone.png",62,38,62,0.3,"stim/32.jpeg",3,2,2,NA,"Instruments",1,2,"left","right",0.47300005,0,0,1,1,NA,NA,NA,NA,NA,NA,NA,NA,NA,NA,NA,NA,NA,NA,NA,NA,NA,NA,NA,NA,NA,NA,NA,NA
"189","stim/objects/Instruments/timbal.png",63,38,63,0.5,"stim/24.jpeg",2,4,1,NA,"Instruments",1,3,"left","right",0.644000053,0,0,1,1,NA,NA,NA,NA,NA,NA,NA,NA,NA,NA,NA,NA,NA,NA,NA,NA,NA,NA,NA,NA,NA,NA,NA,NA
"169","stim/objects/Instruments/saxophone.png",64,38,64,0.5,"stim/21.jpeg",2,1,1,NA,"Instruments",1,3,"left","right",0.555999994,0,0,1,1,NA,NA,NA,NA,NA,NA,NA,NA,NA,NA,NA,NA,NA,NA,NA,NA,NA,NA,NA,NA,NA,NA,NA,NA
"186","stim/objects/Instruments/tambourine2.png",65,38,65,0.1,"stim/53.jpeg",5,3,3,NA,"Instruments",1,4,"left","right",0.552000046,0,0,1,1,NA,NA,NA,NA,NA,NA,NA,NA,NA,NA,NA,NA,NA,NA,NA,NA,NA,NA,NA,NA,NA,NA,NA,NA
"27","stim/objects/HouseObjects/rug.png",66,38,66,0.5,"stim/14.jpeg",1,4,1,NA,"HouseObjects",2,3,"right","",NA,0,0,1,1,NA,NA,NA,NA,NA,NA,NA,NA,NA,NA,NA,NA,NA,NA,NA,NA,NA,NA,NA,NA,NA,NA,NA,NA
"121","stim/objects/Instruments/panflute.png",67,38,67,0.5,"stim/11.jpeg",1,1,1,NA,"Instruments",1,4,"left","right",0.559000015,0,0,1,1,NA,NA,NA,NA,NA,NA,NA,NA,NA,NA,NA,NA,NA,NA,NA,NA,NA,NA,NA,NA,NA,NA,NA,NA
"62","stim/objects/HouseObjects/scale.png",68,38,68,0.5,"stim/23.jpeg",2,3,1,NA,"HouseObjects",2,3,"right","left",0.548000097,0,0,1,1,NA,NA,NA,NA,NA,NA,NA,NA,NA,NA,NA,NA,NA,NA,NA,NA,NA,NA,NA,NA,NA,NA,NA,NA
"163","stim/objects/Instruments/record2.png",69,38,69,0.7,"stim/43.jpeg",4,3,2,NA,"Instruments",1,1,"left","right",0.562999964,0,0,1,1,NA,NA,NA,NA,NA,NA,NA,NA,NA,NA,NA,NA,NA,NA,NA,NA,NA,NA,NA,NA,NA,NA,NA,NA
"217","stim/objects/Instruments/trumpet.png",70,38,70,0.3,"stim/33.jpeg",3,3,2,NA,"Instruments",1,4,"left","right",0.510999918,0,0,1,1,NA,NA,NA,NA,NA,NA,NA,NA,NA,NA,NA,NA,NA,NA,NA,NA,NA,NA,NA,NA,NA,NA,NA,NA
"182","stim/objects/Instruments/tambourine.png",71,38,71,0.5,"stim/23.jpeg",2,3,1,NA,"Instruments",1,3,"left","right",0.583999872,0,0,1,1,NA,NA,NA,NA,NA,NA,NA,NA,NA,NA,NA,NA,NA,NA,NA,NA,NA,NA,NA,NA,NA,NA,NA,NA
"164","stim/objects/Instruments/record2.png",72,38,72,0.7,"stim/43.jpeg",4,3,2,NA,"Instruments",1,3,"left","right",0.700999975,0,0,1,1,NA,NA,NA,NA,NA,NA,NA,NA,NA,NA,NA,NA,NA,NA,NA,NA,NA,NA,NA,NA,NA,NA,NA,NA
"174","stim/objects/Instruments/saxophone2.png",73,38,73,0.1,"stim/51.jpeg",5,1,3,NA,"Instruments",1,4,"left","right",0.534999847,0,0,1,1,NA,NA,NA,NA,NA,NA,NA,NA,NA,NA,NA,NA,NA,NA,NA,NA,NA,NA,NA,NA,NA,NA,NA,NA
"11","stim/objects/HouseObjects/remote.png",74,38,74,0.5,"stim/12.jpeg",1,2,1,NA,"HouseObjects",2,2,"right","right",0.531999826,1,1,1,1,NA,NA,NA,NA,NA,NA,NA,NA,NA,NA,NA,NA,NA,NA,NA,NA,NA,NA,NA,NA,NA,NA,NA,NA
"130","stim/objects/Instruments/panflute2.png",75,38,75,0.7,"stim/41.jpeg",4,1,2,NA,"Instruments",1,1,"left","left",0.555999994,1,1,1,1,NA,NA,NA,NA,NA,NA,NA,NA,NA,NA,NA,NA,NA,NA,NA,NA,NA,NA,NA,NA,NA,NA,NA,NA
"24","stim/objects/HouseObjects/rubbergloves2.png",76,38,76,0.3,"stim/43.jpeg",4,3,2,NA,"HouseObjects",2,4,"right","left",0.601000071,0,0,1,1,NA,NA,NA,NA,NA,NA,NA,NA,NA,NA,NA,NA,NA,NA,NA,NA,NA,NA,NA,NA,NA,NA,NA,NA
"63","stim/objects/HouseObjects/scale.png",77,38,77,0.5,"stim/23.jpeg",2,3,1,NA,"HouseObjects",2,4,"right","right",0.569000006,1,1,1,1,NA,NA,NA,NA,NA,NA,NA,NA,NA,NA,NA,NA,NA,NA,NA,NA,NA,NA,NA,NA,NA,NA,NA,NA
"211","stim/objects/Instruments/trombone2.png",78,38,78,0.9,"stim/62.jpeg",6,2,3,NA,"Instruments",1,1,"left","left",0.490999937,1,1,1,1,NA,NA,NA,NA,NA,NA,NA,NA,NA,NA,NA,NA,NA,NA,NA,NA,NA,NA,NA,NA,NA,NA,NA,NA
"54","stim/objects/HouseObjects/saw2.png",79,38,79,0.9,"stim/52.jpeg",5,2,3,NA,"HouseObjects",2,3,"right","right",0.437000036,1,1,1,1,NA,NA,NA,NA,NA,NA,NA,NA,NA,NA,NA,NA,NA,NA,NA,NA,NA,NA,NA,NA,NA,NA,NA,NA
"234","stim/objects/Instruments/tuba2.png",80,38,80,0.9,"stim/64.jpeg",6,4,3,NA,"Instruments",1,3,"left","left",0.452000141,1,1,1,1,NA,NA,NA,NA,NA,NA,NA,NA,NA,NA,NA,NA,NA,NA,NA,NA,NA,NA,NA,NA,NA,NA,NA,NA
"28","stim/objects/HouseObjects/rug.png",81,38,81,0.5,"stim/14.jpeg",1,4,1,NA,"HouseObjects",2,1,"right","right",0.618999958,1,1,1,1,NA,NA,NA,NA,NA,NA,NA,NA,NA,NA,NA,NA,NA,NA,NA,NA,NA,NA,NA,NA,NA,NA,NA,NA
"230","stim/objects/Instruments/tuba.png",82,38,82,0.3,"stim/34.jpeg",3,4,2,NA,"Instruments",1,2,"left","right",0.517000198,0,0,1,1,NA,NA,NA,NA,NA,NA,NA,NA,NA,NA,NA,NA,NA,NA,NA,NA,NA,NA,NA,NA,NA,NA,NA,NA
"31","stim/objects/HouseObjects/rug2.png",83,38,83,0.3,"stim/44.jpeg",4,4,2,NA,"HouseObjects",2,2,"right","left",0.548000097,0,0,1,1,NA,NA,NA,NA,NA,NA,NA,NA,NA,NA,NA,NA,NA,NA,NA,NA,NA,NA,NA,NA,NA,NA,NA,NA
"99","stim/objects/HouseObjects/teapot.png",84,38,84,0.7,"stim/32.jpeg",3,2,2,NA,"HouseObjects",2,1,"right","right",0.45600009,1,1,1,1,NA,NA,NA,NA,NA,NA,NA,NA,NA,NA,NA,NA,NA,NA,NA,NA,NA,NA,NA,NA,NA,NA,NA,NA
"115","stim/objects/HouseObjects/thread.png",85,38,85,0.7,"stim/34.jpeg",3,4,2,NA,"HouseObjects",2,4,"right","right",0.620000124,1,1,1,1,NA,NA,NA,NA,NA,NA,NA,NA,NA,NA,NA,NA,NA,NA,NA,NA,NA,NA,NA,NA,NA,NA,NA,NA
"151","stim/objects/Instruments/record_player2.png",86,38,86,0.7,"stim/44.jpeg",4,4,2,NA,"Instruments",1,1,"left","left",0.878000021,1,1,1,1,NA,NA,NA,NA,NA,NA,NA,NA,NA,NA,NA,NA,NA,NA,NA,NA,NA,NA,NA,NA,NA,NA,NA,NA
"122","stim/objects/Instruments/panflute.png",87,38,87,0.5,"stim/11.jpeg",1,1,1,NA,"Instruments",1,1,"left","right",0.432999849,0,0,1,1,NA,NA,NA,NA,NA,NA,NA,NA,NA,NA,NA,NA,NA,NA,NA,NA,NA,NA,NA,NA,NA,NA,NA,NA
"47","stim/objects/HouseObjects/saw.png",88,38,88,0.5,"stim/22.jpeg",2,2,1,NA,"HouseObjects",2,2,"right","left",0.760999918,0,0,1,1,NA,NA,NA,NA,NA,NA,NA,NA,NA,NA,NA,NA,NA,NA,NA,NA,NA,NA,NA,NA,NA,NA,NA,NA
"199","stim/objects/Instruments/triangle2.png",89,38,89,0.9,"stim/61.jpeg",6,1,3,NA,"Instruments",1,3,"left","left",0.496999979,1,1,1,1,NA,NA,NA,NA,NA,NA,NA,NA,NA,NA,NA,NA,NA,NA,NA,NA,NA,NA,NA,NA,NA,NA,NA,NA
"35","stim/objects/HouseObjects/safetypin.png",90,38,90,0.5,"stim/21.jpeg",2,1,1,NA,"HouseObjects",2,3,"right","right",0.557999849,1,1,1,1,NA,NA,NA,NA,NA,NA,NA,NA,NA,NA,NA,NA,NA,NA,NA,NA,NA,NA,NA,NA,NA,NA,NA,NA
"231","stim/objects/Instruments/tuba.png",91,38,91,0.3,"stim/34.jpeg",3,4,2,NA,"Instruments",1,3,"left","right",0.63499999,0,0,1,1,NA,NA,NA,NA,NA,NA,NA,NA,NA,NA,NA,NA,NA,NA,NA,NA,NA,NA,NA,NA,NA,NA,NA,NA
"92","stim/objects/HouseObjects/spraybottle.png",92,38,92,0.7,"stim/31.jpeg",3,1,2,NA,"HouseObjects",2,4,"right","right",0.368000031,1,1,1,1,NA,NA,NA,NA,NA,NA,NA,NA,NA,NA,NA,NA,NA,NA,NA,NA,NA,NA,NA,NA,NA,NA,NA,NA
"93","stim/objects/HouseObjects/spraybottle.png",93,38,93,0.7,"stim/31.jpeg",3,1,2,NA,"HouseObjects",2,1,"right","right",0.617000103,1,1,1,1,NA,NA,NA,NA,NA,NA,NA,NA,NA,NA,NA,NA,NA,NA,NA,NA,NA,NA,NA,NA,NA,NA,NA,NA
"200","stim/objects/Instruments/triangle2.png",94,38,94,0.9,"stim/61.jpeg",6,1,3,NA,"Instruments",1,4,"left","left",0.51699996,1,1,1,1,NA,NA,NA,NA,NA,NA,NA,NA,NA,NA,NA,NA,NA,NA,NA,NA,NA,NA,NA,NA,NA,NA,NA,NA
"55","stim/objects/HouseObjects/saw2.png",95,38,95,0.9,"stim/52.jpeg",5,2,3,NA,"HouseObjects",2,2,"right","right",0.483999968,1,1,1,1,NA,NA,NA,NA,NA,NA,NA,NA,NA,NA,NA,NA,NA,NA,NA,NA,NA,NA,NA,NA,NA,NA,NA,NA
"84","stim/objects/HouseObjects/sponge2.png",96,38,96,0.9,"stim/54.jpeg",5,4,3,NA,"HouseObjects",2,2,"right","right",0.404000044,1,1,1,1,NA,NA,NA,NA,NA,NA,NA,NA,NA,NA,NA,NA,NA,NA,NA,NA,NA,NA,NA,NA,NA,NA,NA,NA
"85","stim/objects/HouseObjects/sponge2.png",97,38,97,0.9,"stim/54.jpeg",5,4,3,NA,"HouseObjects",2,4,"right","right",0.641000032,1,1,1,1,NA,NA,NA,NA,NA,NA,NA,NA,NA,NA,NA,NA,NA,NA,NA,NA,NA,NA,NA,NA,NA,NA,NA,NA
"76","stim/objects/HouseObjects/sponge.png",98,38,98,0.5,"stim/24.jpeg",2,4,1,NA,"HouseObjects",2,2,"right","",NA,0,0,1,1,NA,NA,NA,NA,NA,NA,NA,NA,NA,NA,NA,NA,NA,NA,NA,NA,NA,NA,NA,NA,NA,NA,NA,NA
"68","stim/objects/HouseObjects/scale2.png",99,38,99,0.9,"stim/53.jpeg",5,3,3,NA,"HouseObjects",2,3,"right","right",0.480000019,1,1,1,1,NA,NA,NA,NA,NA,NA,NA,NA,NA,NA,NA,NA,NA,NA,NA,NA,NA,NA,NA,NA,NA,NA,NA,NA
"56","stim/objects/HouseObjects/saw2.png",100,38,100,0.9,"stim/52.jpeg",5,2,3,NA,"HouseObjects",2,3,"right","right",0.361000061,1,1,1,1,NA,NA,NA,NA,NA,NA,NA,NA,NA,NA,NA,NA,NA,NA,NA,NA,NA,NA,NA,NA,NA,NA,NA,NA
"206","stim/objects/Instruments/trombone.png",101,38,101,0.3,"stim/32.jpeg",3,2,2,NA,"Instruments",1,3,"left","right",0.562000036,0,0,1,1,NA,NA,NA,NA,NA,NA,NA,NA,NA,NA,NA,NA,NA,NA,NA,NA,NA,NA,NA,NA,NA,NA,NA,NA
"15","stim/objects/HouseObjects/remote2.png",102,38,102,0.3,"stim/42.jpeg",4,2,2,NA,"HouseObjects",2,3,"right","left",0.521000147,0,0,1,1,NA,NA,NA,NA,NA,NA,NA,NA,NA,NA,NA,NA,NA,NA,NA,NA,NA,NA,NA,NA,NA,NA,NA,NA
"165","stim/objects/Instruments/record2.png",103,38,103,0.7,"stim/43.jpeg",4,3,2,NA,"Instruments",1,1,"left","left",0.388000011,1,1,1,1,NA,NA,NA,NA,NA,NA,NA,NA,NA,NA,NA,NA,NA,NA,NA,NA,NA,NA,NA,NA,NA,NA,NA,NA
"69","stim/objects/HouseObjects/scale2.png",104,38,104,0.9,"stim/53.jpeg",5,3,3,NA,"HouseObjects",2,2,"right","right",0.430000067,1,1,1,1,NA,NA,NA,NA,NA,NA,NA,NA,NA,NA,NA,NA,NA,NA,NA,NA,NA,NA,NA,NA,NA,NA,NA,NA
"175","stim/objects/Instruments/speaker.png",105,38,105,0.5,"stim/22.jpeg",2,2,1,NA,"Instruments",1,3,"left","left",0.552000046,1,1,1,1,NA,NA,NA,NA,NA,NA,NA,NA,NA,NA,NA,NA,NA,NA,NA,NA,NA,NA,NA,NA,NA,NA,NA,NA
"6","stim/objects/HouseObjects/recyclingbin2.png",106,38,106,0.3,"stim/41.jpeg",4,1,2,NA,"HouseObjects",2,3,"right","left",0.582000017,0,0,1,1,NA,NA,NA,NA,NA,NA,NA,NA,NA,NA,NA,NA,NA,NA,NA,NA,NA,NA,NA,NA,NA,NA,NA,NA
"145","stim/objects/Instruments/record_player.png",107,38,107,0.5,"stim/14.jpeg",1,4,1,NA,"Instruments",1,3,"left","right",0.625,0,0,1,1,NA,NA,NA,NA,NA,NA,NA,NA,NA,NA,NA,NA,NA,NA,NA,NA,NA,NA,NA,NA,NA,NA,NA,NA
"48","stim/objects/HouseObjects/saw.png",108,38,108,0.5,"stim/22.jpeg",2,2,1,NA,"HouseObjects",2,1,"right","left",0.562000036,0,0,1,1,NA,NA,NA,NA,NA,NA,NA,NA,NA,NA,NA,NA,NA,NA,NA,NA,NA,NA,NA,NA,NA,NA,NA,NA
"166","stim/objects/Instruments/record2.png",109,38,109,0.7,"stim/43.jpeg",4,3,2,NA,"Instruments",1,1,"left","left",0.786000013,1,1,1,1,NA,NA,NA,NA,NA,NA,NA,NA,NA,NA,NA,NA,NA,NA,NA,NA,NA,NA,NA,NA,NA,NA,NA,NA
"57","stim/objects/HouseObjects/saw2.png",110,38,110,0.9,"stim/52.jpeg",5,2,3,NA,"HouseObjects",2,1,"right","right",0.49000001,1,1,1,1,NA,NA,NA,NA,NA,NA,NA,NA,NA,NA,NA,NA,NA,NA,NA,NA,NA,NA,NA,NA,NA,NA,NA,NA
"133","stim/objects/Instruments/pipepiano.png",111,38,111,0.5,"stim/12.jpeg",1,2,1,NA,"Instruments",1,2,"left","left",0.820000172,1,1,1,1,NA,NA,NA,NA,NA,NA,NA,NA,NA,NA,NA,NA,NA,NA,NA,NA,NA,NA,NA,NA,NA,NA,NA,NA
"146","stim/objects/Instruments/record_player.png",112,38,112,0.5,"stim/14.jpeg",1,4,1,NA,"Instruments",1,4,"left","left",0.860999823,1,1,1,1,NA,NA,NA,NA,NA,NA,NA,NA,NA,NA,NA,NA,NA,NA,NA,NA,NA,NA,NA,NA,NA,NA,NA,NA
"77","stim/objects/HouseObjects/sponge.png",113,38,113,0.5,"stim/24.jpeg",2,4,1,NA,"HouseObjects",2,1,"right","right",0.707000017,1,1,1,1,NA,NA,NA,NA,NA,NA,NA,NA,NA,NA,NA,NA,NA,NA,NA,NA,NA,NA,NA,NA,NA,NA,NA,NA
"152","stim/objects/Instruments/record_player2.png",114,38,114,0.7,"stim/44.jpeg",4,4,2,NA,"Instruments",1,1,"left","left",0.700999975,1,1,1,1,NA,NA,NA,NA,NA,NA,NA,NA,NA,NA,NA,NA,NA,NA,NA,NA,NA,NA,NA,NA,NA,NA,NA,NA
"207","stim/objects/Instruments/trombone.png",115,38,115,0.3,"stim/32.jpeg",3,2,2,NA,"Instruments",1,2,"left","right",0.480000019,0,0,1,1,NA,NA,NA,NA,NA,NA,NA,NA,NA,NA,NA,NA,NA,NA,NA,NA,NA,NA,NA,NA,NA,NA,NA,NA
"42","stim/objects/HouseObjects/safetypin2.png",116,38,116,0.9,"stim/51.jpeg",5,1,3,NA,"HouseObjects",2,2,"right","right",0.486999989,1,1,1,1,NA,NA,NA,NA,NA,NA,NA,NA,NA,NA,NA,NA,NA,NA,NA,NA,NA,NA,NA,NA,NA,NA,NA,NA
"43","stim/objects/HouseObjects/safetypin2.png",117,38,117,0.9,"stim/51.jpeg",5,1,3,NA,"HouseObjects",2,3,"right","right",0.40899992,1,1,1,1,NA,NA,NA,NA,NA,NA,NA,NA,NA,NA,NA,NA,NA,NA,NA,NA,NA,NA,NA,NA,NA,NA,NA,NA
"170","stim/objects/Instruments/saxophone.png",118,38,118,0.5,"stim/21.jpeg",2,1,1,NA,"Instruments",1,4,"left","left",0.522000074,1,1,1,1,NA,NA,NA,NA,NA,NA,NA,NA,NA,NA,NA,NA,NA,NA,NA,NA,NA,NA,NA,NA,NA,NA,NA,NA
"100","stim/objects/HouseObjects/teapot.png",119,38,119,0.7,"stim/32.jpeg",3,2,2,NA,"HouseObjects",2,3,"right","right",0.481999874,1,1,1,1,NA,NA,NA,NA,NA,NA,NA,NA,NA,NA,NA,NA,NA,NA,NA,NA,NA,NA,NA,NA,NA,NA,NA,NA
"153","stim/objects/Instruments/record_player2.png",120,38,120,0.7,"stim/44.jpeg",4,4,2,NA,"Instruments",1,3,"left","right",0.555000067,0,0,1,1,NA,NA,NA,NA,NA,NA,NA,NA,NA,NA,NA,NA,NA,NA,NA,NA,NA,NA,NA,NA,NA,NA,NA,NA
"44","stim/objects/HouseObjects/safetypin2.png",121,38,121,0.9,"stim/51.jpeg",5,1,3,NA,"HouseObjects",2,3,"right","right",0.468000174,1,1,1,1,NA,NA,NA,NA,NA,NA,NA,NA,NA,NA,NA,NA,NA,NA,NA,NA,NA,NA,NA,NA,NA,NA,NA,NA
"36","stim/objects/HouseObjects/safetypin.png",122,38,122,0.5,"stim/21.jpeg",2,1,1,NA,"HouseObjects",2,3,"right","left",0.494000196,0,0,1,1,NA,NA,NA,NA,NA,NA,NA,NA,NA,NA,NA,NA,NA,NA,NA,NA,NA,NA,NA,NA,NA,NA,NA,NA
"190","stim/objects/Instruments/timbal.png",123,38,123,0.5,"stim/24.jpeg",2,4,1,NA,"Instruments",1,1,"left","left",0.536999941,1,1,1,1,NA,NA,NA,NA,NA,NA,NA,NA,NA,NA,NA,NA,NA,NA,NA,NA,NA,NA,NA,NA,NA,NA,NA,NA
"176","stim/objects/Instruments/speaker.png",124,38,124,0.5,"stim/22.jpeg",2,2,1,NA,"Instruments",1,4,"left","right",0.649999857,0,0,1,1,NA,NA,NA,NA,NA,NA,NA,NA,NA,NA,NA,NA,NA,NA,NA,NA,NA,NA,NA,NA,NA,NA,NA,NA
"167","stim/objects/Instruments/record2.png",125,38,125,0.7,"stim/43.jpeg",4,3,2,NA,"Instruments",1,2,"left","left",0.559999943,1,1,1,1,NA,NA,NA,NA,NA,NA,NA,NA,NA,NA,NA,NA,NA,NA,NA,NA,NA,NA,NA,NA,NA,NA,NA,NA
"139","stim/objects/Instruments/pipepiano2.png",126,38,126,0.7,"stim/42.jpeg",4,2,2,NA,"Instruments",1,4,"left","left",0.510999918,1,1,1,1,NA,NA,NA,NA,NA,NA,NA,NA,NA,NA,NA,NA,NA,NA,NA,NA,NA,NA,NA,NA,NA,NA,NA,NA
"235","stim/objects/Instruments/tuba2.png",127,38,127,0.9,"stim/64.jpeg",6,4,3,NA,"Instruments",1,1,"left","left",0.488999844,1,1,1,1,NA,NA,NA,NA,NA,NA,NA,NA,NA,NA,NA,NA,NA,NA,NA,NA,NA,NA,NA,NA,NA,NA,NA,NA
"236","stim/objects/Instruments/tuba2.png",128,38,128,0.9,"stim/64.jpeg",6,4,3,NA,"Instruments",1,2,"left","left",0.43200016,1,1,1,1,NA,NA,NA,NA,NA,NA,NA,NA,NA,NA,NA,NA,NA,NA,NA,NA,NA,NA,NA,NA,NA,NA,NA,NA
"180","stim/objects/Instruments/speaker2.png",129,38,129,0.1,"stim/52.jpeg",5,2,3,NA,"Instruments",1,3,"left","right",0.795000076,0,0,1,1,NA,NA,NA,NA,NA,NA,NA,NA,NA,NA,NA,NA,NA,NA,NA,NA,NA,NA,NA,NA,NA,NA,NA,NA
"32","stim/objects/HouseObjects/rug2.png",130,38,130,0.3,"stim/44.jpeg",4,4,2,NA,"HouseObjects",2,4,"right","right",0.872999907,1,1,1,1,NA,NA,NA,NA,NA,NA,NA,NA,NA,NA,NA,NA,NA,NA,NA,NA,NA,NA,NA,NA,NA,NA,NA,NA
"212","stim/objects/Instruments/trombone2.png",131,38,131,0.9,"stim/62.jpeg",6,2,3,NA,"Instruments",1,4,"left","left",0.505000114,1,1,1,1,NA,NA,NA,NA,NA,NA,NA,NA,NA,NA,NA,NA,NA,NA,NA,NA,NA,NA,NA,NA,NA,NA,NA,NA
"221","stim/objects/Instruments/trumpet2.png",132,38,132,0.9,"stim/63.jpeg",6,3,3,NA,"Instruments",1,1,"left","left",0.50999999,1,1,1,1,NA,NA,NA,NA,NA,NA,NA,NA,NA,NA,NA,NA,NA,NA,NA,NA,NA,NA,NA,NA,NA,NA,NA,NA
"86","stim/objects/HouseObjects/sponge2.png",133,38,133,0.9,"stim/54.jpeg",5,4,3,NA,"HouseObjects",2,1,"right","right",0.538000107,1,1,1,1,NA,NA,NA,NA,NA,NA,NA,NA,NA,NA,NA,NA,NA,NA,NA,NA,NA,NA,NA,NA,NA,NA,NA,NA
"154","stim/objects/Instruments/record_player2.png",134,38,134,0.7,"stim/44.jpeg",4,4,2,NA,"Instruments",1,4,"left","left",0.642999887,1,1,1,1,NA,NA,NA,NA,NA,NA,NA,NA,NA,NA,NA,NA,NA,NA,NA,NA,NA,NA,NA,NA,NA,NA,NA,NA
"218","stim/objects/Instruments/trumpet.png",135,38,135,0.3,"stim/33.jpeg",3,3,2,NA,"Instruments",1,1,"left","right",0.570000172,0,0,1,1,NA,NA,NA,NA,NA,NA,NA,NA,NA,NA,NA,NA,NA,NA,NA,NA,NA,NA,NA,NA,NA,NA,NA,NA
"58","stim/objects/HouseObjects/saw2.png",136,38,136,0.9,"stim/52.jpeg",5,2,3,NA,"HouseObjects",2,2,"right","right",0.490999937,1,1,1,1,NA,NA,NA,NA,NA,NA,NA,NA,NA,NA,NA,NA,NA,NA,NA,NA,NA,NA,NA,NA,NA,NA,NA,NA
"201","stim/objects/Instruments/triangle2.png",137,38,137,0.9,"stim/61.jpeg",6,1,3,NA,"Instruments",1,4,"left","left",0.49000001,1,1,1,1,NA,NA,NA,NA,NA,NA,NA,NA,NA,NA,NA,NA,NA,NA,NA,NA,NA,NA,NA,NA,NA,NA,NA,NA
"116","stim/objects/HouseObjects/thread.png",138,38,138,0.7,"stim/34.jpeg",3,4,2,NA,"HouseObjects",2,2,"right","right",0.46600008,1,1,1,1,NA,NA,NA,NA,NA,NA,NA,NA,NA,NA,NA,NA,NA,NA,NA,NA,NA,NA,NA,NA,NA,NA,NA,NA
"7","stim/objects/HouseObjects/recyclingbin2.png",139,38,139,0.3,"stim/41.jpeg",4,1,2,NA,"HouseObjects",2,4,"right","left",0.536999941,0,0,1,1,NA,NA,NA,NA,NA,NA,NA,NA,NA,NA,NA,NA,NA,NA,NA,NA,NA,NA,NA,NA,NA,NA,NA,NA
"87","stim/objects/HouseObjects/sponge2.png",140,38,140,0.9,"stim/54.jpeg",5,4,3,NA,"HouseObjects",2,3,"right","right",0.519999981,1,1,1,1,NA,NA,NA,NA,NA,NA,NA,NA,NA,NA,NA,NA,NA,NA,NA,NA,NA,NA,NA,NA,NA,NA,NA,NA
"107","stim/objects/HouseObjects/thermometer.png",141,38,141,0.7,"stim/33.jpeg",3,3,2,NA,"HouseObjects",2,1,"right","right",0.537000179,1,1,1,1,NA,NA,NA,NA,NA,NA,NA,NA,NA,NA,NA,NA,NA,NA,NA,NA,NA,NA,NA,NA,NA,NA,NA,NA
"134","stim/objects/Instruments/pipepiano.png",142,38,142,0.5,"stim/12.jpeg",1,2,1,NA,"Instruments",1,1,"left","left",0.53000021,1,1,1,1,NA,NA,NA,NA,NA,NA,NA,NA,NA,NA,NA,NA,NA,NA,NA,NA,NA,NA,NA,NA,NA,NA,NA,NA
"147","stim/objects/Instruments/record_player.png",143,38,143,0.5,"stim/14.jpeg",1,4,1,NA,"Instruments",1,4,"left","right",0.521999836,0,0,1,1,NA,NA,NA,NA,NA,NA,NA,NA,NA,NA,NA,NA,NA,NA,NA,NA,NA,NA,NA,NA,NA,NA,NA,NA
"117","stim/objects/HouseObjects/thread.png",144,38,144,0.7,"stim/34.jpeg",3,4,2,NA,"HouseObjects",2,3,"right","right",0.526000023,1,1,1,1,NA,NA,NA,NA,NA,NA,NA,NA,NA,NA,NA,NA,NA,NA,NA,NA,NA,NA,NA,NA,NA,NA,NA,NA
"158","stim/objects/Instruments/record.png",145,38,145,0.5,"stim/13.jpeg",1,3,1,NA,"Instruments",1,3,"left","left",0.625999928,1,1,1,1,NA,NA,NA,NA,NA,NA,NA,NA,NA,NA,NA,NA,NA,NA,NA,NA,NA,NA,NA,NA,NA,NA,NA,NA
"183","stim/objects/Instruments/tambourine.png",146,38,146,0.5,"stim/23.jpeg",2,3,1,NA,"Instruments",1,4,"left","left",0.572000027,1,1,1,1,NA,NA,NA,NA,NA,NA,NA,NA,NA,NA,NA,NA,NA,NA,NA,NA,NA,NA,NA,NA,NA,NA,NA,NA
"135","stim/objects/Instruments/pipepiano.png",147,38,147,0.5,"stim/12.jpeg",1,2,1,NA,"Instruments",1,4,"left","right",0.620000124,0,0,1,1,NA,NA,NA,NA,NA,NA,NA,NA,NA,NA,NA,NA,NA,NA,NA,NA,NA,NA,NA,NA,NA,NA,NA,NA
"29","stim/objects/HouseObjects/rug.png",148,38,148,0.5,"stim/14.jpeg",1,4,1,NA,"HouseObjects",2,1,"right","left",0.491000175,0,0,1,1,NA,NA,NA,NA,NA,NA,NA,NA,NA,NA,NA,NA,NA,NA,NA,NA,NA,NA,NA,NA,NA,NA,NA,NA
"193","stim/objects/Instruments/triangle.png",149,38,149,0.3,"stim/31.jpeg",3,1,2,NA,"Instruments",1,3,"left","right",0.671999931,0,0,1,1,NA,NA,NA,NA,NA,NA,NA,NA,NA,NA,NA,NA,NA,NA,NA,NA,NA,NA,NA,NA,NA,NA,NA,NA
"101","stim/objects/HouseObjects/teapot.png",150,38,150,0.7,"stim/32.jpeg",3,2,2,NA,"HouseObjects",2,4,"right","right",0.471999884,1,1,1,1,NA,NA,NA,NA,NA,NA,NA,NA,NA,NA,NA,NA,NA,NA,NA,NA,NA,NA,NA,NA,NA,NA,NA,NA
"155","stim/objects/Instruments/record_player2.png",151,38,151,0.7,"stim/44.jpeg",4,4,2,NA,"Instruments",1,1,"left","left",0.503999949,1,1,1,1,NA,NA,NA,NA,NA,NA,NA,NA,NA,NA,NA,NA,NA,NA,NA,NA,NA,NA,NA,NA,NA,NA,NA,NA
"177","stim/objects/Instruments/speaker.png",152,38,152,0.5,"stim/22.jpeg",2,2,1,NA,"Instruments",1,4,"left","left",0.532999992,1,1,1,1,NA,NA,NA,NA,NA,NA,NA,NA,NA,NA,NA,NA,NA,NA,NA,NA,NA,NA,NA,NA,NA,NA,NA,NA
"184","stim/objects/Instruments/tambourine.png",153,38,153,0.5,"stim/23.jpeg",2,3,1,NA,"Instruments",1,1,"left","left",0.407999992,1,1,1,1,NA,NA,NA,NA,NA,NA,NA,NA,NA,NA,NA,NA,NA,NA,NA,NA,NA,NA,NA,NA,NA,NA,NA,NA
"94","stim/objects/HouseObjects/spraybottle.png",154,38,154,0.7,"stim/31.jpeg",3,1,2,NA,"HouseObjects",2,2,"right","right",0.508999825,1,1,1,1,NA,NA,NA,NA,NA,NA,NA,NA,NA,NA,NA,NA,NA,NA,NA,NA,NA,NA,NA,NA,NA,NA,NA,NA
"159","stim/objects/Instruments/record.png",155,38,155,0.5,"stim/13.jpeg",1,3,1,NA,"Instruments",1,3,"left","right",0.573999882,0,0,1,1,NA,NA,NA,NA,NA,NA,NA,NA,NA,NA,NA,NA,NA,NA,NA,NA,NA,NA,NA,NA,NA,NA,NA,NA
"70","stim/objects/HouseObjects/scale2.png",156,38,156,0.9,"stim/53.jpeg",5,3,3,NA,"HouseObjects",2,2,"right","right",0.447999954,1,1,1,1,NA,NA,NA,NA,NA,NA,NA,NA,NA,NA,NA,NA,NA,NA,NA,NA,NA,NA,NA,NA,NA,NA,NA,NA
"194","stim/objects/Instruments/triangle.png",157,38,157,0.3,"stim/31.jpeg",3,1,2,NA,"Instruments",1,2,"left","right",0.440000057,0,0,1,1,NA,NA,NA,NA,NA,NA,NA,NA,NA,NA,NA,NA,NA,NA,NA,NA,NA,NA,NA,NA,NA,NA,NA,NA
"136","stim/objects/Instruments/pipepiano.png",158,38,158,0.5,"stim/12.jpeg",1,2,1,NA,"Instruments",1,3,"left","left",0.678999901,1,1,1,1,NA,NA,NA,NA,NA,NA,NA,NA,NA,NA,NA,NA,NA,NA,NA,NA,NA,NA,NA,NA,NA,NA,NA,NA
"213","stim/objects/Instruments/trombone2.png",159,38,159,0.9,"stim/62.jpeg",6,2,3,NA,"Instruments",1,1,"left","left",0.512000084,1,1,1,1,NA,NA,NA,NA,NA,NA,NA,NA,NA,NA,NA,NA,NA,NA,NA,NA,NA,NA,NA,NA,NA,NA,NA,NA
"71","stim/objects/HouseObjects/scale2.png",160,38,160,0.9,"stim/53.jpeg",5,3,3,NA,"HouseObjects",2,1,"right","right",0.406000137,1,1,1,1,NA,NA,NA,NA,NA,NA,NA,NA,NA,NA,NA,NA,NA,NA,NA,NA,NA,NA,NA,NA,NA,NA,NA,NA
"222","stim/objects/Instruments/trumpet2.png",161,38,161,0.9,"stim/63.jpeg",6,3,3,NA,"Instruments",1,3,"left","left",0.46600008,1,1,1,1,NA,NA,NA,NA,NA,NA,NA,NA,NA,NA,NA,NA,NA,NA,NA,NA,NA,NA,NA,NA,NA,NA,NA,NA
"178","stim/objects/Instruments/speaker.png",162,38,162,0.5,"stim/22.jpeg",2,2,1,NA,"Instruments",1,1,"left","left",0.480000019,1,1,1,1,NA,NA,NA,NA,NA,NA,NA,NA,NA,NA,NA,NA,NA,NA,NA,NA,NA,NA,NA,NA,NA,NA,NA,NA
"78","stim/objects/HouseObjects/sponge.png",163,38,163,0.5,"stim/24.jpeg",2,4,1,NA,"HouseObjects",2,2,"right","right",0.421000004,1,1,1,1,NA,NA,NA,NA,NA,NA,NA,NA,NA,NA,NA,NA,NA,NA,NA,NA,NA,NA,NA,NA,NA,NA,NA,NA
"72","stim/objects/HouseObjects/scale2.png",164,38,164,0.9,"stim/53.jpeg",5,3,3,NA,"HouseObjects",2,1,"right","right",0.457000017,1,1,1,1,NA,NA,NA,NA,NA,NA,NA,NA,NA,NA,NA,NA,NA,NA,NA,NA,NA,NA,NA,NA,NA,NA,NA,NA
"123","stim/objects/Instruments/panflute.png",165,38,165,0.5,"stim/11.jpeg",1,1,1,NA,"Instruments",1,1,"left","right",0.743999958,0,0,1,1,NA,NA,NA,NA,NA,NA,NA,NA,NA,NA,NA,NA,NA,NA,NA,NA,NA,NA,NA,NA,NA,NA,NA,NA
"4","stim/objects/HouseObjects/recyclingbin.png",166,38,166,0.5,"stim/11.jpeg",1,1,1,NA,"HouseObjects",2,2,"right","right",0.832999945,1,1,1,1,NA,NA,NA,NA,NA,NA,NA,NA,NA,NA,NA,NA,NA,NA,NA,NA,NA,NA,NA,NA,NA,NA,NA,NA
"171","stim/objects/Instruments/saxophone.png",167,38,167,0.5,"stim/21.jpeg",2,1,1,NA,"Instruments",1,3,"left","right",0.874000072,0,0,1,1,NA,NA,NA,NA,NA,NA,NA,NA,NA,NA,NA,NA,NA,NA,NA,NA,NA,NA,NA,NA,NA,NA,NA,NA
"88","stim/objects/HouseObjects/sponge2.png",168,38,168,0.9,"stim/54.jpeg",5,4,3,NA,"HouseObjects",2,1,"right","right",0.469000101,1,1,1,1,NA,NA,NA,NA,NA,NA,NA,NA,NA,NA,NA,NA,NA,NA,NA,NA,NA,NA,NA,NA,NA,NA,NA,NA
"73","stim/objects/HouseObjects/scale2.png",169,38,169,0.9,"stim/53.jpeg",5,3,3,NA,"HouseObjects",2,2,"right","right",0.387000084,1,1,1,1,NA,NA,NA,NA,NA,NA,NA,NA,NA,NA,NA,NA,NA,NA,NA,NA,NA,NA,NA,NA,NA,NA,NA,NA
"19","stim/objects/HouseObjects/rubbergloves.png",170,38,170,0.5,"stim/13.jpeg",1,3,1,NA,"HouseObjects",2,1,"right","right",0.64199996,1,1,1,1,NA,NA,NA,NA,NA,NA,NA,NA,NA,NA,NA,NA,NA,NA,NA,NA,NA,NA,NA,NA,NA,NA,NA,NA
"140","stim/objects/Instruments/pipepiano2.png",171,38,171,0.7,"stim/42.jpeg",4,2,2,NA,"Instruments",1,3,"left","left",0.55099988,1,1,1,1,NA,NA,NA,NA,NA,NA,NA,NA,NA,NA,NA,NA,NA,NA,NA,NA,NA,NA,NA,NA,NA,NA,NA,NA
"237","stim/objects/Instruments/tuba2.png",172,38,172,0.9,"stim/64.jpeg",6,4,3,NA,"Instruments",1,4,"left","left",0.536000013,1,1,1,1,NA,NA,NA,NA,NA,NA,NA,NA,NA,NA,NA,NA,NA,NA,NA,NA,NA,NA,NA,NA,NA,NA,NA,NA
"49","stim/objects/HouseObjects/saw.png",173,38,173,0.5,"stim/22.jpeg",2,2,1,NA,"HouseObjects",2,1,"right","left",0.443999767,0,0,1,1,NA,NA,NA,NA,NA,NA,NA,NA,NA,NA,NA,NA,NA,NA,NA,NA,NA,NA,NA,NA,NA,NA,NA,NA
"50","stim/objects/HouseObjects/saw.png",174,38,174,0.5,"stim/22.jpeg",2,2,1,NA,"HouseObjects",2,3,"right","right",0.426000118,1,1,1,1,NA,NA,NA,NA,NA,NA,NA,NA,NA,NA,NA,NA,NA,NA,NA,NA,NA,NA,NA,NA,NA,NA,NA,NA
"202","stim/objects/Instruments/triangle2.png",175,38,175,0.9,"stim/61.jpeg",6,1,3,NA,"Instruments",1,3,"left","left",0.444999933,1,1,1,1,NA,NA,NA,NA,NA,NA,NA,NA,NA,NA,NA,NA,NA,NA,NA,NA,NA,NA,NA,NA,NA,NA,NA,NA
"45","stim/objects/HouseObjects/safetypin2.png",176,38,176,0.9,"stim/51.jpeg",5,1,3,NA,"HouseObjects",2,2,"right","right",0.428999901,1,1,1,1,NA,NA,NA,NA,NA,NA,NA,NA,NA,NA,NA,NA,NA,NA,NA,NA,NA,NA,NA,NA,NA,NA,NA,NA
"37","stim/objects/HouseObjects/safetypin.png",177,38,177,0.5,"stim/21.jpeg",2,1,1,NA,"HouseObjects",2,4,"right","left",0.407000065,0,0,1,1,NA,NA,NA,NA,NA,NA,NA,NA,NA,NA,NA,NA,NA,NA,NA,NA,NA,NA,NA,NA,NA,NA,NA,NA
"141","stim/objects/Instruments/pipepiano2.png",178,38,178,0.7,"stim/42.jpeg",4,2,2,NA,"Instruments",1,4,"left","right",0.496999979,0,0,1,1,NA,NA,NA,NA,NA,NA,NA,NA,NA,NA,NA,NA,NA,NA,NA,NA,NA,NA,NA,NA,NA,NA,NA,NA
"142","stim/objects/Instruments/pipepiano2.png",179,38,179,0.7,"stim/42.jpeg",4,2,2,NA,"Instruments",1,1,"left","left",0.486999989,1,1,1,1,NA,NA,NA,NA,NA,NA,NA,NA,NA,NA,NA,NA,NA,NA,NA,NA,NA,NA,NA,NA,NA,NA,NA,NA
"223","stim/objects/Instruments/trumpet2.png",180,38,180,0.9,"stim/63.jpeg",6,3,3,NA,"Instruments",1,4,"left","left",0.49000001,1,1,1,1,NA,NA,NA,NA,NA,NA,NA,NA,NA,NA,NA,NA,NA,NA,NA,NA,NA,NA,NA,NA,NA,NA,NA,NA
"59","stim/objects/HouseObjects/saw2.png",181,38,181,0.9,"stim/52.jpeg",5,2,3,NA,"HouseObjects",2,2,"right","right",0.528000116,1,1,1,1,NA,NA,NA,NA,NA,NA,NA,NA,NA,NA,NA,NA,NA,NA,NA,NA,NA,NA,NA,NA,NA,NA,NA,NA
"12","stim/objects/HouseObjects/remote.png",182,38,182,0.5,"stim/12.jpeg",1,2,1,NA,"HouseObjects",2,1,"right","left",0.583999872,0,0,1,1,NA,NA,NA,NA,NA,NA,NA,NA,NA,NA,NA,NA,NA,NA,NA,NA,NA,NA,NA,NA,NA,NA,NA,NA
"214","stim/objects/Instruments/trombone2.png",183,38,183,0.9,"stim/62.jpeg",6,2,3,NA,"Instruments",1,4,"left","left",0.427999973,1,1,1,1,NA,NA,NA,NA,NA,NA,NA,NA,NA,NA,NA,NA,NA,NA,NA,NA,NA,NA,NA,NA,NA,NA,NA,NA
"137","stim/objects/Instruments/pipepiano.png",184,38,184,0.5,"stim/12.jpeg",1,2,1,NA,"Instruments",1,4,"left","right",0.81799984,0,0,1,1,NA,NA,NA,NA,NA,NA,NA,NA,NA,NA,NA,NA,NA,NA,NA,NA,NA,NA,NA,NA,NA,NA,NA,NA
"215","stim/objects/Instruments/trombone2.png",185,38,185,0.9,"stim/62.jpeg",6,2,3,NA,"Instruments",1,1,"left","left",0.49000001,1,1,1,1,NA,NA,NA,NA,NA,NA,NA,NA,NA,NA,NA,NA,NA,NA,NA,NA,NA,NA,NA,NA,NA,NA,NA,NA
"168","stim/objects/Instruments/record2.png",186,38,186,0.7,"stim/43.jpeg",4,3,2,NA,"Instruments",1,3,"left","left",0.629999876,1,1,1,1,NA,NA,NA,NA,NA,NA,NA,NA,NA,NA,NA,NA,NA,NA,NA,NA,NA,NA,NA,NA,NA,NA,NA,NA
"219","stim/objects/Instruments/trumpet.png",187,38,187,0.3,"stim/33.jpeg",3,3,2,NA,"Instruments",1,3,"left","right",0.730999947,0,0,1,1,NA,NA,NA,NA,NA,NA,NA,NA,NA,NA,NA,NA,NA,NA,NA,NA,NA,NA,NA,NA,NA,NA,NA,NA
"120","stim/objects/HouseObjects/thread2.png",188,38,188,0.1,"stim/64.jpeg",6,4,3,NA,"HouseObjects",2,4,"right","left",0.496000051,0,0,1,1,NA,NA,NA,NA,NA,NA,NA,NA,NA,NA,NA,NA,NA,NA,NA,NA,NA,NA,NA,NA,NA,NA,NA,NA
"224","stim/objects/Instruments/trumpet2.png",189,38,189,0.9,"stim/63.jpeg",6,3,3,NA,"Instruments",1,2,"left","left",0.46600008,1,1,1,1,NA,NA,NA,NA,NA,NA,NA,NA,NA,NA,NA,NA,NA,NA,NA,NA,NA,NA,NA,NA,NA,NA,NA,NA
"143","stim/objects/Instruments/pipepiano2.png",190,38,190,0.7,"stim/42.jpeg",4,2,2,NA,"Instruments",1,3,"left","left",0.65899992,1,1,1,1,NA,NA,NA,NA,NA,NA,NA,NA,NA,NA,NA,NA,NA,NA,NA,NA,NA,NA,NA,NA,NA,NA,NA,NA
"238","stim/objects/Instruments/tuba2.png",191,38,191,0.9,"stim/64.jpeg",6,4,3,NA,"Instruments",1,2,"left","left",0.51699996,1,1,1,1,NA,NA,NA,NA,NA,NA,NA,NA,NA,NA,NA,NA,NA,NA,NA,NA,NA,NA,NA,NA,NA,NA,NA,NA
"102","stim/objects/HouseObjects/teapot.png",192,38,192,0.7,"stim/32.jpeg",3,2,2,NA,"HouseObjects",2,3,"right","right",0.539000034,1,1,1,1,NA,NA,NA,NA,NA,NA,NA,NA,NA,NA,NA,NA,NA,NA,NA,NA,NA,NA,NA,NA,NA,NA,NA,NA
"74","stim/objects/HouseObjects/scale2.png",193,38,193,0.9,"stim/53.jpeg",5,3,3,NA,"HouseObjects",2,1,"right","right",0.468000174,1,1,1,1,NA,NA,NA,NA,NA,NA,NA,NA,NA,NA,NA,NA,NA,NA,NA,NA,NA,NA,NA,NA,NA,NA,NA,NA
"179","stim/objects/Instruments/speaker.png",194,38,194,0.5,"stim/22.jpeg",2,2,1,NA,"Instruments",1,1,"left","left",0.497999907,1,1,1,1,NA,NA,NA,NA,NA,NA,NA,NA,NA,NA,NA,NA,NA,NA,NA,NA,NA,NA,NA,NA,NA,NA,NA,NA
"20","stim/objects/HouseObjects/rubbergloves.png",195,38,195,0.5,"stim/13.jpeg",1,3,1,NA,"HouseObjects",2,4,"right","left",0.450999975,0,0,1,1,NA,NA,NA,NA,NA,NA,NA,NA,NA,NA,NA,NA,NA,NA,NA,NA,NA,NA,NA,NA,NA,NA,NA,NA
"60","stim/objects/HouseObjects/saw2.png",196,38,196,0.9,"stim/52.jpeg",5,2,3,NA,"HouseObjects",2,3,"right","right",0.611999989,1,1,1,1,NA,NA,NA,NA,NA,NA,NA,NA,NA,NA,NA,NA,NA,NA,NA,NA,NA,NA,NA,NA,NA,NA,NA,NA
"195","stim/objects/Instruments/triangle.png",197,38,197,0.3,"stim/31.jpeg",3,1,2,NA,"Instruments",1,2,"left","left",0.378000021,1,1,1,1,NA,NA,NA,NA,NA,NA,NA,NA,NA,NA,NA,NA,NA,NA,NA,NA,NA,NA,NA,NA,NA,NA,NA,NA
"144","stim/objects/Instruments/pipepiano2.png",198,38,198,0.7,"stim/42.jpeg",4,2,2,NA,"Instruments",1,2,"left","left",0.599999905,1,1,1,1,NA,NA,NA,NA,NA,NA,NA,NA,NA,NA,NA,NA,NA,NA,NA,NA,NA,NA,NA,NA,NA,NA,NA,NA
"156","stim/objects/Instruments/record_player2.png",199,38,199,0.7,"stim/44.jpeg",4,4,2,NA,"Instruments",1,1,"left","left",0.592999935,1,1,1,1,NA,NA,NA,NA,NA,NA,NA,NA,NA,NA,NA,NA,NA,NA,NA,NA,NA,NA,NA,NA,NA,NA,NA,NA
"172","stim/objects/Instruments/saxophone.png",200,38,200,0.5,"stim/21.jpeg",2,1,1,NA,"Instruments",1,2,"left","left",0.49000001,1,1,1,1,NA,NA,NA,NA,NA,NA,NA,NA,NA,NA,NA,NA,NA,NA,NA,NA,NA,NA,NA,NA,NA,NA,NA,NA
"203","stim/objects/Instruments/triangle2.png",201,38,201,0.9,"stim/61.jpeg",6,1,3,NA,"Instruments",1,3,"left","left",0.493000031,1,1,1,1,NA,NA,NA,NA,NA,NA,NA,NA,NA,NA,NA,NA,NA,NA,NA,NA,NA,NA,NA,NA,NA,NA,NA,NA
"131","stim/objects/Instruments/panflute2.png",202,38,202,0.7,"stim/41.jpeg",4,1,2,NA,"Instruments",1,3,"left","left",0.448999882,1,1,1,1,NA,NA,NA,NA,NA,NA,NA,NA,NA,NA,NA,NA,NA,NA,NA,NA,NA,NA,NA,NA,NA,NA,NA,NA
"108","stim/objects/HouseObjects/thermometer.png",203,38,203,0.7,"stim/33.jpeg",3,3,2,NA,"HouseObjects",2,4,"right","right",0.434000015,1,1,1,1,NA,NA,NA,NA,NA,NA,NA,NA,NA,NA,NA,NA,NA,NA,NA,NA,NA,NA,NA,NA,NA,NA,NA,NA
"79","stim/objects/HouseObjects/sponge.png",204,38,204,0.5,"stim/24.jpeg",2,4,1,NA,"HouseObjects",2,2,"right","left",0.501000166,0,0,1,1,NA,NA,NA,NA,NA,NA,NA,NA,NA,NA,NA,NA,NA,NA,NA,NA,NA,NA,NA,NA,NA,NA,NA,NA
"225","stim/objects/Instruments/trumpet2.png",205,38,205,0.9,"stim/63.jpeg",6,3,3,NA,"Instruments",1,3,"left","left",0.480999947,1,1,1,1,NA,NA,NA,NA,NA,NA,NA,NA,NA,NA,NA,NA,NA,NA,NA,NA,NA,NA,NA,NA,NA,NA,NA,NA
"226","stim/objects/Instruments/trumpet2.png",206,38,206,0.9,"stim/63.jpeg",6,3,3,NA,"Instruments",1,3,"left","left",0.377000093,1,1,1,1,NA,NA,NA,NA,NA,NA,NA,NA,NA,NA,NA,NA,NA,NA,NA,NA,NA,NA,NA,NA,NA,NA,NA,NA
"204","stim/objects/Instruments/triangle2.png",207,38,207,0.9,"stim/61.jpeg",6,1,3,NA,"Instruments",1,4,"left","left",0.419000149,1,1,1,1,NA,NA,NA,NA,NA,NA,NA,NA,NA,NA,NA,NA,NA,NA,NA,NA,NA,NA,NA,NA,NA,NA,NA,NA
"16","stim/objects/HouseObjects/remote2.png",208,38,208,0.3,"stim/42.jpeg",4,2,2,NA,"HouseObjects",2,2,"right","left",0.482000113,0,0,1,1,NA,NA,NA,NA,NA,NA,NA,NA,NA,NA,NA,NA,NA,NA,NA,NA,NA,NA,NA,NA,NA,NA,NA,NA
"239","stim/objects/Instruments/tuba2.png",209,38,209,0.9,"stim/64.jpeg",6,4,3,NA,"Instruments",1,3,"left","left",0.437999964,1,1,1,1,NA,NA,NA,NA,NA,NA,NA,NA,NA,NA,NA,NA,NA,NA,NA,NA,NA,NA,NA,NA,NA,NA,NA,NA
"103","stim/objects/HouseObjects/teapot.png",210,38,210,0.7,"stim/32.jpeg",3,2,2,NA,"HouseObjects",2,1,"right","right",0.48300004,1,1,1,1,NA,NA,NA,NA,NA,NA,NA,NA,NA,NA,NA,NA,NA,NA,NA,NA,NA,NA,NA,NA,NA,NA,NA,NA
"109","stim/objects/HouseObjects/thermometer.png",211,38,211,0.7,"stim/33.jpeg",3,3,2,NA,"HouseObjects",2,2,"right","right",0.390000105,1,1,1,1,NA,NA,NA,NA,NA,NA,NA,NA,NA,NA,NA,NA,NA,NA,NA,NA,NA,NA,NA,NA,NA,NA,NA,NA
"13","stim/objects/HouseObjects/remote.png",212,38,212,0.5,"stim/12.jpeg",1,2,1,NA,"HouseObjects",2,3,"right","left",0.611999989,0,0,1,1,NA,NA,NA,NA,NA,NA,NA,NA,NA,NA,NA,NA,NA,NA,NA,NA,NA,NA,NA,NA,NA,NA,NA,NA
"64","stim/objects/HouseObjects/scale.png",213,38,213,0.5,"stim/23.jpeg",2,3,1,NA,"HouseObjects",2,4,"right","left",0.536999941,0,0,1,1,NA,NA,NA,NA,NA,NA,NA,NA,NA,NA,NA,NA,NA,NA,NA,NA,NA,NA,NA,NA,NA,NA,NA,NA
"191","stim/objects/Instruments/timbal.png",214,38,214,0.5,"stim/24.jpeg",2,4,1,NA,"Instruments",1,2,"left","left",0.597000122,1,1,1,1,NA,NA,NA,NA,NA,NA,NA,NA,NA,NA,NA,NA,NA,NA,NA,NA,NA,NA,NA,NA,NA,NA,NA,NA
"185","stim/objects/Instruments/tambourine.png",215,38,215,0.5,"stim/23.jpeg",2,3,1,NA,"Instruments",1,4,"left","left",0.684000015,1,1,1,1,NA,NA,NA,NA,NA,NA,NA,NA,NA,NA,NA,NA,NA,NA,NA,NA,NA,NA,NA,NA,NA,NA,NA,NA
"96","stim/objects/HouseObjects/spraybottle2.png",216,38,216,0.1,"stim/61.jpeg",6,1,3,NA,"HouseObjects",2,2,"right","left",0.565999985,0,0,1,1,NA,NA,NA,NA,NA,NA,NA,NA,NA,NA,NA,NA,NA,NA,NA,NA,NA,NA,NA,NA,NA,NA,NA,NA
"132","stim/objects/Instruments/panflute2.png",217,38,217,0.7,"stim/41.jpeg",4,1,2,NA,"Instruments",1,2,"left","left",0.605999947,1,1,1,1,NA,NA,NA,NA,NA,NA,NA,NA,NA,NA,NA,NA,NA,NA,NA,NA,NA,NA,NA,NA,NA,NA,NA,NA
"160","stim/objects/Instruments/record.png",218,38,218,0.5,"stim/13.jpeg",1,3,1,NA,"Instruments",1,1,"left","left",0.522000074,1,1,1,1,NA,NA,NA,NA,NA,NA,NA,NA,NA,NA,NA,NA,NA,NA,NA,NA,NA,NA,NA,NA,NA,NA,NA,NA
"227","stim/objects/Instruments/trumpet2.png",219,38,219,0.9,"stim/63.jpeg",6,3,3,NA,"Instruments",1,4,"left","left",0.563000202,1,1,1,1,NA,NA,NA,NA,NA,NA,NA,NA,NA,NA,NA,NA,NA,NA,NA,NA,NA,NA,NA,NA,NA,NA,NA,NA
"228","stim/objects/Instruments/trumpet2.png",220,38,220,0.9,"stim/63.jpeg",6,3,3,NA,"Instruments",1,2,"left","left",0.428999901,1,1,1,1,NA,NA,NA,NA,NA,NA,NA,NA,NA,NA,NA,NA,NA,NA,NA,NA,NA,NA,NA,NA,NA,NA,NA,NA
"8","stim/objects/HouseObjects/recyclingbin2.png",221,38,221,0.3,"stim/41.jpeg",4,1,2,NA,"HouseObjects",2,4,"right","left",0.397000074,0,0,1,1,NA,NA,NA,NA,NA,NA,NA,NA,NA,NA,NA,NA,NA,NA,NA,NA,NA,NA,NA,NA,NA,NA,NA,NA
"65","stim/objects/HouseObjects/scale.png",222,38,222,0.5,"stim/23.jpeg",2,3,1,NA,"HouseObjects",2,1,"right","left",0.526000023,0,0,1,1,NA,NA,NA,NA,NA,NA,NA,NA,NA,NA,NA,NA,NA,NA,NA,NA,NA,NA,NA,NA,NA,NA,NA,NA
"192","stim/objects/Instruments/timbal2.png",223,38,223,0.1,"stim/54.jpeg",5,4,3,NA,"Instruments",1,1,"left","right",0.508000135,0,0,1,1,NA,NA,NA,NA,NA,NA,NA,NA,NA,NA,NA,NA,NA,NA,NA,NA,NA,NA,NA,NA,NA,NA,NA,NA
"95","stim/objects/HouseObjects/spraybottle.png",224,38,224,0.7,"stim/31.jpeg",3,1,2,NA,"HouseObjects",2,4,"right","right",0.559000015,1,1,1,1,NA,NA,NA,NA,NA,NA,NA,NA,NA,NA,NA,NA,NA,NA,NA,NA,NA,NA,NA,NA,NA,NA,NA,NA
"216","stim/objects/Instruments/trombone2.png",225,38,225,0.9,"stim/62.jpeg",6,2,3,NA,"Instruments",1,1,"left","left",0.488999844,1,1,1,1,NA,NA,NA,NA,NA,NA,NA,NA,NA,NA,NA,NA,NA,NA,NA,NA,NA,NA,NA,NA,NA,NA,NA,NA
"51","stim/objects/HouseObjects/saw.png",226,38,226,0.5,"stim/22.jpeg",2,2,1,NA,"HouseObjects",2,1,"right","left",0.463999987,0,0,1,1,NA,NA,NA,NA,NA,NA,NA,NA,NA,NA,NA,NA,NA,NA,NA,NA,NA,NA,NA,NA,NA,NA,NA,NA
"46","stim/objects/HouseObjects/safetypin2.png",227,38,227,0.9,"stim/51.jpeg",5,1,3,NA,"HouseObjects",2,1,"right","right",0.551999807,1,1,1,1,NA,NA,NA,NA,NA,NA,NA,NA,NA,NA,NA,NA,NA,NA,NA,NA,NA,NA,NA,NA,NA,NA,NA,NA
"110","stim/objects/HouseObjects/thermometer.png",228,38,228,0.7,"stim/33.jpeg",3,3,2,NA,"HouseObjects",2,4,"right","right",0.612999916,1,1,1,1,NA,NA,NA,NA,NA,NA,NA,NA,NA,NA,NA,NA,NA,NA,NA,NA,NA,NA,NA,NA,NA,NA,NA,NA
"161","stim/objects/Instruments/record.png",229,38,229,0.5,"stim/13.jpeg",1,3,1,NA,"Instruments",1,2,"left","right",0.43200016,0,0,1,1,NA,NA,NA,NA,NA,NA,NA,NA,NA,NA,NA,NA,NA,NA,NA,NA,NA,NA,NA,NA,NA,NA,NA,NA
"240","stim/objects/Instruments/tuba2.png",230,38,230,0.9,"stim/64.jpeg",6,4,3,NA,"Instruments",1,3,"left","left",0.385999918,1,1,1,1,NA,NA,NA,NA,NA,NA,NA,NA,NA,NA,NA,NA,NA,NA,NA,NA,NA,NA,NA,NA,NA,NA,NA,NA
"124","stim/objects/Instruments/panflute.png",231,38,231,0.5,"stim/11.jpeg",1,1,1,NA,"Instruments",1,2,"left","right",0.657999992,0,0,1,1,NA,NA,NA,NA,NA,NA,NA,NA,NA,NA,NA,NA,NA,NA,NA,NA,NA,NA,NA,NA,NA,NA,NA,NA
"111","stim/objects/HouseObjects/thermometer.png",232,38,232,0.7,"stim/33.jpeg",3,3,2,NA,"HouseObjects",2,4,"right","right",0.478000164,1,1,1,1,NA,NA,NA,NA,NA,NA,NA,NA,NA,NA,NA,NA,NA,NA,NA,NA,NA,NA,NA,NA,NA,NA,NA,NA
"125","stim/objects/Instruments/panflute.png",233,38,233,0.5,"stim/11.jpeg",1,1,1,NA,"Instruments",1,2,"left","right",0.44900012,0,0,1,1,NA,NA,NA,NA,NA,NA,NA,NA,NA,NA,NA,NA,NA,NA,NA,NA,NA,NA,NA,NA,NA,NA,NA,NA
"173","stim/objects/Instruments/saxophone.png",234,38,234,0.5,"stim/21.jpeg",2,1,1,NA,"Instruments",1,4,"left","left",0.608999968,1,1,1,1,NA,NA,NA,NA,NA,NA,NA,NA,NA,NA,NA,NA,NA,NA,NA,NA,NA,NA,NA,NA,NA,NA,NA,NA
"21","stim/objects/HouseObjects/rubbergloves.png",235,38,235,0.5,"stim/13.jpeg",1,3,1,NA,"HouseObjects",2,2,"right","left",0.689999819,0,0,1,1,NA,NA,NA,NA,NA,NA,NA,NA,NA,NA,NA,NA,NA,NA,NA,NA,NA,NA,NA,NA,NA,NA,NA,NA
"148","stim/objects/Instruments/record_player.png",236,38,236,0.5,"stim/14.jpeg",1,4,1,NA,"Instruments",1,1,"left","right",0.851000071,0,0,1,1,NA,NA,NA,NA,NA,NA,NA,NA,NA,NA,NA,NA,NA,NA,NA,NA,NA,NA,NA,NA,NA,NA,NA,NA
"5","stim/objects/HouseObjects/recyclingbin.png",237,38,237,0.5,"stim/11.jpeg",1,1,1,NA,"HouseObjects",2,3,"right","left",0.74000001,0,0,1,1,NA,NA,NA,NA,NA,NA,NA,NA,NA,NA,NA,NA,NA,NA,NA,NA,NA,NA,NA,NA,NA,NA,NA,NA
"118","stim/objects/HouseObjects/thread.png",238,38,238,0.7,"stim/34.jpeg",3,4,2,NA,"HouseObjects",2,3,"right","right",0.5849998,1,1,1,1,NA,NA,NA,NA,NA,NA,NA,NA,NA,NA,NA,NA,NA,NA,NA,NA,NA,NA,NA,NA,NA,NA,NA,NA
"119","stim/objects/HouseObjects/thread.png",239,38,239,0.7,"stim/34.jpeg",3,4,2,NA,"HouseObjects",2,4,"right","",NA,0,0,1,1,NA,NA,NA,NA,NA,NA,NA,NA,NA,NA,NA,NA,NA,NA,NA,NA,NA,NA,NA,NA,NA,NA,NA,NA
"149","stim/objects/Instruments/record_player.png",240,38,240,0.5,"stim/14.jpeg",1,4,1,NA,"Instruments",1,4,"left","right",0.432999849,0,0,1,1,NA,NA,NA,NA,NA,NA,NA,NA,NA,NA,NA,NA,NA,NA,NA,NA,NA,NA,NA,NA,NA,NA,NA,NA
"392","stim/objects/HouseObjects/lintroller3.png",248,38,241,0.5,"stim/23.jpeg",2,3,1,1,"HouseObjects",2,3,"right","",NA,0,0,1,0,16,38,1,0.5,2,"stim/23.jpeg",2,3,"stim/23.jpeg",3,"left",1.609999895,4,1,3.249000072,2,11.49099994,16,1,0,0,0,0,1
"252","stim/objects/HouseObjects/basket4.png",249,38,242,0.7,"stim/32.jpeg",3,2,2,1,"HouseObjects",2,2,"right","right",0.459000111,1,1,1,0,42,38,1,0.7,2,"stim/32.jpeg",3,2,"stim/32.jpeg",2,"right",0.936000109,3,3,1.608999968,4,3.934999943,42,0,0,NA,0,NA,1
"342","stim/objects/HouseObjects/garbagebin3.png",250,38,243,0.9,"stim/54.jpeg",5,4,3,2,"HouseObjects",2,2,"right","right",0.572999954,1,1,1,0,NA,NA,NA,NA,NA,NA,NA,NA,NA,NA,NA,NA,NA,NA,NA,NA,NA,NA,NA,NA,NA,NA,NA,NA
"343","stim/objects/HouseObjects/garbagebin3.png",251,38,244,0.9,"stim/53.jpeg",5,3,3,2,"HouseObjects",2,4,"right","right",0.638000011,1,1,1,0,NA,NA,NA,NA,NA,NA,NA,NA,NA,NA,NA,NA,NA,NA,NA,NA,NA,NA,NA,NA,NA,NA,NA,NA
"249","stim/objects/HouseObjects/barbecuelighter4.png",252,38,245,0.7,"stim/31.jpeg",3,1,2,1,"HouseObjects",2,1,"right","right",0.735000134,1,1,1,0,182,38,1,0.7,2,"stim/31.jpeg",3,1,"stim/31.jpeg",1,"right",0.680999994,3,3,1.093999863,3,0.912000179,182,0,0,NA,0,NA,1
"241","stim/objects/HouseObjects/ashtray3.png",253,38,246,0.5,"stim/11.jpeg",1,1,1,2,"HouseObjects",2,4,"right","left",0.74000001,0,0,1,0,NA,NA,NA,NA,NA,NA,NA,NA,NA,NA,NA,NA,NA,NA,NA,NA,NA,NA,NA,NA,NA,NA,NA,NA
"418","stim/objects/Instruments/bassdrum3.png",254,38,247,0.5,"stim/12.jpeg",1,2,1,2,"Instruments",1,4,"left","right",0.388000011,0,0,1,0,NA,NA,NA,NA,NA,NA,NA,NA,NA,NA,NA,NA,NA,NA,NA,NA,NA,NA,NA,NA,NA,NA,NA,NA
"256","stim/objects/HouseObjects/blender3.png",255,38,248,0.5,"stim/22.jpeg",2,2,1,2,"HouseObjects",2,2,"right","left",0.545000076,0,0,1,0,NA,NA,NA,NA,NA,NA,NA,NA,NA,NA,NA,NA,NA,NA,NA,NA,NA,NA,NA,NA,NA,NA,NA,NA
"448","stim/objects/Instruments/electricdrumset3.png",256,38,249,0.7,"stim/42.jpeg",4,2,2,2,"Instruments",1,3,"left","right",0.677999973,0,0,1,0,NA,NA,NA,NA,NA,NA,NA,NA,NA,NA,NA,NA,NA,NA,NA,NA,NA,NA,NA,NA,NA,NA,NA,NA
"456","stim/objects/Instruments/flute3.png",257,38,250,0.9,"stim/64.jpeg",6,4,3,2,"Instruments",1,4,"left","left",0.458000183,1,1,1,0,NA,NA,NA,NA,NA,NA,NA,NA,NA,NA,NA,NA,NA,NA,NA,NA,NA,NA,NA,NA,NA,NA,NA,NA
"291","stim/objects/HouseObjects/doormat3.png",258,38,251,0.9,"stim/53.jpeg",5,3,3,2,"HouseObjects",2,3,"right","right",0.593000174,1,1,1,0,NA,NA,NA,NA,NA,NA,NA,NA,NA,NA,NA,NA,NA,NA,NA,NA,NA,NA,NA,NA,NA,NA,NA,NA
"507","stim/objects/Instruments/gong3.png",259,38,252,0.9,"stim/63.jpeg",6,3,3,2,"Instruments",1,4,"left","left",0.455000162,1,1,1,0,NA,NA,NA,NA,NA,NA,NA,NA,NA,NA,NA,NA,NA,NA,NA,NA,NA,NA,NA,NA,NA,NA,NA,NA
"508","stim/objects/Instruments/gong3.png",260,38,253,0.9,"stim/64.jpeg",6,4,3,2,"Instruments",1,2,"left","left",0.364000082,1,1,1,0,NA,NA,NA,NA,NA,NA,NA,NA,NA,NA,NA,NA,NA,NA,NA,NA,NA,NA,NA,NA,NA,NA,NA,NA
"292","stim/objects/HouseObjects/doormat3.png",261,38,254,0.9,"stim/51.jpeg",5,1,3,2,"HouseObjects",2,1,"right","right",0.486000061,1,1,1,0,NA,NA,NA,NA,NA,NA,NA,NA,NA,NA,NA,NA,NA,NA,NA,NA,NA,NA,NA,NA,NA,NA,NA,NA
"393","stim/objects/HouseObjects/lintroller4.png",262,38,255,0.1,"stim/62.jpeg",6,2,3,1,"HouseObjects",2,4,"right","left",0.455999851,0,0,1,0,116,38,1,0.1,2,"stim/62.jpeg",6,2,"stim/62.jpeg",4,"left",0.893999815,3,1,5.459000111,2,4.611000061,116,1,0,0,0,0,1
"293","stim/objects/HouseObjects/doormat3.png",263,38,256,0.9,"stim/51.jpeg",5,1,3,2,"HouseObjects",2,3,"right","right",0.504000187,1,1,1,0,NA,NA,NA,NA,NA,NA,NA,NA,NA,NA,NA,NA,NA,NA,NA,NA,NA,NA,NA,NA,NA,NA,NA,NA
"509","stim/objects/Instruments/gong3.png",264,38,257,0.9,"stim/61.jpeg",6,1,3,2,"Instruments",1,4,"left","left",0.486000061,1,1,1,0,NA,NA,NA,NA,NA,NA,NA,NA,NA,NA,NA,NA,NA,NA,NA,NA,NA,NA,NA,NA,NA,NA,NA,NA
"359","stim/objects/HouseObjects/glass3.png",265,38,258,0.9,"stim/52.jpeg",5,2,3,2,"HouseObjects",2,4,"right","right",0.50999999,1,1,1,0,NA,NA,NA,NA,NA,NA,NA,NA,NA,NA,NA,NA,NA,NA,NA,NA,NA,NA,NA,NA,NA,NA,NA,NA
"308","stim/objects/HouseObjects/dustpan3.png",266,38,259,0.9,"stim/53.jpeg",5,3,3,2,"HouseObjects",2,1,"right","right",0.423000097,1,1,1,0,NA,NA,NA,NA,NA,NA,NA,NA,NA,NA,NA,NA,NA,NA,NA,NA,NA,NA,NA,NA,NA,NA,NA,NA
"325","stim/objects/HouseObjects/flyswatter3.png",267,38,260,0.9,"stim/51.jpeg",5,1,3,2,"HouseObjects",2,4,"right","right",0.532999992,1,1,1,0,NA,NA,NA,NA,NA,NA,NA,NA,NA,NA,NA,NA,NA,NA,NA,NA,NA,NA,NA,NA,NA,NA,NA,NA
"552","stim/objects/Instruments/laud4.png",268,38,261,0.9,"stim/61.jpeg",6,1,3,1,"Instruments",1,2,"left","left",0.476999998,1,1,1,0,73,38,1,0.9,1,"stim/61.jpeg",6,1,"stim/61.jpeg",2,"left",0.782999992,4,4,6.088000059,3,3.197000027,73,1,0,0,0,0,1
"307","stim/objects/HouseObjects/doormat4.png",269,38,262,0.9,"stim/53.jpeg",5,3,3,1,"HouseObjects",2,1,"right","right",0.476999998,1,1,1,0,149,38,1,0.9,2,"stim/53.jpeg",5,3,"stim/53.jpeg",1,"left",1.619999886,4,3,6.227999926,3,1.454999924,149,1,1,1,0,0,1
"492","stim/objects/Instruments/frenchhorn3.png",270,38,263,0.9,"stim/61.jpeg",6,1,3,2,"Instruments",1,1,"left","left",0.498999834,1,1,1,0,NA,NA,NA,NA,NA,NA,NA,NA,NA,NA,NA,NA,NA,NA,NA,NA,NA,NA,NA,NA,NA,NA,NA,NA
"436","stim/objects/Instruments/cymbal3.png",271,38,264,0.7,"stim/42.jpeg",4,2,2,2,"Instruments",1,4,"left","right",0.460999966,0,0,1,0,NA,NA,NA,NA,NA,NA,NA,NA,NA,NA,NA,NA,NA,NA,NA,NA,NA,NA,NA,NA,NA,NA,NA,NA
"457","stim/objects/Instruments/flute3.png",272,38,265,0.9,"stim/62.jpeg",6,2,3,2,"Instruments",1,3,"left","left",0.523999929,1,1,1,0,NA,NA,NA,NA,NA,NA,NA,NA,NA,NA,NA,NA,NA,NA,NA,NA,NA,NA,NA,NA,NA,NA,NA,NA
"526","stim/objects/Instruments/grandpiano3.png",273,38,266,0.9,"stim/64.jpeg",6,4,3,2,"Instruments",1,3,"left","left",0.542000055,1,1,1,0,NA,NA,NA,NA,NA,NA,NA,NA,NA,NA,NA,NA,NA,NA,NA,NA,NA,NA,NA,NA,NA,NA,NA,NA
"569","stim/objects/Instruments/xylophone3.png",274,38,267,0.3,"stim/31.jpeg",3,1,2,1,"Instruments",1,3,"left","left",0.708999872,1,1,1,0,59,38,1,0.3,1,"stim/31.jpeg",3,1,"stim/31.jpeg",3,"right",4.836999893,4,4,1.575999975,4,1.364999771,59,0,0,NA,0,NA,1
"409","stim/objects/Instruments/acousticguitar3.png",275,38,268,0.5,"stim/12.jpeg",1,2,1,2,"Instruments",1,2,"left","left",0.857999802,1,1,1,0,NA,NA,NA,NA,NA,NA,NA,NA,NA,NA,NA,NA,NA,NA,NA,NA,NA,NA,NA,NA,NA,NA,NA,NA
"473","stim/objects/Instruments/flutetrans3.png",276,38,269,0.9,"stim/64.jpeg",6,4,3,2,"Instruments",1,3,"left","left",0.545000076,1,1,1,0,NA,NA,NA,NA,NA,NA,NA,NA,NA,NA,NA,NA,NA,NA,NA,NA,NA,NA,NA,NA,NA,NA,NA,NA
"493","stim/objects/Instruments/frenchhorn3.png",277,38,270,0.9,"stim/63.jpeg",6,3,3,2,"Instruments",1,4,"left","left",0.551000118,1,1,1,0,NA,NA,NA,NA,NA,NA,NA,NA,NA,NA,NA,NA,NA,NA,NA,NA,NA,NA,NA,NA,NA,NA,NA,NA
"562","stim/objects/Instruments/musicstand4.png",278,38,271,0.9,"stim/62.jpeg",6,2,3,1,"Instruments",1,2,"left","left",0.531999826,1,1,1,0,92,38,1,0.9,1,"stim/62.jpeg",6,2,"stim/62.jpeg",2,"right",1.423000097,4,3,0.940999985,4,0.639999866,92,0,0,NA,0,NA,1
"439","stim/objects/Instruments/cymbal4.png",279,38,272,0.7,"stim/41.jpeg",4,1,2,1,"Instruments",1,2,"left","left",0.844000101,1,1,1,0,144,38,1,0.7,1,"stim/41.jpeg",4,1,"stim/41.jpeg",2,"right",1.026000023,2,3,3.371999979,1,5.870999813,144,0,0,NA,0,NA,1
"324","stim/objects/HouseObjects/dustpan4.png",280,38,273,0.9,"stim/54.jpeg",5,4,3,1,"HouseObjects",2,2,"right","right",0.703999996,1,1,1,0,159,38,1,0.9,2,"stim/54.jpeg",5,4,"stim/54.jpeg",2,"right",1.284999847,3,2,1.654000044,4,1.429000139,159,0,0,NA,0,NA,1
"262","stim/objects/HouseObjects/broom3.png",281,38,274,0.5,"stim/21.jpeg",2,1,1,2,"HouseObjects",2,3,"right","right",0.52699995,1,1,1,0,NA,NA,NA,NA,NA,NA,NA,NA,NA,NA,NA,NA,NA,NA,NA,NA,NA,NA,NA,NA,NA,NA,NA,NA
"326","stim/objects/HouseObjects/flyswatter3.png",282,38,275,0.9,"stim/52.jpeg",5,2,3,2,"HouseObjects",2,1,"right","right",0.517999887,1,1,1,0,NA,NA,NA,NA,NA,NA,NA,NA,NA,NA,NA,NA,NA,NA,NA,NA,NA,NA,NA,NA,NA,NA,NA,NA
"527","stim/objects/Instruments/grandpiano3.png",283,38,276,0.9,"stim/62.jpeg",6,2,3,2,"Instruments",1,2,"left","left",0.440999985,1,1,1,0,NA,NA,NA,NA,NA,NA,NA,NA,NA,NA,NA,NA,NA,NA,NA,NA,NA,NA,NA,NA,NA,NA,NA,NA
"474","stim/objects/Instruments/flutetrans3.png",284,38,277,0.9,"stim/61.jpeg",6,1,3,2,"Instruments",1,2,"left","left",0.476000071,1,1,1,0,NA,NA,NA,NA,NA,NA,NA,NA,NA,NA,NA,NA,NA,NA,NA,NA,NA,NA,NA,NA,NA,NA,NA,NA
"426","stim/objects/Instruments/cello4.png",285,38,278,0.7,"stim/41.jpeg",4,1,2,1,"Instruments",1,1,"left","left",0.680000067,1,1,1,0,82,38,1,0.7,1,"stim/41.jpeg",4,1,"stim/41.jpeg",1,"left",1.066999912,3,1,4.864000082,3,1.207000017,82,1,1,1,0,0,1
"275","stim/objects/HouseObjects/clothespin3.png",286,38,279,0.7,"stim/31.jpeg",3,1,2,2,"HouseObjects",2,1,"right","right",0.888999939,1,1,1,0,NA,NA,NA,NA,NA,NA,NA,NA,NA,NA,NA,NA,NA,NA,NA,NA,NA,NA,NA,NA,NA,NA,NA,NA
"494","stim/objects/Instruments/frenchhorn3.png",287,38,280,0.9,"stim/61.jpeg",6,1,3,2,"Instruments",1,1,"left","left",0.514999866,1,1,1,0,NA,NA,NA,NA,NA,NA,NA,NA,NA,NA,NA,NA,NA,NA,NA,NA,NA,NA,NA,NA,NA,NA,NA,NA
"551","stim/objects/Instruments/laud3.png",288,38,281,0.5,"stim/21.jpeg",2,1,1,1,"Instruments",1,1,"left","left",0.552999973,1,1,1,0,145,38,1,0.5,2,"stim/21.jpeg",2,1,"stim/21.jpeg",1,"left",2.717000008,4,3,2.941999912,3,1.59800005,145,1,0,0,0,0,1
"341","stim/objects/HouseObjects/flyswatter4.png",289,38,282,0.9,"stim/51.jpeg",5,1,3,1,"HouseObjects",2,1,"right","right",0.406999826,1,1,1,0,40,38,1,0.9,2,"stim/51.jpeg",5,1,"stim/51.jpeg",1,"right",1.485000134,4,1,3.846999884,3,3.536999941,40,0,1,NA,0,NA,1
"449","stim/objects/Instruments/electricdrumset3.png",290,38,283,0.7,"stim/44.jpeg",4,4,2,2,"Instruments",1,1,"left","left",0.445999861,1,1,1,0,NA,NA,NA,NA,NA,NA,NA,NA,NA,NA,NA,NA,NA,NA,NA,NA,NA,NA,NA,NA,NA,NA,NA,NA
"554","stim/objects/Instruments/maraca4.png",291,38,284,0.9,"stim/62.jpeg",6,2,3,1,"Instruments",1,4,"left","left",0.459000111,1,1,1,0,21,38,1,0.9,1,"stim/62.jpeg",6,2,"stim/62.jpeg",4,"left",2.657999992,2,1,2.994999886,3,6.541999817,21,1,0,0,0,0,1
"360","stim/objects/HouseObjects/glass3.png",292,38,285,0.9,"stim/51.jpeg",5,1,3,2,"HouseObjects",2,1,"right","right",0.5,1,1,1,0,NA,NA,NA,NA,NA,NA,NA,NA,NA,NA,NA,NA,NA,NA,NA,NA,NA,NA,NA,NA,NA,NA,NA,NA
"309","stim/objects/HouseObjects/dustpan3.png",293,38,286,0.9,"stim/51.jpeg",5,1,3,2,"HouseObjects",2,2,"right","right",0.379000187,1,1,1,0,NA,NA,NA,NA,NA,NA,NA,NA,NA,NA,NA,NA,NA,NA,NA,NA,NA,NA,NA,NA,NA,NA,NA,NA
"361","stim/objects/HouseObjects/glass3.png",294,38,287,0.9,"stim/52.jpeg",5,2,3,2,"HouseObjects",2,2,"right","right",0.47300005,1,1,1,0,NA,NA,NA,NA,NA,NA,NA,NA,NA,NA,NA,NA,NA,NA,NA,NA,NA,NA,NA,NA,NA,NA,NA,NA
"358","stim/objects/HouseObjects/garbagebin4.png",295,38,288,0.9,"stim/52.jpeg",5,2,3,1,"HouseObjects",2,1,"right","right",0.447000027,1,1,1,0,112,38,1,0.9,2,"stim/52.jpeg",5,2,"stim/52.jpeg",1,"left",1.248999834,4,3,3.234999895,3,3.557999849,112,1,0,0,0,0,1
"511","stim/objects/Instruments/gong3.png",296,38,289,0.9,"stim/61.jpeg",6,1,3,2,"Instruments",1,1,"left","left",0.496999979,1,1,1,0,NA,NA,NA,NA,NA,NA,NA,NA,NA,NA,NA,NA,NA,NA,NA,NA,NA,NA,NA,NA,NA,NA,NA,NA
"268","stim/objects/HouseObjects/clock3.png",297,38,290,0.5,"stim/22.jpeg",2,2,1,2,"HouseObjects",2,2,"right","left",0.667000055,0,0,1,0,NA,NA,NA,NA,NA,NA,NA,NA,NA,NA,NA,NA,NA,NA,NA,NA,NA,NA,NA,NA,NA,NA,NA,NA
"287","stim/objects/HouseObjects/dishsoap3.png",298,38,291,0.7,"stim/34.jpeg",3,4,2,2,"HouseObjects",2,4,"right","right",0.48300004,1,1,1,0,NA,NA,NA,NA,NA,NA,NA,NA,NA,NA,NA,NA,NA,NA,NA,NA,NA,NA,NA,NA,NA,NA,NA,NA
"475","stim/objects/Instruments/flutetrans3.png",299,38,292,0.9,"stim/61.jpeg",6,1,3,2,"Instruments",1,3,"left","left",0.447000027,1,1,1,0,NA,NA,NA,NA,NA,NA,NA,NA,NA,NA,NA,NA,NA,NA,NA,NA,NA,NA,NA,NA,NA,NA,NA,NA
"327","stim/objects/HouseObjects/flyswatter3.png",300,38,293,0.9,"stim/54.jpeg",5,4,3,2,"HouseObjects",2,2,"right","right",0.461999893,1,1,1,0,NA,NA,NA,NA,NA,NA,NA,NA,NA,NA,NA,NA,NA,NA,NA,NA,NA,NA,NA,NA,NA,NA,NA,NA
"427","stim/objects/Instruments/chime3.png",301,38,294,0.5,"stim/21.jpeg",2,1,1,2,"Instruments",1,2,"left","left",0.590000153,1,1,1,0,NA,NA,NA,NA,NA,NA,NA,NA,NA,NA,NA,NA,NA,NA,NA,NA,NA,NA,NA,NA,NA,NA,NA,NA
"295","stim/objects/HouseObjects/doormat3.png",302,38,295,0.9,"stim/53.jpeg",5,3,3,2,"HouseObjects",2,2,"right","right",0.601999998,1,1,1,0,NA,NA,NA,NA,NA,NA,NA,NA,NA,NA,NA,NA,NA,NA,NA,NA,NA,NA,NA,NA,NA,NA,NA,NA
"344","stim/objects/HouseObjects/garbagebin3.png",303,38,296,0.9,"stim/52.jpeg",5,2,3,2,"HouseObjects",2,4,"right","right",0.585000038,1,1,1,0,NA,NA,NA,NA,NA,NA,NA,NA,NA,NA,NA,NA,NA,NA,NA,NA,NA,NA,NA,NA,NA,NA,NA,NA
"411","stim/objects/Instruments/acousticguitar4.png",304,38,297,0.3,"stim/33.jpeg",3,3,2,1,"Instruments",1,3,"left","right",0.605999947,0,0,1,0,153,38,1,0.3,1,"stim/33.jpeg",3,3,"stim/33.jpeg",3,"right",0.778000116,3,2,1.393000126,3,0.734999895,153,0,0,NA,1,NA,1
"546","stim/objects/Instruments/harp4.png",305,38,298,0.1,"stim/54.jpeg",5,4,3,1,"Instruments",1,2,"left","right",0.593999863,0,0,1,0,98,38,1,0.1,1,"stim/54.jpeg",5,4,"stim/54.jpeg",2,"right",2.611000061,2,3,1.572999954,4,1.061000109,98,0,0,NA,0,NA,1
"387","stim/objects/HouseObjects/ironingboard4.png",306,38,299,0.1,"stim/63.jpeg",6,3,3,1,"HouseObjects",2,4,"right","left",0.577000141,0,0,1,0,95,38,1,0.1,2,"stim/63.jpeg",6,3,"stim/63.jpeg",4,"left",1.146000147,4,4,4.25,2,1.77699995,95,1,0,0,0,0,1
"497","stim/objects/Instruments/frenchhorn3.png",307,38,300,0.9,"stim/63.jpeg",6,3,3,2,"Instruments",1,1,"left","left",0.516000032,1,1,1,0,NA,NA,NA,NA,NA,NA,NA,NA,NA,NA,NA,NA,NA,NA,NA,NA,NA,NA,NA,NA,NA,NA,NA,NA
"491","stim/objects/Instruments/frenchhorn3.png",308,38,301,0.9,"stim/64.jpeg",6,4,3,2,"Instruments",1,3,"left","left",0.503000021,1,1,1,0,NA,NA,NA,NA,NA,NA,NA,NA,NA,NA,NA,NA,NA,NA,NA,NA,NA,NA,NA,NA,NA,NA,NA,NA
"429","stim/objects/Instruments/chime4.png",309,38,302,0.7,"stim/42.jpeg",4,2,2,1,"Instruments",1,4,"left","right",0.804000139,0,0,1,0,148,38,1,0.7,1,"stim/42.jpeg",4,2,"stim/42.jpeg",4,"left",2.354000092,4,3,4.056999922,4,3.351999998,148,1,0,0,1,1,1
"285","stim/objects/HouseObjects/cushion3.png",310,38,303,0.7,"stim/32.jpeg",3,2,2,2,"HouseObjects",2,1,"right","right",0.468999863,1,1,1,0,NA,NA,NA,NA,NA,NA,NA,NA,NA,NA,NA,NA,NA,NA,NA,NA,NA,NA,NA,NA,NA,NA,NA,NA
"451","stim/objects/Instruments/electricdrumset4.png",311,38,304,0.7,"stim/44.jpeg",4,4,2,1,"Instruments",1,3,"left","",NA,0,0,1,0,118,38,1,0.7,1,"stim/44.jpeg",4,4,"stim/44.jpeg",3,"left",1.215999842,3,2,6.019000053,3,0.664999962,118,1,0,0,1,1,1
"381","stim/objects/HouseObjects/handbrush4.png",312,38,305,0.9,"stim/52.jpeg",5,2,3,1,"HouseObjects",2,1,"right","right",0.450999975,1,1,1,0,130,38,1,0.9,2,"stim/52.jpeg",5,2,"stim/52.jpeg",1,"left",1.123000145,4,1,2.326000214,4,2.651000023,130,1,0,0,0,0,1
"246","stim/objects/HouseObjects/ballofstring4.png",313,38,306,0.7,"stim/34.jpeg",3,4,2,1,"HouseObjects",2,4,"right","right",0.440999985,1,1,1,0,30,38,1,0.7,2,"stim/34.jpeg",3,4,"stim/34.jpeg",4,"left",2.256000042,4,1,3.026000023,4,1.611999989,30,1,0,0,1,1,1
"362","stim/objects/HouseObjects/glass3.png",314,38,307,0.9,"stim/53.jpeg",5,3,3,2,"HouseObjects",2,3,"right","right",0.496000051,1,1,1,0,NA,NA,NA,NA,NA,NA,NA,NA,NA,NA,NA,NA,NA,NA,NA,NA,NA,NA,NA,NA,NA,NA,NA,NA
"430","stim/objects/Instruments/clarinet3.png",315,38,308,0.5,"stim/22.jpeg",2,2,1,2,"Instruments",1,1,"left","left",0.487999916,1,1,1,0,NA,NA,NA,NA,NA,NA,NA,NA,NA,NA,NA,NA,NA,NA,NA,NA,NA,NA,NA,NA,NA,NA,NA,NA
"288","stim/objects/HouseObjects/dishsoap3.png",316,38,309,0.7,"stim/31.jpeg",3,1,2,2,"HouseObjects",2,1,"right","right",0.681999922,1,1,1,0,NA,NA,NA,NA,NA,NA,NA,NA,NA,NA,NA,NA,NA,NA,NA,NA,NA,NA,NA,NA,NA,NA,NA,NA
"363","stim/objects/HouseObjects/glass3.png",317,38,310,0.9,"stim/51.jpeg",5,1,3,2,"HouseObjects",2,3,"right","right",0.489000082,1,1,1,0,NA,NA,NA,NA,NA,NA,NA,NA,NA,NA,NA,NA,NA,NA,NA,NA,NA,NA,NA,NA,NA,NA,NA,NA
"424","stim/objects/Instruments/cello3.png",318,38,311,0.5,"stim/21.jpeg",2,1,1,2,"Instruments",1,4,"left","left",0.496999979,1,1,1,0,NA,NA,NA,NA,NA,NA,NA,NA,NA,NA,NA,NA,NA,NA,NA,NA,NA,NA,NA,NA,NA,NA,NA,NA
"472","stim/objects/Instruments/flute4.png",319,38,312,0.1,"stim/51.jpeg",5,1,3,1,"Instruments",1,3,"left","right",0.472000122,0,0,1,0,137,38,1,0.1,1,"stim/51.jpeg",5,1,"stim/51.jpeg",3,"right",1.00999999,3,4,3.299999952,3,2.404000044,137,0,0,NA,1,NA,1
"540","stim/objects/Instruments/grandpiano4.png",320,38,313,0.1,"stim/51.jpeg",5,1,3,1,"Instruments",1,4,"left","right",0.605000019,0,0,1,0,135,38,1,0.1,1,"stim/51.jpeg",5,1,"stim/51.jpeg",4,"right",0.851000071,4,3,1.389999866,2,2.667000055,135,0,0,NA,0,NA,1
"259","stim/objects/HouseObjects/bottle3.png",321,38,314,0.5,"stim/23.jpeg",2,3,1,2,"HouseObjects",2,3,"right","right",0.796000004,1,1,1,0,NA,NA,NA,NA,NA,NA,NA,NA,NA,NA,NA,NA,NA,NA,NA,NA,NA,NA,NA,NA,NA,NA,NA,NA
"399","stim/objects/HouseObjects/pitcher4.png",322,38,315,0.1,"stim/61.jpeg",6,1,3,1,"HouseObjects",2,4,"right","left",0.477999926,0,0,1,0,71,38,1,0.1,2,"stim/61.jpeg",6,1,"stim/61.jpeg",4,"left",1.68900013,3,2,4.130000114,1,2.181999922,71,1,0,0,0,0,1
"364","stim/objects/HouseObjects/glass3.png",323,38,316,0.9,"stim/54.jpeg",5,4,3,2,"HouseObjects",2,2,"right","right",0.542000055,1,1,1,0,NA,NA,NA,NA,NA,NA,NA,NA,NA,NA,NA,NA,NA,NA,NA,NA,NA,NA,NA,NA,NA,NA,NA,NA
"329","stim/objects/HouseObjects/flyswatter3.png",324,38,317,0.9,"stim/54.jpeg",5,4,3,2,"HouseObjects",2,2,"right","right",0.451999903,1,1,1,0,NA,NA,NA,NA,NA,NA,NA,NA,NA,NA,NA,NA,NA,NA,NA,NA,NA,NA,NA,NA,NA,NA,NA,NA
"440","stim/objects/Instruments/doublebass3.png",325,38,318,0.7,"stim/42.jpeg",4,2,2,2,"Instruments",1,2,"left","left",0.613000154,1,1,1,0,NA,NA,NA,NA,NA,NA,NA,NA,NA,NA,NA,NA,NA,NA,NA,NA,NA,NA,NA,NA,NA,NA,NA,NA
"365","stim/objects/HouseObjects/glass3.png",326,38,319,0.9,"stim/54.jpeg",5,4,3,2,"HouseObjects",2,1,"right","right",0.667000055,1,1,1,0,NA,NA,NA,NA,NA,NA,NA,NA,NA,NA,NA,NA,NA,NA,NA,NA,NA,NA,NA,NA,NA,NA,NA,NA
"410","stim/objects/Instruments/acousticguitar3.png",327,38,320,0.5,"stim/13.jpeg",1,3,1,2,"Instruments",1,3,"left","left",0.743999958,1,1,1,0,NA,NA,NA,NA,NA,NA,NA,NA,NA,NA,NA,NA,NA,NA,NA,NA,NA,NA,NA,NA,NA,NA,NA,NA
"528","stim/objects/Instruments/grandpiano3.png",328,38,321,0.9,"stim/61.jpeg",6,1,3,2,"Instruments",1,4,"left","left",0.628999949,1,1,1,0,NA,NA,NA,NA,NA,NA,NA,NA,NA,NA,NA,NA,NA,NA,NA,NA,NA,NA,NA,NA,NA,NA,NA,NA
"437","stim/objects/Instruments/cymbal3.png",329,38,322,0.7,"stim/43.jpeg",4,3,2,2,"Instruments",1,3,"left","left",0.833999872,1,1,1,0,NA,NA,NA,NA,NA,NA,NA,NA,NA,NA,NA,NA,NA,NA,NA,NA,NA,NA,NA,NA,NA,NA,NA,NA
"298","stim/objects/HouseObjects/doormat3.png",330,38,323,0.9,"stim/53.jpeg",5,3,3,2,"HouseObjects",2,2,"right","left",0.792000055,0,0,1,0,NA,NA,NA,NA,NA,NA,NA,NA,NA,NA,NA,NA,NA,NA,NA,NA,NA,NA,NA,NA,NA,NA,NA,NA
"250","stim/objects/HouseObjects/basket3.png",331,38,324,0.5,"stim/13.jpeg",1,3,1,2,"HouseObjects",2,3,"right","left",0.685000181,0,0,1,0,NA,NA,NA,NA,NA,NA,NA,NA,NA,NA,NA,NA,NA,NA,NA,NA,NA,NA,NA,NA,NA,NA,NA,NA
"261","stim/objects/HouseObjects/bottle4.png",332,38,325,0.3,"stim/43.jpeg",4,3,2,1,"HouseObjects",2,3,"right","right",0.350000143,1,1,1,0,88,38,1,0.3,2,"stim/43.jpeg",4,3,"stim/43.jpeg",3,"left",1.008000135,3,2,2.026000023,3,0.252000093,88,1,0,0,1,1,1
"529","stim/objects/Instruments/grandpiano3.png",333,38,326,0.9,"stim/62.jpeg",6,2,3,2,"Instruments",1,2,"left","left",0.472999811,1,1,1,0,NA,NA,NA,NA,NA,NA,NA,NA,NA,NA,NA,NA,NA,NA,NA,NA,NA,NA,NA,NA,NA,NA,NA,NA
"431","stim/objects/Instruments/clarinet3.png",334,38,327,0.5,"stim/23.jpeg",2,3,1,2,"Instruments",1,1,"left","left",0.571999788,1,1,1,0,NA,NA,NA,NA,NA,NA,NA,NA,NA,NA,NA,NA,NA,NA,NA,NA,NA,NA,NA,NA,NA,NA,NA,NA
"530","stim/objects/Instruments/grandpiano3.png",335,38,328,0.9,"stim/63.jpeg",6,3,3,2,"Instruments",1,3,"left","left",0.555999994,1,1,1,0,NA,NA,NA,NA,NA,NA,NA,NA,NA,NA,NA,NA,NA,NA,NA,NA,NA,NA,NA,NA,NA,NA,NA,NA
"330","stim/objects/HouseObjects/flyswatter3.png",336,38,329,0.9,"stim/54.jpeg",5,4,3,2,"HouseObjects",2,3,"right","right",0.773999929,1,1,1,0,NA,NA,NA,NA,NA,NA,NA,NA,NA,NA,NA,NA,NA,NA,NA,NA,NA,NA,NA,NA,NA,NA,NA,NA
"455","stim/objects/Instruments/electricguitar4.png",337,38,330,0.7,"stim/41.jpeg",4,1,2,1,"Instruments",1,3,"left","left",0.600999832,1,1,1,0,156,38,1,0.7,1,"stim/41.jpeg",4,1,"stim/41.jpeg",3,"right",1.055000067,3,3,1.008999825,2,2.45600009,156,0,0,NA,0,NA,1
"257","stim/objects/HouseObjects/blender3.png",338,38,331,0.5,"stim/23.jpeg",2,3,1,2,"HouseObjects",2,2,"right","left",0.535000086,0,0,1,0,NA,NA,NA,NA,NA,NA,NA,NA,NA,NA,NA,NA,NA,NA,NA,NA,NA,NA,NA,NA,NA,NA,NA,NA
"541","stim/objects/Instruments/guitarcase3.png",339,38,332,0.5,"stim/13.jpeg",1,3,1,1,"Instruments",1,1,"left","",NA,0,0,1,0,94,38,1,0.5,1,"stim/13.jpeg",1,3,"stim/13.jpeg",1,"right",3.096999884,3,2,1.207999945,3,1.154000044,94,0,0,NA,0,NA,1
"513","stim/objects/Instruments/gong3.png",340,38,333,0.9,"stim/63.jpeg",6,3,3,2,"Instruments",1,4,"left","left",0.485999823,1,1,1,0,NA,NA,NA,NA,NA,NA,NA,NA,NA,NA,NA,NA,NA,NA,NA,NA,NA,NA,NA,NA,NA,NA,NA,NA
"500","stim/objects/Instruments/frenchhorn3.png",341,38,334,0.9,"stim/62.jpeg",6,2,3,2,"Instruments",1,4,"left","left",0.511000156,1,1,1,0,NA,NA,NA,NA,NA,NA,NA,NA,NA,NA,NA,NA,NA,NA,NA,NA,NA,NA,NA,NA,NA,NA,NA,NA
"265","stim/objects/HouseObjects/bucket3.png",342,38,335,0.5,"stim/22.jpeg",2,2,1,2,"HouseObjects",2,3,"right","left",0.920000076,0,0,1,0,NA,NA,NA,NA,NA,NA,NA,NA,NA,NA,NA,NA,NA,NA,NA,NA,NA,NA,NA,NA,NA,NA,NA,NA
"477","stim/objects/Instruments/flutetrans3.png",343,38,336,0.9,"stim/64.jpeg",6,4,3,2,"Instruments",1,1,"left","left",0.515000105,1,1,1,0,NA,NA,NA,NA,NA,NA,NA,NA,NA,NA,NA,NA,NA,NA,NA,NA,NA,NA,NA,NA,NA,NA,NA,NA
"398","stim/objects/HouseObjects/pitcher3.png",344,38,337,0.7,"stim/33.jpeg",3,3,2,1,"HouseObjects",2,2,"right","right",0.446000099,1,1,1,0,41,38,1,0.7,2,"stim/33.jpeg",3,3,"stim/33.jpeg",2,"left",1.203999996,4,4,3.28399992,2,2.069000006,41,1,0,0,1,1,1
"299","stim/objects/HouseObjects/doormat3.png",345,38,338,0.9,"stim/52.jpeg",5,2,3,2,"HouseObjects",2,3,"right","right",0.855000019,1,1,1,0,NA,NA,NA,NA,NA,NA,NA,NA,NA,NA,NA,NA,NA,NA,NA,NA,NA,NA,NA,NA,NA,NA,NA,NA
"496","stim/objects/Instruments/frenchhorn3.png",346,38,339,0.9,"stim/61.jpeg",6,1,3,2,"Instruments",1,4,"left","",NA,0,0,1,0,NA,NA,NA,NA,NA,NA,NA,NA,NA,NA,NA,NA,NA,NA,NA,NA,NA,NA,NA,NA,NA,NA,NA,NA
"478","stim/objects/Instruments/flutetrans3.png",347,38,340,0.9,"stim/63.jpeg",6,3,3,2,"Instruments",1,1,"left","left",0.510999918,1,1,1,0,NA,NA,NA,NA,NA,NA,NA,NA,NA,NA,NA,NA,NA,NA,NA,NA,NA,NA,NA,NA,NA,NA,NA,NA
"284","stim/objects/HouseObjects/cushion3.png",348,38,341,0.7,"stim/34.jpeg",3,4,2,2,"HouseObjects",2,1,"right","right",0.638000011,1,1,1,0,NA,NA,NA,NA,NA,NA,NA,NA,NA,NA,NA,NA,NA,NA,NA,NA,NA,NA,NA,NA,NA,NA,NA,NA
"347","stim/objects/HouseObjects/garbagebin3.png",349,38,342,0.9,"stim/51.jpeg",5,1,3,2,"HouseObjects",2,1,"right","right",0.427999973,1,1,1,0,NA,NA,NA,NA,NA,NA,NA,NA,NA,NA,NA,NA,NA,NA,NA,NA,NA,NA,NA,NA,NA,NA,NA,NA
"382","stim/objects/HouseObjects/handvacuum3.png",350,38,343,0.5,"stim/11.jpeg",1,1,1,1,"HouseObjects",2,4,"right","right",0.571000099,1,1,1,0,8,38,1,0.5,1,"stim/11.jpeg",1,1,"stim/11.jpeg",4,"left",0.756000042,3,4,4.901000023,4,4.272000074,8,1,0,0,1,1,1
"556","stim/objects/Instruments/marimba4.png",351,38,344,0.9,"stim/63.jpeg",6,3,3,1,"Instruments",1,3,"left","left",0.492000103,1,1,1,0,128,38,1,0.9,1,"stim/63.jpeg",6,3,"stim/63.jpeg",3,"left",1.127000093,4,3,3.448999882,1,6.586999893,128,1,1,1,0,0,1
"480","stim/objects/Instruments/flutetrans3.png",352,38,345,0.9,"stim/64.jpeg",6,4,3,2,"Instruments",1,2,"left","left",0.495999813,1,1,1,0,NA,NA,NA,NA,NA,NA,NA,NA,NA,NA,NA,NA,NA,NA,NA,NA,NA,NA,NA,NA,NA,NA,NA,NA
"412","stim/objects/Instruments/balalaika3.png",353,38,346,0.5,"stim/13.jpeg",1,3,1,2,"Instruments",1,1,"left","left",0.654000044,1,1,1,0,NA,NA,NA,NA,NA,NA,NA,NA,NA,NA,NA,NA,NA,NA,NA,NA,NA,NA,NA,NA,NA,NA,NA,NA
"506","stim/objects/Instruments/frenchhorn4.png",354,38,347,0.1,"stim/53.jpeg",5,3,3,1,"Instruments",1,4,"left","right",0.880000114,0,0,1,0,167,38,1,0.1,1,"stim/53.jpeg",5,3,"stim/53.jpeg",4,"left",0.784999847,3,3,3.720000029,2,0.696000099,167,1,1,1,0,0,1
"348","stim/objects/HouseObjects/garbagebin3.png",355,38,348,0.9,"stim/53.jpeg",5,3,3,2,"HouseObjects",2,3,"right","right",0.585999966,1,1,1,0,NA,NA,NA,NA,NA,NA,NA,NA,NA,NA,NA,NA,NA,NA,NA,NA,NA,NA,NA,NA,NA,NA,NA,NA
"481","stim/objects/Instruments/flutetrans3.png",356,38,349,0.9,"stim/62.jpeg",6,2,3,2,"Instruments",1,2,"left","left",0.489000082,1,1,1,0,NA,NA,NA,NA,NA,NA,NA,NA,NA,NA,NA,NA,NA,NA,NA,NA,NA,NA,NA,NA,NA,NA,NA,NA
"443","stim/objects/Instruments/doublebass4.png",357,38,350,0.7,"stim/42.jpeg",4,2,2,1,"Instruments",1,4,"left","left",0.625,1,1,1,0,188,38,1,0.7,1,"stim/42.jpeg",4,2,"stim/42.jpeg",4,"right",0.929000139,2,2,1.302999973,3,0.959000111,188,0,1,NA,0,NA,1
"385","stim/objects/HouseObjects/iron4.png",358,38,351,0.9,"stim/54.jpeg",5,4,3,1,"HouseObjects",2,2,"right","right",0.565000057,1,1,1,0,86,38,1,0.9,2,"stim/54.jpeg",5,4,"stim/54.jpeg",2,"right",1.121999979,3,4,2.171000004,3,1.751000166,86,0,1,NA,0,NA,1
"402","stim/objects/HouseObjects/vacuumcleaner3.png",359,38,352,0.7,"stim/31.jpeg",3,1,2,1,"HouseObjects",2,3,"right","left",0.749000072,0,0,1,0,189,38,1,0.7,2,"stim/31.jpeg",3,1,"stim/31.jpeg",3,"right",0.667000055,2,3,1.338999987,2,2.304000139,189,0,0,NA,0,NA,1
"350","stim/objects/HouseObjects/garbagebin3.png",360,38,353,0.9,"stim/52.jpeg",5,2,3,2,"HouseObjects",2,1,"right","right",0.510999918,1,1,1,0,NA,NA,NA,NA,NA,NA,NA,NA,NA,NA,NA,NA,NA,NA,NA,NA,NA,NA,NA,NA,NA,NA,NA,NA
"274","stim/objects/HouseObjects/clothesdryingrack4.png",361,38,354,0.3,"stim/43.jpeg",4,3,2,1,"HouseObjects",2,2,"right","left",0.700999975,0,0,1,0,47,38,1,0.3,2,"stim/43.jpeg",4,3,"stim/43.jpeg",2,"left",0.862999916,2,3,2.782000065,2,0.758000135,47,1,1,1,1,1,1
"331","stim/objects/HouseObjects/flyswatter3.png",362,38,355,0.9,"stim/53.jpeg",5,3,3,2,"HouseObjects",2,3,"right","right",0.870999813,1,1,1,0,NA,NA,NA,NA,NA,NA,NA,NA,NA,NA,NA,NA,NA,NA,NA,NA,NA,NA,NA,NA,NA,NA,NA,NA
"351","stim/objects/HouseObjects/garbagebin3.png",363,38,356,0.9,"stim/51.jpeg",5,1,3,2,"HouseObjects",2,4,"right","right",0.493000031,1,1,1,0,NA,NA,NA,NA,NA,NA,NA,NA,NA,NA,NA,NA,NA,NA,NA,NA,NA,NA,NA,NA,NA,NA,NA,NA
"563","stim/objects/Instruments/oboe3.png",364,38,357,0.3,"stim/32.jpeg",3,2,2,1,"Instruments",1,4,"left","right",0.460000038,0,0,1,0,68,38,1,0.3,1,"stim/32.jpeg",3,2,"stim/32.jpeg",4,"left",1.687999964,4,2,2.657000065,2,0.628999949,68,1,1,1,0,0,1
"313","stim/objects/HouseObjects/dustpan3.png",365,38,358,0.9,"stim/54.jpeg",5,4,3,2,"HouseObjects",2,2,"right","right",0.445999861,1,1,1,0,NA,NA,NA,NA,NA,NA,NA,NA,NA,NA,NA,NA,NA,NA,NA,NA,NA,NA,NA,NA,NA,NA,NA,NA
"260","stim/objects/HouseObjects/bottle3.png",366,38,359,0.5,"stim/24.jpeg",2,4,1,2,"HouseObjects",2,1,"right","left",0.510999918,0,0,1,0,NA,NA,NA,NA,NA,NA,NA,NA,NA,NA,NA,NA,NA,NA,NA,NA,NA,NA,NA,NA,NA,NA,NA,NA
"461","stim/objects/Instruments/flute3.png",367,38,360,0.9,"stim/63.jpeg",6,3,3,2,"Instruments",1,1,"left","left",0.404999971,1,1,1,0,NA,NA,NA,NA,NA,NA,NA,NA,NA,NA,NA,NA,NA,NA,NA,NA,NA,NA,NA,NA,NA,NA,NA,NA
"438","stim/objects/Instruments/cymbal3.png",368,38,361,0.7,"stim/41.jpeg",4,1,2,2,"Instruments",1,3,"left","left",0.663999796,1,1,1,0,NA,NA,NA,NA,NA,NA,NA,NA,NA,NA,NA,NA,NA,NA,NA,NA,NA,NA,NA,NA,NA,NA,NA,NA
"391","stim/objects/HouseObjects/knife4.png",369,38,362,0.1,"stim/61.jpeg",6,1,3,1,"HouseObjects",2,3,"right","left",0.460999966,0,0,1,0,99,38,1,0.1,2,"stim/61.jpeg",6,1,"stim/61.jpeg",3,"left",1.417999983,4,3,7.471999884,3,0.999000072,99,1,0,0,1,1,1
"435","stim/objects/Instruments/cornet4.png",370,38,363,0.7,"stim/44.jpeg",4,4,2,1,"Instruments",1,4,"left","left",0.595000029,1,1,1,0,50,38,1,0.7,1,"stim/44.jpeg",4,4,"stim/44.jpeg",4,"left",1.299000025,4,3,2.469000101,2,0.855999947,50,1,0,0,0,0,1
"277","stim/objects/HouseObjects/clothespin3.png",371,38,364,0.7,"stim/32.jpeg",3,2,2,2,"HouseObjects",2,1,"right","right",0.54399991,1,1,1,0,NA,NA,NA,NA,NA,NA,NA,NA,NA,NA,NA,NA,NA,NA,NA,NA,NA,NA,NA,NA,NA,NA,NA,NA
"366","stim/objects/HouseObjects/glass3.png",372,38,365,0.9,"stim/54.jpeg",5,4,3,2,"HouseObjects",2,3,"right","right",0.492999792,1,1,1,0,NA,NA,NA,NA,NA,NA,NA,NA,NA,NA,NA,NA,NA,NA,NA,NA,NA,NA,NA,NA,NA,NA,NA,NA
"559","stim/objects/Instruments/musicsheet3.png",373,38,366,0.5,"stim/21.jpeg",2,1,1,1,"Instruments",1,1,"left","",NA,0,0,1,0,168,38,1,0.5,2,"stim/21.jpeg",2,1,"stim/21.jpeg",1,"right",3.355999947,2,2,1.079999924,2,3.356999874,168,0,0,NA,0,NA,1
"367","stim/objects/HouseObjects/glass3.png",374,38,367,0.9,"stim/52.jpeg",5,2,3,2,"HouseObjects",2,1,"right","right",0.444000006,1,1,1,0,NA,NA,NA,NA,NA,NA,NA,NA,NA,NA,NA,NA,NA,NA,NA,NA,NA,NA,NA,NA,NA,NA,NA,NA
"271","stim/objects/HouseObjects/clothesdryingrack3.png",375,38,368,0.7,"stim/34.jpeg",3,4,2,2,"HouseObjects",2,3,"right","right",0.733999968,1,1,1,0,NA,NA,NA,NA,NA,NA,NA,NA,NA,NA,NA,NA,NA,NA,NA,NA,NA,NA,NA,NA,NA,NA,NA,NA
"462","stim/objects/Instruments/flute3.png",376,38,369,0.9,"stim/61.jpeg",6,1,3,2,"Instruments",1,2,"left","left",0.413000107,1,1,1,0,NA,NA,NA,NA,NA,NA,NA,NA,NA,NA,NA,NA,NA,NA,NA,NA,NA,NA,NA,NA,NA,NA,NA,NA
"311","stim/objects/HouseObjects/dustpan3.png",377,38,370,0.9,"stim/53.jpeg",5,3,3,2,"HouseObjects",2,4,"right","right",0.50999999,1,1,1,0,NA,NA,NA,NA,NA,NA,NA,NA,NA,NA,NA,NA,NA,NA,NA,NA,NA,NA,NA,NA,NA,NA,NA,NA
"315","stim/objects/HouseObjects/dustpan3.png",378,38,371,0.9,"stim/52.jpeg",5,2,3,2,"HouseObjects",2,1,"right","right",0.550000191,1,1,1,0,NA,NA,NA,NA,NA,NA,NA,NA,NA,NA,NA,NA,NA,NA,NA,NA,NA,NA,NA,NA,NA,NA,NA,NA
"544","stim/objects/Instruments/harmonica4.png",379,38,372,0.1,"stim/53.jpeg",5,3,3,1,"Instruments",1,3,"left","right",0.552999973,0,0,1,0,66,38,1,0.1,1,"stim/53.jpeg",5,3,"stim/53.jpeg",3,"right",1.106999874,3,4,9.059000015,2,3.717999935,66,0,0,NA,0,NA,1
"286","stim/objects/HouseObjects/cushion4.png",380,38,373,0.3,"stim/42.jpeg",4,2,2,1,"HouseObjects",2,2,"right","left",0.522000074,0,0,1,0,9,38,1,0.3,2,"stim/42.jpeg",4,2,"stim/42.jpeg",2,"right",6.601999998,2,4,6.611000061,4,12.49099994,9,0,0,NA,0,NA,1
"561","stim/objects/Instruments/musicstand3.png",381,38,374,0.3,"stim/31.jpeg",3,1,2,1,"Instruments",1,2,"left","right",0.438999891,0,0,1,0,84,38,1,0.3,1,"stim/31.jpeg",3,1,"stim/31.jpeg",2,"left",2.015000105,3,3,2.111999989,3,0.586999893,84,1,0,0,0,0,1
"383","stim/objects/HouseObjects/handvacuum4.png",382,38,375,0.9,"stim/53.jpeg",5,3,3,1,"HouseObjects",2,3,"right","right",0.482000113,1,1,1,0,173,38,1,0.9,2,"stim/53.jpeg",5,3,"stim/53.jpeg",3,"right",3.56799984,1,4,4.304000139,4,2.882999897,173,0,0,NA,0,NA,1
"490","stim/objects/Instruments/frenchhorn3.png",383,38,376,0.9,"stim/62.jpeg",6,2,3,2,"Instruments",1,4,"left","left",0.496000051,1,1,1,0,NA,NA,NA,NA,NA,NA,NA,NA,NA,NA,NA,NA,NA,NA,NA,NA,NA,NA,NA,NA,NA,NA,NA,NA
"316","stim/objects/HouseObjects/dustpan3.png",384,38,377,0.9,"stim/52.jpeg",5,2,3,2,"HouseObjects",2,4,"right","right",0.489000082,1,1,1,0,NA,NA,NA,NA,NA,NA,NA,NA,NA,NA,NA,NA,NA,NA,NA,NA,NA,NA,NA,NA,NA,NA,NA,NA
"301","stim/objects/HouseObjects/doormat3.png",385,38,378,0.9,"stim/51.jpeg",5,1,3,2,"HouseObjects",2,2,"right","right",0.42599988,1,1,1,0,NA,NA,NA,NA,NA,NA,NA,NA,NA,NA,NA,NA,NA,NA,NA,NA,NA,NA,NA,NA,NA,NA,NA,NA
"565","stim/objects/Instruments/violin3.png",386,38,379,0.3,"stim/33.jpeg",3,3,2,1,"Instruments",1,1,"left","right",0.440999985,0,0,1,0,48,38,1,0.3,1,"stim/33.jpeg",3,3,"stim/33.jpeg",1,"right",1.886000156,2,4,2.207999945,3,1.552999973,48,0,0,NA,0,NA,1
"384","stim/objects/HouseObjects/iron3.png",387,38,380,0.5,"stim/12.jpeg",1,2,1,1,"HouseObjects",2,2,"right","left",0.858999968,0,0,1,0,178,38,1,0.5,1,"stim/12.jpeg",1,2,"stim/12.jpeg",2,"right",0.789999962,3,2,1.664000034,3,0.950000048,178,0,1,NA,0,NA,1
"531","stim/objects/Instruments/grandpiano3.png",388,38,381,0.9,"stim/63.jpeg",6,3,3,2,"Instruments",1,1,"left","left",0.39199996,1,1,1,0,NA,NA,NA,NA,NA,NA,NA,NA,NA,NA,NA,NA,NA,NA,NA,NA,NA,NA,NA,NA,NA,NA,NA,NA
"523","stim/objects/Instruments/gong4.png",389,38,382,0.1,"stim/54.jpeg",5,4,3,1,"Instruments",1,2,"left","right",0.513999939,0,0,1,0,93,38,1,0.1,1,"stim/54.jpeg",5,4,"stim/54.jpeg",2,"left",2.284000158,4,1,4.509000063,4,0.282000065,93,1,0,0,0,0,1
"525","stim/objects/Instruments/grandpiano3.png",390,38,383,0.9,"stim/64.jpeg",6,4,3,2,"Instruments",1,1,"left","left",0.455000162,1,1,1,0,NA,NA,NA,NA,NA,NA,NA,NA,NA,NA,NA,NA,NA,NA,NA,NA,NA,NA,NA,NA,NA,NA,NA,NA
"441","stim/objects/Instruments/doublebass3.png",391,38,384,0.7,"stim/43.jpeg",4,3,2,2,"Instruments",1,2,"left","left",0.770999908,1,1,1,0,NA,NA,NA,NA,NA,NA,NA,NA,NA,NA,NA,NA,NA,NA,NA,NA,NA,NA,NA,NA,NA,NA,NA,NA
"394","stim/objects/HouseObjects/match3.png",392,38,385,0.5,"stim/24.jpeg",2,4,1,1,"HouseObjects",2,3,"right","left",0.772000074,0,0,1,0,164,38,1,0.5,2,"stim/24.jpeg",2,4,"stim/24.jpeg",3,"left",2.273999929,4,2,1.865999937,3,1.328000069,164,1,0,0,1,1,1
"502","stim/objects/Instruments/frenchhorn3.png",393,38,386,0.9,"stim/62.jpeg",6,2,3,2,"Instruments",1,2,"left","left",0.479000092,1,1,1,0,NA,NA,NA,NA,NA,NA,NA,NA,NA,NA,NA,NA,NA,NA,NA,NA,NA,NA,NA,NA,NA,NA,NA,NA
"247","stim/objects/HouseObjects/barbecuelighter3.png",394,38,387,0.5,"stim/13.jpeg",1,3,1,2,"HouseObjects",2,3,"right","right",0.597999811,1,1,1,0,NA,NA,NA,NA,NA,NA,NA,NA,NA,NA,NA,NA,NA,NA,NA,NA,NA,NA,NA,NA,NA,NA,NA,NA
"294","stim/objects/HouseObjects/doormat3.png",395,38,388,0.9,"stim/54.jpeg",5,4,3,2,"HouseObjects",2,4,"right","right",0.599999905,1,1,1,0,NA,NA,NA,NA,NA,NA,NA,NA,NA,NA,NA,NA,NA,NA,NA,NA,NA,NA,NA,NA,NA,NA,NA,NA
"369","stim/objects/HouseObjects/glass3.png",396,38,389,0.9,"stim/53.jpeg",5,3,3,2,"HouseObjects",2,2,"right","right",0.405999899,1,1,1,0,NA,NA,NA,NA,NA,NA,NA,NA,NA,NA,NA,NA,NA,NA,NA,NA,NA,NA,NA,NA,NA,NA,NA,NA
"542","stim/objects/Instruments/guitarcase4.png",397,38,390,0.1,"stim/52.jpeg",5,2,3,1,"Instruments",1,2,"left","right",0.479000092,0,0,1,0,55,38,1,0.1,1,"stim/52.jpeg",5,2,"stim/52.jpeg",2,"left",3.729000092,4,2,4.78399992,2,3.16899991,55,1,1,1,1,1,1
"489","stim/objects/Instruments/flutetrans4.png",398,38,391,0.1,"stim/52.jpeg",5,2,3,1,"Instruments",1,4,"left","right",0.694999933,0,0,1,0,133,38,1,0.1,1,"stim/52.jpeg",5,2,"stim/52.jpeg",4,"left",1.018999815,4,2,3.555000067,3,2.018000126,133,1,1,1,0,0,1
"255","stim/objects/HouseObjects/bleachbottle4.png",399,38,392,0.7,"stim/33.jpeg",3,3,2,1,"HouseObjects",2,2,"right","left",0.667999983,0,0,1,0,29,38,1,0.7,2,"stim/33.jpeg",3,3,"stim/33.jpeg",2,"left",1.346999884,4,4,3.268000126,2,2.065999985,29,1,0,0,1,1,1
"510","stim/objects/Instruments/gong3.png",400,38,393,0.9,"stim/64.jpeg",6,4,3,2,"Instruments",1,1,"left","left",0.582000017,1,1,1,0,NA,NA,NA,NA,NA,NA,NA,NA,NA,NA,NA,NA,NA,NA,NA,NA,NA,NA,NA,NA,NA,NA,NA,NA
"415","stim/objects/Instruments/banjo3.png",401,38,394,0.5,"stim/11.jpeg",1,1,1,2,"Instruments",1,2,"left","right",0.708000183,0,0,1,0,NA,NA,NA,NA,NA,NA,NA,NA,NA,NA,NA,NA,NA,NA,NA,NA,NA,NA,NA,NA,NA,NA,NA,NA
"332","stim/objects/HouseObjects/flyswatter3.png",402,38,395,0.9,"stim/53.jpeg",5,3,3,2,"HouseObjects",2,3,"right","right",0.542999983,1,1,1,0,NA,NA,NA,NA,NA,NA,NA,NA,NA,NA,NA,NA,NA,NA,NA,NA,NA,NA,NA,NA,NA,NA,NA,NA
"485","stim/objects/Instruments/flutetrans3.png",403,38,396,0.9,"stim/61.jpeg",6,1,3,2,"Instruments",1,1,"left","left",0.515999794,1,1,1,0,NA,NA,NA,NA,NA,NA,NA,NA,NA,NA,NA,NA,NA,NA,NA,NA,NA,NA,NA,NA,NA,NA,NA,NA
"566","stim/objects/Instruments/violin4.png",404,38,397,0.9,"stim/64.jpeg",6,4,3,1,"Instruments",1,3,"left","left",0.486999989,1,1,1,0,106,38,1,0.9,1,"stim/64.jpeg",6,4,"stim/64.jpeg",3,"left",0.934000015,3,4,16.42499995,3,1.878000021,106,1,1,1,1,1,1
"557","stim/objects/Instruments/metronome3.png",405,38,398,0.5,"stim/24.jpeg",2,4,1,1,"Instruments",1,2,"left","left",0.541000128,1,1,1,0,122,38,1,0.5,2,"stim/24.jpeg",2,4,"stim/24.jpeg",2,"left",1.386999846,3,2,1.771000147,3,3.799000025,122,1,0,0,0,0,1
"253","stim/objects/HouseObjects/bleachbottle3.png",406,38,399,0.5,"stim/14.jpeg",1,4,1,2,"HouseObjects",2,3,"right","right",0.47300005,1,1,1,0,NA,NA,NA,NA,NA,NA,NA,NA,NA,NA,NA,NA,NA,NA,NA,NA,NA,NA,NA,NA,NA,NA,NA,NA
"428","stim/objects/Instruments/chime3.png",407,38,400,0.5,"stim/22.jpeg",2,2,1,2,"Instruments",1,1,"left","left",0.431999922,1,1,1,0,NA,NA,NA,NA,NA,NA,NA,NA,NA,NA,NA,NA,NA,NA,NA,NA,NA,NA,NA,NA,NA,NA,NA,NA
"395","stim/objects/HouseObjects/match4.png",408,38,401,0.1,"stim/63.jpeg",6,3,3,1,"HouseObjects",2,2,"right","left",0.524000168,0,0,1,0,161,38,1,0.1,2,"stim/63.jpeg",6,3,"stim/63.jpeg",2,"right",1.161000013,4,2,1.171000004,3,0.782999992,161,0,0,NA,0,NA,1
"258","stim/objects/HouseObjects/blender4.png",409,38,402,0.3,"stim/42.jpeg",4,2,2,1,"HouseObjects",2,2,"right","left",0.611000061,0,0,1,0,193,38,1,0.3,2,"stim/42.jpeg",4,2,"stim/42.jpeg",2,"right",1.267999887,2,3,1.879999876,1,3.727999926,193,0,0,NA,0,NA,1
"495","stim/objects/Instruments/frenchhorn3.png",410,38,403,0.9,"stim/63.jpeg",6,3,3,2,"Instruments",1,3,"left","left",0.416000128,1,1,1,0,NA,NA,NA,NA,NA,NA,NA,NA,NA,NA,NA,NA,NA,NA,NA,NA,NA,NA,NA,NA,NA,NA,NA,NA
"406","stim/objects/Instruments/accordion3.png",411,38,404,0.5,"stim/12.jpeg",1,2,1,2,"Instruments",1,4,"left","right",0.627000093,0,0,1,0,NA,NA,NA,NA,NA,NA,NA,NA,NA,NA,NA,NA,NA,NA,NA,NA,NA,NA,NA,NA,NA,NA,NA,NA
"459","stim/objects/Instruments/flute3.png",412,38,405,0.9,"stim/61.jpeg",6,1,3,2,"Instruments",1,1,"left","left",0.711999893,1,1,1,0,NA,NA,NA,NA,NA,NA,NA,NA,NA,NA,NA,NA,NA,NA,NA,NA,NA,NA,NA,NA,NA,NA,NA,NA
"279","stim/objects/HouseObjects/coffee3.png",413,38,406,0.7,"stim/33.jpeg",3,3,2,2,"HouseObjects",2,1,"right","right",0.58100009,1,1,1,0,NA,NA,NA,NA,NA,NA,NA,NA,NA,NA,NA,NA,NA,NA,NA,NA,NA,NA,NA,NA,NA,NA,NA,NA
"465","stim/objects/Instruments/flute3.png",414,38,407,0.9,"stim/62.jpeg",6,2,3,2,"Instruments",1,3,"left","left",0.529000044,1,1,1,0,NA,NA,NA,NA,NA,NA,NA,NA,NA,NA,NA,NA,NA,NA,NA,NA,NA,NA,NA,NA,NA,NA,NA,NA
"376","stim/objects/HouseObjects/glassmop3.png",415,38,408,0.5,"stim/12.jpeg",1,2,1,1,"HouseObjects",2,4,"right","left",0.801000118,0,0,1,0,76,38,1,0.5,1,"stim/12.jpeg",1,2,"stim/12.jpeg",4,"left",0.865999937,3,3,2.768999815,2,3.228999853,76,1,0,0,0,0,1
"460","stim/objects/Instruments/flute3.png",416,38,409,0.9,"stim/63.jpeg",6,3,3,2,"Instruments",1,3,"left","left",0.49000001,1,1,1,0,NA,NA,NA,NA,NA,NA,NA,NA,NA,NA,NA,NA,NA,NA,NA,NA,NA,NA,NA,NA,NA,NA,NA,NA
"368","stim/objects/HouseObjects/glass3.png",417,38,410,0.9,"stim/53.jpeg",5,3,3,2,"HouseObjects",2,2,"right","right",0.460000038,1,1,1,0,NA,NA,NA,NA,NA,NA,NA,NA,NA,NA,NA,NA,NA,NA,NA,NA,NA,NA,NA,NA,NA,NA,NA,NA
"289","stim/objects/HouseObjects/dishsoap3.png",418,38,411,0.7,"stim/33.jpeg",3,3,2,2,"HouseObjects",2,4,"right","right",0.520999908,1,1,1,0,NA,NA,NA,NA,NA,NA,NA,NA,NA,NA,NA,NA,NA,NA,NA,NA,NA,NA,NA,NA,NA,NA,NA,NA
"505","stim/objects/Instruments/frenchhorn3.png",419,38,412,0.9,"stim/63.jpeg",6,3,3,2,"Instruments",1,2,"left","left",0.552000046,1,1,1,0,NA,NA,NA,NA,NA,NA,NA,NA,NA,NA,NA,NA,NA,NA,NA,NA,NA,NA,NA,NA,NA,NA,NA,NA
"532","stim/objects/Instruments/grandpiano3.png",420,38,413,0.9,"stim/61.jpeg",6,1,3,2,"Instruments",1,1,"left","left",0.523000002,1,1,1,0,NA,NA,NA,NA,NA,NA,NA,NA,NA,NA,NA,NA,NA,NA,NA,NA,NA,NA,NA,NA,NA,NA,NA,NA
"401","stim/objects/HouseObjects/towel4.png",421,38,414,0.1,"stim/62.jpeg",6,2,3,1,"HouseObjects",2,2,"right","left",0.5,0,0,1,0,103,38,1,0.1,2,"stim/62.jpeg",6,2,"stim/62.jpeg",2,"right",1.440999985,3,3,0.727999926,2,2.929999828,103,0,0,NA,1,NA,1
"335","stim/objects/HouseObjects/flyswatter3.png",422,38,415,0.9,"stim/52.jpeg",5,2,3,2,"HouseObjects",2,1,"right","right",0.406000137,1,1,1,0,NA,NA,NA,NA,NA,NA,NA,NA,NA,NA,NA,NA,NA,NA,NA,NA,NA,NA,NA,NA,NA,NA,NA,NA
"564","stim/objects/Instruments/oboe4.png",423,38,416,0.9,"stim/63.jpeg",6,3,3,1,"Instruments",1,1,"left","",NA,0,0,1,0,5,38,1,0.9,1,"stim/63.jpeg",6,3,"stim/63.jpeg",1,"left",1.138999939,3,3,9.796999931,4,13.97399998,5,1,1,1,0,0,1
"263","stim/objects/HouseObjects/broom3.png",424,38,417,0.5,"stim/24.jpeg",2,4,1,2,"HouseObjects",2,4,"right","left",0.411000013,0,0,1,0,NA,NA,NA,NA,NA,NA,NA,NA,NA,NA,NA,NA,NA,NA,NA,NA,NA,NA,NA,NA,NA,NA,NA,NA
"423","stim/objects/Instruments/bassguitar4.png",425,38,418,0.7,"stim/44.jpeg",4,4,2,1,"Instruments",1,1,"left","right",0.444000006,0,0,1,0,49,38,1,0.7,1,"stim/44.jpeg",4,4,"stim/44.jpeg",1,"left",3.410000086,3,2,2.884000063,2,4.608999968,49,1,0,0,0,0,1
"345","stim/objects/HouseObjects/garbagebin3.png",426,38,419,0.9,"stim/51.jpeg",5,1,3,2,"HouseObjects",2,4,"right","right",0.486000061,1,1,1,0,NA,NA,NA,NA,NA,NA,NA,NA,NA,NA,NA,NA,NA,NA,NA,NA,NA,NA,NA,NA,NA,NA,NA,NA
"547","stim/objects/Instruments/hihat3.png",427,38,420,0.5,"stim/12.jpeg",1,2,1,1,"Instruments",1,3,"left","left",0.61500001,1,1,1,0,52,38,1,0.5,1,"stim/12.jpeg",1,2,"stim/12.jpeg",3,"left",1.207999945,4,1,3.143999815,3,0.769999981,52,1,0,0,1,1,1
"568","stim/objects/Instruments/vuvuzela4.png",428,38,421,0.9,"stim/61.jpeg",6,1,3,1,"Instruments",1,4,"left","",NA,0,0,1,0,102,38,1,0.9,1,"stim/61.jpeg",6,1,"stim/61.jpeg",4,"left",1.650000095,3,2,2.611000061,2,5.402999878,102,1,0,0,0,0,1
"416","stim/objects/Instruments/banjo3.png",429,38,422,0.5,"stim/14.jpeg",1,4,1,2,"Instruments",1,4,"left","right",0.904000044,0,0,1,0,NA,NA,NA,NA,NA,NA,NA,NA,NA,NA,NA,NA,NA,NA,NA,NA,NA,NA,NA,NA,NA,NA,NA,NA
"310","stim/objects/HouseObjects/dustpan3.png",430,38,423,0.9,"stim/54.jpeg",5,4,3,2,"HouseObjects",2,1,"right","right",0.447000027,1,1,1,0,NA,NA,NA,NA,NA,NA,NA,NA,NA,NA,NA,NA,NA,NA,NA,NA,NA,NA,NA,NA,NA,NA,NA,NA
"553","stim/objects/Instruments/maraca3.png",431,38,424,0.5,"stim/22.jpeg",2,2,1,1,"Instruments",1,3,"left","left",0.717999935,1,1,1,0,186,38,1,0.5,2,"stim/22.jpeg",2,2,"stim/22.jpeg",3,"right",0.970999956,3,3,3.104000092,3,0.977999926,186,0,0,NA,1,NA,1
"296","stim/objects/HouseObjects/doormat3.png",432,38,425,0.9,"stim/54.jpeg",5,4,3,2,"HouseObjects",2,3,"right","right",0.569000006,1,1,1,0,NA,NA,NA,NA,NA,NA,NA,NA,NA,NA,NA,NA,NA,NA,NA,NA,NA,NA,NA,NA,NA,NA,NA,NA
"447","stim/objects/Instruments/drums4.png",433,38,426,0.7,"stim/43.jpeg",4,3,2,1,"Instruments",1,4,"left","left",0.687999964,1,1,1,0,154,38,1,0.7,1,"stim/43.jpeg",4,3,"stim/43.jpeg",4,"left",2.562999964,4,2,2.895999908,3,1.608999968,154,1,0,0,0,0,1
"346","stim/objects/HouseObjects/garbagebin3.png",434,38,427,0.9,"stim/51.jpeg",5,1,3,2,"HouseObjects",2,1,"right","right",0.516000032,1,1,1,0,NA,NA,NA,NA,NA,NA,NA,NA,NA,NA,NA,NA,NA,NA,NA,NA,NA,NA,NA,NA,NA,NA,NA,NA
"266","stim/objects/HouseObjects/bucket3.png",435,38,428,0.5,"stim/21.jpeg",2,1,1,2,"HouseObjects",2,4,"right","left",0.700000048,0,0,1,0,NA,NA,NA,NA,NA,NA,NA,NA,NA,NA,NA,NA,NA,NA,NA,NA,NA,NA,NA,NA,NA,NA,NA,NA
"537","stim/objects/Instruments/grandpiano3.png",436,38,429,0.9,"stim/64.jpeg",6,4,3,2,"Instruments",1,4,"left","left",0.57799983,1,1,1,0,NA,NA,NA,NA,NA,NA,NA,NA,NA,NA,NA,NA,NA,NA,NA,NA,NA,NA,NA,NA,NA,NA,NA,NA
"378","stim/objects/HouseObjects/hairdryer3.png",437,38,430,0.5,"stim/13.jpeg",1,3,1,1,"HouseObjects",2,1,"right","left",0.618999958,0,0,1,0,15,38,1,0.5,1,"stim/13.jpeg",1,3,"stim/13.jpeg",1,"right",1.046000004,3,2,7.16899991,3,2.608999968,15,0,0,NA,0,NA,1
"336","stim/objects/HouseObjects/flyswatter3.png",438,38,431,0.9,"stim/53.jpeg",5,3,3,2,"HouseObjects",2,1,"right","",NA,0,0,1,0,NA,NA,NA,NA,NA,NA,NA,NA,NA,NA,NA,NA,NA,NA,NA,NA,NA,NA,NA,NA,NA,NA,NA,NA
"397","stim/objects/HouseObjects/pan4.png",439,38,432,0.1,"stim/64.jpeg",6,4,3,1,"HouseObjects",2,2,"right","left",0.482000113,0,0,1,0,100,38,1,0.1,2,"stim/64.jpeg",6,4,"stim/64.jpeg",2,"left",3.044000149,3,2,1.225999832,3,6.997999907,100,1,0,0,0,0,1
"297","stim/objects/HouseObjects/doormat3.png",440,38,433,0.9,"stim/54.jpeg",5,4,3,2,"HouseObjects",2,2,"right","right",0.439999819,1,1,1,0,NA,NA,NA,NA,NA,NA,NA,NA,NA,NA,NA,NA,NA,NA,NA,NA,NA,NA,NA,NA,NA,NA,NA,NA
"476","stim/objects/Instruments/flutetrans3.png",441,38,434,0.9,"stim/64.jpeg",6,4,3,2,"Instruments",1,1,"left","left",0.47300005,1,1,1,0,NA,NA,NA,NA,NA,NA,NA,NA,NA,NA,NA,NA,NA,NA,NA,NA,NA,NA,NA,NA,NA,NA,NA,NA
"269","stim/objects/HouseObjects/clock3.png",442,38,435,0.5,"stim/23.jpeg",2,3,1,2,"HouseObjects",2,4,"right","left",0.459000111,0,0,1,0,NA,NA,NA,NA,NA,NA,NA,NA,NA,NA,NA,NA,NA,NA,NA,NA,NA,NA,NA,NA,NA,NA,NA,NA
"328","stim/objects/HouseObjects/flyswatter3.png",443,38,436,0.9,"stim/51.jpeg",5,1,3,2,"HouseObjects",2,3,"right","left",0.457999945,0,0,1,0,NA,NA,NA,NA,NA,NA,NA,NA,NA,NA,NA,NA,NA,NA,NA,NA,NA,NA,NA,NA,NA,NA,NA,NA
"422","stim/objects/Instruments/bassguitar3.png",444,38,437,0.5,"stim/24.jpeg",2,4,1,2,"Instruments",1,2,"left","left",0.46600008,1,1,1,0,NA,NA,NA,NA,NA,NA,NA,NA,NA,NA,NA,NA,NA,NA,NA,NA,NA,NA,NA,NA,NA,NA,NA,NA
"400","stim/objects/HouseObjects/towel3.png",445,38,438,0.7,"stim/34.jpeg",3,4,2,1,"HouseObjects",2,2,"right","right",0.453999996,1,1,1,0,151,38,1,0.7,2,"stim/34.jpeg",3,4,"stim/34.jpeg",2,"left",1.89199996,3,4,1.769999981,3,1.002000093,151,1,1,1,0,0,1
"555","stim/objects/Instruments/marimba3.png",446,38,439,0.5,"stim/23.jpeg",2,3,1,1,"Instruments",1,2,"left","left",0.547999859,1,1,1,0,31,38,1,0.5,2,"stim/23.jpeg",2,3,"stim/23.jpeg",2,"right",1.471999884,4,3,3.980000019,3,1.190000057,31,0,1,NA,0,NA,1
"374","stim/objects/HouseObjects/glass3.png",447,38,440,0.9,"stim/51.jpeg",5,1,3,2,"HouseObjects",2,3,"right","right",0.394999981,1,1,1,0,NA,NA,NA,NA,NA,NA,NA,NA,NA,NA,NA,NA,NA,NA,NA,NA,NA,NA,NA,NA,NA,NA,NA,NA
"405","stim/objects/HouseObjects/wateringcan4.png",448,38,441,0.1,"stim/64.jpeg",6,4,3,1,"HouseObjects",2,2,"right","left",0.621999979,0,0,1,0,20,38,1,0.1,2,"stim/64.jpeg",6,4,"stim/64.jpeg",2,"left",1.433999777,3,4,7.988999844,2,16.60100007,20,1,1,1,1,1,1
"314","stim/objects/HouseObjects/dustpan3.png",449,38,442,0.9,"stim/52.jpeg",5,2,3,2,"HouseObjects",2,4,"right","right",0.503000021,1,1,1,0,NA,NA,NA,NA,NA,NA,NA,NA,NA,NA,NA,NA,NA,NA,NA,NA,NA,NA,NA,NA,NA,NA,NA,NA
"276","stim/objects/HouseObjects/clothespin3.png",450,38,443,0.7,"stim/34.jpeg",3,4,2,2,"HouseObjects",2,4,"right","right",0.677999973,1,1,1,0,NA,NA,NA,NA,NA,NA,NA,NA,NA,NA,NA,NA,NA,NA,NA,NA,NA,NA,NA,NA,NA,NA,NA,NA
"396","stim/objects/HouseObjects/pan3.png",451,38,444,0.7,"stim/32.jpeg",3,2,2,1,"HouseObjects",2,2,"right","right",0.500999928,1,1,1,0,155,38,1,0.7,2,"stim/32.jpeg",3,2,"stim/32.jpeg",2,"right",1.342000008,3,4,4.585999966,4,4.036999941,155,0,0,NA,0,NA,1
"318","stim/objects/HouseObjects/dustpan3.png",452,38,445,0.9,"stim/53.jpeg",5,3,3,2,"HouseObjects",2,1,"right","right",0.496000051,1,1,1,0,NA,NA,NA,NA,NA,NA,NA,NA,NA,NA,NA,NA,NA,NA,NA,NA,NA,NA,NA,NA,NA,NA,NA,NA
"499","stim/objects/Instruments/frenchhorn3.png",453,38,446,0.9,"stim/64.jpeg",6,4,3,2,"Instruments",1,3,"left","left",0.464999914,1,1,1,0,NA,NA,NA,NA,NA,NA,NA,NA,NA,NA,NA,NA,NA,NA,NA,NA,NA,NA,NA,NA,NA,NA,NA,NA
"337","stim/objects/HouseObjects/flyswatter3.png",454,38,447,0.9,"stim/51.jpeg",5,1,3,2,"HouseObjects",2,4,"right","right",0.479999781,1,1,1,0,NA,NA,NA,NA,NA,NA,NA,NA,NA,NA,NA,NA,NA,NA,NA,NA,NA,NA,NA,NA,NA,NA,NA,NA
"278","stim/objects/HouseObjects/clothespin4.png",455,38,448,0.3,"stim/44.jpeg",4,4,2,1,"HouseObjects",2,4,"right","left",0.786999941,0,0,1,0,35,38,1,0.3,2,"stim/44.jpeg",4,4,"stim/44.jpeg",4,"right",1.226999998,2,3,6.571000099,4,0.914999962,35,0,0,NA,1,NA,1
"560","stim/objects/Instruments/musicsheet4.png",456,38,449,0.9,"stim/61.jpeg",6,1,3,1,"Instruments",1,1,"left","left",0.488999844,1,1,1,0,90,38,1,0.9,1,"stim/61.jpeg",6,1,"stim/61.jpeg",1,"left",1.648000002,4,4,3.067000151,2,1.08100009,90,1,0,0,0,0,1
"370","stim/objects/HouseObjects/glass3.png",457,38,450,0.9,"stim/53.jpeg",5,3,3,2,"HouseObjects",2,2,"right","right",0.433000088,1,1,1,0,NA,NA,NA,NA,NA,NA,NA,NA,NA,NA,NA,NA,NA,NA,NA,NA,NA,NA,NA,NA,NA,NA,NA,NA
"404","stim/objects/HouseObjects/wateringcan3.png",458,38,451,0.7,"stim/32.jpeg",3,2,2,1,"HouseObjects",2,3,"right","right",0.427000046,1,1,1,0,78,38,1,0.7,2,"stim/32.jpeg",3,2,"stim/32.jpeg",3,"right",1.292000055,2,1,3.769000053,3,1.756999969,78,0,0,NA,1,NA,1
"520","stim/objects/Instruments/gong3.png",459,38,452,0.9,"stim/63.jpeg",6,3,3,2,"Instruments",1,4,"left","left",0.434000015,1,1,1,0,NA,NA,NA,NA,NA,NA,NA,NA,NA,NA,NA,NA,NA,NA,NA,NA,NA,NA,NA,NA,NA,NA,NA,NA
"512","stim/objects/Instruments/gong3.png",460,38,453,0.9,"stim/62.jpeg",6,2,3,2,"Instruments",1,4,"left","left",0.458000183,1,1,1,0,NA,NA,NA,NA,NA,NA,NA,NA,NA,NA,NA,NA,NA,NA,NA,NA,NA,NA,NA,NA,NA,NA,NA,NA
"470","stim/objects/Instruments/flute3.png",461,38,454,0.9,"stim/64.jpeg",6,4,3,2,"Instruments",1,4,"left","right",0.383000135,0,0,1,0,NA,NA,NA,NA,NA,NA,NA,NA,NA,NA,NA,NA,NA,NA,NA,NA,NA,NA,NA,NA,NA,NA,NA,NA
"356","stim/objects/HouseObjects/garbagebin3.png",462,38,455,0.9,"stim/54.jpeg",5,4,3,2,"HouseObjects",2,3,"right","right",0.499000072,1,1,1,0,NA,NA,NA,NA,NA,NA,NA,NA,NA,NA,NA,NA,NA,NA,NA,NA,NA,NA,NA,NA,NA,NA,NA,NA
"273","stim/objects/HouseObjects/clothesdryingrack3.png",463,38,456,0.7,"stim/33.jpeg",3,3,2,2,"HouseObjects",2,4,"right","right",0.555999994,1,1,1,0,NA,NA,NA,NA,NA,NA,NA,NA,NA,NA,NA,NA,NA,NA,NA,NA,NA,NA,NA,NA,NA,NA,NA,NA
"377","stim/objects/HouseObjects/glassmop4.png",464,38,457,0.9,"stim/54.jpeg",5,4,3,1,"HouseObjects",2,3,"right","right",0.576999903,1,1,1,0,183,38,1,0.9,2,"stim/54.jpeg",5,4,"stim/54.jpeg",3,"left",2.214999914,3,2,1.81099987,4,3.487999916,183,1,0,0,0,0,1
"433","stim/objects/Instruments/cornet3.png",465,38,458,0.5,"stim/23.jpeg",2,3,1,2,"Instruments",1,3,"left","left",0.575999975,1,1,1,0,NA,NA,NA,NA,NA,NA,NA,NA,NA,NA,NA,NA,NA,NA,NA,NA,NA,NA,NA,NA,NA,NA,NA,NA
