"";"participant";"enc_trialN";"enc_cond";"enc_scnCat";"enc_objCat";"enc_object";"enc_resp";"enc_acc";"enc_rt";"rec_trialN";"session";"rec_trialType";"rec_Cond";"rec_Cat";"rec_Obj";"rec_response";"id_acc";"rec_rt";"rec_respConf";"rec_rtConf";"rec_respCont";"OvsN";"assoc_acc";"cond_assoc";"contingency";"PE_level";"fillers";"enc_contingency";"enc_PE_level"
"1";1;1;4;5;"Instruments";"keyboard";1;0;"1.2897338187322";185;1;"old";4;"Instruments";"keyboard";0;0;"0.763261497952044";6;"0.329243529587984";5;1;1;NA;0,8;0,2;1;0,8;0,2
"2";1;2;1;3;"Instruments";"harmonica";0;0;"NaN";362;2;"old";1;"Instruments";"harmonica";0;0;"0.854499934706837";6;"0.528805874928366";6;1;0;NA;0,33;0,67;0;0,33;0,67
"3";1;3;4;6;"FruitsAndVegs";"greenolive";3;1;"0.791729542426765";259;2;"old";4;"FruitsAndVegs";"greenolive";0;0;"0.566749403369613";6;"0.199210500053596";6;1;1;NA;0,8;0,2;1;0,8;0,2
"4";1;4;4;5;"Instruments";"trombone";1;0;"1.12246092502028";302;2;"old";4;"Instruments";"trombone";0;0;"1.15047164412681";6;"0.280929644475691";1;1;0;NA;0,8;0,2;1;0,8;0,2
"5";1;5;2;4;"HouseObjects";"glassmop2";1;1;"0.780592940747738";192;1;"old";2;"HouseObjects";"glassmop2";0;0;"0.751164318993688";6;"0.468954754061997";4;1;1;NA;0,8;0,2;0;0,8;0,2
"6";1;6;3;4;"Instruments";"harp2";1;0;"1.66310232132673";86;1;"old";3;"Instruments";"harp2";0;0;"2.21185393910855";6;"0.916873027570546";5;1;0;NA;0,2;0,8;0;0,2;0,8
"7";1;7;4;4;"HouseObjects";"cushion";2;0;"0.457377152517438";17;1;"old";4;"HouseObjects";"cushion";0;0;"2.76052088662982";6;"7.05251326411963";4;1;1;NA;0,8;0,2;1;0,8;0,2
"8";1;8;3;6;"Instruments";"musicsheet2";3;0;"0.579966688528657";269;2;"old";3;"Instruments";"musicsheet2";0;0;"0.880548685789108";6;"1.93057814444182";1;1;0;NA;0,2;0,8;0;0,2;0,8
"9";1;9;4;6;"FruitsAndVegs";"kiwi2";3;1;"1.14232065808028";326;2;"old";4;"FruitsAndVegs";"kiwi2";0;0;"0.822555913066026";6;"0.202554713468999";6;1;1;NA;0,8;0,2;1;0,8;0,2
"10";1;10;3;5;"HouseObjects";"ironingboard2";2;0;"1.20148323383182";11;1;"old";3;"HouseObjects";"ironingboard2";0;0;"1.66605621576309";6;"5.37524507567286";4;1;0;NA;0,2;0,8;0;0,2;0,8
"11";1;11;3;5;"HouseObjects";"garbagebin2";1;1;"0.539862029254436";131;1;"old";3;"HouseObjects";"garbagebin2";0;0;"2.14171544648707";6;"0.954511938616633";4;1;0;NA;0,2;0,8;0;0,2;0,8
"12";1;12;4;4;"HouseObjects";"knife";2;0;"0.854915957897902";218;2;"old";4;"HouseObjects";"knife";0;0;"1.33508909615921";6;"9.94251458905637e-05";6;1;0;NA;0,8;0,2;1;0,8;0,2
"13";1;13;4;4;"HouseObjects";"towel";1;1;"0.481374585069716";333;2;"old";4;"HouseObjects";"towel";0;0;"0.513339489116333";6;"1.60985855007311";4;1;1;NA;0,8;0,2;1;0,8;0,2
"14";1;14;1;1;"FruitsAndVegs";"garlic2";2;0;"0.971539652906358";212;2;"old";1;"FruitsAndVegs";"garlic2";0;0;"0.851011394406669";6;"0.988714602659456";1;1;1;NA;0,33;0,67;0;0,33;0,67
"15";1;15;1;2;"FruitsAndVegs";"leek";2;0;"1.60612421669066";379;2;"old";1;"FruitsAndVegs";"leek";0;0;"0.571537206007633";6;"1.26713937451132";6;1;0;NA;0,33;0,67;0;0,33;0,67
"16";1;16;4;4;"HouseObjects";"key";1;1;"1.88043106999248";84;1;"old";4;"HouseObjects";"key";1;1;"1.03075739368796";6;"0.79063490126282";4;1;1;1;0,8;0,2;1;0,8;0,2
"17";1;17;1;1;"Instruments";"flute";1;0;"1.20294671133161";231;2;"old";1;"Instruments";"flute";0;0;"0.993875730782747";6;"1.43226372171193";1;1;1;NA;0,33;0,67;0;0,33;0,67
"18";1;18;2;5;"Instruments";"laud";1;0;"1.44522512983531";209;2;"old";2;"Instruments";"laud";0;0;"0.807925019355025";6;"0.642896569333971";1;1;0;NA;0,8;0,2;0;0,8;0,2
"19";1;19;1;2;"HouseObjects";"match";2;0;"0.807689236477017";215;2;"old";1;"HouseObjects";"match";0;0;"0.704864103405271";6;"0.947106455161702";1;1;0;NA;0,33;0,67;0;0,33;0,67
"20";1;20;4;5;"Instruments";"speaker";1;0;"1.48300034925342";199;2;"old";4;"Instruments";"speaker";0;0;"0.946947054180782";6;"1.40125012706267";1;1;0;NA;0,8;0,2;1;0,8;0,2
"21";1;21;3;4;"FruitsAndVegs";"cherrytomato";1;0;"1.30938507989049";155;1;"old";3;"FruitsAndVegs";"cherrytomato";0;0;"0.978080237284303";1;"0.79911139421165";6;1;0;NA;0,2;0,8;0;0,2;0,8
"22";1;22;3;6;"HouseObjects";"knife2";3;0;"1.55179563816637";214;2;"old";3;"HouseObjects";"knife2";0;0;"0.740817845682614";6;"0.650579247798305";1;1;0;NA;0,2;0,8;0;0,2;0,8
"23";1;23;1;1;"Instruments";"musicstand";1;0;"1.85806613788009";286;2;"old";1;"Instruments";"musicstand";1;1;"1.02398616005667";6;"0.922604567196686";1;1;1;1;0,33;0,67;0;0,33;0,67
"24";1;24;2;4;"HouseObjects";"rug2";1;1;"0.781515992246568";188;1;"old";2;"HouseObjects";"rug2";0;0;"0.733199439942837";6;"0.402605008333921";4;1;1;NA;0,8;0,2;0;0,8;0,2
"25";1;25;4;6;"FruitsAndVegs";"lettuce2";3;1;"0.559577114880085";365;2;"old";4;"FruitsAndVegs";"lettuce2";1;1;"1.15026028541615";6;"0.643668557575438";6;1;1;1;0,8;0,2;1;0,8;0,2
"26";1;26;1;2;"HouseObjects";"handvacuum2";2;0;"1.13016125839204";120;1;"old";1;"HouseObjects";"handvacuum2";0;0;"0.664754706434906";6;"0.597985450178385";4;1;0;NA;0,33;0,67;0;0,33;0,67
"27";1;27;4;6;"FruitsAndVegs";"casabamelon";3;1;"0.780504099093378";74;1;"old";4;"FruitsAndVegs";"casabamelon";1;1;"3.21393289137632";6;"0.972324792295694";6;1;1;1;0,8;0,2;1;0,8;0,2
"28";1;28;4;5;"Instruments";"pipepiano";1;0;"1.00696939602494";187;1;"old";4;"Instruments";"pipepiano";1;1;"0.98940221965313";6;"0.688353475183249";5;1;1;1;0,8;0,2;1;0,8;0,2
"29";1;29;4;6;"FruitsAndVegs";"cherrytomato2";3;1;"1.08199544716626";232;2;"old";4;"FruitsAndVegs";"cherrytomato2";0;0;"0.838335006963462";6;"0.281683351378888";1;1;0;NA;0,8;0,2;1;0,8;0,2
"30";1;30;4;6;"FruitsAndVegs";"cherrytomato2";3;1;"0.556594674475491";232;2;"old";4;"FruitsAndVegs";"cherrytomato2";0;0;"0.838335006963462";6;"0.281683351378888";1;1;0;NA;0,8;0,2;1;0,8;0,2
"31";1;31;3;6;"Instruments";"tambourine2";3;0;"0.527416220866144";7;1;"old";3;"Instruments";"tambourine2";1;1;"1.86117751058191";6;"7.66414404194802";5;1;0;0;0,2;0,8;0;0,2;0,8
"32";1;32;1;3;"Instruments";"electricdrumset2";3;0;"1.47381889820099";69;1;"old";1;"Instruments";"electricdrumset2";0;0;"0.950585599057376";6;"1.06920261215419";5;1;0;NA;0,33;0,67;0;0,33;0,67
"33";1;33;2;6;"FruitsAndVegs";"iceberglettuce2";3;1;"0.581288404762745";314;2;"old";2;"FruitsAndVegs";"iceberglettuce2";0;0;"0.718282651621848";6;"0.0687579520163126";6;1;1;NA;0,8;0,2;0;0,8;0,2
"34";1;34;1;3;"HouseObjects";"towel2";2;0;"0.583476083353162";344;2;"old";1;"HouseObjects";"towel2";0;0;"0.685804299835581";6;"0.431817591423169";4;1;0;NA;0,33;0,67;0;0,33;0,67
"35";1;35;4;5;"Instruments";"tambourine";1;0;"1.16193695925176";226;2;"old";4;"Instruments";"tambourine";0;0;"0.460673659981694";6;"0.303932136856019";1;1;0;NA;0,8;0,2;1;0,8;0,2
"36";1;36;4;4;"HouseObjects";"key";1;1;"0.652379456907511";84;1;"old";4;"HouseObjects";"key";1;1;"1.03075739368796";6;"0.79063490126282";4;1;1;1;0,8;0,2;1;0,8;0,2
"37";1;37;4;5;"Instruments";"keyboard";2;1;"0.582704094238579";185;1;"old";4;"Instruments";"keyboard";0;0;"0.763261497952044";6;"0.329243529587984";5;1;1;NA;0,8;0,2;1;0,8;0,2
"38";1;38;4;6;"FruitsAndVegs";"kiwi2";3;1;"0.561148356646299";326;2;"old";4;"FruitsAndVegs";"kiwi2";0;0;"0.822555913066026";6;"0.202554713468999";6;1;1;NA;0,8;0,2;1;0,8;0,2
"39";1;39;1;2;"Instruments";"hihat";1;0;"1.33936984185129";31;1;"old";1;"Instruments";"hihat";0;0;"1.9312178613618";6;"2.29913272242993";1;1;0;NA;0,33;0,67;0;0,33;0,67
"40";1;40;3;6;"HouseObjects";"dishsoap";3;0;"0.494712656363845";72;1;"old";3;"HouseObjects";"dishsoap";1;1;"1.14780957903713";6;"2.31495803128928";4;1;0;0;0,2;0,8;0;0,2;0,8
"41";1;41;4;4;"HouseObjects";"knife";1;1;"1.65706912614405";218;2;"old";4;"HouseObjects";"knife";0;0;"1.33508909615921";6;"9.94251458905637e-05";6;1;0;NA;0,8;0,2;1;0,8;0,2
"42";1;42;3;4;"FruitsAndVegs";"mango";1;0;"0.500444687902927";105;1;"old";3;"FruitsAndVegs";"mango";0;0;"0.631001081317663";6;"0.259926097467542";6;1;0;NA;0,2;0,8;0;0,2;0,8
"43";1;43;1;3;"FruitsAndVegs";"coffeebean";1;0;"1.4945590281859";32;1;"old";1;"FruitsAndVegs";"coffeebean";1;1;"1.54108271654695";6;"3.76095418818295";2;1;0;0;0,33;0,67;0;0,33;0,67
"44";1;44;3;6;"Instruments";"electricdrumset";3;0;"0.608990553766489";37;1;"old";3;"Instruments";"electricdrumset";0;0;"1.44913511164486";6;"2.00241475366056";1;1;0;NA;0,2;0,8;0;0,2;0,8
"45";1;45;1;3;"HouseObjects";"safetypin";1;1;"1.28319227229804";368;2;"old";1;"HouseObjects";"safetypin";0;0;"0.703672605101019";6;"0.818521496490575";4;1;0;NA;0,33;0,67;0;0,33;0,67
"46";1;46;4;5;"Instruments";"trumpet";1;0;"1.21365642454475";384;2;"old";4;"Instruments";"trumpet";0;0;"2.42512756085489";6;"0.947224803210702";1;1;0;NA;0,8;0,2;1;0,8;0,2
"47";1;47;1;3;"FruitsAndVegs";"celery";1;0;"1.04036124143749";45;1;"old";1;"FruitsAndVegs";"celery";0;0;"1.50747534353286";6;"1.73548301588744";2;1;0;NA;0,33;0,67;0;0,33;0,67
"48";1;48;4;4;"HouseObjects";"thread2";1;1;"1.24335413705558";324;2;"old";4;"HouseObjects";"thread2";0;0;"0.510638331994414";6;"0.179526242311113";4;1;1;NA;0,8;0,2;1;0,8;0,2
"49";1;49;1;1;"FruitsAndVegs";"endive2";2;0;"1.28559708315879";142;1;"old";1;"FruitsAndVegs";"endive2";1;1;"2.13567936513573";6;"0.509138312190771";6;1;0;0;0,33;0,67;0;0,33;0,67
"50";1;50;4;5;"Instruments";"speaker";2;1;"1.47199203819036";199;2;"old";4;"Instruments";"speaker";0;0;"0.946947054180782";6;"1.40125012706267";1;1;0;NA;0,8;0,2;1;0,8;0,2
"51";1;51;1;3;"Instruments";"flutetrans2";2;1;"1.33060437440872";24;1;"old";1;"Instruments";"flutetrans2";0;0;"1.94662526343018";6;"0.929461560212076";1;1;0;NA;0,33;0,67;0;0,33;0,67
"52";1;52;1;3;"HouseObjects";"iron2";2;0;"0.820941994898021";149;1;"old";1;"HouseObjects";"iron2";1;1;"2.41776224318892";6;"0.504717091098428";4;1;0;0;0,33;0,67;0;0,33;0,67
"53";1;53;4;5;"Instruments";"electricguitar";2;1;"1.23134387470782";9;1;"old";4;"Instruments";"electricguitar";1;1;"0.866871055215597";6;"4.15319426357746";1;1;0;0;0,8;0,2;1;0,8;0,2
"54";1;54;1;3;"Instruments";"record";2;1;"1.25002012588084";8;1;"old";1;"Instruments";"record";1;1;"1.28893360495567";6;"4.46780334506184";1;1;0;0;0,33;0,67;0;0,33;0,67
"55";1;55;4;6;"FruitsAndVegs";"casabamelon";3;1;"0.492046773433685";74;1;"old";4;"FruitsAndVegs";"casabamelon";1;1;"3.21393289137632";6;"0.972324792295694";6;1;1;1;0,8;0,2;1;0,8;0,2
"56";1;56;4;5;"Instruments";"tambourine";2;1;"1.17461305111647";226;2;"old";4;"Instruments";"tambourine";0;0;"0.460673659981694";6;"0.303932136856019";1;1;0;NA;0,8;0,2;1;0,8;0,2
"57";1;57;2;5;"Instruments";"metronome";2;1;"0.47358797583729";162;1;"old";2;"Instruments";"metronome";1;1;"0.979909343644977";6;"0.630663677118719";4;1;0;0;0,8;0,2;0;0,8;0,2
"58";1;58;4;5;"Instruments";"frenchhorn2";2;1;"0.683955024927855";122;1;"old";4;"Instruments";"frenchhorn2";1;1;"0.917684146203101";6;"0.33343446906656";5;1;1;1;0,8;0,2;1;0,8;0,2
"59";1;59;2;4;"HouseObjects";"rubbergloves2";1;1;"0.75853013433516";322;2;"old";2;"HouseObjects";"rubbergloves2";0;0;"0.491070818621665";6;"0.221131824015174";4;1;1;NA;0,8;0,2;0;0,8;0,2
"60";1;60;4;4;"HouseObjects";"towel";1;1;"0.512804863043129";333;2;"old";4;"HouseObjects";"towel";0;0;"0.513339489116333";6;"1.60985855007311";4;1;1;NA;0,8;0,2;1;0,8;0,2
"61";1;61;4;4;"HouseObjects";"cushion";1;1;"0.379768287763";17;1;"old";4;"HouseObjects";"cushion";0;0;"2.76052088662982";6;"7.05251326411963";4;1;1;NA;0,8;0,2;1;0,8;0,2
"62";1;62;2;5;"Instruments";"grandpiano2";1;0;"0.389638658612967";169;1;"old";2;"Instruments";"grandpiano2";0;0;"1.21785345766693";6;"0.157599768601358";5;1;1;NA;0,8;0,2;0;0,8;0,2
"63";1;63;4;6;"FruitsAndVegs";"greenolive";3;1;"0.584865151904523";259;2;"old";4;"FruitsAndVegs";"greenolive";0;0;"0.566749403369613";6;"0.199210500053596";6;1;1;NA;0,8;0,2;1;0,8;0,2
"64";1;64;1;2;"Instruments";"keyboard2";1;0;"1.2430953104049";369;2;"old";1;"Instruments";"keyboard2";0;0;"1.61803129839245";6;"0.621609642053954";1;1;0;NA;0,33;0,67;0;0,33;0,67
"65";1;65;4;6;"FruitsAndVegs";"carrot";3;1;"0.573525208979845";48;1;"old";4;"FruitsAndVegs";"carrot";1;1;"0.882061325013638";6;"9.30102542042732e-05";6;1;1;1;0,8;0,2;1;0,8;0,2
"66";1;66;1;3;"FruitsAndVegs";"coconut2";2;0;"0.760580221191049";58;1;"old";1;"FruitsAndVegs";"coconut2";0;0;"2.20639516692609";6;"1.37029722053558";2;1;0;NA;0,33;0,67;0;0,33;0,67
"67";1;67;3;4;"FruitsAndVegs";"mango2";1;0;"1.32300506997854";70;1;"old";3;"FruitsAndVegs";"mango2";0;0;"1.21042606327683";6;"0.638895776122808";6;1;0;NA;0,2;0,8;0;0,2;0,8
"68";1;68;4;5;"Instruments";"trumpet";2;1;"1.07049610372633";384;2;"old";4;"Instruments";"trumpet";0;0;"2.42512756085489";6;"0.947224803210702";1;1;0;NA;0,8;0,2;1;0,8;0,2
"69";1;69;4;5;"Instruments";"tambourine";2;1;"0.616641174070537";226;2;"old";4;"Instruments";"tambourine";0;0;"0.460673659981694";6;"0.303932136856019";1;1;0;NA;0,8;0,2;1;0,8;0,2
"70";1;70;3;5;"HouseObjects";"wateringcan2";2;0;"0.546907759271562";260;2;"old";3;"HouseObjects";"wateringcan2";0;0;"0.608467880694661";6;"1.28095754771493";4;1;0;NA;0,2;0,8;0;0,2;0,8
"71";1;71;1;1;"HouseObjects";"saw";3;0;"1.18946238793433";79;1;"old";1;"HouseObjects";"saw";0;0;"1.79989845771343";6;"0.93671736586839";4;1;0;NA;0,33;0,67;0;0,33;0,67
"72";1;72;4;5;"Instruments";"electricguitar";2;1;"0.72841964662075";9;1;"old";4;"Instruments";"electricguitar";1;1;"0.866871055215597";6;"4.15319426357746";1;1;0;0;0,8;0,2;1;0,8;0,2
"73";1;73;4;4;"HouseObjects";"flyswatter";1;1;"0.698995836079121";25;1;"old";4;"HouseObjects";"flyswatter";1;1;"0.796839684247971";6;"3.94970456231385";4;1;1;1;0,8;0,2;1;0,8;0,2
"74";1;74;4;6;"FruitsAndVegs";"cherrytomato2";3;1;"0.597461381927133";232;2;"old";4;"FruitsAndVegs";"cherrytomato2";0;0;"0.838335006963462";6;"0.281683351378888";1;1;0;NA;0,8;0,2;1;0,8;0,2
"75";1;75;2;6;"FruitsAndVegs";"lettuce";3;1;"0.56767001748085";296;2;"old";2;"FruitsAndVegs";"lettuce";1;1;"1.04115624405676";6;"1.05074820644222";6;1;1;1;0,8;0,2;0;0,8;0,2
"76";1;76;4;4;"HouseObjects";"cushion";1;1;"1.42606361862272";17;1;"old";4;"HouseObjects";"cushion";0;0;"2.76052088662982";6;"7.05251326411963";4;1;1;NA;0,8;0,2;1;0,8;0,2
"77";1;77;1;1;"HouseObjects";"thermometer";1;1;"1.40448607224971";198;2;"old";1;"HouseObjects";"thermometer";0;0;"1.23844142397866";6;"1.94654133537551";1;1;1;NA;0,33;0,67;0;0,33;0,67
"78";1;78;2;5;"Instruments";"electricguitar2";2;1;"1.25494200177491";350;2;"old";2;"Instruments";"electricguitar2";0;0;"0.857911500730552";6;"0.5045153456158";1;1;0;NA;0,8;0,2;0;0,8;0,2
"79";1;79;4;4;"HouseObjects";"recyclingbin2";1;1;"0.753552452661097";229;2;"old";4;"HouseObjects";"recyclingbin2";0;0;"0.400357545702718";1;"5.12151005654596";4;1;1;NA;0,8;0,2;1;0,8;0,2
"80";1;80;4;5;"Instruments";"trombone";2;1;"0.795877825468779";302;2;"old";4;"Instruments";"trombone";0;0;"1.15047164412681";6;"0.280929644475691";1;1;0;NA;0,8;0,2;1;0,8;0,2
"81";1;81;4;4;"HouseObjects";"towel";1;1;"1.15831017866731";333;2;"old";4;"HouseObjects";"towel";0;0;"0.513339489116333";6;"1.60985855007311";4;1;1;NA;0,8;0,2;1;0,8;0,2
"82";1;82;3;5;"FruitsAndVegs";"ginger";2;0;"1.16943331062794";250;2;"old";3;"FruitsAndVegs";"ginger";0;0;"0.603803236910608";6;"0.401148777571507";6;1;0;NA;0,2;0,8;0;0,2;0,8
"83";1;83;3;6;"Instruments";"oboe";3;0;"1.95565629284829";288;2;"old";3;"Instruments";"oboe";0;0;"0.94900804158533";6;"1.09950919251423";1;1;0;NA;0,2;0,8;0;0,2;0,8
"84";1;84;2;5;"Instruments";"laud2";2;1;"0.886064958758652";264;2;"old";2;"Instruments";"laud2";0;0;"0.512583537201863";6;"0.403336451854557";4;1;0;NA;0,8;0,2;0;0,8;0,2
"85";1;85;2;6;"FruitsAndVegs";"casabamelon2";3;1;"0.696722844615579";35;1;"old";2;"FruitsAndVegs";"casabamelon2";0;0;"2.04905582871288";1;"3.30902394186705";2;1;0;NA;0,8;0,2;0;0,8;0,2
"86";1;86;1;3;"Instruments";"musicstand2";1;0;"1.33090778253973";156;1;"old";1;"Instruments";"musicstand2";1;1;"1.11139873228967";6;"0.902994531206787";5;1;0;0;0,33;0,67;0;0,33;0,67
"87";1;87;4;5;"Instruments";"trombone";1;0;"1.52533855102956";302;2;"old";4;"Instruments";"trombone";0;0;"1.15047164412681";6;"0.280929644475691";1;1;0;NA;0,8;0,2;1;0,8;0,2
"88";1;88;4;5;"Instruments";"tambourine";2;1;"0.496595323085785";226;2;"old";4;"Instruments";"tambourine";0;0;"0.460673659981694";6;"0.303932136856019";1;1;0;NA;0,8;0,2;1;0,8;0,2
"89";1;89;3;4;"FruitsAndVegs";"kiwi";1;0;"0.947096731513739";323;2;"old";3;"FruitsAndVegs";"kiwi";0;0;"0.509703414747491";6;"0.121937905438244";6;1;0;NA;0,2;0,8;0;0,2;0,8
"90";1;90;4;5;"Instruments";"keyboard";2;1;"0.821226799860597";185;1;"old";4;"Instruments";"keyboard";0;0;"0.763261497952044";6;"0.329243529587984";5;1;1;NA;0,8;0,2;1;0,8;0,2
"91";1;91;3;5;"HouseObjects";"rubbergloves";2;0;"0.639698234386742";224;2;"old";3;"HouseObjects";"rubbergloves";0;0;"0.539547320455313";6;"0.244473003374878";1;1;0;NA;0,2;0,8;0;0,2;0,8
"92";1;92;3;5;"FruitsAndVegs";"mushroom";2;0;"0.506796043366194";77;1;"old";3;"FruitsAndVegs";"mushroom";1;1;"0.898665037937462";6;"0.360895430669188";6;1;0;0;0,2;0,8;0;0,2;0,8
"93";1;93;4;6;"FruitsAndVegs";"greenolive";3;1;"0.750027983449399";259;2;"old";4;"FruitsAndVegs";"greenolive";0;0;"0.566749403369613";6;"0.199210500053596";6;1;1;NA;0,8;0,2;1;0,8;0,2
"94";1;94;4;4;"HouseObjects";"flyswatter2";1;1;"0.952452229335904";52;1;"old";4;"HouseObjects";"flyswatter2";1;1;"3.86752854567021";NA;"6.6390261054039e-05";6;1;0;0;0,8;0,2;1;0,8;0,2
"95";1;95;1;2;"HouseObjects";"scale2";1;1;"1.54681154061109";60;1;"old";1;"HouseObjects";"scale2";0;0;"1.63606151100248";6;"1.75287892576307";3;1;0;NA;0,33;0,67;0;0,33;0,67
"96";1;96;3;4;"Instruments";"guitarcase";1;0;"1.14924322906882";51;1;"old";3;"Instruments";"guitarcase";0;0;"0.81587771512568";1;"2.14729866106063";1;1;0;NA;0,2;0,8;0;0,2;0,8
"97";1;97;1;3;"Instruments";"maraca";1;0;"1.39166437089443";303;2;"old";1;"Instruments";"maraca";0;0;"0.902533834218048";6;"0.328164935461245";1;1;0;NA;0,33;0,67;0;0,33;0,67
"98";1;98;4;4;"HouseObjects";"flyswatter2";1;1;"1.44989972468466";52;1;"old";4;"HouseObjects";"flyswatter2";1;1;"3.86752854567021";NA;"6.6390261054039e-05";6;1;0;0;0,8;0,2;1;0,8;0,2
"99";1;99;1;2;"FruitsAndVegs";"cherry";1;0;"1.492486811243";337;2;"old";1;"FruitsAndVegs";"cherry";0;0;"2.06116186961299";6;"9.58971795625985e-05";6;1;0;NA;0,33;0,67;0;0,33;0,67
"100";1;100;4;5;"Instruments";"pipepiano";2;1;"1.19942288380116";187;1;"old";4;"Instruments";"pipepiano";1;1;"0.98940221965313";6;"0.688353475183249";5;1;1;1;0,8;0,2;1;0,8;0,2
"101";1;101;4;6;"FruitsAndVegs";"casabamelon";3;1;"0.642002657055855";74;1;"old";4;"FruitsAndVegs";"casabamelon";1;1;"3.21393289137632";6;"0.972324792295694";6;1;1;1;0,8;0,2;1;0,8;0,2
"102";1;102;4;6;"FruitsAndVegs";"lettuce2";2;0;"0.844458656385541";365;2;"old";4;"FruitsAndVegs";"lettuce2";1;1;"1.15026028541615";6;"0.643668557575438";6;1;1;1;0,8;0,2;1;0,8;0,2
"103";1;103;4;4;"HouseObjects";"flyswatter";1;1;"1.06288012117147";25;1;"old";4;"HouseObjects";"flyswatter";1;1;"0.796839684247971";6;"3.94970456231385";4;1;1;1;0,8;0,2;1;0,8;0,2
"104";1;104;4;4;"HouseObjects";"thread2";1;1;"0.737048164010048";324;2;"old";4;"HouseObjects";"thread2";0;0;"0.510638331994414";6;"0.179526242311113";4;1;1;NA;0,8;0,2;1;0,8;0,2
"105";1;105;4;4;"HouseObjects";"key";1;1;"0.611814875155687";84;1;"old";4;"HouseObjects";"key";1;1;"1.03075739368796";6;"0.79063490126282";4;1;1;1;0,8;0,2;1;0,8;0,2
"106";1;106;4;5;"Instruments";"electricguitar";2;1;"0.709864309988916";9;1;"old";4;"Instruments";"electricguitar";1;1;"0.866871055215597";6;"4.15319426357746";1;1;0;0;0,8;0,2;1;0,8;0,2
"107";1;107;1;1;"Instruments";"maraca2";1;0;"1.28847560752183";121;1;"old";1;"Instruments";"maraca2";0;0;"0.734465669840574";1;"1.33131638821214";5;1;0;NA;0,33;0,67;0;0,33;0,67
"108";1;108;1;2;"FruitsAndVegs";"pineapple";1;0;"1.69086829479784";95;1;"old";1;"FruitsAndVegs";"pineapple";0;0;"0.807339964434505";6;"0.611617307178676";6;1;0;NA;0,33;0,67;0;0,33;0,67
"109";1;109;1;1;"Instruments";"drums2";3;0;"1.01397888362408";291;2;"old";1;"Instruments";"drums2";1;1;"2.80349899595603";6;"1.30302255699644";1;1;1;1;0,33;0,67;0;0,33;0,67
"110";1;110;2;4;"HouseObjects";"vacuumcleaner";1;1;"1.32036741171032";353;2;"old";2;"HouseObjects";"vacuumcleaner";0;0;"0.618315461906604";6;"0.187976418877952";4;1;1;NA;0,8;0,2;0;0,8;0,2
"111";1;111;4;6;"FruitsAndVegs";"cauliflower";3;1;"0.626748884096742";164;1;"old";4;"FruitsAndVegs";"cauliflower";0;0;"0.841757494024932";6;"0.294363192282617";6;1;1;NA;0,8;0,2;1;0,8;0,2
"112";1;112;4;5;"Instruments";"frenchhorn2";2;1;"0.933126186020672";122;1;"old";4;"Instruments";"frenchhorn2";1;1;"0.917684146203101";6;"0.33343446906656";5;1;1;1;0,8;0,2;1;0,8;0,2
"113";1;113;3;4;"Instruments";"harmonica2";1;0;"0.807410845533013";50;1;"old";3;"Instruments";"harmonica2";0;0;"1.7081240452826";6;"1.02502504084259";1;1;0;NA;0,2;0,8;0;0,2;0,8
"114";1;114;4;6;"FruitsAndVegs";"cauliflower";3;1;"0.626916303299367";164;1;"old";4;"FruitsAndVegs";"cauliflower";0;0;"0.841757494024932";6;"0.294363192282617";6;1;1;NA;0,8;0,2;1;0,8;0,2
"115";1;115;4;6;"FruitsAndVegs";"cauliflower";3;1;"0.533223943784833";164;1;"old";4;"FruitsAndVegs";"cauliflower";0;0;"0.841757494024932";6;"0.294363192282617";6;1;1;NA;0,8;0,2;1;0,8;0,2
"116";1;116;2;6;"FruitsAndVegs";"onion";3;1;"1.10355343017727";170;1;"old";2;"FruitsAndVegs";"onion";0;0;"0.825110482983291";6;"0.133608111180365";6;1;1;NA;0,8;0,2;0;0,8;0,2
"117";1;117;4;6;"FruitsAndVegs";"cabbage";3;1;"0.449963549152017";3;1;"old";4;"FruitsAndVegs";"cabbage";0;0;"2.64326760452241";NA;"6.06169924139977e-05";6;1;1;NA;0,8;0,2;1;0,8;0,2
"118";1;118;4;4;"HouseObjects";"cushion";1;1;"1.3483399329707";17;1;"old";4;"HouseObjects";"cushion";0;0;"2.76052088662982";6;"7.05251326411963";4;1;1;NA;0,8;0,2;1;0,8;0,2
"119";1;119;4;4;"HouseObjects";"cushion";1;1;"0.430720894597471";17;1;"old";4;"HouseObjects";"cushion";0;0;"2.76052088662982";6;"7.05251326411963";4;1;1;NA;0,8;0,2;1;0,8;0,2
"120";1;120;4;4;"HouseObjects";"towel";1;1;"0.641018346883357";333;2;"old";4;"HouseObjects";"towel";0;0;"0.513339489116333";6;"1.60985855007311";4;1;1;NA;0,8;0,2;1;0,8;0,2
"121";1;121;1;2;"Instruments";"gong";3;0;"1.43537913262844";10;1;"old";1;"Instruments";"gong";1;1;"1.51720619853586";6;"3.57408455759287";5;1;0;0;0,33;0,67;0;0,33;0,67
"122";1;122;3;6;"HouseObjects";"pan2";3;0;"0.766094478778541";118;1;"old";3;"HouseObjects";"pan2";0;0;"1.08235690649599";6;"0.38540698774159";4;1;0;NA;0,2;0,8;0;0,2;0,8
"123";1;123;2;6;"FruitsAndVegs";"grape";3;1;"0.600231501273811";205;2;"old";2;"FruitsAndVegs";"grape";0;0;"0.57175369624747";6;"0.387855954119004";1;1;0;NA;0,8;0,2;0;0,8;0,2
"124";1;124;1;3;"FruitsAndVegs";"cauliflower2";3;1;"1.42679615877569";208;2;"old";1;"FruitsAndVegs";"cauliflower2";0;0;"0.672734381223563";6;"0.373760352667887";1;1;0;NA;0,33;0,67;0;0,33;0,67
"125";1;125;2;4;"HouseObjects";"safetypin2";1;1;"0.941184130497277";378;2;"old";2;"HouseObjects";"safetypin2";0;0;"0.652146316657308";6;"2.33964854164515";4;1;1;NA;0,8;0,2;0;0,8;0,2
"126";1;126;4;6;"FruitsAndVegs";"kiwi2";3;1;"0.592333599925041";326;2;"old";4;"FruitsAndVegs";"kiwi2";0;0;"0.822555913066026";6;"0.202554713468999";6;1;1;NA;0,8;0,2;1;0,8;0,2
"127";1;127;3;4;"FruitsAndVegs";"cucumber2";1;0;"0.786549801938236";373;2;"old";3;"FruitsAndVegs";"cucumber2";0;0;"0.604521022469271";6;"0.225749641715083";6;1;0;NA;0,2;0,8;0;0,2;0,8
"128";1;128;2;6;"FruitsAndVegs";"corn2";3;1;"0.660968844778836";26;1;"old";2;"FruitsAndVegs";"corn2";0;0;"1.93839925806969";6;"4.10256078001112";2;1;0;NA;0,8;0,2;0;0,8;0,2
"129";1;129;2;5;"Instruments";"record2";2;1;"1.095573422499";82;1;"old";2;"Instruments";"record2";0;0;"0.735835175029933";6;"1.05431863665581";5;1;1;NA;0,8;0,2;0;0,8;0,2
"130";1;130;2;6;"FruitsAndVegs";"greenolive2";3;1;"0.825804856605828";124;1;"old";2;"FruitsAndVegs";"greenolive2";0;0;"0.59760667104274";6;"0.269235518760979";6;1;1;NA;0,8;0,2;0;0,8;0,2
"131";1;131;1;1;"HouseObjects";"glass";2;0;"1.3481834186241";117;1;"old";1;"HouseObjects";"glass";0;0;"0.733634347096086";6;"0.000104556791484356";6;1;0;NA;0,33;0,67;0;0,33;0,67
"132";1;132;4;4;"HouseObjects";"flyswatter";1;1;"0.766728556714952";25;1;"old";4;"HouseObjects";"flyswatter";1;1;"0.796839684247971";6;"3.94970456231385";4;1;1;1;0,8;0,2;1;0,8;0,2
"133";1;133;2;4;"HouseObjects";"spraybottle2";1;1;"0.601108688861132";12;1;"old";2;"HouseObjects";"spraybottle2";0;0;"1.05571347754449";6;"3.23812051396817";4;1;1;NA;0,8;0,2;0;0,8;0,2
"134";1;134;4;5;"Instruments";"trumpet";2;1;"0.787385616451502";384;2;"old";4;"Instruments";"trumpet";0;0;"2.42512756085489";6;"0.947224803210702";1;1;0;NA;0,8;0,2;1;0,8;0,2
"135";1;135;1;2;"FruitsAndVegs";"peppergreen";3;1;"1.01393847260624";295;2;"old";1;"FruitsAndVegs";"peppergreen";0;0;"0.62670726631768";6;"1.0514072990045";6;1;0;NA;0,33;0,67;0;0,33;0,67
"136";1;136;4;6;"FruitsAndVegs";"cherrytomato2";3;1;"0.480188536457717";232;2;"old";4;"FruitsAndVegs";"cherrytomato2";0;0;"0.838335006963462";6;"0.281683351378888";1;1;0;NA;0,8;0,2;1;0,8;0,2
"137";1;137;1;2;"Instruments";"panflute2";3;0;"0.834804453887045";153;1;"old";1;"Instruments";"panflute2";0;0;"1.22790728509426";6;"0.334166688844562";5;1;0;NA;0,33;0,67;0;0,33;0,67
"138";1;138;1;1;"Instruments";"gong2";2;1;"0.765038004145026";197;2;"old";1;"Instruments";"gong2";0;0;"0.694406180002261";1;"1.29059152514674";1;1;1;NA;0,33;0,67;0;0,33;0,67
"139";1;139;4;5;"Instruments";"frenchhorn2";1;0;"0.80760296061635";122;1;"old";4;"Instruments";"frenchhorn2";1;1;"0.917684146203101";6;"0.33343446906656";5;1;1;1;0,8;0,2;1;0,8;0,2
"140";1;140;4;6;"FruitsAndVegs";"cabbage";3;1;"0.634784697555006";3;1;"old";4;"FruitsAndVegs";"cabbage";0;0;"2.64326760452241";NA;"6.06169924139977e-05";6;1;1;NA;0,8;0,2;1;0,8;0,2
"141";1;141;1;1;"HouseObjects";"iron";2;0;"0.796959958039224";73;1;"old";1;"HouseObjects";"iron";1;1;"0.852316787466407";6;"1.26469947677106";4;1;0;0;0,33;0,67;0;0,33;0,67
"142";1;142;4;4;"HouseObjects";"flyswatter2";1;1;"1.50337837729603";52;1;"old";4;"HouseObjects";"flyswatter2";1;1;"3.86752854567021";NA;"6.6390261054039e-05";6;1;0;0;0,8;0,2;1;0,8;0,2
"143";1;143;1;1;"FruitsAndVegs";"onion2";1;0;"1.00995376054198";128;1;"old";1;"FruitsAndVegs";"onion2";0;0;"0.744785059243441";6;"0.865192050114274";6;1;0;NA;0,33;0,67;0;0,33;0,67
"144";1;144;4;6;"FruitsAndVegs";"lettuce2";3;1;"0.772360521368682";365;2;"old";4;"FruitsAndVegs";"lettuce2";1;1;"1.15026028541615";6;"0.643668557575438";6;1;1;1;0,8;0,2;1;0,8;0,2
"145";1;145;1;1;"HouseObjects";"handbrush2";3;0;"1.24730132333934";367;2;"old";1;"HouseObjects";"handbrush2";0;0;"0.702497463847976";6;"0.974632471683435";4;1;0;NA;0,33;0,67;0;0,33;0,67
"146";1;146;4;4;"HouseObjects";"key";1;1;"1.52168547175825";84;1;"old";4;"HouseObjects";"key";1;1;"1.03075739368796";6;"0.79063490126282";4;1;1;1;0,8;0,2;1;0,8;0,2
"147";1;147;3;5;"FruitsAndVegs";"cucumber";2;0;"1.00424867030233";21;1;"old";3;"FruitsAndVegs";"cucumber";0;0;"2.47755440510809";6;"3.65810539573431";6;1;0;NA;0,2;0,8;0;0,2;0,8
"148";1;148;4;4;"HouseObjects";"flyswatter2";1;1;"1.9907114263624";52;1;"old";4;"HouseObjects";"flyswatter2";1;1;"3.86752854567021";NA;"6.6390261054039e-05";6;1;0;0;0,8;0,2;1;0,8;0,2
"149";1;149;1;3;"HouseObjects";"dishsoap2";3;0;"1.95356226619333";166;1;"old";1;"HouseObjects";"dishsoap2";0;0;"1.31004834361374";1;"1.86384595837444";4;1;0;NA;0,33;0,67;0;0,33;0,67
"150";1;150;4;6;"FruitsAndVegs";"greenolive";3;1;"0.924344682134688";259;2;"old";4;"FruitsAndVegs";"greenolive";0;0;"0.566749403369613";6;"0.199210500053596";6;1;1;NA;0,8;0,2;1;0,8;0,2
"151";1;151;3;6;"HouseObjects";"spraybottle";3;0;"0.590805976651609";28;1;"old";3;"HouseObjects";"spraybottle";1;1;"2.12381182704121";6;"4.52915520220995";4;1;0;0;0,2;0,8;0;0,2;0,8
"152";1;152;4;6;"FruitsAndVegs";"cabbage";3;1;"0.480868798680604";3;1;"old";4;"FruitsAndVegs";"cabbage";0;0;"2.64326760452241";NA;"6.06169924139977e-05";6;1;1;NA;0,8;0,2;1;0,8;0,2
"153";1;153;1;2;"FruitsAndVegs";"cabbage2";3;1;"0.84328062646091";330;2;"old";1;"FruitsAndVegs";"cabbage2";0;0;"0.69159212714294";6;"0.232318116934039";6;1;0;NA;0,33;0,67;0;0,33;0,67
"154";1;154;2;5;"Instruments";"trombone2";1;0;"1.00565666146576";151;1;"old";2;"Instruments";"trombone2";1;1;"0.995317066088319";6;"0.441234645433724";5;1;1;1;0,8;0,2;0;0,8;0,2
"155";1;155;4;6;"FruitsAndVegs";"cabbage";3;1;"0.592887494713068";3;1;"old";4;"FruitsAndVegs";"cabbage";0;0;"2.64326760452241";NA;"6.06169924139977e-05";6;1;1;NA;0,8;0,2;1;0,8;0,2
"156";1;156;1;1;"Instruments";"guitarcase2";2;1;"1.48318220116198";366;2;"old";1;"Instruments";"guitarcase2";0;0;"0.914657610177528";6;"1.49124433158431";1;1;1;NA;0,33;0,67;0;0,33;0,67
"157";1;157;4;5;"Instruments";"pipepiano";2;1;"1.06162639986724";187;1;"old";4;"Instruments";"pipepiano";1;1;"0.98940221965313";6;"0.688353475183249";5;1;1;1;0,8;0,2;1;0,8;0,2
"158";1;158;2;4;"HouseObjects";"sponge2";1;1;"0.688191186636686";19;1;"old";2;"HouseObjects";"sponge2";0;0;"0.941292856819928";6;"5.37566586956382";3;1;0;NA;0,8;0,2;0;0,8;0,2
"159";1;159;4;4;"HouseObjects";"towel";1;1;"0.642450712621212";333;2;"old";4;"HouseObjects";"towel";0;0;"0.513339489116333";6;"1.60985855007311";4;1;1;NA;0,8;0,2;1;0,8;0,2
"160";1;160;4;6;"FruitsAndVegs";"cherrytomato2";3;1;"1.02897864207625";232;2;"old";4;"FruitsAndVegs";"cherrytomato2";0;0;"0.838335006963462";6;"0.281683351378888";1;1;0;NA;0,8;0,2;1;0,8;0,2
"161";1;161;4;4;"HouseObjects";"thread2";1;1;"1.01545230299234";324;2;"old";4;"HouseObjects";"thread2";0;0;"0.510638331994414";6;"0.179526242311113";4;1;1;NA;0,8;0,2;1;0,8;0,2
"162";1;162;1;1;"HouseObjects";"dustpan2";2;0;"1.4417840493843";347;2;"old";1;"HouseObjects";"dustpan2";0;0;"0.488955307751894";6;"0.213431184820365";4;1;0;NA;0,33;0,67;0;0,33;0,67
"163";1;163;4;6;"FruitsAndVegs";"cauliflower";3;1;"1.33275260403752";164;1;"old";4;"FruitsAndVegs";"cauliflower";0;0;"0.841757494024932";6;"0.294363192282617";6;1;1;NA;0,8;0,2;1;0,8;0,2
"164";1;164;1;1;"Instruments";"triangle";2;1;"1.0711651397869";98;1;"old";1;"Instruments";"triangle";1;1;"0.945851990021765";6;"0.412264662794769";5;1;0;0;0,33;0,67;0;0,33;0,67
"165";1;165;1;2;"Instruments";"drums";3;0;"0.94574262201786";112;1;"old";1;"Instruments";"drums";0;0;"0.810899712145329";1;"1.53146090824157";5;1;0;NA;0,33;0,67;0;0,33;0,67
"166";1;166;1;1;"FruitsAndVegs";"coconut";2;0;"1.56417633965611";292;2;"old";1;"FruitsAndVegs";"coconut";0;0;"0.618208660103846";6;"0.327309879008681";6;1;0;NA;0,33;0,67;0;0,33;0,67
"167";1;167;4;6;"FruitsAndVegs";"carrot";3;1;"0.990544970147312";48;1;"old";4;"FruitsAndVegs";"carrot";1;1;"0.882061325013638";6;"9.30102542042732e-05";6;1;1;1;0,8;0,2;1;0,8;0,2
"168";1;168;4;5;"Instruments";"speaker";2;1;"1.86547685507685";199;2;"old";4;"Instruments";"speaker";0;0;"0.946947054180782";6;"1.40125012706267";1;1;0;NA;0,8;0,2;1;0,8;0,2
"169";1;169;3;5;"FruitsAndVegs";"lemon";2;0;"0.955885612405837";104;1;"old";3;"FruitsAndVegs";"lemon";0;0;"1.78131650015712";6;"0.497567125596106";6;1;0;NA;0,2;0,8;0;0,2;0,8
"170";1;170;4;4;"HouseObjects";"knife";1;1;"1.23113860934973";218;2;"old";4;"HouseObjects";"knife";0;0;"1.33508909615921";6;"9.94251458905637e-05";6;1;0;NA;0,8;0,2;1;0,8;0,2
"171";1;171;1;2;"FruitsAndVegs";"pear";3;1;"0.913605140522122";225;2;"old";1;"FruitsAndVegs";"pear";0;0;"0.444518674747087";6;"0.287011577864178";1;1;0;NA;0,33;0,67;0;0,33;0,67
"172";1;172;4;4;"HouseObjects";"flyswatter2";1;1;"1.10779760964215";52;1;"old";4;"HouseObjects";"flyswatter2";1;1;"3.86752854567021";NA;"6.6390261054039e-05";6;1;0;0;0,8;0,2;1;0,8;0,2
"173";1;173;1;2;"HouseObjects";"handbrush";3;0;"0.879139182157815";125;1;"old";1;"HouseObjects";"handbrush";0;0;"0.627813376486301";6;"0.277871412225068";6;1;0;NA;0,33;0,67;0;0,33;0,67
"174";1;174;4;4;"HouseObjects";"knife";1;1;"1.88145034015179";218;2;"old";4;"HouseObjects";"knife";0;0;"1.33508909615921";6;"9.94251458905637e-05";6;1;0;NA;0,8;0,2;1;0,8;0,2
"175";1;175;4;5;"Instruments";"tambourine";2;1;"0.851915879175067";226;2;"old";4;"Instruments";"tambourine";0;0;"0.460673659981694";6;"0.303932136856019";1;1;0;NA;0,8;0,2;1;0,8;0,2
"176";1;176;3;6;"HouseObjects";"handvacuum";3;0;"0.734160018153489";249;2;"old";3;"HouseObjects";"handvacuum";0;0;"0.69357934751315";6;"0.000102311722002923";6;1;1;NA;0,2;0,8;0;0,2;0,8
"177";1;177;1;1;"Instruments";"flutetrans";2;1;"0.808581818826497";2;1;"old";1;"Instruments";"flutetrans";0;0;"NaN";NA;"6.2601518901065";1;1;1;NA;0,33;0,67;0;0,33;0,67
"178";1;178;4;5;"Instruments";"speaker";2;1;"0.87496042996645";199;2;"old";4;"Instruments";"speaker";0;0;"0.946947054180782";6;"1.40125012706267";1;1;0;NA;0,8;0,2;1;0,8;0,2
"179";1;179;2;4;"HouseObjects";"lintroller2";1;1;"0.717402034439147";165;1;"old";2;"HouseObjects";"lintroller2";0;0;"0.756413015536964";6;"0.479952480643988";4;1;1;NA;0,8;0,2;0;0,8;0,2
"180";1;180;3;4;"Instruments";"musicsheet";1;0;"0.471809224225581";256;2;"old";3;"Instruments";"musicsheet";0;0;"0.752690493012778";6;"1.58580760331824";1;1;0;NA;0,2;0,8;0;0,2;0,8
"181";1;181;1;1;"FruitsAndVegs";"ginger2";2;0;"1.09105341788381";178;1;"old";1;"FruitsAndVegs";"ginger2";0;0;"0.861919031478465";6;"0.192200113087893";6;1;0;NA;0,33;0,67;0;0,33;0,67
"182";1;182;1;3;"HouseObjects";"pitcher";0;0;"NaN";319;2;"old";1;"HouseObjects";"pitcher";0;0;"0.545907644263934";6;"0.15189470682526";4;1;0;NA;0,33;0,67;0;0,33;0,67
"183";1;183;1;2;"Instruments";"saxophone";3;0;"0.800419638864696";310;2;"old";1;"Instruments";"saxophone";0;0;"2.52474483818514";6;"0.366392627416644";1;1;0;NA;0,33;0,67;0;0,33;0,67
"184";1;184;4;5;"Instruments";"speaker";2;1;"1.17097728978842";199;2;"old";4;"Instruments";"speaker";0;0;"0.946947054180782";6;"1.40125012706267";1;1;0;NA;0,8;0,2;1;0,8;0,2
"185";1;185;3;6;"HouseObjects";"match2";3;0;"0.789409403689206";195;2;"old";3;"HouseObjects";"match2";0;0;"0.984677620348521";1;"0.873474745836575";1;1;0;NA;0,2;0,8;0;0,2;0,8
"186";1;186;2;5;"Instruments";"saxophone2";1;0;"0.896331749856472";1;1;"old";2;"Instruments";"saxophone2";1;1;"1.51722063217312";6;"18.9499476738274";1;1;0;0;0,8;0,2;0;0,8;0,2
"187";1;187;3;6;"HouseObjects";"thread";3;0;"0.834736139513552";109;1;"old";3;"HouseObjects";"thread";0;0;"0.617257932201028";6;"3.37900207098573";4;1;0;NA;0,2;0,8;0;0,2;0,8
"188";1;188;3;4;"FruitsAndVegs";"brusselssprout";1;0;"1.43714216910303";80;1;"old";3;"FruitsAndVegs";"brusselssprout";0;0;"1.67511963844299";1;"0.99513649661094";6;1;0;NA;0,2;0,8;0;0,2;0,8
"189";1;189;4;4;"HouseObjects";"knife";3;0;"0.775564262643456";218;2;"old";4;"HouseObjects";"knife";0;0;"1.33508909615921";6;"9.94251458905637e-05";6;1;0;NA;0,8;0,2;1;0,8;0,2
"190";1;190;4;4;"HouseObjects";"recyclingbin2";1;1;"0.777995052747428";229;2;"old";4;"HouseObjects";"recyclingbin2";0;0;"0.400357545702718";1;"5.12151005654596";4;1;1;NA;0,8;0,2;1;0,8;0,2
"191";1;191;4;4;"HouseObjects";"flyswatter";1;1;"0.540397002361715";25;1;"old";4;"HouseObjects";"flyswatter";1;1;"0.796839684247971";6;"3.94970456231385";4;1;1;1;0,8;0,2;1;0,8;0,2
"192";1;192;3;4;"FruitsAndVegs";"corn";1;0;"1.0156742464751";173;1;"old";3;"FruitsAndVegs";"corn";0;0;"1.30352187063545";6;"0.190394741483033";6;1;0;NA;0,2;0,8;0;0,2;0,8
"193";1;193;1;3;"HouseObjects";"scale";1;1;"1.63407204207033";338;2;"old";1;"HouseObjects";"scale";0;0;"0.739009269920643";6;"0.544646548340097";4;1;0;NA;0,33;0,67;0;0,33;0,67
"194";1;194;1;2;"HouseObjects";"dustpan";3;0;"0.67635091021657";255;2;"old";1;"HouseObjects";"dustpan";0;0;"0.865119183494244";6;"1.20927874103654";4;1;0;NA;0,33;0,67;0;0,33;0,67
"195";1;195;2;6;"FruitsAndVegs";"eggplant2";3;1;"0.646909139119089";265;2;"old";2;"FruitsAndVegs";"eggplant2";0;0;"0.772368336212821";6;"1.70413605467184";6;1;1;NA;0,8;0,2;0;0,8;0,2
"196";1;196;2;5;"Instruments";"pipepiano2";2;1;"0.905153344385326";358;2;"old";2;"Instruments";"pipepiano2";0;0;"0.600595011434052";2;"1.50492523383582";1;1;0;NA;0,8;0,2;0;0,8;0,2
"197";1;197;1;1;"HouseObjects";"pan";2;0;"0.95573070179671";179;1;"old";1;"HouseObjects";"pan";1;1;"1.21761323325336";6;"1.16346297878772";4;1;0;0;0,33;0,67;0;0,33;0,67
"198";1;198;2;6;"FruitsAndVegs";"lemon2";3;1;"0.678625184111297";29;1;"old";2;"FruitsAndVegs";"lemon2";0;0;"1.94127297122031";6;"2.41019052173942";2;1;0;NA;0,8;0,2;0;0,8;0,2
"199";1;199;3;6;"HouseObjects";"teapot2";3;0;"0.681053408421576";83;1;"old";3;"HouseObjects";"teapot2";0;0;"1.01976640243083";6;"0.547494048252702";4;1;0;NA;0,2;0,8;0;0,2;0,8
"200";1;200;4;6;"FruitsAndVegs";"carrot";3;1;"0.739447843283415";48;1;"old";4;"FruitsAndVegs";"carrot";1;1;"0.882061325013638";6;"9.30102542042732e-05";6;1;1;1;0,8;0,2;1;0,8;0,2
"201";1;201;4;6;"FruitsAndVegs";"kiwi2";3;1;"0.510727194137871";326;2;"old";4;"FruitsAndVegs";"kiwi2";0;0;"0.822555913066026";6;"0.202554713468999";6;1;1;NA;0,8;0,2;1;0,8;0,2
"202";1;202;4;6;"FruitsAndVegs";"carrot";3;1;"0.705203826539218";48;1;"old";4;"FruitsAndVegs";"carrot";1;1;"0.882061325013638";6;"9.30102542042732e-05";6;1;1;1;0,8;0,2;1;0,8;0,2
"203";1;203;2;6;"FruitsAndVegs";"brusselssprout2";3;1;"0.540093595162034";59;1;"old";2;"FruitsAndVegs";"brusselssprout2";1;1;"0.994301964528859";6;"1.9478318374604";6;1;1;1;0,8;0,2;0;0,8;0,2
"204";1;204;1;2;"HouseObjects";"ironingboard";3;0;"1.03937372285873";130;1;"old";1;"HouseObjects";"ironingboard";0;0;"0.67849529068917";6;"0.455126291140914";4;1;0;NA;0,33;0,67;0;0,33;0,67
"205";1;205;3;6;"Instruments";"hihat2";3;0;"0.530281916260719";23;1;"old";3;"Instruments";"hihat2";0;0;"1.53259756416082";6;"0.894035986624658";1;1;0;NA;0,2;0,8;0;0,2;0,8
"206";1;206;4;5;"Instruments";"tambourine";2;1;"1.23670129850507";226;2;"old";4;"Instruments";"tambourine";0;0;"0.460673659981694";6;"0.303932136856019";1;1;0;NA;0,8;0,2;1;0,8;0,2
"207";1;207;4;6;"FruitsAndVegs";"carrot";3;1;"0.775100812315941";48;1;"old";4;"FruitsAndVegs";"carrot";1;1;"0.882061325013638";6;"9.30102542042732e-05";6;1;1;1;0,8;0,2;1;0,8;0,2
"208";1;208;4;5;"Instruments";"trumpet";2;1;"0.825741032138467";384;2;"old";4;"Instruments";"trumpet";0;0;"2.42512756085489";6;"0.947224803210702";1;1;0;NA;0,8;0,2;1;0,8;0,2
"209";1;209;2;6;"FruitsAndVegs";"broccoli";3;1;"0.692109508439898";89;1;"old";2;"FruitsAndVegs";"broccoli";0;0;"1.08127573691308";6;"2.23983961064368";6;1;1;NA;0,8;0,2;0;0,8;0,2
"210";1;210;2;4;"HouseObjects";"wateringcan";1;1;"0.894356392323971";93;1;"old";2;"HouseObjects";"wateringcan";0;0;"0.704959752969444";6;"0.986571804620326";4;1;1;NA;0,8;0,2;0;0,8;0,2
"211";1;211;3;5;"HouseObjects";"lintroller";1;1;"0.592796408571303";235;2;"old";3;"HouseObjects";"lintroller";0;0;"0.49839941522805";6;"0.142213903309312";1;1;0;NA;0,2;0,8;0;0,2;0,8
"212";1;212;4;5;"Instruments";"keyboard";2;1;"0.811138975434005";185;1;"old";4;"Instruments";"keyboard";0;0;"0.763261497952044";6;"0.329243529587984";5;1;1;NA;0,8;0,2;1;0,8;0,2
"213";1;213;4;4;"HouseObjects";"knife";1;1;"0.861568797379732";218;2;"old";4;"HouseObjects";"knife";0;0;"1.33508909615921";6;"9.94251458905637e-05";6;1;0;NA;0,8;0,2;1;0,8;0,2
"214";1;214;4;6;"FruitsAndVegs";"kiwi2";3;1;"1.83201380912215";326;2;"old";4;"FruitsAndVegs";"kiwi2";0;0;"0.822555913066026";6;"0.202554713468999";6;1;1;NA;0,8;0,2;1;0,8;0,2
"215";1;215;4;6;"FruitsAndVegs";"cauliflower";3;1;"0.378548883832991";164;1;"old";4;"FruitsAndVegs";"cauliflower";0;0;"0.841757494024932";6;"0.294363192282617";6;1;1;NA;0,8;0,2;1;0,8;0,2
"216";1;216;1;2;"FruitsAndVegs";"orange";1;0;"1.26081130374223";138;1;"old";1;"FruitsAndVegs";"orange";0;0;"0.691373759880662";6;"0.158395172096789";6;1;0;NA;0,33;0,67;0;0,33;0,67
"217";1;217;1;1;"FruitsAndVegs";"iceberglettuce";2;0;"1.21534761879593";289;2;"old";1;"FruitsAndVegs";"iceberglettuce";1;1;"2.42282378365053";3;"1.40255965269171";6;1;0;0;0,33;0,67;0;0,33;0,67
"218";1;218;4;5;"Instruments";"speaker";2;1;"1.26576749794185";199;2;"old";4;"Instruments";"speaker";0;0;"0.946947054180782";6;"1.40125012706267";1;1;0;NA;0,8;0,2;1;0,8;0,2
"219";1;219;4;6;"FruitsAndVegs";"cabbage";3;1;"0.612022064626217";3;1;"old";4;"FruitsAndVegs";"cabbage";0;0;"2.64326760452241";NA;"6.06169924139977e-05";6;1;1;NA;0,8;0,2;1;0,8;0,2
"220";1;220;1;2;"Instruments";"trumpet2";3;0;"1.75043242052197";352;2;"old";1;"Instruments";"trumpet2";0;0;"3.54294060496613";6;"1.80405513540609";1;1;0;NA;0,33;0,67;0;0,33;0,67
"221";1;221;4;4;"HouseObjects";"key";1;1;"1.40884892083704";84;1;"old";4;"HouseObjects";"key";1;1;"1.03075739368796";6;"0.79063490126282";4;1;1;1;0,8;0,2;1;0,8;0,2
"222";1;222;4;6;"FruitsAndVegs";"lettuce2";3;1;"0.723961863666773";365;2;"old";4;"FruitsAndVegs";"lettuce2";1;1;"1.15026028541615";6;"0.643668557575438";6;1;1;1;0,8;0,2;1;0,8;0,2
"223";1;223;4;5;"Instruments";"electricguitar";2;1;"1.32654044311494";9;1;"old";4;"Instruments";"electricguitar";1;1;"0.866871055215597";6;"4.15319426357746";1;1;0;0;0,8;0,2;1;0,8;0,2
"224";1;224;2;5;"Instruments";"harp";2;1;"0.512758357450366";54;1;"old";2;"Instruments";"harp";1;1;"1.04507240001112";6;"2.48957428988069";1;1;0;0;0,8;0,2;0;0,8;0,2
"225";1;225;2;4;"HouseObjects";"cushion2";1;1;"0.731166673824191";318;2;"old";2;"HouseObjects";"cushion2";0;0;"0.503135580976959";6;"0.233843491296284";4;1;1;NA;0,8;0,2;0;0,8;0,2
"226";1;226;2;4;"HouseObjects";"saw2";1;1;"0.533590856008232";30;1;"old";2;"HouseObjects";"saw2";1;1;"1.50303616188467";6;"9.55760478973389e-05";6;1;0;0;0,8;0,2;0;0,8;0,2
"227";1;227;4;4;"HouseObjects";"thread2";1;1;"0.720126930624247";324;2;"old";4;"HouseObjects";"thread2";0;0;"0.510638331994414";6;"0.179526242311113";4;1;1;NA;0,8;0,2;1;0,8;0,2
"228";1;228;2;6;"FruitsAndVegs";"pineapple2";3;1;"1.00255330651999";351;2;"old";2;"FruitsAndVegs";"pineapple2";0;0;"0.541428380354773";6;"0.105518000258598";6;1;1;NA;0,8;0,2;0;0,8;0,2
"229";1;229;4;6;"FruitsAndVegs";"casabamelon";3;1;"0.476976134814322";74;1;"old";4;"FruitsAndVegs";"casabamelon";1;1;"3.21393289137632";6;"0.972324792295694";6;1;1;1;0,8;0,2;1;0,8;0,2
"230";1;230;1;3;"Instruments";"marimba2";1;0;"1.31938149686903";238;2;"old";1;"Instruments";"marimba2";0;0;"0.595339269144461";6;"1.01816369424341";1;1;0;NA;0,33;0,67;0;0,33;0,67
"231";1;231;4;6;"FruitsAndVegs";"carrot";3;1;"0.665653062053025";48;1;"old";4;"FruitsAndVegs";"carrot";1;1;"0.882061325013638";6;"9.30102542042732e-05";6;1;1;1;0,8;0,2;1;0,8;0,2
"232";1;232;2;4;"HouseObjects";"pitcher2";1;1;"0.684246566146612";294;2;"old";2;"HouseObjects";"pitcher2";0;0;"0.926341991114896";6;"1.52725580456899";4;1;1;NA;0,8;0,2;0;0,8;0,2
"233";1;233;3;4;"Instruments";"flute2";1;0;"0.942434964701533";372;2;"old";3;"Instruments";"flute2";0;0;"0.772527416469529";6;"0.695616601209622";1;1;0;NA;0,2;0,8;0;0,2;0,8
"234";1;234;2;5;"Instruments";"tuba2";2;1;"1.01701841317117";227;2;"old";2;"Instruments";"tuba2";0;0;"0.829015020572115";6;"0.256970425485633";1;1;0;NA;0,8;0,2;0;0,8;0,2
"235";1;235;2;5;"Instruments";"timbal2";2;1;"0.45944616291672";159;1;"old";2;"Instruments";"timbal2";0;0;"1.18220561929047";6;"0.298685307614505";5;1;1;NA;0,8;0,2;0;0,8;0,2
"236";1;236;1;1;"FruitsAndVegs";"peanut2";2;0;"0.725644717924297";111;1;"old";1;"FruitsAndVegs";"peanut2";0;0;"1.35321754869074";6;"0.184821469709277";6;1;0;NA;0,33;0,67;0;0,33;0,67
"237";1;237;4;5;"Instruments";"electricguitar";2;1;"0.88019148632884";9;1;"old";4;"Instruments";"electricguitar";1;1;"0.866871055215597";6;"4.15319426357746";1;1;0;0;0,8;0,2;1;0,8;0,2
"238";1;238;4;4;"HouseObjects";"recyclingbin2";1;1;"0.522483119741082";229;2;"old";4;"HouseObjects";"recyclingbin2";0;0;"0.400357545702718";1;"5.12151005654596";4;1;1;NA;0,8;0,2;1;0,8;0,2
"239";1;239;1;2;"FruitsAndVegs";"cherry2";3;1;"1.46194045525044";148;1;"old";1;"FruitsAndVegs";"cherry2";1;1;"0.772248908877373";6;"0.434863403439522";6;1;0;0;0,33;0,67;0;0,33;0,67
"240";1;240;4;5;"Instruments";"trumpet";2;1;"1.00800213776529";384;2;"old";4;"Instruments";"trumpet";0;0;"2.42512756085489";6;"0.947224803210702";1;1;0;NA;0,8;0,2;1;0,8;0,2
"241";1;241;3;5;"FruitsAndVegs";"garlic";2;0;"0.419143934734166";301;2;"old";3;"FruitsAndVegs";"garlic";0;0;"0.774907847284339";6;"0.1295484204893";6;1;0;NA;0,2;0,8;0;0,2;0,8
"242";1;242;1;1;"FruitsAndVegs";"mushroom2";2;0;"0.965704987756908";14;1;"old";1;"FruitsAndVegs";"mushroom2";1;1;"1.14460263028741";6;"5.50643169786781";2;1;0;0;0,33;0,67;0;0,33;0,67
"243";1;243;4;4;"HouseObjects";"flyswatter";1;1;"0.816137825138867";25;1;"old";4;"HouseObjects";"flyswatter";1;1;"0.796839684247971";6;"3.94970456231385";4;1;1;1;0,8;0,2;1;0,8;0,2
"244";1;244;4;5;"Instruments";"electricguitar";2;1;"0.92233179975301";9;1;"old";4;"Instruments";"electricguitar";1;1;"0.866871055215597";6;"4.15319426357746";1;1;0;0;0,8;0,2;1;0,8;0,2
"245";1;245;3;5;"FruitsAndVegs";"orange2";2;0;"0.613466619513929";268;2;"old";3;"FruitsAndVegs";"orange2";0;0;"0.567137161502615";6;"0.374077871732879";6;1;0;NA;0,2;0,8;0;0,2;0,8
"246";1;246;2;6;"FruitsAndVegs";"pear2";3;1;"0.912021070718765";321;2;"old";2;"FruitsAndVegs";"pear2";0;0;"0.445221065427177";6;"0.109546964464244";6;1;1;NA;0,8;0,2;0;0,8;0,2
"247";1;247;3;4;"Instruments";"grandpiano";1;0;"0.946399471722543";375;2;"old";3;"Instruments";"grandpiano";0;0;"1.18792606488569";6;"0.513174315041397";1;1;0;NA;0,2;0,8;0;0,2;0,8
"248";1;248;4;5;"Instruments";"trombone";2;1;"0.852850476279855";302;2;"old";4;"Instruments";"trombone";0;0;"1.15047164412681";6;"0.280929644475691";1;1;0;NA;0,8;0,2;1;0,8;0,2
"249";1;249;4;5;"Instruments";"keyboard";2;1;"0.743086489848793";185;1;"old";4;"Instruments";"keyboard";0;0;"0.763261497952044";6;"0.329243529587984";5;1;1;NA;0,8;0,2;1;0,8;0,2
"250";1;250;2;5;"Instruments";"violin2";2;1;"0.585497304797173";278;2;"old";2;"Instruments";"violin2";0;0;"0.871090787055437";6;"0.63309645553818";1;1;0;NA;0,8;0,2;0;0,8;0,2
"251";1;251;4;5;"Instruments";"pipepiano";2;1;"0.947884116321802";187;1;"old";4;"Instruments";"pipepiano";1;1;"0.98940221965313";6;"0.688353475183249";5;1;1;1;0,8;0,2;1;0,8;0,2
"252";1;252;4;6;"FruitsAndVegs";"lettuce2";3;1;"0.750517734326422";365;2;"old";4;"FruitsAndVegs";"lettuce2";1;1;"1.15026028541615";6;"0.643668557575438";6;1;1;1;0,8;0,2;1;0,8;0,2
"253";1;253;4;5;"Instruments";"trumpet";0;0;"NaN";384;2;"old";4;"Instruments";"trumpet";0;0;"2.42512756085489";6;"0.947224803210702";1;1;0;NA;0,8;0,2;1;0,8;0,2
"254";1;254;2;6;"FruitsAndVegs";"endive";3;1;"0.707131074741483";267;2;"old";2;"FruitsAndVegs";"endive";0;0;"0.410191656439565";1;"1.08288145664847";6;1;1;NA;0,8;0,2;0;0,8;0,2
"255";1;255;4;4;"HouseObjects";"key";1;1;"0.718359725549817";84;1;"old";4;"HouseObjects";"key";1;1;"1.03075739368796";6;"0.79063490126282";4;1;1;1;0,8;0,2;1;0,8;0,2
"256";1;256;1;3;"FruitsAndVegs";"celery2";1;0;"1.24885139614344";204;2;"old";1;"FruitsAndVegs";"celery2";0;0;"0.80052746651927";6;"0.452939023845829";1;1;0;NA;0,33;0,67;0;0,33;0,67
"257";1;257;1;2;"HouseObjects";"doormat";3;0;"0.979375332593918";150;1;"old";1;"HouseObjects";"doormat";0;0;"0.621247133240104";6;"0.193238305859268";6;1;0;NA;0,33;0,67;0;0,33;0,67
"258";1;258;4;5;"Instruments";"keyboard";2;1;"0.933462949469686";185;1;"old";4;"Instruments";"keyboard";0;0;"0.763261497952044";6;"0.329243529587984";5;1;1;NA;0,8;0,2;1;0,8;0,2
"259";1;259;3;4;"FruitsAndVegs";"grape2";1;0;"1.38403652235866";336;2;"old";3;"FruitsAndVegs";"grape2";0;0;"2.50686819397379";6;"0.378908972372301";6;1;0;NA;0,2;0,8;0;0,2;0,8
"260";1;260;4;5;"Instruments";"frenchhorn2";2;1;"0.682312902994454";122;1;"old";4;"Instruments";"frenchhorn2";1;1;"0.917684146203101";6;"0.33343446906656";5;1;1;1;0,8;0,2;1;0,8;0,2
"261";1;261;4;5;"Instruments";"frenchhorn2";2;1;"0.548670795746148";122;1;"old";4;"Instruments";"frenchhorn2";1;1;"0.917684146203101";6;"0.33343446906656";5;1;1;1;0,8;0,2;1;0,8;0,2
"262";1;262;4;6;"FruitsAndVegs";"kiwi2";3;1;"0.967295793816447";326;2;"old";4;"FruitsAndVegs";"kiwi2";0;0;"0.822555913066026";6;"0.202554713468999";6;1;1;NA;0,8;0,2;1;0,8;0,2
"263";1;263;3;5;"HouseObjects";"glassmop";2;0;"1.15362275484949";383;2;"old";3;"HouseObjects";"glassmop";0;0;"0.579424187191762";6;"0.683973914652597";4;1;0;NA;0,2;0,8;0;0,2;0,8
"264";1;264;4;4;"HouseObjects";"recyclingbin2";1;1;"0.659950217232108";229;2;"old";4;"HouseObjects";"recyclingbin2";0;0;"0.400357545702718";1;"5.12151005654596";4;1;1;NA;0,8;0,2;1;0,8;0,2
"265";1;265;1;3;"FruitsAndVegs";"eggplant";1;0;"0.926312020979822";202;2;"old";1;"FruitsAndVegs";"eggplant";0;0;"0.992123923497275";6;"0.419583164795768";1;1;0;NA;0,33;0,67;0;0,33;0,67
"266";1;266;4;4;"HouseObjects";"thread2";1;1;"0.880692461505532";324;2;"old";4;"HouseObjects";"thread2";0;0;"0.510638331994414";6;"0.179526242311113";4;1;1;NA;0,8;0,2;1;0,8;0,2
"267";1;267;3;5;"FruitsAndVegs";"peanut";2;0;"0.963147511705756";300;2;"old";3;"FruitsAndVegs";"peanut";0;0;"0.654709882161114";6;"0.129949328431394";6;1;0;NA;0,2;0,8;0;0,2;0,8
"268";1;268;4;6;"FruitsAndVegs";"cherrytomato2";1;0;"0.997718027792871";232;2;"old";4;"FruitsAndVegs";"cherrytomato2";0;0;"0.838335006963462";6;"0.281683351378888";1;1;0;NA;0,8;0,2;1;0,8;0,2
"269";1;269;4;4;"HouseObjects";"flyswatter2";1;1;"0.648085565306246";52;1;"old";4;"HouseObjects";"flyswatter2";1;1;"3.86752854567021";NA;"6.6390261054039e-05";6;1;0;0;0,8;0,2;1;0,8;0,2
"270";1;270;2;6;"FruitsAndVegs";"peppergreen2";3;1;"0.418323194608092";176;1;"old";2;"FruitsAndVegs";"peppergreen2";0;0;"2.12602099403739";6;"1.34513971954584";6;1;1;NA;0,8;0,2;0;0,8;0,2
"271";1;271;3;6;"Instruments";"tuba";3;0;"0.900728275068104";343;2;"old";3;"Instruments";"tuba";1;1;"2.04831934592221";6;"1.13091503543546";1;1;0;0;0,2;0,8;0;0,2;0,8
"272";1;272;4;4;"HouseObjects";"thread2";1;1;"1.25516298227012";324;2;"old";4;"HouseObjects";"thread2";0;0;"0.510638331994414";6;"0.179526242311113";4;1;1;NA;0,8;0,2;1;0,8;0,2
"273";1;273;4;5;"Instruments";"frenchhorn2";2;1;"0.79353266954422";122;1;"old";4;"Instruments";"frenchhorn2";1;1;"0.917684146203101";6;"0.33343446906656";5;1;1;1;0,8;0,2;1;0,8;0,2
"274";1;274;4;6;"FruitsAndVegs";"casabamelon";3;1;"0.580349316820502";74;1;"old";4;"FruitsAndVegs";"casabamelon";1;1;"3.21393289137632";6;"0.972324792295694";6;1;1;1;0,8;0,2;1;0,8;0,2
"275";1;275;1;1;"HouseObjects";"glass2";2;0;"0.95041080377996";234;2;"old";1;"HouseObjects";"glass2";0;0;"0.53434225282399";6;"0.159063581726514";1;1;1;NA;0,33;0,67;0;0,33;0,67
"276";1;276;1;3;"Instruments";"frenchhorn";1;0;"1.0489448569715";313;2;"old";1;"Instruments";"frenchhorn";1;1;"1.20968349766918";6;"0.346604133606888";1;1;0;0;0,33;0,67;0;0,33;0,67
"277";1;277;4;6;"FruitsAndVegs";"casabamelon";3;1;"0.507373672910035";74;1;"old";4;"FruitsAndVegs";"casabamelon";1;1;"3.21393289137632";6;"0.972324792295694";6;1;1;1;0,8;0,2;1;0,8;0,2
"278";1;278;3;6;"Instruments";"triangle2";3;0;"0.582469963468611";186;1;"old";3;"Instruments";"triangle2";0;0;"0.941756307147443";6;"0.220723001286387";5;1;0;NA;0,2;0,8;0;0,2;0,8
"279";1;279;2;4;"HouseObjects";"key2";1;1;"1.05688413139433";355;2;"old";2;"HouseObjects";"key2";0;0;"0.600618745200336";6;"0.214108558779117";4;1;1;NA;0,8;0,2;0;0,8;0,2
"280";1;280;4;5;"Instruments";"pipepiano";2;1;"1.60385539475828";187;1;"old";4;"Instruments";"pipepiano";1;1;"0.98940221965313";6;"0.688353475183249";5;1;1;1;0,8;0,2;1;0,8;0,2
"281";1;281;2;4;"HouseObjects";"teapot";1;1;"0.950376485474408";220;2;"old";2;"HouseObjects";"teapot";0;0;"0.493229627551045";6;"6.60696532577276e-05";6;1;0;NA;0,8;0,2;0;0,8;0,2
"282";1;282;3;5;"HouseObjects";"doormat2";2;0;"0.800699954852462";275;2;"old";3;"HouseObjects";"doormat2";0;0;"0.985189499566332";6;"0.860880464315414";4;1;0;NA;0,2;0,8;0;0,2;0,8
"283";1;283;4;4;"HouseObjects";"recyclingbin2";1;1;"0.843262024223804";229;2;"old";4;"HouseObjects";"recyclingbin2";0;0;"0.400357545702718";1;"5.12151005654596";4;1;1;NA;0,8;0,2;1;0,8;0,2
"284";1;284;4;4;"HouseObjects";"flyswatter";1;1;"0.717662464827299";25;1;"old";4;"HouseObjects";"flyswatter";1;1;"0.796839684247971";6;"3.94970456231385";4;1;1;1;0,8;0,2;1;0,8;0,2
"285";1;285;4;5;"Instruments";"pipepiano";2;1;"0.767888304777443";187;1;"old";4;"Instruments";"pipepiano";1;1;"0.98940221965313";6;"0.688353475183249";5;1;1;1;0,8;0,2;1;0,8;0,2
"286";1;286;4;5;"Instruments";"trombone";2;1;"0.91449130885303";302;2;"old";4;"Instruments";"trombone";0;0;"1.15047164412681";6;"0.280929644475691";1;1;0;NA;0,8;0,2;1;0,8;0,2
"287";1;287;1;3;"HouseObjects";"recyclingbin";1;1;"1.06099360529333";334;2;"old";1;"HouseObjects";"recyclingbin";0;0;"1.0323176679085";6;"0.891184612293728";4;1;0;NA;0,33;0,67;0;0,33;0,67
"288";1;288;3;4;"Instruments";"metronome2";1;0;"1.15145367849618";203;2;"old";3;"Instruments";"metronome2";0;0;"0.811778546194546";6;"0.340797062672209";1;1;0;NA;0,2;0,8;0;0,2;0,8
"289";1;289;4;4;"HouseObjects";"cushion";1;1;"0.609509490430355";17;1;"old";4;"HouseObjects";"cushion";0;0;"2.76052088662982";6;"7.05251326411963";4;1;1;NA;0,8;0,2;1;0,8;0,2
"290";1;290;3;5;"FruitsAndVegs";"leek2";2;0;"1.1719263214618";382;2;"old";3;"FruitsAndVegs";"leek2";0;0;"0.584701738902368";6;"0.210294160584453";6;1;0;NA;0,2;0,8;0;0,2;0,8
"291";1;291;1;2;"Instruments";"marimba";1;0;"1.03845932986587";183;1;"old";1;"Instruments";"marimba";0;0;"0.758949004113674";6;"0.30394009873271";5;1;0;NA;0,33;0,67;0;0,33;0,67
"292";1;292;4;6;"FruitsAndVegs";"lettuce2";3;1;"0.760893249884248";365;2;"old";4;"FruitsAndVegs";"lettuce2";1;1;"1.15026028541615";6;"0.643668557575438";6;1;1;1;0,8;0,2;1;0,8;0,2
"293";1;293;2;4;"HouseObjects";"garbagebin";1;1;"0.811149880290031";341;2;"old";2;"HouseObjects";"garbagebin";0;0;"0.824272119614761";6;"0.185370517487172";4;1;1;NA;0,8;0,2;0;0,8;0,2
"294";1;294;4;6;"FruitsAndVegs";"cabbage";3;1;"0.669557591900229";3;1;"old";4;"FruitsAndVegs";"cabbage";0;0;"2.64326760452241";NA;"6.06169924139977e-05";6;1;1;NA;0,8;0,2;1;0,8;0,2
"295";1;295;4;6;"FruitsAndVegs";"greenolive";3;1;"1.0239967899397";259;2;"old";4;"FruitsAndVegs";"greenolive";0;0;"0.566749403369613";6;"0.199210500053596";6;1;1;NA;0,8;0,2;1;0,8;0,2
"296";1;296;4;6;"FruitsAndVegs";"greenolive";3;1;"0.587443475611508";259;2;"old";4;"FruitsAndVegs";"greenolive";0;0;"0.566749403369613";6;"0.199210500053596";6;1;1;NA;0,8;0,2;1;0,8;0,2
"297";1;297;3;5;"HouseObjects";"rug";2;0;"1.31746354978532";168;1;"old";3;"HouseObjects";"rug";0;0;"1.40214187838137";6;"1.98766933195293";4;1;0;NA;0,2;0,8;0;0,2;0,8
"298";1;298;2;5;"Instruments";"timbal";2;1;"0.984044155105948";219;2;"old";2;"Instruments";"timbal";0;0;"0.890461053757463";6;"0.738401493581478";1;1;0;NA;0,8;0,2;0;0,8;0,2
"299";1;299;4;5;"Instruments";"trombone";2;1;"0.562458526343107";302;2;"old";4;"Instruments";"trombone";0;0;"1.15047164412681";6;"0.280929644475691";1;1;0;NA;0,8;0,2;1;0,8;0,2
"300";1;300;3;6;"Instruments";"violin";3;0;"0.964933639392257";174;1;"old";3;"Instruments";"violin";0;0;"0.976511561311781";6;"0.0991299636662006";5;1;0;NA;0,2;0,8;0;0,2;0,8
"301";1;301;3;4;"Instruments";"panflute";1;0;"0.855313980951905";245;2;"old";3;"Instruments";"panflute";0;0;"1.56542352068936";6;"0.260785465186927";1;1;0;NA;0,2;0,8;0;0,2;0,8
"302";1;302;2;5;"Instruments";"speaker2";2;1;"0.72964289970696";15;1;"old";2;"Instruments";"speaker2";0;0;"1.5503770634532";6;"2.02535603102297";1;1;0;NA;0,8;0,2;0;0,8;0,2
"303";1;303;2;5;"Instruments";"oboe2";3;0;"0.531971826218069";276;2;"old";2;"Instruments";"oboe2";0;0;"1.07467246626038";6;"0.472979287849739";1;1;0;NA;0,8;0,2;0;0,8;0,2
"304";1;304;1;3;"FruitsAndVegs";"coffeebean2";1;0;"1.04633798822761";66;1;"old";1;"FruitsAndVegs";"coffeebean2";0;0;"0.974869760684669";6;"0.713683526031673";6;1;0;NA;0,33;0,67;0;0,33;0,67
"305";1;305;1;2;"HouseObjects";"vacuumcleaner2";3;0;"0.769110274501145";290;2;"old";1;"HouseObjects";"vacuumcleaner2";0;0;"0.809423132042866";6;"0.226864165684674";4;1;0;NA;0,33;0,67;0;0,33;0,67
"306";1;306;4;4;"HouseObjects";"recyclingbin2";1;1;"1.13136045634747";229;2;"old";4;"HouseObjects";"recyclingbin2";0;0;"0.400357545702718";1;"5.12151005654596";4;1;1;NA;0,8;0,2;1;0,8;0,2
"307";1;307;1;3;"HouseObjects";"sponge";3;0;"1.30954704619944";100;1;"old";1;"HouseObjects";"sponge";0;0;"0.591471165418625";6;"0.433690826408565";4;1;0;NA;0,33;0,67;0;0,33;0,67
"308";1;308;4;6;"FruitsAndVegs";"cauliflower";3;1;"1.14399549458176";164;1;"old";4;"FruitsAndVegs";"cauliflower";0;0;"0.841757494024932";6;"0.294363192282617";6;1;1;NA;0,8;0,2;1;0,8;0,2
"309";1;309;1;3;"FruitsAndVegs";"broccoli2";1;0;"0.898386646993458";284;2;"old";1;"FruitsAndVegs";"broccoli2";0;0;"4.23529926815536";6;"16.1650422412786";6;1;0;NA;0,33;0,67;0;0,33;0,67
"310";1;310;2;6;"FruitsAndVegs";"carrot2";3;1;"0.668796507641673";359;2;"old";2;"FruitsAndVegs";"carrot2";0;0;"0.971978461311664";6;"0.19023465301143";6;1;1;NA;0,8;0,2;0;0,8;0,2
"311";1;311;2;4;"HouseObjects";"thermometer2";1;1;"0.687238306738436";114;1;"old";2;"HouseObjects";"thermometer2";1;1;"1.37573033571243";6;"0.736264307051897";4;1;1;1;0,8;0,2;0;0,8;0,2
"312";1;312;4;4;"HouseObjects";"towel";1;1;"0.497824028134346";333;2;"old";4;"HouseObjects";"towel";0;0;"0.513339489116333";6;"1.60985855007311";4;1;1;NA;0,8;0,2;1;0,8;0,2
"313";1;NA;NA;NA;"NaN";"NaN";NA;NA;"NaN";4;1;"new";5;"FruitsAndVegs";"almond3";0;1;"3.07560624647886";6;"2.49550228565931";1;2;NA;NA;NA;NA;NA;NA;NA
"314";1;NA;NA;NA;"NaN";"NaN";NA;NA;"NaN";5;1;"new";5;"FruitsAndVegs";"apple3";0;1;"1.22483279649168";6;"1.7055883789435";1;2;NA;NA;NA;NA;NA;NA;NA
"315";1;NA;NA;NA;"NaN";"NaN";NA;NA;"NaN";6;1;"new";5;"HouseObjects";"ashtray3";0;1;"1.33194789942354";6;"1.05548319593072";1;2;NA;NA;NA;NA;NA;NA;NA
"316";1;NA;NA;NA;"NaN";"NaN";NA;NA;"NaN";13;1;"new";5;"HouseObjects";"ballofstring3";0;1;"1.09592975024134";6;"1.43507957458496";4;2;NA;NA;NA;NA;NA;NA;NA
"317";1;NA;NA;NA;"NaN";"NaN";NA;NA;"NaN";16;1;"new";5;"FruitsAndVegs";"apricot3";0;1;"1.30243236105889";6;"4.97526104748249";6;2;NA;NA;NA;NA;NA;NA;NA
"318";1;NA;NA;NA;"NaN";"NaN";NA;NA;"NaN";18;1;"new";5;"FruitsAndVegs";"artichoke3";0;1;"3.27911807782948";6;"2.75034165382385";6;2;NA;NA;NA;NA;NA;NA;NA
"319";1;NA;NA;NA;"NaN";"NaN";NA;NA;"NaN";20;1;"new";5;"Instruments";"accordion3";0;1;"1.13607738725841";6;"9.55562736280262";1;2;NA;NA;NA;NA;NA;NA;NA
"320";1;NA;NA;NA;"NaN";"NaN";NA;NA;"NaN";22;1;"new";5;"Instruments";"acousticguitar3";0;1;"1.18673396389931";6;"1.28884412255138";1;2;NA;NA;NA;NA;NA;NA;NA
"321";1;NA;NA;NA;"NaN";"NaN";NA;NA;"NaN";27;1;"new";5;"FruitsAndVegs";"arugula3";0;1;"1.08494324889034";6;"1.79689613264054";2;2;NA;NA;NA;NA;NA;NA;NA
"322";1;NA;NA;NA;"NaN";"NaN";NA;NA;"NaN";33;1;"new";5;"HouseObjects";"barbecuelighter3";0;1;"0.997405960224569";6;"3.84138288442045";3;2;NA;NA;NA;NA;NA;NA;NA
"323";1;NA;NA;NA;"NaN";"NaN";NA;NA;"NaN";34;1;"new";5;"Instruments";"balalaika3";0;1;"1.19410298578441";6;"0.77555913105607";1;2;NA;NA;NA;NA;NA;NA;NA
"324";1;NA;NA;NA;"NaN";"NaN";NA;NA;"NaN";36;1;"new";5;"HouseObjects";"basket3";0;1;"2.04433665145189";6;"4.8335135281086";3;2;NA;NA;NA;NA;NA;NA;NA
"325";1;NA;NA;NA;"NaN";"NaN";NA;NA;"NaN";38;1;"new";5;"Instruments";"banjo3";0;1;"0.984082321636379";6;"0.896644136868417";1;2;NA;NA;NA;NA;NA;NA;NA
"326";1;NA;NA;NA;"NaN";"NaN";NA;NA;"NaN";39;1;"new";5;"HouseObjects";"bleachbottle3";0;1;"1.1253346381709";6;"2.86033303663135";3;2;NA;NA;NA;NA;NA;NA;NA
"327";1;NA;NA;NA;"NaN";"NaN";NA;NA;"NaN";40;1;"new";5;"Instruments";"bassdrum3";0;1;"1.10240586847067";6;"1.60097622871399";1;2;NA;NA;NA;NA;NA;NA;NA
"328";1;NA;NA;NA;"NaN";"NaN";NA;NA;"NaN";41;1;"new";5;"Instruments";"bassguitar3";0;1;"1.06333010178059";6;"0.471366620622575";1;2;NA;NA;NA;NA;NA;NA;NA
"329";1;NA;NA;NA;"NaN";"NaN";NA;NA;"NaN";42;1;"new";5;"Instruments";"cello3";0;1;"1.03757636900991";6;"0.384369757026434";1;2;NA;NA;NA;NA;NA;NA;NA
"330";1;NA;NA;NA;"NaN";"NaN";NA;NA;"NaN";43;1;"new";5;"Instruments";"chime3";0;1;"0.873650902882218";6;"2.43597279861569";3;2;NA;NA;NA;NA;NA;NA;NA
"331";1;NA;NA;NA;"NaN";"NaN";NA;NA;"NaN";44;1;"new";5;"Instruments";"clarinet3";0;1;"1.13563638739288";6;"1.41262323502451";1;2;NA;NA;NA;NA;NA;NA;NA
"332";1;NA;NA;NA;"NaN";"NaN";NA;NA;"NaN";46;1;"new";5;"Instruments";"cornet3";0;1;"2.50440277904272";6;"0.990568062290549";1;2;NA;NA;NA;NA;NA;NA;NA
"333";1;NA;NA;NA;"NaN";"NaN";NA;NA;"NaN";47;1;"new";5;"FruitsAndVegs";"asparagus3";0;1;"0.838985130190849";6;"1.39424942992628";2;2;NA;NA;NA;NA;NA;NA;NA
"334";1;NA;NA;NA;"NaN";"NaN";NA;NA;"NaN";49;1;"new";5;"FruitsAndVegs";"avocado3";0;1;"3.81081183440983";6;"1.67223245557398";6;2;NA;NA;NA;NA;NA;NA;NA
"335";1;NA;NA;NA;"NaN";"NaN";NA;NA;"NaN";53;1;"new";5;"Instruments";"cymbal3";0;1;"2.36083417199552";6;"2.61647375486791";3;2;NA;NA;NA;NA;NA;NA;NA
"336";1;NA;NA;NA;"NaN";"NaN";NA;NA;"NaN";55;1;"new";5;"FruitsAndVegs";"banana3";0;1;"1.00328552629799";6;"1.8852974595502";6;2;NA;NA;NA;NA;NA;NA;NA
"337";1;NA;NA;NA;"NaN";"NaN";NA;NA;"NaN";56;1;"new";5;"Instruments";"doublebass3";0;1;"0.871985367499292";6;"0.696012113243341";1;2;NA;NA;NA;NA;NA;NA;NA
"338";1;NA;NA;NA;"NaN";"NaN";NA;NA;"NaN";57;1;"new";5;"FruitsAndVegs";"beansprouts3";0;1;"0.884954923763871";6;"2.70178455673158";2;2;NA;NA;NA;NA;NA;NA;NA
"339";1;NA;NA;NA;"NaN";"NaN";NA;NA;"NaN";61;1;"new";5;"HouseObjects";"bottle3";0;1;"1.63303032144904";6;"4.39686752390116";6;2;NA;NA;NA;NA;NA;NA;NA
"340";1;NA;NA;NA;"NaN";"NaN";NA;NA;"NaN";62;1;"new";5;"Instruments";"keyboard3";0;1;"2.27069995831698";6;"9.55760478973389e-05";6;2;NA;NA;NA;NA;NA;NA;NA
"341";1;NA;NA;NA;"NaN";"NaN";NA;NA;"NaN";63;1;"new";5;"Instruments";"laud3";0;1;"1.48505620844662";6;"0.407477171160281";1;2;NA;NA;NA;NA;NA;NA;NA
"342";1;NA;NA;NA;"NaN";"NaN";NA;NA;"NaN";64;1;"new";5;"HouseObjects";"broom3";0;1;"3.36828337609768";6;"2.24021133314818";4;2;NA;NA;NA;NA;NA;NA;NA
"343";1;NA;NA;NA;"NaN";"NaN";NA;NA;"NaN";65;1;"new";5;"Instruments";"maraca3";0;1;"0.867908607237041";6;"2.49322736915201";6;2;NA;NA;NA;NA;NA;NA;NA
"344";1;NA;NA;NA;"NaN";"NaN";NA;NA;"NaN";67;1;"new";5;"Instruments";"marimba3";0;1;"0.861981893889606";6;"1.57729792036116";5;2;NA;NA;NA;NA;NA;NA;NA
"345";1;NA;NA;NA;"NaN";"NaN";NA;NA;"NaN";68;1;"new";5;"FruitsAndVegs";"blackberry3";0;1;"0.960938665084541";6;"0.75593417044729";6;2;NA;NA;NA;NA;NA;NA;NA
"346";1;NA;NA;NA;"NaN";"NaN";NA;NA;"NaN";71;1;"new";5;"HouseObjects";"bucket3";0;1;"1.06215848587453";6;"1.3290943922475";4;2;NA;NA;NA;NA;NA;NA;NA
"347";1;NA;NA;NA;"NaN";"NaN";NA;NA;"NaN";75;1;"new";5;"FruitsAndVegs";"blackolive3";0;1;"0.781281220726669";6;"0.541619612835348";6;2;NA;NA;NA;NA;NA;NA;NA
"348";1;NA;NA;NA;"NaN";"NaN";NA;NA;"NaN";76;1;"new";5;"HouseObjects";"clock3";0;1;"0.792966906912625";6;"1.4038324309513";4;2;NA;NA;NA;NA;NA;NA;NA
"349";1;NA;NA;NA;"NaN";"NaN";NA;NA;"NaN";78;1;"new";5;"HouseObjects";"clothesdryingrack3";0;1;"0.811824368312955";6;"1.18381983786821";4;2;NA;NA;NA;NA;NA;NA;NA
"350";1;NA;NA;NA;"NaN";"NaN";NA;NA;"NaN";81;1;"new";5;"FruitsAndVegs";"blueberry3";0;1;"0.987491329200566";6;"1.29214857239276";6;2;NA;NA;NA;NA;NA;NA;NA
"351";1;NA;NA;NA;"NaN";"NaN";NA;NA;"NaN";85;1;"new";5;"Instruments";"metronome3";0;1;"1.94341991841793";6;"1.32156885508448";4;2;NA;NA;NA;NA;NA;NA;NA
"352";1;NA;NA;NA;"NaN";"NaN";NA;NA;"NaN";87;1;"new";5;"FruitsAndVegs";"cucumber3";0;1;"1.03202522732317";6;"0.286057967692614";6;2;NA;NA;NA;NA;NA;NA;NA
"353";1;NA;NA;NA;"NaN";"NaN";NA;NA;"NaN";88;1;"new";5;"Instruments";"musicsheet3";0;1;"1.04388635139912";6;"0.517138846218586";5;2;NA;NA;NA;NA;NA;NA;NA
"354";1;NA;NA;NA;"NaN";"NaN";NA;NA;"NaN";90;1;"new";5;"Instruments";"musicstand3";0;1;"1.47579329367727";6;"1.71148109529167";5;2;NA;NA;NA;NA;NA;NA;NA
"355";1;NA;NA;NA;"NaN";"NaN";NA;NA;"NaN";91;1;"new";5;"HouseObjects";"clothespin3";0;1;"0.849894978106022";6;"0.507344487123191";4;2;NA;NA;NA;NA;NA;NA;NA
"356";1;NA;NA;NA;"NaN";"NaN";NA;NA;"NaN";92;1;"new";5;"Instruments";"oboe3";0;1;"1.47177394479513";6;"2.0531053263694";5;2;NA;NA;NA;NA;NA;NA;NA
"357";1;NA;NA;NA;"NaN";"NaN";NA;NA;"NaN";94;1;"new";5;"HouseObjects";"coffee3";0;1;"0.66716593131423";6;"0.690300286747515";4;2;NA;NA;NA;NA;NA;NA;NA
"358";1;NA;NA;NA;"NaN";"NaN";NA;NA;"NaN";96;1;"new";5;"HouseObjects";"key3";0;1;"0.851996701210737";6;"1.19154294393957";4;2;NA;NA;NA;NA;NA;NA;NA
"359";1;NA;NA;NA;"NaN";"NaN";NA;NA;"NaN";97;1;"new";5;"FruitsAndVegs";"eggplant3";0;1;"1.12743796594441";6;"0.275120216421783";6;2;NA;NA;NA;NA;NA;NA;NA
"360";1;NA;NA;NA;"NaN";"NaN";NA;NA;"NaN";99;1;"new";5;"Instruments";"panflute3";0;1;"0.917138910852373";6;"0.8828448606655";5;2;NA;NA;NA;NA;NA;NA;NA
"361";1;NA;NA;NA;"NaN";"NaN";NA;NA;"NaN";101;1;"new";5;"HouseObjects";"knife3";1;0;"0.80922968685627";6;"0.45981467794627";4;2;NA;NA;NA;NA;NA;NA;NA
"362";1;NA;NA;NA;"NaN";"NaN";NA;NA;"NaN";102;1;"new";5;"FruitsAndVegs";"endive3";0;1;"1.13084087893367";6;"0.72584773786366";6;2;NA;NA;NA;NA;NA;NA;NA
"363";1;NA;NA;NA;"NaN";"NaN";NA;NA;"NaN";103;1;"new";5;"FruitsAndVegs";"garlic3";0;1;"1.10532865393907";6;"0.395660628564656";6;2;NA;NA;NA;NA;NA;NA;NA
"364";1;NA;NA;NA;"NaN";"NaN";NA;NA;"NaN";106;1;"new";5;"FruitsAndVegs";"ginger3";0;1;"0.819296664558351";6;"0.209529631771147";6;2;NA;NA;NA;NA;NA;NA;NA
"365";1;NA;NA;NA;"NaN";"NaN";NA;NA;"NaN";107;1;"new";5;"HouseObjects";"lintroller3";0;1;"0.786808949895203";6;"0.543690226972103";4;2;NA;NA;NA;NA;NA;NA;NA
"366";1;NA;NA;NA;"NaN";"NaN";NA;NA;"NaN";108;1;"new";5;"HouseObjects";"match3";0;1;"0.706761918962002";6;"0.433899618685246";4;2;NA;NA;NA;NA;NA;NA;NA
"367";1;NA;NA;NA;"NaN";"NaN";NA;NA;"NaN";110;1;"new";5;"FruitsAndVegs";"grape3";0;1;"0.839371927082539";6;"0.107633397914469";6;2;NA;NA;NA;NA;NA;NA;NA
"368";1;NA;NA;NA;"NaN";"NaN";NA;NA;"NaN";113;1;"new";5;"HouseObjects";"pan3";0;1;"1.46131471730769";6;"2.853670575656";4;2;NA;NA;NA;NA;NA;NA;NA
"369";1;NA;NA;NA;"NaN";"NaN";NA;NA;"NaN";115;1;"new";5;"FruitsAndVegs";"greenolive3";0;1;"1.01909095048904";6;"0.718081013299525";6;2;NA;NA;NA;NA;NA;NA;NA
"370";1;NA;NA;NA;"NaN";"NaN";NA;NA;"NaN";116;1;"new";5;"HouseObjects";"pitcher3";0;1;"1.04167109075934";6;"0.505003180354834";4;2;NA;NA;NA;NA;NA;NA;NA
"371";1;NA;NA;NA;"NaN";"NaN";NA;NA;"NaN";119;1;"new";5;"Instruments";"pipepiano3";1;0;"1.66708222217858";6;"0.408132096752524";5;2;NA;NA;NA;NA;NA;NA;NA
"372";1;NA;NA;NA;"NaN";"NaN";NA;NA;"NaN";123;1;"new";5;"FruitsAndVegs";"iceberglettuce3";0;1;"1.08945940528065";6;"0.321223753504455";6;2;NA;NA;NA;NA;NA;NA;NA
"373";1;NA;NA;NA;"NaN";"NaN";NA;NA;"NaN";126;1;"new";5;"Instruments";"record3";1;0;"2.4122941698879";6;"0.350229976698756";5;2;NA;NA;NA;NA;NA;NA;NA
"374";1;NA;NA;NA;"NaN";"NaN";NA;NA;"NaN";127;1;"new";5;"Instruments";"saxophone3";1;0;"0.889199103228748";6;"0.449904856272042";5;2;NA;NA;NA;NA;NA;NA;NA
"375";1;NA;NA;NA;"NaN";"NaN";NA;NA;"NaN";129;1;"new";5;"Instruments";"speaker3";0;1;"0.767400158569217";6;"0.163807759992778";6;2;NA;NA;NA;NA;NA;NA;NA
"376";1;NA;NA;NA;"NaN";"NaN";NA;NA;"NaN";132;1;"new";5;"Instruments";"tambourine3";0;1;"1.03616549167782";6;"0.330290062353015";5;2;NA;NA;NA;NA;NA;NA;NA
"377";1;NA;NA;NA;"NaN";"NaN";NA;NA;"NaN";133;1;"new";5;"FruitsAndVegs";"kiwi3";0;1;"0.998917547054589";6;"0.0889106411486864";6;2;NA;NA;NA;NA;NA;NA;NA
"378";1;NA;NA;NA;"NaN";"NaN";NA;NA;"NaN";134;1;"new";5;"HouseObjects";"recyclingbin3";0;1;"1.45488093420863";6;"9.58973541855812e-05";6;2;NA;NA;NA;NA;NA;NA;NA
"379";1;NA;NA;NA;"NaN";"NaN";NA;NA;"NaN";135;1;"new";5;"HouseObjects";"rubbergloves3";0;1;"0.73506863694638";6;"0.184754436835647";4;2;NA;NA;NA;NA;NA;NA;NA
"380";1;NA;NA;NA;"NaN";"NaN";NA;NA;"NaN";136;1;"new";5;"HouseObjects";"rug3";0;1;"0.738798370584846";6;"0.180376834236085";4;2;NA;NA;NA;NA;NA;NA;NA
"381";1;NA;NA;NA;"NaN";"NaN";NA;NA;"NaN";137;1;"new";5;"HouseObjects";"safetypin3";0;1;"0.774326257407665";6;"0.319158592261374";4;2;NA;NA;NA;NA;NA;NA;NA
"382";1;NA;NA;NA;"NaN";"NaN";NA;NA;"NaN";139;1;"new";5;"FruitsAndVegs";"leek3";0;1;"0.633556313812733";6;"0.271629424765706";6;2;NA;NA;NA;NA;NA;NA;NA
"383";1;NA;NA;NA;"NaN";"NaN";NA;NA;"NaN";140;1;"new";5;"FruitsAndVegs";"lemon3";0;1;"0.69410475064069";6;"0.164570448920131";6;2;NA;NA;NA;NA;NA;NA;NA
"384";1;NA;NA;NA;"NaN";"NaN";NA;NA;"NaN";141;1;"new";5;"HouseObjects";"saw3";0;1;"0.607310906983912";6;"1.02440860401839";4;2;NA;NA;NA;NA;NA;NA;NA
"385";1;NA;NA;NA;"NaN";"NaN";NA;NA;"NaN";143;1;"new";5;"Instruments";"timbal3";0;1;"0.681834378279746";6;"0.553037813864648";5;2;NA;NA;NA;NA;NA;NA;NA
"386";1;NA;NA;NA;"NaN";"NaN";NA;NA;"NaN";144;1;"new";5;"FruitsAndVegs";"lettuce3";1;0;"1.2997930990532";6;"0.291372092440724";6;2;NA;NA;NA;NA;NA;NA;NA
"387";1;NA;NA;NA;"NaN";"NaN";NA;NA;"NaN";145;1;"new";5;"FruitsAndVegs";"mango3";0;1;"0.753086756914854";6;"0.58403767645359";6;2;NA;NA;NA;NA;NA;NA;NA
"388";1;NA;NA;NA;"NaN";"NaN";NA;NA;"NaN";146;1;"new";5;"HouseObjects";"scale3";0;1;"1.0255382033065";6;"0.535860319621861";4;2;NA;NA;NA;NA;NA;NA;NA
"389";1;NA;NA;NA;"NaN";"NaN";NA;NA;"NaN";147;1;"new";5;"HouseObjects";"sponge3";1;0;"0.93864878360182";6;"0.411167135462165";4;2;NA;NA;NA;NA;NA;NA;NA
"390";1;NA;NA;NA;"NaN";"NaN";NA;NA;"NaN";152;1;"new";5;"HouseObjects";"spraybottle3";0;1;"1.80867771618068";6;"0.569887204095721";4;2;NA;NA;NA;NA;NA;NA;NA
"391";1;NA;NA;NA;"NaN";"NaN";NA;NA;"NaN";154;1;"new";5;"HouseObjects";"teapot3";0;1;"0.681793325580657";6;"0.350785797461867";4;2;NA;NA;NA;NA;NA;NA;NA
"392";1;NA;NA;NA;"NaN";"NaN";NA;NA;"NaN";157;1;"new";5;"HouseObjects";"thermometer3";0;1;"0.938778037205338";6;"0.409082730300725";4;2;NA;NA;NA;NA;NA;NA;NA
"393";1;NA;NA;NA;"NaN";"NaN";NA;NA;"NaN";158;1;"new";5;"FruitsAndVegs";"mushroom3";0;1;"1.29005326330662";6;"0.24646807461977";6;2;NA;NA;NA;NA;NA;NA;NA
"394";1;NA;NA;NA;"NaN";"NaN";NA;NA;"NaN";160;1;"new";5;"FruitsAndVegs";"onion3";0;1;"0.743753602728248";6;"1.55023722536862";6;2;NA;NA;NA;NA;NA;NA;NA
"395";1;NA;NA;NA;"NaN";"NaN";NA;NA;"NaN";161;1;"new";5;"HouseObjects";"thread3";0;1;"0.790717328898609";6;"0.46102606318891";4;2;NA;NA;NA;NA;NA;NA;NA
"396";1;NA;NA;NA;"NaN";"NaN";NA;NA;"NaN";163;1;"new";5;"HouseObjects";"towel3";0;1;"2.03048862423748";6;"0.584784649312496";4;2;NA;NA;NA;NA;NA;NA;NA
"397";1;NA;NA;NA;"NaN";"NaN";NA;NA;"NaN";167;1;"new";5;"Instruments";"triangle3";1;0;"1.28394437674433";6;"0.384706200100482";5;2;NA;NA;NA;NA;NA;NA;NA
"398";1;NA;NA;NA;"NaN";"NaN";NA;NA;"NaN";171;1;"new";5;"Instruments";"trombone3";0;1;"0.713709184899926";1;"1.19834075123072";5;2;NA;NA;NA;NA;NA;NA;NA
"399";1;NA;NA;NA;"NaN";"NaN";NA;NA;"NaN";172;1;"new";5;"FruitsAndVegs";"orange3";0;1;"0.966434321366251";6;"2.486108193174";6;2;NA;NA;NA;NA;NA;NA;NA
"400";1;NA;NA;NA;"NaN";"NaN";NA;NA;"NaN";175;1;"new";5;"Instruments";"trumpet3";0;1;"3.91242358274758";6;"3.45231447834522";5;2;NA;NA;NA;NA;NA;NA;NA
"401";1;NA;NA;NA;"NaN";"NaN";NA;NA;"NaN";177;1;"new";5;"FruitsAndVegs";"peanut3";0;1;"1.34680910315365";6;"0.229279033839703";6;2;NA;NA;NA;NA;NA;NA;NA
"402";1;NA;NA;NA;"NaN";"NaN";NA;NA;"NaN";180;1;"new";5;"Instruments";"tuba3";0;1;"1.09290689975023";6;"1.03566259145737";5;2;NA;NA;NA;NA;NA;NA;NA
"403";1;NA;NA;NA;"NaN";"NaN";NA;NA;"NaN";181;1;"new";5;"FruitsAndVegs";"pear3";0;1;"1.69798330124468";6;"0.968232958577573";5;2;NA;NA;NA;NA;NA;NA;NA
"404";1;NA;NA;NA;"NaN";"NaN";NA;NA;"NaN";182;1;"new";5;"HouseObjects";"vacuumcleaner3";0;1;"1.07313953526318";6;"0.865370694547892";6;2;NA;NA;NA;NA;NA;NA;NA
"405";1;NA;NA;NA;"NaN";"NaN";NA;NA;"NaN";184;1;"new";5;"HouseObjects";"wateringcan3";0;1;"0.932845549657941";6;"0.419001853093505";4;2;NA;NA;NA;NA;NA;NA;NA
"406";1;NA;NA;NA;"NaN";"NaN";NA;NA;"NaN";189;1;"new";5;"FruitsAndVegs";"peppergreen3";0;1;"0.675424970686436";6;"0.276317168958485";6;2;NA;NA;NA;NA;NA;NA;NA
"407";1;NA;NA;NA;"NaN";"NaN";NA;NA;"NaN";190;1;"new";5;"Instruments";"violin3";0;1;"0.9227224458009";6;"0.573318982496858";6;2;NA;NA;NA;NA;NA;NA;NA
"408";1;NA;NA;NA;"NaN";"NaN";NA;NA;"NaN";191;1;"new";5;"FruitsAndVegs";"pineapple3";0;1;"0.83924684394151";6;"0.849173021502793";6;2;NA;NA;NA;NA;NA;NA;NA
"409";1;NA;NA;NA;"NaN";"NaN";NA;NA;"NaN";1;2;"new";5;"FruitsAndVegs";"almond4";0;1;"NaN";3;"3.90661475603702";1;2;NA;NA;NA;NA;NA;NA;NA
"410";1;NA;NA;NA;"NaN";"NaN";NA;NA;"NaN";2;2;"new";5;"FruitsAndVegs";"apple4";0;1;"3.20905262889573";3;"1.87283329322236";1;2;NA;NA;NA;NA;NA;NA;NA
"411";1;NA;NA;NA;"NaN";"NaN";NA;NA;"NaN";4;2;"new";5;"HouseObjects";"ashtray4";0;1;"1.86285581783159";1;"0.906600323389284";1;2;NA;NA;NA;NA;NA;NA;NA
"412";1;NA;NA;NA;"NaN";"NaN";NA;NA;"NaN";8;2;"new";5;"Instruments";"accordion4";0;1;"1.12017647642642";6;"0.722566593205556";1;2;NA;NA;NA;NA;NA;NA;NA
"413";1;NA;NA;NA;"NaN";"NaN";NA;NA;"NaN";9;2;"new";5;"FruitsAndVegs";"apricot4";0;1;"1.05419216578593";6;"0.683088389341719";1;2;NA;NA;NA;NA;NA;NA;NA
"414";1;NA;NA;NA;"NaN";"NaN";NA;NA;"NaN";14;2;"new";5;"FruitsAndVegs";"artichoke4";0;1;"0.525569425488357";6;"0.354328185785562";1;2;NA;NA;NA;NA;NA;NA;NA
"415";1;NA;NA;NA;"NaN";"NaN";NA;NA;"NaN";15;2;"new";5;"Instruments";"acousticguitar4";0;1;"0.797476717678364";6;"1.17607618914917";1;2;NA;NA;NA;NA;NA;NA;NA
"416";1;NA;NA;NA;"NaN";"NaN";NA;NA;"NaN";18;2;"new";5;"Instruments";"balalaika4";0;1;"1.19387457612902";6;"0.826264150789939";1;2;NA;NA;NA;NA;NA;NA;NA
"417";1;NA;NA;NA;"NaN";"NaN";NA;NA;"NaN";19;2;"new";5;"Instruments";"banjo4";0;1;"0.633671197108924";6;"0.535940111440141";1;2;NA;NA;NA;NA;NA;NA;NA
"418";1;NA;NA;NA;"NaN";"NaN";NA;NA;"NaN";21;2;"new";5;"Instruments";"bassdrum4";0;1;"1.38123103103135";6;"4.16095137689263";1;2;NA;NA;NA;NA;NA;NA;NA
"419";1;NA;NA;NA;"NaN";"NaN";NA;NA;"NaN";24;2;"new";5;"HouseObjects";"ballofstring4";0;1;"0.60541167948395";6;"0.603913246071897";1;2;NA;NA;NA;NA;NA;NA;NA
"420";1;NA;NA;NA;"NaN";"NaN";NA;NA;"NaN";25;2;"new";5;"HouseObjects";"barbecuelighter4";0;1;"0.668459740641993";6;"0.515286939451471";1;2;NA;NA;NA;NA;NA;NA;NA
"421";1;NA;NA;NA;"NaN";"NaN";NA;NA;"NaN";29;2;"new";5;"Instruments";"bassguitar4";0;1;"1.50091519259149";6;"0.592754535668064";1;2;NA;NA;NA;NA;NA;NA;NA
"422";1;NA;NA;NA;"NaN";"NaN";NA;NA;"NaN";30;2;"new";5;"HouseObjects";"basket4";0;1;"0.561931452481076";6;"0.0491182752302848";6;2;NA;NA;NA;NA;NA;NA;NA
"423";1;NA;NA;NA;"NaN";"NaN";NA;NA;"NaN";31;2;"new";5;"Instruments";"cello4";0;1;"0.960845088178758";6;"0.343942425795831";1;2;NA;NA;NA;NA;NA;NA;NA
"424";1;NA;NA;NA;"NaN";"NaN";NA;NA;"NaN";36;2;"new";5;"FruitsAndVegs";"arugula4";0;1;"0.528192325436976";6;"0.240621721546631";1;2;NA;NA;NA;NA;NA;NA;NA
"425";1;NA;NA;NA;"NaN";"NaN";NA;NA;"NaN";38;2;"new";5;"Instruments";"chime4";0;1;"1.2854692050023";6;"0.609182779677212";1;2;NA;NA;NA;NA;NA;NA;NA
"426";1;NA;NA;NA;"NaN";"NaN";NA;NA;"NaN";41;2;"new";5;"HouseObjects";"bleachbottle4";0;1;"0.503613142471295";6;"0.288736444083042";1;2;NA;NA;NA;NA;NA;NA;NA
"427";1;NA;NA;NA;"NaN";"NaN";NA;NA;"NaN";44;2;"new";5;"FruitsAndVegs";"asparagus4";0;1;"0.602171060629189";6;"0.22258695930941";1;2;NA;NA;NA;NA;NA;NA;NA
"428";1;NA;NA;NA;"NaN";"NaN";NA;NA;"NaN";45;2;"new";5;"HouseObjects";"bottle4";0;1;"0.543045161757618";6;"0.326792547479272";1;2;NA;NA;NA;NA;NA;NA;NA
"429";1;NA;NA;NA;"NaN";"NaN";NA;NA;"NaN";47;2;"new";5;"FruitsAndVegs";"avocado4";0;1;"0.617213767021894";6;"0.269488053396344";1;2;NA;NA;NA;NA;NA;NA;NA
"430";1;NA;NA;NA;"NaN";"NaN";NA;NA;"NaN";48;2;"new";5;"HouseObjects";"broom4";0;1;"1.88405999762472";6;"0.000100708100944757";6;2;NA;NA;NA;NA;NA;NA;NA
"431";1;NA;NA;NA;"NaN";"NaN";NA;NA;"NaN";49;2;"new";5;"FruitsAndVegs";"banana4";0;1;"0.68306497624144";6;"0.147642196447123";1;2;NA;NA;NA;NA;NA;NA;NA
"432";1;NA;NA;NA;"NaN";"NaN";NA;NA;"NaN";50;2;"new";5;"HouseObjects";"bucket4";0;1;"0.654855812666938";6;"0.203470707929228";1;2;NA;NA;NA;NA;NA;NA;NA
"433";1;NA;NA;NA;"NaN";"NaN";NA;NA;"NaN";51;2;"new";5;"HouseObjects";"clock4";0;1;"0.580709016881883";6;"0.217662848008331";1;2;NA;NA;NA;NA;NA;NA;NA
"434";1;NA;NA;NA;"NaN";"NaN";NA;NA;"NaN";52;2;"new";5;"Instruments";"clarinet4";0;1;"1.39407579979161";6;"8.54462666332256";1;2;NA;NA;NA;NA;NA;NA;NA
"435";1;NA;NA;NA;"NaN";"NaN";NA;NA;"NaN";54;2;"new";5;"Instruments";"cornet4";0;1;"0.675915986357722";6;"0.167400542006362";1;2;NA;NA;NA;NA;NA;NA;NA
"436";1;NA;NA;NA;"NaN";"NaN";NA;NA;"NaN";55;2;"new";5;"FruitsAndVegs";"beansprouts4";0;1;"0.546217465947848";6;"0.000104236009065062";6;2;NA;NA;NA;NA;NA;NA;NA
"437";1;NA;NA;NA;"NaN";"NaN";NA;NA;"NaN";56;2;"new";5;"HouseObjects";"clothesdryingrack4";0;1;"1.08352002280299";6;"2.11604937002994";4;2;NA;NA;NA;NA;NA;NA;NA
"438";1;NA;NA;NA;"NaN";"NaN";NA;NA;"NaN";59;2;"new";5;"HouseObjects";"clothespin4";0;1;"0.594075286644511";6;"0.887879206740763";4;2;NA;NA;NA;NA;NA;NA;NA
"439";1;NA;NA;NA;"NaN";"NaN";NA;NA;"NaN";60;2;"new";5;"Instruments";"cymbal4";0;1;"1.58050856291084";6;"0.574160105956253";1;2;NA;NA;NA;NA;NA;NA;NA
"440";1;NA;NA;NA;"NaN";"NaN";NA;NA;"NaN";61;2;"new";5;"FruitsAndVegs";"blackberry4";0;1;"0.648348596179858";6;"0.212555281177629";6;2;NA;NA;NA;NA;NA;NA;NA
"441";1;NA;NA;NA;"NaN";"NaN";NA;NA;"NaN";62;2;"new";5;"Instruments";"doublebass4";0;1;"0.678064852778334";1;"5.36757899413351";1;2;NA;NA;NA;NA;NA;NA;NA
"442";1;NA;NA;NA;"NaN";"NaN";NA;NA;"NaN";65;2;"new";5;"HouseObjects";"coffee4";0;1;"0.833076057373546";6;"1.91192245605635";4;2;NA;NA;NA;NA;NA;NA;NA
"443";1;NA;NA;NA;"NaN";"NaN";NA;NA;"NaN";66;2;"new";5;"FruitsAndVegs";"blackolive4";0;1;"0.610056438250467";6;"0.239062029402703";6;2;NA;NA;NA;NA;NA;NA;NA
"444";1;NA;NA;NA;"NaN";"NaN";NA;NA;"NaN";69;2;"new";5;"HouseObjects";"key4";0;1;"0.533400921092834";6;"0.295171817881055";4;2;NA;NA;NA;NA;NA;NA;NA
"445";1;NA;NA;NA;"NaN";"NaN";NA;NA;"NaN";70;2;"new";5;"HouseObjects";"knife4";0;1;"0.557036206475459";6;"0.247224835213274";4;2;NA;NA;NA;NA;NA;NA;NA
"446";1;NA;NA;NA;"NaN";"NaN";NA;NA;"NaN";71;2;"new";5;"FruitsAndVegs";"blueberry4";0;1;"0.454903472622391";6;"0.249426942202263";6;2;NA;NA;NA;NA;NA;NA;NA
"447";1;NA;NA;NA;"NaN";"NaN";NA;NA;"NaN";74;2;"new";5;"Instruments";"keyboard4";0;1;"0.602517765830271";6;"1.11084430245683";1;2;NA;NA;NA;NA;NA;NA;NA
"448";1;NA;NA;NA;"NaN";"NaN";NA;NA;"NaN";78;2;"new";5;"Instruments";"laud4";1;0;"2.63580466865096";6;"1.46286197577138";1;2;NA;NA;NA;NA;NA;NA;NA
"449";1;NA;NA;NA;"NaN";"NaN";NA;NA;"NaN";79;2;"new";5;"Instruments";"maraca4";0;1;"1.09181143983733";6;"1.02322764223209";1;2;NA;NA;NA;NA;NA;NA;NA
"450";1;NA;NA;NA;"NaN";"NaN";NA;NA;"NaN";80;2;"new";5;"FruitsAndVegs";"cucumber4";0;1;"0.702397717977874";1;"0.729975050664507";6;2;NA;NA;NA;NA;NA;NA;NA
"451";1;NA;NA;NA;"NaN";"NaN";NA;NA;"NaN";81;2;"new";5;"HouseObjects";"lintroller4";0;1;"0.797517129220068";6;"1.16799420642201";4;2;NA;NA;NA;NA;NA;NA;NA
"452";1;NA;NA;NA;"NaN";"NaN";NA;NA;"NaN";82;2;"new";5;"HouseObjects";"match4";0;1;"0.744710821891204";6;"0.358202239091042";4;2;NA;NA;NA;NA;NA;NA;NA
"453";1;NA;NA;NA;"NaN";"NaN";NA;NA;"NaN";85;2;"new";5;"Instruments";"marimba4";0;1;"0.847085704153869";6;"0.313976964796893";1;2;NA;NA;NA;NA;NA;NA;NA
"454";1;NA;NA;NA;"NaN";"NaN";NA;NA;"NaN";87;2;"new";5;"Instruments";"metronome4";0;1;"0.960072458488867";6;"0.733589957177173";1;2;NA;NA;NA;NA;NA;NA;NA
"455";1;NA;NA;NA;"NaN";"NaN";NA;NA;"NaN";88;2;"new";5;"HouseObjects";"pan4";0;1;"0.928590924188029";6;"1.12575871823356";4;2;NA;NA;NA;NA;NA;NA;NA
"456";1;NA;NA;NA;"NaN";"NaN";NA;NA;"NaN";89;2;"new";5;"FruitsAndVegs";"eggplant4";0;1;"0.616594765160698";6;"0.796475410053972";6;2;NA;NA;NA;NA;NA;NA;NA
"457";1;NA;NA;NA;"NaN";"NaN";NA;NA;"NaN";90;2;"new";5;"FruitsAndVegs";"endive4";1;0;"1.5332411993295";6;"0.85741950647207";6;2;NA;NA;NA;NA;NA;NA;NA
"458";1;NA;NA;NA;"NaN";"NaN";NA;NA;"NaN";91;2;"new";5;"Instruments";"musicsheet4";1;0;"0.984102557995357";6;"6.83147227391601e-05";6;2;NA;NA;NA;NA;NA;NA;NA
"459";1;NA;NA;NA;"NaN";"NaN";NA;NA;"NaN";93;2;"new";5;"FruitsAndVegs";"garlic4";0;1;"0.826137784693856";6;"0.132055217516609";6;2;NA;NA;NA;NA;NA;NA;NA
"460";1;NA;NA;NA;"NaN";"NaN";NA;NA;"NaN";95;2;"new";5;"HouseObjects";"pitcher4";0;1;"1.18210231617559";6;"0.170334867143538";4;2;NA;NA;NA;NA;NA;NA;NA
"461";1;NA;NA;NA;"NaN";"NaN";NA;NA;"NaN";101;2;"new";5;"FruitsAndVegs";"ginger4";0;1;"0.643685876799282";6;"0.288571590790525";6;2;NA;NA;NA;NA;NA;NA;NA
"462";1;NA;NA;NA;"NaN";"NaN";NA;NA;"NaN";105;2;"new";5;"Instruments";"musicstand4";0;1;"0.904277302499395";6;"0.788479061215185";1;2;NA;NA;NA;NA;NA;NA;NA
"463";1;NA;NA;NA;"NaN";"NaN";NA;NA;"NaN";106;2;"new";5;"Instruments";"oboe4";1;0;"1.85328790993663";6;"0.280599617108237";1;2;NA;NA;NA;NA;NA;NA;NA
"464";1;NA;NA;NA;"NaN";"NaN";NA;NA;"NaN";107;2;"new";5;"Instruments";"panflute4";0;1;"1.59108772088075";6;"0.288757291331422";1;2;NA;NA;NA;NA;NA;NA;NA
"465";1;NA;NA;NA;"NaN";"NaN";NA;NA;"NaN";112;2;"new";5;"HouseObjects";"recyclingbin4";0;1;"0.82069826615043";6;"1.45806904142955";4;2;NA;NA;NA;NA;NA;NA;NA
"466";1;NA;NA;NA;"NaN";"NaN";NA;NA;"NaN";113;2;"new";5;"HouseObjects";"rubbergloves4";0;1;"0.742871456430294";6;"0.233293445664458";4;2;NA;NA;NA;NA;NA;NA;NA
"467";1;NA;NA;NA;"NaN";"NaN";NA;NA;"NaN";114;2;"new";5;"HouseObjects";"rug4";0;1;"0.633169581182301";6;"0.216764172830153";4;2;NA;NA;NA;NA;NA;NA;NA
"468";1;NA;NA;NA;"NaN";"NaN";NA;NA;"NaN";115;2;"new";5;"HouseObjects";"safetypin4";0;1;"0.529164126201067";6;"0.182710092572961";4;2;NA;NA;NA;NA;NA;NA;NA
"469";1;NA;NA;NA;"NaN";"NaN";NA;NA;"NaN";116;2;"new";5;"Instruments";"pipepiano4";0;1;"0.600561655941419";6;"0.159828834759537";6;2;NA;NA;NA;NA;NA;NA;NA
"470";1;NA;NA;NA;"NaN";"NaN";NA;NA;"NaN";117;2;"new";5;"FruitsAndVegs";"grape4";0;1;"0.763351436180528";6;"0.178206453449093";6;2;NA;NA;NA;NA;NA;NA;NA
"471";1;NA;NA;NA;"NaN";"NaN";NA;NA;"NaN";119;2;"new";5;"Instruments";"record4";0;1;"0.897076355002355";6;"0.273072170151863";1;2;NA;NA;NA;NA;NA;NA;NA
"472";1;NA;NA;NA;"NaN";"NaN";NA;NA;"NaN";120;2;"new";5;"HouseObjects";"saw4";0;1;"0.711664143076632";6;"0.225253157317638";4;2;NA;NA;NA;NA;NA;NA;NA
"473";1;NA;NA;NA;"NaN";"NaN";NA;NA;"NaN";123;2;"new";5;"FruitsAndVegs";"greenolive4";0;1;"0.851645149698015";6;"0.133267883793451";6;2;NA;NA;NA;NA;NA;NA;NA
"474";1;NA;NA;NA;"NaN";"NaN";NA;NA;"NaN";124;2;"new";5;"Instruments";"saxophone4";0;1;"0.63339890044881";6;"0.287387469143141";1;2;NA;NA;NA;NA;NA;NA;NA
"475";1;NA;NA;NA;"NaN";"NaN";NA;NA;"NaN";125;2;"new";5;"HouseObjects";"scale4";0;1;"0.565078419167548";6;"0.272530142625328";4;2;NA;NA;NA;NA;NA;NA;NA
"476";1;NA;NA;NA;"NaN";"NaN";NA;NA;"NaN";128;2;"new";5;"Instruments";"speaker4";0;1;"0.307517857232597";6;"0.270777373283636";1;2;NA;NA;NA;NA;NA;NA;NA
"477";1;NA;NA;NA;"NaN";"NaN";NA;NA;"NaN";133;2;"new";5;"FruitsAndVegs";"iceberglettuce4";0;1;"0.51821613300126";6;"1.03222978883423";6;2;NA;NA;NA;NA;NA;NA;NA
"478";1;NA;NA;NA;"NaN";"NaN";NA;NA;"NaN";135;2;"new";5;"FruitsAndVegs";"kiwi4";0;1;"0.56385228241561";6;"0.170051345077809";6;2;NA;NA;NA;NA;NA;NA;NA
"479";1;NA;NA;NA;"NaN";"NaN";NA;NA;"NaN";136;2;"new";5;"FruitsAndVegs";"leek4";0;1;"0.596919487754349";6;"0.674843798275106";6;2;NA;NA;NA;NA;NA;NA;NA
"480";1;NA;NA;NA;"NaN";"NaN";NA;NA;"NaN";137;2;"new";5;"FruitsAndVegs";"lemon4";0;1;"0.480562220443971";6;"0.109767624118831";6;2;NA;NA;NA;NA;NA;NA;NA
"481";1;NA;NA;NA;"NaN";"NaN";NA;NA;"NaN";139;2;"new";5;"FruitsAndVegs";"lettuce4";0;1;"0.640200223075226";6;"0.0985989712062292";6;2;NA;NA;NA;NA;NA;NA;NA
"482";1;NA;NA;NA;"NaN";"NaN";NA;NA;"NaN";140;2;"new";5;"Instruments";"tambourine4";0;1;"0.744066161976662";6;"0.391754703363404";1;2;NA;NA;NA;NA;NA;NA;NA
"483";1;NA;NA;NA;"NaN";"NaN";NA;NA;"NaN";143;2;"new";5;"Instruments";"timbal4";0;1;"0.567698432598263";6;"1.63778643670958";1;2;NA;NA;NA;NA;NA;NA;NA
"484";1;NA;NA;NA;"NaN";"NaN";NA;NA;"NaN";147;2;"new";5;"Instruments";"triangle4";0;1;"0.675941965251695";6;"0.510451669280883";1;2;NA;NA;NA;NA;NA;NA;NA
"485";1;NA;NA;NA;"NaN";"NaN";NA;NA;"NaN";148;2;"new";5;"FruitsAndVegs";"mango4";0;1;"0.587149522267282";6;"0.0821133170975372";6;2;NA;NA;NA;NA;NA;NA;NA
"486";1;NA;NA;NA;"NaN";"NaN";NA;NA;"NaN";150;2;"new";5;"HouseObjects";"sponge4";0;1;"0.683240413549356";6;"0.132170678989496";4;2;NA;NA;NA;NA;NA;NA;NA
"487";1;NA;NA;NA;"NaN";"NaN";NA;NA;"NaN";153;2;"new";5;"FruitsAndVegs";"mushroom4";0;1;"0.975477906293236";6;"0.0361195578007028";6;2;NA;NA;NA;NA;NA;NA;NA
"488";1;NA;NA;NA;"NaN";"NaN";NA;NA;"NaN";154;2;"new";5;"Instruments";"trombone4";0;1;"1.44429031759501";6;"1.30193016311387";4;2;NA;NA;NA;NA;NA;NA;NA
"489";1;NA;NA;NA;"NaN";"NaN";NA;NA;"NaN";156;2;"new";5;"FruitsAndVegs";"onion4";1;0;"3.69477758108405";4;"1.40972499962663";6;2;NA;NA;NA;NA;NA;NA;NA
"490";1;NA;NA;NA;"NaN";"NaN";NA;NA;"NaN";157;2;"new";5;"FruitsAndVegs";"orange4";0;1;"1.02483512263279";6;"0.484460648964159";6;2;NA;NA;NA;NA;NA;NA;NA
"491";1;NA;NA;NA;"NaN";"NaN";NA;NA;"NaN";162;2;"new";5;"HouseObjects";"spraybottle4";0;1;"0.725981045747176";NA;"3.21319769602269";4;2;NA;NA;NA;NA;NA;NA;NA
"492";1;NA;NA;NA;"NaN";"NaN";NA;NA;"NaN";164;2;"new";5;"Instruments";"trumpet4";0;1;"0.542743999802042";6;"0.238389145582914";1;2;NA;NA;NA;NA;NA;NA;NA
"493";1;NA;NA;NA;"NaN";"NaN";NA;NA;"NaN";165;2;"new";5;"HouseObjects";"teapot4";0;1;"0.542308774136472";6;"0.157405105885118";4;2;NA;NA;NA;NA;NA;NA;NA
"494";1;NA;NA;NA;"NaN";"NaN";NA;NA;"NaN";168;2;"new";5;"FruitsAndVegs";"peanut4";0;1;"0.584091076045297";6;"0.111896605521906";6;2;NA;NA;NA;NA;NA;NA;NA
"495";1;NA;NA;NA;"NaN";"NaN";NA;NA;"NaN";169;2;"new";5;"HouseObjects";"thermometer4";0;1;"0.637297008302994";6;"1.62456064502476";4;2;NA;NA;NA;NA;NA;NA;NA
"496";1;NA;NA;NA;"NaN";"NaN";NA;NA;"NaN";171;2;"new";5;"Instruments";"tuba4";0;1;"1.06873421830824";6;"1.72456439753296";4;2;NA;NA;NA;NA;NA;NA;NA
"497";1;NA;NA;NA;"NaN";"NaN";NA;NA;"NaN";172;2;"new";5;"HouseObjects";"thread4";0;1;"0.806842247257009";6;"0.271754626359325";4;2;NA;NA;NA;NA;NA;NA;NA
"498";1;NA;NA;NA;"NaN";"NaN";NA;NA;"NaN";178;2;"new";5;"HouseObjects";"towel4";0;1;"0.701391920214519";6;"1.22183742187917";4;2;NA;NA;NA;NA;NA;NA;NA
"499";1;NA;NA;NA;"NaN";"NaN";NA;NA;"NaN";179;2;"new";5;"FruitsAndVegs";"pear4";0;1;"1.36462061444763";6;"3.06682333082426";6;2;NA;NA;NA;NA;NA;NA;NA
"500";1;NA;NA;NA;"NaN";"NaN";NA;NA;"NaN";182;2;"new";5;"FruitsAndVegs";"peppergreen4";0;1;"0.586435585457366";6;"9.14069823920727e-05";6;2;NA;NA;NA;NA;NA;NA;NA
"501";1;NA;NA;NA;"NaN";"NaN";NA;NA;"NaN";184;2;"new";5;"FruitsAndVegs";"pineapple4";0;1;"0.8060612786212";6;"0.275853508908767";6;2;NA;NA;NA;NA;NA;NA;NA
"502";1;NA;NA;NA;"NaN";"NaN";NA;NA;"NaN";185;2;"new";5;"Instruments";"violin4";0;1;"0.634356589289382";6;"0.954360001836903";1;2;NA;NA;NA;NA;NA;NA;NA
"503";1;NA;NA;NA;"NaN";"NaN";NA;NA;"NaN";188;2;"new";5;"HouseObjects";"vacuumcleaner4";0;1;"0.799729499442037";6;"0.913087975583039";4;2;NA;NA;NA;NA;NA;NA;NA
"504";1;NA;NA;NA;"NaN";"NaN";NA;NA;"NaN";189;2;"new";5;"HouseObjects";"wateringcan4";0;1;"0.621012128889561";6;"2.52844281273428";4;2;NA;NA;NA;NA;NA;NA;NA
"505";2;1;4;6;"HouseObjects";"iron2";3;1;"1.99064792320132";192;1;"old";4;"HouseObjects";"iron2";1;1;"1.4892048118636";6;"1.21989488508552";1;1;0;0;0,8;0,2;1;0,8;0,2
"506";2;2;1;1;"FruitsAndVegs";"pear";2;0;"1.89832314290106";104;1;"old";1;"FruitsAndVegs";"pear";0;0;"1.20766139682382";6;"9.6859410405159e-05";6;1;0;NA;0,33;0,67;0;0,33;0,67
"507";2;3;2;6;"HouseObjects";"cushion2";2;0;"1.80483059678227";265;2;"old";2;"HouseObjects";"cushion2";0;0;"0.892386053164955";2;"1.25698165089125";6;1;1;NA;0,8;0,2;0;0,8;0,2
"508";2;4;4;6;"HouseObjects";"doormat2";3;1;"1.40700891055167";26;1;"old";4;"HouseObjects";"doormat2";1;1;"1.11797620076686";6;"0.966690582223237";1;1;0;0;0,8;0,2;1;0,8;0,2
"509";2;5;2;4;"FruitsAndVegs";"cabbage2";2;0;"1.11440490558743";6;1;"old";2;"FruitsAndVegs";"cabbage2";0;0;"2.93015785887837";4;"5.33057711273432";4;1;1;NA;0,8;0,2;0;0,8;0,2
"510";2;6;4;5;"Instruments";"trombone";2;1;"0.94052407424897";361;2;"old";4;"Instruments";"trombone";0;0;"2.23636632465059";5;"0.73523207596736";1;1;0;NA;0,8;0,2;1;0,8;0,2
"511";2;7;1;2;"Instruments";"keyboard";1;0;"0.92710870783776";233;2;"old";1;"Instruments";"keyboard";1;1;"1.24602243222762";5;"1.62734262517188";4;1;0;0;0,33;0,67;0;0,33;0,67
"512";2;8;3;6;"FruitsAndVegs";"cauliflower2";3;0;"1.28133943211287";313;2;"old";3;"FruitsAndVegs";"cauliflower2";0;0;"0.904033871251158";6;"1.31737698457437";1;1;0;NA;0,2;0,8;0;0,2;0,8
"513";2;9;4;4;"FruitsAndVegs";"iceberglettuce2";2;0;"1.98831142671406";179;1;"old";4;"FruitsAndVegs";"iceberglettuce2";0;0;"0.986569559201598";6;"0.131149097345769";2;1;0;NA;0,8;0,2;1;0,8;0,2
"514";2;10;4;4;"FruitsAndVegs";"corn";1;1;"1.1985001526773";99;1;"old";4;"FruitsAndVegs";"corn";1;1;"1.10531261749566";6;"0.676147248595953";2;1;0;0;0,8;0,2;1;0,8;0,2
"515";2;11;4;4;"FruitsAndVegs";"corn";1;1;"0.568679025396705";99;1;"old";4;"FruitsAndVegs";"corn";1;1;"1.10531261749566";6;"0.676147248595953";2;1;0;0;0,8;0,2;1;0,8;0,2
"516";2;12;4;5;"Instruments";"pipepiano";2;1;"0.907114269211888";319;2;"old";4;"Instruments";"pipepiano";0;0;"0.732295826426707";4;"0.624683483212721";4;1;0;NA;0,8;0,2;1;0,8;0,2
"517";2;13;3;5;"FruitsAndVegs";"lemon2";2;0;"0.582097920589149";383;2;"old";3;"FruitsAndVegs";"lemon2";0;0;"1.07620553806191";5;"0.126045126817189";4;1;0;NA;0,2;0,8;0;0,2;0,8
"518";2;14;1;2;"HouseObjects";"safetypin";3;1;"1.43251343816519";206;2;"old";1;"HouseObjects";"safetypin";0;0;"1.36021928698756";4;"0.741534989792854";1;1;0;NA;0,33;0,67;0;0,33;0,67
"519";2;15;4;6;"HouseObjects";"garbagebin2";2;0;"0.947075243107975";97;1;"old";4;"HouseObjects";"garbagebin2";1;1;"1.86245111655444";6;"1.48758417833596";1;1;0;0;0,8;0,2;1;0,8;0,2
"520";2;16;1;3;"Instruments";"tuba";2;1;"0.78988375980407";131;1;"old";1;"Instruments";"tuba";1;1;"0.555185080505908";6;"0.766151889227331";3;1;1;1;0,33;0,67;0;0,33;0,67
"521";2;17;4;5;"Instruments";"guitarcase";1;0;"1.38442748785019";175;1;"old";4;"Instruments";"guitarcase";1;1;"1.39525394700468";2;"2.58635172154754";3;1;0;0;0,8;0,2;1;0,8;0,2
"522";2;18;4;4;"FruitsAndVegs";"onion";1;1;"1.57881399616599";275;2;"old";4;"FruitsAndVegs";"onion";1;1;"0.889880218368489";6;"0.277170090470463";4;1;1;1;0,8;0,2;1;0,8;0,2
"523";2;19;1;1;"HouseObjects";"towel";3;1;"0.933475778438151";119;1;"old";1;"HouseObjects";"towel";1;1;"1.48310875426978";6;"0.715970951132476";2;1;0;0;0,33;0,67;0;0,33;0,67
"524";2;20;3;4;"HouseObjects";"handbrush";1;0;"1.58381509128958";208;2;"old";3;"HouseObjects";"handbrush";1;1;"0.810675247572362";4;"0.892311323899776";2;1;0;0;0,2;0,8;0;0,2;0,8
"525";2;21;1;3;"HouseObjects";"spraybottle";2;0;"0.802171770483255";39;1;"old";1;"HouseObjects";"spraybottle";1;1;"2.85560552123934";3;"1.32344222068787";2;1;0;0;0,33;0,67;0;0,33;0,67
"526";2;22;3;6;"Instruments";"oboe2";3;0;"0.876640077680349";220;2;"old";3;"Instruments";"oboe2";0;0;"0.881321315478999";5;"0.586424680775963";2;1;0;NA;0,2;0,8;0;0,2;0,8
"527";2;23;2;5;"Instruments";"saxophone";2;1;"0.919039217755198";165;1;"old";2;"Instruments";"saxophone";1;1;"2.91656833700836";5;"0.348880358040333";3;1;0;0;0,8;0,2;0;0,8;0,2
"528";2;24;3;4;"HouseObjects";"teapot";1;0;"1.72929972223938";41;1;"old";3;"HouseObjects";"teapot";1;1;"1.21830375865102";6;"0.608636471442878";1;1;0;0;0,2;0,8;0;0,2;0,8
"529";2;25;4;5;"Instruments";"harp";2;1;"0.924068215303123";296;2;"old";4;"Instruments";"harp";1;1;"1.33839738828829";5;"0.152867469761986";3;1;0;0;0,8;0,2;1;0,8;0,2
"530";2;26;1;3;"HouseObjects";"thread2";2;0;"1.03082506731153";169;1;"old";1;"HouseObjects";"thread2";1;1;"1.53749634698033";6;"0.456965339370072";4;1;0;0;0,33;0,67;0;0,33;0,67
"531";2;27;2;4;"FruitsAndVegs";"cabbage";2;0;"1.24917629361153";246;2;"old";2;"FruitsAndVegs";"cabbage";1;1;"0.469864393700846";2;"1.79483810212696";3;1;0;0;0,8;0,2;0;0,8;0,2
"532";2;28;4;5;"Instruments";"harp";3;0;"1.28377856034786";296;2;"old";4;"Instruments";"harp";1;1;"1.33839738828829";5;"0.152867469761986";3;1;0;0;0,8;0,2;1;0,8;0,2
"533";2;29;4;4;"FruitsAndVegs";"coconut";2;0;"1.23822731617838";90;1;"old";4;"FruitsAndVegs";"coconut";1;1;"0.994835975579917";6;"0.986046773381531";2;1;0;0;0,8;0,2;1;0,8;0,2
"534";2;30;4;5;"Instruments";"hihat";3;0;"1.43261991906911";307;2;"old";4;"Instruments";"hihat";0;0;"1.45867264841218";6;"0.0892825127812102";2;1;0;NA;0,8;0,2;1;0,8;0,2
"535";2;31;4;4;"FruitsAndVegs";"lettuce2";1;1;"1.25102079380304";236;2;"old";4;"FruitsAndVegs";"lettuce2";1;1;"0.766666784300469";6;"1.39942391135264";1;1;0;0;0,8;0,2;1;0,8;0,2
"536";2;32;4;4;"FruitsAndVegs";"pineapple2";1;1;"0.469386132434011";374;2;"old";4;"FruitsAndVegs";"pineapple2";1;1;"0.939435322827194";5;"2.21290230710292";5;1;0;0;0,8;0,2;1;0,8;0,2
"537";2;33;3;5;"HouseObjects";"pitcher";3;1;"1.11967284604907";45;1;"old";3;"HouseObjects";"pitcher";1;1;"0.824902330525219";6;"0.277479163371027";6;1;0;0;0,2;0,8;0;0,2;0,8
"538";2;34;4;6;"HouseObjects";"match2";2;0;"1.21021470427513";199;2;"old";4;"HouseObjects";"match2";1;1;"1.14842637232505";5;"1.43500176240923";4;1;0;0;0,8;0,2;1;0,8;0,2
"539";2;35;4;6;"HouseObjects";"iron2";3;1;"1.14081965666264";192;1;"old";4;"HouseObjects";"iron2";1;1;"1.4892048118636";6;"1.21989488508552";1;1;0;0;0,8;0,2;1;0,8;0,2
"540";2;36;4;6;"HouseObjects";"match2";3;1;"0.431754918769002";199;2;"old";4;"HouseObjects";"match2";1;1;"1.14842637232505";5;"1.43500176240923";4;1;0;0;0,8;0,2;1;0,8;0,2
"541";2;37;1;3;"Instruments";"maraca2";1;0;"1.377989214845";48;1;"old";1;"Instruments";"maraca2";1;1;"0.604081506840885";6;"0.314901262521744";5;1;0;0;0,33;0,67;0;0,33;0,67
"542";2;38;4;6;"HouseObjects";"doormat2";3;1;"0.852595499716699";26;1;"old";4;"HouseObjects";"doormat2";1;1;"1.11797620076686";6;"0.966690582223237";1;1;0;0;0,8;0,2;1;0,8;0,2
"543";2;39;1;3;"FruitsAndVegs";"eggplant2";3;0;"0.767119522206485";382;2;"old";1;"FruitsAndVegs";"eggplant2";1;1;"0.839625930471811";5;"0.80416354094632";5;1;0;0;0,33;0,67;0;0,33;0,67
"544";2;40;1;3;"HouseObjects";"dustpan2";1;0;"1.04139686841518";257;2;"old";1;"HouseObjects";"dustpan2";0;0;"0.696065938740503";6;"0.685145207273308";4;1;0;NA;0,33;0,67;0;0,33;0,67
"545";2;41;4;4;"FruitsAndVegs";"broccoli2";3;0;"1.13232744764537";62;1;"old";4;"FruitsAndVegs";"broccoli2";1;1;"1.398547812365";6;"1.00577308516949";3;1;0;0;0,8;0,2;1;0,8;0,2
"546";2;42;3;5;"FruitsAndVegs";"leek";3;0;"0.942849344573915";258;2;"old";3;"FruitsAndVegs";"leek";1;1;"0.922227393079083";5;"0.968144178041257";1;1;0;0;0,2;0,8;0;0,2;0,8
"547";2;43;4;6;"HouseObjects";"match2";1;0;"0.985145211219788";199;2;"old";4;"HouseObjects";"match2";1;1;"1.14842637232505";5;"1.43500176240923";4;1;0;0;0,8;0,2;1;0,8;0,2
"548";2;44;4;4;"FruitsAndVegs";"pineapple";1;1;"0.499528050422668";291;2;"old";4;"FruitsAndVegs";"pineapple";1;1;"0.809696070151404";6;"0.154133055882994";2;1;0;0;0,8;0,2;1;0,8;0,2
"549";2;45;1;1;"HouseObjects";"glass2";3;1;"1.14995011128485";368;2;"old";1;"HouseObjects";"glass2";1;1;"1.14547280356055";5;"0.194668694515713";4;1;0;0;0,33;0,67;0;0,33;0,67
"550";2;46;2;6;"HouseObjects";"vacuumcleaner2";1;0;"0.776611436158419";44;1;"old";2;"HouseObjects";"vacuumcleaner2";1;1;"1.12723462469876";6;"0.249603821896017";6;1;1;1;0,8;0,2;0;0,8;0,2
"551";2;47;4;6;"HouseObjects";"pan2";3;1;"0.44293706305325";221;2;"old";4;"HouseObjects";"pan2";1;1;"1.21940118470229";6;"1.7172556858859";3;1;0;0;0,8;0,2;1;0,8;0,2
"552";2;48;4;6;"HouseObjects";"sponge";3;1;"0.453501167707145";330;2;"old";4;"HouseObjects";"sponge";0;0;"0.526516851095948";5;"0.166082035982981";2;1;0;NA;0,8;0,2;1;0,8;0,2
"553";2;49;4;5;"Instruments";"hihat";2;1;"0.287770649418235";307;2;"old";4;"Instruments";"hihat";0;0;"1.45867264841218";6;"0.0892825127812102";2;1;0;NA;0,8;0,2;1;0,8;0,2
"554";2;50;4;6;"HouseObjects";"pan2";3;1;"0.746712949126959";221;2;"old";4;"HouseObjects";"pan2";1;1;"1.21940118470229";6;"1.7172556858859";3;1;0;0;0,8;0,2;1;0,8;0,2
"555";2;51;1;3;"HouseObjects";"rubbergloves2";3;1;"1.10147415753454";334;2;"old";1;"HouseObjects";"rubbergloves2";1;1;"0.681774373515509";6;"0.813152858463582";4;1;0;0;0,33;0,67;0;0,33;0,67
"556";2;52;4;4;"FruitsAndVegs";"broccoli2";3;0;"0.503383829258382";62;1;"old";4;"FruitsAndVegs";"broccoli2";1;1;"1.398547812365";6;"1.00577308516949";3;1;0;0;0,8;0,2;1;0,8;0,2
"557";2;53;4;5;"Instruments";"harp";3;0;"0.706108598038554";296;2;"old";4;"Instruments";"harp";1;1;"1.33839738828829";5;"0.152867469761986";3;1;0;0;0,8;0,2;1;0,8;0,2
"558";2;54;3;5;"FruitsAndVegs";"orange2";2;0;"0.40535107254982";146;1;"old";3;"FruitsAndVegs";"orange2";0;0;"0.850713152438402";6;"0.509632231667638";4;1;0;NA;0,2;0,8;0;0,2;0,8
"559";2;55;2;4;"FruitsAndVegs";"cherrytomato";3;0;"1.36825162451714";170;1;"old";2;"FruitsAndVegs";"cherrytomato";0;0;"1.07187907863408";6;"0.195930808782578";3;1;0;NA;0,8;0,2;0;0,8;0,2
"560";2;56;1;3;"Instruments";"musicstand";2;1;"0.778561457060277";130;1;"old";1;"Instruments";"musicstand";1;1;"0.850151238031685";6;"0.560478677973151";3;1;1;1;0,33;0,67;0;0,33;0,67
"561";2;57;1;1;"FruitsAndVegs";"brusselssprout2";1;1;"0.77296220511198";350;2;"old";1;"FruitsAndVegs";"brusselssprout2";1;1;"0.991830779646989";5;"0.128570525965188";2;1;0;0;0,33;0,67;0;0,33;0,67
"562";2;58;2;6;"HouseObjects";"recyclingbin";1;0;"0.512265079654753";35;1;"old";2;"HouseObjects";"recyclingbin";1;1;"1.00691840052605";6;"2.03704941459";2;1;0;0;0,8;0,2;0;0,8;0,2
"563";2;59;4;4;"FruitsAndVegs";"iceberglettuce2";1;1;"0.890669956803322";179;1;"old";4;"FruitsAndVegs";"iceberglettuce2";0;0;"0.986569559201598";6;"0.131149097345769";2;1;0;NA;0,8;0,2;1;0,8;0,2
"564";2;60;2;6;"HouseObjects";"dishsoap2";3;1;"0.621586783789098";315;2;"old";2;"HouseObjects";"dishsoap2";1;1;"0.755896473361645";6;"0.061162831785623";2;1;0;0;0,8;0,2;0;0,8;0,2
"565";2;61;2;5;"Instruments";"speaker";1;0;"0.712786452844739";228;2;"old";2;"Instruments";"speaker";0;0;"0.848926994076464";3;"1.1082964524976";4;1;0;NA;0,8;0,2;0;0,8;0,2
"566";2;62;1;3;"FruitsAndVegs";"greenolive2";2;0;"0.699104241095483";12;1;"old";1;"FruitsAndVegs";"greenolive2";1;1;"1.38543585408479";6;"1.06259788107127";1;1;0;0;0,33;0,67;0;0,33;0,67
"567";2;63;3;4;"Instruments";"keyboard2";3;0;"0.549749079160392";326;2;"old";3;"Instruments";"keyboard2";1;1;"1.30098273756448";6;"1.92231559276115";4;1;1;1;0,2;0,8;0;0,2;0,8
"568";2;64;4;6;"HouseObjects";"pan2";3;1;"0.647913975641131";221;2;"old";4;"HouseObjects";"pan2";1;1;"1.21940118470229";6;"1.7172556858859";3;1;0;0;0,8;0,2;1;0,8;0,2
"569";2;65;4;6;"HouseObjects";"recyclingbin2";3;1;"0.922316725365818";268;2;"old";4;"HouseObjects";"recyclingbin2";0;0;"1.30222362768836";6;"0.268453390279319";4;1;0;NA;0,8;0,2;1;0,8;0,2
"570";2;66;1;3;"FruitsAndVegs";"endive";1;1;"1.08571972884238";293;2;"old";1;"FruitsAndVegs";"endive";1;1;"0.878747486742213";6;"1.47523784264922";3;1;1;1;0,33;0,67;0;0,33;0,67
"571";2;67;3;6;"Instruments";"harmonica2";3;0;"0.679851965047419";244;2;"old";3;"Instruments";"harmonica2";1;1;"0.794676456134766";6;"0.730637350585312";2;1;0;0;0,2;0,8;0;0,2;0,8
"572";2;68;1;3;"HouseObjects";"doormat";3;1;"0.770459572784603";242;2;"old";1;"HouseObjects";"doormat";1;1;"1.22339230310172";4;"1.34253604081459";4;1;0;0;0,33;0,67;0;0,33;0,67
"573";2;69;4;4;"FruitsAndVegs";"pineapple";2;0;"0.564919784665108";291;2;"old";4;"FruitsAndVegs";"pineapple";1;1;"0.809696070151404";6;"0.154133055882994";2;1;0;0;0,8;0,2;1;0,8;0,2
"574";2;70;2;4;"FruitsAndVegs";"corn2";1;1;"1.23125792015344";371;2;"old";2;"FruitsAndVegs";"corn2";0;0;"0.875670438341331";5;"0.193440633360296";4;1;1;NA;0,8;0,2;0;0,8;0,2
"575";2;71;2;4;"FruitsAndVegs";"mango2";1;1;"0.481644957326353";185;1;"old";2;"FruitsAndVegs";"mango2";0;0;"0.910689732991159";5;"0.553677984513342";2;1;0;NA;0,8;0,2;0;0,8;0,2
"576";2;72;1;1;"Instruments";"panflute2";3;0;"0.692020666785538";187;1;"old";1;"Instruments";"panflute2";1;1;"1.26976183149964";6;"1.30854253005236";3;1;0;0;0,33;0,67;0;0,33;0,67
"577";2;73;4;4;"FruitsAndVegs";"broccoli2";1;1;"0.558441421017051";62;1;"old";4;"FruitsAndVegs";"broccoli2";1;1;"1.398547812365";6;"1.00577308516949";3;1;0;0;0,8;0,2;1;0,8;0,2
"578";2;74;1;2;"Instruments";"triangle";3;0;"0.688677408732474";329;2;"old";1;"Instruments";"triangle";0;0;"0.797674285131507";5;"0.171969288552646";1;1;0;NA;0,33;0,67;0;0,33;0,67
"579";2;75;3;6;"FruitsAndVegs";"lettuce";3;0;"1.06792387366295";142;1;"old";3;"FruitsAndVegs";"lettuce";1;1;"0.791264808736742";6;"0.167068590410054";3;1;0;0;0,2;0,8;0;0,2;0,8
"580";2;76;1;3;"FruitsAndVegs";"cucumber";2;0;"0.798394569195807";209;2;"old";1;"FruitsAndVegs";"cucumber";1;1;"1.1369927994092";6;"0.779855371627491";2;1;0;0;0,33;0,67;0;0,33;0,67
"581";2;77;3;5;"HouseObjects";"cushion";3;1;"0.760602671653032";188;1;"old";3;"HouseObjects";"cushion";0;0;"0.959565312601626";6;"0.720632396638393";1;1;0;NA;0,2;0,8;0;0,2;0,8
"582";2;78;1;2;"HouseObjects";"key2";3;1;"0.731054098345339";362;2;"old";1;"HouseObjects";"key2";1;1;"1.21824015537277";5;"0.567320937698241";2;1;1;1;0,33;0,67;0;0,33;0,67
"583";2;79;3;5;"HouseObjects";"vacuumcleaner";1;0;"0.637618320062757";136;1;"old";3;"HouseObjects";"vacuumcleaner";1;1;"1.4505517622456";6;"1.63415318634361";6;1;0;0;0,2;0,8;0;0,2;0,8
"584";2;80;2;4;"FruitsAndVegs";"casabamelon2";1;1;"0.464166942052543";328;2;"old";2;"FruitsAndVegs";"casabamelon2";0;0;"1.34320379298879";4;"0.237746730737854";1;1;0;NA;0,8;0,2;0;0,8;0,2
"585";2;81;4;6;"HouseObjects";"sponge";1;0;"0.394410434179008";330;2;"old";4;"HouseObjects";"sponge";0;0;"0.526516851095948";5;"0.166082035982981";2;1;0;NA;0,8;0,2;1;0,8;0,2
"586";2;82;4;5;"Instruments";"harp";3;0;"0.404678508639336";296;2;"old";4;"Instruments";"harp";1;1;"1.33839738828829";5;"0.152867469761986";3;1;0;0;0,8;0,2;1;0,8;0,2
"587";2;83;3;6;"FruitsAndVegs";"peppergreen";2;0;"0.247944701462984";143;1;"old";3;"FruitsAndVegs";"peppergreen";1;1;"1.16959816403687";6;"0.322672476992011";4;1;0;0;0,2;0,8;0;0,2;0,8
"588";2;84;4;6;"HouseObjects";"iron";1;0;"0.370125311426818";98;1;"old";4;"HouseObjects";"iron";1;1;"1.91499132290483";6;"0.366944982670248";1;1;0;0;0,8;0,2;1;0,8;0,2
"589";2;85;3;6;"Instruments";"hihat2";1;0;"0.764792327769101";358;2;"old";3;"Instruments";"hihat2";1;1;"1.46768441685708";6;"0.309260363341309";2;1;0;0;0,2;0,8;0;0,2;0,8
