"","participant","trialN","trial_cond","scn_file","scn_cat","scn_inst","scn_condition","fillers","obj_cat","obj_cat_num","obj_file","quadrant","corr_ans","key_resp_trial.keys","key_resp_trial.rt","trial_acc","trial_acc_manual","group"
"248",43,241,0.9,"stim/53.jpeg",5,3,3,2,"HouseObjects",2,"stim/objects/HouseObjects/glass3.png",2,"right","right",0.856000185,1,1,1
"249",43,242,0.5,"stim/24.jpeg",2,4,1,1,"HouseObjects",2,"stim/objects/HouseObjects/ironingboard3.png",1,"right","left",0.605999947,0,0,1
"250",43,243,0.7,"stim/32.jpeg",3,2,2,2,"HouseObjects",2,"stim/objects/HouseObjects/cushion3.png",1,"right","right",0.670000076,1,1,1
"251",43,244,0.5,"stim/21.jpeg",2,1,1,2,"Instruments",1,"stim/objects/Instruments/chime3.png",2,"left","left",0.465000153,1,1,1
"252",43,245,0.9,"stim/62.jpeg",6,2,3,1,"Instruments",1,"stim/objects/Instruments/musicstand4.png",2,"left","left",0.802999973,1,1,1
"253",43,246,0.7,"stim/41.jpeg",4,1,2,2,"Instruments",1,"stim/objects/Instruments/drums3.png",3,"left","right",0.480000019,0,0,1
"254",43,247,0.3,"stim/41.jpeg",4,1,2,1,"HouseObjects",2,"stim/objects/HouseObjects/coffee4.png",3,"right","left",0.170000076,0,0,1
"255",43,248,0.9,"stim/54.jpeg",5,4,3,2,"HouseObjects",2,"stim/objects/HouseObjects/glass3.png",3,"right","right",0.582999945,1,1,1
"256",43,249,0.9,"stim/63.jpeg",6,3,3,2,"Instruments",1,"stim/objects/Instruments/gong3.png",3,"left","left",0.510999918,1,1,1
"257",43,250,0.9,"stim/52.jpeg",5,2,3,2,"HouseObjects",2,"stim/objects/HouseObjects/glass3.png",2,"right","right",0.494000196,1,1,1
"258",43,251,0.9,"stim/63.jpeg",6,3,3,2,"Instruments",1,"stim/objects/Instruments/flute3.png",1,"left","left",0.478999853,1,1,1
"259",43,252,0.5,"stim/22.jpeg",2,2,1,2,"Instruments",1,"stim/objects/Instruments/clarinet3.png",1,"left","right",0.737999916,0,0,1
"260",43,253,0.3,"stim/41.jpeg",4,1,2,1,"HouseObjects",2,"stim/objects/HouseObjects/bucket4.png",1,"right","left",0.436000109,0,0,1
"261",43,254,0.9,"stim/62.jpeg",6,2,3,2,"Instruments",1,"stim/objects/Instruments/gong3.png",2,"left","left",0.474999905,1,1,1
"262",43,255,0.9,"stim/64.jpeg",6,4,3,2,"Instruments",1,"stim/objects/Instruments/gong3.png",1,"left","left",0.559000015,1,1,1
"263",43,256,0.9,"stim/63.jpeg",6,3,3,2,"Instruments",1,"stim/objects/Instruments/grandpiano3.png",1,"left","left",0.565999985,1,1,1
"264",43,257,0.9,"stim/53.jpeg",5,3,3,2,"HouseObjects",2,"stim/objects/HouseObjects/flyswatter3.png",3,"right","right",0.444000006,1,1,1
"265",43,258,0.9,"stim/52.jpeg",5,2,3,2,"HouseObjects",2,"stim/objects/HouseObjects/flyswatter3.png",2,"right","right",0.551000118,1,1,1
"266",43,259,0.9,"stim/52.jpeg",5,2,3,2,"HouseObjects",2,"stim/objects/HouseObjects/dustpan3.png",3,"right","right",0.51699996,1,1,1
"267",43,260,0.9,"stim/64.jpeg",6,4,3,1,"Instruments",1,"stim/objects/Instruments/metronome4.png",2,"left","left",0.705999851,1,1,1
"268",43,261,0.9,"stim/64.jpeg",6,4,3,2,"Instruments",1,"stim/objects/Instruments/grandpiano3.png",1,"left","right",0.421000004,0,0,1
"269",43,262,0.9,"stim/52.jpeg",5,2,3,2,"HouseObjects",2,"stim/objects/HouseObjects/garbagebin3.png",3,"right","right",0.359999895,1,1,1
"270",43,263,0.9,"stim/51.jpeg",5,1,3,2,"HouseObjects",2,"stim/objects/HouseObjects/garbagebin3.png",4,"right","right",0.42200017,1,1,1
"271",43,264,0.5,"stim/24.jpeg",2,4,1,1,"HouseObjects",2,"stim/objects/HouseObjects/match3.png",3,"right","right",0.428999901,1,1,1
"272",43,265,0.9,"stim/51.jpeg",5,1,3,2,"HouseObjects",2,"stim/objects/HouseObjects/dustpan3.png",4,"right","",NA,0,0,1
"273",43,266,0.5,"stim/11.jpeg",1,1,1,2,"Instruments",1,"stim/objects/Instruments/accordion3.png",4,"left","left",0.615999937,1,1,1
"274",43,267,0.5,"stim/22.jpeg",2,2,1,1,"HouseObjects",2,"stim/objects/HouseObjects/knife3.png",2,"right","left",0.585000038,0,0,1
"275",43,268,0.9,"stim/53.jpeg",5,3,3,2,"HouseObjects",2,"stim/objects/HouseObjects/glass3.png",2,"right","right",0.50999999,1,1,1
"276",43,269,0.7,"stim/44.jpeg",4,4,2,2,"Instruments",1,"stim/objects/Instruments/doublebass3.png",2,"left","left",0.857999802,1,1,1
"277",43,270,0.9,"stim/52.jpeg",5,2,3,2,"HouseObjects",2,"stim/objects/HouseObjects/dustpan3.png",4,"right","right",0.477999926,1,1,1
"278",43,271,0.5,"stim/13.jpeg",1,3,1,2,"Instruments",1,"stim/objects/Instruments/acousticguitar3.png",3,"left","right",0.519000053,0,0,1
"279",43,272,0.9,"stim/62.jpeg",6,2,3,2,"Instruments",1,"stim/objects/Instruments/flutetrans3.png",2,"left","left",0.500999928,1,1,1
"280",43,273,0.9,"stim/61.jpeg",6,1,3,2,"Instruments",1,"stim/objects/Instruments/gong3.png",1,"left","left",0.476000071,1,1,1
"281",43,274,0.9,"stim/61.jpeg",6,1,3,1,"Instruments",1,"stim/objects/Instruments/vuvuzela4.png",4,"left","left",0.487999916,1,1,1
"282",43,275,0.9,"stim/62.jpeg",6,2,3,2,"Instruments",1,"stim/objects/Instruments/frenchhorn3.png",2,"left","left",0.46600008,1,1,1
"283",43,276,0.1,"stim/52.jpeg",5,2,3,1,"Instruments",1,"stim/objects/Instruments/keyboard4.png",4,"left","right",0.578000069,0,0,1
"284",43,277,0.9,"stim/51.jpeg",5,1,3,2,"HouseObjects",2,"stim/objects/HouseObjects/doormat3.png",3,"right","right",0.669000149,1,1,1
"285",43,278,0.7,"stim/32.jpeg",3,2,2,1,"HouseObjects",2,"stim/objects/HouseObjects/pan3.png",2,"right","right",0.628999949,1,1,1
"286",43,279,0.9,"stim/61.jpeg",6,1,3,2,"Instruments",1,"stim/objects/Instruments/gong3.png",1,"left","left",0.393000126,1,1,1
"287",43,280,0.5,"stim/11.jpeg",1,1,1,2,"Instruments",1,"stim/objects/Instruments/banjo3.png",2,"left","right",0.521999836,0,0,1
"288",43,281,0.9,"stim/63.jpeg",6,3,3,1,"Instruments",1,"stim/objects/Instruments/marimba4.png",3,"left","left",0.450999975,1,1,1
"289",43,282,0.9,"stim/62.jpeg",6,2,3,2,"Instruments",1,"stim/objects/Instruments/grandpiano3.png",2,"left","left",0.46999979,1,1,1
"290",43,283,0.9,"stim/54.jpeg",5,4,3,2,"HouseObjects",2,"stim/objects/HouseObjects/doormat3.png",2,"right","left",0.538000107,0,0,1
"291",43,284,0.9,"stim/53.jpeg",5,3,3,2,"HouseObjects",2,"stim/objects/HouseObjects/garbagebin3.png",3,"right","right",0.370999813,1,1,1
"292",43,285,0.3,"stim/32.jpeg",3,2,2,1,"Instruments",1,"stim/objects/Instruments/oboe3.png",4,"left","left",0.575999975,1,1,1
"293",43,286,0.9,"stim/63.jpeg",6,3,3,2,"Instruments",1,"stim/objects/Instruments/frenchhorn3.png",1,"left","left",0.461999893,1,1,1
"294",43,287,0.9,"stim/61.jpeg",6,1,3,2,"Instruments",1,"stim/objects/Instruments/grandpiano3.png",1,"left","left",0.402999878,1,1,1
"295",43,288,0.5,"stim/22.jpeg",2,2,1,2,"HouseObjects",2,"stim/objects/HouseObjects/blender3.png",2,"right","left",0.671999931,0,0,1
"296",43,289,0.5,"stim/24.jpeg",2,4,1,1,"Instruments",1,"stim/objects/Instruments/metronome3.png",2,"left","left",0.411000013,1,1,1
"297",43,290,0.9,"stim/54.jpeg",5,4,3,1,"HouseObjects",2,"stim/objects/HouseObjects/iron4.png",2,"right","",NA,0,0,1
"298",43,291,0.5,"stim/12.jpeg",1,2,1,1,"HouseObjects",2,"stim/objects/HouseObjects/glassmop3.png",4,"right","left",0.513000011,0,0,1
"299",43,292,0.7,"stim/32.jpeg",3,2,2,1,"HouseObjects",2,"stim/objects/HouseObjects/basket4.png",2,"right","right",0.572999954,1,1,1
"300",43,293,0.9,"stim/53.jpeg",5,3,3,2,"HouseObjects",2,"stim/objects/HouseObjects/dustpan3.png",1,"right","left",0.448999882,0,0,1
"301",43,294,0.9,"stim/64.jpeg",6,4,3,2,"Instruments",1,"stim/objects/Instruments/frenchhorn3.png",1,"left","left",0.536000013,1,1,1
"302",43,295,0.5,"stim/14.jpeg",1,4,1,1,"Instruments",1,"stim/objects/Instruments/harmonica3.png",3,"left","right",0.460999966,0,0,1
"303",43,296,0.9,"stim/54.jpeg",5,4,3,2,"HouseObjects",2,"stim/objects/HouseObjects/glass3.png",2,"right","right",0.532999992,1,1,1
"304",43,297,0.9,"stim/51.jpeg",5,1,3,2,"HouseObjects",2,"stim/objects/HouseObjects/dustpan3.png",2,"right","right",0.799000025,1,1,1
"305",43,298,0.7,"stim/31.jpeg",3,1,2,1,"HouseObjects",2,"stim/objects/HouseObjects/barbecuelighter4.png",1,"right","right",0.426000118,1,1,1
"306",43,299,0.5,"stim/11.jpeg",1,1,1,2,"Instruments",1,"stim/objects/Instruments/bassdrum3.png",3,"left","right",0.467999935,0,0,1
"307",43,300,0.5,"stim/23.jpeg",2,3,1,2,"Instruments",1,"stim/objects/Instruments/cornet3.png",3,"left","left",0.626000166,1,1,1
"308",43,301,0.5,"stim/14.jpeg",1,4,1,2,"HouseObjects",2,"stim/objects/HouseObjects/ashtray3.png",1,"right","right",0.458999872,1,1,1
"309",43,302,0.9,"stim/51.jpeg",5,1,3,2,"HouseObjects",2,"stim/objects/HouseObjects/doormat3.png",3,"right","right",0.65199995,1,1,1
"310",43,303,0.5,"stim/12.jpeg",1,2,1,1,"HouseObjects",2,"stim/objects/HouseObjects/iron3.png",2,"right","left",0.698999882,0,0,1
"311",43,304,0.9,"stim/62.jpeg",6,2,3,1,"Instruments",1,"stim/objects/Instruments/maraca4.png",4,"left","left",0.537999868,1,1,1
"312",43,305,0.1,"stim/51.jpeg",5,1,3,1,"Instruments",1,"stim/objects/Instruments/flute4.png",3,"left","right",0.509000063,0,0,1
"313",43,306,0.3,"stim/31.jpeg",3,1,2,1,"Instruments",1,"stim/objects/Instruments/banjo4.png",3,"left","right",0.595000029,0,0,1
"314",43,307,0.5,"stim/11.jpeg",1,1,1,1,"Instruments",1,"stim/objects/Instruments/harp3.png",2,"left","left",0.565000057,1,1,1
"315",43,308,0.5,"stim/13.jpeg",1,3,1,2,"HouseObjects",2,"stim/objects/HouseObjects/barbecuelighter3.png",3,"right","right",0.486999989,1,1,1
"316",43,309,0.9,"stim/53.jpeg",5,3,3,1,"HouseObjects",2,"stim/objects/HouseObjects/doormat4.png",1,"right","right",0.443000078,1,1,1
"317",43,310,0.9,"stim/64.jpeg",6,4,3,2,"Instruments",1,"stim/objects/Instruments/grandpiano3.png",3,"left","right",0.395999908,0,0,1
"318",43,311,0.7,"stim/33.jpeg",3,3,2,2,"HouseObjects",2,"stim/objects/HouseObjects/coffee3.png",1,"right","right",0.457000017,1,1,1
"319",43,312,0.9,"stim/61.jpeg",6,1,3,2,"Instruments",1,"stim/objects/Instruments/flutetrans3.png",1,"left","left",0.526000023,1,1,1
"320",43,313,0.1,"stim/52.jpeg",5,2,3,1,"Instruments",1,"stim/objects/Instruments/guitarcase4.png",2,"left","right",0.394999981,0,0,1
"321",43,314,0.9,"stim/54.jpeg",5,4,3,2,"HouseObjects",2,"stim/objects/HouseObjects/doormat3.png",2,"right","right",0.442000151,1,1,1
"322",43,315,0.9,"stim/52.jpeg",5,2,3,2,"HouseObjects",2,"stim/objects/HouseObjects/glass3.png",2,"right","left",0.381999969,0,0,1
"323",43,316,0.3,"stim/43.jpeg",4,3,2,1,"HouseObjects",2,"stim/objects/HouseObjects/clothesdryingrack4.png",2,"right","right",0.433000088,1,1,1
"324",43,317,0.9,"stim/61.jpeg",6,1,3,2,"Instruments",1,"stim/objects/Instruments/flute3.png",1,"left","left",0.483999968,1,1,1
"325",43,318,0.1,"stim/64.jpeg",6,4,3,1,"HouseObjects",2,"stim/objects/HouseObjects/key4.png",4,"right","left",0.512000084,0,0,1
"326",43,319,0.9,"stim/54.jpeg",5,4,3,2,"HouseObjects",2,"stim/objects/HouseObjects/dustpan3.png",1,"right","right",0.496000051,1,1,1
"327",43,320,0.5,"stim/12.jpeg",1,2,1,2,"Instruments",1,"stim/objects/Instruments/acousticguitar3.png",2,"left","right",0.573999882,0,0,1
"328",43,321,0.1,"stim/62.jpeg",6,2,3,1,"HouseObjects",2,"stim/objects/HouseObjects/lintroller4.png",4,"right","left",0.592000008,0,0,1
"329",43,322,0.9,"stim/51.jpeg",5,1,3,2,"HouseObjects",2,"stim/objects/HouseObjects/garbagebin3.png",1,"right","right",0.355000019,1,1,1
"330",43,323,0.9,"stim/64.jpeg",6,4,3,2,"Instruments",1,"stim/objects/Instruments/frenchhorn3.png",3,"left","left",0.358999968,1,1,1
"331",43,324,0.9,"stim/54.jpeg",5,4,3,2,"HouseObjects",2,"stim/objects/HouseObjects/doormat3.png",3,"right","right",0.503999949,1,1,1
"332",43,325,0.9,"stim/53.jpeg",5,3,3,2,"HouseObjects",2,"stim/objects/HouseObjects/flyswatter3.png",1,"right","left",0.532999992,0,0,1
"333",43,326,0.7,"stim/34.jpeg",3,4,2,1,"HouseObjects",2,"stim/objects/HouseObjects/towel3.png",2,"right","right",0.45600009,1,1,1
"334",43,327,0.9,"stim/52.jpeg",5,2,3,2,"HouseObjects",2,"stim/objects/HouseObjects/flyswatter3.png",1,"right","right",0.447999954,1,1,1
"335",43,328,0.7,"stim/32.jpeg",3,2,2,2,"HouseObjects",2,"stim/objects/HouseObjects/clothespin3.png",1,"right","right",0.429000139,1,1,1
"336",43,329,0.5,"stim/22.jpeg",2,2,1,2,"HouseObjects",2,"stim/objects/HouseObjects/clock3.png",2,"right","left",0.595000029,0,0,1
"337",43,330,0.7,"stim/44.jpeg",4,4,2,1,"Instruments",1,"stim/objects/Instruments/bassguitar4.png",1,"left","right",0.583000183,0,0,1
"338",43,331,0.7,"stim/32.jpeg",3,2,2,2,"HouseObjects",2,"stim/objects/HouseObjects/coffee3.png",2,"right","right",0.454999924,1,1,1
"339",43,332,0.7,"stim/33.jpeg",3,3,2,2,"HouseObjects",2,"stim/objects/HouseObjects/cushion3.png",1,"right","right",0.499000072,1,1,1
"340",43,333,0.7,"stim/41.jpeg",4,1,2,2,"Instruments",1,"stim/objects/Instruments/electricdrumset3.png",1,"left","left",0.542999983,1,1,1
"341",43,334,0.9,"stim/51.jpeg",5,1,3,2,"HouseObjects",2,"stim/objects/HouseObjects/glass3.png",4,"right","right",0.467000008,1,1,1
"342",43,335,0.1,"stim/53.jpeg",5,3,3,1,"Instruments",1,"stim/objects/Instruments/harmonica4.png",3,"left","right",0.470000029,0,0,1
"343",43,336,0.9,"stim/64.jpeg",6,4,3,2,"Instruments",1,"stim/objects/Instruments/frenchhorn3.png",3,"left","left",0.476999998,1,1,1
"344",43,337,0.9,"stim/62.jpeg",6,2,3,2,"Instruments",1,"stim/objects/Instruments/flutetrans3.png",3,"left","left",0.532999992,1,1,1
"345",43,338,0.3,"stim/33.jpeg",3,3,2,1,"Instruments",1,"stim/objects/Instruments/acousticguitar4.png",3,"left","left",0.549999952,1,1,1
"346",43,339,0.9,"stim/54.jpeg",5,4,3,2,"HouseObjects",2,"stim/objects/HouseObjects/glass3.png",1,"right","right",0.43599987,1,1,1
"347",43,340,0.9,"stim/54.jpeg",5,4,3,2,"HouseObjects",2,"stim/objects/HouseObjects/garbagebin3.png",3,"right","right",0.491999865,1,1,1
"348",43,341,0.9,"stim/64.jpeg",6,4,3,2,"Instruments",1,"stim/objects/Instruments/gong3.png",2,"left","left",0.421999931,1,1,1
"349",43,342,0.9,"stim/62.jpeg",6,2,3,2,"Instruments",1,"stim/objects/Instruments/gong3.png",1,"left","right",0.399000168,0,0,1
"350",43,343,0.9,"stim/54.jpeg",5,4,3,2,"HouseObjects",2,"stim/objects/HouseObjects/flyswatter3.png",2,"right","left",0.425000191,0,0,1
"351",43,344,0.5,"stim/11.jpeg",1,1,1,2,"HouseObjects",2,"stim/objects/HouseObjects/ashtray3.png",4,"right","right",0.460999966,1,1,1
"352",43,345,0.9,"stim/52.jpeg",5,2,3,2,"HouseObjects",2,"stim/objects/HouseObjects/doormat3.png",4,"right","right",0.519000053,1,1,1
"353",43,346,0.9,"stim/53.jpeg",5,3,3,2,"HouseObjects",2,"stim/objects/HouseObjects/doormat3.png",2,"right","right",0.536999941,1,1,1
"354",43,347,0.1,"stim/54.jpeg",5,4,3,1,"Instruments",1,"stim/objects/Instruments/gong4.png",2,"left","right",0.463999987,0,0,1
"355",43,348,0.9,"stim/52.jpeg",5,2,3,2,"HouseObjects",2,"stim/objects/HouseObjects/doormat3.png",2,"right","left",0.407000065,0,0,1
"356",43,349,0.9,"stim/51.jpeg",5,1,3,2,"HouseObjects",2,"stim/objects/HouseObjects/dustpan3.png",2,"right","right",0.424999952,1,1,1
"357",43,350,0.7,"stim/41.jpeg",4,1,2,1,"Instruments",1,"stim/objects/Instruments/cymbal4.png",2,"left","left",0.67599988,1,1,1
"358",43,351,0.1,"stim/63.jpeg",6,3,3,1,"HouseObjects",2,"stim/objects/HouseObjects/ironingboard4.png",4,"right","right",0.392999887,1,1,1
"359",43,352,0.3,"stim/42.jpeg",4,2,2,1,"HouseObjects",2,"stim/objects/HouseObjects/cushion4.png",2,"right","left",0.585000038,0,0,1
"360",43,353,0.9,"stim/51.jpeg",5,1,3,2,"HouseObjects",2,"stim/objects/HouseObjects/dustpan3.png",2,"right","right",0.541000128,1,1,1
"361",43,354,0.7,"stim/43.jpeg",4,3,2,2,"Instruments",1,"stim/objects/Instruments/cymbal3.png",3,"left","left",0.649999857,1,1,1
"362",43,355,0.9,"stim/63.jpeg",6,3,3,2,"Instruments",1,"stim/objects/Instruments/gong3.png",4,"left","left",0.512000084,1,1,1
"363",43,356,0.1,"stim/53.jpeg",5,3,3,1,"Instruments",1,"stim/objects/Instruments/frenchhorn4.png",4,"left","right",0.458999872,0,0,1
"364",43,357,0.9,"stim/53.jpeg",5,3,3,2,"HouseObjects",2,"stim/objects/HouseObjects/dustpan3.png",4,"right","right",0.423000097,1,1,1
"365",43,358,0.7,"stim/33.jpeg",3,3,2,2,"HouseObjects",2,"stim/objects/HouseObjects/dishsoap3.png",4,"right","left",0.530999899,0,0,1
"366",43,359,0.3,"stim/44.jpeg",4,4,2,1,"HouseObjects",2,"stim/objects/HouseObjects/clothespin4.png",4,"right","right",0.376999855,1,1,1
"367",43,360,0.7,"stim/31.jpeg",3,1,2,2,"HouseObjects",2,"stim/objects/HouseObjects/coffee3.png",4,"right","right",0.378000021,1,1,1
"368",43,361,0.9,"stim/64.jpeg",6,4,3,2,"Instruments",1,"stim/objects/Instruments/flute3.png",1,"left","left",0.493999958,1,1,1
"369",43,362,0.3,"stim/42.jpeg",4,2,2,1,"HouseObjects",2,"stim/objects/HouseObjects/clock4.png",2,"right","right",0.417000055,1,1,1
"370",43,363,0.3,"stim/34.jpeg",3,4,2,1,"Instruments",1,"stim/objects/Instruments/balalaika4.png",2,"left","left",0.450999975,1,1,1
"371",43,364,0.5,"stim/12.jpeg",1,2,1,2,"Instruments",1,"stim/objects/Instruments/accordion3.png",4,"left","left",0.610000134,1,1,1
"372",43,365,0.5,"stim/21.jpeg",2,1,1,2,"HouseObjects",2,"stim/objects/HouseObjects/bucket3.png",4,"right","left",0.562999964,0,0,1
"373",43,366,0.9,"stim/52.jpeg",5,2,3,2,"HouseObjects",2,"stim/objects/HouseObjects/dustpan3.png",4,"right","right",0.46600008,1,1,1
"374",43,367,0.5,"stim/22.jpeg",2,2,1,1,"Instruments",1,"stim/objects/Instruments/maraca3.png",3,"left","left",0.500999928,1,1,1
"375",43,368,0.9,"stim/51.jpeg",5,1,3,2,"HouseObjects",2,"stim/objects/HouseObjects/doormat3.png",2,"right","right",0.515000105,1,1,1
"376",43,369,0.7,"stim/31.jpeg",3,1,2,2,"HouseObjects",2,"stim/objects/HouseObjects/dishsoap3.png",1,"right","right",0.530999899,1,1,1
"377",43,370,0.9,"stim/62.jpeg",6,2,3,2,"Instruments",1,"stim/objects/Instruments/flute3.png",1,"left","left",0.431999922,1,1,1
"378",43,371,0.9,"stim/51.jpeg",5,1,3,2,"HouseObjects",2,"stim/objects/HouseObjects/garbagebin3.png",4,"right","right",0.478999853,1,1,1
"379",43,372,0.1,"stim/61.jpeg",6,1,3,1,"HouseObjects",2,"stim/objects/HouseObjects/pitcher4.png",4,"right","left",0.467000008,0,0,1
"380",43,373,0.3,"stim/43.jpeg",4,3,2,1,"HouseObjects",2,"stim/objects/HouseObjects/bottle4.png",3,"right","right",0.359999895,1,1,1
"381",43,374,0.9,"stim/52.jpeg",5,2,3,2,"HouseObjects",2,"stim/objects/HouseObjects/glass3.png",4,"right","right",0.325000048,1,1,1
"382",43,375,0.9,"stim/51.jpeg",5,1,3,2,"HouseObjects",2,"stim/objects/HouseObjects/glass3.png",1,"right","right",0.338999987,1,1,1
"383",43,376,0.7,"stim/42.jpeg",4,2,2,2,"Instruments",1,"stim/objects/Instruments/doublebass3.png",2,"left","right",0.489000082,0,0,1
"384",43,377,0.9,"stim/54.jpeg",5,4,3,2,"HouseObjects",2,"stim/objects/HouseObjects/dustpan3.png",2,"right","right",0.588999987,1,1,1
"385",43,378,0.5,"stim/13.jpeg",1,3,1,1,"HouseObjects",2,"stim/objects/HouseObjects/hairdryer3.png",1,"right","right",0.351999998,1,1,1
"386",43,379,0.9,"stim/63.jpeg",6,3,3,2,"Instruments",1,"stim/objects/Instruments/flutetrans3.png",1,"left","left",0.486999989,1,1,1
"387",43,380,0.9,"stim/54.jpeg",5,4,3,2,"HouseObjects",2,"stim/objects/HouseObjects/garbagebin3.png",2,"right","right",0.444000006,1,1,1
"388",43,381,0.9,"stim/61.jpeg",6,1,3,2,"Instruments",1,"stim/objects/Instruments/flute3.png",1,"left","left",0.542000055,1,1,1
"389",43,382,0.9,"stim/62.jpeg",6,2,3,2,"Instruments",1,"stim/objects/Instruments/flute3.png",3,"left","left",0.462000132,1,1,1
"390",43,383,0.5,"stim/23.jpeg",2,3,1,2,"Instruments",1,"stim/objects/Instruments/bassguitar3.png",4,"left","right",0.325999975,0,0,1
"391",43,384,0.7,"stim/42.jpeg",4,2,2,2,"Instruments",1,"stim/objects/Instruments/cymbal3.png",4,"left","left",0.479000092,1,1,1
"392",43,385,0.9,"stim/62.jpeg",6,2,3,2,"Instruments",1,"stim/objects/Instruments/flutetrans3.png",2,"left","left",0.530999899,1,1,1
"393",43,386,0.9,"stim/54.jpeg",5,4,3,2,"HouseObjects",2,"stim/objects/HouseObjects/doormat3.png",4,"right","right",0.463999987,1,1,1
"394",43,387,0.5,"stim/13.jpeg",1,3,1,2,"Instruments",1,"stim/objects/Instruments/balalaika3.png",1,"left","right",0.495000124,0,0,1
"395",43,388,0.5,"stim/11.jpeg",1,1,1,2,"HouseObjects",2,"stim/objects/HouseObjects/bleachbottle3.png",1,"right","right",0.661999941,1,1,1
"396",43,389,0.7,"stim/33.jpeg",3,3,2,2,"HouseObjects",2,"stim/objects/HouseObjects/clothesdryingrack3.png",4,"right","right",0.677000046,1,1,1
"397",43,390,0.7,"stim/33.jpeg",3,3,2,1,"HouseObjects",2,"stim/objects/HouseObjects/bleachbottle4.png",2,"right","right",0.440999985,1,1,1
"398",43,391,0.7,"stim/43.jpeg",4,3,2,2,"Instruments",1,"stim/objects/Instruments/doublebass3.png",2,"left","right",0.462000132,0,0,1
"399",43,392,0.5,"stim/12.jpeg",1,2,1,2,"HouseObjects",2,"stim/objects/HouseObjects/ballofstring3.png",4,"right","right",0.536999941,1,1,1
"400",43,393,0.9,"stim/64.jpeg",6,4,3,2,"Instruments",1,"stim/objects/Instruments/flutetrans3.png",2,"left","left",0.412999868,1,1,1
"401",43,394,0.9,"stim/52.jpeg",5,2,3,1,"HouseObjects",2,"stim/objects/HouseObjects/garbagebin4.png",1,"right","right",0.444999933,1,1,1
"402",43,395,0.9,"stim/63.jpeg",6,3,3,2,"Instruments",1,"stim/objects/Instruments/frenchhorn3.png",3,"left","right",0.454999924,0,0,1
"403",43,396,0.1,"stim/54.jpeg",5,4,3,1,"Instruments",1,"stim/objects/Instruments/harp4.png",2,"left","right",0.582999945,0,0,1
"404",43,397,0.9,"stim/52.jpeg",5,2,3,2,"HouseObjects",2,"stim/objects/HouseObjects/garbagebin3.png",4,"right","right",0.475999832,1,1,1
"405",43,398,0.5,"stim/23.jpeg",2,3,1,1,"Instruments",1,"stim/objects/Instruments/marimba3.png",2,"left","right",0.426000118,0,0,1
"406",43,399,0.9,"stim/64.jpeg",6,4,3,1,"Instruments",1,"stim/objects/Instruments/violin4.png",3,"left","left",0.549000025,1,1,1
"407",43,400,0.9,"stim/54.jpeg",5,4,3,2,"HouseObjects",2,"stim/objects/HouseObjects/garbagebin3.png",3,"right","left",0.453999996,0,0,1
"408",43,401,0.9,"stim/61.jpeg",6,1,3,2,"Instruments",1,"stim/objects/Instruments/frenchhorn3.png",1,"left","left",0.539999962,1,1,1
"409",43,402,0.5,"stim/12.jpeg",1,2,1,1,"Instruments",1,"stim/objects/Instruments/hihat3.png",3,"left","left",0.661999941,1,1,1
"410",43,403,0.9,"stim/64.jpeg",6,4,3,2,"Instruments",1,"stim/objects/Instruments/flute3.png",3,"left","left",0.461000204,1,1,1
"411",43,404,0.9,"stim/64.jpeg",6,4,3,2,"Instruments",1,"stim/objects/Instruments/flute3.png",4,"left","left",0.607000113,1,1,1
"412",43,405,0.9,"stim/62.jpeg",6,2,3,2,"Instruments",1,"stim/objects/Instruments/flutetrans3.png",4,"left","left",0.866999865,1,1,1
"413",43,406,0.5,"stim/21.jpeg",2,1,1,1,"HouseObjects",2,"stim/objects/HouseObjects/key3.png",4,"right","left",0.627000093,0,0,1
"414",43,407,0.9,"stim/53.jpeg",5,3,3,2,"HouseObjects",2,"stim/objects/HouseObjects/dustpan3.png",4,"right","right",0.545000076,1,1,1
"415",43,408,0.9,"stim/61.jpeg",6,1,3,2,"Instruments",1,"stim/objects/Instruments/flute3.png",2,"left","right",0.560000181,0,0,1
"416",43,409,0.9,"stim/53.jpeg",5,3,3,2,"HouseObjects",2,"stim/objects/HouseObjects/flyswatter3.png",2,"right","right",0.427999973,1,1,1
"417",43,410,0.9,"stim/51.jpeg",5,1,3,2,"HouseObjects",2,"stim/objects/HouseObjects/garbagebin3.png",1,"right","right",0.484999895,1,1,1
"418",43,411,0.9,"stim/62.jpeg",6,2,3,2,"Instruments",1,"stim/objects/Instruments/frenchhorn3.png",4,"left","right",0.394000053,0,0,1
"419",43,412,0.9,"stim/64.jpeg",6,4,3,2,"Instruments",1,"stim/objects/Instruments/flutetrans3.png",1,"left","left",0.501999855,1,1,1
"420",43,413,0.7,"stim/34.jpeg",3,4,2,2,"HouseObjects",2,"stim/objects/HouseObjects/clothespin3.png",4,"right","right",0.35800004,1,1,1
"421",43,414,0.5,"stim/13.jpeg",1,3,1,2,"HouseObjects",2,"stim/objects/HouseObjects/basket3.png",3,"right","left",0.354000092,0,0,1
"422",43,415,0.7,"stim/44.jpeg",4,4,2,2,"Instruments",1,"stim/objects/Instruments/drums3.png",4,"left","right",0.447999954,0,0,1
"423",43,416,0.9,"stim/63.jpeg",6,3,3,2,"Instruments",1,"stim/objects/Instruments/flute3.png",1,"left","right",0.40899992,0,0,1
"424",43,417,0.7,"stim/44.jpeg",4,4,2,1,"Instruments",1,"stim/objects/Instruments/cornet4.png",4,"left","left",0.473999977,1,1,1
"425",43,418,0.5,"stim/13.jpeg",1,3,1,1,"Instruments",1,"stim/objects/Instruments/keyboard3.png",2,"left","right",0.504000187,0,0,1
"426",43,419,0.9,"stim/53.jpeg",5,3,3,2,"HouseObjects",2,"stim/objects/HouseObjects/doormat3.png",4,"right","right",0.597000122,1,1,1
"427",43,420,0.9,"stim/52.jpeg",5,2,3,1,"HouseObjects",2,"stim/objects/HouseObjects/handbrush4.png",1,"right","right",0.54399991,1,1,1
"428",43,421,0.5,"stim/14.jpeg",1,4,1,2,"HouseObjects",2,"stim/objects/HouseObjects/bleachbottle3.png",3,"right","right",0.542000055,1,1,1
"429",43,422,0.5,"stim/11.jpeg",1,1,1,2,"HouseObjects",2,"stim/objects/HouseObjects/ballofstring3.png",2,"right","right",0.384000063,1,1,1
"430",43,423,0.7,"stim/31.jpeg",3,1,2,1,"HouseObjects",2,"stim/objects/HouseObjects/vacuumcleaner3.png",3,"right","right",0.475000143,1,1,1
"431",43,424,0.7,"stim/43.jpeg",4,3,2,1,"Instruments",1,"stim/objects/Instruments/drums4.png",4,"left","right",0.361000061,0,0,1
"432",43,425,0.9,"stim/53.jpeg",5,3,3,2,"HouseObjects",2,"stim/objects/HouseObjects/garbagebin3.png",4,"right","right",0.470999956,1,1,1
"433",43,426,0.9,"stim/61.jpeg",6,1,3,1,"Instruments",1,"stim/objects/Instruments/musicsheet4.png",1,"left","left",0.401000023,1,1,1
"434",43,427,0.9,"stim/53.jpeg",5,3,3,2,"HouseObjects",2,"stim/objects/HouseObjects/glass3.png",2,"right","right",0.32799983,1,1,1
"435",43,428,0.7,"stim/33.jpeg",3,3,2,1,"HouseObjects",2,"stim/objects/HouseObjects/ashtray4.png",1,"right","right",0.382999897,1,1,1
"436",43,429,0.7,"stim/32.jpeg",3,2,2,1,"HouseObjects",2,"stim/objects/HouseObjects/wateringcan3.png",3,"right","right",0.446000099,1,1,1
"437",43,430,0.9,"stim/61.jpeg",6,1,3,2,"Instruments",1,"stim/objects/Instruments/grandpiano3.png",4,"left","right",0.371000051,0,0,1
"438",43,431,0.9,"stim/62.jpeg",6,2,3,2,"Instruments",1,"stim/objects/Instruments/flute3.png",3,"left","left",0.546000004,1,1,1
"439",43,432,0.5,"stim/14.jpeg",1,4,1,2,"HouseObjects",2,"stim/objects/HouseObjects/basket3.png",1,"right","right",0.449999809,1,1,1
"440",43,433,0.1,"stim/62.jpeg",6,2,3,1,"HouseObjects",2,"stim/objects/HouseObjects/towel4.png",2,"right","right",0.437999964,1,1,1
"441",43,434,0.9,"stim/54.jpeg",5,4,3,2,"HouseObjects",2,"stim/objects/HouseObjects/flyswatter3.png",2,"right","left",0.378000021,0,0,1
"442",43,435,0.5,"stim/12.jpeg",1,2,1,2,"Instruments",1,"stim/objects/Instruments/bassdrum3.png",4,"left","right",0.378999949,0,0,1
"443",43,436,0.9,"stim/63.jpeg",6,3,3,2,"Instruments",1,"stim/objects/Instruments/flutetrans3.png",1,"left","right",0.382999897,0,0,1
"444",43,437,0.5,"stim/24.jpeg",2,4,1,2,"HouseObjects",2,"stim/objects/HouseObjects/broom3.png",4,"right","left",0.611000061,0,0,1
"445",43,438,0.9,"stim/54.jpeg",5,4,3,2,"HouseObjects",2,"stim/objects/HouseObjects/dustpan3.png",1,"right","right",0.496999979,1,1,1
"446",43,439,0.7,"stim/31.jpeg",3,1,2,2,"HouseObjects",2,"stim/objects/HouseObjects/clothesdryingrack3.png",1,"right","right",0.479000092,1,1,1
"447",43,440,0.1,"stim/63.jpeg",6,3,3,1,"HouseObjects",2,"stim/objects/HouseObjects/vacuumcleaner4.png",4,"right","left",0.513999939,0,0,1
"448",43,441,0.9,"stim/62.jpeg",6,2,3,1,"Instruments",1,"stim/objects/Instruments/xylophone4.png",4,"left","left",0.536999941,1,1,1
"449",43,442,0.9,"stim/52.jpeg",5,2,3,2,"HouseObjects",2,"stim/objects/HouseObjects/dustpan3.png",1,"right","right",0.480000019,1,1,1
"450",43,443,0.5,"stim/24.jpeg",2,4,1,2,"HouseObjects",2,"stim/objects/HouseObjects/bottle3.png",1,"right","left",0.490999937,0,0,1
"451",43,444,0.9,"stim/64.jpeg",6,4,3,2,"Instruments",1,"stim/objects/Instruments/flutetrans3.png",1,"left","right",0.400999784,0,0,1
"452",43,445,0.5,"stim/24.jpeg",2,4,1,2,"Instruments",1,"stim/objects/Instruments/cornet3.png",3,"left","left",0.605999947,1,1,1
"453",43,446,0.7,"stim/42.jpeg",4,2,2,1,"Instruments",1,"stim/objects/Instruments/doublebass4.png",4,"left","left",0.595999956,1,1,1
"454",43,447,0.9,"stim/61.jpeg",6,1,3,1,"Instruments",1,"stim/objects/Instruments/laud4.png",2,"left","left",0.44299984,1,1,1
"455",43,448,0.9,"stim/61.jpeg",6,1,3,2,"Instruments",1,"stim/objects/Instruments/flute3.png",1,"left","left",0.476000071,1,1,1
"456",43,449,0.9,"stim/63.jpeg",6,3,3,2,"Instruments",1,"stim/objects/Instruments/grandpiano3.png",3,"left","left",0.462000132,1,1,1
"457",43,450,0.5,"stim/14.jpeg",1,4,1,1,"HouseObjects",2,"stim/objects/HouseObjects/handbrush3.png",2,"right","right",0.411000013,1,1,1
"458",43,451,0.5,"stim/14.jpeg",1,4,1,2,"Instruments",1,"stim/objects/Instruments/banjo3.png",4,"left","right",0.413000107,0,0,1
"459",43,452,0.5,"stim/14.jpeg",1,4,1,2,"Instruments",1,"stim/objects/Instruments/balalaika3.png",1,"left","left",0.404000044,1,1,1
"460",43,453,0.9,"stim/64.jpeg",6,4,3,2,"Instruments",1,"stim/objects/Instruments/grandpiano3.png",4,"left","left",0.460999966,1,1,1
"461",43,454,0.9,"stim/51.jpeg",5,1,3,1,"HouseObjects",2,"stim/objects/HouseObjects/hairdryer4.png",4,"right","right",0.410000086,1,1,1
"462",43,455,0.9,"stim/63.jpeg",6,3,3,2,"Instruments",1,"stim/objects/Instruments/gong3.png",4,"left","right",0.39199996,0,0,1
"463",43,456,0.7,"stim/44.jpeg",4,4,2,1,"Instruments",1,"stim/objects/Instruments/electricdrumset4.png",3,"left","left",0.481999874,1,1,1
"464",43,457,0.9,"stim/62.jpeg",6,2,3,2,"Instruments",1,"stim/objects/Instruments/grandpiano3.png",2,"left","left",0.430999994,1,1,1
"465",43,458,0.9,"stim/61.jpeg",6,1,3,2,"Instruments",1,"stim/objects/Instruments/flutetrans3.png",3,"left","left",0.393000126,1,1,1
"466",43,459,0.3,"stim/43.jpeg",4,3,2,1,"HouseObjects",2,"stim/objects/HouseObjects/dishsoap4.png",1,"right","left",0.540999889,0,0,1
"467",43,460,0.5,"stim/23.jpeg",2,3,1,1,"HouseObjects",2,"stim/objects/HouseObjects/lintroller3.png",3,"right","left",0.444000006,0,0,1
"468",43,461,0.9,"stim/64.jpeg",6,4,3,2,"Instruments",1,"stim/objects/Instruments/grandpiano3.png",3,"left","left",0.450999975,1,1,1
"469",43,462,0.7,"stim/34.jpeg",3,4,2,2,"HouseObjects",2,"stim/objects/HouseObjects/clothesdryingrack3.png",3,"right","right",0.472000122,1,1,1
"470",43,463,0.5,"stim/23.jpeg",2,3,1,2,"HouseObjects",2,"stim/objects/HouseObjects/bottle3.png",3,"right","left",0.417999983,0,0,1
"471",43,464,0.9,"stim/62.jpeg",6,2,3,2,"Instruments",1,"stim/objects/Instruments/frenchhorn3.png",4,"left","left",0.458999872,1,1,1
"472",43,465,0.9,"stim/52.jpeg",5,2,3,2,"HouseObjects",2,"stim/objects/HouseObjects/doormat3.png",1,"right","left",0.45600009,0,0,1
"473",43,466,0.7,"stim/42.jpeg",4,2,2,1,"Instruments",1,"stim/objects/Instruments/chime4.png",4,"left","right",0.513999939,0,0,1
"474",43,467,0.9,"stim/64.jpeg",6,4,3,2,"Instruments",1,"stim/objects/Instruments/frenchhorn3.png",3,"left","left",0.545000076,1,1,1
"475",43,468,0.9,"stim/53.jpeg",5,3,3,2,"HouseObjects",2,"stim/objects/HouseObjects/garbagebin3.png",4,"right","left",0.506000042,0,0,1
"476",43,469,0.9,"stim/53.jpeg",5,3,3,2,"HouseObjects",2,"stim/objects/HouseObjects/glass3.png",3,"right","right",0.453000069,1,1,1
"477",43,470,0.1,"stim/61.jpeg",6,1,3,1,"HouseObjects",2,"stim/objects/HouseObjects/knife4.png",3,"right","left",0.388000011,0,0,1
"478",43,471,0.9,"stim/63.jpeg",6,3,3,2,"Instruments",1,"stim/objects/Instruments/frenchhorn3.png",2,"left","left",0.529000044,1,1,1
"479",43,472,0.7,"stim/43.jpeg",4,3,2,2,"Instruments",1,"stim/objects/Instruments/drums3.png",3,"left","right",0.446000099,0,0,1
"480",43,473,0.3,"stim/31.jpeg",3,1,2,1,"Instruments",1,"stim/objects/Instruments/xylophone3.png",3,"left","right",0.582000017,0,0,1
"481",43,474,0.9,"stim/63.jpeg",6,3,3,2,"Instruments",1,"stim/objects/Instruments/flute3.png",3,"left","left",0.559000015,1,1,1
"482",43,475,0.5,"stim/12.jpeg",1,2,1,2,"HouseObjects",2,"stim/objects/HouseObjects/barbecuelighter3.png",1,"right","right",0.54399991,1,1,1
"483",43,476,0.3,"stim/32.jpeg",3,2,2,1,"Instruments",1,"stim/objects/Instruments/bassdrum4.png",3,"left","right",0.525999784,0,0,1
"484",43,477,0.5,"stim/11.jpeg",1,1,1,1,"HouseObjects",2,"stim/objects/HouseObjects/handvacuum3.png",4,"right","right",0.467999935,1,1,1
"485",43,478,0.9,"stim/51.jpeg",5,1,3,2,"HouseObjects",2,"stim/objects/HouseObjects/flyswatter3.png",4,"right","right",0.391000032,1,1,1
"486",43,479,0.1,"stim/51.jpeg",5,1,3,1,"Instruments",1,"stim/objects/Instruments/grandpiano4.png",4,"left","right",0.385999918,0,0,1
"487",43,480,0.5,"stim/21.jpeg",2,1,1,2,"HouseObjects",2,"stim/objects/HouseObjects/broom3.png",3,"right","left",0.4599998,0,0,1
"488",43,481,0.7,"stim/42.jpeg",4,2,2,2,"Instruments",1,"stim/objects/Instruments/electricdrumset3.png",3,"left","left",0.41899991,1,1,1
"489",43,482,0.5,"stim/22.jpeg",2,2,1,2,"HouseObjects",2,"stim/objects/HouseObjects/bucket3.png",3,"right","left",0.347000122,0,0,1
"490",43,483,0.9,"stim/62.jpeg",6,2,3,2,"Instruments",1,"stim/objects/Instruments/gong3.png",4,"left","left",0.427999973,1,1,1
"491",43,484,0.5,"stim/24.jpeg",2,4,1,2,"Instruments",1,"stim/objects/Instruments/cello3.png",4,"left","right",0.340000153,0,0,1
"492",43,485,0.9,"stim/54.jpeg",5,4,3,1,"HouseObjects",2,"stim/objects/HouseObjects/glassmop4.png",3,"right","left",0.253000021,0,0,1
"493",43,486,0.5,"stim/21.jpeg",2,1,1,2,"Instruments",1,"stim/objects/Instruments/cello3.png",4,"left","right",0.351999998,0,0,1
"494",43,487,0.9,"stim/63.jpeg",6,3,3,2,"Instruments",1,"stim/objects/Instruments/flutetrans3.png",4,"left","left",0.069000006,1,1,1
"495",43,488,0.7,"stim/34.jpeg",3,4,2,2,"HouseObjects",2,"stim/objects/HouseObjects/dishsoap3.png",4,"right","left",0.429000139,0,0,1
"496",43,489,0.7,"stim/34.jpeg",3,4,2,2,"HouseObjects",2,"stim/objects/HouseObjects/cushion3.png",1,"right","right",0.299000025,1,1,1
"497",43,490,0.9,"stim/62.jpeg",6,2,3,2,"Instruments",1,"stim/objects/Instruments/grandpiano3.png",3,"left","left",0.498000145,1,1,1
"498",43,491,0.9,"stim/53.jpeg",5,3,3,2,"HouseObjects",2,"stim/objects/HouseObjects/doormat3.png",2,"right","left",0.364000082,0,0,1
"499",43,492,0.5,"stim/23.jpeg",2,3,1,2,"Instruments",1,"stim/objects/Instruments/clarinet3.png",1,"left","right",0.313999891,0,0,1
"500",43,493,0.7,"stim/43.jpeg",4,3,2,2,"Instruments",1,"stim/objects/Instruments/electricguitar3.png",4,"left","left",0.212000132,1,1,1
"501",43,494,0.9,"stim/54.jpeg",5,4,3,2,"HouseObjects",2,"stim/objects/HouseObjects/glass3.png",1,"right","right",0.189999819,1,1,1
"502",43,495,0.9,"stim/52.jpeg",5,2,3,2,"HouseObjects",2,"stim/objects/HouseObjects/glass3.png",1,"right","right",0.226999998,1,1,1
"503",43,496,0.9,"stim/62.jpeg",6,2,3,2,"Instruments",1,"stim/objects/Instruments/gong3.png",2,"left","left",0.186000109,1,1,1
"504",43,497,0.9,"stim/64.jpeg",6,4,3,2,"Instruments",1,"stim/objects/Instruments/gong3.png",2,"left","right",0.111000061,0,0,1
"505",43,498,0.5,"stim/13.jpeg",1,3,1,1,"Instruments",1,"stim/objects/Instruments/guitarcase3.png",1,"left","left",0.384000063,1,1,1
"506",43,499,0.9,"stim/63.jpeg",6,3,3,2,"Instruments",1,"stim/objects/Instruments/grandpiano3.png",3,"left","left",0.414999962,1,1,1
"507",43,500,0.9,"stim/62.jpeg",6,2,3,2,"Instruments",1,"stim/objects/Instruments/grandpiano3.png",4,"left","left",0.309000015,1,1,1
"508",43,501,0.9,"stim/52.jpeg",5,2,3,2,"HouseObjects",2,"stim/objects/HouseObjects/flyswatter3.png",1,"right","left",0.169999838,0,0,1
"509",43,502,0.1,"stim/52.jpeg",5,2,3,1,"Instruments",1,"stim/objects/Instruments/flutetrans4.png",4,"left","right",0.079999924,0,0,1
"510",43,503,0.3,"stim/32.jpeg",3,2,2,1,"Instruments",1,"stim/objects/Instruments/accordion4.png",4,"left","right",0.092999935,0,0,1
"511",43,504,0.9,"stim/51.jpeg",5,1,3,2,"HouseObjects",2,"stim/objects/HouseObjects/doormat3.png",1,"right","left",0.287999868,0,0,1
"512",43,505,0.5,"stim/24.jpeg",2,4,1,2,"Instruments",1,"stim/objects/Instruments/bassguitar3.png",2,"left","left",0.514000177,1,1,1
"513",43,506,0.9,"stim/52.jpeg",5,2,3,2,"HouseObjects",2,"stim/objects/HouseObjects/flyswatter3.png",1,"right","right",0.45299983,1,1,1
"514",43,507,0.9,"stim/53.jpeg",5,3,3,2,"HouseObjects",2,"stim/objects/HouseObjects/flyswatter3.png",3,"right","right",0.371000051,1,1,1
"515",43,508,0.9,"stim/51.jpeg",5,1,3,2,"HouseObjects",2,"stim/objects/HouseObjects/flyswatter3.png",3,"right","right",0.342999935,1,1,1
"516",43,509,0.3,"stim/34.jpeg",3,4,2,1,"Instruments",1,"stim/objects/Instruments/vuvuzela3.png",4,"left","right",0.373000145,0,0,1
"517",43,510,0.9,"stim/61.jpeg",6,1,3,2,"Instruments",1,"stim/objects/Instruments/gong3.png",4,"left","left",0.393000126,1,1,1
"518",43,511,0.9,"stim/53.jpeg",5,3,3,1,"HouseObjects",2,"stim/objects/HouseObjects/glass4.png",4,"right","right",0.390000105,1,1,1
"519",43,512,0.9,"stim/61.jpeg",6,1,3,2,"Instruments",1,"stim/objects/Instruments/flutetrans3.png",3,"left","right",0.407999992,0,0,1
"520",43,513,0.5,"stim/23.jpeg",2,3,1,2,"HouseObjects",2,"stim/objects/HouseObjects/blender3.png",2,"right","right",0.382999897,1,1,1
"521",43,514,0.9,"stim/52.jpeg",5,2,3,2,"HouseObjects",2,"stim/objects/HouseObjects/garbagebin3.png",2,"right","right",0.361999989,1,1,1
"522",43,515,0.3,"stim/44.jpeg",4,4,2,1,"HouseObjects",2,"stim/objects/HouseObjects/broom4.png",2,"right","right",0.318000078,1,1,1
"523",43,516,0.9,"stim/51.jpeg",5,1,3,1,"HouseObjects",2,"stim/objects/HouseObjects/flyswatter4.png",1,"right","right",0.40199995,1,1,1
"524",43,517,0.9,"stim/61.jpeg",6,1,3,2,"Instruments",1,"stim/objects/Instruments/frenchhorn3.png",4,"left","right",0.269000053,0,0,1
"525",43,518,0.9,"stim/53.jpeg",5,3,3,1,"HouseObjects",2,"stim/objects/HouseObjects/handvacuum4.png",3,"right","right",0.344000101,1,1,1
"526",43,519,0.9,"stim/53.jpeg",5,3,3,2,"HouseObjects",2,"stim/objects/HouseObjects/garbagebin3.png",4,"right","right",0.576000214,1,1,1
"527",43,520,0.1,"stim/64.jpeg",6,4,3,1,"HouseObjects",2,"stim/objects/HouseObjects/wateringcan4.png",2,"right","left",0.421000004,0,0,1
"528",43,521,0.9,"stim/54.jpeg",5,4,3,1,"HouseObjects",2,"stim/objects/HouseObjects/dustpan4.png",2,"right","right",0.161999941,1,1,1
"529",43,522,0.7,"stim/41.jpeg",4,1,2,1,"Instruments",1,"stim/objects/Instruments/electricguitar4.png",3,"left","right",0.334000111,0,0,1
"530",43,523,0.1,"stim/63.jpeg",6,3,3,1,"HouseObjects",2,"stim/objects/HouseObjects/match4.png",2,"right","right",0.383999825,1,1,1
"531",43,524,0.9,"stim/63.jpeg",6,3,3,2,"Instruments",1,"stim/objects/Instruments/flute3.png",2,"left","left",0.394000053,1,1,1
"532",43,525,0.9,"stim/64.jpeg",6,4,3,2,"Instruments",1,"stim/objects/Instruments/gong3.png",1,"left","left",0.443000078,1,1,1
"533",43,526,0.9,"stim/63.jpeg",6,3,3,2,"Instruments",1,"stim/objects/Instruments/grandpiano3.png",3,"left","right",0.305999994,0,0,1
"534",43,527,0.9,"stim/54.jpeg",5,4,3,2,"HouseObjects",2,"stim/objects/HouseObjects/flyswatter3.png",4,"right","right",0.444000006,1,1,1
"535",43,528,0.9,"stim/51.jpeg",5,1,3,2,"HouseObjects",2,"stim/objects/HouseObjects/flyswatter3.png",4,"right","right",0.457999945,1,1,1
"536",43,529,0.9,"stim/61.jpeg",6,1,3,2,"Instruments",1,"stim/objects/Instruments/frenchhorn3.png",1,"left","right",0.342000008,0,0,1
"537",43,530,0.7,"stim/41.jpeg",4,1,2,2,"Instruments",1,"stim/objects/Instruments/electricguitar3.png",2,"left","right",0.351999998,0,0,1
"538",43,531,0.7,"stim/42.jpeg",4,2,2,2,"Instruments",1,"stim/objects/Instruments/electricguitar3.png",1,"left","left",0.575999975,1,1,1
"539",43,532,0.5,"stim/23.jpeg",2,3,1,2,"HouseObjects",2,"stim/objects/HouseObjects/clock3.png",4,"right","left",0.514999866,0,0,1
"540",43,533,0.3,"stim/31.jpeg",3,1,2,1,"Instruments",1,"stim/objects/Instruments/musicstand3.png",2,"left","right",0.421000004,0,0,1
"541",43,534,0.9,"stim/54.jpeg",5,4,3,2,"HouseObjects",2,"stim/objects/HouseObjects/flyswatter3.png",3,"right","left",0.384000063,0,0,1
"542",43,535,0.7,"stim/34.jpeg",3,4,2,1,"HouseObjects",2,"stim/objects/HouseObjects/ballofstring4.png",4,"right","left",0.513000011,0,0,1
"543",43,536,0.9,"stim/54.jpeg",5,4,3,2,"HouseObjects",2,"stim/objects/HouseObjects/dustpan3.png",3,"right","right",0.447000027,1,1,1
"544",43,537,0.9,"stim/52.jpeg",5,2,3,2,"HouseObjects",2,"stim/objects/HouseObjects/garbagebin3.png",1,"right","right",0.506000042,1,1,1
"545",43,538,0.1,"stim/51.jpeg",5,1,3,1,"Instruments",1,"stim/objects/Instruments/hihat4.png",2,"left","right",0.440000057,0,0,1
"546",43,539,0.7,"stim/31.jpeg",3,1,2,2,"HouseObjects",2,"stim/objects/HouseObjects/clothespin3.png",1,"right","right",0.628000021,1,1,1
"547",43,540,0.9,"stim/61.jpeg",6,1,3,2,"Instruments",1,"stim/objects/Instruments/flutetrans3.png",2,"left","right",0.301999807,0,0,1
"548",43,541,0.3,"stim/33.jpeg",3,3,2,1,"Instruments",1,"stim/objects/Instruments/violin3.png",1,"left","right",0.32799983,0,0,1
"549",43,542,0.9,"stim/61.jpeg",6,1,3,2,"Instruments",1,"stim/objects/Instruments/grandpiano3.png",1,"left","left",0.346999884,1,1,1
"550",43,543,0.9,"stim/52.jpeg",5,2,3,2,"HouseObjects",2,"stim/objects/HouseObjects/doormat3.png",3,"right","right",0.202000141,1,1,1
"551",43,544,0.9,"stim/63.jpeg",6,3,3,2,"Instruments",1,"stim/objects/Instruments/flutetrans3.png",3,"left","right",0.286999941,0,0,1
"552",43,545,0.5,"stim/21.jpeg",2,1,1,1,"Instruments",1,"stim/objects/Instruments/musicsheet3.png",1,"left","left",0.111999989,1,1,1
"553",43,546,0.9,"stim/61.jpeg",6,1,3,2,"Instruments",1,"stim/objects/Instruments/grandpiano3.png",1,"left","right",0.125999928,0,0,1
"554",43,547,0.9,"stim/63.jpeg",6,3,3,2,"Instruments",1,"stim/objects/Instruments/frenchhorn3.png",4,"left","left",0.200999975,1,1,1
"555",43,548,0.5,"stim/21.jpeg",2,1,1,1,"Instruments",1,"stim/objects/Instruments/laud3.png",1,"left","right",0.259000063,0,0,1
"556",43,549,0.9,"stim/61.jpeg",6,1,3,2,"Instruments",1,"stim/objects/Instruments/frenchhorn3.png",3,"left","left",0.40199995,1,1,1
"557",43,550,0.9,"stim/63.jpeg",6,3,3,1,"Instruments",1,"stim/objects/Instruments/oboe4.png",1,"left","left",0.394000053,1,1,1
"558",43,551,0.9,"stim/64.jpeg",6,4,3,2,"Instruments",1,"stim/objects/Instruments/flute3.png",4,"left","left",0.350000143,1,1,1
"559",43,552,0.9,"stim/62.jpeg",6,2,3,2,"Instruments",1,"stim/objects/Instruments/flute3.png",3,"left","left",0.444000006,1,1,1
"560",43,553,0.7,"stim/41.jpeg",4,1,2,2,"Instruments",1,"stim/objects/Instruments/cymbal3.png",3,"left","left",0.453999996,1,1,1
"561",43,554,0.7,"stim/43.jpeg",4,3,2,1,"Instruments",1,"stim/objects/Instruments/clarinet4.png",3,"left","left",0.429000139,1,1,1
"562",43,555,0.1,"stim/64.jpeg",6,4,3,1,"HouseObjects",2,"stim/objects/HouseObjects/pan4.png",2,"right","left",0.480999947,0,0,1
"563",43,556,0.9,"stim/53.jpeg",5,3,3,2,"HouseObjects",2,"stim/objects/HouseObjects/doormat3.png",3,"right","left",0.389999866,0,0,1
"564",43,557,0.9,"stim/63.jpeg",6,3,3,2,"Instruments",1,"stim/objects/Instruments/gong3.png",4,"left","right",0.298000097,0,0,1
"565",43,558,0.9,"stim/64.jpeg",6,4,3,2,"Instruments",1,"stim/objects/Instruments/flutetrans3.png",3,"left","left",0.473999977,1,1,1
"566",43,559,0.7,"stim/41.jpeg",4,1,2,1,"Instruments",1,"stim/objects/Instruments/cello4.png",1,"left","right",0.460999966,0,0,1
"567",43,560,0.7,"stim/44.jpeg",4,4,2,2,"Instruments",1,"stim/objects/Instruments/electricdrumset3.png",1,"left","left",0.474999905,1,1,1
"568",43,561,0.9,"stim/62.jpeg",6,2,3,2,"Instruments",1,"stim/objects/Instruments/frenchhorn3.png",2,"left","right",0.427000046,0,0,1
"569",43,562,0.9,"stim/51.jpeg",5,1,3,2,"HouseObjects",2,"stim/objects/HouseObjects/glass3.png",3,"right","right",0.559999943,1,1,1
"570",43,563,0.3,"stim/42.jpeg",4,2,2,1,"HouseObjects",2,"stim/objects/HouseObjects/blender4.png",2,"right","left",0.516000032,0,0,1
"571",43,564,0.9,"stim/54.jpeg",5,4,3,2,"HouseObjects",2,"stim/objects/HouseObjects/garbagebin3.png",3,"right","right",0.399999857,1,1,1
"572",43,565,0.5,"stim/22.jpeg",2,2,1,2,"Instruments",1,"stim/objects/Instruments/chime3.png",1,"left","right",0.380000114,0,0,1
"573",43,566,0.9,"stim/61.jpeg",6,1,3,2,"Instruments",1,"stim/objects/Instruments/gong3.png",4,"left","left",0.38499999,1,1,1
"574",43,567,0.9,"stim/51.jpeg",5,1,3,2,"HouseObjects",2,"stim/objects/HouseObjects/flyswatter3.png",3,"right","left",0.394000053,0,0,1
"575",43,568,0.9,"stim/53.jpeg",5,3,3,2,"HouseObjects",2,"stim/objects/HouseObjects/dustpan3.png",1,"right","right",0.345000029,1,1,1
"576",43,569,0.9,"stim/51.jpeg",5,1,3,2,"HouseObjects",2,"stim/objects/HouseObjects/glass3.png",3,"right","right",0.56400013,1,1,1
"577",43,570,0.7,"stim/33.jpeg",3,3,2,1,"HouseObjects",2,"stim/objects/HouseObjects/pitcher3.png",2,"right","right",0.390000105,1,1,1
