"","obj_file","X.x","participant.x","trialN.x","trial_cond","scn_file.x","scn_cat","scn_inst","scn_condition","fillers","obj_cat","obj_cat_num","quadrant","corr_ans","key_resp_trial.keys","key_resp_trial.rt","trial_acc","trial_acc_manual","group.x","practice","X.y","participant.y","OvsN","PE_level","object_cat","scn_file.y","corr_scn_cat","corr_scn_inst","scn_file.1","corr_loc","key_resp_id.keys","key_resp_id.rt","key_resp_conf.keys","key_resp_assoc.keys","key_resp_assoc.rt","key_resp_loc.keys","key_resp_loc.rt","trialN.y","id_acc","assoc.acc","cond_assoc","loc.acc","cond_loc","group.y"
"133","stim/objects/Instruments/pipepiano.png",1,43,1,0.5,"stim/12.jpeg",1,2,1,NA,"Instruments",1,4,"left","",NA,0,0,0,1,NA,NA,NA,NA,NA,NA,NA,NA,NA,NA,NA,NA,NA,NA,NA,NA,NA,NA,NA,NA,NA,NA,NA,NA
"205","stim/objects/Instruments/trombone.png",2,43,2,0.3,"stim/32.jpeg",3,2,2,NA,"Instruments",1,2,"left","right",0.89199996,0,0,0,1,NA,NA,NA,NA,NA,NA,NA,NA,NA,NA,NA,NA,NA,NA,NA,NA,NA,NA,NA,NA,NA,NA,NA,NA
"187","stim/objects/Instruments/timbal.png",3,43,3,0.5,"stim/24.jpeg",2,4,1,NA,"Instruments",1,3,"left","left",0.792999983,1,1,0,1,NA,NA,NA,NA,NA,NA,NA,NA,NA,NA,NA,NA,NA,NA,NA,NA,NA,NA,NA,NA,NA,NA,NA,NA
"89","stim/objects/HouseObjects/spraybottle.png",4,43,4,0.7,"stim/31.jpeg",3,1,2,NA,"HouseObjects",2,2,"right","right",0.592000008,1,1,0,1,NA,NA,NA,NA,NA,NA,NA,NA,NA,NA,NA,NA,NA,NA,NA,NA,NA,NA,NA,NA,NA,NA,NA,NA
"193","stim/objects/Instruments/triangle.png",5,43,5,0.3,"stim/31.jpeg",3,1,2,NA,"Instruments",1,2,"left","right",0.378000021,0,0,0,1,NA,NA,NA,NA,NA,NA,NA,NA,NA,NA,NA,NA,NA,NA,NA,NA,NA,NA,NA,NA,NA,NA,NA,NA
"38","stim/objects/HouseObjects/safetypin2.png",6,43,6,0.9,"stim/51.jpeg",5,1,3,NA,"HouseObjects",2,3,"right","left",0.559000015,0,0,0,1,NA,NA,NA,NA,NA,NA,NA,NA,NA,NA,NA,NA,NA,NA,NA,NA,NA,NA,NA,NA,NA,NA,NA,NA
"9","stim/objects/HouseObjects/remote.png",7,43,7,0.5,"stim/12.jpeg",1,2,1,NA,"HouseObjects",2,2,"right","right",0.289000034,1,1,0,1,NA,NA,NA,NA,NA,NA,NA,NA,NA,NA,NA,NA,NA,NA,NA,NA,NA,NA,NA,NA,NA,NA,NA,NA
"208","stim/objects/Instruments/trombone2.png",8,43,8,0.9,"stim/62.jpeg",6,2,3,NA,"Instruments",1,1,"left","right",0.25999999,0,0,0,1,NA,NA,NA,NA,NA,NA,NA,NA,NA,NA,NA,NA,NA,NA,NA,NA,NA,NA,NA,NA,NA,NA,NA,NA
"232","stim/objects/Instruments/tuba2.png",9,43,9,0.9,"stim/64.jpeg",6,4,3,NA,"Instruments",1,2,"left","left",0.228000164,1,1,0,1,NA,NA,NA,NA,NA,NA,NA,NA,NA,NA,NA,NA,NA,NA,NA,NA,NA,NA,NA,NA,NA,NA,NA,NA
"138","stim/objects/Instruments/pipepiano2.png",10,43,10,0.7,"stim/42.jpeg",4,2,2,NA,"Instruments",1,4,"left","right",0.518000126,0,0,0,1,NA,NA,NA,NA,NA,NA,NA,NA,NA,NA,NA,NA,NA,NA,NA,NA,NA,NA,NA,NA,NA,NA,NA,NA
"139","stim/objects/Instruments/pipepiano2.png",11,43,11,0.7,"stim/42.jpeg",4,2,2,NA,"Instruments",1,2,"left","left",0.565999985,1,1,0,1,NA,NA,NA,NA,NA,NA,NA,NA,NA,NA,NA,NA,NA,NA,NA,NA,NA,NA,NA,NA,NA,NA,NA,NA
"157","stim/objects/Instruments/record.png",12,43,12,0.5,"stim/13.jpeg",1,3,1,NA,"Instruments",1,1,"left","",NA,0,0,0,1,NA,NA,NA,NA,NA,NA,NA,NA,NA,NA,NA,NA,NA,NA,NA,NA,NA,NA,NA,NA,NA,NA,NA,NA
"25","stim/objects/HouseObjects/rug.png",13,43,13,0.5,"stim/14.jpeg",1,4,1,NA,"HouseObjects",2,2,"right","left",0.789000034,0,0,0,1,NA,NA,NA,NA,NA,NA,NA,NA,NA,NA,NA,NA,NA,NA,NA,NA,NA,NA,NA,NA,NA,NA,NA,NA
"97","stim/objects/HouseObjects/teapot.png",14,43,14,0.7,"stim/32.jpeg",3,2,2,NA,"HouseObjects",2,4,"right","left",0.914000034,0,0,0,1,NA,NA,NA,NA,NA,NA,NA,NA,NA,NA,NA,NA,NA,NA,NA,NA,NA,NA,NA,NA,NA,NA,NA,NA
"6","stim/objects/HouseObjects/recyclingbin2.png",15,43,15,0.3,"stim/41.jpeg",4,1,2,NA,"HouseObjects",2,4,"right","",NA,0,0,0,1,NA,NA,NA,NA,NA,NA,NA,NA,NA,NA,NA,NA,NA,NA,NA,NA,NA,NA,NA,NA,NA,NA,NA,NA
"209","stim/objects/Instruments/trombone2.png",16,43,16,0.9,"stim/62.jpeg",6,2,3,NA,"Instruments",1,4,"left","left",0.729000092,1,1,0,1,NA,NA,NA,NA,NA,NA,NA,NA,NA,NA,NA,NA,NA,NA,NA,NA,NA,NA,NA,NA,NA,NA,NA,NA
"30","stim/objects/HouseObjects/rug2.png",17,43,17,0.3,"stim/44.jpeg",4,4,2,NA,"HouseObjects",2,2,"right","",NA,0,0,0,1,NA,NA,NA,NA,NA,NA,NA,NA,NA,NA,NA,NA,NA,NA,NA,NA,NA,NA,NA,NA,NA,NA,NA,NA
"210","stim/objects/Instruments/trombone2.png",18,43,18,0.9,"stim/62.jpeg",6,2,3,NA,"Instruments",1,4,"left","left",0.546999931,1,1,0,1,NA,NA,NA,NA,NA,NA,NA,NA,NA,NA,NA,NA,NA,NA,NA,NA,NA,NA,NA,NA,NA,NA,NA,NA
"169","stim/objects/Instruments/saxophone.png",19,43,19,0.5,"stim/21.jpeg",2,1,1,NA,"Instruments",1,3,"left","left",0.774999857,1,1,0,1,NA,NA,NA,NA,NA,NA,NA,NA,NA,NA,NA,NA,NA,NA,NA,NA,NA,NA,NA,NA,NA,NA,NA,NA
"39","stim/objects/HouseObjects/safetypin2.png",20,43,20,0.9,"stim/51.jpeg",5,1,3,NA,"HouseObjects",2,4,"right","right",0.715000153,1,1,0,1,NA,NA,NA,NA,NA,NA,NA,NA,NA,NA,NA,NA,NA,NA,NA,NA,NA,NA,NA,NA,NA,NA,NA,NA
"80","stim/objects/HouseObjects/sponge2.png",21,43,21,0.9,"stim/54.jpeg",5,4,3,NA,"HouseObjects",2,1,"right","right",0.58100009,1,1,0,1,NA,NA,NA,NA,NA,NA,NA,NA,NA,NA,NA,NA,NA,NA,NA,NA,NA,NA,NA,NA,NA,NA,NA,NA
"1","stim/objects/HouseObjects/recyclingbin.png",22,43,22,0.5,"stim/11.jpeg",1,1,1,NA,"HouseObjects",2,2,"right","right",0.919999838,1,1,0,1,NA,NA,NA,NA,NA,NA,NA,NA,NA,NA,NA,NA,NA,NA,NA,NA,NA,NA,NA,NA,NA,NA,NA,NA
"26","stim/objects/HouseObjects/rug.png",23,43,23,0.5,"stim/14.jpeg",1,4,1,NA,"HouseObjects",2,1,"right","left",0.852999926,0,0,0,1,NA,NA,NA,NA,NA,NA,NA,NA,NA,NA,NA,NA,NA,NA,NA,NA,NA,NA,NA,NA,NA,NA,NA,NA
"98","stim/objects/HouseObjects/teapot.png",24,43,24,0.7,"stim/32.jpeg",3,2,2,NA,"HouseObjects",2,4,"right","",NA,0,0,0,1,NA,NA,NA,NA,NA,NA,NA,NA,NA,NA,NA,NA,NA,NA,NA,NA,NA,NA,NA,NA,NA,NA,NA,NA
"66","stim/objects/HouseObjects/scale2.png",25,43,25,0.9,"stim/53.jpeg",5,3,3,NA,"HouseObjects",2,1,"right","right",0.552000046,1,1,0,1,NA,NA,NA,NA,NA,NA,NA,NA,NA,NA,NA,NA,NA,NA,NA,NA,NA,NA,NA,NA,NA,NA,NA,NA
"211","stim/objects/Instruments/trombone2.png",26,43,26,0.9,"stim/62.jpeg",6,2,3,NA,"Instruments",1,1,"left","left",0.544999838,1,1,0,1,NA,NA,NA,NA,NA,NA,NA,NA,NA,NA,NA,NA,NA,NA,NA,NA,NA,NA,NA,NA,NA,NA,NA,NA
"233","stim/objects/Instruments/tuba2.png",27,43,27,0.9,"stim/64.jpeg",6,4,3,NA,"Instruments",1,3,"left","left",0.528000116,1,1,0,1,NA,NA,NA,NA,NA,NA,NA,NA,NA,NA,NA,NA,NA,NA,NA,NA,NA,NA,NA,NA,NA,NA,NA,NA
"40","stim/objects/HouseObjects/safetypin2.png",28,43,28,0.9,"stim/51.jpeg",5,1,3,NA,"HouseObjects",2,1,"right","right",0.542000055,1,1,0,1,NA,NA,NA,NA,NA,NA,NA,NA,NA,NA,NA,NA,NA,NA,NA,NA,NA,NA,NA,NA,NA,NA,NA,NA
"99","stim/objects/HouseObjects/teapot.png",29,43,29,0.7,"stim/32.jpeg",3,2,2,NA,"HouseObjects",2,1,"right","right",0.511999846,1,1,0,1,NA,NA,NA,NA,NA,NA,NA,NA,NA,NA,NA,NA,NA,NA,NA,NA,NA,NA,NA,NA,NA,NA,NA,NA
"90","stim/objects/HouseObjects/spraybottle.png",30,43,30,0.7,"stim/31.jpeg",3,1,2,NA,"HouseObjects",2,1,"right","right",0.535000086,1,1,0,1,NA,NA,NA,NA,NA,NA,NA,NA,NA,NA,NA,NA,NA,NA,NA,NA,NA,NA,NA,NA,NA,NA,NA,NA
"134","stim/objects/Instruments/pipepiano.png",31,43,31,0.5,"stim/12.jpeg",1,2,1,NA,"Instruments",1,3,"left","left",0.438999891,1,1,0,1,NA,NA,NA,NA,NA,NA,NA,NA,NA,NA,NA,NA,NA,NA,NA,NA,NA,NA,NA,NA,NA,NA,NA,NA
"10","stim/objects/HouseObjects/remote.png",32,43,32,0.5,"stim/12.jpeg",1,2,1,NA,"HouseObjects",2,2,"right","left",0.717000008,0,0,0,1,NA,NA,NA,NA,NA,NA,NA,NA,NA,NA,NA,NA,NA,NA,NA,NA,NA,NA,NA,NA,NA,NA,NA,NA
"188","stim/objects/Instruments/timbal.png",33,43,33,0.5,"stim/24.jpeg",2,4,1,NA,"Instruments",1,2,"left","left",0.585000038,1,1,0,1,NA,NA,NA,NA,NA,NA,NA,NA,NA,NA,NA,NA,NA,NA,NA,NA,NA,NA,NA,NA,NA,NA,NA,NA
"145","stim/objects/Instruments/record_player.png",34,43,34,0.5,"stim/14.jpeg",1,4,1,NA,"Instruments",1,4,"left","left",0.903000116,1,1,0,1,NA,NA,NA,NA,NA,NA,NA,NA,NA,NA,NA,NA,NA,NA,NA,NA,NA,NA,NA,NA,NA,NA,NA,NA
"7","stim/objects/HouseObjects/recyclingbin2.png",35,43,35,0.3,"stim/41.jpeg",4,1,2,NA,"HouseObjects",2,3,"right","left",0.639000177,0,0,0,1,NA,NA,NA,NA,NA,NA,NA,NA,NA,NA,NA,NA,NA,NA,NA,NA,NA,NA,NA,NA,NA,NA,NA,NA
"105","stim/objects/HouseObjects/thermometer.png",36,43,36,0.7,"stim/33.jpeg",3,3,2,NA,"HouseObjects",2,2,"right","right",0.532000065,1,1,0,1,NA,NA,NA,NA,NA,NA,NA,NA,NA,NA,NA,NA,NA,NA,NA,NA,NA,NA,NA,NA,NA,NA,NA,NA
"229","stim/objects/Instruments/tuba.png",37,43,37,0.3,"stim/34.jpeg",3,4,2,NA,"Instruments",1,2,"left","",NA,0,0,0,1,NA,NA,NA,NA,NA,NA,NA,NA,NA,NA,NA,NA,NA,NA,NA,NA,NA,NA,NA,NA,NA,NA,NA,NA
"113","stim/objects/HouseObjects/thread.png",38,43,38,0.7,"stim/34.jpeg",3,4,2,NA,"HouseObjects",2,4,"right","left",0.881999969,0,0,0,1,NA,NA,NA,NA,NA,NA,NA,NA,NA,NA,NA,NA,NA,NA,NA,NA,NA,NA,NA,NA,NA,NA,NA,NA
"150","stim/objects/Instruments/record_player2.png",39,43,39,0.7,"stim/44.jpeg",4,4,2,NA,"Instruments",1,1,"left","left",0.637000084,1,1,0,1,NA,NA,NA,NA,NA,NA,NA,NA,NA,NA,NA,NA,NA,NA,NA,NA,NA,NA,NA,NA,NA,NA,NA,NA
"114","stim/objects/HouseObjects/thread.png",40,43,40,0.7,"stim/34.jpeg",3,4,2,NA,"HouseObjects",2,3,"right","right",0.519999981,1,1,0,1,NA,NA,NA,NA,NA,NA,NA,NA,NA,NA,NA,NA,NA,NA,NA,NA,NA,NA,NA,NA,NA,NA,NA,NA
"140","stim/objects/Instruments/pipepiano2.png",41,43,41,0.7,"stim/42.jpeg",4,2,2,NA,"Instruments",1,4,"left","left",0.758000135,1,1,0,1,NA,NA,NA,NA,NA,NA,NA,NA,NA,NA,NA,NA,NA,NA,NA,NA,NA,NA,NA,NA,NA,NA,NA,NA
"41","stim/objects/HouseObjects/safetypin2.png",42,43,42,0.9,"stim/51.jpeg",5,1,3,NA,"HouseObjects",2,4,"right","right",0.490999937,1,1,0,1,NA,NA,NA,NA,NA,NA,NA,NA,NA,NA,NA,NA,NA,NA,NA,NA,NA,NA,NA,NA,NA,NA,NA,NA
"2","stim/objects/HouseObjects/recyclingbin.png",43,43,43,0.5,"stim/11.jpeg",1,1,1,NA,"HouseObjects",2,2,"right","left",0.585000038,0,0,0,1,NA,NA,NA,NA,NA,NA,NA,NA,NA,NA,NA,NA,NA,NA,NA,NA,NA,NA,NA,NA,NA,NA,NA,NA
"27","stim/objects/HouseObjects/rug.png",44,43,44,0.5,"stim/14.jpeg",1,4,1,NA,"HouseObjects",2,1,"right","right",0.421000004,1,1,0,1,NA,NA,NA,NA,NA,NA,NA,NA,NA,NA,NA,NA,NA,NA,NA,NA,NA,NA,NA,NA,NA,NA,NA,NA
"234","stim/objects/Instruments/tuba2.png",45,43,45,0.9,"stim/64.jpeg",6,4,3,NA,"Instruments",1,2,"left","left",0.405999899,1,1,0,1,NA,NA,NA,NA,NA,NA,NA,NA,NA,NA,NA,NA,NA,NA,NA,NA,NA,NA,NA,NA,NA,NA,NA,NA
"42","stim/objects/HouseObjects/safetypin2.png",46,43,46,0.9,"stim/51.jpeg",5,1,3,NA,"HouseObjects",2,1,"right","right",0.54399991,1,1,0,1,NA,NA,NA,NA,NA,NA,NA,NA,NA,NA,NA,NA,NA,NA,NA,NA,NA,NA,NA,NA,NA,NA,NA,NA
"212","stim/objects/Instruments/trombone2.png",47,43,47,0.9,"stim/62.jpeg",6,2,3,NA,"Instruments",1,1,"left","left",0.362999916,1,1,0,1,NA,NA,NA,NA,NA,NA,NA,NA,NA,NA,NA,NA,NA,NA,NA,NA,NA,NA,NA,NA,NA,NA,NA,NA
"115","stim/objects/HouseObjects/thread.png",48,43,48,0.7,"stim/34.jpeg",3,4,2,NA,"HouseObjects",2,3,"right","right",0.520999908,1,1,0,1,NA,NA,NA,NA,NA,NA,NA,NA,NA,NA,NA,NA,NA,NA,NA,NA,NA,NA,NA,NA,NA,NA,NA,NA
"91","stim/objects/HouseObjects/spraybottle.png",49,43,49,0.7,"stim/31.jpeg",3,1,2,NA,"HouseObjects",2,3,"right","right",0.812000036,1,1,0,1,NA,NA,NA,NA,NA,NA,NA,NA,NA,NA,NA,NA,NA,NA,NA,NA,NA,NA,NA,NA,NA,NA,NA,NA
"61","stim/objects/HouseObjects/scale.png",50,43,50,0.5,"stim/23.jpeg",2,3,1,NA,"HouseObjects",2,3,"right","left",0.545000076,0,0,0,1,NA,NA,NA,NA,NA,NA,NA,NA,NA,NA,NA,NA,NA,NA,NA,NA,NA,NA,NA,NA,NA,NA,NA,NA
"43","stim/objects/HouseObjects/safetypin2.png",51,43,51,0.9,"stim/51.jpeg",5,1,3,NA,"HouseObjects",2,2,"right","right",0.532999992,1,1,0,1,NA,NA,NA,NA,NA,NA,NA,NA,NA,NA,NA,NA,NA,NA,NA,NA,NA,NA,NA,NA,NA,NA,NA,NA
"14","stim/objects/HouseObjects/remote2.png",52,43,52,0.3,"stim/42.jpeg",4,2,2,NA,"HouseObjects",2,3,"right","left",0.815000057,0,0,0,1,NA,NA,NA,NA,NA,NA,NA,NA,NA,NA,NA,NA,NA,NA,NA,NA,NA,NA,NA,NA,NA,NA,NA,NA
"17","stim/objects/HouseObjects/rubbergloves.png",53,43,53,0.5,"stim/13.jpeg",1,3,1,NA,"HouseObjects",2,2,"right","right",0.850000143,1,1,0,1,NA,NA,NA,NA,NA,NA,NA,NA,NA,NA,NA,NA,NA,NA,NA,NA,NA,NA,NA,NA,NA,NA,NA,NA
"217","stim/objects/Instruments/trumpet.png",54,43,54,0.3,"stim/33.jpeg",3,3,2,NA,"Instruments",1,4,"left","right",0.629999876,0,0,0,1,NA,NA,NA,NA,NA,NA,NA,NA,NA,NA,NA,NA,NA,NA,NA,NA,NA,NA,NA,NA,NA,NA,NA,NA
"126","stim/objects/Instruments/panflute2.png",55,43,55,0.7,"stim/41.jpeg",4,1,2,NA,"Instruments",1,2,"left","",NA,0,0,0,1,NA,NA,NA,NA,NA,NA,NA,NA,NA,NA,NA,NA,NA,NA,NA,NA,NA,NA,NA,NA,NA,NA,NA,NA
"158","stim/objects/Instruments/record.png",56,43,56,0.5,"stim/13.jpeg",1,3,1,NA,"Instruments",1,3,"left","right",0.744999886,0,0,0,1,NA,NA,NA,NA,NA,NA,NA,NA,NA,NA,NA,NA,NA,NA,NA,NA,NA,NA,NA,NA,NA,NA,NA,NA
"116","stim/objects/HouseObjects/thread.png",57,43,57,0.7,"stim/34.jpeg",3,4,2,NA,"HouseObjects",2,2,"right","right",0.585000038,1,1,0,1,NA,NA,NA,NA,NA,NA,NA,NA,NA,NA,NA,NA,NA,NA,NA,NA,NA,NA,NA,NA,NA,NA,NA,NA
"196","stim/objects/Instruments/triangle2.png",58,43,58,0.9,"stim/61.jpeg",6,1,3,NA,"Instruments",1,2,"left","left",0.582999945,1,1,0,1,NA,NA,NA,NA,NA,NA,NA,NA,NA,NA,NA,NA,NA,NA,NA,NA,NA,NA,NA,NA,NA,NA,NA,NA
"197","stim/objects/Instruments/triangle2.png",59,43,59,0.9,"stim/61.jpeg",6,1,3,NA,"Instruments",1,2,"left","left",0.628999949,1,1,0,1,NA,NA,NA,NA,NA,NA,NA,NA,NA,NA,NA,NA,NA,NA,NA,NA,NA,NA,NA,NA,NA,NA,NA,NA
"151","stim/objects/Instruments/record_player2.png",60,43,60,0.7,"stim/44.jpeg",4,4,2,NA,"Instruments",1,2,"left","left",0.828000069,1,1,0,1,NA,NA,NA,NA,NA,NA,NA,NA,NA,NA,NA,NA,NA,NA,NA,NA,NA,NA,NA,NA,NA,NA,NA,NA
"81","stim/objects/HouseObjects/sponge2.png",61,43,61,0.9,"stim/54.jpeg",5,4,3,NA,"HouseObjects",2,3,"right","right",0.613000154,1,1,0,1,NA,NA,NA,NA,NA,NA,NA,NA,NA,NA,NA,NA,NA,NA,NA,NA,NA,NA,NA,NA,NA,NA,NA,NA
"146","stim/objects/Instruments/record_player.png",62,43,62,0.5,"stim/14.jpeg",1,4,1,NA,"Instruments",1,1,"left","left",0.246999979,1,1,0,1,NA,NA,NA,NA,NA,NA,NA,NA,NA,NA,NA,NA,NA,NA,NA,NA,NA,NA,NA,NA,NA,NA,NA,NA
"52","stim/objects/HouseObjects/saw2.png",63,43,63,0.9,"stim/52.jpeg",5,2,3,NA,"HouseObjects",2,2,"right","right",0.562000036,1,1,0,1,NA,NA,NA,NA,NA,NA,NA,NA,NA,NA,NA,NA,NA,NA,NA,NA,NA,NA,NA,NA,NA,NA,NA,NA
"82","stim/objects/HouseObjects/sponge2.png",64,43,64,0.9,"stim/54.jpeg",5,4,3,NA,"HouseObjects",2,2,"right","right",0.486000061,1,1,0,1,NA,NA,NA,NA,NA,NA,NA,NA,NA,NA,NA,NA,NA,NA,NA,NA,NA,NA,NA,NA,NA,NA,NA,NA
"22","stim/objects/HouseObjects/rubbergloves2.png",65,43,65,0.3,"stim/43.jpeg",4,3,2,NA,"HouseObjects",2,4,"right","left",0.487999916,0,0,0,1,NA,NA,NA,NA,NA,NA,NA,NA,NA,NA,NA,NA,NA,NA,NA,NA,NA,NA,NA,NA,NA,NA,NA,NA
"162","stim/objects/Instruments/record2.png",66,43,66,0.7,"stim/43.jpeg",4,3,2,NA,"Instruments",1,3,"left","right",0.588999987,0,0,0,1,NA,NA,NA,NA,NA,NA,NA,NA,NA,NA,NA,NA,NA,NA,NA,NA,NA,NA,NA,NA,NA,NA,NA,NA
"120","stim/objects/HouseObjects/thread2.png",67,43,67,0.1,"stim/64.jpeg",6,4,3,NA,"HouseObjects",2,4,"right","left",0.519000053,0,0,0,1,NA,NA,NA,NA,NA,NA,NA,NA,NA,NA,NA,NA,NA,NA,NA,NA,NA,NA,NA,NA,NA,NA,NA,NA
"127","stim/objects/Instruments/panflute2.png",68,43,68,0.7,"stim/41.jpeg",4,1,2,NA,"Instruments",1,1,"left","left",0.578999996,1,1,0,1,NA,NA,NA,NA,NA,NA,NA,NA,NA,NA,NA,NA,NA,NA,NA,NA,NA,NA,NA,NA,NA,NA,NA,NA
"163","stim/objects/Instruments/record2.png",69,43,69,0.7,"stim/43.jpeg",4,3,2,NA,"Instruments",1,1,"left","left",0.628999949,1,1,0,1,NA,NA,NA,NA,NA,NA,NA,NA,NA,NA,NA,NA,NA,NA,NA,NA,NA,NA,NA,NA,NA,NA,NA,NA
"31","stim/objects/HouseObjects/rug2.png",70,43,70,0.3,"stim/44.jpeg",4,4,2,NA,"HouseObjects",2,1,"right","left",0.513000011,0,0,0,1,NA,NA,NA,NA,NA,NA,NA,NA,NA,NA,NA,NA,NA,NA,NA,NA,NA,NA,NA,NA,NA,NA,NA,NA
"230","stim/objects/Instruments/tuba.png",71,43,71,0.3,"stim/34.jpeg",3,4,2,NA,"Instruments",1,3,"left","right",0.763000011,0,0,0,1,NA,NA,NA,NA,NA,NA,NA,NA,NA,NA,NA,NA,NA,NA,NA,NA,NA,NA,NA,NA,NA,NA,NA,NA
"18","stim/objects/HouseObjects/rubbergloves.png",72,43,72,0.5,"stim/13.jpeg",1,3,1,NA,"HouseObjects",2,3,"right","",NA,0,0,0,1,NA,NA,NA,NA,NA,NA,NA,NA,NA,NA,NA,NA,NA,NA,NA,NA,NA,NA,NA,NA,NA,NA,NA,NA
"235","stim/objects/Instruments/tuba2.png",73,43,73,0.9,"stim/64.jpeg",6,4,3,NA,"Instruments",1,3,"left","left",0.529999971,1,1,0,1,NA,NA,NA,NA,NA,NA,NA,NA,NA,NA,NA,NA,NA,NA,NA,NA,NA,NA,NA,NA,NA,NA,NA,NA
"106","stim/objects/HouseObjects/thermometer.png",74,43,74,0.7,"stim/33.jpeg",3,3,2,NA,"HouseObjects",2,4,"right","right",0.430000067,1,1,0,1,NA,NA,NA,NA,NA,NA,NA,NA,NA,NA,NA,NA,NA,NA,NA,NA,NA,NA,NA,NA,NA,NA,NA,NA
"198","stim/objects/Instruments/triangle2.png",75,43,75,0.9,"stim/61.jpeg",6,1,3,NA,"Instruments",1,3,"left","left",0.476999998,1,1,0,1,NA,NA,NA,NA,NA,NA,NA,NA,NA,NA,NA,NA,NA,NA,NA,NA,NA,NA,NA,NA,NA,NA,NA,NA
"180","stim/objects/Instruments/speaker2.png",76,43,76,0.1,"stim/52.jpeg",5,2,3,NA,"Instruments",1,3,"left","right",0.42599988,0,0,0,1,NA,NA,NA,NA,NA,NA,NA,NA,NA,NA,NA,NA,NA,NA,NA,NA,NA,NA,NA,NA,NA,NA,NA,NA
"147","stim/objects/Instruments/record_player.png",77,43,77,0.5,"stim/14.jpeg",1,4,1,NA,"Instruments",1,3,"left","left",0.186000109,1,1,0,1,NA,NA,NA,NA,NA,NA,NA,NA,NA,NA,NA,NA,NA,NA,NA,NA,NA,NA,NA,NA,NA,NA,NA,NA
"67","stim/objects/HouseObjects/scale2.png",78,43,78,0.9,"stim/53.jpeg",5,3,3,NA,"HouseObjects",2,1,"right","right",0.231000185,1,1,0,1,NA,NA,NA,NA,NA,NA,NA,NA,NA,NA,NA,NA,NA,NA,NA,NA,NA,NA,NA,NA,NA,NA,NA,NA
"231","stim/objects/Instruments/tuba.png",79,43,79,0.3,"stim/34.jpeg",3,4,2,NA,"Instruments",1,3,"left","right",0.56099987,0,0,0,1,NA,NA,NA,NA,NA,NA,NA,NA,NA,NA,NA,NA,NA,NA,NA,NA,NA,NA,NA,NA,NA,NA,NA,NA
"128","stim/objects/Instruments/panflute2.png",80,43,80,0.7,"stim/41.jpeg",4,1,2,NA,"Instruments",1,1,"left","right",0.546000004,0,0,0,1,NA,NA,NA,NA,NA,NA,NA,NA,NA,NA,NA,NA,NA,NA,NA,NA,NA,NA,NA,NA,NA,NA,NA,NA
"199","stim/objects/Instruments/triangle2.png",81,43,81,0.9,"stim/61.jpeg",6,1,3,NA,"Instruments",1,4,"left","left",0.502000093,1,1,0,1,NA,NA,NA,NA,NA,NA,NA,NA,NA,NA,NA,NA,NA,NA,NA,NA,NA,NA,NA,NA,NA,NA,NA,NA
"220","stim/objects/Instruments/trumpet2.png",82,43,82,0.9,"stim/63.jpeg",6,3,3,NA,"Instruments",1,2,"left","left",0.608999968,1,1,0,1,NA,NA,NA,NA,NA,NA,NA,NA,NA,NA,NA,NA,NA,NA,NA,NA,NA,NA,NA,NA,NA,NA,NA,NA
"213","stim/objects/Instruments/trombone2.png",83,43,83,0.9,"stim/62.jpeg",6,2,3,NA,"Instruments",1,1,"left","left",0.703000069,1,1,0,1,NA,NA,NA,NA,NA,NA,NA,NA,NA,NA,NA,NA,NA,NA,NA,NA,NA,NA,NA,NA,NA,NA,NA,NA
"62","stim/objects/HouseObjects/scale.png",84,43,84,0.5,"stim/23.jpeg",2,3,1,NA,"HouseObjects",2,4,"right","left",0.515000105,0,0,0,1,NA,NA,NA,NA,NA,NA,NA,NA,NA,NA,NA,NA,NA,NA,NA,NA,NA,NA,NA,NA,NA,NA,NA,NA
"75","stim/objects/HouseObjects/sponge.png",85,43,85,0.5,"stim/24.jpeg",2,4,1,NA,"HouseObjects",2,1,"right","left",0.75,0,0,0,1,NA,NA,NA,NA,NA,NA,NA,NA,NA,NA,NA,NA,NA,NA,NA,NA,NA,NA,NA,NA,NA,NA,NA,NA
"206","stim/objects/Instruments/trombone.png",86,43,86,0.3,"stim/32.jpeg",3,2,2,NA,"Instruments",1,3,"left","right",0.899000168,0,0,0,1,NA,NA,NA,NA,NA,NA,NA,NA,NA,NA,NA,NA,NA,NA,NA,NA,NA,NA,NA,NA,NA,NA,NA,NA
"107","stim/objects/HouseObjects/thermometer.png",87,43,87,0.7,"stim/33.jpeg",3,3,2,NA,"HouseObjects",2,1,"right","right",0.568000078,1,1,0,1,NA,NA,NA,NA,NA,NA,NA,NA,NA,NA,NA,NA,NA,NA,NA,NA,NA,NA,NA,NA,NA,NA,NA,NA
"68","stim/objects/HouseObjects/scale2.png",88,43,88,0.9,"stim/53.jpeg",5,3,3,NA,"HouseObjects",2,2,"right","right",0.5,1,1,0,1,NA,NA,NA,NA,NA,NA,NA,NA,NA,NA,NA,NA,NA,NA,NA,NA,NA,NA,NA,NA,NA,NA,NA,NA
"15","stim/objects/HouseObjects/remote2.png",89,43,89,0.3,"stim/42.jpeg",4,2,2,NA,"HouseObjects",2,2,"right","right",0.379999876,1,1,0,1,NA,NA,NA,NA,NA,NA,NA,NA,NA,NA,NA,NA,NA,NA,NA,NA,NA,NA,NA,NA,NA,NA,NA,NA
"135","stim/objects/Instruments/pipepiano.png",90,43,90,0.5,"stim/12.jpeg",1,2,1,NA,"Instruments",1,2,"left","right",0.246999979,0,0,0,1,NA,NA,NA,NA,NA,NA,NA,NA,NA,NA,NA,NA,NA,NA,NA,NA,NA,NA,NA,NA,NA,NA,NA,NA
"44","stim/objects/HouseObjects/safetypin2.png",91,43,91,0.9,"stim/51.jpeg",5,1,3,NA,"HouseObjects",2,2,"right","right",0.536000013,1,1,0,1,NA,NA,NA,NA,NA,NA,NA,NA,NA,NA,NA,NA,NA,NA,NA,NA,NA,NA,NA,NA,NA,NA,NA,NA
"108","stim/objects/HouseObjects/thermometer.png",92,43,92,0.7,"stim/33.jpeg",3,3,2,NA,"HouseObjects",2,1,"right","right",0.477999926,1,1,0,1,NA,NA,NA,NA,NA,NA,NA,NA,NA,NA,NA,NA,NA,NA,NA,NA,NA,NA,NA,NA,NA,NA,NA,NA
"181","stim/objects/Instruments/tambourine.png",93,43,93,0.5,"stim/23.jpeg",2,3,1,NA,"Instruments",1,4,"left","left",0.588999987,1,1,0,1,NA,NA,NA,NA,NA,NA,NA,NA,NA,NA,NA,NA,NA,NA,NA,NA,NA,NA,NA,NA,NA,NA,NA,NA
"170","stim/objects/Instruments/saxophone.png",94,43,94,0.5,"stim/21.jpeg",2,1,1,NA,"Instruments",1,4,"left","left",0.536000013,1,1,0,1,NA,NA,NA,NA,NA,NA,NA,NA,NA,NA,NA,NA,NA,NA,NA,NA,NA,NA,NA,NA,NA,NA,NA,NA
"214","stim/objects/Instruments/trombone2.png",95,43,95,0.9,"stim/62.jpeg",6,2,3,NA,"Instruments",1,1,"left","left",0.91899991,1,1,0,1,NA,NA,NA,NA,NA,NA,NA,NA,NA,NA,NA,NA,NA,NA,NA,NA,NA,NA,NA,NA,NA,NA,NA,NA
"194","stim/objects/Instruments/triangle.png",96,43,96,0.3,"stim/31.jpeg",3,1,2,NA,"Instruments",1,2,"left","right",0.455999851,0,0,0,1,NA,NA,NA,NA,NA,NA,NA,NA,NA,NA,NA,NA,NA,NA,NA,NA,NA,NA,NA,NA,NA,NA,NA,NA
"117","stim/objects/HouseObjects/thread.png",97,43,97,0.7,"stim/34.jpeg",3,4,2,NA,"HouseObjects",2,4,"right","left",0.231999874,0,0,0,1,NA,NA,NA,NA,NA,NA,NA,NA,NA,NA,NA,NA,NA,NA,NA,NA,NA,NA,NA,NA,NA,NA,NA,NA
"19","stim/objects/HouseObjects/rubbergloves.png",98,43,98,0.5,"stim/13.jpeg",1,3,1,NA,"HouseObjects",2,4,"right","right",0.301999807,1,1,0,1,NA,NA,NA,NA,NA,NA,NA,NA,NA,NA,NA,NA,NA,NA,NA,NA,NA,NA,NA,NA,NA,NA,NA,NA
"100","stim/objects/HouseObjects/teapot.png",99,43,99,0.7,"stim/32.jpeg",3,2,2,NA,"HouseObjects",2,3,"right","left",0.460000038,0,0,0,1,NA,NA,NA,NA,NA,NA,NA,NA,NA,NA,NA,NA,NA,NA,NA,NA,NA,NA,NA,NA,NA,NA,NA,NA
"3","stim/objects/HouseObjects/recyclingbin.png",100,43,100,0.5,"stim/11.jpeg",1,1,1,NA,"HouseObjects",2,2,"right","right",0.25999999,1,1,0,1,NA,NA,NA,NA,NA,NA,NA,NA,NA,NA,NA,NA,NA,NA,NA,NA,NA,NA,NA,NA,NA,NA,NA,NA
"192","stim/objects/Instruments/timbal2.png",101,43,101,0.1,"stim/54.jpeg",5,4,3,NA,"Instruments",1,1,"left","right",0.608999968,0,0,0,1,NA,NA,NA,NA,NA,NA,NA,NA,NA,NA,NA,NA,NA,NA,NA,NA,NA,NA,NA,NA,NA,NA,NA,NA
"200","stim/objects/Instruments/triangle2.png",102,43,102,0.9,"stim/61.jpeg",6,1,3,NA,"Instruments",1,3,"left","left",0.532000065,1,1,0,1,NA,NA,NA,NA,NA,NA,NA,NA,NA,NA,NA,NA,NA,NA,NA,NA,NA,NA,NA,NA,NA,NA,NA,NA
"189","stim/objects/Instruments/timbal.png",103,43,103,0.5,"stim/24.jpeg",2,4,1,NA,"Instruments",1,4,"left","left",0.53399992,1,1,0,1,NA,NA,NA,NA,NA,NA,NA,NA,NA,NA,NA,NA,NA,NA,NA,NA,NA,NA,NA,NA,NA,NA,NA,NA
"221","stim/objects/Instruments/trumpet2.png",104,43,104,0.9,"stim/63.jpeg",6,3,3,NA,"Instruments",1,3,"left","left",0.531999826,1,1,0,1,NA,NA,NA,NA,NA,NA,NA,NA,NA,NA,NA,NA,NA,NA,NA,NA,NA,NA,NA,NA,NA,NA,NA,NA
"190","stim/objects/Instruments/timbal.png",105,43,105,0.5,"stim/24.jpeg",2,4,1,NA,"Instruments",1,3,"left","left",0.437999964,1,1,0,1,NA,NA,NA,NA,NA,NA,NA,NA,NA,NA,NA,NA,NA,NA,NA,NA,NA,NA,NA,NA,NA,NA,NA,NA
"148","stim/objects/Instruments/record_player.png",106,43,106,0.5,"stim/14.jpeg",1,4,1,NA,"Instruments",1,4,"left","",NA,0,0,0,1,NA,NA,NA,NA,NA,NA,NA,NA,NA,NA,NA,NA,NA,NA,NA,NA,NA,NA,NA,NA,NA,NA,NA,NA
"121","stim/objects/Instruments/panflute.png",107,43,107,0.5,"stim/11.jpeg",1,1,1,NA,"Instruments",1,1,"left","right",0.759000063,0,0,0,1,NA,NA,NA,NA,NA,NA,NA,NA,NA,NA,NA,NA,NA,NA,NA,NA,NA,NA,NA,NA,NA,NA,NA,NA
"83","stim/objects/HouseObjects/sponge2.png",108,43,108,0.9,"stim/54.jpeg",5,4,3,NA,"HouseObjects",2,1,"right","left",0.368000031,0,0,0,1,NA,NA,NA,NA,NA,NA,NA,NA,NA,NA,NA,NA,NA,NA,NA,NA,NA,NA,NA,NA,NA,NA,NA,NA
"76","stim/objects/HouseObjects/sponge.png",109,43,109,0.5,"stim/24.jpeg",2,4,1,NA,"HouseObjects",2,2,"right","left",0.427000046,0,0,0,1,NA,NA,NA,NA,NA,NA,NA,NA,NA,NA,NA,NA,NA,NA,NA,NA,NA,NA,NA,NA,NA,NA,NA,NA
"171","stim/objects/Instruments/saxophone.png",110,43,110,0.5,"stim/21.jpeg",2,1,1,NA,"Instruments",1,4,"left","left",0.567000151,1,1,0,1,NA,NA,NA,NA,NA,NA,NA,NA,NA,NA,NA,NA,NA,NA,NA,NA,NA,NA,NA,NA,NA,NA,NA,NA
"101","stim/objects/HouseObjects/teapot.png",111,43,111,0.7,"stim/32.jpeg",3,2,2,NA,"HouseObjects",2,1,"right","right",0.542000055,1,1,0,1,NA,NA,NA,NA,NA,NA,NA,NA,NA,NA,NA,NA,NA,NA,NA,NA,NA,NA,NA,NA,NA,NA,NA,NA
"182","stim/objects/Instruments/tambourine.png",112,43,112,0.5,"stim/23.jpeg",2,3,1,NA,"Instruments",1,1,"left","left",0.445000172,1,1,0,1,NA,NA,NA,NA,NA,NA,NA,NA,NA,NA,NA,NA,NA,NA,NA,NA,NA,NA,NA,NA,NA,NA,NA,NA
"222","stim/objects/Instruments/trumpet2.png",113,43,113,0.9,"stim/63.jpeg",6,3,3,NA,"Instruments",1,3,"left","left",0.511000156,1,1,0,1,NA,NA,NA,NA,NA,NA,NA,NA,NA,NA,NA,NA,NA,NA,NA,NA,NA,NA,NA,NA,NA,NA,NA,NA
"141","stim/objects/Instruments/pipepiano2.png",114,43,114,0.7,"stim/42.jpeg",4,2,2,NA,"Instruments",1,3,"left","left",0.527000189,1,1,0,1,NA,NA,NA,NA,NA,NA,NA,NA,NA,NA,NA,NA,NA,NA,NA,NA,NA,NA,NA,NA,NA,NA,NA,NA
"84","stim/objects/HouseObjects/sponge2.png",115,43,115,0.9,"stim/54.jpeg",5,4,3,NA,"HouseObjects",2,4,"right","right",0.672999859,1,1,0,1,NA,NA,NA,NA,NA,NA,NA,NA,NA,NA,NA,NA,NA,NA,NA,NA,NA,NA,NA,NA,NA,NA,NA,NA
"53","stim/objects/HouseObjects/saw2.png",116,43,116,0.9,"stim/52.jpeg",5,2,3,NA,"HouseObjects",2,4,"right","right",0.52699995,1,1,0,1,NA,NA,NA,NA,NA,NA,NA,NA,NA,NA,NA,NA,NA,NA,NA,NA,NA,NA,NA,NA,NA,NA,NA,NA
"54","stim/objects/HouseObjects/saw2.png",117,43,117,0.9,"stim/52.jpeg",5,2,3,NA,"HouseObjects",2,2,"right","right",0.444000006,1,1,0,1,NA,NA,NA,NA,NA,NA,NA,NA,NA,NA,NA,NA,NA,NA,NA,NA,NA,NA,NA,NA,NA,NA,NA,NA
"129","stim/objects/Instruments/panflute2.png",118,43,118,0.7,"stim/41.jpeg",4,1,2,NA,"Instruments",1,2,"left","left",0.427999973,1,1,0,1,NA,NA,NA,NA,NA,NA,NA,NA,NA,NA,NA,NA,NA,NA,NA,NA,NA,NA,NA,NA,NA,NA,NA,NA
"63","stim/objects/HouseObjects/scale.png",119,43,119,0.5,"stim/23.jpeg",2,3,1,NA,"HouseObjects",2,2,"right","left",0.619000196,0,0,0,1,NA,NA,NA,NA,NA,NA,NA,NA,NA,NA,NA,NA,NA,NA,NA,NA,NA,NA,NA,NA,NA,NA,NA,NA
"45","stim/objects/HouseObjects/safetypin2.png",120,43,120,0.9,"stim/51.jpeg",5,1,3,NA,"HouseObjects",2,3,"right","right",0.51699996,1,1,0,1,NA,NA,NA,NA,NA,NA,NA,NA,NA,NA,NA,NA,NA,NA,NA,NA,NA,NA,NA,NA,NA,NA,NA,NA
"201","stim/objects/Instruments/triangle2.png",121,43,121,0.9,"stim/61.jpeg",6,1,3,NA,"Instruments",1,4,"left","left",0.539999962,1,1,0,1,NA,NA,NA,NA,NA,NA,NA,NA,NA,NA,NA,NA,NA,NA,NA,NA,NA,NA,NA,NA,NA,NA,NA,NA
"4","stim/objects/HouseObjects/recyclingbin.png",122,43,122,0.5,"stim/11.jpeg",1,1,1,NA,"HouseObjects",2,3,"right","right",0.411000013,1,1,0,1,NA,NA,NA,NA,NA,NA,NA,NA,NA,NA,NA,NA,NA,NA,NA,NA,NA,NA,NA,NA,NA,NA,NA,NA
"118","stim/objects/HouseObjects/thread.png",123,43,123,0.7,"stim/34.jpeg",3,4,2,NA,"HouseObjects",2,2,"right","left",0.262000084,0,0,0,1,NA,NA,NA,NA,NA,NA,NA,NA,NA,NA,NA,NA,NA,NA,NA,NA,NA,NA,NA,NA,NA,NA,NA,NA
"11","stim/objects/HouseObjects/remote.png",124,43,124,0.5,"stim/12.jpeg",1,2,1,NA,"HouseObjects",2,3,"right","right",0.441999912,1,1,0,1,NA,NA,NA,NA,NA,NA,NA,NA,NA,NA,NA,NA,NA,NA,NA,NA,NA,NA,NA,NA,NA,NA,NA,NA
"112","stim/objects/HouseObjects/thermometer2.png",125,43,125,0.1,"stim/63.jpeg",6,3,3,NA,"HouseObjects",2,4,"right","left",0.158000231,0,0,0,1,NA,NA,NA,NA,NA,NA,NA,NA,NA,NA,NA,NA,NA,NA,NA,NA,NA,NA,NA,NA,NA,NA,NA,NA
"175","stim/objects/Instruments/speaker.png",126,43,126,0.5,"stim/22.jpeg",2,2,1,NA,"Instruments",1,4,"left","right",0.219000101,0,0,0,1,NA,NA,NA,NA,NA,NA,NA,NA,NA,NA,NA,NA,NA,NA,NA,NA,NA,NA,NA,NA,NA,NA,NA,NA
"159","stim/objects/Instruments/record.png",127,43,127,0.5,"stim/13.jpeg",1,3,1,NA,"Instruments",1,2,"left","left",0.163000107,1,1,0,1,NA,NA,NA,NA,NA,NA,NA,NA,NA,NA,NA,NA,NA,NA,NA,NA,NA,NA,NA,NA,NA,NA,NA,NA
"5","stim/objects/HouseObjects/recyclingbin.png",128,43,128,0.5,"stim/11.jpeg",1,1,1,NA,"HouseObjects",2,1,"right","right",0.359999895,1,1,0,1,NA,NA,NA,NA,NA,NA,NA,NA,NA,NA,NA,NA,NA,NA,NA,NA,NA,NA,NA,NA,NA,NA,NA,NA
"142","stim/objects/Instruments/pipepiano2.png",129,43,129,0.7,"stim/42.jpeg",4,2,2,NA,"Instruments",1,1,"left","left",0.5849998,1,1,0,1,NA,NA,NA,NA,NA,NA,NA,NA,NA,NA,NA,NA,NA,NA,NA,NA,NA,NA,NA,NA,NA,NA,NA,NA
"69","stim/objects/HouseObjects/scale2.png",130,43,130,0.9,"stim/53.jpeg",5,3,3,NA,"HouseObjects",2,1,"right","right",0.463999987,1,1,0,1,NA,NA,NA,NA,NA,NA,NA,NA,NA,NA,NA,NA,NA,NA,NA,NA,NA,NA,NA,NA,NA,NA,NA,NA
"136","stim/objects/Instruments/pipepiano.png",131,43,131,0.5,"stim/12.jpeg",1,2,1,NA,"Instruments",1,4,"left","left",0.558000088,1,1,0,1,NA,NA,NA,NA,NA,NA,NA,NA,NA,NA,NA,NA,NA,NA,NA,NA,NA,NA,NA,NA,NA,NA,NA,NA
"8","stim/objects/HouseObjects/recyclingbin2.png",132,43,132,0.3,"stim/41.jpeg",4,1,2,NA,"HouseObjects",2,4,"right","left",0.57799983,0,0,0,1,NA,NA,NA,NA,NA,NA,NA,NA,NA,NA,NA,NA,NA,NA,NA,NA,NA,NA,NA,NA,NA,NA,NA,NA
"47","stim/objects/HouseObjects/saw.png",133,43,133,0.5,"stim/22.jpeg",2,2,1,NA,"HouseObjects",2,3,"right","right",0.517000198,1,1,0,1,NA,NA,NA,NA,NA,NA,NA,NA,NA,NA,NA,NA,NA,NA,NA,NA,NA,NA,NA,NA,NA,NA,NA,NA
"152","stim/objects/Instruments/record_player2.png",134,43,134,0.7,"stim/44.jpeg",4,4,2,NA,"Instruments",1,1,"left","left",0.524999857,1,1,0,1,NA,NA,NA,NA,NA,NA,NA,NA,NA,NA,NA,NA,NA,NA,NA,NA,NA,NA,NA,NA,NA,NA,NA,NA
"20","stim/objects/HouseObjects/rubbergloves.png",135,43,135,0.5,"stim/13.jpeg",1,3,1,NA,"HouseObjects",2,3,"right","right",0.497999907,1,1,0,1,NA,NA,NA,NA,NA,NA,NA,NA,NA,NA,NA,NA,NA,NA,NA,NA,NA,NA,NA,NA,NA,NA,NA,NA
"176","stim/objects/Instruments/speaker.png",136,43,136,0.5,"stim/22.jpeg",2,2,1,NA,"Instruments",1,1,"left","",NA,0,0,0,1,NA,NA,NA,NA,NA,NA,NA,NA,NA,NA,NA,NA,NA,NA,NA,NA,NA,NA,NA,NA,NA,NA,NA,NA
"223","stim/objects/Instruments/trumpet2.png",137,43,137,0.9,"stim/63.jpeg",6,3,3,NA,"Instruments",1,1,"left","left",0.461000204,1,1,0,1,NA,NA,NA,NA,NA,NA,NA,NA,NA,NA,NA,NA,NA,NA,NA,NA,NA,NA,NA,NA,NA,NA,NA,NA
"55","stim/objects/HouseObjects/saw2.png",138,43,138,0.9,"stim/52.jpeg",5,2,3,NA,"HouseObjects",2,2,"right","right",0.527999878,1,1,0,1,NA,NA,NA,NA,NA,NA,NA,NA,NA,NA,NA,NA,NA,NA,NA,NA,NA,NA,NA,NA,NA,NA,NA,NA
"183","stim/objects/Instruments/tambourine.png",139,43,139,0.5,"stim/23.jpeg",2,3,1,NA,"Instruments",1,4,"left","left",0.546000004,1,1,0,1,NA,NA,NA,NA,NA,NA,NA,NA,NA,NA,NA,NA,NA,NA,NA,NA,NA,NA,NA,NA,NA,NA,NA,NA
"153","stim/objects/Instruments/record_player2.png",140,43,140,0.7,"stim/44.jpeg",4,4,2,NA,"Instruments",1,4,"left","right",0.619999886,0,0,0,1,NA,NA,NA,NA,NA,NA,NA,NA,NA,NA,NA,NA,NA,NA,NA,NA,NA,NA,NA,NA,NA,NA,NA,NA
"28","stim/objects/HouseObjects/rug.png",141,43,141,0.5,"stim/14.jpeg",1,4,1,NA,"HouseObjects",2,4,"right","right",0.499000072,1,1,0,1,NA,NA,NA,NA,NA,NA,NA,NA,NA,NA,NA,NA,NA,NA,NA,NA,NA,NA,NA,NA,NA,NA,NA,NA
"64","stim/objects/HouseObjects/scale.png",142,43,142,0.5,"stim/23.jpeg",2,3,1,NA,"HouseObjects",2,1,"right","left",0.536999941,0,0,0,1,NA,NA,NA,NA,NA,NA,NA,NA,NA,NA,NA,NA,NA,NA,NA,NA,NA,NA,NA,NA,NA,NA,NA,NA
"191","stim/objects/Instruments/timbal.png",143,43,143,0.5,"stim/24.jpeg",2,4,1,NA,"Instruments",1,1,"left","left",0.535000086,1,1,0,1,NA,NA,NA,NA,NA,NA,NA,NA,NA,NA,NA,NA,NA,NA,NA,NA,NA,NA,NA,NA,NA,NA,NA,NA
"236","stim/objects/Instruments/tuba2.png",144,43,144,0.9,"stim/64.jpeg",6,4,3,NA,"Instruments",1,1,"left","left",0.566999912,1,1,0,1,NA,NA,NA,NA,NA,NA,NA,NA,NA,NA,NA,NA,NA,NA,NA,NA,NA,NA,NA,NA,NA,NA,NA,NA
"33","stim/objects/HouseObjects/safetypin.png",145,43,145,0.5,"stim/21.jpeg",2,1,1,NA,"HouseObjects",2,3,"right","left",0.695000172,0,0,0,1,NA,NA,NA,NA,NA,NA,NA,NA,NA,NA,NA,NA,NA,NA,NA,NA,NA,NA,NA,NA,NA,NA,NA,NA
"77","stim/objects/HouseObjects/sponge.png",146,43,146,0.5,"stim/24.jpeg",2,4,1,NA,"HouseObjects",2,2,"right","left",0.414000034,0,0,0,1,NA,NA,NA,NA,NA,NA,NA,NA,NA,NA,NA,NA,NA,NA,NA,NA,NA,NA,NA,NA,NA,NA,NA,NA
"78","stim/objects/HouseObjects/sponge.png",147,43,147,0.5,"stim/24.jpeg",2,4,1,NA,"HouseObjects",2,2,"right","right",0.495000124,1,1,0,1,NA,NA,NA,NA,NA,NA,NA,NA,NA,NA,NA,NA,NA,NA,NA,NA,NA,NA,NA,NA,NA,NA,NA,NA
"21","stim/objects/HouseObjects/rubbergloves.png",148,43,148,0.5,"stim/13.jpeg",1,3,1,NA,"HouseObjects",2,1,"right","right",0.753000021,1,1,0,1,NA,NA,NA,NA,NA,NA,NA,NA,NA,NA,NA,NA,NA,NA,NA,NA,NA,NA,NA,NA,NA,NA,NA,NA
"184","stim/objects/Instruments/tambourine.png",149,43,149,0.5,"stim/23.jpeg",2,3,1,NA,"Instruments",1,3,"left","right",0.379999876,0,0,0,1,NA,NA,NA,NA,NA,NA,NA,NA,NA,NA,NA,NA,NA,NA,NA,NA,NA,NA,NA,NA,NA,NA,NA,NA
"70","stim/objects/HouseObjects/scale2.png",150,43,150,0.9,"stim/53.jpeg",5,3,3,NA,"HouseObjects",2,3,"right","right",0.677000046,1,1,0,1,NA,NA,NA,NA,NA,NA,NA,NA,NA,NA,NA,NA,NA,NA,NA,NA,NA,NA,NA,NA,NA,NA,NA,NA
"34","stim/objects/HouseObjects/safetypin.png",151,43,151,0.5,"stim/21.jpeg",2,1,1,NA,"HouseObjects",2,4,"right","left",0.493000031,0,0,0,1,NA,NA,NA,NA,NA,NA,NA,NA,NA,NA,NA,NA,NA,NA,NA,NA,NA,NA,NA,NA,NA,NA,NA,NA
"186","stim/objects/Instruments/tambourine2.png",152,43,152,0.1,"stim/53.jpeg",5,3,3,NA,"Instruments",1,4,"left","right",0.413999796,0,0,0,1,NA,NA,NA,NA,NA,NA,NA,NA,NA,NA,NA,NA,NA,NA,NA,NA,NA,NA,NA,NA,NA,NA,NA,NA
"154","stim/objects/Instruments/record_player2.png",153,43,153,0.7,"stim/44.jpeg",4,4,2,NA,"Instruments",1,1,"left","left",0.463999987,1,1,0,1,NA,NA,NA,NA,NA,NA,NA,NA,NA,NA,NA,NA,NA,NA,NA,NA,NA,NA,NA,NA,NA,NA,NA,NA
"56","stim/objects/HouseObjects/saw2.png",154,43,154,0.9,"stim/52.jpeg",5,2,3,NA,"HouseObjects",2,3,"right","right",0.450000048,1,1,0,1,NA,NA,NA,NA,NA,NA,NA,NA,NA,NA,NA,NA,NA,NA,NA,NA,NA,NA,NA,NA,NA,NA,NA,NA
"237","stim/objects/Instruments/tuba2.png",155,43,155,0.9,"stim/64.jpeg",6,4,3,NA,"Instruments",1,3,"left","left",0.40199995,1,1,0,1,NA,NA,NA,NA,NA,NA,NA,NA,NA,NA,NA,NA,NA,NA,NA,NA,NA,NA,NA,NA,NA,NA,NA,NA
"172","stim/objects/Instruments/saxophone.png",156,43,156,0.5,"stim/21.jpeg",2,1,1,NA,"Instruments",1,3,"left","right",0.411000013,0,0,0,1,NA,NA,NA,NA,NA,NA,NA,NA,NA,NA,NA,NA,NA,NA,NA,NA,NA,NA,NA,NA,NA,NA,NA,NA
"238","stim/objects/Instruments/tuba2.png",157,43,157,0.9,"stim/64.jpeg",6,4,3,NA,"Instruments",1,3,"left","left",0.397000074,1,1,0,1,NA,NA,NA,NA,NA,NA,NA,NA,NA,NA,NA,NA,NA,NA,NA,NA,NA,NA,NA,NA,NA,NA,NA,NA
"46","stim/objects/HouseObjects/safetypin2.png",158,43,158,0.9,"stim/51.jpeg",5,1,3,NA,"HouseObjects",2,4,"right","right",0.335000038,1,1,0,1,NA,NA,NA,NA,NA,NA,NA,NA,NA,NA,NA,NA,NA,NA,NA,NA,NA,NA,NA,NA,NA,NA,NA,NA
"202","stim/objects/Instruments/triangle2.png",159,43,159,0.9,"stim/61.jpeg",6,1,3,NA,"Instruments",1,2,"left","left",0.434000015,1,1,0,1,NA,NA,NA,NA,NA,NA,NA,NA,NA,NA,NA,NA,NA,NA,NA,NA,NA,NA,NA,NA,NA,NA,NA,NA
"177","stim/objects/Instruments/speaker.png",160,43,160,0.5,"stim/22.jpeg",2,2,1,NA,"Instruments",1,4,"left","left",0.562000036,1,1,0,1,NA,NA,NA,NA,NA,NA,NA,NA,NA,NA,NA,NA,NA,NA,NA,NA,NA,NA,NA,NA,NA,NA,NA,NA
"224","stim/objects/Instruments/trumpet2.png",161,43,161,0.9,"stim/63.jpeg",6,3,3,NA,"Instruments",1,3,"left","right",0.375999928,0,0,0,1,NA,NA,NA,NA,NA,NA,NA,NA,NA,NA,NA,NA,NA,NA,NA,NA,NA,NA,NA,NA,NA,NA,NA,NA
"160","stim/objects/Instruments/record.png",162,43,162,0.5,"stim/13.jpeg",1,3,1,NA,"Instruments",1,3,"left","right",0.444000006,0,0,0,1,NA,NA,NA,NA,NA,NA,NA,NA,NA,NA,NA,NA,NA,NA,NA,NA,NA,NA,NA,NA,NA,NA,NA,NA
"48","stim/objects/HouseObjects/saw.png",163,43,163,0.5,"stim/22.jpeg",2,2,1,NA,"HouseObjects",2,2,"right","left",0.28399992,0,0,0,1,NA,NA,NA,NA,NA,NA,NA,NA,NA,NA,NA,NA,NA,NA,NA,NA,NA,NA,NA,NA,NA,NA,NA,NA
"239","stim/objects/Instruments/tuba2.png",164,43,164,0.9,"stim/64.jpeg",6,4,3,NA,"Instruments",1,4,"left","right",0.417000055,0,0,0,1,NA,NA,NA,NA,NA,NA,NA,NA,NA,NA,NA,NA,NA,NA,NA,NA,NA,NA,NA,NA,NA,NA,NA,NA
"49","stim/objects/HouseObjects/saw.png",165,43,165,0.5,"stim/22.jpeg",2,2,1,NA,"HouseObjects",2,1,"right","left",0.437000036,0,0,0,1,NA,NA,NA,NA,NA,NA,NA,NA,NA,NA,NA,NA,NA,NA,NA,NA,NA,NA,NA,NA,NA,NA,NA,NA
"71","stim/objects/HouseObjects/scale2.png",166,43,166,0.9,"stim/53.jpeg",5,3,3,NA,"HouseObjects",2,2,"right","right",0.501000166,1,1,0,1,NA,NA,NA,NA,NA,NA,NA,NA,NA,NA,NA,NA,NA,NA,NA,NA,NA,NA,NA,NA,NA,NA,NA,NA
"57","stim/objects/HouseObjects/saw2.png",167,43,167,0.9,"stim/52.jpeg",5,2,3,NA,"HouseObjects",2,1,"right","right",0.67599988,1,1,0,1,NA,NA,NA,NA,NA,NA,NA,NA,NA,NA,NA,NA,NA,NA,NA,NA,NA,NA,NA,NA,NA,NA,NA,NA
"195","stim/objects/Instruments/triangle.png",168,43,168,0.3,"stim/31.jpeg",3,1,2,NA,"Instruments",1,3,"left","left",0.40199995,1,1,0,1,NA,NA,NA,NA,NA,NA,NA,NA,NA,NA,NA,NA,NA,NA,NA,NA,NA,NA,NA,NA,NA,NA,NA,NA
"35","stim/objects/HouseObjects/safetypin.png",169,43,169,0.5,"stim/21.jpeg",2,1,1,NA,"HouseObjects",2,4,"right","left",0.527999878,0,0,0,1,NA,NA,NA,NA,NA,NA,NA,NA,NA,NA,NA,NA,NA,NA,NA,NA,NA,NA,NA,NA,NA,NA,NA,NA
"12","stim/objects/HouseObjects/remote.png",170,43,170,0.5,"stim/12.jpeg",1,2,1,NA,"HouseObjects",2,2,"right","right",0.530999899,1,1,0,1,NA,NA,NA,NA,NA,NA,NA,NA,NA,NA,NA,NA,NA,NA,NA,NA,NA,NA,NA,NA,NA,NA,NA,NA
"36","stim/objects/HouseObjects/safetypin.png",171,43,171,0.5,"stim/21.jpeg",2,1,1,NA,"HouseObjects",2,3,"right","right",0.421000004,1,1,0,1,NA,NA,NA,NA,NA,NA,NA,NA,NA,NA,NA,NA,NA,NA,NA,NA,NA,NA,NA,NA,NA,NA,NA,NA
"13","stim/objects/HouseObjects/remote.png",172,43,172,0.5,"stim/12.jpeg",1,2,1,NA,"HouseObjects",2,1,"right","left",0.40199995,0,0,0,1,NA,NA,NA,NA,NA,NA,NA,NA,NA,NA,NA,NA,NA,NA,NA,NA,NA,NA,NA,NA,NA,NA,NA,NA
"96","stim/objects/HouseObjects/spraybottle2.png",173,43,173,0.1,"stim/61.jpeg",6,1,3,NA,"HouseObjects",2,2,"right","right",0.348999977,1,1,0,1,NA,NA,NA,NA,NA,NA,NA,NA,NA,NA,NA,NA,NA,NA,NA,NA,NA,NA,NA,NA,NA,NA,NA,NA
"92","stim/objects/HouseObjects/spraybottle.png",174,43,174,0.7,"stim/31.jpeg",3,1,2,NA,"HouseObjects",2,4,"right","left",0.434999943,0,0,0,1,NA,NA,NA,NA,NA,NA,NA,NA,NA,NA,NA,NA,NA,NA,NA,NA,NA,NA,NA,NA,NA,NA,NA,NA
"16","stim/objects/HouseObjects/remote2.png",175,43,175,0.3,"stim/42.jpeg",4,2,2,NA,"HouseObjects",2,2,"right","left",0.323000193,0,0,0,1,NA,NA,NA,NA,NA,NA,NA,NA,NA,NA,NA,NA,NA,NA,NA,NA,NA,NA,NA,NA,NA,NA,NA,NA
"122","stim/objects/Instruments/panflute.png",176,43,176,0.5,"stim/11.jpeg",1,1,1,NA,"Instruments",1,1,"left","left",0.153000116,1,1,0,1,NA,NA,NA,NA,NA,NA,NA,NA,NA,NA,NA,NA,NA,NA,NA,NA,NA,NA,NA,NA,NA,NA,NA,NA
"104","stim/objects/HouseObjects/teapot2.png",177,43,177,0.1,"stim/62.jpeg",6,2,3,NA,"HouseObjects",2,1,"right","left",0.146999836,0,0,0,1,NA,NA,NA,NA,NA,NA,NA,NA,NA,NA,NA,NA,NA,NA,NA,NA,NA,NA,NA,NA,NA,NA,NA,NA
"50","stim/objects/HouseObjects/saw.png",178,43,178,0.5,"stim/22.jpeg",2,2,1,NA,"HouseObjects",2,1,"right","left",0.112999916,0,0,0,1,NA,NA,NA,NA,NA,NA,NA,NA,NA,NA,NA,NA,NA,NA,NA,NA,NA,NA,NA,NA,NA,NA,NA,NA
"164","stim/objects/Instruments/record2.png",179,43,179,0.7,"stim/43.jpeg",4,3,2,NA,"Instruments",1,1,"left","left",0.109999895,1,1,0,1,NA,NA,NA,NA,NA,NA,NA,NA,NA,NA,NA,NA,NA,NA,NA,NA,NA,NA,NA,NA,NA,NA,NA,NA
"119","stim/objects/HouseObjects/thread.png",180,43,180,0.7,"stim/34.jpeg",3,4,2,NA,"HouseObjects",2,4,"right","left",0.315999985,0,0,0,1,NA,NA,NA,NA,NA,NA,NA,NA,NA,NA,NA,NA,NA,NA,NA,NA,NA,NA,NA,NA,NA,NA,NA,NA
"72","stim/objects/HouseObjects/scale2.png",181,43,181,0.9,"stim/53.jpeg",5,3,3,NA,"HouseObjects",2,2,"right","right",0.163000107,1,1,0,1,NA,NA,NA,NA,NA,NA,NA,NA,NA,NA,NA,NA,NA,NA,NA,NA,NA,NA,NA,NA,NA,NA,NA,NA
"109","stim/objects/HouseObjects/thermometer.png",182,43,182,0.7,"stim/33.jpeg",3,3,2,NA,"HouseObjects",2,4,"right","left",0.131000042,0,0,0,1,NA,NA,NA,NA,NA,NA,NA,NA,NA,NA,NA,NA,NA,NA,NA,NA,NA,NA,NA,NA,NA,NA,NA,NA
"240","stim/objects/Instruments/tuba2.png",183,43,183,0.9,"stim/64.jpeg",6,4,3,NA,"Instruments",1,2,"left","right",0.346000195,0,0,0,1,NA,NA,NA,NA,NA,NA,NA,NA,NA,NA,NA,NA,NA,NA,NA,NA,NA,NA,NA,NA,NA,NA,NA,NA
"51","stim/objects/HouseObjects/saw.png",184,43,184,0.5,"stim/22.jpeg",2,2,1,NA,"HouseObjects",2,1,"right","left",0.319999933,0,0,0,1,NA,NA,NA,NA,NA,NA,NA,NA,NA,NA,NA,NA,NA,NA,NA,NA,NA,NA,NA,NA,NA,NA,NA,NA
"32","stim/objects/HouseObjects/rug2.png",185,43,185,0.3,"stim/44.jpeg",4,4,2,NA,"HouseObjects",2,4,"right","left",0.621000051,0,0,0,1,NA,NA,NA,NA,NA,NA,NA,NA,NA,NA,NA,NA,NA,NA,NA,NA,NA,NA,NA,NA,NA,NA,NA,NA
"58","stim/objects/HouseObjects/saw2.png",186,43,186,0.9,"stim/52.jpeg",5,2,3,NA,"HouseObjects",2,3,"right","right",0.519999981,1,1,0,1,NA,NA,NA,NA,NA,NA,NA,NA,NA,NA,NA,NA,NA,NA,NA,NA,NA,NA,NA,NA,NA,NA,NA,NA
"173","stim/objects/Instruments/saxophone.png",187,43,187,0.5,"stim/21.jpeg",2,1,1,NA,"Instruments",1,2,"left","left",0.458999872,1,1,0,1,NA,NA,NA,NA,NA,NA,NA,NA,NA,NA,NA,NA,NA,NA,NA,NA,NA,NA,NA,NA,NA,NA,NA,NA
"130","stim/objects/Instruments/panflute2.png",188,43,188,0.7,"stim/41.jpeg",4,1,2,NA,"Instruments",1,1,"left","left",0.411000013,1,1,0,1,NA,NA,NA,NA,NA,NA,NA,NA,NA,NA,NA,NA,NA,NA,NA,NA,NA,NA,NA,NA,NA,NA,NA,NA
"110","stim/objects/HouseObjects/thermometer.png",189,43,189,0.7,"stim/33.jpeg",3,3,2,NA,"HouseObjects",2,2,"right","right",0.551000118,1,1,0,1,NA,NA,NA,NA,NA,NA,NA,NA,NA,NA,NA,NA,NA,NA,NA,NA,NA,NA,NA,NA,NA,NA,NA,NA
"143","stim/objects/Instruments/pipepiano2.png",190,43,190,0.7,"stim/42.jpeg",4,2,2,NA,"Instruments",1,3,"left","left",0.470000029,1,1,0,1,NA,NA,NA,NA,NA,NA,NA,NA,NA,NA,NA,NA,NA,NA,NA,NA,NA,NA,NA,NA,NA,NA,NA,NA
"218","stim/objects/Instruments/trumpet.png",191,43,191,0.3,"stim/33.jpeg",3,3,2,NA,"Instruments",1,1,"left","left",0.379999876,1,1,0,1,NA,NA,NA,NA,NA,NA,NA,NA,NA,NA,NA,NA,NA,NA,NA,NA,NA,NA,NA,NA,NA,NA,NA,NA
"219","stim/objects/Instruments/trumpet.png",192,43,192,0.3,"stim/33.jpeg",3,3,2,NA,"Instruments",1,3,"left","left",0.398999929,1,1,0,1,NA,NA,NA,NA,NA,NA,NA,NA,NA,NA,NA,NA,NA,NA,NA,NA,NA,NA,NA,NA,NA,NA,NA,NA
"73","stim/objects/HouseObjects/scale2.png",193,43,193,0.9,"stim/53.jpeg",5,3,3,NA,"HouseObjects",2,2,"right","left",0.197000027,0,0,0,1,NA,NA,NA,NA,NA,NA,NA,NA,NA,NA,NA,NA,NA,NA,NA,NA,NA,NA,NA,NA,NA,NA,NA,NA
"178","stim/objects/Instruments/speaker.png",194,43,194,0.5,"stim/22.jpeg",2,2,1,NA,"Instruments",1,1,"left","right",0.361000061,0,0,0,1,NA,NA,NA,NA,NA,NA,NA,NA,NA,NA,NA,NA,NA,NA,NA,NA,NA,NA,NA,NA,NA,NA,NA,NA
"85","stim/objects/HouseObjects/sponge2.png",195,43,195,0.9,"stim/54.jpeg",5,4,3,NA,"HouseObjects",2,4,"right","left",0.140000105,0,0,0,1,NA,NA,NA,NA,NA,NA,NA,NA,NA,NA,NA,NA,NA,NA,NA,NA,NA,NA,NA,NA,NA,NA,NA,NA
"225","stim/objects/Instruments/trumpet2.png",196,43,196,0.9,"stim/63.jpeg",6,3,3,NA,"Instruments",1,2,"left","left",0.576999903,1,1,0,1,NA,NA,NA,NA,NA,NA,NA,NA,NA,NA,NA,NA,NA,NA,NA,NA,NA,NA,NA,NA,NA,NA,NA,NA
"226","stim/objects/Instruments/trumpet2.png",197,43,197,0.9,"stim/63.jpeg",6,3,3,NA,"Instruments",1,3,"left","left",0.56400013,1,1,0,1,NA,NA,NA,NA,NA,NA,NA,NA,NA,NA,NA,NA,NA,NA,NA,NA,NA,NA,NA,NA,NA,NA,NA,NA
"155","stim/objects/Instruments/record_player2.png",198,43,198,0.7,"stim/44.jpeg",4,4,2,NA,"Instruments",1,3,"left","left",0.41899991,1,1,0,1,NA,NA,NA,NA,NA,NA,NA,NA,NA,NA,NA,NA,NA,NA,NA,NA,NA,NA,NA,NA,NA,NA,NA,NA
"123","stim/objects/Instruments/panflute.png",199,43,199,0.5,"stim/11.jpeg",1,1,1,NA,"Instruments",1,2,"left","right",0.621000051,0,0,0,1,NA,NA,NA,NA,NA,NA,NA,NA,NA,NA,NA,NA,NA,NA,NA,NA,NA,NA,NA,NA,NA,NA,NA,NA
"207","stim/objects/Instruments/trombone.png",200,43,200,0.3,"stim/32.jpeg",3,2,2,NA,"Instruments",1,2,"left","left",0.117000103,1,1,0,1,NA,NA,NA,NA,NA,NA,NA,NA,NA,NA,NA,NA,NA,NA,NA,NA,NA,NA,NA,NA,NA,NA,NA,NA
"86","stim/objects/HouseObjects/sponge2.png",201,43,201,0.9,"stim/54.jpeg",5,4,3,NA,"HouseObjects",2,1,"right","left",0.394999981,0,0,0,1,NA,NA,NA,NA,NA,NA,NA,NA,NA,NA,NA,NA,NA,NA,NA,NA,NA,NA,NA,NA,NA,NA,NA,NA
"59","stim/objects/HouseObjects/saw2.png",202,43,202,0.9,"stim/52.jpeg",5,2,3,NA,"HouseObjects",2,4,"right","right",0.611999989,1,1,0,1,NA,NA,NA,NA,NA,NA,NA,NA,NA,NA,NA,NA,NA,NA,NA,NA,NA,NA,NA,NA,NA,NA,NA,NA
"149","stim/objects/Instruments/record_player.png",203,43,203,0.5,"stim/14.jpeg",1,4,1,NA,"Instruments",1,4,"left","left",0.641000032,1,1,0,1,NA,NA,NA,NA,NA,NA,NA,NA,NA,NA,NA,NA,NA,NA,NA,NA,NA,NA,NA,NA,NA,NA,NA,NA
"144","stim/objects/Instruments/pipepiano2.png",204,43,204,0.7,"stim/42.jpeg",4,2,2,NA,"Instruments",1,1,"left","left",0.582000017,1,1,0,1,NA,NA,NA,NA,NA,NA,NA,NA,NA,NA,NA,NA,NA,NA,NA,NA,NA,NA,NA,NA,NA,NA,NA,NA
"65","stim/objects/HouseObjects/scale.png",205,43,205,0.5,"stim/23.jpeg",2,3,1,NA,"HouseObjects",2,4,"right","left",0.582999945,0,0,0,1,NA,NA,NA,NA,NA,NA,NA,NA,NA,NA,NA,NA,NA,NA,NA,NA,NA,NA,NA,NA,NA,NA,NA,NA
"185","stim/objects/Instruments/tambourine.png",206,43,206,0.5,"stim/23.jpeg",2,3,1,NA,"Instruments",1,4,"left","left",0.578999996,1,1,0,1,NA,NA,NA,NA,NA,NA,NA,NA,NA,NA,NA,NA,NA,NA,NA,NA,NA,NA,NA,NA,NA,NA,NA,NA
"29","stim/objects/HouseObjects/rug.png",207,43,207,0.5,"stim/14.jpeg",1,4,1,NA,"HouseObjects",2,3,"right","left",0.661000013,0,0,0,1,NA,NA,NA,NA,NA,NA,NA,NA,NA,NA,NA,NA,NA,NA,NA,NA,NA,NA,NA,NA,NA,NA,NA,NA
"179","stim/objects/Instruments/speaker.png",208,43,208,0.5,"stim/22.jpeg",2,2,1,NA,"Instruments",1,3,"left","left",0.446000099,1,1,0,1,NA,NA,NA,NA,NA,NA,NA,NA,NA,NA,NA,NA,NA,NA,NA,NA,NA,NA,NA,NA,NA,NA,NA,NA
"174","stim/objects/Instruments/saxophone2.png",209,43,209,0.1,"stim/51.jpeg",5,1,3,NA,"Instruments",1,4,"left","right",0.69299984,0,0,0,1,NA,NA,NA,NA,NA,NA,NA,NA,NA,NA,NA,NA,NA,NA,NA,NA,NA,NA,NA,NA,NA,NA,NA,NA
"203","stim/objects/Instruments/triangle2.png",210,43,210,0.9,"stim/61.jpeg",6,1,3,NA,"Instruments",1,4,"left","left",0.536000013,1,1,0,1,NA,NA,NA,NA,NA,NA,NA,NA,NA,NA,NA,NA,NA,NA,NA,NA,NA,NA,NA,NA,NA,NA,NA,NA
"74","stim/objects/HouseObjects/scale2.png",211,43,211,0.9,"stim/53.jpeg",5,3,3,NA,"HouseObjects",2,1,"right","right",0.440999985,1,1,0,1,NA,NA,NA,NA,NA,NA,NA,NA,NA,NA,NA,NA,NA,NA,NA,NA,NA,NA,NA,NA,NA,NA,NA,NA
"93","stim/objects/HouseObjects/spraybottle.png",212,43,212,0.7,"stim/31.jpeg",3,1,2,NA,"HouseObjects",2,3,"right","left",0.644999981,0,0,0,1,NA,NA,NA,NA,NA,NA,NA,NA,NA,NA,NA,NA,NA,NA,NA,NA,NA,NA,NA,NA,NA,NA,NA,NA
"94","stim/objects/HouseObjects/spraybottle.png",213,43,213,0.7,"stim/31.jpeg",3,1,2,NA,"HouseObjects",2,2,"right","right",0.524999857,1,1,0,1,NA,NA,NA,NA,NA,NA,NA,NA,NA,NA,NA,NA,NA,NA,NA,NA,NA,NA,NA,NA,NA,NA,NA,NA
"23","stim/objects/HouseObjects/rubbergloves2.png",214,43,214,0.3,"stim/43.jpeg",4,3,2,NA,"HouseObjects",2,3,"right","left",0.51699996,0,0,0,1,NA,NA,NA,NA,NA,NA,NA,NA,NA,NA,NA,NA,NA,NA,NA,NA,NA,NA,NA,NA,NA,NA,NA,NA
"131","stim/objects/Instruments/panflute2.png",215,43,215,0.7,"stim/41.jpeg",4,1,2,NA,"Instruments",1,2,"left","right",0.426999807,0,0,0,1,NA,NA,NA,NA,NA,NA,NA,NA,NA,NA,NA,NA,NA,NA,NA,NA,NA,NA,NA,NA,NA,NA,NA,NA
"215","stim/objects/Instruments/trombone2.png",216,43,216,0.9,"stim/62.jpeg",6,2,3,NA,"Instruments",1,4,"left","left",0.431999922,1,1,0,1,NA,NA,NA,NA,NA,NA,NA,NA,NA,NA,NA,NA,NA,NA,NA,NA,NA,NA,NA,NA,NA,NA,NA,NA
"165","stim/objects/Instruments/record2.png",217,43,217,0.7,"stim/43.jpeg",4,3,2,NA,"Instruments",1,4,"left","left",0.56099987,1,1,0,1,NA,NA,NA,NA,NA,NA,NA,NA,NA,NA,NA,NA,NA,NA,NA,NA,NA,NA,NA,NA,NA,NA,NA,NA
"166","stim/objects/Instruments/record2.png",218,43,218,0.7,"stim/43.jpeg",4,3,2,NA,"Instruments",1,1,"left","left",0.378999949,1,1,0,1,NA,NA,NA,NA,NA,NA,NA,NA,NA,NA,NA,NA,NA,NA,NA,NA,NA,NA,NA,NA,NA,NA,NA,NA
"95","stim/objects/HouseObjects/spraybottle.png",219,43,219,0.7,"stim/31.jpeg",3,1,2,NA,"HouseObjects",2,4,"right","left",0.434000015,0,0,0,1,NA,NA,NA,NA,NA,NA,NA,NA,NA,NA,NA,NA,NA,NA,NA,NA,NA,NA,NA,NA,NA,NA,NA,NA
"227","stim/objects/Instruments/trumpet2.png",220,43,220,0.9,"stim/63.jpeg",6,3,3,NA,"Instruments",1,4,"left","right",0.177000046,0,0,0,1,NA,NA,NA,NA,NA,NA,NA,NA,NA,NA,NA,NA,NA,NA,NA,NA,NA,NA,NA,NA,NA,NA,NA,NA
"216","stim/objects/Instruments/trombone2.png",221,43,221,0.9,"stim/62.jpeg",6,2,3,NA,"Instruments",1,1,"left","left",0.476999998,1,1,0,1,NA,NA,NA,NA,NA,NA,NA,NA,NA,NA,NA,NA,NA,NA,NA,NA,NA,NA,NA,NA,NA,NA,NA,NA
"161","stim/objects/Instruments/record.png",222,43,222,0.5,"stim/13.jpeg",1,3,1,NA,"Instruments",1,1,"left","left",0.371999979,1,1,0,1,NA,NA,NA,NA,NA,NA,NA,NA,NA,NA,NA,NA,NA,NA,NA,NA,NA,NA,NA,NA,NA,NA,NA,NA
"37","stim/objects/HouseObjects/safetypin.png",223,43,223,0.5,"stim/21.jpeg",2,1,1,NA,"HouseObjects",2,3,"right","left",0.401000023,0,0,0,1,NA,NA,NA,NA,NA,NA,NA,NA,NA,NA,NA,NA,NA,NA,NA,NA,NA,NA,NA,NA,NA,NA,NA,NA
"167","stim/objects/Instruments/record2.png",224,43,224,0.7,"stim/43.jpeg",4,3,2,NA,"Instruments",1,2,"left","left",0.435000181,1,1,0,1,NA,NA,NA,NA,NA,NA,NA,NA,NA,NA,NA,NA,NA,NA,NA,NA,NA,NA,NA,NA,NA,NA,NA,NA
"102","stim/objects/HouseObjects/teapot.png",225,43,225,0.7,"stim/32.jpeg",3,2,2,NA,"HouseObjects",2,1,"right","left",0.355000019,0,0,0,1,NA,NA,NA,NA,NA,NA,NA,NA,NA,NA,NA,NA,NA,NA,NA,NA,NA,NA,NA,NA,NA,NA,NA,NA
"124","stim/objects/Instruments/panflute.png",226,43,226,0.5,"stim/11.jpeg",1,1,1,NA,"Instruments",1,4,"left","right",0.413000107,0,0,0,1,NA,NA,NA,NA,NA,NA,NA,NA,NA,NA,NA,NA,NA,NA,NA,NA,NA,NA,NA,NA,NA,NA,NA,NA
"156","stim/objects/Instruments/record_player2.png",227,43,227,0.7,"stim/44.jpeg",4,4,2,NA,"Instruments",1,1,"left","left",0.440000057,1,1,0,1,NA,NA,NA,NA,NA,NA,NA,NA,NA,NA,NA,NA,NA,NA,NA,NA,NA,NA,NA,NA,NA,NA,NA,NA
"87","stim/objects/HouseObjects/sponge2.png",228,43,228,0.9,"stim/54.jpeg",5,4,3,NA,"HouseObjects",2,3,"right","right",0.502000093,1,1,0,1,NA,NA,NA,NA,NA,NA,NA,NA,NA,NA,NA,NA,NA,NA,NA,NA,NA,NA,NA,NA,NA,NA,NA,NA
"204","stim/objects/Instruments/triangle2.png",229,43,229,0.9,"stim/61.jpeg",6,1,3,NA,"Instruments",1,3,"left","left",0.460999966,1,1,0,1,NA,NA,NA,NA,NA,NA,NA,NA,NA,NA,NA,NA,NA,NA,NA,NA,NA,NA,NA,NA,NA,NA,NA,NA
"103","stim/objects/HouseObjects/teapot.png",230,43,230,0.7,"stim/32.jpeg",3,2,2,NA,"HouseObjects",2,3,"right","right",0.433000088,1,1,0,1,NA,NA,NA,NA,NA,NA,NA,NA,NA,NA,NA,NA,NA,NA,NA,NA,NA,NA,NA,NA,NA,NA,NA,NA
"228","stim/objects/Instruments/trumpet2.png",231,43,231,0.9,"stim/63.jpeg",6,3,3,NA,"Instruments",1,4,"left","left",0.491999865,1,1,0,1,NA,NA,NA,NA,NA,NA,NA,NA,NA,NA,NA,NA,NA,NA,NA,NA,NA,NA,NA,NA,NA,NA,NA,NA
"137","stim/objects/Instruments/pipepiano.png",232,43,232,0.5,"stim/12.jpeg",1,2,1,NA,"Instruments",1,1,"left","right",0.465999842,0,0,0,1,NA,NA,NA,NA,NA,NA,NA,NA,NA,NA,NA,NA,NA,NA,NA,NA,NA,NA,NA,NA,NA,NA,NA,NA
"125","stim/objects/Instruments/panflute.png",233,43,233,0.5,"stim/11.jpeg",1,1,1,NA,"Instruments",1,2,"left","left",0.529000044,1,1,0,1,NA,NA,NA,NA,NA,NA,NA,NA,NA,NA,NA,NA,NA,NA,NA,NA,NA,NA,NA,NA,NA,NA,NA,NA
"88","stim/objects/HouseObjects/sponge2.png",234,43,234,0.9,"stim/54.jpeg",5,4,3,NA,"HouseObjects",2,2,"right","right",0.519000053,1,1,0,1,NA,NA,NA,NA,NA,NA,NA,NA,NA,NA,NA,NA,NA,NA,NA,NA,NA,NA,NA,NA,NA,NA,NA,NA
"60","stim/objects/HouseObjects/saw2.png",235,43,235,0.9,"stim/52.jpeg",5,2,3,NA,"HouseObjects",2,3,"right","right",0.691999912,1,1,0,1,NA,NA,NA,NA,NA,NA,NA,NA,NA,NA,NA,NA,NA,NA,NA,NA,NA,NA,NA,NA,NA,NA,NA,NA
"24","stim/objects/HouseObjects/rubbergloves2.png",236,43,236,0.3,"stim/43.jpeg",4,3,2,NA,"HouseObjects",2,4,"right","left",0.717000008,0,0,0,1,NA,NA,NA,NA,NA,NA,NA,NA,NA,NA,NA,NA,NA,NA,NA,NA,NA,NA,NA,NA,NA,NA,NA,NA
"79","stim/objects/HouseObjects/sponge.png",237,43,237,0.5,"stim/24.jpeg",2,4,1,NA,"HouseObjects",2,2,"right","left",0.518999815,0,0,0,1,NA,NA,NA,NA,NA,NA,NA,NA,NA,NA,NA,NA,NA,NA,NA,NA,NA,NA,NA,NA,NA,NA,NA,NA
"111","stim/objects/HouseObjects/thermometer.png",238,43,238,0.7,"stim/33.jpeg",3,3,2,NA,"HouseObjects",2,4,"right","right",0.561000109,1,1,0,1,NA,NA,NA,NA,NA,NA,NA,NA,NA,NA,NA,NA,NA,NA,NA,NA,NA,NA,NA,NA,NA,NA,NA,NA
"132","stim/objects/Instruments/panflute2.png",239,43,239,0.7,"stim/41.jpeg",4,1,2,NA,"Instruments",1,3,"left","left",0.312999964,1,1,0,1,NA,NA,NA,NA,NA,NA,NA,NA,NA,NA,NA,NA,NA,NA,NA,NA,NA,NA,NA,NA,NA,NA,NA,NA
"168","stim/objects/Instruments/record2.png",240,43,240,0.7,"stim/43.jpeg",4,3,2,NA,"Instruments",1,3,"left","left",0.476000071,1,1,0,1,NA,NA,NA,NA,NA,NA,NA,NA,NA,NA,NA,NA,NA,NA,NA,NA,NA,NA,NA,NA,NA,NA,NA,NA
"359","stim/objects/HouseObjects/glass3.png",248,43,241,0.9,"stim/53.jpeg",5,3,3,2,"HouseObjects",2,2,"right","right",0.856000185,1,1,1,0,NA,NA,NA,NA,NA,NA,NA,NA,NA,NA,NA,NA,NA,NA,NA,NA,NA,NA,NA,NA,NA,NA,NA,NA
"386","stim/objects/HouseObjects/ironingboard3.png",249,43,242,0.5,"stim/24.jpeg",2,4,1,1,"HouseObjects",2,1,"right","left",0.605999947,0,0,1,0,94,43,1,0.5,2,"stim/24.jpeg",2,4,"stim/24.jpeg",1,"left",0.912000179,3,4,0.677000046,2,0.571000099,94,1,1,1,0,0,0
"283","stim/objects/HouseObjects/cushion3.png",250,43,243,0.7,"stim/32.jpeg",3,2,2,2,"HouseObjects",2,1,"right","right",0.670000076,1,1,1,0,NA,NA,NA,NA,NA,NA,NA,NA,NA,NA,NA,NA,NA,NA,NA,NA,NA,NA,NA,NA,NA,NA,NA,NA
"427","stim/objects/Instruments/chime3.png",251,43,244,0.5,"stim/21.jpeg",2,1,1,2,"Instruments",1,2,"left","left",0.465000153,1,1,1,0,NA,NA,NA,NA,NA,NA,NA,NA,NA,NA,NA,NA,NA,NA,NA,NA,NA,NA,NA,NA,NA,NA,NA,NA
"562","stim/objects/Instruments/musicstand4.png",252,43,245,0.9,"stim/62.jpeg",6,2,3,1,"Instruments",1,2,"left","left",0.802999973,1,1,1,0,48,43,1,0.9,1,"stim/62.jpeg",6,2,"stim/62.jpeg",2,"right",1.159000158,1,1,1.322000265,3,0.715000153,48,0,0,NA,0,NA,0
"444","stim/objects/Instruments/drums3.png",253,43,246,0.7,"stim/41.jpeg",4,1,2,2,"Instruments",1,3,"left","right",0.480000019,0,0,1,0,NA,NA,NA,NA,NA,NA,NA,NA,NA,NA,NA,NA,NA,NA,NA,NA,NA,NA,NA,NA,NA,NA,NA,NA
"282","stim/objects/HouseObjects/coffee4.png",254,43,247,0.3,"stim/41.jpeg",4,1,2,1,"HouseObjects",2,3,"right","left",0.170000076,0,0,1,0,79,43,1,0.3,2,"stim/41.jpeg",4,1,"stim/41.jpeg",3,"right",1.266000032,4,4,3.309000254,4,0.714000225,79,0,0,NA,0,NA,0
"360","stim/objects/HouseObjects/glass3.png",255,43,248,0.9,"stim/54.jpeg",5,4,3,2,"HouseObjects",2,3,"right","right",0.582999945,1,1,1,0,NA,NA,NA,NA,NA,NA,NA,NA,NA,NA,NA,NA,NA,NA,NA,NA,NA,NA,NA,NA,NA,NA,NA,NA
"507","stim/objects/Instruments/gong3.png",256,43,249,0.9,"stim/63.jpeg",6,3,3,2,"Instruments",1,3,"left","left",0.510999918,1,1,1,0,NA,NA,NA,NA,NA,NA,NA,NA,NA,NA,NA,NA,NA,NA,NA,NA,NA,NA,NA,NA,NA,NA,NA,NA
"361","stim/objects/HouseObjects/glass3.png",257,43,250,0.9,"stim/52.jpeg",5,2,3,2,"HouseObjects",2,2,"right","right",0.494000196,1,1,1,0,NA,NA,NA,NA,NA,NA,NA,NA,NA,NA,NA,NA,NA,NA,NA,NA,NA,NA,NA,NA,NA,NA,NA,NA
"456","stim/objects/Instruments/flute3.png",258,43,251,0.9,"stim/63.jpeg",6,3,3,2,"Instruments",1,1,"left","left",0.478999853,1,1,1,0,NA,NA,NA,NA,NA,NA,NA,NA,NA,NA,NA,NA,NA,NA,NA,NA,NA,NA,NA,NA,NA,NA,NA,NA
"430","stim/objects/Instruments/clarinet3.png",259,43,252,0.5,"stim/22.jpeg",2,2,1,2,"Instruments",1,1,"left","right",0.737999916,0,0,1,0,NA,NA,NA,NA,NA,NA,NA,NA,NA,NA,NA,NA,NA,NA,NA,NA,NA,NA,NA,NA,NA,NA,NA,NA
"267","stim/objects/HouseObjects/bucket4.png",260,43,253,0.3,"stim/41.jpeg",4,1,2,1,"HouseObjects",2,1,"right","left",0.436000109,0,0,1,0,89,43,1,0.3,2,"stim/41.jpeg",4,1,"stim/41.jpeg",1,"left",1.050000191,4,4,4.749000072,4,1.689000368,89,1,0,0,0,0,0
"508","stim/objects/Instruments/gong3.png",261,43,254,0.9,"stim/62.jpeg",6,2,3,2,"Instruments",1,2,"left","left",0.474999905,1,1,1,0,NA,NA,NA,NA,NA,NA,NA,NA,NA,NA,NA,NA,NA,NA,NA,NA,NA,NA,NA,NA,NA,NA,NA,NA
"509","stim/objects/Instruments/gong3.png",262,43,255,0.9,"stim/64.jpeg",6,4,3,2,"Instruments",1,1,"left","left",0.559000015,1,1,1,0,NA,NA,NA,NA,NA,NA,NA,NA,NA,NA,NA,NA,NA,NA,NA,NA,NA,NA,NA,NA,NA,NA,NA,NA
"524","stim/objects/Instruments/grandpiano3.png",263,43,256,0.9,"stim/63.jpeg",6,3,3,2,"Instruments",1,1,"left","left",0.565999985,1,1,1,0,NA,NA,NA,NA,NA,NA,NA,NA,NA,NA,NA,NA,NA,NA,NA,NA,NA,NA,NA,NA,NA,NA,NA,NA
"325","stim/objects/HouseObjects/flyswatter3.png",264,43,257,0.9,"stim/53.jpeg",5,3,3,2,"HouseObjects",2,3,"right","right",0.444000006,1,1,1,0,NA,NA,NA,NA,NA,NA,NA,NA,NA,NA,NA,NA,NA,NA,NA,NA,NA,NA,NA,NA,NA,NA,NA,NA
"326","stim/objects/HouseObjects/flyswatter3.png",265,43,258,0.9,"stim/52.jpeg",5,2,3,2,"HouseObjects",2,2,"right","right",0.551000118,1,1,1,0,NA,NA,NA,NA,NA,NA,NA,NA,NA,NA,NA,NA,NA,NA,NA,NA,NA,NA,NA,NA,NA,NA,NA,NA
"309","stim/objects/HouseObjects/dustpan3.png",266,43,259,0.9,"stim/52.jpeg",5,2,3,2,"HouseObjects",2,3,"right","right",0.51699996,1,1,1,0,NA,NA,NA,NA,NA,NA,NA,NA,NA,NA,NA,NA,NA,NA,NA,NA,NA,NA,NA,NA,NA,NA,NA,NA
"558","stim/objects/Instruments/metronome4.png",267,43,260,0.9,"stim/64.jpeg",6,4,3,1,"Instruments",1,2,"left","left",0.705999851,1,1,1,0,67,43,1,0.9,1,"stim/64.jpeg",6,4,"stim/64.jpeg",2,"right",0.972000122,1,2,1.086000204,4,0.892000198,67,0,0,NA,0,NA,0
"525","stim/objects/Instruments/grandpiano3.png",268,43,261,0.9,"stim/64.jpeg",6,4,3,2,"Instruments",1,1,"left","right",0.421000004,0,0,1,0,NA,NA,NA,NA,NA,NA,NA,NA,NA,NA,NA,NA,NA,NA,NA,NA,NA,NA,NA,NA,NA,NA,NA,NA
"342","stim/objects/HouseObjects/garbagebin3.png",269,43,262,0.9,"stim/52.jpeg",5,2,3,2,"HouseObjects",2,3,"right","right",0.359999895,1,1,1,0,NA,NA,NA,NA,NA,NA,NA,NA,NA,NA,NA,NA,NA,NA,NA,NA,NA,NA,NA,NA,NA,NA,NA,NA
"343","stim/objects/HouseObjects/garbagebin3.png",270,43,263,0.9,"stim/51.jpeg",5,1,3,2,"HouseObjects",2,4,"right","right",0.42200017,1,1,1,0,NA,NA,NA,NA,NA,NA,NA,NA,NA,NA,NA,NA,NA,NA,NA,NA,NA,NA,NA,NA,NA,NA,NA,NA
"394","stim/objects/HouseObjects/match3.png",271,43,264,0.5,"stim/24.jpeg",2,4,1,1,"HouseObjects",2,3,"right","right",0.428999901,1,1,1,0,161,43,1,0.5,2,"stim/24.jpeg",2,4,"stim/24.jpeg",3,"right",0.77300024,1,2,2.440999985,4,0.578000307,161,0,0,NA,0,NA,0
"310","stim/objects/HouseObjects/dustpan3.png",272,43,265,0.9,"stim/51.jpeg",5,1,3,2,"HouseObjects",2,4,"right","",NA,0,0,1,0,NA,NA,NA,NA,NA,NA,NA,NA,NA,NA,NA,NA,NA,NA,NA,NA,NA,NA,NA,NA,NA,NA,NA,NA
"406","stim/objects/Instruments/accordion3.png",273,43,266,0.5,"stim/11.jpeg",1,1,1,2,"Instruments",1,4,"left","left",0.615999937,1,1,1,0,NA,NA,NA,NA,NA,NA,NA,NA,NA,NA,NA,NA,NA,NA,NA,NA,NA,NA,NA,NA,NA,NA,NA,NA
"390","stim/objects/HouseObjects/knife3.png",274,43,267,0.5,"stim/22.jpeg",2,2,1,1,"HouseObjects",2,2,"right","left",0.585000038,0,0,1,0,120,43,1,0.5,2,"stim/22.jpeg",2,2,"stim/22.jpeg",2,"right",1.167000055,1,4,1.787000179,3,0.535000324,120,0,0,NA,0,NA,0
"363","stim/objects/HouseObjects/glass3.png",275,43,268,0.9,"stim/53.jpeg",5,3,3,2,"HouseObjects",2,2,"right","right",0.50999999,1,1,1,0,NA,NA,NA,NA,NA,NA,NA,NA,NA,NA,NA,NA,NA,NA,NA,NA,NA,NA,NA,NA,NA,NA,NA,NA
"440","stim/objects/Instruments/doublebass3.png",276,43,269,0.7,"stim/44.jpeg",4,4,2,2,"Instruments",1,2,"left","left",0.857999802,1,1,1,0,NA,NA,NA,NA,NA,NA,NA,NA,NA,NA,NA,NA,NA,NA,NA,NA,NA,NA,NA,NA,NA,NA,NA,NA
"311","stim/objects/HouseObjects/dustpan3.png",277,43,270,0.9,"stim/52.jpeg",5,2,3,2,"HouseObjects",2,4,"right","right",0.477999926,1,1,1,0,NA,NA,NA,NA,NA,NA,NA,NA,NA,NA,NA,NA,NA,NA,NA,NA,NA,NA,NA,NA,NA,NA,NA,NA
"409","stim/objects/Instruments/acousticguitar3.png",278,43,271,0.5,"stim/13.jpeg",1,3,1,2,"Instruments",1,3,"left","right",0.519000053,0,0,1,0,NA,NA,NA,NA,NA,NA,NA,NA,NA,NA,NA,NA,NA,NA,NA,NA,NA,NA,NA,NA,NA,NA,NA,NA
"474","stim/objects/Instruments/flutetrans3.png",279,43,272,0.9,"stim/62.jpeg",6,2,3,2,"Instruments",1,2,"left","left",0.500999928,1,1,1,0,NA,NA,NA,NA,NA,NA,NA,NA,NA,NA,NA,NA,NA,NA,NA,NA,NA,NA,NA,NA,NA,NA,NA,NA
"510","stim/objects/Instruments/gong3.png",280,43,273,0.9,"stim/61.jpeg",6,1,3,2,"Instruments",1,1,"left","left",0.476000071,1,1,1,0,NA,NA,NA,NA,NA,NA,NA,NA,NA,NA,NA,NA,NA,NA,NA,NA,NA,NA,NA,NA,NA,NA,NA,NA
"568","stim/objects/Instruments/vuvuzela4.png",281,43,274,0.9,"stim/61.jpeg",6,1,3,1,"Instruments",1,4,"left","left",0.487999916,1,1,1,0,28,43,1,0.9,1,"stim/61.jpeg",6,1,"stim/61.jpeg",4,"left",0.585000038,4,4,3.042000294,2,1.871000051,28,1,0,0,0,0,0
"491","stim/objects/Instruments/frenchhorn3.png",282,43,275,0.9,"stim/62.jpeg",6,2,3,2,"Instruments",1,2,"left","left",0.46600008,1,1,1,0,NA,NA,NA,NA,NA,NA,NA,NA,NA,NA,NA,NA,NA,NA,NA,NA,NA,NA,NA,NA,NA,NA,NA,NA
"550","stim/objects/Instruments/keyboard4.png",283,43,276,0.1,"stim/52.jpeg",5,2,3,1,"Instruments",1,4,"left","right",0.578000069,0,0,1,0,181,43,1,0.1,1,"stim/52.jpeg",5,2,"stim/52.jpeg",4,"right",0.741000175,4,3,1.425000191,2,0.887000084,181,0,0,NA,0,NA,0
"292","stim/objects/HouseObjects/doormat3.png",284,43,277,0.9,"stim/51.jpeg",5,1,3,2,"HouseObjects",2,3,"right","right",0.669000149,1,1,1,0,NA,NA,NA,NA,NA,NA,NA,NA,NA,NA,NA,NA,NA,NA,NA,NA,NA,NA,NA,NA,NA,NA,NA,NA
"396","stim/objects/HouseObjects/pan3.png",285,43,278,0.7,"stim/32.jpeg",3,2,2,1,"HouseObjects",2,2,"right","right",0.628999949,1,1,1,0,1,43,1,0.7,2,"stim/32.jpeg",3,2,"stim/32.jpeg",2,"right",2.539000034,1,3,7.458000183,1,3.342000008,1,0,0,NA,0,NA,0
"511","stim/objects/Instruments/gong3.png",286,43,279,0.9,"stim/61.jpeg",6,1,3,2,"Instruments",1,1,"left","left",0.393000126,1,1,1,0,NA,NA,NA,NA,NA,NA,NA,NA,NA,NA,NA,NA,NA,NA,NA,NA,NA,NA,NA,NA,NA,NA,NA,NA
"415","stim/objects/Instruments/banjo3.png",287,43,280,0.5,"stim/11.jpeg",1,1,1,2,"Instruments",1,2,"left","right",0.521999836,0,0,1,0,NA,NA,NA,NA,NA,NA,NA,NA,NA,NA,NA,NA,NA,NA,NA,NA,NA,NA,NA,NA,NA,NA,NA,NA
"556","stim/objects/Instruments/marimba4.png",288,43,281,0.9,"stim/63.jpeg",6,3,3,1,"Instruments",1,3,"left","left",0.450999975,1,1,1,0,152,43,1,0.9,1,"stim/63.jpeg",6,3,"stim/63.jpeg",3,"right",0.992000103,2,1,0.584000111,2,0.73900032,152,0,0,NA,0,NA,0
"526","stim/objects/Instruments/grandpiano3.png",289,43,282,0.9,"stim/62.jpeg",6,2,3,2,"Instruments",1,2,"left","left",0.46999979,1,1,1,0,NA,NA,NA,NA,NA,NA,NA,NA,NA,NA,NA,NA,NA,NA,NA,NA,NA,NA,NA,NA,NA,NA,NA,NA
"293","stim/objects/HouseObjects/doormat3.png",290,43,283,0.9,"stim/54.jpeg",5,4,3,2,"HouseObjects",2,2,"right","left",0.538000107,0,0,1,0,NA,NA,NA,NA,NA,NA,NA,NA,NA,NA,NA,NA,NA,NA,NA,NA,NA,NA,NA,NA,NA,NA,NA,NA
"345","stim/objects/HouseObjects/garbagebin3.png",291,43,284,0.9,"stim/53.jpeg",5,3,3,2,"HouseObjects",2,3,"right","right",0.370999813,1,1,1,0,NA,NA,NA,NA,NA,NA,NA,NA,NA,NA,NA,NA,NA,NA,NA,NA,NA,NA,NA,NA,NA,NA,NA,NA
"563","stim/objects/Instruments/oboe3.png",292,43,285,0.3,"stim/32.jpeg",3,2,2,1,"Instruments",1,4,"left","left",0.575999975,1,1,1,0,20,43,1,0.3,1,"stim/32.jpeg",3,2,"stim/32.jpeg",4,"left",2.917000294,4,1,4.25,2,0.586000204,20,1,0,0,0,0,0
"492","stim/objects/Instruments/frenchhorn3.png",293,43,286,0.9,"stim/63.jpeg",6,3,3,2,"Instruments",1,1,"left","left",0.461999893,1,1,1,0,NA,NA,NA,NA,NA,NA,NA,NA,NA,NA,NA,NA,NA,NA,NA,NA,NA,NA,NA,NA,NA,NA,NA,NA
"527","stim/objects/Instruments/grandpiano3.png",294,43,287,0.9,"stim/61.jpeg",6,1,3,2,"Instruments",1,1,"left","left",0.402999878,1,1,1,0,NA,NA,NA,NA,NA,NA,NA,NA,NA,NA,NA,NA,NA,NA,NA,NA,NA,NA,NA,NA,NA,NA,NA,NA
"256","stim/objects/HouseObjects/blender3.png",295,43,288,0.5,"stim/22.jpeg",2,2,1,2,"HouseObjects",2,2,"right","left",0.671999931,0,0,1,0,NA,NA,NA,NA,NA,NA,NA,NA,NA,NA,NA,NA,NA,NA,NA,NA,NA,NA,NA,NA,NA,NA,NA,NA
"557","stim/objects/Instruments/metronome3.png",296,43,289,0.5,"stim/24.jpeg",2,4,1,1,"Instruments",1,2,"left","left",0.411000013,1,1,1,0,30,43,1,0.5,2,"stim/24.jpeg",2,4,"stim/24.jpeg",2,"right",0.964000225,2,4,4.295000076,2,0.742000103,30,0,1,NA,1,NA,0
"385","stim/objects/HouseObjects/iron4.png",297,43,290,0.9,"stim/54.jpeg",5,4,3,1,"HouseObjects",2,2,"right","",NA,0,0,1,0,148,43,1,0.9,2,"stim/54.jpeg",5,4,"stim/54.jpeg",2,"right",1.231000185,1,4,0.743000031,2,0.678000212,148,0,1,NA,1,NA,0
"376","stim/objects/HouseObjects/glassmop3.png",298,43,291,0.5,"stim/12.jpeg",1,2,1,1,"HouseObjects",2,4,"right","left",0.513000011,0,0,1,0,122,43,1,0.5,1,"stim/12.jpeg",1,2,"stim/12.jpeg",4,"left",1.811000347,3,4,1.132000208,4,1.107000351,122,1,0,0,1,1,0
"252","stim/objects/HouseObjects/basket4.png",299,43,292,0.7,"stim/32.jpeg",3,2,2,1,"HouseObjects",2,2,"right","right",0.572999954,1,1,1,0,54,43,1,0.7,2,"stim/32.jpeg",3,2,"stim/32.jpeg",2,"right",0.946000099,3,4,1.233000278,4,0.92200017,54,0,0,NA,0,NA,0
"313","stim/objects/HouseObjects/dustpan3.png",300,43,293,0.9,"stim/53.jpeg",5,3,3,2,"HouseObjects",2,1,"right","left",0.448999882,0,0,1,0,NA,NA,NA,NA,NA,NA,NA,NA,NA,NA,NA,NA,NA,NA,NA,NA,NA,NA,NA,NA,NA,NA,NA,NA
"494","stim/objects/Instruments/frenchhorn3.png",301,43,294,0.9,"stim/64.jpeg",6,4,3,2,"Instruments",1,1,"left","left",0.536000013,1,1,1,0,NA,NA,NA,NA,NA,NA,NA,NA,NA,NA,NA,NA,NA,NA,NA,NA,NA,NA,NA,NA,NA,NA,NA,NA
"543","stim/objects/Instruments/harmonica3.png",302,43,295,0.5,"stim/14.jpeg",1,4,1,1,"Instruments",1,3,"left","right",0.460999966,0,0,1,0,144,43,1,0.5,1,"stim/14.jpeg",1,4,"stim/14.jpeg",3,"left",1.352000237,3,2,0.987000227,2,0.815000057,144,1,0,0,0,0,0
"364","stim/objects/HouseObjects/glass3.png",303,43,296,0.9,"stim/54.jpeg",5,4,3,2,"HouseObjects",2,2,"right","right",0.532999992,1,1,1,0,NA,NA,NA,NA,NA,NA,NA,NA,NA,NA,NA,NA,NA,NA,NA,NA,NA,NA,NA,NA,NA,NA,NA,NA
"314","stim/objects/HouseObjects/dustpan3.png",304,43,297,0.9,"stim/51.jpeg",5,1,3,2,"HouseObjects",2,2,"right","right",0.799000025,1,1,1,0,NA,NA,NA,NA,NA,NA,NA,NA,NA,NA,NA,NA,NA,NA,NA,NA,NA,NA,NA,NA,NA,NA,NA,NA
"249","stim/objects/HouseObjects/barbecuelighter4.png",305,43,298,0.7,"stim/31.jpeg",3,1,2,1,"HouseObjects",2,1,"right","right",0.426000118,1,1,1,0,37,43,1,0.7,2,"stim/31.jpeg",3,1,"stim/31.jpeg",1,"left",0.957000017,4,1,5.107000351,2,2.159000158,37,1,1,1,0,0,0
"418","stim/objects/Instruments/bassdrum3.png",306,43,299,0.5,"stim/11.jpeg",1,1,1,2,"Instruments",1,3,"left","right",0.467999935,0,0,1,0,NA,NA,NA,NA,NA,NA,NA,NA,NA,NA,NA,NA,NA,NA,NA,NA,NA,NA,NA,NA,NA,NA,NA,NA
"433","stim/objects/Instruments/cornet3.png",307,43,300,0.5,"stim/23.jpeg",2,3,1,2,"Instruments",1,3,"left","left",0.626000166,1,1,1,0,NA,NA,NA,NA,NA,NA,NA,NA,NA,NA,NA,NA,NA,NA,NA,NA,NA,NA,NA,NA,NA,NA,NA,NA
"241","stim/objects/HouseObjects/ashtray3.png",308,43,301,0.5,"stim/14.jpeg",1,4,1,2,"HouseObjects",2,1,"right","right",0.458999872,1,1,1,0,NA,NA,NA,NA,NA,NA,NA,NA,NA,NA,NA,NA,NA,NA,NA,NA,NA,NA,NA,NA,NA,NA,NA,NA
"295","stim/objects/HouseObjects/doormat3.png",309,43,302,0.9,"stim/51.jpeg",5,1,3,2,"HouseObjects",2,3,"right","right",0.65199995,1,1,1,0,NA,NA,NA,NA,NA,NA,NA,NA,NA,NA,NA,NA,NA,NA,NA,NA,NA,NA,NA,NA,NA,NA,NA,NA
"384","stim/objects/HouseObjects/iron3.png",310,43,303,0.5,"stim/12.jpeg",1,2,1,1,"HouseObjects",2,2,"right","left",0.698999882,0,0,1,0,87,43,1,0.5,1,"stim/12.jpeg",1,2,"stim/12.jpeg",2,"right",1.02300024,3,4,1.807000399,1,1.291000128,87,0,0,NA,0,NA,0
"554","stim/objects/Instruments/maraca4.png",311,43,304,0.9,"stim/62.jpeg",6,2,3,1,"Instruments",1,4,"left","left",0.537999868,1,1,1,0,10,43,1,0.9,1,"stim/62.jpeg",6,2,"stim/62.jpeg",4,"left",2.936000109,4,4,3.793000221,4,1.055000305,10,1,0,0,1,1,0
"472","stim/objects/Instruments/flute4.png",312,43,305,0.1,"stim/51.jpeg",5,1,3,1,"Instruments",1,3,"left","right",0.509000063,0,0,1,0,8,43,1,0.1,1,"stim/51.jpeg",5,1,"stim/51.jpeg",3,"left",2.104000092,4,1,5.134000063,1,2.049000263,8,1,1,1,0,0,0
"417","stim/objects/Instruments/banjo4.png",313,43,306,0.3,"stim/31.jpeg",3,1,2,1,"Instruments",1,3,"left","right",0.595000029,0,0,1,0,146,43,1,0.3,1,"stim/31.jpeg",3,1,"stim/31.jpeg",3,"right",1.851999998,4,4,1.153000355,3,0.728000164,146,0,0,NA,1,NA,0
"545","stim/objects/Instruments/harp3.png",314,43,307,0.5,"stim/11.jpeg",1,1,1,1,"Instruments",1,2,"left","left",0.565000057,1,1,1,0,131,43,1,0.5,1,"stim/11.jpeg",1,1,"stim/11.jpeg",2,"right",1.920000076,4,1,0.626000166,3,0.743000269,131,0,1,NA,0,NA,0
"247","stim/objects/HouseObjects/barbecuelighter3.png",315,43,308,0.5,"stim/13.jpeg",1,3,1,2,"HouseObjects",2,3,"right","right",0.486999989,1,1,1,0,NA,NA,NA,NA,NA,NA,NA,NA,NA,NA,NA,NA,NA,NA,NA,NA,NA,NA,NA,NA,NA,NA,NA,NA
"307","stim/objects/HouseObjects/doormat4.png",316,43,309,0.9,"stim/53.jpeg",5,3,3,1,"HouseObjects",2,1,"right","right",0.443000078,1,1,1,0,98,43,1,0.9,2,"stim/53.jpeg",5,3,"stim/53.jpeg",1,"left",5.031000137,4,3,0.751000166,4,0.446000338,98,1,1,1,0,0,0
"529","stim/objects/Instruments/grandpiano3.png",317,43,310,0.9,"stim/64.jpeg",6,4,3,2,"Instruments",1,3,"left","right",0.395999908,0,0,1,0,NA,NA,NA,NA,NA,NA,NA,NA,NA,NA,NA,NA,NA,NA,NA,NA,NA,NA,NA,NA,NA,NA,NA,NA
"279","stim/objects/HouseObjects/coffee3.png",318,43,311,0.7,"stim/33.jpeg",3,3,2,2,"HouseObjects",2,1,"right","right",0.457000017,1,1,1,0,NA,NA,NA,NA,NA,NA,NA,NA,NA,NA,NA,NA,NA,NA,NA,NA,NA,NA,NA,NA,NA,NA,NA,NA
"476","stim/objects/Instruments/flutetrans3.png",319,43,312,0.9,"stim/61.jpeg",6,1,3,2,"Instruments",1,1,"left","left",0.526000023,1,1,1,0,NA,NA,NA,NA,NA,NA,NA,NA,NA,NA,NA,NA,NA,NA,NA,NA,NA,NA,NA,NA,NA,NA,NA,NA
"542","stim/objects/Instruments/guitarcase4.png",320,43,313,0.1,"stim/52.jpeg",5,2,3,1,"Instruments",1,2,"left","right",0.394999981,0,0,1,0,12,43,1,0.1,1,"stim/52.jpeg",5,2,"stim/52.jpeg",2,"left",1.050000191,4,2,2.93200016,2,1.380000114,12,1,1,1,1,1,0
"296","stim/objects/HouseObjects/doormat3.png",321,43,314,0.9,"stim/54.jpeg",5,4,3,2,"HouseObjects",2,2,"right","right",0.442000151,1,1,1,0,NA,NA,NA,NA,NA,NA,NA,NA,NA,NA,NA,NA,NA,NA,NA,NA,NA,NA,NA,NA,NA,NA,NA,NA
"366","stim/objects/HouseObjects/glass3.png",322,43,315,0.9,"stim/52.jpeg",5,2,3,2,"HouseObjects",2,2,"right","left",0.381999969,0,0,1,0,NA,NA,NA,NA,NA,NA,NA,NA,NA,NA,NA,NA,NA,NA,NA,NA,NA,NA,NA,NA,NA,NA,NA,NA
"274","stim/objects/HouseObjects/clothesdryingrack4.png",323,43,316,0.3,"stim/43.jpeg",4,3,2,1,"HouseObjects",2,2,"right","right",0.433000088,1,1,1,0,95,43,1,0.3,2,"stim/43.jpeg",4,3,"stim/43.jpeg",2,"left",1.100000143,4,2,5.960000277,4,2.510000229,95,1,0,0,0,0,0
"459","stim/objects/Instruments/flute3.png",324,43,317,0.9,"stim/61.jpeg",6,1,3,2,"Instruments",1,1,"left","left",0.483999968,1,1,1,0,NA,NA,NA,NA,NA,NA,NA,NA,NA,NA,NA,NA,NA,NA,NA,NA,NA,NA,NA,NA,NA,NA,NA,NA
"389","stim/objects/HouseObjects/key4.png",325,43,318,0.1,"stim/64.jpeg",6,4,3,1,"HouseObjects",2,4,"right","left",0.512000084,0,0,1,0,72,43,1,0.1,2,"stim/64.jpeg",6,4,"stim/64.jpeg",4,"right",1.410000086,1,2,1.079000235,1,2.329000235,72,0,0,NA,0,NA,0
"315","stim/objects/HouseObjects/dustpan3.png",326,43,319,0.9,"stim/54.jpeg",5,4,3,2,"HouseObjects",2,1,"right","right",0.496000051,1,1,1,0,NA,NA,NA,NA,NA,NA,NA,NA,NA,NA,NA,NA,NA,NA,NA,NA,NA,NA,NA,NA,NA,NA,NA,NA
"410","stim/objects/Instruments/acousticguitar3.png",327,43,320,0.5,"stim/12.jpeg",1,2,1,2,"Instruments",1,2,"left","right",0.573999882,0,0,1,0,NA,NA,NA,NA,NA,NA,NA,NA,NA,NA,NA,NA,NA,NA,NA,NA,NA,NA,NA,NA,NA,NA,NA,NA
"393","stim/objects/HouseObjects/lintroller4.png",328,43,321,0.1,"stim/62.jpeg",6,2,3,1,"HouseObjects",2,4,"right","left",0.592000008,0,0,1,0,25,43,1,0.1,2,"stim/62.jpeg",6,2,"stim/62.jpeg",4,"right",0.603000164,1,1,0.72300005,3,1.174000263,25,0,0,NA,0,NA,0
"348","stim/objects/HouseObjects/garbagebin3.png",329,43,322,0.9,"stim/51.jpeg",5,1,3,2,"HouseObjects",2,1,"right","right",0.355000019,1,1,1,0,NA,NA,NA,NA,NA,NA,NA,NA,NA,NA,NA,NA,NA,NA,NA,NA,NA,NA,NA,NA,NA,NA,NA,NA
"497","stim/objects/Instruments/frenchhorn3.png",330,43,323,0.9,"stim/64.jpeg",6,4,3,2,"Instruments",1,3,"left","left",0.358999968,1,1,1,0,NA,NA,NA,NA,NA,NA,NA,NA,NA,NA,NA,NA,NA,NA,NA,NA,NA,NA,NA,NA,NA,NA,NA,NA
"297","stim/objects/HouseObjects/doormat3.png",331,43,324,0.9,"stim/54.jpeg",5,4,3,2,"HouseObjects",2,3,"right","right",0.503999949,1,1,1,0,NA,NA,NA,NA,NA,NA,NA,NA,NA,NA,NA,NA,NA,NA,NA,NA,NA,NA,NA,NA,NA,NA,NA,NA
"330","stim/objects/HouseObjects/flyswatter3.png",332,43,325,0.9,"stim/53.jpeg",5,3,3,2,"HouseObjects",2,1,"right","left",0.532999992,0,0,1,0,NA,NA,NA,NA,NA,NA,NA,NA,NA,NA,NA,NA,NA,NA,NA,NA,NA,NA,NA,NA,NA,NA,NA,NA
"400","stim/objects/HouseObjects/towel3.png",333,43,326,0.7,"stim/34.jpeg",3,4,2,1,"HouseObjects",2,2,"right","right",0.45600009,1,1,1,0,47,43,1,0.7,2,"stim/34.jpeg",3,4,"stim/34.jpeg",2,"right",1.069000244,4,2,1.459000111,4,2.465000153,47,0,0,NA,0,NA,0
"331","stim/objects/HouseObjects/flyswatter3.png",334,43,327,0.9,"stim/52.jpeg",5,2,3,2,"HouseObjects",2,1,"right","right",0.447999954,1,1,1,0,NA,NA,NA,NA,NA,NA,NA,NA,NA,NA,NA,NA,NA,NA,NA,NA,NA,NA,NA,NA,NA,NA,NA,NA
"276","stim/objects/HouseObjects/clothespin3.png",335,43,328,0.7,"stim/32.jpeg",3,2,2,2,"HouseObjects",2,1,"right","right",0.429000139,1,1,1,0,NA,NA,NA,NA,NA,NA,NA,NA,NA,NA,NA,NA,NA,NA,NA,NA,NA,NA,NA,NA,NA,NA,NA,NA
"268","stim/objects/HouseObjects/clock3.png",336,43,329,0.5,"stim/22.jpeg",2,2,1,2,"HouseObjects",2,2,"right","left",0.595000029,0,0,1,0,NA,NA,NA,NA,NA,NA,NA,NA,NA,NA,NA,NA,NA,NA,NA,NA,NA,NA,NA,NA,NA,NA,NA,NA
"423","stim/objects/Instruments/bassguitar4.png",337,43,330,0.7,"stim/44.jpeg",4,4,2,1,"Instruments",1,1,"left","right",0.583000183,0,0,1,0,142,43,1,0.7,1,"stim/44.jpeg",4,4,"stim/44.jpeg",1,"right",0.609000206,2,3,0.936000109,2,0.726999998,142,0,0,NA,0,NA,0
"280","stim/objects/HouseObjects/coffee3.png",338,43,331,0.7,"stim/32.jpeg",3,2,2,2,"HouseObjects",2,2,"right","right",0.454999924,1,1,1,0,NA,NA,NA,NA,NA,NA,NA,NA,NA,NA,NA,NA,NA,NA,NA,NA,NA,NA,NA,NA,NA,NA,NA,NA
"284","stim/objects/HouseObjects/cushion3.png",339,43,332,0.7,"stim/33.jpeg",3,3,2,2,"HouseObjects",2,1,"right","right",0.499000072,1,1,1,0,NA,NA,NA,NA,NA,NA,NA,NA,NA,NA,NA,NA,NA,NA,NA,NA,NA,NA,NA,NA,NA,NA,NA,NA
"448","stim/objects/Instruments/electricdrumset3.png",340,43,333,0.7,"stim/41.jpeg",4,1,2,2,"Instruments",1,1,"left","left",0.542999983,1,1,1,0,NA,NA,NA,NA,NA,NA,NA,NA,NA,NA,NA,NA,NA,NA,NA,NA,NA,NA,NA,NA,NA,NA,NA,NA
"367","stim/objects/HouseObjects/glass3.png",341,43,334,0.9,"stim/51.jpeg",5,1,3,2,"HouseObjects",2,4,"right","right",0.467000008,1,1,1,0,NA,NA,NA,NA,NA,NA,NA,NA,NA,NA,NA,NA,NA,NA,NA,NA,NA,NA,NA,NA,NA,NA,NA,NA
"544","stim/objects/Instruments/harmonica4.png",342,43,335,0.1,"stim/53.jpeg",5,3,3,1,"Instruments",1,3,"left","right",0.470000029,0,0,1,0,194,43,1,0.1,1,"stim/53.jpeg",5,3,"stim/53.jpeg",3,"left",0.859000206,4,1,1.845000267,4,0.596000195,194,1,0,0,0,0,0
"498","stim/objects/Instruments/frenchhorn3.png",343,43,336,0.9,"stim/64.jpeg",6,4,3,2,"Instruments",1,3,"left","left",0.476999998,1,1,1,0,NA,NA,NA,NA,NA,NA,NA,NA,NA,NA,NA,NA,NA,NA,NA,NA,NA,NA,NA,NA,NA,NA,NA,NA
"477","stim/objects/Instruments/flutetrans3.png",344,43,337,0.9,"stim/62.jpeg",6,2,3,2,"Instruments",1,3,"left","left",0.532999992,1,1,1,0,NA,NA,NA,NA,NA,NA,NA,NA,NA,NA,NA,NA,NA,NA,NA,NA,NA,NA,NA,NA,NA,NA,NA,NA
"411","stim/objects/Instruments/acousticguitar4.png",345,43,338,0.3,"stim/33.jpeg",3,3,2,1,"Instruments",1,3,"left","left",0.549999952,1,1,1,0,129,43,1,0.3,1,"stim/33.jpeg",3,3,"stim/33.jpeg",3,"left",0.641000271,3,2,0.746000051,2,0.624000072,129,1,0,0,0,0,0
"369","stim/objects/HouseObjects/glass3.png",346,43,339,0.9,"stim/54.jpeg",5,4,3,2,"HouseObjects",2,1,"right","right",0.43599987,1,1,1,0,NA,NA,NA,NA,NA,NA,NA,NA,NA,NA,NA,NA,NA,NA,NA,NA,NA,NA,NA,NA,NA,NA,NA,NA
"349","stim/objects/HouseObjects/garbagebin3.png",347,43,340,0.9,"stim/54.jpeg",5,4,3,2,"HouseObjects",2,3,"right","right",0.491999865,1,1,1,0,NA,NA,NA,NA,NA,NA,NA,NA,NA,NA,NA,NA,NA,NA,NA,NA,NA,NA,NA,NA,NA,NA,NA,NA
"512","stim/objects/Instruments/gong3.png",348,43,341,0.9,"stim/64.jpeg",6,4,3,2,"Instruments",1,2,"left","left",0.421999931,1,1,1,0,NA,NA,NA,NA,NA,NA,NA,NA,NA,NA,NA,NA,NA,NA,NA,NA,NA,NA,NA,NA,NA,NA,NA,NA
"513","stim/objects/Instruments/gong3.png",349,43,342,0.9,"stim/62.jpeg",6,2,3,2,"Instruments",1,1,"left","right",0.399000168,0,0,1,0,NA,NA,NA,NA,NA,NA,NA,NA,NA,NA,NA,NA,NA,NA,NA,NA,NA,NA,NA,NA,NA,NA,NA,NA
"328","stim/objects/HouseObjects/flyswatter3.png",350,43,343,0.9,"stim/54.jpeg",5,4,3,2,"HouseObjects",2,2,"right","left",0.425000191,0,0,1,0,NA,NA,NA,NA,NA,NA,NA,NA,NA,NA,NA,NA,NA,NA,NA,NA,NA,NA,NA,NA,NA,NA,NA,NA
"242","stim/objects/HouseObjects/ashtray3.png",351,43,344,0.5,"stim/11.jpeg",1,1,1,2,"HouseObjects",2,4,"right","right",0.460999966,1,1,1,0,NA,NA,NA,NA,NA,NA,NA,NA,NA,NA,NA,NA,NA,NA,NA,NA,NA,NA,NA,NA,NA,NA,NA,NA
"298","stim/objects/HouseObjects/doormat3.png",352,43,345,0.9,"stim/52.jpeg",5,2,3,2,"HouseObjects",2,4,"right","right",0.519000053,1,1,1,0,NA,NA,NA,NA,NA,NA,NA,NA,NA,NA,NA,NA,NA,NA,NA,NA,NA,NA,NA,NA,NA,NA,NA,NA
"299","stim/objects/HouseObjects/doormat3.png",353,43,346,0.9,"stim/53.jpeg",5,3,3,2,"HouseObjects",2,2,"right","right",0.536999941,1,1,1,0,NA,NA,NA,NA,NA,NA,NA,NA,NA,NA,NA,NA,NA,NA,NA,NA,NA,NA,NA,NA,NA,NA,NA,NA
"523","stim/objects/Instruments/gong4.png",354,43,347,0.1,"stim/54.jpeg",5,4,3,1,"Instruments",1,2,"left","right",0.463999987,0,0,1,0,149,43,1,0.1,1,"stim/54.jpeg",5,4,"stim/54.jpeg",2,"right",2.677000284,2,3,0.957000256,4,0.578000069,149,0,0,NA,0,NA,0
"300","stim/objects/HouseObjects/doormat3.png",355,43,348,0.9,"stim/52.jpeg",5,2,3,2,"HouseObjects",2,2,"right","left",0.407000065,0,0,1,0,NA,NA,NA,NA,NA,NA,NA,NA,NA,NA,NA,NA,NA,NA,NA,NA,NA,NA,NA,NA,NA,NA,NA,NA
"317","stim/objects/HouseObjects/dustpan3.png",356,43,349,0.9,"stim/51.jpeg",5,1,3,2,"HouseObjects",2,2,"right","right",0.424999952,1,1,1,0,NA,NA,NA,NA,NA,NA,NA,NA,NA,NA,NA,NA,NA,NA,NA,NA,NA,NA,NA,NA,NA,NA,NA,NA
"439","stim/objects/Instruments/cymbal4.png",357,43,350,0.7,"stim/41.jpeg",4,1,2,1,"Instruments",1,2,"left","left",0.67599988,1,1,1,0,158,43,1,0.7,1,"stim/41.jpeg",4,1,"stim/41.jpeg",2,"right",1.095000267,2,1,1.962000132,2,0.697000027,158,0,1,NA,1,NA,0
"387","stim/objects/HouseObjects/ironingboard4.png",358,43,351,0.1,"stim/63.jpeg",6,3,3,1,"HouseObjects",2,4,"right","right",0.392999887,1,1,1,0,78,43,1,0.1,2,"stim/63.jpeg",6,3,"stim/63.jpeg",4,"left",1.197000265,3,3,0.930999994,2,0.736000299,78,1,1,1,0,0,0
"286","stim/objects/HouseObjects/cushion4.png",359,43,352,0.3,"stim/42.jpeg",4,2,2,1,"HouseObjects",2,2,"right","left",0.585000038,0,0,1,0,7,43,1,0.3,2,"stim/42.jpeg",4,2,"stim/42.jpeg",2,"left",3.229000092,4,2,2.881000042,1,1.373000145,7,1,1,1,0,0,0
"318","stim/objects/HouseObjects/dustpan3.png",360,43,353,0.9,"stim/51.jpeg",5,1,3,2,"HouseObjects",2,2,"right","right",0.541000128,1,1,1,0,NA,NA,NA,NA,NA,NA,NA,NA,NA,NA,NA,NA,NA,NA,NA,NA,NA,NA,NA,NA,NA,NA,NA,NA
"436","stim/objects/Instruments/cymbal3.png",361,43,354,0.7,"stim/43.jpeg",4,3,2,2,"Instruments",1,3,"left","left",0.649999857,1,1,1,0,NA,NA,NA,NA,NA,NA,NA,NA,NA,NA,NA,NA,NA,NA,NA,NA,NA,NA,NA,NA,NA,NA,NA,NA
"514","stim/objects/Instruments/gong3.png",362,43,355,0.9,"stim/63.jpeg",6,3,3,2,"Instruments",1,4,"left","left",0.512000084,1,1,1,0,NA,NA,NA,NA,NA,NA,NA,NA,NA,NA,NA,NA,NA,NA,NA,NA,NA,NA,NA,NA,NA,NA,NA,NA
"506","stim/objects/Instruments/frenchhorn4.png",363,43,356,0.1,"stim/53.jpeg",5,3,3,1,"Instruments",1,4,"left","right",0.458999872,0,0,1,0,64,43,1,0.1,1,"stim/53.jpeg",5,3,"stim/53.jpeg",4,"left",0.843000174,4,2,1.99000001,4,1.080000162,64,1,0,0,1,1,0
"319","stim/objects/HouseObjects/dustpan3.png",364,43,357,0.9,"stim/53.jpeg",5,3,3,2,"HouseObjects",2,4,"right","right",0.423000097,1,1,1,0,NA,NA,NA,NA,NA,NA,NA,NA,NA,NA,NA,NA,NA,NA,NA,NA,NA,NA,NA,NA,NA,NA,NA,NA
"287","stim/objects/HouseObjects/dishsoap3.png",365,43,358,0.7,"stim/33.jpeg",3,3,2,2,"HouseObjects",2,4,"right","left",0.530999899,0,0,1,0,NA,NA,NA,NA,NA,NA,NA,NA,NA,NA,NA,NA,NA,NA,NA,NA,NA,NA,NA,NA,NA,NA,NA,NA
"278","stim/objects/HouseObjects/clothespin4.png",366,43,359,0.3,"stim/44.jpeg",4,4,2,1,"HouseObjects",2,4,"right","right",0.376999855,1,1,1,0,160,43,1,0.3,2,"stim/44.jpeg",4,4,"stim/44.jpeg",4,"left",1.003000021,4,1,2.363000154,4,1.820000172,160,1,0,0,1,1,0
"281","stim/objects/HouseObjects/coffee3.png",367,43,360,0.7,"stim/31.jpeg",3,1,2,2,"HouseObjects",2,4,"right","right",0.378000021,1,1,1,0,NA,NA,NA,NA,NA,NA,NA,NA,NA,NA,NA,NA,NA,NA,NA,NA,NA,NA,NA,NA,NA,NA,NA,NA
"460","stim/objects/Instruments/flute3.png",368,43,361,0.9,"stim/64.jpeg",6,4,3,2,"Instruments",1,1,"left","left",0.493999958,1,1,1,0,NA,NA,NA,NA,NA,NA,NA,NA,NA,NA,NA,NA,NA,NA,NA,NA,NA,NA,NA,NA,NA,NA,NA,NA
"270","stim/objects/HouseObjects/clock4.png",369,43,362,0.3,"stim/42.jpeg",4,2,2,1,"HouseObjects",2,2,"right","right",0.417000055,1,1,1,0,132,43,1,0.3,2,"stim/42.jpeg",4,2,"stim/42.jpeg",2,"right",2.027000189,2,4,0.658000231,4,0.55700016,132,0,0,NA,0,NA,0
"414","stim/objects/Instruments/balalaika4.png",370,43,363,0.3,"stim/34.jpeg",3,4,2,1,"Instruments",1,2,"left","left",0.450999975,1,1,1,0,197,43,1,0.3,1,"stim/34.jpeg",3,4,"stim/34.jpeg",2,"left",1.286000252,1,2,0.559000254,1,1.420000315,197,1,0,0,0,0,0
"407","stim/objects/Instruments/accordion3.png",371,43,364,0.5,"stim/12.jpeg",1,2,1,2,"Instruments",1,4,"left","left",0.610000134,1,1,1,0,NA,NA,NA,NA,NA,NA,NA,NA,NA,NA,NA,NA,NA,NA,NA,NA,NA,NA,NA,NA,NA,NA,NA,NA
"265","stim/objects/HouseObjects/bucket3.png",372,43,365,0.5,"stim/21.jpeg",2,1,1,2,"HouseObjects",2,4,"right","left",0.562999964,0,0,1,0,NA,NA,NA,NA,NA,NA,NA,NA,NA,NA,NA,NA,NA,NA,NA,NA,NA,NA,NA,NA,NA,NA,NA,NA
"308","stim/objects/HouseObjects/dustpan3.png",373,43,366,0.9,"stim/52.jpeg",5,2,3,2,"HouseObjects",2,4,"right","right",0.46600008,1,1,1,0,NA,NA,NA,NA,NA,NA,NA,NA,NA,NA,NA,NA,NA,NA,NA,NA,NA,NA,NA,NA,NA,NA,NA,NA
"553","stim/objects/Instruments/maraca3.png",374,43,367,0.5,"stim/22.jpeg",2,2,1,1,"Instruments",1,3,"left","left",0.500999928,1,1,1,0,112,43,1,0.5,2,"stim/22.jpeg",2,2,"stim/22.jpeg",3,"right",1.27300024,1,2,0.671000242,2,0.99000001,112,0,1,NA,0,NA,0
"291","stim/objects/HouseObjects/doormat3.png",375,43,368,0.9,"stim/51.jpeg",5,1,3,2,"HouseObjects",2,2,"right","right",0.515000105,1,1,1,0,NA,NA,NA,NA,NA,NA,NA,NA,NA,NA,NA,NA,NA,NA,NA,NA,NA,NA,NA,NA,NA,NA,NA,NA
"289","stim/objects/HouseObjects/dishsoap3.png",376,43,369,0.7,"stim/31.jpeg",3,1,2,2,"HouseObjects",2,1,"right","right",0.530999899,1,1,1,0,NA,NA,NA,NA,NA,NA,NA,NA,NA,NA,NA,NA,NA,NA,NA,NA,NA,NA,NA,NA,NA,NA,NA,NA
"462","stim/objects/Instruments/flute3.png",377,43,370,0.9,"stim/62.jpeg",6,2,3,2,"Instruments",1,1,"left","left",0.431999922,1,1,1,0,NA,NA,NA,NA,NA,NA,NA,NA,NA,NA,NA,NA,NA,NA,NA,NA,NA,NA,NA,NA,NA,NA,NA,NA
"352","stim/objects/HouseObjects/garbagebin3.png",378,43,371,0.9,"stim/51.jpeg",5,1,3,2,"HouseObjects",2,4,"right","right",0.478999853,1,1,1,0,NA,NA,NA,NA,NA,NA,NA,NA,NA,NA,NA,NA,NA,NA,NA,NA,NA,NA,NA,NA,NA,NA,NA,NA
"399","stim/objects/HouseObjects/pitcher4.png",379,43,372,0.1,"stim/61.jpeg",6,1,3,1,"HouseObjects",2,4,"right","left",0.467000008,0,0,1,0,46,43,1,0.1,2,"stim/61.jpeg",6,1,"stim/61.jpeg",4,"right",0.957000017,1,4,0.957000017,2,0.903000116,46,0,0,NA,0,NA,0
"261","stim/objects/HouseObjects/bottle4.png",380,43,373,0.3,"stim/43.jpeg",4,3,2,1,"HouseObjects",2,3,"right","right",0.359999895,1,1,1,0,115,43,1,0.3,2,"stim/43.jpeg",4,3,"stim/43.jpeg",3,"right",0.700000286,3,3,0.878000021,4,0.774000168,115,0,1,NA,0,NA,0
"362","stim/objects/HouseObjects/glass3.png",381,43,374,0.9,"stim/52.jpeg",5,2,3,2,"HouseObjects",2,4,"right","right",0.325000048,1,1,1,0,NA,NA,NA,NA,NA,NA,NA,NA,NA,NA,NA,NA,NA,NA,NA,NA,NA,NA,NA,NA,NA,NA,NA,NA
"368","stim/objects/HouseObjects/glass3.png",382,43,375,0.9,"stim/51.jpeg",5,1,3,2,"HouseObjects",2,1,"right","right",0.338999987,1,1,1,0,NA,NA,NA,NA,NA,NA,NA,NA,NA,NA,NA,NA,NA,NA,NA,NA,NA,NA,NA,NA,NA,NA,NA,NA
"441","stim/objects/Instruments/doublebass3.png",383,43,376,0.7,"stim/42.jpeg",4,2,2,2,"Instruments",1,2,"left","right",0.489000082,0,0,1,0,NA,NA,NA,NA,NA,NA,NA,NA,NA,NA,NA,NA,NA,NA,NA,NA,NA,NA,NA,NA,NA,NA,NA,NA
"320","stim/objects/HouseObjects/dustpan3.png",384,43,377,0.9,"stim/54.jpeg",5,4,3,2,"HouseObjects",2,2,"right","right",0.588999987,1,1,1,0,NA,NA,NA,NA,NA,NA,NA,NA,NA,NA,NA,NA,NA,NA,NA,NA,NA,NA,NA,NA,NA,NA,NA,NA
"378","stim/objects/HouseObjects/hairdryer3.png",385,43,378,0.5,"stim/13.jpeg",1,3,1,1,"HouseObjects",2,1,"right","right",0.351999998,1,1,1,0,136,43,1,0.5,1,"stim/13.jpeg",1,3,"stim/13.jpeg",1,"right",0.821000099,2,3,0.570000172,2,0.649000168,136,0,1,NA,0,NA,0
"479","stim/objects/Instruments/flutetrans3.png",386,43,379,0.9,"stim/63.jpeg",6,3,3,2,"Instruments",1,1,"left","left",0.486999989,1,1,1,0,NA,NA,NA,NA,NA,NA,NA,NA,NA,NA,NA,NA,NA,NA,NA,NA,NA,NA,NA,NA,NA,NA,NA,NA
"353","stim/objects/HouseObjects/garbagebin3.png",387,43,380,0.9,"stim/54.jpeg",5,4,3,2,"HouseObjects",2,2,"right","right",0.444000006,1,1,1,0,NA,NA,NA,NA,NA,NA,NA,NA,NA,NA,NA,NA,NA,NA,NA,NA,NA,NA,NA,NA,NA,NA,NA,NA
"457","stim/objects/Instruments/flute3.png",388,43,381,0.9,"stim/61.jpeg",6,1,3,2,"Instruments",1,1,"left","left",0.542000055,1,1,1,0,NA,NA,NA,NA,NA,NA,NA,NA,NA,NA,NA,NA,NA,NA,NA,NA,NA,NA,NA,NA,NA,NA,NA,NA
"463","stim/objects/Instruments/flute3.png",389,43,382,0.9,"stim/62.jpeg",6,2,3,2,"Instruments",1,3,"left","left",0.462000132,1,1,1,0,NA,NA,NA,NA,NA,NA,NA,NA,NA,NA,NA,NA,NA,NA,NA,NA,NA,NA,NA,NA,NA,NA,NA,NA
"421","stim/objects/Instruments/bassguitar3.png",390,43,383,0.5,"stim/23.jpeg",2,3,1,2,"Instruments",1,4,"left","right",0.325999975,0,0,1,0,NA,NA,NA,NA,NA,NA,NA,NA,NA,NA,NA,NA,NA,NA,NA,NA,NA,NA,NA,NA,NA,NA,NA,NA
"437","stim/objects/Instruments/cymbal3.png",391,43,384,0.7,"stim/42.jpeg",4,2,2,2,"Instruments",1,4,"left","left",0.479000092,1,1,1,0,NA,NA,NA,NA,NA,NA,NA,NA,NA,NA,NA,NA,NA,NA,NA,NA,NA,NA,NA,NA,NA,NA,NA,NA
"473","stim/objects/Instruments/flutetrans3.png",392,43,385,0.9,"stim/62.jpeg",6,2,3,2,"Instruments",1,2,"left","left",0.530999899,1,1,1,0,NA,NA,NA,NA,NA,NA,NA,NA,NA,NA,NA,NA,NA,NA,NA,NA,NA,NA,NA,NA,NA,NA,NA,NA
"301","stim/objects/HouseObjects/doormat3.png",393,43,386,0.9,"stim/54.jpeg",5,4,3,2,"HouseObjects",2,4,"right","right",0.463999987,1,1,1,0,NA,NA,NA,NA,NA,NA,NA,NA,NA,NA,NA,NA,NA,NA,NA,NA,NA,NA,NA,NA,NA,NA,NA,NA
"412","stim/objects/Instruments/balalaika3.png",394,43,387,0.5,"stim/13.jpeg",1,3,1,2,"Instruments",1,1,"left","right",0.495000124,0,0,1,0,NA,NA,NA,NA,NA,NA,NA,NA,NA,NA,NA,NA,NA,NA,NA,NA,NA,NA,NA,NA,NA,NA,NA,NA
"253","stim/objects/HouseObjects/bleachbottle3.png",395,43,388,0.5,"stim/11.jpeg",1,1,1,2,"HouseObjects",2,1,"right","right",0.661999941,1,1,1,0,NA,NA,NA,NA,NA,NA,NA,NA,NA,NA,NA,NA,NA,NA,NA,NA,NA,NA,NA,NA,NA,NA,NA,NA
"272","stim/objects/HouseObjects/clothesdryingrack3.png",396,43,389,0.7,"stim/33.jpeg",3,3,2,2,"HouseObjects",2,4,"right","right",0.677000046,1,1,1,0,NA,NA,NA,NA,NA,NA,NA,NA,NA,NA,NA,NA,NA,NA,NA,NA,NA,NA,NA,NA,NA,NA,NA,NA
"255","stim/objects/HouseObjects/bleachbottle4.png",397,43,390,0.7,"stim/33.jpeg",3,3,2,1,"HouseObjects",2,2,"right","right",0.440999985,1,1,1,0,34,43,1,0.7,2,"stim/33.jpeg",3,3,"stim/33.jpeg",2,"left",2.37100029,3,4,1.330000401,4,2.131000042,34,1,0,0,0,0,0
"442","stim/objects/Instruments/doublebass3.png",398,43,391,0.7,"stim/43.jpeg",4,3,2,2,"Instruments",1,2,"left","right",0.462000132,0,0,1,0,NA,NA,NA,NA,NA,NA,NA,NA,NA,NA,NA,NA,NA,NA,NA,NA,NA,NA,NA,NA,NA,NA,NA,NA
"244","stim/objects/HouseObjects/ballofstring3.png",399,43,392,0.5,"stim/12.jpeg",1,2,1,2,"HouseObjects",2,4,"right","right",0.536999941,1,1,1,0,NA,NA,NA,NA,NA,NA,NA,NA,NA,NA,NA,NA,NA,NA,NA,NA,NA,NA,NA,NA,NA,NA,NA,NA
"481","stim/objects/Instruments/flutetrans3.png",400,43,393,0.9,"stim/64.jpeg",6,4,3,2,"Instruments",1,2,"left","left",0.412999868,1,1,1,0,NA,NA,NA,NA,NA,NA,NA,NA,NA,NA,NA,NA,NA,NA,NA,NA,NA,NA,NA,NA,NA,NA,NA,NA
"358","stim/objects/HouseObjects/garbagebin4.png",401,43,394,0.9,"stim/52.jpeg",5,2,3,1,"HouseObjects",2,1,"right","right",0.444999933,1,1,1,0,147,43,1,0.9,2,"stim/52.jpeg",5,2,"stim/52.jpeg",1,"left",1.109000206,4,2,1.376000166,4,0.633000374,147,1,1,1,0,0,0
"490","stim/objects/Instruments/frenchhorn3.png",402,43,395,0.9,"stim/63.jpeg",6,3,3,2,"Instruments",1,3,"left","right",0.454999924,0,0,1,0,NA,NA,NA,NA,NA,NA,NA,NA,NA,NA,NA,NA,NA,NA,NA,NA,NA,NA,NA,NA,NA,NA,NA,NA
"546","stim/objects/Instruments/harp4.png",403,43,396,0.1,"stim/54.jpeg",5,4,3,1,"Instruments",1,2,"left","right",0.582999945,0,0,1,0,174,43,1,0.1,1,"stim/54.jpeg",5,4,"stim/54.jpeg",2,"right",1.341000319,1,2,0.899000168,2,0.910000086,174,0,0,NA,1,NA,0
"344","stim/objects/HouseObjects/garbagebin3.png",404,43,397,0.9,"stim/52.jpeg",5,2,3,2,"HouseObjects",2,4,"right","right",0.475999832,1,1,1,0,NA,NA,NA,NA,NA,NA,NA,NA,NA,NA,NA,NA,NA,NA,NA,NA,NA,NA,NA,NA,NA,NA,NA,NA
"555","stim/objects/Instruments/marimba3.png",405,43,398,0.5,"stim/23.jpeg",2,3,1,1,"Instruments",1,2,"left","right",0.426000118,0,0,1,0,70,43,1,0.5,2,"stim/23.jpeg",2,3,"stim/23.jpeg",2,"right",1.904000282,3,3,2.007000208,4,1.618000269,70,0,1,NA,0,NA,0
"566","stim/objects/Instruments/violin4.png",406,43,399,0.9,"stim/64.jpeg",6,4,3,1,"Instruments",1,3,"left","left",0.549000025,1,1,1,0,13,43,1,0.9,1,"stim/64.jpeg",6,4,"stim/64.jpeg",3,"left",1.721000195,2,1,1.333000183,3,1.258000135,13,1,0,0,1,1,0
"354","stim/objects/HouseObjects/garbagebin3.png",407,43,400,0.9,"stim/54.jpeg",5,4,3,2,"HouseObjects",2,3,"right","left",0.453999996,0,0,1,0,NA,NA,NA,NA,NA,NA,NA,NA,NA,NA,NA,NA,NA,NA,NA,NA,NA,NA,NA,NA,NA,NA,NA,NA
"501","stim/objects/Instruments/frenchhorn3.png",408,43,401,0.9,"stim/61.jpeg",6,1,3,2,"Instruments",1,1,"left","left",0.539999962,1,1,1,0,NA,NA,NA,NA,NA,NA,NA,NA,NA,NA,NA,NA,NA,NA,NA,NA,NA,NA,NA,NA,NA,NA,NA,NA
"547","stim/objects/Instruments/hihat3.png",409,43,402,0.5,"stim/12.jpeg",1,2,1,1,"Instruments",1,3,"left","left",0.661999941,1,1,1,0,99,43,1,0.5,1,"stim/12.jpeg",1,2,"stim/12.jpeg",3,"right",2.860000372,2,3,0.636000156,4,0.675000191,99,0,0,NA,0,NA,0
"461","stim/objects/Instruments/flute3.png",410,43,403,0.9,"stim/64.jpeg",6,4,3,2,"Instruments",1,3,"left","left",0.461000204,1,1,1,0,NA,NA,NA,NA,NA,NA,NA,NA,NA,NA,NA,NA,NA,NA,NA,NA,NA,NA,NA,NA,NA,NA,NA,NA
"466","stim/objects/Instruments/flute3.png",411,43,404,0.9,"stim/64.jpeg",6,4,3,2,"Instruments",1,4,"left","left",0.607000113,1,1,1,0,NA,NA,NA,NA,NA,NA,NA,NA,NA,NA,NA,NA,NA,NA,NA,NA,NA,NA,NA,NA,NA,NA,NA,NA
"484","stim/objects/Instruments/flutetrans3.png",412,43,405,0.9,"stim/62.jpeg",6,2,3,2,"Instruments",1,4,"left","left",0.866999865,1,1,1,0,NA,NA,NA,NA,NA,NA,NA,NA,NA,NA,NA,NA,NA,NA,NA,NA,NA,NA,NA,NA,NA,NA,NA,NA
"388","stim/objects/HouseObjects/key3.png",413,43,406,0.5,"stim/21.jpeg",2,1,1,1,"HouseObjects",2,4,"right","left",0.627000093,0,0,1,0,92,43,1,0.5,2,"stim/21.jpeg",2,1,"stim/21.jpeg",4,"right",0.853000164,1,2,0.514000177,1,0.516000032,92,0,0,NA,0,NA,0
"322","stim/objects/HouseObjects/dustpan3.png",414,43,407,0.9,"stim/53.jpeg",5,3,3,2,"HouseObjects",2,4,"right","right",0.545000076,1,1,1,0,NA,NA,NA,NA,NA,NA,NA,NA,NA,NA,NA,NA,NA,NA,NA,NA,NA,NA,NA,NA,NA,NA,NA,NA
"467","stim/objects/Instruments/flute3.png",415,43,408,0.9,"stim/61.jpeg",6,1,3,2,"Instruments",1,2,"left","right",0.560000181,0,0,1,0,NA,NA,NA,NA,NA,NA,NA,NA,NA,NA,NA,NA,NA,NA,NA,NA,NA,NA,NA,NA,NA,NA,NA,NA
"335","stim/objects/HouseObjects/flyswatter3.png",416,43,409,0.9,"stim/53.jpeg",5,3,3,2,"HouseObjects",2,2,"right","right",0.427999973,1,1,1,0,NA,NA,NA,NA,NA,NA,NA,NA,NA,NA,NA,NA,NA,NA,NA,NA,NA,NA,NA,NA,NA,NA,NA,NA
"346","stim/objects/HouseObjects/garbagebin3.png",417,43,410,0.9,"stim/51.jpeg",5,1,3,2,"HouseObjects",2,1,"right","right",0.484999895,1,1,1,0,NA,NA,NA,NA,NA,NA,NA,NA,NA,NA,NA,NA,NA,NA,NA,NA,NA,NA,NA,NA,NA,NA,NA,NA
"493","stim/objects/Instruments/frenchhorn3.png",418,43,411,0.9,"stim/62.jpeg",6,2,3,2,"Instruments",1,4,"left","right",0.394000053,0,0,1,0,NA,NA,NA,NA,NA,NA,NA,NA,NA,NA,NA,NA,NA,NA,NA,NA,NA,NA,NA,NA,NA,NA,NA,NA
"475","stim/objects/Instruments/flutetrans3.png",419,43,412,0.9,"stim/64.jpeg",6,4,3,2,"Instruments",1,1,"left","left",0.501999855,1,1,1,0,NA,NA,NA,NA,NA,NA,NA,NA,NA,NA,NA,NA,NA,NA,NA,NA,NA,NA,NA,NA,NA,NA,NA,NA
"275","stim/objects/HouseObjects/clothespin3.png",420,43,413,0.7,"stim/34.jpeg",3,4,2,2,"HouseObjects",2,4,"right","right",0.35800004,1,1,1,0,NA,NA,NA,NA,NA,NA,NA,NA,NA,NA,NA,NA,NA,NA,NA,NA,NA,NA,NA,NA,NA,NA,NA,NA
"251","stim/objects/HouseObjects/basket3.png",421,43,414,0.5,"stim/13.jpeg",1,3,1,2,"HouseObjects",2,3,"right","left",0.354000092,0,0,1,0,NA,NA,NA,NA,NA,NA,NA,NA,NA,NA,NA,NA,NA,NA,NA,NA,NA,NA,NA,NA,NA,NA,NA,NA
"446","stim/objects/Instruments/drums3.png",422,43,415,0.7,"stim/44.jpeg",4,4,2,2,"Instruments",1,4,"left","right",0.447999954,0,0,1,0,NA,NA,NA,NA,NA,NA,NA,NA,NA,NA,NA,NA,NA,NA,NA,NA,NA,NA,NA,NA,NA,NA,NA,NA
"458","stim/objects/Instruments/flute3.png",423,43,416,0.9,"stim/63.jpeg",6,3,3,2,"Instruments",1,1,"left","right",0.40899992,0,0,1,0,NA,NA,NA,NA,NA,NA,NA,NA,NA,NA,NA,NA,NA,NA,NA,NA,NA,NA,NA,NA,NA,NA,NA,NA
"435","stim/objects/Instruments/cornet4.png",424,43,417,0.7,"stim/44.jpeg",4,4,2,1,"Instruments",1,4,"left","left",0.473999977,1,1,1,0,124,43,1,0.7,1,"stim/44.jpeg",4,4,"stim/44.jpeg",4,"left",0.948000193,4,4,4.349000216,2,1.711000204,124,1,1,1,0,0,0
"549","stim/objects/Instruments/keyboard3.png",425,43,418,0.5,"stim/13.jpeg",1,3,1,1,"Instruments",1,2,"left","right",0.504000187,0,0,1,0,109,43,1,0.5,1,"stim/13.jpeg",1,3,"stim/13.jpeg",2,"left",0.616000175,4,2,1.387000084,2,1.250000238,109,1,0,0,1,1,0
"294","stim/objects/HouseObjects/doormat3.png",426,43,419,0.9,"stim/53.jpeg",5,3,3,2,"HouseObjects",2,4,"right","right",0.597000122,1,1,1,0,NA,NA,NA,NA,NA,NA,NA,NA,NA,NA,NA,NA,NA,NA,NA,NA,NA,NA,NA,NA,NA,NA,NA,NA
"381","stim/objects/HouseObjects/handbrush4.png",427,43,420,0.9,"stim/52.jpeg",5,2,3,1,"HouseObjects",2,1,"right","right",0.54399991,1,1,1,0,80,43,1,0.9,2,"stim/52.jpeg",5,2,"stim/52.jpeg",1,"left",1.19900012,4,1,0.963000059,4,1.946000099,80,1,0,0,0,0,0
"254","stim/objects/HouseObjects/bleachbottle3.png",428,43,421,0.5,"stim/14.jpeg",1,4,1,2,"HouseObjects",2,3,"right","right",0.542000055,1,1,1,0,NA,NA,NA,NA,NA,NA,NA,NA,NA,NA,NA,NA,NA,NA,NA,NA,NA,NA,NA,NA,NA,NA,NA,NA
"245","stim/objects/HouseObjects/ballofstring3.png",429,43,422,0.5,"stim/11.jpeg",1,1,1,2,"HouseObjects",2,2,"right","right",0.384000063,1,1,1,0,NA,NA,NA,NA,NA,NA,NA,NA,NA,NA,NA,NA,NA,NA,NA,NA,NA,NA,NA,NA,NA,NA,NA,NA
"402","stim/objects/HouseObjects/vacuumcleaner3.png",430,43,423,0.7,"stim/31.jpeg",3,1,2,1,"HouseObjects",2,3,"right","right",0.475000143,1,1,1,0,138,43,1,0.7,2,"stim/31.jpeg",3,1,"stim/31.jpeg",3,"right",1.029000282,2,4,2.567000151,2,1.441000223,138,0,0,NA,0,NA,0
"447","stim/objects/Instruments/drums4.png",431,43,424,0.7,"stim/43.jpeg",4,3,2,1,"Instruments",1,4,"left","right",0.361000061,0,0,1,0,107,43,1,0.7,1,"stim/43.jpeg",4,3,"stim/43.jpeg",4,"left",2.525000334,4,3,1.892000198,2,1.053000212,107,1,1,1,0,0,0
"347","stim/objects/HouseObjects/garbagebin3.png",432,43,425,0.9,"stim/53.jpeg",5,3,3,2,"HouseObjects",2,4,"right","right",0.470999956,1,1,1,0,NA,NA,NA,NA,NA,NA,NA,NA,NA,NA,NA,NA,NA,NA,NA,NA,NA,NA,NA,NA,NA,NA,NA,NA
"560","stim/objects/Instruments/musicsheet4.png",433,43,426,0.9,"stim/61.jpeg",6,1,3,1,"Instruments",1,1,"left","left",0.401000023,1,1,1,0,33,43,1,0.9,1,"stim/61.jpeg",6,1,"stim/61.jpeg",1,"right",0.957000017,2,1,0.916000128,3,1.549000263,33,0,1,NA,0,NA,0
"365","stim/objects/HouseObjects/glass3.png",434,43,427,0.9,"stim/53.jpeg",5,3,3,2,"HouseObjects",2,2,"right","right",0.32799983,1,1,1,0,NA,NA,NA,NA,NA,NA,NA,NA,NA,NA,NA,NA,NA,NA,NA,NA,NA,NA,NA,NA,NA,NA,NA,NA
"243","stim/objects/HouseObjects/ashtray4.png",435,43,428,0.7,"stim/33.jpeg",3,3,2,1,"HouseObjects",2,1,"right","right",0.382999897,1,1,1,0,17,43,1,0.7,2,"stim/33.jpeg",3,3,"stim/33.jpeg",1,"right",1.156000137,1,2,1.868999958,2,1.594000101,17,0,0,NA,0,NA,0
"404","stim/objects/HouseObjects/wateringcan3.png",436,43,429,0.7,"stim/32.jpeg",3,2,2,1,"HouseObjects",2,3,"right","right",0.446000099,1,1,1,0,173,43,1,0.7,2,"stim/32.jpeg",3,2,"stim/32.jpeg",3,"left",0.995000124,4,4,1.961000204,2,1.491000175,173,1,0,0,0,0,0
"528","stim/objects/Instruments/grandpiano3.png",437,43,430,0.9,"stim/61.jpeg",6,1,3,2,"Instruments",1,4,"left","right",0.371000051,0,0,1,0,NA,NA,NA,NA,NA,NA,NA,NA,NA,NA,NA,NA,NA,NA,NA,NA,NA,NA,NA,NA,NA,NA,NA,NA
"468","stim/objects/Instruments/flute3.png",438,43,431,0.9,"stim/62.jpeg",6,2,3,2,"Instruments",1,3,"left","left",0.546000004,1,1,1,0,NA,NA,NA,NA,NA,NA,NA,NA,NA,NA,NA,NA,NA,NA,NA,NA,NA,NA,NA,NA,NA,NA,NA,NA
"250","stim/objects/HouseObjects/basket3.png",439,43,432,0.5,"stim/14.jpeg",1,4,1,2,"HouseObjects",2,1,"right","right",0.449999809,1,1,1,0,NA,NA,NA,NA,NA,NA,NA,NA,NA,NA,NA,NA,NA,NA,NA,NA,NA,NA,NA,NA,NA,NA,NA,NA
"401","stim/objects/HouseObjects/towel4.png",440,43,433,0.1,"stim/62.jpeg",6,2,3,1,"HouseObjects",2,2,"right","right",0.437999964,1,1,1,0,97,43,1,0.1,2,"stim/62.jpeg",6,2,"stim/62.jpeg",2,"right",1.252000093,4,2,0.53000021,4,0.812999964,97,0,1,NA,0,NA,0
"329","stim/objects/HouseObjects/flyswatter3.png",441,43,434,0.9,"stim/54.jpeg",5,4,3,2,"HouseObjects",2,2,"right","left",0.378000021,0,0,1,0,NA,NA,NA,NA,NA,NA,NA,NA,NA,NA,NA,NA,NA,NA,NA,NA,NA,NA,NA,NA,NA,NA,NA,NA
"419","stim/objects/Instruments/bassdrum3.png",442,43,435,0.5,"stim/12.jpeg",1,2,1,2,"Instruments",1,4,"left","right",0.378999949,0,0,1,0,NA,NA,NA,NA,NA,NA,NA,NA,NA,NA,NA,NA,NA,NA,NA,NA,NA,NA,NA,NA,NA,NA,NA,NA
"482","stim/objects/Instruments/flutetrans3.png",443,43,436,0.9,"stim/63.jpeg",6,3,3,2,"Instruments",1,1,"left","right",0.382999897,0,0,1,0,NA,NA,NA,NA,NA,NA,NA,NA,NA,NA,NA,NA,NA,NA,NA,NA,NA,NA,NA,NA,NA,NA,NA,NA
"262","stim/objects/HouseObjects/broom3.png",444,43,437,0.5,"stim/24.jpeg",2,4,1,2,"HouseObjects",2,4,"right","left",0.611000061,0,0,1,0,NA,NA,NA,NA,NA,NA,NA,NA,NA,NA,NA,NA,NA,NA,NA,NA,NA,NA,NA,NA,NA,NA,NA,NA
"321","stim/objects/HouseObjects/dustpan3.png",445,43,438,0.9,"stim/54.jpeg",5,4,3,2,"HouseObjects",2,1,"right","right",0.496999979,1,1,1,0,NA,NA,NA,NA,NA,NA,NA,NA,NA,NA,NA,NA,NA,NA,NA,NA,NA,NA,NA,NA,NA,NA,NA,NA
"271","stim/objects/HouseObjects/clothesdryingrack3.png",446,43,439,0.7,"stim/31.jpeg",3,1,2,2,"HouseObjects",2,1,"right","right",0.479000092,1,1,1,0,NA,NA,NA,NA,NA,NA,NA,NA,NA,NA,NA,NA,NA,NA,NA,NA,NA,NA,NA,NA,NA,NA,NA,NA
"403","stim/objects/HouseObjects/vacuumcleaner4.png",447,43,440,0.1,"stim/63.jpeg",6,3,3,1,"HouseObjects",2,4,"right","left",0.513999939,0,0,1,0,44,43,1,0.1,2,"stim/63.jpeg",6,3,"stim/63.jpeg",4,"right",0.827000141,1,1,0.570000172,1,0.476000309,44,0,0,NA,0,NA,0
"570","stim/objects/Instruments/xylophone4.png",448,43,441,0.9,"stim/62.jpeg",6,2,3,1,"Instruments",1,4,"left","left",0.536999941,1,1,1,0,191,43,1,0.9,1,"stim/62.jpeg",6,2,"stim/62.jpeg",4,"left",0.6650002,3,4,1.04700017,2,0.726000309,191,1,0,0,0,0,0
"312","stim/objects/HouseObjects/dustpan3.png",449,43,442,0.9,"stim/52.jpeg",5,2,3,2,"HouseObjects",2,1,"right","right",0.480000019,1,1,1,0,NA,NA,NA,NA,NA,NA,NA,NA,NA,NA,NA,NA,NA,NA,NA,NA,NA,NA,NA,NA,NA,NA,NA,NA
"259","stim/objects/HouseObjects/bottle3.png",450,43,443,0.5,"stim/24.jpeg",2,4,1,2,"HouseObjects",2,1,"right","left",0.490999937,0,0,1,0,NA,NA,NA,NA,NA,NA,NA,NA,NA,NA,NA,NA,NA,NA,NA,NA,NA,NA,NA,NA,NA,NA,NA,NA
"488","stim/objects/Instruments/flutetrans3.png",451,43,444,0.9,"stim/64.jpeg",6,4,3,2,"Instruments",1,1,"left","right",0.400999784,0,0,1,0,NA,NA,NA,NA,NA,NA,NA,NA,NA,NA,NA,NA,NA,NA,NA,NA,NA,NA,NA,NA,NA,NA,NA,NA
"434","stim/objects/Instruments/cornet3.png",452,43,445,0.5,"stim/24.jpeg",2,4,1,2,"Instruments",1,3,"left","left",0.605999947,1,1,1,0,NA,NA,NA,NA,NA,NA,NA,NA,NA,NA,NA,NA,NA,NA,NA,NA,NA,NA,NA,NA,NA,NA,NA,NA
"443","stim/objects/Instruments/doublebass4.png",453,43,446,0.7,"stim/42.jpeg",4,2,2,1,"Instruments",1,4,"left","left",0.595999956,1,1,1,0,75,43,1,0.7,1,"stim/42.jpeg",4,2,"stim/42.jpeg",4,"right",4.045000076,2,1,0.684000015,3,1.622000217,75,0,0,NA,0,NA,0
"552","stim/objects/Instruments/laud4.png",454,43,447,0.9,"stim/61.jpeg",6,1,3,1,"Instruments",1,2,"left","left",0.44299984,1,1,1,0,14,43,1,0.9,1,"stim/61.jpeg",6,1,"stim/61.jpeg",2,"left",1.268000126,3,4,1.678000212,2,2.144000292,14,1,0,0,1,1,0
"469","stim/objects/Instruments/flute3.png",455,43,448,0.9,"stim/61.jpeg",6,1,3,2,"Instruments",1,1,"left","left",0.476000071,1,1,1,0,NA,NA,NA,NA,NA,NA,NA,NA,NA,NA,NA,NA,NA,NA,NA,NA,NA,NA,NA,NA,NA,NA,NA,NA
"536","stim/objects/Instruments/grandpiano3.png",456,43,449,0.9,"stim/63.jpeg",6,3,3,2,"Instruments",1,3,"left","left",0.462000132,1,1,1,0,NA,NA,NA,NA,NA,NA,NA,NA,NA,NA,NA,NA,NA,NA,NA,NA,NA,NA,NA,NA,NA,NA,NA,NA
"380","stim/objects/HouseObjects/handbrush3.png",457,43,450,0.5,"stim/14.jpeg",1,4,1,1,"HouseObjects",2,2,"right","right",0.411000013,1,1,1,0,85,43,1,0.5,1,"stim/14.jpeg",1,4,"stim/14.jpeg",2,"left",2.610000134,4,3,6.2900002,4,0.709000111,85,1,0,0,0,0,0
"416","stim/objects/Instruments/banjo3.png",458,43,451,0.5,"stim/14.jpeg",1,4,1,2,"Instruments",1,4,"left","right",0.413000107,0,0,1,0,NA,NA,NA,NA,NA,NA,NA,NA,NA,NA,NA,NA,NA,NA,NA,NA,NA,NA,NA,NA,NA,NA,NA,NA
"413","stim/objects/Instruments/balalaika3.png",459,43,452,0.5,"stim/14.jpeg",1,4,1,2,"Instruments",1,1,"left","left",0.404000044,1,1,1,0,NA,NA,NA,NA,NA,NA,NA,NA,NA,NA,NA,NA,NA,NA,NA,NA,NA,NA,NA,NA,NA,NA,NA,NA
"538","stim/objects/Instruments/grandpiano3.png",460,43,453,0.9,"stim/64.jpeg",6,4,3,2,"Instruments",1,4,"left","left",0.460999966,1,1,1,0,NA,NA,NA,NA,NA,NA,NA,NA,NA,NA,NA,NA,NA,NA,NA,NA,NA,NA,NA,NA,NA,NA,NA,NA
"379","stim/objects/HouseObjects/hairdryer4.png",461,43,454,0.9,"stim/51.jpeg",5,1,3,1,"HouseObjects",2,4,"right","right",0.410000086,1,1,1,0,22,43,1,0.9,2,"stim/51.jpeg",5,1,"stim/51.jpeg",4,"right",1.254000187,4,3,3.343000174,2,1.184000015,22,0,0,NA,0,NA,0
"516","stim/objects/Instruments/gong3.png",462,43,455,0.9,"stim/63.jpeg",6,3,3,2,"Instruments",1,4,"left","right",0.39199996,0,0,1,0,NA,NA,NA,NA,NA,NA,NA,NA,NA,NA,NA,NA,NA,NA,NA,NA,NA,NA,NA,NA,NA,NA,NA,NA
"451","stim/objects/Instruments/electricdrumset4.png",463,43,456,0.7,"stim/44.jpeg",4,4,2,1,"Instruments",1,3,"left","left",0.481999874,1,1,1,0,9,43,1,0.7,1,"stim/44.jpeg",4,4,"stim/44.jpeg",3,"right",4.069000244,4,3,0.88499999,4,0.599000216,9,0,0,NA,0,NA,0
"531","stim/objects/Instruments/grandpiano3.png",464,43,457,0.9,"stim/62.jpeg",6,2,3,2,"Instruments",1,2,"left","left",0.430999994,1,1,1,0,NA,NA,NA,NA,NA,NA,NA,NA,NA,NA,NA,NA,NA,NA,NA,NA,NA,NA,NA,NA,NA,NA,NA,NA
"485","stim/objects/Instruments/flutetrans3.png",465,43,458,0.9,"stim/61.jpeg",6,1,3,2,"Instruments",1,3,"left","left",0.393000126,1,1,1,0,NA,NA,NA,NA,NA,NA,NA,NA,NA,NA,NA,NA,NA,NA,NA,NA,NA,NA,NA,NA,NA,NA,NA,NA
"290","stim/objects/HouseObjects/dishsoap4.png",466,43,459,0.3,"stim/43.jpeg",4,3,2,1,"HouseObjects",2,1,"right","left",0.540999889,0,0,1,0,57,43,1,0.3,2,"stim/43.jpeg",4,3,"stim/43.jpeg",1,"left",1.738000154,4,1,12.09200025,4,4.191000223,57,1,0,0,0,0,0
