"","participant","trialN","trial_cond","scn_file","scn_cat","scn_inst","scn_condition","fillers","obj_cat","obj_cat_num","obj_file","quadrant","corr_ans","key_resp_trial.keys","key_resp_trial.rt","trial_acc","trial_acc_manual","group"
"248",58,241,0.9,"stim/61.jpeg",6,1,3,2,"Instruments",1,"stim/objects/Instruments/grandpiano3.png",4,"left","",NA,0,0,1
"249",58,242,0.7,"stim/33.jpeg",3,3,2,1,"HouseObjects",2,"stim/objects/HouseObjects/ashtray4.png",1,"right","",NA,0,0,1
"250",58,243,0.5,"stim/14.jpeg",1,4,1,2,"Instruments",1,"stim/objects/Instruments/balalaika3.png",1,"left","right",0.604000092,0,0,1
"251",58,244,0.9,"stim/51.jpeg",5,1,3,2,"HouseObjects",2,"stim/objects/HouseObjects/glass3.png",3,"right","right",0.720000029,1,1,1
"252",58,245,0.9,"stim/53.jpeg",5,3,3,2,"HouseObjects",2,"stim/objects/HouseObjects/flyswatter3.png",2,"right","right",0.51300025,1,1,1
"253",58,246,0.9,"stim/61.jpeg",6,1,3,2,"Instruments",1,"stim/objects/Instruments/flute3.png",2,"left","left",0.647000074,1,1,1
"254",58,247,0.9,"stim/51.jpeg",5,1,3,2,"HouseObjects",2,"stim/objects/HouseObjects/doormat3.png",2,"right","right",0.534999847,1,1,1
"255",58,248,0.7,"stim/43.jpeg",4,3,2,2,"Instruments",1,"stim/objects/Instruments/doublebass3.png",2,"left","left",0.635999918,1,1,1
"256",58,249,0.3,"stim/44.jpeg",4,4,2,1,"HouseObjects",2,"stim/objects/HouseObjects/broom4.png",2,"right","right",0.601000071,1,1,1
"257",58,250,0.1,"stim/52.jpeg",5,2,3,1,"Instruments",1,"stim/objects/Instruments/flutetrans4.png",4,"left","right",0.492000103,0,0,1
"258",58,251,0.7,"stim/44.jpeg",4,4,2,1,"Instruments",1,"stim/objects/Instruments/bassguitar4.png",1,"left","right",0.60800004,0,0,1
"259",58,252,0.5,"stim/13.jpeg",1,3,1,1,"Instruments",1,"stim/objects/Instruments/keyboard3.png",2,"left","right",0.670000076,0,0,1
"260",58,253,0.9,"stim/61.jpeg",6,1,3,2,"Instruments",1,"stim/objects/Instruments/gong3.png",1,"left","left",0.684000015,1,1,1
"261",58,254,0.7,"stim/43.jpeg",4,3,2,2,"Instruments",1,"stim/objects/Instruments/drums3.png",3,"left","right",0.559000015,0,0,1
"262",58,255,0.9,"stim/63.jpeg",6,3,3,2,"Instruments",1,"stim/objects/Instruments/gong3.png",4,"left","left",0.548000097,1,1,1
"263",58,256,0.5,"stim/13.jpeg",1,3,1,2,"HouseObjects",2,"stim/objects/HouseObjects/barbecuelighter3.png",3,"right","",NA,0,0,1
"264",58,257,0.9,"stim/51.jpeg",5,1,3,2,"HouseObjects",2,"stim/objects/HouseObjects/flyswatter3.png",3,"right","right",0.520000219,1,1,1
"265",58,258,0.7,"stim/32.jpeg",3,2,2,1,"HouseObjects",2,"stim/objects/HouseObjects/basket4.png",2,"right","left",0.585999966,0,0,1
"266",58,259,0.9,"stim/62.jpeg",6,2,3,2,"Instruments",1,"stim/objects/Instruments/grandpiano3.png",4,"left","left",0.70600009,1,1,1
"267",58,260,0.5,"stim/24.jpeg",2,4,1,1,"Instruments",1,"stim/objects/Instruments/metronome3.png",2,"left","right",0.421999931,0,0,1
"268",58,261,0.9,"stim/62.jpeg",6,2,3,2,"Instruments",1,"stim/objects/Instruments/flute3.png",1,"left","left",0.496999979,1,1,1
"269",58,262,0.9,"stim/64.jpeg",6,4,3,2,"Instruments",1,"stim/objects/Instruments/frenchhorn3.png",3,"left","left",0.602999926,1,1,1
"270",58,263,0.3,"stim/43.jpeg",4,3,2,1,"HouseObjects",2,"stim/objects/HouseObjects/bottle4.png",3,"right","right",0.571000099,1,1,1
"271",58,264,0.9,"stim/63.jpeg",6,3,3,1,"Instruments",1,"stim/objects/Instruments/marimba4.png",3,"left","right",0.523999929,0,0,1
"272",58,265,0.9,"stim/62.jpeg",6,2,3,2,"Instruments",1,"stim/objects/Instruments/grandpiano3.png",3,"left","left",0.489000082,1,1,1
"273",58,266,0.9,"stim/53.jpeg",5,3,3,2,"HouseObjects",2,"stim/objects/HouseObjects/glass3.png",2,"right","right",0.481999874,1,1,1
"274",58,267,0.9,"stim/62.jpeg",6,2,3,2,"Instruments",1,"stim/objects/Instruments/frenchhorn3.png",4,"left","left",0.485000134,1,1,1
"275",58,268,0.9,"stim/64.jpeg",6,4,3,2,"Instruments",1,"stim/objects/Instruments/gong3.png",1,"left","left",0.519999981,1,1,1
"276",58,269,0.9,"stim/54.jpeg",5,4,3,2,"HouseObjects",2,"stim/objects/HouseObjects/glass3.png",1,"right","left",0.899999857,0,0,1
"277",58,270,0.9,"stim/51.jpeg",5,1,3,2,"HouseObjects",2,"stim/objects/HouseObjects/dustpan3.png",4,"right","right",0.504999876,1,1,1
"278",58,271,0.9,"stim/61.jpeg",6,1,3,2,"Instruments",1,"stim/objects/Instruments/gong3.png",4,"left","left",0.587000132,1,1,1
"279",58,272,0.5,"stim/22.jpeg",2,2,1,1,"HouseObjects",2,"stim/objects/HouseObjects/knife3.png",2,"right","right",0.64199996,1,1,1
"280",58,273,0.9,"stim/61.jpeg",6,1,3,1,"Instruments",1,"stim/objects/Instruments/musicsheet4.png",1,"left","left",0.502000093,1,1,1
"281",58,274,0.9,"stim/51.jpeg",5,1,3,1,"HouseObjects",2,"stim/objects/HouseObjects/hairdryer4.png",4,"right","right",0.523999929,1,1,1
"282",58,275,0.1,"stim/61.jpeg",6,1,3,1,"HouseObjects",2,"stim/objects/HouseObjects/pitcher4.png",4,"right","left",0.471999884,0,0,1
"283",58,276,0.9,"stim/52.jpeg",5,2,3,2,"HouseObjects",2,"stim/objects/HouseObjects/doormat3.png",2,"right","right",0.490999937,1,1,1
"284",58,277,0.9,"stim/52.jpeg",5,2,3,2,"HouseObjects",2,"stim/objects/HouseObjects/garbagebin3.png",2,"right","right",0.453000069,1,1,1
"285",58,278,0.5,"stim/11.jpeg",1,1,1,1,"Instruments",1,"stim/objects/Instruments/harp3.png",2,"left","left",0.736000061,1,1,1
"286",58,279,0.9,"stim/62.jpeg",6,2,3,2,"Instruments",1,"stim/objects/Instruments/flute3.png",3,"left","left",0.596000195,1,1,1
"287",58,280,0.9,"stim/54.jpeg",5,4,3,2,"HouseObjects",2,"stim/objects/HouseObjects/glass3.png",3,"right","right",0.612999916,1,1,1
"288",58,281,0.9,"stim/62.jpeg",6,2,3,2,"Instruments",1,"stim/objects/Instruments/gong3.png",2,"left","left",0.519999981,1,1,1
"289",58,282,0.9,"stim/64.jpeg",6,4,3,2,"Instruments",1,"stim/objects/Instruments/grandpiano3.png",1,"left","left",0.563999891,1,1,1
"290",58,283,0.9,"stim/52.jpeg",5,2,3,2,"HouseObjects",2,"stim/objects/HouseObjects/glass3.png",1,"right","right",0.553000212,1,1,1
"291",58,284,0.1,"stim/64.jpeg",6,4,3,1,"HouseObjects",2,"stim/objects/HouseObjects/wateringcan4.png",2,"right","left",0.50999999,0,0,1
"292",58,285,0.7,"stim/44.jpeg",4,4,2,1,"Instruments",1,"stim/objects/Instruments/cornet4.png",4,"left","right",0.665999889,0,0,1
"293",58,286,0.9,"stim/61.jpeg",6,1,3,2,"Instruments",1,"stim/objects/Instruments/flute3.png",1,"left","left",0.588999987,1,1,1
"294",58,287,0.9,"stim/64.jpeg",6,4,3,2,"Instruments",1,"stim/objects/Instruments/flutetrans3.png",3,"left","left",0.648000002,1,1,1
"295",58,288,0.9,"stim/51.jpeg",5,1,3,2,"HouseObjects",2,"stim/objects/HouseObjects/dustpan3.png",2,"right","right",0.453000069,1,1,1
"296",58,289,0.5,"stim/11.jpeg",1,1,1,2,"HouseObjects",2,"stim/objects/HouseObjects/ashtray3.png",4,"right","right",0.618999958,1,1,1
"297",58,290,0.9,"stim/52.jpeg",5,2,3,2,"HouseObjects",2,"stim/objects/HouseObjects/garbagebin3.png",3,"right","right",0.644999981,1,1,1
"298",58,291,0.9,"stim/54.jpeg",5,4,3,2,"HouseObjects",2,"stim/objects/HouseObjects/garbagebin3.png",3,"right","left",0.795000076,0,0,1
"299",58,292,0.9,"stim/51.jpeg",5,1,3,2,"HouseObjects",2,"stim/objects/HouseObjects/glass3.png",4,"right","right",0.493000031,1,1,1
"300",58,293,0.7,"stim/42.jpeg",4,2,2,2,"Instruments",1,"stim/objects/Instruments/electricdrumset3.png",3,"left","left",0.818000078,1,1,1
"301",58,294,0.9,"stim/52.jpeg",5,2,3,2,"HouseObjects",2,"stim/objects/HouseObjects/dustpan3.png",3,"right","right",0.676000118,1,1,1
"302",58,295,0.1,"stim/64.jpeg",6,4,3,1,"HouseObjects",2,"stim/objects/HouseObjects/pan4.png",2,"right","left",0.585000038,0,0,1
"303",58,296,0.5,"stim/14.jpeg",1,4,1,2,"HouseObjects",2,"stim/objects/HouseObjects/bleachbottle3.png",3,"right","right",0.486999989,1,1,1
"304",58,297,0.9,"stim/61.jpeg",6,1,3,2,"Instruments",1,"stim/objects/Instruments/flutetrans3.png",3,"left","left",0.569000006,1,1,1
"305",58,298,0.1,"stim/51.jpeg",5,1,3,1,"Instruments",1,"stim/objects/Instruments/flute4.png",3,"left","right",0.561000109,0,0,1
"306",58,299,0.7,"stim/32.jpeg",3,2,2,2,"HouseObjects",2,"stim/objects/HouseObjects/cushion3.png",1,"right","right",0.822000027,1,1,1
"307",58,300,0.7,"stim/34.jpeg",3,4,2,2,"HouseObjects",2,"stim/objects/HouseObjects/clothesdryingrack3.png",3,"right","left",0.794000149,0,0,1
"308",58,301,0.9,"stim/63.jpeg",6,3,3,2,"Instruments",1,"stim/objects/Instruments/gong3.png",4,"left","left",0.626000166,1,1,1
"309",58,302,0.9,"stim/64.jpeg",6,4,3,2,"Instruments",1,"stim/objects/Instruments/gong3.png",2,"left","right",0.450999975,0,0,1
"310",58,303,0.7,"stim/44.jpeg",4,4,2,2,"Instruments",1,"stim/objects/Instruments/electricdrumset3.png",1,"left","left",0.603000164,1,1,1
"311",58,304,0.9,"stim/63.jpeg",6,3,3,2,"Instruments",1,"stim/objects/Instruments/grandpiano3.png",3,"left","left",0.519000053,1,1,1
"312",58,305,0.9,"stim/51.jpeg",5,1,3,2,"HouseObjects",2,"stim/objects/HouseObjects/garbagebin3.png",1,"right","right",0.519000053,1,1,1
"313",58,306,0.5,"stim/22.jpeg",2,2,1,2,"HouseObjects",2,"stim/objects/HouseObjects/bucket3.png",3,"right","left",0.337000132,0,0,1
"314",58,307,0.9,"stim/53.jpeg",5,3,3,2,"HouseObjects",2,"stim/objects/HouseObjects/garbagebin3.png",4,"right","right",0.484000206,1,1,1
"315",58,308,0.9,"stim/64.jpeg",6,4,3,2,"Instruments",1,"stim/objects/Instruments/flutetrans3.png",2,"left","left",0.549000025,1,1,1
"316",58,309,0.5,"stim/11.jpeg",1,1,1,2,"Instruments",1,"stim/objects/Instruments/accordion3.png",4,"left","right",0.474000216,0,0,1
"317",58,310,0.5,"stim/24.jpeg",2,4,1,2,"Instruments",1,"stim/objects/Instruments/bassguitar3.png",2,"left","left",0.586000204,1,1,1
"318",58,311,0.5,"stim/11.jpeg",1,1,1,2,"Instruments",1,"stim/objects/Instruments/banjo3.png",2,"left","right",0.565999985,0,0,1
"319",58,312,0.7,"stim/41.jpeg",4,1,2,2,"Instruments",1,"stim/objects/Instruments/cymbal3.png",3,"left","left",0.671999931,1,1,1
"320",58,313,0.9,"stim/62.jpeg",6,2,3,2,"Instruments",1,"stim/objects/Instruments/gong3.png",1,"left","left",0.525000095,1,1,1
"321",58,314,0.9,"stim/51.jpeg",5,1,3,2,"HouseObjects",2,"stim/objects/HouseObjects/dustpan3.png",2,"right","right",0.439999819,1,1,1
"322",58,315,0.5,"stim/21.jpeg",2,1,1,1,"Instruments",1,"stim/objects/Instruments/laud3.png",1,"left","left",0.4599998,1,1,1
"323",58,316,0.7,"stim/32.jpeg",3,2,2,1,"HouseObjects",2,"stim/objects/HouseObjects/wateringcan3.png",3,"right","left",0.812000036,0,0,1
"324",58,317,0.9,"stim/63.jpeg",6,3,3,2,"Instruments",1,"stim/objects/Instruments/flute3.png",1,"left","left",0.571000099,1,1,1
"325",58,318,0.9,"stim/64.jpeg",6,4,3,2,"Instruments",1,"stim/objects/Instruments/gong3.png",1,"left","left",0.55099988,1,1,1
"326",58,319,0.5,"stim/24.jpeg",2,4,1,2,"HouseObjects",2,"stim/objects/HouseObjects/broom3.png",4,"right","right",0.511000156,1,1,1
"327",58,320,0.7,"stim/41.jpeg",4,1,2,2,"Instruments",1,"stim/objects/Instruments/electricguitar3.png",2,"left","right",0.622999907,0,0,1
"328",58,321,0.1,"stim/62.jpeg",6,2,3,1,"HouseObjects",2,"stim/objects/HouseObjects/lintroller4.png",4,"right","left",0.553999901,0,0,1
"329",58,322,0.5,"stim/12.jpeg",1,2,1,2,"HouseObjects",2,"stim/objects/HouseObjects/ballofstring3.png",4,"right","right",0.603000164,1,1,1
"330",58,323,0.5,"stim/14.jpeg",1,4,1,2,"Instruments",1,"stim/objects/Instruments/banjo3.png",4,"left","right",0.585999966,0,0,1
"331",58,324,0.9,"stim/61.jpeg",6,1,3,1,"Instruments",1,"stim/objects/Instruments/laud4.png",2,"left","left",0.507999897,1,1,1
"332",58,325,0.9,"stim/51.jpeg",5,1,3,2,"HouseObjects",2,"stim/objects/HouseObjects/garbagebin3.png",1,"right","right",0.625999928,1,1,1
"333",58,326,0.9,"stim/52.jpeg",5,2,3,2,"HouseObjects",2,"stim/objects/HouseObjects/glass3.png",2,"right","right",0.50999999,1,1,1
"334",58,327,0.9,"stim/61.jpeg",6,1,3,2,"Instruments",1,"stim/objects/Instruments/frenchhorn3.png",1,"left","left",0.470000029,1,1,1
"335",58,328,0.9,"stim/64.jpeg",6,4,3,2,"Instruments",1,"stim/objects/Instruments/frenchhorn3.png",1,"left","left",0.557999849,1,1,1
"336",58,329,0.5,"stim/22.jpeg",2,2,1,1,"Instruments",1,"stim/objects/Instruments/maraca3.png",3,"left","left",0.842000008,1,1,1
"337",58,330,0.9,"stim/64.jpeg",6,4,3,2,"Instruments",1,"stim/objects/Instruments/grandpiano3.png",3,"left","left",0.568000078,1,1,1
"338",58,331,0.9,"stim/53.jpeg",5,3,3,2,"HouseObjects",2,"stim/objects/HouseObjects/dustpan3.png",1,"right","right",0.463999987,1,1,1
"339",58,332,0.9,"stim/53.jpeg",5,3,3,2,"HouseObjects",2,"stim/objects/HouseObjects/dustpan3.png",1,"right","right",0.583000183,1,1,1
"340",58,333,0.9,"stim/61.jpeg",6,1,3,2,"Instruments",1,"stim/objects/Instruments/grandpiano3.png",1,"left","left",0.800000191,1,1,1
"341",58,334,0.9,"stim/52.jpeg",5,2,3,2,"HouseObjects",2,"stim/objects/HouseObjects/flyswatter3.png",1,"right","right",0.519000053,1,1,1
"342",58,335,0.9,"stim/62.jpeg",6,2,3,2,"Instruments",1,"stim/objects/Instruments/flute3.png",3,"left","left",0.546000004,1,1,1
"343",58,336,0.5,"stim/22.jpeg",2,2,1,2,"Instruments",1,"stim/objects/Instruments/chime3.png",1,"left","right",0.56099987,0,0,1
"344",58,337,0.9,"stim/61.jpeg",6,1,3,2,"Instruments",1,"stim/objects/Instruments/flutetrans3.png",1,"left","left",0.592000008,1,1,1
"345",58,338,0.5,"stim/13.jpeg",1,3,1,2,"Instruments",1,"stim/objects/Instruments/balalaika3.png",1,"left","right",0.523999929,0,0,1
"346",58,339,0.5,"stim/23.jpeg",2,3,1,2,"Instruments",1,"stim/objects/Instruments/clarinet3.png",1,"left","left",0.599000216,1,1,1
"347",58,340,0.5,"stim/23.jpeg",2,3,1,2,"HouseObjects",2,"stim/objects/HouseObjects/blender3.png",2,"right","right",0.54399991,1,1,1
"348",58,341,0.5,"stim/22.jpeg",2,2,1,2,"Instruments",1,"stim/objects/Instruments/clarinet3.png",1,"left","left",0.704999924,1,1,1
"349",58,342,0.5,"stim/12.jpeg",1,2,1,2,"Instruments",1,"stim/objects/Instruments/accordion3.png",4,"left","right",0.764999866,0,0,1
"350",58,343,0.9,"stim/54.jpeg",5,4,3,2,"HouseObjects",2,"stim/objects/HouseObjects/dustpan3.png",1,"right","right",0.611999989,1,1,1
"351",58,344,0.1,"stim/61.jpeg",6,1,3,1,"HouseObjects",2,"stim/objects/HouseObjects/knife4.png",3,"right","left",0.567000151,0,0,1
"352",58,345,0.5,"stim/14.jpeg",1,4,1,1,"HouseObjects",2,"stim/objects/HouseObjects/handbrush3.png",2,"right","right",0.641000032,1,1,1
"353",58,346,0.9,"stim/53.jpeg",5,3,3,2,"HouseObjects",2,"stim/objects/HouseObjects/garbagebin3.png",4,"right","right",0.549999952,1,1,1
"354",58,347,0.7,"stim/34.jpeg",3,4,2,2,"HouseObjects",2,"stim/objects/HouseObjects/dishsoap3.png",4,"right","right",0.493999958,1,1,1
"355",58,348,0.9,"stim/62.jpeg",6,2,3,2,"Instruments",1,"stim/objects/Instruments/flutetrans3.png",2,"left","left",0.664000034,1,1,1
"356",58,349,0.5,"stim/23.jpeg",2,3,1,1,"HouseObjects",2,"stim/objects/HouseObjects/lintroller3.png",3,"right","left",0.562000036,0,0,1
"357",58,350,0.7,"stim/33.jpeg",3,3,2,2,"HouseObjects",2,"stim/objects/HouseObjects/cushion3.png",1,"right","right",0.39199996,1,1,1
"358",58,351,0.7,"stim/43.jpeg",4,3,2,1,"Instruments",1,"stim/objects/Instruments/clarinet4.png",3,"left","right",0.662999868,0,0,1
"359",58,352,0.5,"stim/21.jpeg",2,1,1,1,"HouseObjects",2,"stim/objects/HouseObjects/key3.png",4,"right","left",0.771000147,0,0,1
"360",58,353,0.9,"stim/51.jpeg",5,1,3,2,"HouseObjects",2,"stim/objects/HouseObjects/doormat3.png",1,"right","right",0.687999964,1,1,1
"361",58,354,0.9,"stim/63.jpeg",6,3,3,2,"Instruments",1,"stim/objects/Instruments/gong3.png",4,"left","left",0.626000166,1,1,1
"362",58,355,0.9,"stim/54.jpeg",5,4,3,2,"HouseObjects",2,"stim/objects/HouseObjects/flyswatter3.png",3,"right","right",0.544999838,1,1,1
"363",58,356,0.5,"stim/11.jpeg",1,1,1,2,"HouseObjects",2,"stim/objects/HouseObjects/bleachbottle3.png",1,"right","right",0.856999874,1,1,1
"364",58,357,0.9,"stim/53.jpeg",5,3,3,2,"HouseObjects",2,"stim/objects/HouseObjects/dustpan3.png",4,"right","right",0.69299984,1,1,1
"365",58,358,0.9,"stim/64.jpeg",6,4,3,1,"Instruments",1,"stim/objects/Instruments/violin4.png",3,"left","",NA,0,0,1
"366",58,359,0.7,"stim/34.jpeg",3,4,2,1,"HouseObjects",2,"stim/objects/HouseObjects/towel3.png",2,"right","right",0.636999846,1,1,1
"367",58,360,0.3,"stim/34.jpeg",3,4,2,1,"Instruments",1,"stim/objects/Instruments/vuvuzela3.png",4,"left","",NA,0,0,1
"368",58,361,0.7,"stim/44.jpeg",4,4,2,2,"Instruments",1,"stim/objects/Instruments/doublebass3.png",2,"left","right",0.790999889,0,0,1
"369",58,362,0.7,"stim/44.jpeg",4,4,2,2,"Instruments",1,"stim/objects/Instruments/drums3.png",4,"left","",NA,0,0,1
"370",58,363,0.5,"stim/12.jpeg",1,2,1,1,"Instruments",1,"stim/objects/Instruments/hihat3.png",3,"left","left",0.642999887,1,1,1
"371",58,364,0.9,"stim/62.jpeg",6,2,3,2,"Instruments",1,"stim/objects/Instruments/frenchhorn3.png",4,"left","left",0.702000141,1,1,1
"372",58,365,0.7,"stim/41.jpeg",4,1,2,2,"Instruments",1,"stim/objects/Instruments/electricdrumset3.png",1,"left","left",0.468999863,1,1,1
"373",58,366,0.9,"stim/53.jpeg",5,3,3,2,"HouseObjects",2,"stim/objects/HouseObjects/flyswatter3.png",3,"right","right",0.654000044,1,1,1
"374",58,367,0.9,"stim/62.jpeg",6,2,3,2,"Instruments",1,"stim/objects/Instruments/flutetrans3.png",2,"left","left",0.753000021,1,1,1
"375",58,368,0.1,"stim/51.jpeg",5,1,3,1,"Instruments",1,"stim/objects/Instruments/hihat4.png",2,"left","right",0.637000084,0,0,1
"376",58,369,0.5,"stim/14.jpeg",1,4,1,1,"Instruments",1,"stim/objects/Instruments/harmonica3.png",3,"left","right",0.719000101,0,0,1
"377",58,370,0.9,"stim/61.jpeg",6,1,3,2,"Instruments",1,"stim/objects/Instruments/grandpiano3.png",1,"left","left",0.56099987,1,1,1
"378",58,371,0.9,"stim/63.jpeg",6,3,3,2,"Instruments",1,"stim/objects/Instruments/flutetrans3.png",3,"left","left",0.539999962,1,1,1
"379",58,372,0.5,"stim/21.jpeg",2,1,1,2,"Instruments",1,"stim/objects/Instruments/cello3.png",4,"left","right",0.664999962,0,0,1
"380",58,373,0.9,"stim/52.jpeg",5,2,3,1,"HouseObjects",2,"stim/objects/HouseObjects/handbrush4.png",1,"right","right",0.631999969,1,1,1
"381",58,374,0.3,"stim/33.jpeg",3,3,2,1,"Instruments",1,"stim/objects/Instruments/violin3.png",1,"left","",NA,0,0,1
"382",58,375,0.9,"stim/52.jpeg",5,2,3,1,"HouseObjects",2,"stim/objects/HouseObjects/garbagebin4.png",1,"right","left",0.45299983,0,0,1
"383",58,376,0.9,"stim/54.jpeg",5,4,3,2,"HouseObjects",2,"stim/objects/HouseObjects/garbagebin3.png",3,"right","right",0.623999834,1,1,1
"384",58,377,0.9,"stim/53.jpeg",5,3,3,2,"HouseObjects",2,"stim/objects/HouseObjects/glass3.png",2,"right","right",0.621999979,1,1,1
"385",58,378,0.9,"stim/64.jpeg",6,4,3,2,"Instruments",1,"stim/objects/Instruments/frenchhorn3.png",3,"left","left",0.500999928,1,1,1
"386",58,379,0.7,"stim/34.jpeg",3,4,2,2,"HouseObjects",2,"stim/objects/HouseObjects/clothespin3.png",4,"right","right",0.401000023,1,1,1
"387",58,380,0.9,"stim/53.jpeg",5,3,3,2,"HouseObjects",2,"stim/objects/HouseObjects/flyswatter3.png",3,"right","left",0.820999861,0,0,1
"388",58,381,0.9,"stim/53.jpeg",5,3,3,2,"HouseObjects",2,"stim/objects/HouseObjects/doormat3.png",4,"right","right",0.387000084,1,1,1
"389",58,382,0.9,"stim/64.jpeg",6,4,3,2,"Instruments",1,"stim/objects/Instruments/flute3.png",3,"left","left",0.451999903,1,1,1
"390",58,383,0.9,"stim/64.jpeg",6,4,3,2,"Instruments",1,"stim/objects/Instruments/flute3.png",1,"left","left",0.561000109,1,1,1
"391",58,384,0.9,"stim/54.jpeg",5,4,3,1,"HouseObjects",2,"stim/objects/HouseObjects/dustpan4.png",2,"right","right",0.506000042,1,1,1
"392",58,385,0.9,"stim/51.jpeg",5,1,3,1,"HouseObjects",2,"stim/objects/HouseObjects/flyswatter4.png",1,"right","right",0.588999987,1,1,1
"393",58,386,0.1,"stim/51.jpeg",5,1,3,1,"Instruments",1,"stim/objects/Instruments/grandpiano4.png",4,"left","right",0.404000044,0,0,1
"394",58,387,0.1,"stim/54.jpeg",5,4,3,1,"Instruments",1,"stim/objects/Instruments/harp4.png",2,"left","right",0.404000044,0,0,1
"395",58,388,0.9,"stim/61.jpeg",6,1,3,2,"Instruments",1,"stim/objects/Instruments/gong3.png",1,"left","left",0.457000017,1,1,1
"396",58,389,0.3,"stim/43.jpeg",4,3,2,1,"HouseObjects",2,"stim/objects/HouseObjects/clothesdryingrack4.png",2,"right","left",0.683000088,0,0,1
"397",58,390,0.9,"stim/52.jpeg",5,2,3,2,"HouseObjects",2,"stim/objects/HouseObjects/flyswatter3.png",1,"right","right",0.427999973,1,1,1
"398",58,391,0.7,"stim/31.jpeg",3,1,2,1,"HouseObjects",2,"stim/objects/HouseObjects/barbecuelighter4.png",1,"right","left",0.604000092,0,0,1
"399",58,392,0.9,"stim/52.jpeg",5,2,3,2,"HouseObjects",2,"stim/objects/HouseObjects/garbagebin3.png",4,"right","right",0.422999859,1,1,1
"400",58,393,0.5,"stim/13.jpeg",1,3,1,2,"HouseObjects",2,"stim/objects/HouseObjects/basket3.png",3,"right","right",0.575000048,1,1,1
"401",58,394,0.9,"stim/61.jpeg",6,1,3,2,"Instruments",1,"stim/objects/Instruments/gong3.png",4,"left","left",0.565999985,1,1,1
"402",58,395,0.5,"stim/24.jpeg",2,4,1,2,"Instruments",1,"stim/objects/Instruments/cello3.png",4,"left","right",0.431000233,0,0,1
"403",58,396,0.7,"stim/33.jpeg",3,3,2,2,"HouseObjects",2,"stim/objects/HouseObjects/clothesdryingrack3.png",4,"right","right",0.694000006,1,1,1
"404",58,397,0.9,"stim/62.jpeg",6,2,3,2,"Instruments",1,"stim/objects/Instruments/grandpiano3.png",2,"left","left",0.546000004,1,1,1
"405",58,398,0.9,"stim/64.jpeg",6,4,3,2,"Instruments",1,"stim/objects/Instruments/grandpiano3.png",3,"left","left",0.588999987,1,1,1
"406",58,399,0.3,"stim/31.jpeg",3,1,2,1,"Instruments",1,"stim/objects/Instruments/musicstand3.png",2,"left","right",0.503000021,0,0,1
"407",58,400,0.1,"stim/63.jpeg",6,3,3,1,"HouseObjects",2,"stim/objects/HouseObjects/ironingboard4.png",4,"right","left",0.539000034,0,0,1
"408",58,401,0.5,"stim/11.jpeg",1,1,1,2,"Instruments",1,"stim/objects/Instruments/bassdrum3.png",3,"left","right",0.541000128,0,0,1
"409",58,402,0.1,"stim/64.jpeg",6,4,3,1,"HouseObjects",2,"stim/objects/HouseObjects/key4.png",4,"right","left",0.803999901,0,0,1
"410",58,403,0.9,"stim/63.jpeg",6,3,3,2,"Instruments",1,"stim/objects/Instruments/flutetrans3.png",1,"left","left",0.558000088,1,1,1
"411",58,404,0.9,"stim/52.jpeg",5,2,3,2,"HouseObjects",2,"stim/objects/HouseObjects/glass3.png",2,"right","right",0.565999985,1,1,1
"412",58,405,0.9,"stim/54.jpeg",5,4,3,2,"HouseObjects",2,"stim/objects/HouseObjects/garbagebin3.png",3,"right","right",0.679000139,1,1,1
"413",58,406,0.9,"stim/51.jpeg",5,1,3,2,"HouseObjects",2,"stim/objects/HouseObjects/flyswatter3.png",4,"right","right",0.738000154,1,1,1
"414",58,407,0.5,"stim/12.jpeg",1,2,1,2,"Instruments",1,"stim/objects/Instruments/bassdrum3.png",4,"left","right",0.542000055,0,0,1
"415",58,408,0.5,"stim/24.jpeg",2,4,1,2,"HouseObjects",2,"stim/objects/HouseObjects/bottle3.png",1,"right","left",0.731999874,0,0,1
"416",58,409,0.9,"stim/51.jpeg",5,1,3,2,"HouseObjects",2,"stim/objects/HouseObjects/flyswatter3.png",3,"right","right",0.515000105,1,1,1
"417",58,410,0.9,"stim/53.jpeg",5,3,3,1,"HouseObjects",2,"stim/objects/HouseObjects/handvacuum4.png",3,"right","",NA,0,0,1
"418",58,411,0.9,"stim/61.jpeg",6,1,3,2,"Instruments",1,"stim/objects/Instruments/frenchhorn3.png",3,"left","left",0.541999817,1,1,1
"419",58,412,0.5,"stim/12.jpeg",1,2,1,1,"HouseObjects",2,"stim/objects/HouseObjects/glassmop3.png",4,"right","right",0.450999975,1,1,1
"420",58,413,0.5,"stim/24.jpeg",2,4,1,2,"Instruments",1,"stim/objects/Instruments/cornet3.png",3,"left","left",0.587000132,1,1,1
"421",58,414,0.9,"stim/52.jpeg",5,2,3,2,"HouseObjects",2,"stim/objects/HouseObjects/doormat3.png",1,"right","right",0.467999935,1,1,1
"422",58,415,0.9,"stim/53.jpeg",5,3,3,2,"HouseObjects",2,"stim/objects/HouseObjects/doormat3.png",2,"right","right",0.43900013,1,1,1
"423",58,416,0.9,"stim/61.jpeg",6,1,3,2,"Instruments",1,"stim/objects/Instruments/grandpiano3.png",1,"left","left",0.569000006,1,1,1
"424",58,417,0.9,"stim/63.jpeg",6,3,3,2,"Instruments",1,"stim/objects/Instruments/flute3.png",1,"left","left",0.546999931,1,1,1
"425",58,418,0.5,"stim/23.jpeg",2,3,1,2,"Instruments",1,"stim/objects/Instruments/bassguitar3.png",4,"left","right",0.422999859,0,0,1
"426",58,419,0.9,"stim/62.jpeg",6,2,3,2,"Instruments",1,"stim/objects/Instruments/flute3.png",3,"left","left",0.54399991,1,1,1
"427",58,420,0.9,"stim/52.jpeg",5,2,3,2,"HouseObjects",2,"stim/objects/HouseObjects/flyswatter3.png",2,"right","right",0.576000214,1,1,1
"428",58,421,0.9,"stim/61.jpeg",6,1,3,2,"Instruments",1,"stim/objects/Instruments/flute3.png",1,"left","left",0.507999897,1,1,1
"429",58,422,0.7,"stim/42.jpeg",4,2,2,2,"Instruments",1,"stim/objects/Instruments/electricguitar3.png",1,"left","right",0.522000074,0,0,1
"430",58,423,0.9,"stim/51.jpeg",5,1,3,2,"HouseObjects",2,"stim/objects/HouseObjects/doormat3.png",3,"right","right",0.688999891,1,1,1
"431",58,424,0.7,"stim/32.jpeg",3,2,2,2,"HouseObjects",2,"stim/objects/HouseObjects/clothespin3.png",1,"right","right",0.667999983,1,1,1
"432",58,425,0.5,"stim/21.jpeg",2,1,1,1,"Instruments",1,"stim/objects/Instruments/musicsheet3.png",1,"left","right",0.536000013,0,0,1
"433",58,426,0.9,"stim/54.jpeg",5,4,3,2,"HouseObjects",2,"stim/objects/HouseObjects/flyswatter3.png",2,"right","right",0.629999876,1,1,1
"434",58,427,0.7,"stim/31.jpeg",3,1,2,1,"HouseObjects",2,"stim/objects/HouseObjects/vacuumcleaner3.png",3,"right","right",0.595000029,1,1,1
"435",58,428,0.5,"stim/23.jpeg",2,3,1,1,"Instruments",1,"stim/objects/Instruments/marimba3.png",2,"left","right",0.674000025,0,0,1
"436",58,429,0.9,"stim/63.jpeg",6,3,3,2,"Instruments",1,"stim/objects/Instruments/grandpiano3.png",3,"left","left",0.476000071,1,1,1
"437",58,430,0.9,"stim/51.jpeg",5,1,3,2,"HouseObjects",2,"stim/objects/HouseObjects/glass3.png",1,"right","right",0.585999966,1,1,1
"438",58,431,0.7,"stim/41.jpeg",4,1,2,2,"Instruments",1,"stim/objects/Instruments/drums3.png",3,"left","right",0.773000002,0,0,1
"439",58,432,0.7,"stim/43.jpeg",4,3,2,1,"Instruments",1,"stim/objects/Instruments/drums4.png",4,"left","right",0.657000065,0,0,1
"440",58,433,0.5,"stim/22.jpeg",2,2,1,2,"HouseObjects",2,"stim/objects/HouseObjects/clock3.png",2,"right","left",0.746999979,0,0,1
"441",58,434,0.7,"stim/32.jpeg",3,2,2,2,"HouseObjects",2,"stim/objects/HouseObjects/coffee3.png",2,"right","right",0.620000124,1,1,1
"442",58,435,0.5,"stim/21.jpeg",2,1,1,2,"Instruments",1,"stim/objects/Instruments/chime3.png",2,"left","right",0.555000067,0,0,1
"443",58,436,0.1,"stim/53.jpeg",5,3,3,1,"Instruments",1,"stim/objects/Instruments/harmonica4.png",3,"left","left",0.593999863,1,1,1
"444",58,437,0.9,"stim/51.jpeg",5,1,3,2,"HouseObjects",2,"stim/objects/HouseObjects/glass3.png",3,"right","right",0.506000042,1,1,1
"445",58,438,0.9,"stim/53.jpeg",5,3,3,2,"HouseObjects",2,"stim/objects/HouseObjects/doormat3.png",3,"right","right",0.415999889,1,1,1
"446",58,439,0.3,"stim/43.jpeg",4,3,2,1,"HouseObjects",2,"stim/objects/HouseObjects/dishsoap4.png",1,"right","right",0.726000071,1,1,1
"447",58,440,0.7,"stim/43.jpeg",4,3,2,2,"Instruments",1,"stim/objects/Instruments/cymbal3.png",3,"left","left",0.703999996,1,1,1
"448",58,441,0.9,"stim/63.jpeg",6,3,3,2,"Instruments",1,"stim/objects/Instruments/flutetrans3.png",4,"left","left",0.570999861,1,1,1
"449",58,442,0.9,"stim/52.jpeg",5,2,3,2,"HouseObjects",2,"stim/objects/HouseObjects/doormat3.png",4,"right","right",0.476000071,1,1,1
"450",58,443,0.3,"stim/34.jpeg",3,4,2,1,"Instruments",1,"stim/objects/Instruments/balalaika4.png",2,"left","right",0.786000013,0,0,1
"451",58,444,0.7,"stim/42.jpeg",4,2,2,2,"Instruments",1,"stim/objects/Instruments/doublebass3.png",2,"left","",NA,0,0,1
"452",58,445,0.5,"stim/13.jpeg",1,3,1,2,"Instruments",1,"stim/objects/Instruments/acousticguitar3.png",3,"left","left",0.538000107,1,1,1
"453",58,446,0.5,"stim/12.jpeg",1,2,1,2,"HouseObjects",2,"stim/objects/HouseObjects/barbecuelighter3.png",1,"right","right",0.569999933,1,1,1
"454",58,447,0.9,"stim/53.jpeg",5,3,3,1,"HouseObjects",2,"stim/objects/HouseObjects/doormat4.png",1,"right","right",0.540999889,1,1,1
"455",58,448,0.3,"stim/32.jpeg",3,2,2,1,"Instruments",1,"stim/objects/Instruments/accordion4.png",4,"left","right",0.476000071,0,0,1
"456",58,449,0.7,"stim/31.jpeg",3,1,2,2,"HouseObjects",2,"stim/objects/HouseObjects/coffee3.png",4,"right","right",0.536999941,1,1,1
"457",58,450,0.7,"stim/41.jpeg",4,1,2,1,"Instruments",1,"stim/objects/Instruments/cello4.png",1,"left","left",0.569000006,1,1,1
"458",58,451,0.7,"stim/31.jpeg",3,1,2,2,"HouseObjects",2,"stim/objects/HouseObjects/clothespin3.png",1,"right","right",0.552000046,1,1,1
"459",58,452,0.9,"stim/54.jpeg",5,4,3,2,"HouseObjects",2,"stim/objects/HouseObjects/glass3.png",2,"right","right",0.479000092,1,1,1
"460",58,453,0.5,"stim/23.jpeg",2,3,1,2,"HouseObjects",2,"stim/objects/HouseObjects/bottle3.png",3,"right","left",0.641000032,0,0,1
"461",58,454,0.9,"stim/62.jpeg",6,2,3,2,"Instruments",1,"stim/objects/Instruments/gong3.png",4,"left","left",0.64800024,1,1,1
"462",58,455,0.9,"stim/51.jpeg",5,1,3,2,"HouseObjects",2,"stim/objects/HouseObjects/flyswatter3.png",4,"right","right",0.427999973,1,1,1
"463",58,456,0.7,"stim/33.jpeg",3,3,2,1,"HouseObjects",2,"stim/objects/HouseObjects/pitcher3.png",2,"right","right",0.486999989,1,1,1
"464",58,457,0.9,"stim/62.jpeg",6,2,3,2,"Instruments",1,"stim/objects/Instruments/flutetrans3.png",3,"left","left",0.476000071,1,1,1
"465",58,458,0.7,"stim/42.jpeg",4,2,2,1,"Instruments",1,"stim/objects/Instruments/chime4.png",4,"left","right",0.387000084,0,0,1
"466",58,459,0.9,"stim/61.jpeg",6,1,3,2,"Instruments",1,"stim/objects/Instruments/frenchhorn3.png",1,"left","left",0.556999922,1,1,1
"467",58,460,0.5,"stim/13.jpeg",1,3,1,1,"HouseObjects",2,"stim/objects/HouseObjects/hairdryer3.png",1,"right","right",0.619999886,1,1,1
"468",58,461,0.5,"stim/21.jpeg",2,1,1,2,"HouseObjects",2,"stim/objects/HouseObjects/bucket3.png",4,"right","left",0.552999973,0,0,1
"469",58,462,0.1,"stim/63.jpeg",6,3,3,1,"HouseObjects",2,"stim/objects/HouseObjects/match4.png",2,"right","left",0.486000061,0,0,1
"470",58,463,0.9,"stim/54.jpeg",5,4,3,2,"HouseObjects",2,"stim/objects/HouseObjects/doormat3.png",4,"right","right",0.463999987,1,1,1
"471",58,464,0.9,"stim/62.jpeg",6,2,3,2,"Instruments",1,"stim/objects/Instruments/frenchhorn3.png",2,"left","left",0.520999908,1,1,1
"472",58,465,0.9,"stim/63.jpeg",6,3,3,2,"Instruments",1,"stim/objects/Instruments/flute3.png",2,"left","left",0.537999868,1,1,1
"473",58,466,0.9,"stim/52.jpeg",5,2,3,2,"HouseObjects",2,"stim/objects/HouseObjects/dustpan3.png",4,"right","left",0.595999956,0,0,1
"474",58,467,0.9,"stim/54.jpeg",5,4,3,2,"HouseObjects",2,"stim/objects/HouseObjects/dustpan3.png",3,"right","right",0.600999832,1,1,1
"475",58,468,0.9,"stim/54.jpeg",5,4,3,2,"HouseObjects",2,"stim/objects/HouseObjects/doormat3.png",3,"right","right",0.708999872,1,1,1
"476",58,469,0.7,"stim/43.jpeg",4,3,2,2,"Instruments",1,"stim/objects/Instruments/electricguitar3.png",4,"left","right",0.786000013,0,0,1
"477",58,470,0.9,"stim/51.jpeg",5,1,3,2,"HouseObjects",2,"stim/objects/HouseObjects/garbagebin3.png",4,"right","right",0.742000103,1,1,1
"478",58,471,0.1,"stim/63.jpeg",6,3,3,1,"HouseObjects",2,"stim/objects/HouseObjects/vacuumcleaner4.png",4,"right","left",0.511000156,0,0,1
"479",58,472,0.9,"stim/54.jpeg",5,4,3,2,"HouseObjects",2,"stim/objects/HouseObjects/garbagebin3.png",2,"right","right",0.552000046,1,1,1
"480",58,473,0.5,"stim/21.jpeg",2,1,1,2,"HouseObjects",2,"stim/objects/HouseObjects/broom3.png",3,"right","left",0.690000057,0,0,1
"481",58,474,0.9,"stim/63.jpeg",6,3,3,2,"Instruments",1,"stim/objects/Instruments/flute3.png",3,"left","left",0.493000031,1,1,1
"482",58,475,0.5,"stim/13.jpeg",1,3,1,1,"Instruments",1,"stim/objects/Instruments/guitarcase3.png",1,"left","right",0.554000139,0,0,1
"483",58,476,0.3,"stim/42.jpeg",4,2,2,1,"HouseObjects",2,"stim/objects/HouseObjects/cushion4.png",2,"right","left",0.553000212,0,0,1
"484",58,477,0.3,"stim/31.jpeg",3,1,2,1,"Instruments",1,"stim/objects/Instruments/xylophone3.png",3,"left","right",0.476000071,0,0,1
"485",58,478,0.9,"stim/63.jpeg",6,3,3,2,"Instruments",1,"stim/objects/Instruments/frenchhorn3.png",1,"left","left",0.501999855,1,1,1
"486",58,479,0.9,"stim/61.jpeg",6,1,3,1,"Instruments",1,"stim/objects/Instruments/vuvuzela4.png",4,"left","left",0.611999989,1,1,1
"487",58,480,0.9,"stim/64.jpeg",6,4,3,1,"Instruments",1,"stim/objects/Instruments/metronome4.png",2,"left","left",0.666000128,1,1,1
"488",58,481,0.7,"stim/34.jpeg",3,4,2,2,"HouseObjects",2,"stim/objects/HouseObjects/cushion3.png",1,"right","right",0.653000116,1,1,1
"489",58,482,0.9,"stim/61.jpeg",6,1,3,2,"Instruments",1,"stim/objects/Instruments/flutetrans3.png",3,"left","left",0.539000034,1,1,1
"490",58,483,0.9,"stim/64.jpeg",6,4,3,2,"Instruments",1,"stim/objects/Instruments/grandpiano3.png",4,"left","left",0.586999893,1,1,1
"491",58,484,0.9,"stim/52.jpeg",5,2,3,2,"HouseObjects",2,"stim/objects/HouseObjects/dustpan3.png",1,"right","right",0.534999847,1,1,1
"492",58,485,0.5,"stim/12.jpeg",1,2,1,2,"Instruments",1,"stim/objects/Instruments/acousticguitar3.png",2,"left","right",0.741999865,0,0,1
"493",58,486,0.3,"stim/42.jpeg",4,2,2,1,"HouseObjects",2,"stim/objects/HouseObjects/clock4.png",2,"right","right",0.552999973,1,1,1
"494",58,487,0.9,"stim/62.jpeg",6,2,3,1,"Instruments",1,"stim/objects/Instruments/xylophone4.png",4,"left","left",0.55099988,1,1,1
"495",58,488,0.9,"stim/52.jpeg",5,2,3,2,"HouseObjects",2,"stim/objects/HouseObjects/glass3.png",4,"right","right",0.549999952,1,1,1
"496",58,489,0.3,"stim/42.jpeg",4,2,2,1,"HouseObjects",2,"stim/objects/HouseObjects/blender4.png",2,"right","right",0.536999941,1,1,1
"497",58,490,0.9,"stim/51.jpeg",5,1,3,2,"HouseObjects",2,"stim/objects/HouseObjects/dustpan3.png",2,"right","right",0.589999914,1,1,1
"498",58,491,0.5,"stim/11.jpeg",1,1,1,2,"HouseObjects",2,"stim/objects/HouseObjects/ballofstring3.png",2,"right","right",0.475000143,1,1,1
"499",58,492,0.5,"stim/22.jpeg",2,2,1,2,"HouseObjects",2,"stim/objects/HouseObjects/blender3.png",2,"right","right",0.715000153,1,1,1
"500",58,493,0.9,"stim/63.jpeg",6,3,3,1,"Instruments",1,"stim/objects/Instruments/oboe4.png",1,"left","left",0.460000038,1,1,1
"501",58,494,0.9,"stim/53.jpeg",5,3,3,2,"HouseObjects",2,"stim/objects/HouseObjects/glass3.png",2,"right","right",0.580000162,1,1,1
"502",58,495,0.9,"stim/64.jpeg",6,4,3,2,"Instruments",1,"stim/objects/Instruments/gong3.png",2,"left","left",0.529000044,1,1,1
"503",58,496,0.9,"stim/52.jpeg",5,2,3,2,"HouseObjects",2,"stim/objects/HouseObjects/garbagebin3.png",1,"right","right",0.519000053,1,1,1
"504",58,497,0.7,"stim/33.jpeg",3,3,2,2,"HouseObjects",2,"stim/objects/HouseObjects/dishsoap3.png",4,"right","right",0.503000021,1,1,1
"505",58,498,0.5,"stim/14.jpeg",1,4,1,2,"HouseObjects",2,"stim/objects/HouseObjects/basket3.png",1,"right","right",0.736000061,1,1,1
"506",58,499,0.9,"stim/63.jpeg",6,3,3,2,"Instruments",1,"stim/objects/Instruments/grandpiano3.png",1,"left","left",0.491999865,1,1,1
"507",58,500,0.9,"stim/53.jpeg",5,3,3,2,"HouseObjects",2,"stim/objects/HouseObjects/flyswatter3.png",1,"right","right",0.54399991,1,1,1
"508",58,501,0.9,"stim/53.jpeg",5,3,3,2,"HouseObjects",2,"stim/objects/HouseObjects/garbagebin3.png",4,"right","right",0.503999949,1,1,1
"509",58,502,0.7,"stim/41.jpeg",4,1,2,1,"Instruments",1,"stim/objects/Instruments/electricguitar4.png",3,"left","right",0.539000034,0,0,1
"510",58,503,0.5,"stim/12.jpeg",1,2,1,1,"HouseObjects",2,"stim/objects/HouseObjects/iron3.png",2,"right","right",0.792999983,1,1,1
"511",58,504,0.9,"stim/63.jpeg",6,3,3,2,"Instruments",1,"stim/objects/Instruments/frenchhorn3.png",4,"left","left",0.60800004,1,1,1
"512",58,505,0.9,"stim/54.jpeg",5,4,3,2,"HouseObjects",2,"stim/objects/HouseObjects/doormat3.png",2,"right","right",0.427999973,1,1,1
"513",58,506,0.9,"stim/63.jpeg",6,3,3,2,"Instruments",1,"stim/objects/Instruments/grandpiano3.png",3,"left","left",0.538000107,1,1,1
"514",58,507,0.9,"stim/64.jpeg",6,4,3,2,"Instruments",1,"stim/objects/Instruments/flutetrans3.png",1,"left","left",0.674999952,1,1,1
"515",58,508,0.3,"stim/31.jpeg",3,1,2,1,"Instruments",1,"stim/objects/Instruments/banjo4.png",3,"left","right",0.536000013,0,0,1
"516",58,509,0.3,"stim/41.jpeg",4,1,2,1,"HouseObjects",2,"stim/objects/HouseObjects/coffee4.png",3,"right","left",0.660000086,0,0,1
"517",58,510,0.1,"stim/53.jpeg",5,3,3,1,"Instruments",1,"stim/objects/Instruments/frenchhorn4.png",4,"left","right",0.469000101,0,0,1
"518",58,511,0.9,"stim/64.jpeg",6,4,3,2,"Instruments",1,"stim/objects/Instruments/flute3.png",4,"left","right",0.577000141,0,0,1
"519",58,512,0.5,"stim/24.jpeg",2,4,1,1,"HouseObjects",2,"stim/objects/HouseObjects/ironingboard3.png",1,"right","right",0.569000006,1,1,1
"520",58,513,0.7,"stim/44.jpeg",4,4,2,1,"Instruments",1,"stim/objects/Instruments/electricdrumset4.png",3,"left","left",0.470000029,1,1,1
"521",58,514,0.9,"stim/53.jpeg",5,3,3,2,"HouseObjects",2,"stim/objects/HouseObjects/doormat3.png",2,"right","right",0.472000122,1,1,1
"522",58,515,0.7,"stim/42.jpeg",4,2,2,1,"Instruments",1,"stim/objects/Instruments/doublebass4.png",4,"left","right",0.469000101,0,0,1
"523",58,516,0.9,"stim/62.jpeg",6,2,3,1,"Instruments",1,"stim/objects/Instruments/musicstand4.png",2,"left","left",0.555000067,1,1,1
"524",58,517,0.7,"stim/31.jpeg",3,1,2,2,"HouseObjects",2,"stim/objects/HouseObjects/dishsoap3.png",1,"right","right",0.473999977,1,1,1
"525",58,518,0.7,"stim/33.jpeg",3,3,2,2,"HouseObjects",2,"stim/objects/HouseObjects/coffee3.png",1,"right","right",0.617000103,1,1,1
"526",58,519,0.7,"stim/32.jpeg",3,2,2,1,"HouseObjects",2,"stim/objects/HouseObjects/pan3.png",2,"right","right",0.438000202,1,1,1
"527",58,520,0.9,"stim/52.jpeg",5,2,3,2,"HouseObjects",2,"stim/objects/HouseObjects/doormat3.png",3,"right","right",0.558000088,1,1,1
"528",58,521,0.3,"stim/33.jpeg",3,3,2,1,"Instruments",1,"stim/objects/Instruments/acousticguitar4.png",3,"left","right",0.393999815,0,0,1
"529",58,522,0.3,"stim/32.jpeg",3,2,2,1,"Instruments",1,"stim/objects/Instruments/oboe3.png",4,"left","right",0.444000006,0,0,1
"530",58,523,0.9,"stim/54.jpeg",5,4,3,2,"HouseObjects",2,"stim/objects/HouseObjects/glass3.png",1,"right","right",0.434000015,1,1,1
"531",58,524,0.9,"stim/53.jpeg",5,3,3,2,"HouseObjects",2,"stim/objects/HouseObjects/glass3.png",3,"right","right",0.618000031,1,1,1
"532",58,525,0.7,"stim/42.jpeg",4,2,2,2,"Instruments",1,"stim/objects/Instruments/cymbal3.png",4,"left","right",0.383000135,0,0,1
"533",58,526,0.9,"stim/54.jpeg",5,4,3,2,"HouseObjects",2,"stim/objects/HouseObjects/flyswatter3.png",4,"right","right",0.337000132,1,1,1
"534",58,527,0.9,"stim/54.jpeg",5,4,3,2,"HouseObjects",2,"stim/objects/HouseObjects/dustpan3.png",1,"right","right",0.490999937,1,1,1
"535",58,528,0.9,"stim/63.jpeg",6,3,3,2,"Instruments",1,"stim/objects/Instruments/frenchhorn3.png",3,"left","left",0.486999989,1,1,1
"536",58,529,0.9,"stim/64.jpeg",6,4,3,2,"Instruments",1,"stim/objects/Instruments/frenchhorn3.png",3,"left","left",0.568000078,1,1,1
"537",58,530,0.9,"stim/61.jpeg",6,1,3,2,"Instruments",1,"stim/objects/Instruments/flute3.png",1,"left","left",0.585999966,1,1,1
"538",58,531,0.9,"stim/62.jpeg",6,2,3,2,"Instruments",1,"stim/objects/Instruments/gong3.png",2,"left","right",0.414999962,0,0,1
"539",58,532,0.9,"stim/63.jpeg",6,3,3,2,"Instruments",1,"stim/objects/Instruments/frenchhorn3.png",2,"left","left",0.493000031,1,1,1
"540",58,533,0.1,"stim/52.jpeg",5,2,3,1,"Instruments",1,"stim/objects/Instruments/keyboard4.png",4,"left","right",0.661000013,0,0,1
"541",58,534,0.9,"stim/62.jpeg",6,2,3,2,"Instruments",1,"stim/objects/Instruments/flutetrans3.png",4,"left","left",0.479000092,1,1,1
"542",58,535,0.7,"stim/33.jpeg",3,3,2,1,"HouseObjects",2,"stim/objects/HouseObjects/bleachbottle4.png",2,"right","right",0.450999975,1,1,1
"543",58,536,0.9,"stim/54.jpeg",5,4,3,2,"HouseObjects",2,"stim/objects/HouseObjects/doormat3.png",2,"right","right",0.486000061,1,1,1
"544",58,537,0.9,"stim/53.jpeg",5,3,3,1,"HouseObjects",2,"stim/objects/HouseObjects/glass4.png",4,"right","right",0.398000002,1,1,1
"545",58,538,0.5,"stim/24.jpeg",2,4,1,1,"HouseObjects",2,"stim/objects/HouseObjects/match3.png",3,"right","left",0.404000044,0,0,1
"546",58,539,0.9,"stim/62.jpeg",6,2,3,2,"Instruments",1,"stim/objects/Instruments/frenchhorn3.png",2,"left","right",0.45600009,0,0,1
"547",58,540,0.9,"stim/62.jpeg",6,2,3,2,"Instruments",1,"stim/objects/Instruments/grandpiano3.png",2,"left","left",0.572999954,1,1,1
"548",58,541,0.7,"stim/34.jpeg",3,4,2,1,"HouseObjects",2,"stim/objects/HouseObjects/ballofstring4.png",4,"right","right",0.569999933,1,1,1
"549",58,542,0.9,"stim/64.jpeg",6,4,3,2,"Instruments",1,"stim/objects/Instruments/flutetrans3.png",1,"left","left",0.56799984,1,1,1
"550",58,543,0.9,"stim/54.jpeg",5,4,3,1,"HouseObjects",2,"stim/objects/HouseObjects/glassmop4.png",3,"right","right",0.657999992,1,1,1
"551",58,544,0.3,"stim/41.jpeg",4,1,2,1,"HouseObjects",2,"stim/objects/HouseObjects/bucket4.png",1,"right","left",0.546999931,0,0,1
"552",58,545,0.9,"stim/61.jpeg",6,1,3,2,"Instruments",1,"stim/objects/Instruments/frenchhorn3.png",4,"left","left",0.604000092,1,1,1
"553",58,546,0.3,"stim/44.jpeg",4,4,2,1,"HouseObjects",2,"stim/objects/HouseObjects/clothespin4.png",4,"right","",NA,0,0,1
"554",58,547,0.5,"stim/23.jpeg",2,3,1,2,"Instruments",1,"stim/objects/Instruments/cornet3.png",3,"left","left",0.724000216,1,1,1
"555",58,548,0.9,"stim/54.jpeg",5,4,3,2,"HouseObjects",2,"stim/objects/HouseObjects/flyswatter3.png",2,"right","",NA,0,0,1
"556",58,549,0.9,"stim/52.jpeg",5,2,3,2,"HouseObjects",2,"stim/objects/HouseObjects/flyswatter3.png",1,"right","right",0.634000063,1,1,1
"557",58,550,0.9,"stim/51.jpeg",5,1,3,2,"HouseObjects",2,"stim/objects/HouseObjects/doormat3.png",3,"right","right",0.529999971,1,1,1
"558",58,551,0.5,"stim/11.jpeg",1,1,1,1,"HouseObjects",2,"stim/objects/HouseObjects/handvacuum3.png",4,"right","left",0.496000051,0,0,1
"559",58,552,0.9,"stim/64.jpeg",6,4,3,2,"Instruments",1,"stim/objects/Instruments/flute3.png",4,"left","left",0.573999882,1,1,1
"560",58,553,0.9,"stim/62.jpeg",6,2,3,1,"Instruments",1,"stim/objects/Instruments/maraca4.png",4,"left","left",0.686000109,1,1,1
"561",58,554,0.9,"stim/54.jpeg",5,4,3,1,"HouseObjects",2,"stim/objects/HouseObjects/iron4.png",2,"right","right",0.592000008,1,1,1
"562",58,555,0.1,"stim/52.jpeg",5,2,3,1,"Instruments",1,"stim/objects/Instruments/guitarcase4.png",2,"left","right",0.67599988,0,0,1
"563",58,556,0.1,"stim/62.jpeg",6,2,3,1,"HouseObjects",2,"stim/objects/HouseObjects/towel4.png",2,"right","",NA,0,0,1
"564",58,557,0.1,"stim/54.jpeg",5,4,3,1,"Instruments",1,"stim/objects/Instruments/gong4.png",2,"left","right",0.728000164,0,0,1
"565",58,558,0.9,"stim/53.jpeg",5,3,3,2,"HouseObjects",2,"stim/objects/HouseObjects/dustpan3.png",4,"right","right",0.679999828,1,1,1
"566",58,559,0.9,"stim/54.jpeg",5,4,3,2,"HouseObjects",2,"stim/objects/HouseObjects/dustpan3.png",2,"right","right",0.820000172,1,1,1
"567",58,560,0.7,"stim/41.jpeg",4,1,2,1,"Instruments",1,"stim/objects/Instruments/cymbal4.png",2,"left","right",0.828999996,0,0,1
"568",58,561,0.9,"stim/51.jpeg",5,1,3,2,"HouseObjects",2,"stim/objects/HouseObjects/garbagebin3.png",4,"right","",NA,0,0,1
"569",58,562,0.3,"stim/32.jpeg",3,2,2,1,"Instruments",1,"stim/objects/Instruments/bassdrum4.png",3,"left","right",0.638000011,0,0,1
"570",58,563,0.5,"stim/23.jpeg",2,3,1,2,"HouseObjects",2,"stim/objects/HouseObjects/clock3.png",4,"right","right",0.535000086,1,1,1
"571",58,564,0.9,"stim/53.jpeg",5,3,3,2,"HouseObjects",2,"stim/objects/HouseObjects/garbagebin3.png",3,"right","right",0.542000055,1,1,1
"572",58,565,0.9,"stim/63.jpeg",6,3,3,2,"Instruments",1,"stim/objects/Instruments/flutetrans3.png",1,"left","left",0.615999937,1,1,1
"573",58,566,0.9,"stim/61.jpeg",6,1,3,2,"Instruments",1,"stim/objects/Instruments/flutetrans3.png",2,"left","left",0.618000031,1,1,1
"574",58,567,0.7,"stim/31.jpeg",3,1,2,2,"HouseObjects",2,"stim/objects/HouseObjects/clothesdryingrack3.png",1,"right","left",0.621000051,0,0,1
"575",58,568,0.9,"stim/52.jpeg",5,2,3,2,"HouseObjects",2,"stim/objects/HouseObjects/dustpan3.png",4,"right","",NA,0,0,1
"576",58,569,0.5,"stim/14.jpeg",1,4,1,2,"HouseObjects",2,"stim/objects/HouseObjects/ashtray3.png",1,"right","right",0.605000019,1,1,1
"577",58,570,0.9,"stim/63.jpeg",6,3,3,2,"Instruments",1,"stim/objects/Instruments/gong3.png",3,"left","left",0.532000065,1,1,1
