"","obj_file","X.x","participant.x","trialN.x","trial_cond","scn_file.x","scn_cat","scn_inst","scn_condition","fillers","obj_cat","obj_cat_num","quadrant","corr_ans","key_resp_trial.keys","key_resp_trial.rt","trial_acc","trial_acc_manual","group.x","practice","X.y","participant.y","OvsN","PE_level","object_cat","scn_file.y","corr_scn_cat","corr_scn_inst","scn_file.1","corr_loc","key_resp_id.keys","key_resp_id.rt","key_resp_conf.keys","key_resp_assoc.keys","key_resp_assoc.rt","key_resp_loc.keys","key_resp_loc.rt","trialN.y","id_acc","assoc.acc","cond_assoc","loc.acc","cond_loc","group.y"
"96","stim/objects/HouseObjects/spraybottle2.png",1,58,1,0.1,"stim/61.jpeg",6,1,3,NA,"HouseObjects",2,2,"right","",NA,0,0,0,1,NA,NA,NA,NA,NA,NA,NA,NA,NA,NA,NA,NA,NA,NA,NA,NA,NA,NA,NA,NA,NA,NA,NA,NA
"157","stim/objects/Instruments/record.png",2,58,2,0.5,"stim/13.jpeg",1,3,1,NA,"Instruments",1,1,"left","right",0.724999905,0,0,0,1,NA,NA,NA,NA,NA,NA,NA,NA,NA,NA,NA,NA,NA,NA,NA,NA,NA,NA,NA,NA,NA,NA,NA,NA
"113","stim/objects/HouseObjects/thread.png",3,58,3,0.7,"stim/34.jpeg",3,4,2,NA,"HouseObjects",2,4,"right","right",0.588999987,1,1,0,1,NA,NA,NA,NA,NA,NA,NA,NA,NA,NA,NA,NA,NA,NA,NA,NA,NA,NA,NA,NA,NA,NA,NA,NA
"169","stim/objects/Instruments/saxophone.png",4,58,4,0.5,"stim/21.jpeg",2,1,1,NA,"Instruments",1,4,"left","right",0.45600009,0,0,0,1,NA,NA,NA,NA,NA,NA,NA,NA,NA,NA,NA,NA,NA,NA,NA,NA,NA,NA,NA,NA,NA,NA,NA,NA
"97","stim/objects/HouseObjects/teapot.png",5,58,5,0.7,"stim/32.jpeg",3,2,2,NA,"HouseObjects",2,1,"right","right",0.871999979,1,1,0,1,NA,NA,NA,NA,NA,NA,NA,NA,NA,NA,NA,NA,NA,NA,NA,NA,NA,NA,NA,NA,NA,NA,NA,NA
"114","stim/objects/HouseObjects/thread.png",6,58,6,0.7,"stim/34.jpeg",3,4,2,NA,"HouseObjects",2,3,"right","left",0.933000088,0,0,0,1,NA,NA,NA,NA,NA,NA,NA,NA,NA,NA,NA,NA,NA,NA,NA,NA,NA,NA,NA,NA,NA,NA,NA,NA
"232","stim/objects/Instruments/tuba2.png",7,58,7,0.9,"stim/64.jpeg",6,4,3,NA,"Instruments",1,3,"left","left",0.555999994,1,1,0,1,NA,NA,NA,NA,NA,NA,NA,NA,NA,NA,NA,NA,NA,NA,NA,NA,NA,NA,NA,NA,NA,NA,NA,NA
"89","stim/objects/HouseObjects/spraybottle.png",8,58,8,0.7,"stim/31.jpeg",3,1,2,NA,"HouseObjects",2,2,"right","right",0.64199996,1,1,0,1,NA,NA,NA,NA,NA,NA,NA,NA,NA,NA,NA,NA,NA,NA,NA,NA,NA,NA,NA,NA,NA,NA,NA,NA
"105","stim/objects/HouseObjects/thermometer.png",9,58,9,0.7,"stim/33.jpeg",3,3,2,NA,"HouseObjects",2,4,"right","right",0.694000006,1,1,0,1,NA,NA,NA,NA,NA,NA,NA,NA,NA,NA,NA,NA,NA,NA,NA,NA,NA,NA,NA,NA,NA,NA,NA,NA
"9","stim/objects/HouseObjects/remote.png",10,58,10,0.5,"stim/12.jpeg",1,2,1,NA,"HouseObjects",2,2,"right","left",0.72300005,0,0,0,1,NA,NA,NA,NA,NA,NA,NA,NA,NA,NA,NA,NA,NA,NA,NA,NA,NA,NA,NA,NA,NA,NA,NA,NA
"138","stim/objects/Instruments/pipepiano2.png",11,58,11,0.7,"stim/42.jpeg",4,2,2,NA,"Instruments",1,1,"left","left",0.895000219,1,1,0,1,NA,NA,NA,NA,NA,NA,NA,NA,NA,NA,NA,NA,NA,NA,NA,NA,NA,NA,NA,NA,NA,NA,NA,NA
"106","stim/objects/HouseObjects/thermometer.png",12,58,12,0.7,"stim/33.jpeg",3,3,2,NA,"HouseObjects",2,2,"right","right",0.419000149,1,1,0,1,NA,NA,NA,NA,NA,NA,NA,NA,NA,NA,NA,NA,NA,NA,NA,NA,NA,NA,NA,NA,NA,NA,NA,NA
"66","stim/objects/HouseObjects/scale2.png",13,58,13,0.9,"stim/53.jpeg",5,3,3,NA,"HouseObjects",2,2,"right","right",0.866999865,1,1,0,1,NA,NA,NA,NA,NA,NA,NA,NA,NA,NA,NA,NA,NA,NA,NA,NA,NA,NA,NA,NA,NA,NA,NA,NA
"52","stim/objects/HouseObjects/saw2.png",14,58,14,0.9,"stim/52.jpeg",5,2,3,NA,"HouseObjects",2,1,"right","",NA,0,0,0,1,NA,NA,NA,NA,NA,NA,NA,NA,NA,NA,NA,NA,NA,NA,NA,NA,NA,NA,NA,NA,NA,NA,NA,NA
"126","stim/objects/Instruments/panflute2.png",15,58,15,0.7,"stim/41.jpeg",4,1,2,NA,"Instruments",1,1,"left","left",0.795000076,1,1,0,1,NA,NA,NA,NA,NA,NA,NA,NA,NA,NA,NA,NA,NA,NA,NA,NA,NA,NA,NA,NA,NA,NA,NA,NA
"121","stim/objects/Instruments/panflute.png",16,58,16,0.5,"stim/11.jpeg",1,1,1,NA,"Instruments",1,4,"left","right",0.585999966,0,0,0,1,NA,NA,NA,NA,NA,NA,NA,NA,NA,NA,NA,NA,NA,NA,NA,NA,NA,NA,NA,NA,NA,NA,NA,NA
"98","stim/objects/HouseObjects/teapot.png",17,58,17,0.7,"stim/32.jpeg",3,2,2,NA,"HouseObjects",2,3,"right","right",0.656999826,1,1,0,1,NA,NA,NA,NA,NA,NA,NA,NA,NA,NA,NA,NA,NA,NA,NA,NA,NA,NA,NA,NA,NA,NA,NA,NA
"196","stim/objects/Instruments/triangle2.png",18,58,18,0.9,"stim/61.jpeg",6,1,3,NA,"Instruments",1,4,"left","left",0.589000225,1,1,0,1,NA,NA,NA,NA,NA,NA,NA,NA,NA,NA,NA,NA,NA,NA,NA,NA,NA,NA,NA,NA,NA,NA,NA,NA
"186","stim/objects/Instruments/tambourine2.png",19,58,19,0.1,"stim/53.jpeg",5,3,3,NA,"Instruments",1,4,"left","right",0.55099988,0,0,0,1,NA,NA,NA,NA,NA,NA,NA,NA,NA,NA,NA,NA,NA,NA,NA,NA,NA,NA,NA,NA,NA,NA,NA,NA
"25","stim/objects/HouseObjects/rug.png",20,58,20,0.5,"stim/14.jpeg",1,4,1,NA,"HouseObjects",2,3,"right","right",0.529999971,1,1,0,1,NA,NA,NA,NA,NA,NA,NA,NA,NA,NA,NA,NA,NA,NA,NA,NA,NA,NA,NA,NA,NA,NA,NA,NA
"175","stim/objects/Instruments/speaker.png",21,58,21,0.5,"stim/22.jpeg",2,2,1,NA,"Instruments",1,3,"left","right",0.610999823,0,0,0,1,NA,NA,NA,NA,NA,NA,NA,NA,NA,NA,NA,NA,NA,NA,NA,NA,NA,NA,NA,NA,NA,NA,NA,NA
"197","stim/objects/Instruments/triangle2.png",22,58,22,0.9,"stim/61.jpeg",6,1,3,NA,"Instruments",1,3,"left","left",0.540999889,1,1,0,1,NA,NA,NA,NA,NA,NA,NA,NA,NA,NA,NA,NA,NA,NA,NA,NA,NA,NA,NA,NA,NA,NA,NA,NA
"220","stim/objects/Instruments/trumpet2.png",23,58,23,0.9,"stim/63.jpeg",6,3,3,NA,"Instruments",1,3,"left","left",0.576000214,1,1,0,1,NA,NA,NA,NA,NA,NA,NA,NA,NA,NA,NA,NA,NA,NA,NA,NA,NA,NA,NA,NA,NA,NA,NA,NA
"133","stim/objects/Instruments/pipepiano.png",24,58,24,0.5,"stim/12.jpeg",1,2,1,NA,"Instruments",1,3,"left","left",0.421000004,1,1,0,1,NA,NA,NA,NA,NA,NA,NA,NA,NA,NA,NA,NA,NA,NA,NA,NA,NA,NA,NA,NA,NA,NA,NA,NA
"158","stim/objects/Instruments/record.png",25,58,25,0.5,"stim/13.jpeg",1,3,1,NA,"Instruments",1,3,"left","left",0.559999943,1,1,0,1,NA,NA,NA,NA,NA,NA,NA,NA,NA,NA,NA,NA,NA,NA,NA,NA,NA,NA,NA,NA,NA,NA,NA,NA
"75","stim/objects/HouseObjects/sponge.png",26,58,26,0.5,"stim/24.jpeg",2,4,1,NA,"HouseObjects",2,2,"right","right",0.541000128,1,1,0,1,NA,NA,NA,NA,NA,NA,NA,NA,NA,NA,NA,NA,NA,NA,NA,NA,NA,NA,NA,NA,NA,NA,NA,NA
"181","stim/objects/Instruments/tambourine.png",27,58,27,0.5,"stim/23.jpeg",2,3,1,NA,"Instruments",1,4,"left","",NA,0,0,0,1,NA,NA,NA,NA,NA,NA,NA,NA,NA,NA,NA,NA,NA,NA,NA,NA,NA,NA,NA,NA,NA,NA,NA,NA
"198","stim/objects/Instruments/triangle2.png",28,58,28,0.9,"stim/61.jpeg",6,1,3,NA,"Instruments",1,2,"left","left",0.480000019,1,1,0,1,NA,NA,NA,NA,NA,NA,NA,NA,NA,NA,NA,NA,NA,NA,NA,NA,NA,NA,NA,NA,NA,NA,NA,NA
"107","stim/objects/HouseObjects/thermometer.png",29,58,29,0.7,"stim/33.jpeg",3,3,2,NA,"HouseObjects",2,4,"right","right",0.505000114,1,1,0,1,NA,NA,NA,NA,NA,NA,NA,NA,NA,NA,NA,NA,NA,NA,NA,NA,NA,NA,NA,NA,NA,NA,NA,NA
"14","stim/objects/HouseObjects/remote2.png",30,58,30,0.3,"stim/42.jpeg",4,2,2,NA,"HouseObjects",2,2,"right","right",0.673000097,1,1,0,1,NA,NA,NA,NA,NA,NA,NA,NA,NA,NA,NA,NA,NA,NA,NA,NA,NA,NA,NA,NA,NA,NA,NA,NA
"150","stim/objects/Instruments/record_player2.png",31,58,31,0.7,"stim/44.jpeg",4,4,2,NA,"Instruments",1,4,"left","right",0.773999929,0,0,0,1,NA,NA,NA,NA,NA,NA,NA,NA,NA,NA,NA,NA,NA,NA,NA,NA,NA,NA,NA,NA,NA,NA,NA,NA
"187","stim/objects/Instruments/timbal.png",32,58,32,0.5,"stim/24.jpeg",2,4,1,NA,"Instruments",1,2,"left","",NA,0,0,0,1,NA,NA,NA,NA,NA,NA,NA,NA,NA,NA,NA,NA,NA,NA,NA,NA,NA,NA,NA,NA,NA,NA,NA,NA
"229","stim/objects/Instruments/tuba.png",33,58,33,0.3,"stim/34.jpeg",3,4,2,NA,"Instruments",1,3,"left","left",0.868999958,1,1,0,1,NA,NA,NA,NA,NA,NA,NA,NA,NA,NA,NA,NA,NA,NA,NA,NA,NA,NA,NA,NA,NA,NA,NA,NA
"53","stim/objects/HouseObjects/saw2.png",34,58,34,0.9,"stim/52.jpeg",5,2,3,NA,"HouseObjects",2,4,"right","right",0.437000036,1,1,0,1,NA,NA,NA,NA,NA,NA,NA,NA,NA,NA,NA,NA,NA,NA,NA,NA,NA,NA,NA,NA,NA,NA,NA,NA
"67","stim/objects/HouseObjects/scale2.png",35,58,35,0.9,"stim/53.jpeg",5,3,3,NA,"HouseObjects",2,2,"right","right",0.498000145,1,1,0,1,NA,NA,NA,NA,NA,NA,NA,NA,NA,NA,NA,NA,NA,NA,NA,NA,NA,NA,NA,NA,NA,NA,NA,NA
"122","stim/objects/Instruments/panflute.png",36,58,36,0.5,"stim/11.jpeg",1,1,1,NA,"Instruments",1,2,"left","right",0.587000132,0,0,0,1,NA,NA,NA,NA,NA,NA,NA,NA,NA,NA,NA,NA,NA,NA,NA,NA,NA,NA,NA,NA,NA,NA,NA,NA
"10","stim/objects/HouseObjects/remote.png",37,58,37,0.5,"stim/12.jpeg",1,2,1,NA,"HouseObjects",2,3,"right","right",0.738000154,1,1,0,1,NA,NA,NA,NA,NA,NA,NA,NA,NA,NA,NA,NA,NA,NA,NA,NA,NA,NA,NA,NA,NA,NA,NA,NA
"221","stim/objects/Instruments/trumpet2.png",38,58,38,0.9,"stim/63.jpeg",6,3,3,NA,"Instruments",1,3,"left","left",0.63499999,1,1,0,1,NA,NA,NA,NA,NA,NA,NA,NA,NA,NA,NA,NA,NA,NA,NA,NA,NA,NA,NA,NA,NA,NA,NA,NA
"145","stim/objects/Instruments/record_player.png",39,58,39,0.5,"stim/14.jpeg",1,4,1,NA,"Instruments",1,3,"left","right",0.670000076,0,0,0,1,NA,NA,NA,NA,NA,NA,NA,NA,NA,NA,NA,NA,NA,NA,NA,NA,NA,NA,NA,NA,NA,NA,NA,NA
"162","stim/objects/Instruments/record2.png",40,58,40,0.7,"stim/43.jpeg",4,3,2,NA,"Instruments",1,1,"left","right",0.737999916,0,0,0,1,NA,NA,NA,NA,NA,NA,NA,NA,NA,NA,NA,NA,NA,NA,NA,NA,NA,NA,NA,NA,NA,NA,NA,NA
"151","stim/objects/Instruments/record_player2.png",41,58,41,0.7,"stim/44.jpeg",4,4,2,NA,"Instruments",1,1,"left","left",0.552999973,1,1,0,1,NA,NA,NA,NA,NA,NA,NA,NA,NA,NA,NA,NA,NA,NA,NA,NA,NA,NA,NA,NA,NA,NA,NA,NA
"68","stim/objects/HouseObjects/scale2.png",42,58,42,0.9,"stim/53.jpeg",5,3,3,NA,"HouseObjects",2,1,"right","right",0.707000017,1,1,0,1,NA,NA,NA,NA,NA,NA,NA,NA,NA,NA,NA,NA,NA,NA,NA,NA,NA,NA,NA,NA,NA,NA,NA,NA
"208","stim/objects/Instruments/trombone2.png",43,58,43,0.9,"stim/62.jpeg",6,2,3,NA,"Instruments",1,1,"left","left",0.730000019,1,1,0,1,NA,NA,NA,NA,NA,NA,NA,NA,NA,NA,NA,NA,NA,NA,NA,NA,NA,NA,NA,NA,NA,NA,NA,NA
"47","stim/objects/HouseObjects/saw.png",44,58,44,0.5,"stim/22.jpeg",2,2,1,NA,"HouseObjects",2,3,"right","right",0.505000114,1,1,0,1,NA,NA,NA,NA,NA,NA,NA,NA,NA,NA,NA,NA,NA,NA,NA,NA,NA,NA,NA,NA,NA,NA,NA,NA
"17","stim/objects/HouseObjects/rubbergloves.png",45,58,45,0.5,"stim/13.jpeg",1,3,1,NA,"HouseObjects",2,1,"right","right",0.496999979,1,1,0,1,NA,NA,NA,NA,NA,NA,NA,NA,NA,NA,NA,NA,NA,NA,NA,NA,NA,NA,NA,NA,NA,NA,NA,NA
"80","stim/objects/HouseObjects/sponge2.png",46,58,46,0.9,"stim/54.jpeg",5,4,3,NA,"HouseObjects",2,4,"right","right",0.740999937,1,1,0,1,NA,NA,NA,NA,NA,NA,NA,NA,NA,NA,NA,NA,NA,NA,NA,NA,NA,NA,NA,NA,NA,NA,NA,NA
"108","stim/objects/HouseObjects/thermometer.png",47,58,47,0.7,"stim/33.jpeg",3,3,2,NA,"HouseObjects",2,1,"right","right",0.544999838,1,1,0,1,NA,NA,NA,NA,NA,NA,NA,NA,NA,NA,NA,NA,NA,NA,NA,NA,NA,NA,NA,NA,NA,NA,NA,NA
"115","stim/objects/HouseObjects/thread.png",48,58,48,0.7,"stim/34.jpeg",3,4,2,NA,"HouseObjects",2,4,"right","right",0.584000111,1,1,0,1,NA,NA,NA,NA,NA,NA,NA,NA,NA,NA,NA,NA,NA,NA,NA,NA,NA,NA,NA,NA,NA,NA,NA,NA
"170","stim/objects/Instruments/saxophone.png",49,58,49,0.5,"stim/21.jpeg",2,1,1,NA,"Instruments",1,2,"left","right",0.671000004,0,0,0,1,NA,NA,NA,NA,NA,NA,NA,NA,NA,NA,NA,NA,NA,NA,NA,NA,NA,NA,NA,NA,NA,NA,NA,NA
"26","stim/objects/HouseObjects/rug.png",50,58,50,0.5,"stim/14.jpeg",1,4,1,NA,"HouseObjects",2,2,"right","right",0.904000044,1,1,0,1,NA,NA,NA,NA,NA,NA,NA,NA,NA,NA,NA,NA,NA,NA,NA,NA,NA,NA,NA,NA,NA,NA,NA,NA
"18","stim/objects/HouseObjects/rubbergloves.png",51,58,51,0.5,"stim/13.jpeg",1,3,1,NA,"HouseObjects",2,4,"right","right",0.671999931,1,1,0,1,NA,NA,NA,NA,NA,NA,NA,NA,NA,NA,NA,NA,NA,NA,NA,NA,NA,NA,NA,NA,NA,NA,NA,NA
"134","stim/objects/Instruments/pipepiano.png",52,58,52,0.5,"stim/12.jpeg",1,2,1,NA,"Instruments",1,4,"left","right",0.720000029,0,0,0,1,NA,NA,NA,NA,NA,NA,NA,NA,NA,NA,NA,NA,NA,NA,NA,NA,NA,NA,NA,NA,NA,NA,NA,NA
"139","stim/objects/Instruments/pipepiano2.png",53,58,53,0.7,"stim/42.jpeg",4,2,2,NA,"Instruments",1,3,"left","left",0.757000208,1,1,0,1,NA,NA,NA,NA,NA,NA,NA,NA,NA,NA,NA,NA,NA,NA,NA,NA,NA,NA,NA,NA,NA,NA,NA,NA
"11","stim/objects/HouseObjects/remote.png",54,58,54,0.5,"stim/12.jpeg",1,2,1,NA,"HouseObjects",2,1,"right","",NA,0,0,0,1,NA,NA,NA,NA,NA,NA,NA,NA,NA,NA,NA,NA,NA,NA,NA,NA,NA,NA,NA,NA,NA,NA,NA,NA
"233","stim/objects/Instruments/tuba2.png",55,58,55,0.9,"stim/64.jpeg",6,4,3,NA,"Instruments",1,4,"left","left",0.699999809,1,1,0,1,NA,NA,NA,NA,NA,NA,NA,NA,NA,NA,NA,NA,NA,NA,NA,NA,NA,NA,NA,NA,NA,NA,NA,NA
"30","stim/objects/HouseObjects/rug2.png",56,58,56,0.3,"stim/44.jpeg",4,4,2,NA,"HouseObjects",2,1,"right","right",0.397000074,1,1,0,1,NA,NA,NA,NA,NA,NA,NA,NA,NA,NA,NA,NA,NA,NA,NA,NA,NA,NA,NA,NA,NA,NA,NA,NA
"199","stim/objects/Instruments/triangle2.png",57,58,57,0.9,"stim/61.jpeg",6,1,3,NA,"Instruments",1,4,"left","left",0.702000141,1,1,0,1,NA,NA,NA,NA,NA,NA,NA,NA,NA,NA,NA,NA,NA,NA,NA,NA,NA,NA,NA,NA,NA,NA,NA,NA
"12","stim/objects/HouseObjects/remote.png",58,58,58,0.5,"stim/12.jpeg",1,2,1,NA,"HouseObjects",2,2,"right","right",0.518000126,1,1,0,1,NA,NA,NA,NA,NA,NA,NA,NA,NA,NA,NA,NA,NA,NA,NA,NA,NA,NA,NA,NA,NA,NA,NA,NA
"209","stim/objects/Instruments/trombone2.png",59,58,59,0.9,"stim/62.jpeg",6,2,3,NA,"Instruments",1,4,"left","left",0.562000036,1,1,0,1,NA,NA,NA,NA,NA,NA,NA,NA,NA,NA,NA,NA,NA,NA,NA,NA,NA,NA,NA,NA,NA,NA,NA,NA
"99","stim/objects/HouseObjects/teapot.png",60,58,60,0.7,"stim/32.jpeg",3,2,2,NA,"HouseObjects",2,1,"right","right",0.603999853,1,1,0,1,NA,NA,NA,NA,NA,NA,NA,NA,NA,NA,NA,NA,NA,NA,NA,NA,NA,NA,NA,NA,NA,NA,NA,NA
"54","stim/objects/HouseObjects/saw2.png",61,58,61,0.9,"stim/52.jpeg",5,2,3,NA,"HouseObjects",2,3,"right","right",0.804999828,1,1,0,1,NA,NA,NA,NA,NA,NA,NA,NA,NA,NA,NA,NA,NA,NA,NA,NA,NA,NA,NA,NA,NA,NA,NA,NA
"61","stim/objects/HouseObjects/scale.png",62,58,62,0.5,"stim/23.jpeg",2,3,1,NA,"HouseObjects",2,2,"right","right",0.637000084,1,1,0,1,NA,NA,NA,NA,NA,NA,NA,NA,NA,NA,NA,NA,NA,NA,NA,NA,NA,NA,NA,NA,NA,NA,NA,NA
"146","stim/objects/Instruments/record_player.png",63,58,63,0.5,"stim/14.jpeg",1,4,1,NA,"Instruments",1,1,"left","right",0.926000118,0,0,0,1,NA,NA,NA,NA,NA,NA,NA,NA,NA,NA,NA,NA,NA,NA,NA,NA,NA,NA,NA,NA,NA,NA,NA,NA
"38","stim/objects/HouseObjects/safetypin2.png",64,58,64,0.9,"stim/51.jpeg",5,1,3,NA,"HouseObjects",2,1,"right","right",0.772000074,1,1,0,1,NA,NA,NA,NA,NA,NA,NA,NA,NA,NA,NA,NA,NA,NA,NA,NA,NA,NA,NA,NA,NA,NA,NA,NA
"55","stim/objects/HouseObjects/saw2.png",65,58,65,0.9,"stim/52.jpeg",5,2,3,NA,"HouseObjects",2,3,"right","right",0.656999826,1,1,0,1,NA,NA,NA,NA,NA,NA,NA,NA,NA,NA,NA,NA,NA,NA,NA,NA,NA,NA,NA,NA,NA,NA,NA,NA
"188","stim/objects/Instruments/timbal.png",66,58,66,0.5,"stim/24.jpeg",2,4,1,NA,"Instruments",1,1,"left","right",0.667000055,0,0,0,1,NA,NA,NA,NA,NA,NA,NA,NA,NA,NA,NA,NA,NA,NA,NA,NA,NA,NA,NA,NA,NA,NA,NA,NA
"100","stim/objects/HouseObjects/teapot.png",67,58,67,0.7,"stim/32.jpeg",3,2,2,NA,"HouseObjects",2,4,"right","right",0.734999895,1,1,0,1,NA,NA,NA,NA,NA,NA,NA,NA,NA,NA,NA,NA,NA,NA,NA,NA,NA,NA,NA,NA,NA,NA,NA,NA
"222","stim/objects/Instruments/trumpet2.png",68,58,68,0.9,"stim/63.jpeg",6,3,3,NA,"Instruments",1,2,"left","left",0.704999924,1,1,0,1,NA,NA,NA,NA,NA,NA,NA,NA,NA,NA,NA,NA,NA,NA,NA,NA,NA,NA,NA,NA,NA,NA,NA,NA
"90","stim/objects/HouseObjects/spraybottle.png",69,58,69,0.7,"stim/31.jpeg",3,1,2,NA,"HouseObjects",2,3,"right","right",0.55700016,1,1,0,1,NA,NA,NA,NA,NA,NA,NA,NA,NA,NA,NA,NA,NA,NA,NA,NA,NA,NA,NA,NA,NA,NA,NA,NA
"91","stim/objects/HouseObjects/spraybottle.png",70,58,70,0.7,"stim/31.jpeg",3,1,2,NA,"HouseObjects",2,3,"right","right",0.628999949,1,1,0,1,NA,NA,NA,NA,NA,NA,NA,NA,NA,NA,NA,NA,NA,NA,NA,NA,NA,NA,NA,NA,NA,NA,NA,NA
"19","stim/objects/HouseObjects/rubbergloves.png",71,58,71,0.5,"stim/13.jpeg",1,3,1,NA,"HouseObjects",2,3,"right","",NA,0,0,0,1,NA,NA,NA,NA,NA,NA,NA,NA,NA,NA,NA,NA,NA,NA,NA,NA,NA,NA,NA,NA,NA,NA,NA,NA
"140","stim/objects/Instruments/pipepiano2.png",72,58,72,0.7,"stim/42.jpeg",4,2,2,NA,"Instruments",1,3,"left","right",0.756999969,0,0,0,1,NA,NA,NA,NA,NA,NA,NA,NA,NA,NA,NA,NA,NA,NA,NA,NA,NA,NA,NA,NA,NA,NA,NA,NA
"135","stim/objects/Instruments/pipepiano.png",73,58,73,0.5,"stim/12.jpeg",1,2,1,NA,"Instruments",1,1,"left","",NA,0,0,0,1,NA,NA,NA,NA,NA,NA,NA,NA,NA,NA,NA,NA,NA,NA,NA,NA,NA,NA,NA,NA,NA,NA,NA,NA
"141","stim/objects/Instruments/pipepiano2.png",74,58,74,0.7,"stim/42.jpeg",4,2,2,NA,"Instruments",1,2,"left","right",0.69299984,0,0,0,1,NA,NA,NA,NA,NA,NA,NA,NA,NA,NA,NA,NA,NA,NA,NA,NA,NA,NA,NA,NA,NA,NA,NA,NA
"81","stim/objects/HouseObjects/sponge2.png",75,58,75,0.9,"stim/54.jpeg",5,4,3,NA,"HouseObjects",2,1,"right","right",0.60800004,1,1,0,1,NA,NA,NA,NA,NA,NA,NA,NA,NA,NA,NA,NA,NA,NA,NA,NA,NA,NA,NA,NA,NA,NA,NA,NA
"69","stim/objects/HouseObjects/scale2.png",76,58,76,0.9,"stim/53.jpeg",5,3,3,NA,"HouseObjects",2,2,"right","right",0.859000206,1,1,0,1,NA,NA,NA,NA,NA,NA,NA,NA,NA,NA,NA,NA,NA,NA,NA,NA,NA,NA,NA,NA,NA,NA,NA,NA
"210","stim/objects/Instruments/trombone2.png",77,58,77,0.9,"stim/62.jpeg",6,2,3,NA,"Instruments",1,1,"left","left",0.609999895,1,1,0,1,NA,NA,NA,NA,NA,NA,NA,NA,NA,NA,NA,NA,NA,NA,NA,NA,NA,NA,NA,NA,NA,NA,NA,NA
"56","stim/objects/HouseObjects/saw2.png",78,58,78,0.9,"stim/52.jpeg",5,2,3,NA,"HouseObjects",2,2,"right","right",0.511999846,1,1,0,1,NA,NA,NA,NA,NA,NA,NA,NA,NA,NA,NA,NA,NA,NA,NA,NA,NA,NA,NA,NA,NA,NA,NA,NA
"147","stim/objects/Instruments/record_player.png",79,58,79,0.5,"stim/14.jpeg",1,4,1,NA,"Instruments",1,4,"left","right",0.782999992,0,0,0,1,NA,NA,NA,NA,NA,NA,NA,NA,NA,NA,NA,NA,NA,NA,NA,NA,NA,NA,NA,NA,NA,NA,NA,NA
"223","stim/objects/Instruments/trumpet2.png",80,58,80,0.9,"stim/63.jpeg",6,3,3,NA,"Instruments",1,4,"left","left",0.536000013,1,1,0,1,NA,NA,NA,NA,NA,NA,NA,NA,NA,NA,NA,NA,NA,NA,NA,NA,NA,NA,NA,NA,NA,NA,NA,NA
"15","stim/objects/HouseObjects/remote2.png",81,58,81,0.3,"stim/42.jpeg",4,2,2,NA,"HouseObjects",2,3,"right","right",0.695999861,1,1,0,1,NA,NA,NA,NA,NA,NA,NA,NA,NA,NA,NA,NA,NA,NA,NA,NA,NA,NA,NA,NA,NA,NA,NA,NA
"20","stim/objects/HouseObjects/rubbergloves.png",82,58,82,0.5,"stim/13.jpeg",1,3,1,NA,"HouseObjects",2,3,"right","",NA,0,0,0,1,NA,NA,NA,NA,NA,NA,NA,NA,NA,NA,NA,NA,NA,NA,NA,NA,NA,NA,NA,NA,NA,NA,NA,NA
"205","stim/objects/Instruments/trombone.png",83,58,83,0.3,"stim/32.jpeg",3,2,2,NA,"Instruments",1,2,"left","right",0.582000017,0,0,0,1,NA,NA,NA,NA,NA,NA,NA,NA,NA,NA,NA,NA,NA,NA,NA,NA,NA,NA,NA,NA,NA,NA,NA,NA
"1","stim/objects/HouseObjects/recyclingbin.png",84,58,84,0.5,"stim/11.jpeg",1,1,1,NA,"HouseObjects",2,2,"right","right",0.606000185,1,1,0,1,NA,NA,NA,NA,NA,NA,NA,NA,NA,NA,NA,NA,NA,NA,NA,NA,NA,NA,NA,NA,NA,NA,NA,NA
"120","stim/objects/HouseObjects/thread2.png",85,58,85,0.1,"stim/64.jpeg",6,4,3,NA,"HouseObjects",2,4,"right","left",0.898999929,0,0,0,1,NA,NA,NA,NA,NA,NA,NA,NA,NA,NA,NA,NA,NA,NA,NA,NA,NA,NA,NA,NA,NA,NA,NA,NA
"136","stim/objects/Instruments/pipepiano.png",86,58,86,0.5,"stim/12.jpeg",1,2,1,NA,"Instruments",1,2,"left","right",0.551000118,0,0,0,1,NA,NA,NA,NA,NA,NA,NA,NA,NA,NA,NA,NA,NA,NA,NA,NA,NA,NA,NA,NA,NA,NA,NA,NA
"234","stim/objects/Instruments/tuba2.png",87,58,87,0.9,"stim/64.jpeg",6,4,3,NA,"Instruments",1,2,"left","",NA,0,0,0,1,NA,NA,NA,NA,NA,NA,NA,NA,NA,NA,NA,NA,NA,NA,NA,NA,NA,NA,NA,NA,NA,NA,NA,NA
"224","stim/objects/Instruments/trumpet2.png",88,58,88,0.9,"stim/63.jpeg",6,3,3,NA,"Instruments",1,1,"left","left",0.533000231,1,1,0,1,NA,NA,NA,NA,NA,NA,NA,NA,NA,NA,NA,NA,NA,NA,NA,NA,NA,NA,NA,NA,NA,NA,NA,NA
"235","stim/objects/Instruments/tuba2.png",89,58,89,0.9,"stim/64.jpeg",6,4,3,NA,"Instruments",1,3,"left","left",0.638999939,1,1,0,1,NA,NA,NA,NA,NA,NA,NA,NA,NA,NA,NA,NA,NA,NA,NA,NA,NA,NA,NA,NA,NA,NA,NA,NA
"176","stim/objects/Instruments/speaker.png",90,58,90,0.5,"stim/22.jpeg",2,2,1,NA,"Instruments",1,4,"left","right",0.762000084,0,0,0,1,NA,NA,NA,NA,NA,NA,NA,NA,NA,NA,NA,NA,NA,NA,NA,NA,NA,NA,NA,NA,NA,NA,NA,NA
"163","stim/objects/Instruments/record2.png",91,58,91,0.7,"stim/43.jpeg",4,3,2,NA,"Instruments",1,1,"left","left",0.789999962,1,1,0,1,NA,NA,NA,NA,NA,NA,NA,NA,NA,NA,NA,NA,NA,NA,NA,NA,NA,NA,NA,NA,NA,NA,NA,NA
"82","stim/objects/HouseObjects/sponge2.png",92,58,92,0.9,"stim/54.jpeg",5,4,3,NA,"HouseObjects",2,1,"right","right",0.746000051,1,1,0,1,NA,NA,NA,NA,NA,NA,NA,NA,NA,NA,NA,NA,NA,NA,NA,NA,NA,NA,NA,NA,NA,NA,NA,NA
"171","stim/objects/Instruments/saxophone.png",93,58,93,0.5,"stim/21.jpeg",2,1,1,NA,"Instruments",1,3,"left","right",0.610999823,0,0,0,1,NA,NA,NA,NA,NA,NA,NA,NA,NA,NA,NA,NA,NA,NA,NA,NA,NA,NA,NA,NA,NA,NA,NA,NA
"177","stim/objects/Instruments/speaker.png",94,58,94,0.5,"stim/22.jpeg",2,2,1,NA,"Instruments",1,1,"left","left",0.861999989,1,1,0,1,NA,NA,NA,NA,NA,NA,NA,NA,NA,NA,NA,NA,NA,NA,NA,NA,NA,NA,NA,NA,NA,NA,NA,NA
"193","stim/objects/Instruments/triangle.png",95,58,95,0.3,"stim/31.jpeg",3,1,2,NA,"Instruments",1,3,"left","right",0.622999907,0,0,0,1,NA,NA,NA,NA,NA,NA,NA,NA,NA,NA,NA,NA,NA,NA,NA,NA,NA,NA,NA,NA,NA,NA,NA,NA
"101","stim/objects/HouseObjects/teapot.png",96,58,96,0.7,"stim/32.jpeg",3,2,2,NA,"HouseObjects",2,4,"right","right",0.553999901,1,1,0,1,NA,NA,NA,NA,NA,NA,NA,NA,NA,NA,NA,NA,NA,NA,NA,NA,NA,NA,NA,NA,NA,NA,NA,NA
"39","stim/objects/HouseObjects/safetypin2.png",97,58,97,0.9,"stim/51.jpeg",5,1,3,NA,"HouseObjects",2,3,"right","right",0.619999886,1,1,0,1,NA,NA,NA,NA,NA,NA,NA,NA,NA,NA,NA,NA,NA,NA,NA,NA,NA,NA,NA,NA,NA,NA,NA,NA
"180","stim/objects/Instruments/speaker2.png",98,58,98,0.1,"stim/52.jpeg",5,2,3,NA,"Instruments",1,3,"left","right",0.503999949,0,0,0,1,NA,NA,NA,NA,NA,NA,NA,NA,NA,NA,NA,NA,NA,NA,NA,NA,NA,NA,NA,NA,NA,NA,NA,NA
"57","stim/objects/HouseObjects/saw2.png",99,58,99,0.9,"stim/52.jpeg",5,2,3,NA,"HouseObjects",2,3,"right","left",0.782999992,0,0,0,1,NA,NA,NA,NA,NA,NA,NA,NA,NA,NA,NA,NA,NA,NA,NA,NA,NA,NA,NA,NA,NA,NA,NA,NA
"6","stim/objects/HouseObjects/recyclingbin2.png",100,58,100,0.3,"stim/41.jpeg",4,1,2,NA,"HouseObjects",2,4,"right","right",0.63499999,1,1,0,1,NA,NA,NA,NA,NA,NA,NA,NA,NA,NA,NA,NA,NA,NA,NA,NA,NA,NA,NA,NA,NA,NA,NA,NA
"194","stim/objects/Instruments/triangle.png",101,58,101,0.3,"stim/31.jpeg",3,1,2,NA,"Instruments",1,2,"left","right",0.473999977,0,0,0,1,NA,NA,NA,NA,NA,NA,NA,NA,NA,NA,NA,NA,NA,NA,NA,NA,NA,NA,NA,NA,NA,NA,NA,NA
"164","stim/objects/Instruments/record2.png",102,58,102,0.7,"stim/43.jpeg",4,3,2,NA,"Instruments",1,4,"left","right",0.536000013,0,0,0,1,NA,NA,NA,NA,NA,NA,NA,NA,NA,NA,NA,NA,NA,NA,NA,NA,NA,NA,NA,NA,NA,NA,NA,NA
"159","stim/objects/Instruments/record.png",103,58,103,0.5,"stim/13.jpeg",1,3,1,NA,"Instruments",1,2,"left","right",0.624000072,0,0,0,1,NA,NA,NA,NA,NA,NA,NA,NA,NA,NA,NA,NA,NA,NA,NA,NA,NA,NA,NA,NA,NA,NA,NA,NA
"160","stim/objects/Instruments/record.png",104,58,104,0.5,"stim/13.jpeg",1,3,1,NA,"Instruments",1,3,"left","",NA,0,0,0,1,NA,NA,NA,NA,NA,NA,NA,NA,NA,NA,NA,NA,NA,NA,NA,NA,NA,NA,NA,NA,NA,NA,NA,NA
"7","stim/objects/HouseObjects/recyclingbin2.png",105,58,105,0.3,"stim/41.jpeg",4,1,2,NA,"HouseObjects",2,3,"right","left",0.606999874,0,0,0,1,NA,NA,NA,NA,NA,NA,NA,NA,NA,NA,NA,NA,NA,NA,NA,NA,NA,NA,NA,NA,NA,NA,NA,NA
"31","stim/objects/HouseObjects/rug2.png",106,58,106,0.3,"stim/44.jpeg",4,4,2,NA,"HouseObjects",2,2,"right","left",0.608999968,0,0,0,1,NA,NA,NA,NA,NA,NA,NA,NA,NA,NA,NA,NA,NA,NA,NA,NA,NA,NA,NA,NA,NA,NA,NA,NA
"70","stim/objects/HouseObjects/scale2.png",107,58,107,0.9,"stim/53.jpeg",5,3,3,NA,"HouseObjects",2,1,"right","right",0.634000063,1,1,0,1,NA,NA,NA,NA,NA,NA,NA,NA,NA,NA,NA,NA,NA,NA,NA,NA,NA,NA,NA,NA,NA,NA,NA,NA
"189","stim/objects/Instruments/timbal.png",108,58,108,0.5,"stim/24.jpeg",2,4,1,NA,"Instruments",1,4,"left","right",0.826000214,0,0,0,1,NA,NA,NA,NA,NA,NA,NA,NA,NA,NA,NA,NA,NA,NA,NA,NA,NA,NA,NA,NA,NA,NA,NA,NA
"40","stim/objects/HouseObjects/safetypin2.png",109,58,109,0.9,"stim/51.jpeg",5,1,3,NA,"HouseObjects",2,2,"right","",NA,0,0,0,1,NA,NA,NA,NA,NA,NA,NA,NA,NA,NA,NA,NA,NA,NA,NA,NA,NA,NA,NA,NA,NA,NA,NA,NA
"190","stim/objects/Instruments/timbal.png",110,58,110,0.5,"stim/24.jpeg",2,4,1,NA,"Instruments",1,3,"left","left",0.785000086,1,1,0,1,NA,NA,NA,NA,NA,NA,NA,NA,NA,NA,NA,NA,NA,NA,NA,NA,NA,NA,NA,NA,NA,NA,NA,NA
"76","stim/objects/HouseObjects/sponge.png",111,58,111,0.5,"stim/24.jpeg",2,4,1,NA,"HouseObjects",2,1,"right","left",0.739000082,0,0,0,1,NA,NA,NA,NA,NA,NA,NA,NA,NA,NA,NA,NA,NA,NA,NA,NA,NA,NA,NA,NA,NA,NA,NA,NA
"41","stim/objects/HouseObjects/safetypin2.png",112,58,112,0.9,"stim/51.jpeg",5,1,3,NA,"HouseObjects",2,4,"right","right",0.800000191,1,1,0,1,NA,NA,NA,NA,NA,NA,NA,NA,NA,NA,NA,NA,NA,NA,NA,NA,NA,NA,NA,NA,NA,NA,NA,NA
"127","stim/objects/Instruments/panflute2.png",113,58,113,0.7,"stim/41.jpeg",4,1,2,NA,"Instruments",1,2,"left","right",0.730000019,0,0,0,1,NA,NA,NA,NA,NA,NA,NA,NA,NA,NA,NA,NA,NA,NA,NA,NA,NA,NA,NA,NA,NA,NA,NA,NA
"211","stim/objects/Instruments/trombone2.png",114,58,114,0.9,"stim/62.jpeg",6,2,3,NA,"Instruments",1,1,"left","left",0.51699996,1,1,0,1,NA,NA,NA,NA,NA,NA,NA,NA,NA,NA,NA,NA,NA,NA,NA,NA,NA,NA,NA,NA,NA,NA,NA,NA
"2","stim/objects/HouseObjects/recyclingbin.png",115,58,115,0.5,"stim/11.jpeg",1,1,1,NA,"HouseObjects",2,1,"right","left",0.701999903,0,0,0,1,NA,NA,NA,NA,NA,NA,NA,NA,NA,NA,NA,NA,NA,NA,NA,NA,NA,NA,NA,NA,NA,NA,NA,NA
"152","stim/objects/Instruments/record_player2.png",116,58,116,0.7,"stim/44.jpeg",4,4,2,NA,"Instruments",1,3,"left","left",0.718999863,1,1,0,1,NA,NA,NA,NA,NA,NA,NA,NA,NA,NA,NA,NA,NA,NA,NA,NA,NA,NA,NA,NA,NA,NA,NA,NA
"212","stim/objects/Instruments/trombone2.png",117,58,117,0.9,"stim/62.jpeg",6,2,3,NA,"Instruments",1,4,"left","left",0.625,1,1,0,1,NA,NA,NA,NA,NA,NA,NA,NA,NA,NA,NA,NA,NA,NA,NA,NA,NA,NA,NA,NA,NA,NA,NA,NA
"128","stim/objects/Instruments/panflute2.png",118,58,118,0.7,"stim/41.jpeg",4,1,2,NA,"Instruments",1,1,"left","left",0.704999924,1,1,0,1,NA,NA,NA,NA,NA,NA,NA,NA,NA,NA,NA,NA,NA,NA,NA,NA,NA,NA,NA,NA,NA,NA,NA,NA
"195","stim/objects/Instruments/triangle.png",119,58,119,0.3,"stim/31.jpeg",3,1,2,NA,"Instruments",1,2,"left","right",0.671000004,0,0,0,1,NA,NA,NA,NA,NA,NA,NA,NA,NA,NA,NA,NA,NA,NA,NA,NA,NA,NA,NA,NA,NA,NA,NA,NA
"104","stim/objects/HouseObjects/teapot2.png",120,58,120,0.1,"stim/62.jpeg",6,2,3,NA,"HouseObjects",2,1,"right","left",0.528000116,0,0,0,1,NA,NA,NA,NA,NA,NA,NA,NA,NA,NA,NA,NA,NA,NA,NA,NA,NA,NA,NA,NA,NA,NA,NA,NA
"33","stim/objects/HouseObjects/safetypin.png",121,58,121,0.5,"stim/21.jpeg",2,1,1,NA,"HouseObjects",2,3,"right","left",0.786999941,0,0,0,1,NA,NA,NA,NA,NA,NA,NA,NA,NA,NA,NA,NA,NA,NA,NA,NA,NA,NA,NA,NA,NA,NA,NA,NA
"58","stim/objects/HouseObjects/saw2.png",122,58,122,0.9,"stim/52.jpeg",5,2,3,NA,"HouseObjects",2,2,"right","right",0.562999964,1,1,0,1,NA,NA,NA,NA,NA,NA,NA,NA,NA,NA,NA,NA,NA,NA,NA,NA,NA,NA,NA,NA,NA,NA,NA,NA
"153","stim/objects/Instruments/record_player2.png",123,58,123,0.7,"stim/44.jpeg",4,4,2,NA,"Instruments",1,1,"left","left",0.717000008,1,1,0,1,NA,NA,NA,NA,NA,NA,NA,NA,NA,NA,NA,NA,NA,NA,NA,NA,NA,NA,NA,NA,NA,NA,NA,NA
"217","stim/objects/Instruments/trumpet.png",124,58,124,0.3,"stim/33.jpeg",3,3,2,NA,"Instruments",1,3,"left","right",0.624000072,0,0,0,1,NA,NA,NA,NA,NA,NA,NA,NA,NA,NA,NA,NA,NA,NA,NA,NA,NA,NA,NA,NA,NA,NA,NA,NA
"42","stim/objects/HouseObjects/safetypin2.png",125,58,125,0.9,"stim/51.jpeg",5,1,3,NA,"HouseObjects",2,4,"right","right",0.568000078,1,1,0,1,NA,NA,NA,NA,NA,NA,NA,NA,NA,NA,NA,NA,NA,NA,NA,NA,NA,NA,NA,NA,NA,NA,NA,NA
"3","stim/objects/HouseObjects/recyclingbin.png",126,58,126,0.5,"stim/11.jpeg",1,1,1,NA,"HouseObjects",2,2,"right","right",0.58100009,1,1,0,1,NA,NA,NA,NA,NA,NA,NA,NA,NA,NA,NA,NA,NA,NA,NA,NA,NA,NA,NA,NA,NA,NA,NA,NA
"8","stim/objects/HouseObjects/recyclingbin2.png",127,58,127,0.3,"stim/41.jpeg",4,1,2,NA,"HouseObjects",2,4,"right","right",0.735999823,1,1,0,1,NA,NA,NA,NA,NA,NA,NA,NA,NA,NA,NA,NA,NA,NA,NA,NA,NA,NA,NA,NA,NA,NA,NA,NA
"116","stim/objects/HouseObjects/thread.png",128,58,128,0.7,"stim/34.jpeg",3,4,2,NA,"HouseObjects",2,3,"right","left",0.625,0,0,0,1,NA,NA,NA,NA,NA,NA,NA,NA,NA,NA,NA,NA,NA,NA,NA,NA,NA,NA,NA,NA,NA,NA,NA,NA
"21","stim/objects/HouseObjects/rubbergloves.png",129,58,129,0.5,"stim/13.jpeg",1,3,1,NA,"HouseObjects",2,2,"right","right",0.437000036,1,1,0,1,NA,NA,NA,NA,NA,NA,NA,NA,NA,NA,NA,NA,NA,NA,NA,NA,NA,NA,NA,NA,NA,NA,NA,NA
"129","stim/objects/Instruments/panflute2.png",130,58,130,0.7,"stim/41.jpeg",4,1,2,NA,"Instruments",1,2,"left","right",0.654000044,0,0,0,1,NA,NA,NA,NA,NA,NA,NA,NA,NA,NA,NA,NA,NA,NA,NA,NA,NA,NA,NA,NA,NA,NA,NA,NA
"165","stim/objects/Instruments/record2.png",131,58,131,0.7,"stim/43.jpeg",4,3,2,NA,"Instruments",1,2,"left","left",0.842000008,1,1,0,1,NA,NA,NA,NA,NA,NA,NA,NA,NA,NA,NA,NA,NA,NA,NA,NA,NA,NA,NA,NA,NA,NA,NA,NA
"213","stim/objects/Instruments/trombone2.png",132,58,132,0.9,"stim/62.jpeg",6,2,3,NA,"Instruments",1,1,"left","left",0.588000059,1,1,0,1,NA,NA,NA,NA,NA,NA,NA,NA,NA,NA,NA,NA,NA,NA,NA,NA,NA,NA,NA,NA,NA,NA,NA,NA
"43","stim/objects/HouseObjects/safetypin2.png",133,58,133,0.9,"stim/51.jpeg",5,1,3,NA,"HouseObjects",2,2,"right","right",0.539000034,1,1,0,1,NA,NA,NA,NA,NA,NA,NA,NA,NA,NA,NA,NA,NA,NA,NA,NA,NA,NA,NA,NA,NA,NA,NA,NA
"225","stim/objects/Instruments/trumpet2.png",134,58,134,0.9,"stim/63.jpeg",6,3,3,NA,"Instruments",1,2,"left","left",0.505000114,1,1,0,1,NA,NA,NA,NA,NA,NA,NA,NA,NA,NA,NA,NA,NA,NA,NA,NA,NA,NA,NA,NA,NA,NA,NA,NA
"182","stim/objects/Instruments/tambourine.png",135,58,135,0.5,"stim/23.jpeg",2,3,1,NA,"Instruments",1,4,"left","right",0.656000137,0,0,0,1,NA,NA,NA,NA,NA,NA,NA,NA,NA,NA,NA,NA,NA,NA,NA,NA,NA,NA,NA,NA,NA,NA,NA,NA
"148","stim/objects/Instruments/record_player.png",136,58,136,0.5,"stim/14.jpeg",1,4,1,NA,"Instruments",1,4,"left","right",0.618999958,0,0,0,1,NA,NA,NA,NA,NA,NA,NA,NA,NA,NA,NA,NA,NA,NA,NA,NA,NA,NA,NA,NA,NA,NA,NA,NA
"200","stim/objects/Instruments/triangle2.png",137,58,137,0.9,"stim/61.jpeg",6,1,3,NA,"Instruments",1,4,"left","left",0.539000034,1,1,0,1,NA,NA,NA,NA,NA,NA,NA,NA,NA,NA,NA,NA,NA,NA,NA,NA,NA,NA,NA,NA,NA,NA,NA,NA
"71","stim/objects/HouseObjects/scale2.png",138,58,138,0.9,"stim/53.jpeg",5,3,3,NA,"HouseObjects",2,1,"right","right",0.535000086,1,1,0,1,NA,NA,NA,NA,NA,NA,NA,NA,NA,NA,NA,NA,NA,NA,NA,NA,NA,NA,NA,NA,NA,NA,NA,NA
"154","stim/objects/Instruments/record_player2.png",139,58,139,0.7,"stim/44.jpeg",4,4,2,NA,"Instruments",1,2,"left","right",0.805000067,0,0,0,1,NA,NA,NA,NA,NA,NA,NA,NA,NA,NA,NA,NA,NA,NA,NA,NA,NA,NA,NA,NA,NA,NA,NA,NA
"77","stim/objects/HouseObjects/sponge.png",140,58,140,0.5,"stim/24.jpeg",2,4,1,NA,"HouseObjects",2,2,"right","left",0.684000015,0,0,0,1,NA,NA,NA,NA,NA,NA,NA,NA,NA,NA,NA,NA,NA,NA,NA,NA,NA,NA,NA,NA,NA,NA,NA,NA
"178","stim/objects/Instruments/speaker.png",141,58,141,0.5,"stim/22.jpeg",2,2,1,NA,"Instruments",1,4,"left","right",0.899000168,0,0,0,1,NA,NA,NA,NA,NA,NA,NA,NA,NA,NA,NA,NA,NA,NA,NA,NA,NA,NA,NA,NA,NA,NA,NA,NA
"123","stim/objects/Instruments/panflute.png",142,58,142,0.5,"stim/11.jpeg",1,1,1,NA,"Instruments",1,2,"left","right",0.859000206,0,0,0,1,NA,NA,NA,NA,NA,NA,NA,NA,NA,NA,NA,NA,NA,NA,NA,NA,NA,NA,NA,NA,NA,NA,NA,NA
"22","stim/objects/HouseObjects/rubbergloves2.png",143,58,143,0.3,"stim/43.jpeg",4,3,2,NA,"HouseObjects",2,4,"right","",NA,0,0,0,1,NA,NA,NA,NA,NA,NA,NA,NA,NA,NA,NA,NA,NA,NA,NA,NA,NA,NA,NA,NA,NA,NA,NA,NA
"214","stim/objects/Instruments/trombone2.png",144,58,144,0.9,"stim/62.jpeg",6,2,3,NA,"Instruments",1,1,"left","left",0.61500001,1,1,0,1,NA,NA,NA,NA,NA,NA,NA,NA,NA,NA,NA,NA,NA,NA,NA,NA,NA,NA,NA,NA,NA,NA,NA,NA
"72","stim/objects/HouseObjects/scale2.png",145,58,145,0.9,"stim/53.jpeg",5,3,3,NA,"HouseObjects",2,3,"right","right",0.603999853,1,1,0,1,NA,NA,NA,NA,NA,NA,NA,NA,NA,NA,NA,NA,NA,NA,NA,NA,NA,NA,NA,NA,NA,NA,NA,NA
"183","stim/objects/Instruments/tambourine.png",146,58,146,0.5,"stim/23.jpeg",2,3,1,NA,"Instruments",1,4,"left","right",0.911000013,0,0,0,1,NA,NA,NA,NA,NA,NA,NA,NA,NA,NA,NA,NA,NA,NA,NA,NA,NA,NA,NA,NA,NA,NA,NA,NA
"215","stim/objects/Instruments/trombone2.png",147,58,147,0.9,"stim/62.jpeg",6,2,3,NA,"Instruments",1,4,"left","left",0.587999821,1,1,0,1,NA,NA,NA,NA,NA,NA,NA,NA,NA,NA,NA,NA,NA,NA,NA,NA,NA,NA,NA,NA,NA,NA,NA,NA
"124","stim/objects/Instruments/panflute.png",148,58,148,0.5,"stim/11.jpeg",1,1,1,NA,"Instruments",1,1,"left","right",0.619000196,0,0,0,1,NA,NA,NA,NA,NA,NA,NA,NA,NA,NA,NA,NA,NA,NA,NA,NA,NA,NA,NA,NA,NA,NA,NA,NA
"48","stim/objects/HouseObjects/saw.png",149,58,149,0.5,"stim/22.jpeg",2,2,1,NA,"HouseObjects",2,2,"right","right",0.681999922,1,1,0,1,NA,NA,NA,NA,NA,NA,NA,NA,NA,NA,NA,NA,NA,NA,NA,NA,NA,NA,NA,NA,NA,NA,NA,NA
"92","stim/objects/HouseObjects/spraybottle.png",150,58,150,0.7,"stim/31.jpeg",3,1,2,NA,"HouseObjects",2,4,"right","right",0.74000001,1,1,0,1,NA,NA,NA,NA,NA,NA,NA,NA,NA,NA,NA,NA,NA,NA,NA,NA,NA,NA,NA,NA,NA,NA,NA,NA
"201","stim/objects/Instruments/triangle2.png",151,58,151,0.9,"stim/61.jpeg",6,1,3,NA,"Instruments",1,3,"left","left",0.605000019,1,1,0,1,NA,NA,NA,NA,NA,NA,NA,NA,NA,NA,NA,NA,NA,NA,NA,NA,NA,NA,NA,NA,NA,NA,NA,NA
"236","stim/objects/Instruments/tuba2.png",152,58,152,0.9,"stim/64.jpeg",6,4,3,NA,"Instruments",1,3,"left","left",0.592000008,1,1,0,1,NA,NA,NA,NA,NA,NA,NA,NA,NA,NA,NA,NA,NA,NA,NA,NA,NA,NA,NA,NA,NA,NA,NA,NA
"142","stim/objects/Instruments/pipepiano2.png",153,58,153,0.7,"stim/42.jpeg",4,2,2,NA,"Instruments",1,1,"left","left",0.855999947,1,1,0,1,NA,NA,NA,NA,NA,NA,NA,NA,NA,NA,NA,NA,NA,NA,NA,NA,NA,NA,NA,NA,NA,NA,NA,NA
"34","stim/objects/HouseObjects/safetypin.png",154,58,154,0.5,"stim/21.jpeg",2,1,1,NA,"HouseObjects",2,3,"right","",NA,0,0,0,1,NA,NA,NA,NA,NA,NA,NA,NA,NA,NA,NA,NA,NA,NA,NA,NA,NA,NA,NA,NA,NA,NA,NA,NA
"78","stim/objects/HouseObjects/sponge.png",155,58,155,0.5,"stim/24.jpeg",2,4,1,NA,"HouseObjects",2,2,"right","right",0.874000072,1,1,0,1,NA,NA,NA,NA,NA,NA,NA,NA,NA,NA,NA,NA,NA,NA,NA,NA,NA,NA,NA,NA,NA,NA,NA,NA
"49","stim/objects/HouseObjects/saw.png",156,58,156,0.5,"stim/22.jpeg",2,2,1,NA,"HouseObjects",2,1,"right","",NA,0,0,0,1,NA,NA,NA,NA,NA,NA,NA,NA,NA,NA,NA,NA,NA,NA,NA,NA,NA,NA,NA,NA,NA,NA,NA,NA
"184","stim/objects/Instruments/tambourine.png",157,58,157,0.5,"stim/23.jpeg",2,3,1,NA,"Instruments",1,1,"left","left",0.863000154,1,1,0,1,NA,NA,NA,NA,NA,NA,NA,NA,NA,NA,NA,NA,NA,NA,NA,NA,NA,NA,NA,NA,NA,NA,NA,NA
"109","stim/objects/HouseObjects/thermometer.png",158,58,158,0.7,"stim/33.jpeg",3,3,2,NA,"HouseObjects",2,1,"right","right",0.921000004,1,1,0,1,NA,NA,NA,NA,NA,NA,NA,NA,NA,NA,NA,NA,NA,NA,NA,NA,NA,NA,NA,NA,NA,NA,NA,NA
"83","stim/objects/HouseObjects/sponge2.png",159,58,159,0.9,"stim/54.jpeg",5,4,3,NA,"HouseObjects",2,4,"right","right",0.697000027,1,1,0,1,NA,NA,NA,NA,NA,NA,NA,NA,NA,NA,NA,NA,NA,NA,NA,NA,NA,NA,NA,NA,NA,NA,NA,NA
"202","stim/objects/Instruments/triangle2.png",160,58,160,0.9,"stim/61.jpeg",6,1,3,NA,"Instruments",1,2,"left","left",0.604000092,1,1,0,1,NA,NA,NA,NA,NA,NA,NA,NA,NA,NA,NA,NA,NA,NA,NA,NA,NA,NA,NA,NA,NA,NA,NA,NA
"84","stim/objects/HouseObjects/sponge2.png",161,58,161,0.9,"stim/54.jpeg",5,4,3,NA,"HouseObjects",2,2,"right","right",0.623000145,1,1,0,1,NA,NA,NA,NA,NA,NA,NA,NA,NA,NA,NA,NA,NA,NA,NA,NA,NA,NA,NA,NA,NA,NA,NA,NA
"110","stim/objects/HouseObjects/thermometer.png",162,58,162,0.7,"stim/33.jpeg",3,3,2,NA,"HouseObjects",2,4,"right","right",0.555000067,1,1,0,1,NA,NA,NA,NA,NA,NA,NA,NA,NA,NA,NA,NA,NA,NA,NA,NA,NA,NA,NA,NA,NA,NA,NA,NA
"111","stim/objects/HouseObjects/thermometer.png",163,58,163,0.7,"stim/33.jpeg",3,3,2,NA,"HouseObjects",2,2,"right","right",0.471000195,1,1,0,1,NA,NA,NA,NA,NA,NA,NA,NA,NA,NA,NA,NA,NA,NA,NA,NA,NA,NA,NA,NA,NA,NA,NA,NA
"125","stim/objects/Instruments/panflute.png",164,58,164,0.5,"stim/11.jpeg",1,1,1,NA,"Instruments",1,1,"left","",NA,0,0,0,1,NA,NA,NA,NA,NA,NA,NA,NA,NA,NA,NA,NA,NA,NA,NA,NA,NA,NA,NA,NA,NA,NA,NA,NA
"62","stim/objects/HouseObjects/scale.png",165,58,165,0.5,"stim/23.jpeg",2,3,1,NA,"HouseObjects",2,4,"right","left",0.752000093,0,0,0,1,NA,NA,NA,NA,NA,NA,NA,NA,NA,NA,NA,NA,NA,NA,NA,NA,NA,NA,NA,NA,NA,NA,NA,NA
"117","stim/objects/HouseObjects/thread.png",166,58,166,0.7,"stim/34.jpeg",3,4,2,NA,"HouseObjects",2,2,"right","right",0.465999842,1,1,0,1,NA,NA,NA,NA,NA,NA,NA,NA,NA,NA,NA,NA,NA,NA,NA,NA,NA,NA,NA,NA,NA,NA,NA,NA
"44","stim/objects/HouseObjects/safetypin2.png",167,58,167,0.9,"stim/51.jpeg",5,1,3,NA,"HouseObjects",2,1,"right","right",0.569000006,1,1,0,1,NA,NA,NA,NA,NA,NA,NA,NA,NA,NA,NA,NA,NA,NA,NA,NA,NA,NA,NA,NA,NA,NA,NA,NA
"130","stim/objects/Instruments/panflute2.png",168,58,168,0.7,"stim/41.jpeg",4,1,2,NA,"Instruments",1,3,"left","",NA,0,0,0,1,NA,NA,NA,NA,NA,NA,NA,NA,NA,NA,NA,NA,NA,NA,NA,NA,NA,NA,NA,NA,NA,NA,NA,NA
"118","stim/objects/HouseObjects/thread.png",169,58,169,0.7,"stim/34.jpeg",3,4,2,NA,"HouseObjects",2,2,"right","right",0.569999933,1,1,0,1,NA,NA,NA,NA,NA,NA,NA,NA,NA,NA,NA,NA,NA,NA,NA,NA,NA,NA,NA,NA,NA,NA,NA,NA
"4","stim/objects/HouseObjects/recyclingbin.png",170,58,170,0.5,"stim/11.jpeg",1,1,1,NA,"HouseObjects",2,2,"right","left",0.625,0,0,0,1,NA,NA,NA,NA,NA,NA,NA,NA,NA,NA,NA,NA,NA,NA,NA,NA,NA,NA,NA,NA,NA,NA,NA,NA
"206","stim/objects/Instruments/trombone.png",171,58,171,0.3,"stim/32.jpeg",3,2,2,NA,"Instruments",1,2,"left","right",0.673000097,0,0,0,1,NA,NA,NA,NA,NA,NA,NA,NA,NA,NA,NA,NA,NA,NA,NA,NA,NA,NA,NA,NA,NA,NA,NA,NA
"131","stim/objects/Instruments/panflute2.png",172,58,172,0.7,"stim/41.jpeg",4,1,2,NA,"Instruments",1,1,"left","left",0.674000025,1,1,0,1,NA,NA,NA,NA,NA,NA,NA,NA,NA,NA,NA,NA,NA,NA,NA,NA,NA,NA,NA,NA,NA,NA,NA,NA
"85","stim/objects/HouseObjects/sponge2.png",173,58,173,0.9,"stim/54.jpeg",5,4,3,NA,"HouseObjects",2,3,"right","right",0.491999865,1,1,0,1,NA,NA,NA,NA,NA,NA,NA,NA,NA,NA,NA,NA,NA,NA,NA,NA,NA,NA,NA,NA,NA,NA,NA,NA
"35","stim/objects/HouseObjects/safetypin.png",174,58,174,0.5,"stim/21.jpeg",2,1,1,NA,"HouseObjects",2,4,"right","right",0.5,1,1,0,1,NA,NA,NA,NA,NA,NA,NA,NA,NA,NA,NA,NA,NA,NA,NA,NA,NA,NA,NA,NA,NA,NA,NA,NA
"143","stim/objects/Instruments/pipepiano2.png",175,58,175,0.7,"stim/42.jpeg",4,2,2,NA,"Instruments",1,4,"left","right",0.472000122,0,0,0,1,NA,NA,NA,NA,NA,NA,NA,NA,NA,NA,NA,NA,NA,NA,NA,NA,NA,NA,NA,NA,NA,NA,NA,NA
"161","stim/objects/Instruments/record.png",176,58,176,0.5,"stim/13.jpeg",1,3,1,NA,"Instruments",1,1,"left","right",0.72300005,0,0,0,1,NA,NA,NA,NA,NA,NA,NA,NA,NA,NA,NA,NA,NA,NA,NA,NA,NA,NA,NA,NA,NA,NA,NA,NA
"79","stim/objects/HouseObjects/sponge.png",177,58,177,0.5,"stim/24.jpeg",2,4,1,NA,"HouseObjects",2,2,"right","right",0.59100008,1,1,0,1,NA,NA,NA,NA,NA,NA,NA,NA,NA,NA,NA,NA,NA,NA,NA,NA,NA,NA,NA,NA,NA,NA,NA,NA
"137","stim/objects/Instruments/pipepiano.png",178,58,178,0.5,"stim/12.jpeg",1,2,1,NA,"Instruments",1,4,"left","left",0.76699996,1,1,0,1,NA,NA,NA,NA,NA,NA,NA,NA,NA,NA,NA,NA,NA,NA,NA,NA,NA,NA,NA,NA,NA,NA,NA,NA
"166","stim/objects/Instruments/record2.png",179,58,179,0.7,"stim/43.jpeg",4,3,2,NA,"Instruments",1,3,"left","left",0.610000134,1,1,0,1,NA,NA,NA,NA,NA,NA,NA,NA,NA,NA,NA,NA,NA,NA,NA,NA,NA,NA,NA,NA,NA,NA,NA,NA
"230","stim/objects/Instruments/tuba.png",180,58,180,0.3,"stim/34.jpeg",3,4,2,NA,"Instruments",1,3,"left","right",0.821000099,0,0,0,1,NA,NA,NA,NA,NA,NA,NA,NA,NA,NA,NA,NA,NA,NA,NA,NA,NA,NA,NA,NA,NA,NA,NA,NA
"226","stim/objects/Instruments/trumpet2.png",181,58,181,0.9,"stim/63.jpeg",6,3,3,NA,"Instruments",1,3,"left","left",0.552999973,1,1,0,1,NA,NA,NA,NA,NA,NA,NA,NA,NA,NA,NA,NA,NA,NA,NA,NA,NA,NA,NA,NA,NA,NA,NA,NA
"237","stim/objects/Instruments/tuba2.png",182,58,182,0.9,"stim/64.jpeg",6,4,3,NA,"Instruments",1,2,"left","left",0.641000032,1,1,0,1,NA,NA,NA,NA,NA,NA,NA,NA,NA,NA,NA,NA,NA,NA,NA,NA,NA,NA,NA,NA,NA,NA,NA,NA
"73","stim/objects/HouseObjects/scale2.png",183,58,183,0.9,"stim/53.jpeg",5,3,3,NA,"HouseObjects",2,2,"right","right",0.500000238,1,1,0,1,NA,NA,NA,NA,NA,NA,NA,NA,NA,NA,NA,NA,NA,NA,NA,NA,NA,NA,NA,NA,NA,NA,NA,NA
"238","stim/objects/Instruments/tuba2.png",184,58,184,0.9,"stim/64.jpeg",6,4,3,NA,"Instruments",1,3,"left","",NA,0,0,0,1,NA,NA,NA,NA,NA,NA,NA,NA,NA,NA,NA,NA,NA,NA,NA,NA,NA,NA,NA,NA,NA,NA,NA,NA
"231","stim/objects/Instruments/tuba.png",185,58,185,0.3,"stim/34.jpeg",3,4,2,NA,"Instruments",1,2,"left","right",0.403000116,0,0,0,1,NA,NA,NA,NA,NA,NA,NA,NA,NA,NA,NA,NA,NA,NA,NA,NA,NA,NA,NA,NA,NA,NA,NA,NA
"239","stim/objects/Instruments/tuba2.png",186,58,186,0.9,"stim/64.jpeg",6,4,3,NA,"Instruments",1,1,"left","left",0.490999937,1,1,0,1,NA,NA,NA,NA,NA,NA,NA,NA,NA,NA,NA,NA,NA,NA,NA,NA,NA,NA,NA,NA,NA,NA,NA,NA
"172","stim/objects/Instruments/saxophone.png",187,58,187,0.5,"stim/21.jpeg",2,1,1,NA,"Instruments",1,4,"left","right",0.421000004,0,0,0,1,NA,NA,NA,NA,NA,NA,NA,NA,NA,NA,NA,NA,NA,NA,NA,NA,NA,NA,NA,NA,NA,NA,NA,NA
"63","stim/objects/HouseObjects/scale.png",188,58,188,0.5,"stim/23.jpeg",2,3,1,NA,"HouseObjects",2,3,"right","left",0.638000011,0,0,0,1,NA,NA,NA,NA,NA,NA,NA,NA,NA,NA,NA,NA,NA,NA,NA,NA,NA,NA,NA,NA,NA,NA,NA,NA
"59","stim/objects/HouseObjects/saw2.png",189,58,189,0.9,"stim/52.jpeg",5,2,3,NA,"HouseObjects",2,4,"right","right",0.495000124,1,1,0,1,NA,NA,NA,NA,NA,NA,NA,NA,NA,NA,NA,NA,NA,NA,NA,NA,NA,NA,NA,NA,NA,NA,NA,NA
"93","stim/objects/HouseObjects/spraybottle.png",190,58,190,0.7,"stim/31.jpeg",3,1,2,NA,"HouseObjects",2,2,"right","right",0.420000076,1,1,0,1,NA,NA,NA,NA,NA,NA,NA,NA,NA,NA,NA,NA,NA,NA,NA,NA,NA,NA,NA,NA,NA,NA,NA,NA
"32","stim/objects/HouseObjects/rug2.png",191,58,191,0.3,"stim/44.jpeg",4,4,2,NA,"HouseObjects",2,4,"right","left",0.81400013,0,0,0,1,NA,NA,NA,NA,NA,NA,NA,NA,NA,NA,NA,NA,NA,NA,NA,NA,NA,NA,NA,NA,NA,NA,NA,NA
"191","stim/objects/Instruments/timbal.png",192,58,192,0.5,"stim/24.jpeg",2,4,1,NA,"Instruments",1,3,"left","right",0.805000067,0,0,0,1,NA,NA,NA,NA,NA,NA,NA,NA,NA,NA,NA,NA,NA,NA,NA,NA,NA,NA,NA,NA,NA,NA,NA,NA
"86","stim/objects/HouseObjects/sponge2.png",193,58,193,0.9,"stim/54.jpeg",5,4,3,NA,"HouseObjects",2,2,"right","right",0.529999971,1,1,0,1,NA,NA,NA,NA,NA,NA,NA,NA,NA,NA,NA,NA,NA,NA,NA,NA,NA,NA,NA,NA,NA,NA,NA,NA
"36","stim/objects/HouseObjects/safetypin.png",194,58,194,0.5,"stim/21.jpeg",2,1,1,NA,"HouseObjects",2,4,"right","right",0.57400012,1,1,0,1,NA,NA,NA,NA,NA,NA,NA,NA,NA,NA,NA,NA,NA,NA,NA,NA,NA,NA,NA,NA,NA,NA,NA,NA
"203","stim/objects/Instruments/triangle2.png",195,58,195,0.9,"stim/61.jpeg",6,1,3,NA,"Instruments",1,3,"left","left",0.503999949,1,1,0,1,NA,NA,NA,NA,NA,NA,NA,NA,NA,NA,NA,NA,NA,NA,NA,NA,NA,NA,NA,NA,NA,NA,NA,NA
"144","stim/objects/Instruments/pipepiano2.png",196,58,196,0.7,"stim/42.jpeg",4,2,2,NA,"Instruments",1,4,"left","right",0.508000135,0,0,0,1,NA,NA,NA,NA,NA,NA,NA,NA,NA,NA,NA,NA,NA,NA,NA,NA,NA,NA,NA,NA,NA,NA,NA,NA
"94","stim/objects/HouseObjects/spraybottle.png",197,58,197,0.7,"stim/31.jpeg",3,1,2,NA,"HouseObjects",2,1,"right","left",0.536000013,0,0,0,1,NA,NA,NA,NA,NA,NA,NA,NA,NA,NA,NA,NA,NA,NA,NA,NA,NA,NA,NA,NA,NA,NA,NA,NA
"74","stim/objects/HouseObjects/scale2.png",198,58,198,0.9,"stim/53.jpeg",5,3,3,NA,"HouseObjects",2,1,"right","right",0.520000219,1,1,0,1,NA,NA,NA,NA,NA,NA,NA,NA,NA,NA,NA,NA,NA,NA,NA,NA,NA,NA,NA,NA,NA,NA,NA,NA
"216","stim/objects/Instruments/trombone2.png",199,58,199,0.9,"stim/62.jpeg",6,2,3,NA,"Instruments",1,1,"left","left",0.503999949,1,1,0,1,NA,NA,NA,NA,NA,NA,NA,NA,NA,NA,NA,NA,NA,NA,NA,NA,NA,NA,NA,NA,NA,NA,NA,NA
"87","stim/objects/HouseObjects/sponge2.png",200,58,200,0.9,"stim/54.jpeg",5,4,3,NA,"HouseObjects",2,1,"right","right",0.578000069,1,1,0,1,NA,NA,NA,NA,NA,NA,NA,NA,NA,NA,NA,NA,NA,NA,NA,NA,NA,NA,NA,NA,NA,NA,NA,NA
"45","stim/objects/HouseObjects/safetypin2.png",201,58,201,0.9,"stim/51.jpeg",5,1,3,NA,"HouseObjects",2,3,"right","right",0.653000116,1,1,0,1,NA,NA,NA,NA,NA,NA,NA,NA,NA,NA,NA,NA,NA,NA,NA,NA,NA,NA,NA,NA,NA,NA,NA,NA
"16","stim/objects/HouseObjects/remote2.png",202,58,202,0.3,"stim/42.jpeg",4,2,2,NA,"HouseObjects",2,2,"right","left",0.671000004,0,0,0,1,NA,NA,NA,NA,NA,NA,NA,NA,NA,NA,NA,NA,NA,NA,NA,NA,NA,NA,NA,NA,NA,NA,NA,NA
"37","stim/objects/HouseObjects/safetypin.png",203,58,203,0.5,"stim/21.jpeg",2,1,1,NA,"HouseObjects",2,3,"right","right",0.503000021,1,1,0,1,NA,NA,NA,NA,NA,NA,NA,NA,NA,NA,NA,NA,NA,NA,NA,NA,NA,NA,NA,NA,NA,NA,NA,NA
"23","stim/objects/HouseObjects/rubbergloves2.png",204,58,204,0.3,"stim/43.jpeg",4,3,2,NA,"HouseObjects",2,4,"right","right",0.604000092,1,1,0,1,NA,NA,NA,NA,NA,NA,NA,NA,NA,NA,NA,NA,NA,NA,NA,NA,NA,NA,NA,NA,NA,NA,NA,NA
"27","stim/objects/HouseObjects/rug.png",205,58,205,0.5,"stim/14.jpeg",1,4,1,NA,"HouseObjects",2,1,"right","",NA,0,0,0,1,NA,NA,NA,NA,NA,NA,NA,NA,NA,NA,NA,NA,NA,NA,NA,NA,NA,NA,NA,NA,NA,NA,NA,NA
"167","stim/objects/Instruments/record2.png",206,58,206,0.7,"stim/43.jpeg",4,3,2,NA,"Instruments",1,3,"left","left",0.811000109,1,1,0,1,NA,NA,NA,NA,NA,NA,NA,NA,NA,NA,NA,NA,NA,NA,NA,NA,NA,NA,NA,NA,NA,NA,NA,NA
"185","stim/objects/Instruments/tambourine.png",207,58,207,0.5,"stim/23.jpeg",2,3,1,NA,"Instruments",1,3,"left","left",0.904000044,1,1,0,1,NA,NA,NA,NA,NA,NA,NA,NA,NA,NA,NA,NA,NA,NA,NA,NA,NA,NA,NA,NA,NA,NA,NA,NA
"95","stim/objects/HouseObjects/spraybottle.png",208,58,208,0.7,"stim/31.jpeg",3,1,2,NA,"HouseObjects",2,4,"right","right",0.517000198,1,1,0,1,NA,NA,NA,NA,NA,NA,NA,NA,NA,NA,NA,NA,NA,NA,NA,NA,NA,NA,NA,NA,NA,NA,NA,NA
"218","stim/objects/Instruments/trumpet.png",209,58,209,0.3,"stim/33.jpeg",3,3,2,NA,"Instruments",1,4,"left","right",0.552000046,0,0,0,1,NA,NA,NA,NA,NA,NA,NA,NA,NA,NA,NA,NA,NA,NA,NA,NA,NA,NA,NA,NA,NA,NA,NA,NA
"132","stim/objects/Instruments/panflute2.png",210,58,210,0.7,"stim/41.jpeg",4,1,2,NA,"Instruments",1,2,"left","left",0.654000044,1,1,0,1,NA,NA,NA,NA,NA,NA,NA,NA,NA,NA,NA,NA,NA,NA,NA,NA,NA,NA,NA,NA,NA,NA,NA,NA
"60","stim/objects/HouseObjects/saw2.png",211,58,211,0.9,"stim/52.jpeg",5,2,3,NA,"HouseObjects",2,2,"right","right",0.58100009,1,1,0,1,NA,NA,NA,NA,NA,NA,NA,NA,NA,NA,NA,NA,NA,NA,NA,NA,NA,NA,NA,NA,NA,NA,NA,NA
"227","stim/objects/Instruments/trumpet2.png",212,58,212,0.9,"stim/63.jpeg",6,3,3,NA,"Instruments",1,3,"left","left",0.532000065,1,1,0,1,NA,NA,NA,NA,NA,NA,NA,NA,NA,NA,NA,NA,NA,NA,NA,NA,NA,NA,NA,NA,NA,NA,NA,NA
"64","stim/objects/HouseObjects/scale.png",213,58,213,0.5,"stim/23.jpeg",2,3,1,NA,"HouseObjects",2,4,"right","left",0.690000057,0,0,0,1,NA,NA,NA,NA,NA,NA,NA,NA,NA,NA,NA,NA,NA,NA,NA,NA,NA,NA,NA,NA,NA,NA,NA,NA
"102","stim/objects/HouseObjects/teapot.png",214,58,214,0.7,"stim/32.jpeg",3,2,2,NA,"HouseObjects",2,3,"right","right",0.502000093,1,1,0,1,NA,NA,NA,NA,NA,NA,NA,NA,NA,NA,NA,NA,NA,NA,NA,NA,NA,NA,NA,NA,NA,NA,NA,NA
"88","stim/objects/HouseObjects/sponge2.png",215,58,215,0.9,"stim/54.jpeg",5,4,3,NA,"HouseObjects",2,3,"right","left",0.531000137,0,0,0,1,NA,NA,NA,NA,NA,NA,NA,NA,NA,NA,NA,NA,NA,NA,NA,NA,NA,NA,NA,NA,NA,NA,NA,NA
"155","stim/objects/Instruments/record_player2.png",216,58,216,0.7,"stim/44.jpeg",4,4,2,NA,"Instruments",1,1,"left","right",0.513000011,0,0,0,1,NA,NA,NA,NA,NA,NA,NA,NA,NA,NA,NA,NA,NA,NA,NA,NA,NA,NA,NA,NA,NA,NA,NA,NA
"65","stim/objects/HouseObjects/scale.png",217,58,217,0.5,"stim/23.jpeg",2,3,1,NA,"HouseObjects",2,1,"right","left",0.637000084,0,0,0,1,NA,NA,NA,NA,NA,NA,NA,NA,NA,NA,NA,NA,NA,NA,NA,NA,NA,NA,NA,NA,NA,NA,NA,NA
"28","stim/objects/HouseObjects/rug.png",218,58,218,0.5,"stim/14.jpeg",1,4,1,NA,"HouseObjects",2,1,"right","right",0.820000172,1,1,0,1,NA,NA,NA,NA,NA,NA,NA,NA,NA,NA,NA,NA,NA,NA,NA,NA,NA,NA,NA,NA,NA,NA,NA,NA
"29","stim/objects/HouseObjects/rug.png",219,58,219,0.5,"stim/14.jpeg",1,4,1,NA,"HouseObjects",2,4,"right","right",0.92599988,1,1,0,1,NA,NA,NA,NA,NA,NA,NA,NA,NA,NA,NA,NA,NA,NA,NA,NA,NA,NA,NA,NA,NA,NA,NA,NA
"228","stim/objects/Instruments/trumpet2.png",220,58,220,0.9,"stim/63.jpeg",6,3,3,NA,"Instruments",1,4,"left","left",0.544000149,1,1,0,1,NA,NA,NA,NA,NA,NA,NA,NA,NA,NA,NA,NA,NA,NA,NA,NA,NA,NA,NA,NA,NA,NA,NA,NA
"24","stim/objects/HouseObjects/rubbergloves2.png",221,58,221,0.3,"stim/43.jpeg",4,3,2,NA,"HouseObjects",2,3,"right","right",0.572000027,1,1,0,1,NA,NA,NA,NA,NA,NA,NA,NA,NA,NA,NA,NA,NA,NA,NA,NA,NA,NA,NA,NA,NA,NA,NA,NA
"50","stim/objects/HouseObjects/saw.png",222,58,222,0.5,"stim/22.jpeg",2,2,1,NA,"HouseObjects",2,1,"right","left",0.837999821,0,0,0,1,NA,NA,NA,NA,NA,NA,NA,NA,NA,NA,NA,NA,NA,NA,NA,NA,NA,NA,NA,NA,NA,NA,NA,NA
"219","stim/objects/Instruments/trumpet.png",223,58,223,0.3,"stim/33.jpeg",3,3,2,NA,"Instruments",1,1,"left","right",0.833999872,0,0,0,1,NA,NA,NA,NA,NA,NA,NA,NA,NA,NA,NA,NA,NA,NA,NA,NA,NA,NA,NA,NA,NA,NA,NA,NA
"179","stim/objects/Instruments/speaker.png",224,58,224,0.5,"stim/22.jpeg",2,2,1,NA,"Instruments",1,1,"left","",NA,0,0,0,1,NA,NA,NA,NA,NA,NA,NA,NA,NA,NA,NA,NA,NA,NA,NA,NA,NA,NA,NA,NA,NA,NA,NA,NA
"207","stim/objects/Instruments/trombone.png",225,58,225,0.3,"stim/32.jpeg",3,2,2,NA,"Instruments",1,3,"left","right",0.651000023,0,0,0,1,NA,NA,NA,NA,NA,NA,NA,NA,NA,NA,NA,NA,NA,NA,NA,NA,NA,NA,NA,NA,NA,NA,NA,NA
"13","stim/objects/HouseObjects/remote.png",226,58,226,0.5,"stim/12.jpeg",1,2,1,NA,"HouseObjects",2,2,"right","right",0.779000044,1,1,0,1,NA,NA,NA,NA,NA,NA,NA,NA,NA,NA,NA,NA,NA,NA,NA,NA,NA,NA,NA,NA,NA,NA,NA,NA
"51","stim/objects/HouseObjects/saw.png",227,58,227,0.5,"stim/22.jpeg",2,2,1,NA,"HouseObjects",2,1,"right","left",0.622999907,0,0,0,1,NA,NA,NA,NA,NA,NA,NA,NA,NA,NA,NA,NA,NA,NA,NA,NA,NA,NA,NA,NA,NA,NA,NA,NA
"192","stim/objects/Instruments/timbal2.png",228,58,228,0.1,"stim/54.jpeg",5,4,3,NA,"Instruments",1,1,"left","right",0.643000126,0,0,0,1,NA,NA,NA,NA,NA,NA,NA,NA,NA,NA,NA,NA,NA,NA,NA,NA,NA,NA,NA,NA,NA,NA,NA,NA
"119","stim/objects/HouseObjects/thread.png",229,58,229,0.7,"stim/34.jpeg",3,4,2,NA,"HouseObjects",2,4,"right","right",0.552999973,1,1,0,1,NA,NA,NA,NA,NA,NA,NA,NA,NA,NA,NA,NA,NA,NA,NA,NA,NA,NA,NA,NA,NA,NA,NA,NA
"103","stim/objects/HouseObjects/teapot.png",230,58,230,0.7,"stim/32.jpeg",3,2,2,NA,"HouseObjects",2,1,"right","right",0.685000181,1,1,0,1,NA,NA,NA,NA,NA,NA,NA,NA,NA,NA,NA,NA,NA,NA,NA,NA,NA,NA,NA,NA,NA,NA,NA,NA
"173","stim/objects/Instruments/saxophone.png",231,58,231,0.5,"stim/21.jpeg",2,1,1,NA,"Instruments",1,3,"left","right",0.809999943,0,0,0,1,NA,NA,NA,NA,NA,NA,NA,NA,NA,NA,NA,NA,NA,NA,NA,NA,NA,NA,NA,NA,NA,NA,NA,NA
"149","stim/objects/Instruments/record_player.png",232,58,232,0.5,"stim/14.jpeg",1,4,1,NA,"Instruments",1,4,"left","left",0.927000046,1,1,0,1,NA,NA,NA,NA,NA,NA,NA,NA,NA,NA,NA,NA,NA,NA,NA,NA,NA,NA,NA,NA,NA,NA,NA,NA
"168","stim/objects/Instruments/record2.png",233,58,233,0.7,"stim/43.jpeg",4,3,2,NA,"Instruments",1,1,"left","left",0.812000036,1,1,0,1,NA,NA,NA,NA,NA,NA,NA,NA,NA,NA,NA,NA,NA,NA,NA,NA,NA,NA,NA,NA,NA,NA,NA,NA
"5","stim/objects/HouseObjects/recyclingbin.png",234,58,234,0.5,"stim/11.jpeg",1,1,1,NA,"HouseObjects",2,3,"right","left",0.674000025,0,0,0,1,NA,NA,NA,NA,NA,NA,NA,NA,NA,NA,NA,NA,NA,NA,NA,NA,NA,NA,NA,NA,NA,NA,NA,NA
"174","stim/objects/Instruments/saxophone2.png",235,58,235,0.1,"stim/51.jpeg",5,1,3,NA,"Instruments",1,4,"left","right",0.524999857,0,0,0,1,NA,NA,NA,NA,NA,NA,NA,NA,NA,NA,NA,NA,NA,NA,NA,NA,NA,NA,NA,NA,NA,NA,NA,NA
"156","stim/objects/Instruments/record_player2.png",236,58,236,0.7,"stim/44.jpeg",4,4,2,NA,"Instruments",1,1,"left","left",0.855999947,1,1,0,1,NA,NA,NA,NA,NA,NA,NA,NA,NA,NA,NA,NA,NA,NA,NA,NA,NA,NA,NA,NA,NA,NA,NA,NA
"112","stim/objects/HouseObjects/thermometer2.png",237,58,237,0.1,"stim/63.jpeg",6,3,3,NA,"HouseObjects",2,4,"right","left",0.526000023,0,0,0,1,NA,NA,NA,NA,NA,NA,NA,NA,NA,NA,NA,NA,NA,NA,NA,NA,NA,NA,NA,NA,NA,NA,NA,NA
"240","stim/objects/Instruments/tuba2.png",238,58,238,0.9,"stim/64.jpeg",6,4,3,NA,"Instruments",1,2,"left","left",0.59800005,1,1,0,1,NA,NA,NA,NA,NA,NA,NA,NA,NA,NA,NA,NA,NA,NA,NA,NA,NA,NA,NA,NA,NA,NA,NA,NA
"204","stim/objects/Instruments/triangle2.png",239,58,239,0.9,"stim/61.jpeg",6,1,3,NA,"Instruments",1,2,"left","left",0.505000114,1,1,0,1,NA,NA,NA,NA,NA,NA,NA,NA,NA,NA,NA,NA,NA,NA,NA,NA,NA,NA,NA,NA,NA,NA,NA,NA
"46","stim/objects/HouseObjects/safetypin2.png",240,58,240,0.9,"stim/51.jpeg",5,1,3,NA,"HouseObjects",2,4,"right","right",0.479000092,1,1,0,1,NA,NA,NA,NA,NA,NA,NA,NA,NA,NA,NA,NA,NA,NA,NA,NA,NA,NA,NA,NA,NA,NA,NA,NA
"524","stim/objects/Instruments/grandpiano3.png",248,58,241,0.9,"stim/61.jpeg",6,1,3,2,"Instruments",1,4,"left","",NA,0,0,1,0,NA,NA,NA,NA,NA,NA,NA,NA,NA,NA,NA,NA,NA,NA,NA,NA,NA,NA,NA,NA,NA,NA,NA,NA
"243","stim/objects/HouseObjects/ashtray4.png",249,58,242,0.7,"stim/33.jpeg",3,3,2,1,"HouseObjects",2,1,"right","",NA,0,0,1,0,194,58,1,0.7,2,"stim/33.jpeg",3,3,"stim/33.jpeg",1,"left",1.066999912,4,1,2.832999706,2,1.984999895,194,1,0,0,0,0,0
"412","stim/objects/Instruments/balalaika3.png",250,58,243,0.5,"stim/14.jpeg",1,4,1,2,"Instruments",1,1,"left","right",0.604000092,0,0,1,0,NA,NA,NA,NA,NA,NA,NA,NA,NA,NA,NA,NA,NA,NA,NA,NA,NA,NA,NA,NA,NA,NA,NA,NA
"359","stim/objects/HouseObjects/glass3.png",251,58,244,0.9,"stim/51.jpeg",5,1,3,2,"HouseObjects",2,3,"right","right",0.720000029,1,1,1,0,NA,NA,NA,NA,NA,NA,NA,NA,NA,NA,NA,NA,NA,NA,NA,NA,NA,NA,NA,NA,NA,NA,NA,NA
"325","stim/objects/HouseObjects/flyswatter3.png",252,58,245,0.9,"stim/53.jpeg",5,3,3,2,"HouseObjects",2,2,"right","right",0.51300025,1,1,1,0,NA,NA,NA,NA,NA,NA,NA,NA,NA,NA,NA,NA,NA,NA,NA,NA,NA,NA,NA,NA,NA,NA,NA,NA
"456","stim/objects/Instruments/flute3.png",253,58,246,0.9,"stim/61.jpeg",6,1,3,2,"Instruments",1,2,"left","left",0.647000074,1,1,1,0,NA,NA,NA,NA,NA,NA,NA,NA,NA,NA,NA,NA,NA,NA,NA,NA,NA,NA,NA,NA,NA,NA,NA,NA
"291","stim/objects/HouseObjects/doormat3.png",254,58,247,0.9,"stim/51.jpeg",5,1,3,2,"HouseObjects",2,2,"right","right",0.534999847,1,1,1,0,NA,NA,NA,NA,NA,NA,NA,NA,NA,NA,NA,NA,NA,NA,NA,NA,NA,NA,NA,NA,NA,NA,NA,NA
"440","stim/objects/Instruments/doublebass3.png",255,58,248,0.7,"stim/43.jpeg",4,3,2,2,"Instruments",1,2,"left","left",0.635999918,1,1,1,0,NA,NA,NA,NA,NA,NA,NA,NA,NA,NA,NA,NA,NA,NA,NA,NA,NA,NA,NA,NA,NA,NA,NA,NA
"264","stim/objects/HouseObjects/broom4.png",256,58,249,0.3,"stim/44.jpeg",4,4,2,1,"HouseObjects",2,2,"right","right",0.601000071,1,1,1,0,38,58,1,0.3,2,"stim/44.jpeg",4,4,"stim/44.jpeg",2,"right",1.614000082,4,3,5.886999846,3,2.565999985,38,0,0,NA,0,NA,0
"489","stim/objects/Instruments/flutetrans4.png",257,58,250,0.1,"stim/52.jpeg",5,2,3,1,"Instruments",1,4,"left","right",0.492000103,0,0,1,0,181,58,1,0.1,1,"stim/52.jpeg",5,2,"stim/52.jpeg",4,"right",1.223999977,1,3,2.332999945,3,1.069999933,181,0,0,NA,0,NA,0
"423","stim/objects/Instruments/bassguitar4.png",258,58,251,0.7,"stim/44.jpeg",4,4,2,1,"Instruments",1,1,"left","right",0.60800004,0,0,1,0,174,58,1,0.7,1,"stim/44.jpeg",4,4,"stim/44.jpeg",1,"right",1.976999998,2,3,2.007999897,3,1.073999882,174,0,0,NA,0,NA,0
"549","stim/objects/Instruments/keyboard3.png",259,58,252,0.5,"stim/13.jpeg",1,3,1,1,"Instruments",1,2,"left","right",0.670000076,0,0,1,0,172,58,1,0.5,1,"stim/13.jpeg",1,3,"stim/13.jpeg",2,"right",0.984999895,4,4,1.164000034,2,1.144999981,172,0,0,NA,1,NA,0
"507","stim/objects/Instruments/gong3.png",260,58,253,0.9,"stim/61.jpeg",6,1,3,2,"Instruments",1,1,"left","left",0.684000015,1,1,1,0,NA,NA,NA,NA,NA,NA,NA,NA,NA,NA,NA,NA,NA,NA,NA,NA,NA,NA,NA,NA,NA,NA,NA,NA
"444","stim/objects/Instruments/drums3.png",261,58,254,0.7,"stim/43.jpeg",4,3,2,2,"Instruments",1,3,"left","right",0.559000015,0,0,1,0,NA,NA,NA,NA,NA,NA,NA,NA,NA,NA,NA,NA,NA,NA,NA,NA,NA,NA,NA,NA,NA,NA,NA,NA
"508","stim/objects/Instruments/gong3.png",262,58,255,0.9,"stim/63.jpeg",6,3,3,2,"Instruments",1,4,"left","left",0.548000097,1,1,1,0,NA,NA,NA,NA,NA,NA,NA,NA,NA,NA,NA,NA,NA,NA,NA,NA,NA,NA,NA,NA,NA,NA,NA,NA
"247","stim/objects/HouseObjects/barbecuelighter3.png",263,58,256,0.5,"stim/13.jpeg",1,3,1,2,"HouseObjects",2,3,"right","",NA,0,0,1,0,NA,NA,NA,NA,NA,NA,NA,NA,NA,NA,NA,NA,NA,NA,NA,NA,NA,NA,NA,NA,NA,NA,NA,NA
"326","stim/objects/HouseObjects/flyswatter3.png",264,58,257,0.9,"stim/51.jpeg",5,1,3,2,"HouseObjects",2,3,"right","right",0.520000219,1,1,1,0,NA,NA,NA,NA,NA,NA,NA,NA,NA,NA,NA,NA,NA,NA,NA,NA,NA,NA,NA,NA,NA,NA,NA,NA
"252","stim/objects/HouseObjects/basket4.png",265,58,258,0.7,"stim/32.jpeg",3,2,2,1,"HouseObjects",2,2,"right","left",0.585999966,0,0,1,0,97,58,1,0.7,2,"stim/32.jpeg",3,2,"stim/32.jpeg",2,"right",0.740999937,3,4,1.512999773,2,1.387000084,97,0,0,NA,1,NA,0
"526","stim/objects/Instruments/grandpiano3.png",266,58,259,0.9,"stim/62.jpeg",6,2,3,2,"Instruments",1,4,"left","left",0.70600009,1,1,1,0,NA,NA,NA,NA,NA,NA,NA,NA,NA,NA,NA,NA,NA,NA,NA,NA,NA,NA,NA,NA,NA,NA,NA,NA
"557","stim/objects/Instruments/metronome3.png",267,58,260,0.5,"stim/24.jpeg",2,4,1,1,"Instruments",1,2,"left","right",0.421999931,0,0,1,0,60,58,1,0.5,2,"stim/24.jpeg",2,4,"stim/24.jpeg",2,"right",0.812000036,2,3,2.328000069,3,2.622999907,60,0,0,NA,0,NA,0
"457","stim/objects/Instruments/flute3.png",268,58,261,0.9,"stim/62.jpeg",6,2,3,2,"Instruments",1,1,"left","left",0.496999979,1,1,1,0,NA,NA,NA,NA,NA,NA,NA,NA,NA,NA,NA,NA,NA,NA,NA,NA,NA,NA,NA,NA,NA,NA,NA,NA
"490","stim/objects/Instruments/frenchhorn3.png",269,58,262,0.9,"stim/64.jpeg",6,4,3,2,"Instruments",1,3,"left","left",0.602999926,1,1,1,0,NA,NA,NA,NA,NA,NA,NA,NA,NA,NA,NA,NA,NA,NA,NA,NA,NA,NA,NA,NA,NA,NA,NA,NA
"261","stim/objects/HouseObjects/bottle4.png",270,58,263,0.3,"stim/43.jpeg",4,3,2,1,"HouseObjects",2,3,"right","right",0.571000099,1,1,1,0,179,58,1,0.3,2,"stim/43.jpeg",4,3,"stim/43.jpeg",3,"right",0.647000074,4,4,1.885999918,3,1.150000095,179,0,0,NA,1,NA,0
"556","stim/objects/Instruments/marimba4.png",271,58,264,0.9,"stim/63.jpeg",6,3,3,1,"Instruments",1,3,"left","right",0.523999929,0,0,1,0,92,58,1,0.9,1,"stim/63.jpeg",6,3,"stim/63.jpeg",3,"right",1.023000002,2,2,1.108999968,4,1.728000164,92,0,0,NA,0,NA,0
"528","stim/objects/Instruments/grandpiano3.png",272,58,265,0.9,"stim/62.jpeg",6,2,3,2,"Instruments",1,3,"left","left",0.489000082,1,1,1,0,NA,NA,NA,NA,NA,NA,NA,NA,NA,NA,NA,NA,NA,NA,NA,NA,NA,NA,NA,NA,NA,NA,NA,NA
"361","stim/objects/HouseObjects/glass3.png",273,58,266,0.9,"stim/53.jpeg",5,3,3,2,"HouseObjects",2,2,"right","right",0.481999874,1,1,1,0,NA,NA,NA,NA,NA,NA,NA,NA,NA,NA,NA,NA,NA,NA,NA,NA,NA,NA,NA,NA,NA,NA,NA,NA
"491","stim/objects/Instruments/frenchhorn3.png",274,58,267,0.9,"stim/62.jpeg",6,2,3,2,"Instruments",1,4,"left","left",0.485000134,1,1,1,0,NA,NA,NA,NA,NA,NA,NA,NA,NA,NA,NA,NA,NA,NA,NA,NA,NA,NA,NA,NA,NA,NA,NA,NA
"509","stim/objects/Instruments/gong3.png",275,58,268,0.9,"stim/64.jpeg",6,4,3,2,"Instruments",1,1,"left","left",0.519999981,1,1,1,0,NA,NA,NA,NA,NA,NA,NA,NA,NA,NA,NA,NA,NA,NA,NA,NA,NA,NA,NA,NA,NA,NA,NA,NA
"362","stim/objects/HouseObjects/glass3.png",276,58,269,0.9,"stim/54.jpeg",5,4,3,2,"HouseObjects",2,1,"right","left",0.899999857,0,0,1,0,NA,NA,NA,NA,NA,NA,NA,NA,NA,NA,NA,NA,NA,NA,NA,NA,NA,NA,NA,NA,NA,NA,NA,NA
"309","stim/objects/HouseObjects/dustpan3.png",277,58,270,0.9,"stim/51.jpeg",5,1,3,2,"HouseObjects",2,4,"right","right",0.504999876,1,1,1,0,NA,NA,NA,NA,NA,NA,NA,NA,NA,NA,NA,NA,NA,NA,NA,NA,NA,NA,NA,NA,NA,NA,NA,NA
"510","stim/objects/Instruments/gong3.png",278,58,271,0.9,"stim/61.jpeg",6,1,3,2,"Instruments",1,4,"left","left",0.587000132,1,1,1,0,NA,NA,NA,NA,NA,NA,NA,NA,NA,NA,NA,NA,NA,NA,NA,NA,NA,NA,NA,NA,NA,NA,NA,NA
"390","stim/objects/HouseObjects/knife3.png",279,58,272,0.5,"stim/22.jpeg",2,2,1,1,"HouseObjects",2,2,"right","right",0.64199996,1,1,1,0,129,58,1,0.5,2,"stim/22.jpeg",2,2,"stim/22.jpeg",2,"right",0.794999838,3,4,1.246999979,2,1.977999926,129,0,0,NA,1,NA,0
"560","stim/objects/Instruments/musicsheet4.png",280,58,273,0.9,"stim/61.jpeg",6,1,3,1,"Instruments",1,1,"left","left",0.502000093,1,1,1,0,149,58,1,0.9,1,"stim/61.jpeg",6,1,"stim/61.jpeg",1,"right",1.038999796,4,1,1.934999943,1,1.515000105,149,0,1,NA,1,NA,0
"379","stim/objects/HouseObjects/hairdryer4.png",281,58,274,0.9,"stim/51.jpeg",5,1,3,1,"HouseObjects",2,4,"right","right",0.523999929,1,1,1,0,113,58,1,0.9,2,"stim/51.jpeg",5,1,"stim/51.jpeg",4,"right",0.782999992,1,2,1.986999989,3,3.230999947,113,0,0,NA,0,NA,0
"399","stim/objects/HouseObjects/pitcher4.png",282,58,275,0.1,"stim/61.jpeg",6,1,3,1,"HouseObjects",2,4,"right","left",0.471999884,0,0,1,0,127,58,1,0.1,2,"stim/61.jpeg",6,1,"stim/61.jpeg",4,"right",1.161999941,4,2,2.929999828,2,1.427999973,127,0,0,NA,0,NA,0
"294","stim/objects/HouseObjects/doormat3.png",283,58,276,0.9,"stim/52.jpeg",5,2,3,2,"HouseObjects",2,2,"right","right",0.490999937,1,1,1,0,NA,NA,NA,NA,NA,NA,NA,NA,NA,NA,NA,NA,NA,NA,NA,NA,NA,NA,NA,NA,NA,NA,NA,NA
"342","stim/objects/HouseObjects/garbagebin3.png",284,58,277,0.9,"stim/52.jpeg",5,2,3,2,"HouseObjects",2,2,"right","right",0.453000069,1,1,1,0,NA,NA,NA,NA,NA,NA,NA,NA,NA,NA,NA,NA,NA,NA,NA,NA,NA,NA,NA,NA,NA,NA,NA,NA
"545","stim/objects/Instruments/harp3.png",285,58,278,0.5,"stim/11.jpeg",1,1,1,1,"Instruments",1,2,"left","left",0.736000061,1,1,1,0,42,58,1,0.5,1,"stim/11.jpeg",1,1,"stim/11.jpeg",2,"right",0.978999853,3,2,2.549999952,3,2.282999992,42,0,0,NA,0,NA,0
"458","stim/objects/Instruments/flute3.png",286,58,279,0.9,"stim/62.jpeg",6,2,3,2,"Instruments",1,3,"left","left",0.596000195,1,1,1,0,NA,NA,NA,NA,NA,NA,NA,NA,NA,NA,NA,NA,NA,NA,NA,NA,NA,NA,NA,NA,NA,NA,NA,NA
"363","stim/objects/HouseObjects/glass3.png",287,58,280,0.9,"stim/54.jpeg",5,4,3,2,"HouseObjects",2,3,"right","right",0.612999916,1,1,1,0,NA,NA,NA,NA,NA,NA,NA,NA,NA,NA,NA,NA,NA,NA,NA,NA,NA,NA,NA,NA,NA,NA,NA,NA
"512","stim/objects/Instruments/gong3.png",288,58,281,0.9,"stim/62.jpeg",6,2,3,2,"Instruments",1,2,"left","left",0.519999981,1,1,1,0,NA,NA,NA,NA,NA,NA,NA,NA,NA,NA,NA,NA,NA,NA,NA,NA,NA,NA,NA,NA,NA,NA,NA,NA
"529","stim/objects/Instruments/grandpiano3.png",289,58,282,0.9,"stim/64.jpeg",6,4,3,2,"Instruments",1,1,"left","left",0.563999891,1,1,1,0,NA,NA,NA,NA,NA,NA,NA,NA,NA,NA,NA,NA,NA,NA,NA,NA,NA,NA,NA,NA,NA,NA,NA,NA
"364","stim/objects/HouseObjects/glass3.png",290,58,283,0.9,"stim/52.jpeg",5,2,3,2,"HouseObjects",2,1,"right","right",0.553000212,1,1,1,0,NA,NA,NA,NA,NA,NA,NA,NA,NA,NA,NA,NA,NA,NA,NA,NA,NA,NA,NA,NA,NA,NA,NA,NA
"405","stim/objects/HouseObjects/wateringcan4.png",291,58,284,0.1,"stim/64.jpeg",6,4,3,1,"HouseObjects",2,2,"right","left",0.50999999,0,0,1,0,173,58,1,0.1,2,"stim/64.jpeg",6,4,"stim/64.jpeg",2,"left",1.157000065,3,4,2.546000004,2,1.479000092,173,1,1,1,1,1,0
"435","stim/objects/Instruments/cornet4.png",292,58,285,0.7,"stim/44.jpeg",4,4,2,1,"Instruments",1,4,"left","right",0.665999889,0,0,1,0,191,58,1,0.7,1,"stim/44.jpeg",4,4,"stim/44.jpeg",4,"right",0.726000071,4,2,1.851999998,3,1.115999937,191,0,0,NA,0,NA,0
"459","stim/objects/Instruments/flute3.png",293,58,286,0.9,"stim/61.jpeg",6,1,3,2,"Instruments",1,1,"left","left",0.588999987,1,1,1,0,NA,NA,NA,NA,NA,NA,NA,NA,NA,NA,NA,NA,NA,NA,NA,NA,NA,NA,NA,NA,NA,NA,NA,NA
"474","stim/objects/Instruments/flutetrans3.png",294,58,287,0.9,"stim/64.jpeg",6,4,3,2,"Instruments",1,3,"left","left",0.648000002,1,1,1,0,NA,NA,NA,NA,NA,NA,NA,NA,NA,NA,NA,NA,NA,NA,NA,NA,NA,NA,NA,NA,NA,NA,NA,NA
"310","stim/objects/HouseObjects/dustpan3.png",295,58,288,0.9,"stim/51.jpeg",5,1,3,2,"HouseObjects",2,2,"right","right",0.453000069,1,1,1,0,NA,NA,NA,NA,NA,NA,NA,NA,NA,NA,NA,NA,NA,NA,NA,NA,NA,NA,NA,NA,NA,NA,NA,NA
"241","stim/objects/HouseObjects/ashtray3.png",296,58,289,0.5,"stim/11.jpeg",1,1,1,2,"HouseObjects",2,4,"right","right",0.618999958,1,1,1,0,NA,NA,NA,NA,NA,NA,NA,NA,NA,NA,NA,NA,NA,NA,NA,NA,NA,NA,NA,NA,NA,NA,NA,NA
"344","stim/objects/HouseObjects/garbagebin3.png",297,58,290,0.9,"stim/52.jpeg",5,2,3,2,"HouseObjects",2,3,"right","right",0.644999981,1,1,1,0,NA,NA,NA,NA,NA,NA,NA,NA,NA,NA,NA,NA,NA,NA,NA,NA,NA,NA,NA,NA,NA,NA,NA,NA
"345","stim/objects/HouseObjects/garbagebin3.png",298,58,291,0.9,"stim/54.jpeg",5,4,3,2,"HouseObjects",2,3,"right","left",0.795000076,0,0,1,0,NA,NA,NA,NA,NA,NA,NA,NA,NA,NA,NA,NA,NA,NA,NA,NA,NA,NA,NA,NA,NA,NA,NA,NA
"365","stim/objects/HouseObjects/glass3.png",299,58,292,0.9,"stim/51.jpeg",5,1,3,2,"HouseObjects",2,4,"right","right",0.493000031,1,1,1,0,NA,NA,NA,NA,NA,NA,NA,NA,NA,NA,NA,NA,NA,NA,NA,NA,NA,NA,NA,NA,NA,NA,NA,NA
"448","stim/objects/Instruments/electricdrumset3.png",300,58,293,0.7,"stim/42.jpeg",4,2,2,2,"Instruments",1,3,"left","left",0.818000078,1,1,1,0,NA,NA,NA,NA,NA,NA,NA,NA,NA,NA,NA,NA,NA,NA,NA,NA,NA,NA,NA,NA,NA,NA,NA,NA
"311","stim/objects/HouseObjects/dustpan3.png",301,58,294,0.9,"stim/52.jpeg",5,2,3,2,"HouseObjects",2,3,"right","right",0.676000118,1,1,1,0,NA,NA,NA,NA,NA,NA,NA,NA,NA,NA,NA,NA,NA,NA,NA,NA,NA,NA,NA,NA,NA,NA,NA,NA
"397","stim/objects/HouseObjects/pan4.png",302,58,295,0.1,"stim/64.jpeg",6,4,3,1,"HouseObjects",2,2,"right","left",0.585000038,0,0,1,0,63,58,1,0.1,2,"stim/64.jpeg",6,4,"stim/64.jpeg",2,"right",1.361999989,2,1,2.018999815,2,1.689999819,63,0,0,NA,1,NA,0
"253","stim/objects/HouseObjects/bleachbottle3.png",303,58,296,0.5,"stim/14.jpeg",1,4,1,2,"HouseObjects",2,3,"right","right",0.486999989,1,1,1,0,NA,NA,NA,NA,NA,NA,NA,NA,NA,NA,NA,NA,NA,NA,NA,NA,NA,NA,NA,NA,NA,NA,NA,NA
"475","stim/objects/Instruments/flutetrans3.png",304,58,297,0.9,"stim/61.jpeg",6,1,3,2,"Instruments",1,3,"left","left",0.569000006,1,1,1,0,NA,NA,NA,NA,NA,NA,NA,NA,NA,NA,NA,NA,NA,NA,NA,NA,NA,NA,NA,NA,NA,NA,NA,NA
"472","stim/objects/Instruments/flute4.png",305,58,298,0.1,"stim/51.jpeg",5,1,3,1,"Instruments",1,3,"left","right",0.561000109,0,0,1,0,27,58,1,0.1,1,"stim/51.jpeg",5,1,"stim/51.jpeg",3,"left",1.893999815,2,2,3.506999969,3,4.562000036,27,1,0,0,1,1,0
"283","stim/objects/HouseObjects/cushion3.png",306,58,299,0.7,"stim/32.jpeg",3,2,2,2,"HouseObjects",2,1,"right","right",0.822000027,1,1,1,0,NA,NA,NA,NA,NA,NA,NA,NA,NA,NA,NA,NA,NA,NA,NA,NA,NA,NA,NA,NA,NA,NA,NA,NA
"272","stim/objects/HouseObjects/clothesdryingrack3.png",307,58,300,0.7,"stim/34.jpeg",3,4,2,2,"HouseObjects",2,3,"right","left",0.794000149,0,0,1,0,NA,NA,NA,NA,NA,NA,NA,NA,NA,NA,NA,NA,NA,NA,NA,NA,NA,NA,NA,NA,NA,NA,NA,NA
"513","stim/objects/Instruments/gong3.png",308,58,301,0.9,"stim/63.jpeg",6,3,3,2,"Instruments",1,4,"left","left",0.626000166,1,1,1,0,NA,NA,NA,NA,NA,NA,NA,NA,NA,NA,NA,NA,NA,NA,NA,NA,NA,NA,NA,NA,NA,NA,NA,NA
"514","stim/objects/Instruments/gong3.png",309,58,302,0.9,"stim/64.jpeg",6,4,3,2,"Instruments",1,2,"left","right",0.450999975,0,0,1,0,NA,NA,NA,NA,NA,NA,NA,NA,NA,NA,NA,NA,NA,NA,NA,NA,NA,NA,NA,NA,NA,NA,NA,NA
"449","stim/objects/Instruments/electricdrumset3.png",310,58,303,0.7,"stim/44.jpeg",4,4,2,2,"Instruments",1,1,"left","left",0.603000164,1,1,1,0,NA,NA,NA,NA,NA,NA,NA,NA,NA,NA,NA,NA,NA,NA,NA,NA,NA,NA,NA,NA,NA,NA,NA,NA
"531","stim/objects/Instruments/grandpiano3.png",311,58,304,0.9,"stim/63.jpeg",6,3,3,2,"Instruments",1,3,"left","left",0.519000053,1,1,1,0,NA,NA,NA,NA,NA,NA,NA,NA,NA,NA,NA,NA,NA,NA,NA,NA,NA,NA,NA,NA,NA,NA,NA,NA
"346","stim/objects/HouseObjects/garbagebin3.png",312,58,305,0.9,"stim/51.jpeg",5,1,3,2,"HouseObjects",2,1,"right","right",0.519000053,1,1,1,0,NA,NA,NA,NA,NA,NA,NA,NA,NA,NA,NA,NA,NA,NA,NA,NA,NA,NA,NA,NA,NA,NA,NA,NA
"265","stim/objects/HouseObjects/bucket3.png",313,58,306,0.5,"stim/22.jpeg",2,2,1,2,"HouseObjects",2,3,"right","left",0.337000132,0,0,1,0,NA,NA,NA,NA,NA,NA,NA,NA,NA,NA,NA,NA,NA,NA,NA,NA,NA,NA,NA,NA,NA,NA,NA,NA
"347","stim/objects/HouseObjects/garbagebin3.png",314,58,307,0.9,"stim/53.jpeg",5,3,3,2,"HouseObjects",2,4,"right","right",0.484000206,1,1,1,0,NA,NA,NA,NA,NA,NA,NA,NA,NA,NA,NA,NA,NA,NA,NA,NA,NA,NA,NA,NA,NA,NA,NA,NA
"476","stim/objects/Instruments/flutetrans3.png",315,58,308,0.9,"stim/64.jpeg",6,4,3,2,"Instruments",1,2,"left","left",0.549000025,1,1,1,0,NA,NA,NA,NA,NA,NA,NA,NA,NA,NA,NA,NA,NA,NA,NA,NA,NA,NA,NA,NA,NA,NA,NA,NA
"406","stim/objects/Instruments/accordion3.png",316,58,309,0.5,"stim/11.jpeg",1,1,1,2,"Instruments",1,4,"left","right",0.474000216,0,0,1,0,NA,NA,NA,NA,NA,NA,NA,NA,NA,NA,NA,NA,NA,NA,NA,NA,NA,NA,NA,NA,NA,NA,NA,NA
"421","stim/objects/Instruments/bassguitar3.png",317,58,310,0.5,"stim/24.jpeg",2,4,1,2,"Instruments",1,2,"left","left",0.586000204,1,1,1,0,NA,NA,NA,NA,NA,NA,NA,NA,NA,NA,NA,NA,NA,NA,NA,NA,NA,NA,NA,NA,NA,NA,NA,NA
"415","stim/objects/Instruments/banjo3.png",318,58,311,0.5,"stim/11.jpeg",1,1,1,2,"Instruments",1,2,"left","right",0.565999985,0,0,1,0,NA,NA,NA,NA,NA,NA,NA,NA,NA,NA,NA,NA,NA,NA,NA,NA,NA,NA,NA,NA,NA,NA,NA,NA
"436","stim/objects/Instruments/cymbal3.png",319,58,312,0.7,"stim/41.jpeg",4,1,2,2,"Instruments",1,3,"left","left",0.671999931,1,1,1,0,NA,NA,NA,NA,NA,NA,NA,NA,NA,NA,NA,NA,NA,NA,NA,NA,NA,NA,NA,NA,NA,NA,NA,NA
"515","stim/objects/Instruments/gong3.png",320,58,313,0.9,"stim/62.jpeg",6,2,3,2,"Instruments",1,1,"left","left",0.525000095,1,1,1,0,NA,NA,NA,NA,NA,NA,NA,NA,NA,NA,NA,NA,NA,NA,NA,NA,NA,NA,NA,NA,NA,NA,NA,NA
"312","stim/objects/HouseObjects/dustpan3.png",321,58,314,0.9,"stim/51.jpeg",5,1,3,2,"HouseObjects",2,2,"right","right",0.439999819,1,1,1,0,NA,NA,NA,NA,NA,NA,NA,NA,NA,NA,NA,NA,NA,NA,NA,NA,NA,NA,NA,NA,NA,NA,NA,NA
"551","stim/objects/Instruments/laud3.png",322,58,315,0.5,"stim/21.jpeg",2,1,1,1,"Instruments",1,1,"left","left",0.4599998,1,1,1,0,11,58,1,0.5,2,"stim/21.jpeg",2,1,"stim/21.jpeg",1,"left",0.961999893,4,2,2.850999832,3,1.713999987,11,1,0,0,0,0,0
"404","stim/objects/HouseObjects/wateringcan3.png",323,58,316,0.7,"stim/32.jpeg",3,2,2,1,"HouseObjects",2,3,"right","left",0.812000036,0,0,1,0,93,58,1,0.7,2,"stim/32.jpeg",3,2,"stim/32.jpeg",3,"right",3.444999933,2,3,2.478999853,3,1.244999886,93,0,0,NA,1,NA,0
"461","stim/objects/Instruments/flute3.png",324,58,317,0.9,"stim/63.jpeg",6,3,3,2,"Instruments",1,1,"left","left",0.571000099,1,1,1,0,NA,NA,NA,NA,NA,NA,NA,NA,NA,NA,NA,NA,NA,NA,NA,NA,NA,NA,NA,NA,NA,NA,NA,NA
"516","stim/objects/Instruments/gong3.png",325,58,318,0.9,"stim/64.jpeg",6,4,3,2,"Instruments",1,1,"left","left",0.55099988,1,1,1,0,NA,NA,NA,NA,NA,NA,NA,NA,NA,NA,NA,NA,NA,NA,NA,NA,NA,NA,NA,NA,NA,NA,NA,NA
"262","stim/objects/HouseObjects/broom3.png",326,58,319,0.5,"stim/24.jpeg",2,4,1,2,"HouseObjects",2,4,"right","right",0.511000156,1,1,1,0,NA,NA,NA,NA,NA,NA,NA,NA,NA,NA,NA,NA,NA,NA,NA,NA,NA,NA,NA,NA,NA,NA,NA,NA
"452","stim/objects/Instruments/electricguitar3.png",327,58,320,0.7,"stim/41.jpeg",4,1,2,2,"Instruments",1,2,"left","right",0.622999907,0,0,1,0,NA,NA,NA,NA,NA,NA,NA,NA,NA,NA,NA,NA,NA,NA,NA,NA,NA,NA,NA,NA,NA,NA,NA,NA
"393","stim/objects/HouseObjects/lintroller4.png",328,58,321,0.1,"stim/62.jpeg",6,2,3,1,"HouseObjects",2,4,"right","left",0.553999901,0,0,1,0,162,58,1,0.1,2,"stim/62.jpeg",6,2,"stim/62.jpeg",4,"right",0.878999949,4,4,1.899999857,2,1.764999866,162,0,0,NA,0,NA,0
"244","stim/objects/HouseObjects/ballofstring3.png",329,58,322,0.5,"stim/12.jpeg",1,2,1,2,"HouseObjects",2,4,"right","right",0.603000164,1,1,1,0,NA,NA,NA,NA,NA,NA,NA,NA,NA,NA,NA,NA,NA,NA,NA,NA,NA,NA,NA,NA,NA,NA,NA,NA
"416","stim/objects/Instruments/banjo3.png",330,58,323,0.5,"stim/14.jpeg",1,4,1,2,"Instruments",1,4,"left","right",0.585999966,0,0,1,0,NA,NA,NA,NA,NA,NA,NA,NA,NA,NA,NA,NA,NA,NA,NA,NA,NA,NA,NA,NA,NA,NA,NA,NA
"552","stim/objects/Instruments/laud4.png",331,58,324,0.9,"stim/61.jpeg",6,1,3,1,"Instruments",1,2,"left","left",0.507999897,1,1,1,0,74,58,1,0.9,1,"stim/61.jpeg",6,1,"stim/61.jpeg",2,"left",0.962999821,3,2,2.847000122,3,2.704999924,74,1,0,0,0,0,0
"348","stim/objects/HouseObjects/garbagebin3.png",332,58,325,0.9,"stim/51.jpeg",5,1,3,2,"HouseObjects",2,1,"right","right",0.625999928,1,1,1,0,NA,NA,NA,NA,NA,NA,NA,NA,NA,NA,NA,NA,NA,NA,NA,NA,NA,NA,NA,NA,NA,NA,NA,NA
"367","stim/objects/HouseObjects/glass3.png",333,58,326,0.9,"stim/52.jpeg",5,2,3,2,"HouseObjects",2,2,"right","right",0.50999999,1,1,1,0,NA,NA,NA,NA,NA,NA,NA,NA,NA,NA,NA,NA,NA,NA,NA,NA,NA,NA,NA,NA,NA,NA,NA,NA
"492","stim/objects/Instruments/frenchhorn3.png",334,58,327,0.9,"stim/61.jpeg",6,1,3,2,"Instruments",1,1,"left","left",0.470000029,1,1,1,0,NA,NA,NA,NA,NA,NA,NA,NA,NA,NA,NA,NA,NA,NA,NA,NA,NA,NA,NA,NA,NA,NA,NA,NA
"493","stim/objects/Instruments/frenchhorn3.png",335,58,328,0.9,"stim/64.jpeg",6,4,3,2,"Instruments",1,1,"left","left",0.557999849,1,1,1,0,NA,NA,NA,NA,NA,NA,NA,NA,NA,NA,NA,NA,NA,NA,NA,NA,NA,NA,NA,NA,NA,NA,NA,NA
"553","stim/objects/Instruments/maraca3.png",336,58,329,0.5,"stim/22.jpeg",2,2,1,1,"Instruments",1,3,"left","left",0.842000008,1,1,1,0,10,58,1,0.5,2,"stim/22.jpeg",2,2,"stim/22.jpeg",3,"left",1.106999874,4,3,1.930999756,3,2.156999826,10,1,0,0,1,1,0
"532","stim/objects/Instruments/grandpiano3.png",337,58,330,0.9,"stim/64.jpeg",6,4,3,2,"Instruments",1,3,"left","left",0.568000078,1,1,1,0,NA,NA,NA,NA,NA,NA,NA,NA,NA,NA,NA,NA,NA,NA,NA,NA,NA,NA,NA,NA,NA,NA,NA,NA
"314","stim/objects/HouseObjects/dustpan3.png",338,58,331,0.9,"stim/53.jpeg",5,3,3,2,"HouseObjects",2,1,"right","right",0.463999987,1,1,1,0,NA,NA,NA,NA,NA,NA,NA,NA,NA,NA,NA,NA,NA,NA,NA,NA,NA,NA,NA,NA,NA,NA,NA,NA
"315","stim/objects/HouseObjects/dustpan3.png",339,58,332,0.9,"stim/53.jpeg",5,3,3,2,"HouseObjects",2,1,"right","right",0.583000183,1,1,1,0,NA,NA,NA,NA,NA,NA,NA,NA,NA,NA,NA,NA,NA,NA,NA,NA,NA,NA,NA,NA,NA,NA,NA,NA
"533","stim/objects/Instruments/grandpiano3.png",340,58,333,0.9,"stim/61.jpeg",6,1,3,2,"Instruments",1,1,"left","left",0.800000191,1,1,1,0,NA,NA,NA,NA,NA,NA,NA,NA,NA,NA,NA,NA,NA,NA,NA,NA,NA,NA,NA,NA,NA,NA,NA,NA
"329","stim/objects/HouseObjects/flyswatter3.png",341,58,334,0.9,"stim/52.jpeg",5,2,3,2,"HouseObjects",2,1,"right","right",0.519000053,1,1,1,0,NA,NA,NA,NA,NA,NA,NA,NA,NA,NA,NA,NA,NA,NA,NA,NA,NA,NA,NA,NA,NA,NA,NA,NA
"462","stim/objects/Instruments/flute3.png",342,58,335,0.9,"stim/62.jpeg",6,2,3,2,"Instruments",1,3,"left","left",0.546000004,1,1,1,0,NA,NA,NA,NA,NA,NA,NA,NA,NA,NA,NA,NA,NA,NA,NA,NA,NA,NA,NA,NA,NA,NA,NA,NA
"427","stim/objects/Instruments/chime3.png",343,58,336,0.5,"stim/22.jpeg",2,2,1,2,"Instruments",1,1,"left","right",0.56099987,0,0,1,0,NA,NA,NA,NA,NA,NA,NA,NA,NA,NA,NA,NA,NA,NA,NA,NA,NA,NA,NA,NA,NA,NA,NA,NA
"477","stim/objects/Instruments/flutetrans3.png",344,58,337,0.9,"stim/61.jpeg",6,1,3,2,"Instruments",1,1,"left","left",0.592000008,1,1,1,0,NA,NA,NA,NA,NA,NA,NA,NA,NA,NA,NA,NA,NA,NA,NA,NA,NA,NA,NA,NA,NA,NA,NA,NA
"413","stim/objects/Instruments/balalaika3.png",345,58,338,0.5,"stim/13.jpeg",1,3,1,2,"Instruments",1,1,"left","right",0.523999929,0,0,1,0,NA,NA,NA,NA,NA,NA,NA,NA,NA,NA,NA,NA,NA,NA,NA,NA,NA,NA,NA,NA,NA,NA,NA,NA
"430","stim/objects/Instruments/clarinet3.png",346,58,339,0.5,"stim/23.jpeg",2,3,1,2,"Instruments",1,1,"left","left",0.599000216,1,1,1,0,NA,NA,NA,NA,NA,NA,NA,NA,NA,NA,NA,NA,NA,NA,NA,NA,NA,NA,NA,NA,NA,NA,NA,NA
"256","stim/objects/HouseObjects/blender3.png",347,58,340,0.5,"stim/23.jpeg",2,3,1,2,"HouseObjects",2,2,"right","right",0.54399991,1,1,1,0,NA,NA,NA,NA,NA,NA,NA,NA,NA,NA,NA,NA,NA,NA,NA,NA,NA,NA,NA,NA,NA,NA,NA,NA
"431","stim/objects/Instruments/clarinet3.png",348,58,341,0.5,"stim/22.jpeg",2,2,1,2,"Instruments",1,1,"left","left",0.704999924,1,1,1,0,NA,NA,NA,NA,NA,NA,NA,NA,NA,NA,NA,NA,NA,NA,NA,NA,NA,NA,NA,NA,NA,NA,NA,NA
"407","stim/objects/Instruments/accordion3.png",349,58,342,0.5,"stim/12.jpeg",1,2,1,2,"Instruments",1,4,"left","right",0.764999866,0,0,1,0,NA,NA,NA,NA,NA,NA,NA,NA,NA,NA,NA,NA,NA,NA,NA,NA,NA,NA,NA,NA,NA,NA,NA,NA
"316","stim/objects/HouseObjects/dustpan3.png",350,58,343,0.9,"stim/54.jpeg",5,4,3,2,"HouseObjects",2,1,"right","right",0.611999989,1,1,1,0,NA,NA,NA,NA,NA,NA,NA,NA,NA,NA,NA,NA,NA,NA,NA,NA,NA,NA,NA,NA,NA,NA,NA,NA
"391","stim/objects/HouseObjects/knife4.png",351,58,344,0.1,"stim/61.jpeg",6,1,3,1,"HouseObjects",2,3,"right","left",0.567000151,0,0,1,0,36,58,1,0.1,2,"stim/61.jpeg",6,1,"stim/61.jpeg",3,"right",1.025000095,4,3,3.394999981,2,3.215999842,36,0,0,NA,0,NA,0
"380","stim/objects/HouseObjects/handbrush3.png",352,58,345,0.5,"stim/14.jpeg",1,4,1,1,"HouseObjects",2,2,"right","right",0.641000032,1,1,1,0,28,58,1,0.5,1,"stim/14.jpeg",1,4,"stim/14.jpeg",2,"left",1.899999857,4,3,2.828999996,2,5.049999952,28,1,0,0,1,1,0
"349","stim/objects/HouseObjects/garbagebin3.png",353,58,346,0.9,"stim/53.jpeg",5,3,3,2,"HouseObjects",2,4,"right","right",0.549999952,1,1,1,0,NA,NA,NA,NA,NA,NA,NA,NA,NA,NA,NA,NA,NA,NA,NA,NA,NA,NA,NA,NA,NA,NA,NA,NA
"287","stim/objects/HouseObjects/dishsoap3.png",354,58,347,0.7,"stim/34.jpeg",3,4,2,2,"HouseObjects",2,4,"right","right",0.493999958,1,1,1,0,NA,NA,NA,NA,NA,NA,NA,NA,NA,NA,NA,NA,NA,NA,NA,NA,NA,NA,NA,NA,NA,NA,NA,NA
"478","stim/objects/Instruments/flutetrans3.png",355,58,348,0.9,"stim/62.jpeg",6,2,3,2,"Instruments",1,2,"left","left",0.664000034,1,1,1,0,NA,NA,NA,NA,NA,NA,NA,NA,NA,NA,NA,NA,NA,NA,NA,NA,NA,NA,NA,NA,NA,NA,NA,NA
"392","stim/objects/HouseObjects/lintroller3.png",356,58,349,0.5,"stim/23.jpeg",2,3,1,1,"HouseObjects",2,3,"right","left",0.562000036,0,0,1,0,54,58,1,0.5,2,"stim/23.jpeg",2,3,"stim/23.jpeg",3,"right",0.912999868,1,1,1.703999996,4,1.665999889,54,0,0,NA,0,NA,0
"284","stim/objects/HouseObjects/cushion3.png",357,58,350,0.7,"stim/33.jpeg",3,3,2,2,"HouseObjects",2,1,"right","right",0.39199996,1,1,1,0,NA,NA,NA,NA,NA,NA,NA,NA,NA,NA,NA,NA,NA,NA,NA,NA,NA,NA,NA,NA,NA,NA,NA,NA
"432","stim/objects/Instruments/clarinet4.png",358,58,351,0.7,"stim/43.jpeg",4,3,2,1,"Instruments",1,3,"left","right",0.662999868,0,0,1,0,175,58,1,0.7,1,"stim/43.jpeg",4,3,"stim/43.jpeg",3,"right",0.911999941,1,2,2.307999849,3,1.710999966,175,0,0,NA,1,NA,0
"388","stim/objects/HouseObjects/key3.png",359,58,352,0.5,"stim/21.jpeg",2,1,1,1,"HouseObjects",2,4,"right","left",0.771000147,0,0,1,0,130,58,1,0.5,2,"stim/21.jpeg",2,1,"stim/21.jpeg",4,"right",0.972999811,2,4,2.647000074,3,1.611000061,130,0,0,NA,0,NA,0
"297","stim/objects/HouseObjects/doormat3.png",360,58,353,0.9,"stim/51.jpeg",5,1,3,2,"HouseObjects",2,1,"right","right",0.687999964,1,1,1,0,NA,NA,NA,NA,NA,NA,NA,NA,NA,NA,NA,NA,NA,NA,NA,NA,NA,NA,NA,NA,NA,NA,NA,NA
"517","stim/objects/Instruments/gong3.png",361,58,354,0.9,"stim/63.jpeg",6,3,3,2,"Instruments",1,4,"left","left",0.626000166,1,1,1,0,NA,NA,NA,NA,NA,NA,NA,NA,NA,NA,NA,NA,NA,NA,NA,NA,NA,NA,NA,NA,NA,NA,NA,NA
"328","stim/objects/HouseObjects/flyswatter3.png",362,58,355,0.9,"stim/54.jpeg",5,4,3,2,"HouseObjects",2,3,"right","right",0.544999838,1,1,1,0,NA,NA,NA,NA,NA,NA,NA,NA,NA,NA,NA,NA,NA,NA,NA,NA,NA,NA,NA,NA,NA,NA,NA,NA
"254","stim/objects/HouseObjects/bleachbottle3.png",363,58,356,0.5,"stim/11.jpeg",1,1,1,2,"HouseObjects",2,1,"right","right",0.856999874,1,1,1,0,NA,NA,NA,NA,NA,NA,NA,NA,NA,NA,NA,NA,NA,NA,NA,NA,NA,NA,NA,NA,NA,NA,NA,NA
"318","stim/objects/HouseObjects/dustpan3.png",364,58,357,0.9,"stim/53.jpeg",5,3,3,2,"HouseObjects",2,4,"right","right",0.69299984,1,1,1,0,NA,NA,NA,NA,NA,NA,NA,NA,NA,NA,NA,NA,NA,NA,NA,NA,NA,NA,NA,NA,NA,NA,NA,NA
"566","stim/objects/Instruments/violin4.png",365,58,358,0.9,"stim/64.jpeg",6,4,3,1,"Instruments",1,3,"left","",NA,0,0,1,0,170,58,1,0.9,1,"stim/64.jpeg",6,4,"stim/64.jpeg",3,"left",1.774999857,2,1,2.122999907,1,1.315000057,170,1,0,0,0,0,0
"400","stim/objects/HouseObjects/towel3.png",366,58,359,0.7,"stim/34.jpeg",3,4,2,1,"HouseObjects",2,2,"right","right",0.636999846,1,1,1,0,44,58,1,0.7,2,"stim/34.jpeg",3,4,"stim/34.jpeg",2,"right",1.328999758,2,1,2.669999838,4,2.191999912,44,0,0,NA,0,NA,0
"567","stim/objects/Instruments/vuvuzela3.png",367,58,360,0.3,"stim/34.jpeg",3,4,2,1,"Instruments",1,4,"left","",NA,0,0,1,0,87,58,1,0.3,1,"stim/34.jpeg",3,4,"stim/34.jpeg",4,"left",1.673999786,3,3,1.888999939,3,1.199999809,87,1,0,0,0,0,0
"441","stim/objects/Instruments/doublebass3.png",368,58,361,0.7,"stim/44.jpeg",4,4,2,2,"Instruments",1,2,"left","right",0.790999889,0,0,1,0,NA,NA,NA,NA,NA,NA,NA,NA,NA,NA,NA,NA,NA,NA,NA,NA,NA,NA,NA,NA,NA,NA,NA,NA
"445","stim/objects/Instruments/drums3.png",369,58,362,0.7,"stim/44.jpeg",4,4,2,2,"Instruments",1,4,"left","",NA,0,0,1,0,NA,NA,NA,NA,NA,NA,NA,NA,NA,NA,NA,NA,NA,NA,NA,NA,NA,NA,NA,NA,NA,NA,NA,NA
"547","stim/objects/Instruments/hihat3.png",370,58,363,0.5,"stim/12.jpeg",1,2,1,1,"Instruments",1,3,"left","left",0.642999887,1,1,1,0,111,58,1,0.5,1,"stim/12.jpeg",1,2,"stim/12.jpeg",3,"right",0.941999912,3,4,1.55099988,3,1.597000122,111,0,0,NA,1,NA,0
"494","stim/objects/Instruments/frenchhorn3.png",371,58,364,0.9,"stim/62.jpeg",6,2,3,2,"Instruments",1,4,"left","left",0.702000141,1,1,1,0,NA,NA,NA,NA,NA,NA,NA,NA,NA,NA,NA,NA,NA,NA,NA,NA,NA,NA,NA,NA,NA,NA,NA,NA
"450","stim/objects/Instruments/electricdrumset3.png",372,58,365,0.7,"stim/41.jpeg",4,1,2,2,"Instruments",1,1,"left","left",0.468999863,1,1,1,0,NA,NA,NA,NA,NA,NA,NA,NA,NA,NA,NA,NA,NA,NA,NA,NA,NA,NA,NA,NA,NA,NA,NA,NA
"330","stim/objects/HouseObjects/flyswatter3.png",373,58,366,0.9,"stim/53.jpeg",5,3,3,2,"HouseObjects",2,3,"right","right",0.654000044,1,1,1,0,NA,NA,NA,NA,NA,NA,NA,NA,NA,NA,NA,NA,NA,NA,NA,NA,NA,NA,NA,NA,NA,NA,NA,NA
"480","stim/objects/Instruments/flutetrans3.png",374,58,367,0.9,"stim/62.jpeg",6,2,3,2,"Instruments",1,2,"left","left",0.753000021,1,1,1,0,NA,NA,NA,NA,NA,NA,NA,NA,NA,NA,NA,NA,NA,NA,NA,NA,NA,NA,NA,NA,NA,NA,NA,NA
"548","stim/objects/Instruments/hihat4.png",375,58,368,0.1,"stim/51.jpeg",5,1,3,1,"Instruments",1,2,"left","right",0.637000084,0,0,1,0,132,58,1,0.1,1,"stim/51.jpeg",5,1,"stim/51.jpeg",2,"right",1.062999964,2,1,2.651000023,4,1.625999928,132,0,1,NA,0,NA,0
"543","stim/objects/Instruments/harmonica3.png",376,58,369,0.5,"stim/14.jpeg",1,4,1,1,"Instruments",1,3,"left","right",0.719000101,0,0,1,0,41,58,1,0.5,1,"stim/14.jpeg",1,4,"stim/14.jpeg",3,"left",1.061999798,4,4,5.062999725,1,2.319999933,41,1,1,1,0,0,0
"525","stim/objects/Instruments/grandpiano3.png",377,58,370,0.9,"stim/61.jpeg",6,1,3,2,"Instruments",1,1,"left","left",0.56099987,1,1,1,0,NA,NA,NA,NA,NA,NA,NA,NA,NA,NA,NA,NA,NA,NA,NA,NA,NA,NA,NA,NA,NA,NA,NA,NA
"473","stim/objects/Instruments/flutetrans3.png",378,58,371,0.9,"stim/63.jpeg",6,3,3,2,"Instruments",1,3,"left","left",0.539999962,1,1,1,0,NA,NA,NA,NA,NA,NA,NA,NA,NA,NA,NA,NA,NA,NA,NA,NA,NA,NA,NA,NA,NA,NA,NA,NA
"424","stim/objects/Instruments/cello3.png",379,58,372,0.5,"stim/21.jpeg",2,1,1,2,"Instruments",1,4,"left","right",0.664999962,0,0,1,0,NA,NA,NA,NA,NA,NA,NA,NA,NA,NA,NA,NA,NA,NA,NA,NA,NA,NA,NA,NA,NA,NA,NA,NA
"381","stim/objects/HouseObjects/handbrush4.png",380,58,373,0.9,"stim/52.jpeg",5,2,3,1,"HouseObjects",2,1,"right","right",0.631999969,1,1,1,0,143,58,1,0.9,2,"stim/52.jpeg",5,2,"stim/52.jpeg",1,"right",0.894999981,2,4,1.303999901,3,1.850000143,143,0,0,NA,0,NA,0
"565","stim/objects/Instruments/violin3.png",381,58,374,0.3,"stim/33.jpeg",3,3,2,1,"Instruments",1,1,"left","",NA,0,0,1,0,30,58,1,0.3,1,"stim/33.jpeg",3,3,"stim/33.jpeg",1,"left",1.594000101,2,2,2.296000004,4,2.482999802,30,1,0,0,0,0,0
"358","stim/objects/HouseObjects/garbagebin4.png",382,58,375,0.9,"stim/52.jpeg",5,2,3,1,"HouseObjects",2,1,"right","left",0.45299983,0,0,1,0,150,58,1,0.9,2,"stim/52.jpeg",5,2,"stim/52.jpeg",1,"right",1.161999941,4,3,2.019000053,4,1.230000019,150,0,0,NA,0,NA,0
"353","stim/objects/HouseObjects/garbagebin3.png",383,58,376,0.9,"stim/54.jpeg",5,4,3,2,"HouseObjects",2,3,"right","right",0.623999834,1,1,1,0,NA,NA,NA,NA,NA,NA,NA,NA,NA,NA,NA,NA,NA,NA,NA,NA,NA,NA,NA,NA,NA,NA,NA,NA
"369","stim/objects/HouseObjects/glass3.png",384,58,377,0.9,"stim/53.jpeg",5,3,3,2,"HouseObjects",2,2,"right","right",0.621999979,1,1,1,0,NA,NA,NA,NA,NA,NA,NA,NA,NA,NA,NA,NA,NA,NA,NA,NA,NA,NA,NA,NA,NA,NA,NA,NA
"495","stim/objects/Instruments/frenchhorn3.png",385,58,378,0.9,"stim/64.jpeg",6,4,3,2,"Instruments",1,3,"left","left",0.500999928,1,1,1,0,NA,NA,NA,NA,NA,NA,NA,NA,NA,NA,NA,NA,NA,NA,NA,NA,NA,NA,NA,NA,NA,NA,NA,NA
"275","stim/objects/HouseObjects/clothespin3.png",386,58,379,0.7,"stim/34.jpeg",3,4,2,2,"HouseObjects",2,4,"right","right",0.401000023,1,1,1,0,NA,NA,NA,NA,NA,NA,NA,NA,NA,NA,NA,NA,NA,NA,NA,NA,NA,NA,NA,NA,NA,NA,NA,NA
"333","stim/objects/HouseObjects/flyswatter3.png",387,58,380,0.9,"stim/53.jpeg",5,3,3,2,"HouseObjects",2,3,"right","left",0.820999861,0,0,1,0,NA,NA,NA,NA,NA,NA,NA,NA,NA,NA,NA,NA,NA,NA,NA,NA,NA,NA,NA,NA,NA,NA,NA,NA
"292","stim/objects/HouseObjects/doormat3.png",388,58,381,0.9,"stim/53.jpeg",5,3,3,2,"HouseObjects",2,4,"right","right",0.387000084,1,1,1,0,NA,NA,NA,NA,NA,NA,NA,NA,NA,NA,NA,NA,NA,NA,NA,NA,NA,NA,NA,NA,NA,NA,NA,NA
"465","stim/objects/Instruments/flute3.png",389,58,382,0.9,"stim/64.jpeg",6,4,3,2,"Instruments",1,3,"left","left",0.451999903,1,1,1,0,NA,NA,NA,NA,NA,NA,NA,NA,NA,NA,NA,NA,NA,NA,NA,NA,NA,NA,NA,NA,NA,NA,NA,NA
"466","stim/objects/Instruments/flute3.png",390,58,383,0.9,"stim/64.jpeg",6,4,3,2,"Instruments",1,1,"left","left",0.561000109,1,1,1,0,NA,NA,NA,NA,NA,NA,NA,NA,NA,NA,NA,NA,NA,NA,NA,NA,NA,NA,NA,NA,NA,NA,NA,NA
"324","stim/objects/HouseObjects/dustpan4.png",391,58,384,0.9,"stim/54.jpeg",5,4,3,1,"HouseObjects",2,2,"right","right",0.506000042,1,1,1,0,160,58,1,0.9,2,"stim/54.jpeg",5,4,"stim/54.jpeg",2,"right",0.912999868,3,4,1.967999935,3,1.285999775,160,0,1,NA,0,NA,0
"341","stim/objects/HouseObjects/flyswatter4.png",392,58,385,0.9,"stim/51.jpeg",5,1,3,1,"HouseObjects",2,1,"right","right",0.588999987,1,1,1,0,102,58,1,0.9,2,"stim/51.jpeg",5,1,"stim/51.jpeg",1,"right",0.700999975,3,2,2.960000038,3,1.195999861,102,0,0,NA,0,NA,0
"540","stim/objects/Instruments/grandpiano4.png",393,58,386,0.1,"stim/51.jpeg",5,1,3,1,"Instruments",1,4,"left","right",0.404000044,0,0,1,0,189,58,1,0.1,1,"stim/51.jpeg",5,1,"stim/51.jpeg",4,"left",1.180999994,4,1,2.219000101,3,2.167999983,189,1,1,1,0,0,0
"546","stim/objects/Instruments/harp4.png",394,58,387,0.1,"stim/54.jpeg",5,4,3,1,"Instruments",1,2,"left","right",0.404000044,0,0,1,0,94,58,1,0.1,1,"stim/54.jpeg",5,4,"stim/54.jpeg",2,"right",1.909999847,1,4,2.045000076,1,2.023999929,94,0,1,NA,0,NA,0
"519","stim/objects/Instruments/gong3.png",395,58,388,0.9,"stim/61.jpeg",6,1,3,2,"Instruments",1,1,"left","left",0.457000017,1,1,1,0,NA,NA,NA,NA,NA,NA,NA,NA,NA,NA,NA,NA,NA,NA,NA,NA,NA,NA,NA,NA,NA,NA,NA,NA
"274","stim/objects/HouseObjects/clothesdryingrack4.png",396,58,389,0.3,"stim/43.jpeg",4,3,2,1,"HouseObjects",2,2,"right","left",0.683000088,0,0,1,0,163,58,1,0.3,2,"stim/43.jpeg",4,3,"stim/43.jpeg",2,"left",1.513000011,4,4,3.645999908,3,5.444000006,163,1,0,0,0,0,0
"335","stim/objects/HouseObjects/flyswatter3.png",397,58,390,0.9,"stim/52.jpeg",5,2,3,2,"HouseObjects",2,1,"right","right",0.427999973,1,1,1,0,NA,NA,NA,NA,NA,NA,NA,NA,NA,NA,NA,NA,NA,NA,NA,NA,NA,NA,NA,NA,NA,NA,NA,NA
"249","stim/objects/HouseObjects/barbecuelighter4.png",398,58,391,0.7,"stim/31.jpeg",3,1,2,1,"HouseObjects",2,1,"right","left",0.604000092,0,0,1,0,107,58,1,0.7,2,"stim/31.jpeg",3,1,"stim/31.jpeg",1,"left",1.677999973,3,3,2.028000116,3,1.845999718,107,1,0,0,0,0,0
"354","stim/objects/HouseObjects/garbagebin3.png",399,58,392,0.9,"stim/52.jpeg",5,2,3,2,"HouseObjects",2,4,"right","right",0.422999859,1,1,1,0,NA,NA,NA,NA,NA,NA,NA,NA,NA,NA,NA,NA,NA,NA,NA,NA,NA,NA,NA,NA,NA,NA,NA,NA
"250","stim/objects/HouseObjects/basket3.png",400,58,393,0.5,"stim/13.jpeg",1,3,1,2,"HouseObjects",2,3,"right","right",0.575000048,1,1,1,0,NA,NA,NA,NA,NA,NA,NA,NA,NA,NA,NA,NA,NA,NA,NA,NA,NA,NA,NA,NA,NA,NA,NA,NA
"511","stim/objects/Instruments/gong3.png",401,58,394,0.9,"stim/61.jpeg",6,1,3,2,"Instruments",1,4,"left","left",0.565999985,1,1,1,0,NA,NA,NA,NA,NA,NA,NA,NA,NA,NA,NA,NA,NA,NA,NA,NA,NA,NA,NA,NA,NA,NA,NA,NA
"425","stim/objects/Instruments/cello3.png",402,58,395,0.5,"stim/24.jpeg",2,4,1,2,"Instruments",1,4,"left","right",0.431000233,0,0,1,0,NA,NA,NA,NA,NA,NA,NA,NA,NA,NA,NA,NA,NA,NA,NA,NA,NA,NA,NA,NA,NA,NA,NA,NA
"271","stim/objects/HouseObjects/clothesdryingrack3.png",403,58,396,0.7,"stim/33.jpeg",3,3,2,2,"HouseObjects",2,4,"right","right",0.694000006,1,1,1,0,NA,NA,NA,NA,NA,NA,NA,NA,NA,NA,NA,NA,NA,NA,NA,NA,NA,NA,NA,NA,NA,NA,NA,NA
"536","stim/objects/Instruments/grandpiano3.png",404,58,397,0.9,"stim/62.jpeg",6,2,3,2,"Instruments",1,2,"left","left",0.546000004,1,1,1,0,NA,NA,NA,NA,NA,NA,NA,NA,NA,NA,NA,NA,NA,NA,NA,NA,NA,NA,NA,NA,NA,NA,NA,NA
"534","stim/objects/Instruments/grandpiano3.png",405,58,398,0.9,"stim/64.jpeg",6,4,3,2,"Instruments",1,3,"left","left",0.588999987,1,1,1,0,NA,NA,NA,NA,NA,NA,NA,NA,NA,NA,NA,NA,NA,NA,NA,NA,NA,NA,NA,NA,NA,NA,NA,NA
"561","stim/objects/Instruments/musicstand3.png",406,58,399,0.3,"stim/31.jpeg",3,1,2,1,"Instruments",1,2,"left","right",0.503000021,0,0,1,0,177,58,1,0.3,1,"stim/31.jpeg",3,1,"stim/31.jpeg",2,"right",2.30099988,4,1,1.468999863,1,1.161999941,177,0,1,NA,0,NA,0
"387","stim/objects/HouseObjects/ironingboard4.png",407,58,400,0.1,"stim/63.jpeg",6,3,3,1,"HouseObjects",2,4,"right","left",0.539000034,0,0,1,0,29,58,1,0.1,2,"stim/63.jpeg",6,3,"stim/63.jpeg",4,"right",0.875999928,3,2,3.554999828,1,6.109999895,29,0,0,NA,0,NA,0
"418","stim/objects/Instruments/bassdrum3.png",408,58,401,0.5,"stim/11.jpeg",1,1,1,2,"Instruments",1,3,"left","right",0.541000128,0,0,1,0,NA,NA,NA,NA,NA,NA,NA,NA,NA,NA,NA,NA,NA,NA,NA,NA,NA,NA,NA,NA,NA,NA,NA,NA
"389","stim/objects/HouseObjects/key4.png",409,58,402,0.1,"stim/64.jpeg",6,4,3,1,"HouseObjects",2,4,"right","left",0.803999901,0,0,1,0,14,58,1,0.1,2,"stim/64.jpeg",6,4,"stim/64.jpeg",4,"right",2.071999788,2,2,2.395999908,3,1.634000063,14,0,0,NA,0,NA,0
"479","stim/objects/Instruments/flutetrans3.png",410,58,403,0.9,"stim/63.jpeg",6,3,3,2,"Instruments",1,1,"left","left",0.558000088,1,1,1,0,NA,NA,NA,NA,NA,NA,NA,NA,NA,NA,NA,NA,NA,NA,NA,NA,NA,NA,NA,NA,NA,NA,NA,NA
"371","stim/objects/HouseObjects/glass3.png",411,58,404,0.9,"stim/52.jpeg",5,2,3,2,"HouseObjects",2,2,"right","right",0.565999985,1,1,1,0,NA,NA,NA,NA,NA,NA,NA,NA,NA,NA,NA,NA,NA,NA,NA,NA,NA,NA,NA,NA,NA,NA,NA,NA
"343","stim/objects/HouseObjects/garbagebin3.png",412,58,405,0.9,"stim/54.jpeg",5,4,3,2,"HouseObjects",2,3,"right","right",0.679000139,1,1,1,0,NA,NA,NA,NA,NA,NA,NA,NA,NA,NA,NA,NA,NA,NA,NA,NA,NA,NA,NA,NA,NA,NA,NA,NA
"327","stim/objects/HouseObjects/flyswatter3.png",413,58,406,0.9,"stim/51.jpeg",5,1,3,2,"HouseObjects",2,4,"right","right",0.738000154,1,1,1,0,NA,NA,NA,NA,NA,NA,NA,NA,NA,NA,NA,NA,NA,NA,NA,NA,NA,NA,NA,NA,NA,NA,NA,NA
"419","stim/objects/Instruments/bassdrum3.png",414,58,407,0.5,"stim/12.jpeg",1,2,1,2,"Instruments",1,4,"left","right",0.542000055,0,0,1,0,NA,NA,NA,NA,NA,NA,NA,NA,NA,NA,NA,NA,NA,NA,NA,NA,NA,NA,NA,NA,NA,NA,NA,NA
"259","stim/objects/HouseObjects/bottle3.png",415,58,408,0.5,"stim/24.jpeg",2,4,1,2,"HouseObjects",2,1,"right","left",0.731999874,0,0,1,0,NA,NA,NA,NA,NA,NA,NA,NA,NA,NA,NA,NA,NA,NA,NA,NA,NA,NA,NA,NA,NA,NA,NA,NA
"331","stim/objects/HouseObjects/flyswatter3.png",416,58,409,0.9,"stim/51.jpeg",5,1,3,2,"HouseObjects",2,3,"right","right",0.515000105,1,1,1,0,NA,NA,NA,NA,NA,NA,NA,NA,NA,NA,NA,NA,NA,NA,NA,NA,NA,NA,NA,NA,NA,NA,NA,NA
"383","stim/objects/HouseObjects/handvacuum4.png",417,58,410,0.9,"stim/53.jpeg",5,3,3,1,"HouseObjects",2,3,"right","",NA,0,0,1,0,124,58,1,0.9,2,"stim/53.jpeg",5,3,"stim/53.jpeg",3,"right",2.109999895,3,2,3.413999796,4,1.717999935,124,0,0,NA,0,NA,0
"498","stim/objects/Instruments/frenchhorn3.png",418,58,411,0.9,"stim/61.jpeg",6,1,3,2,"Instruments",1,3,"left","left",0.541999817,1,1,1,0,NA,NA,NA,NA,NA,NA,NA,NA,NA,NA,NA,NA,NA,NA,NA,NA,NA,NA,NA,NA,NA,NA,NA,NA
"376","stim/objects/HouseObjects/glassmop3.png",419,58,412,0.5,"stim/12.jpeg",1,2,1,1,"HouseObjects",2,4,"right","right",0.450999975,1,1,1,0,32,58,1,0.5,1,"stim/12.jpeg",1,2,"stim/12.jpeg",4,"right",0.884000063,3,4,5.404000044,3,2.29399991,32,0,0,NA,0,NA,0
"433","stim/objects/Instruments/cornet3.png",420,58,413,0.5,"stim/24.jpeg",2,4,1,2,"Instruments",1,3,"left","left",0.587000132,1,1,1,0,NA,NA,NA,NA,NA,NA,NA,NA,NA,NA,NA,NA,NA,NA,NA,NA,NA,NA,NA,NA,NA,NA,NA,NA
"300","stim/objects/HouseObjects/doormat3.png",421,58,414,0.9,"stim/52.jpeg",5,2,3,2,"HouseObjects",2,1,"right","right",0.467999935,1,1,1,0,NA,NA,NA,NA,NA,NA,NA,NA,NA,NA,NA,NA,NA,NA,NA,NA,NA,NA,NA,NA,NA,NA,NA,NA
"301","stim/objects/HouseObjects/doormat3.png",422,58,415,0.9,"stim/53.jpeg",5,3,3,2,"HouseObjects",2,2,"right","right",0.43900013,1,1,1,0,NA,NA,NA,NA,NA,NA,NA,NA,NA,NA,NA,NA,NA,NA,NA,NA,NA,NA,NA,NA,NA,NA,NA,NA
"530","stim/objects/Instruments/grandpiano3.png",423,58,416,0.9,"stim/61.jpeg",6,1,3,2,"Instruments",1,1,"left","left",0.569000006,1,1,1,0,NA,NA,NA,NA,NA,NA,NA,NA,NA,NA,NA,NA,NA,NA,NA,NA,NA,NA,NA,NA,NA,NA,NA,NA
"467","stim/objects/Instruments/flute3.png",424,58,417,0.9,"stim/63.jpeg",6,3,3,2,"Instruments",1,1,"left","left",0.546999931,1,1,1,0,NA,NA,NA,NA,NA,NA,NA,NA,NA,NA,NA,NA,NA,NA,NA,NA,NA,NA,NA,NA,NA,NA,NA,NA
"422","stim/objects/Instruments/bassguitar3.png",425,58,418,0.5,"stim/23.jpeg",2,3,1,2,"Instruments",1,4,"left","right",0.422999859,0,0,1,0,NA,NA,NA,NA,NA,NA,NA,NA,NA,NA,NA,NA,NA,NA,NA,NA,NA,NA,NA,NA,NA,NA,NA,NA
"460","stim/objects/Instruments/flute3.png",426,58,419,0.9,"stim/62.jpeg",6,2,3,2,"Instruments",1,3,"left","left",0.54399991,1,1,1,0,NA,NA,NA,NA,NA,NA,NA,NA,NA,NA,NA,NA,NA,NA,NA,NA,NA,NA,NA,NA,NA,NA,NA,NA
"337","stim/objects/HouseObjects/flyswatter3.png",427,58,420,0.9,"stim/52.jpeg",5,2,3,2,"HouseObjects",2,2,"right","right",0.576000214,1,1,1,0,NA,NA,NA,NA,NA,NA,NA,NA,NA,NA,NA,NA,NA,NA,NA,NA,NA,NA,NA,NA,NA,NA,NA,NA
"464","stim/objects/Instruments/flute3.png",428,58,421,0.9,"stim/61.jpeg",6,1,3,2,"Instruments",1,1,"left","left",0.507999897,1,1,1,0,NA,NA,NA,NA,NA,NA,NA,NA,NA,NA,NA,NA,NA,NA,NA,NA,NA,NA,NA,NA,NA,NA,NA,NA
"453","stim/objects/Instruments/electricguitar3.png",429,58,422,0.7,"stim/42.jpeg",4,2,2,2,"Instruments",1,1,"left","right",0.522000074,0,0,1,0,NA,NA,NA,NA,NA,NA,NA,NA,NA,NA,NA,NA,NA,NA,NA,NA,NA,NA,NA,NA,NA,NA,NA,NA
"303","stim/objects/HouseObjects/doormat3.png",430,58,423,0.9,"stim/51.jpeg",5,1,3,2,"HouseObjects",2,3,"right","right",0.688999891,1,1,1,0,NA,NA,NA,NA,NA,NA,NA,NA,NA,NA,NA,NA,NA,NA,NA,NA,NA,NA,NA,NA,NA,NA,NA,NA
"276","stim/objects/HouseObjects/clothespin3.png",431,58,424,0.7,"stim/32.jpeg",3,2,2,2,"HouseObjects",2,1,"right","right",0.667999983,1,1,1,0,NA,NA,NA,NA,NA,NA,NA,NA,NA,NA,NA,NA,NA,NA,NA,NA,NA,NA,NA,NA,NA,NA,NA,NA
"559","stim/objects/Instruments/musicsheet3.png",432,58,425,0.5,"stim/21.jpeg",2,1,1,1,"Instruments",1,1,"left","right",0.536000013,0,0,1,0,7,58,1,0.5,2,"stim/21.jpeg",2,1,"stim/21.jpeg",1,"left",0.861999989,4,1,5.950999975,1,3.156000137,7,1,1,1,1,1,0
"338","stim/objects/HouseObjects/flyswatter3.png",433,58,426,0.9,"stim/54.jpeg",5,4,3,2,"HouseObjects",2,2,"right","right",0.629999876,1,1,1,0,NA,NA,NA,NA,NA,NA,NA,NA,NA,NA,NA,NA,NA,NA,NA,NA,NA,NA,NA,NA,NA,NA,NA,NA
"402","stim/objects/HouseObjects/vacuumcleaner3.png",434,58,427,0.7,"stim/31.jpeg",3,1,2,1,"HouseObjects",2,3,"right","right",0.595000029,1,1,1,0,115,58,1,0.7,2,"stim/31.jpeg",3,1,"stim/31.jpeg",3,"left",1.464999914,3,2,1.911999941,2,1.480999947,115,1,0,0,0,0,0
"555","stim/objects/Instruments/marimba3.png",435,58,428,0.5,"stim/23.jpeg",2,3,1,1,"Instruments",1,2,"left","right",0.674000025,0,0,1,0,17,58,1,0.5,2,"stim/23.jpeg",2,3,"stim/23.jpeg",2,"left",1.024999857,4,4,2.112999916,2,2.357000113,17,1,0,0,1,1,0
"535","stim/objects/Instruments/grandpiano3.png",436,58,429,0.9,"stim/63.jpeg",6,3,3,2,"Instruments",1,3,"left","left",0.476000071,1,1,1,0,NA,NA,NA,NA,NA,NA,NA,NA,NA,NA,NA,NA,NA,NA,NA,NA,NA,NA,NA,NA,NA,NA,NA,NA
"372","stim/objects/HouseObjects/glass3.png",437,58,430,0.9,"stim/51.jpeg",5,1,3,2,"HouseObjects",2,1,"right","right",0.585999966,1,1,1,0,NA,NA,NA,NA,NA,NA,NA,NA,NA,NA,NA,NA,NA,NA,NA,NA,NA,NA,NA,NA,NA,NA,NA,NA
"446","stim/objects/Instruments/drums3.png",438,58,431,0.7,"stim/41.jpeg",4,1,2,2,"Instruments",1,3,"left","right",0.773000002,0,0,1,0,NA,NA,NA,NA,NA,NA,NA,NA,NA,NA,NA,NA,NA,NA,NA,NA,NA,NA,NA,NA,NA,NA,NA,NA
"447","stim/objects/Instruments/drums4.png",439,58,432,0.7,"stim/43.jpeg",4,3,2,1,"Instruments",1,4,"left","right",0.657000065,0,0,1,0,98,58,1,0.7,1,"stim/43.jpeg",4,3,"stim/43.jpeg",4,"right",1.696000099,2,3,3.802999973,2,1.894999981,98,0,1,NA,0,NA,0
"268","stim/objects/HouseObjects/clock3.png",440,58,433,0.5,"stim/22.jpeg",2,2,1,2,"HouseObjects",2,2,"right","left",0.746999979,0,0,1,0,NA,NA,NA,NA,NA,NA,NA,NA,NA,NA,NA,NA,NA,NA,NA,NA,NA,NA,NA,NA,NA,NA,NA,NA
"279","stim/objects/HouseObjects/coffee3.png",441,58,434,0.7,"stim/32.jpeg",3,2,2,2,"HouseObjects",2,2,"right","right",0.620000124,1,1,1,0,NA,NA,NA,NA,NA,NA,NA,NA,NA,NA,NA,NA,NA,NA,NA,NA,NA,NA,NA,NA,NA,NA,NA,NA
"428","stim/objects/Instruments/chime3.png",442,58,435,0.5,"stim/21.jpeg",2,1,1,2,"Instruments",1,2,"left","right",0.555000067,0,0,1,0,NA,NA,NA,NA,NA,NA,NA,NA,NA,NA,NA,NA,NA,NA,NA,NA,NA,NA,NA,NA,NA,NA,NA,NA
"544","stim/objects/Instruments/harmonica4.png",443,58,436,0.1,"stim/53.jpeg",5,3,3,1,"Instruments",1,3,"left","left",0.593999863,1,1,1,0,53,58,1,0.1,1,"stim/53.jpeg",5,3,"stim/53.jpeg",3,"left",1.761999846,3,2,4.913999796,3,2.123000145,53,1,0,0,1,1,0
"366","stim/objects/HouseObjects/glass3.png",444,58,437,0.9,"stim/51.jpeg",5,1,3,2,"HouseObjects",2,3,"right","right",0.506000042,1,1,1,0,NA,NA,NA,NA,NA,NA,NA,NA,NA,NA,NA,NA,NA,NA,NA,NA,NA,NA,NA,NA,NA,NA,NA,NA
"299","stim/objects/HouseObjects/doormat3.png",445,58,438,0.9,"stim/53.jpeg",5,3,3,2,"HouseObjects",2,3,"right","right",0.415999889,1,1,1,0,NA,NA,NA,NA,NA,NA,NA,NA,NA,NA,NA,NA,NA,NA,NA,NA,NA,NA,NA,NA,NA,NA,NA,NA
"290","stim/objects/HouseObjects/dishsoap4.png",446,58,439,0.3,"stim/43.jpeg",4,3,2,1,"HouseObjects",2,1,"right","right",0.726000071,1,1,1,0,78,58,1,0.3,2,"stim/43.jpeg",4,3,"stim/43.jpeg",1,"left",1.090000153,4,4,3.207999706,1,3.291999817,78,1,0,0,1,1,0
"437","stim/objects/Instruments/cymbal3.png",447,58,440,0.7,"stim/43.jpeg",4,3,2,2,"Instruments",1,3,"left","left",0.703999996,1,1,1,0,NA,NA,NA,NA,NA,NA,NA,NA,NA,NA,NA,NA,NA,NA,NA,NA,NA,NA,NA,NA,NA,NA,NA,NA
"482","stim/objects/Instruments/flutetrans3.png",448,58,441,0.9,"stim/63.jpeg",6,3,3,2,"Instruments",1,4,"left","left",0.570999861,1,1,1,0,NA,NA,NA,NA,NA,NA,NA,NA,NA,NA,NA,NA,NA,NA,NA,NA,NA,NA,NA,NA,NA,NA,NA,NA
"296","stim/objects/HouseObjects/doormat3.png",449,58,442,0.9,"stim/52.jpeg",5,2,3,2,"HouseObjects",2,4,"right","right",0.476000071,1,1,1,0,NA,NA,NA,NA,NA,NA,NA,NA,NA,NA,NA,NA,NA,NA,NA,NA,NA,NA,NA,NA,NA,NA,NA,NA
"414","stim/objects/Instruments/balalaika4.png",450,58,443,0.3,"stim/34.jpeg",3,4,2,1,"Instruments",1,2,"left","right",0.786000013,0,0,1,0,99,58,1,0.3,1,"stim/34.jpeg",3,4,"stim/34.jpeg",2,"left",1.328999996,4,2,3.444000006,4,3.027999878,99,1,0,0,0,0,0
"442","stim/objects/Instruments/doublebass3.png",451,58,444,0.7,"stim/42.jpeg",4,2,2,2,"Instruments",1,2,"left","",NA,0,0,1,0,NA,NA,NA,NA,NA,NA,NA,NA,NA,NA,NA,NA,NA,NA,NA,NA,NA,NA,NA,NA,NA,NA,NA,NA
"409","stim/objects/Instruments/acousticguitar3.png",452,58,445,0.5,"stim/13.jpeg",1,3,1,2,"Instruments",1,3,"left","left",0.538000107,1,1,1,0,NA,NA,NA,NA,NA,NA,NA,NA,NA,NA,NA,NA,NA,NA,NA,NA,NA,NA,NA,NA,NA,NA,NA,NA
"248","stim/objects/HouseObjects/barbecuelighter3.png",453,58,446,0.5,"stim/12.jpeg",1,2,1,2,"HouseObjects",2,1,"right","right",0.569999933,1,1,1,0,NA,NA,NA,NA,NA,NA,NA,NA,NA,NA,NA,NA,NA,NA,NA,NA,NA,NA,NA,NA,NA,NA,NA,NA
"307","stim/objects/HouseObjects/doormat4.png",454,58,447,0.9,"stim/53.jpeg",5,3,3,1,"HouseObjects",2,1,"right","right",0.540999889,1,1,1,0,147,58,1,0.9,2,"stim/53.jpeg",5,3,"stim/53.jpeg",1,"left",2.29399991,3,2,2.087999821,3,2.950999737,147,1,0,0,0,0,0
"408","stim/objects/Instruments/accordion4.png",455,58,448,0.3,"stim/32.jpeg",3,2,2,1,"Instruments",1,4,"left","right",0.476000071,0,0,1,0,141,58,1,0.3,1,"stim/32.jpeg",3,2,"stim/32.jpeg",4,"right",0.883999825,2,3,1.707000017,2,1.371999979,141,0,0,NA,0,NA,0
"280","stim/objects/HouseObjects/coffee3.png",456,58,449,0.7,"stim/31.jpeg",3,1,2,2,"HouseObjects",2,4,"right","right",0.536999941,1,1,1,0,NA,NA,NA,NA,NA,NA,NA,NA,NA,NA,NA,NA,NA,NA,NA,NA,NA,NA,NA,NA,NA,NA,NA,NA
"426","stim/objects/Instruments/cello4.png",457,58,450,0.7,"stim/41.jpeg",4,1,2,1,"Instruments",1,1,"left","left",0.569000006,1,1,1,0,23,58,1,0.7,1,"stim/41.jpeg",4,1,"stim/41.jpeg",1,"right",1.115999937,3,1,3.467999935,4,4.447999954,23,0,1,NA,0,NA,0
"277","stim/objects/HouseObjects/clothespin3.png",458,58,451,0.7,"stim/31.jpeg",3,1,2,2,"HouseObjects",2,1,"right","right",0.552000046,1,1,1,0,NA,NA,NA,NA,NA,NA,NA,NA,NA,NA,NA,NA,NA,NA,NA,NA,NA,NA,NA,NA,NA,NA,NA,NA
"368","stim/objects/HouseObjects/glass3.png",459,58,452,0.9,"stim/54.jpeg",5,4,3,2,"HouseObjects",2,2,"right","right",0.479000092,1,1,1,0,NA,NA,NA,NA,NA,NA,NA,NA,NA,NA,NA,NA,NA,NA,NA,NA,NA,NA,NA,NA,NA,NA,NA,NA
"260","stim/objects/HouseObjects/bottle3.png",460,58,453,0.5,"stim/23.jpeg",2,3,1,2,"HouseObjects",2,3,"right","left",0.641000032,0,0,1,0,NA,NA,NA,NA,NA,NA,NA,NA,NA,NA,NA,NA,NA,NA,NA,NA,NA,NA,NA,NA,NA,NA,NA,NA
"522","stim/objects/Instruments/gong3.png",461,58,454,0.9,"stim/62.jpeg",6,2,3,2,"Instruments",1,4,"left","left",0.64800024,1,1,1,0,NA,NA,NA,NA,NA,NA,NA,NA,NA,NA,NA,NA,NA,NA,NA,NA,NA,NA,NA,NA,NA,NA,NA,NA
"340","stim/objects/HouseObjects/flyswatter3.png",462,58,455,0.9,"stim/51.jpeg",5,1,3,2,"HouseObjects",2,4,"right","right",0.427999973,1,1,1,0,NA,NA,NA,NA,NA,NA,NA,NA,NA,NA,NA,NA,NA,NA,NA,NA,NA,NA,NA,NA,NA,NA,NA,NA
"398","stim/objects/HouseObjects/pitcher3.png",463,58,456,0.7,"stim/33.jpeg",3,3,2,1,"HouseObjects",2,2,"right","right",0.486999989,1,1,1,0,154,58,1,0.7,2,"stim/33.jpeg",3,3,"stim/33.jpeg",2,"right",0.845000029,4,3,1.312000036,2,3.089999914,154,0,1,NA,1,NA,0
"486","stim/objects/Instruments/flutetrans3.png",464,58,457,0.9,"stim/62.jpeg",6,2,3,2,"Instruments",1,3,"left","left",0.476000071,1,1,1,0,NA,NA,NA,NA,NA,NA,NA,NA,NA,NA,NA,NA,NA,NA,NA,NA,NA,NA,NA,NA,NA,NA,NA,NA
"429","stim/objects/Instruments/chime4.png",465,58,458,0.7,"stim/42.jpeg",4,2,2,1,"Instruments",1,4,"left","right",0.387000084,0,0,1,0,142,58,1,0.7,1,"stim/42.jpeg",4,2,"stim/42.jpeg",4,"left",1.878999949,3,1,2.143999815,2,1.612999916,142,1,0,0,0,0,0
"503","stim/objects/Instruments/frenchhorn3.png",466,58,459,0.9,"stim/61.jpeg",6,1,3,2,"Instruments",1,1,"left","left",0.556999922,1,1,1,0,NA,NA,NA,NA,NA,NA,NA,NA,NA,NA,NA,NA,NA,NA,NA,NA,NA,NA,NA,NA,NA,NA,NA,NA
"378","stim/objects/HouseObjects/hairdryer3.png",467,58,460,0.5,"stim/13.jpeg",1,3,1,1,"HouseObjects",2,1,"right","right",0.619999886,1,1,1,0,21,58,1,0.5,1,"stim/13.jpeg",1,3,"stim/13.jpeg",1,"right",1.014999866,3,2,2.233999968,1,2.128999949,21,0,0,NA,1,NA,0
"266","stim/objects/HouseObjects/bucket3.png",468,58,461,0.5,"stim/21.jpeg",2,1,1,2,"HouseObjects",2,4,"right","left",0.552999973,0,0,1,0,NA,NA,NA,NA,NA,NA,NA,NA,NA,NA,NA,NA,NA,NA,NA,NA,NA,NA,NA,NA,NA,NA,NA,NA
