"","obj_file","X.x","participant.x","trialN.x","trial_cond","scn_file.x","scn_cat","scn_inst","scn_condition","fillers","obj_cat","obj_cat_num","quadrant","corr_ans","key_resp_trial.keys","key_resp_trial.rt","trial_acc","trial_acc_manual","group.x","practice","X.y","participant.y","OvsN","PE_level","object_cat","scn_file.y","corr_scn_cat","corr_scn_inst","scn_file.1","corr_loc","key_resp_id.keys","key_resp_id.rt","key_resp_conf.keys","key_resp_assoc.keys","key_resp_assoc.rt","key_resp_loc.keys","key_resp_loc.rt","trialN.y","id_acc","assoc.acc","cond_assoc","loc.acc","cond_loc","group.y"
"17","stim/objects/HouseObjects/dishsoap.png",1,6,1,0.5,"stim/33.jpeg",3,3,1,NA,"HouseObjects",2,3,"right","",NA,0,0,1,1,NA,NA,NA,NA,NA,NA,NA,NA,NA,NA,NA,NA,NA,NA,NA,NA,NA,NA,NA,NA,NA,NA,NA,NA
"97","stim/objects/HouseObjects/hairdryer.png",2,6,2,0.7,"stim/52.jpeg",5,2,2,NA,"HouseObjects",2,3,"right","right",0.54700017,1,1,1,1,NA,NA,NA,NA,NA,NA,NA,NA,NA,NA,NA,NA,NA,NA,NA,NA,NA,NA,NA,NA,NA,NA,NA,NA
"126","stim/objects/Instruments/drums2.png",3,6,3,0.7,"stim/61.jpeg",6,1,2,NA,"Instruments",1,4,"left","left",0.525000095,1,1,1,1,NA,NA,NA,NA,NA,NA,NA,NA,NA,NA,NA,NA,NA,NA,NA,NA,NA,NA,NA,NA,NA,NA,NA,NA
"169","stim/objects/Instruments/flutetrans.png",4,6,4,0.5,"stim/41.jpeg",4,1,1,NA,"Instruments",1,1,"left","right",0.475000143,0,0,1,1,NA,NA,NA,NA,NA,NA,NA,NA,NA,NA,NA,NA,NA,NA,NA,NA,NA,NA,NA,NA,NA,NA,NA,NA
"196","stim/objects/Instruments/guitarcase2.png",5,6,5,0.9,"stim/21.jpeg",2,1,3,NA,"Instruments",1,1,"left","left",0.447999954,1,1,1,1,NA,NA,NA,NA,NA,NA,NA,NA,NA,NA,NA,NA,NA,NA,NA,NA,NA,NA,NA,NA,NA,NA,NA,NA
"47","stim/objects/HouseObjects/flyswatter.png",6,6,6,0.5,"stim/42.jpeg",4,2,1,NA,"HouseObjects",2,4,"right","left",0.526000023,0,0,1,1,NA,NA,NA,NA,NA,NA,NA,NA,NA,NA,NA,NA,NA,NA,NA,NA,NA,NA,NA,NA,NA,NA,NA,NA
"66","stim/objects/HouseObjects/garbagebin2.png",7,6,7,0.9,"stim/13.jpeg",1,3,3,NA,"HouseObjects",2,1,"right","left",0.595000029,0,0,1,1,NA,NA,NA,NA,NA,NA,NA,NA,NA,NA,NA,NA,NA,NA,NA,NA,NA,NA,NA,NA,NA,NA,NA,NA
"193","stim/objects/Instruments/guitarcase.png",8,6,8,0.3,"stim/51.jpeg",5,1,2,NA,"Instruments",1,1,"left","right",0.63499999,0,0,1,1,NA,NA,NA,NA,NA,NA,NA,NA,NA,NA,NA,NA,NA,NA,NA,NA,NA,NA,NA,NA,NA,NA,NA,NA
"150","stim/objects/Instruments/electricguitar2.png",9,6,9,0.7,"stim/63.jpeg",6,3,2,NA,"Instruments",1,3,"left","left",0.549000025,1,1,1,1,NA,NA,NA,NA,NA,NA,NA,NA,NA,NA,NA,NA,NA,NA,NA,NA,NA,NA,NA,NA,NA,NA,NA,NA
"105","stim/objects/HouseObjects/handbrush.png",10,6,10,0.7,"stim/53.jpeg",5,3,2,NA,"HouseObjects",2,4,"right","right",0.788000107,1,1,1,1,NA,NA,NA,NA,NA,NA,NA,NA,NA,NA,NA,NA,NA,NA,NA,NA,NA,NA,NA,NA,NA,NA,NA,NA
"38","stim/objects/HouseObjects/dustpan2.png",11,6,11,0.9,"stim/11.jpeg",1,1,3,NA,"HouseObjects",2,3,"right","right",0.626999855,1,1,1,1,NA,NA,NA,NA,NA,NA,NA,NA,NA,NA,NA,NA,NA,NA,NA,NA,NA,NA,NA,NA,NA,NA,NA,NA
"14","stim/objects/HouseObjects/cushion2.png",12,6,12,0.3,"stim/62.jpeg",6,2,2,NA,"HouseObjects",2,4,"right","left",0.606999874,0,0,1,1,NA,NA,NA,NA,NA,NA,NA,NA,NA,NA,NA,NA,NA,NA,NA,NA,NA,NA,NA,NA,NA,NA,NA,NA
"120","stim/objects/HouseObjects/handvacuum2.png",13,6,13,0.1,"stim/24.jpeg",2,4,3,NA,"HouseObjects",2,1,"right","left",0.625,0,0,1,1,NA,NA,NA,NA,NA,NA,NA,NA,NA,NA,NA,NA,NA,NA,NA,NA,NA,NA,NA,NA,NA,NA,NA,NA
"133","stim/objects/Instruments/electricdrumset.png",14,6,14,0.5,"stim/32.jpeg",3,2,1,NA,"Instruments",1,2,"left","right",0.621999979,0,0,1,1,NA,NA,NA,NA,NA,NA,NA,NA,NA,NA,NA,NA,NA,NA,NA,NA,NA,NA,NA,NA,NA,NA,NA,NA
"39","stim/objects/HouseObjects/dustpan2.png",15,6,15,0.9,"stim/11.jpeg",1,1,3,NA,"HouseObjects",2,1,"right","right",0.622999907,1,1,1,1,NA,NA,NA,NA,NA,NA,NA,NA,NA,NA,NA,NA,NA,NA,NA,NA,NA,NA,NA,NA,NA,NA,NA,NA
"232","stim/objects/Instruments/hihat2.png",16,6,16,0.9,"stim/24.jpeg",2,4,3,NA,"Instruments",1,4,"left","left",0.555999994,1,1,1,1,NA,NA,NA,NA,NA,NA,NA,NA,NA,NA,NA,NA,NA,NA,NA,NA,NA,NA,NA,NA,NA,NA,NA,NA
"52","stim/objects/HouseObjects/flyswatter2.png",17,6,17,0.9,"stim/12.jpeg",1,2,3,NA,"HouseObjects",2,4,"right","right",0.802000046,1,1,1,1,NA,NA,NA,NA,NA,NA,NA,NA,NA,NA,NA,NA,NA,NA,NA,NA,NA,NA,NA,NA,NA,NA,NA,NA
"61","stim/objects/HouseObjects/garbagebin.png",18,6,18,0.5,"stim/43.jpeg",4,3,1,NA,"HouseObjects",2,4,"right","",NA,0,0,1,1,NA,NA,NA,NA,NA,NA,NA,NA,NA,NA,NA,NA,NA,NA,NA,NA,NA,NA,NA,NA,NA,NA,NA,NA
"67","stim/objects/HouseObjects/garbagebin2.png",19,6,19,0.9,"stim/13.jpeg",1,3,3,NA,"HouseObjects",2,4,"right","right",0.863999844,1,1,1,1,NA,NA,NA,NA,NA,NA,NA,NA,NA,NA,NA,NA,NA,NA,NA,NA,NA,NA,NA,NA,NA,NA,NA,NA
"30","stim/objects/HouseObjects/doormat2.png",20,6,20,0.3,"stim/64.jpeg",6,4,2,NA,"HouseObjects",2,4,"right","left",0.562000036,0,0,1,1,NA,NA,NA,NA,NA,NA,NA,NA,NA,NA,NA,NA,NA,NA,NA,NA,NA,NA,NA,NA,NA,NA,NA,NA
"25","stim/objects/HouseObjects/doormat.png",21,6,21,0.5,"stim/34.jpeg",3,4,1,NA,"HouseObjects",2,4,"right","right",0.851000071,1,1,1,1,NA,NA,NA,NA,NA,NA,NA,NA,NA,NA,NA,NA,NA,NA,NA,NA,NA,NA,NA,NA,NA,NA,NA,NA
"106","stim/objects/HouseObjects/handbrush.png",22,6,22,0.7,"stim/53.jpeg",5,3,2,NA,"HouseObjects",2,3,"right","right",0.595000029,1,1,1,1,NA,NA,NA,NA,NA,NA,NA,NA,NA,NA,NA,NA,NA,NA,NA,NA,NA,NA,NA,NA,NA,NA,NA,NA
"134","stim/objects/Instruments/electricdrumset.png",23,6,23,0.5,"stim/32.jpeg",3,2,1,NA,"Instruments",1,3,"left","left",0.856999874,1,1,1,1,NA,NA,NA,NA,NA,NA,NA,NA,NA,NA,NA,NA,NA,NA,NA,NA,NA,NA,NA,NA,NA,NA,NA,NA
"162","stim/objects/Instruments/flute2.png",24,6,24,0.7,"stim/64.jpeg",6,4,2,NA,"Instruments",1,1,"left","left",0.57400012,1,1,1,1,NA,NA,NA,NA,NA,NA,NA,NA,NA,NA,NA,NA,NA,NA,NA,NA,NA,NA,NA,NA,NA,NA,NA,NA
"107","stim/objects/HouseObjects/handbrush.png",25,6,25,0.7,"stim/53.jpeg",5,3,2,NA,"HouseObjects",2,3,"right","right",0.703999996,1,1,1,1,NA,NA,NA,NA,NA,NA,NA,NA,NA,NA,NA,NA,NA,NA,NA,NA,NA,NA,NA,NA,NA,NA,NA,NA
"68","stim/objects/HouseObjects/garbagebin2.png",26,6,26,0.9,"stim/13.jpeg",1,3,3,NA,"HouseObjects",2,3,"right","right",0.639999866,1,1,1,1,NA,NA,NA,NA,NA,NA,NA,NA,NA,NA,NA,NA,NA,NA,NA,NA,NA,NA,NA,NA,NA,NA,NA,NA
"1","stim/objects/HouseObjects/coffee.png",27,6,27,0.5,"stim/31.jpeg",3,1,1,NA,"HouseObjects",2,4,"right","right",0.870000124,1,1,1,1,NA,NA,NA,NA,NA,NA,NA,NA,NA,NA,NA,NA,NA,NA,NA,NA,NA,NA,NA,NA,NA,NA,NA,NA
"89","stim/objects/HouseObjects/glassmop.png",28,6,28,0.7,"stim/51.jpeg",5,1,2,NA,"HouseObjects",2,4,"right","right",0.644000053,1,1,1,1,NA,NA,NA,NA,NA,NA,NA,NA,NA,NA,NA,NA,NA,NA,NA,NA,NA,NA,NA,NA,NA,NA,NA,NA
"53","stim/objects/HouseObjects/flyswatter2.png",29,6,29,0.9,"stim/12.jpeg",1,2,3,NA,"HouseObjects",2,4,"right","right",0.556999922,1,1,1,1,NA,NA,NA,NA,NA,NA,NA,NA,NA,NA,NA,NA,NA,NA,NA,NA,NA,NA,NA,NA,NA,NA,NA,NA
"138","stim/objects/Instruments/electricdrumset2.png",30,6,30,0.7,"stim/62.jpeg",6,2,2,NA,"Instruments",1,1,"left","left",0.552999973,1,1,1,1,NA,NA,NA,NA,NA,NA,NA,NA,NA,NA,NA,NA,NA,NA,NA,NA,NA,NA,NA,NA,NA,NA,NA,NA
"54","stim/objects/HouseObjects/flyswatter2.png",31,6,31,0.9,"stim/12.jpeg",1,2,3,NA,"HouseObjects",2,4,"right","right",0.569999933,1,1,1,1,NA,NA,NA,NA,NA,NA,NA,NA,NA,NA,NA,NA,NA,NA,NA,NA,NA,NA,NA,NA,NA,NA,NA,NA
"108","stim/objects/HouseObjects/handbrush.png",32,6,32,0.7,"stim/53.jpeg",5,3,2,NA,"HouseObjects",2,1,"right","right",0.546000004,1,1,1,1,NA,NA,NA,NA,NA,NA,NA,NA,NA,NA,NA,NA,NA,NA,NA,NA,NA,NA,NA,NA,NA,NA,NA,NA
"18","stim/objects/HouseObjects/dishsoap.png",33,6,33,0.5,"stim/33.jpeg",3,3,1,NA,"HouseObjects",2,1,"right","",NA,0,0,1,1,NA,NA,NA,NA,NA,NA,NA,NA,NA,NA,NA,NA,NA,NA,NA,NA,NA,NA,NA,NA,NA,NA,NA,NA
"192","stim/objects/Instruments/grandpiano2.png",34,6,34,0.1,"stim/14.jpeg",1,4,3,NA,"Instruments",1,4,"left","right",0.513000011,0,0,1,1,NA,NA,NA,NA,NA,NA,NA,NA,NA,NA,NA,NA,NA,NA,NA,NA,NA,NA,NA,NA,NA,NA,NA,NA
"220","stim/objects/Instruments/harp2.png",35,6,35,0.9,"stim/23.jpeg",2,3,3,NA,"Instruments",1,3,"left","left",0.552999973,1,1,1,1,NA,NA,NA,NA,NA,NA,NA,NA,NA,NA,NA,NA,NA,NA,NA,NA,NA,NA,NA,NA,NA,NA,NA,NA
"9","stim/objects/HouseObjects/cushion.png",36,6,36,0.5,"stim/32.jpeg",3,2,1,NA,"HouseObjects",2,4,"right","right",0.637000084,1,1,1,1,NA,NA,NA,NA,NA,NA,NA,NA,NA,NA,NA,NA,NA,NA,NA,NA,NA,NA,NA,NA,NA,NA,NA,NA
"75","stim/objects/HouseObjects/glass.png",37,6,37,0.5,"stim/44.jpeg",4,4,1,NA,"HouseObjects",2,1,"right","right",0.553999901,1,1,1,1,NA,NA,NA,NA,NA,NA,NA,NA,NA,NA,NA,NA,NA,NA,NA,NA,NA,NA,NA,NA,NA,NA,NA,NA
"76","stim/objects/HouseObjects/glass.png",38,6,38,0.5,"stim/44.jpeg",4,4,1,NA,"HouseObjects",2,3,"right","right",0.605999947,1,1,1,1,NA,NA,NA,NA,NA,NA,NA,NA,NA,NA,NA,NA,NA,NA,NA,NA,NA,NA,NA,NA,NA,NA,NA,NA
"33","stim/objects/HouseObjects/dustpan.png",39,6,39,0.5,"stim/41.jpeg",4,1,1,NA,"HouseObjects",2,3,"right","left",0.67599988,0,0,1,1,NA,NA,NA,NA,NA,NA,NA,NA,NA,NA,NA,NA,NA,NA,NA,NA,NA,NA,NA,NA,NA,NA,NA,NA
"197","stim/objects/Instruments/guitarcase2.png",40,6,40,0.9,"stim/21.jpeg",2,1,3,NA,"Instruments",1,1,"left","left",0.578999996,1,1,1,1,NA,NA,NA,NA,NA,NA,NA,NA,NA,NA,NA,NA,NA,NA,NA,NA,NA,NA,NA,NA,NA,NA,NA,NA
"233","stim/objects/Instruments/hihat2.png",41,6,41,0.9,"stim/24.jpeg",2,4,3,NA,"Instruments",1,3,"left","left",0.638999939,1,1,1,1,NA,NA,NA,NA,NA,NA,NA,NA,NA,NA,NA,NA,NA,NA,NA,NA,NA,NA,NA,NA,NA,NA,NA,NA
"55","stim/objects/HouseObjects/flyswatter2.png",42,6,42,0.9,"stim/12.jpeg",1,2,3,NA,"HouseObjects",2,4,"right","right",0.55700016,1,1,1,1,NA,NA,NA,NA,NA,NA,NA,NA,NA,NA,NA,NA,NA,NA,NA,NA,NA,NA,NA,NA,NA,NA,NA,NA
"40","stim/objects/HouseObjects/dustpan2.png",43,6,43,0.9,"stim/11.jpeg",1,1,3,NA,"HouseObjects",2,2,"right","right",0.529000044,1,1,1,1,NA,NA,NA,NA,NA,NA,NA,NA,NA,NA,NA,NA,NA,NA,NA,NA,NA,NA,NA,NA,NA,NA,NA,NA
"127","stim/objects/Instruments/drums2.png",44,6,44,0.7,"stim/61.jpeg",6,1,2,NA,"Instruments",1,2,"left","left",0.597999811,1,1,1,1,NA,NA,NA,NA,NA,NA,NA,NA,NA,NA,NA,NA,NA,NA,NA,NA,NA,NA,NA,NA,NA,NA,NA,NA
"198","stim/objects/Instruments/guitarcase2.png",45,6,45,0.9,"stim/21.jpeg",2,1,3,NA,"Instruments",1,4,"left","left",0.610000134,1,1,1,1,NA,NA,NA,NA,NA,NA,NA,NA,NA,NA,NA,NA,NA,NA,NA,NA,NA,NA,NA,NA,NA,NA,NA,NA
"208","stim/objects/Instruments/harmonica2.png",46,6,46,0.9,"stim/22.jpeg",2,2,3,NA,"Instruments",1,1,"left","left",0.537999868,1,1,1,1,NA,NA,NA,NA,NA,NA,NA,NA,NA,NA,NA,NA,NA,NA,NA,NA,NA,NA,NA,NA,NA,NA,NA,NA
"2","stim/objects/HouseObjects/coffee.png",47,6,47,0.5,"stim/31.jpeg",3,1,1,NA,"HouseObjects",2,4,"right","right",0.729000092,1,1,1,1,NA,NA,NA,NA,NA,NA,NA,NA,NA,NA,NA,NA,NA,NA,NA,NA,NA,NA,NA,NA,NA,NA,NA,NA
"234","stim/objects/Instruments/hihat2.png",48,6,48,0.9,"stim/24.jpeg",2,4,3,NA,"Instruments",1,2,"left","left",0.565999985,1,1,1,1,NA,NA,NA,NA,NA,NA,NA,NA,NA,NA,NA,NA,NA,NA,NA,NA,NA,NA,NA,NA,NA,NA,NA,NA
"113","stim/objects/HouseObjects/handvacuum.png",49,6,49,0.7,"stim/54.jpeg",5,4,2,NA,"HouseObjects",2,4,"right","right",0.647000074,1,1,1,1,NA,NA,NA,NA,NA,NA,NA,NA,NA,NA,NA,NA,NA,NA,NA,NA,NA,NA,NA,NA,NA,NA,NA,NA
"6","stim/objects/HouseObjects/coffee2.png",50,6,50,0.3,"stim/61.jpeg",6,1,2,NA,"HouseObjects",2,1,"right","left",0.571000099,0,0,1,1,NA,NA,NA,NA,NA,NA,NA,NA,NA,NA,NA,NA,NA,NA,NA,NA,NA,NA,NA,NA,NA,NA,NA,NA
"221","stim/objects/Instruments/harp2.png",51,6,51,0.9,"stim/23.jpeg",2,3,3,NA,"Instruments",1,1,"left","left",0.553999901,1,1,1,1,NA,NA,NA,NA,NA,NA,NA,NA,NA,NA,NA,NA,NA,NA,NA,NA,NA,NA,NA,NA,NA,NA,NA,NA
"10","stim/objects/HouseObjects/cushion.png",52,6,52,0.5,"stim/32.jpeg",3,2,1,NA,"HouseObjects",2,2,"right","",NA,0,0,1,1,NA,NA,NA,NA,NA,NA,NA,NA,NA,NA,NA,NA,NA,NA,NA,NA,NA,NA,NA,NA,NA,NA,NA,NA
"98","stim/objects/HouseObjects/hairdryer.png",53,6,53,0.7,"stim/52.jpeg",5,2,2,NA,"HouseObjects",2,4,"right","right",0.819000006,1,1,1,1,NA,NA,NA,NA,NA,NA,NA,NA,NA,NA,NA,NA,NA,NA,NA,NA,NA,NA,NA,NA,NA,NA,NA,NA
"151","stim/objects/Instruments/electricguitar2.png",54,6,54,0.7,"stim/63.jpeg",6,3,2,NA,"Instruments",1,2,"left","",NA,0,0,1,1,NA,NA,NA,NA,NA,NA,NA,NA,NA,NA,NA,NA,NA,NA,NA,NA,NA,NA,NA,NA,NA,NA,NA,NA
"77","stim/objects/HouseObjects/glass.png",55,6,55,0.5,"stim/44.jpeg",4,4,1,NA,"HouseObjects",2,2,"right","right",0.662999868,1,1,1,1,NA,NA,NA,NA,NA,NA,NA,NA,NA,NA,NA,NA,NA,NA,NA,NA,NA,NA,NA,NA,NA,NA,NA,NA
"199","stim/objects/Instruments/guitarcase2.png",56,6,56,0.9,"stim/21.jpeg",2,1,3,NA,"Instruments",1,4,"left","left",0.545000076,1,1,1,1,NA,NA,NA,NA,NA,NA,NA,NA,NA,NA,NA,NA,NA,NA,NA,NA,NA,NA,NA,NA,NA,NA,NA,NA
"200","stim/objects/Instruments/guitarcase2.png",57,6,57,0.9,"stim/21.jpeg",2,1,3,NA,"Instruments",1,3,"left","left",0.493999958,1,1,1,1,NA,NA,NA,NA,NA,NA,NA,NA,NA,NA,NA,NA,NA,NA,NA,NA,NA,NA,NA,NA,NA,NA,NA,NA
"175","stim/objects/Instruments/frenchhorn.png",58,6,58,0.5,"stim/42.jpeg",4,2,1,NA,"Instruments",1,3,"left","right",0.542999983,0,0,1,1,NA,NA,NA,NA,NA,NA,NA,NA,NA,NA,NA,NA,NA,NA,NA,NA,NA,NA,NA,NA,NA,NA,NA,NA
"157","stim/objects/Instruments/flute.png",59,6,59,0.5,"stim/34.jpeg",3,4,1,NA,"Instruments",1,3,"left","left",0.691999912,1,1,1,1,NA,NA,NA,NA,NA,NA,NA,NA,NA,NA,NA,NA,NA,NA,NA,NA,NA,NA,NA,NA,NA,NA,NA,NA
"99","stim/objects/HouseObjects/hairdryer.png",60,6,60,0.7,"stim/52.jpeg",5,2,2,NA,"HouseObjects",2,2,"right","left",0.603999853,0,0,1,1,NA,NA,NA,NA,NA,NA,NA,NA,NA,NA,NA,NA,NA,NA,NA,NA,NA,NA,NA,NA,NA,NA,NA,NA
"222","stim/objects/Instruments/harp2.png",61,6,61,0.9,"stim/23.jpeg",2,3,3,NA,"Instruments",1,1,"left","left",0.545000076,1,1,1,1,NA,NA,NA,NA,NA,NA,NA,NA,NA,NA,NA,NA,NA,NA,NA,NA,NA,NA,NA,NA,NA,NA,NA,NA
"174","stim/objects/Instruments/flutetrans2.png",62,6,62,0.1,"stim/11.jpeg",1,1,3,NA,"Instruments",1,3,"left","right",0.59800005,0,0,1,1,NA,NA,NA,NA,NA,NA,NA,NA,NA,NA,NA,NA,NA,NA,NA,NA,NA,NA,NA,NA,NA,NA,NA,NA
"41","stim/objects/HouseObjects/dustpan2.png",63,6,63,0.9,"stim/11.jpeg",1,1,3,NA,"HouseObjects",2,3,"right","right",0.532000065,1,1,1,1,NA,NA,NA,NA,NA,NA,NA,NA,NA,NA,NA,NA,NA,NA,NA,NA,NA,NA,NA,NA,NA,NA,NA,NA
"128","stim/objects/Instruments/drums2.png",64,6,64,0.7,"stim/61.jpeg",6,1,2,NA,"Instruments",1,3,"left","left",0.523000002,1,1,1,1,NA,NA,NA,NA,NA,NA,NA,NA,NA,NA,NA,NA,NA,NA,NA,NA,NA,NA,NA,NA,NA,NA,NA,NA
"209","stim/objects/Instruments/harmonica2.png",65,6,65,0.9,"stim/22.jpeg",2,2,3,NA,"Instruments",1,3,"left","left",0.555999994,1,1,1,1,NA,NA,NA,NA,NA,NA,NA,NA,NA,NA,NA,NA,NA,NA,NA,NA,NA,NA,NA,NA,NA,NA,NA,NA
"3","stim/objects/HouseObjects/coffee.png",66,6,66,0.5,"stim/31.jpeg",3,1,1,NA,"HouseObjects",2,3,"right","right",0.672999859,1,1,1,1,NA,NA,NA,NA,NA,NA,NA,NA,NA,NA,NA,NA,NA,NA,NA,NA,NA,NA,NA,NA,NA,NA,NA,NA
"4","stim/objects/HouseObjects/coffee.png",67,6,67,0.5,"stim/31.jpeg",3,1,1,NA,"HouseObjects",2,3,"right","right",0.615999937,1,1,1,1,NA,NA,NA,NA,NA,NA,NA,NA,NA,NA,NA,NA,NA,NA,NA,NA,NA,NA,NA,NA,NA,NA,NA,NA
"42","stim/objects/HouseObjects/dustpan2.png",68,6,68,0.9,"stim/11.jpeg",1,1,3,NA,"HouseObjects",2,3,"right","right",0.565000057,1,1,1,1,NA,NA,NA,NA,NA,NA,NA,NA,NA,NA,NA,NA,NA,NA,NA,NA,NA,NA,NA,NA,NA,NA,NA,NA
"22","stim/objects/HouseObjects/dishsoap2.png",69,6,69,0.3,"stim/63.jpeg",6,3,2,NA,"HouseObjects",2,4,"right","left",0.569999933,0,0,1,1,NA,NA,NA,NA,NA,NA,NA,NA,NA,NA,NA,NA,NA,NA,NA,NA,NA,NA,NA,NA,NA,NA,NA,NA
"69","stim/objects/HouseObjects/garbagebin2.png",70,6,70,0.9,"stim/13.jpeg",1,3,3,NA,"HouseObjects",2,2,"right","right",0.539999962,1,1,1,1,NA,NA,NA,NA,NA,NA,NA,NA,NA,NA,NA,NA,NA,NA,NA,NA,NA,NA,NA,NA,NA,NA,NA,NA
"100","stim/objects/HouseObjects/hairdryer.png",71,6,71,0.7,"stim/52.jpeg",5,2,2,NA,"HouseObjects",2,2,"right","right",0.763999939,1,1,1,1,NA,NA,NA,NA,NA,NA,NA,NA,NA,NA,NA,NA,NA,NA,NA,NA,NA,NA,NA,NA,NA,NA,NA,NA
"114","stim/objects/HouseObjects/handvacuum.png",72,6,72,0.7,"stim/54.jpeg",5,4,2,NA,"HouseObjects",2,4,"right","right",0.625,1,1,1,1,NA,NA,NA,NA,NA,NA,NA,NA,NA,NA,NA,NA,NA,NA,NA,NA,NA,NA,NA,NA,NA,NA,NA,NA
"158","stim/objects/Instruments/flute.png",73,6,73,0.5,"stim/34.jpeg",3,4,1,NA,"Instruments",1,1,"left","right",0.763000011,0,0,1,1,NA,NA,NA,NA,NA,NA,NA,NA,NA,NA,NA,NA,NA,NA,NA,NA,NA,NA,NA,NA,NA,NA,NA,NA
"187","stim/objects/Instruments/grandpiano.png",74,6,74,0.5,"stim/44.jpeg",4,4,1,NA,"Instruments",1,3,"left","right",0.680999994,0,0,1,1,NA,NA,NA,NA,NA,NA,NA,NA,NA,NA,NA,NA,NA,NA,NA,NA,NA,NA,NA,NA,NA,NA,NA,NA
"43","stim/objects/HouseObjects/dustpan2.png",75,6,75,0.9,"stim/11.jpeg",1,1,3,NA,"HouseObjects",2,1,"right","right",0.562000036,1,1,1,1,NA,NA,NA,NA,NA,NA,NA,NA,NA,NA,NA,NA,NA,NA,NA,NA,NA,NA,NA,NA,NA,NA,NA,NA
"80","stim/objects/HouseObjects/glass2.png",76,6,76,0.9,"stim/14.jpeg",1,4,3,NA,"HouseObjects",2,2,"right","right",0.756000042,1,1,1,1,NA,NA,NA,NA,NA,NA,NA,NA,NA,NA,NA,NA,NA,NA,NA,NA,NA,NA,NA,NA,NA,NA,NA,NA
"235","stim/objects/Instruments/hihat2.png",77,6,77,0.9,"stim/24.jpeg",2,4,3,NA,"Instruments",1,2,"left","left",0.855000019,1,1,1,1,NA,NA,NA,NA,NA,NA,NA,NA,NA,NA,NA,NA,NA,NA,NA,NA,NA,NA,NA,NA,NA,NA,NA,NA
"139","stim/objects/Instruments/electricdrumset2.png",78,6,78,0.7,"stim/62.jpeg",6,2,2,NA,"Instruments",1,3,"left","left",0.628999949,1,1,1,1,NA,NA,NA,NA,NA,NA,NA,NA,NA,NA,NA,NA,NA,NA,NA,NA,NA,NA,NA,NA,NA,NA,NA,NA
"145","stim/objects/Instruments/electricguitar.png",79,6,79,0.5,"stim/33.jpeg",3,3,1,NA,"Instruments",1,3,"left","",NA,0,0,1,1,NA,NA,NA,NA,NA,NA,NA,NA,NA,NA,NA,NA,NA,NA,NA,NA,NA,NA,NA,NA,NA,NA,NA,NA
"217","stim/objects/Instruments/harp.png",80,6,80,0.3,"stim/53.jpeg",5,3,2,NA,"Instruments",1,2,"left","right",0.549000025,0,0,1,1,NA,NA,NA,NA,NA,NA,NA,NA,NA,NA,NA,NA,NA,NA,NA,NA,NA,NA,NA,NA,NA,NA,NA,NA
"210","stim/objects/Instruments/harmonica2.png",81,6,81,0.9,"stim/22.jpeg",2,2,3,NA,"Instruments",1,2,"left","left",0.546000004,1,1,1,1,NA,NA,NA,NA,NA,NA,NA,NA,NA,NA,NA,NA,NA,NA,NA,NA,NA,NA,NA,NA,NA,NA,NA,NA
"188","stim/objects/Instruments/grandpiano.png",82,6,82,0.5,"stim/44.jpeg",4,4,1,NA,"Instruments",1,4,"left","right",0.562999964,0,0,1,1,NA,NA,NA,NA,NA,NA,NA,NA,NA,NA,NA,NA,NA,NA,NA,NA,NA,NA,NA,NA,NA,NA,NA,NA
"70","stim/objects/HouseObjects/garbagebin2.png",83,6,83,0.9,"stim/13.jpeg",1,3,3,NA,"HouseObjects",2,2,"right","right",0.602999926,1,1,1,1,NA,NA,NA,NA,NA,NA,NA,NA,NA,NA,NA,NA,NA,NA,NA,NA,NA,NA,NA,NA,NA,NA,NA,NA
"90","stim/objects/HouseObjects/glassmop.png",84,6,84,0.7,"stim/51.jpeg",5,1,2,NA,"HouseObjects",2,4,"right","right",0.661000013,1,1,1,1,NA,NA,NA,NA,NA,NA,NA,NA,NA,NA,NA,NA,NA,NA,NA,NA,NA,NA,NA,NA,NA,NA,NA,NA
"211","stim/objects/Instruments/harmonica2.png",85,6,85,0.9,"stim/22.jpeg",2,2,3,NA,"Instruments",1,2,"left","left",0.506999969,1,1,1,1,NA,NA,NA,NA,NA,NA,NA,NA,NA,NA,NA,NA,NA,NA,NA,NA,NA,NA,NA,NA,NA,NA,NA,NA
"152","stim/objects/Instruments/electricguitar2.png",86,6,86,0.7,"stim/63.jpeg",6,3,2,NA,"Instruments",1,3,"left","left",0.687999964,1,1,1,1,NA,NA,NA,NA,NA,NA,NA,NA,NA,NA,NA,NA,NA,NA,NA,NA,NA,NA,NA,NA,NA,NA,NA,NA
"56","stim/objects/HouseObjects/flyswatter2.png",87,6,87,0.9,"stim/12.jpeg",1,2,3,NA,"HouseObjects",2,1,"right","right",0.771000147,1,1,1,1,NA,NA,NA,NA,NA,NA,NA,NA,NA,NA,NA,NA,NA,NA,NA,NA,NA,NA,NA,NA,NA,NA,NA,NA
"223","stim/objects/Instruments/harp2.png",88,6,88,0.9,"stim/23.jpeg",2,3,3,NA,"Instruments",1,3,"left","",NA,0,0,1,1,NA,NA,NA,NA,NA,NA,NA,NA,NA,NA,NA,NA,NA,NA,NA,NA,NA,NA,NA,NA,NA,NA,NA,NA
"170","stim/objects/Instruments/flutetrans.png",89,6,89,0.5,"stim/41.jpeg",4,1,1,NA,"Instruments",1,4,"left","right",0.623000145,0,0,1,1,NA,NA,NA,NA,NA,NA,NA,NA,NA,NA,NA,NA,NA,NA,NA,NA,NA,NA,NA,NA,NA,NA,NA,NA
"7","stim/objects/HouseObjects/coffee2.png",90,6,90,0.3,"stim/61.jpeg",6,1,2,NA,"HouseObjects",2,4,"right","left",0.711999893,0,0,1,1,NA,NA,NA,NA,NA,NA,NA,NA,NA,NA,NA,NA,NA,NA,NA,NA,NA,NA,NA,NA,NA,NA,NA,NA
"115","stim/objects/HouseObjects/handvacuum.png",91,6,91,0.7,"stim/54.jpeg",5,4,2,NA,"HouseObjects",2,1,"right","",NA,0,0,1,1,NA,NA,NA,NA,NA,NA,NA,NA,NA,NA,NA,NA,NA,NA,NA,NA,NA,NA,NA,NA,NA,NA,NA,NA
"180","stim/objects/Instruments/frenchhorn2.png",92,6,92,0.1,"stim/12.jpeg",1,2,3,NA,"Instruments",1,2,"left","right",0.602999926,0,0,1,1,NA,NA,NA,NA,NA,NA,NA,NA,NA,NA,NA,NA,NA,NA,NA,NA,NA,NA,NA,NA,NA,NA,NA,NA
"135","stim/objects/Instruments/electricdrumset.png",93,6,93,0.5,"stim/32.jpeg",3,2,1,NA,"Instruments",1,4,"left","right",0.594000101,0,0,1,1,NA,NA,NA,NA,NA,NA,NA,NA,NA,NA,NA,NA,NA,NA,NA,NA,NA,NA,NA,NA,NA,NA,NA,NA
"78","stim/objects/HouseObjects/glass.png",94,6,94,0.5,"stim/44.jpeg",4,4,1,NA,"HouseObjects",2,4,"right","right",0.60800004,1,1,1,1,NA,NA,NA,NA,NA,NA,NA,NA,NA,NA,NA,NA,NA,NA,NA,NA,NA,NA,NA,NA,NA,NA,NA,NA
"44","stim/objects/HouseObjects/dustpan2.png",95,6,95,0.9,"stim/11.jpeg",1,1,3,NA,"HouseObjects",2,1,"right","right",0.576999903,1,1,1,1,NA,NA,NA,NA,NA,NA,NA,NA,NA,NA,NA,NA,NA,NA,NA,NA,NA,NA,NA,NA,NA,NA,NA,NA
"129","stim/objects/Instruments/drums2.png",96,6,96,0.7,"stim/61.jpeg",6,1,2,NA,"Instruments",1,1,"left","left",0.624000072,1,1,1,1,NA,NA,NA,NA,NA,NA,NA,NA,NA,NA,NA,NA,NA,NA,NA,NA,NA,NA,NA,NA,NA,NA,NA,NA
"153","stim/objects/Instruments/electricguitar2.png",97,6,97,0.7,"stim/63.jpeg",6,3,2,NA,"Instruments",1,4,"left","left",0.674999952,1,1,1,1,NA,NA,NA,NA,NA,NA,NA,NA,NA,NA,NA,NA,NA,NA,NA,NA,NA,NA,NA,NA,NA,NA,NA,NA
"79","stim/objects/HouseObjects/glass.png",98,6,98,0.5,"stim/44.jpeg",4,4,1,NA,"HouseObjects",2,1,"right","right",0.748000145,1,1,1,1,NA,NA,NA,NA,NA,NA,NA,NA,NA,NA,NA,NA,NA,NA,NA,NA,NA,NA,NA,NA,NA,NA,NA,NA
"224","stim/objects/Instruments/harp2.png",99,6,99,0.9,"stim/23.jpeg",2,3,3,NA,"Instruments",1,2,"left","",NA,0,0,1,1,NA,NA,NA,NA,NA,NA,NA,NA,NA,NA,NA,NA,NA,NA,NA,NA,NA,NA,NA,NA,NA,NA,NA,NA
"212","stim/objects/Instruments/harmonica2.png",100,6,100,0.9,"stim/22.jpeg",2,2,3,NA,"Instruments",1,4,"left","left",0.606999874,1,1,1,1,NA,NA,NA,NA,NA,NA,NA,NA,NA,NA,NA,NA,NA,NA,NA,NA,NA,NA,NA,NA,NA,NA,NA,NA
"96","stim/objects/HouseObjects/glassmop2.png",101,6,101,0.1,"stim/21.jpeg",2,1,3,NA,"HouseObjects",2,1,"right","left",0.525000095,0,0,1,1,NA,NA,NA,NA,NA,NA,NA,NA,NA,NA,NA,NA,NA,NA,NA,NA,NA,NA,NA,NA,NA,NA,NA,NA
"176","stim/objects/Instruments/frenchhorn.png",102,6,102,0.5,"stim/42.jpeg",4,2,1,NA,"Instruments",1,2,"left","right",0.638000011,0,0,1,1,NA,NA,NA,NA,NA,NA,NA,NA,NA,NA,NA,NA,NA,NA,NA,NA,NA,NA,NA,NA,NA,NA,NA,NA
"163","stim/objects/Instruments/flute2.png",103,6,103,0.7,"stim/64.jpeg",6,4,2,NA,"Instruments",1,2,"left","left",0.559999943,1,1,1,1,NA,NA,NA,NA,NA,NA,NA,NA,NA,NA,NA,NA,NA,NA,NA,NA,NA,NA,NA,NA,NA,NA,NA,NA
"236","stim/objects/Instruments/hihat2.png",104,6,104,0.9,"stim/24.jpeg",2,4,3,NA,"Instruments",1,2,"left","left",0.748999834,1,1,1,1,NA,NA,NA,NA,NA,NA,NA,NA,NA,NA,NA,NA,NA,NA,NA,NA,NA,NA,NA,NA,NA,NA,NA,NA
"101","stim/objects/HouseObjects/hairdryer.png",105,6,105,0.7,"stim/52.jpeg",5,2,2,NA,"HouseObjects",2,3,"right","",NA,0,0,1,1,NA,NA,NA,NA,NA,NA,NA,NA,NA,NA,NA,NA,NA,NA,NA,NA,NA,NA,NA,NA,NA,NA,NA,NA
"164","stim/objects/Instruments/flute2.png",106,6,106,0.7,"stim/64.jpeg",6,4,2,NA,"Instruments",1,4,"left","left",0.453999996,1,1,1,1,NA,NA,NA,NA,NA,NA,NA,NA,NA,NA,NA,NA,NA,NA,NA,NA,NA,NA,NA,NA,NA,NA,NA,NA
"165","stim/objects/Instruments/flute2.png",107,6,107,0.7,"stim/64.jpeg",6,4,2,NA,"Instruments",1,1,"left","left",0.493999958,1,1,1,1,NA,NA,NA,NA,NA,NA,NA,NA,NA,NA,NA,NA,NA,NA,NA,NA,NA,NA,NA,NA,NA,NA,NA,NA
"31","stim/objects/HouseObjects/doormat2.png",108,6,108,0.3,"stim/64.jpeg",6,4,2,NA,"HouseObjects",2,3,"right","left",0.659000158,0,0,1,1,NA,NA,NA,NA,NA,NA,NA,NA,NA,NA,NA,NA,NA,NA,NA,NA,NA,NA,NA,NA,NA,NA,NA,NA
"237","stim/objects/Instruments/hihat2.png",109,6,109,0.9,"stim/24.jpeg",2,4,3,NA,"Instruments",1,3,"left","left",0.566999912,1,1,1,1,NA,NA,NA,NA,NA,NA,NA,NA,NA,NA,NA,NA,NA,NA,NA,NA,NA,NA,NA,NA,NA,NA,NA,NA
"181","stim/objects/Instruments/gong.png",110,6,110,0.5,"stim/43.jpeg",4,3,1,NA,"Instruments",1,4,"left","right",0.525000095,0,0,1,1,NA,NA,NA,NA,NA,NA,NA,NA,NA,NA,NA,NA,NA,NA,NA,NA,NA,NA,NA,NA,NA,NA,NA,NA
"225","stim/objects/Instruments/harp2.png",111,6,111,0.9,"stim/23.jpeg",2,3,3,NA,"Instruments",1,3,"left","left",0.527999878,1,1,1,1,NA,NA,NA,NA,NA,NA,NA,NA,NA,NA,NA,NA,NA,NA,NA,NA,NA,NA,NA,NA,NA,NA,NA,NA
"81","stim/objects/HouseObjects/glass2.png",112,6,112,0.9,"stim/14.jpeg",1,4,3,NA,"HouseObjects",2,4,"right","right",0.567000151,1,1,1,1,NA,NA,NA,NA,NA,NA,NA,NA,NA,NA,NA,NA,NA,NA,NA,NA,NA,NA,NA,NA,NA,NA,NA,NA
"140","stim/objects/Instruments/electricdrumset2.png",113,6,113,0.7,"stim/62.jpeg",6,2,2,NA,"Instruments",1,4,"left","left",0.582000017,1,1,1,1,NA,NA,NA,NA,NA,NA,NA,NA,NA,NA,NA,NA,NA,NA,NA,NA,NA,NA,NA,NA,NA,NA,NA,NA
"146","stim/objects/Instruments/electricguitar.png",114,6,114,0.5,"stim/33.jpeg",3,3,1,NA,"Instruments",1,4,"left","right",0.641000032,0,0,1,1,NA,NA,NA,NA,NA,NA,NA,NA,NA,NA,NA,NA,NA,NA,NA,NA,NA,NA,NA,NA,NA,NA,NA,NA
"182","stim/objects/Instruments/gong.png",115,6,115,0.5,"stim/43.jpeg",4,3,1,NA,"Instruments",1,4,"left","right",0.500999928,0,0,1,1,NA,NA,NA,NA,NA,NA,NA,NA,NA,NA,NA,NA,NA,NA,NA,NA,NA,NA,NA,NA,NA,NA,NA,NA
"177","stim/objects/Instruments/frenchhorn.png",116,6,116,0.5,"stim/42.jpeg",4,2,1,NA,"Instruments",1,1,"left","right",0.588000059,0,0,1,1,NA,NA,NA,NA,NA,NA,NA,NA,NA,NA,NA,NA,NA,NA,NA,NA,NA,NA,NA,NA,NA,NA,NA,NA
"183","stim/objects/Instruments/gong.png",117,6,117,0.5,"stim/43.jpeg",4,3,1,NA,"Instruments",1,4,"left","right",0.506000042,0,0,1,1,NA,NA,NA,NA,NA,NA,NA,NA,NA,NA,NA,NA,NA,NA,NA,NA,NA,NA,NA,NA,NA,NA,NA,NA
"189","stim/objects/Instruments/grandpiano.png",118,6,118,0.5,"stim/44.jpeg",4,4,1,NA,"Instruments",1,2,"left","right",0.603999853,0,0,1,1,NA,NA,NA,NA,NA,NA,NA,NA,NA,NA,NA,NA,NA,NA,NA,NA,NA,NA,NA,NA,NA,NA,NA,NA
"166","stim/objects/Instruments/flute2.png",119,6,119,0.7,"stim/64.jpeg",6,4,2,NA,"Instruments",1,2,"left","left",0.558000088,1,1,1,1,NA,NA,NA,NA,NA,NA,NA,NA,NA,NA,NA,NA,NA,NA,NA,NA,NA,NA,NA,NA,NA,NA,NA,NA
"205","stim/objects/Instruments/harmonica.png",120,6,120,0.3,"stim/52.jpeg",5,2,2,NA,"Instruments",1,4,"left","right",0.804999828,0,0,1,1,NA,NA,NA,NA,NA,NA,NA,NA,NA,NA,NA,NA,NA,NA,NA,NA,NA,NA,NA,NA,NA,NA,NA,NA
"34","stim/objects/HouseObjects/dustpan.png",121,6,121,0.5,"stim/41.jpeg",4,1,1,NA,"HouseObjects",2,4,"right","left",0.687999964,0,0,1,1,NA,NA,NA,NA,NA,NA,NA,NA,NA,NA,NA,NA,NA,NA,NA,NA,NA,NA,NA,NA,NA,NA,NA,NA
"62","stim/objects/HouseObjects/garbagebin.png",122,6,122,0.5,"stim/43.jpeg",4,3,1,NA,"HouseObjects",2,1,"right","left",0.380999804,0,0,1,1,NA,NA,NA,NA,NA,NA,NA,NA,NA,NA,NA,NA,NA,NA,NA,NA,NA,NA,NA,NA,NA,NA,NA,NA
"167","stim/objects/Instruments/flute2.png",123,6,123,0.7,"stim/64.jpeg",6,4,2,NA,"Instruments",1,1,"left","left",0.511000156,1,1,1,1,NA,NA,NA,NA,NA,NA,NA,NA,NA,NA,NA,NA,NA,NA,NA,NA,NA,NA,NA,NA,NA,NA,NA,NA
"71","stim/objects/HouseObjects/garbagebin2.png",124,6,124,0.9,"stim/13.jpeg",1,3,3,NA,"HouseObjects",2,2,"right","right",0.603000164,1,1,1,1,NA,NA,NA,NA,NA,NA,NA,NA,NA,NA,NA,NA,NA,NA,NA,NA,NA,NA,NA,NA,NA,NA,NA,NA
"82","stim/objects/HouseObjects/glass2.png",125,6,125,0.9,"stim/14.jpeg",1,4,3,NA,"HouseObjects",2,4,"right","right",0.701999903,1,1,1,1,NA,NA,NA,NA,NA,NA,NA,NA,NA,NA,NA,NA,NA,NA,NA,NA,NA,NA,NA,NA,NA,NA,NA,NA
"11","stim/objects/HouseObjects/cushion.png",126,6,126,0.5,"stim/32.jpeg",3,2,1,NA,"HouseObjects",2,4,"right","right",0.887000084,1,1,1,1,NA,NA,NA,NA,NA,NA,NA,NA,NA,NA,NA,NA,NA,NA,NA,NA,NA,NA,NA,NA,NA,NA,NA,NA
"23","stim/objects/HouseObjects/dishsoap2.png",127,6,127,0.3,"stim/63.jpeg",6,3,2,NA,"HouseObjects",2,2,"right","left",0.50999999,0,0,1,1,NA,NA,NA,NA,NA,NA,NA,NA,NA,NA,NA,NA,NA,NA,NA,NA,NA,NA,NA,NA,NA,NA,NA,NA
"26","stim/objects/HouseObjects/doormat.png",128,6,128,0.5,"stim/34.jpeg",3,4,1,NA,"HouseObjects",2,3,"right","right",0.794000149,1,1,1,1,NA,NA,NA,NA,NA,NA,NA,NA,NA,NA,NA,NA,NA,NA,NA,NA,NA,NA,NA,NA,NA,NA,NA,NA
"229","stim/objects/Instruments/hihat.png",129,6,129,0.3,"stim/54.jpeg",5,4,2,NA,"Instruments",1,1,"left","right",0.616999865,0,0,1,1,NA,NA,NA,NA,NA,NA,NA,NA,NA,NA,NA,NA,NA,NA,NA,NA,NA,NA,NA,NA,NA,NA,NA,NA
"27","stim/objects/HouseObjects/doormat.png",130,6,130,0.5,"stim/34.jpeg",3,4,1,NA,"HouseObjects",2,1,"right","right",0.600999832,1,1,1,1,NA,NA,NA,NA,NA,NA,NA,NA,NA,NA,NA,NA,NA,NA,NA,NA,NA,NA,NA,NA,NA,NA,NA,NA
"19","stim/objects/HouseObjects/dishsoap.png",131,6,131,0.5,"stim/33.jpeg",3,3,1,NA,"HouseObjects",2,4,"right","right",0.518000126,1,1,1,1,NA,NA,NA,NA,NA,NA,NA,NA,NA,NA,NA,NA,NA,NA,NA,NA,NA,NA,NA,NA,NA,NA,NA,NA
"130","stim/objects/Instruments/drums2.png",132,6,132,0.7,"stim/61.jpeg",6,1,2,NA,"Instruments",1,1,"left","left",0.540999889,1,1,1,1,NA,NA,NA,NA,NA,NA,NA,NA,NA,NA,NA,NA,NA,NA,NA,NA,NA,NA,NA,NA,NA,NA,NA,NA
"48","stim/objects/HouseObjects/flyswatter.png",133,6,133,0.5,"stim/42.jpeg",4,2,1,NA,"HouseObjects",2,3,"right","right",0.530999899,1,1,1,1,NA,NA,NA,NA,NA,NA,NA,NA,NA,NA,NA,NA,NA,NA,NA,NA,NA,NA,NA,NA,NA,NA,NA,NA
"206","stim/objects/Instruments/harmonica.png",134,6,134,0.3,"stim/52.jpeg",5,2,2,NA,"Instruments",1,3,"left","right",0.507000208,0,0,1,1,NA,NA,NA,NA,NA,NA,NA,NA,NA,NA,NA,NA,NA,NA,NA,NA,NA,NA,NA,NA,NA,NA,NA,NA
"49","stim/objects/HouseObjects/flyswatter.png",135,6,135,0.5,"stim/42.jpeg",4,2,1,NA,"HouseObjects",2,3,"right","right",0.424000025,1,1,1,1,NA,NA,NA,NA,NA,NA,NA,NA,NA,NA,NA,NA,NA,NA,NA,NA,NA,NA,NA,NA,NA,NA,NA,NA
"63","stim/objects/HouseObjects/garbagebin.png",136,6,136,0.5,"stim/43.jpeg",4,3,1,NA,"HouseObjects",2,2,"right","right",0.569999933,1,1,1,1,NA,NA,NA,NA,NA,NA,NA,NA,NA,NA,NA,NA,NA,NA,NA,NA,NA,NA,NA,NA,NA,NA,NA,NA
"57","stim/objects/HouseObjects/flyswatter2.png",137,6,137,0.9,"stim/12.jpeg",1,2,3,NA,"HouseObjects",2,4,"right","right",0.539999962,1,1,1,1,NA,NA,NA,NA,NA,NA,NA,NA,NA,NA,NA,NA,NA,NA,NA,NA,NA,NA,NA,NA,NA,NA,NA,NA
"131","stim/objects/Instruments/drums2.png",138,6,138,0.7,"stim/61.jpeg",6,1,2,NA,"Instruments",1,3,"left","left",0.742000103,1,1,1,1,NA,NA,NA,NA,NA,NA,NA,NA,NA,NA,NA,NA,NA,NA,NA,NA,NA,NA,NA,NA,NA,NA,NA,NA
"230","stim/objects/Instruments/hihat.png",139,6,139,0.3,"stim/54.jpeg",5,4,2,NA,"Instruments",1,1,"left","right",0.562000036,0,0,1,1,NA,NA,NA,NA,NA,NA,NA,NA,NA,NA,NA,NA,NA,NA,NA,NA,NA,NA,NA,NA,NA,NA,NA,NA
"238","stim/objects/Instruments/hihat2.png",140,6,140,0.9,"stim/24.jpeg",2,4,3,NA,"Instruments",1,4,"left","left",0.54700017,1,1,1,1,NA,NA,NA,NA,NA,NA,NA,NA,NA,NA,NA,NA,NA,NA,NA,NA,NA,NA,NA,NA,NA,NA,NA,NA
"121","stim/objects/Instruments/drums.png",141,6,141,0.5,"stim/31.jpeg",3,1,1,NA,"Instruments",1,2,"left","right",0.628999949,0,0,1,1,NA,NA,NA,NA,NA,NA,NA,NA,NA,NA,NA,NA,NA,NA,NA,NA,NA,NA,NA,NA,NA,NA,NA,NA
"218","stim/objects/Instruments/harp.png",142,6,142,0.3,"stim/53.jpeg",5,3,2,NA,"Instruments",1,3,"left","right",0.622999907,0,0,1,1,NA,NA,NA,NA,NA,NA,NA,NA,NA,NA,NA,NA,NA,NA,NA,NA,NA,NA,NA,NA,NA,NA,NA,NA
"184","stim/objects/Instruments/gong.png",143,6,143,0.5,"stim/43.jpeg",4,3,1,NA,"Instruments",1,3,"left","right",0.592000008,0,0,1,1,NA,NA,NA,NA,NA,NA,NA,NA,NA,NA,NA,NA,NA,NA,NA,NA,NA,NA,NA,NA,NA,NA,NA,NA
"91","stim/objects/HouseObjects/glassmop.png",144,6,144,0.7,"stim/51.jpeg",5,1,2,NA,"HouseObjects",2,1,"right","",NA,0,0,1,1,NA,NA,NA,NA,NA,NA,NA,NA,NA,NA,NA,NA,NA,NA,NA,NA,NA,NA,NA,NA,NA,NA,NA,NA
"226","stim/objects/Instruments/harp2.png",145,6,145,0.9,"stim/23.jpeg",2,3,3,NA,"Instruments",1,4,"left","left",0.475000143,1,1,1,1,NA,NA,NA,NA,NA,NA,NA,NA,NA,NA,NA,NA,NA,NA,NA,NA,NA,NA,NA,NA,NA,NA,NA,NA
"171","stim/objects/Instruments/flutetrans.png",146,6,146,0.5,"stim/41.jpeg",4,1,1,NA,"Instruments",1,3,"left","left",0.747999907,1,1,1,1,NA,NA,NA,NA,NA,NA,NA,NA,NA,NA,NA,NA,NA,NA,NA,NA,NA,NA,NA,NA,NA,NA,NA,NA
"50","stim/objects/HouseObjects/flyswatter.png",147,6,147,0.5,"stim/42.jpeg",4,2,1,NA,"HouseObjects",2,1,"right","right",0.788000107,1,1,1,1,NA,NA,NA,NA,NA,NA,NA,NA,NA,NA,NA,NA,NA,NA,NA,NA,NA,NA,NA,NA,NA,NA,NA,NA
"64","stim/objects/HouseObjects/garbagebin.png",148,6,148,0.5,"stim/43.jpeg",4,3,1,NA,"HouseObjects",2,1,"right","right",0.740999937,1,1,1,1,NA,NA,NA,NA,NA,NA,NA,NA,NA,NA,NA,NA,NA,NA,NA,NA,NA,NA,NA,NA,NA,NA,NA,NA
"154","stim/objects/Instruments/electricguitar2.png",149,6,149,0.7,"stim/63.jpeg",6,3,2,NA,"Instruments",1,2,"left","left",0.524999857,1,1,1,1,NA,NA,NA,NA,NA,NA,NA,NA,NA,NA,NA,NA,NA,NA,NA,NA,NA,NA,NA,NA,NA,NA,NA,NA
"227","stim/objects/Instruments/harp2.png",150,6,150,0.9,"stim/23.jpeg",2,3,3,NA,"Instruments",1,4,"left","left",0.63499999,1,1,1,1,NA,NA,NA,NA,NA,NA,NA,NA,NA,NA,NA,NA,NA,NA,NA,NA,NA,NA,NA,NA,NA,NA,NA,NA
"92","stim/objects/HouseObjects/glassmop.png",151,6,151,0.7,"stim/51.jpeg",5,1,2,NA,"HouseObjects",2,1,"right","",NA,0,0,1,1,NA,NA,NA,NA,NA,NA,NA,NA,NA,NA,NA,NA,NA,NA,NA,NA,NA,NA,NA,NA,NA,NA,NA,NA
"178","stim/objects/Instruments/frenchhorn.png",152,6,152,0.5,"stim/42.jpeg",4,2,1,NA,"Instruments",1,3,"left","right",0.551000118,0,0,1,1,NA,NA,NA,NA,NA,NA,NA,NA,NA,NA,NA,NA,NA,NA,NA,NA,NA,NA,NA,NA,NA,NA,NA,NA
"155","stim/objects/Instruments/electricguitar2.png",153,6,153,0.7,"stim/63.jpeg",6,3,2,NA,"Instruments",1,2,"left","left",0.605999947,1,1,1,1,NA,NA,NA,NA,NA,NA,NA,NA,NA,NA,NA,NA,NA,NA,NA,NA,NA,NA,NA,NA,NA,NA,NA,NA
"186","stim/objects/Instruments/gong2.png",154,6,154,0.1,"stim/13.jpeg",1,3,3,NA,"Instruments",1,1,"left","right",0.5400002,0,0,1,1,NA,NA,NA,NA,NA,NA,NA,NA,NA,NA,NA,NA,NA,NA,NA,NA,NA,NA,NA,NA,NA,NA,NA,NA
"83","stim/objects/HouseObjects/glass2.png",155,6,155,0.9,"stim/14.jpeg",1,4,3,NA,"HouseObjects",2,3,"right","right",0.444000006,1,1,1,1,NA,NA,NA,NA,NA,NA,NA,NA,NA,NA,NA,NA,NA,NA,NA,NA,NA,NA,NA,NA,NA,NA,NA,NA
"141","stim/objects/Instruments/electricdrumset2.png",156,6,156,0.7,"stim/62.jpeg",6,2,2,NA,"Instruments",1,2,"left","left",0.585999966,1,1,1,1,NA,NA,NA,NA,NA,NA,NA,NA,NA,NA,NA,NA,NA,NA,NA,NA,NA,NA,NA,NA,NA,NA,NA,NA
"159","stim/objects/Instruments/flute.png",157,6,157,0.5,"stim/34.jpeg",3,4,1,NA,"Instruments",1,1,"left","right",0.643000126,0,0,1,1,NA,NA,NA,NA,NA,NA,NA,NA,NA,NA,NA,NA,NA,NA,NA,NA,NA,NA,NA,NA,NA,NA,NA,NA
"231","stim/objects/Instruments/hihat.png",158,6,158,0.3,"stim/54.jpeg",5,4,2,NA,"Instruments",1,2,"left","right",0.505000114,0,0,1,1,NA,NA,NA,NA,NA,NA,NA,NA,NA,NA,NA,NA,NA,NA,NA,NA,NA,NA,NA,NA,NA,NA,NA,NA
"122","stim/objects/Instruments/drums.png",159,6,159,0.5,"stim/31.jpeg",3,1,1,NA,"Instruments",1,3,"left","right",0.868999958,0,0,1,1,NA,NA,NA,NA,NA,NA,NA,NA,NA,NA,NA,NA,NA,NA,NA,NA,NA,NA,NA,NA,NA,NA,NA,NA
"58","stim/objects/HouseObjects/flyswatter2.png",160,6,160,0.9,"stim/12.jpeg",1,2,3,NA,"HouseObjects",2,1,"right","right",0.614000082,1,1,1,1,NA,NA,NA,NA,NA,NA,NA,NA,NA,NA,NA,NA,NA,NA,NA,NA,NA,NA,NA,NA,NA,NA,NA,NA
"213","stim/objects/Instruments/harmonica2.png",161,6,161,0.9,"stim/22.jpeg",2,2,3,NA,"Instruments",1,2,"left","left",0.523000002,1,1,1,1,NA,NA,NA,NA,NA,NA,NA,NA,NA,NA,NA,NA,NA,NA,NA,NA,NA,NA,NA,NA,NA,NA,NA,NA
"84","stim/objects/HouseObjects/glass2.png",162,6,162,0.9,"stim/14.jpeg",1,4,3,NA,"HouseObjects",2,1,"right","right",0.523000002,1,1,1,1,NA,NA,NA,NA,NA,NA,NA,NA,NA,NA,NA,NA,NA,NA,NA,NA,NA,NA,NA,NA,NA,NA,NA,NA
"147","stim/objects/Instruments/electricguitar.png",163,6,163,0.5,"stim/33.jpeg",3,3,1,NA,"Instruments",1,2,"left","right",0.578999996,0,0,1,1,NA,NA,NA,NA,NA,NA,NA,NA,NA,NA,NA,NA,NA,NA,NA,NA,NA,NA,NA,NA,NA,NA,NA,NA
"72","stim/objects/HouseObjects/garbagebin2.png",164,6,164,0.9,"stim/13.jpeg",1,3,3,NA,"HouseObjects",2,1,"right","right",0.523999929,1,1,1,1,NA,NA,NA,NA,NA,NA,NA,NA,NA,NA,NA,NA,NA,NA,NA,NA,NA,NA,NA,NA,NA,NA,NA,NA
"93","stim/objects/HouseObjects/glassmop.png",165,6,165,0.7,"stim/51.jpeg",5,1,2,NA,"HouseObjects",2,4,"right","right",0.618000031,1,1,1,1,NA,NA,NA,NA,NA,NA,NA,NA,NA,NA,NA,NA,NA,NA,NA,NA,NA,NA,NA,NA,NA,NA,NA,NA
"85","stim/objects/HouseObjects/glass2.png",166,6,166,0.9,"stim/14.jpeg",1,4,3,NA,"HouseObjects",2,3,"right","right",0.738000154,1,1,1,1,NA,NA,NA,NA,NA,NA,NA,NA,NA,NA,NA,NA,NA,NA,NA,NA,NA,NA,NA,NA,NA,NA,NA,NA
"116","stim/objects/HouseObjects/handvacuum.png",167,6,167,0.7,"stim/54.jpeg",5,4,2,NA,"HouseObjects",2,1,"right","left",0.750999928,0,0,1,1,NA,NA,NA,NA,NA,NA,NA,NA,NA,NA,NA,NA,NA,NA,NA,NA,NA,NA,NA,NA,NA,NA,NA,NA
"201","stim/objects/Instruments/guitarcase2.png",168,6,168,0.9,"stim/21.jpeg",2,1,3,NA,"Instruments",1,2,"left","left",0.65199995,1,1,1,1,NA,NA,NA,NA,NA,NA,NA,NA,NA,NA,NA,NA,NA,NA,NA,NA,NA,NA,NA,NA,NA,NA,NA,NA
"117","stim/objects/HouseObjects/handvacuum.png",169,6,169,0.7,"stim/54.jpeg",5,4,2,NA,"HouseObjects",2,4,"right","left",0.743999958,0,0,1,1,NA,NA,NA,NA,NA,NA,NA,NA,NA,NA,NA,NA,NA,NA,NA,NA,NA,NA,NA,NA,NA,NA,NA,NA
"219","stim/objects/Instruments/harp.png",170,6,170,0.3,"stim/53.jpeg",5,3,2,NA,"Instruments",1,2,"left","left",0.844000101,1,1,1,1,NA,NA,NA,NA,NA,NA,NA,NA,NA,NA,NA,NA,NA,NA,NA,NA,NA,NA,NA,NA,NA,NA,NA,NA
"12","stim/objects/HouseObjects/cushion.png",171,6,171,0.5,"stim/32.jpeg",3,2,1,NA,"HouseObjects",2,2,"right","right",0.607999802,1,1,1,1,NA,NA,NA,NA,NA,NA,NA,NA,NA,NA,NA,NA,NA,NA,NA,NA,NA,NA,NA,NA,NA,NA,NA,NA
"73","stim/objects/HouseObjects/garbagebin2.png",172,6,172,0.9,"stim/13.jpeg",1,3,3,NA,"HouseObjects",2,2,"right","right",0.563999891,1,1,1,1,NA,NA,NA,NA,NA,NA,NA,NA,NA,NA,NA,NA,NA,NA,NA,NA,NA,NA,NA,NA,NA,NA,NA,NA
"207","stim/objects/Instruments/harmonica.png",173,6,173,0.3,"stim/52.jpeg",5,2,2,NA,"Instruments",1,2,"left","right",0.444000006,0,0,1,1,NA,NA,NA,NA,NA,NA,NA,NA,NA,NA,NA,NA,NA,NA,NA,NA,NA,NA,NA,NA,NA,NA,NA,NA
"109","stim/objects/HouseObjects/handbrush.png",174,6,174,0.7,"stim/53.jpeg",5,3,2,NA,"HouseObjects",2,2,"right","right",0.500999928,1,1,1,1,NA,NA,NA,NA,NA,NA,NA,NA,NA,NA,NA,NA,NA,NA,NA,NA,NA,NA,NA,NA,NA,NA,NA,NA
"45","stim/objects/HouseObjects/dustpan2.png",175,6,175,0.9,"stim/11.jpeg",1,1,3,NA,"HouseObjects",2,3,"right","right",0.5400002,1,1,1,1,NA,NA,NA,NA,NA,NA,NA,NA,NA,NA,NA,NA,NA,NA,NA,NA,NA,NA,NA,NA,NA,NA,NA,NA
"160","stim/objects/Instruments/flute.png",176,6,176,0.5,"stim/34.jpeg",3,4,1,NA,"Instruments",1,1,"left","right",0.568000078,0,0,1,1,NA,NA,NA,NA,NA,NA,NA,NA,NA,NA,NA,NA,NA,NA,NA,NA,NA,NA,NA,NA,NA,NA,NA,NA
"168","stim/objects/Instruments/flute2.png",177,6,177,0.7,"stim/64.jpeg",6,4,2,NA,"Instruments",1,4,"left","left",0.641000032,1,1,1,1,NA,NA,NA,NA,NA,NA,NA,NA,NA,NA,NA,NA,NA,NA,NA,NA,NA,NA,NA,NA,NA,NA,NA,NA
"110","stim/objects/HouseObjects/handbrush.png",178,6,178,0.7,"stim/53.jpeg",5,3,2,NA,"HouseObjects",2,3,"right","right",0.569999933,1,1,1,1,NA,NA,NA,NA,NA,NA,NA,NA,NA,NA,NA,NA,NA,NA,NA,NA,NA,NA,NA,NA,NA,NA,NA,NA
"24","stim/objects/HouseObjects/dishsoap2.png",179,6,179,0.3,"stim/63.jpeg",6,3,2,NA,"HouseObjects",2,2,"right","left",0.528000116,0,0,1,1,NA,NA,NA,NA,NA,NA,NA,NA,NA,NA,NA,NA,NA,NA,NA,NA,NA,NA,NA,NA,NA,NA,NA,NA
"94","stim/objects/HouseObjects/glassmop.png",180,6,180,0.7,"stim/51.jpeg",5,1,2,NA,"HouseObjects",2,3,"right","right",0.551000118,1,1,1,1,NA,NA,NA,NA,NA,NA,NA,NA,NA,NA,NA,NA,NA,NA,NA,NA,NA,NA,NA,NA,NA,NA,NA,NA
"172","stim/objects/Instruments/flutetrans.png",181,6,181,0.5,"stim/41.jpeg",4,1,1,NA,"Instruments",1,1,"left","right",0.493000031,0,0,1,1,NA,NA,NA,NA,NA,NA,NA,NA,NA,NA,NA,NA,NA,NA,NA,NA,NA,NA,NA,NA,NA,NA,NA,NA
"65","stim/objects/HouseObjects/garbagebin.png",182,6,182,0.5,"stim/43.jpeg",4,3,1,NA,"HouseObjects",2,2,"right","left",0.809000015,0,0,1,1,NA,NA,NA,NA,NA,NA,NA,NA,NA,NA,NA,NA,NA,NA,NA,NA,NA,NA,NA,NA,NA,NA,NA,NA
"20","stim/objects/HouseObjects/dishsoap.png",183,6,183,0.5,"stim/33.jpeg",3,3,1,NA,"HouseObjects",2,1,"right","right",0.765000105,1,1,1,1,NA,NA,NA,NA,NA,NA,NA,NA,NA,NA,NA,NA,NA,NA,NA,NA,NA,NA,NA,NA,NA,NA,NA,NA
"156","stim/objects/Instruments/electricguitar2.png",184,6,184,0.7,"stim/63.jpeg",6,3,2,NA,"Instruments",1,1,"left","left",0.515000105,1,1,1,1,NA,NA,NA,NA,NA,NA,NA,NA,NA,NA,NA,NA,NA,NA,NA,NA,NA,NA,NA,NA,NA,NA,NA,NA
"123","stim/objects/Instruments/drums.png",185,6,185,0.5,"stim/31.jpeg",3,1,1,NA,"Instruments",1,4,"left","right",0.77699995,0,0,1,1,NA,NA,NA,NA,NA,NA,NA,NA,NA,NA,NA,NA,NA,NA,NA,NA,NA,NA,NA,NA,NA,NA,NA,NA
"142","stim/objects/Instruments/electricdrumset2.png",186,6,186,0.7,"stim/62.jpeg",6,2,2,NA,"Instruments",1,2,"left","left",0.654000044,1,1,1,1,NA,NA,NA,NA,NA,NA,NA,NA,NA,NA,NA,NA,NA,NA,NA,NA,NA,NA,NA,NA,NA,NA,NA,NA
"35","stim/objects/HouseObjects/dustpan.png",187,6,187,0.5,"stim/41.jpeg",4,1,1,NA,"HouseObjects",2,2,"right","right",0.640000105,1,1,1,1,NA,NA,NA,NA,NA,NA,NA,NA,NA,NA,NA,NA,NA,NA,NA,NA,NA,NA,NA,NA,NA,NA,NA,NA
"32","stim/objects/HouseObjects/doormat2.png",188,6,188,0.3,"stim/64.jpeg",6,4,2,NA,"HouseObjects",2,3,"right","left",0.670000076,0,0,1,1,NA,NA,NA,NA,NA,NA,NA,NA,NA,NA,NA,NA,NA,NA,NA,NA,NA,NA,NA,NA,NA,NA,NA,NA
"143","stim/objects/Instruments/electricdrumset2.png",189,6,189,0.7,"stim/62.jpeg",6,2,2,NA,"Instruments",1,2,"left","left",0.556999922,1,1,1,1,NA,NA,NA,NA,NA,NA,NA,NA,NA,NA,NA,NA,NA,NA,NA,NA,NA,NA,NA,NA,NA,NA,NA,NA
"74","stim/objects/HouseObjects/garbagebin2.png",190,6,190,0.9,"stim/13.jpeg",1,3,3,NA,"HouseObjects",2,3,"right","",NA,0,0,1,1,NA,NA,NA,NA,NA,NA,NA,NA,NA,NA,NA,NA,NA,NA,NA,NA,NA,NA,NA,NA,NA,NA,NA,NA
"194","stim/objects/Instruments/guitarcase.png",191,6,191,0.3,"stim/51.jpeg",5,1,2,NA,"Instruments",1,1,"left","right",0.575000048,0,0,1,1,NA,NA,NA,NA,NA,NA,NA,NA,NA,NA,NA,NA,NA,NA,NA,NA,NA,NA,NA,NA,NA,NA,NA,NA
"8","stim/objects/HouseObjects/coffee2.png",192,6,192,0.3,"stim/61.jpeg",6,1,2,NA,"HouseObjects",2,4,"right","left",0.792000055,0,0,1,1,NA,NA,NA,NA,NA,NA,NA,NA,NA,NA,NA,NA,NA,NA,NA,NA,NA,NA,NA,NA,NA,NA,NA,NA
"202","stim/objects/Instruments/guitarcase2.png",193,6,193,0.9,"stim/21.jpeg",2,1,3,NA,"Instruments",1,3,"left","left",0.59100008,1,1,1,1,NA,NA,NA,NA,NA,NA,NA,NA,NA,NA,NA,NA,NA,NA,NA,NA,NA,NA,NA,NA,NA,NA,NA,NA
"214","stim/objects/Instruments/harmonica2.png",194,6,194,0.9,"stim/22.jpeg",2,2,3,NA,"Instruments",1,4,"left","",NA,0,0,1,1,NA,NA,NA,NA,NA,NA,NA,NA,NA,NA,NA,NA,NA,NA,NA,NA,NA,NA,NA,NA,NA,NA,NA,NA
"102","stim/objects/HouseObjects/hairdryer.png",195,6,195,0.7,"stim/52.jpeg",5,2,2,NA,"HouseObjects",2,3,"right","right",0.536999941,1,1,1,1,NA,NA,NA,NA,NA,NA,NA,NA,NA,NA,NA,NA,NA,NA,NA,NA,NA,NA,NA,NA,NA,NA,NA,NA
"95","stim/objects/HouseObjects/glassmop.png",196,6,196,0.7,"stim/51.jpeg",5,1,2,NA,"HouseObjects",2,1,"right","right",0.570999861,1,1,1,1,NA,NA,NA,NA,NA,NA,NA,NA,NA,NA,NA,NA,NA,NA,NA,NA,NA,NA,NA,NA,NA,NA,NA,NA
"161","stim/objects/Instruments/flute.png",197,6,197,0.5,"stim/34.jpeg",3,4,1,NA,"Instruments",1,2,"left","right",0.792000055,0,0,1,1,NA,NA,NA,NA,NA,NA,NA,NA,NA,NA,NA,NA,NA,NA,NA,NA,NA,NA,NA,NA,NA,NA,NA,NA
"104","stim/objects/HouseObjects/hairdryer2.png",198,6,198,0.1,"stim/22.jpeg",2,2,3,NA,"HouseObjects",2,4,"right","left",0.698999882,0,0,1,1,NA,NA,NA,NA,NA,NA,NA,NA,NA,NA,NA,NA,NA,NA,NA,NA,NA,NA,NA,NA,NA,NA,NA,NA
"118","stim/objects/HouseObjects/handvacuum.png",199,6,199,0.7,"stim/54.jpeg",5,4,2,NA,"HouseObjects",2,2,"right","left",0.763999939,0,0,1,1,NA,NA,NA,NA,NA,NA,NA,NA,NA,NA,NA,NA,NA,NA,NA,NA,NA,NA,NA,NA,NA,NA,NA,NA
"59","stim/objects/HouseObjects/flyswatter2.png",200,6,200,0.9,"stim/12.jpeg",1,2,3,NA,"HouseObjects",2,1,"right","right",0.537999868,1,1,1,1,NA,NA,NA,NA,NA,NA,NA,NA,NA,NA,NA,NA,NA,NA,NA,NA,NA,NA,NA,NA,NA,NA,NA,NA
"103","stim/objects/HouseObjects/hairdryer.png",201,6,201,0.7,"stim/52.jpeg",5,2,2,NA,"HouseObjects",2,4,"right","right",0.702000141,1,1,1,1,NA,NA,NA,NA,NA,NA,NA,NA,NA,NA,NA,NA,NA,NA,NA,NA,NA,NA,NA,NA,NA,NA,NA,NA
"239","stim/objects/Instruments/hihat2.png",202,6,202,0.9,"stim/24.jpeg",2,4,3,NA,"Instruments",1,2,"left","left",0.559000015,1,1,1,1,NA,NA,NA,NA,NA,NA,NA,NA,NA,NA,NA,NA,NA,NA,NA,NA,NA,NA,NA,NA,NA,NA,NA,NA
"36","stim/objects/HouseObjects/dustpan.png",203,6,203,0.5,"stim/41.jpeg",4,1,1,NA,"HouseObjects",2,2,"right","left",0.671000004,0,0,1,1,NA,NA,NA,NA,NA,NA,NA,NA,NA,NA,NA,NA,NA,NA,NA,NA,NA,NA,NA,NA,NA,NA,NA,NA
"15","stim/objects/HouseObjects/cushion2.png",204,6,204,0.3,"stim/62.jpeg",6,2,2,NA,"HouseObjects",2,3,"right","left",0.558000088,0,0,1,1,NA,NA,NA,NA,NA,NA,NA,NA,NA,NA,NA,NA,NA,NA,NA,NA,NA,NA,NA,NA,NA,NA,NA,NA
"148","stim/objects/Instruments/electricguitar.png",205,6,205,0.5,"stim/33.jpeg",3,3,1,NA,"Instruments",1,2,"left","right",0.655999899,0,0,1,1,NA,NA,NA,NA,NA,NA,NA,NA,NA,NA,NA,NA,NA,NA,NA,NA,NA,NA,NA,NA,NA,NA,NA,NA
"5","stim/objects/HouseObjects/coffee.png",206,6,206,0.5,"stim/31.jpeg",3,1,1,NA,"HouseObjects",2,2,"right","right",0.590000153,1,1,1,1,NA,NA,NA,NA,NA,NA,NA,NA,NA,NA,NA,NA,NA,NA,NA,NA,NA,NA,NA,NA,NA,NA,NA,NA
"228","stim/objects/Instruments/harp2.png",207,6,207,0.9,"stim/23.jpeg",2,3,3,NA,"Instruments",1,2,"left","left",0.623000145,1,1,1,1,NA,NA,NA,NA,NA,NA,NA,NA,NA,NA,NA,NA,NA,NA,NA,NA,NA,NA,NA,NA,NA,NA,NA,NA
"215","stim/objects/Instruments/harmonica2.png",208,6,208,0.9,"stim/22.jpeg",2,2,3,NA,"Instruments",1,3,"left","left",0.520000219,1,1,1,1,NA,NA,NA,NA,NA,NA,NA,NA,NA,NA,NA,NA,NA,NA,NA,NA,NA,NA,NA,NA,NA,NA,NA,NA
"13","stim/objects/HouseObjects/cushion.png",209,6,209,0.5,"stim/32.jpeg",3,2,1,NA,"HouseObjects",2,1,"right","right",0.536000013,1,1,1,1,NA,NA,NA,NA,NA,NA,NA,NA,NA,NA,NA,NA,NA,NA,NA,NA,NA,NA,NA,NA,NA,NA,NA,NA
"195","stim/objects/Instruments/guitarcase.png",210,6,210,0.3,"stim/51.jpeg",5,1,2,NA,"Instruments",1,3,"left","right",0.628000021,0,0,1,1,NA,NA,NA,NA,NA,NA,NA,NA,NA,NA,NA,NA,NA,NA,NA,NA,NA,NA,NA,NA,NA,NA,NA,NA
"203","stim/objects/Instruments/guitarcase2.png",211,6,211,0.9,"stim/21.jpeg",2,1,3,NA,"Instruments",1,1,"left","left",0.51699996,1,1,1,1,NA,NA,NA,NA,NA,NA,NA,NA,NA,NA,NA,NA,NA,NA,NA,NA,NA,NA,NA,NA,NA,NA,NA,NA
"119","stim/objects/HouseObjects/handvacuum.png",212,6,212,0.7,"stim/54.jpeg",5,4,2,NA,"HouseObjects",2,1,"right","left",0.729000092,0,0,1,1,NA,NA,NA,NA,NA,NA,NA,NA,NA,NA,NA,NA,NA,NA,NA,NA,NA,NA,NA,NA,NA,NA,NA,NA
"16","stim/objects/HouseObjects/cushion2.png",213,6,213,0.3,"stim/62.jpeg",6,2,2,NA,"HouseObjects",2,1,"right","left",0.708999872,0,0,1,1,NA,NA,NA,NA,NA,NA,NA,NA,NA,NA,NA,NA,NA,NA,NA,NA,NA,NA,NA,NA,NA,NA,NA,NA
"37","stim/objects/HouseObjects/dustpan.png",214,6,214,0.5,"stim/41.jpeg",4,1,1,NA,"HouseObjects",2,2,"right","right",0.74000001,1,1,1,1,NA,NA,NA,NA,NA,NA,NA,NA,NA,NA,NA,NA,NA,NA,NA,NA,NA,NA,NA,NA,NA,NA,NA,NA
"190","stim/objects/Instruments/grandpiano.png",215,6,215,0.5,"stim/44.jpeg",4,4,1,NA,"Instruments",1,4,"left","right",0.618000031,0,0,1,1,NA,NA,NA,NA,NA,NA,NA,NA,NA,NA,NA,NA,NA,NA,NA,NA,NA,NA,NA,NA,NA,NA,NA,NA
"240","stim/objects/Instruments/hihat2.png",216,6,216,0.9,"stim/24.jpeg",2,4,3,NA,"Instruments",1,3,"left","left",0.621999979,1,1,1,1,NA,NA,NA,NA,NA,NA,NA,NA,NA,NA,NA,NA,NA,NA,NA,NA,NA,NA,NA,NA,NA,NA,NA,NA
"173","stim/objects/Instruments/flutetrans.png",217,6,217,0.5,"stim/41.jpeg",4,1,1,NA,"Instruments",1,4,"left","left",0.803999901,1,1,1,1,NA,NA,NA,NA,NA,NA,NA,NA,NA,NA,NA,NA,NA,NA,NA,NA,NA,NA,NA,NA,NA,NA,NA,NA
"124","stim/objects/Instruments/drums.png",218,6,218,0.5,"stim/31.jpeg",3,1,1,NA,"Instruments",1,3,"left","",NA,0,0,1,1,NA,NA,NA,NA,NA,NA,NA,NA,NA,NA,NA,NA,NA,NA,NA,NA,NA,NA,NA,NA,NA,NA,NA,NA
"179","stim/objects/Instruments/frenchhorn.png",219,6,219,0.5,"stim/42.jpeg",4,2,1,NA,"Instruments",1,1,"left","right",0.486999989,0,0,1,1,NA,NA,NA,NA,NA,NA,NA,NA,NA,NA,NA,NA,NA,NA,NA,NA,NA,NA,NA,NA,NA,NA,NA,NA
"28","stim/objects/HouseObjects/doormat.png",220,6,220,0.5,"stim/34.jpeg",3,4,1,NA,"HouseObjects",2,1,"right","right",0.503000021,1,1,1,1,NA,NA,NA,NA,NA,NA,NA,NA,NA,NA,NA,NA,NA,NA,NA,NA,NA,NA,NA,NA,NA,NA,NA,NA
"132","stim/objects/Instruments/drums2.png",221,6,221,0.7,"stim/61.jpeg",6,1,2,NA,"Instruments",1,3,"left","left",0.547999859,1,1,1,1,NA,NA,NA,NA,NA,NA,NA,NA,NA,NA,NA,NA,NA,NA,NA,NA,NA,NA,NA,NA,NA,NA,NA,NA
"191","stim/objects/Instruments/grandpiano.png",222,6,222,0.5,"stim/44.jpeg",4,4,1,NA,"Instruments",1,2,"left","right",0.624000072,0,0,1,1,NA,NA,NA,NA,NA,NA,NA,NA,NA,NA,NA,NA,NA,NA,NA,NA,NA,NA,NA,NA,NA,NA,NA,NA
"125","stim/objects/Instruments/drums.png",223,6,223,0.5,"stim/31.jpeg",3,1,1,NA,"Instruments",1,2,"left","right",0.419000149,0,0,1,1,NA,NA,NA,NA,NA,NA,NA,NA,NA,NA,NA,NA,NA,NA,NA,NA,NA,NA,NA,NA,NA,NA,NA,NA
"149","stim/objects/Instruments/electricguitar.png",224,6,224,0.5,"stim/33.jpeg",3,3,1,NA,"Instruments",1,3,"left","right",0.588999987,0,0,1,1,NA,NA,NA,NA,NA,NA,NA,NA,NA,NA,NA,NA,NA,NA,NA,NA,NA,NA,NA,NA,NA,NA,NA,NA
"112","stim/objects/HouseObjects/handbrush2.png",225,6,225,0.1,"stim/23.jpeg",2,3,3,NA,"HouseObjects",2,1,"right","left",0.522000074,0,0,1,1,NA,NA,NA,NA,NA,NA,NA,NA,NA,NA,NA,NA,NA,NA,NA,NA,NA,NA,NA,NA,NA,NA,NA,NA
"216","stim/objects/Instruments/harmonica2.png",226,6,226,0.9,"stim/22.jpeg",2,2,3,NA,"Instruments",1,2,"left","left",0.703999996,1,1,1,1,NA,NA,NA,NA,NA,NA,NA,NA,NA,NA,NA,NA,NA,NA,NA,NA,NA,NA,NA,NA,NA,NA,NA,NA
"86","stim/objects/HouseObjects/glass2.png",227,6,227,0.9,"stim/14.jpeg",1,4,3,NA,"HouseObjects",2,3,"right","right",0.624000072,1,1,1,1,NA,NA,NA,NA,NA,NA,NA,NA,NA,NA,NA,NA,NA,NA,NA,NA,NA,NA,NA,NA,NA,NA,NA,NA
"111","stim/objects/HouseObjects/handbrush.png",228,6,228,0.7,"stim/53.jpeg",5,3,2,NA,"HouseObjects",2,3,"right","right",0.806999922,1,1,1,1,NA,NA,NA,NA,NA,NA,NA,NA,NA,NA,NA,NA,NA,NA,NA,NA,NA,NA,NA,NA,NA,NA,NA,NA
"136","stim/objects/Instruments/electricdrumset.png",229,6,229,0.5,"stim/32.jpeg",3,2,1,NA,"Instruments",1,3,"left","right",0.606999874,0,0,1,1,NA,NA,NA,NA,NA,NA,NA,NA,NA,NA,NA,NA,NA,NA,NA,NA,NA,NA,NA,NA,NA,NA,NA,NA
"21","stim/objects/HouseObjects/dishsoap.png",230,6,230,0.5,"stim/33.jpeg",3,3,1,NA,"HouseObjects",2,2,"right","right",0.667999983,1,1,1,1,NA,NA,NA,NA,NA,NA,NA,NA,NA,NA,NA,NA,NA,NA,NA,NA,NA,NA,NA,NA,NA,NA,NA,NA
"87","stim/objects/HouseObjects/glass2.png",231,6,231,0.9,"stim/14.jpeg",1,4,3,NA,"HouseObjects",2,4,"right","right",0.832999945,1,1,1,1,NA,NA,NA,NA,NA,NA,NA,NA,NA,NA,NA,NA,NA,NA,NA,NA,NA,NA,NA,NA,NA,NA,NA,NA
"60","stim/objects/HouseObjects/flyswatter2.png",232,6,232,0.9,"stim/12.jpeg",1,2,3,NA,"HouseObjects",2,1,"right","right",0.713999987,1,1,1,1,NA,NA,NA,NA,NA,NA,NA,NA,NA,NA,NA,NA,NA,NA,NA,NA,NA,NA,NA,NA,NA,NA,NA,NA
"204","stim/objects/Instruments/guitarcase2.png",233,6,233,0.9,"stim/21.jpeg",2,1,3,NA,"Instruments",1,2,"left","left",0.608999968,1,1,1,1,NA,NA,NA,NA,NA,NA,NA,NA,NA,NA,NA,NA,NA,NA,NA,NA,NA,NA,NA,NA,NA,NA,NA,NA
"88","stim/objects/HouseObjects/glass2.png",234,6,234,0.9,"stim/14.jpeg",1,4,3,NA,"HouseObjects",2,2,"right","",NA,0,0,1,1,NA,NA,NA,NA,NA,NA,NA,NA,NA,NA,NA,NA,NA,NA,NA,NA,NA,NA,NA,NA,NA,NA,NA,NA
"29","stim/objects/HouseObjects/doormat.png",235,6,235,0.5,"stim/34.jpeg",3,4,1,NA,"HouseObjects",2,1,"right","right",0.495999813,1,1,1,1,NA,NA,NA,NA,NA,NA,NA,NA,NA,NA,NA,NA,NA,NA,NA,NA,NA,NA,NA,NA,NA,NA,NA,NA
"46","stim/objects/HouseObjects/dustpan2.png",236,6,236,0.9,"stim/11.jpeg",1,1,3,NA,"HouseObjects",2,4,"right","right",0.526000023,1,1,1,1,NA,NA,NA,NA,NA,NA,NA,NA,NA,NA,NA,NA,NA,NA,NA,NA,NA,NA,NA,NA,NA,NA,NA,NA
"51","stim/objects/HouseObjects/flyswatter.png",237,6,237,0.5,"stim/42.jpeg",4,2,1,NA,"HouseObjects",2,1,"right","right",0.577000141,1,1,1,1,NA,NA,NA,NA,NA,NA,NA,NA,NA,NA,NA,NA,NA,NA,NA,NA,NA,NA,NA,NA,NA,NA,NA,NA
"137","stim/objects/Instruments/electricdrumset.png",238,6,238,0.5,"stim/32.jpeg",3,2,1,NA,"Instruments",1,1,"left","right",0.657000065,0,0,1,1,NA,NA,NA,NA,NA,NA,NA,NA,NA,NA,NA,NA,NA,NA,NA,NA,NA,NA,NA,NA,NA,NA,NA,NA
"185","stim/objects/Instruments/gong.png",239,6,239,0.5,"stim/43.jpeg",4,3,1,NA,"Instruments",1,2,"left","right",0.815000057,0,0,1,1,NA,NA,NA,NA,NA,NA,NA,NA,NA,NA,NA,NA,NA,NA,NA,NA,NA,NA,NA,NA,NA,NA,NA,NA
"144","stim/objects/Instruments/electricdrumset2.png",240,6,240,0.7,"stim/62.jpeg",6,2,2,NA,"Instruments",1,2,"left","left",0.858999968,1,1,1,1,NA,NA,NA,NA,NA,NA,NA,NA,NA,NA,NA,NA,NA,NA,NA,NA,NA,NA,NA,NA,NA,NA,NA,NA
"548","stim/objects/Instruments/record4.png",248,6,241,0.1,"stim/14.jpeg",1,4,3,1,"Instruments",1,1,"left","",NA,0,0,1,0,131,6,1,0.1,1,"stim/14.jpeg",1,4,"stim/14.jpeg",1,"right",0.922999859,4,3,0.818000078,2,0.835000038,131,0,0,NA,0,NA,1
"507","stim/objects/Instruments/musicstand3.png",249,6,242,0.9,"stim/22.jpeg",2,2,3,2,"Instruments",1,4,"left","left",0.575999975,1,1,1,0,NA,NA,NA,NA,NA,NA,NA,NA,NA,NA,NA,NA,NA,NA,NA,NA,NA,NA,NA,NA,NA,NA,NA,NA
"283","stim/objects/HouseObjects/ironingboard3.png",250,6,243,0.7,"stim/54.jpeg",5,4,2,2,"HouseObjects",2,1,"right","right",0.592000008,1,1,1,0,NA,NA,NA,NA,NA,NA,NA,NA,NA,NA,NA,NA,NA,NA,NA,NA,NA,NA,NA,NA,NA,NA,NA,NA
"525","stim/objects/Instruments/oboe3.png",251,6,244,0.9,"stim/24.jpeg",2,4,3,2,"Instruments",1,3,"left","left",0.525000095,1,1,1,0,NA,NA,NA,NA,NA,NA,NA,NA,NA,NA,NA,NA,NA,NA,NA,NA,NA,NA,NA,NA,NA,NA,NA,NA
"415","stim/objects/Instruments/banjo3.png",252,6,245,0.5,"stim/31.jpeg",3,1,1,2,"Instruments",1,3,"left","right",0.559999943,0,0,1,0,NA,NA,NA,NA,NA,NA,NA,NA,NA,NA,NA,NA,NA,NA,NA,NA,NA,NA,NA,NA,NA,NA,NA,NA
"264","stim/objects/HouseObjects/broom4.png",253,6,246,0.3,"stim/64.jpeg",6,4,2,1,"HouseObjects",2,2,"right","left",0.582000017,0,0,1,0,71,6,1,0.3,2,"stim/64.jpeg",6,4,"stim/64.jpeg",2,"left",1.184000015,2,3,0.718999863,3,1.450999975,71,1,0,0,0,0,1
"394","stim/objects/HouseObjects/teapot3.png",254,6,247,0.5,"stim/44.jpeg",4,4,1,1,"HouseObjects",2,2,"right","right",0.542000055,1,1,1,0,13,6,1,0.5,2,"stim/44.jpeg",4,4,"stim/44.jpeg",2,"right",1.698999882,2,3,2.963999987,2,1.025999784,13,0,0,NA,1,NA,1
"440","stim/objects/Instruments/doublebass3.png",255,6,248,0.7,"stim/64.jpeg",6,4,2,2,"Instruments",1,2,"left","left",0.495000124,1,1,1,0,NA,NA,NA,NA,NA,NA,NA,NA,NA,NA,NA,NA,NA,NA,NA,NA,NA,NA,NA,NA,NA,NA,NA,NA
"309","stim/objects/HouseObjects/lintroller3.png",256,6,249,0.9,"stim/13.jpeg",1,3,3,2,"HouseObjects",2,4,"right","right",0.53399992,1,1,1,0,NA,NA,NA,NA,NA,NA,NA,NA,NA,NA,NA,NA,NA,NA,NA,NA,NA,NA,NA,NA,NA,NA,NA,NA
"473","stim/objects/Instruments/metronome3.png",257,6,250,0.9,"stim/21.jpeg",2,1,3,2,"Instruments",1,3,"left","left",0.490999937,1,1,1,0,NA,NA,NA,NA,NA,NA,NA,NA,NA,NA,NA,NA,NA,NA,NA,NA,NA,NA,NA,NA,NA,NA,NA,NA
"549","stim/objects/Instruments/saxophone3.png",258,6,251,0.5,"stim/33.jpeg",3,3,1,1,"Instruments",1,1,"left","right",0.495999813,0,0,1,0,153,6,1,0.5,1,"stim/33.jpeg",3,3,"stim/33.jpeg",1,"left",1.190000057,3,1,0.701999903,2,0.843000174,153,1,0,0,0,0,1
"544","stim/objects/Instruments/pipepiano4.png",259,6,252,0.1,"stim/13.jpeg",1,3,3,1,"Instruments",1,4,"left","right",0.640999794,0,0,1,0,159,6,1,0.1,1,"stim/13.jpeg",1,3,"stim/13.jpeg",4,"right",1.241999865,3,2,0.730000019,2,0.91899991,159,0,0,NA,0,NA,1
"359","stim/objects/HouseObjects/pitcher3.png",260,6,253,0.9,"stim/13.jpeg",1,3,3,2,"HouseObjects",2,2,"right","",NA,0,0,1,0,NA,NA,NA,NA,NA,NA,NA,NA,NA,NA,NA,NA,NA,NA,NA,NA,NA,NA,NA,NA,NA,NA,NA,NA
"418","stim/objects/Instruments/bassdrum3.png",261,6,254,0.5,"stim/32.jpeg",3,2,1,2,"Instruments",1,2,"left","right",0.748999834,0,0,1,0,NA,NA,NA,NA,NA,NA,NA,NA,NA,NA,NA,NA,NA,NA,NA,NA,NA,NA,NA,NA,NA,NA,NA,NA
"508","stim/objects/Instruments/musicstand3.png",262,6,255,0.9,"stim/22.jpeg",2,2,3,2,"Instruments",1,1,"left","left",0.799999952,1,1,1,0,NA,NA,NA,NA,NA,NA,NA,NA,NA,NA,NA,NA,NA,NA,NA,NA,NA,NA,NA,NA,NA,NA,NA,NA
"523","stim/objects/Instruments/musicstand4.png",263,6,256,0.1,"stim/14.jpeg",1,4,3,1,"Instruments",1,4,"left","right",0.50999999,0,0,1,0,180,6,1,0.1,1,"stim/14.jpeg",1,4,"stim/14.jpeg",4,"left",2.083999872,4,4,0.912000179,4,1.35800004,180,1,1,1,1,1,1
"341","stim/objects/HouseObjects/match4.png",264,6,257,0.9,"stim/11.jpeg",1,1,3,1,"HouseObjects",2,4,"right","left",0.526000023,0,0,1,0,152,6,1,0.9,2,"stim/11.jpeg",1,1,"stim/11.jpeg",4,"left",1.413000107,4,3,1.384000063,4,1.055000067,152,1,0,0,1,1,1
"360","stim/objects/HouseObjects/pitcher3.png",265,6,258,0.9,"stim/13.jpeg",1,3,3,2,"HouseObjects",2,1,"right","right",0.55700016,1,1,1,0,NA,NA,NA,NA,NA,NA,NA,NA,NA,NA,NA,NA,NA,NA,NA,NA,NA,NA,NA,NA,NA,NA,NA,NA
"275","stim/objects/HouseObjects/clothespin3.png",266,6,259,0.7,"stim/52.jpeg",5,2,2,2,"HouseObjects",2,3,"right","right",0.743999958,1,1,1,0,NA,NA,NA,NA,NA,NA,NA,NA,NA,NA,NA,NA,NA,NA,NA,NA,NA,NA,NA,NA,NA,NA,NA,NA
"476","stim/objects/Instruments/metronome3.png",267,6,260,0.9,"stim/22.jpeg",2,2,3,2,"Instruments",1,3,"left","",NA,0,0,1,0,NA,NA,NA,NA,NA,NA,NA,NA,NA,NA,NA,NA,NA,NA,NA,NA,NA,NA,NA,NA,NA,NA,NA,NA
"509","stim/objects/Instruments/musicstand3.png",268,6,261,0.9,"stim/21.jpeg",2,1,3,2,"Instruments",1,1,"left","left",0.46600008,1,1,1,0,NA,NA,NA,NA,NA,NA,NA,NA,NA,NA,NA,NA,NA,NA,NA,NA,NA,NA,NA,NA,NA,NA,NA,NA
"361","stim/objects/HouseObjects/pitcher3.png",269,6,262,0.9,"stim/12.jpeg",1,2,3,2,"HouseObjects",2,3,"right","right",0.43599987,1,1,1,0,NA,NA,NA,NA,NA,NA,NA,NA,NA,NA,NA,NA,NA,NA,NA,NA,NA,NA,NA,NA,NA,NA,NA,NA
"527","stim/objects/Instruments/oboe3.png",270,6,263,0.9,"stim/22.jpeg",2,2,3,2,"Instruments",1,3,"left","left",0.528000116,1,1,1,0,NA,NA,NA,NA,NA,NA,NA,NA,NA,NA,NA,NA,NA,NA,NA,NA,NA,NA,NA,NA,NA,NA,NA,NA
"528","stim/objects/Instruments/oboe3.png",271,6,264,0.9,"stim/22.jpeg",2,2,3,2,"Instruments",1,4,"left","left",0.534000158,1,1,1,0,NA,NA,NA,NA,NA,NA,NA,NA,NA,NA,NA,NA,NA,NA,NA,NA,NA,NA,NA,NA,NA,NA,NA,NA
"556","stim/objects/Instruments/timbal4.png",272,6,265,0.9,"stim/23.jpeg",2,3,3,1,"Instruments",1,2,"left","left",0.47300005,1,1,1,0,106,6,1,0.9,1,"stim/23.jpeg",2,3,"stim/23.jpeg",2,"right",0.883000135,3,2,1.100000143,3,1.31799984,106,0,0,NA,0,NA,1
"510","stim/objects/Instruments/musicstand3.png",273,6,266,0.9,"stim/24.jpeg",2,4,3,2,"Instruments",1,3,"left","left",0.546000004,1,1,1,0,NA,NA,NA,NA,NA,NA,NA,NA,NA,NA,NA,NA,NA,NA,NA,NA,NA,NA,NA,NA,NA,NA,NA,NA
"271","stim/objects/HouseObjects/clothesdryingrack3.png",274,6,267,0.7,"stim/53.jpeg",5,3,2,2,"HouseObjects",2,1,"right","right",0.549000025,1,1,1,0,NA,NA,NA,NA,NA,NA,NA,NA,NA,NA,NA,NA,NA,NA,NA,NA,NA,NA,NA,NA,NA,NA,NA,NA
"291","stim/objects/HouseObjects/knife3.png",275,6,268,0.9,"stim/12.jpeg",1,2,3,2,"HouseObjects",2,1,"right","right",0.506000042,1,1,1,0,NA,NA,NA,NA,NA,NA,NA,NA,NA,NA,NA,NA,NA,NA,NA,NA,NA,NA,NA,NA,NA,NA,NA,NA
"268","stim/objects/HouseObjects/clock3.png",276,6,269,0.5,"stim/42.jpeg",4,2,1,2,"HouseObjects",2,4,"right","right",0.605000019,1,1,1,0,NA,NA,NA,NA,NA,NA,NA,NA,NA,NA,NA,NA,NA,NA,NA,NA,NA,NA,NA,NA,NA,NA,NA,NA
"244","stim/objects/HouseObjects/ballofstring3.png",277,6,270,0.5,"stim/32.jpeg",3,2,1,2,"HouseObjects",2,2,"right","left",0.802000046,0,0,1,0,NA,NA,NA,NA,NA,NA,NA,NA,NA,NA,NA,NA,NA,NA,NA,NA,NA,NA,NA,NA,NA,NA,NA,NA
"258","stim/objects/HouseObjects/blender4.png",278,6,271,0.3,"stim/62.jpeg",6,2,2,1,"HouseObjects",2,4,"right","left",0.587999821,0,0,1,0,132,6,1,0.3,2,"stim/62.jpeg",6,2,"stim/62.jpeg",4,"right",1.184000015,2,3,0.750999928,3,1.597000122,132,0,0,NA,0,NA,1
"325","stim/objects/HouseObjects/match3.png",279,6,272,0.9,"stim/14.jpeg",1,4,3,2,"HouseObjects",2,3,"right","right",0.601000071,1,1,1,0,NA,NA,NA,NA,NA,NA,NA,NA,NA,NA,NA,NA,NA,NA,NA,NA,NA,NA,NA,NA,NA,NA,NA,NA
"252","stim/objects/HouseObjects/basket4.png",280,6,273,0.7,"stim/52.jpeg",5,2,2,1,"HouseObjects",2,2,"right","right",0.560000181,1,1,1,0,53,6,1,0.7,2,"stim/52.jpeg",5,2,"stim/52.jpeg",2,"left",1.435000181,3,3,0.818000078,1,1.444000006,53,1,0,0,0,0,1
"310","stim/objects/HouseObjects/lintroller3.png",281,6,274,0.9,"stim/12.jpeg",1,2,3,2,"HouseObjects",2,3,"right","right",0.672999859,1,1,1,0,NA,NA,NA,NA,NA,NA,NA,NA,NA,NA,NA,NA,NA,NA,NA,NA,NA,NA,NA,NA,NA,NA,NA,NA
"250","stim/objects/HouseObjects/basket3.png",282,6,275,0.5,"stim/34.jpeg",3,4,1,2,"HouseObjects",2,3,"right","right",0.648000002,1,1,1,0,NA,NA,NA,NA,NA,NA,NA,NA,NA,NA,NA,NA,NA,NA,NA,NA,NA,NA,NA,NA,NA,NA,NA,NA
"412","stim/objects/Instruments/balalaika3.png",283,6,276,0.5,"stim/33.jpeg",3,3,1,2,"Instruments",1,2,"left","right",0.539999962,0,0,1,0,NA,NA,NA,NA,NA,NA,NA,NA,NA,NA,NA,NA,NA,NA,NA,NA,NA,NA,NA,NA,NA,NA,NA,NA
"246","stim/objects/HouseObjects/ballofstring4.png",284,6,277,0.7,"stim/54.jpeg",5,4,2,1,"HouseObjects",2,3,"right","right",0.489000082,1,1,1,0,86,6,1,0.7,2,"stim/54.jpeg",5,4,"stim/54.jpeg",3,"left",0.927000046,3,3,1.032999992,2,0.617000103,86,1,0,0,0,0,1
"326","stim/objects/HouseObjects/match3.png",285,6,278,0.9,"stim/14.jpeg",1,4,3,2,"HouseObjects",2,3,"right","right",0.566999912,1,1,1,0,NA,NA,NA,NA,NA,NA,NA,NA,NA,NA,NA,NA,NA,NA,NA,NA,NA,NA,NA,NA,NA,NA,NA,NA
"448","stim/objects/Instruments/laud3.png",286,6,279,0.7,"stim/64.jpeg",6,4,2,2,"Instruments",1,1,"left","left",0.559999943,1,1,1,0,NA,NA,NA,NA,NA,NA,NA,NA,NA,NA,NA,NA,NA,NA,NA,NA,NA,NA,NA,NA,NA,NA,NA,NA
"327","stim/objects/HouseObjects/match3.png",287,6,280,0.9,"stim/13.jpeg",1,3,3,2,"HouseObjects",2,3,"right","right",0.59100008,1,1,1,0,NA,NA,NA,NA,NA,NA,NA,NA,NA,NA,NA,NA,NA,NA,NA,NA,NA,NA,NA,NA,NA,NA,NA,NA
"491","stim/objects/Instruments/musicsheet3.png",288,6,281,0.9,"stim/21.jpeg",2,1,3,2,"Instruments",1,4,"left","left",0.555000067,1,1,1,0,NA,NA,NA,NA,NA,NA,NA,NA,NA,NA,NA,NA,NA,NA,NA,NA,NA,NA,NA,NA,NA,NA,NA,NA
"392","stim/objects/HouseObjects/spraybottle3.png",289,6,282,0.5,"stim/43.jpeg",4,3,1,1,"HouseObjects",2,4,"right","right",0.484999895,1,1,1,0,111,6,1,0.5,2,"stim/43.jpeg",4,3,"stim/43.jpeg",4,"right",1.038000107,2,3,0.861999989,4,1.152000189,111,0,1,NA,1,NA,1
"529","stim/objects/Instruments/oboe3.png",290,6,283,0.9,"stim/23.jpeg",2,3,3,2,"Instruments",1,4,"left","left",0.597999811,1,1,1,0,NA,NA,NA,NA,NA,NA,NA,NA,NA,NA,NA,NA,NA,NA,NA,NA,NA,NA,NA,NA,NA,NA,NA,NA
"362","stim/objects/HouseObjects/pitcher3.png",291,6,284,0.9,"stim/11.jpeg",1,1,3,2,"HouseObjects",2,1,"right","right",0.612999916,1,1,1,0,NA,NA,NA,NA,NA,NA,NA,NA,NA,NA,NA,NA,NA,NA,NA,NA,NA,NA,NA,NA,NA,NA,NA,NA
"530","stim/objects/Instruments/oboe3.png",292,6,285,0.9,"stim/21.jpeg",2,1,3,2,"Instruments",1,2,"left","left",0.517999887,1,1,1,0,NA,NA,NA,NA,NA,NA,NA,NA,NA,NA,NA,NA,NA,NA,NA,NA,NA,NA,NA,NA,NA,NA,NA,NA
"456","stim/objects/Instruments/marimba3.png",293,6,286,0.9,"stim/24.jpeg",2,4,3,2,"Instruments",1,1,"left","left",0.728000164,1,1,1,0,NA,NA,NA,NA,NA,NA,NA,NA,NA,NA,NA,NA,NA,NA,NA,NA,NA,NA,NA,NA,NA,NA,NA,NA
"478","stim/objects/Instruments/metronome3.png",294,6,287,0.9,"stim/24.jpeg",2,4,3,2,"Instruments",1,2,"left","left",0.525000095,1,1,1,0,NA,NA,NA,NA,NA,NA,NA,NA,NA,NA,NA,NA,NA,NA,NA,NA,NA,NA,NA,NA,NA,NA,NA,NA
"409","stim/objects/Instruments/acousticguitar3.png",295,6,288,0.5,"stim/33.jpeg",3,3,1,2,"Instruments",1,1,"left","right",0.654999971,0,0,1,0,NA,NA,NA,NA,NA,NA,NA,NA,NA,NA,NA,NA,NA,NA,NA,NA,NA,NA,NA,NA,NA,NA,NA,NA
"276","stim/objects/HouseObjects/clothespin3.png",296,6,289,0.7,"stim/51.jpeg",5,1,2,2,"HouseObjects",2,2,"right","right",0.625999928,1,1,1,0,NA,NA,NA,NA,NA,NA,NA,NA,NA,NA,NA,NA,NA,NA,NA,NA,NA,NA,NA,NA,NA,NA,NA,NA
"492","stim/objects/Instruments/musicsheet3.png",297,6,290,0.9,"stim/22.jpeg",2,2,3,2,"Instruments",1,4,"left","left",0.589999914,1,1,1,0,NA,NA,NA,NA,NA,NA,NA,NA,NA,NA,NA,NA,NA,NA,NA,NA,NA,NA,NA,NA,NA,NA,NA,NA
"261","stim/objects/HouseObjects/bottle4.png",298,6,291,0.3,"stim/63.jpeg",6,3,2,1,"HouseObjects",2,4,"right","left",0.578999996,0,0,1,0,65,6,1,0.3,2,"stim/63.jpeg",6,3,"stim/63.jpeg",4,"right",0.963999987,2,3,0.871000051,2,0.891000032,65,0,1,NA,0,NA,1
"363","stim/objects/HouseObjects/pitcher3.png",299,6,292,0.9,"stim/13.jpeg",1,3,3,2,"HouseObjects",2,4,"right","right",0.709000111,1,1,1,0,NA,NA,NA,NA,NA,NA,NA,NA,NA,NA,NA,NA,NA,NA,NA,NA,NA,NA,NA,NA,NA,NA,NA,NA
"542","stim/objects/Instruments/panflute4.png",300,6,293,0.1,"stim/12.jpeg",1,2,3,1,"Instruments",1,1,"left","right",0.608999968,0,0,1,0,113,6,1,0.1,1,"stim/12.jpeg",1,2,"stim/12.jpeg",1,"right",1.43900013,2,3,0.703999996,2,0.896000147,113,0,0,NA,0,NA,1
"364","stim/objects/HouseObjects/pitcher3.png",301,6,294,0.9,"stim/14.jpeg",1,4,3,2,"HouseObjects",2,1,"right","right",0.701999903,1,1,1,0,NA,NA,NA,NA,NA,NA,NA,NA,NA,NA,NA,NA,NA,NA,NA,NA,NA,NA,NA,NA,NA,NA,NA,NA
"285","stim/objects/HouseObjects/ironingboard3.png",302,6,295,0.7,"stim/53.jpeg",5,3,2,2,"HouseObjects",2,1,"right","right",0.671999931,1,1,1,0,NA,NA,NA,NA,NA,NA,NA,NA,NA,NA,NA,NA,NA,NA,NA,NA,NA,NA,NA,NA,NA,NA,NA,NA
"563","stim/objects/Instruments/tuba3.png",303,6,296,0.3,"stim/52.jpeg",5,2,2,1,"Instruments",1,1,"left","right",0.542000055,0,0,1,0,179,6,1,0.3,1,"stim/52.jpeg",5,2,"stim/52.jpeg",1,"right",0.618000031,2,3,0.934999943,2,0.801000118,179,0,0,NA,0,NA,1
"558","stim/objects/Instruments/triangle4.png",304,6,297,0.9,"stim/24.jpeg",2,4,3,1,"Instruments",1,3,"left","left",0.552999973,1,1,1,0,197,6,1,0.9,1,"stim/24.jpeg",2,4,"stim/24.jpeg",3,"right",1.027999878,3,3,1.190999985,1,1.483999968,197,0,0,NA,0,NA,1
"375","stim/objects/HouseObjects/pitcher4.png",305,6,298,0.9,"stim/13.jpeg",1,3,3,1,"HouseObjects",2,3,"right","right",0.599999905,1,1,1,0,119,6,1,0.9,2,"stim/13.jpeg",1,3,"stim/13.jpeg",3,"right",0.700000048,2,4,1.099999905,1,0.97300005,119,0,0,NA,0,NA,1
"270","stim/objects/HouseObjects/clock4.png",306,6,299,0.3,"stim/62.jpeg",6,2,2,1,"HouseObjects",2,4,"right","right",0.583000183,1,1,1,0,15,6,1,0.3,2,"stim/62.jpeg",6,2,"stim/62.jpeg",4,"left",1.340000153,3,1,4.110999823,2,1.228000164,15,1,0,0,0,0,1
"245","stim/objects/HouseObjects/ballofstring3.png",307,6,300,0.5,"stim/31.jpeg",3,1,1,2,"HouseObjects",2,2,"right","right",0.719000101,1,1,1,0,NA,NA,NA,NA,NA,NA,NA,NA,NA,NA,NA,NA,NA,NA,NA,NA,NA,NA,NA,NA,NA,NA,NA,NA
"551","stim/objects/Instruments/speaker3.png",308,6,301,0.5,"stim/41.jpeg",4,1,1,1,"Instruments",1,4,"left","left",0.627000093,1,1,1,0,182,6,1,0.5,2,"stim/41.jpeg",4,1,"stim/41.jpeg",4,"right",0.835999966,3,2,0.717000008,4,1.03399992,182,0,0,NA,1,NA,1
"511","stim/objects/Instruments/musicstand3.png",309,6,302,0.9,"stim/24.jpeg",2,4,3,2,"Instruments",1,2,"left","left",0.5849998,1,1,1,0,NA,NA,NA,NA,NA,NA,NA,NA,NA,NA,NA,NA,NA,NA,NA,NA,NA,NA,NA,NA,NA,NA,NA,NA
"256","stim/objects/HouseObjects/blender3.png",310,6,303,0.5,"stim/42.jpeg",4,2,1,2,"HouseObjects",2,4,"right","right",0.586999893,1,1,1,0,NA,NA,NA,NA,NA,NA,NA,NA,NA,NA,NA,NA,NA,NA,NA,NA,NA,NA,NA,NA,NA,NA,NA,NA
"512","stim/objects/Instruments/musicstand3.png",311,6,304,0.9,"stim/22.jpeg",2,2,3,2,"Instruments",1,2,"left","left",0.677999973,1,1,1,0,NA,NA,NA,NA,NA,NA,NA,NA,NA,NA,NA,NA,NA,NA,NA,NA,NA,NA,NA,NA,NA,NA,NA,NA
"532","stim/objects/Instruments/oboe3.png",312,6,305,0.9,"stim/23.jpeg",2,3,3,2,"Instruments",1,4,"left","left",0.563999891,1,1,1,0,NA,NA,NA,NA,NA,NA,NA,NA,NA,NA,NA,NA,NA,NA,NA,NA,NA,NA,NA,NA,NA,NA,NA,NA
"493","stim/objects/Instruments/musicsheet3.png",313,6,306,0.9,"stim/22.jpeg",2,2,3,2,"Instruments",1,2,"left","left",0.585999966,1,1,1,0,NA,NA,NA,NA,NA,NA,NA,NA,NA,NA,NA,NA,NA,NA,NA,NA,NA,NA,NA,NA,NA,NA,NA,NA
"513","stim/objects/Instruments/musicstand3.png",314,6,307,0.9,"stim/22.jpeg",2,2,3,2,"Instruments",1,3,"left","left",0.564999819,1,1,1,0,NA,NA,NA,NA,NA,NA,NA,NA,NA,NA,NA,NA,NA,NA,NA,NA,NA,NA,NA,NA,NA,NA,NA,NA
"345","stim/objects/HouseObjects/pan3.png",315,6,308,0.9,"stim/11.jpeg",1,1,3,2,"HouseObjects",2,2,"right","right",0.702000141,1,1,1,0,NA,NA,NA,NA,NA,NA,NA,NA,NA,NA,NA,NA,NA,NA,NA,NA,NA,NA,NA,NA,NA,NA,NA,NA
"292","stim/objects/HouseObjects/knife3.png",316,6,309,0.9,"stim/12.jpeg",1,2,3,2,"HouseObjects",2,1,"right","right",0.605000019,1,1,1,0,NA,NA,NA,NA,NA,NA,NA,NA,NA,NA,NA,NA,NA,NA,NA,NA,NA,NA,NA,NA,NA,NA,NA,NA
"480","stim/objects/Instruments/metronome3.png",317,6,310,0.9,"stim/24.jpeg",2,4,3,2,"Instruments",1,3,"left","left",0.582000017,1,1,1,0,NA,NA,NA,NA,NA,NA,NA,NA,NA,NA,NA,NA,NA,NA,NA,NA,NA,NA,NA,NA,NA,NA,NA,NA
"514","stim/objects/Instruments/musicstand3.png",318,6,311,0.9,"stim/23.jpeg",2,3,3,2,"Instruments",1,2,"left","left",0.552000046,1,1,1,0,NA,NA,NA,NA,NA,NA,NA,NA,NA,NA,NA,NA,NA,NA,NA,NA,NA,NA,NA,NA,NA,NA,NA,NA
"311","stim/objects/HouseObjects/lintroller3.png",319,6,312,0.9,"stim/11.jpeg",1,1,3,2,"HouseObjects",2,4,"right","right",0.713999987,1,1,1,0,NA,NA,NA,NA,NA,NA,NA,NA,NA,NA,NA,NA,NA,NA,NA,NA,NA,NA,NA,NA,NA,NA,NA,NA
"243","stim/objects/HouseObjects/ashtray4.png",320,6,313,0.7,"stim/53.jpeg",5,3,2,1,"HouseObjects",2,2,"right","right",0.589999914,1,1,1,0,126,6,1,0.7,2,"stim/53.jpeg",5,3,"stim/53.jpeg",2,"left",1.268000126,2,3,1.19900012,2,0.743000031,126,1,1,1,1,1,1
"293","stim/objects/HouseObjects/knife3.png",321,6,314,0.9,"stim/13.jpeg",1,3,3,2,"HouseObjects",2,4,"right","right",0.568000078,1,1,1,0,NA,NA,NA,NA,NA,NA,NA,NA,NA,NA,NA,NA,NA,NA,NA,NA,NA,NA,NA,NA,NA,NA,NA,NA
"399","stim/objects/HouseObjects/thread4.png",322,6,315,0.1,"stim/21.jpeg",2,1,3,1,"HouseObjects",2,3,"right","left",0.618999958,0,0,1,0,143,6,1,0.1,2,"stim/21.jpeg",2,1,"stim/21.jpeg",3,"right",1.042999983,2,3,1.339000225,2,1.15199995,143,0,0,NA,0,NA,1
"459","stim/objects/Instruments/marimba3.png",323,6,316,0.9,"stim/23.jpeg",2,3,3,2,"Instruments",1,2,"left","left",0.605999947,1,1,1,0,NA,NA,NA,NA,NA,NA,NA,NA,NA,NA,NA,NA,NA,NA,NA,NA,NA,NA,NA,NA,NA,NA,NA,NA
"272","stim/objects/HouseObjects/clothesdryingrack3.png",324,6,317,0.7,"stim/51.jpeg",5,1,2,2,"HouseObjects",2,1,"right","right",0.595000029,1,1,1,0,NA,NA,NA,NA,NA,NA,NA,NA,NA,NA,NA,NA,NA,NA,NA,NA,NA,NA,NA,NA,NA,NA,NA,NA
"424","stim/objects/Instruments/cello3.png",325,6,318,0.5,"stim/44.jpeg",4,4,1,2,"Instruments",1,1,"left","right",0.760999918,0,0,1,0,NA,NA,NA,NA,NA,NA,NA,NA,NA,NA,NA,NA,NA,NA,NA,NA,NA,NA,NA,NA,NA,NA,NA,NA
"328","stim/objects/HouseObjects/match3.png",326,6,319,0.9,"stim/13.jpeg",1,3,3,2,"HouseObjects",2,1,"right","right",0.613999844,1,1,1,0,NA,NA,NA,NA,NA,NA,NA,NA,NA,NA,NA,NA,NA,NA,NA,NA,NA,NA,NA,NA,NA,NA,NA,NA
"427","stim/objects/Instruments/chime3.png",327,6,320,0.5,"stim/41.jpeg",4,1,1,2,"Instruments",1,1,"left","right",0.652999878,0,0,1,0,NA,NA,NA,NA,NA,NA,NA,NA,NA,NA,NA,NA,NA,NA,NA,NA,NA,NA,NA,NA,NA,NA,NA,NA
"515","stim/objects/Instruments/musicstand3.png",328,6,321,0.9,"stim/23.jpeg",2,3,3,2,"Instruments",1,2,"left","left",0.553999901,1,1,1,0,NA,NA,NA,NA,NA,NA,NA,NA,NA,NA,NA,NA,NA,NA,NA,NA,NA,NA,NA,NA,NA,NA,NA,NA
"274","stim/objects/HouseObjects/clothesdryingrack4.png",329,6,322,0.3,"stim/63.jpeg",6,3,2,1,"HouseObjects",2,3,"right","left",0.822999954,0,0,1,0,41,6,1,0.3,2,"stim/63.jpeg",6,3,"stim/63.jpeg",3,"right",0.81099987,3,3,1.2099998,3,1.872999907,41,0,1,NA,1,NA,1
"286","stim/objects/HouseObjects/ironingboard4.png",330,6,323,0.3,"stim/62.jpeg",6,2,2,1,"HouseObjects",2,2,"right","left",0.571000099,0,0,1,0,58,6,1,0.3,2,"stim/62.jpeg",6,2,"stim/62.jpeg",2,"right",1.362999916,2,3,1.366999865,2,0.845000029,58,0,0,NA,1,NA,1
"518","stim/objects/Instruments/musicstand3.png",331,6,324,0.9,"stim/24.jpeg",2,4,3,2,"Instruments",1,1,"left","left",0.490999937,1,1,1,0,NA,NA,NA,NA,NA,NA,NA,NA,NA,NA,NA,NA,NA,NA,NA,NA,NA,NA,NA,NA,NA,NA,NA,NA
"312","stim/objects/HouseObjects/lintroller3.png",332,6,325,0.9,"stim/11.jpeg",1,1,3,2,"HouseObjects",2,1,"right","right",0.606000185,1,1,1,0,NA,NA,NA,NA,NA,NA,NA,NA,NA,NA,NA,NA,NA,NA,NA,NA,NA,NA,NA,NA,NA,NA,NA,NA
"433","stim/objects/Instruments/cornet3.png",333,6,326,0.5,"stim/44.jpeg",4,4,1,2,"Instruments",1,3,"left","",NA,0,0,1,0,NA,NA,NA,NA,NA,NA,NA,NA,NA,NA,NA,NA,NA,NA,NA,NA,NA,NA,NA,NA,NA,NA,NA,NA
"346","stim/objects/HouseObjects/pan3.png",334,6,327,0.9,"stim/11.jpeg",1,1,3,2,"HouseObjects",2,3,"right","right",0.559000015,1,1,1,0,NA,NA,NA,NA,NA,NA,NA,NA,NA,NA,NA,NA,NA,NA,NA,NA,NA,NA,NA,NA,NA,NA,NA,NA
"430","stim/objects/Instruments/clarinet3.png",335,6,328,0.5,"stim/42.jpeg",4,2,1,2,"Instruments",1,4,"left","right",0.832999945,0,0,1,0,NA,NA,NA,NA,NA,NA,NA,NA,NA,NA,NA,NA,NA,NA,NA,NA,NA,NA,NA,NA,NA,NA,NA,NA
"280","stim/objects/HouseObjects/iron3.png",336,6,329,0.7,"stim/51.jpeg",5,1,2,2,"HouseObjects",2,1,"right","right",0.765000105,1,1,1,0,NA,NA,NA,NA,NA,NA,NA,NA,NA,NA,NA,NA,NA,NA,NA,NA,NA,NA,NA,NA,NA,NA,NA,NA
"534","stim/objects/Instruments/oboe3.png",337,6,330,0.9,"stim/24.jpeg",2,4,3,2,"Instruments",1,3,"left","left",0.648000002,1,1,1,0,NA,NA,NA,NA,NA,NA,NA,NA,NA,NA,NA,NA,NA,NA,NA,NA,NA,NA,NA,NA,NA,NA,NA,NA
"273","stim/objects/HouseObjects/clothesdryingrack3.png",338,6,331,0.7,"stim/54.jpeg",5,4,2,2,"HouseObjects",2,3,"right","right",0.842000008,1,1,1,0,NA,NA,NA,NA,NA,NA,NA,NA,NA,NA,NA,NA,NA,NA,NA,NA,NA,NA,NA,NA,NA,NA,NA,NA
"519","stim/objects/Instruments/musicstand3.png",339,6,332,0.9,"stim/23.jpeg",2,3,3,2,"Instruments",1,4,"left","left",0.857000113,1,1,1,0,NA,NA,NA,NA,NA,NA,NA,NA,NA,NA,NA,NA,NA,NA,NA,NA,NA,NA,NA,NA,NA,NA,NA,NA
"294","stim/objects/HouseObjects/knife3.png",340,6,333,0.9,"stim/14.jpeg",1,4,3,2,"HouseObjects",2,2,"right","right",0.765000105,1,1,1,0,NA,NA,NA,NA,NA,NA,NA,NA,NA,NA,NA,NA,NA,NA,NA,NA,NA,NA,NA,NA,NA,NA,NA,NA
"452","stim/objects/Instruments/maraca3.png",341,6,334,0.7,"stim/62.jpeg",6,2,2,2,"Instruments",1,2,"left","left",0.861000061,1,1,1,0,NA,NA,NA,NA,NA,NA,NA,NA,NA,NA,NA,NA,NA,NA,NA,NA,NA,NA,NA,NA,NA,NA,NA,NA
"495","stim/objects/Instruments/musicsheet3.png",342,6,335,0.9,"stim/23.jpeg",2,3,3,2,"Instruments",1,3,"left","left",0.773999929,1,1,1,0,NA,NA,NA,NA,NA,NA,NA,NA,NA,NA,NA,NA,NA,NA,NA,NA,NA,NA,NA,NA,NA,NA,NA,NA
"295","stim/objects/HouseObjects/knife3.png",343,6,336,0.9,"stim/13.jpeg",1,3,3,2,"HouseObjects",2,1,"right","right",0.727999926,1,1,1,0,NA,NA,NA,NA,NA,NA,NA,NA,NA,NA,NA,NA,NA,NA,NA,NA,NA,NA,NA,NA,NA,NA,NA,NA
"441","stim/objects/Instruments/doublebass3.png",344,6,337,0.7,"stim/63.jpeg",6,3,2,2,"Instruments",1,3,"left","right",0.820000172,0,0,1,0,NA,NA,NA,NA,NA,NA,NA,NA,NA,NA,NA,NA,NA,NA,NA,NA,NA,NA,NA,NA,NA,NA,NA,NA
"366","stim/objects/HouseObjects/pitcher3.png",345,6,338,0.9,"stim/14.jpeg",1,4,3,2,"HouseObjects",2,3,"right","right",0.595000029,1,1,1,0,NA,NA,NA,NA,NA,NA,NA,NA,NA,NA,NA,NA,NA,NA,NA,NA,NA,NA,NA,NA,NA,NA,NA,NA
"405","stim/objects/HouseObjects/wateringcan4.png",346,6,339,0.1,"stim/24.jpeg",2,4,3,1,"HouseObjects",2,2,"right","left",0.574999809,0,0,1,0,62,6,1,0.1,2,"stim/24.jpeg",2,4,"stim/24.jpeg",2,"right",0.772000074,1,3,1.038000107,4,1.435000181,62,0,0,NA,0,NA,1
"496","stim/objects/Instruments/musicsheet3.png",347,6,340,0.9,"stim/23.jpeg",2,3,3,2,"Instruments",1,1,"left","left",0.457000017,1,1,1,0,NA,NA,NA,NA,NA,NA,NA,NA,NA,NA,NA,NA,NA,NA,NA,NA,NA,NA,NA,NA,NA,NA,NA,NA
"376","stim/objects/HouseObjects/recyclingbin3.png",348,6,341,0.5,"stim/32.jpeg",3,2,1,1,"HouseObjects",2,3,"right","right",0.617000103,1,1,1,0,168,6,1,0.5,1,"stim/32.jpeg",3,2,"stim/32.jpeg",3,"left",1.05099988,3,2,1.730000019,3,1.459000111,168,1,1,1,1,1,1
"554","stim/objects/Instruments/tambourine4.png",349,6,342,0.9,"stim/22.jpeg",2,2,3,1,"Instruments",1,2,"left","left",0.534999847,1,1,1,0,54,6,1,0.9,1,"stim/22.jpeg",2,2,"stim/22.jpeg",2,"left",1.417999983,4,3,1.150000095,4,1.378999949,54,1,0,0,0,0,1
"497","stim/objects/Instruments/musicsheet3.png",350,6,343,0.9,"stim/23.jpeg",2,3,3,2,"Instruments",1,4,"left","left",0.840999842,1,1,1,0,NA,NA,NA,NA,NA,NA,NA,NA,NA,NA,NA,NA,NA,NA,NA,NA,NA,NA,NA,NA,NA,NA,NA,NA
"348","stim/objects/HouseObjects/pan3.png",351,6,344,0.9,"stim/12.jpeg",1,2,3,2,"HouseObjects",2,4,"right","right",0.634000063,1,1,1,0,NA,NA,NA,NA,NA,NA,NA,NA,NA,NA,NA,NA,NA,NA,NA,NA,NA,NA,NA,NA,NA,NA,NA,NA
"550","stim/objects/Instruments/saxophone4.png",352,6,345,0.1,"stim/12.jpeg",1,2,3,1,"Instruments",1,4,"left","",NA,0,0,1,0,57,6,1,0.1,1,"stim/12.jpeg",1,2,"stim/12.jpeg",4,"left",0.93599987,3,3,1.046000004,2,1.167000055,57,1,0,0,0,0,1
"329","stim/objects/HouseObjects/match3.png",353,6,346,0.9,"stim/11.jpeg",1,1,3,2,"HouseObjects",2,3,"right","right",0.867999792,1,1,1,0,NA,NA,NA,NA,NA,NA,NA,NA,NA,NA,NA,NA,NA,NA,NA,NA,NA,NA,NA,NA,NA,NA,NA,NA
"425","stim/objects/Instruments/cello3.png",354,6,347,0.5,"stim/41.jpeg",4,1,1,2,"Instruments",1,3,"left","right",0.625999928,0,0,1,0,NA,NA,NA,NA,NA,NA,NA,NA,NA,NA,NA,NA,NA,NA,NA,NA,NA,NA,NA,NA,NA,NA,NA,NA
"449","stim/objects/Instruments/laud3.png",355,6,348,0.7,"stim/61.jpeg",6,1,2,2,"Instruments",1,3,"left","left",0.582000017,1,1,1,0,NA,NA,NA,NA,NA,NA,NA,NA,NA,NA,NA,NA,NA,NA,NA,NA,NA,NA,NA,NA,NA,NA,NA,NA
"455","stim/objects/Instruments/maraca4.png",356,6,349,0.7,"stim/61.jpeg",6,1,2,1,"Instruments",1,2,"left","left",0.542999983,1,1,1,0,186,6,1,0.7,1,"stim/61.jpeg",6,1,"stim/61.jpeg",2,"right",0.910000086,3,3,1.823000193,2,0.634000063,186,0,0,NA,1,NA,1
"313","stim/objects/HouseObjects/lintroller3.png",357,6,350,0.9,"stim/14.jpeg",1,4,3,2,"HouseObjects",2,4,"right","right",0.418000221,1,1,1,0,NA,NA,NA,NA,NA,NA,NA,NA,NA,NA,NA,NA,NA,NA,NA,NA,NA,NA,NA,NA,NA,NA,NA,NA
"259","stim/objects/HouseObjects/bottle3.png",358,6,351,0.5,"stim/44.jpeg",4,4,1,2,"HouseObjects",2,1,"right","right",0.746000051,1,1,1,0,NA,NA,NA,NA,NA,NA,NA,NA,NA,NA,NA,NA,NA,NA,NA,NA,NA,NA,NA,NA,NA,NA,NA,NA
"568","stim/objects/Instruments/vuvuzela4.png",359,6,352,0.9,"stim/21.jpeg",2,1,3,1,"Instruments",1,1,"left","left",0.638000011,1,1,1,0,80,6,1,0.9,1,"stim/21.jpeg",2,1,"stim/21.jpeg",1,"left",0.890000105,4,1,1.474999905,1,1.819999933,80,1,1,1,1,1,1
"330","stim/objects/HouseObjects/match3.png",360,6,353,0.9,"stim/12.jpeg",1,2,3,2,"HouseObjects",2,4,"right","left",0.707000017,0,0,1,0,NA,NA,NA,NA,NA,NA,NA,NA,NA,NA,NA,NA,NA,NA,NA,NA,NA,NA,NA,NA,NA,NA,NA,NA
"500","stim/objects/Instruments/musicsheet3.png",361,6,354,0.9,"stim/21.jpeg",2,1,3,2,"Instruments",1,4,"left","left",0.598999977,1,1,1,0,NA,NA,NA,NA,NA,NA,NA,NA,NA,NA,NA,NA,NA,NA,NA,NA,NA,NA,NA,NA,NA,NA,NA,NA
"381","stim/objects/HouseObjects/rubbergloves4.png",362,6,355,0.9,"stim/12.jpeg",1,2,3,1,"HouseObjects",2,3,"right","right",0.482999802,1,1,1,0,188,6,1,0.9,2,"stim/12.jpeg",1,2,"stim/12.jpeg",3,"left",1.00999999,4,1,1.200999975,3,1.083999872,188,1,0,0,1,1,1
"331","stim/objects/HouseObjects/match3.png",363,6,356,0.9,"stim/11.jpeg",1,1,3,2,"HouseObjects",2,2,"right","right",0.478999853,1,1,1,0,NA,NA,NA,NA,NA,NA,NA,NA,NA,NA,NA,NA,NA,NA,NA,NA,NA,NA,NA,NA,NA,NA,NA,NA
"460","stim/objects/Instruments/marimba3.png",364,6,357,0.9,"stim/21.jpeg",2,1,3,2,"Instruments",1,2,"left","left",0.549000025,1,1,1,0,NA,NA,NA,NA,NA,NA,NA,NA,NA,NA,NA,NA,NA,NA,NA,NA,NA,NA,NA,NA,NA,NA,NA,NA
"358","stim/objects/HouseObjects/pan4.png",365,6,358,0.9,"stim/12.jpeg",1,2,3,1,"HouseObjects",2,4,"right","right",0.559999943,1,1,1,0,83,6,1,0.9,2,"stim/12.jpeg",1,2,"stim/12.jpeg",4,"right",1.969000101,3,3,1.568000078,2,0.701999903,83,0,0,NA,0,NA,1
"501","stim/objects/Instruments/musicsheet3.png",366,6,359,0.9,"stim/21.jpeg",2,1,3,2,"Instruments",1,4,"left","left",0.624000072,1,1,1,0,NA,NA,NA,NA,NA,NA,NA,NA,NA,NA,NA,NA,NA,NA,NA,NA,NA,NA,NA,NA,NA,NA,NA,NA
"423","stim/objects/Instruments/bassguitar4.png",367,6,360,0.7,"stim/64.jpeg",6,4,2,1,"Instruments",1,4,"left","left",0.523999929,1,1,1,0,70,6,1,0.7,1,"stim/64.jpeg",6,4,"stim/64.jpeg",4,"left",0.927999973,4,1,2.950999975,2,2.005000114,70,1,0,0,0,0,1
"290","stim/objects/HouseObjects/key4.png",368,6,361,0.3,"stim/63.jpeg",6,3,2,1,"HouseObjects",2,4,"right","left",0.639999866,0,0,1,0,66,6,1,0.3,2,"stim/63.jpeg",6,3,"stim/63.jpeg",4,"left",1.42599988,3,2,0.851000071,2,0.810000181,66,1,0,0,0,0,1
"524","stim/objects/Instruments/oboe3.png",369,6,362,0.9,"stim/21.jpeg",2,1,3,2,"Instruments",1,4,"left","left",0.565999985,1,1,1,0,NA,NA,NA,NA,NA,NA,NA,NA,NA,NA,NA,NA,NA,NA,NA,NA,NA,NA,NA,NA,NA,NA,NA,NA
"517","stim/objects/Instruments/musicstand3.png",370,6,363,0.9,"stim/21.jpeg",2,1,3,2,"Instruments",1,2,"left","left",0.571000099,1,1,1,0,NA,NA,NA,NA,NA,NA,NA,NA,NA,NA,NA,NA,NA,NA,NA,NA,NA,NA,NA,NA,NA,NA,NA,NA
"297","stim/objects/HouseObjects/knife3.png",371,6,364,0.9,"stim/14.jpeg",1,4,3,2,"HouseObjects",2,2,"right","right",0.671000004,1,1,1,0,NA,NA,NA,NA,NA,NA,NA,NA,NA,NA,NA,NA,NA,NA,NA,NA,NA,NA,NA,NA,NA,NA,NA,NA
"307","stim/objects/HouseObjects/knife4.png",372,6,365,0.9,"stim/13.jpeg",1,3,3,1,"HouseObjects",2,1,"right","right",0.664999962,1,1,1,0,72,6,1,0.9,2,"stim/13.jpeg",1,3,"stim/13.jpeg",1,"left",1.642999887,2,3,0.739000082,2,1.122999907,72,1,1,1,0,0,1
"567","stim/objects/Instruments/vuvuzela3.png",373,6,366,0.3,"stim/54.jpeg",5,4,2,1,"Instruments",1,4,"left","right",0.601999998,0,0,1,0,166,6,1,0.3,1,"stim/54.jpeg",5,4,"stim/54.jpeg",4,"left",1.210000038,4,4,1.378000021,2,0.713000059,166,1,1,1,0,0,1
"308","stim/objects/HouseObjects/lintroller3.png",374,6,367,0.9,"stim/11.jpeg",1,1,3,2,"HouseObjects",2,1,"right","right",0.54700017,1,1,1,0,NA,NA,NA,NA,NA,NA,NA,NA,NA,NA,NA,NA,NA,NA,NA,NA,NA,NA,NA,NA,NA,NA,NA,NA
"287","stim/objects/HouseObjects/key3.png",375,6,368,0.7,"stim/51.jpeg",5,1,2,2,"HouseObjects",2,1,"right","right",0.650000095,1,1,1,0,NA,NA,NA,NA,NA,NA,NA,NA,NA,NA,NA,NA,NA,NA,NA,NA,NA,NA,NA,NA,NA,NA,NA,NA
"439","stim/objects/Instruments/cymbal4.png",376,6,369,0.7,"stim/61.jpeg",6,1,2,1,"Instruments",1,3,"left","right",0.602999926,0,0,1,0,190,6,1,0.7,1,"stim/61.jpeg",6,1,"stim/61.jpeg",3,"left",1.277999878,3,1,0.932999849,2,0.833999872,190,1,1,1,0,0,1
"417","stim/objects/Instruments/banjo4.png",377,6,370,0.3,"stim/51.jpeg",5,1,2,1,"Instruments",1,1,"left","right",0.61500001,0,0,1,0,155,6,1,0.3,1,"stim/51.jpeg",5,1,"stim/51.jpeg",1,"right",1.901000023,2,1,0.906000137,2,1.321000099,155,0,1,NA,0,NA,1
"389","stim/objects/HouseObjects/scale4.png",378,6,371,0.1,"stim/24.jpeg",2,4,3,1,"HouseObjects",2,1,"right","left",0.548000097,0,0,1,0,19,6,1,0.1,2,"stim/24.jpeg",2,4,"stim/24.jpeg",1,"right",0.877999783,2,3,1.738000154,4,1.085000038,19,0,0,NA,0,NA,1
"262","stim/objects/HouseObjects/broom3.png",379,6,372,0.5,"stim/44.jpeg",4,4,1,2,"HouseObjects",2,3,"right","right",0.69299984,1,1,1,0,NA,NA,NA,NA,NA,NA,NA,NA,NA,NA,NA,NA,NA,NA,NA,NA,NA,NA,NA,NA,NA,NA,NA,NA
"382","stim/objects/HouseObjects/rug3.png",380,6,373,0.5,"stim/31.jpeg",3,1,1,1,"HouseObjects",2,4,"right","right",0.666000128,1,1,1,0,17,6,1,0.5,1,"stim/31.jpeg",3,1,"stim/31.jpeg",4,"left",1.10800004,4,4,7.589999914,1,0.623000145,17,1,0,0,0,0,1
"444","stim/objects/Instruments/keyboard3.png",381,6,374,0.7,"stim/63.jpeg",6,3,2,2,"Instruments",1,3,"left","left",0.657999992,1,1,1,0,NA,NA,NA,NA,NA,NA,NA,NA,NA,NA,NA,NA,NA,NA,NA,NA,NA,NA,NA,NA,NA,NA,NA,NA
"385","stim/objects/HouseObjects/safetypin4.png",382,6,375,0.9,"stim/14.jpeg",1,4,3,1,"HouseObjects",2,4,"right","right",0.548000097,1,1,1,0,48,6,1,0.9,2,"stim/14.jpeg",1,4,"stim/14.jpeg",4,"right",0.871999979,2,3,1.220999956,2,2.169999838,48,0,0,NA,0,NA,1
"368","stim/objects/HouseObjects/pitcher3.png",383,6,376,0.9,"stim/12.jpeg",1,2,3,2,"HouseObjects",2,2,"right","",NA,0,0,1,0,NA,NA,NA,NA,NA,NA,NA,NA,NA,NA,NA,NA,NA,NA,NA,NA,NA,NA,NA,NA,NA,NA,NA,NA
"472","stim/objects/Instruments/marimba4.png",384,6,377,0.1,"stim/11.jpeg",1,1,3,1,"Instruments",1,4,"left","right",0.54399991,0,0,1,0,198,6,1,0.1,1,"stim/11.jpeg",1,1,"stim/11.jpeg",4,"right",1.295000076,4,4,0.851000071,2,1.427000046,198,0,0,NA,0,NA,1
"526","stim/objects/Instruments/oboe3.png",385,6,378,0.9,"stim/22.jpeg",2,2,3,2,"Instruments",1,1,"left","left",0.486999989,1,1,1,0,NA,NA,NA,NA,NA,NA,NA,NA,NA,NA,NA,NA,NA,NA,NA,NA,NA,NA,NA,NA,NA,NA,NA,NA
"347","stim/objects/HouseObjects/pan3.png",386,6,379,0.9,"stim/12.jpeg",1,2,3,2,"HouseObjects",2,3,"right","right",0.556999922,1,1,1,0,NA,NA,NA,NA,NA,NA,NA,NA,NA,NA,NA,NA,NA,NA,NA,NA,NA,NA,NA,NA,NA,NA,NA,NA
"410","stim/objects/Instruments/acousticguitar3.png",387,6,380,0.5,"stim/32.jpeg",3,2,1,2,"Instruments",1,3,"left","right",0.613000154,0,0,1,0,NA,NA,NA,NA,NA,NA,NA,NA,NA,NA,NA,NA,NA,NA,NA,NA,NA,NA,NA,NA,NA,NA,NA,NA
"369","stim/objects/HouseObjects/pitcher3.png",388,6,381,0.9,"stim/11.jpeg",1,1,3,2,"HouseObjects",2,3,"right","right",0.570000172,1,1,1,0,NA,NA,NA,NA,NA,NA,NA,NA,NA,NA,NA,NA,NA,NA,NA,NA,NA,NA,NA,NA,NA,NA,NA,NA
"481","stim/objects/Instruments/metronome3.png",389,6,382,0.9,"stim/22.jpeg",2,2,3,2,"Instruments",1,1,"left","left",0.529000044,1,1,1,0,NA,NA,NA,NA,NA,NA,NA,NA,NA,NA,NA,NA,NA,NA,NA,NA,NA,NA,NA,NA,NA,NA,NA,NA
"482","stim/objects/Instruments/metronome3.png",390,6,383,0.9,"stim/21.jpeg",2,1,3,2,"Instruments",1,3,"left","left",0.588000059,1,1,1,0,NA,NA,NA,NA,NA,NA,NA,NA,NA,NA,NA,NA,NA,NA,NA,NA,NA,NA,NA,NA,NA,NA,NA,NA
"506","stim/objects/Instruments/musicsheet4.png",391,6,384,0.1,"stim/13.jpeg",1,3,3,1,"Instruments",1,1,"left","right",0.523000002,0,0,1,0,92,6,1,0.1,1,"stim/13.jpeg",1,3,"stim/13.jpeg",1,"right",1.171999931,2,2,1.793000221,2,1.184999943,92,0,0,NA,0,NA,1
"426","stim/objects/Instruments/cello4.png",392,6,385,0.7,"stim/61.jpeg",6,1,2,1,"Instruments",1,4,"left","left",0.589999914,1,1,1,0,38,6,1,0.7,1,"stim/61.jpeg",6,1,"stim/61.jpeg",4,"left",1.717000008,4,3,1.368000031,1,1.917999983,38,1,0,0,0,0,1
"342","stim/objects/HouseObjects/pan3.png",393,6,386,0.9,"stim/13.jpeg",1,3,3,2,"HouseObjects",2,4,"right","right",0.659999847,1,1,1,0,NA,NA,NA,NA,NA,NA,NA,NA,NA,NA,NA,NA,NA,NA,NA,NA,NA,NA,NA,NA,NA,NA,NA,NA
"400","stim/objects/HouseObjects/towel3.png",394,6,387,0.7,"stim/54.jpeg",5,4,2,1,"HouseObjects",2,3,"right","right",0.654999971,1,1,1,0,74,6,1,0.7,2,"stim/54.jpeg",5,4,"stim/54.jpeg",3,"left",1.075000048,3,4,1.666999817,3,1.376000166,74,1,1,1,1,1,1
"393","stim/objects/HouseObjects/spraybottle4.png",395,6,388,0.1,"stim/22.jpeg",2,2,3,1,"HouseObjects",2,2,"right","left",0.544999838,0,0,1,0,12,6,1,0.1,2,"stim/22.jpeg",2,2,"stim/22.jpeg",2,"left",3.005000114,4,3,2.233999968,2,1.332000017,12,1,0,0,1,1,1
"520","stim/objects/Instruments/musicstand3.png",396,6,389,0.9,"stim/24.jpeg",2,4,3,2,"Instruments",1,4,"left","left",0.5,1,1,1,0,NA,NA,NA,NA,NA,NA,NA,NA,NA,NA,NA,NA,NA,NA,NA,NA,NA,NA,NA,NA,NA,NA,NA,NA
"299","stim/objects/HouseObjects/knife3.png",397,6,390,0.9,"stim/14.jpeg",1,4,3,2,"HouseObjects",2,2,"right","right",0.646000147,1,1,1,0,NA,NA,NA,NA,NA,NA,NA,NA,NA,NA,NA,NA,NA,NA,NA,NA,NA,NA,NA,NA,NA,NA,NA,NA
"300","stim/objects/HouseObjects/knife3.png",398,6,391,0.9,"stim/12.jpeg",1,2,3,2,"HouseObjects",2,2,"right","right",0.585000038,1,1,1,0,NA,NA,NA,NA,NA,NA,NA,NA,NA,NA,NA,NA,NA,NA,NA,NA,NA,NA,NA,NA,NA,NA,NA,NA
"490","stim/objects/Instruments/musicsheet3.png",399,6,392,0.9,"stim/22.jpeg",2,2,3,2,"Instruments",1,2,"left","right",0.467999935,0,0,1,0,NA,NA,NA,NA,NA,NA,NA,NA,NA,NA,NA,NA,NA,NA,NA,NA,NA,NA,NA,NA,NA,NA,NA,NA
"395","stim/objects/HouseObjects/teapot4.png",400,6,393,0.1,"stim/23.jpeg",2,3,3,1,"HouseObjects",2,2,"right","left",0.488999844,0,0,1,0,147,6,1,0.1,2,"stim/23.jpeg",2,3,"stim/23.jpeg",2,"right",0.742000103,1,3,1.371000051,3,1.082999945,147,0,1,NA,0,NA,1
"545","stim/objects/Instruments/record_player3.png",401,6,394,0.5,"stim/32.jpeg",3,2,1,1,"Instruments",1,3,"left","right",0.792000055,0,0,1,0,97,6,1,0.5,1,"stim/32.jpeg",3,2,"stim/32.jpeg",3,"right",0.599999905,2,4,1.180000067,3,1.144000053,97,0,0,NA,1,NA,1
"450","stim/objects/Instruments/laud3.png",402,6,395,0.7,"stim/62.jpeg",6,2,2,2,"Instruments",1,4,"left","left",0.633000135,1,1,1,0,NA,NA,NA,NA,NA,NA,NA,NA,NA,NA,NA,NA,NA,NA,NA,NA,NA,NA,NA,NA,NA,NA,NA,NA
"301","stim/objects/HouseObjects/knife3.png",403,6,396,0.9,"stim/12.jpeg",1,2,3,2,"HouseObjects",2,3,"right","right",0.546999931,1,1,1,0,NA,NA,NA,NA,NA,NA,NA,NA,NA,NA,NA,NA,NA,NA,NA,NA,NA,NA,NA,NA,NA,NA,NA,NA
"562","stim/objects/Instruments/trumpet4.png",404,6,397,0.9,"stim/22.jpeg",2,2,3,1,"Instruments",1,1,"left","left",0.660000086,1,1,1,0,154,6,1,0.9,1,"stim/22.jpeg",2,2,"stim/22.jpeg",1,"right",0.868000031,3,3,0.77699995,3,0.153000116,154,0,0,NA,0,NA,1
"284","stim/objects/HouseObjects/ironingboard3.png",405,6,398,0.7,"stim/52.jpeg",5,2,2,2,"HouseObjects",2,2,"right","right",0.601999998,1,1,1,0,NA,NA,NA,NA,NA,NA,NA,NA,NA,NA,NA,NA,NA,NA,NA,NA,NA,NA,NA,NA,NA,NA,NA,NA
"370","stim/objects/HouseObjects/pitcher3.png",406,6,399,0.9,"stim/11.jpeg",1,1,3,2,"HouseObjects",2,4,"right","right",0.539000034,1,1,1,0,NA,NA,NA,NA,NA,NA,NA,NA,NA,NA,NA,NA,NA,NA,NA,NA,NA,NA,NA,NA,NA,NA,NA,NA
"406","stim/objects/Instruments/accordion3.png",407,6,400,0.5,"stim/32.jpeg",3,2,1,2,"Instruments",1,3,"left","right",0.60800004,0,0,1,0,NA,NA,NA,NA,NA,NA,NA,NA,NA,NA,NA,NA,NA,NA,NA,NA,NA,NA,NA,NA,NA,NA,NA,NA
"351","stim/objects/HouseObjects/pan3.png",408,6,401,0.9,"stim/13.jpeg",1,3,3,2,"HouseObjects",2,2,"right","right",0.521000147,1,1,1,0,NA,NA,NA,NA,NA,NA,NA,NA,NA,NA,NA,NA,NA,NA,NA,NA,NA,NA,NA,NA,NA,NA,NA,NA
"296","stim/objects/HouseObjects/knife3.png",409,6,402,0.9,"stim/11.jpeg",1,1,3,2,"HouseObjects",2,1,"right","right",0.496999979,1,1,1,0,NA,NA,NA,NA,NA,NA,NA,NA,NA,NA,NA,NA,NA,NA,NA,NA,NA,NA,NA,NA,NA,NA,NA,NA
"343","stim/objects/HouseObjects/pan3.png",410,6,403,0.9,"stim/14.jpeg",1,4,3,2,"HouseObjects",2,2,"right","right",0.559000015,1,1,1,0,NA,NA,NA,NA,NA,NA,NA,NA,NA,NA,NA,NA,NA,NA,NA,NA,NA,NA,NA,NA,NA,NA,NA,NA
"371","stim/objects/HouseObjects/pitcher3.png",411,6,404,0.9,"stim/12.jpeg",1,2,3,2,"HouseObjects",2,3,"right","right",0.549999952,1,1,1,0,NA,NA,NA,NA,NA,NA,NA,NA,NA,NA,NA,NA,NA,NA,NA,NA,NA,NA,NA,NA,NA,NA,NA,NA
"461","stim/objects/Instruments/marimba3.png",412,6,405,0.9,"stim/22.jpeg",2,2,3,2,"Instruments",1,4,"left","right",0.424999952,0,0,1,0,NA,NA,NA,NA,NA,NA,NA,NA,NA,NA,NA,NA,NA,NA,NA,NA,NA,NA,NA,NA,NA,NA,NA,NA
"303","stim/objects/HouseObjects/knife3.png",413,6,406,0.9,"stim/13.jpeg",1,3,3,2,"HouseObjects",2,4,"right","right",0.524999857,1,1,1,0,NA,NA,NA,NA,NA,NA,NA,NA,NA,NA,NA,NA,NA,NA,NA,NA,NA,NA,NA,NA,NA,NA,NA,NA
"390","stim/objects/HouseObjects/sponge3.png",414,6,407,0.5,"stim/42.jpeg",4,2,1,1,"HouseObjects",2,1,"right","right",0.59800005,1,1,1,0,108,6,1,0.5,2,"stim/42.jpeg",4,2,"stim/42.jpeg",1,"right",1.034999847,2,3,1.040999889,3,1.483999968,108,0,0,NA,0,NA,1
"467","stim/objects/Instruments/marimba3.png",415,6,408,0.9,"stim/21.jpeg",2,1,3,2,"Instruments",1,3,"left","left",0.5400002,1,1,1,0,NA,NA,NA,NA,NA,NA,NA,NA,NA,NA,NA,NA,NA,NA,NA,NA,NA,NA,NA,NA,NA,NA,NA,NA
"247","stim/objects/HouseObjects/barbecuelighter3.png",416,6,409,0.5,"stim/33.jpeg",3,3,1,2,"HouseObjects",2,4,"right","right",0.544000149,1,1,1,0,NA,NA,NA,NA,NA,NA,NA,NA,NA,NA,NA,NA,NA,NA,NA,NA,NA,NA,NA,NA,NA,NA,NA,NA
"260","stim/objects/HouseObjects/bottle3.png",417,6,410,0.5,"stim/43.jpeg",4,3,1,2,"HouseObjects",2,3,"right","right",0.562999964,1,1,1,0,NA,NA,NA,NA,NA,NA,NA,NA,NA,NA,NA,NA,NA,NA,NA,NA,NA,NA,NA,NA,NA,NA,NA,NA
"443","stim/objects/Instruments/doublebass4.png",418,6,411,0.7,"stim/62.jpeg",6,2,2,1,"Instruments",1,3,"left","left",0.535000086,1,1,1,0,127,6,1,0.7,1,"stim/62.jpeg",6,2,"stim/62.jpeg",3,"left",1.069000006,3,3,0.675000191,2,0.700999975,127,1,0,0,0,0,1
"543","stim/objects/Instruments/pipepiano3.png",419,6,412,0.5,"stim/34.jpeg",3,4,1,1,"Instruments",1,1,"left","left",0.829999924,1,1,1,0,195,6,1,0.5,1,"stim/34.jpeg",3,4,"stim/34.jpeg",1,"left",0.727999926,4,1,1.102999926,2,0.55700016,195,1,0,0,0,0,1
"536","stim/objects/Instruments/oboe3.png",420,6,413,0.9,"stim/21.jpeg",2,1,3,2,"Instruments",1,4,"left","left",0.569999933,1,1,1,0,NA,NA,NA,NA,NA,NA,NA,NA,NA,NA,NA,NA,NA,NA,NA,NA,NA,NA,NA,NA,NA,NA,NA,NA
"344","stim/objects/HouseObjects/pan3.png",421,6,414,0.9,"stim/14.jpeg",1,4,3,2,"HouseObjects",2,3,"right","right",0.671000004,1,1,1,0,NA,NA,NA,NA,NA,NA,NA,NA,NA,NA,NA,NA,NA,NA,NA,NA,NA,NA,NA,NA,NA,NA,NA,NA
"304","stim/objects/HouseObjects/knife3.png",422,6,415,0.9,"stim/14.jpeg",1,4,3,2,"HouseObjects",2,3,"right","right",0.539999962,1,1,1,0,NA,NA,NA,NA,NA,NA,NA,NA,NA,NA,NA,NA,NA,NA,NA,NA,NA,NA,NA,NA,NA,NA,NA,NA
"468","stim/objects/Instruments/marimba3.png",423,6,416,0.9,"stim/22.jpeg",2,2,3,2,"Instruments",1,3,"left","left",0.644999981,1,1,1,0,NA,NA,NA,NA,NA,NA,NA,NA,NA,NA,NA,NA,NA,NA,NA,NA,NA,NA,NA,NA,NA,NA,NA,NA
"531","stim/objects/Instruments/oboe3.png",424,6,417,0.9,"stim/23.jpeg",2,3,3,2,"Instruments",1,2,"left","left",0.513000011,1,1,1,0,NA,NA,NA,NA,NA,NA,NA,NA,NA,NA,NA,NA,NA,NA,NA,NA,NA,NA,NA,NA,NA,NA,NA,NA
"561","stim/objects/Instruments/trumpet3.png",425,6,418,0.3,"stim/51.jpeg",5,1,2,1,"Instruments",1,1,"left","right",0.630000114,0,0,1,0,24,6,1,0.3,1,"stim/51.jpeg",5,1,"stim/51.jpeg",1,"left",1.207000017,3,3,3.667999983,2,1.020999908,24,1,0,0,0,0,1
"457","stim/objects/Instruments/marimba3.png",426,6,419,0.9,"stim/21.jpeg",2,1,3,2,"Instruments",1,1,"left","left",0.507999897,1,1,1,0,NA,NA,NA,NA,NA,NA,NA,NA,NA,NA,NA,NA,NA,NA,NA,NA,NA,NA,NA,NA,NA,NA,NA,NA
"391","stim/objects/HouseObjects/sponge4.png",427,6,420,0.1,"stim/21.jpeg",2,1,3,1,"HouseObjects",2,1,"right","left",0.49000001,0,0,1,0,134,6,1,0.1,2,"stim/21.jpeg",2,1,"stim/21.jpeg",1,"left",3.622999907,3,2,0.824999809,4,1.039999962,134,1,0,0,0,0,1
"469","stim/objects/Instruments/marimba3.png",428,6,421,0.9,"stim/23.jpeg",2,3,3,2,"Instruments",1,2,"left","left",0.575999975,1,1,1,0,NA,NA,NA,NA,NA,NA,NA,NA,NA,NA,NA,NA,NA,NA,NA,NA,NA,NA,NA,NA,NA,NA,NA,NA
"379","stim/objects/HouseObjects/remote4.png",429,6,422,0.9,"stim/11.jpeg",1,1,3,1,"HouseObjects",2,1,"right","right",0.55700016,1,1,1,0,49,6,1,0.9,2,"stim/11.jpeg",1,1,"stim/11.jpeg",1,"left",1.429000139,4,4,3.00999999,1,1.05099988,49,1,0,0,1,1,1
"435","stim/objects/Instruments/cornet4.png",430,6,423,0.7,"stim/64.jpeg",6,4,2,1,"Instruments",1,3,"left","left",0.625999928,1,1,1,0,114,6,1,0.7,1,"stim/64.jpeg",6,4,"stim/64.jpeg",3,"right",0.950999975,1,3,1.035000086,2,0.756000042,114,0,0,NA,0,NA,1
"447","stim/objects/Instruments/keyboard4.png",431,6,424,0.7,"stim/63.jpeg",6,3,2,1,"Instruments",1,2,"left","left",0.587000132,1,1,1,0,125,6,1,0.7,1,"stim/63.jpeg",6,3,"stim/63.jpeg",2,"right",0.796000004,2,3,0.944000006,1,0.750999928,125,0,1,NA,0,NA,1
"248","stim/objects/HouseObjects/barbecuelighter3.png",432,6,425,0.5,"stim/32.jpeg",3,2,1,2,"HouseObjects",2,2,"right","right",0.60800004,1,1,1,0,NA,NA,NA,NA,NA,NA,NA,NA,NA,NA,NA,NA,NA,NA,NA,NA,NA,NA,NA,NA,NA,NA,NA,NA
"484","stim/objects/Instruments/metronome3.png",433,6,426,0.9,"stim/22.jpeg",2,2,3,2,"Instruments",1,2,"left","left",0.600000143,1,1,1,0,NA,NA,NA,NA,NA,NA,NA,NA,NA,NA,NA,NA,NA,NA,NA,NA,NA,NA,NA,NA,NA,NA,NA,NA
"335","stim/objects/HouseObjects/match3.png",434,6,427,0.9,"stim/13.jpeg",1,3,3,2,"HouseObjects",2,4,"right","right",0.620999813,1,1,1,0,NA,NA,NA,NA,NA,NA,NA,NA,NA,NA,NA,NA,NA,NA,NA,NA,NA,NA,NA,NA,NA,NA,NA,NA
"397","stim/objects/HouseObjects/thermometer4.png",435,6,428,0.1,"stim/24.jpeg",2,4,3,1,"HouseObjects",2,3,"right","left",0.593999863,0,0,1,0,109,6,1,0.1,2,"stim/24.jpeg",2,4,"stim/24.jpeg",3,"left",0.879999876,3,3,0.952000141,3,2.067000151,109,1,0,0,1,1,1
"485","stim/objects/Instruments/metronome3.png",436,6,429,0.9,"stim/22.jpeg",2,2,3,2,"Instruments",1,3,"left","left",0.60800004,1,1,1,0,NA,NA,NA,NA,NA,NA,NA,NA,NA,NA,NA,NA,NA,NA,NA,NA,NA,NA,NA,NA,NA,NA,NA,NA
"429","stim/objects/Instruments/chime4.png",437,6,430,0.7,"stim/62.jpeg",6,2,2,1,"Instruments",1,1,"left","left",0.787999868,1,1,1,0,87,6,1,0.7,1,"stim/62.jpeg",6,2,"stim/62.jpeg",1,"left",1.488000154,3,3,1.06400013,1,0.884000063,87,1,0,0,1,1,1
"373","stim/objects/HouseObjects/pitcher3.png",438,6,431,0.9,"stim/12.jpeg",1,2,3,2,"HouseObjects",2,4,"right","right",0.509000063,1,1,1,0,NA,NA,NA,NA,NA,NA,NA,NA,NA,NA,NA,NA,NA,NA,NA,NA,NA,NA,NA,NA,NA,NA,NA,NA
"503","stim/objects/Instruments/musicsheet3.png",439,6,432,0.9,"stim/24.jpeg",2,4,3,2,"Instruments",1,2,"left","left",0.562999964,1,1,1,0,NA,NA,NA,NA,NA,NA,NA,NA,NA,NA,NA,NA,NA,NA,NA,NA,NA,NA,NA,NA,NA,NA,NA,NA
"384","stim/objects/HouseObjects/safetypin3.png",440,6,433,0.5,"stim/32.jpeg",3,2,1,1,"HouseObjects",2,4,"right","right",0.693000078,1,1,1,0,100,6,1,0.5,1,"stim/32.jpeg",3,2,"stim/32.jpeg",4,"right",0.627000093,2,1,0.861999989,2,0.759000063,100,0,0,NA,0,NA,1
"533","stim/objects/Instruments/oboe3.png",441,6,434,0.9,"stim/22.jpeg",2,2,3,2,"Instruments",1,4,"left","right",0.648000002,0,0,1,0,NA,NA,NA,NA,NA,NA,NA,NA,NA,NA,NA,NA,NA,NA,NA,NA,NA,NA,NA,NA,NA,NA,NA,NA
"249","stim/objects/HouseObjects/barbecuelighter4.png",442,6,435,0.7,"stim/51.jpeg",5,1,2,1,"HouseObjects",2,1,"right","right",0.539000034,1,1,1,0,46,6,1,0.7,2,"stim/51.jpeg",5,1,"stim/51.jpeg",1,"left",1.09100008,4,2,119.5,1,1.967000008,46,1,0,0,1,1,1
"494","stim/objects/Instruments/musicsheet3.png",443,6,436,0.9,"stim/24.jpeg",2,4,3,2,"Instruments",1,2,"left","left",0.542999983,1,1,1,0,NA,NA,NA,NA,NA,NA,NA,NA,NA,NA,NA,NA,NA,NA,NA,NA,NA,NA,NA,NA,NA,NA,NA,NA
"522","stim/objects/Instruments/musicstand3.png",444,6,437,0.9,"stim/21.jpeg",2,1,3,2,"Instruments",1,4,"left","left",0.589999914,1,1,1,0,NA,NA,NA,NA,NA,NA,NA,NA,NA,NA,NA,NA,NA,NA,NA,NA,NA,NA,NA,NA,NA,NA,NA,NA
"333","stim/objects/HouseObjects/match3.png",445,6,438,0.9,"stim/14.jpeg",1,4,3,2,"HouseObjects",2,3,"right","right",0.545000076,1,1,1,0,NA,NA,NA,NA,NA,NA,NA,NA,NA,NA,NA,NA,NA,NA,NA,NA,NA,NA,NA,NA,NA,NA,NA,NA
"388","stim/objects/HouseObjects/scale3.png",446,6,439,0.5,"stim/41.jpeg",4,1,1,1,"HouseObjects",2,3,"right","",NA,0,0,1,0,162,6,1,0.5,2,"stim/41.jpeg",4,1,"stim/41.jpeg",3,"right",1.039000034,3,2,0.842999935,1,0.677000046,162,0,0,NA,0,NA,1
"438","stim/objects/Instruments/cymbal3.png",447,6,440,0.7,"stim/61.jpeg",6,1,2,2,"Instruments",1,2,"left","right",0.743000031,0,0,1,0,NA,NA,NA,NA,NA,NA,NA,NA,NA,NA,NA,NA,NA,NA,NA,NA,NA,NA,NA,NA,NA,NA,NA,NA
"416","stim/objects/Instruments/banjo3.png",448,6,441,0.5,"stim/34.jpeg",3,4,1,2,"Instruments",1,4,"left","right",0.577000141,0,0,1,0,NA,NA,NA,NA,NA,NA,NA,NA,NA,NA,NA,NA,NA,NA,NA,NA,NA,NA,NA,NA,NA,NA,NA,NA
"414","stim/objects/Instruments/balalaika4.png",449,6,442,0.3,"stim/54.jpeg",5,4,2,1,"Instruments",1,1,"left","right",0.572000027,0,0,1,0,52,6,1,0.3,1,"stim/54.jpeg",5,4,"stim/54.jpeg",1,"left",0.825000048,4,3,1.333999872,4,1.256999969,52,1,0,0,0,0,1
"557","stim/objects/Instruments/triangle3.png",450,6,443,0.5,"stim/44.jpeg",4,4,1,1,"Instruments",1,3,"left","right",0.586999893,0,0,1,0,21,6,1,0.5,2,"stim/44.jpeg",4,4,"stim/44.jpeg",3,"right",0.845000029,3,4,1.415999889,1,0.707000017,21,0,1,NA,0,NA,1
"553","stim/objects/Instruments/tambourine3.png",451,6,444,0.5,"stim/42.jpeg",4,2,1,1,"Instruments",1,3,"left","right",0.575000048,0,0,1,0,172,6,1,0.5,2,"stim/42.jpeg",4,2,"stim/42.jpeg",3,"right",0.891000032,2,3,1.291000128,3,1.684000015,172,0,0,NA,1,NA,1
"302","stim/objects/HouseObjects/knife3.png",452,6,445,0.9,"stim/11.jpeg",1,1,3,2,"HouseObjects",2,3,"right","right",0.637000084,1,1,1,0,NA,NA,NA,NA,NA,NA,NA,NA,NA,NA,NA,NA,NA,NA,NA,NA,NA,NA,NA,NA,NA,NA,NA,NA
"321","stim/objects/HouseObjects/lintroller3.png",453,6,446,0.9,"stim/14.jpeg",1,4,3,2,"HouseObjects",2,1,"right","right",0.506000042,1,1,1,0,NA,NA,NA,NA,NA,NA,NA,NA,NA,NA,NA,NA,NA,NA,NA,NA,NA,NA,NA,NA,NA,NA,NA,NA
"504","stim/objects/Instruments/musicsheet3.png",454,6,447,0.9,"stim/21.jpeg",2,1,3,2,"Instruments",1,4,"left","left",0.506999969,1,1,1,0,NA,NA,NA,NA,NA,NA,NA,NA,NA,NA,NA,NA,NA,NA,NA,NA,NA,NA,NA,NA,NA,NA,NA,NA
"387","stim/objects/HouseObjects/saw4.png",455,6,448,0.1,"stim/23.jpeg",2,3,3,1,"HouseObjects",2,3,"right","left",0.539999962,0,0,1,0,59,6,1,0.1,2,"stim/23.jpeg",2,3,"stim/23.jpeg",3,"left",1.883999825,3,2,1.026000023,2,0.868999958,59,1,0,0,0,0,1
"432","stim/objects/Instruments/clarinet4.png",456,6,449,0.7,"stim/63.jpeg",6,3,2,1,"Instruments",1,3,"left","left",0.605000019,1,1,1,0,39,6,1,0.7,1,"stim/63.jpeg",6,3,"stim/63.jpeg",3,"left",1.129000187,4,4,1.674000025,3,1.470999956,39,1,0,0,1,1,1
"337","stim/objects/HouseObjects/match3.png",457,6,450,0.9,"stim/13.jpeg",1,3,3,2,"HouseObjects",2,2,"right","right",0.496000051,1,1,1,0,NA,NA,NA,NA,NA,NA,NA,NA,NA,NA,NA,NA,NA,NA,NA,NA,NA,NA,NA,NA,NA,NA,NA,NA
"407","stim/objects/Instruments/accordion3.png",458,6,451,0.5,"stim/31.jpeg",3,1,1,2,"Instruments",1,1,"left","right",0.661000013,0,0,1,0,NA,NA,NA,NA,NA,NA,NA,NA,NA,NA,NA,NA,NA,NA,NA,NA,NA,NA,NA,NA,NA,NA,NA,NA
"349","stim/objects/HouseObjects/pan3.png",459,6,452,0.9,"stim/13.jpeg",1,3,3,2,"HouseObjects",2,1,"right","right",0.759000063,1,1,1,0,NA,NA,NA,NA,NA,NA,NA,NA,NA,NA,NA,NA,NA,NA,NA,NA,NA,NA,NA,NA,NA,NA,NA,NA
"269","stim/objects/HouseObjects/clock3.png",460,6,453,0.5,"stim/43.jpeg",4,3,1,2,"HouseObjects",2,4,"right","right",0.569999933,1,1,1,0,NA,NA,NA,NA,NA,NA,NA,NA,NA,NA,NA,NA,NA,NA,NA,NA,NA,NA,NA,NA,NA,NA,NA,NA
"453","stim/objects/Instruments/maraca3.png",461,6,454,0.7,"stim/63.jpeg",6,3,2,2,"Instruments",1,3,"left","left",0.503000021,1,1,1,0,NA,NA,NA,NA,NA,NA,NA,NA,NA,NA,NA,NA,NA,NA,NA,NA,NA,NA,NA,NA,NA,NA,NA,NA
"374","stim/objects/HouseObjects/pitcher3.png",462,6,455,0.9,"stim/14.jpeg",1,4,3,2,"HouseObjects",2,3,"right","right",0.791000128,1,1,1,0,NA,NA,NA,NA,NA,NA,NA,NA,NA,NA,NA,NA,NA,NA,NA,NA,NA,NA,NA,NA,NA,NA,NA,NA
"428","stim/objects/Instruments/chime3.png",463,6,456,0.5,"stim/42.jpeg",4,2,1,2,"Instruments",1,2,"left","right",0.687000036,0,0,1,0,NA,NA,NA,NA,NA,NA,NA,NA,NA,NA,NA,NA,NA,NA,NA,NA,NA,NA,NA,NA,NA,NA,NA,NA
"404","stim/objects/HouseObjects/wateringcan3.png",464,6,457,0.7,"stim/52.jpeg",5,2,2,1,"HouseObjects",2,4,"right","right",0.54399991,1,1,1,0,138,6,1,0.7,2,"stim/52.jpeg",5,2,"stim/52.jpeg",4,"left",1.450999975,3,3,0.755000114,2,1.168000221,138,1,0,0,0,0,1
"251","stim/objects/HouseObjects/basket3.png",465,6,458,0.5,"stim/33.jpeg",3,3,1,2,"HouseObjects",2,4,"right","right",0.546000004,1,1,1,0,NA,NA,NA,NA,NA,NA,NA,NA,NA,NA,NA,NA,NA,NA,NA,NA,NA,NA,NA,NA,NA,NA,NA,NA
"319","stim/objects/HouseObjects/lintroller3.png",466,6,459,0.9,"stim/13.jpeg",1,3,3,2,"HouseObjects",2,4,"right","right",0.547999859,1,1,1,0,NA,NA,NA,NA,NA,NA,NA,NA,NA,NA,NA,NA,NA,NA,NA,NA,NA,NA,NA,NA,NA,NA,NA,NA
"458","stim/objects/Instruments/marimba3.png",467,6,460,0.9,"stim/23.jpeg",2,3,3,2,"Instruments",1,4,"left","left",0.519000053,1,1,1,0,NA,NA,NA,NA,NA,NA,NA,NA,NA,NA,NA,NA,NA,NA,NA,NA,NA,NA,NA,NA,NA,NA,NA,NA
"354","stim/objects/HouseObjects/pan3.png",468,6,461,0.9,"stim/12.jpeg",1,2,3,2,"HouseObjects",2,4,"right","right",0.624000072,1,1,1,0,NA,NA,NA,NA,NA,NA,NA,NA,NA,NA,NA,NA,NA,NA,NA,NA,NA,NA,NA,NA,NA,NA,NA,NA
"436","stim/objects/Instruments/cymbal3.png",469,6,462,0.7,"stim/63.jpeg",6,3,2,2,"Instruments",1,1,"left","left",0.523000002,1,1,1,0,NA,NA,NA,NA,NA,NA,NA,NA,NA,NA,NA,NA,NA,NA,NA,NA,NA,NA,NA,NA,NA,NA,NA,NA
