"","obj_file","X.x","participant.x","trialN.x","trial_cond","scn_file.x","scn_cat","scn_inst","scn_condition","fillers","obj_cat","obj_cat_num","quadrant","corr_ans","key_resp_trial.keys","key_resp_trial.rt","trial_acc","trial_acc_manual","group.x","practice","X.y","participant.y","OvsN","PE_level","object_cat","scn_file.y","corr_scn_cat","corr_scn_inst","scn_file.1","corr_loc","key_resp_id.keys","key_resp_id.rt","key_resp_conf.keys","key_resp_assoc.keys","key_resp_assoc.rt","key_resp_loc.keys","key_resp_loc.rt","trialN.y","id_acc","assoc.acc","cond_assoc","loc.acc","cond_loc","group.y"
"172","stim/objects/Instruments/triangle2.png",1,44,1,0.9,"stim/12.jpeg",1,2,3,NA,"Instruments",2,3,"right","",NA,0,0,0,1,NA,NA,NA,NA,NA,NA,NA,NA,NA,NA,NA,NA,NA,NA,NA,NA,NA,NA,NA,NA,NA,NA,NA,NA
"76","stim/objects/HouseObjects/thread2.png",2,44,2,0.9,"stim/21.jpeg",2,1,3,NA,"HouseObjects",1,1,"left","left",0.551999807,1,1,0,1,NA,NA,NA,NA,NA,NA,NA,NA,NA,NA,NA,NA,NA,NA,NA,NA,NA,NA,NA,NA,NA,NA,NA,NA
"55","stim/objects/HouseObjects/spraybottle.png",3,44,3,0.5,"stim/42.jpeg",4,2,1,NA,"HouseObjects",1,4,"left","left",0.761999846,1,1,0,1,NA,NA,NA,NA,NA,NA,NA,NA,NA,NA,NA,NA,NA,NA,NA,NA,NA,NA,NA,NA,NA,NA,NA,NA
"158","stim/objects/Instruments/timbal2.png",4,44,4,0.9,"stim/11.jpeg",1,1,3,NA,"Instruments",2,4,"right","right",0.61500001,1,1,0,1,NA,NA,NA,NA,NA,NA,NA,NA,NA,NA,NA,NA,NA,NA,NA,NA,NA,NA,NA,NA,NA,NA,NA,NA
"30","stim/objects/HouseObjects/saw2.png",5,44,5,0.7,"stim/63.jpeg",6,3,2,NA,"HouseObjects",1,3,"left","left",0.68599987,1,1,0,1,NA,NA,NA,NA,NA,NA,NA,NA,NA,NA,NA,NA,NA,NA,NA,NA,NA,NA,NA,NA,NA,NA,NA,NA
"167","stim/objects/Instruments/triangle.png",6,44,6,0.5,"stim/42.jpeg",4,2,1,NA,"Instruments",2,3,"right","",NA,0,0,0,1,NA,NA,NA,NA,NA,NA,NA,NA,NA,NA,NA,NA,NA,NA,NA,NA,NA,NA,NA,NA,NA,NA,NA,NA
"42","stim/objects/HouseObjects/scale2.png",7,44,7,0.7,"stim/64.jpeg",6,4,2,NA,"HouseObjects",1,2,"left","right",0.713000059,0,0,0,1,NA,NA,NA,NA,NA,NA,NA,NA,NA,NA,NA,NA,NA,NA,NA,NA,NA,NA,NA,NA,NA,NA,NA,NA
"37","stim/objects/HouseObjects/scale.png",8,44,8,0.5,"stim/34.jpeg",3,4,1,NA,"HouseObjects",1,2,"left","left",0.679999828,1,1,0,1,NA,NA,NA,NA,NA,NA,NA,NA,NA,NA,NA,NA,NA,NA,NA,NA,NA,NA,NA,NA,NA,NA,NA,NA
"18","stim/objects/HouseObjects/safetypin2.png",9,44,9,0.7,"stim/62.jpeg",6,2,2,NA,"HouseObjects",1,3,"left","",NA,0,0,0,1,NA,NA,NA,NA,NA,NA,NA,NA,NA,NA,NA,NA,NA,NA,NA,NA,NA,NA,NA,NA,NA,NA,NA,NA
"100","stim/objects/HouseObjects/vacuumcleaner2.png",10,44,10,0.9,"stim/23.jpeg",2,3,3,NA,"HouseObjects",1,4,"left","left",0.357999802,1,1,0,1,NA,NA,NA,NA,NA,NA,NA,NA,NA,NA,NA,NA,NA,NA,NA,NA,NA,NA,NA,NA,NA,NA,NA,NA
"1","stim/objects/HouseObjects/rug.png",11,44,11,0.5,"stim/31.jpeg",3,1,1,NA,"HouseObjects",1,3,"left","left",0.450999975,1,1,0,1,NA,NA,NA,NA,NA,NA,NA,NA,NA,NA,NA,NA,NA,NA,NA,NA,NA,NA,NA,NA,NA,NA,NA,NA
"25","stim/objects/HouseObjects/saw.png",12,44,12,0.5,"stim/33.jpeg",3,3,1,NA,"HouseObjects",1,3,"left","left",0.411000013,1,1,0,1,NA,NA,NA,NA,NA,NA,NA,NA,NA,NA,NA,NA,NA,NA,NA,NA,NA,NA,NA,NA,NA,NA,NA,NA
"2","stim/objects/HouseObjects/rug.png",13,44,13,0.5,"stim/31.jpeg",3,1,1,NA,"HouseObjects",1,3,"left","left",0.336999893,1,1,0,1,NA,NA,NA,NA,NA,NA,NA,NA,NA,NA,NA,NA,NA,NA,NA,NA,NA,NA,NA,NA,NA,NA,NA,NA
"233","stim/objects/Instruments/xylophone.png",14,44,14,0.7,"stim/54.jpeg",5,4,2,NA,"Instruments",2,1,"right","left",0.391000032,0,0,0,1,NA,NA,NA,NA,NA,NA,NA,NA,NA,NA,NA,NA,NA,NA,NA,NA,NA,NA,NA,NA,NA,NA,NA,NA
"61","stim/objects/HouseObjects/teapot.png",15,44,15,0.5,"stim/43.jpeg",4,3,1,NA,"HouseObjects",1,2,"left","left",0.622999907,1,1,0,1,NA,NA,NA,NA,NA,NA,NA,NA,NA,NA,NA,NA,NA,NA,NA,NA,NA,NA,NA,NA,NA,NA,NA,NA
"77","stim/objects/HouseObjects/thread2.png",16,44,16,0.9,"stim/21.jpeg",2,1,3,NA,"HouseObjects",1,2,"left","",NA,0,0,0,1,NA,NA,NA,NA,NA,NA,NA,NA,NA,NA,NA,NA,NA,NA,NA,NA,NA,NA,NA,NA,NA,NA,NA,NA
"173","stim/objects/Instruments/triangle2.png",17,44,17,0.9,"stim/12.jpeg",1,2,3,NA,"Instruments",2,2,"right","",NA,0,0,0,1,NA,NA,NA,NA,NA,NA,NA,NA,NA,NA,NA,NA,NA,NA,NA,NA,NA,NA,NA,NA,NA,NA,NA,NA
"186","stim/objects/Instruments/trombone2.png",18,44,18,0.9,"stim/13.jpeg",1,3,3,NA,"Instruments",2,2,"right","left",0.362999916,0,0,0,1,NA,NA,NA,NA,NA,NA,NA,NA,NA,NA,NA,NA,NA,NA,NA,NA,NA,NA,NA,NA,NA,NA,NA,NA
"216","stim/objects/Instruments/tuba2.png",19,44,19,0.1,"stim/21.jpeg",2,1,3,NA,"Instruments",2,1,"right","left",0.431999922,0,0,0,1,NA,NA,NA,NA,NA,NA,NA,NA,NA,NA,NA,NA,NA,NA,NA,NA,NA,NA,NA,NA,NA,NA,NA,NA
"134","stim/objects/Instruments/saxophone2.png",20,44,20,0.3,"stim/62.jpeg",6,2,2,NA,"Instruments",2,4,"right","left",0.596999884,0,0,0,1,NA,NA,NA,NA,NA,NA,NA,NA,NA,NA,NA,NA,NA,NA,NA,NA,NA,NA,NA,NA,NA,NA,NA,NA
"62","stim/objects/HouseObjects/teapot.png",21,44,21,0.5,"stim/43.jpeg",4,3,1,NA,"HouseObjects",1,4,"left","left",0.475000143,1,1,0,1,NA,NA,NA,NA,NA,NA,NA,NA,NA,NA,NA,NA,NA,NA,NA,NA,NA,NA,NA,NA,NA,NA,NA,NA
"38","stim/objects/HouseObjects/scale.png",22,44,22,0.5,"stim/34.jpeg",3,4,1,NA,"HouseObjects",1,3,"left","left",0.385999918,1,1,0,1,NA,NA,NA,NA,NA,NA,NA,NA,NA,NA,NA,NA,NA,NA,NA,NA,NA,NA,NA,NA,NA,NA,NA,NA
"217","stim/objects/Instruments/violin.png",23,44,23,0.7,"stim/52.jpeg",5,2,2,NA,"Instruments",2,2,"right","right",0.566999912,1,1,0,1,NA,NA,NA,NA,NA,NA,NA,NA,NA,NA,NA,NA,NA,NA,NA,NA,NA,NA,NA,NA,NA,NA,NA,NA
"67","stim/objects/HouseObjects/thermometer.png",24,44,24,0.5,"stim/44.jpeg",4,4,1,NA,"HouseObjects",1,3,"left","left",0.45299983,1,1,0,1,NA,NA,NA,NA,NA,NA,NA,NA,NA,NA,NA,NA,NA,NA,NA,NA,NA,NA,NA,NA,NA,NA,NA,NA
"88","stim/objects/HouseObjects/towel2.png",25,44,25,0.9,"stim/22.jpeg",2,2,3,NA,"HouseObjects",1,3,"left","left",0.381999731,1,1,0,1,NA,NA,NA,NA,NA,NA,NA,NA,NA,NA,NA,NA,NA,NA,NA,NA,NA,NA,NA,NA,NA,NA,NA,NA
"150","stim/objects/Instruments/tambourine2.png",26,44,26,0.3,"stim/64.jpeg",6,4,2,NA,"Instruments",2,3,"right","left",0.552000046,0,0,0,1,NA,NA,NA,NA,NA,NA,NA,NA,NA,NA,NA,NA,NA,NA,NA,NA,NA,NA,NA,NA,NA,NA,NA,NA
"31","stim/objects/HouseObjects/saw2.png",27,44,27,0.7,"stim/63.jpeg",6,3,2,NA,"HouseObjects",1,4,"left","left",0.588999987,1,1,0,1,NA,NA,NA,NA,NA,NA,NA,NA,NA,NA,NA,NA,NA,NA,NA,NA,NA,NA,NA,NA,NA,NA,NA,NA
"78","stim/objects/HouseObjects/thread2.png",28,44,28,0.9,"stim/21.jpeg",2,1,3,NA,"HouseObjects",1,4,"left","left",0.518999815,1,1,0,1,NA,NA,NA,NA,NA,NA,NA,NA,NA,NA,NA,NA,NA,NA,NA,NA,NA,NA,NA,NA,NA,NA,NA,NA
"153","stim/objects/Instruments/timbal.png",29,44,29,0.5,"stim/41.jpeg",4,1,1,NA,"Instruments",2,2,"right","right",0.725999832,1,1,0,1,NA,NA,NA,NA,NA,NA,NA,NA,NA,NA,NA,NA,NA,NA,NA,NA,NA,NA,NA,NA,NA,NA,NA,NA
"174","stim/objects/Instruments/triangle2.png",30,44,30,0.9,"stim/12.jpeg",1,2,3,NA,"Instruments",2,4,"right","right",0.589999914,1,1,0,1,NA,NA,NA,NA,NA,NA,NA,NA,NA,NA,NA,NA,NA,NA,NA,NA,NA,NA,NA,NA,NA,NA,NA,NA
"79","stim/objects/HouseObjects/thread2.png",31,44,31,0.9,"stim/21.jpeg",2,1,3,NA,"HouseObjects",1,4,"left","left",0.615999937,1,1,0,1,NA,NA,NA,NA,NA,NA,NA,NA,NA,NA,NA,NA,NA,NA,NA,NA,NA,NA,NA,NA,NA,NA,NA,NA
"89","stim/objects/HouseObjects/towel2.png",32,44,32,0.9,"stim/22.jpeg",2,2,3,NA,"HouseObjects",1,4,"left","left",0.542999983,1,1,0,1,NA,NA,NA,NA,NA,NA,NA,NA,NA,NA,NA,NA,NA,NA,NA,NA,NA,NA,NA,NA,NA,NA,NA,NA
"145","stim/objects/Instruments/tambourine.png",33,44,33,0.5,"stim/34.jpeg",3,4,1,NA,"Instruments",2,1,"right","left",0.49399972,0,0,0,1,NA,NA,NA,NA,NA,NA,NA,NA,NA,NA,NA,NA,NA,NA,NA,NA,NA,NA,NA,NA,NA,NA,NA,NA
"187","stim/objects/Instruments/trombone2.png",34,44,34,0.9,"stim/13.jpeg",1,3,3,NA,"Instruments",2,2,"right","right",0.61500001,1,1,0,1,NA,NA,NA,NA,NA,NA,NA,NA,NA,NA,NA,NA,NA,NA,NA,NA,NA,NA,NA,NA,NA,NA,NA,NA
"85","stim/objects/HouseObjects/towel.png",35,44,35,0.3,"stim/52.jpeg",5,2,2,NA,"HouseObjects",1,2,"left","right",0.583999872,0,0,0,1,NA,NA,NA,NA,NA,NA,NA,NA,NA,NA,NA,NA,NA,NA,NA,NA,NA,NA,NA,NA,NA,NA,NA,NA
"129","stim/objects/Instruments/saxophone.png",36,44,36,0.5,"stim/32.jpeg",3,2,1,NA,"Instruments",2,1,"right","left",0.553999901,0,0,0,1,NA,NA,NA,NA,NA,NA,NA,NA,NA,NA,NA,NA,NA,NA,NA,NA,NA,NA,NA,NA,NA,NA,NA,NA
"137","stim/objects/Instruments/speaker.png",37,44,37,0.5,"stim/33.jpeg",3,3,1,NA,"Instruments",2,3,"right","left",0.582999945,0,0,0,1,NA,NA,NA,NA,NA,NA,NA,NA,NA,NA,NA,NA,NA,NA,NA,NA,NA,NA,NA,NA,NA,NA,NA,NA
"19","stim/objects/HouseObjects/safetypin2.png",38,44,38,0.7,"stim/62.jpeg",6,2,2,NA,"HouseObjects",1,4,"left","right",0.593999863,0,0,0,1,NA,NA,NA,NA,NA,NA,NA,NA,NA,NA,NA,NA,NA,NA,NA,NA,NA,NA,NA,NA,NA,NA,NA,NA
"168","stim/objects/Instruments/triangle.png",39,44,39,0.5,"stim/42.jpeg",4,2,1,NA,"Instruments",2,2,"right","",NA,0,0,0,1,NA,NA,NA,NA,NA,NA,NA,NA,NA,NA,NA,NA,NA,NA,NA,NA,NA,NA,NA,NA,NA,NA,NA,NA
"181","stim/objects/Instruments/trombone.png",40,44,40,0.5,"stim/43.jpeg",4,3,1,NA,"Instruments",2,3,"right","left",0.584000111,0,0,0,1,NA,NA,NA,NA,NA,NA,NA,NA,NA,NA,NA,NA,NA,NA,NA,NA,NA,NA,NA,NA,NA,NA,NA,NA
"6","stim/objects/HouseObjects/rug2.png",41,44,41,0.7,"stim/61.jpeg",6,1,2,NA,"HouseObjects",1,1,"left","",NA,0,0,0,1,NA,NA,NA,NA,NA,NA,NA,NA,NA,NA,NA,NA,NA,NA,NA,NA,NA,NA,NA,NA,NA,NA,NA,NA
"49","stim/objects/HouseObjects/sponge.png",42,44,42,0.5,"stim/41.jpeg",4,1,1,NA,"HouseObjects",1,3,"left","left",0.771999836,1,1,0,1,NA,NA,NA,NA,NA,NA,NA,NA,NA,NA,NA,NA,NA,NA,NA,NA,NA,NA,NA,NA,NA,NA,NA,NA
"175","stim/objects/Instruments/triangle2.png",43,44,43,0.9,"stim/12.jpeg",1,2,3,NA,"Instruments",2,3,"right","right",0.546000004,1,1,0,1,NA,NA,NA,NA,NA,NA,NA,NA,NA,NA,NA,NA,NA,NA,NA,NA,NA,NA,NA,NA,NA,NA,NA,NA
"209","stim/objects/Instruments/tuba.png",44,44,44,0.7,"stim/51.jpeg",5,1,2,NA,"Instruments",2,1,"right","right",0.542000055,1,1,0,1,NA,NA,NA,NA,NA,NA,NA,NA,NA,NA,NA,NA,NA,NA,NA,NA,NA,NA,NA,NA,NA,NA,NA,NA
"7","stim/objects/HouseObjects/rug2.png",45,44,45,0.7,"stim/61.jpeg",6,1,2,NA,"HouseObjects",1,2,"left","right",0.535000086,0,0,0,1,NA,NA,NA,NA,NA,NA,NA,NA,NA,NA,NA,NA,NA,NA,NA,NA,NA,NA,NA,NA,NA,NA,NA,NA
"112","stim/objects/HouseObjects/wateringcan2.png",46,44,46,0.9,"stim/24.jpeg",2,4,3,NA,"HouseObjects",1,2,"left","left",0.404999971,1,1,0,1,NA,NA,NA,NA,NA,NA,NA,NA,NA,NA,NA,NA,NA,NA,NA,NA,NA,NA,NA,NA,NA,NA,NA,NA
"159","stim/objects/Instruments/timbal2.png",47,44,47,0.9,"stim/11.jpeg",1,1,3,NA,"Instruments",2,1,"right","right",0.524999857,1,1,0,1,NA,NA,NA,NA,NA,NA,NA,NA,NA,NA,NA,NA,NA,NA,NA,NA,NA,NA,NA,NA,NA,NA,NA,NA
"138","stim/objects/Instruments/speaker.png",48,44,48,0.5,"stim/33.jpeg",3,3,1,NA,"Instruments",2,1,"right","left",0.477999926,0,0,0,1,NA,NA,NA,NA,NA,NA,NA,NA,NA,NA,NA,NA,NA,NA,NA,NA,NA,NA,NA,NA,NA,NA,NA,NA
"121","stim/objects/Instruments/record_player.png",49,44,49,0.5,"stim/31.jpeg",3,1,1,NA,"Instruments",2,1,"right","left",0.654000044,0,0,0,1,NA,NA,NA,NA,NA,NA,NA,NA,NA,NA,NA,NA,NA,NA,NA,NA,NA,NA,NA,NA,NA,NA,NA,NA
"210","stim/objects/Instruments/tuba.png",50,44,50,0.7,"stim/51.jpeg",5,1,2,NA,"Instruments",2,2,"right","right",0.559999943,1,1,0,1,NA,NA,NA,NA,NA,NA,NA,NA,NA,NA,NA,NA,NA,NA,NA,NA,NA,NA,NA,NA,NA,NA,NA,NA
"142","stim/objects/Instruments/speaker2.png",51,44,51,0.3,"stim/63.jpeg",6,3,2,NA,"Instruments",2,4,"right","",NA,0,0,0,1,NA,NA,NA,NA,NA,NA,NA,NA,NA,NA,NA,NA,NA,NA,NA,NA,NA,NA,NA,NA,NA,NA,NA,NA
"80","stim/objects/HouseObjects/thread2.png",52,44,52,0.9,"stim/21.jpeg",2,1,3,NA,"HouseObjects",1,1,"left","left",0.532000065,1,1,0,1,NA,NA,NA,NA,NA,NA,NA,NA,NA,NA,NA,NA,NA,NA,NA,NA,NA,NA,NA,NA,NA,NA,NA,NA
"225","stim/objects/Instruments/vuvuzela.png",53,44,53,0.7,"stim/53.jpeg",5,3,2,NA,"Instruments",2,2,"right","right",0.542999983,1,1,0,1,NA,NA,NA,NA,NA,NA,NA,NA,NA,NA,NA,NA,NA,NA,NA,NA,NA,NA,NA,NA,NA,NA,NA,NA
"32","stim/objects/HouseObjects/saw2.png",54,44,54,0.7,"stim/63.jpeg",6,3,2,NA,"HouseObjects",1,3,"left","left",0.495999813,1,1,0,1,NA,NA,NA,NA,NA,NA,NA,NA,NA,NA,NA,NA,NA,NA,NA,NA,NA,NA,NA,NA,NA,NA,NA,NA
"113","stim/objects/HouseObjects/wateringcan2.png",55,44,55,0.9,"stim/24.jpeg",2,4,3,NA,"HouseObjects",1,2,"left","left",0.531999826,1,1,0,1,NA,NA,NA,NA,NA,NA,NA,NA,NA,NA,NA,NA,NA,NA,NA,NA,NA,NA,NA,NA,NA,NA,NA,NA
"68","stim/objects/HouseObjects/thermometer.png",56,44,56,0.5,"stim/44.jpeg",4,4,1,NA,"HouseObjects",1,2,"left","",NA,0,0,0,1,NA,NA,NA,NA,NA,NA,NA,NA,NA,NA,NA,NA,NA,NA,NA,NA,NA,NA,NA,NA,NA,NA,NA,NA
"20","stim/objects/HouseObjects/safetypin2.png",57,44,57,0.7,"stim/62.jpeg",6,2,2,NA,"HouseObjects",1,3,"left","left",0.774999857,1,1,0,1,NA,NA,NA,NA,NA,NA,NA,NA,NA,NA,NA,NA,NA,NA,NA,NA,NA,NA,NA,NA,NA,NA,NA,NA
"234","stim/objects/Instruments/xylophone.png",58,44,58,0.7,"stim/54.jpeg",5,4,2,NA,"Instruments",2,3,"right","right",0.629999876,1,1,0,1,NA,NA,NA,NA,NA,NA,NA,NA,NA,NA,NA,NA,NA,NA,NA,NA,NA,NA,NA,NA,NA,NA,NA,NA
"114","stim/objects/HouseObjects/wateringcan2.png",59,44,59,0.9,"stim/24.jpeg",2,4,3,NA,"HouseObjects",1,3,"left","left",0.628999949,1,1,0,1,NA,NA,NA,NA,NA,NA,NA,NA,NA,NA,NA,NA,NA,NA,NA,NA,NA,NA,NA,NA,NA,NA,NA,NA
"200","stim/objects/Instruments/trumpet2.png",60,44,60,0.9,"stim/14.jpeg",1,4,3,NA,"Instruments",2,3,"right","right",0.641999722,1,1,0,1,NA,NA,NA,NA,NA,NA,NA,NA,NA,NA,NA,NA,NA,NA,NA,NA,NA,NA,NA,NA,NA,NA,NA,NA
"211","stim/objects/Instruments/tuba.png",61,44,61,0.7,"stim/51.jpeg",5,1,2,NA,"Instruments",2,1,"right","right",0.562000036,1,1,0,1,NA,NA,NA,NA,NA,NA,NA,NA,NA,NA,NA,NA,NA,NA,NA,NA,NA,NA,NA,NA,NA,NA,NA,NA
"50","stim/objects/HouseObjects/sponge.png",62,44,62,0.5,"stim/41.jpeg",4,1,1,NA,"HouseObjects",1,4,"left","right",0.665999889,0,0,0,1,NA,NA,NA,NA,NA,NA,NA,NA,NA,NA,NA,NA,NA,NA,NA,NA,NA,NA,NA,NA,NA,NA,NA,NA
"51","stim/objects/HouseObjects/sponge.png",63,44,63,0.5,"stim/41.jpeg",4,1,1,NA,"HouseObjects",1,3,"left","right",0.68900013,0,0,0,1,NA,NA,NA,NA,NA,NA,NA,NA,NA,NA,NA,NA,NA,NA,NA,NA,NA,NA,NA,NA,NA,NA,NA,NA
"160","stim/objects/Instruments/timbal2.png",64,44,64,0.9,"stim/11.jpeg",1,1,3,NA,"Instruments",2,1,"right","right",0.606999874,1,1,0,1,NA,NA,NA,NA,NA,NA,NA,NA,NA,NA,NA,NA,NA,NA,NA,NA,NA,NA,NA,NA,NA,NA,NA,NA
"218","stim/objects/Instruments/violin.png",65,44,65,0.7,"stim/52.jpeg",5,2,2,NA,"Instruments",2,2,"right","right",0.568000078,1,1,0,1,NA,NA,NA,NA,NA,NA,NA,NA,NA,NA,NA,NA,NA,NA,NA,NA,NA,NA,NA,NA,NA,NA,NA,NA
"101","stim/objects/HouseObjects/vacuumcleaner2.png",66,44,66,0.9,"stim/23.jpeg",2,3,3,NA,"HouseObjects",1,4,"left","left",0.700999975,1,1,0,1,NA,NA,NA,NA,NA,NA,NA,NA,NA,NA,NA,NA,NA,NA,NA,NA,NA,NA,NA,NA,NA,NA,NA,NA
"235","stim/objects/Instruments/xylophone.png",67,44,67,0.7,"stim/54.jpeg",5,4,2,NA,"Instruments",2,1,"right","left",0.766000032,0,0,0,1,NA,NA,NA,NA,NA,NA,NA,NA,NA,NA,NA,NA,NA,NA,NA,NA,NA,NA,NA,NA,NA,NA,NA,NA
"161","stim/objects/Instruments/timbal2.png",68,44,68,0.9,"stim/11.jpeg",1,1,3,NA,"Instruments",2,2,"right","right",0.570999861,1,1,0,1,NA,NA,NA,NA,NA,NA,NA,NA,NA,NA,NA,NA,NA,NA,NA,NA,NA,NA,NA,NA,NA,NA,NA,NA
"8","stim/objects/HouseObjects/rug2.png",69,44,69,0.7,"stim/61.jpeg",6,1,2,NA,"HouseObjects",1,1,"left","left",0.659999847,1,1,0,1,NA,NA,NA,NA,NA,NA,NA,NA,NA,NA,NA,NA,NA,NA,NA,NA,NA,NA,NA,NA,NA,NA,NA,NA
"219","stim/objects/Instruments/violin.png",70,44,70,0.7,"stim/52.jpeg",5,2,2,NA,"Instruments",2,3,"right","left",0.612999916,0,0,0,1,NA,NA,NA,NA,NA,NA,NA,NA,NA,NA,NA,NA,NA,NA,NA,NA,NA,NA,NA,NA,NA,NA,NA,NA
"195","stim/objects/Instruments/trumpet.png",71,44,71,0.5,"stim/44.jpeg",4,4,1,NA,"Instruments",2,3,"right","left",0.732999802,0,0,0,1,NA,NA,NA,NA,NA,NA,NA,NA,NA,NA,NA,NA,NA,NA,NA,NA,NA,NA,NA,NA,NA,NA,NA,NA
"139","stim/objects/Instruments/speaker.png",72,44,72,0.5,"stim/33.jpeg",3,3,1,NA,"Instruments",2,2,"right","left",0.570999861,0,0,0,1,NA,NA,NA,NA,NA,NA,NA,NA,NA,NA,NA,NA,NA,NA,NA,NA,NA,NA,NA,NA,NA,NA,NA,NA
"169","stim/objects/Instruments/triangle.png",73,44,73,0.5,"stim/42.jpeg",4,2,1,NA,"Instruments",2,1,"right","left",0.651000023,0,0,0,1,NA,NA,NA,NA,NA,NA,NA,NA,NA,NA,NA,NA,NA,NA,NA,NA,NA,NA,NA,NA,NA,NA,NA,NA
"43","stim/objects/HouseObjects/scale2.png",74,44,74,0.7,"stim/64.jpeg",6,4,2,NA,"HouseObjects",1,2,"left","",NA,0,0,0,1,NA,NA,NA,NA,NA,NA,NA,NA,NA,NA,NA,NA,NA,NA,NA,NA,NA,NA,NA,NA,NA,NA,NA,NA
"226","stim/objects/Instruments/vuvuzela.png",75,44,75,0.7,"stim/53.jpeg",5,3,2,NA,"Instruments",2,4,"right","left",0.223999977,0,0,0,1,NA,NA,NA,NA,NA,NA,NA,NA,NA,NA,NA,NA,NA,NA,NA,NA,NA,NA,NA,NA,NA,NA,NA,NA
"21","stim/objects/HouseObjects/safetypin2.png",76,44,76,0.7,"stim/62.jpeg",6,2,2,NA,"HouseObjects",1,2,"left","right",0.632999897,0,0,0,1,NA,NA,NA,NA,NA,NA,NA,NA,NA,NA,NA,NA,NA,NA,NA,NA,NA,NA,NA,NA,NA,NA,NA,NA
"115","stim/objects/HouseObjects/wateringcan2.png",77,44,77,0.9,"stim/24.jpeg",2,4,3,NA,"HouseObjects",1,3,"left","left",0.588000059,1,1,0,1,NA,NA,NA,NA,NA,NA,NA,NA,NA,NA,NA,NA,NA,NA,NA,NA,NA,NA,NA,NA,NA,NA,NA,NA
"236","stim/objects/Instruments/xylophone.png",78,44,78,0.7,"stim/54.jpeg",5,4,2,NA,"Instruments",2,1,"right","right",0.561000109,1,1,0,1,NA,NA,NA,NA,NA,NA,NA,NA,NA,NA,NA,NA,NA,NA,NA,NA,NA,NA,NA,NA,NA,NA,NA,NA
"109","stim/objects/HouseObjects/wateringcan.png",79,44,79,0.3,"stim/54.jpeg",5,4,2,NA,"HouseObjects",1,3,"left","right",0.578000069,0,0,0,1,NA,NA,NA,NA,NA,NA,NA,NA,NA,NA,NA,NA,NA,NA,NA,NA,NA,NA,NA,NA,NA,NA,NA,NA
"237","stim/objects/Instruments/xylophone.png",80,44,80,0.7,"stim/54.jpeg",5,4,2,NA,"Instruments",2,1,"right","right",0.608999729,1,1,0,1,NA,NA,NA,NA,NA,NA,NA,NA,NA,NA,NA,NA,NA,NA,NA,NA,NA,NA,NA,NA,NA,NA,NA,NA
"3","stim/objects/HouseObjects/rug.png",81,44,81,0.5,"stim/31.jpeg",3,1,1,NA,"HouseObjects",1,2,"left","left",0.657000065,1,1,0,1,NA,NA,NA,NA,NA,NA,NA,NA,NA,NA,NA,NA,NA,NA,NA,NA,NA,NA,NA,NA,NA,NA,NA,NA
"110","stim/objects/HouseObjects/wateringcan.png",82,44,82,0.3,"stim/54.jpeg",5,4,2,NA,"HouseObjects",1,2,"left","left",0.360999823,1,1,0,1,NA,NA,NA,NA,NA,NA,NA,NA,NA,NA,NA,NA,NA,NA,NA,NA,NA,NA,NA,NA,NA,NA,NA,NA
"212","stim/objects/Instruments/tuba.png",83,44,83,0.7,"stim/51.jpeg",5,1,2,NA,"Instruments",2,1,"right","right",0.432999849,1,1,0,1,NA,NA,NA,NA,NA,NA,NA,NA,NA,NA,NA,NA,NA,NA,NA,NA,NA,NA,NA,NA,NA,NA,NA,NA
"69","stim/objects/HouseObjects/thermometer.png",84,44,84,0.5,"stim/44.jpeg",4,4,1,NA,"HouseObjects",1,2,"left","left",0.700999975,1,1,0,1,NA,NA,NA,NA,NA,NA,NA,NA,NA,NA,NA,NA,NA,NA,NA,NA,NA,NA,NA,NA,NA,NA,NA,NA
"162","stim/objects/Instruments/timbal2.png",85,44,85,0.9,"stim/11.jpeg",1,1,3,NA,"Instruments",2,4,"right","right",0.501999855,1,1,0,1,NA,NA,NA,NA,NA,NA,NA,NA,NA,NA,NA,NA,NA,NA,NA,NA,NA,NA,NA,NA,NA,NA,NA,NA
"22","stim/objects/HouseObjects/safetypin2.png",86,44,86,0.7,"stim/62.jpeg",6,2,2,NA,"HouseObjects",1,1,"left","left",0.679999828,1,1,0,1,NA,NA,NA,NA,NA,NA,NA,NA,NA,NA,NA,NA,NA,NA,NA,NA,NA,NA,NA,NA,NA,NA,NA,NA
"56","stim/objects/HouseObjects/spraybottle.png",87,44,87,0.5,"stim/42.jpeg",4,2,1,NA,"HouseObjects",1,4,"left","right",0.639999866,0,0,0,1,NA,NA,NA,NA,NA,NA,NA,NA,NA,NA,NA,NA,NA,NA,NA,NA,NA,NA,NA,NA,NA,NA,NA,NA
"102","stim/objects/HouseObjects/vacuumcleaner2.png",88,44,88,0.9,"stim/23.jpeg",2,3,3,NA,"HouseObjects",1,1,"left","left",0.478999853,1,1,0,1,NA,NA,NA,NA,NA,NA,NA,NA,NA,NA,NA,NA,NA,NA,NA,NA,NA,NA,NA,NA,NA,NA,NA,NA
"188","stim/objects/Instruments/trombone2.png",89,44,89,0.9,"stim/13.jpeg",1,3,3,NA,"Instruments",2,3,"right","left",0.45299983,0,0,0,1,NA,NA,NA,NA,NA,NA,NA,NA,NA,NA,NA,NA,NA,NA,NA,NA,NA,NA,NA,NA,NA,NA,NA,NA
"201","stim/objects/Instruments/trumpet2.png",90,44,90,0.9,"stim/14.jpeg",1,4,3,NA,"Instruments",2,1,"right","right",0.611999989,1,1,0,1,NA,NA,NA,NA,NA,NA,NA,NA,NA,NA,NA,NA,NA,NA,NA,NA,NA,NA,NA,NA,NA,NA,NA,NA
"146","stim/objects/Instruments/tambourine.png",91,44,91,0.5,"stim/34.jpeg",3,4,1,NA,"Instruments",2,1,"right","",NA,0,0,0,1,NA,NA,NA,NA,NA,NA,NA,NA,NA,NA,NA,NA,NA,NA,NA,NA,NA,NA,NA,NA,NA,NA,NA,NA
"111","stim/objects/HouseObjects/wateringcan.png",92,44,92,0.3,"stim/54.jpeg",5,4,2,NA,"HouseObjects",1,2,"left","right",0.582999945,0,0,0,1,NA,NA,NA,NA,NA,NA,NA,NA,NA,NA,NA,NA,NA,NA,NA,NA,NA,NA,NA,NA,NA,NA,NA,NA
"26","stim/objects/HouseObjects/saw.png",93,44,93,0.5,"stim/33.jpeg",3,3,1,NA,"HouseObjects",1,2,"left","left",0.505000114,1,1,0,1,NA,NA,NA,NA,NA,NA,NA,NA,NA,NA,NA,NA,NA,NA,NA,NA,NA,NA,NA,NA,NA,NA,NA,NA
"189","stim/objects/Instruments/trombone2.png",94,44,94,0.9,"stim/13.jpeg",1,3,3,NA,"Instruments",2,4,"right","right",0.578999996,1,1,0,1,NA,NA,NA,NA,NA,NA,NA,NA,NA,NA,NA,NA,NA,NA,NA,NA,NA,NA,NA,NA,NA,NA,NA,NA
"190","stim/objects/Instruments/trombone2.png",95,44,95,0.9,"stim/13.jpeg",1,3,3,NA,"Instruments",2,3,"right","right",0.684999943,1,1,0,1,NA,NA,NA,NA,NA,NA,NA,NA,NA,NA,NA,NA,NA,NA,NA,NA,NA,NA,NA,NA,NA,NA,NA,NA
"54","stim/objects/HouseObjects/sponge2.png",96,44,96,0.1,"stim/11.jpeg",1,1,3,NA,"HouseObjects",1,2,"left","right",0.582999945,0,0,0,1,NA,NA,NA,NA,NA,NA,NA,NA,NA,NA,NA,NA,NA,NA,NA,NA,NA,NA,NA,NA,NA,NA,NA,NA
"116","stim/objects/HouseObjects/wateringcan2.png",97,44,97,0.9,"stim/24.jpeg",2,4,3,NA,"HouseObjects",1,4,"left","left",0.566999912,1,1,0,1,NA,NA,NA,NA,NA,NA,NA,NA,NA,NA,NA,NA,NA,NA,NA,NA,NA,NA,NA,NA,NA,NA,NA,NA
"33","stim/objects/HouseObjects/saw2.png",98,44,98,0.7,"stim/63.jpeg",6,3,2,NA,"HouseObjects",1,4,"left","right",0.669999838,0,0,0,1,NA,NA,NA,NA,NA,NA,NA,NA,NA,NA,NA,NA,NA,NA,NA,NA,NA,NA,NA,NA,NA,NA,NA,NA
"202","stim/objects/Instruments/trumpet2.png",99,44,99,0.9,"stim/14.jpeg",1,4,3,NA,"Instruments",2,2,"right","right",0.555999994,1,1,0,1,NA,NA,NA,NA,NA,NA,NA,NA,NA,NA,NA,NA,NA,NA,NA,NA,NA,NA,NA,NA,NA,NA,NA,NA
"117","stim/objects/HouseObjects/wateringcan2.png",100,44,100,0.9,"stim/24.jpeg",2,4,3,NA,"HouseObjects",1,4,"left","left",0.451999903,1,1,0,1,NA,NA,NA,NA,NA,NA,NA,NA,NA,NA,NA,NA,NA,NA,NA,NA,NA,NA,NA,NA,NA,NA,NA,NA
"118","stim/objects/HouseObjects/wateringcan2.png",101,44,101,0.9,"stim/24.jpeg",2,4,3,NA,"HouseObjects",1,1,"left","left",0.427000046,1,1,0,1,NA,NA,NA,NA,NA,NA,NA,NA,NA,NA,NA,NA,NA,NA,NA,NA,NA,NA,NA,NA,NA,NA,NA,NA
"122","stim/objects/Instruments/record_player.png",102,44,102,0.5,"stim/31.jpeg",3,1,1,NA,"Instruments",2,1,"right","left",0.457000017,0,0,0,1,NA,NA,NA,NA,NA,NA,NA,NA,NA,NA,NA,NA,NA,NA,NA,NA,NA,NA,NA,NA,NA,NA,NA,NA
"227","stim/objects/Instruments/vuvuzela.png",103,44,103,0.7,"stim/53.jpeg",5,3,2,NA,"Instruments",2,4,"right","right",0.624999762,1,1,0,1,NA,NA,NA,NA,NA,NA,NA,NA,NA,NA,NA,NA,NA,NA,NA,NA,NA,NA,NA,NA,NA,NA,NA,NA
"9","stim/objects/HouseObjects/rug2.png",104,44,104,0.7,"stim/61.jpeg",6,1,2,NA,"HouseObjects",1,2,"left","",NA,0,0,0,1,NA,NA,NA,NA,NA,NA,NA,NA,NA,NA,NA,NA,NA,NA,NA,NA,NA,NA,NA,NA,NA,NA,NA,NA
"126","stim/objects/Instruments/record_player2.png",105,44,105,0.3,"stim/61.jpeg",6,1,2,NA,"Instruments",2,1,"right","left",0.427999735,0,0,0,1,NA,NA,NA,NA,NA,NA,NA,NA,NA,NA,NA,NA,NA,NA,NA,NA,NA,NA,NA,NA,NA,NA,NA,NA
"196","stim/objects/Instruments/trumpet.png",106,44,106,0.5,"stim/44.jpeg",4,4,1,NA,"Instruments",2,1,"right","left",0.535000086,0,0,0,1,NA,NA,NA,NA,NA,NA,NA,NA,NA,NA,NA,NA,NA,NA,NA,NA,NA,NA,NA,NA,NA,NA,NA,NA
"197","stim/objects/Instruments/trumpet.png",107,44,107,0.5,"stim/44.jpeg",4,4,1,NA,"Instruments",2,2,"right","right",0.65899992,1,1,0,1,NA,NA,NA,NA,NA,NA,NA,NA,NA,NA,NA,NA,NA,NA,NA,NA,NA,NA,NA,NA,NA,NA,NA,NA
"228","stim/objects/Instruments/vuvuzela.png",108,44,108,0.7,"stim/53.jpeg",5,3,2,NA,"Instruments",2,2,"right","right",0.539000034,1,1,0,1,NA,NA,NA,NA,NA,NA,NA,NA,NA,NA,NA,NA,NA,NA,NA,NA,NA,NA,NA,NA,NA,NA,NA,NA
"52","stim/objects/HouseObjects/sponge.png",109,44,109,0.5,"stim/41.jpeg",4,1,1,NA,"HouseObjects",1,4,"left","right",0.56799984,0,0,0,1,NA,NA,NA,NA,NA,NA,NA,NA,NA,NA,NA,NA,NA,NA,NA,NA,NA,NA,NA,NA,NA,NA,NA,NA
"103","stim/objects/HouseObjects/vacuumcleaner2.png",110,44,110,0.9,"stim/23.jpeg",2,3,3,NA,"HouseObjects",1,3,"left","left",0.447999954,1,1,0,1,NA,NA,NA,NA,NA,NA,NA,NA,NA,NA,NA,NA,NA,NA,NA,NA,NA,NA,NA,NA,NA,NA,NA,NA
"191","stim/objects/Instruments/trombone2.png",111,44,111,0.9,"stim/13.jpeg",1,3,3,NA,"Instruments",2,4,"right","right",0.652999878,1,1,0,1,NA,NA,NA,NA,NA,NA,NA,NA,NA,NA,NA,NA,NA,NA,NA,NA,NA,NA,NA,NA,NA,NA,NA,NA
"176","stim/objects/Instruments/triangle2.png",112,44,112,0.9,"stim/12.jpeg",1,2,3,NA,"Instruments",2,3,"right","left",0.461999893,0,0,0,1,NA,NA,NA,NA,NA,NA,NA,NA,NA,NA,NA,NA,NA,NA,NA,NA,NA,NA,NA,NA,NA,NA,NA,NA
"27","stim/objects/HouseObjects/saw.png",113,44,113,0.5,"stim/33.jpeg",3,3,1,NA,"HouseObjects",1,3,"left","left",0.654000044,1,1,0,1,NA,NA,NA,NA,NA,NA,NA,NA,NA,NA,NA,NA,NA,NA,NA,NA,NA,NA,NA,NA,NA,NA,NA,NA
"13","stim/objects/HouseObjects/safetypin.png",114,44,114,0.5,"stim/32.jpeg",3,2,1,NA,"HouseObjects",1,4,"left","left",0.71999979,1,1,0,1,NA,NA,NA,NA,NA,NA,NA,NA,NA,NA,NA,NA,NA,NA,NA,NA,NA,NA,NA,NA,NA,NA,NA,NA
"135","stim/objects/Instruments/saxophone2.png",115,44,115,0.3,"stim/62.jpeg",6,2,2,NA,"Instruments",2,4,"right","left",0.731999874,0,0,0,1,NA,NA,NA,NA,NA,NA,NA,NA,NA,NA,NA,NA,NA,NA,NA,NA,NA,NA,NA,NA,NA,NA,NA,NA
"10","stim/objects/HouseObjects/rug2.png",116,44,116,0.7,"stim/61.jpeg",6,1,2,NA,"HouseObjects",1,3,"left","right",0.819000006,0,0,0,1,NA,NA,NA,NA,NA,NA,NA,NA,NA,NA,NA,NA,NA,NA,NA,NA,NA,NA,NA,NA,NA,NA,NA,NA
"151","stim/objects/Instruments/tambourine2.png",117,44,117,0.3,"stim/64.jpeg",6,4,2,NA,"Instruments",2,4,"right","left",0.798000097,0,0,0,1,NA,NA,NA,NA,NA,NA,NA,NA,NA,NA,NA,NA,NA,NA,NA,NA,NA,NA,NA,NA,NA,NA,NA,NA
"97","stim/objects/HouseObjects/vacuumcleaner.png",118,44,118,0.3,"stim/53.jpeg",5,3,2,NA,"HouseObjects",1,3,"left","right",0.566999912,0,0,0,1,NA,NA,NA,NA,NA,NA,NA,NA,NA,NA,NA,NA,NA,NA,NA,NA,NA,NA,NA,NA,NA,NA,NA,NA
"39","stim/objects/HouseObjects/scale.png",119,44,119,0.5,"stim/34.jpeg",3,4,1,NA,"HouseObjects",1,2,"left","left",0.524999857,1,1,0,1,NA,NA,NA,NA,NA,NA,NA,NA,NA,NA,NA,NA,NA,NA,NA,NA,NA,NA,NA,NA,NA,NA,NA,NA
"198","stim/objects/Instruments/trumpet.png",120,44,120,0.5,"stim/44.jpeg",4,4,1,NA,"Instruments",2,3,"right","left",0.595000029,0,0,0,1,NA,NA,NA,NA,NA,NA,NA,NA,NA,NA,NA,NA,NA,NA,NA,NA,NA,NA,NA,NA,NA,NA,NA,NA
"81","stim/objects/HouseObjects/thread2.png",121,44,121,0.9,"stim/21.jpeg",2,1,3,NA,"HouseObjects",1,2,"left","left",0.636999846,1,1,0,1,NA,NA,NA,NA,NA,NA,NA,NA,NA,NA,NA,NA,NA,NA,NA,NA,NA,NA,NA,NA,NA,NA,NA,NA
"220","stim/objects/Instruments/violin.png",122,44,122,0.7,"stim/52.jpeg",5,2,2,NA,"Instruments",2,3,"right","right",0.653000116,1,1,0,1,NA,NA,NA,NA,NA,NA,NA,NA,NA,NA,NA,NA,NA,NA,NA,NA,NA,NA,NA,NA,NA,NA,NA,NA
"34","stim/objects/HouseObjects/saw2.png",123,44,123,0.7,"stim/63.jpeg",6,3,2,NA,"HouseObjects",1,2,"left","left",0.55099988,1,1,0,1,NA,NA,NA,NA,NA,NA,NA,NA,NA,NA,NA,NA,NA,NA,NA,NA,NA,NA,NA,NA,NA,NA,NA,NA
"44","stim/objects/HouseObjects/scale2.png",124,44,124,0.7,"stim/64.jpeg",6,4,2,NA,"HouseObjects",1,3,"left","right",0.664999962,0,0,0,1,NA,NA,NA,NA,NA,NA,NA,NA,NA,NA,NA,NA,NA,NA,NA,NA,NA,NA,NA,NA,NA,NA,NA,NA
"229","stim/objects/Instruments/vuvuzela.png",125,44,125,0.7,"stim/53.jpeg",5,3,2,NA,"Instruments",2,1,"right","left",0.546000004,0,0,0,1,NA,NA,NA,NA,NA,NA,NA,NA,NA,NA,NA,NA,NA,NA,NA,NA,NA,NA,NA,NA,NA,NA,NA,NA
"28","stim/objects/HouseObjects/saw.png",126,44,126,0.5,"stim/33.jpeg",3,3,1,NA,"HouseObjects",1,1,"left","left",0.493999958,1,1,0,1,NA,NA,NA,NA,NA,NA,NA,NA,NA,NA,NA,NA,NA,NA,NA,NA,NA,NA,NA,NA,NA,NA,NA,NA
"192","stim/objects/Instruments/trombone2.png",127,44,127,0.9,"stim/13.jpeg",1,3,3,NA,"Instruments",2,2,"right","right",0.49000001,1,1,0,1,NA,NA,NA,NA,NA,NA,NA,NA,NA,NA,NA,NA,NA,NA,NA,NA,NA,NA,NA,NA,NA,NA,NA,NA
"240","stim/objects/Instruments/xylophone2.png",128,44,128,0.1,"stim/24.jpeg",2,4,3,NA,"Instruments",2,3,"right","left",0.517999887,0,0,0,1,NA,NA,NA,NA,NA,NA,NA,NA,NA,NA,NA,NA,NA,NA,NA,NA,NA,NA,NA,NA,NA,NA,NA,NA
"70","stim/objects/HouseObjects/thermometer.png",129,44,129,0.5,"stim/44.jpeg",4,4,1,NA,"HouseObjects",1,1,"left","left",0.565000057,1,1,0,1,NA,NA,NA,NA,NA,NA,NA,NA,NA,NA,NA,NA,NA,NA,NA,NA,NA,NA,NA,NA,NA,NA,NA,NA
"98","stim/objects/HouseObjects/vacuumcleaner.png",130,44,130,0.3,"stim/53.jpeg",5,3,2,NA,"HouseObjects",1,4,"left","left",0.693999767,1,1,0,1,NA,NA,NA,NA,NA,NA,NA,NA,NA,NA,NA,NA,NA,NA,NA,NA,NA,NA,NA,NA,NA,NA,NA,NA
"154","stim/objects/Instruments/timbal.png",131,44,131,0.5,"stim/41.jpeg",4,1,1,NA,"Instruments",2,2,"right","left",0.649999857,0,0,0,1,NA,NA,NA,NA,NA,NA,NA,NA,NA,NA,NA,NA,NA,NA,NA,NA,NA,NA,NA,NA,NA,NA,NA,NA
"90","stim/objects/HouseObjects/towel2.png",132,44,132,0.9,"stim/22.jpeg",2,2,3,NA,"HouseObjects",1,3,"left","left",0.496000051,1,1,0,1,NA,NA,NA,NA,NA,NA,NA,NA,NA,NA,NA,NA,NA,NA,NA,NA,NA,NA,NA,NA,NA,NA,NA,NA
"203","stim/objects/Instruments/trumpet2.png",133,44,133,0.9,"stim/14.jpeg",1,4,3,NA,"Instruments",2,3,"right","right",0.586999893,1,1,0,1,NA,NA,NA,NA,NA,NA,NA,NA,NA,NA,NA,NA,NA,NA,NA,NA,NA,NA,NA,NA,NA,NA,NA,NA
"213","stim/objects/Instruments/tuba.png",134,44,134,0.7,"stim/51.jpeg",5,1,2,NA,"Instruments",2,2,"right","right",0.56099987,1,1,0,1,NA,NA,NA,NA,NA,NA,NA,NA,NA,NA,NA,NA,NA,NA,NA,NA,NA,NA,NA,NA,NA,NA,NA,NA
"221","stim/objects/Instruments/violin.png",135,44,135,0.7,"stim/52.jpeg",5,2,2,NA,"Instruments",2,4,"right","",NA,0,0,0,1,NA,NA,NA,NA,NA,NA,NA,NA,NA,NA,NA,NA,NA,NA,NA,NA,NA,NA,NA,NA,NA,NA,NA,NA
"204","stim/objects/Instruments/trumpet2.png",136,44,136,0.9,"stim/14.jpeg",1,4,3,NA,"Instruments",2,4,"right","right",0.540999889,1,1,0,1,NA,NA,NA,NA,NA,NA,NA,NA,NA,NA,NA,NA,NA,NA,NA,NA,NA,NA,NA,NA,NA,NA,NA,NA
"205","stim/objects/Instruments/trumpet2.png",137,44,137,0.9,"stim/14.jpeg",1,4,3,NA,"Instruments",2,3,"right","right",0.558000088,1,1,0,1,NA,NA,NA,NA,NA,NA,NA,NA,NA,NA,NA,NA,NA,NA,NA,NA,NA,NA,NA,NA,NA,NA,NA,NA
"222","stim/objects/Instruments/violin.png",138,44,138,0.7,"stim/52.jpeg",5,2,2,NA,"Instruments",2,2,"right","right",0.50999999,1,1,0,1,NA,NA,NA,NA,NA,NA,NA,NA,NA,NA,NA,NA,NA,NA,NA,NA,NA,NA,NA,NA,NA,NA,NA,NA
"11","stim/objects/HouseObjects/rug2.png",139,44,139,0.7,"stim/61.jpeg",6,1,2,NA,"HouseObjects",1,3,"left","left",0.549999952,1,1,0,1,NA,NA,NA,NA,NA,NA,NA,NA,NA,NA,NA,NA,NA,NA,NA,NA,NA,NA,NA,NA,NA,NA,NA,NA
"14","stim/objects/HouseObjects/safetypin.png",140,44,140,0.5,"stim/32.jpeg",3,2,1,NA,"HouseObjects",1,1,"left","left",0.41899991,1,1,0,1,NA,NA,NA,NA,NA,NA,NA,NA,NA,NA,NA,NA,NA,NA,NA,NA,NA,NA,NA,NA,NA,NA,NA,NA
"230","stim/objects/Instruments/vuvuzela.png",141,44,141,0.7,"stim/53.jpeg",5,3,2,NA,"Instruments",2,1,"right","right",0.593999863,1,1,0,1,NA,NA,NA,NA,NA,NA,NA,NA,NA,NA,NA,NA,NA,NA,NA,NA,NA,NA,NA,NA,NA,NA,NA,NA
"193","stim/objects/Instruments/trombone2.png",142,44,142,0.9,"stim/13.jpeg",1,3,3,NA,"Instruments",2,2,"right","",NA,0,0,0,1,NA,NA,NA,NA,NA,NA,NA,NA,NA,NA,NA,NA,NA,NA,NA,NA,NA,NA,NA,NA,NA,NA,NA,NA
"223","stim/objects/Instruments/violin.png",143,44,143,0.7,"stim/52.jpeg",5,2,2,NA,"Instruments",2,4,"right","right",0.513999939,1,1,0,1,NA,NA,NA,NA,NA,NA,NA,NA,NA,NA,NA,NA,NA,NA,NA,NA,NA,NA,NA,NA,NA,NA,NA,NA
"163","stim/objects/Instruments/timbal2.png",144,44,144,0.9,"stim/11.jpeg",1,1,3,NA,"Instruments",2,2,"right","right",0.503999949,1,1,0,1,NA,NA,NA,NA,NA,NA,NA,NA,NA,NA,NA,NA,NA,NA,NA,NA,NA,NA,NA,NA,NA,NA,NA,NA
"82","stim/objects/HouseObjects/thread2.png",145,44,145,0.9,"stim/21.jpeg",2,1,3,NA,"HouseObjects",1,2,"left","left",0.508000135,1,1,0,1,NA,NA,NA,NA,NA,NA,NA,NA,NA,NA,NA,NA,NA,NA,NA,NA,NA,NA,NA,NA,NA,NA,NA,NA
"231","stim/objects/Instruments/vuvuzela.png",146,44,146,0.7,"stim/53.jpeg",5,3,2,NA,"Instruments",2,1,"right","right",0.552999973,1,1,0,1,NA,NA,NA,NA,NA,NA,NA,NA,NA,NA,NA,NA,NA,NA,NA,NA,NA,NA,NA,NA,NA,NA,NA,NA
"83","stim/objects/HouseObjects/thread2.png",147,44,147,0.9,"stim/21.jpeg",2,1,3,NA,"HouseObjects",1,4,"left","left",0.519999981,1,1,0,1,NA,NA,NA,NA,NA,NA,NA,NA,NA,NA,NA,NA,NA,NA,NA,NA,NA,NA,NA,NA,NA,NA,NA,NA
"177","stim/objects/Instruments/triangle2.png",148,44,148,0.9,"stim/12.jpeg",1,2,3,NA,"Instruments",2,1,"right","right",0.501999855,1,1,0,1,NA,NA,NA,NA,NA,NA,NA,NA,NA,NA,NA,NA,NA,NA,NA,NA,NA,NA,NA,NA,NA,NA,NA,NA
"91","stim/objects/HouseObjects/towel2.png",149,44,149,0.9,"stim/22.jpeg",2,2,3,NA,"HouseObjects",1,2,"left","left",0.457999945,1,1,0,1,NA,NA,NA,NA,NA,NA,NA,NA,NA,NA,NA,NA,NA,NA,NA,NA,NA,NA,NA,NA,NA,NA,NA,NA
"152","stim/objects/Instruments/tambourine2.png",150,44,150,0.3,"stim/64.jpeg",6,4,2,NA,"Instruments",2,1,"right","left",0.372999907,0,0,0,1,NA,NA,NA,NA,NA,NA,NA,NA,NA,NA,NA,NA,NA,NA,NA,NA,NA,NA,NA,NA,NA,NA,NA,NA
"63","stim/objects/HouseObjects/teapot.png",151,44,151,0.5,"stim/43.jpeg",4,3,1,NA,"HouseObjects",1,4,"left","left",0.487999916,1,1,0,1,NA,NA,NA,NA,NA,NA,NA,NA,NA,NA,NA,NA,NA,NA,NA,NA,NA,NA,NA,NA,NA,NA,NA,NA
"170","stim/objects/Instruments/triangle.png",152,44,152,0.5,"stim/42.jpeg",4,2,1,NA,"Instruments",2,2,"right","right",0.642999887,1,1,0,1,NA,NA,NA,NA,NA,NA,NA,NA,NA,NA,NA,NA,NA,NA,NA,NA,NA,NA,NA,NA,NA,NA,NA,NA
"232","stim/objects/Instruments/vuvuzela2.png",153,44,153,0.1,"stim/23.jpeg",2,3,3,NA,"Instruments",2,2,"right","left",0.473999739,0,0,0,1,NA,NA,NA,NA,NA,NA,NA,NA,NA,NA,NA,NA,NA,NA,NA,NA,NA,NA,NA,NA,NA,NA,NA,NA
"214","stim/objects/Instruments/tuba.png",154,44,154,0.7,"stim/51.jpeg",5,1,2,NA,"Instruments",2,2,"right","right",0.517999887,1,1,0,1,NA,NA,NA,NA,NA,NA,NA,NA,NA,NA,NA,NA,NA,NA,NA,NA,NA,NA,NA,NA,NA,NA,NA,NA
"164","stim/objects/Instruments/timbal2.png",155,44,155,0.9,"stim/11.jpeg",1,1,3,NA,"Instruments",2,1,"right","left",0.40199995,0,0,0,1,NA,NA,NA,NA,NA,NA,NA,NA,NA,NA,NA,NA,NA,NA,NA,NA,NA,NA,NA,NA,NA,NA,NA,NA
"45","stim/objects/HouseObjects/scale2.png",156,44,156,0.7,"stim/64.jpeg",6,4,2,NA,"HouseObjects",1,4,"left","right",0.667999983,0,0,0,1,NA,NA,NA,NA,NA,NA,NA,NA,NA,NA,NA,NA,NA,NA,NA,NA,NA,NA,NA,NA,NA,NA,NA,NA
"60","stim/objects/HouseObjects/spraybottle2.png",157,44,157,0.1,"stim/12.jpeg",1,2,3,NA,"HouseObjects",1,3,"left","right",0.534999847,0,0,0,1,NA,NA,NA,NA,NA,NA,NA,NA,NA,NA,NA,NA,NA,NA,NA,NA,NA,NA,NA,NA,NA,NA,NA,NA
"57","stim/objects/HouseObjects/spraybottle.png",158,44,158,0.5,"stim/42.jpeg",4,2,1,NA,"HouseObjects",1,2,"left","left",0.68599987,1,1,0,1,NA,NA,NA,NA,NA,NA,NA,NA,NA,NA,NA,NA,NA,NA,NA,NA,NA,NA,NA,NA,NA,NA,NA,NA
"104","stim/objects/HouseObjects/vacuumcleaner2.png",159,44,159,0.9,"stim/23.jpeg",2,3,3,NA,"HouseObjects",1,1,"left","left",0.493000031,1,1,0,1,NA,NA,NA,NA,NA,NA,NA,NA,NA,NA,NA,NA,NA,NA,NA,NA,NA,NA,NA,NA,NA,NA,NA,NA
"155","stim/objects/Instruments/timbal.png",160,44,160,0.5,"stim/41.jpeg",4,1,1,NA,"Instruments",2,4,"right","left",0.694000006,0,0,0,1,NA,NA,NA,NA,NA,NA,NA,NA,NA,NA,NA,NA,NA,NA,NA,NA,NA,NA,NA,NA,NA,NA,NA,NA
"73","stim/objects/HouseObjects/thread.png",161,44,161,0.3,"stim/51.jpeg",5,1,2,NA,"HouseObjects",1,2,"left","right",0.486999989,0,0,0,1,NA,NA,NA,NA,NA,NA,NA,NA,NA,NA,NA,NA,NA,NA,NA,NA,NA,NA,NA,NA,NA,NA,NA,NA
"84","stim/objects/HouseObjects/thread2.png",162,44,162,0.9,"stim/21.jpeg",2,1,3,NA,"HouseObjects",1,4,"left","left",0.520999908,1,1,0,1,NA,NA,NA,NA,NA,NA,NA,NA,NA,NA,NA,NA,NA,NA,NA,NA,NA,NA,NA,NA,NA,NA,NA,NA
"105","stim/objects/HouseObjects/vacuumcleaner2.png",163,44,163,0.9,"stim/23.jpeg",2,3,3,NA,"HouseObjects",1,4,"left","left",0.470000029,1,1,0,1,NA,NA,NA,NA,NA,NA,NA,NA,NA,NA,NA,NA,NA,NA,NA,NA,NA,NA,NA,NA,NA,NA,NA,NA
"182","stim/objects/Instruments/trombone.png",164,44,164,0.5,"stim/43.jpeg",4,3,1,NA,"Instruments",2,4,"right","left",0.592000008,0,0,0,1,NA,NA,NA,NA,NA,NA,NA,NA,NA,NA,NA,NA,NA,NA,NA,NA,NA,NA,NA,NA,NA,NA,NA,NA
"15","stim/objects/HouseObjects/safetypin.png",165,44,165,0.5,"stim/32.jpeg",3,2,1,NA,"HouseObjects",1,3,"left","left",0.518999815,1,1,0,1,NA,NA,NA,NA,NA,NA,NA,NA,NA,NA,NA,NA,NA,NA,NA,NA,NA,NA,NA,NA,NA,NA,NA,NA
"16","stim/objects/HouseObjects/safetypin.png",166,44,166,0.5,"stim/32.jpeg",3,2,1,NA,"HouseObjects",1,3,"left","",NA,0,0,0,1,NA,NA,NA,NA,NA,NA,NA,NA,NA,NA,NA,NA,NA,NA,NA,NA,NA,NA,NA,NA,NA,NA,NA,NA
"215","stim/objects/Instruments/tuba.png",167,44,167,0.7,"stim/51.jpeg",5,1,2,NA,"Instruments",2,3,"right","right",0.562999964,1,1,0,1,NA,NA,NA,NA,NA,NA,NA,NA,NA,NA,NA,NA,NA,NA,NA,NA,NA,NA,NA,NA,NA,NA,NA,NA
"66","stim/objects/HouseObjects/teapot2.png",168,44,168,0.1,"stim/13.jpeg",1,3,3,NA,"HouseObjects",1,1,"left","right",0.673999786,0,0,0,1,NA,NA,NA,NA,NA,NA,NA,NA,NA,NA,NA,NA,NA,NA,NA,NA,NA,NA,NA,NA,NA,NA,NA,NA
"178","stim/objects/Instruments/triangle2.png",169,44,169,0.9,"stim/12.jpeg",1,2,3,NA,"Instruments",2,1,"right","right",0.506000042,1,1,0,1,NA,NA,NA,NA,NA,NA,NA,NA,NA,NA,NA,NA,NA,NA,NA,NA,NA,NA,NA,NA,NA,NA,NA,NA
"106","stim/objects/HouseObjects/vacuumcleaner2.png",170,44,170,0.9,"stim/23.jpeg",2,3,3,NA,"HouseObjects",1,3,"left","left",0.383999825,1,1,0,1,NA,NA,NA,NA,NA,NA,NA,NA,NA,NA,NA,NA,NA,NA,NA,NA,NA,NA,NA,NA,NA,NA,NA,NA
"123","stim/objects/Instruments/record_player.png",171,44,171,0.5,"stim/31.jpeg",3,1,1,NA,"Instruments",2,2,"right","left",0.56799984,0,0,0,1,NA,NA,NA,NA,NA,NA,NA,NA,NA,NA,NA,NA,NA,NA,NA,NA,NA,NA,NA,NA,NA,NA,NA,NA
"119","stim/objects/HouseObjects/wateringcan2.png",172,44,172,0.9,"stim/24.jpeg",2,4,3,NA,"HouseObjects",1,4,"left","left",0.462999821,1,1,0,1,NA,NA,NA,NA,NA,NA,NA,NA,NA,NA,NA,NA,NA,NA,NA,NA,NA,NA,NA,NA,NA,NA,NA,NA
"35","stim/objects/HouseObjects/saw2.png",173,44,173,0.7,"stim/63.jpeg",6,3,2,NA,"HouseObjects",1,3,"left","left",0.44299984,1,1,0,1,NA,NA,NA,NA,NA,NA,NA,NA,NA,NA,NA,NA,NA,NA,NA,NA,NA,NA,NA,NA,NA,NA,NA,NA
"58","stim/objects/HouseObjects/spraybottle.png",174,44,174,0.5,"stim/42.jpeg",4,2,1,NA,"HouseObjects",1,4,"left","right",0.690999985,0,0,0,1,NA,NA,NA,NA,NA,NA,NA,NA,NA,NA,NA,NA,NA,NA,NA,NA,NA,NA,NA,NA,NA,NA,NA,NA
"4","stim/objects/HouseObjects/rug.png",175,44,175,0.5,"stim/31.jpeg",3,1,1,NA,"HouseObjects",1,2,"left","left",0.46600008,1,1,0,1,NA,NA,NA,NA,NA,NA,NA,NA,NA,NA,NA,NA,NA,NA,NA,NA,NA,NA,NA,NA,NA,NA,NA,NA
"124","stim/objects/Instruments/record_player.png",176,44,176,0.5,"stim/31.jpeg",3,1,1,NA,"Instruments",2,4,"right","left",0.375,0,0,0,1,NA,NA,NA,NA,NA,NA,NA,NA,NA,NA,NA,NA,NA,NA,NA,NA,NA,NA,NA,NA,NA,NA,NA,NA
"165","stim/objects/Instruments/timbal2.png",177,44,177,0.9,"stim/11.jpeg",1,1,3,NA,"Instruments",2,1,"right","right",0.60800004,1,1,0,1,NA,NA,NA,NA,NA,NA,NA,NA,NA,NA,NA,NA,NA,NA,NA,NA,NA,NA,NA,NA,NA,NA,NA,NA
"92","stim/objects/HouseObjects/towel2.png",178,44,178,0.9,"stim/22.jpeg",2,2,3,NA,"HouseObjects",1,2,"left","left",0.411999941,1,1,0,1,NA,NA,NA,NA,NA,NA,NA,NA,NA,NA,NA,NA,NA,NA,NA,NA,NA,NA,NA,NA,NA,NA,NA,NA
"136","stim/objects/Instruments/saxophone2.png",179,44,179,0.3,"stim/62.jpeg",6,2,2,NA,"Instruments",2,3,"right","left",0.405999899,0,0,0,1,NA,NA,NA,NA,NA,NA,NA,NA,NA,NA,NA,NA,NA,NA,NA,NA,NA,NA,NA,NA,NA,NA,NA,NA
"147","stim/objects/Instruments/tambourine.png",180,44,180,0.5,"stim/34.jpeg",3,4,1,NA,"Instruments",2,2,"right","left",0.506999969,0,0,0,1,NA,NA,NA,NA,NA,NA,NA,NA,NA,NA,NA,NA,NA,NA,NA,NA,NA,NA,NA,NA,NA,NA,NA,NA
"17","stim/objects/HouseObjects/safetypin.png",181,44,181,0.5,"stim/32.jpeg",3,2,1,NA,"HouseObjects",1,4,"left","left",0.539999962,1,1,0,1,NA,NA,NA,NA,NA,NA,NA,NA,NA,NA,NA,NA,NA,NA,NA,NA,NA,NA,NA,NA,NA,NA,NA,NA
"179","stim/objects/Instruments/triangle2.png",182,44,182,0.9,"stim/12.jpeg",1,2,3,NA,"Instruments",2,1,"right","right",0.481999874,1,1,0,1,NA,NA,NA,NA,NA,NA,NA,NA,NA,NA,NA,NA,NA,NA,NA,NA,NA,NA,NA,NA,NA,NA,NA,NA
"166","stim/objects/Instruments/timbal2.png",183,44,183,0.9,"stim/11.jpeg",1,1,3,NA,"Instruments",2,1,"right","right",0.49000001,1,1,0,1,NA,NA,NA,NA,NA,NA,NA,NA,NA,NA,NA,NA,NA,NA,NA,NA,NA,NA,NA,NA,NA,NA,NA,NA
"238","stim/objects/Instruments/xylophone.png",184,44,184,0.7,"stim/54.jpeg",5,4,2,NA,"Instruments",2,2,"right","right",0.499000072,1,1,0,1,NA,NA,NA,NA,NA,NA,NA,NA,NA,NA,NA,NA,NA,NA,NA,NA,NA,NA,NA,NA,NA,NA,NA,NA
"64","stim/objects/HouseObjects/teapot.png",185,44,185,0.5,"stim/43.jpeg",4,3,1,NA,"HouseObjects",1,4,"left","right",0.582999945,0,0,0,1,NA,NA,NA,NA,NA,NA,NA,NA,NA,NA,NA,NA,NA,NA,NA,NA,NA,NA,NA,NA,NA,NA,NA,NA
"40","stim/objects/HouseObjects/scale.png",186,44,186,0.5,"stim/34.jpeg",3,4,1,NA,"HouseObjects",1,4,"left","left",0.597000122,1,1,0,1,NA,NA,NA,NA,NA,NA,NA,NA,NA,NA,NA,NA,NA,NA,NA,NA,NA,NA,NA,NA,NA,NA,NA,NA
"206","stim/objects/Instruments/trumpet2.png",187,44,187,0.9,"stim/14.jpeg",1,4,3,NA,"Instruments",2,3,"right","right",0.493999958,1,1,0,1,NA,NA,NA,NA,NA,NA,NA,NA,NA,NA,NA,NA,NA,NA,NA,NA,NA,NA,NA,NA,NA,NA,NA,NA
"74","stim/objects/HouseObjects/thread.png",188,44,188,0.3,"stim/51.jpeg",5,1,2,NA,"HouseObjects",1,1,"left","right",0.494999886,0,0,0,1,NA,NA,NA,NA,NA,NA,NA,NA,NA,NA,NA,NA,NA,NA,NA,NA,NA,NA,NA,NA,NA,NA,NA,NA
"143","stim/objects/Instruments/speaker2.png",189,44,189,0.3,"stim/63.jpeg",6,3,2,NA,"Instruments",2,1,"right","left",0.553999901,0,0,0,1,NA,NA,NA,NA,NA,NA,NA,NA,NA,NA,NA,NA,NA,NA,NA,NA,NA,NA,NA,NA,NA,NA,NA,NA
"23","stim/objects/HouseObjects/safetypin2.png",190,44,190,0.7,"stim/62.jpeg",6,2,2,NA,"HouseObjects",1,2,"left","left",0.4599998,1,1,0,1,NA,NA,NA,NA,NA,NA,NA,NA,NA,NA,NA,NA,NA,NA,NA,NA,NA,NA,NA,NA,NA,NA,NA,NA
"148","stim/objects/Instruments/tambourine.png",191,44,191,0.5,"stim/34.jpeg",3,4,1,NA,"Instruments",2,1,"right","left",0.477999926,0,0,0,1,NA,NA,NA,NA,NA,NA,NA,NA,NA,NA,NA,NA,NA,NA,NA,NA,NA,NA,NA,NA,NA,NA,NA,NA
"140","stim/objects/Instruments/speaker.png",192,44,192,0.5,"stim/33.jpeg",3,3,1,NA,"Instruments",2,3,"right","left",0.525999784,0,0,0,1,NA,NA,NA,NA,NA,NA,NA,NA,NA,NA,NA,NA,NA,NA,NA,NA,NA,NA,NA,NA,NA,NA,NA,NA
"144","stim/objects/Instruments/speaker2.png",193,44,193,0.3,"stim/63.jpeg",6,3,2,NA,"Instruments",2,3,"right","left",0.544999838,0,0,0,1,NA,NA,NA,NA,NA,NA,NA,NA,NA,NA,NA,NA,NA,NA,NA,NA,NA,NA,NA,NA,NA,NA,NA,NA
"86","stim/objects/HouseObjects/towel.png",194,44,194,0.3,"stim/52.jpeg",5,2,2,NA,"HouseObjects",1,1,"left","right",0.529999971,0,0,0,1,NA,NA,NA,NA,NA,NA,NA,NA,NA,NA,NA,NA,NA,NA,NA,NA,NA,NA,NA,NA,NA,NA,NA,NA
"59","stim/objects/HouseObjects/spraybottle.png",195,44,195,0.5,"stim/42.jpeg",4,2,1,NA,"HouseObjects",1,4,"left","left",0.595999956,1,1,0,1,NA,NA,NA,NA,NA,NA,NA,NA,NA,NA,NA,NA,NA,NA,NA,NA,NA,NA,NA,NA,NA,NA,NA,NA
"93","stim/objects/HouseObjects/towel2.png",196,44,196,0.9,"stim/22.jpeg",2,2,3,NA,"HouseObjects",1,2,"left","left",0.579999924,1,1,0,1,NA,NA,NA,NA,NA,NA,NA,NA,NA,NA,NA,NA,NA,NA,NA,NA,NA,NA,NA,NA,NA,NA,NA,NA
"71","stim/objects/HouseObjects/thermometer.png",197,44,197,0.5,"stim/44.jpeg",4,4,1,NA,"HouseObjects",1,3,"left","left",0.537999868,1,1,0,1,NA,NA,NA,NA,NA,NA,NA,NA,NA,NA,NA,NA,NA,NA,NA,NA,NA,NA,NA,NA,NA,NA,NA,NA
"120","stim/objects/HouseObjects/wateringcan2.png",198,44,198,0.9,"stim/24.jpeg",2,4,3,NA,"HouseObjects",1,1,"left","left",0.522999763,1,1,0,1,NA,NA,NA,NA,NA,NA,NA,NA,NA,NA,NA,NA,NA,NA,NA,NA,NA,NA,NA,NA,NA,NA,NA,NA
"156","stim/objects/Instruments/timbal.png",199,44,199,0.5,"stim/41.jpeg",4,1,1,NA,"Instruments",2,2,"right","left",0.438999891,0,0,0,1,NA,NA,NA,NA,NA,NA,NA,NA,NA,NA,NA,NA,NA,NA,NA,NA,NA,NA,NA,NA,NA,NA,NA,NA
"141","stim/objects/Instruments/speaker.png",200,44,200,0.5,"stim/33.jpeg",3,3,1,NA,"Instruments",2,1,"right","left",0.403999805,0,0,0,1,NA,NA,NA,NA,NA,NA,NA,NA,NA,NA,NA,NA,NA,NA,NA,NA,NA,NA,NA,NA,NA,NA,NA,NA
"149","stim/objects/Instruments/tambourine.png",201,44,201,0.5,"stim/34.jpeg",3,4,1,NA,"Instruments",2,4,"right","left",0.520999908,0,0,0,1,NA,NA,NA,NA,NA,NA,NA,NA,NA,NA,NA,NA,NA,NA,NA,NA,NA,NA,NA,NA,NA,NA,NA,NA
"94","stim/objects/HouseObjects/towel2.png",202,44,202,0.9,"stim/22.jpeg",2,2,3,NA,"HouseObjects",1,3,"left","left",0.44299984,1,1,0,1,NA,NA,NA,NA,NA,NA,NA,NA,NA,NA,NA,NA,NA,NA,NA,NA,NA,NA,NA,NA,NA,NA,NA,NA
"207","stim/objects/Instruments/trumpet2.png",203,44,203,0.9,"stim/14.jpeg",1,4,3,NA,"Instruments",2,2,"right","right",0.526000023,1,1,0,1,NA,NA,NA,NA,NA,NA,NA,NA,NA,NA,NA,NA,NA,NA,NA,NA,NA,NA,NA,NA,NA,NA,NA,NA
"46","stim/objects/HouseObjects/scale2.png",204,44,204,0.7,"stim/64.jpeg",6,4,2,NA,"HouseObjects",1,4,"left","left",0.466999769,1,1,0,1,NA,NA,NA,NA,NA,NA,NA,NA,NA,NA,NA,NA,NA,NA,NA,NA,NA,NA,NA,NA,NA,NA,NA,NA
"87","stim/objects/HouseObjects/towel.png",205,44,205,0.3,"stim/52.jpeg",5,2,2,NA,"HouseObjects",1,4,"left","",NA,0,0,0,1,NA,NA,NA,NA,NA,NA,NA,NA,NA,NA,NA,NA,NA,NA,NA,NA,NA,NA,NA,NA,NA,NA,NA,NA
"130","stim/objects/Instruments/saxophone.png",206,44,206,0.5,"stim/32.jpeg",3,2,1,NA,"Instruments",2,4,"right","",NA,0,0,0,1,NA,NA,NA,NA,NA,NA,NA,NA,NA,NA,NA,NA,NA,NA,NA,NA,NA,NA,NA,NA,NA,NA,NA,NA
"131","stim/objects/Instruments/saxophone.png",207,44,207,0.5,"stim/32.jpeg",3,2,1,NA,"Instruments",2,1,"right","left",0.403999805,0,0,0,1,NA,NA,NA,NA,NA,NA,NA,NA,NA,NA,NA,NA,NA,NA,NA,NA,NA,NA,NA,NA,NA,NA,NA,NA
"99","stim/objects/HouseObjects/vacuumcleaner.png",208,44,208,0.3,"stim/53.jpeg",5,3,2,NA,"HouseObjects",1,3,"left","right",0.583999872,0,0,0,1,NA,NA,NA,NA,NA,NA,NA,NA,NA,NA,NA,NA,NA,NA,NA,NA,NA,NA,NA,NA,NA,NA,NA,NA
"125","stim/objects/Instruments/record_player.png",209,44,209,0.5,"stim/31.jpeg",3,1,1,NA,"Instruments",2,1,"right","left",0.508999825,0,0,0,1,NA,NA,NA,NA,NA,NA,NA,NA,NA,NA,NA,NA,NA,NA,NA,NA,NA,NA,NA,NA,NA,NA,NA,NA
"127","stim/objects/Instruments/record_player2.png",210,44,210,0.3,"stim/61.jpeg",6,1,2,NA,"Instruments",2,1,"right","left",0.605999947,0,0,0,1,NA,NA,NA,NA,NA,NA,NA,NA,NA,NA,NA,NA,NA,NA,NA,NA,NA,NA,NA,NA,NA,NA,NA,NA
"47","stim/objects/HouseObjects/scale2.png",211,44,211,0.7,"stim/64.jpeg",6,4,2,NA,"HouseObjects",1,4,"left","right",0.736999989,0,0,0,1,NA,NA,NA,NA,NA,NA,NA,NA,NA,NA,NA,NA,NA,NA,NA,NA,NA,NA,NA,NA,NA,NA,NA,NA
"107","stim/objects/HouseObjects/vacuumcleaner2.png",212,44,212,0.9,"stim/23.jpeg",2,3,3,NA,"HouseObjects",1,2,"left","left",0.48300004,1,1,0,1,NA,NA,NA,NA,NA,NA,NA,NA,NA,NA,NA,NA,NA,NA,NA,NA,NA,NA,NA,NA,NA,NA,NA,NA
"128","stim/objects/Instruments/record_player2.png",213,44,213,0.3,"stim/61.jpeg",6,1,2,NA,"Instruments",2,3,"right","left",0.55099988,0,0,0,1,NA,NA,NA,NA,NA,NA,NA,NA,NA,NA,NA,NA,NA,NA,NA,NA,NA,NA,NA,NA,NA,NA,NA,NA
"95","stim/objects/HouseObjects/towel2.png",214,44,214,0.9,"stim/22.jpeg",2,2,3,NA,"HouseObjects",1,4,"left","right",0.431999922,0,0,0,1,NA,NA,NA,NA,NA,NA,NA,NA,NA,NA,NA,NA,NA,NA,NA,NA,NA,NA,NA,NA,NA,NA,NA,NA
"239","stim/objects/Instruments/xylophone.png",215,44,215,0.7,"stim/54.jpeg",5,4,2,NA,"Instruments",2,4,"right","right",0.580999851,1,1,0,1,NA,NA,NA,NA,NA,NA,NA,NA,NA,NA,NA,NA,NA,NA,NA,NA,NA,NA,NA,NA,NA,NA,NA,NA
"12","stim/objects/HouseObjects/rug2.png",216,44,216,0.7,"stim/61.jpeg",6,1,2,NA,"HouseObjects",1,3,"left","left",0.40899992,1,1,0,1,NA,NA,NA,NA,NA,NA,NA,NA,NA,NA,NA,NA,NA,NA,NA,NA,NA,NA,NA,NA,NA,NA,NA,NA
"29","stim/objects/HouseObjects/saw.png",217,44,217,0.5,"stim/33.jpeg",3,3,1,NA,"HouseObjects",1,1,"left","left",0.438999891,1,1,0,1,NA,NA,NA,NA,NA,NA,NA,NA,NA,NA,NA,NA,NA,NA,NA,NA,NA,NA,NA,NA,NA,NA,NA,NA
"53","stim/objects/HouseObjects/sponge.png",218,44,218,0.5,"stim/41.jpeg",4,1,1,NA,"HouseObjects",1,2,"left","right",0.512999773,0,0,0,1,NA,NA,NA,NA,NA,NA,NA,NA,NA,NA,NA,NA,NA,NA,NA,NA,NA,NA,NA,NA,NA,NA,NA,NA
"132","stim/objects/Instruments/saxophone.png",219,44,219,0.5,"stim/32.jpeg",3,2,1,NA,"Instruments",2,1,"right","left",0.471999884,0,0,0,1,NA,NA,NA,NA,NA,NA,NA,NA,NA,NA,NA,NA,NA,NA,NA,NA,NA,NA,NA,NA,NA,NA,NA,NA
"224","stim/objects/Instruments/violin2.png",220,44,220,0.1,"stim/22.jpeg",2,2,3,NA,"Instruments",2,4,"right","left",0.445999861,0,0,0,1,NA,NA,NA,NA,NA,NA,NA,NA,NA,NA,NA,NA,NA,NA,NA,NA,NA,NA,NA,NA,NA,NA,NA,NA
"75","stim/objects/HouseObjects/thread.png",221,44,221,0.3,"stim/51.jpeg",5,1,2,NA,"HouseObjects",1,4,"left","right",0.511999846,0,0,0,1,NA,NA,NA,NA,NA,NA,NA,NA,NA,NA,NA,NA,NA,NA,NA,NA,NA,NA,NA,NA,NA,NA,NA,NA
"96","stim/objects/HouseObjects/towel2.png",222,44,222,0.9,"stim/22.jpeg",2,2,3,NA,"HouseObjects",1,1,"left","left",0.440999985,1,1,0,1,NA,NA,NA,NA,NA,NA,NA,NA,NA,NA,NA,NA,NA,NA,NA,NA,NA,NA,NA,NA,NA,NA,NA,NA
"180","stim/objects/Instruments/triangle2.png",223,44,223,0.9,"stim/12.jpeg",1,2,3,NA,"Instruments",2,1,"right","right",0.501999855,1,1,0,1,NA,NA,NA,NA,NA,NA,NA,NA,NA,NA,NA,NA,NA,NA,NA,NA,NA,NA,NA,NA,NA,NA,NA,NA
"157","stim/objects/Instruments/timbal.png",224,44,224,0.5,"stim/41.jpeg",4,1,1,NA,"Instruments",2,1,"right","left",0.664999723,0,0,0,1,NA,NA,NA,NA,NA,NA,NA,NA,NA,NA,NA,NA,NA,NA,NA,NA,NA,NA,NA,NA,NA,NA,NA,NA
"65","stim/objects/HouseObjects/teapot.png",225,44,225,0.5,"stim/43.jpeg",4,3,1,NA,"HouseObjects",1,2,"left","left",0.749000072,1,1,0,1,NA,NA,NA,NA,NA,NA,NA,NA,NA,NA,NA,NA,NA,NA,NA,NA,NA,NA,NA,NA,NA,NA,NA,NA
"41","stim/objects/HouseObjects/scale.png",226,44,226,0.5,"stim/34.jpeg",3,4,1,NA,"HouseObjects",1,3,"left","left",0.654999971,1,1,0,1,NA,NA,NA,NA,NA,NA,NA,NA,NA,NA,NA,NA,NA,NA,NA,NA,NA,NA,NA,NA,NA,NA,NA,NA
"183","stim/objects/Instruments/trombone.png",227,44,227,0.5,"stim/43.jpeg",4,3,1,NA,"Instruments",2,4,"right","left",0.678999901,0,0,0,1,NA,NA,NA,NA,NA,NA,NA,NA,NA,NA,NA,NA,NA,NA,NA,NA,NA,NA,NA,NA,NA,NA,NA,NA
"24","stim/objects/HouseObjects/safetypin2.png",228,44,228,0.7,"stim/62.jpeg",6,2,2,NA,"HouseObjects",1,1,"left","left",0.539999962,1,1,0,1,NA,NA,NA,NA,NA,NA,NA,NA,NA,NA,NA,NA,NA,NA,NA,NA,NA,NA,NA,NA,NA,NA,NA,NA
"5","stim/objects/HouseObjects/rug.png",229,44,229,0.5,"stim/31.jpeg",3,1,1,NA,"HouseObjects",1,1,"left","left",0.554000139,1,1,0,1,NA,NA,NA,NA,NA,NA,NA,NA,NA,NA,NA,NA,NA,NA,NA,NA,NA,NA,NA,NA,NA,NA,NA,NA
"72","stim/objects/HouseObjects/thermometer2.png",230,44,230,0.1,"stim/14.jpeg",1,4,3,NA,"HouseObjects",1,3,"left","right",0.490999937,0,0,0,1,NA,NA,NA,NA,NA,NA,NA,NA,NA,NA,NA,NA,NA,NA,NA,NA,NA,NA,NA,NA,NA,NA,NA,NA
"184","stim/objects/Instruments/trombone.png",231,44,231,0.5,"stim/43.jpeg",4,3,1,NA,"Instruments",2,3,"right","left",0.612999916,0,0,0,1,NA,NA,NA,NA,NA,NA,NA,NA,NA,NA,NA,NA,NA,NA,NA,NA,NA,NA,NA,NA,NA,NA,NA,NA
"133","stim/objects/Instruments/saxophone.png",232,44,232,0.5,"stim/32.jpeg",3,2,1,NA,"Instruments",2,3,"right","left",0.525999784,0,0,0,1,NA,NA,NA,NA,NA,NA,NA,NA,NA,NA,NA,NA,NA,NA,NA,NA,NA,NA,NA,NA,NA,NA,NA,NA
"185","stim/objects/Instruments/trombone.png",233,44,233,0.5,"stim/43.jpeg",4,3,1,NA,"Instruments",2,4,"right","left",0.541999817,0,0,0,1,NA,NA,NA,NA,NA,NA,NA,NA,NA,NA,NA,NA,NA,NA,NA,NA,NA,NA,NA,NA,NA,NA,NA,NA
"171","stim/objects/Instruments/triangle.png",234,44,234,0.5,"stim/42.jpeg",4,2,1,NA,"Instruments",2,1,"right","left",0.792000055,0,0,0,1,NA,NA,NA,NA,NA,NA,NA,NA,NA,NA,NA,NA,NA,NA,NA,NA,NA,NA,NA,NA,NA,NA,NA,NA
"194","stim/objects/Instruments/trombone2.png",235,44,235,0.9,"stim/13.jpeg",1,3,3,NA,"Instruments",2,3,"right","right",0.523000002,1,1,0,1,NA,NA,NA,NA,NA,NA,NA,NA,NA,NA,NA,NA,NA,NA,NA,NA,NA,NA,NA,NA,NA,NA,NA,NA
"199","stim/objects/Instruments/trumpet.png",236,44,236,0.5,"stim/44.jpeg",4,4,1,NA,"Instruments",2,4,"right","right",0.405999899,1,1,0,1,NA,NA,NA,NA,NA,NA,NA,NA,NA,NA,NA,NA,NA,NA,NA,NA,NA,NA,NA,NA,NA,NA,NA,NA
"108","stim/objects/HouseObjects/vacuumcleaner2.png",237,44,237,0.9,"stim/23.jpeg",2,3,3,NA,"HouseObjects",1,4,"left","left",0.614000082,1,1,0,1,NA,NA,NA,NA,NA,NA,NA,NA,NA,NA,NA,NA,NA,NA,NA,NA,NA,NA,NA,NA,NA,NA,NA,NA
"36","stim/objects/HouseObjects/saw2.png",238,44,238,0.7,"stim/63.jpeg",6,3,2,NA,"HouseObjects",1,4,"left","left",0.820999861,1,1,0,1,NA,NA,NA,NA,NA,NA,NA,NA,NA,NA,NA,NA,NA,NA,NA,NA,NA,NA,NA,NA,NA,NA,NA,NA
"48","stim/objects/HouseObjects/scale2.png",239,44,239,0.7,"stim/64.jpeg",6,4,2,NA,"HouseObjects",1,4,"left","right",0.74000001,0,0,0,1,NA,NA,NA,NA,NA,NA,NA,NA,NA,NA,NA,NA,NA,NA,NA,NA,NA,NA,NA,NA,NA,NA,NA,NA
"208","stim/objects/Instruments/trumpet2.png",240,44,240,0.9,"stim/14.jpeg",1,4,3,NA,"Instruments",2,1,"right","right",0.612999916,1,1,0,1,NA,NA,NA,NA,NA,NA,NA,NA,NA,NA,NA,NA,NA,NA,NA,NA,NA,NA,NA,NA,NA,NA,NA,NA
"490","stim/objects/Instruments/frenchhorn.png",248,44,241,0.9,"stim/11.jpeg",1,1,3,2,"Instruments",2,2,"right","left",0.819000006,0,0,1,0,NA,NA,NA,NA,NA,NA,NA,NA,NA,NA,NA,NA,NA,NA,NA,NA,NA,NA,NA,NA,NA,NA,NA,NA
"250","stim/objects/HouseObjects/basket.png",249,44,242,0.5,"stim/34.jpeg",3,4,1,2,"HouseObjects",1,4,"left","left",0.755000114,1,1,1,0,NA,NA,NA,NA,NA,NA,NA,NA,NA,NA,NA,NA,NA,NA,NA,NA,NA,NA,NA,NA,NA,NA,NA,NA
"420","stim/objects/Instruments/bassdrum2.png",250,44,243,0.7,"stim/53.jpeg",5,3,2,1,"Instruments",2,2,"right","right",0.538999796,1,1,1,0,45,44,1,0.7,2,"stim/53.jpeg",5,3,"stim/53.jpeg",2,"right",0.615000248,2,2,1.03000021,2,0.808000088,45,0,0,NA,1,NA,0
"290","stim/objects/HouseObjects/dishsoap2.png",251,44,244,0.7,"stim/61.jpeg",6,1,2,1,"HouseObjects",1,1,"left","left",0.674000025,1,1,1,0,131,44,1,0.7,1,"stim/61.jpeg",6,1,"stim/61.jpeg",1,"right",0.810000181,2,2,0.519999981,2,0.700000048,131,0,0,NA,0,NA,0
"308","stim/objects/HouseObjects/dustpan.png",252,44,245,0.9,"stim/24.jpeg",2,4,3,2,"HouseObjects",1,4,"left","left",0.552000046,1,1,1,0,NA,NA,NA,NA,NA,NA,NA,NA,NA,NA,NA,NA,NA,NA,NA,NA,NA,NA,NA,NA,NA,NA,NA,NA
"451","stim/objects/Instruments/electricdrumset2.png",253,44,246,0.3,"stim/62.jpeg",6,2,2,1,"Instruments",2,4,"right","left",0.672999859,0,0,1,0,33,44,1,0.3,2,"stim/62.jpeg",6,2,"stim/62.jpeg",4,"left",0.745000124,4,2,2.705000162,2,0.937000275,33,1,1,1,0,0,0
"421","stim/objects/Instruments/bassguitar.png",254,44,247,0.5,"stim/43.jpeg",4,3,1,2,"Instruments",2,4,"right","left",0.69299984,0,0,1,0,NA,NA,NA,NA,NA,NA,NA,NA,NA,NA,NA,NA,NA,NA,NA,NA,NA,NA,NA,NA,NA,NA,NA,NA
"412","stim/objects/Instruments/balalaika.png",255,44,248,0.5,"stim/32.jpeg",3,2,1,2,"Instruments",2,1,"right","left",0.862999916,0,0,1,0,NA,NA,NA,NA,NA,NA,NA,NA,NA,NA,NA,NA,NA,NA,NA,NA,NA,NA,NA,NA,NA,NA,NA,NA
"244","stim/objects/HouseObjects/ballofstring.png",256,44,249,0.5,"stim/32.jpeg",3,2,1,2,"HouseObjects",1,3,"left","right",0.636999846,0,0,1,0,NA,NA,NA,NA,NA,NA,NA,NA,NA,NA,NA,NA,NA,NA,NA,NA,NA,NA,NA,NA,NA,NA,NA,NA
"270","stim/objects/HouseObjects/clock2.png",257,44,250,0.7,"stim/64.jpeg",6,4,2,1,"HouseObjects",1,1,"left","right",0.654999733,0,0,1,0,114,44,1,0.7,1,"stim/64.jpeg",6,4,"stim/64.jpeg",1,"left",1.674000025,2,2,0.940000296,1,0.991000175,114,1,0,0,1,1,0
"386","stim/objects/HouseObjects/ironingboard.png",258,44,251,0.5,"stim/41.jpeg",4,1,1,1,"HouseObjects",1,3,"left","left",0.824999809,1,1,1,0,72,44,1,0.5,2,"stim/41.jpeg",4,1,"stim/41.jpeg",3,"right",0.804000139,2,2,1.295000076,2,0.553000212,72,0,0,NA,0,NA,0
"292","stim/objects/HouseObjects/doormat.png",259,44,252,0.9,"stim/21.jpeg",2,1,3,2,"HouseObjects",1,3,"left","left",0.552000046,1,1,1,0,NA,NA,NA,NA,NA,NA,NA,NA,NA,NA,NA,NA,NA,NA,NA,NA,NA,NA,NA,NA,NA,NA,NA,NA
"282","stim/objects/HouseObjects/coffee2.png",260,44,253,0.7,"stim/63.jpeg",6,3,2,1,"HouseObjects",1,1,"left","left",0.666999817,1,1,1,0,91,44,1,0.7,1,"stim/63.jpeg",6,3,"stim/63.jpeg",1,"right",1.235000134,2,2,0.356000185,4,1.127000093,91,0,0,NA,0,NA,0
"310","stim/objects/HouseObjects/dustpan.png",261,44,254,0.9,"stim/24.jpeg",2,4,3,2,"HouseObjects",1,1,"left","left",0.453000069,1,1,1,0,NA,NA,NA,NA,NA,NA,NA,NA,NA,NA,NA,NA,NA,NA,NA,NA,NA,NA,NA,NA,NA,NA,NA,NA
"342","stim/objects/HouseObjects/garbagebin.png",262,44,255,0.9,"stim/24.jpeg",2,4,3,2,"HouseObjects",1,3,"left","left",0.447999954,1,1,1,0,NA,NA,NA,NA,NA,NA,NA,NA,NA,NA,NA,NA,NA,NA,NA,NA,NA,NA,NA,NA,NA,NA,NA,NA
"545","stim/objects/Instruments/harp.png",263,44,256,0.5,"stim/34.jpeg",3,4,1,1,"Instruments",2,2,"right","left",0.531000137,0,0,1,0,129,44,1,0.5,1,"stim/34.jpeg",3,4,"stim/34.jpeg",2,"left",1.305000305,4,4,1.058000088,4,0.72300005,129,1,1,1,0,0,0
"325","stim/objects/HouseObjects/flyswatter.png",264,44,257,0.9,"stim/24.jpeg",2,4,3,2,"HouseObjects",1,1,"left","left",0.502999783,1,1,1,0,NA,NA,NA,NA,NA,NA,NA,NA,NA,NA,NA,NA,NA,NA,NA,NA,NA,NA,NA,NA,NA,NA,NA,NA
"255","stim/objects/HouseObjects/bleachbottle2.png",265,44,258,0.3,"stim/52.jpeg",5,2,2,1,"HouseObjects",1,4,"left","right",0.530999899,0,0,1,0,68,44,1,0.3,1,"stim/52.jpeg",5,2,"stim/52.jpeg",4,"right",1.346000195,2,2,0.616000175,2,0.562000275,68,0,1,NA,0,NA,0
"546","stim/objects/Instruments/harp2.png",266,44,259,0.9,"stim/12.jpeg",1,2,3,1,"Instruments",2,2,"right","right",0.548000097,1,1,1,0,30,44,1,0.9,2,"stim/12.jpeg",1,2,"stim/12.jpeg",2,"left",0.88800025,4,2,1.424000025,3,0.002000093,30,1,1,1,0,0,0
"253","stim/objects/HouseObjects/bleachbottle.png",267,44,260,0.5,"stim/32.jpeg",3,2,1,2,"HouseObjects",1,3,"left","right",0.444999933,0,0,1,0,NA,NA,NA,NA,NA,NA,NA,NA,NA,NA,NA,NA,NA,NA,NA,NA,NA,NA,NA,NA,NA,NA,NA,NA
"360","stim/objects/HouseObjects/glass.png",268,44,261,0.9,"stim/23.jpeg",2,3,3,2,"HouseObjects",1,1,"left","left",0.553999901,1,1,1,0,NA,NA,NA,NA,NA,NA,NA,NA,NA,NA,NA,NA,NA,NA,NA,NA,NA,NA,NA,NA,NA,NA,NA,NA
"274","stim/objects/HouseObjects/clothesdryingrack2.png",269,44,262,0.7,"stim/61.jpeg",6,1,2,1,"HouseObjects",1,4,"left","left",0.595999956,1,1,1,0,161,44,1,0.7,1,"stim/61.jpeg",6,1,"stim/61.jpeg",4,"left",0.897000313,4,3,1.245000124,4,1.498000383,161,1,0,0,1,1,0
"241","stim/objects/HouseObjects/ashtray.png",270,44,263,0.5,"stim/32.jpeg",3,2,1,2,"HouseObjects",1,2,"left","right",0.536999941,0,0,1,0,NA,NA,NA,NA,NA,NA,NA,NA,NA,NA,NA,NA,NA,NA,NA,NA,NA,NA,NA,NA,NA,NA,NA,NA
"343","stim/objects/HouseObjects/garbagebin.png",271,44,264,0.9,"stim/24.jpeg",2,4,3,2,"HouseObjects",1,3,"left","left",0.419999838,1,1,1,0,NA,NA,NA,NA,NA,NA,NA,NA,NA,NA,NA,NA,NA,NA,NA,NA,NA,NA,NA,NA,NA,NA,NA,NA
"262","stim/objects/HouseObjects/broom.png",272,44,265,0.5,"stim/42.jpeg",4,2,1,2,"HouseObjects",1,1,"left","left",0.630000114,1,1,1,0,NA,NA,NA,NA,NA,NA,NA,NA,NA,NA,NA,NA,NA,NA,NA,NA,NA,NA,NA,NA,NA,NA,NA,NA
"456","stim/objects/Instruments/flute.png",273,44,266,0.9,"stim/12.jpeg",1,2,3,2,"Instruments",2,2,"right","",NA,0,0,1,0,NA,NA,NA,NA,NA,NA,NA,NA,NA,NA,NA,NA,NA,NA,NA,NA,NA,NA,NA,NA,NA,NA,NA,NA
"268","stim/objects/HouseObjects/clock.png",274,44,267,0.5,"stim/44.jpeg",4,4,1,2,"HouseObjects",1,1,"left","left",0.542999983,1,1,1,0,NA,NA,NA,NA,NA,NA,NA,NA,NA,NA,NA,NA,NA,NA,NA,NA,NA,NA,NA,NA,NA,NA,NA,NA
"455","stim/objects/Instruments/electricguitar2.png",275,44,268,0.3,"stim/63.jpeg",6,3,2,1,"Instruments",2,1,"right","left",0.579999924,0,0,1,0,75,44,1,0.3,2,"stim/63.jpeg",6,3,"stim/63.jpeg",1,"right",0.58700037,2,2,0.390000105,2,0.394000053,75,0,0,NA,0,NA,0
"362","stim/objects/HouseObjects/glass.png",276,44,269,0.9,"stim/22.jpeg",2,2,3,2,"HouseObjects",1,3,"left","left",0.582999706,1,1,1,0,NA,NA,NA,NA,NA,NA,NA,NA,NA,NA,NA,NA,NA,NA,NA,NA,NA,NA,NA,NA,NA,NA,NA,NA
"393","stim/objects/HouseObjects/lintroller2.png",277,44,270,0.9,"stim/24.jpeg",2,4,3,1,"HouseObjects",1,4,"left","left",0.601999998,1,1,1,0,18,44,1,0.9,1,"stim/24.jpeg",2,4,"stim/24.jpeg",4,"right",1.059000254,4,4,1.355999947,4,1.079000235,18,0,1,NA,1,NA,0
"278","stim/objects/HouseObjects/clothespin2.png",278,44,271,0.7,"stim/62.jpeg",6,2,2,1,"HouseObjects",1,4,"left","left",0.565999985,1,1,1,0,19,44,1,0.7,1,"stim/62.jpeg",6,2,"stim/62.jpeg",4,"right",2.641000032,4,3,0.825000286,3,2.578000307,19,0,0,NA,0,NA,0
"344","stim/objects/HouseObjects/garbagebin.png",279,44,272,0.9,"stim/24.jpeg",2,4,3,2,"HouseObjects",1,1,"left","left",0.427999973,1,1,1,0,NA,NA,NA,NA,NA,NA,NA,NA,NA,NA,NA,NA,NA,NA,NA,NA,NA,NA,NA,NA,NA,NA,NA,NA
"400","stim/objects/HouseObjects/recyclingbin.png",280,44,273,0.3,"stim/53.jpeg",5,3,2,1,"HouseObjects",1,1,"left","right",0.555999994,0,0,1,0,157,44,1,0.3,1,"stim/53.jpeg",5,3,"stim/53.jpeg",1,"right",1.222000122,4,4,1.545000076,3,0.909000158,157,0,0,NA,0,NA,0
"293","stim/objects/HouseObjects/doormat.png",281,44,274,0.9,"stim/23.jpeg",2,3,3,2,"HouseObjects",1,1,"left","left",0.430999994,1,1,1,0,NA,NA,NA,NA,NA,NA,NA,NA,NA,NA,NA,NA,NA,NA,NA,NA,NA,NA,NA,NA,NA,NA,NA,NA
"286","stim/objects/HouseObjects/cushion2.png",282,44,275,0.7,"stim/64.jpeg",6,4,2,1,"HouseObjects",1,3,"left","left",0.61899972,1,1,1,0,29,44,1,0.7,1,"stim/64.jpeg",6,4,"stim/64.jpeg",3,"left",1.124000072,4,1,1.841000319,2,2.683000088,29,1,0,0,0,0,0
"345","stim/objects/HouseObjects/garbagebin.png",283,44,276,0.9,"stim/21.jpeg",2,1,3,2,"HouseObjects",1,3,"left","left",0.479999781,1,1,1,0,NA,NA,NA,NA,NA,NA,NA,NA,NA,NA,NA,NA,NA,NA,NA,NA,NA,NA,NA,NA,NA,NA,NA,NA
"280","stim/objects/HouseObjects/coffee.png",284,44,277,0.7,"stim/61.jpeg",6,1,2,2,"HouseObjects",1,1,"left","left",0.530999899,1,1,1,0,NA,NA,NA,NA,NA,NA,NA,NA,NA,NA,NA,NA,NA,NA,NA,NA,NA,NA,NA,NA,NA,NA,NA,NA
"326","stim/objects/HouseObjects/flyswatter.png",285,44,278,0.9,"stim/22.jpeg",2,2,3,2,"HouseObjects",1,1,"left","left",0.415999889,1,1,1,0,NA,NA,NA,NA,NA,NA,NA,NA,NA,NA,NA,NA,NA,NA,NA,NA,NA,NA,NA,NA,NA,NA,NA,NA
"458","stim/objects/Instruments/flute.png",286,44,279,0.9,"stim/14.jpeg",1,4,3,2,"Instruments",2,2,"right","right",0.570999861,1,1,1,0,NA,NA,NA,NA,NA,NA,NA,NA,NA,NA,NA,NA,NA,NA,NA,NA,NA,NA,NA,NA,NA,NA,NA,NA
"256","stim/objects/HouseObjects/blender.png",287,44,280,0.5,"stim/43.jpeg",4,3,1,2,"HouseObjects",1,3,"left","left",0.438999891,1,1,1,0,NA,NA,NA,NA,NA,NA,NA,NA,NA,NA,NA,NA,NA,NA,NA,NA,NA,NA,NA,NA,NA,NA,NA,NA
"567","stim/objects/Instruments/pipepiano.png",288,44,281,0.7,"stim/51.jpeg",5,1,2,1,"Instruments",2,4,"right","right",0.497999907,1,1,1,0,181,44,1,0.7,2,"stim/51.jpeg",5,1,"stim/51.jpeg",4,"left",0.875,4,4,1.893000364,2,1.192000151,181,1,0,0,0,0,0
"311","stim/objects/HouseObjects/dustpan.png",289,44,282,0.9,"stim/22.jpeg",2,2,3,2,"HouseObjects",1,1,"left","left",0.431999922,1,1,1,0,NA,NA,NA,NA,NA,NA,NA,NA,NA,NA,NA,NA,NA,NA,NA,NA,NA,NA,NA,NA,NA,NA,NA,NA
"474","stim/objects/Instruments/flutetrans.png",290,44,283,0.9,"stim/12.jpeg",1,2,3,2,"Instruments",2,1,"right","left",0.30099988,0,0,1,0,NA,NA,NA,NA,NA,NA,NA,NA,NA,NA,NA,NA,NA,NA,NA,NA,NA,NA,NA,NA,NA,NA,NA,NA
"327","stim/objects/HouseObjects/flyswatter.png",291,44,284,0.9,"stim/21.jpeg",2,1,3,2,"HouseObjects",1,3,"left","left",0.463999987,1,1,1,0,NA,NA,NA,NA,NA,NA,NA,NA,NA,NA,NA,NA,NA,NA,NA,NA,NA,NA,NA,NA,NA,NA,NA,NA
"312","stim/objects/HouseObjects/dustpan.png",292,44,285,0.9,"stim/21.jpeg",2,1,3,2,"HouseObjects",1,4,"left","left",0.51699996,1,1,1,0,NA,NA,NA,NA,NA,NA,NA,NA,NA,NA,NA,NA,NA,NA,NA,NA,NA,NA,NA,NA,NA,NA,NA,NA
"492","stim/objects/Instruments/frenchhorn.png",293,44,286,0.9,"stim/12.jpeg",1,2,3,2,"Instruments",2,2,"right","right",0.457000017,1,1,1,0,NA,NA,NA,NA,NA,NA,NA,NA,NA,NA,NA,NA,NA,NA,NA,NA,NA,NA,NA,NA,NA,NA,NA,NA
"493","stim/objects/Instruments/frenchhorn.png",294,44,287,0.9,"stim/14.jpeg",1,4,3,2,"Instruments",2,1,"right","right",0.498999834,1,1,1,0,NA,NA,NA,NA,NA,NA,NA,NA,NA,NA,NA,NA,NA,NA,NA,NA,NA,NA,NA,NA,NA,NA,NA,NA
"295","stim/objects/HouseObjects/doormat.png",295,44,288,0.9,"stim/24.jpeg",2,4,3,2,"HouseObjects",1,2,"left","left",0.421999931,1,1,1,0,NA,NA,NA,NA,NA,NA,NA,NA,NA,NA,NA,NA,NA,NA,NA,NA,NA,NA,NA,NA,NA,NA,NA,NA
"561","stim/objects/Instruments/musicstand.png",296,44,289,0.7,"stim/52.jpeg",5,2,2,1,"Instruments",2,2,"right","right",0.507999897,1,1,1,0,200,44,1,0.7,2,"stim/52.jpeg",5,2,"stim/52.jpeg",2,"left",0.942000151,3,2,0.953000307,2,0.686000109,200,1,1,1,1,1,0
"555","stim/objects/Instruments/marimba.png",297,44,290,0.5,"stim/42.jpeg",4,2,1,1,"Instruments",2,4,"right","left",0.621999979,0,0,1,0,140,44,1,0.5,2,"stim/42.jpeg",4,2,"stim/42.jpeg",4,"left",1.054000139,3,3,0.962000132,3,4.418000221,140,1,0,0,0,0,0
"448","stim/objects/Instruments/electricdrumset.png",298,44,291,0.7,"stim/52.jpeg",5,2,2,2,"Instruments",2,3,"right","left",0.417999983,0,0,1,0,NA,NA,NA,NA,NA,NA,NA,NA,NA,NA,NA,NA,NA,NA,NA,NA,NA,NA,NA,NA,NA,NA,NA,NA
"324","stim/objects/HouseObjects/dustpan2.png",299,44,292,0.1,"stim/12.jpeg",1,2,3,1,"HouseObjects",1,2,"left","right",0.517999887,0,0,1,0,95,44,1,0.1,1,"stim/12.jpeg",1,2,"stim/12.jpeg",2,"right",1.154000044,4,4,1.260000229,4,0.63800025,95,0,0,NA,0,NA,0
"363","stim/objects/HouseObjects/glass.png",300,44,293,0.9,"stim/21.jpeg",2,1,3,2,"HouseObjects",1,1,"left","left",0.45600009,1,1,1,0,NA,NA,NA,NA,NA,NA,NA,NA,NA,NA,NA,NA,NA,NA,NA,NA,NA,NA,NA,NA,NA,NA,NA,NA
"525","stim/objects/Instruments/grandpiano.png",301,44,294,0.9,"stim/12.jpeg",1,2,3,2,"Instruments",2,4,"right","right",0.517999887,1,1,1,0,NA,NA,NA,NA,NA,NA,NA,NA,NA,NA,NA,NA,NA,NA,NA,NA,NA,NA,NA,NA,NA,NA,NA,NA
"509","stim/objects/Instruments/gong.png",302,44,295,0.9,"stim/12.jpeg",1,2,3,2,"Instruments",2,4,"right","right",0.70600009,1,1,1,0,NA,NA,NA,NA,NA,NA,NA,NA,NA,NA,NA,NA,NA,NA,NA,NA,NA,NA,NA,NA,NA,NA,NA,NA
"459","stim/objects/Instruments/flute.png",303,44,296,0.9,"stim/14.jpeg",1,4,3,2,"Instruments",2,4,"right","right",0.591999769,1,1,1,0,NA,NA,NA,NA,NA,NA,NA,NA,NA,NA,NA,NA,NA,NA,NA,NA,NA,NA,NA,NA,NA,NA,NA,NA
"542","stim/objects/Instruments/guitarcase2.png",304,44,297,0.9,"stim/14.jpeg",1,4,3,1,"Instruments",2,4,"right","right",0.481999874,1,1,1,0,110,44,1,0.9,2,"stim/14.jpeg",1,4,"stim/14.jpeg",4,"left",1.275000334,4,2,1.508000135,4,0.931000233,110,1,0,0,1,1,0
"375","stim/objects/HouseObjects/glass2.png",305,44,298,0.1,"stim/11.jpeg",1,1,3,1,"HouseObjects",1,4,"left","right",0.529999971,0,0,1,0,182,44,1,0.1,1,"stim/11.jpeg",1,1,"stim/11.jpeg",4,"right",0.911000013,4,4,0.609000206,2,0.768000126,182,0,0,NA,0,NA,0
"540","stim/objects/Instruments/grandpiano2.png",306,44,299,0.9,"stim/13.jpeg",1,3,3,1,"Instruments",2,1,"right","right",0.719000101,1,1,1,0,2,44,1,0.9,2,"stim/13.jpeg",1,3,"stim/13.jpeg",1,"left",1.338000298,4,4,3.274000168,2,2.471000195,2,1,0,0,0,0,0
"364","stim/objects/HouseObjects/glass.png",307,44,300,0.9,"stim/21.jpeg",2,1,3,2,"HouseObjects",1,1,"left","left",0.421999931,1,1,1,0,NA,NA,NA,NA,NA,NA,NA,NA,NA,NA,NA,NA,NA,NA,NA,NA,NA,NA,NA,NA,NA,NA,NA,NA
"272","stim/objects/HouseObjects/clothesdryingrack.png",308,44,301,0.7,"stim/62.jpeg",6,2,2,2,"HouseObjects",1,4,"left","left",0.591999769,1,1,1,0,NA,NA,NA,NA,NA,NA,NA,NA,NA,NA,NA,NA,NA,NA,NA,NA,NA,NA,NA,NA,NA,NA,NA,NA
"380","stim/objects/HouseObjects/handbrush.png",309,44,302,0.5,"stim/31.jpeg",3,1,1,1,"HouseObjects",1,4,"left","left",0.536999941,1,1,1,0,197,44,1,0.5,1,"stim/31.jpeg",3,1,"stim/31.jpeg",4,"right",0.570000172,2,2,0.566000223,2,0.4150002,197,0,0,NA,0,NA,0
"444","stim/objects/Instruments/drums.png",310,44,303,0.7,"stim/52.jpeg",5,2,2,2,"Instruments",2,1,"right","right",0.563999891,1,1,1,0,NA,NA,NA,NA,NA,NA,NA,NA,NA,NA,NA,NA,NA,NA,NA,NA,NA,NA,NA,NA,NA,NA,NA,NA
"549","stim/objects/Instruments/keyboard.png",311,44,304,0.5,"stim/32.jpeg",3,2,1,1,"Instruments",2,2,"right","left",0.667000055,0,0,1,0,123,44,1,0.5,1,"stim/32.jpeg",3,2,"stim/32.jpeg",2,"left",2.853000164,2,1,0.992000103,1,0.650000095,123,1,0,0,0,0,0
"283","stim/objects/HouseObjects/cushion.png",312,44,305,0.7,"stim/64.jpeg",6,4,2,2,"HouseObjects",1,3,"left","right",0.745999813,0,0,1,0,NA,NA,NA,NA,NA,NA,NA,NA,NA,NA,NA,NA,NA,NA,NA,NA,NA,NA,NA,NA,NA,NA,NA,NA
"331","stim/objects/HouseObjects/flyswatter.png",313,44,306,0.9,"stim/23.jpeg",2,3,3,2,"HouseObjects",1,1,"left","left",0.417999983,1,1,1,0,NA,NA,NA,NA,NA,NA,NA,NA,NA,NA,NA,NA,NA,NA,NA,NA,NA,NA,NA,NA,NA,NA,NA,NA
"478","stim/objects/Instruments/flutetrans.png",314,44,307,0.9,"stim/11.jpeg",1,1,3,2,"Instruments",2,2,"right","right",0.50999999,1,1,1,0,NA,NA,NA,NA,NA,NA,NA,NA,NA,NA,NA,NA,NA,NA,NA,NA,NA,NA,NA,NA,NA,NA,NA,NA
"562","stim/objects/Instruments/musicstand2.png",315,44,308,0.1,"stim/24.jpeg",2,4,3,1,"Instruments",2,3,"right","left",0.482999802,0,0,1,0,96,44,1,0.1,2,"stim/24.jpeg",2,4,"stim/24.jpeg",3,"right",2.052000284,3,2,0.934000254,2,0.631000042,96,0,0,NA,0,NA,0
"425","stim/objects/Instruments/cello.png",316,44,309,0.5,"stim/43.jpeg",4,3,1,2,"Instruments",2,2,"right","left",0.592000008,0,0,1,0,NA,NA,NA,NA,NA,NA,NA,NA,NA,NA,NA,NA,NA,NA,NA,NA,NA,NA,NA,NA,NA,NA,NA,NA
"377","stim/objects/HouseObjects/glassmop2.png",317,44,310,0.1,"stim/12.jpeg",1,2,3,1,"HouseObjects",1,3,"left","right",0.463999748,0,0,1,0,23,44,1,0.1,1,"stim/12.jpeg",1,2,"stim/12.jpeg",3,"right",1.442000151,4,3,1.151000023,3,0.584000111,23,0,0,NA,1,NA,0
"429","stim/objects/Instruments/chime2.png",318,44,311,0.3,"stim/64.jpeg",6,4,2,1,"Instruments",2,1,"right","left",0.51699996,0,0,1,0,165,44,1,0.3,2,"stim/64.jpeg",6,4,"stim/64.jpeg",1,"right",0.478000164,3,3,0.580000162,4,0.846000195,165,0,0,NA,0,NA,0
"479","stim/objects/Instruments/flutetrans.png",319,44,312,0.9,"stim/13.jpeg",1,3,3,2,"Instruments",2,2,"right","right",0.471999884,1,1,1,0,NA,NA,NA,NA,NA,NA,NA,NA,NA,NA,NA,NA,NA,NA,NA,NA,NA,NA,NA,NA,NA,NA,NA,NA
"551","stim/objects/Instruments/laud.png",320,44,313,0.5,"stim/44.jpeg",4,4,1,1,"Instruments",2,1,"right","left",0.596999884,0,0,1,0,98,44,1,0.5,2,"stim/44.jpeg",4,4,"stim/44.jpeg",1,"right",1.056000233,2,2,0.654000044,3,0.649000168,98,0,0,NA,0,NA,0
"461","stim/objects/Instruments/flute.png",321,44,314,0.9,"stim/12.jpeg",1,2,3,2,"Instruments",2,2,"right","right",0.531000137,1,1,1,0,NA,NA,NA,NA,NA,NA,NA,NA,NA,NA,NA,NA,NA,NA,NA,NA,NA,NA,NA,NA,NA,NA,NA,NA
"480","stim/objects/Instruments/flutetrans.png",322,44,315,0.9,"stim/12.jpeg",1,2,3,2,"Instruments",2,1,"right","right",0.593999863,1,1,1,0,NA,NA,NA,NA,NA,NA,NA,NA,NA,NA,NA,NA,NA,NA,NA,NA,NA,NA,NA,NA,NA,NA,NA,NA
"481","stim/objects/Instruments/flutetrans.png",323,44,316,0.9,"stim/12.jpeg",1,2,3,2,"Instruments",2,4,"right","right",0.417000055,1,1,1,0,NA,NA,NA,NA,NA,NA,NA,NA,NA,NA,NA,NA,NA,NA,NA,NA,NA,NA,NA,NA,NA,NA,NA,NA
"332","stim/objects/HouseObjects/flyswatter.png",324,44,317,0.9,"stim/21.jpeg",2,1,3,2,"HouseObjects",1,1,"left","left",0.493999958,1,1,1,0,NA,NA,NA,NA,NA,NA,NA,NA,NA,NA,NA,NA,NA,NA,NA,NA,NA,NA,NA,NA,NA,NA,NA,NA
"510","stim/objects/Instruments/gong.png",325,44,318,0.9,"stim/14.jpeg",1,4,3,2,"Instruments",2,1,"right","right",0.510999918,1,1,1,0,NA,NA,NA,NA,NA,NA,NA,NA,NA,NA,NA,NA,NA,NA,NA,NA,NA,NA,NA,NA,NA,NA,NA,NA
"397","stim/objects/HouseObjects/pan2.png",326,44,319,0.9,"stim/22.jpeg",2,2,3,1,"HouseObjects",1,3,"left","left",0.497999907,1,1,1,0,88,44,1,0.9,1,"stim/22.jpeg",2,2,"stim/22.jpeg",3,"right",0.726000071,1,1,0.577000141,1,0.583000183,88,0,0,NA,0,NA,0
"527","stim/objects/Instruments/grandpiano.png",327,44,320,0.9,"stim/12.jpeg",1,2,3,2,"Instruments",2,2,"right","right",0.516000032,1,1,1,0,NA,NA,NA,NA,NA,NA,NA,NA,NA,NA,NA,NA,NA,NA,NA,NA,NA,NA,NA,NA,NA,NA,NA,NA
"404","stim/objects/HouseObjects/rubbergloves.png",328,44,321,0.3,"stim/51.jpeg",5,1,2,1,"HouseObjects",1,1,"left","right",0.646999836,0,0,1,0,51,44,1,0.3,1,"stim/51.jpeg",5,1,"stim/51.jpeg",1,"right",0.947999954,3,3,0.372000217,3,0.44900012,51,0,0,NA,0,NA,0
"366","stim/objects/HouseObjects/glass.png",329,44,322,0.9,"stim/23.jpeg",2,3,3,2,"HouseObjects",1,1,"left","left",0.516000032,1,1,1,0,NA,NA,NA,NA,NA,NA,NA,NA,NA,NA,NA,NA,NA,NA,NA,NA,NA,NA,NA,NA,NA,NA,NA,NA
"483","stim/objects/Instruments/flutetrans.png",330,44,323,0.9,"stim/14.jpeg",1,4,3,2,"Instruments",2,4,"right","right",0.493999958,1,1,1,0,NA,NA,NA,NA,NA,NA,NA,NA,NA,NA,NA,NA,NA,NA,NA,NA,NA,NA,NA,NA,NA,NA,NA,NA
"484","stim/objects/Instruments/flutetrans.png",331,44,324,0.9,"stim/13.jpeg",1,3,3,2,"Instruments",2,4,"right","right",0.516999722,1,1,1,0,NA,NA,NA,NA,NA,NA,NA,NA,NA,NA,NA,NA,NA,NA,NA,NA,NA,NA,NA,NA,NA,NA,NA,NA
"558","stim/objects/Instruments/metronome2.png",332,44,325,0.1,"stim/22.jpeg",2,2,3,1,"Instruments",2,3,"right","left",0.430999994,0,0,1,0,139,44,1,0.1,2,"stim/22.jpeg",2,2,"stim/22.jpeg",3,"left",1.095000029,3,2,1.412000179,3,1.802000046,139,1,1,1,1,1,0
"550","stim/objects/Instruments/keyboard2.png",333,44,326,0.9,"stim/14.jpeg",1,4,3,1,"Instruments",2,2,"right","right",0.412999868,1,1,1,0,3,44,1,0.9,2,"stim/14.jpeg",1,4,"stim/14.jpeg",2,"left",2.28000021,2,4,2.101999998,4,1.315000057,3,1,1,1,0,0,0
"462","stim/objects/Instruments/flute.png",334,44,327,0.9,"stim/14.jpeg",1,4,3,2,"Instruments",2,4,"right","right",0.430999756,1,1,1,0,NA,NA,NA,NA,NA,NA,NA,NA,NA,NA,NA,NA,NA,NA,NA,NA,NA,NA,NA,NA,NA,NA,NA,NA
"422","stim/objects/Instruments/bassguitar.png",335,44,328,0.5,"stim/42.jpeg",4,2,1,2,"Instruments",2,4,"right","right",0.424999714,1,1,1,0,NA,NA,NA,NA,NA,NA,NA,NA,NA,NA,NA,NA,NA,NA,NA,NA,NA,NA,NA,NA,NA,NA,NA,NA
"314","stim/objects/HouseObjects/dustpan.png",336,44,329,0.9,"stim/21.jpeg",2,1,3,2,"HouseObjects",1,2,"left","left",0.565999985,1,1,1,0,NA,NA,NA,NA,NA,NA,NA,NA,NA,NA,NA,NA,NA,NA,NA,NA,NA,NA,NA,NA,NA,NA,NA,NA
"552","stim/objects/Instruments/laud2.png",337,44,330,0.1,"stim/23.jpeg",2,3,3,1,"Instruments",2,4,"right","left",0.541999817,0,0,1,0,90,44,1,0.1,2,"stim/23.jpeg",2,3,"stim/23.jpeg",4,"left",1.361000061,2,2,0.955000162,2,0.455000162,90,1,0,0,0,0,0
"315","stim/objects/HouseObjects/dustpan.png",338,44,331,0.9,"stim/21.jpeg",2,1,3,2,"HouseObjects",1,3,"left","left",0.378999949,1,1,1,0,NA,NA,NA,NA,NA,NA,NA,NA,NA,NA,NA,NA,NA,NA,NA,NA,NA,NA,NA,NA,NA,NA,NA,NA
"259","stim/objects/HouseObjects/bottle.png",339,44,332,0.5,"stim/44.jpeg",4,4,1,2,"HouseObjects",1,2,"left","left",0.421000004,1,1,1,0,NA,NA,NA,NA,NA,NA,NA,NA,NA,NA,NA,NA,NA,NA,NA,NA,NA,NA,NA,NA,NA,NA,NA,NA
"423","stim/objects/Instruments/bassguitar2.png",340,44,333,0.3,"stim/62.jpeg",6,2,2,1,"Instruments",2,3,"right","left",0.463000059,0,0,1,0,82,44,1,0.3,2,"stim/62.jpeg",6,2,"stim/62.jpeg",3,"right",1.463000298,1,1,0.895000219,4,1.710000038,82,0,0,NA,0,NA,0
"406","stim/objects/Instruments/accordion.png",341,44,334,0.5,"stim/34.jpeg",3,4,1,2,"Instruments",2,1,"right","left",0.473999977,0,0,1,0,NA,NA,NA,NA,NA,NA,NA,NA,NA,NA,NA,NA,NA,NA,NA,NA,NA,NA,NA,NA,NA,NA,NA,NA
"260","stim/objects/HouseObjects/bottle.png",342,44,335,0.5,"stim/41.jpeg",4,1,1,2,"HouseObjects",1,2,"left","left",0.645999908,1,1,1,0,NA,NA,NA,NA,NA,NA,NA,NA,NA,NA,NA,NA,NA,NA,NA,NA,NA,NA,NA,NA,NA,NA,NA,NA
"316","stim/objects/HouseObjects/dustpan.png",343,44,336,0.9,"stim/23.jpeg",2,3,3,2,"HouseObjects",1,4,"left","left",0.50999999,1,1,1,0,NA,NA,NA,NA,NA,NA,NA,NA,NA,NA,NA,NA,NA,NA,NA,NA,NA,NA,NA,NA,NA,NA,NA,NA
"264","stim/objects/HouseObjects/broom2.png",344,44,337,0.7,"stim/62.jpeg",6,2,2,1,"HouseObjects",1,2,"left","left",0.437999964,1,1,1,0,166,44,1,0.7,1,"stim/62.jpeg",6,2,"stim/62.jpeg",2,"right",0.792000294,4,3,1.13499999,3,0.703999996,166,0,0,NA,0,NA,0
"368","stim/objects/HouseObjects/glass.png",345,44,338,0.9,"stim/22.jpeg",2,2,3,2,"HouseObjects",1,4,"left","left",0.595999956,1,1,1,0,NA,NA,NA,NA,NA,NA,NA,NA,NA,NA,NA,NA,NA,NA,NA,NA,NA,NA,NA,NA,NA,NA,NA,NA
"385","stim/objects/HouseObjects/iron2.png",346,44,339,0.1,"stim/12.jpeg",1,2,3,1,"HouseObjects",1,4,"left","right",0.627000093,0,0,1,0,167,44,1,0.1,1,"stim/12.jpeg",1,2,"stim/12.jpeg",4,"right",1.84800005,4,4,1.313000202,4,0.476999998,167,0,0,NA,1,NA,0
"427","stim/objects/Instruments/chime.png",347,44,340,0.5,"stim/44.jpeg",4,4,1,2,"Instruments",2,1,"right","left",0.530999899,0,0,1,0,NA,NA,NA,NA,NA,NA,NA,NA,NA,NA,NA,NA,NA,NA,NA,NA,NA,NA,NA,NA,NA,NA,NA,NA
"252","stim/objects/HouseObjects/basket2.png",348,44,341,0.3,"stim/51.jpeg",5,1,2,1,"HouseObjects",1,3,"left","right",0.558000088,0,0,1,0,59,44,1,0.3,1,"stim/51.jpeg",5,1,"stim/51.jpeg",3,"right",0.604000092,3,3,0.427000284,2,0.837000132,59,0,0,NA,0,NA,0
"452","stim/objects/Instruments/electricguitar.png",349,44,342,0.7,"stim/53.jpeg",5,3,2,2,"Instruments",2,4,"right","left",0.690999985,0,0,1,0,NA,NA,NA,NA,NA,NA,NA,NA,NA,NA,NA,NA,NA,NA,NA,NA,NA,NA,NA,NA,NA,NA,NA,NA
"528","stim/objects/Instruments/grandpiano.png",350,44,343,0.9,"stim/13.jpeg",1,3,3,2,"Instruments",2,2,"right","right",0.572999954,1,1,1,0,NA,NA,NA,NA,NA,NA,NA,NA,NA,NA,NA,NA,NA,NA,NA,NA,NA,NA,NA,NA,NA,NA,NA,NA
"285","stim/objects/HouseObjects/cushion.png",351,44,344,0.7,"stim/61.jpeg",6,1,2,2,"HouseObjects",1,4,"left","left",0.407999992,1,1,1,0,NA,NA,NA,NA,NA,NA,NA,NA,NA,NA,NA,NA,NA,NA,NA,NA,NA,NA,NA,NA,NA,NA,NA,NA
"369","stim/objects/HouseObjects/glass.png",352,44,345,0.9,"stim/24.jpeg",2,4,3,2,"HouseObjects",1,1,"left","left",0.436999798,1,1,1,0,NA,NA,NA,NA,NA,NA,NA,NA,NA,NA,NA,NA,NA,NA,NA,NA,NA,NA,NA,NA,NA,NA,NA,NA
"307","stim/objects/HouseObjects/doormat2.png",353,44,346,0.1,"stim/11.jpeg",1,1,3,1,"HouseObjects",1,4,"left","left",0.553999901,1,1,1,0,146,44,1,0.1,1,"stim/11.jpeg",1,1,"stim/11.jpeg",4,"right",1.149000168,3,3,0.490000248,3,0.460999966,146,0,0,NA,0,NA,0
"568","stim/objects/Instruments/pipepiano2.png",354,44,347,0.1,"stim/23.jpeg",2,3,3,1,"Instruments",2,3,"right","left",0.398999929,0,0,1,0,36,44,1,0.1,2,"stim/23.jpeg",2,3,"stim/23.jpeg",3,"left",0.970000029,2,3,4.105000257,4,1.070000172,36,1,1,1,0,0,0
"288","stim/objects/HouseObjects/dishsoap.png",355,44,348,0.7,"stim/61.jpeg",6,1,2,2,"HouseObjects",1,3,"left","left",0.464999914,1,1,1,0,NA,NA,NA,NA,NA,NA,NA,NA,NA,NA,NA,NA,NA,NA,NA,NA,NA,NA,NA,NA,NA,NA,NA,NA
"265","stim/objects/HouseObjects/bucket.png",356,44,349,0.5,"stim/42.jpeg",4,2,1,2,"HouseObjects",1,4,"left","right",0.510999918,0,0,1,0,NA,NA,NA,NA,NA,NA,NA,NA,NA,NA,NA,NA,NA,NA,NA,NA,NA,NA,NA,NA,NA,NA,NA,NA
"526","stim/objects/Instruments/grandpiano.png",357,44,350,0.9,"stim/12.jpeg",1,2,3,2,"Instruments",2,2,"right","left",0.416999817,0,0,1,0,NA,NA,NA,NA,NA,NA,NA,NA,NA,NA,NA,NA,NA,NA,NA,NA,NA,NA,NA,NA,NA,NA,NA,NA
"365","stim/objects/HouseObjects/glass.png",358,44,351,0.9,"stim/21.jpeg",2,1,3,2,"HouseObjects",1,4,"left","left",0.520999908,1,1,1,0,NA,NA,NA,NA,NA,NA,NA,NA,NA,NA,NA,NA,NA,NA,NA,NA,NA,NA,NA,NA,NA,NA,NA,NA
"428","stim/objects/Instruments/chime.png",359,44,352,0.5,"stim/41.jpeg",4,1,1,2,"Instruments",2,2,"right","",NA,0,0,1,0,NA,NA,NA,NA,NA,NA,NA,NA,NA,NA,NA,NA,NA,NA,NA,NA,NA,NA,NA,NA,NA,NA,NA,NA
"346","stim/objects/HouseObjects/garbagebin.png",360,44,353,0.9,"stim/22.jpeg",2,2,3,2,"HouseObjects",1,2,"left","left",0.480999947,1,1,1,0,NA,NA,NA,NA,NA,NA,NA,NA,NA,NA,NA,NA,NA,NA,NA,NA,NA,NA,NA,NA,NA,NA,NA,NA
"437","stim/objects/Instruments/cymbal.png",361,44,354,0.7,"stim/53.jpeg",5,3,2,2,"Instruments",2,4,"right","",NA,0,0,1,0,NA,NA,NA,NA,NA,NA,NA,NA,NA,NA,NA,NA,NA,NA,NA,NA,NA,NA,NA,NA,NA,NA,NA,NA
"409","stim/objects/Instruments/acousticguitar.png",362,44,355,0.5,"stim/32.jpeg",3,2,1,2,"Instruments",2,3,"right","left",0.447999716,0,0,1,0,NA,NA,NA,NA,NA,NA,NA,NA,NA,NA,NA,NA,NA,NA,NA,NA,NA,NA,NA,NA,NA,NA,NA,NA
"370","stim/objects/HouseObjects/glass.png",363,44,356,0.9,"stim/23.jpeg",2,3,3,2,"HouseObjects",1,3,"left","left",0.236000061,1,1,1,0,NA,NA,NA,NA,NA,NA,NA,NA,NA,NA,NA,NA,NA,NA,NA,NA,NA,NA,NA,NA,NA,NA,NA,NA
"511","stim/objects/Instruments/gong.png",364,44,357,0.9,"stim/12.jpeg",1,2,3,2,"Instruments",2,2,"right","right",0.52699995,1,1,1,0,NA,NA,NA,NA,NA,NA,NA,NA,NA,NA,NA,NA,NA,NA,NA,NA,NA,NA,NA,NA,NA,NA,NA,NA
"334","stim/objects/HouseObjects/flyswatter.png",365,44,358,0.9,"stim/24.jpeg",2,4,3,2,"HouseObjects",1,4,"left","left",0.403999805,1,1,1,0,NA,NA,NA,NA,NA,NA,NA,NA,NA,NA,NA,NA,NA,NA,NA,NA,NA,NA,NA,NA,NA,NA,NA,NA
"317","stim/objects/HouseObjects/dustpan.png",366,44,359,0.9,"stim/24.jpeg",2,4,3,2,"HouseObjects",1,1,"left","left",0.402999878,1,1,1,0,NA,NA,NA,NA,NA,NA,NA,NA,NA,NA,NA,NA,NA,NA,NA,NA,NA,NA,NA,NA,NA,NA,NA,NA
"559","stim/objects/Instruments/musicsheet.png",367,44,360,0.5,"stim/44.jpeg",4,4,1,1,"Instruments",2,2,"right","left",0.569000006,0,0,1,0,86,44,1,0.5,2,"stim/44.jpeg",4,4,"stim/44.jpeg",2,"left",0.827000141,4,4,1.391000032,4,0.766000032,86,1,1,1,0,0,0
"463","stim/objects/Instruments/flute.png",368,44,361,0.9,"stim/12.jpeg",1,2,3,2,"Instruments",2,4,"right","right",0.447999954,1,1,1,0,NA,NA,NA,NA,NA,NA,NA,NA,NA,NA,NA,NA,NA,NA,NA,NA,NA,NA,NA,NA,NA,NA,NA,NA
"348","stim/objects/HouseObjects/garbagebin.png",369,44,362,0.9,"stim/22.jpeg",2,2,3,2,"HouseObjects",1,1,"left","left",0.31400013,1,1,1,0,NA,NA,NA,NA,NA,NA,NA,NA,NA,NA,NA,NA,NA,NA,NA,NA,NA,NA,NA,NA,NA,NA,NA,NA
"566","stim/objects/Instruments/panflute2.png",370,44,363,0.1,"stim/22.jpeg",2,2,3,1,"Instruments",2,1,"right","left",0.334000111,0,0,1,0,191,44,1,0.1,2,"stim/22.jpeg",2,2,"stim/22.jpeg",1,"right",0.973000288,2,4,0.506000042,2,0.443000078,191,0,0,NA,0,NA,0
"394","stim/objects/HouseObjects/match.png",371,44,364,0.5,"stim/41.jpeg",4,1,1,1,"HouseObjects",1,1,"left","left",0.204999924,1,1,1,0,117,44,1,0.5,2,"stim/41.jpeg",4,1,"stim/41.jpeg",1,"right",0.687999964,3,2,0.609000206,2,0.703000069,117,0,0,NA,0,NA,0
"271","stim/objects/HouseObjects/clothesdryingrack.png",372,44,365,0.7,"stim/63.jpeg",6,3,2,2,"HouseObjects",1,2,"left","left",0.508999825,1,1,1,0,NA,NA,NA,NA,NA,NA,NA,NA,NA,NA,NA,NA,NA,NA,NA,NA,NA,NA,NA,NA,NA,NA,NA,NA
"472","stim/objects/Instruments/flute2.png",373,44,366,0.9,"stim/13.jpeg",1,3,3,1,"Instruments",2,3,"right","right",0.559999943,1,1,1,0,97,44,1,0.9,2,"stim/13.jpeg",1,3,"stim/13.jpeg",3,"left",1.208000183,3,3,1.759000063,1,1.289000273,97,1,1,1,0,0,0
"359","stim/objects/HouseObjects/glass.png",374,44,367,0.9,"stim/24.jpeg",2,4,3,2,"HouseObjects",1,4,"left","left",0.374000072,1,1,1,0,NA,NA,NA,NA,NA,NA,NA,NA,NA,NA,NA,NA,NA,NA,NA,NA,NA,NA,NA,NA,NA,NA,NA,NA
"371","stim/objects/HouseObjects/glass.png",375,44,368,0.9,"stim/22.jpeg",2,2,3,2,"HouseObjects",1,3,"left","left",0.32799983,1,1,1,0,NA,NA,NA,NA,NA,NA,NA,NA,NA,NA,NA,NA,NA,NA,NA,NA,NA,NA,NA,NA,NA,NA,NA,NA
"318","stim/objects/HouseObjects/dustpan.png",376,44,369,0.9,"stim/21.jpeg",2,1,3,2,"HouseObjects",1,3,"left","left",0.263999939,1,1,1,0,NA,NA,NA,NA,NA,NA,NA,NA,NA,NA,NA,NA,NA,NA,NA,NA,NA,NA,NA,NA,NA,NA,NA,NA
"349","stim/objects/HouseObjects/garbagebin.png",377,44,370,0.9,"stim/24.jpeg",2,4,3,2,"HouseObjects",1,1,"left","left",0.400999784,1,1,1,0,NA,NA,NA,NA,NA,NA,NA,NA,NA,NA,NA,NA,NA,NA,NA,NA,NA,NA,NA,NA,NA,NA,NA,NA
"507","stim/objects/Instruments/gong.png",378,44,371,0.9,"stim/12.jpeg",1,2,3,2,"Instruments",2,1,"right","right",0.538999796,1,1,1,0,NA,NA,NA,NA,NA,NA,NA,NA,NA,NA,NA,NA,NA,NA,NA,NA,NA,NA,NA,NA,NA,NA,NA,NA
"291","stim/objects/HouseObjects/doormat.png",379,44,372,0.9,"stim/22.jpeg",2,2,3,2,"HouseObjects",1,4,"left","left",0.463999748,1,1,1,0,NA,NA,NA,NA,NA,NA,NA,NA,NA,NA,NA,NA,NA,NA,NA,NA,NA,NA,NA,NA,NA,NA,NA,NA
"383","stim/objects/HouseObjects/handvacuum2.png",380,44,373,0.1,"stim/11.jpeg",1,1,3,1,"HouseObjects",1,2,"left","right",0.483999968,0,0,1,0,192,44,1,0.1,1,"stim/11.jpeg",1,1,"stim/11.jpeg",2,"right",0.663000107,2,2,0.442000151,4,0.027000189,192,0,0,NA,0,NA,0
"309","stim/objects/HouseObjects/dustpan.png",381,44,374,0.9,"stim/22.jpeg",2,2,3,2,"HouseObjects",1,3,"left","left",0.380000114,1,1,1,0,NA,NA,NA,NA,NA,NA,NA,NA,NA,NA,NA,NA,NA,NA,NA,NA,NA,NA,NA,NA,NA,NA,NA,NA
"405","stim/objects/HouseObjects/rubbergloves2.png",382,44,375,0.9,"stim/22.jpeg",2,2,3,1,"HouseObjects",1,4,"left","left",0.470000029,1,1,1,0,162,44,1,0.9,1,"stim/22.jpeg",2,2,"stim/22.jpeg",4,"right",0.784000158,3,3,0.804000139,2,0.944000244,162,0,0,NA,0,NA,0
"486","stim/objects/Instruments/flutetrans.png",383,44,376,0.9,"stim/13.jpeg",1,3,3,2,"Instruments",2,3,"right","right",0.617999792,1,1,1,0,NA,NA,NA,NA,NA,NA,NA,NA,NA,NA,NA,NA,NA,NA,NA,NA,NA,NA,NA,NA,NA,NA,NA,NA
"275","stim/objects/HouseObjects/clothespin.png",384,44,377,0.7,"stim/62.jpeg",6,2,2,2,"HouseObjects",1,2,"left","left",0.523000002,1,1,1,0,NA,NA,NA,NA,NA,NA,NA,NA,NA,NA,NA,NA,NA,NA,NA,NA,NA,NA,NA,NA,NA,NA,NA,NA
"464","stim/objects/Instruments/flute.png",385,44,378,0.9,"stim/12.jpeg",1,2,3,2,"Instruments",2,2,"right","right",0.49000001,1,1,1,0,NA,NA,NA,NA,NA,NA,NA,NA,NA,NA,NA,NA,NA,NA,NA,NA,NA,NA,NA,NA,NA,NA,NA,NA
"508","stim/objects/Instruments/gong.png",386,44,379,0.9,"stim/11.jpeg",1,1,3,2,"Instruments",2,2,"right","right",0.446000099,1,1,1,0,NA,NA,NA,NA,NA,NA,NA,NA,NA,NA,NA,NA,NA,NA,NA,NA,NA,NA,NA,NA,NA,NA,NA,NA
"473","stim/objects/Instruments/flutetrans.png",387,44,380,0.9,"stim/14.jpeg",1,4,3,2,"Instruments",2,3,"right","right",0.522999763,1,1,1,0,NA,NA,NA,NA,NA,NA,NA,NA,NA,NA,NA,NA,NA,NA,NA,NA,NA,NA,NA,NA,NA,NA,NA,NA
"242","stim/objects/HouseObjects/ashtray.png",388,44,381,0.5,"stim/31.jpeg",3,1,1,2,"HouseObjects",1,1,"left","left",0.464999914,1,1,1,0,NA,NA,NA,NA,NA,NA,NA,NA,NA,NA,NA,NA,NA,NA,NA,NA,NA,NA,NA,NA,NA,NA,NA,NA
"415","stim/objects/Instruments/banjo.png",389,44,382,0.5,"stim/34.jpeg",3,4,1,2,"Instruments",2,3,"right","left",0.373999834,0,0,1,0,NA,NA,NA,NA,NA,NA,NA,NA,NA,NA,NA,NA,NA,NA,NA,NA,NA,NA,NA,NA,NA,NA,NA,NA
"361","stim/objects/HouseObjects/glass.png",390,44,383,0.9,"stim/24.jpeg",2,4,3,2,"HouseObjects",1,1,"left","left",0.414999962,1,1,1,0,NA,NA,NA,NA,NA,NA,NA,NA,NA,NA,NA,NA,NA,NA,NA,NA,NA,NA,NA,NA,NA,NA,NA,NA
"351","stim/objects/HouseObjects/garbagebin.png",391,44,384,0.9,"stim/22.jpeg",2,2,3,2,"HouseObjects",1,1,"left","left",0.381999969,1,1,1,0,NA,NA,NA,NA,NA,NA,NA,NA,NA,NA,NA,NA,NA,NA,NA,NA,NA,NA,NA,NA,NA,NA,NA,NA
"300","stim/objects/HouseObjects/doormat.png",392,44,385,0.9,"stim/22.jpeg",2,2,3,2,"HouseObjects",1,2,"left","left",0.225999832,1,1,1,0,NA,NA,NA,NA,NA,NA,NA,NA,NA,NA,NA,NA,NA,NA,NA,NA,NA,NA,NA,NA,NA,NA,NA,NA
"514","stim/objects/Instruments/gong.png",393,44,386,0.9,"stim/14.jpeg",1,4,3,2,"Instruments",2,4,"right","left",0.243999958,0,0,1,0,NA,NA,NA,NA,NA,NA,NA,NA,NA,NA,NA,NA,NA,NA,NA,NA,NA,NA,NA,NA,NA,NA,NA,NA
"336","stim/objects/HouseObjects/flyswatter.png",394,44,387,0.9,"stim/23.jpeg",2,3,3,2,"HouseObjects",1,3,"left","left",0.398000002,1,1,1,0,NA,NA,NA,NA,NA,NA,NA,NA,NA,NA,NA,NA,NA,NA,NA,NA,NA,NA,NA,NA,NA,NA,NA,NA
"465","stim/objects/Instruments/flute.png",395,44,388,0.9,"stim/13.jpeg",1,3,3,2,"Instruments",2,2,"right","right",0.503000021,1,1,1,0,NA,NA,NA,NA,NA,NA,NA,NA,NA,NA,NA,NA,NA,NA,NA,NA,NA,NA,NA,NA,NA,NA,NA,NA
"247","stim/objects/HouseObjects/barbecuelighter.png",396,44,389,0.5,"stim/34.jpeg",3,4,1,2,"HouseObjects",1,1,"left","left",0.377000093,1,1,1,0,NA,NA,NA,NA,NA,NA,NA,NA,NA,NA,NA,NA,NA,NA,NA,NA,NA,NA,NA,NA,NA,NA,NA,NA
"249","stim/objects/HouseObjects/barbecuelighter2.png",397,44,390,0.3,"stim/54.jpeg",5,4,2,1,"HouseObjects",1,1,"left","left",0.388999701,1,1,1,0,84,44,1,0.3,1,"stim/54.jpeg",5,4,"stim/54.jpeg",1,"right",0.637000084,1,1,0.397000074,1,1.078000307,84,0,0,NA,1,NA,0
"387","stim/objects/HouseObjects/ironingboard2.png",398,44,391,0.9,"stim/21.jpeg",2,1,3,1,"HouseObjects",1,4,"left","left",0.539999962,1,1,1,0,198,44,1,0.9,1,"stim/21.jpeg",2,1,"stim/21.jpeg",4,"left",1.727000237,3,3,0.421000242,2,0.489000082,198,1,0,0,0,0,0
"457","stim/objects/Instruments/flute.png",399,44,392,0.9,"stim/14.jpeg",1,4,3,2,"Instruments",2,4,"right","right",0.532999754,1,1,1,0,NA,NA,NA,NA,NA,NA,NA,NA,NA,NA,NA,NA,NA,NA,NA,NA,NA,NA,NA,NA,NA,NA,NA,NA
"515","stim/objects/Instruments/gong.png",400,44,393,0.9,"stim/12.jpeg",1,2,3,2,"Instruments",2,2,"right","right",0.480000019,1,1,1,0,NA,NA,NA,NA,NA,NA,NA,NA,NA,NA,NA,NA,NA,NA,NA,NA,NA,NA,NA,NA,NA,NA,NA,NA
"287","stim/objects/HouseObjects/dishsoap.png",401,44,394,0.7,"stim/62.jpeg",6,2,2,2,"HouseObjects",1,1,"left","left",0.451999903,1,1,1,0,NA,NA,NA,NA,NA,NA,NA,NA,NA,NA,NA,NA,NA,NA,NA,NA,NA,NA,NA,NA,NA,NA,NA,NA
"320","stim/objects/HouseObjects/dustpan.png",402,44,395,0.9,"stim/24.jpeg",2,4,3,2,"HouseObjects",1,2,"left","left",0.419999838,1,1,1,0,NA,NA,NA,NA,NA,NA,NA,NA,NA,NA,NA,NA,NA,NA,NA,NA,NA,NA,NA,NA,NA,NA,NA,NA
"294","stim/objects/HouseObjects/doormat.png",403,44,396,0.9,"stim/22.jpeg",2,2,3,2,"HouseObjects",1,1,"left","left",0.335000038,1,1,1,0,NA,NA,NA,NA,NA,NA,NA,NA,NA,NA,NA,NA,NA,NA,NA,NA,NA,NA,NA,NA,NA,NA,NA,NA
"301","stim/objects/HouseObjects/doormat.png",404,44,397,0.9,"stim/23.jpeg",2,3,3,2,"HouseObjects",1,2,"left","left",0.368000031,1,1,1,0,NA,NA,NA,NA,NA,NA,NA,NA,NA,NA,NA,NA,NA,NA,NA,NA,NA,NA,NA,NA,NA,NA,NA,NA
"434","stim/objects/Instruments/cornet.png",405,44,398,0.5,"stim/43.jpeg",4,3,1,2,"Instruments",2,4,"right","left",0.453000069,0,0,1,0,NA,NA,NA,NA,NA,NA,NA,NA,NA,NA,NA,NA,NA,NA,NA,NA,NA,NA,NA,NA,NA,NA,NA,NA
"321","stim/objects/HouseObjects/dustpan.png",406,44,399,0.9,"stim/23.jpeg",2,3,3,2,"HouseObjects",1,4,"left","left",0.412999868,1,1,1,0,NA,NA,NA,NA,NA,NA,NA,NA,NA,NA,NA,NA,NA,NA,NA,NA,NA,NA,NA,NA,NA,NA,NA,NA
"347","stim/objects/HouseObjects/garbagebin.png",407,44,400,0.9,"stim/22.jpeg",2,2,3,2,"HouseObjects",1,2,"left","left",0.457999945,1,1,1,0,NA,NA,NA,NA,NA,NA,NA,NA,NA,NA,NA,NA,NA,NA,NA,NA,NA,NA,NA,NA,NA,NA,NA,NA
"441","stim/objects/Instruments/doublebass.png",408,44,401,0.7,"stim/54.jpeg",5,4,2,2,"Instruments",2,2,"right","right",0.637000084,1,1,1,0,NA,NA,NA,NA,NA,NA,NA,NA,NA,NA,NA,NA,NA,NA,NA,NA,NA,NA,NA,NA,NA,NA,NA,NA
"491","stim/objects/Instruments/frenchhorn.png",409,44,402,0.9,"stim/11.jpeg",1,1,3,2,"Instruments",2,4,"right","right",0.588999987,1,1,1,0,NA,NA,NA,NA,NA,NA,NA,NA,NA,NA,NA,NA,NA,NA,NA,NA,NA,NA,NA,NA,NA,NA,NA,NA
"512","stim/objects/Instruments/gong.png",410,44,403,0.9,"stim/11.jpeg",1,1,3,2,"Instruments",2,4,"right","right",0.548999786,1,1,1,0,NA,NA,NA,NA,NA,NA,NA,NA,NA,NA,NA,NA,NA,NA,NA,NA,NA,NA,NA,NA,NA,NA,NA,NA
"335","stim/objects/HouseObjects/flyswatter.png",411,44,404,0.9,"stim/24.jpeg",2,4,3,2,"HouseObjects",1,3,"left","left",0.508999825,1,1,1,0,NA,NA,NA,NA,NA,NA,NA,NA,NA,NA,NA,NA,NA,NA,NA,NA,NA,NA,NA,NA,NA,NA,NA,NA
"435","stim/objects/Instruments/cornet2.png",412,44,405,0.3,"stim/62.jpeg",6,2,2,1,"Instruments",2,2,"right","left",0.47699976,0,0,1,0,24,44,1,0.3,2,"stim/62.jpeg",6,2,"stim/62.jpeg",2,"left",0.958000183,4,1,2.942000151,3,2.823000193,24,1,0,0,0,0,0
"513","stim/objects/Instruments/gong.png",413,44,406,0.9,"stim/13.jpeg",1,3,3,2,"Instruments",2,2,"right","",NA,0,0,1,0,NA,NA,NA,NA,NA,NA,NA,NA,NA,NA,NA,NA,NA,NA,NA,NA,NA,NA,NA,NA,NA,NA,NA,NA
"352","stim/objects/HouseObjects/garbagebin.png",414,44,407,0.9,"stim/21.jpeg",2,1,3,2,"HouseObjects",1,3,"left","left",0.40899992,1,1,1,0,NA,NA,NA,NA,NA,NA,NA,NA,NA,NA,NA,NA,NA,NA,NA,NA,NA,NA,NA,NA,NA,NA,NA,NA
"411","stim/objects/Instruments/acousticguitar2.png",415,44,408,0.7,"stim/54.jpeg",5,4,2,1,"Instruments",2,1,"right","left",0.522000074,0,0,1,0,125,44,1,0.7,2,"stim/54.jpeg",5,4,"stim/54.jpeg",1,"right",0.589000225,2,4,0.609000206,4,0.552000046,125,0,1,NA,0,NA,0
"468","stim/objects/Instruments/flute.png",416,44,409,0.9,"stim/11.jpeg",1,1,3,2,"Instruments",2,4,"right","left",0.661000013,0,0,1,0,NA,NA,NA,NA,NA,NA,NA,NA,NA,NA,NA,NA,NA,NA,NA,NA,NA,NA,NA,NA,NA,NA,NA,NA
"328","stim/objects/HouseObjects/flyswatter.png",417,44,410,0.9,"stim/21.jpeg",2,1,3,2,"HouseObjects",1,1,"left","left",0.488999844,1,1,1,0,NA,NA,NA,NA,NA,NA,NA,NA,NA,NA,NA,NA,NA,NA,NA,NA,NA,NA,NA,NA,NA,NA,NA,NA
"524","stim/objects/Instruments/grandpiano.png",418,44,411,0.9,"stim/13.jpeg",1,3,3,2,"Instruments",2,4,"right","right",0.535000086,1,1,1,0,NA,NA,NA,NA,NA,NA,NA,NA,NA,NA,NA,NA,NA,NA,NA,NA,NA,NA,NA,NA,NA,NA,NA,NA
"353","stim/objects/HouseObjects/garbagebin.png",419,44,412,0.9,"stim/23.jpeg",2,3,3,2,"HouseObjects",1,3,"left","left",0.404999971,1,1,1,0,NA,NA,NA,NA,NA,NA,NA,NA,NA,NA,NA,NA,NA,NA,NA,NA,NA,NA,NA,NA,NA,NA,NA,NA
"329","stim/objects/HouseObjects/flyswatter.png",420,44,413,0.9,"stim/22.jpeg",2,2,3,2,"HouseObjects",1,3,"left","left",0.378999949,1,1,1,0,NA,NA,NA,NA,NA,NA,NA,NA,NA,NA,NA,NA,NA,NA,NA,NA,NA,NA,NA,NA,NA,NA,NA,NA
"304","stim/objects/HouseObjects/doormat.png",421,44,414,0.9,"stim/24.jpeg",2,4,3,2,"HouseObjects",1,4,"left","left",0.40899992,1,1,1,0,NA,NA,NA,NA,NA,NA,NA,NA,NA,NA,NA,NA,NA,NA,NA,NA,NA,NA,NA,NA,NA,NA,NA,NA
"350","stim/objects/HouseObjects/garbagebin.png",422,44,415,0.9,"stim/21.jpeg",2,1,3,2,"HouseObjects",1,1,"left","left",0.505999804,1,1,1,0,NA,NA,NA,NA,NA,NA,NA,NA,NA,NA,NA,NA,NA,NA,NA,NA,NA,NA,NA,NA,NA,NA,NA,NA
"416","stim/objects/Instruments/banjo.png",423,44,416,0.5,"stim/33.jpeg",3,3,1,2,"Instruments",2,2,"right","left",0.484999895,0,0,1,0,NA,NA,NA,NA,NA,NA,NA,NA,NA,NA,NA,NA,NA,NA,NA,NA,NA,NA,NA,NA,NA,NA,NA,NA
"531","stim/objects/Instruments/grandpiano.png",424,44,417,0.9,"stim/14.jpeg",1,4,3,2,"Instruments",2,4,"right","right",0.462999821,1,1,1,0,NA,NA,NA,NA,NA,NA,NA,NA,NA,NA,NA,NA,NA,NA,NA,NA,NA,NA,NA,NA,NA,NA,NA,NA
"475","stim/objects/Instruments/flutetrans.png",425,44,418,0.9,"stim/13.jpeg",1,3,3,2,"Instruments",2,2,"right","right",0.517999887,1,1,1,0,NA,NA,NA,NA,NA,NA,NA,NA,NA,NA,NA,NA,NA,NA,NA,NA,NA,NA,NA,NA,NA,NA,NA,NA
"476","stim/objects/Instruments/flutetrans.png",426,44,419,0.9,"stim/11.jpeg",1,1,3,2,"Instruments",2,2,"right","left",0.463999987,0,0,1,0,NA,NA,NA,NA,NA,NA,NA,NA,NA,NA,NA,NA,NA,NA,NA,NA,NA,NA,NA,NA,NA,NA,NA,NA
"424","stim/objects/Instruments/cello.png",427,44,420,0.5,"stim/44.jpeg",4,4,1,2,"Instruments",2,4,"right","left",0.49000001,0,0,1,0,NA,NA,NA,NA,NA,NA,NA,NA,NA,NA,NA,NA,NA,NA,NA,NA,NA,NA,NA,NA,NA,NA,NA,NA
"498","stim/objects/Instruments/frenchhorn.png",428,44,421,0.9,"stim/11.jpeg",1,1,3,2,"Instruments",2,3,"right","right",0.633999825,1,1,1,0,NA,NA,NA,NA,NA,NA,NA,NA,NA,NA,NA,NA,NA,NA,NA,NA,NA,NA,NA,NA,NA,NA,NA,NA
"402","stim/objects/HouseObjects/remote.png",429,44,422,0.3,"stim/54.jpeg",5,4,2,1,"HouseObjects",1,3,"left","right",0.587999821,0,0,1,0,121,44,1,0.3,1,"stim/54.jpeg",5,4,"stim/54.jpeg",3,"right",0.726000071,3,4,0.600000143,4,0.765000105,121,0,1,NA,0,NA,0
"564","stim/objects/Instruments/oboe2.png",430,44,423,0.1,"stim/21.jpeg",2,1,3,1,"Instruments",2,4,"right","left",0.424999952,0,0,1,0,5,44,1,0.1,2,"stim/21.jpeg",2,1,"stim/21.jpeg",4,"left",1.429000139,4,2,4.453999996,2,1.348999977,5,1,0,0,0,0,0
"337","stim/objects/HouseObjects/flyswatter.png",431,44,424,0.9,"stim/23.jpeg",2,3,3,2,"HouseObjects",1,4,"left","left",0.463999748,1,1,1,0,NA,NA,NA,NA,NA,NA,NA,NA,NA,NA,NA,NA,NA,NA,NA,NA,NA,NA,NA,NA,NA,NA,NA,NA
"330","stim/objects/HouseObjects/flyswatter.png",432,44,425,0.9,"stim/21.jpeg",2,1,3,2,"HouseObjects",1,3,"left","left",0.46999979,1,1,1,0,NA,NA,NA,NA,NA,NA,NA,NA,NA,NA,NA,NA,NA,NA,NA,NA,NA,NA,NA,NA,NA,NA,NA,NA
"392","stim/objects/HouseObjects/lintroller.png",433,44,426,0.5,"stim/44.jpeg",4,4,1,1,"HouseObjects",1,1,"left","left",0.502999783,1,1,1,0,50,44,1,0.5,2,"stim/44.jpeg",4,4,"stim/44.jpeg",1,"right",0.77300024,2,2,1.197000027,2,0.556000233,50,0,0,NA,0,NA,0
"417","stim/objects/Instruments/banjo2.png",434,44,427,0.7,"stim/52.jpeg",5,2,2,1,"Instruments",2,1,"right","right",0.644000053,1,1,1,0,147,44,1,0.7,2,"stim/52.jpeg",5,2,"stim/52.jpeg",1,"right",0.610000134,3,3,0.373000145,3,0.391000271,147,0,0,NA,0,NA,0
"432","stim/objects/Instruments/clarinet2.png",435,44,428,0.3,"stim/61.jpeg",6,1,2,1,"Instruments",2,3,"right","left",0.388000011,0,0,1,0,141,44,1,0.3,2,"stim/61.jpeg",6,1,"stim/61.jpeg",3,"left",0.832000256,3,2,1.261000156,2,0.978000164,141,1,0,0,0,0,0
"563","stim/objects/Instruments/oboe.png",436,44,429,0.7,"stim/53.jpeg",5,3,2,1,"Instruments",2,1,"right","right",0.513999939,1,1,1,0,160,44,1,0.7,2,"stim/53.jpeg",5,3,"stim/53.jpeg",1,"left",2.659000158,3,2,1.610000134,2,1.150000095,160,1,0,0,0,0,0
"449","stim/objects/Instruments/electricdrumset.png",437,44,430,0.7,"stim/53.jpeg",5,3,2,2,"Instruments",2,2,"right","right",0.415999889,1,1,1,0,NA,NA,NA,NA,NA,NA,NA,NA,NA,NA,NA,NA,NA,NA,NA,NA,NA,NA,NA,NA,NA,NA,NA,NA
"279","stim/objects/HouseObjects/coffee.png",438,44,431,0.7,"stim/63.jpeg",6,3,2,2,"HouseObjects",1,1,"left","left",0.514999866,1,1,1,0,NA,NA,NA,NA,NA,NA,NA,NA,NA,NA,NA,NA,NA,NA,NA,NA,NA,NA,NA,NA,NA,NA,NA,NA
"243","stim/objects/HouseObjects/ashtray2.png",439,44,432,0.3,"stim/52.jpeg",5,2,2,1,"HouseObjects",1,3,"left","right",0.559999943,0,0,1,0,28,44,1,0.3,1,"stim/52.jpeg",5,2,"stim/52.jpeg",3,"right",0.902000189,4,3,0.738000154,3,0.481000185,28,0,0,NA,1,NA,0
"254","stim/objects/HouseObjects/bleachbottle.png",440,44,433,0.5,"stim/31.jpeg",3,1,1,2,"HouseObjects",1,3,"left","left",0.446999788,1,1,1,0,NA,NA,NA,NA,NA,NA,NA,NA,NA,NA,NA,NA,NA,NA,NA,NA,NA,NA,NA,NA,NA,NA,NA,NA
"460","stim/objects/Instruments/flute.png",441,44,434,0.9,"stim/11.jpeg",1,1,3,2,"Instruments",2,2,"right","right",0.505999804,1,1,1,0,NA,NA,NA,NA,NA,NA,NA,NA,NA,NA,NA,NA,NA,NA,NA,NA,NA,NA,NA,NA,NA,NA,NA,NA
"257","stim/objects/HouseObjects/blender.png",442,44,435,0.5,"stim/44.jpeg",4,4,1,2,"HouseObjects",1,2,"left","",NA,0,0,1,0,NA,NA,NA,NA,NA,NA,NA,NA,NA,NA,NA,NA,NA,NA,NA,NA,NA,NA,NA,NA,NA,NA,NA,NA
"499","stim/objects/Instruments/frenchhorn.png",443,44,436,0.9,"stim/13.jpeg",1,3,3,2,"Instruments",2,1,"right","right",0.546999931,1,1,1,0,NA,NA,NA,NA,NA,NA,NA,NA,NA,NA,NA,NA,NA,NA,NA,NA,NA,NA,NA,NA,NA,NA,NA,NA
"541","stim/objects/Instruments/guitarcase.png",444,44,437,0.5,"stim/32.jpeg",3,2,1,1,"Instruments",2,2,"right","left",0.513999939,0,0,1,0,159,44,1,0.5,1,"stim/32.jpeg",3,2,"stim/32.jpeg",2,"right",0.743000031,4,3,0.741000175,3,1.13800025,159,0,0,NA,0,NA,0
"376","stim/objects/HouseObjects/glassmop.png",445,44,438,0.5,"stim/33.jpeg",3,3,1,1,"HouseObjects",1,1,"left","left",0.555000067,1,1,1,0,156,44,1,0.5,1,"stim/33.jpeg",3,3,"stim/33.jpeg",1,"right",0.731000185,3,4,0.493000269,3,1.534000158,156,0,0,NA,0,NA,0
"544","stim/objects/Instruments/harmonica2.png",446,44,439,0.9,"stim/11.jpeg",1,1,3,1,"Instruments",2,3,"right","left",0.424999714,0,0,1,0,21,44,1,0.9,2,"stim/11.jpeg",1,1,"stim/11.jpeg",3,"left",0.873000145,4,1,1.105000019,3,1.151000023,21,1,1,1,1,1,0
"494","stim/objects/Instruments/frenchhorn.png",447,44,440,0.9,"stim/12.jpeg",1,2,3,2,"Instruments",2,3,"right","right",0.453999996,1,1,1,0,NA,NA,NA,NA,NA,NA,NA,NA,NA,NA,NA,NA,NA,NA,NA,NA,NA,NA,NA,NA,NA,NA,NA,NA
"266","stim/objects/HouseObjects/bucket.png",448,44,441,0.5,"stim/43.jpeg",4,3,1,2,"HouseObjects",1,3,"left","left",0.402999878,1,1,1,0,NA,NA,NA,NA,NA,NA,NA,NA,NA,NA,NA,NA,NA,NA,NA,NA,NA,NA,NA,NA,NA,NA,NA,NA
"389","stim/objects/HouseObjects/key2.png",449,44,442,0.9,"stim/22.jpeg",2,2,3,1,"HouseObjects",1,3,"left","left",0.411999941,1,1,1,0,8,44,1,0.9,1,"stim/22.jpeg",2,2,"stim/22.jpeg",3,"right",1.475000143,3,3,4.607000113,1,3.134000063,8,0,0,NA,0,NA,0
"556","stim/objects/Instruments/marimba2.png",450,44,443,0.1,"stim/21.jpeg",2,1,3,1,"Instruments",2,2,"right","left",0.477999926,0,0,1,0,172,44,1,0.1,2,"stim/21.jpeg",2,1,"stim/21.jpeg",2,"right",0.707000256,4,4,1.125,2,2.573000193,172,0,0,NA,1,NA,0
"303","stim/objects/HouseObjects/doormat.png",451,44,444,0.9,"stim/22.jpeg",2,2,3,2,"HouseObjects",1,2,"left","left",0.464999914,1,1,1,0,NA,NA,NA,NA,NA,NA,NA,NA,NA,NA,NA,NA,NA,NA,NA,NA,NA,NA,NA,NA,NA,NA,NA,NA
"446","stim/objects/Instruments/drums.png",452,44,445,0.7,"stim/53.jpeg",5,3,2,2,"Instruments",2,2,"right","right",0.530999899,1,1,1,0,NA,NA,NA,NA,NA,NA,NA,NA,NA,NA,NA,NA,NA,NA,NA,NA,NA,NA,NA,NA,NA,NA,NA,NA
"367","stim/objects/HouseObjects/glass.png",453,44,446,0.9,"stim/24.jpeg",2,4,3,2,"HouseObjects",1,4,"left","left",0.496999979,1,1,1,0,NA,NA,NA,NA,NA,NA,NA,NA,NA,NA,NA,NA,NA,NA,NA,NA,NA,NA,NA,NA,NA,NA,NA,NA
"296","stim/objects/HouseObjects/doormat.png",454,44,447,0.9,"stim/21.jpeg",2,1,3,2,"HouseObjects",1,2,"left","left",0.410999775,1,1,1,0,NA,NA,NA,NA,NA,NA,NA,NA,NA,NA,NA,NA,NA,NA,NA,NA,NA,NA,NA,NA,NA,NA,NA,NA
"548","stim/objects/Instruments/hihat2.png",455,44,448,0.9,"stim/13.jpeg",1,3,3,1,"Instruments",2,3,"right","right",0.520999908,1,1,1,0,103,44,1,0.9,2,"stim/13.jpeg",1,3,"stim/13.jpeg",3,"left",0.978000164,2,3,0.843000174,3,0.731000185,103,1,1,1,1,1,0
"355","stim/objects/HouseObjects/garbagebin.png",456,44,449,0.9,"stim/23.jpeg",2,3,3,2,"HouseObjects",1,1,"left","left",0.429999828,1,1,1,0,NA,NA,NA,NA,NA,NA,NA,NA,NA,NA,NA,NA,NA,NA,NA,NA,NA,NA,NA,NA,NA,NA,NA,NA
"356","stim/objects/HouseObjects/garbagebin.png",457,44,450,0.9,"stim/23.jpeg",2,3,3,2,"HouseObjects",1,2,"left","left",0.454999924,1,1,1,0,NA,NA,NA,NA,NA,NA,NA,NA,NA,NA,NA,NA,NA,NA,NA,NA,NA,NA,NA,NA,NA,NA,NA,NA
"485","stim/objects/Instruments/flutetrans.png",458,44,451,0.9,"stim/14.jpeg",1,4,3,2,"Instruments",2,4,"right","left",0.5,0,0,1,0,NA,NA,NA,NA,NA,NA,NA,NA,NA,NA,NA,NA,NA,NA,NA,NA,NA,NA,NA,NA,NA,NA,NA,NA
"379","stim/objects/HouseObjects/hairdryer2.png",459,44,452,0.1,"stim/13.jpeg",1,3,3,1,"HouseObjects",1,4,"left","right",0.467999935,0,0,1,0,183,44,1,0.1,1,"stim/13.jpeg",1,3,"stim/13.jpeg",4,"right",0.992000103,2,4,0.638000011,2,0.751000166,183,0,0,NA,0,NA,0
"388","stim/objects/HouseObjects/key.png",460,44,453,0.5,"stim/42.jpeg",4,2,1,1,"HouseObjects",1,4,"left","left",0.52699995,1,1,1,0,120,44,1,0.5,2,"stim/42.jpeg",4,2,"stim/42.jpeg",4,"right",0.971000195,2,4,1.289000273,4,0.593000174,120,0,0,NA,1,NA,0
"440","stim/objects/Instruments/doublebass.png",461,44,454,0.7,"stim/52.jpeg",5,2,2,2,"Instruments",2,2,"right","right",0.507999897,1,1,1,0,NA,NA,NA,NA,NA,NA,NA,NA,NA,NA,NA,NA,NA,NA,NA,NA,NA,NA,NA,NA,NA,NA,NA,NA
"373","stim/objects/HouseObjects/glass.png",462,44,455,0.9,"stim/23.jpeg",2,3,3,2,"HouseObjects",1,4,"left","left",0.490999937,1,1,1,0,NA,NA,NA,NA,NA,NA,NA,NA,NA,NA,NA,NA,NA,NA,NA,NA,NA,NA,NA,NA,NA,NA,NA,NA
"537","stim/objects/Instruments/grandpiano.png",463,44,456,0.9,"stim/11.jpeg",1,1,3,2,"Instruments",2,1,"right","right",0.552000046,1,1,1,0,NA,NA,NA,NA,NA,NA,NA,NA,NA,NA,NA,NA,NA,NA,NA,NA,NA,NA,NA,NA,NA,NA,NA,NA
"251","stim/objects/HouseObjects/basket.png",464,44,457,0.5,"stim/31.jpeg",3,1,1,2,"HouseObjects",1,3,"left","left",0.419999838,1,1,1,0,NA,NA,NA,NA,NA,NA,NA,NA,NA,NA,NA,NA,NA,NA,NA,NA,NA,NA,NA,NA,NA,NA,NA,NA
"506","stim/objects/Instruments/frenchhorn2.png",465,44,458,0.9,"stim/11.jpeg",1,1,3,1,"Instruments",2,1,"right","right",0.546000004,1,1,1,0,127,44,1,0.9,2,"stim/11.jpeg",1,1,"stim/11.jpeg",1,"right",1.382000208,4,2,0.676000357,2,0.676000118,127,0,0,NA,0,NA,0
"534","stim/objects/Instruments/grandpiano.png",466,44,459,0.9,"stim/11.jpeg",1,1,3,2,"Instruments",2,3,"right","right",0.56799984,1,1,1,0,NA,NA,NA,NA,NA,NA,NA,NA,NA,NA,NA,NA,NA,NA,NA,NA,NA,NA,NA,NA,NA,NA,NA,NA
"297","stim/objects/HouseObjects/doormat.png",467,44,460,0.9,"stim/21.jpeg",2,1,3,2,"HouseObjects",1,3,"left","left",0.449999809,1,1,1,0,NA,NA,NA,NA,NA,NA,NA,NA,NA,NA,NA,NA,NA,NA,NA,NA,NA,NA,NA,NA,NA,NA,NA,NA
"536","stim/objects/Instruments/grandpiano.png",468,44,461,0.9,"stim/14.jpeg",1,4,3,2,"Instruments",2,2,"right","right",0.617999792,1,1,1,0,NA,NA,NA,NA,NA,NA,NA,NA,NA,NA,NA,NA,NA,NA,NA,NA,NA,NA,NA,NA,NA,NA,NA,NA
