"","participant","trialN","trial_cond","scn_file","scn_cat","scn_inst","scn_condition","fillers","obj_cat","obj_cat_num","obj_file","quadrant","corr_ans","key_resp_trial.keys","key_resp_trial.rt","trial_acc","trial_acc_manual","group"
"248",44,241,0.9,"stim/11.jpeg",1,1,3,2,"Instruments",2,"stim/objects/Instruments/frenchhorn.png",2,"right","left",0.819000006,0,0,1
"249",44,242,0.5,"stim/34.jpeg",3,4,1,2,"HouseObjects",1,"stim/objects/HouseObjects/basket.png",4,"left","left",0.755000114,1,1,1
"250",44,243,0.7,"stim/53.jpeg",5,3,2,1,"Instruments",2,"stim/objects/Instruments/bassdrum2.png",2,"right","right",0.538999796,1,1,1
"251",44,244,0.7,"stim/61.jpeg",6,1,2,1,"HouseObjects",1,"stim/objects/HouseObjects/dishsoap2.png",1,"left","left",0.674000025,1,1,1
"252",44,245,0.9,"stim/24.jpeg",2,4,3,2,"HouseObjects",1,"stim/objects/HouseObjects/dustpan.png",4,"left","left",0.552000046,1,1,1
"253",44,246,0.3,"stim/62.jpeg",6,2,2,1,"Instruments",2,"stim/objects/Instruments/electricdrumset2.png",4,"right","left",0.672999859,0,0,1
"254",44,247,0.5,"stim/43.jpeg",4,3,1,2,"Instruments",2,"stim/objects/Instruments/bassguitar.png",4,"right","left",0.69299984,0,0,1
"255",44,248,0.5,"stim/32.jpeg",3,2,1,2,"Instruments",2,"stim/objects/Instruments/balalaika.png",1,"right","left",0.862999916,0,0,1
"256",44,249,0.5,"stim/32.jpeg",3,2,1,2,"HouseObjects",1,"stim/objects/HouseObjects/ballofstring.png",3,"left","right",0.636999846,0,0,1
"257",44,250,0.7,"stim/64.jpeg",6,4,2,1,"HouseObjects",1,"stim/objects/HouseObjects/clock2.png",1,"left","right",0.654999733,0,0,1
"258",44,251,0.5,"stim/41.jpeg",4,1,1,1,"HouseObjects",1,"stim/objects/HouseObjects/ironingboard.png",3,"left","left",0.824999809,1,1,1
"259",44,252,0.9,"stim/21.jpeg",2,1,3,2,"HouseObjects",1,"stim/objects/HouseObjects/doormat.png",3,"left","left",0.552000046,1,1,1
"260",44,253,0.7,"stim/63.jpeg",6,3,2,1,"HouseObjects",1,"stim/objects/HouseObjects/coffee2.png",1,"left","left",0.666999817,1,1,1
"261",44,254,0.9,"stim/24.jpeg",2,4,3,2,"HouseObjects",1,"stim/objects/HouseObjects/dustpan.png",1,"left","left",0.453000069,1,1,1
"262",44,255,0.9,"stim/24.jpeg",2,4,3,2,"HouseObjects",1,"stim/objects/HouseObjects/garbagebin.png",3,"left","left",0.447999954,1,1,1
"263",44,256,0.5,"stim/34.jpeg",3,4,1,1,"Instruments",2,"stim/objects/Instruments/harp.png",2,"right","left",0.531000137,0,0,1
"264",44,257,0.9,"stim/24.jpeg",2,4,3,2,"HouseObjects",1,"stim/objects/HouseObjects/flyswatter.png",1,"left","left",0.502999783,1,1,1
"265",44,258,0.3,"stim/52.jpeg",5,2,2,1,"HouseObjects",1,"stim/objects/HouseObjects/bleachbottle2.png",4,"left","right",0.530999899,0,0,1
"266",44,259,0.9,"stim/12.jpeg",1,2,3,1,"Instruments",2,"stim/objects/Instruments/harp2.png",2,"right","right",0.548000097,1,1,1
"267",44,260,0.5,"stim/32.jpeg",3,2,1,2,"HouseObjects",1,"stim/objects/HouseObjects/bleachbottle.png",3,"left","right",0.444999933,0,0,1
"268",44,261,0.9,"stim/23.jpeg",2,3,3,2,"HouseObjects",1,"stim/objects/HouseObjects/glass.png",1,"left","left",0.553999901,1,1,1
"269",44,262,0.7,"stim/61.jpeg",6,1,2,1,"HouseObjects",1,"stim/objects/HouseObjects/clothesdryingrack2.png",4,"left","left",0.595999956,1,1,1
"270",44,263,0.5,"stim/32.jpeg",3,2,1,2,"HouseObjects",1,"stim/objects/HouseObjects/ashtray.png",2,"left","right",0.536999941,0,0,1
"271",44,264,0.9,"stim/24.jpeg",2,4,3,2,"HouseObjects",1,"stim/objects/HouseObjects/garbagebin.png",3,"left","left",0.419999838,1,1,1
"272",44,265,0.5,"stim/42.jpeg",4,2,1,2,"HouseObjects",1,"stim/objects/HouseObjects/broom.png",1,"left","left",0.630000114,1,1,1
"273",44,266,0.9,"stim/12.jpeg",1,2,3,2,"Instruments",2,"stim/objects/Instruments/flute.png",2,"right","",NA,0,0,1
"274",44,267,0.5,"stim/44.jpeg",4,4,1,2,"HouseObjects",1,"stim/objects/HouseObjects/clock.png",1,"left","left",0.542999983,1,1,1
"275",44,268,0.3,"stim/63.jpeg",6,3,2,1,"Instruments",2,"stim/objects/Instruments/electricguitar2.png",1,"right","left",0.579999924,0,0,1
"276",44,269,0.9,"stim/22.jpeg",2,2,3,2,"HouseObjects",1,"stim/objects/HouseObjects/glass.png",3,"left","left",0.582999706,1,1,1
"277",44,270,0.9,"stim/24.jpeg",2,4,3,1,"HouseObjects",1,"stim/objects/HouseObjects/lintroller2.png",4,"left","left",0.601999998,1,1,1
"278",44,271,0.7,"stim/62.jpeg",6,2,2,1,"HouseObjects",1,"stim/objects/HouseObjects/clothespin2.png",4,"left","left",0.565999985,1,1,1
"279",44,272,0.9,"stim/24.jpeg",2,4,3,2,"HouseObjects",1,"stim/objects/HouseObjects/garbagebin.png",1,"left","left",0.427999973,1,1,1
"280",44,273,0.3,"stim/53.jpeg",5,3,2,1,"HouseObjects",1,"stim/objects/HouseObjects/recyclingbin.png",1,"left","right",0.555999994,0,0,1
"281",44,274,0.9,"stim/23.jpeg",2,3,3,2,"HouseObjects",1,"stim/objects/HouseObjects/doormat.png",1,"left","left",0.430999994,1,1,1
"282",44,275,0.7,"stim/64.jpeg",6,4,2,1,"HouseObjects",1,"stim/objects/HouseObjects/cushion2.png",3,"left","left",0.61899972,1,1,1
"283",44,276,0.9,"stim/21.jpeg",2,1,3,2,"HouseObjects",1,"stim/objects/HouseObjects/garbagebin.png",3,"left","left",0.479999781,1,1,1
"284",44,277,0.7,"stim/61.jpeg",6,1,2,2,"HouseObjects",1,"stim/objects/HouseObjects/coffee.png",1,"left","left",0.530999899,1,1,1
"285",44,278,0.9,"stim/22.jpeg",2,2,3,2,"HouseObjects",1,"stim/objects/HouseObjects/flyswatter.png",1,"left","left",0.415999889,1,1,1
"286",44,279,0.9,"stim/14.jpeg",1,4,3,2,"Instruments",2,"stim/objects/Instruments/flute.png",2,"right","right",0.570999861,1,1,1
"287",44,280,0.5,"stim/43.jpeg",4,3,1,2,"HouseObjects",1,"stim/objects/HouseObjects/blender.png",3,"left","left",0.438999891,1,1,1
"288",44,281,0.7,"stim/51.jpeg",5,1,2,1,"Instruments",2,"stim/objects/Instruments/pipepiano.png",4,"right","right",0.497999907,1,1,1
"289",44,282,0.9,"stim/22.jpeg",2,2,3,2,"HouseObjects",1,"stim/objects/HouseObjects/dustpan.png",1,"left","left",0.431999922,1,1,1
"290",44,283,0.9,"stim/12.jpeg",1,2,3,2,"Instruments",2,"stim/objects/Instruments/flutetrans.png",1,"right","left",0.30099988,0,0,1
"291",44,284,0.9,"stim/21.jpeg",2,1,3,2,"HouseObjects",1,"stim/objects/HouseObjects/flyswatter.png",3,"left","left",0.463999987,1,1,1
"292",44,285,0.9,"stim/21.jpeg",2,1,3,2,"HouseObjects",1,"stim/objects/HouseObjects/dustpan.png",4,"left","left",0.51699996,1,1,1
"293",44,286,0.9,"stim/12.jpeg",1,2,3,2,"Instruments",2,"stim/objects/Instruments/frenchhorn.png",2,"right","right",0.457000017,1,1,1
"294",44,287,0.9,"stim/14.jpeg",1,4,3,2,"Instruments",2,"stim/objects/Instruments/frenchhorn.png",1,"right","right",0.498999834,1,1,1
"295",44,288,0.9,"stim/24.jpeg",2,4,3,2,"HouseObjects",1,"stim/objects/HouseObjects/doormat.png",2,"left","left",0.421999931,1,1,1
"296",44,289,0.7,"stim/52.jpeg",5,2,2,1,"Instruments",2,"stim/objects/Instruments/musicstand.png",2,"right","right",0.507999897,1,1,1
"297",44,290,0.5,"stim/42.jpeg",4,2,1,1,"Instruments",2,"stim/objects/Instruments/marimba.png",4,"right","left",0.621999979,0,0,1
"298",44,291,0.7,"stim/52.jpeg",5,2,2,2,"Instruments",2,"stim/objects/Instruments/electricdrumset.png",3,"right","left",0.417999983,0,0,1
"299",44,292,0.1,"stim/12.jpeg",1,2,3,1,"HouseObjects",1,"stim/objects/HouseObjects/dustpan2.png",2,"left","right",0.517999887,0,0,1
"300",44,293,0.9,"stim/21.jpeg",2,1,3,2,"HouseObjects",1,"stim/objects/HouseObjects/glass.png",1,"left","left",0.45600009,1,1,1
"301",44,294,0.9,"stim/12.jpeg",1,2,3,2,"Instruments",2,"stim/objects/Instruments/grandpiano.png",4,"right","right",0.517999887,1,1,1
"302",44,295,0.9,"stim/12.jpeg",1,2,3,2,"Instruments",2,"stim/objects/Instruments/gong.png",4,"right","right",0.70600009,1,1,1
"303",44,296,0.9,"stim/14.jpeg",1,4,3,2,"Instruments",2,"stim/objects/Instruments/flute.png",4,"right","right",0.591999769,1,1,1
"304",44,297,0.9,"stim/14.jpeg",1,4,3,1,"Instruments",2,"stim/objects/Instruments/guitarcase2.png",4,"right","right",0.481999874,1,1,1
"305",44,298,0.1,"stim/11.jpeg",1,1,3,1,"HouseObjects",1,"stim/objects/HouseObjects/glass2.png",4,"left","right",0.529999971,0,0,1
"306",44,299,0.9,"stim/13.jpeg",1,3,3,1,"Instruments",2,"stim/objects/Instruments/grandpiano2.png",1,"right","right",0.719000101,1,1,1
"307",44,300,0.9,"stim/21.jpeg",2,1,3,2,"HouseObjects",1,"stim/objects/HouseObjects/glass.png",1,"left","left",0.421999931,1,1,1
"308",44,301,0.7,"stim/62.jpeg",6,2,2,2,"HouseObjects",1,"stim/objects/HouseObjects/clothesdryingrack.png",4,"left","left",0.591999769,1,1,1
"309",44,302,0.5,"stim/31.jpeg",3,1,1,1,"HouseObjects",1,"stim/objects/HouseObjects/handbrush.png",4,"left","left",0.536999941,1,1,1
"310",44,303,0.7,"stim/52.jpeg",5,2,2,2,"Instruments",2,"stim/objects/Instruments/drums.png",1,"right","right",0.563999891,1,1,1
"311",44,304,0.5,"stim/32.jpeg",3,2,1,1,"Instruments",2,"stim/objects/Instruments/keyboard.png",2,"right","left",0.667000055,0,0,1
"312",44,305,0.7,"stim/64.jpeg",6,4,2,2,"HouseObjects",1,"stim/objects/HouseObjects/cushion.png",3,"left","right",0.745999813,0,0,1
"313",44,306,0.9,"stim/23.jpeg",2,3,3,2,"HouseObjects",1,"stim/objects/HouseObjects/flyswatter.png",1,"left","left",0.417999983,1,1,1
"314",44,307,0.9,"stim/11.jpeg",1,1,3,2,"Instruments",2,"stim/objects/Instruments/flutetrans.png",2,"right","right",0.50999999,1,1,1
"315",44,308,0.1,"stim/24.jpeg",2,4,3,1,"Instruments",2,"stim/objects/Instruments/musicstand2.png",3,"right","left",0.482999802,0,0,1
"316",44,309,0.5,"stim/43.jpeg",4,3,1,2,"Instruments",2,"stim/objects/Instruments/cello.png",2,"right","left",0.592000008,0,0,1
"317",44,310,0.1,"stim/12.jpeg",1,2,3,1,"HouseObjects",1,"stim/objects/HouseObjects/glassmop2.png",3,"left","right",0.463999748,0,0,1
"318",44,311,0.3,"stim/64.jpeg",6,4,2,1,"Instruments",2,"stim/objects/Instruments/chime2.png",1,"right","left",0.51699996,0,0,1
"319",44,312,0.9,"stim/13.jpeg",1,3,3,2,"Instruments",2,"stim/objects/Instruments/flutetrans.png",2,"right","right",0.471999884,1,1,1
"320",44,313,0.5,"stim/44.jpeg",4,4,1,1,"Instruments",2,"stim/objects/Instruments/laud.png",1,"right","left",0.596999884,0,0,1
"321",44,314,0.9,"stim/12.jpeg",1,2,3,2,"Instruments",2,"stim/objects/Instruments/flute.png",2,"right","right",0.531000137,1,1,1
"322",44,315,0.9,"stim/12.jpeg",1,2,3,2,"Instruments",2,"stim/objects/Instruments/flutetrans.png",1,"right","right",0.593999863,1,1,1
"323",44,316,0.9,"stim/12.jpeg",1,2,3,2,"Instruments",2,"stim/objects/Instruments/flutetrans.png",4,"right","right",0.417000055,1,1,1
"324",44,317,0.9,"stim/21.jpeg",2,1,3,2,"HouseObjects",1,"stim/objects/HouseObjects/flyswatter.png",1,"left","left",0.493999958,1,1,1
"325",44,318,0.9,"stim/14.jpeg",1,4,3,2,"Instruments",2,"stim/objects/Instruments/gong.png",1,"right","right",0.510999918,1,1,1
"326",44,319,0.9,"stim/22.jpeg",2,2,3,1,"HouseObjects",1,"stim/objects/HouseObjects/pan2.png",3,"left","left",0.497999907,1,1,1
"327",44,320,0.9,"stim/12.jpeg",1,2,3,2,"Instruments",2,"stim/objects/Instruments/grandpiano.png",2,"right","right",0.516000032,1,1,1
"328",44,321,0.3,"stim/51.jpeg",5,1,2,1,"HouseObjects",1,"stim/objects/HouseObjects/rubbergloves.png",1,"left","right",0.646999836,0,0,1
"329",44,322,0.9,"stim/23.jpeg",2,3,3,2,"HouseObjects",1,"stim/objects/HouseObjects/glass.png",1,"left","left",0.516000032,1,1,1
"330",44,323,0.9,"stim/14.jpeg",1,4,3,2,"Instruments",2,"stim/objects/Instruments/flutetrans.png",4,"right","right",0.493999958,1,1,1
"331",44,324,0.9,"stim/13.jpeg",1,3,3,2,"Instruments",2,"stim/objects/Instruments/flutetrans.png",4,"right","right",0.516999722,1,1,1
"332",44,325,0.1,"stim/22.jpeg",2,2,3,1,"Instruments",2,"stim/objects/Instruments/metronome2.png",3,"right","left",0.430999994,0,0,1
"333",44,326,0.9,"stim/14.jpeg",1,4,3,1,"Instruments",2,"stim/objects/Instruments/keyboard2.png",2,"right","right",0.412999868,1,1,1
"334",44,327,0.9,"stim/14.jpeg",1,4,3,2,"Instruments",2,"stim/objects/Instruments/flute.png",4,"right","right",0.430999756,1,1,1
"335",44,328,0.5,"stim/42.jpeg",4,2,1,2,"Instruments",2,"stim/objects/Instruments/bassguitar.png",4,"right","right",0.424999714,1,1,1
"336",44,329,0.9,"stim/21.jpeg",2,1,3,2,"HouseObjects",1,"stim/objects/HouseObjects/dustpan.png",2,"left","left",0.565999985,1,1,1
"337",44,330,0.1,"stim/23.jpeg",2,3,3,1,"Instruments",2,"stim/objects/Instruments/laud2.png",4,"right","left",0.541999817,0,0,1
"338",44,331,0.9,"stim/21.jpeg",2,1,3,2,"HouseObjects",1,"stim/objects/HouseObjects/dustpan.png",3,"left","left",0.378999949,1,1,1
"339",44,332,0.5,"stim/44.jpeg",4,4,1,2,"HouseObjects",1,"stim/objects/HouseObjects/bottle.png",2,"left","left",0.421000004,1,1,1
"340",44,333,0.3,"stim/62.jpeg",6,2,2,1,"Instruments",2,"stim/objects/Instruments/bassguitar2.png",3,"right","left",0.463000059,0,0,1
"341",44,334,0.5,"stim/34.jpeg",3,4,1,2,"Instruments",2,"stim/objects/Instruments/accordion.png",1,"right","left",0.473999977,0,0,1
"342",44,335,0.5,"stim/41.jpeg",4,1,1,2,"HouseObjects",1,"stim/objects/HouseObjects/bottle.png",2,"left","left",0.645999908,1,1,1
"343",44,336,0.9,"stim/23.jpeg",2,3,3,2,"HouseObjects",1,"stim/objects/HouseObjects/dustpan.png",4,"left","left",0.50999999,1,1,1
"344",44,337,0.7,"stim/62.jpeg",6,2,2,1,"HouseObjects",1,"stim/objects/HouseObjects/broom2.png",2,"left","left",0.437999964,1,1,1
"345",44,338,0.9,"stim/22.jpeg",2,2,3,2,"HouseObjects",1,"stim/objects/HouseObjects/glass.png",4,"left","left",0.595999956,1,1,1
"346",44,339,0.1,"stim/12.jpeg",1,2,3,1,"HouseObjects",1,"stim/objects/HouseObjects/iron2.png",4,"left","right",0.627000093,0,0,1
"347",44,340,0.5,"stim/44.jpeg",4,4,1,2,"Instruments",2,"stim/objects/Instruments/chime.png",1,"right","left",0.530999899,0,0,1
"348",44,341,0.3,"stim/51.jpeg",5,1,2,1,"HouseObjects",1,"stim/objects/HouseObjects/basket2.png",3,"left","right",0.558000088,0,0,1
"349",44,342,0.7,"stim/53.jpeg",5,3,2,2,"Instruments",2,"stim/objects/Instruments/electricguitar.png",4,"right","left",0.690999985,0,0,1
"350",44,343,0.9,"stim/13.jpeg",1,3,3,2,"Instruments",2,"stim/objects/Instruments/grandpiano.png",2,"right","right",0.572999954,1,1,1
"351",44,344,0.7,"stim/61.jpeg",6,1,2,2,"HouseObjects",1,"stim/objects/HouseObjects/cushion.png",4,"left","left",0.407999992,1,1,1
"352",44,345,0.9,"stim/24.jpeg",2,4,3,2,"HouseObjects",1,"stim/objects/HouseObjects/glass.png",1,"left","left",0.436999798,1,1,1
"353",44,346,0.1,"stim/11.jpeg",1,1,3,1,"HouseObjects",1,"stim/objects/HouseObjects/doormat2.png",4,"left","left",0.553999901,1,1,1
"354",44,347,0.1,"stim/23.jpeg",2,3,3,1,"Instruments",2,"stim/objects/Instruments/pipepiano2.png",3,"right","left",0.398999929,0,0,1
"355",44,348,0.7,"stim/61.jpeg",6,1,2,2,"HouseObjects",1,"stim/objects/HouseObjects/dishsoap.png",3,"left","left",0.464999914,1,1,1
"356",44,349,0.5,"stim/42.jpeg",4,2,1,2,"HouseObjects",1,"stim/objects/HouseObjects/bucket.png",4,"left","right",0.510999918,0,0,1
"357",44,350,0.9,"stim/12.jpeg",1,2,3,2,"Instruments",2,"stim/objects/Instruments/grandpiano.png",2,"right","left",0.416999817,0,0,1
"358",44,351,0.9,"stim/21.jpeg",2,1,3,2,"HouseObjects",1,"stim/objects/HouseObjects/glass.png",4,"left","left",0.520999908,1,1,1
"359",44,352,0.5,"stim/41.jpeg",4,1,1,2,"Instruments",2,"stim/objects/Instruments/chime.png",2,"right","",NA,0,0,1
"360",44,353,0.9,"stim/22.jpeg",2,2,3,2,"HouseObjects",1,"stim/objects/HouseObjects/garbagebin.png",2,"left","left",0.480999947,1,1,1
"361",44,354,0.7,"stim/53.jpeg",5,3,2,2,"Instruments",2,"stim/objects/Instruments/cymbal.png",4,"right","",NA,0,0,1
"362",44,355,0.5,"stim/32.jpeg",3,2,1,2,"Instruments",2,"stim/objects/Instruments/acousticguitar.png",3,"right","left",0.447999716,0,0,1
"363",44,356,0.9,"stim/23.jpeg",2,3,3,2,"HouseObjects",1,"stim/objects/HouseObjects/glass.png",3,"left","left",0.236000061,1,1,1
"364",44,357,0.9,"stim/12.jpeg",1,2,3,2,"Instruments",2,"stim/objects/Instruments/gong.png",2,"right","right",0.52699995,1,1,1
"365",44,358,0.9,"stim/24.jpeg",2,4,3,2,"HouseObjects",1,"stim/objects/HouseObjects/flyswatter.png",4,"left","left",0.403999805,1,1,1
"366",44,359,0.9,"stim/24.jpeg",2,4,3,2,"HouseObjects",1,"stim/objects/HouseObjects/dustpan.png",1,"left","left",0.402999878,1,1,1
"367",44,360,0.5,"stim/44.jpeg",4,4,1,1,"Instruments",2,"stim/objects/Instruments/musicsheet.png",2,"right","left",0.569000006,0,0,1
"368",44,361,0.9,"stim/12.jpeg",1,2,3,2,"Instruments",2,"stim/objects/Instruments/flute.png",4,"right","right",0.447999954,1,1,1
"369",44,362,0.9,"stim/22.jpeg",2,2,3,2,"HouseObjects",1,"stim/objects/HouseObjects/garbagebin.png",1,"left","left",0.31400013,1,1,1
"370",44,363,0.1,"stim/22.jpeg",2,2,3,1,"Instruments",2,"stim/objects/Instruments/panflute2.png",1,"right","left",0.334000111,0,0,1
"371",44,364,0.5,"stim/41.jpeg",4,1,1,1,"HouseObjects",1,"stim/objects/HouseObjects/match.png",1,"left","left",0.204999924,1,1,1
"372",44,365,0.7,"stim/63.jpeg",6,3,2,2,"HouseObjects",1,"stim/objects/HouseObjects/clothesdryingrack.png",2,"left","left",0.508999825,1,1,1
"373",44,366,0.9,"stim/13.jpeg",1,3,3,1,"Instruments",2,"stim/objects/Instruments/flute2.png",3,"right","right",0.559999943,1,1,1
"374",44,367,0.9,"stim/24.jpeg",2,4,3,2,"HouseObjects",1,"stim/objects/HouseObjects/glass.png",4,"left","left",0.374000072,1,1,1
"375",44,368,0.9,"stim/22.jpeg",2,2,3,2,"HouseObjects",1,"stim/objects/HouseObjects/glass.png",3,"left","left",0.32799983,1,1,1
"376",44,369,0.9,"stim/21.jpeg",2,1,3,2,"HouseObjects",1,"stim/objects/HouseObjects/dustpan.png",3,"left","left",0.263999939,1,1,1
"377",44,370,0.9,"stim/24.jpeg",2,4,3,2,"HouseObjects",1,"stim/objects/HouseObjects/garbagebin.png",1,"left","left",0.400999784,1,1,1
"378",44,371,0.9,"stim/12.jpeg",1,2,3,2,"Instruments",2,"stim/objects/Instruments/gong.png",1,"right","right",0.538999796,1,1,1
"379",44,372,0.9,"stim/22.jpeg",2,2,3,2,"HouseObjects",1,"stim/objects/HouseObjects/doormat.png",4,"left","left",0.463999748,1,1,1
"380",44,373,0.1,"stim/11.jpeg",1,1,3,1,"HouseObjects",1,"stim/objects/HouseObjects/handvacuum2.png",2,"left","right",0.483999968,0,0,1
"381",44,374,0.9,"stim/22.jpeg",2,2,3,2,"HouseObjects",1,"stim/objects/HouseObjects/dustpan.png",3,"left","left",0.380000114,1,1,1
"382",44,375,0.9,"stim/22.jpeg",2,2,3,1,"HouseObjects",1,"stim/objects/HouseObjects/rubbergloves2.png",4,"left","left",0.470000029,1,1,1
"383",44,376,0.9,"stim/13.jpeg",1,3,3,2,"Instruments",2,"stim/objects/Instruments/flutetrans.png",3,"right","right",0.617999792,1,1,1
"384",44,377,0.7,"stim/62.jpeg",6,2,2,2,"HouseObjects",1,"stim/objects/HouseObjects/clothespin.png",2,"left","left",0.523000002,1,1,1
"385",44,378,0.9,"stim/12.jpeg",1,2,3,2,"Instruments",2,"stim/objects/Instruments/flute.png",2,"right","right",0.49000001,1,1,1
"386",44,379,0.9,"stim/11.jpeg",1,1,3,2,"Instruments",2,"stim/objects/Instruments/gong.png",2,"right","right",0.446000099,1,1,1
"387",44,380,0.9,"stim/14.jpeg",1,4,3,2,"Instruments",2,"stim/objects/Instruments/flutetrans.png",3,"right","right",0.522999763,1,1,1
"388",44,381,0.5,"stim/31.jpeg",3,1,1,2,"HouseObjects",1,"stim/objects/HouseObjects/ashtray.png",1,"left","left",0.464999914,1,1,1
"389",44,382,0.5,"stim/34.jpeg",3,4,1,2,"Instruments",2,"stim/objects/Instruments/banjo.png",3,"right","left",0.373999834,0,0,1
"390",44,383,0.9,"stim/24.jpeg",2,4,3,2,"HouseObjects",1,"stim/objects/HouseObjects/glass.png",1,"left","left",0.414999962,1,1,1
"391",44,384,0.9,"stim/22.jpeg",2,2,3,2,"HouseObjects",1,"stim/objects/HouseObjects/garbagebin.png",1,"left","left",0.381999969,1,1,1
"392",44,385,0.9,"stim/22.jpeg",2,2,3,2,"HouseObjects",1,"stim/objects/HouseObjects/doormat.png",2,"left","left",0.225999832,1,1,1
"393",44,386,0.9,"stim/14.jpeg",1,4,3,2,"Instruments",2,"stim/objects/Instruments/gong.png",4,"right","left",0.243999958,0,0,1
"394",44,387,0.9,"stim/23.jpeg",2,3,3,2,"HouseObjects",1,"stim/objects/HouseObjects/flyswatter.png",3,"left","left",0.398000002,1,1,1
"395",44,388,0.9,"stim/13.jpeg",1,3,3,2,"Instruments",2,"stim/objects/Instruments/flute.png",2,"right","right",0.503000021,1,1,1
"396",44,389,0.5,"stim/34.jpeg",3,4,1,2,"HouseObjects",1,"stim/objects/HouseObjects/barbecuelighter.png",1,"left","left",0.377000093,1,1,1
"397",44,390,0.3,"stim/54.jpeg",5,4,2,1,"HouseObjects",1,"stim/objects/HouseObjects/barbecuelighter2.png",1,"left","left",0.388999701,1,1,1
"398",44,391,0.9,"stim/21.jpeg",2,1,3,1,"HouseObjects",1,"stim/objects/HouseObjects/ironingboard2.png",4,"left","left",0.539999962,1,1,1
"399",44,392,0.9,"stim/14.jpeg",1,4,3,2,"Instruments",2,"stim/objects/Instruments/flute.png",4,"right","right",0.532999754,1,1,1
"400",44,393,0.9,"stim/12.jpeg",1,2,3,2,"Instruments",2,"stim/objects/Instruments/gong.png",2,"right","right",0.480000019,1,1,1
"401",44,394,0.7,"stim/62.jpeg",6,2,2,2,"HouseObjects",1,"stim/objects/HouseObjects/dishsoap.png",1,"left","left",0.451999903,1,1,1
"402",44,395,0.9,"stim/24.jpeg",2,4,3,2,"HouseObjects",1,"stim/objects/HouseObjects/dustpan.png",2,"left","left",0.419999838,1,1,1
"403",44,396,0.9,"stim/22.jpeg",2,2,3,2,"HouseObjects",1,"stim/objects/HouseObjects/doormat.png",1,"left","left",0.335000038,1,1,1
"404",44,397,0.9,"stim/23.jpeg",2,3,3,2,"HouseObjects",1,"stim/objects/HouseObjects/doormat.png",2,"left","left",0.368000031,1,1,1
"405",44,398,0.5,"stim/43.jpeg",4,3,1,2,"Instruments",2,"stim/objects/Instruments/cornet.png",4,"right","left",0.453000069,0,0,1
"406",44,399,0.9,"stim/23.jpeg",2,3,3,2,"HouseObjects",1,"stim/objects/HouseObjects/dustpan.png",4,"left","left",0.412999868,1,1,1
"407",44,400,0.9,"stim/22.jpeg",2,2,3,2,"HouseObjects",1,"stim/objects/HouseObjects/garbagebin.png",2,"left","left",0.457999945,1,1,1
"408",44,401,0.7,"stim/54.jpeg",5,4,2,2,"Instruments",2,"stim/objects/Instruments/doublebass.png",2,"right","right",0.637000084,1,1,1
"409",44,402,0.9,"stim/11.jpeg",1,1,3,2,"Instruments",2,"stim/objects/Instruments/frenchhorn.png",4,"right","right",0.588999987,1,1,1
"410",44,403,0.9,"stim/11.jpeg",1,1,3,2,"Instruments",2,"stim/objects/Instruments/gong.png",4,"right","right",0.548999786,1,1,1
"411",44,404,0.9,"stim/24.jpeg",2,4,3,2,"HouseObjects",1,"stim/objects/HouseObjects/flyswatter.png",3,"left","left",0.508999825,1,1,1
"412",44,405,0.3,"stim/62.jpeg",6,2,2,1,"Instruments",2,"stim/objects/Instruments/cornet2.png",2,"right","left",0.47699976,0,0,1
"413",44,406,0.9,"stim/13.jpeg",1,3,3,2,"Instruments",2,"stim/objects/Instruments/gong.png",2,"right","",NA,0,0,1
"414",44,407,0.9,"stim/21.jpeg",2,1,3,2,"HouseObjects",1,"stim/objects/HouseObjects/garbagebin.png",3,"left","left",0.40899992,1,1,1
"415",44,408,0.7,"stim/54.jpeg",5,4,2,1,"Instruments",2,"stim/objects/Instruments/acousticguitar2.png",1,"right","left",0.522000074,0,0,1
"416",44,409,0.9,"stim/11.jpeg",1,1,3,2,"Instruments",2,"stim/objects/Instruments/flute.png",4,"right","left",0.661000013,0,0,1
"417",44,410,0.9,"stim/21.jpeg",2,1,3,2,"HouseObjects",1,"stim/objects/HouseObjects/flyswatter.png",1,"left","left",0.488999844,1,1,1
"418",44,411,0.9,"stim/13.jpeg",1,3,3,2,"Instruments",2,"stim/objects/Instruments/grandpiano.png",4,"right","right",0.535000086,1,1,1
"419",44,412,0.9,"stim/23.jpeg",2,3,3,2,"HouseObjects",1,"stim/objects/HouseObjects/garbagebin.png",3,"left","left",0.404999971,1,1,1
"420",44,413,0.9,"stim/22.jpeg",2,2,3,2,"HouseObjects",1,"stim/objects/HouseObjects/flyswatter.png",3,"left","left",0.378999949,1,1,1
"421",44,414,0.9,"stim/24.jpeg",2,4,3,2,"HouseObjects",1,"stim/objects/HouseObjects/doormat.png",4,"left","left",0.40899992,1,1,1
"422",44,415,0.9,"stim/21.jpeg",2,1,3,2,"HouseObjects",1,"stim/objects/HouseObjects/garbagebin.png",1,"left","left",0.505999804,1,1,1
"423",44,416,0.5,"stim/33.jpeg",3,3,1,2,"Instruments",2,"stim/objects/Instruments/banjo.png",2,"right","left",0.484999895,0,0,1
"424",44,417,0.9,"stim/14.jpeg",1,4,3,2,"Instruments",2,"stim/objects/Instruments/grandpiano.png",4,"right","right",0.462999821,1,1,1
"425",44,418,0.9,"stim/13.jpeg",1,3,3,2,"Instruments",2,"stim/objects/Instruments/flutetrans.png",2,"right","right",0.517999887,1,1,1
"426",44,419,0.9,"stim/11.jpeg",1,1,3,2,"Instruments",2,"stim/objects/Instruments/flutetrans.png",2,"right","left",0.463999987,0,0,1
"427",44,420,0.5,"stim/44.jpeg",4,4,1,2,"Instruments",2,"stim/objects/Instruments/cello.png",4,"right","left",0.49000001,0,0,1
"428",44,421,0.9,"stim/11.jpeg",1,1,3,2,"Instruments",2,"stim/objects/Instruments/frenchhorn.png",3,"right","right",0.633999825,1,1,1
"429",44,422,0.3,"stim/54.jpeg",5,4,2,1,"HouseObjects",1,"stim/objects/HouseObjects/remote.png",3,"left","right",0.587999821,0,0,1
"430",44,423,0.1,"stim/21.jpeg",2,1,3,1,"Instruments",2,"stim/objects/Instruments/oboe2.png",4,"right","left",0.424999952,0,0,1
"431",44,424,0.9,"stim/23.jpeg",2,3,3,2,"HouseObjects",1,"stim/objects/HouseObjects/flyswatter.png",4,"left","left",0.463999748,1,1,1
"432",44,425,0.9,"stim/21.jpeg",2,1,3,2,"HouseObjects",1,"stim/objects/HouseObjects/flyswatter.png",3,"left","left",0.46999979,1,1,1
"433",44,426,0.5,"stim/44.jpeg",4,4,1,1,"HouseObjects",1,"stim/objects/HouseObjects/lintroller.png",1,"left","left",0.502999783,1,1,1
"434",44,427,0.7,"stim/52.jpeg",5,2,2,1,"Instruments",2,"stim/objects/Instruments/banjo2.png",1,"right","right",0.644000053,1,1,1
"435",44,428,0.3,"stim/61.jpeg",6,1,2,1,"Instruments",2,"stim/objects/Instruments/clarinet2.png",3,"right","left",0.388000011,0,0,1
"436",44,429,0.7,"stim/53.jpeg",5,3,2,1,"Instruments",2,"stim/objects/Instruments/oboe.png",1,"right","right",0.513999939,1,1,1
"437",44,430,0.7,"stim/53.jpeg",5,3,2,2,"Instruments",2,"stim/objects/Instruments/electricdrumset.png",2,"right","right",0.415999889,1,1,1
"438",44,431,0.7,"stim/63.jpeg",6,3,2,2,"HouseObjects",1,"stim/objects/HouseObjects/coffee.png",1,"left","left",0.514999866,1,1,1
"439",44,432,0.3,"stim/52.jpeg",5,2,2,1,"HouseObjects",1,"stim/objects/HouseObjects/ashtray2.png",3,"left","right",0.559999943,0,0,1
"440",44,433,0.5,"stim/31.jpeg",3,1,1,2,"HouseObjects",1,"stim/objects/HouseObjects/bleachbottle.png",3,"left","left",0.446999788,1,1,1
"441",44,434,0.9,"stim/11.jpeg",1,1,3,2,"Instruments",2,"stim/objects/Instruments/flute.png",2,"right","right",0.505999804,1,1,1
"442",44,435,0.5,"stim/44.jpeg",4,4,1,2,"HouseObjects",1,"stim/objects/HouseObjects/blender.png",2,"left","",NA,0,0,1
"443",44,436,0.9,"stim/13.jpeg",1,3,3,2,"Instruments",2,"stim/objects/Instruments/frenchhorn.png",1,"right","right",0.546999931,1,1,1
"444",44,437,0.5,"stim/32.jpeg",3,2,1,1,"Instruments",2,"stim/objects/Instruments/guitarcase.png",2,"right","left",0.513999939,0,0,1
"445",44,438,0.5,"stim/33.jpeg",3,3,1,1,"HouseObjects",1,"stim/objects/HouseObjects/glassmop.png",1,"left","left",0.555000067,1,1,1
"446",44,439,0.9,"stim/11.jpeg",1,1,3,1,"Instruments",2,"stim/objects/Instruments/harmonica2.png",3,"right","left",0.424999714,0,0,1
"447",44,440,0.9,"stim/12.jpeg",1,2,3,2,"Instruments",2,"stim/objects/Instruments/frenchhorn.png",3,"right","right",0.453999996,1,1,1
"448",44,441,0.5,"stim/43.jpeg",4,3,1,2,"HouseObjects",1,"stim/objects/HouseObjects/bucket.png",3,"left","left",0.402999878,1,1,1
"449",44,442,0.9,"stim/22.jpeg",2,2,3,1,"HouseObjects",1,"stim/objects/HouseObjects/key2.png",3,"left","left",0.411999941,1,1,1
"450",44,443,0.1,"stim/21.jpeg",2,1,3,1,"Instruments",2,"stim/objects/Instruments/marimba2.png",2,"right","left",0.477999926,0,0,1
"451",44,444,0.9,"stim/22.jpeg",2,2,3,2,"HouseObjects",1,"stim/objects/HouseObjects/doormat.png",2,"left","left",0.464999914,1,1,1
"452",44,445,0.7,"stim/53.jpeg",5,3,2,2,"Instruments",2,"stim/objects/Instruments/drums.png",2,"right","right",0.530999899,1,1,1
"453",44,446,0.9,"stim/24.jpeg",2,4,3,2,"HouseObjects",1,"stim/objects/HouseObjects/glass.png",4,"left","left",0.496999979,1,1,1
"454",44,447,0.9,"stim/21.jpeg",2,1,3,2,"HouseObjects",1,"stim/objects/HouseObjects/doormat.png",2,"left","left",0.410999775,1,1,1
"455",44,448,0.9,"stim/13.jpeg",1,3,3,1,"Instruments",2,"stim/objects/Instruments/hihat2.png",3,"right","right",0.520999908,1,1,1
"456",44,449,0.9,"stim/23.jpeg",2,3,3,2,"HouseObjects",1,"stim/objects/HouseObjects/garbagebin.png",1,"left","left",0.429999828,1,1,1
"457",44,450,0.9,"stim/23.jpeg",2,3,3,2,"HouseObjects",1,"stim/objects/HouseObjects/garbagebin.png",2,"left","left",0.454999924,1,1,1
"458",44,451,0.9,"stim/14.jpeg",1,4,3,2,"Instruments",2,"stim/objects/Instruments/flutetrans.png",4,"right","left",0.5,0,0,1
"459",44,452,0.1,"stim/13.jpeg",1,3,3,1,"HouseObjects",1,"stim/objects/HouseObjects/hairdryer2.png",4,"left","right",0.467999935,0,0,1
"460",44,453,0.5,"stim/42.jpeg",4,2,1,1,"HouseObjects",1,"stim/objects/HouseObjects/key.png",4,"left","left",0.52699995,1,1,1
"461",44,454,0.7,"stim/52.jpeg",5,2,2,2,"Instruments",2,"stim/objects/Instruments/doublebass.png",2,"right","right",0.507999897,1,1,1
"462",44,455,0.9,"stim/23.jpeg",2,3,3,2,"HouseObjects",1,"stim/objects/HouseObjects/glass.png",4,"left","left",0.490999937,1,1,1
"463",44,456,0.9,"stim/11.jpeg",1,1,3,2,"Instruments",2,"stim/objects/Instruments/grandpiano.png",1,"right","right",0.552000046,1,1,1
"464",44,457,0.5,"stim/31.jpeg",3,1,1,2,"HouseObjects",1,"stim/objects/HouseObjects/basket.png",3,"left","left",0.419999838,1,1,1
"465",44,458,0.9,"stim/11.jpeg",1,1,3,1,"Instruments",2,"stim/objects/Instruments/frenchhorn2.png",1,"right","right",0.546000004,1,1,1
"466",44,459,0.9,"stim/11.jpeg",1,1,3,2,"Instruments",2,"stim/objects/Instruments/grandpiano.png",3,"right","right",0.56799984,1,1,1
"467",44,460,0.9,"stim/21.jpeg",2,1,3,2,"HouseObjects",1,"stim/objects/HouseObjects/doormat.png",3,"left","left",0.449999809,1,1,1
"468",44,461,0.9,"stim/14.jpeg",1,4,3,2,"Instruments",2,"stim/objects/Instruments/grandpiano.png",2,"right","right",0.617999792,1,1,1
"469",44,462,0.7,"stim/62.jpeg",6,2,2,2,"HouseObjects",1,"stim/objects/HouseObjects/cushion.png",3,"left","left",0.35800004,1,1,1
"470",44,463,0.3,"stim/61.jpeg",6,1,2,1,"Instruments",2,"stim/objects/Instruments/drums2.png",3,"right","left",0.569999933,0,0,1
"471",44,464,0.9,"stim/24.jpeg",2,4,3,1,"HouseObjects",1,"stim/objects/HouseObjects/recyclingbin2.png",1,"left","left",0.431999922,1,1,1
"472",44,465,0.5,"stim/43.jpeg",4,3,1,1,"Instruments",2,"stim/objects/Instruments/metronome.png",3,"right","left",0.36500001,0,0,1
"473",44,466,0.9,"stim/11.jpeg",1,1,3,2,"Instruments",2,"stim/objects/Instruments/frenchhorn.png",1,"right","right",0.537999868,1,1,1
"474",44,467,0.9,"stim/23.jpeg",2,3,3,2,"HouseObjects",1,"stim/objects/HouseObjects/flyswatter.png",1,"left","left",0.334000111,1,1,1
"475",44,468,0.9,"stim/14.jpeg",1,4,3,2,"Instruments",2,"stim/objects/Instruments/grandpiano.png",2,"right","right",0.506000042,1,1,1
"476",44,469,0.9,"stim/22.jpeg",2,2,3,2,"HouseObjects",1,"stim/objects/HouseObjects/flyswatter.png",2,"left","left",0.414000034,1,1,1
"477",44,470,0.9,"stim/22.jpeg",2,2,3,2,"HouseObjects",1,"stim/objects/HouseObjects/flyswatter.png",1,"left","left",0.422999859,1,1,1
"478",44,471,0.7,"stim/63.jpeg",6,3,2,2,"HouseObjects",1,"stim/objects/HouseObjects/clothespin.png",2,"left","left",0.444999933,1,1,1
"479",44,472,0.9,"stim/14.jpeg",1,4,3,2,"Instruments",2,"stim/objects/Instruments/frenchhorn.png",1,"right","right",0.511999846,1,1,1
"480",44,473,0.5,"stim/33.jpeg",3,3,1,1,"HouseObjects",1,"stim/objects/HouseObjects/iron.png",2,"left","left",0.44900012,1,1,1
"481",44,474,0.3,"stim/51.jpeg",5,1,2,1,"HouseObjects",1,"stim/objects/HouseObjects/pan.png",4,"left","right",0.542999983,0,0,1
"482",44,475,0.5,"stim/33.jpeg",3,3,1,1,"Instruments",2,"stim/objects/Instruments/harmonica.png",3,"right","left",0.444000006,0,0,1
"483",44,476,0.5,"stim/43.jpeg",4,3,1,1,"HouseObjects",1,"stim/objects/HouseObjects/knife.png",1,"left","left",0.433999777,1,1,1
"484",44,477,0.7,"stim/54.jpeg",5,4,2,2,"Instruments",2,"stim/objects/Instruments/electricdrumset.png",1,"right","right",0.626999855,1,1,1
"485",44,478,0.7,"stim/51.jpeg",5,1,2,2,"Instruments",2,"stim/objects/Instruments/doublebass.png",4,"right","right",0.559999943,1,1,1
"486",44,479,0.5,"stim/31.jpeg",3,1,1,2,"Instruments",2,"stim/objects/Instruments/acousticguitar.png",4,"right","left",0.595999956,0,0,1
"487",44,480,0.9,"stim/14.jpeg",1,4,3,1,"Instruments",2,"stim/objects/Instruments/flutetrans2.png",4,"right","right",0.542000055,1,1,1
"488",44,481,0.3,"stim/53.jpeg",5,3,2,1,"HouseObjects",1,"stim/objects/HouseObjects/ballofstring2.png",3,"left","right",0.565000057,0,0,1
"489",44,482,0.5,"stim/34.jpeg",3,4,1,1,"HouseObjects",1,"stim/objects/HouseObjects/hairdryer.png",3,"left","left",0.447000027,1,1,1
"490",44,483,0.5,"stim/31.jpeg",3,1,1,2,"Instruments",2,"stim/objects/Instruments/bassdrum.png",1,"right","left",0.40899992,0,0,1
"491",44,484,0.3,"stim/64.jpeg",6,4,2,1,"Instruments",2,"stim/objects/Instruments/doublebass2.png",2,"right","left",0.463000059,0,0,1
"492",44,485,0.5,"stim/42.jpeg",4,2,1,2,"Instruments",2,"stim/objects/Instruments/cornet.png",3,"right","left",0.465999842,0,0,1
"493",44,486,0.9,"stim/23.jpeg",2,3,3,2,"HouseObjects",1,"stim/objects/HouseObjects/doormat.png",3,"left","left",0.496999979,1,1,1
"494",44,487,0.9,"stim/21.jpeg",2,1,3,1,"HouseObjects",1,"stim/objects/HouseObjects/remote2.png",2,"left","left",0.426000118,1,1,1
"495",44,488,0.5,"stim/41.jpeg",4,1,1,2,"Instruments",2,"stim/objects/Instruments/clarinet.png",4,"right","left",0.603999853,0,0,1
"496",44,489,0.1,"stim/24.jpeg",2,4,3,1,"Instruments",2,"stim/objects/Instruments/maraca2.png",4,"right","left",0.475999832,0,0,1
"497",44,490,0.7,"stim/63.jpeg",6,3,2,2,"HouseObjects",1,"stim/objects/HouseObjects/dishsoap.png",4,"left","left",0.389999866,1,1,1
"498",44,491,0.9,"stim/13.jpeg",1,3,3,2,"Instruments",2,"stim/objects/Instruments/gong.png",4,"right","right",0.542000055,1,1,1
"499",44,492,0.7,"stim/51.jpeg",5,1,2,2,"Instruments",2,"stim/objects/Instruments/electricguitar.png",1,"right","right",0.582999945,1,1,1
"500",44,493,0.5,"stim/33.jpeg",3,3,1,2,"HouseObjects",1,"stim/objects/HouseObjects/ballofstring.png",1,"left","left",0.411999941,1,1,1
"501",44,494,0.9,"stim/22.jpeg",2,2,3,2,"HouseObjects",1,"stim/objects/HouseObjects/glass.png",2,"left","left",0.472999811,1,1,1
"502",44,495,0.9,"stim/24.jpeg",2,4,3,2,"HouseObjects",1,"stim/objects/HouseObjects/doormat.png",2,"left","left",0.402999878,1,1,1
"503",44,496,0.3,"stim/63.jpeg",6,3,2,1,"Instruments",2,"stim/objects/Instruments/cello2.png",4,"right","left",0.449999809,0,0,1
"504",44,497,0.9,"stim/23.jpeg",2,3,3,1,"HouseObjects",1,"stim/objects/HouseObjects/pitcher2.png",2,"left","",NA,0,0,1
"505",44,498,0.9,"stim/12.jpeg",1,2,3,2,"Instruments",2,"stim/objects/Instruments/frenchhorn.png",1,"right","",NA,0,0,1
"506",44,499,0.9,"stim/24.jpeg",2,4,3,2,"HouseObjects",1,"stim/objects/HouseObjects/flyswatter.png",4,"left","left",0.484999895,1,1,1
"507",44,500,0.9,"stim/11.jpeg",1,1,3,2,"Instruments",2,"stim/objects/Instruments/grandpiano.png",3,"right","left",0.35800004,0,0,1
"508",44,501,0.7,"stim/61.jpeg",6,1,2,2,"HouseObjects",1,"stim/objects/HouseObjects/clothesdryingrack.png",2,"left","left",0.487999916,1,1,1
"509",44,502,0.7,"stim/52.jpeg",5,2,2,1,"Instruments",2,"stim/objects/Instruments/record.png",3,"right","right",0.622999907,1,1,1
"510",44,503,0.5,"stim/41.jpeg",4,1,1,2,"HouseObjects",1,"stim/objects/HouseObjects/broom.png",4,"left","left",0.629999876,1,1,1
"511",44,504,0.7,"stim/64.jpeg",6,4,2,1,"HouseObjects",1,"stim/objects/HouseObjects/blender2.png",2,"left","left",0.551999807,1,1,1
"512",44,505,0.7,"stim/63.jpeg",6,3,2,1,"HouseObjects",1,"stim/objects/HouseObjects/bucket2.png",4,"left","left",0.490999937,1,1,1
"513",44,506,0.9,"stim/13.jpeg",1,3,3,2,"Instruments",2,"stim/objects/Instruments/grandpiano.png",4,"right","left",0.441999912,0,0,1
"514",44,507,0.9,"stim/12.jpeg",1,2,3,2,"Instruments",2,"stim/objects/Instruments/grandpiano.png",3,"right","right",0.475000143,1,1,1
"515",44,508,0.9,"stim/23.jpeg",2,3,3,2,"HouseObjects",1,"stim/objects/HouseObjects/garbagebin.png",3,"left","left",0.491999865,1,1,1
"516",44,509,0.5,"stim/42.jpeg",4,2,1,2,"Instruments",2,"stim/objects/Instruments/clarinet.png",2,"right","left",0.55099988,0,0,1
"517",44,510,0.5,"stim/31.jpeg",3,1,1,2,"Instruments",2,"stim/objects/Instruments/accordion.png",4,"right","left",0.398000002,0,0,1
"518",44,511,0.9,"stim/13.jpeg",1,3,3,2,"Instruments",2,"stim/objects/Instruments/grandpiano.png",1,"right","right",0.504999876,1,1,1
"519",44,512,0.1,"stim/14.jpeg",1,4,3,1,"HouseObjects",1,"stim/objects/HouseObjects/handbrush2.png",2,"left","left",0.520999908,1,1,1
"520",44,513,0.9,"stim/13.jpeg",1,3,3,2,"Instruments",2,"stim/objects/Instruments/flute.png",2,"right","right",0.523000002,1,1,1
"521",44,514,0.9,"stim/23.jpeg",2,3,3,1,"HouseObjects",1,"stim/objects/HouseObjects/knife2.png",3,"left","left",0.427999973,1,1,1
"522",44,515,0.9,"stim/22.jpeg",2,2,3,2,"HouseObjects",1,"stim/objects/HouseObjects/dustpan.png",1,"left","left",0.437000036,1,1,1
"523",44,516,0.9,"stim/12.jpeg",1,2,3,2,"Instruments",2,"stim/objects/Instruments/flutetrans.png",3,"right","right",0.514999866,1,1,1
"524",44,517,0.7,"stim/64.jpeg",6,4,2,2,"HouseObjects",1,"stim/objects/HouseObjects/coffee.png",2,"left","left",0.496999979,1,1,1
"525",44,518,0.9,"stim/11.jpeg",1,1,3,2,"Instruments",2,"stim/objects/Instruments/gong.png",3,"right","left",0.224999905,0,0,1
"526",44,519,0.9,"stim/11.jpeg",1,1,3,2,"Instruments",2,"stim/objects/Instruments/gong.png",1,"right","right",0.506999969,1,1,1
"527",44,520,0.9,"stim/14.jpeg",1,4,3,2,"Instruments",2,"stim/objects/Instruments/gong.png",4,"right","right",0.402999878,1,1,1
"528",44,521,0.9,"stim/13.jpeg",1,3,3,2,"Instruments",2,"stim/objects/Instruments/flute.png",3,"right","right",0.453999758,1,1,1
"529",44,522,0.9,"stim/13.jpeg",1,3,3,2,"Instruments",2,"stim/objects/Instruments/frenchhorn.png",1,"right","right",0.415999889,1,1,1
"530",44,523,0.7,"stim/51.jpeg",5,1,2,1,"Instruments",2,"stim/objects/Instruments/balalaika2.png",3,"right","left",0.342999935,0,0,1
"531",44,524,0.5,"stim/32.jpeg",3,2,1,1,"HouseObjects",1,"stim/objects/HouseObjects/handvacuum.png",2,"left","left",0.610999823,1,1,1
"532",44,525,0.9,"stim/21.jpeg",2,1,3,2,"HouseObjects",1,"stim/objects/HouseObjects/glass.png",1,"left","left",0.381999731,1,1,1
"533",44,526,0.9,"stim/11.jpeg",1,1,3,2,"Instruments",2,"stim/objects/Instruments/flute.png",1,"right","right",0.546999931,1,1,1
"534",44,527,0.5,"stim/41.jpeg",4,1,1,1,"Instruments",2,"stim/objects/Instruments/maraca.png",3,"right","left",0.636999846,0,0,1
"535",44,528,0.9,"stim/13.jpeg",1,3,3,2,"Instruments",2,"stim/objects/Instruments/gong.png",3,"right","right",0.507999897,1,1,1
"536",44,529,0.3,"stim/63.jpeg",6,3,2,1,"Instruments",2,"stim/objects/Instruments/cymbal2.png",3,"right","left",0.368999958,0,0,1
"537",44,530,0.9,"stim/13.jpeg",1,3,3,2,"Instruments",2,"stim/objects/Instruments/frenchhorn.png",1,"right","right",0.510999918,1,1,1
"538",44,531,0.9,"stim/13.jpeg",1,3,3,2,"Instruments",2,"stim/objects/Instruments/gong.png",2,"right","right",0.539999962,1,1,1
"539",44,532,0.9,"stim/22.jpeg",2,2,3,2,"HouseObjects",1,"stim/objects/HouseObjects/dustpan.png",1,"left","left",0.369999886,1,1,1
"540",44,533,0.9,"stim/23.jpeg",2,3,3,2,"HouseObjects",1,"stim/objects/HouseObjects/dustpan.png",1,"left","left",0.430000067,1,1,1
"541",44,534,0.1,"stim/14.jpeg",1,4,3,1,"HouseObjects",1,"stim/objects/HouseObjects/garbagebin2.png",3,"left","left",0.404999971,1,1,1
"542",44,535,0.9,"stim/11.jpeg",1,1,3,2,"Instruments",2,"stim/objects/Instruments/grandpiano.png",3,"right","left",0.412999868,0,0,1
"543",44,536,0.7,"stim/54.jpeg",5,4,2,1,"Instruments",2,"stim/objects/Instruments/panflute.png",4,"right","right",0.397999763,1,1,1
"544",44,537,0.5,"stim/31.jpeg",3,1,1,1,"Instruments",2,"stim/objects/Instruments/hihat.png",4,"right","right",0.589999914,1,1,1
"545",44,538,0.9,"stim/12.jpeg",1,2,3,1,"Instruments",2,"stim/objects/Instruments/gong2.png",2,"right","right",0.451999903,1,1,1
"546",44,539,0.9,"stim/24.jpeg",2,4,3,2,"HouseObjects",1,"stim/objects/HouseObjects/doormat.png",3,"left","left",0.355999947,1,1,1
"547",44,540,0.1,"stim/23.jpeg",2,3,3,1,"Instruments",2,"stim/objects/Instruments/musicsheet2.png",4,"right","right",0.36899972,1,1,1
"548",44,541,0.9,"stim/14.jpeg",1,4,3,2,"Instruments",2,"stim/objects/Instruments/gong.png",3,"right","left",0.33100009,0,0,1
"549",44,542,0.1,"stim/24.jpeg",2,4,3,1,"Instruments",2,"stim/objects/Instruments/record2.png",3,"right","left",0.419999838,0,0,1
"550",44,543,0.7,"stim/51.jpeg",5,1,2,2,"Instruments",2,"stim/objects/Instruments/cymbal.png",3,"right","right",0.579999924,1,1,1
"551",44,544,0.9,"stim/11.jpeg",1,1,3,2,"Instruments",2,"stim/objects/Instruments/flutetrans.png",3,"right","right",0.525000095,1,1,1
"552",44,545,0.9,"stim/14.jpeg",1,4,3,2,"Instruments",2,"stim/objects/Instruments/frenchhorn.png",1,"right","right",0.369999886,1,1,1
"553",44,546,0.9,"stim/21.jpeg",2,1,3,2,"HouseObjects",1,"stim/objects/HouseObjects/doormat.png",2,"left","left",0.506999969,1,1,1
"554",44,547,0.9,"stim/21.jpeg",2,1,3,2,"HouseObjects",1,"stim/objects/HouseObjects/garbagebin.png",3,"left","left",0.358999968,1,1,1
"555",44,548,0.1,"stim/13.jpeg",1,3,3,1,"HouseObjects",1,"stim/objects/HouseObjects/flyswatter2.png",3,"left","right",0.605000019,0,0,1
"556",44,549,0.5,"stim/34.jpeg",3,4,1,2,"Instruments",2,"stim/objects/Instruments/bassdrum.png",3,"right","left",0.388999939,0,0,1
"557",44,550,0.9,"stim/23.jpeg",2,3,3,2,"HouseObjects",1,"stim/objects/HouseObjects/dustpan.png",4,"left","left",0.582000017,1,1,1
"558",44,551,0.7,"stim/51.jpeg",5,1,2,2,"Instruments",2,"stim/objects/Instruments/drums.png",2,"right","right",0.512999773,1,1,1
"559",44,552,0.7,"stim/54.jpeg",5,4,2,2,"Instruments",2,"stim/objects/Instruments/cymbal.png",3,"right","left",0.368999958,0,0,1
"560",44,553,0.9,"stim/21.jpeg",2,1,3,1,"HouseObjects",1,"stim/objects/HouseObjects/match2.png",2,"left","left",0.506000042,1,1,1
"561",44,554,0.9,"stim/13.jpeg",1,3,3,2,"Instruments",2,"stim/objects/Instruments/flute.png",4,"right","right",0.520999908,1,1,1
"562",44,555,0.5,"stim/33.jpeg",3,3,1,2,"Instruments",2,"stim/objects/Instruments/balalaika.png",4,"right","left",0.565999985,0,0,1
"563",44,556,0.9,"stim/14.jpeg",1,4,3,2,"Instruments",2,"stim/objects/Instruments/frenchhorn.png",4,"right","right",0.456999779,1,1,1
"564",44,557,0.7,"stim/54.jpeg",5,4,2,2,"Instruments",2,"stim/objects/Instruments/electricguitar.png",1,"right","right",0.503999949,1,1,1
"565",44,558,0.3,"stim/52.jpeg",5,2,2,1,"HouseObjects",1,"stim/objects/HouseObjects/pitcher.png",2,"left","left",0.56099987,1,1,1
"566",44,559,0.9,"stim/14.jpeg",1,4,3,2,"Instruments",2,"stim/objects/Instruments/flutetrans.png",1,"right","right",0.564999819,1,1,1
"567",44,560,0.9,"stim/12.jpeg",1,2,3,2,"Instruments",2,"stim/objects/Instruments/frenchhorn.png",2,"right","right",0.430999994,1,1,1
"568",44,561,0.9,"stim/13.jpeg",1,3,3,2,"Instruments",2,"stim/objects/Instruments/frenchhorn.png",2,"right","right",0.350999832,1,1,1
"569",44,562,0.5,"stim/43.jpeg",4,3,1,2,"HouseObjects",1,"stim/objects/HouseObjects/clock.png",1,"left","left",0.422999859,1,1,1
"570",44,563,0.9,"stim/11.jpeg",1,1,3,2,"Instruments",2,"stim/objects/Instruments/flutetrans.png",3,"right","left",0.591999769,0,0,1
"571",44,564,0.9,"stim/23.jpeg",2,3,3,2,"HouseObjects",1,"stim/objects/HouseObjects/doormat.png",4,"left","right",0.381999969,0,0,1
"572",44,565,0.7,"stim/64.jpeg",6,4,2,2,"HouseObjects",1,"stim/objects/HouseObjects/clothespin.png",3,"left","left",0.655999899,1,1,1
"573",44,566,0.7,"stim/61.jpeg",6,1,2,1,"HouseObjects",1,"stim/objects/HouseObjects/bottle2.png",4,"left","left",0.570999861,1,1,1
"574",44,567,0.9,"stim/14.jpeg",1,4,3,2,"Instruments",2,"stim/objects/Instruments/grandpiano.png",4,"right","right",0.651000023,1,1,1
"575",44,568,0.5,"stim/33.jpeg",3,3,1,2,"HouseObjects",1,"stim/objects/HouseObjects/barbecuelighter.png",2,"left","left",0.562999964,1,1,1
"576",44,569,0.7,"stim/53.jpeg",5,3,2,1,"Instruments",2,"stim/objects/Instruments/accordion2.png",4,"right","right",0.529999971,1,1,1
"577",44,570,0.9,"stim/11.jpeg",1,1,3,2,"Instruments",2,"stim/objects/Instruments/flute.png",1,"right","",NA,0,0,1
