"","participant","trial_index","trial_cond","scn_file","scn_cat","scn_inst","scn_condition","fillers","obj_cat","obj_cat_num","obj_file","quadrant","corr_ans","key_resp_trial.keys","key_resp_trial.rt","trial_acc","trial_acc_manual","group"
"1",44,1,0.9,"stim/12.jpeg",1,2,3,NA,"Instruments",2,"stim/objects/Instruments/triangle2.png",3,"right","",NA,0,0,0
"2",44,2,0.9,"stim/21.jpeg",2,1,3,NA,"HouseObjects",1,"stim/objects/HouseObjects/thread2.png",1,"left","left",0.551999807,1,1,0
"3",44,3,0.5,"stim/42.jpeg",4,2,1,NA,"HouseObjects",1,"stim/objects/HouseObjects/spraybottle.png",4,"left","left",0.761999846,1,1,0
"4",44,4,0.9,"stim/11.jpeg",1,1,3,NA,"Instruments",2,"stim/objects/Instruments/timbal2.png",4,"right","right",0.61500001,1,1,0
"5",44,5,0.7,"stim/63.jpeg",6,3,2,NA,"HouseObjects",1,"stim/objects/HouseObjects/saw2.png",3,"left","left",0.68599987,1,1,0
"6",44,6,0.5,"stim/42.jpeg",4,2,1,NA,"Instruments",2,"stim/objects/Instruments/triangle.png",3,"right","",NA,0,0,0
"7",44,7,0.7,"stim/64.jpeg",6,4,2,NA,"HouseObjects",1,"stim/objects/HouseObjects/scale2.png",2,"left","right",0.713000059,0,0,0
"8",44,8,0.5,"stim/34.jpeg",3,4,1,NA,"HouseObjects",1,"stim/objects/HouseObjects/scale.png",2,"left","left",0.679999828,1,1,0
"9",44,9,0.7,"stim/62.jpeg",6,2,2,NA,"HouseObjects",1,"stim/objects/HouseObjects/safetypin2.png",3,"left","",NA,0,0,0
"10",44,10,0.9,"stim/23.jpeg",2,3,3,NA,"HouseObjects",1,"stim/objects/HouseObjects/vacuumcleaner2.png",4,"left","left",0.357999802,1,1,0
"11",44,11,0.5,"stim/31.jpeg",3,1,1,NA,"HouseObjects",1,"stim/objects/HouseObjects/rug.png",3,"left","left",0.450999975,1,1,0
"12",44,12,0.5,"stim/33.jpeg",3,3,1,NA,"HouseObjects",1,"stim/objects/HouseObjects/saw.png",3,"left","left",0.411000013,1,1,0
"13",44,13,0.5,"stim/31.jpeg",3,1,1,NA,"HouseObjects",1,"stim/objects/HouseObjects/rug.png",3,"left","left",0.336999893,1,1,0
"14",44,14,0.7,"stim/54.jpeg",5,4,2,NA,"Instruments",2,"stim/objects/Instruments/xylophone.png",1,"right","left",0.391000032,0,0,0
"15",44,15,0.5,"stim/43.jpeg",4,3,1,NA,"HouseObjects",1,"stim/objects/HouseObjects/teapot.png",2,"left","left",0.622999907,1,1,0
"16",44,16,0.9,"stim/21.jpeg",2,1,3,NA,"HouseObjects",1,"stim/objects/HouseObjects/thread2.png",2,"left","",NA,0,0,0
"17",44,17,0.9,"stim/12.jpeg",1,2,3,NA,"Instruments",2,"stim/objects/Instruments/triangle2.png",2,"right","",NA,0,0,0
"18",44,18,0.9,"stim/13.jpeg",1,3,3,NA,"Instruments",2,"stim/objects/Instruments/trombone2.png",2,"right","left",0.362999916,0,0,0
"19",44,19,0.1,"stim/21.jpeg",2,1,3,NA,"Instruments",2,"stim/objects/Instruments/tuba2.png",1,"right","left",0.431999922,0,0,0
"20",44,20,0.3,"stim/62.jpeg",6,2,2,NA,"Instruments",2,"stim/objects/Instruments/saxophone2.png",4,"right","left",0.596999884,0,0,0
"21",44,21,0.5,"stim/43.jpeg",4,3,1,NA,"HouseObjects",1,"stim/objects/HouseObjects/teapot.png",4,"left","left",0.475000143,1,1,0
"22",44,22,0.5,"stim/34.jpeg",3,4,1,NA,"HouseObjects",1,"stim/objects/HouseObjects/scale.png",3,"left","left",0.385999918,1,1,0
"23",44,23,0.7,"stim/52.jpeg",5,2,2,NA,"Instruments",2,"stim/objects/Instruments/violin.png",2,"right","right",0.566999912,1,1,0
"24",44,24,0.5,"stim/44.jpeg",4,4,1,NA,"HouseObjects",1,"stim/objects/HouseObjects/thermometer.png",3,"left","left",0.45299983,1,1,0
"25",44,25,0.9,"stim/22.jpeg",2,2,3,NA,"HouseObjects",1,"stim/objects/HouseObjects/towel2.png",3,"left","left",0.381999731,1,1,0
"26",44,26,0.3,"stim/64.jpeg",6,4,2,NA,"Instruments",2,"stim/objects/Instruments/tambourine2.png",3,"right","left",0.552000046,0,0,0
"27",44,27,0.7,"stim/63.jpeg",6,3,2,NA,"HouseObjects",1,"stim/objects/HouseObjects/saw2.png",4,"left","left",0.588999987,1,1,0
"28",44,28,0.9,"stim/21.jpeg",2,1,3,NA,"HouseObjects",1,"stim/objects/HouseObjects/thread2.png",4,"left","left",0.518999815,1,1,0
"29",44,29,0.5,"stim/41.jpeg",4,1,1,NA,"Instruments",2,"stim/objects/Instruments/timbal.png",2,"right","right",0.725999832,1,1,0
"30",44,30,0.9,"stim/12.jpeg",1,2,3,NA,"Instruments",2,"stim/objects/Instruments/triangle2.png",4,"right","right",0.589999914,1,1,0
"31",44,31,0.9,"stim/21.jpeg",2,1,3,NA,"HouseObjects",1,"stim/objects/HouseObjects/thread2.png",4,"left","left",0.615999937,1,1,0
"32",44,32,0.9,"stim/22.jpeg",2,2,3,NA,"HouseObjects",1,"stim/objects/HouseObjects/towel2.png",4,"left","left",0.542999983,1,1,0
"33",44,33,0.5,"stim/34.jpeg",3,4,1,NA,"Instruments",2,"stim/objects/Instruments/tambourine.png",1,"right","left",0.49399972,0,0,0
"34",44,34,0.9,"stim/13.jpeg",1,3,3,NA,"Instruments",2,"stim/objects/Instruments/trombone2.png",2,"right","right",0.61500001,1,1,0
"35",44,35,0.3,"stim/52.jpeg",5,2,2,NA,"HouseObjects",1,"stim/objects/HouseObjects/towel.png",2,"left","right",0.583999872,0,0,0
"36",44,36,0.5,"stim/32.jpeg",3,2,1,NA,"Instruments",2,"stim/objects/Instruments/saxophone.png",1,"right","left",0.553999901,0,0,0
"37",44,37,0.5,"stim/33.jpeg",3,3,1,NA,"Instruments",2,"stim/objects/Instruments/speaker.png",3,"right","left",0.582999945,0,0,0
"38",44,38,0.7,"stim/62.jpeg",6,2,2,NA,"HouseObjects",1,"stim/objects/HouseObjects/safetypin2.png",4,"left","right",0.593999863,0,0,0
"39",44,39,0.5,"stim/42.jpeg",4,2,1,NA,"Instruments",2,"stim/objects/Instruments/triangle.png",2,"right","",NA,0,0,0
"40",44,40,0.5,"stim/43.jpeg",4,3,1,NA,"Instruments",2,"stim/objects/Instruments/trombone.png",3,"right","left",0.584000111,0,0,0
"41",44,41,0.7,"stim/61.jpeg",6,1,2,NA,"HouseObjects",1,"stim/objects/HouseObjects/rug2.png",1,"left","",NA,0,0,0
"42",44,42,0.5,"stim/41.jpeg",4,1,1,NA,"HouseObjects",1,"stim/objects/HouseObjects/sponge.png",3,"left","left",0.771999836,1,1,0
"43",44,43,0.9,"stim/12.jpeg",1,2,3,NA,"Instruments",2,"stim/objects/Instruments/triangle2.png",3,"right","right",0.546000004,1,1,0
"44",44,44,0.7,"stim/51.jpeg",5,1,2,NA,"Instruments",2,"stim/objects/Instruments/tuba.png",1,"right","right",0.542000055,1,1,0
"45",44,45,0.7,"stim/61.jpeg",6,1,2,NA,"HouseObjects",1,"stim/objects/HouseObjects/rug2.png",2,"left","right",0.535000086,0,0,0
"46",44,46,0.9,"stim/24.jpeg",2,4,3,NA,"HouseObjects",1,"stim/objects/HouseObjects/wateringcan2.png",2,"left","left",0.404999971,1,1,0
"47",44,47,0.9,"stim/11.jpeg",1,1,3,NA,"Instruments",2,"stim/objects/Instruments/timbal2.png",1,"right","right",0.524999857,1,1,0
"48",44,48,0.5,"stim/33.jpeg",3,3,1,NA,"Instruments",2,"stim/objects/Instruments/speaker.png",1,"right","left",0.477999926,0,0,0
"49",44,49,0.5,"stim/31.jpeg",3,1,1,NA,"Instruments",2,"stim/objects/Instruments/record_player.png",1,"right","left",0.654000044,0,0,0
"50",44,50,0.7,"stim/51.jpeg",5,1,2,NA,"Instruments",2,"stim/objects/Instruments/tuba.png",2,"right","right",0.559999943,1,1,0
"51",44,51,0.3,"stim/63.jpeg",6,3,2,NA,"Instruments",2,"stim/objects/Instruments/speaker2.png",4,"right","",NA,0,0,0
"52",44,52,0.9,"stim/21.jpeg",2,1,3,NA,"HouseObjects",1,"stim/objects/HouseObjects/thread2.png",1,"left","left",0.532000065,1,1,0
"53",44,53,0.7,"stim/53.jpeg",5,3,2,NA,"Instruments",2,"stim/objects/Instruments/vuvuzela.png",2,"right","right",0.542999983,1,1,0
"54",44,54,0.7,"stim/63.jpeg",6,3,2,NA,"HouseObjects",1,"stim/objects/HouseObjects/saw2.png",3,"left","left",0.495999813,1,1,0
"55",44,55,0.9,"stim/24.jpeg",2,4,3,NA,"HouseObjects",1,"stim/objects/HouseObjects/wateringcan2.png",2,"left","left",0.531999826,1,1,0
"56",44,56,0.5,"stim/44.jpeg",4,4,1,NA,"HouseObjects",1,"stim/objects/HouseObjects/thermometer.png",2,"left","",NA,0,0,0
"57",44,57,0.7,"stim/62.jpeg",6,2,2,NA,"HouseObjects",1,"stim/objects/HouseObjects/safetypin2.png",3,"left","left",0.774999857,1,1,0
"58",44,58,0.7,"stim/54.jpeg",5,4,2,NA,"Instruments",2,"stim/objects/Instruments/xylophone.png",3,"right","right",0.629999876,1,1,0
"59",44,59,0.9,"stim/24.jpeg",2,4,3,NA,"HouseObjects",1,"stim/objects/HouseObjects/wateringcan2.png",3,"left","left",0.628999949,1,1,0
"60",44,60,0.9,"stim/14.jpeg",1,4,3,NA,"Instruments",2,"stim/objects/Instruments/trumpet2.png",3,"right","right",0.641999722,1,1,0
"61",44,61,0.7,"stim/51.jpeg",5,1,2,NA,"Instruments",2,"stim/objects/Instruments/tuba.png",1,"right","right",0.562000036,1,1,0
"62",44,62,0.5,"stim/41.jpeg",4,1,1,NA,"HouseObjects",1,"stim/objects/HouseObjects/sponge.png",4,"left","right",0.665999889,0,0,0
"63",44,63,0.5,"stim/41.jpeg",4,1,1,NA,"HouseObjects",1,"stim/objects/HouseObjects/sponge.png",3,"left","right",0.68900013,0,0,0
"64",44,64,0.9,"stim/11.jpeg",1,1,3,NA,"Instruments",2,"stim/objects/Instruments/timbal2.png",1,"right","right",0.606999874,1,1,0
"65",44,65,0.7,"stim/52.jpeg",5,2,2,NA,"Instruments",2,"stim/objects/Instruments/violin.png",2,"right","right",0.568000078,1,1,0
"66",44,66,0.9,"stim/23.jpeg",2,3,3,NA,"HouseObjects",1,"stim/objects/HouseObjects/vacuumcleaner2.png",4,"left","left",0.700999975,1,1,0
"67",44,67,0.7,"stim/54.jpeg",5,4,2,NA,"Instruments",2,"stim/objects/Instruments/xylophone.png",1,"right","left",0.766000032,0,0,0
"68",44,68,0.9,"stim/11.jpeg",1,1,3,NA,"Instruments",2,"stim/objects/Instruments/timbal2.png",2,"right","right",0.570999861,1,1,0
"69",44,69,0.7,"stim/61.jpeg",6,1,2,NA,"HouseObjects",1,"stim/objects/HouseObjects/rug2.png",1,"left","left",0.659999847,1,1,0
"70",44,70,0.7,"stim/52.jpeg",5,2,2,NA,"Instruments",2,"stim/objects/Instruments/violin.png",3,"right","left",0.612999916,0,0,0
"71",44,71,0.5,"stim/44.jpeg",4,4,1,NA,"Instruments",2,"stim/objects/Instruments/trumpet.png",3,"right","left",0.732999802,0,0,0
"72",44,72,0.5,"stim/33.jpeg",3,3,1,NA,"Instruments",2,"stim/objects/Instruments/speaker.png",2,"right","left",0.570999861,0,0,0
"73",44,73,0.5,"stim/42.jpeg",4,2,1,NA,"Instruments",2,"stim/objects/Instruments/triangle.png",1,"right","left",0.651000023,0,0,0
"74",44,74,0.7,"stim/64.jpeg",6,4,2,NA,"HouseObjects",1,"stim/objects/HouseObjects/scale2.png",2,"left","",NA,0,0,0
"75",44,75,0.7,"stim/53.jpeg",5,3,2,NA,"Instruments",2,"stim/objects/Instruments/vuvuzela.png",4,"right","left",0.223999977,0,0,0
"76",44,76,0.7,"stim/62.jpeg",6,2,2,NA,"HouseObjects",1,"stim/objects/HouseObjects/safetypin2.png",2,"left","right",0.632999897,0,0,0
"77",44,77,0.9,"stim/24.jpeg",2,4,3,NA,"HouseObjects",1,"stim/objects/HouseObjects/wateringcan2.png",3,"left","left",0.588000059,1,1,0
"78",44,78,0.7,"stim/54.jpeg",5,4,2,NA,"Instruments",2,"stim/objects/Instruments/xylophone.png",1,"right","right",0.561000109,1,1,0
"79",44,79,0.3,"stim/54.jpeg",5,4,2,NA,"HouseObjects",1,"stim/objects/HouseObjects/wateringcan.png",3,"left","right",0.578000069,0,0,0
"80",44,80,0.7,"stim/54.jpeg",5,4,2,NA,"Instruments",2,"stim/objects/Instruments/xylophone.png",1,"right","right",0.608999729,1,1,0
"81",44,81,0.5,"stim/31.jpeg",3,1,1,NA,"HouseObjects",1,"stim/objects/HouseObjects/rug.png",2,"left","left",0.657000065,1,1,0
"82",44,82,0.3,"stim/54.jpeg",5,4,2,NA,"HouseObjects",1,"stim/objects/HouseObjects/wateringcan.png",2,"left","left",0.360999823,1,1,0
"83",44,83,0.7,"stim/51.jpeg",5,1,2,NA,"Instruments",2,"stim/objects/Instruments/tuba.png",1,"right","right",0.432999849,1,1,0
"84",44,84,0.5,"stim/44.jpeg",4,4,1,NA,"HouseObjects",1,"stim/objects/HouseObjects/thermometer.png",2,"left","left",0.700999975,1,1,0
"85",44,85,0.9,"stim/11.jpeg",1,1,3,NA,"Instruments",2,"stim/objects/Instruments/timbal2.png",4,"right","right",0.501999855,1,1,0
"86",44,86,0.7,"stim/62.jpeg",6,2,2,NA,"HouseObjects",1,"stim/objects/HouseObjects/safetypin2.png",1,"left","left",0.679999828,1,1,0
"87",44,87,0.5,"stim/42.jpeg",4,2,1,NA,"HouseObjects",1,"stim/objects/HouseObjects/spraybottle.png",4,"left","right",0.639999866,0,0,0
"88",44,88,0.9,"stim/23.jpeg",2,3,3,NA,"HouseObjects",1,"stim/objects/HouseObjects/vacuumcleaner2.png",1,"left","left",0.478999853,1,1,0
"89",44,89,0.9,"stim/13.jpeg",1,3,3,NA,"Instruments",2,"stim/objects/Instruments/trombone2.png",3,"right","left",0.45299983,0,0,0
"90",44,90,0.9,"stim/14.jpeg",1,4,3,NA,"Instruments",2,"stim/objects/Instruments/trumpet2.png",1,"right","right",0.611999989,1,1,0
"91",44,91,0.5,"stim/34.jpeg",3,4,1,NA,"Instruments",2,"stim/objects/Instruments/tambourine.png",1,"right","",NA,0,0,0
"92",44,92,0.3,"stim/54.jpeg",5,4,2,NA,"HouseObjects",1,"stim/objects/HouseObjects/wateringcan.png",2,"left","right",0.582999945,0,0,0
"93",44,93,0.5,"stim/33.jpeg",3,3,1,NA,"HouseObjects",1,"stim/objects/HouseObjects/saw.png",2,"left","left",0.505000114,1,1,0
"94",44,94,0.9,"stim/13.jpeg",1,3,3,NA,"Instruments",2,"stim/objects/Instruments/trombone2.png",4,"right","right",0.578999996,1,1,0
"95",44,95,0.9,"stim/13.jpeg",1,3,3,NA,"Instruments",2,"stim/objects/Instruments/trombone2.png",3,"right","right",0.684999943,1,1,0
"96",44,96,0.1,"stim/11.jpeg",1,1,3,NA,"HouseObjects",1,"stim/objects/HouseObjects/sponge2.png",2,"left","right",0.582999945,0,0,0
"97",44,97,0.9,"stim/24.jpeg",2,4,3,NA,"HouseObjects",1,"stim/objects/HouseObjects/wateringcan2.png",4,"left","left",0.566999912,1,1,0
"98",44,98,0.7,"stim/63.jpeg",6,3,2,NA,"HouseObjects",1,"stim/objects/HouseObjects/saw2.png",4,"left","right",0.669999838,0,0,0
"99",44,99,0.9,"stim/14.jpeg",1,4,3,NA,"Instruments",2,"stim/objects/Instruments/trumpet2.png",2,"right","right",0.555999994,1,1,0
"100",44,100,0.9,"stim/24.jpeg",2,4,3,NA,"HouseObjects",1,"stim/objects/HouseObjects/wateringcan2.png",4,"left","left",0.451999903,1,1,0
"101",44,101,0.9,"stim/24.jpeg",2,4,3,NA,"HouseObjects",1,"stim/objects/HouseObjects/wateringcan2.png",1,"left","left",0.427000046,1,1,0
"102",44,102,0.5,"stim/31.jpeg",3,1,1,NA,"Instruments",2,"stim/objects/Instruments/record_player.png",1,"right","left",0.457000017,0,0,0
"103",44,103,0.7,"stim/53.jpeg",5,3,2,NA,"Instruments",2,"stim/objects/Instruments/vuvuzela.png",4,"right","right",0.624999762,1,1,0
"104",44,104,0.7,"stim/61.jpeg",6,1,2,NA,"HouseObjects",1,"stim/objects/HouseObjects/rug2.png",2,"left","",NA,0,0,0
"105",44,105,0.3,"stim/61.jpeg",6,1,2,NA,"Instruments",2,"stim/objects/Instruments/record_player2.png",1,"right","left",0.427999735,0,0,0
"106",44,106,0.5,"stim/44.jpeg",4,4,1,NA,"Instruments",2,"stim/objects/Instruments/trumpet.png",1,"right","left",0.535000086,0,0,0
"107",44,107,0.5,"stim/44.jpeg",4,4,1,NA,"Instruments",2,"stim/objects/Instruments/trumpet.png",2,"right","right",0.65899992,1,1,0
"108",44,108,0.7,"stim/53.jpeg",5,3,2,NA,"Instruments",2,"stim/objects/Instruments/vuvuzela.png",2,"right","right",0.539000034,1,1,0
"109",44,109,0.5,"stim/41.jpeg",4,1,1,NA,"HouseObjects",1,"stim/objects/HouseObjects/sponge.png",4,"left","right",0.56799984,0,0,0
"110",44,110,0.9,"stim/23.jpeg",2,3,3,NA,"HouseObjects",1,"stim/objects/HouseObjects/vacuumcleaner2.png",3,"left","left",0.447999954,1,1,0
"111",44,111,0.9,"stim/13.jpeg",1,3,3,NA,"Instruments",2,"stim/objects/Instruments/trombone2.png",4,"right","right",0.652999878,1,1,0
"112",44,112,0.9,"stim/12.jpeg",1,2,3,NA,"Instruments",2,"stim/objects/Instruments/triangle2.png",3,"right","left",0.461999893,0,0,0
"113",44,113,0.5,"stim/33.jpeg",3,3,1,NA,"HouseObjects",1,"stim/objects/HouseObjects/saw.png",3,"left","left",0.654000044,1,1,0
"114",44,114,0.5,"stim/32.jpeg",3,2,1,NA,"HouseObjects",1,"stim/objects/HouseObjects/safetypin.png",4,"left","left",0.71999979,1,1,0
"115",44,115,0.3,"stim/62.jpeg",6,2,2,NA,"Instruments",2,"stim/objects/Instruments/saxophone2.png",4,"right","left",0.731999874,0,0,0
"116",44,116,0.7,"stim/61.jpeg",6,1,2,NA,"HouseObjects",1,"stim/objects/HouseObjects/rug2.png",3,"left","right",0.819000006,0,0,0
"117",44,117,0.3,"stim/64.jpeg",6,4,2,NA,"Instruments",2,"stim/objects/Instruments/tambourine2.png",4,"right","left",0.798000097,0,0,0
"118",44,118,0.3,"stim/53.jpeg",5,3,2,NA,"HouseObjects",1,"stim/objects/HouseObjects/vacuumcleaner.png",3,"left","right",0.566999912,0,0,0
"119",44,119,0.5,"stim/34.jpeg",3,4,1,NA,"HouseObjects",1,"stim/objects/HouseObjects/scale.png",2,"left","left",0.524999857,1,1,0
"120",44,120,0.5,"stim/44.jpeg",4,4,1,NA,"Instruments",2,"stim/objects/Instruments/trumpet.png",3,"right","left",0.595000029,0,0,0
"121",44,121,0.9,"stim/21.jpeg",2,1,3,NA,"HouseObjects",1,"stim/objects/HouseObjects/thread2.png",2,"left","left",0.636999846,1,1,0
"122",44,122,0.7,"stim/52.jpeg",5,2,2,NA,"Instruments",2,"stim/objects/Instruments/violin.png",3,"right","right",0.653000116,1,1,0
"123",44,123,0.7,"stim/63.jpeg",6,3,2,NA,"HouseObjects",1,"stim/objects/HouseObjects/saw2.png",2,"left","left",0.55099988,1,1,0
"124",44,124,0.7,"stim/64.jpeg",6,4,2,NA,"HouseObjects",1,"stim/objects/HouseObjects/scale2.png",3,"left","right",0.664999962,0,0,0
"125",44,125,0.7,"stim/53.jpeg",5,3,2,NA,"Instruments",2,"stim/objects/Instruments/vuvuzela.png",1,"right","left",0.546000004,0,0,0
"126",44,126,0.5,"stim/33.jpeg",3,3,1,NA,"HouseObjects",1,"stim/objects/HouseObjects/saw.png",1,"left","left",0.493999958,1,1,0
"127",44,127,0.9,"stim/13.jpeg",1,3,3,NA,"Instruments",2,"stim/objects/Instruments/trombone2.png",2,"right","right",0.49000001,1,1,0
"128",44,128,0.1,"stim/24.jpeg",2,4,3,NA,"Instruments",2,"stim/objects/Instruments/xylophone2.png",3,"right","left",0.517999887,0,0,0
"129",44,129,0.5,"stim/44.jpeg",4,4,1,NA,"HouseObjects",1,"stim/objects/HouseObjects/thermometer.png",1,"left","left",0.565000057,1,1,0
"130",44,130,0.3,"stim/53.jpeg",5,3,2,NA,"HouseObjects",1,"stim/objects/HouseObjects/vacuumcleaner.png",4,"left","left",0.693999767,1,1,0
"131",44,131,0.5,"stim/41.jpeg",4,1,1,NA,"Instruments",2,"stim/objects/Instruments/timbal.png",2,"right","left",0.649999857,0,0,0
"132",44,132,0.9,"stim/22.jpeg",2,2,3,NA,"HouseObjects",1,"stim/objects/HouseObjects/towel2.png",3,"left","left",0.496000051,1,1,0
"133",44,133,0.9,"stim/14.jpeg",1,4,3,NA,"Instruments",2,"stim/objects/Instruments/trumpet2.png",3,"right","right",0.586999893,1,1,0
"134",44,134,0.7,"stim/51.jpeg",5,1,2,NA,"Instruments",2,"stim/objects/Instruments/tuba.png",2,"right","right",0.56099987,1,1,0
"135",44,135,0.7,"stim/52.jpeg",5,2,2,NA,"Instruments",2,"stim/objects/Instruments/violin.png",4,"right","",NA,0,0,0
"136",44,136,0.9,"stim/14.jpeg",1,4,3,NA,"Instruments",2,"stim/objects/Instruments/trumpet2.png",4,"right","right",0.540999889,1,1,0
"137",44,137,0.9,"stim/14.jpeg",1,4,3,NA,"Instruments",2,"stim/objects/Instruments/trumpet2.png",3,"right","right",0.558000088,1,1,0
"138",44,138,0.7,"stim/52.jpeg",5,2,2,NA,"Instruments",2,"stim/objects/Instruments/violin.png",2,"right","right",0.50999999,1,1,0
"139",44,139,0.7,"stim/61.jpeg",6,1,2,NA,"HouseObjects",1,"stim/objects/HouseObjects/rug2.png",3,"left","left",0.549999952,1,1,0
"140",44,140,0.5,"stim/32.jpeg",3,2,1,NA,"HouseObjects",1,"stim/objects/HouseObjects/safetypin.png",1,"left","left",0.41899991,1,1,0
"141",44,141,0.7,"stim/53.jpeg",5,3,2,NA,"Instruments",2,"stim/objects/Instruments/vuvuzela.png",1,"right","right",0.593999863,1,1,0
"142",44,142,0.9,"stim/13.jpeg",1,3,3,NA,"Instruments",2,"stim/objects/Instruments/trombone2.png",2,"right","",NA,0,0,0
"143",44,143,0.7,"stim/52.jpeg",5,2,2,NA,"Instruments",2,"stim/objects/Instruments/violin.png",4,"right","right",0.513999939,1,1,0
"144",44,144,0.9,"stim/11.jpeg",1,1,3,NA,"Instruments",2,"stim/objects/Instruments/timbal2.png",2,"right","right",0.503999949,1,1,0
"145",44,145,0.9,"stim/21.jpeg",2,1,3,NA,"HouseObjects",1,"stim/objects/HouseObjects/thread2.png",2,"left","left",0.508000135,1,1,0
"146",44,146,0.7,"stim/53.jpeg",5,3,2,NA,"Instruments",2,"stim/objects/Instruments/vuvuzela.png",1,"right","right",0.552999973,1,1,0
"147",44,147,0.9,"stim/21.jpeg",2,1,3,NA,"HouseObjects",1,"stim/objects/HouseObjects/thread2.png",4,"left","left",0.519999981,1,1,0
"148",44,148,0.9,"stim/12.jpeg",1,2,3,NA,"Instruments",2,"stim/objects/Instruments/triangle2.png",1,"right","right",0.501999855,1,1,0
"149",44,149,0.9,"stim/22.jpeg",2,2,3,NA,"HouseObjects",1,"stim/objects/HouseObjects/towel2.png",2,"left","left",0.457999945,1,1,0
"150",44,150,0.3,"stim/64.jpeg",6,4,2,NA,"Instruments",2,"stim/objects/Instruments/tambourine2.png",1,"right","left",0.372999907,0,0,0
"151",44,151,0.5,"stim/43.jpeg",4,3,1,NA,"HouseObjects",1,"stim/objects/HouseObjects/teapot.png",4,"left","left",0.487999916,1,1,0
"152",44,152,0.5,"stim/42.jpeg",4,2,1,NA,"Instruments",2,"stim/objects/Instruments/triangle.png",2,"right","right",0.642999887,1,1,0
"153",44,153,0.1,"stim/23.jpeg",2,3,3,NA,"Instruments",2,"stim/objects/Instruments/vuvuzela2.png",2,"right","left",0.473999739,0,0,0
"154",44,154,0.7,"stim/51.jpeg",5,1,2,NA,"Instruments",2,"stim/objects/Instruments/tuba.png",2,"right","right",0.517999887,1,1,0
"155",44,155,0.9,"stim/11.jpeg",1,1,3,NA,"Instruments",2,"stim/objects/Instruments/timbal2.png",1,"right","left",0.40199995,0,0,0
"156",44,156,0.7,"stim/64.jpeg",6,4,2,NA,"HouseObjects",1,"stim/objects/HouseObjects/scale2.png",4,"left","right",0.667999983,0,0,0
"157",44,157,0.1,"stim/12.jpeg",1,2,3,NA,"HouseObjects",1,"stim/objects/HouseObjects/spraybottle2.png",3,"left","right",0.534999847,0,0,0
"158",44,158,0.5,"stim/42.jpeg",4,2,1,NA,"HouseObjects",1,"stim/objects/HouseObjects/spraybottle.png",2,"left","left",0.68599987,1,1,0
"159",44,159,0.9,"stim/23.jpeg",2,3,3,NA,"HouseObjects",1,"stim/objects/HouseObjects/vacuumcleaner2.png",1,"left","left",0.493000031,1,1,0
"160",44,160,0.5,"stim/41.jpeg",4,1,1,NA,"Instruments",2,"stim/objects/Instruments/timbal.png",4,"right","left",0.694000006,0,0,0
"161",44,161,0.3,"stim/51.jpeg",5,1,2,NA,"HouseObjects",1,"stim/objects/HouseObjects/thread.png",2,"left","right",0.486999989,0,0,0
"162",44,162,0.9,"stim/21.jpeg",2,1,3,NA,"HouseObjects",1,"stim/objects/HouseObjects/thread2.png",4,"left","left",0.520999908,1,1,0
"163",44,163,0.9,"stim/23.jpeg",2,3,3,NA,"HouseObjects",1,"stim/objects/HouseObjects/vacuumcleaner2.png",4,"left","left",0.470000029,1,1,0
"164",44,164,0.5,"stim/43.jpeg",4,3,1,NA,"Instruments",2,"stim/objects/Instruments/trombone.png",4,"right","left",0.592000008,0,0,0
"165",44,165,0.5,"stim/32.jpeg",3,2,1,NA,"HouseObjects",1,"stim/objects/HouseObjects/safetypin.png",3,"left","left",0.518999815,1,1,0
"166",44,166,0.5,"stim/32.jpeg",3,2,1,NA,"HouseObjects",1,"stim/objects/HouseObjects/safetypin.png",3,"left","",NA,0,0,0
"167",44,167,0.7,"stim/51.jpeg",5,1,2,NA,"Instruments",2,"stim/objects/Instruments/tuba.png",3,"right","right",0.562999964,1,1,0
"168",44,168,0.1,"stim/13.jpeg",1,3,3,NA,"HouseObjects",1,"stim/objects/HouseObjects/teapot2.png",1,"left","right",0.673999786,0,0,0
"169",44,169,0.9,"stim/12.jpeg",1,2,3,NA,"Instruments",2,"stim/objects/Instruments/triangle2.png",1,"right","right",0.506000042,1,1,0
"170",44,170,0.9,"stim/23.jpeg",2,3,3,NA,"HouseObjects",1,"stim/objects/HouseObjects/vacuumcleaner2.png",3,"left","left",0.383999825,1,1,0
"171",44,171,0.5,"stim/31.jpeg",3,1,1,NA,"Instruments",2,"stim/objects/Instruments/record_player.png",2,"right","left",0.56799984,0,0,0
"172",44,172,0.9,"stim/24.jpeg",2,4,3,NA,"HouseObjects",1,"stim/objects/HouseObjects/wateringcan2.png",4,"left","left",0.462999821,1,1,0
"173",44,173,0.7,"stim/63.jpeg",6,3,2,NA,"HouseObjects",1,"stim/objects/HouseObjects/saw2.png",3,"left","left",0.44299984,1,1,0
"174",44,174,0.5,"stim/42.jpeg",4,2,1,NA,"HouseObjects",1,"stim/objects/HouseObjects/spraybottle.png",4,"left","right",0.690999985,0,0,0
"175",44,175,0.5,"stim/31.jpeg",3,1,1,NA,"HouseObjects",1,"stim/objects/HouseObjects/rug.png",2,"left","left",0.46600008,1,1,0
"176",44,176,0.5,"stim/31.jpeg",3,1,1,NA,"Instruments",2,"stim/objects/Instruments/record_player.png",4,"right","left",0.375,0,0,0
"177",44,177,0.9,"stim/11.jpeg",1,1,3,NA,"Instruments",2,"stim/objects/Instruments/timbal2.png",1,"right","right",0.60800004,1,1,0
"178",44,178,0.9,"stim/22.jpeg",2,2,3,NA,"HouseObjects",1,"stim/objects/HouseObjects/towel2.png",2,"left","left",0.411999941,1,1,0
"179",44,179,0.3,"stim/62.jpeg",6,2,2,NA,"Instruments",2,"stim/objects/Instruments/saxophone2.png",3,"right","left",0.405999899,0,0,0
"180",44,180,0.5,"stim/34.jpeg",3,4,1,NA,"Instruments",2,"stim/objects/Instruments/tambourine.png",2,"right","left",0.506999969,0,0,0
"181",44,181,0.5,"stim/32.jpeg",3,2,1,NA,"HouseObjects",1,"stim/objects/HouseObjects/safetypin.png",4,"left","left",0.539999962,1,1,0
"182",44,182,0.9,"stim/12.jpeg",1,2,3,NA,"Instruments",2,"stim/objects/Instruments/triangle2.png",1,"right","right",0.481999874,1,1,0
"183",44,183,0.9,"stim/11.jpeg",1,1,3,NA,"Instruments",2,"stim/objects/Instruments/timbal2.png",1,"right","right",0.49000001,1,1,0
"184",44,184,0.7,"stim/54.jpeg",5,4,2,NA,"Instruments",2,"stim/objects/Instruments/xylophone.png",2,"right","right",0.499000072,1,1,0
"185",44,185,0.5,"stim/43.jpeg",4,3,1,NA,"HouseObjects",1,"stim/objects/HouseObjects/teapot.png",4,"left","right",0.582999945,0,0,0
"186",44,186,0.5,"stim/34.jpeg",3,4,1,NA,"HouseObjects",1,"stim/objects/HouseObjects/scale.png",4,"left","left",0.597000122,1,1,0
"187",44,187,0.9,"stim/14.jpeg",1,4,3,NA,"Instruments",2,"stim/objects/Instruments/trumpet2.png",3,"right","right",0.493999958,1,1,0
"188",44,188,0.3,"stim/51.jpeg",5,1,2,NA,"HouseObjects",1,"stim/objects/HouseObjects/thread.png",1,"left","right",0.494999886,0,0,0
"189",44,189,0.3,"stim/63.jpeg",6,3,2,NA,"Instruments",2,"stim/objects/Instruments/speaker2.png",1,"right","left",0.553999901,0,0,0
"190",44,190,0.7,"stim/62.jpeg",6,2,2,NA,"HouseObjects",1,"stim/objects/HouseObjects/safetypin2.png",2,"left","left",0.4599998,1,1,0
"191",44,191,0.5,"stim/34.jpeg",3,4,1,NA,"Instruments",2,"stim/objects/Instruments/tambourine.png",1,"right","left",0.477999926,0,0,0
"192",44,192,0.5,"stim/33.jpeg",3,3,1,NA,"Instruments",2,"stim/objects/Instruments/speaker.png",3,"right","left",0.525999784,0,0,0
"193",44,193,0.3,"stim/63.jpeg",6,3,2,NA,"Instruments",2,"stim/objects/Instruments/speaker2.png",3,"right","left",0.544999838,0,0,0
"194",44,194,0.3,"stim/52.jpeg",5,2,2,NA,"HouseObjects",1,"stim/objects/HouseObjects/towel.png",1,"left","right",0.529999971,0,0,0
"195",44,195,0.5,"stim/42.jpeg",4,2,1,NA,"HouseObjects",1,"stim/objects/HouseObjects/spraybottle.png",4,"left","left",0.595999956,1,1,0
"196",44,196,0.9,"stim/22.jpeg",2,2,3,NA,"HouseObjects",1,"stim/objects/HouseObjects/towel2.png",2,"left","left",0.579999924,1,1,0
"197",44,197,0.5,"stim/44.jpeg",4,4,1,NA,"HouseObjects",1,"stim/objects/HouseObjects/thermometer.png",3,"left","left",0.537999868,1,1,0
"198",44,198,0.9,"stim/24.jpeg",2,4,3,NA,"HouseObjects",1,"stim/objects/HouseObjects/wateringcan2.png",1,"left","left",0.522999763,1,1,0
"199",44,199,0.5,"stim/41.jpeg",4,1,1,NA,"Instruments",2,"stim/objects/Instruments/timbal.png",2,"right","left",0.438999891,0,0,0
"200",44,200,0.5,"stim/33.jpeg",3,3,1,NA,"Instruments",2,"stim/objects/Instruments/speaker.png",1,"right","left",0.403999805,0,0,0
"201",44,201,0.5,"stim/34.jpeg",3,4,1,NA,"Instruments",2,"stim/objects/Instruments/tambourine.png",4,"right","left",0.520999908,0,0,0
"202",44,202,0.9,"stim/22.jpeg",2,2,3,NA,"HouseObjects",1,"stim/objects/HouseObjects/towel2.png",3,"left","left",0.44299984,1,1,0
"203",44,203,0.9,"stim/14.jpeg",1,4,3,NA,"Instruments",2,"stim/objects/Instruments/trumpet2.png",2,"right","right",0.526000023,1,1,0
"204",44,204,0.7,"stim/64.jpeg",6,4,2,NA,"HouseObjects",1,"stim/objects/HouseObjects/scale2.png",4,"left","left",0.466999769,1,1,0
"205",44,205,0.3,"stim/52.jpeg",5,2,2,NA,"HouseObjects",1,"stim/objects/HouseObjects/towel.png",4,"left","",NA,0,0,0
"206",44,206,0.5,"stim/32.jpeg",3,2,1,NA,"Instruments",2,"stim/objects/Instruments/saxophone.png",4,"right","",NA,0,0,0
"207",44,207,0.5,"stim/32.jpeg",3,2,1,NA,"Instruments",2,"stim/objects/Instruments/saxophone.png",1,"right","left",0.403999805,0,0,0
"208",44,208,0.3,"stim/53.jpeg",5,3,2,NA,"HouseObjects",1,"stim/objects/HouseObjects/vacuumcleaner.png",3,"left","right",0.583999872,0,0,0
"209",44,209,0.5,"stim/31.jpeg",3,1,1,NA,"Instruments",2,"stim/objects/Instruments/record_player.png",1,"right","left",0.508999825,0,0,0
"210",44,210,0.3,"stim/61.jpeg",6,1,2,NA,"Instruments",2,"stim/objects/Instruments/record_player2.png",1,"right","left",0.605999947,0,0,0
"211",44,211,0.7,"stim/64.jpeg",6,4,2,NA,"HouseObjects",1,"stim/objects/HouseObjects/scale2.png",4,"left","right",0.736999989,0,0,0
"212",44,212,0.9,"stim/23.jpeg",2,3,3,NA,"HouseObjects",1,"stim/objects/HouseObjects/vacuumcleaner2.png",2,"left","left",0.48300004,1,1,0
"213",44,213,0.3,"stim/61.jpeg",6,1,2,NA,"Instruments",2,"stim/objects/Instruments/record_player2.png",3,"right","left",0.55099988,0,0,0
"214",44,214,0.9,"stim/22.jpeg",2,2,3,NA,"HouseObjects",1,"stim/objects/HouseObjects/towel2.png",4,"left","right",0.431999922,0,0,0
"215",44,215,0.7,"stim/54.jpeg",5,4,2,NA,"Instruments",2,"stim/objects/Instruments/xylophone.png",4,"right","right",0.580999851,1,1,0
"216",44,216,0.7,"stim/61.jpeg",6,1,2,NA,"HouseObjects",1,"stim/objects/HouseObjects/rug2.png",3,"left","left",0.40899992,1,1,0
"217",44,217,0.5,"stim/33.jpeg",3,3,1,NA,"HouseObjects",1,"stim/objects/HouseObjects/saw.png",1,"left","left",0.438999891,1,1,0
"218",44,218,0.5,"stim/41.jpeg",4,1,1,NA,"HouseObjects",1,"stim/objects/HouseObjects/sponge.png",2,"left","right",0.512999773,0,0,0
"219",44,219,0.5,"stim/32.jpeg",3,2,1,NA,"Instruments",2,"stim/objects/Instruments/saxophone.png",1,"right","left",0.471999884,0,0,0
"220",44,220,0.1,"stim/22.jpeg",2,2,3,NA,"Instruments",2,"stim/objects/Instruments/violin2.png",4,"right","left",0.445999861,0,0,0
"221",44,221,0.3,"stim/51.jpeg",5,1,2,NA,"HouseObjects",1,"stim/objects/HouseObjects/thread.png",4,"left","right",0.511999846,0,0,0
"222",44,222,0.9,"stim/22.jpeg",2,2,3,NA,"HouseObjects",1,"stim/objects/HouseObjects/towel2.png",1,"left","left",0.440999985,1,1,0
"223",44,223,0.9,"stim/12.jpeg",1,2,3,NA,"Instruments",2,"stim/objects/Instruments/triangle2.png",1,"right","right",0.501999855,1,1,0
"224",44,224,0.5,"stim/41.jpeg",4,1,1,NA,"Instruments",2,"stim/objects/Instruments/timbal.png",1,"right","left",0.664999723,0,0,0
"225",44,225,0.5,"stim/43.jpeg",4,3,1,NA,"HouseObjects",1,"stim/objects/HouseObjects/teapot.png",2,"left","left",0.749000072,1,1,0
"226",44,226,0.5,"stim/34.jpeg",3,4,1,NA,"HouseObjects",1,"stim/objects/HouseObjects/scale.png",3,"left","left",0.654999971,1,1,0
"227",44,227,0.5,"stim/43.jpeg",4,3,1,NA,"Instruments",2,"stim/objects/Instruments/trombone.png",4,"right","left",0.678999901,0,0,0
"228",44,228,0.7,"stim/62.jpeg",6,2,2,NA,"HouseObjects",1,"stim/objects/HouseObjects/safetypin2.png",1,"left","left",0.539999962,1,1,0
"229",44,229,0.5,"stim/31.jpeg",3,1,1,NA,"HouseObjects",1,"stim/objects/HouseObjects/rug.png",1,"left","left",0.554000139,1,1,0
"230",44,230,0.1,"stim/14.jpeg",1,4,3,NA,"HouseObjects",1,"stim/objects/HouseObjects/thermometer2.png",3,"left","right",0.490999937,0,0,0
"231",44,231,0.5,"stim/43.jpeg",4,3,1,NA,"Instruments",2,"stim/objects/Instruments/trombone.png",3,"right","left",0.612999916,0,0,0
"232",44,232,0.5,"stim/32.jpeg",3,2,1,NA,"Instruments",2,"stim/objects/Instruments/saxophone.png",3,"right","left",0.525999784,0,0,0
"233",44,233,0.5,"stim/43.jpeg",4,3,1,NA,"Instruments",2,"stim/objects/Instruments/trombone.png",4,"right","left",0.541999817,0,0,0
"234",44,234,0.5,"stim/42.jpeg",4,2,1,NA,"Instruments",2,"stim/objects/Instruments/triangle.png",1,"right","left",0.792000055,0,0,0
"235",44,235,0.9,"stim/13.jpeg",1,3,3,NA,"Instruments",2,"stim/objects/Instruments/trombone2.png",3,"right","right",0.523000002,1,1,0
"236",44,236,0.5,"stim/44.jpeg",4,4,1,NA,"Instruments",2,"stim/objects/Instruments/trumpet.png",4,"right","right",0.405999899,1,1,0
"237",44,237,0.9,"stim/23.jpeg",2,3,3,NA,"HouseObjects",1,"stim/objects/HouseObjects/vacuumcleaner2.png",4,"left","left",0.614000082,1,1,0
"238",44,238,0.7,"stim/63.jpeg",6,3,2,NA,"HouseObjects",1,"stim/objects/HouseObjects/saw2.png",4,"left","left",0.820999861,1,1,0
"239",44,239,0.7,"stim/64.jpeg",6,4,2,NA,"HouseObjects",1,"stim/objects/HouseObjects/scale2.png",4,"left","right",0.74000001,0,0,0
"240",44,240,0.9,"stim/14.jpeg",1,4,3,NA,"Instruments",2,"stim/objects/Instruments/trumpet2.png",1,"right","right",0.612999916,1,1,0
