"","obj_file","X.x","participant.x","trialN.x","trial_cond","scn_file.x","scn_cat","scn_inst","scn_condition","fillers","obj_cat","obj_cat_num","quadrant","corr_ans","key_resp_trial.keys","key_resp_trial.rt","trial_acc","trial_acc_manual","group.x","practice","X.y","participant.y","OvsN","PE_level","object_cat","scn_file.y","corr_scn_cat","corr_scn_inst","scn_file.1","corr_loc","key_resp_id.keys","key_resp_id.rt","key_resp_conf.keys","key_resp_assoc.keys","key_resp_assoc.rt","key_resp_loc.keys","key_resp_loc.rt","trialN.y","id_acc","assoc.acc","cond_assoc","loc.acc","cond_loc","group.y"
"209","stim/objects/Instruments/clarinet.png",1,30,1,0.7,"stim/31.jpeg",3,1,2,NA,"Instruments",2,4,"right","",NA,0,0,1,1,NA,NA,NA,NA,NA,NA,NA,NA,NA,NA,NA,NA,NA,NA,NA,NA,NA,NA,NA,NA,NA,NA,NA,NA
"145","stim/objects/Instruments/banjo.png",2,30,2,0.5,"stim/14.jpeg",1,4,1,NA,"Instruments",2,2,"right","left",0.965999842,0,0,1,1,NA,NA,NA,NA,NA,NA,NA,NA,NA,NA,NA,NA,NA,NA,NA,NA,NA,NA,NA,NA,NA,NA,NA,NA
"217","stim/objects/Instruments/cornet.png",3,30,3,0.7,"stim/32.jpeg",3,2,2,NA,"Instruments",2,4,"right","right",0.730000019,1,1,1,1,NA,NA,NA,NA,NA,NA,NA,NA,NA,NA,NA,NA,NA,NA,NA,NA,NA,NA,NA,NA,NA,NA,NA,NA
"13","stim/objects/HouseObjects/ballofstring.png",4,30,4,0.5,"stim/12.jpeg",1,2,1,NA,"HouseObjects",1,1,"left","left",0.871999979,1,1,1,1,NA,NA,NA,NA,NA,NA,NA,NA,NA,NA,NA,NA,NA,NA,NA,NA,NA,NA,NA,NA,NA,NA,NA,NA
"42","stim/objects/HouseObjects/basket2.png",5,30,5,0.7,"stim/44.jpeg",4,4,2,NA,"HouseObjects",1,2,"left","",NA,0,0,1,1,NA,NA,NA,NA,NA,NA,NA,NA,NA,NA,NA,NA,NA,NA,NA,NA,NA,NA,NA,NA,NA,NA,NA,NA
"100","stim/objects/HouseObjects/clothesdryingrack2.png",6,30,6,0.9,"stim/63.jpeg",6,3,3,NA,"HouseObjects",1,2,"left","left",0.950999975,1,1,1,1,NA,NA,NA,NA,NA,NA,NA,NA,NA,NA,NA,NA,NA,NA,NA,NA,NA,NA,NA,NA,NA,NA,NA,NA
"181","stim/objects/Instruments/cello.png",7,30,7,0.5,"stim/23.jpeg",2,3,1,NA,"Instruments",2,2,"right","right",0.913000107,1,1,1,1,NA,NA,NA,NA,NA,NA,NA,NA,NA,NA,NA,NA,NA,NA,NA,NA,NA,NA,NA,NA,NA,NA,NA,NA
"109","stim/objects/HouseObjects/clothespin.png",8,30,8,0.3,"stim/34.jpeg",3,4,2,NA,"HouseObjects",1,1,"left","right",0.973999977,0,0,1,1,NA,NA,NA,NA,NA,NA,NA,NA,NA,NA,NA,NA,NA,NA,NA,NA,NA,NA,NA,NA,NA,NA,NA,NA
"49","stim/objects/HouseObjects/bleachbottle.png",9,30,9,0.5,"stim/21.jpeg",2,1,1,NA,"HouseObjects",1,1,"left","",NA,0,0,1,1,NA,NA,NA,NA,NA,NA,NA,NA,NA,NA,NA,NA,NA,NA,NA,NA,NA,NA,NA,NA,NA,NA,NA,NA
"88","stim/objects/HouseObjects/clock2.png",10,30,10,0.9,"stim/62.jpeg",6,2,3,NA,"HouseObjects",1,3,"left","left",0.74000001,1,1,1,1,NA,NA,NA,NA,NA,NA,NA,NA,NA,NA,NA,NA,NA,NA,NA,NA,NA,NA,NA,NA,NA,NA,NA,NA
"101","stim/objects/HouseObjects/clothesdryingrack2.png",11,30,11,0.9,"stim/63.jpeg",6,3,3,NA,"HouseObjects",1,4,"left","left",0.868000031,1,1,1,1,NA,NA,NA,NA,NA,NA,NA,NA,NA,NA,NA,NA,NA,NA,NA,NA,NA,NA,NA,NA,NA,NA,NA,NA
"14","stim/objects/HouseObjects/ballofstring.png",12,30,12,0.5,"stim/12.jpeg",1,2,1,NA,"HouseObjects",1,4,"left","left",0.788000107,1,1,1,1,NA,NA,NA,NA,NA,NA,NA,NA,NA,NA,NA,NA,NA,NA,NA,NA,NA,NA,NA,NA,NA,NA,NA,NA
"30","stim/objects/HouseObjects/barbecuelighter2.png",13,30,13,0.7,"stim/43.jpeg",4,3,2,NA,"HouseObjects",1,2,"left","",NA,0,0,1,1,NA,NA,NA,NA,NA,NA,NA,NA,NA,NA,NA,NA,NA,NA,NA,NA,NA,NA,NA,NA,NA,NA,NA,NA
"66","stim/objects/HouseObjects/bottle2.png",14,30,14,0.1,"stim/53.jpeg",5,3,3,NA,"HouseObjects",1,2,"left","right",0.917000055,0,0,1,1,NA,NA,NA,NA,NA,NA,NA,NA,NA,NA,NA,NA,NA,NA,NA,NA,NA,NA,NA,NA,NA,NA,NA,NA
"129","stim/objects/Instruments/acousticguitar.png",15,30,15,0.5,"stim/12.jpeg",1,2,1,NA,"Instruments",2,3,"right","left",0.79399991,0,0,1,1,NA,NA,NA,NA,NA,NA,NA,NA,NA,NA,NA,NA,NA,NA,NA,NA,NA,NA,NA,NA,NA,NA,NA,NA
"43","stim/objects/HouseObjects/basket2.png",16,30,16,0.7,"stim/44.jpeg",4,4,2,NA,"HouseObjects",1,4,"left","left",0.858999968,1,1,1,1,NA,NA,NA,NA,NA,NA,NA,NA,NA,NA,NA,NA,NA,NA,NA,NA,NA,NA,NA,NA,NA,NA,NA,NA
"25","stim/objects/HouseObjects/barbecuelighter.png",17,30,17,0.5,"stim/13.jpeg",1,3,1,NA,"HouseObjects",1,3,"left","left",0.724999905,1,1,1,1,NA,NA,NA,NA,NA,NA,NA,NA,NA,NA,NA,NA,NA,NA,NA,NA,NA,NA,NA,NA,NA,NA,NA,NA
"225","stim/objects/Instruments/cymbal.png",18,30,18,0.7,"stim/33.jpeg",3,3,2,NA,"Instruments",2,1,"right","right",0.664999962,1,1,1,1,NA,NA,NA,NA,NA,NA,NA,NA,NA,NA,NA,NA,NA,NA,NA,NA,NA,NA,NA,NA,NA,NA,NA,NA
"55","stim/objects/HouseObjects/blender.png",19,30,19,0.5,"stim/22.jpeg",2,2,1,NA,"HouseObjects",1,2,"left","",NA,0,0,1,1,NA,NA,NA,NA,NA,NA,NA,NA,NA,NA,NA,NA,NA,NA,NA,NA,NA,NA,NA,NA,NA,NA,NA,NA
"85","stim/objects/HouseObjects/clock.png",20,30,20,0.3,"stim/32.jpeg",3,2,2,NA,"HouseObjects",1,2,"left","right",0.735999823,0,0,1,1,NA,NA,NA,NA,NA,NA,NA,NA,NA,NA,NA,NA,NA,NA,NA,NA,NA,NA,NA,NA,NA,NA,NA,NA
"18","stim/objects/HouseObjects/ballofstring2.png",21,30,21,0.7,"stim/42.jpeg",4,2,2,NA,"HouseObjects",1,2,"left","right",0.750999928,0,0,1,1,NA,NA,NA,NA,NA,NA,NA,NA,NA,NA,NA,NA,NA,NA,NA,NA,NA,NA,NA,NA,NA,NA,NA,NA
"186","stim/objects/Instruments/cello2.png",22,30,22,0.9,"stim/53.jpeg",5,3,3,NA,"Instruments",2,4,"right","right",0.84100008,1,1,1,1,NA,NA,NA,NA,NA,NA,NA,NA,NA,NA,NA,NA,NA,NA,NA,NA,NA,NA,NA,NA,NA,NA,NA,NA
"112","stim/objects/HouseObjects/clothespin2.png",23,30,23,0.9,"stim/64.jpeg",6,4,3,NA,"HouseObjects",1,3,"left","left",0.640000105,1,1,1,1,NA,NA,NA,NA,NA,NA,NA,NA,NA,NA,NA,NA,NA,NA,NA,NA,NA,NA,NA,NA,NA,NA,NA,NA
"1","stim/objects/HouseObjects/ashtray.png",24,30,24,0.5,"stim/11.jpeg",1,1,1,NA,"HouseObjects",1,2,"left","right",0.713999987,0,0,1,1,NA,NA,NA,NA,NA,NA,NA,NA,NA,NA,NA,NA,NA,NA,NA,NA,NA,NA,NA,NA,NA,NA,NA,NA
"113","stim/objects/HouseObjects/clothespin2.png",25,30,25,0.9,"stim/64.jpeg",6,4,3,NA,"HouseObjects",1,1,"left","left",0.740999937,1,1,1,1,NA,NA,NA,NA,NA,NA,NA,NA,NA,NA,NA,NA,NA,NA,NA,NA,NA,NA,NA,NA,NA,NA,NA,NA
"233","stim/objects/Instruments/doublebass.png",26,30,26,0.7,"stim/34.jpeg",3,4,2,NA,"Instruments",2,4,"right","right",0.782999992,1,1,1,1,NA,NA,NA,NA,NA,NA,NA,NA,NA,NA,NA,NA,NA,NA,NA,NA,NA,NA,NA,NA,NA,NA,NA,NA
"97","stim/objects/HouseObjects/clothesdryingrack.png",27,30,27,0.3,"stim/33.jpeg",3,3,2,NA,"HouseObjects",1,3,"left","right",0.786000013,0,0,1,1,NA,NA,NA,NA,NA,NA,NA,NA,NA,NA,NA,NA,NA,NA,NA,NA,NA,NA,NA,NA,NA,NA,NA,NA
"200","stim/objects/Instruments/chime2.png",28,30,28,0.9,"stim/54.jpeg",5,4,3,NA,"Instruments",2,2,"right","right",0.728999853,1,1,1,1,NA,NA,NA,NA,NA,NA,NA,NA,NA,NA,NA,NA,NA,NA,NA,NA,NA,NA,NA,NA,NA,NA,NA,NA
"19","stim/objects/HouseObjects/ballofstring2.png",29,30,29,0.7,"stim/42.jpeg",4,2,2,NA,"HouseObjects",1,4,"left","left",0.705000162,1,1,1,1,NA,NA,NA,NA,NA,NA,NA,NA,NA,NA,NA,NA,NA,NA,NA,NA,NA,NA,NA,NA,NA,NA,NA,NA
"218","stim/objects/Instruments/cornet.png",30,30,30,0.7,"stim/32.jpeg",3,2,2,NA,"Instruments",2,2,"right","right",0.694999933,1,1,1,1,NA,NA,NA,NA,NA,NA,NA,NA,NA,NA,NA,NA,NA,NA,NA,NA,NA,NA,NA,NA,NA,NA,NA,NA
"137","stim/objects/Instruments/balalaika.png",31,30,31,0.5,"stim/13.jpeg",1,3,1,NA,"Instruments",2,2,"right","left",0.779999971,0,0,1,1,NA,NA,NA,NA,NA,NA,NA,NA,NA,NA,NA,NA,NA,NA,NA,NA,NA,NA,NA,NA,NA,NA,NA,NA
"102","stim/objects/HouseObjects/clothesdryingrack2.png",32,30,32,0.9,"stim/63.jpeg",6,3,3,NA,"HouseObjects",1,4,"left","left",0.766000032,1,1,1,1,NA,NA,NA,NA,NA,NA,NA,NA,NA,NA,NA,NA,NA,NA,NA,NA,NA,NA,NA,NA,NA,NA,NA,NA
"201","stim/objects/Instruments/chime2.png",33,30,33,0.9,"stim/54.jpeg",5,4,3,NA,"Instruments",2,2,"right","right",0.671999931,1,1,1,1,NA,NA,NA,NA,NA,NA,NA,NA,NA,NA,NA,NA,NA,NA,NA,NA,NA,NA,NA,NA,NA,NA,NA,NA
"67","stim/objects/HouseObjects/broom.png",34,30,34,0.5,"stim/24.jpeg",2,4,1,NA,"HouseObjects",1,3,"left","left",0.784000158,1,1,1,1,NA,NA,NA,NA,NA,NA,NA,NA,NA,NA,NA,NA,NA,NA,NA,NA,NA,NA,NA,NA,NA,NA,NA,NA
"172","stim/objects/Instruments/bassguitar2.png",35,30,35,0.9,"stim/52.jpeg",5,2,3,NA,"Instruments",2,1,"right","right",0.786000013,1,1,1,1,NA,NA,NA,NA,NA,NA,NA,NA,NA,NA,NA,NA,NA,NA,NA,NA,NA,NA,NA,NA,NA,NA,NA,NA
"76","stim/objects/HouseObjects/bucket2.png",36,30,36,0.9,"stim/61.jpeg",6,1,3,NA,"HouseObjects",1,2,"left","left",0.773000002,1,1,1,1,NA,NA,NA,NA,NA,NA,NA,NA,NA,NA,NA,NA,NA,NA,NA,NA,NA,NA,NA,NA,NA,NA,NA,NA
"226","stim/objects/Instruments/cymbal.png",37,30,37,0.7,"stim/33.jpeg",3,3,2,NA,"Instruments",2,3,"right","right",0.789999962,1,1,1,1,NA,NA,NA,NA,NA,NA,NA,NA,NA,NA,NA,NA,NA,NA,NA,NA,NA,NA,NA,NA,NA,NA,NA,NA
"114","stim/objects/HouseObjects/clothespin2.png",38,30,38,0.9,"stim/64.jpeg",6,4,3,NA,"HouseObjects",1,4,"left","left",0.713000059,1,1,1,1,NA,NA,NA,NA,NA,NA,NA,NA,NA,NA,NA,NA,NA,NA,NA,NA,NA,NA,NA,NA,NA,NA,NA,NA
"167","stim/objects/Instruments/bassguitar.png",39,30,39,0.5,"stim/22.jpeg",2,2,1,NA,"Instruments",2,1,"right","right",0.945000172,1,1,1,1,NA,NA,NA,NA,NA,NA,NA,NA,NA,NA,NA,NA,NA,NA,NA,NA,NA,NA,NA,NA,NA,NA,NA,NA
"134","stim/objects/Instruments/acousticguitar2.png",40,30,40,0.3,"stim/42.jpeg",4,2,2,NA,"Instruments",2,3,"right","left",0.910000086,0,0,1,1,NA,NA,NA,NA,NA,NA,NA,NA,NA,NA,NA,NA,NA,NA,NA,NA,NA,NA,NA,NA,NA,NA,NA,NA
"195","stim/objects/Instruments/chime.png",41,30,41,0.5,"stim/24.jpeg",2,4,1,NA,"Instruments",2,1,"right","",NA,0,0,1,1,NA,NA,NA,NA,NA,NA,NA,NA,NA,NA,NA,NA,NA,NA,NA,NA,NA,NA,NA,NA,NA,NA,NA,NA
"77","stim/objects/HouseObjects/bucket2.png",42,30,42,0.9,"stim/61.jpeg",6,1,3,NA,"HouseObjects",1,3,"left","left",0.565999985,1,1,1,1,NA,NA,NA,NA,NA,NA,NA,NA,NA,NA,NA,NA,NA,NA,NA,NA,NA,NA,NA,NA,NA,NA,NA,NA
"6","stim/objects/HouseObjects/ashtray2.png",43,30,43,0.7,"stim/41.jpeg",4,1,2,NA,"HouseObjects",1,2,"left","left",0.828999996,1,1,1,1,NA,NA,NA,NA,NA,NA,NA,NA,NA,NA,NA,NA,NA,NA,NA,NA,NA,NA,NA,NA,NA,NA,NA,NA
"173","stim/objects/Instruments/bassguitar2.png",44,30,44,0.9,"stim/52.jpeg",5,2,3,NA,"Instruments",2,3,"right","right",0.697999954,1,1,1,1,NA,NA,NA,NA,NA,NA,NA,NA,NA,NA,NA,NA,NA,NA,NA,NA,NA,NA,NA,NA,NA,NA,NA,NA
"110","stim/objects/HouseObjects/clothespin.png",45,30,45,0.3,"stim/34.jpeg",3,4,2,NA,"HouseObjects",1,1,"left","right",0.669999838,0,0,1,1,NA,NA,NA,NA,NA,NA,NA,NA,NA,NA,NA,NA,NA,NA,NA,NA,NA,NA,NA,NA,NA,NA,NA,NA
"37","stim/objects/HouseObjects/basket.png",46,30,46,0.5,"stim/14.jpeg",1,4,1,NA,"HouseObjects",1,4,"left","left",0.611999989,1,1,1,1,NA,NA,NA,NA,NA,NA,NA,NA,NA,NA,NA,NA,NA,NA,NA,NA,NA,NA,NA,NA,NA,NA,NA,NA
"50","stim/objects/HouseObjects/bleachbottle.png",47,30,47,0.5,"stim/21.jpeg",2,1,1,NA,"HouseObjects",1,4,"left","right",0.967000008,0,0,1,1,NA,NA,NA,NA,NA,NA,NA,NA,NA,NA,NA,NA,NA,NA,NA,NA,NA,NA,NA,NA,NA,NA,NA,NA
"31","stim/objects/HouseObjects/barbecuelighter2.png",48,30,48,0.7,"stim/43.jpeg",4,3,2,NA,"HouseObjects",1,4,"left","left",0.65199995,1,1,1,1,NA,NA,NA,NA,NA,NA,NA,NA,NA,NA,NA,NA,NA,NA,NA,NA,NA,NA,NA,NA,NA,NA,NA,NA
"98","stim/objects/HouseObjects/clothesdryingrack.png",49,30,49,0.3,"stim/33.jpeg",3,3,2,NA,"HouseObjects",1,1,"left","right",0.604000092,0,0,1,1,NA,NA,NA,NA,NA,NA,NA,NA,NA,NA,NA,NA,NA,NA,NA,NA,NA,NA,NA,NA,NA,NA,NA,NA
"78","stim/objects/HouseObjects/bucket2.png",50,30,50,0.9,"stim/61.jpeg",6,1,3,NA,"HouseObjects",1,2,"left","left",0.665999889,1,1,1,1,NA,NA,NA,NA,NA,NA,NA,NA,NA,NA,NA,NA,NA,NA,NA,NA,NA,NA,NA,NA,NA,NA,NA,NA
"7","stim/objects/HouseObjects/ashtray2.png",51,30,51,0.7,"stim/41.jpeg",4,1,2,NA,"HouseObjects",1,4,"left","left",0.806999922,1,1,1,1,NA,NA,NA,NA,NA,NA,NA,NA,NA,NA,NA,NA,NA,NA,NA,NA,NA,NA,NA,NA,NA,NA,NA,NA
"158","stim/objects/Instruments/bassdrum2.png",52,30,52,0.9,"stim/51.jpeg",5,1,3,NA,"Instruments",2,1,"right","right",0.616000175,1,1,1,1,NA,NA,NA,NA,NA,NA,NA,NA,NA,NA,NA,NA,NA,NA,NA,NA,NA,NA,NA,NA,NA,NA,NA,NA
"32","stim/objects/HouseObjects/barbecuelighter2.png",53,30,53,0.7,"stim/43.jpeg",4,3,2,NA,"HouseObjects",1,4,"left","left",0.74000001,1,1,1,1,NA,NA,NA,NA,NA,NA,NA,NA,NA,NA,NA,NA,NA,NA,NA,NA,NA,NA,NA,NA,NA,NA,NA,NA
"196","stim/objects/Instruments/chime.png",54,30,54,0.5,"stim/24.jpeg",2,4,1,NA,"Instruments",2,1,"right","right",0.97300005,1,1,1,1,NA,NA,NA,NA,NA,NA,NA,NA,NA,NA,NA,NA,NA,NA,NA,NA,NA,NA,NA,NA,NA,NA,NA,NA
"210","stim/objects/Instruments/clarinet.png",55,30,55,0.7,"stim/31.jpeg",3,1,2,NA,"Instruments",2,1,"right","right",0.683999777,1,1,1,1,NA,NA,NA,NA,NA,NA,NA,NA,NA,NA,NA,NA,NA,NA,NA,NA,NA,NA,NA,NA,NA,NA,NA,NA
"121","stim/objects/Instruments/accordion.png",56,30,56,0.5,"stim/11.jpeg",1,1,1,NA,"Instruments",2,3,"right","left",0.694999933,0,0,1,1,NA,NA,NA,NA,NA,NA,NA,NA,NA,NA,NA,NA,NA,NA,NA,NA,NA,NA,NA,NA,NA,NA,NA,NA
"211","stim/objects/Instruments/clarinet.png",57,30,57,0.7,"stim/31.jpeg",3,1,2,NA,"Instruments",2,3,"right","right",0.88499999,1,1,1,1,NA,NA,NA,NA,NA,NA,NA,NA,NA,NA,NA,NA,NA,NA,NA,NA,NA,NA,NA,NA,NA,NA,NA,NA
"2","stim/objects/HouseObjects/ashtray.png",58,30,58,0.5,"stim/11.jpeg",1,1,1,NA,"HouseObjects",1,2,"left","left",0.758000135,1,1,1,1,NA,NA,NA,NA,NA,NA,NA,NA,NA,NA,NA,NA,NA,NA,NA,NA,NA,NA,NA,NA,NA,NA,NA,NA
"122","stim/objects/Instruments/accordion.png",59,30,59,0.5,"stim/11.jpeg",1,1,1,NA,"Instruments",2,2,"right","right",0.775000095,1,1,1,1,NA,NA,NA,NA,NA,NA,NA,NA,NA,NA,NA,NA,NA,NA,NA,NA,NA,NA,NA,NA,NA,NA,NA,NA
"219","stim/objects/Instruments/cornet.png",60,30,60,0.7,"stim/32.jpeg",3,2,2,NA,"Instruments",2,3,"right","right",0.822000027,1,1,1,1,NA,NA,NA,NA,NA,NA,NA,NA,NA,NA,NA,NA,NA,NA,NA,NA,NA,NA,NA,NA,NA,NA,NA,NA
"8","stim/objects/HouseObjects/ashtray2.png",61,30,61,0.7,"stim/41.jpeg",4,1,2,NA,"HouseObjects",1,2,"left","left",0.832999945,1,1,1,1,NA,NA,NA,NA,NA,NA,NA,NA,NA,NA,NA,NA,NA,NA,NA,NA,NA,NA,NA,NA,NA,NA,NA,NA
"234","stim/objects/Instruments/doublebass.png",62,30,62,0.7,"stim/34.jpeg",3,4,2,NA,"Instruments",2,3,"right","right",0.715999842,1,1,1,1,NA,NA,NA,NA,NA,NA,NA,NA,NA,NA,NA,NA,NA,NA,NA,NA,NA,NA,NA,NA,NA,NA,NA,NA
"20","stim/objects/HouseObjects/ballofstring2.png",63,30,63,0.7,"stim/42.jpeg",4,2,2,NA,"HouseObjects",1,2,"left","left",0.76699996,1,1,1,1,NA,NA,NA,NA,NA,NA,NA,NA,NA,NA,NA,NA,NA,NA,NA,NA,NA,NA,NA,NA,NA,NA,NA,NA
"187","stim/objects/Instruments/cello2.png",64,30,64,0.9,"stim/53.jpeg",5,3,3,NA,"Instruments",2,2,"right","right",0.631999969,1,1,1,1,NA,NA,NA,NA,NA,NA,NA,NA,NA,NA,NA,NA,NA,NA,NA,NA,NA,NA,NA,NA,NA,NA,NA,NA
"227","stim/objects/Instruments/cymbal.png",65,30,65,0.7,"stim/33.jpeg",3,3,2,NA,"Instruments",2,2,"right","right",0.711999893,1,1,1,1,NA,NA,NA,NA,NA,NA,NA,NA,NA,NA,NA,NA,NA,NA,NA,NA,NA,NA,NA,NA,NA,NA,NA,NA
"51","stim/objects/HouseObjects/bleachbottle.png",66,30,66,0.5,"stim/21.jpeg",2,1,1,NA,"HouseObjects",1,1,"left","right",0.792999983,0,0,1,1,NA,NA,NA,NA,NA,NA,NA,NA,NA,NA,NA,NA,NA,NA,NA,NA,NA,NA,NA,NA,NA,NA,NA,NA
"212","stim/objects/Instruments/clarinet.png",67,30,67,0.7,"stim/31.jpeg",3,1,2,NA,"Instruments",2,3,"right","right",0.746000051,1,1,1,1,NA,NA,NA,NA,NA,NA,NA,NA,NA,NA,NA,NA,NA,NA,NA,NA,NA,NA,NA,NA,NA,NA,NA,NA
"220","stim/objects/Instruments/cornet.png",68,30,68,0.7,"stim/32.jpeg",3,2,2,NA,"Instruments",2,1,"right","right",0.710999966,1,1,1,1,NA,NA,NA,NA,NA,NA,NA,NA,NA,NA,NA,NA,NA,NA,NA,NA,NA,NA,NA,NA,NA,NA,NA,NA
"168","stim/objects/Instruments/bassguitar.png",69,30,69,0.5,"stim/22.jpeg",2,2,1,NA,"Instruments",2,1,"right","left",0.64199996,0,0,1,1,NA,NA,NA,NA,NA,NA,NA,NA,NA,NA,NA,NA,NA,NA,NA,NA,NA,NA,NA,NA,NA,NA,NA,NA
"3","stim/objects/HouseObjects/ashtray.png",70,30,70,0.5,"stim/11.jpeg",1,1,1,NA,"HouseObjects",1,4,"left","right",0.757999897,0,0,1,1,NA,NA,NA,NA,NA,NA,NA,NA,NA,NA,NA,NA,NA,NA,NA,NA,NA,NA,NA,NA,NA,NA,NA,NA
"202","stim/objects/Instruments/chime2.png",71,30,71,0.9,"stim/54.jpeg",5,4,3,NA,"Instruments",2,4,"right","right",0.740999937,1,1,1,1,NA,NA,NA,NA,NA,NA,NA,NA,NA,NA,NA,NA,NA,NA,NA,NA,NA,NA,NA,NA,NA,NA,NA,NA
"188","stim/objects/Instruments/cello2.png",72,30,72,0.9,"stim/53.jpeg",5,3,3,NA,"Instruments",2,1,"right","right",0.720999956,1,1,1,1,NA,NA,NA,NA,NA,NA,NA,NA,NA,NA,NA,NA,NA,NA,NA,NA,NA,NA,NA,NA,NA,NA,NA,NA
"159","stim/objects/Instruments/bassdrum2.png",73,30,73,0.9,"stim/51.jpeg",5,1,3,NA,"Instruments",2,3,"right","right",0.677999973,1,1,1,1,NA,NA,NA,NA,NA,NA,NA,NA,NA,NA,NA,NA,NA,NA,NA,NA,NA,NA,NA,NA,NA,NA,NA,NA
"33","stim/objects/HouseObjects/barbecuelighter2.png",74,30,74,0.7,"stim/43.jpeg",4,3,2,NA,"HouseObjects",1,1,"left","left",0.628000021,1,1,1,1,NA,NA,NA,NA,NA,NA,NA,NA,NA,NA,NA,NA,NA,NA,NA,NA,NA,NA,NA,NA,NA,NA,NA,NA
"150","stim/objects/Instruments/banjo2.png",75,30,75,0.3,"stim/44.jpeg",4,4,2,NA,"Instruments",2,3,"right","left",0.711999893,0,0,1,1,NA,NA,NA,NA,NA,NA,NA,NA,NA,NA,NA,NA,NA,NA,NA,NA,NA,NA,NA,NA,NA,NA,NA,NA
"221","stim/objects/Instruments/cornet.png",76,30,76,0.7,"stim/32.jpeg",3,2,2,NA,"Instruments",2,1,"right","right",0.835000038,1,1,1,1,NA,NA,NA,NA,NA,NA,NA,NA,NA,NA,NA,NA,NA,NA,NA,NA,NA,NA,NA,NA,NA,NA,NA,NA
"203","stim/objects/Instruments/chime2.png",77,30,77,0.9,"stim/54.jpeg",5,4,3,NA,"Instruments",2,1,"right","right",0.75,1,1,1,1,NA,NA,NA,NA,NA,NA,NA,NA,NA,NA,NA,NA,NA,NA,NA,NA,NA,NA,NA,NA,NA,NA,NA,NA
"228","stim/objects/Instruments/cymbal.png",78,30,78,0.7,"stim/33.jpeg",3,3,2,NA,"Instruments",2,2,"right","right",0.697999954,1,1,1,1,NA,NA,NA,NA,NA,NA,NA,NA,NA,NA,NA,NA,NA,NA,NA,NA,NA,NA,NA,NA,NA,NA,NA,NA
"56","stim/objects/HouseObjects/blender.png",79,30,79,0.5,"stim/22.jpeg",2,2,1,NA,"HouseObjects",1,4,"left","left",0.736000061,1,1,1,1,NA,NA,NA,NA,NA,NA,NA,NA,NA,NA,NA,NA,NA,NA,NA,NA,NA,NA,NA,NA,NA,NA,NA,NA
"44","stim/objects/HouseObjects/basket2.png",80,30,80,0.7,"stim/44.jpeg",4,4,2,NA,"HouseObjects",1,3,"left","left",0.90899992,1,1,1,1,NA,NA,NA,NA,NA,NA,NA,NA,NA,NA,NA,NA,NA,NA,NA,NA,NA,NA,NA,NA,NA,NA,NA,NA
"115","stim/objects/HouseObjects/clothespin2.png",81,30,81,0.9,"stim/64.jpeg",6,4,3,NA,"HouseObjects",1,3,"left","left",0.703000069,1,1,1,1,NA,NA,NA,NA,NA,NA,NA,NA,NA,NA,NA,NA,NA,NA,NA,NA,NA,NA,NA,NA,NA,NA,NA,NA
"26","stim/objects/HouseObjects/barbecuelighter.png",82,30,82,0.5,"stim/13.jpeg",1,3,1,NA,"HouseObjects",1,4,"left","left",0.731000185,1,1,1,1,NA,NA,NA,NA,NA,NA,NA,NA,NA,NA,NA,NA,NA,NA,NA,NA,NA,NA,NA,NA,NA,NA,NA,NA
"79","stim/objects/HouseObjects/bucket2.png",83,30,83,0.9,"stim/61.jpeg",6,1,3,NA,"HouseObjects",1,1,"left","left",0.763000011,1,1,1,1,NA,NA,NA,NA,NA,NA,NA,NA,NA,NA,NA,NA,NA,NA,NA,NA,NA,NA,NA,NA,NA,NA,NA,NA
"151","stim/objects/Instruments/banjo2.png",84,30,84,0.3,"stim/44.jpeg",4,4,2,NA,"Instruments",2,4,"right","left",0.754999876,0,0,1,1,NA,NA,NA,NA,NA,NA,NA,NA,NA,NA,NA,NA,NA,NA,NA,NA,NA,NA,NA,NA,NA,NA,NA,NA
"197","stim/objects/Instruments/chime.png",85,30,85,0.5,"stim/24.jpeg",2,4,1,NA,"Instruments",2,1,"right","",NA,0,0,1,1,NA,NA,NA,NA,NA,NA,NA,NA,NA,NA,NA,NA,NA,NA,NA,NA,NA,NA,NA,NA,NA,NA,NA,NA
"9","stim/objects/HouseObjects/ashtray2.png",86,30,86,0.7,"stim/41.jpeg",4,1,2,NA,"HouseObjects",1,2,"left","left",0.764999866,1,1,1,1,NA,NA,NA,NA,NA,NA,NA,NA,NA,NA,NA,NA,NA,NA,NA,NA,NA,NA,NA,NA,NA,NA,NA,NA
"38","stim/objects/HouseObjects/basket.png",87,30,87,0.5,"stim/14.jpeg",1,4,1,NA,"HouseObjects",1,2,"left","left",0.65199995,1,1,1,1,NA,NA,NA,NA,NA,NA,NA,NA,NA,NA,NA,NA,NA,NA,NA,NA,NA,NA,NA,NA,NA,NA,NA,NA
"204","stim/objects/Instruments/chime2.png",88,30,88,0.9,"stim/54.jpeg",5,4,3,NA,"Instruments",2,3,"right","right",0.654000044,1,1,1,1,NA,NA,NA,NA,NA,NA,NA,NA,NA,NA,NA,NA,NA,NA,NA,NA,NA,NA,NA,NA,NA,NA,NA,NA
"135","stim/objects/Instruments/acousticguitar2.png",89,30,89,0.3,"stim/42.jpeg",4,2,2,NA,"Instruments",2,2,"right","left",0.724999905,0,0,1,1,NA,NA,NA,NA,NA,NA,NA,NA,NA,NA,NA,NA,NA,NA,NA,NA,NA,NA,NA,NA,NA,NA,NA,NA
"130","stim/objects/Instruments/acousticguitar.png",90,30,90,0.5,"stim/12.jpeg",1,2,1,NA,"Instruments",2,3,"right","left",0.775000095,0,0,1,1,NA,NA,NA,NA,NA,NA,NA,NA,NA,NA,NA,NA,NA,NA,NA,NA,NA,NA,NA,NA,NA,NA,NA,NA
"146","stim/objects/Instruments/banjo.png",91,30,91,0.5,"stim/14.jpeg",1,4,1,NA,"Instruments",2,3,"right","left",0.722000122,0,0,1,1,NA,NA,NA,NA,NA,NA,NA,NA,NA,NA,NA,NA,NA,NA,NA,NA,NA,NA,NA,NA,NA,NA,NA,NA
"86","stim/objects/HouseObjects/clock.png",92,30,92,0.3,"stim/32.jpeg",3,2,2,NA,"HouseObjects",1,4,"left","right",0.686000109,0,0,1,1,NA,NA,NA,NA,NA,NA,NA,NA,NA,NA,NA,NA,NA,NA,NA,NA,NA,NA,NA,NA,NA,NA,NA,NA
"21","stim/objects/HouseObjects/ballofstring2.png",93,30,93,0.7,"stim/42.jpeg",4,2,2,NA,"HouseObjects",1,4,"left","left",0.726000071,1,1,1,1,NA,NA,NA,NA,NA,NA,NA,NA,NA,NA,NA,NA,NA,NA,NA,NA,NA,NA,NA,NA,NA,NA,NA,NA
"52","stim/objects/HouseObjects/bleachbottle.png",94,30,94,0.5,"stim/21.jpeg",2,1,1,NA,"HouseObjects",1,3,"left","left",0.653000116,1,1,1,1,NA,NA,NA,NA,NA,NA,NA,NA,NA,NA,NA,NA,NA,NA,NA,NA,NA,NA,NA,NA,NA,NA,NA,NA
"57","stim/objects/HouseObjects/blender.png",95,30,95,0.5,"stim/22.jpeg",2,2,1,NA,"HouseObjects",1,3,"left","left",0.726999998,1,1,1,1,NA,NA,NA,NA,NA,NA,NA,NA,NA,NA,NA,NA,NA,NA,NA,NA,NA,NA,NA,NA,NA,NA,NA,NA
"27","stim/objects/HouseObjects/barbecuelighter.png",96,30,96,0.5,"stim/13.jpeg",1,3,1,NA,"HouseObjects",1,1,"left","left",0.759000063,1,1,1,1,NA,NA,NA,NA,NA,NA,NA,NA,NA,NA,NA,NA,NA,NA,NA,NA,NA,NA,NA,NA,NA,NA,NA,NA
"58","stim/objects/HouseObjects/blender.png",97,30,97,0.5,"stim/22.jpeg",2,2,1,NA,"HouseObjects",1,2,"left","left",0.686000109,1,1,1,1,NA,NA,NA,NA,NA,NA,NA,NA,NA,NA,NA,NA,NA,NA,NA,NA,NA,NA,NA,NA,NA,NA,NA,NA
"235","stim/objects/Instruments/doublebass.png",98,30,98,0.7,"stim/34.jpeg",3,4,2,NA,"Instruments",2,4,"right","right",0.710999966,1,1,1,1,NA,NA,NA,NA,NA,NA,NA,NA,NA,NA,NA,NA,NA,NA,NA,NA,NA,NA,NA,NA,NA,NA,NA,NA
"116","stim/objects/HouseObjects/clothespin2.png",99,30,99,0.9,"stim/64.jpeg",6,4,3,NA,"HouseObjects",1,4,"left","left",0.694000006,1,1,1,1,NA,NA,NA,NA,NA,NA,NA,NA,NA,NA,NA,NA,NA,NA,NA,NA,NA,NA,NA,NA,NA,NA,NA,NA
"45","stim/objects/HouseObjects/basket2.png",100,30,100,0.7,"stim/44.jpeg",4,4,2,NA,"HouseObjects",1,3,"left","left",0.713999987,1,1,1,1,NA,NA,NA,NA,NA,NA,NA,NA,NA,NA,NA,NA,NA,NA,NA,NA,NA,NA,NA,NA,NA,NA,NA,NA
"123","stim/objects/Instruments/accordion.png",101,30,101,0.5,"stim/11.jpeg",1,1,1,NA,"Instruments",2,3,"right","left",0.719000101,0,0,1,1,NA,NA,NA,NA,NA,NA,NA,NA,NA,NA,NA,NA,NA,NA,NA,NA,NA,NA,NA,NA,NA,NA,NA,NA
"61","stim/objects/HouseObjects/bottle.png",102,30,102,0.5,"stim/23.jpeg",2,3,1,NA,"HouseObjects",1,3,"left","left",0.74000001,1,1,1,1,NA,NA,NA,NA,NA,NA,NA,NA,NA,NA,NA,NA,NA,NA,NA,NA,NA,NA,NA,NA,NA,NA,NA,NA
"111","stim/objects/HouseObjects/clothespin.png",103,30,103,0.3,"stim/34.jpeg",3,4,2,NA,"HouseObjects",1,4,"left","right",0.680000067,0,0,1,1,NA,NA,NA,NA,NA,NA,NA,NA,NA,NA,NA,NA,NA,NA,NA,NA,NA,NA,NA,NA,NA,NA,NA,NA
"99","stim/objects/HouseObjects/clothesdryingrack.png",104,30,104,0.3,"stim/33.jpeg",3,3,2,NA,"HouseObjects",1,4,"left","right",0.666000128,0,0,1,1,NA,NA,NA,NA,NA,NA,NA,NA,NA,NA,NA,NA,NA,NA,NA,NA,NA,NA,NA,NA,NA,NA,NA,NA
"142","stim/objects/Instruments/balalaika2.png",105,30,105,0.3,"stim/43.jpeg",4,3,2,NA,"Instruments",2,2,"right","left",0.628000021,0,0,1,1,NA,NA,NA,NA,NA,NA,NA,NA,NA,NA,NA,NA,NA,NA,NA,NA,NA,NA,NA,NA,NA,NA,NA,NA
"153","stim/objects/Instruments/bassdrum.png",106,30,106,0.5,"stim/21.jpeg",2,1,1,NA,"Instruments",2,2,"right","left",0.90899992,0,0,1,1,NA,NA,NA,NA,NA,NA,NA,NA,NA,NA,NA,NA,NA,NA,NA,NA,NA,NA,NA,NA,NA,NA,NA,NA
"160","stim/objects/Instruments/bassdrum2.png",107,30,107,0.9,"stim/51.jpeg",5,1,3,NA,"Instruments",2,2,"right","right",0.70600009,1,1,1,1,NA,NA,NA,NA,NA,NA,NA,NA,NA,NA,NA,NA,NA,NA,NA,NA,NA,NA,NA,NA,NA,NA,NA,NA
"198","stim/objects/Instruments/chime.png",108,30,108,0.5,"stim/24.jpeg",2,4,1,NA,"Instruments",2,4,"right","left",0.974999905,0,0,1,1,NA,NA,NA,NA,NA,NA,NA,NA,NA,NA,NA,NA,NA,NA,NA,NA,NA,NA,NA,NA,NA,NA,NA,NA
"174","stim/objects/Instruments/bassguitar2.png",109,30,109,0.9,"stim/52.jpeg",5,2,3,NA,"Instruments",2,1,"right","right",0.753999949,1,1,1,1,NA,NA,NA,NA,NA,NA,NA,NA,NA,NA,NA,NA,NA,NA,NA,NA,NA,NA,NA,NA,NA,NA,NA,NA
"229","stim/objects/Instruments/cymbal.png",110,30,110,0.7,"stim/33.jpeg",3,3,2,NA,"Instruments",2,1,"right","right",0.743000031,1,1,1,1,NA,NA,NA,NA,NA,NA,NA,NA,NA,NA,NA,NA,NA,NA,NA,NA,NA,NA,NA,NA,NA,NA,NA,NA
"205","stim/objects/Instruments/chime2.png",111,30,111,0.9,"stim/54.jpeg",5,4,3,NA,"Instruments",2,4,"right","right",0.686000109,1,1,1,1,NA,NA,NA,NA,NA,NA,NA,NA,NA,NA,NA,NA,NA,NA,NA,NA,NA,NA,NA,NA,NA,NA,NA,NA
"39","stim/objects/HouseObjects/basket.png",112,30,112,0.5,"stim/14.jpeg",1,4,1,NA,"HouseObjects",1,4,"left","left",0.89199996,1,1,1,1,NA,NA,NA,NA,NA,NA,NA,NA,NA,NA,NA,NA,NA,NA,NA,NA,NA,NA,NA,NA,NA,NA,NA,NA
"89","stim/objects/HouseObjects/clock2.png",113,30,113,0.9,"stim/62.jpeg",6,2,3,NA,"HouseObjects",1,1,"left","left",0.717999935,1,1,1,1,NA,NA,NA,NA,NA,NA,NA,NA,NA,NA,NA,NA,NA,NA,NA,NA,NA,NA,NA,NA,NA,NA,NA,NA
"147","stim/objects/Instruments/banjo.png",114,30,114,0.5,"stim/14.jpeg",1,4,1,NA,"Instruments",2,3,"right","left",0.594000101,0,0,1,1,NA,NA,NA,NA,NA,NA,NA,NA,NA,NA,NA,NA,NA,NA,NA,NA,NA,NA,NA,NA,NA,NA,NA,NA
"117","stim/objects/HouseObjects/clothespin2.png",115,30,115,0.9,"stim/64.jpeg",6,4,3,NA,"HouseObjects",1,1,"left","left",0.746000051,1,1,1,1,NA,NA,NA,NA,NA,NA,NA,NA,NA,NA,NA,NA,NA,NA,NA,NA,NA,NA,NA,NA,NA,NA,NA,NA
"138","stim/objects/Instruments/balalaika.png",116,30,116,0.5,"stim/13.jpeg",1,3,1,NA,"Instruments",2,3,"right","left",0.716999769,0,0,1,1,NA,NA,NA,NA,NA,NA,NA,NA,NA,NA,NA,NA,NA,NA,NA,NA,NA,NA,NA,NA,NA,NA,NA,NA
"72","stim/objects/HouseObjects/broom2.png",117,30,117,0.1,"stim/54.jpeg",5,4,3,NA,"HouseObjects",1,4,"left","right",0.741999865,0,0,1,1,NA,NA,NA,NA,NA,NA,NA,NA,NA,NA,NA,NA,NA,NA,NA,NA,NA,NA,NA,NA,NA,NA,NA,NA
"139","stim/objects/Instruments/balalaika.png",118,30,118,0.5,"stim/13.jpeg",1,3,1,NA,"Instruments",2,4,"right","left",0.863999844,0,0,1,1,NA,NA,NA,NA,NA,NA,NA,NA,NA,NA,NA,NA,NA,NA,NA,NA,NA,NA,NA,NA,NA,NA,NA,NA
"62","stim/objects/HouseObjects/bottle.png",119,30,119,0.5,"stim/23.jpeg",2,3,1,NA,"HouseObjects",1,1,"left","",NA,0,0,1,1,NA,NA,NA,NA,NA,NA,NA,NA,NA,NA,NA,NA,NA,NA,NA,NA,NA,NA,NA,NA,NA,NA,NA,NA
"118","stim/objects/HouseObjects/clothespin2.png",120,30,120,0.9,"stim/64.jpeg",6,4,3,NA,"HouseObjects",1,2,"left","right",0.707000017,0,0,1,1,NA,NA,NA,NA,NA,NA,NA,NA,NA,NA,NA,NA,NA,NA,NA,NA,NA,NA,NA,NA,NA,NA,NA,NA
"80","stim/objects/HouseObjects/bucket2.png",121,30,121,0.9,"stim/61.jpeg",6,1,3,NA,"HouseObjects",1,3,"left","left",0.643999815,1,1,1,1,NA,NA,NA,NA,NA,NA,NA,NA,NA,NA,NA,NA,NA,NA,NA,NA,NA,NA,NA,NA,NA,NA,NA,NA
"169","stim/objects/Instruments/bassguitar.png",122,30,122,0.5,"stim/22.jpeg",2,2,1,NA,"Instruments",2,2,"right","left",0.954999924,0,0,1,1,NA,NA,NA,NA,NA,NA,NA,NA,NA,NA,NA,NA,NA,NA,NA,NA,NA,NA,NA,NA,NA,NA,NA,NA
"103","stim/objects/HouseObjects/clothesdryingrack2.png",123,30,123,0.9,"stim/63.jpeg",6,3,3,NA,"HouseObjects",1,2,"left","left",0.667999983,1,1,1,1,NA,NA,NA,NA,NA,NA,NA,NA,NA,NA,NA,NA,NA,NA,NA,NA,NA,NA,NA,NA,NA,NA,NA,NA
"154","stim/objects/Instruments/bassdrum.png",124,30,124,0.5,"stim/21.jpeg",2,1,1,NA,"Instruments",2,4,"right","",NA,0,0,1,1,NA,NA,NA,NA,NA,NA,NA,NA,NA,NA,NA,NA,NA,NA,NA,NA,NA,NA,NA,NA,NA,NA,NA,NA
"161","stim/objects/Instruments/bassdrum2.png",125,30,125,0.9,"stim/51.jpeg",5,1,3,NA,"Instruments",2,1,"right","right",0.736999989,1,1,1,1,NA,NA,NA,NA,NA,NA,NA,NA,NA,NA,NA,NA,NA,NA,NA,NA,NA,NA,NA,NA,NA,NA,NA,NA
"124","stim/objects/Instruments/accordion.png",126,30,126,0.5,"stim/11.jpeg",1,1,1,NA,"Instruments",2,4,"right","left",0.634000063,0,0,1,1,NA,NA,NA,NA,NA,NA,NA,NA,NA,NA,NA,NA,NA,NA,NA,NA,NA,NA,NA,NA,NA,NA,NA,NA
"175","stim/objects/Instruments/bassguitar2.png",127,30,127,0.9,"stim/52.jpeg",5,2,3,NA,"Instruments",2,1,"right","right",0.74000001,1,1,1,1,NA,NA,NA,NA,NA,NA,NA,NA,NA,NA,NA,NA,NA,NA,NA,NA,NA,NA,NA,NA,NA,NA,NA,NA
"46","stim/objects/HouseObjects/basket2.png",128,30,128,0.7,"stim/44.jpeg",4,4,2,NA,"HouseObjects",1,1,"left","left",0.745000124,1,1,1,1,NA,NA,NA,NA,NA,NA,NA,NA,NA,NA,NA,NA,NA,NA,NA,NA,NA,NA,NA,NA,NA,NA,NA,NA
"182","stim/objects/Instruments/cello.png",129,30,129,0.5,"stim/23.jpeg",2,3,1,NA,"Instruments",2,4,"right","",NA,0,0,1,1,NA,NA,NA,NA,NA,NA,NA,NA,NA,NA,NA,NA,NA,NA,NA,NA,NA,NA,NA,NA,NA,NA,NA,NA
"104","stim/objects/HouseObjects/clothesdryingrack2.png",130,30,130,0.9,"stim/63.jpeg",6,3,3,NA,"HouseObjects",1,1,"left","left",0.603000164,1,1,1,1,NA,NA,NA,NA,NA,NA,NA,NA,NA,NA,NA,NA,NA,NA,NA,NA,NA,NA,NA,NA,NA,NA,NA,NA
"232","stim/objects/Instruments/cymbal2.png",131,30,131,0.1,"stim/63.jpeg",6,3,3,NA,"Instruments",2,4,"right","left",0.580000162,0,0,1,1,NA,NA,NA,NA,NA,NA,NA,NA,NA,NA,NA,NA,NA,NA,NA,NA,NA,NA,NA,NA,NA,NA,NA,NA
"155","stim/objects/Instruments/bassdrum.png",132,30,132,0.5,"stim/21.jpeg",2,1,1,NA,"Instruments",2,1,"right","left",0.652999878,0,0,1,1,NA,NA,NA,NA,NA,NA,NA,NA,NA,NA,NA,NA,NA,NA,NA,NA,NA,NA,NA,NA,NA,NA,NA,NA
"240","stim/objects/Instruments/doublebass2.png",133,30,133,0.1,"stim/64.jpeg",6,4,3,NA,"Instruments",2,3,"right","left",0.675000191,0,0,1,1,NA,NA,NA,NA,NA,NA,NA,NA,NA,NA,NA,NA,NA,NA,NA,NA,NA,NA,NA,NA,NA,NA,NA,NA
"206","stim/objects/Instruments/chime2.png",134,30,134,0.9,"stim/54.jpeg",5,4,3,NA,"Instruments",2,3,"right","right",0.726000071,1,1,1,1,NA,NA,NA,NA,NA,NA,NA,NA,NA,NA,NA,NA,NA,NA,NA,NA,NA,NA,NA,NA,NA,NA,NA,NA
"199","stim/objects/Instruments/chime.png",135,30,135,0.5,"stim/24.jpeg",2,4,1,NA,"Instruments",2,3,"right","left",0.817000151,0,0,1,1,NA,NA,NA,NA,NA,NA,NA,NA,NA,NA,NA,NA,NA,NA,NA,NA,NA,NA,NA,NA,NA,NA,NA,NA
"90","stim/objects/HouseObjects/clock2.png",136,30,136,0.9,"stim/62.jpeg",6,2,3,NA,"HouseObjects",1,3,"left","left",0.664000034,1,1,1,1,NA,NA,NA,NA,NA,NA,NA,NA,NA,NA,NA,NA,NA,NA,NA,NA,NA,NA,NA,NA,NA,NA,NA,NA
"63","stim/objects/HouseObjects/bottle.png",137,30,137,0.5,"stim/23.jpeg",2,3,1,NA,"HouseObjects",1,1,"left","left",0.711999893,1,1,1,1,NA,NA,NA,NA,NA,NA,NA,NA,NA,NA,NA,NA,NA,NA,NA,NA,NA,NA,NA,NA,NA,NA,NA,NA
"15","stim/objects/HouseObjects/ballofstring.png",138,30,138,0.5,"stim/12.jpeg",1,2,1,NA,"HouseObjects",1,2,"left","left",0.660000086,1,1,1,1,NA,NA,NA,NA,NA,NA,NA,NA,NA,NA,NA,NA,NA,NA,NA,NA,NA,NA,NA,NA,NA,NA,NA,NA
"91","stim/objects/HouseObjects/clock2.png",139,30,139,0.9,"stim/62.jpeg",6,2,3,NA,"HouseObjects",1,4,"left","left",0.643000126,1,1,1,1,NA,NA,NA,NA,NA,NA,NA,NA,NA,NA,NA,NA,NA,NA,NA,NA,NA,NA,NA,NA,NA,NA,NA,NA
"10","stim/objects/HouseObjects/ashtray2.png",140,30,140,0.7,"stim/41.jpeg",4,1,2,NA,"HouseObjects",1,4,"left","left",0.828000069,1,1,1,1,NA,NA,NA,NA,NA,NA,NA,NA,NA,NA,NA,NA,NA,NA,NA,NA,NA,NA,NA,NA,NA,NA,NA,NA
"68","stim/objects/HouseObjects/broom.png",141,30,141,0.5,"stim/24.jpeg",2,4,1,NA,"HouseObjects",1,4,"left","right",0.887000084,0,0,1,1,NA,NA,NA,NA,NA,NA,NA,NA,NA,NA,NA,NA,NA,NA,NA,NA,NA,NA,NA,NA,NA,NA,NA,NA
"81","stim/objects/HouseObjects/bucket2.png",142,30,142,0.9,"stim/61.jpeg",6,1,3,NA,"HouseObjects",1,2,"left","left",0.643000126,1,1,1,1,NA,NA,NA,NA,NA,NA,NA,NA,NA,NA,NA,NA,NA,NA,NA,NA,NA,NA,NA,NA,NA,NA,NA,NA
"54","stim/objects/HouseObjects/bleachbottle2.png",143,30,143,0.1,"stim/51.jpeg",5,1,3,NA,"HouseObjects",1,1,"left","right",0.747000217,0,0,1,1,NA,NA,NA,NA,NA,NA,NA,NA,NA,NA,NA,NA,NA,NA,NA,NA,NA,NA,NA,NA,NA,NA,NA,NA
"148","stim/objects/Instruments/banjo.png",144,30,144,0.5,"stim/14.jpeg",1,4,1,NA,"Instruments",2,1,"right","left",0.627000093,0,0,1,1,NA,NA,NA,NA,NA,NA,NA,NA,NA,NA,NA,NA,NA,NA,NA,NA,NA,NA,NA,NA,NA,NA,NA,NA
"126","stim/objects/Instruments/accordion2.png",145,30,145,0.3,"stim/41.jpeg",4,1,2,NA,"Instruments",2,1,"right","left",0.747999907,0,0,1,1,NA,NA,NA,NA,NA,NA,NA,NA,NA,NA,NA,NA,NA,NA,NA,NA,NA,NA,NA,NA,NA,NA,NA,NA
"34","stim/objects/HouseObjects/barbecuelighter2.png",146,30,146,0.7,"stim/43.jpeg",4,3,2,NA,"HouseObjects",1,4,"left","left",0.871000051,1,1,1,1,NA,NA,NA,NA,NA,NA,NA,NA,NA,NA,NA,NA,NA,NA,NA,NA,NA,NA,NA,NA,NA,NA,NA,NA
"22","stim/objects/HouseObjects/ballofstring2.png",147,30,147,0.7,"stim/42.jpeg",4,2,2,NA,"HouseObjects",1,2,"left","left",0.690000057,1,1,1,1,NA,NA,NA,NA,NA,NA,NA,NA,NA,NA,NA,NA,NA,NA,NA,NA,NA,NA,NA,NA,NA,NA,NA,NA
"236","stim/objects/Instruments/doublebass.png",148,30,148,0.7,"stim/34.jpeg",3,4,2,NA,"Instruments",2,3,"right","right",0.727999926,1,1,1,1,NA,NA,NA,NA,NA,NA,NA,NA,NA,NA,NA,NA,NA,NA,NA,NA,NA,NA,NA,NA,NA,NA,NA,NA
"16","stim/objects/HouseObjects/ballofstring.png",149,30,149,0.5,"stim/12.jpeg",1,2,1,NA,"HouseObjects",1,2,"left","left",0.629000187,1,1,1,1,NA,NA,NA,NA,NA,NA,NA,NA,NA,NA,NA,NA,NA,NA,NA,NA,NA,NA,NA,NA,NA,NA,NA,NA
"170","stim/objects/Instruments/bassguitar.png",150,30,150,0.5,"stim/22.jpeg",2,2,1,NA,"Instruments",2,1,"right","left",0.684000015,0,0,1,1,NA,NA,NA,NA,NA,NA,NA,NA,NA,NA,NA,NA,NA,NA,NA,NA,NA,NA,NA,NA,NA,NA,NA,NA
"17","stim/objects/HouseObjects/ballofstring.png",151,30,151,0.5,"stim/12.jpeg",1,2,1,NA,"HouseObjects",1,3,"left","left",0.619999886,1,1,1,1,NA,NA,NA,NA,NA,NA,NA,NA,NA,NA,NA,NA,NA,NA,NA,NA,NA,NA,NA,NA,NA,NA,NA,NA
"105","stim/objects/HouseObjects/clothesdryingrack2.png",152,30,152,0.9,"stim/63.jpeg",6,3,3,NA,"HouseObjects",1,2,"left","left",0.756999969,1,1,1,1,NA,NA,NA,NA,NA,NA,NA,NA,NA,NA,NA,NA,NA,NA,NA,NA,NA,NA,NA,NA,NA,NA,NA,NA
"189","stim/objects/Instruments/cello2.png",153,30,153,0.9,"stim/53.jpeg",5,3,3,NA,"Instruments",2,2,"right","right",0.598999977,1,1,1,1,NA,NA,NA,NA,NA,NA,NA,NA,NA,NA,NA,NA,NA,NA,NA,NA,NA,NA,NA,NA,NA,NA,NA,NA
"222","stim/objects/Instruments/cornet.png",154,30,154,0.7,"stim/32.jpeg",3,2,2,NA,"Instruments",2,1,"right","right",0.75,1,1,1,1,NA,NA,NA,NA,NA,NA,NA,NA,NA,NA,NA,NA,NA,NA,NA,NA,NA,NA,NA,NA,NA,NA,NA,NA
"73","stim/objects/HouseObjects/bucket.png",155,30,155,0.3,"stim/31.jpeg",3,1,2,NA,"HouseObjects",1,3,"left","right",0.781000137,0,0,1,1,NA,NA,NA,NA,NA,NA,NA,NA,NA,NA,NA,NA,NA,NA,NA,NA,NA,NA,NA,NA,NA,NA,NA,NA
"35","stim/objects/HouseObjects/barbecuelighter2.png",156,30,156,0.7,"stim/43.jpeg",4,3,2,NA,"HouseObjects",1,2,"left","left",0.691999912,1,1,1,1,NA,NA,NA,NA,NA,NA,NA,NA,NA,NA,NA,NA,NA,NA,NA,NA,NA,NA,NA,NA,NA,NA,NA,NA
"127","stim/objects/Instruments/accordion2.png",157,30,157,0.3,"stim/41.jpeg",4,1,2,NA,"Instruments",2,3,"right","left",0.646000147,0,0,1,1,NA,NA,NA,NA,NA,NA,NA,NA,NA,NA,NA,NA,NA,NA,NA,NA,NA,NA,NA,NA,NA,NA,NA,NA
"131","stim/objects/Instruments/acousticguitar.png",158,30,158,0.5,"stim/12.jpeg",1,2,1,NA,"Instruments",2,2,"right","",NA,0,0,1,1,NA,NA,NA,NA,NA,NA,NA,NA,NA,NA,NA,NA,NA,NA,NA,NA,NA,NA,NA,NA,NA,NA,NA,NA
"183","stim/objects/Instruments/cello.png",159,30,159,0.5,"stim/23.jpeg",2,3,1,NA,"Instruments",2,3,"right","right",0.828000069,1,1,1,1,NA,NA,NA,NA,NA,NA,NA,NA,NA,NA,NA,NA,NA,NA,NA,NA,NA,NA,NA,NA,NA,NA,NA,NA
"92","stim/objects/HouseObjects/clock2.png",160,30,160,0.9,"stim/62.jpeg",6,2,3,NA,"HouseObjects",1,1,"left","left",0.59100008,1,1,1,1,NA,NA,NA,NA,NA,NA,NA,NA,NA,NA,NA,NA,NA,NA,NA,NA,NA,NA,NA,NA,NA,NA,NA,NA
"47","stim/objects/HouseObjects/basket2.png",161,30,161,0.7,"stim/44.jpeg",4,4,2,NA,"HouseObjects",1,3,"left","left",0.599999905,1,1,1,1,NA,NA,NA,NA,NA,NA,NA,NA,NA,NA,NA,NA,NA,NA,NA,NA,NA,NA,NA,NA,NA,NA,NA,NA
"82","stim/objects/HouseObjects/bucket2.png",162,30,162,0.9,"stim/61.jpeg",6,1,3,NA,"HouseObjects",1,4,"left","left",0.669999838,1,1,1,1,NA,NA,NA,NA,NA,NA,NA,NA,NA,NA,NA,NA,NA,NA,NA,NA,NA,NA,NA,NA,NA,NA,NA,NA
"162","stim/objects/Instruments/bassdrum2.png",163,30,163,0.9,"stim/51.jpeg",5,1,3,NA,"Instruments",2,1,"right","right",0.659000158,1,1,1,1,NA,NA,NA,NA,NA,NA,NA,NA,NA,NA,NA,NA,NA,NA,NA,NA,NA,NA,NA,NA,NA,NA,NA,NA
"106","stim/objects/HouseObjects/clothesdryingrack2.png",164,30,164,0.9,"stim/63.jpeg",6,3,3,NA,"HouseObjects",1,4,"left","left",0.806999922,1,1,1,1,NA,NA,NA,NA,NA,NA,NA,NA,NA,NA,NA,NA,NA,NA,NA,NA,NA,NA,NA,NA,NA,NA,NA,NA
"136","stim/objects/Instruments/acousticguitar2.png",165,30,165,0.3,"stim/42.jpeg",4,2,2,NA,"Instruments",2,4,"right","left",0.687000036,0,0,1,1,NA,NA,NA,NA,NA,NA,NA,NA,NA,NA,NA,NA,NA,NA,NA,NA,NA,NA,NA,NA,NA,NA,NA,NA
"69","stim/objects/HouseObjects/broom.png",166,30,166,0.5,"stim/24.jpeg",2,4,1,NA,"HouseObjects",1,4,"left","",NA,0,0,1,1,NA,NA,NA,NA,NA,NA,NA,NA,NA,NA,NA,NA,NA,NA,NA,NA,NA,NA,NA,NA,NA,NA,NA,NA
"184","stim/objects/Instruments/cello.png",167,30,167,0.5,"stim/23.jpeg",2,3,1,NA,"Instruments",2,4,"right","",NA,0,0,1,1,NA,NA,NA,NA,NA,NA,NA,NA,NA,NA,NA,NA,NA,NA,NA,NA,NA,NA,NA,NA,NA,NA,NA,NA
"207","stim/objects/Instruments/chime2.png",168,30,168,0.9,"stim/54.jpeg",5,4,3,NA,"Instruments",2,4,"right","right",0.766000032,1,1,1,1,NA,NA,NA,NA,NA,NA,NA,NA,NA,NA,NA,NA,NA,NA,NA,NA,NA,NA,NA,NA,NA,NA,NA,NA
"93","stim/objects/HouseObjects/clock2.png",169,30,169,0.9,"stim/62.jpeg",6,2,3,NA,"HouseObjects",1,2,"left","left",0.601000071,1,1,1,1,NA,NA,NA,NA,NA,NA,NA,NA,NA,NA,NA,NA,NA,NA,NA,NA,NA,NA,NA,NA,NA,NA,NA,NA
"4","stim/objects/HouseObjects/ashtray.png",170,30,170,0.5,"stim/11.jpeg",1,1,1,NA,"HouseObjects",1,2,"left","left",0.804999828,1,1,1,1,NA,NA,NA,NA,NA,NA,NA,NA,NA,NA,NA,NA,NA,NA,NA,NA,NA,NA,NA,NA,NA,NA,NA,NA
"237","stim/objects/Instruments/doublebass.png",171,30,171,0.7,"stim/34.jpeg",3,4,2,NA,"Instruments",2,1,"right","right",0.767999887,1,1,1,1,NA,NA,NA,NA,NA,NA,NA,NA,NA,NA,NA,NA,NA,NA,NA,NA,NA,NA,NA,NA,NA,NA,NA,NA
"132","stim/objects/Instruments/acousticguitar.png",172,30,172,0.5,"stim/12.jpeg",1,2,1,NA,"Instruments",2,2,"right","left",0.769999981,0,0,1,1,NA,NA,NA,NA,NA,NA,NA,NA,NA,NA,NA,NA,NA,NA,NA,NA,NA,NA,NA,NA,NA,NA,NA,NA
"5","stim/objects/HouseObjects/ashtray.png",173,30,173,0.5,"stim/11.jpeg",1,1,1,NA,"HouseObjects",1,4,"left","left",0.552000046,1,1,1,1,NA,NA,NA,NA,NA,NA,NA,NA,NA,NA,NA,NA,NA,NA,NA,NA,NA,NA,NA,NA,NA,NA,NA,NA
"119","stim/objects/HouseObjects/clothespin2.png",174,30,174,0.9,"stim/64.jpeg",6,4,3,NA,"HouseObjects",1,1,"left","left",0.592000008,1,1,1,1,NA,NA,NA,NA,NA,NA,NA,NA,NA,NA,NA,NA,NA,NA,NA,NA,NA,NA,NA,NA,NA,NA,NA,NA
"143","stim/objects/Instruments/balalaika2.png",175,30,175,0.3,"stim/43.jpeg",4,3,2,NA,"Instruments",2,1,"right","left",0.60800004,0,0,1,1,NA,NA,NA,NA,NA,NA,NA,NA,NA,NA,NA,NA,NA,NA,NA,NA,NA,NA,NA,NA,NA,NA,NA,NA
"176","stim/objects/Instruments/bassguitar2.png",176,30,176,0.9,"stim/52.jpeg",5,2,3,NA,"Instruments",2,4,"right","right",0.646000147,1,1,1,1,NA,NA,NA,NA,NA,NA,NA,NA,NA,NA,NA,NA,NA,NA,NA,NA,NA,NA,NA,NA,NA,NA,NA,NA
"107","stim/objects/HouseObjects/clothesdryingrack2.png",177,30,177,0.9,"stim/63.jpeg",6,3,3,NA,"HouseObjects",1,4,"left","left",0.603000164,1,1,1,1,NA,NA,NA,NA,NA,NA,NA,NA,NA,NA,NA,NA,NA,NA,NA,NA,NA,NA,NA,NA,NA,NA,NA,NA
"190","stim/objects/Instruments/cello2.png",178,30,178,0.9,"stim/53.jpeg",5,3,3,NA,"Instruments",2,1,"right","right",0.671999931,1,1,1,1,NA,NA,NA,NA,NA,NA,NA,NA,NA,NA,NA,NA,NA,NA,NA,NA,NA,NA,NA,NA,NA,NA,NA,NA
"171","stim/objects/Instruments/bassguitar.png",179,30,179,0.5,"stim/22.jpeg",2,2,1,NA,"Instruments",2,1,"right","left",0.750999928,0,0,1,1,NA,NA,NA,NA,NA,NA,NA,NA,NA,NA,NA,NA,NA,NA,NA,NA,NA,NA,NA,NA,NA,NA,NA,NA
"163","stim/objects/Instruments/bassdrum2.png",180,30,180,0.9,"stim/51.jpeg",5,1,3,NA,"Instruments",2,4,"right","right",0.67599988,1,1,1,1,NA,NA,NA,NA,NA,NA,NA,NA,NA,NA,NA,NA,NA,NA,NA,NA,NA,NA,NA,NA,NA,NA,NA,NA
"94","stim/objects/HouseObjects/clock2.png",181,30,181,0.9,"stim/62.jpeg",6,2,3,NA,"HouseObjects",1,3,"left","left",0.598999977,1,1,1,1,NA,NA,NA,NA,NA,NA,NA,NA,NA,NA,NA,NA,NA,NA,NA,NA,NA,NA,NA,NA,NA,NA,NA,NA
"120","stim/objects/HouseObjects/clothespin2.png",182,30,182,0.9,"stim/64.jpeg",6,4,3,NA,"HouseObjects",1,3,"left","left",0.578999996,1,1,1,1,NA,NA,NA,NA,NA,NA,NA,NA,NA,NA,NA,NA,NA,NA,NA,NA,NA,NA,NA,NA,NA,NA,NA,NA
"185","stim/objects/Instruments/cello.png",183,30,183,0.5,"stim/23.jpeg",2,3,1,NA,"Instruments",2,4,"right","right",0.806999922,1,1,1,1,NA,NA,NA,NA,NA,NA,NA,NA,NA,NA,NA,NA,NA,NA,NA,NA,NA,NA,NA,NA,NA,NA,NA,NA
"191","stim/objects/Instruments/cello2.png",184,30,184,0.9,"stim/53.jpeg",5,3,3,NA,"Instruments",2,3,"right","right",0.799999952,1,1,1,1,NA,NA,NA,NA,NA,NA,NA,NA,NA,NA,NA,NA,NA,NA,NA,NA,NA,NA,NA,NA,NA,NA,NA,NA
"70","stim/objects/HouseObjects/broom.png",185,30,185,0.5,"stim/24.jpeg",2,4,1,NA,"HouseObjects",1,2,"left","right",0.814999819,0,0,1,1,NA,NA,NA,NA,NA,NA,NA,NA,NA,NA,NA,NA,NA,NA,NA,NA,NA,NA,NA,NA,NA,NA,NA,NA
"133","stim/objects/Instruments/acousticguitar.png",186,30,186,0.5,"stim/12.jpeg",1,2,1,NA,"Instruments",2,4,"right","left",0.640000105,0,0,1,1,NA,NA,NA,NA,NA,NA,NA,NA,NA,NA,NA,NA,NA,NA,NA,NA,NA,NA,NA,NA,NA,NA,NA,NA
"213","stim/objects/Instruments/clarinet.png",187,30,187,0.7,"stim/31.jpeg",3,1,2,NA,"Instruments",2,4,"right","right",0.687000036,1,1,1,1,NA,NA,NA,NA,NA,NA,NA,NA,NA,NA,NA,NA,NA,NA,NA,NA,NA,NA,NA,NA,NA,NA,NA,NA
"156","stim/objects/Instruments/bassdrum.png",188,30,188,0.5,"stim/21.jpeg",2,1,1,NA,"Instruments",2,1,"right","left",0.694000006,0,0,1,1,NA,NA,NA,NA,NA,NA,NA,NA,NA,NA,NA,NA,NA,NA,NA,NA,NA,NA,NA,NA,NA,NA,NA,NA
"177","stim/objects/Instruments/bassguitar2.png",189,30,189,0.9,"stim/52.jpeg",5,2,3,NA,"Instruments",2,3,"right","right",0.794999838,1,1,1,1,NA,NA,NA,NA,NA,NA,NA,NA,NA,NA,NA,NA,NA,NA,NA,NA,NA,NA,NA,NA,NA,NA,NA,NA
"230","stim/objects/Instruments/cymbal.png",190,30,190,0.7,"stim/33.jpeg",3,3,2,NA,"Instruments",2,1,"right","right",0.758000135,1,1,1,1,NA,NA,NA,NA,NA,NA,NA,NA,NA,NA,NA,NA,NA,NA,NA,NA,NA,NA,NA,NA,NA,NA,NA,NA
"23","stim/objects/HouseObjects/ballofstring2.png",191,30,191,0.7,"stim/42.jpeg",4,2,2,NA,"HouseObjects",1,3,"left","left",0.638000011,1,1,1,1,NA,NA,NA,NA,NA,NA,NA,NA,NA,NA,NA,NA,NA,NA,NA,NA,NA,NA,NA,NA,NA,NA,NA,NA
"140","stim/objects/Instruments/balalaika.png",192,30,192,0.5,"stim/13.jpeg",1,3,1,NA,"Instruments",2,4,"right","left",0.779000044,0,0,1,1,NA,NA,NA,NA,NA,NA,NA,NA,NA,NA,NA,NA,NA,NA,NA,NA,NA,NA,NA,NA,NA,NA,NA,NA
"152","stim/objects/Instruments/banjo2.png",193,30,193,0.3,"stim/44.jpeg",4,4,2,NA,"Instruments",2,1,"right","left",0.549999952,0,0,1,1,NA,NA,NA,NA,NA,NA,NA,NA,NA,NA,NA,NA,NA,NA,NA,NA,NA,NA,NA,NA,NA,NA,NA,NA
"238","stim/objects/Instruments/doublebass.png",194,30,194,0.7,"stim/34.jpeg",3,4,2,NA,"Instruments",2,4,"right","right",0.680000067,1,1,1,1,NA,NA,NA,NA,NA,NA,NA,NA,NA,NA,NA,NA,NA,NA,NA,NA,NA,NA,NA,NA,NA,NA,NA,NA
"223","stim/objects/Instruments/cornet.png",195,30,195,0.7,"stim/32.jpeg",3,2,2,NA,"Instruments",2,2,"right","right",0.717000008,1,1,1,1,NA,NA,NA,NA,NA,NA,NA,NA,NA,NA,NA,NA,NA,NA,NA,NA,NA,NA,NA,NA,NA,NA,NA,NA
"40","stim/objects/HouseObjects/basket.png",196,30,196,0.5,"stim/14.jpeg",1,4,1,NA,"HouseObjects",1,3,"left","left",0.653000116,1,1,1,1,NA,NA,NA,NA,NA,NA,NA,NA,NA,NA,NA,NA,NA,NA,NA,NA,NA,NA,NA,NA,NA,NA,NA,NA
"192","stim/objects/Instruments/cello2.png",197,30,197,0.9,"stim/53.jpeg",5,3,3,NA,"Instruments",2,2,"right","right",0.690000057,1,1,1,1,NA,NA,NA,NA,NA,NA,NA,NA,NA,NA,NA,NA,NA,NA,NA,NA,NA,NA,NA,NA,NA,NA,NA,NA
"231","stim/objects/Instruments/cymbal.png",198,30,198,0.7,"stim/33.jpeg",3,3,2,NA,"Instruments",2,3,"right","right",0.720000029,1,1,1,1,NA,NA,NA,NA,NA,NA,NA,NA,NA,NA,NA,NA,NA,NA,NA,NA,NA,NA,NA,NA,NA,NA,NA,NA
"24","stim/objects/HouseObjects/ballofstring2.png",199,30,199,0.7,"stim/42.jpeg",4,2,2,NA,"HouseObjects",1,3,"left","left",0.667999983,1,1,1,1,NA,NA,NA,NA,NA,NA,NA,NA,NA,NA,NA,NA,NA,NA,NA,NA,NA,NA,NA,NA,NA,NA,NA,NA
"41","stim/objects/HouseObjects/basket.png",200,30,200,0.5,"stim/14.jpeg",1,4,1,NA,"HouseObjects",1,3,"left","left",0.679000139,1,1,1,1,NA,NA,NA,NA,NA,NA,NA,NA,NA,NA,NA,NA,NA,NA,NA,NA,NA,NA,NA,NA,NA,NA,NA,NA
"71","stim/objects/HouseObjects/broom.png",201,30,201,0.5,"stim/24.jpeg",2,4,1,NA,"HouseObjects",1,4,"left","left",0.719000101,1,1,1,1,NA,NA,NA,NA,NA,NA,NA,NA,NA,NA,NA,NA,NA,NA,NA,NA,NA,NA,NA,NA,NA,NA,NA,NA
"164","stim/objects/Instruments/bassdrum2.png",202,30,202,0.9,"stim/51.jpeg",5,1,3,NA,"Instruments",2,4,"right","right",0.73300004,1,1,1,1,NA,NA,NA,NA,NA,NA,NA,NA,NA,NA,NA,NA,NA,NA,NA,NA,NA,NA,NA,NA,NA,NA,NA,NA
"108","stim/objects/HouseObjects/clothesdryingrack2.png",203,30,203,0.9,"stim/63.jpeg",6,3,3,NA,"HouseObjects",1,3,"left","left",0.689999819,1,1,1,1,NA,NA,NA,NA,NA,NA,NA,NA,NA,NA,NA,NA,NA,NA,NA,NA,NA,NA,NA,NA,NA,NA,NA,NA
"87","stim/objects/HouseObjects/clock.png",204,30,204,0.3,"stim/32.jpeg",3,2,2,NA,"HouseObjects",1,3,"left","right",0.752000093,0,0,1,1,NA,NA,NA,NA,NA,NA,NA,NA,NA,NA,NA,NA,NA,NA,NA,NA,NA,NA,NA,NA,NA,NA,NA,NA
"48","stim/objects/HouseObjects/basket2.png",205,30,205,0.7,"stim/44.jpeg",4,4,2,NA,"HouseObjects",1,1,"left","left",0.677999973,1,1,1,1,NA,NA,NA,NA,NA,NA,NA,NA,NA,NA,NA,NA,NA,NA,NA,NA,NA,NA,NA,NA,NA,NA,NA,NA
"208","stim/objects/Instruments/chime2.png",206,30,206,0.9,"stim/54.jpeg",5,4,3,NA,"Instruments",2,2,"right","right",0.723999977,1,1,1,1,NA,NA,NA,NA,NA,NA,NA,NA,NA,NA,NA,NA,NA,NA,NA,NA,NA,NA,NA,NA,NA,NA,NA,NA
"216","stim/objects/Instruments/clarinet2.png",207,30,207,0.1,"stim/61.jpeg",6,1,3,NA,"Instruments",2,4,"right","left",0.602999926,0,0,1,1,NA,NA,NA,NA,NA,NA,NA,NA,NA,NA,NA,NA,NA,NA,NA,NA,NA,NA,NA,NA,NA,NA,NA,NA
"95","stim/objects/HouseObjects/clock2.png",208,30,208,0.9,"stim/62.jpeg",6,2,3,NA,"HouseObjects",1,4,"left","left",0.727999926,1,1,1,1,NA,NA,NA,NA,NA,NA,NA,NA,NA,NA,NA,NA,NA,NA,NA,NA,NA,NA,NA,NA,NA,NA,NA,NA
"74","stim/objects/HouseObjects/bucket.png",209,30,209,0.3,"stim/31.jpeg",3,1,2,NA,"HouseObjects",1,1,"left","right",0.753000021,0,0,1,1,NA,NA,NA,NA,NA,NA,NA,NA,NA,NA,NA,NA,NA,NA,NA,NA,NA,NA,NA,NA,NA,NA,NA,NA
"214","stim/objects/Instruments/clarinet.png",210,30,210,0.7,"stim/31.jpeg",3,1,2,NA,"Instruments",2,1,"right","right",0.662999868,1,1,1,1,NA,NA,NA,NA,NA,NA,NA,NA,NA,NA,NA,NA,NA,NA,NA,NA,NA,NA,NA,NA,NA,NA,NA,NA
"178","stim/objects/Instruments/bassguitar2.png",211,30,211,0.9,"stim/52.jpeg",5,2,3,NA,"Instruments",2,3,"right","right",0.701999903,1,1,1,1,NA,NA,NA,NA,NA,NA,NA,NA,NA,NA,NA,NA,NA,NA,NA,NA,NA,NA,NA,NA,NA,NA,NA,NA
"36","stim/objects/HouseObjects/barbecuelighter2.png",212,30,212,0.7,"stim/43.jpeg",4,3,2,NA,"HouseObjects",1,2,"left","left",0.844000101,1,1,1,1,NA,NA,NA,NA,NA,NA,NA,NA,NA,NA,NA,NA,NA,NA,NA,NA,NA,NA,NA,NA,NA,NA,NA,NA
"165","stim/objects/Instruments/bassdrum2.png",213,30,213,0.9,"stim/51.jpeg",5,1,3,NA,"Instruments",2,1,"right","right",0.678000212,1,1,1,1,NA,NA,NA,NA,NA,NA,NA,NA,NA,NA,NA,NA,NA,NA,NA,NA,NA,NA,NA,NA,NA,NA,NA,NA
"64","stim/objects/HouseObjects/bottle.png",214,30,214,0.5,"stim/23.jpeg",2,3,1,NA,"HouseObjects",1,1,"left","left",0.752000093,1,1,1,1,NA,NA,NA,NA,NA,NA,NA,NA,NA,NA,NA,NA,NA,NA,NA,NA,NA,NA,NA,NA,NA,NA,NA,NA
"128","stim/objects/Instruments/accordion2.png",215,30,215,0.3,"stim/41.jpeg",4,1,2,NA,"Instruments",2,2,"right","left",0.72300005,0,0,1,1,NA,NA,NA,NA,NA,NA,NA,NA,NA,NA,NA,NA,NA,NA,NA,NA,NA,NA,NA,NA,NA,NA,NA,NA
"75","stim/objects/HouseObjects/bucket.png",216,30,216,0.3,"stim/31.jpeg",3,1,2,NA,"HouseObjects",1,2,"left","right",0.705000162,0,0,1,1,NA,NA,NA,NA,NA,NA,NA,NA,NA,NA,NA,NA,NA,NA,NA,NA,NA,NA,NA,NA,NA,NA,NA,NA
"11","stim/objects/HouseObjects/ashtray2.png",217,30,217,0.7,"stim/41.jpeg",4,1,2,NA,"HouseObjects",1,2,"left","left",0.702000141,1,1,1,1,NA,NA,NA,NA,NA,NA,NA,NA,NA,NA,NA,NA,NA,NA,NA,NA,NA,NA,NA,NA,NA,NA,NA,NA
"83","stim/objects/HouseObjects/bucket2.png",218,30,218,0.9,"stim/61.jpeg",6,1,3,NA,"HouseObjects",1,2,"left","left",0.586999893,1,1,1,1,NA,NA,NA,NA,NA,NA,NA,NA,NA,NA,NA,NA,NA,NA,NA,NA,NA,NA,NA,NA,NA,NA,NA,NA
"84","stim/objects/HouseObjects/bucket2.png",219,30,219,0.9,"stim/61.jpeg",6,1,3,NA,"HouseObjects",1,2,"left","left",0.690000057,1,1,1,1,NA,NA,NA,NA,NA,NA,NA,NA,NA,NA,NA,NA,NA,NA,NA,NA,NA,NA,NA,NA,NA,NA,NA,NA
"60","stim/objects/HouseObjects/blender2.png",220,30,220,0.1,"stim/52.jpeg",5,2,3,NA,"HouseObjects",1,3,"left","right",0.654999971,0,0,1,1,NA,NA,NA,NA,NA,NA,NA,NA,NA,NA,NA,NA,NA,NA,NA,NA,NA,NA,NA,NA,NA,NA,NA,NA
"193","stim/objects/Instruments/cello2.png",221,30,221,0.9,"stim/53.jpeg",5,3,3,NA,"Instruments",2,2,"right","right",0.724999905,1,1,1,1,NA,NA,NA,NA,NA,NA,NA,NA,NA,NA,NA,NA,NA,NA,NA,NA,NA,NA,NA,NA,NA,NA,NA,NA
"59","stim/objects/HouseObjects/blender.png",222,30,222,0.5,"stim/22.jpeg",2,2,1,NA,"HouseObjects",1,3,"left","left",0.753000021,1,1,1,1,NA,NA,NA,NA,NA,NA,NA,NA,NA,NA,NA,NA,NA,NA,NA,NA,NA,NA,NA,NA,NA,NA,NA,NA
"141","stim/objects/Instruments/balalaika.png",223,30,223,0.5,"stim/13.jpeg",1,3,1,NA,"Instruments",2,2,"right","left",0.700999975,0,0,1,1,NA,NA,NA,NA,NA,NA,NA,NA,NA,NA,NA,NA,NA,NA,NA,NA,NA,NA,NA,NA,NA,NA,NA,NA
"96","stim/objects/HouseObjects/clock2.png",224,30,224,0.9,"stim/62.jpeg",6,2,3,NA,"HouseObjects",1,4,"left","left",0.723999977,1,1,1,1,NA,NA,NA,NA,NA,NA,NA,NA,NA,NA,NA,NA,NA,NA,NA,NA,NA,NA,NA,NA,NA,NA,NA,NA
"144","stim/objects/Instruments/balalaika2.png",225,30,225,0.3,"stim/43.jpeg",4,3,2,NA,"Instruments",2,3,"right","left",0.611999989,0,0,1,1,NA,NA,NA,NA,NA,NA,NA,NA,NA,NA,NA,NA,NA,NA,NA,NA,NA,NA,NA,NA,NA,NA,NA,NA
"53","stim/objects/HouseObjects/bleachbottle.png",226,30,226,0.5,"stim/21.jpeg",2,1,1,NA,"HouseObjects",1,1,"left","left",0.627000093,1,1,1,1,NA,NA,NA,NA,NA,NA,NA,NA,NA,NA,NA,NA,NA,NA,NA,NA,NA,NA,NA,NA,NA,NA,NA,NA
"215","stim/objects/Instruments/clarinet.png",227,30,227,0.7,"stim/31.jpeg",3,1,2,NA,"Instruments",2,1,"right","right",0.809000015,1,1,1,1,NA,NA,NA,NA,NA,NA,NA,NA,NA,NA,NA,NA,NA,NA,NA,NA,NA,NA,NA,NA,NA,NA,NA,NA
"125","stim/objects/Instruments/accordion.png",228,30,228,0.5,"stim/11.jpeg",1,1,1,NA,"Instruments",2,3,"right","left",0.703999996,0,0,1,1,NA,NA,NA,NA,NA,NA,NA,NA,NA,NA,NA,NA,NA,NA,NA,NA,NA,NA,NA,NA,NA,NA,NA,NA
"194","stim/objects/Instruments/cello2.png",229,30,229,0.9,"stim/53.jpeg",5,3,3,NA,"Instruments",2,1,"right","right",0.782000065,1,1,1,1,NA,NA,NA,NA,NA,NA,NA,NA,NA,NA,NA,NA,NA,NA,NA,NA,NA,NA,NA,NA,NA,NA,NA,NA
"65","stim/objects/HouseObjects/bottle.png",230,30,230,0.5,"stim/23.jpeg",2,3,1,NA,"HouseObjects",1,2,"left","left",0.74000001,1,1,1,1,NA,NA,NA,NA,NA,NA,NA,NA,NA,NA,NA,NA,NA,NA,NA,NA,NA,NA,NA,NA,NA,NA,NA,NA
"166","stim/objects/Instruments/bassdrum2.png",231,30,231,0.9,"stim/51.jpeg",5,1,3,NA,"Instruments",2,3,"right","right",0.683000088,1,1,1,1,NA,NA,NA,NA,NA,NA,NA,NA,NA,NA,NA,NA,NA,NA,NA,NA,NA,NA,NA,NA,NA,NA,NA,NA
"224","stim/objects/Instruments/cornet2.png",232,30,232,0.1,"stim/62.jpeg",6,2,3,NA,"Instruments",2,1,"right","left",0.651000023,0,0,1,1,NA,NA,NA,NA,NA,NA,NA,NA,NA,NA,NA,NA,NA,NA,NA,NA,NA,NA,NA,NA,NA,NA,NA,NA
"157","stim/objects/Instruments/bassdrum.png",233,30,233,0.5,"stim/21.jpeg",2,1,1,NA,"Instruments",2,2,"right","right",0.718999863,1,1,1,1,NA,NA,NA,NA,NA,NA,NA,NA,NA,NA,NA,NA,NA,NA,NA,NA,NA,NA,NA,NA,NA,NA,NA,NA
"28","stim/objects/HouseObjects/barbecuelighter.png",234,30,234,0.5,"stim/13.jpeg",1,3,1,NA,"HouseObjects",1,1,"left","left",0.622999907,1,1,1,1,NA,NA,NA,NA,NA,NA,NA,NA,NA,NA,NA,NA,NA,NA,NA,NA,NA,NA,NA,NA,NA,NA,NA,NA
"179","stim/objects/Instruments/bassguitar2.png",235,30,235,0.9,"stim/52.jpeg",5,2,3,NA,"Instruments",2,2,"right","right",0.703000069,1,1,1,1,NA,NA,NA,NA,NA,NA,NA,NA,NA,NA,NA,NA,NA,NA,NA,NA,NA,NA,NA,NA,NA,NA,NA,NA
"180","stim/objects/Instruments/bassguitar2.png",236,30,236,0.9,"stim/52.jpeg",5,2,3,NA,"Instruments",2,3,"right","right",0.815000057,1,1,1,1,NA,NA,NA,NA,NA,NA,NA,NA,NA,NA,NA,NA,NA,NA,NA,NA,NA,NA,NA,NA,NA,NA,NA,NA
"29","stim/objects/HouseObjects/barbecuelighter.png",237,30,237,0.5,"stim/13.jpeg",1,3,1,NA,"HouseObjects",1,3,"left","left",0.77699995,1,1,1,1,NA,NA,NA,NA,NA,NA,NA,NA,NA,NA,NA,NA,NA,NA,NA,NA,NA,NA,NA,NA,NA,NA,NA,NA
"239","stim/objects/Instruments/doublebass.png",238,30,238,0.7,"stim/34.jpeg",3,4,2,NA,"Instruments",2,3,"right","right",0.71600008,1,1,1,1,NA,NA,NA,NA,NA,NA,NA,NA,NA,NA,NA,NA,NA,NA,NA,NA,NA,NA,NA,NA,NA,NA,NA,NA
"149","stim/objects/Instruments/banjo.png",239,30,239,0.5,"stim/14.jpeg",1,4,1,NA,"Instruments",2,1,"right","left",0.720999956,0,0,1,1,NA,NA,NA,NA,NA,NA,NA,NA,NA,NA,NA,NA,NA,NA,NA,NA,NA,NA,NA,NA,NA,NA,NA,NA
"12","stim/objects/HouseObjects/ashtray2.png",240,30,240,0.7,"stim/41.jpeg",4,1,2,NA,"HouseObjects",1,4,"left","left",0.701999903,1,1,1,1,NA,NA,NA,NA,NA,NA,NA,NA,NA,NA,NA,NA,NA,NA,NA,NA,NA,NA,NA,NA,NA,NA,NA,NA
"550","stim/objects/Instruments/saxophone2.png",248,30,241,0.9,"stim/54.jpeg",5,4,3,1,"Instruments",2,1,"right","",NA,0,0,1,0,147,30,1,0.9,2,"stim/54.jpeg",5,4,"stim/54.jpeg",1,"right",1.452000141,2,3,3.037000179,2,2.552000046,147,0,0,NA,0,NA,1
"376","stim/objects/HouseObjects/recyclingbin.png",249,30,242,0.5,"stim/13.jpeg",1,3,1,1,"HouseObjects",1,4,"left","left",0.846000195,1,1,1,0,35,30,1,0.5,1,"stim/13.jpeg",1,3,"stim/13.jpeg",4,"left",1.18900013,4,1,3.122000217,4,2.126000166,35,1,0,0,1,1,1
"561","stim/objects/Instruments/trumpet.png",250,30,243,0.7,"stim/32.jpeg",3,2,2,1,"Instruments",2,2,"right","right",0.71999979,1,1,1,0,42,30,1,0.7,2,"stim/32.jpeg",3,2,"stim/32.jpeg",2,"left",1.319000006,3,1,3.38100028,4,2.195000172,42,1,0,0,0,0,1
"275","stim/objects/HouseObjects/handvacuum.png",251,30,244,0.7,"stim/43.jpeg",4,3,2,2,"HouseObjects",1,4,"left","left",0.724999905,1,1,1,0,NA,NA,NA,NA,NA,NA,NA,NA,NA,NA,NA,NA,NA,NA,NA,NA,NA,NA,NA,NA,NA,NA,NA,NA
"567","stim/objects/Instruments/vuvuzela.png",252,30,245,0.7,"stim/31.jpeg",3,1,2,1,"Instruments",2,3,"right","right",0.851000071,1,1,1,0,90,30,1,0.7,2,"stim/31.jpeg",3,1,"stim/31.jpeg",3,"right",2.220000267,2,3,4.276000261,2,2.06400013,90,0,0,NA,0,NA,1
"436","stim/objects/Instruments/harp.png",253,30,246,0.7,"stim/34.jpeg",3,4,2,2,"Instruments",2,2,"right","right",0.627000093,1,1,1,0,NA,NA,NA,NA,NA,NA,NA,NA,NA,NA,NA,NA,NA,NA,NA,NA,NA,NA,NA,NA,NA,NA,NA,NA
"564","stim/objects/Instruments/tuba2.png",254,30,247,0.1,"stim/61.jpeg",6,1,3,1,"Instruments",2,2,"right","left",0.692000151,0,0,1,0,17,30,1,0.1,2,"stim/61.jpeg",6,1,"stim/61.jpeg",2,"right",2.154000282,2,4,3.733999968,2,2.070000172,17,0,0,NA,1,NA,1
"456","stim/objects/Instruments/marimba.png",255,30,248,0.9,"stim/53.jpeg",5,3,3,2,"Instruments",2,1,"right","right",0.685000181,1,1,1,0,NA,NA,NA,NA,NA,NA,NA,NA,NA,NA,NA,NA,NA,NA,NA,NA,NA,NA,NA,NA,NA,NA,NA,NA
"490","stim/objects/Instruments/musicsheet.png",256,30,249,0.9,"stim/54.jpeg",5,4,3,2,"Instruments",2,2,"right","right",0.59800005,1,1,1,0,NA,NA,NA,NA,NA,NA,NA,NA,NA,NA,NA,NA,NA,NA,NA,NA,NA,NA,NA,NA,NA,NA,NA,NA
"525","stim/objects/Instruments/oboe.png",257,30,250,0.9,"stim/52.jpeg",5,2,3,2,"Instruments",2,2,"right","right",0.663999796,1,1,1,0,NA,NA,NA,NA,NA,NA,NA,NA,NA,NA,NA,NA,NA,NA,NA,NA,NA,NA,NA,NA,NA,NA,NA,NA
"308","stim/objects/HouseObjects/lintroller.png",258,30,251,0.9,"stim/63.jpeg",6,3,3,2,"HouseObjects",1,2,"left","left",0.796000004,1,1,1,0,NA,NA,NA,NA,NA,NA,NA,NA,NA,NA,NA,NA,NA,NA,NA,NA,NA,NA,NA,NA,NA,NA,NA,NA
"541","stim/objects/Instruments/panflute.png",259,30,252,0.5,"stim/12.jpeg",1,2,1,1,"Instruments",2,1,"right","left",0.971999884,0,0,1,0,21,30,1,0.5,1,"stim/12.jpeg",1,2,"stim/12.jpeg",1,"left",2.044000149,3,1,7.117000341,3,1.82400012,21,1,0,0,0,0,1
"344","stim/objects/HouseObjects/pan.png",260,30,253,0.9,"stim/62.jpeg",6,2,3,2,"HouseObjects",1,2,"left","left",0.66899991,1,1,1,0,NA,NA,NA,NA,NA,NA,NA,NA,NA,NA,NA,NA,NA,NA,NA,NA,NA,NA,NA,NA,NA,NA,NA,NA
"309","stim/objects/HouseObjects/lintroller.png",261,30,254,0.9,"stim/62.jpeg",6,2,3,2,"HouseObjects",1,3,"left","left",0.592000008,1,1,1,0,NA,NA,NA,NA,NA,NA,NA,NA,NA,NA,NA,NA,NA,NA,NA,NA,NA,NA,NA,NA,NA,NA,NA,NA
"473","stim/objects/Instruments/metronome.png",262,30,255,0.9,"stim/54.jpeg",5,4,3,2,"Instruments",2,1,"right","right",0.597999811,1,1,1,0,NA,NA,NA,NA,NA,NA,NA,NA,NA,NA,NA,NA,NA,NA,NA,NA,NA,NA,NA,NA,NA,NA,NA,NA
"310","stim/objects/HouseObjects/lintroller.png",263,30,256,0.9,"stim/63.jpeg",6,3,3,2,"HouseObjects",1,4,"left","left",0.720999956,1,1,1,0,NA,NA,NA,NA,NA,NA,NA,NA,NA,NA,NA,NA,NA,NA,NA,NA,NA,NA,NA,NA,NA,NA,NA,NA
"262","stim/objects/HouseObjects/glass.png",264,30,257,0.5,"stim/21.jpeg",2,1,1,2,"HouseObjects",1,3,"left","left",0.94900012,1,1,1,0,NA,NA,NA,NA,NA,NA,NA,NA,NA,NA,NA,NA,NA,NA,NA,NA,NA,NA,NA,NA,NA,NA,NA,NA
"491","stim/objects/Instruments/musicsheet.png",265,30,258,0.9,"stim/53.jpeg",5,3,3,2,"Instruments",2,1,"right","right",0.644000053,1,1,1,0,NA,NA,NA,NA,NA,NA,NA,NA,NA,NA,NA,NA,NA,NA,NA,NA,NA,NA,NA,NA,NA,NA,NA,NA
"341","stim/objects/HouseObjects/match2.png",266,30,259,0.1,"stim/53.jpeg",5,3,3,1,"HouseObjects",1,3,"left","right",0.638999939,0,0,1,0,39,30,1,0.1,1,"stim/53.jpeg",5,3,"stim/53.jpeg",3,"left",1.80700016,3,3,7.299000263,2,2.537000179,39,1,1,1,0,0,1
"360","stim/objects/HouseObjects/pitcher.png",267,30,260,0.9,"stim/62.jpeg",6,2,3,2,"HouseObjects",1,4,"left","left",0.622999907,1,1,1,0,NA,NA,NA,NA,NA,NA,NA,NA,NA,NA,NA,NA,NA,NA,NA,NA,NA,NA,NA,NA,NA,NA,NA,NA
"474","stim/objects/Instruments/metronome.png",268,30,261,0.9,"stim/53.jpeg",5,3,3,2,"Instruments",2,1,"right","right",0.619999886,1,1,1,0,NA,NA,NA,NA,NA,NA,NA,NA,NA,NA,NA,NA,NA,NA,NA,NA,NA,NA,NA,NA,NA,NA,NA,NA
"292","stim/objects/HouseObjects/knife.png",269,30,262,0.9,"stim/64.jpeg",6,4,3,2,"HouseObjects",1,2,"left","left",0.585000038,1,1,1,0,NA,NA,NA,NA,NA,NA,NA,NA,NA,NA,NA,NA,NA,NA,NA,NA,NA,NA,NA,NA,NA,NA,NA,NA
"311","stim/objects/HouseObjects/lintroller.png",270,30,263,0.9,"stim/61.jpeg",6,1,3,2,"HouseObjects",1,1,"left","left",0.628000021,1,1,1,0,NA,NA,NA,NA,NA,NA,NA,NA,NA,NA,NA,NA,NA,NA,NA,NA,NA,NA,NA,NA,NA,NA,NA,NA
"475","stim/objects/Instruments/metronome.png",271,30,264,0.9,"stim/51.jpeg",5,1,3,2,"Instruments",2,3,"right","right",0.684999943,1,1,1,0,NA,NA,NA,NA,NA,NA,NA,NA,NA,NA,NA,NA,NA,NA,NA,NA,NA,NA,NA,NA,NA,NA,NA,NA
"476","stim/objects/Instruments/metronome.png",272,30,265,0.9,"stim/51.jpeg",5,1,3,2,"Instruments",2,1,"right","right",0.677999973,1,1,1,0,NA,NA,NA,NA,NA,NA,NA,NA,NA,NA,NA,NA,NA,NA,NA,NA,NA,NA,NA,NA,NA,NA,NA,NA
"380","stim/objects/HouseObjects/rubbergloves.png",273,30,266,0.5,"stim/11.jpeg",1,1,1,1,"HouseObjects",1,4,"left","left",0.588999987,1,1,1,0,169,30,1,0.5,1,"stim/11.jpeg",1,1,"stim/11.jpeg",4,"right",1.161000252,2,3,2.13499999,1,1.767000198,169,0,0,NA,0,NA,1
"507","stim/objects/Instruments/musicstand.png",274,30,267,0.9,"stim/53.jpeg",5,3,3,2,"Instruments",2,4,"right","right",0.689999819,1,1,1,0,NA,NA,NA,NA,NA,NA,NA,NA,NA,NA,NA,NA,NA,NA,NA,NA,NA,NA,NA,NA,NA,NA,NA,NA
"287","stim/objects/HouseObjects/key.png",275,30,268,0.7,"stim/42.jpeg",4,2,2,2,"HouseObjects",1,1,"left","left",0.657000065,1,1,1,0,NA,NA,NA,NA,NA,NA,NA,NA,NA,NA,NA,NA,NA,NA,NA,NA,NA,NA,NA,NA,NA,NA,NA,NA
"526","stim/objects/Instruments/oboe.png",276,30,269,0.9,"stim/53.jpeg",5,3,3,2,"Instruments",2,2,"right","right",0.64199996,1,1,1,0,NA,NA,NA,NA,NA,NA,NA,NA,NA,NA,NA,NA,NA,NA,NA,NA,NA,NA,NA,NA,NA,NA,NA,NA
"397","stim/objects/HouseObjects/thermometer2.png",277,30,270,0.9,"stim/62.jpeg",6,2,3,1,"HouseObjects",1,2,"left","left",0.611999989,1,1,1,0,183,30,1,0.9,1,"stim/62.jpeg",6,2,"stim/62.jpeg",2,"right",1.244000196,1,2,1.543000221,2,1.970000267,183,0,1,NA,1,NA,1
"267","stim/objects/HouseObjects/glassmop2.png",278,30,271,0.7,"stim/43.jpeg",4,3,2,1,"HouseObjects",1,3,"left","left",0.625,1,1,1,0,118,30,1,0.7,1,"stim/43.jpeg",4,3,"stim/43.jpeg",3,"left",1.597000122,3,2,3.371000051,1,3.357000113,118,1,0,0,0,0,1
"280","stim/objects/HouseObjects/iron.png",279,30,272,0.7,"stim/43.jpeg",4,3,2,2,"HouseObjects",1,3,"left","left",0.61500001,1,1,1,0,NA,NA,NA,NA,NA,NA,NA,NA,NA,NA,NA,NA,NA,NA,NA,NA,NA,NA,NA,NA,NA,NA,NA,NA
"327","stim/objects/HouseObjects/match.png",280,30,273,0.9,"stim/64.jpeg",6,4,3,2,"HouseObjects",1,1,"left","left",0.621000051,1,1,1,0,NA,NA,NA,NA,NA,NA,NA,NA,NA,NA,NA,NA,NA,NA,NA,NA,NA,NA,NA,NA,NA,NA,NA,NA
"247","stim/objects/HouseObjects/dishsoap.png",281,30,274,0.5,"stim/13.jpeg",1,3,1,2,"HouseObjects",1,4,"left","right",0.674999952,0,0,1,0,NA,NA,NA,NA,NA,NA,NA,NA,NA,NA,NA,NA,NA,NA,NA,NA,NA,NA,NA,NA,NA,NA,NA,NA
"493","stim/objects/Instruments/musicsheet.png",282,30,275,0.9,"stim/54.jpeg",5,4,3,2,"Instruments",2,1,"right","right",0.726999998,1,1,1,0,NA,NA,NA,NA,NA,NA,NA,NA,NA,NA,NA,NA,NA,NA,NA,NA,NA,NA,NA,NA,NA,NA,NA,NA
"312","stim/objects/HouseObjects/lintroller.png",283,30,276,0.9,"stim/64.jpeg",6,4,3,2,"HouseObjects",1,4,"left","left",0.598999977,1,1,1,0,NA,NA,NA,NA,NA,NA,NA,NA,NA,NA,NA,NA,NA,NA,NA,NA,NA,NA,NA,NA,NA,NA,NA,NA
"293","stim/objects/HouseObjects/knife.png",284,30,277,0.9,"stim/63.jpeg",6,3,3,2,"HouseObjects",1,4,"left","left",0.65899992,1,1,1,0,NA,NA,NA,NA,NA,NA,NA,NA,NA,NA,NA,NA,NA,NA,NA,NA,NA,NA,NA,NA,NA,NA,NA,NA
"508","stim/objects/Instruments/musicstand.png",285,30,278,0.9,"stim/51.jpeg",5,1,3,2,"Instruments",2,4,"right","right",0.651000023,1,1,1,0,NA,NA,NA,NA,NA,NA,NA,NA,NA,NA,NA,NA,NA,NA,NA,NA,NA,NA,NA,NA,NA,NA,NA,NA
"433","stim/objects/Instruments/harmonica.png",286,30,279,0.5,"stim/23.jpeg",2,3,1,2,"Instruments",2,1,"right","left",0.81400013,0,0,1,0,NA,NA,NA,NA,NA,NA,NA,NA,NA,NA,NA,NA,NA,NA,NA,NA,NA,NA,NA,NA,NA,NA,NA,NA
"552","stim/objects/Instruments/speaker2.png",287,30,280,0.1,"stim/63.jpeg",6,3,3,1,"Instruments",2,2,"right","left",0.572000027,0,0,1,0,73,30,1,0.1,2,"stim/63.jpeg",6,3,"stim/63.jpeg",2,"right",1.418000221,2,3,1.59800005,3,2.906000137,73,0,1,NA,0,NA,1
"524","stim/objects/Instruments/oboe.png",288,30,281,0.9,"stim/52.jpeg",5,2,3,2,"Instruments",2,1,"right","right",0.738000154,1,1,1,0,NA,NA,NA,NA,NA,NA,NA,NA,NA,NA,NA,NA,NA,NA,NA,NA,NA,NA,NA,NA,NA,NA,NA,NA
"313","stim/objects/HouseObjects/lintroller.png",289,30,282,0.9,"stim/63.jpeg",6,3,3,2,"HouseObjects",1,1,"left","left",0.601000071,1,1,1,0,NA,NA,NA,NA,NA,NA,NA,NA,NA,NA,NA,NA,NA,NA,NA,NA,NA,NA,NA,NA,NA,NA,NA,NA
"294","stim/objects/HouseObjects/knife.png",290,30,283,0.9,"stim/61.jpeg",6,1,3,2,"HouseObjects",1,2,"left","left",0.619999886,1,1,1,0,NA,NA,NA,NA,NA,NA,NA,NA,NA,NA,NA,NA,NA,NA,NA,NA,NA,NA,NA,NA,NA,NA,NA,NA
"457","stim/objects/Instruments/marimba.png",291,30,284,0.9,"stim/54.jpeg",5,4,3,2,"Instruments",2,3,"right","right",0.828999996,1,1,1,0,NA,NA,NA,NA,NA,NA,NA,NA,NA,NA,NA,NA,NA,NA,NA,NA,NA,NA,NA,NA,NA,NA,NA,NA
"494","stim/objects/Instruments/musicsheet.png",292,30,285,0.9,"stim/53.jpeg",5,3,3,2,"Instruments",2,1,"right","right",0.690000057,1,1,1,0,NA,NA,NA,NA,NA,NA,NA,NA,NA,NA,NA,NA,NA,NA,NA,NA,NA,NA,NA,NA,NA,NA,NA,NA
"547","stim/objects/Instruments/record.png",293,30,286,0.5,"stim/14.jpeg",1,4,1,1,"Instruments",2,1,"right","left",0.806999922,0,0,1,0,168,30,1,0.5,1,"stim/14.jpeg",1,4,"stim/14.jpeg",1,"left",1.143000126,3,2,3.796000004,2,1.536000252,168,1,0,0,0,0,1
"343","stim/objects/HouseObjects/pan.png",294,30,287,0.9,"stim/61.jpeg",6,1,3,2,"HouseObjects",1,1,"left","left",0.670000076,1,1,1,0,NA,NA,NA,NA,NA,NA,NA,NA,NA,NA,NA,NA,NA,NA,NA,NA,NA,NA,NA,NA,NA,NA,NA,NA
"414","stim/objects/Instruments/electricguitar2.png",295,30,288,0.7,"stim/31.jpeg",3,1,2,1,"Instruments",2,1,"right","right",0.649999857,1,1,1,0,95,30,1,0.7,2,"stim/31.jpeg",3,1,"stim/31.jpeg",1,"right",1.434000015,2,2,4.154000282,2,1.496000051,95,0,0,NA,0,NA,1
"328","stim/objects/HouseObjects/match.png",296,30,289,0.9,"stim/63.jpeg",6,3,3,2,"HouseObjects",1,1,"left","left",0.723999977,1,1,1,0,NA,NA,NA,NA,NA,NA,NA,NA,NA,NA,NA,NA,NA,NA,NA,NA,NA,NA,NA,NA,NA,NA,NA,NA
"560","stim/objects/Instruments/trombone2.png",297,30,290,0.1,"stim/63.jpeg",6,3,3,1,"Instruments",2,4,"right","left",0.625,0,0,1,0,24,30,1,0.1,2,"stim/63.jpeg",6,3,"stim/63.jpeg",4,"right",2.094000101,1,4,4.265000105,2,3.748000145,24,0,0,NA,0,NA,1
"255","stim/objects/HouseObjects/dustpan2.png",298,30,291,0.3,"stim/32.jpeg",3,2,2,1,"HouseObjects",1,3,"left","right",0.674999952,0,0,1,0,71,30,1,0.3,1,"stim/32.jpeg",3,2,"stim/32.jpeg",3,"left",1.822000265,2,3,3.019000292,2,1.592000008,71,1,0,0,0,0,1
"411","stim/objects/Instruments/electricdrumset2.png",299,30,292,0.7,"stim/34.jpeg",3,4,2,1,"Instruments",2,1,"right","right",0.716999769,1,1,1,0,67,30,1,0.7,2,"stim/34.jpeg",3,4,"stim/34.jpeg",1,"left",1.53000021,3,2,2.767000198,2,1.761000156,67,1,0,0,0,0,1
"361","stim/objects/HouseObjects/pitcher.png",300,30,293,0.9,"stim/62.jpeg",6,2,3,2,"HouseObjects",1,4,"left","left",0.617000103,1,1,1,0,NA,NA,NA,NA,NA,NA,NA,NA,NA,NA,NA,NA,NA,NA,NA,NA,NA,NA,NA,NA,NA,NA,NA,NA
"241","stim/objects/HouseObjects/coffee.png",301,30,294,0.5,"stim/11.jpeg",1,1,1,2,"HouseObjects",1,2,"left","left",0.680000067,1,1,1,0,NA,NA,NA,NA,NA,NA,NA,NA,NA,NA,NA,NA,NA,NA,NA,NA,NA,NA,NA,NA,NA,NA,NA,NA
"511","stim/objects/Instruments/musicstand.png",302,30,295,0.9,"stim/52.jpeg",5,2,3,2,"Instruments",2,4,"right","right",0.707000017,1,1,1,0,NA,NA,NA,NA,NA,NA,NA,NA,NA,NA,NA,NA,NA,NA,NA,NA,NA,NA,NA,NA,NA,NA,NA,NA
"389","stim/objects/HouseObjects/scale2.png",303,30,296,0.9,"stim/62.jpeg",6,2,3,1,"HouseObjects",1,3,"left","left",0.644000053,1,1,1,0,173,30,1,0.9,1,"stim/62.jpeg",6,2,"stim/62.jpeg",3,"left",2.499000072,3,2,1.73300004,2,1.828000307,173,1,1,1,0,0,1
"437","stim/objects/Instruments/harp.png",304,30,297,0.7,"stim/33.jpeg",3,3,2,2,"Instruments",2,2,"right","right",0.7099998,1,1,1,0,NA,NA,NA,NA,NA,NA,NA,NA,NA,NA,NA,NA,NA,NA,NA,NA,NA,NA,NA,NA,NA,NA,NA,NA
"496","stim/objects/Instruments/musicsheet.png",305,30,298,0.9,"stim/51.jpeg",5,1,3,2,"Instruments",2,4,"right","right",0.69900012,1,1,1,0,NA,NA,NA,NA,NA,NA,NA,NA,NA,NA,NA,NA,NA,NA,NA,NA,NA,NA,NA,NA,NA,NA,NA,NA
"527","stim/objects/Instruments/oboe.png",306,30,299,0.9,"stim/53.jpeg",5,3,3,2,"Instruments",2,3,"right","right",0.802000046,1,1,1,0,NA,NA,NA,NA,NA,NA,NA,NA,NA,NA,NA,NA,NA,NA,NA,NA,NA,NA,NA,NA,NA,NA,NA,NA
"362","stim/objects/HouseObjects/pitcher.png",307,30,300,0.9,"stim/61.jpeg",6,1,3,2,"HouseObjects",1,2,"left","left",0.603000164,1,1,1,0,NA,NA,NA,NA,NA,NA,NA,NA,NA,NA,NA,NA,NA,NA,NA,NA,NA,NA,NA,NA,NA,NA,NA,NA
"403","stim/objects/HouseObjects/vacuumcleaner2.png",308,30,301,0.9,"stim/61.jpeg",6,1,3,1,"HouseObjects",1,1,"left","left",0.665999889,1,1,1,0,117,30,1,0.9,1,"stim/61.jpeg",6,1,"stim/61.jpeg",1,"right",1.666000128,2,4,2.344000101,4,1.978000164,117,0,0,NA,0,NA,1
"432","stim/objects/Instruments/guitarcase2.png",309,30,302,0.3,"stim/41.jpeg",4,1,2,1,"Instruments",2,4,"right","left",0.827000141,0,0,1,0,44,30,1,0.3,2,"stim/41.jpeg",4,1,"stim/41.jpeg",4,"left",1.467000246,3,4,5.205000162,3,2.37100029,44,1,0,0,0,0,1
"263","stim/objects/HouseObjects/glass.png",310,30,303,0.5,"stim/22.jpeg",2,2,1,2,"HouseObjects",1,4,"left","left",0.638999939,1,1,1,0,NA,NA,NA,NA,NA,NA,NA,NA,NA,NA,NA,NA,NA,NA,NA,NA,NA,NA,NA,NA,NA,NA,NA,NA
"426","stim/objects/Instruments/gong2.png",311,30,304,0.3,"stim/43.jpeg",4,3,2,1,"Instruments",2,4,"right","left",0.631000042,0,0,1,0,59,30,1,0.3,2,"stim/43.jpeg",4,3,"stim/43.jpeg",4,"left",1.579000235,3,4,5.022000313,4,2.137000084,59,1,0,0,1,1,1
"400","stim/objects/HouseObjects/towel.png",312,30,305,0.3,"stim/33.jpeg",3,3,2,1,"HouseObjects",1,4,"left","right",0.735000134,0,0,1,0,149,30,1,0.3,1,"stim/33.jpeg",3,3,"stim/33.jpeg",4,"right",1.575000286,2,1,2.243000031,1,2.164000273,149,0,0,NA,0,NA,1
"528","stim/objects/Instruments/oboe.png",313,30,306,0.9,"stim/51.jpeg",5,1,3,2,"Instruments",2,1,"right","right",0.653000116,1,1,1,0,NA,NA,NA,NA,NA,NA,NA,NA,NA,NA,NA,NA,NA,NA,NA,NA,NA,NA,NA,NA,NA,NA,NA,NA
"398","stim/objects/HouseObjects/thread.png",314,30,307,0.3,"stim/32.jpeg",3,2,2,1,"HouseObjects",1,1,"left","right",0.648000002,0,0,1,0,198,30,1,0.3,1,"stim/32.jpeg",3,2,"stim/32.jpeg",1,"right",1.059000254,1,2,1.837000132,2,1.963999987,198,0,1,NA,0,NA,1
"477","stim/objects/Instruments/metronome.png",315,30,308,0.9,"stim/52.jpeg",5,2,3,2,"Instruments",2,4,"right","right",0.710000038,1,1,1,0,NA,NA,NA,NA,NA,NA,NA,NA,NA,NA,NA,NA,NA,NA,NA,NA,NA,NA,NA,NA,NA,NA,NA,NA
"246","stim/objects/HouseObjects/cushion2.png",316,30,309,0.3,"stim/33.jpeg",3,3,2,1,"HouseObjects",1,4,"left","right",0.635999918,0,0,1,0,171,30,1,0.3,1,"stim/33.jpeg",3,3,"stim/33.jpeg",4,"right",1.372000217,2,2,2.211000204,2,2.11400032,171,0,0,NA,0,NA,1
"307","stim/objects/HouseObjects/knife2.png",317,30,310,0.1,"stim/51.jpeg",5,1,3,1,"HouseObjects",1,3,"left","right",0.724999905,0,0,1,0,139,30,1,0.1,1,"stim/51.jpeg",5,1,"stim/51.jpeg",3,"left",1.828999996,3,4,4.693000317,2,2.799000263,139,1,0,0,0,0,1
"315","stim/objects/HouseObjects/lintroller.png",318,30,311,0.9,"stim/64.jpeg",6,4,3,2,"HouseObjects",1,2,"left","left",0.61500001,1,1,1,0,NA,NA,NA,NA,NA,NA,NA,NA,NA,NA,NA,NA,NA,NA,NA,NA,NA,NA,NA,NA,NA,NA,NA,NA
"489","stim/objects/Instruments/metronome2.png",319,30,312,0.9,"stim/54.jpeg",5,4,3,1,"Instruments",2,3,"right","right",0.663999796,1,1,1,0,189,30,1,0.9,2,"stim/54.jpeg",5,4,"stim/54.jpeg",3,"left",2.007000208,3,1,3.765000105,1,1.737000227,189,1,0,0,0,0,1
"295","stim/objects/HouseObjects/knife.png",320,30,313,0.9,"stim/61.jpeg",6,1,3,2,"HouseObjects",1,3,"left","left",0.638999939,1,1,1,0,NA,NA,NA,NA,NA,NA,NA,NA,NA,NA,NA,NA,NA,NA,NA,NA,NA,NA,NA,NA,NA,NA,NA,NA
"296","stim/objects/HouseObjects/knife.png",321,30,314,0.9,"stim/63.jpeg",6,3,3,2,"HouseObjects",1,1,"left","left",0.640000105,1,1,1,0,NA,NA,NA,NA,NA,NA,NA,NA,NA,NA,NA,NA,NA,NA,NA,NA,NA,NA,NA,NA,NA,NA,NA,NA
"551","stim/objects/Instruments/speaker.png",322,30,315,0.5,"stim/24.jpeg",2,4,1,1,"Instruments",2,1,"right","left",0.686000109,0,0,1,0,70,30,1,0.5,2,"stim/24.jpeg",2,4,"stim/24.jpeg",1,"left",1.263999939,4,1,3.296000242,1,1.796000242,70,1,0,0,1,1,1
"283","stim/objects/HouseObjects/ironingboard.png",323,30,316,0.7,"stim/42.jpeg",4,2,2,2,"HouseObjects",1,1,"left","left",0.65899992,1,1,1,0,NA,NA,NA,NA,NA,NA,NA,NA,NA,NA,NA,NA,NA,NA,NA,NA,NA,NA,NA,NA,NA,NA,NA,NA
"542","stim/objects/Instruments/panflute2.png",324,30,317,0.9,"stim/54.jpeg",5,4,3,1,"Instruments",2,3,"right","right",0.638000011,1,1,1,0,11,30,1,0.9,2,"stim/54.jpeg",5,4,"stim/54.jpeg",3,"right",3.396000147,2,4,6.045000076,2,3.321000099,11,0,1,NA,0,NA,1
"540","stim/objects/Instruments/oboe2.png",325,30,318,0.9,"stim/53.jpeg",5,3,3,1,"Instruments",2,4,"right","right",0.679999828,1,1,1,0,170,30,1,0.9,2,"stim/53.jpeg",5,3,"stim/53.jpeg",4,"left",1.368999958,3,3,4.800000191,2,2.616000175,170,1,1,1,0,0,1
"455","stim/objects/Instruments/maraca2.png",326,30,319,0.3,"stim/43.jpeg",4,3,2,1,"Instruments",2,2,"right","left",0.559000015,0,0,1,0,77,30,1,0.3,2,"stim/43.jpeg",4,3,"stim/43.jpeg",2,"left",1.788000345,2,1,1.638000011,1,1.717000246,77,1,0,0,0,0,1
"259","stim/objects/HouseObjects/garbagebin.png",327,30,320,0.5,"stim/24.jpeg",2,4,1,2,"HouseObjects",1,4,"left","left",0.677000046,1,1,1,0,NA,NA,NA,NA,NA,NA,NA,NA,NA,NA,NA,NA,NA,NA,NA,NA,NA,NA,NA,NA,NA,NA,NA,NA
"443","stim/objects/Instruments/hihat2.png",328,30,321,0.3,"stim/44.jpeg",4,4,2,1,"Instruments",2,2,"right","left",0.601000071,0,0,1,0,167,30,1,0.3,2,"stim/44.jpeg",4,4,"stim/44.jpeg",2,"left",2.061000109,3,2,2.207000256,3,2.02300024,167,1,0,0,0,0,1
"402","stim/objects/HouseObjects/vacuumcleaner.png",329,30,322,0.3,"stim/34.jpeg",3,4,2,1,"HouseObjects",1,3,"left","right",0.670000076,0,0,1,0,72,30,1,0.3,1,"stim/34.jpeg",3,4,"stim/34.jpeg",3,"left",1.383000374,2,1,1.890000105,1,2.095000267,72,1,0,0,0,0,1
"497","stim/objects/Instruments/musicsheet.png",330,30,323,0.9,"stim/51.jpeg",5,1,3,2,"Instruments",2,2,"right","right",0.746000051,1,1,1,0,NA,NA,NA,NA,NA,NA,NA,NA,NA,NA,NA,NA,NA,NA,NA,NA,NA,NA,NA,NA,NA,NA,NA,NA
"568","stim/objects/Instruments/vuvuzela2.png",331,30,324,0.1,"stim/63.jpeg",6,3,3,1,"Instruments",2,2,"right","left",0.726999998,0,0,1,0,172,30,1,0.1,2,"stim/63.jpeg",6,3,"stim/63.jpeg",2,"right",1.419000387,2,1,1.784000158,2,2.345000029,172,0,0,NA,1,NA,1
"460","stim/objects/Instruments/marimba.png",332,30,325,0.9,"stim/52.jpeg",5,2,3,2,"Instruments",2,3,"right","right",0.763999939,1,1,1,0,NA,NA,NA,NA,NA,NA,NA,NA,NA,NA,NA,NA,NA,NA,NA,NA,NA,NA,NA,NA,NA,NA,NA,NA
"544","stim/objects/Instruments/pipepiano2.png",333,30,326,0.9,"stim/51.jpeg",5,1,3,1,"Instruments",2,1,"right","right",0.698000193,1,1,1,0,102,30,1,0.9,2,"stim/51.jpeg",5,1,"stim/51.jpeg",1,"left",1.652000189,2,2,4.471000195,2,1.853000164,102,1,0,0,0,0,1
"495","stim/objects/Instruments/musicsheet.png",334,30,327,0.9,"stim/52.jpeg",5,2,3,2,"Instruments",2,2,"right","right",0.694000006,1,1,1,0,NA,NA,NA,NA,NA,NA,NA,NA,NA,NA,NA,NA,NA,NA,NA,NA,NA,NA,NA,NA,NA,NA,NA,NA
"553","stim/objects/Instruments/tambourine.png",335,30,328,0.5,"stim/21.jpeg",2,1,1,1,"Instruments",2,2,"right","left",0.761000156,0,0,1,0,128,30,1,0.5,2,"stim/21.jpeg",2,1,"stim/21.jpeg",2,"right",0.936000109,1,1,2.582000017,2,2.822000265,128,0,1,NA,1,NA,1
"331","stim/objects/HouseObjects/match.png",336,30,329,0.9,"stim/63.jpeg",6,3,3,2,"HouseObjects",1,2,"left","right",0.639999866,0,0,1,0,NA,NA,NA,NA,NA,NA,NA,NA,NA,NA,NA,NA,NA,NA,NA,NA,NA,NA,NA,NA,NA,NA,NA,NA
"393","stim/objects/HouseObjects/spraybottle2.png",337,30,330,0.9,"stim/64.jpeg",6,4,3,1,"HouseObjects",1,4,"left","left",0.650000095,1,1,1,0,79,30,1,0.9,1,"stim/64.jpeg",6,4,"stim/64.jpeg",4,"right",1.387000322,1,4,2.810000181,2,3.069000244,79,0,1,NA,0,NA,1
"404","stim/objects/HouseObjects/wateringcan.png",338,30,331,0.3,"stim/31.jpeg",3,1,2,1,"HouseObjects",1,1,"left","right",0.711000204,0,0,1,0,74,30,1,0.3,1,"stim/31.jpeg",3,1,"stim/31.jpeg",1,"right",1.319000244,1,2,2.338000059,2,2.178000212,74,0,0,NA,0,NA,1
"319","stim/objects/HouseObjects/lintroller.png",339,30,332,0.9,"stim/61.jpeg",6,1,3,2,"HouseObjects",1,4,"left","left",0.739000082,1,1,1,0,NA,NA,NA,NA,NA,NA,NA,NA,NA,NA,NA,NA,NA,NA,NA,NA,NA,NA,NA,NA,NA,NA,NA,NA
"261","stim/objects/HouseObjects/garbagebin2.png",340,30,333,0.7,"stim/41.jpeg",4,1,2,1,"HouseObjects",1,1,"left","left",0.612999916,1,1,1,0,164,30,1,0.7,1,"stim/41.jpeg",4,1,"stim/41.jpeg",1,"right",2.187000275,2,2,3.049000263,2,2.242000103,164,0,0,NA,0,NA,1
"245","stim/objects/HouseObjects/cushion.png",341,30,334,0.5,"stim/12.jpeg",1,2,1,2,"HouseObjects",1,4,"left","left",0.769000053,1,1,1,0,NA,NA,NA,NA,NA,NA,NA,NA,NA,NA,NA,NA,NA,NA,NA,NA,NA,NA,NA,NA,NA,NA,NA,NA
"451","stim/objects/Instruments/laud2.png",342,30,335,0.3,"stim/42.jpeg",4,2,2,1,"Instruments",2,3,"right","left",0.703999996,0,0,1,0,4,30,1,0.3,2,"stim/42.jpeg",4,2,"stim/42.jpeg",3,"left",4.721000195,2,2,5.938000202,3,2.83100009,4,1,1,1,1,1,1
"429","stim/objects/Instruments/grandpiano2.png",343,30,336,0.3,"stim/44.jpeg",4,4,2,1,"Instruments",2,4,"right","left",0.763999939,0,0,1,0,158,30,1,0.3,2,"stim/44.jpeg",4,4,"stim/44.jpeg",4,"left",1.541000128,3,1,3.528000116,3,2.200999975,158,1,0,0,0,0,1
"478","stim/objects/Instruments/metronome.png",344,30,337,0.9,"stim/51.jpeg",5,1,3,2,"Instruments",2,4,"right","right",0.679000139,1,1,1,0,NA,NA,NA,NA,NA,NA,NA,NA,NA,NA,NA,NA,NA,NA,NA,NA,NA,NA,NA,NA,NA,NA,NA,NA
"479","stim/objects/Instruments/metronome.png",345,30,338,0.9,"stim/53.jpeg",5,3,3,2,"Instruments",2,2,"right","right",0.838000059,1,1,1,0,NA,NA,NA,NA,NA,NA,NA,NA,NA,NA,NA,NA,NA,NA,NA,NA,NA,NA,NA,NA,NA,NA,NA,NA
"270","stim/objects/HouseObjects/hairdryer2.png",346,30,339,0.7,"stim/44.jpeg",4,4,2,1,"HouseObjects",1,3,"left","left",0.768000126,1,1,1,0,13,30,1,0.7,1,"stim/44.jpeg",4,4,"stim/44.jpeg",3,"left",1.910000086,2,3,4.407000303,2,2.34100008,13,1,0,0,0,0,1
"453","stim/objects/Instruments/maraca.png",347,30,340,0.7,"stim/34.jpeg",3,4,2,2,"Instruments",2,2,"right","right",0.665999889,1,1,1,0,NA,NA,NA,NA,NA,NA,NA,NA,NA,NA,NA,NA,NA,NA,NA,NA,NA,NA,NA,NA,NA,NA,NA,NA
"430","stim/objects/Instruments/guitarcase.png",348,30,341,0.5,"stim/21.jpeg",2,1,1,2,"Instruments",2,1,"right","left",0.661000013,0,0,1,0,NA,NA,NA,NA,NA,NA,NA,NA,NA,NA,NA,NA,NA,NA,NA,NA,NA,NA,NA,NA,NA,NA,NA,NA
"379","stim/objects/HouseObjects/remote2.png",349,30,342,0.1,"stim/53.jpeg",5,3,3,1,"HouseObjects",1,1,"left","right",0.76699996,0,0,1,0,184,30,1,0.1,1,"stim/53.jpeg",5,3,"stim/53.jpeg",1,"left",1.837000132,3,1,5.695000172,2,2.032000065,184,1,0,0,0,0,1
"418","stim/objects/Instruments/flutetrans.png",350,30,343,0.5,"stim/11.jpeg",1,1,1,2,"Instruments",2,3,"right","left",0.705999851,0,0,1,0,NA,NA,NA,NA,NA,NA,NA,NA,NA,NA,NA,NA,NA,NA,NA,NA,NA,NA,NA,NA,NA,NA,NA,NA
"514","stim/objects/Instruments/musicstand.png",351,30,344,0.9,"stim/52.jpeg",5,2,3,2,"Instruments",2,3,"right","right",0.713999987,1,1,1,0,NA,NA,NA,NA,NA,NA,NA,NA,NA,NA,NA,NA,NA,NA,NA,NA,NA,NA,NA,NA,NA,NA,NA,NA
"333","stim/objects/HouseObjects/match.png",352,30,345,0.9,"stim/61.jpeg",6,1,3,2,"HouseObjects",1,1,"left","left",0.667999983,1,1,1,0,NA,NA,NA,NA,NA,NA,NA,NA,NA,NA,NA,NA,NA,NA,NA,NA,NA,NA,NA,NA,NA,NA,NA,NA
"288","stim/objects/HouseObjects/key.png",353,30,346,0.7,"stim/41.jpeg",4,1,2,2,"HouseObjects",1,3,"left","left",0.641000032,1,1,1,0,NA,NA,NA,NA,NA,NA,NA,NA,NA,NA,NA,NA,NA,NA,NA,NA,NA,NA,NA,NA,NA,NA,NA,NA
"285","stim/objects/HouseObjects/ironingboard.png",354,30,347,0.7,"stim/41.jpeg",4,1,2,2,"HouseObjects",1,4,"left","left",0.726999998,1,1,1,0,NA,NA,NA,NA,NA,NA,NA,NA,NA,NA,NA,NA,NA,NA,NA,NA,NA,NA,NA,NA,NA,NA,NA,NA
"334","stim/objects/HouseObjects/match.png",355,30,348,0.9,"stim/62.jpeg",6,2,3,2,"HouseObjects",1,3,"left","left",0.680000067,1,1,1,0,NA,NA,NA,NA,NA,NA,NA,NA,NA,NA,NA,NA,NA,NA,NA,NA,NA,NA,NA,NA,NA,NA,NA,NA
"335","stim/objects/HouseObjects/match.png",356,30,349,0.9,"stim/64.jpeg",6,4,3,2,"HouseObjects",1,4,"left","left",0.720000029,1,1,1,0,NA,NA,NA,NA,NA,NA,NA,NA,NA,NA,NA,NA,NA,NA,NA,NA,NA,NA,NA,NA,NA,NA,NA,NA
"566","stim/objects/Instruments/violin2.png",357,30,350,0.1,"stim/62.jpeg",6,2,3,1,"Instruments",2,4,"right","left",0.63499999,0,0,1,0,53,30,1,0.1,2,"stim/62.jpeg",6,2,"stim/62.jpeg",4,"left",2.759000063,3,3,3.983000278,3,2.55700016,53,1,0,0,0,0,1
"532","stim/objects/Instruments/oboe.png",358,30,351,0.9,"stim/52.jpeg",5,2,3,2,"Instruments",2,2,"right","right",0.814999819,1,1,1,0,NA,NA,NA,NA,NA,NA,NA,NA,NA,NA,NA,NA,NA,NA,NA,NA,NA,NA,NA,NA,NA,NA,NA,NA
"515","stim/objects/Instruments/musicstand.png",359,30,352,0.9,"stim/53.jpeg",5,3,3,2,"Instruments",2,3,"right","right",0.970999956,1,1,1,0,NA,NA,NA,NA,NA,NA,NA,NA,NA,NA,NA,NA,NA,NA,NA,NA,NA,NA,NA,NA,NA,NA,NA,NA
"462","stim/objects/Instruments/marimba.png",360,30,353,0.9,"stim/54.jpeg",5,4,3,2,"Instruments",2,3,"right","right",0.705000162,1,1,1,0,NA,NA,NA,NA,NA,NA,NA,NA,NA,NA,NA,NA,NA,NA,NA,NA,NA,NA,NA,NA,NA,NA,NA,NA
"276","stim/objects/HouseObjects/handvacuum.png",361,30,354,0.7,"stim/42.jpeg",4,2,2,2,"HouseObjects",1,1,"left","left",0.656999826,1,1,1,0,NA,NA,NA,NA,NA,NA,NA,NA,NA,NA,NA,NA,NA,NA,NA,NA,NA,NA,NA,NA,NA,NA,NA,NA
"317","stim/objects/HouseObjects/lintroller.png",362,30,355,0.9,"stim/64.jpeg",6,4,3,2,"HouseObjects",1,2,"left","left",0.822999954,1,1,1,0,NA,NA,NA,NA,NA,NA,NA,NA,NA,NA,NA,NA,NA,NA,NA,NA,NA,NA,NA,NA,NA,NA,NA,NA
"250","stim/objects/HouseObjects/doormat.png",363,30,356,0.5,"stim/11.jpeg",1,1,1,2,"HouseObjects",1,1,"left","left",0.67599988,1,1,1,0,NA,NA,NA,NA,NA,NA,NA,NA,NA,NA,NA,NA,NA,NA,NA,NA,NA,NA,NA,NA,NA,NA,NA,NA
"271","stim/objects/HouseObjects/handbrush.png",364,30,357,0.7,"stim/42.jpeg",4,2,2,2,"HouseObjects",1,4,"left","left",0.65500021,1,1,1,0,NA,NA,NA,NA,NA,NA,NA,NA,NA,NA,NA,NA,NA,NA,NA,NA,NA,NA,NA,NA,NA,NA,NA,NA
"387","stim/objects/HouseObjects/saw2.png",365,30,358,0.9,"stim/61.jpeg",6,1,3,1,"HouseObjects",1,1,"left","left",0.654999971,1,1,1,0,61,30,1,0.9,1,"stim/61.jpeg",6,1,"stim/61.jpeg",1,"left",2.240000248,1,1,2.729000092,1,5.346000195,61,1,1,1,1,1,1
"422","stim/objects/Instruments/frenchhorn.png",366,30,359,0.5,"stim/23.jpeg",2,3,1,2,"Instruments",2,4,"right","left",0.886000156,0,0,1,0,NA,NA,NA,NA,NA,NA,NA,NA,NA,NA,NA,NA,NA,NA,NA,NA,NA,NA,NA,NA,NA,NA,NA,NA
"529","stim/objects/Instruments/oboe.png",367,30,360,0.9,"stim/54.jpeg",5,4,3,2,"Instruments",2,1,"right","right",0.755000114,1,1,1,0,NA,NA,NA,NA,NA,NA,NA,NA,NA,NA,NA,NA,NA,NA,NA,NA,NA,NA,NA,NA,NA,NA,NA,NA
"401","stim/objects/HouseObjects/towel2.png",368,30,361,0.9,"stim/64.jpeg",6,4,3,1,"HouseObjects",1,2,"left","left",0.698999882,1,1,1,0,130,30,1,0.9,1,"stim/64.jpeg",6,4,"stim/64.jpeg",2,"left",1.79700017,2,1,3.052999973,2,3.078999996,130,1,0,0,1,1,1
"396","stim/objects/HouseObjects/thermometer.png",369,30,362,0.3,"stim/31.jpeg",3,1,2,1,"HouseObjects",1,1,"left","right",0.776000023,0,0,1,0,197,30,1,0.3,1,"stim/31.jpeg",3,1,"stim/31.jpeg",1,"right",1.068000317,1,1,1.972000122,4,2.277000189,197,0,1,NA,0,NA,1
"325","stim/objects/HouseObjects/match.png",370,30,363,0.9,"stim/63.jpeg",6,3,3,2,"HouseObjects",1,2,"left","left",0.744999886,1,1,1,0,NA,NA,NA,NA,NA,NA,NA,NA,NA,NA,NA,NA,NA,NA,NA,NA,NA,NA,NA,NA,NA,NA,NA,NA
"391","stim/objects/HouseObjects/sponge2.png",371,30,364,0.9,"stim/63.jpeg",6,3,3,1,"HouseObjects",1,4,"left","left",0.618999958,1,1,1,0,141,30,1,0.9,1,"stim/63.jpeg",6,3,"stim/63.jpeg",4,"right",1.498000145,2,1,1.630000114,3,2.53000021,141,0,0,NA,0,NA,1
"500","stim/objects/Instruments/musicsheet.png",372,30,365,0.9,"stim/54.jpeg",5,4,3,2,"Instruments",2,2,"right","right",0.762000084,1,1,1,0,NA,NA,NA,NA,NA,NA,NA,NA,NA,NA,NA,NA,NA,NA,NA,NA,NA,NA,NA,NA,NA,NA,NA,NA
"342","stim/objects/HouseObjects/pan.png",373,30,366,0.9,"stim/64.jpeg",6,4,3,2,"HouseObjects",1,1,"left","left",0.650000095,1,1,1,0,NA,NA,NA,NA,NA,NA,NA,NA,NA,NA,NA,NA,NA,NA,NA,NA,NA,NA,NA,NA,NA,NA,NA,NA
"248","stim/objects/HouseObjects/dishsoap.png",374,30,367,0.5,"stim/14.jpeg",1,4,1,2,"HouseObjects",1,1,"left","left",0.630000114,1,1,1,0,NA,NA,NA,NA,NA,NA,NA,NA,NA,NA,NA,NA,NA,NA,NA,NA,NA,NA,NA,NA,NA,NA,NA,NA
"383","stim/objects/HouseObjects/rug2.png",375,30,368,0.1,"stim/51.jpeg",5,1,3,1,"HouseObjects",1,2,"left","right",0.740999937,0,0,1,0,188,30,1,0.1,1,"stim/51.jpeg",5,1,"stim/51.jpeg",2,"right",1.383000135,1,4,3.524000168,2,1.914999962,188,0,0,NA,1,NA,1
"516","stim/objects/Instruments/musicstand.png",376,30,369,0.9,"stim/54.jpeg",5,4,3,2,"Instruments",2,4,"right","right",0.679000139,1,1,1,0,NA,NA,NA,NA,NA,NA,NA,NA,NA,NA,NA,NA,NA,NA,NA,NA,NA,NA,NA,NA,NA,NA,NA,NA
"480","stim/objects/Instruments/metronome.png",377,30,370,0.9,"stim/54.jpeg",5,4,3,2,"Instruments",2,2,"right","right",0.618999958,1,1,1,0,NA,NA,NA,NA,NA,NA,NA,NA,NA,NA,NA,NA,NA,NA,NA,NA,NA,NA,NA,NA,NA,NA,NA,NA
"463","stim/objects/Instruments/marimba.png",378,30,371,0.9,"stim/52.jpeg",5,2,3,2,"Instruments",2,2,"right","right",0.650000095,1,1,1,0,NA,NA,NA,NA,NA,NA,NA,NA,NA,NA,NA,NA,NA,NA,NA,NA,NA,NA,NA,NA,NA,NA,NA,NA
"320","stim/objects/HouseObjects/lintroller.png",379,30,372,0.9,"stim/63.jpeg",6,3,3,2,"HouseObjects",1,1,"left","left",0.77699995,1,1,1,0,NA,NA,NA,NA,NA,NA,NA,NA,NA,NA,NA,NA,NA,NA,NA,NA,NA,NA,NA,NA,NA,NA,NA,NA
"291","stim/objects/HouseObjects/knife.png",380,30,373,0.9,"stim/63.jpeg",6,3,3,2,"HouseObjects",1,2,"left","left",0.729000092,1,1,1,0,NA,NA,NA,NA,NA,NA,NA,NA,NA,NA,NA,NA,NA,NA,NA,NA,NA,NA,NA,NA,NA,NA,NA,NA
"386","stim/objects/HouseObjects/saw.png",381,30,374,0.5,"stim/21.jpeg",2,1,1,1,"HouseObjects",1,1,"left","left",0.805000067,1,1,1,0,93,30,1,0.5,2,"stim/21.jpeg",2,1,"stim/21.jpeg",1,"right",1.442000151,2,2,1.983000278,1,3.085999966,93,0,0,NA,1,NA,1
"531","stim/objects/Instruments/oboe.png",382,30,375,0.9,"stim/51.jpeg",5,1,3,2,"Instruments",2,4,"right","right",0.611999989,1,1,1,0,NA,NA,NA,NA,NA,NA,NA,NA,NA,NA,NA,NA,NA,NA,NA,NA,NA,NA,NA,NA,NA,NA,NA,NA
"440","stim/objects/Instruments/hihat.png",383,30,376,0.7,"stim/34.jpeg",3,4,2,2,"Instruments",2,4,"right","right",0.703999996,1,1,1,0,NA,NA,NA,NA,NA,NA,NA,NA,NA,NA,NA,NA,NA,NA,NA,NA,NA,NA,NA,NA,NA,NA,NA,NA
"375","stim/objects/HouseObjects/pitcher2.png",384,30,377,0.1,"stim/51.jpeg",5,1,3,1,"HouseObjects",1,1,"left","right",0.669000149,0,0,1,0,22,30,1,0.1,1,"stim/51.jpeg",5,1,"stim/51.jpeg",1,"left",2.333000183,2,3,4.968000174,1,1.367000103,22,1,0,0,1,1,1
"388","stim/objects/HouseObjects/scale.png",385,30,378,0.5,"stim/22.jpeg",2,2,1,1,"HouseObjects",1,2,"left","",NA,0,0,1,0,151,30,1,0.5,2,"stim/22.jpeg",2,2,"stim/22.jpeg",2,"right",1.486000061,1,3,3.005000353,2,1.711000204,151,0,0,NA,1,NA,1
"435","stim/objects/Instruments/harmonica2.png",386,30,379,0.3,"stim/42.jpeg",4,2,2,1,"Instruments",2,2,"right","left",0.74000001,0,0,1,0,87,30,1,0.3,2,"stim/42.jpeg",4,2,"stim/42.jpeg",2,"left",1.537000179,2,3,3.693000078,2,1.822000265,87,1,0,0,1,1,1
"359","stim/objects/HouseObjects/pitcher.png",387,30,380,0.9,"stim/63.jpeg",6,3,3,2,"HouseObjects",1,3,"left","left",0.611999989,1,1,1,0,NA,NA,NA,NA,NA,NA,NA,NA,NA,NA,NA,NA,NA,NA,NA,NA,NA,NA,NA,NA,NA,NA,NA,NA
"265","stim/objects/HouseObjects/glassmop.png",388,30,381,0.5,"stim/22.jpeg",2,2,1,2,"HouseObjects",1,1,"left","left",0.663000107,1,1,1,0,NA,NA,NA,NA,NA,NA,NA,NA,NA,NA,NA,NA,NA,NA,NA,NA,NA,NA,NA,NA,NA,NA,NA,NA
"282","stim/objects/HouseObjects/iron2.png",389,30,382,0.7,"stim/43.jpeg",4,3,2,1,"HouseObjects",1,2,"left","left",0.684000015,1,1,1,0,76,30,1,0.7,1,"stim/43.jpeg",4,3,"stim/43.jpeg",2,"right",1.675000191,2,2,1.866000175,1,1.643000126,76,0,0,NA,0,NA,1
"481","stim/objects/Instruments/metronome.png",390,30,383,0.9,"stim/53.jpeg",5,3,3,2,"Instruments",2,2,"right","right",0.677000046,1,1,1,0,NA,NA,NA,NA,NA,NA,NA,NA,NA,NA,NA,NA,NA,NA,NA,NA,NA,NA,NA,NA,NA,NA,NA,NA
"517","stim/objects/Instruments/musicstand.png",391,30,384,0.9,"stim/51.jpeg",5,1,3,2,"Instruments",2,3,"right","right",0.763999939,1,1,1,0,NA,NA,NA,NA,NA,NA,NA,NA,NA,NA,NA,NA,NA,NA,NA,NA,NA,NA,NA,NA,NA,NA,NA,NA
"299","stim/objects/HouseObjects/knife.png",392,30,385,0.9,"stim/64.jpeg",6,4,3,2,"HouseObjects",1,2,"left","left",0.654999971,1,1,1,0,NA,NA,NA,NA,NA,NA,NA,NA,NA,NA,NA,NA,NA,NA,NA,NA,NA,NA,NA,NA,NA,NA,NA,NA
"369","stim/objects/HouseObjects/pitcher.png",393,30,386,0.9,"stim/63.jpeg",6,3,3,2,"HouseObjects",1,4,"left","left",0.608999968,1,1,1,0,NA,NA,NA,NA,NA,NA,NA,NA,NA,NA,NA,NA,NA,NA,NA,NA,NA,NA,NA,NA,NA,NA,NA,NA
"326","stim/objects/HouseObjects/match.png",394,30,387,0.9,"stim/62.jpeg",6,2,3,2,"HouseObjects",1,3,"left","left",0.628999949,1,1,1,0,NA,NA,NA,NA,NA,NA,NA,NA,NA,NA,NA,NA,NA,NA,NA,NA,NA,NA,NA,NA,NA,NA,NA,NA
"442","stim/objects/Instruments/hihat.png",395,30,388,0.7,"stim/32.jpeg",3,2,2,2,"Instruments",2,2,"right","right",0.676000118,1,1,1,0,NA,NA,NA,NA,NA,NA,NA,NA,NA,NA,NA,NA,NA,NA,NA,NA,NA,NA,NA,NA,NA,NA,NA,NA
"258","stim/objects/HouseObjects/flyswatter2.png",396,30,389,0.7,"stim/44.jpeg",4,4,2,1,"HouseObjects",1,1,"left","left",0.641000032,1,1,1,0,20,30,1,0.7,1,"stim/44.jpeg",4,4,"stim/44.jpeg",1,"left",1.808000088,3,2,5.756000042,4,2.526000261,20,1,0,0,0,0,1
"349","stim/objects/HouseObjects/pan.png",397,30,390,0.9,"stim/61.jpeg",6,1,3,2,"HouseObjects",1,1,"left","left",0.67599988,1,1,1,0,NA,NA,NA,NA,NA,NA,NA,NA,NA,NA,NA,NA,NA,NA,NA,NA,NA,NA,NA,NA,NA,NA,NA,NA
"279","stim/objects/HouseObjects/iron.png",398,30,391,0.7,"stim/44.jpeg",4,4,2,2,"HouseObjects",1,3,"left","left",0.657000065,1,1,1,0,NA,NA,NA,NA,NA,NA,NA,NA,NA,NA,NA,NA,NA,NA,NA,NA,NA,NA,NA,NA,NA,NA,NA,NA
"492","stim/objects/Instruments/musicsheet.png",399,30,392,0.9,"stim/51.jpeg",5,1,3,2,"Instruments",2,2,"right","right",0.667999983,1,1,1,0,NA,NA,NA,NA,NA,NA,NA,NA,NA,NA,NA,NA,NA,NA,NA,NA,NA,NA,NA,NA,NA,NA,NA,NA
"556","stim/objects/Instruments/timbal2.png",400,30,393,0.1,"stim/61.jpeg",6,1,3,1,"Instruments",2,2,"right","left",0.763999939,0,0,1,0,145,30,1,0.1,2,"stim/61.jpeg",6,1,"stim/61.jpeg",2,"right",1.340000153,2,2,2.284000158,3,1.97300005,145,0,0,NA,0,NA,1
"448","stim/objects/Instruments/laud.png",401,30,394,0.7,"stim/33.jpeg",3,3,2,2,"Instruments",2,3,"right","right",0.736999989,1,1,1,0,NA,NA,NA,NA,NA,NA,NA,NA,NA,NA,NA,NA,NA,NA,NA,NA,NA,NA,NA,NA,NA,NA,NA,NA
"412","stim/objects/Instruments/electricguitar.png",402,30,395,0.5,"stim/12.jpeg",1,2,1,2,"Instruments",2,2,"right","left",0.582999945,0,0,1,0,NA,NA,NA,NA,NA,NA,NA,NA,NA,NA,NA,NA,NA,NA,NA,NA,NA,NA,NA,NA,NA,NA,NA,NA
"249","stim/objects/HouseObjects/dishsoap2.png",403,30,396,0.3,"stim/34.jpeg",3,4,2,1,"HouseObjects",1,1,"left","left",0.775000095,1,1,1,0,136,30,1,0.3,1,"stim/34.jpeg",3,4,"stim/34.jpeg",1,"right",1.130000353,1,4,2.33100009,4,2.279000282,136,0,1,NA,0,NA,1
"498","stim/objects/Instruments/musicsheet.png",404,30,397,0.9,"stim/52.jpeg",5,2,3,2,"Instruments",2,2,"right","right",0.796999931,1,1,1,0,NA,NA,NA,NA,NA,NA,NA,NA,NA,NA,NA,NA,NA,NA,NA,NA,NA,NA,NA,NA,NA,NA,NA,NA
"506","stim/objects/Instruments/musicsheet2.png",405,30,398,0.9,"stim/51.jpeg",5,1,3,1,"Instruments",2,3,"right","right",0.66899991,1,1,1,0,104,30,1,0.9,2,"stim/51.jpeg",5,1,"stim/51.jpeg",3,"left",1.166000128,4,2,4.183000088,1,3.504000187,104,1,0,0,0,0,1
"289","stim/objects/HouseObjects/key.png",406,30,399,0.7,"stim/43.jpeg",4,3,2,2,"HouseObjects",1,3,"left","left",0.764000177,1,1,1,0,NA,NA,NA,NA,NA,NA,NA,NA,NA,NA,NA,NA,NA,NA,NA,NA,NA,NA,NA,NA,NA,NA,NA,NA
"347","stim/objects/HouseObjects/pan.png",407,30,400,0.9,"stim/64.jpeg",6,4,3,2,"HouseObjects",1,2,"left","left",0.720000029,1,1,1,0,NA,NA,NA,NA,NA,NA,NA,NA,NA,NA,NA,NA,NA,NA,NA,NA,NA,NA,NA,NA,NA,NA,NA,NA
"523","stim/objects/Instruments/musicstand2.png",408,30,401,0.9,"stim/52.jpeg",5,2,3,1,"Instruments",2,4,"right","right",0.664999962,1,1,1,0,62,30,1,0.9,2,"stim/52.jpeg",5,2,"stim/52.jpeg",4,"left",2.194000244,3,1,5.947000027,4,5.578999996,62,1,0,0,1,1,1
"358","stim/objects/HouseObjects/pan2.png",409,30,402,0.1,"stim/54.jpeg",5,4,3,1,"HouseObjects",1,3,"left","right",0.667999983,0,0,1,0,40,30,1,0.1,1,"stim/54.jpeg",5,4,"stim/54.jpeg",3,"right",1.258000135,2,4,4.111000061,1,2.935000181,40,0,1,NA,0,NA,1
"377","stim/objects/HouseObjects/recyclingbin2.png",410,30,403,0.1,"stim/52.jpeg",5,2,3,1,"HouseObjects",1,3,"left","right",0.738000154,0,0,1,0,46,30,1,0.1,1,"stim/52.jpeg",5,2,"stim/52.jpeg",3,"right",1.411000013,1,1,3.984000206,3,5.258000135,46,0,0,NA,1,NA,1
"365","stim/objects/HouseObjects/pitcher.png",411,30,404,0.9,"stim/64.jpeg",6,4,3,2,"HouseObjects",1,4,"left","left",0.635999918,1,1,1,0,NA,NA,NA,NA,NA,NA,NA,NA,NA,NA,NA,NA,NA,NA,NA,NA,NA,NA,NA,NA,NA,NA,NA,NA
"483","stim/objects/Instruments/metronome.png",412,30,405,0.9,"stim/51.jpeg",5,1,3,2,"Instruments",2,1,"right","right",0.733999968,1,1,1,0,NA,NA,NA,NA,NA,NA,NA,NA,NA,NA,NA,NA,NA,NA,NA,NA,NA,NA,NA,NA,NA,NA,NA,NA
"302","stim/objects/HouseObjects/knife.png",413,30,406,0.9,"stim/61.jpeg",6,1,3,2,"HouseObjects",1,2,"left","right",0.775000095,0,0,1,0,NA,NA,NA,NA,NA,NA,NA,NA,NA,NA,NA,NA,NA,NA,NA,NA,NA,NA,NA,NA,NA,NA,NA,NA
"509","stim/objects/Instruments/musicstand.png",414,30,407,0.9,"stim/52.jpeg",5,2,3,2,"Instruments",2,3,"right","left",0.659000158,0,0,1,0,NA,NA,NA,NA,NA,NA,NA,NA,NA,NA,NA,NA,NA,NA,NA,NA,NA,NA,NA,NA,NA,NA,NA,NA
"298","stim/objects/HouseObjects/knife.png",415,30,408,0.9,"stim/61.jpeg",6,1,3,2,"HouseObjects",1,1,"left","left",0.844000101,1,1,1,0,NA,NA,NA,NA,NA,NA,NA,NA,NA,NA,NA,NA,NA,NA,NA,NA,NA,NA,NA,NA,NA,NA,NA,NA
"510","stim/objects/Instruments/musicstand.png",416,30,409,0.9,"stim/51.jpeg",5,1,3,2,"Instruments",2,4,"right","right",0.653000116,1,1,1,0,NA,NA,NA,NA,NA,NA,NA,NA,NA,NA,NA,NA,NA,NA,NA,NA,NA,NA,NA,NA,NA,NA,NA,NA
"322","stim/objects/HouseObjects/lintroller.png",417,30,410,0.9,"stim/62.jpeg",6,2,3,2,"HouseObjects",1,1,"left","left",0.694000006,1,1,1,0,NA,NA,NA,NA,NA,NA,NA,NA,NA,NA,NA,NA,NA,NA,NA,NA,NA,NA,NA,NA,NA,NA,NA,NA
"458","stim/objects/Instruments/marimba.png",418,30,411,0.9,"stim/52.jpeg",5,2,3,2,"Instruments",2,2,"right","right",0.693000078,1,1,1,0,NA,NA,NA,NA,NA,NA,NA,NA,NA,NA,NA,NA,NA,NA,NA,NA,NA,NA,NA,NA,NA,NA,NA,NA
"260","stim/objects/HouseObjects/garbagebin.png",419,30,412,0.5,"stim/21.jpeg",2,1,1,2,"HouseObjects",1,4,"left","left",0.74000001,1,1,1,0,NA,NA,NA,NA,NA,NA,NA,NA,NA,NA,NA,NA,NA,NA,NA,NA,NA,NA,NA,NA,NA,NA,NA,NA
"384","stim/objects/HouseObjects/safetypin.png",420,30,413,0.5,"stim/13.jpeg",1,3,1,1,"HouseObjects",1,1,"left","left",0.680000067,1,1,1,0,187,30,1,0.5,1,"stim/13.jpeg",1,3,"stim/13.jpeg",1,"right",1.429000378,2,1,3.02300024,1,1.463000059,187,0,0,NA,1,NA,1
"503","stim/objects/Instruments/musicsheet.png",421,30,414,0.9,"stim/52.jpeg",5,2,3,2,"Instruments",2,4,"right","right",0.660000086,1,1,1,0,NA,NA,NA,NA,NA,NA,NA,NA,NA,NA,NA,NA,NA,NA,NA,NA,NA,NA,NA,NA,NA,NA,NA,NA
"569","stim/objects/Instruments/xylophone.png",422,30,415,0.7,"stim/32.jpeg",3,2,2,1,"Instruments",2,2,"right","right",0.72300005,1,1,1,0,54,30,1,0.7,2,"stim/32.jpeg",3,2,"stim/32.jpeg",2,"left",2.114000082,2,4,3.069000244,1,1.758000135,54,1,0,0,0,0,1
"431","stim/objects/Instruments/guitarcase.png",423,30,416,0.5,"stim/22.jpeg",2,2,1,2,"Instruments",2,2,"right","left",0.65899992,0,0,1,0,NA,NA,NA,NA,NA,NA,NA,NA,NA,NA,NA,NA,NA,NA,NA,NA,NA,NA,NA,NA,NA,NA,NA,NA
"345","stim/objects/HouseObjects/pan.png",424,30,417,0.9,"stim/63.jpeg",6,3,3,2,"HouseObjects",1,4,"left","left",0.781999826,1,1,1,0,NA,NA,NA,NA,NA,NA,NA,NA,NA,NA,NA,NA,NA,NA,NA,NA,NA,NA,NA,NA,NA,NA,NA,NA
"543","stim/objects/Instruments/pipepiano.png",425,30,418,0.5,"stim/13.jpeg",1,3,1,1,"Instruments",2,2,"right","left",0.598999977,0,0,1,0,16,30,1,0.5,1,"stim/13.jpeg",1,3,"stim/13.jpeg",2,"left",2.643000126,3,2,6.952000141,1,2.419000149,16,1,0,0,0,0,1
"332","stim/objects/HouseObjects/match.png",426,30,419,0.9,"stim/61.jpeg",6,1,3,2,"HouseObjects",1,2,"left","left",0.697000027,1,1,1,0,NA,NA,NA,NA,NA,NA,NA,NA,NA,NA,NA,NA,NA,NA,NA,NA,NA,NA,NA,NA,NA,NA,NA,NA
"533","stim/objects/Instruments/oboe.png",427,30,420,0.9,"stim/54.jpeg",5,4,3,2,"Instruments",2,2,"right","right",0.758000135,1,1,1,0,NA,NA,NA,NA,NA,NA,NA,NA,NA,NA,NA,NA,NA,NA,NA,NA,NA,NA,NA,NA,NA,NA,NA,NA
"554","stim/objects/Instruments/tambourine2.png",428,30,421,0.1,"stim/64.jpeg",6,4,3,1,"Instruments",2,4,"right","left",0.871999979,0,0,1,0,175,30,1,0.1,2,"stim/64.jpeg",6,4,"stim/64.jpeg",4,"left",1.649000168,2,1,1.516000271,1,1.752000093,175,1,0,0,0,0,1
"256","stim/objects/HouseObjects/flyswatter.png",429,30,422,0.5,"stim/24.jpeg",2,4,1,2,"HouseObjects",1,2,"left","left",0.713000059,1,1,1,0,NA,NA,NA,NA,NA,NA,NA,NA,NA,NA,NA,NA,NA,NA,NA,NA,NA,NA,NA,NA,NA,NA,NA,NA
"330","stim/objects/HouseObjects/match.png",430,30,423,0.9,"stim/61.jpeg",6,1,3,2,"HouseObjects",1,3,"left","left",0.646999836,1,1,1,0,NA,NA,NA,NA,NA,NA,NA,NA,NA,NA,NA,NA,NA,NA,NA,NA,NA,NA,NA,NA,NA,NA,NA,NA
"372","stim/objects/HouseObjects/pitcher.png",431,30,424,0.9,"stim/64.jpeg",6,4,3,2,"HouseObjects",1,2,"left","left",0.617000103,1,1,1,0,NA,NA,NA,NA,NA,NA,NA,NA,NA,NA,NA,NA,NA,NA,NA,NA,NA,NA,NA,NA,NA,NA,NA,NA
"363","stim/objects/HouseObjects/pitcher.png",432,30,425,0.9,"stim/63.jpeg",6,3,3,2,"HouseObjects",1,3,"left","left",0.603999853,1,1,1,0,NA,NA,NA,NA,NA,NA,NA,NA,NA,NA,NA,NA,NA,NA,NA,NA,NA,NA,NA,NA,NA,NA,NA,NA
"421","stim/objects/Instruments/frenchhorn.png",433,30,426,0.5,"stim/22.jpeg",2,2,1,2,"Instruments",2,4,"right","left",0.695999861,0,0,1,0,NA,NA,NA,NA,NA,NA,NA,NA,NA,NA,NA,NA,NA,NA,NA,NA,NA,NA,NA,NA,NA,NA,NA,NA
"405","stim/objects/HouseObjects/wateringcan2.png",434,30,427,0.9,"stim/62.jpeg",6,2,3,1,"HouseObjects",1,4,"left","left",0.657999992,1,1,1,0,88,30,1,0.9,1,"stim/62.jpeg",6,2,"stim/62.jpeg",4,"right",1.983000278,1,2,1.55700016,2,1.860000372,88,0,1,NA,0,NA,1
"452","stim/objects/Instruments/maraca.png",435,30,428,0.7,"stim/33.jpeg",3,3,2,2,"Instruments",2,4,"right","right",0.705999851,1,1,1,0,NA,NA,NA,NA,NA,NA,NA,NA,NA,NA,NA,NA,NA,NA,NA,NA,NA,NA,NA,NA,NA,NA,NA,NA
"353","stim/objects/HouseObjects/pan.png",436,30,429,0.9,"stim/62.jpeg",6,2,3,2,"HouseObjects",1,3,"left","left",0.546999931,1,1,1,0,NA,NA,NA,NA,NA,NA,NA,NA,NA,NA,NA,NA,NA,NA,NA,NA,NA,NA,NA,NA,NA,NA,NA,NA
"512","stim/objects/Instruments/musicstand.png",437,30,430,0.9,"stim/54.jpeg",5,4,3,2,"Instruments",2,4,"right","right",0.738000154,1,1,1,0,NA,NA,NA,NA,NA,NA,NA,NA,NA,NA,NA,NA,NA,NA,NA,NA,NA,NA,NA,NA,NA,NA,NA,NA
"314","stim/objects/HouseObjects/lintroller.png",438,30,431,0.9,"stim/62.jpeg",6,2,3,2,"HouseObjects",1,3,"left","left",0.68900013,1,1,1,0,NA,NA,NA,NA,NA,NA,NA,NA,NA,NA,NA,NA,NA,NA,NA,NA,NA,NA,NA,NA,NA,NA,NA,NA
"439","stim/objects/Instruments/harp2.png",439,30,432,0.3,"stim/43.jpeg",4,3,2,1,"Instruments",2,4,"right","left",0.644000053,0,0,1,0,98,30,1,0.3,2,"stim/43.jpeg",4,3,"stim/43.jpeg",4,"right",2.04700017,2,2,1.84100008,4,2.085000038,98,0,0,NA,1,NA,1
"316","stim/objects/HouseObjects/lintroller.png",440,30,433,0.9,"stim/61.jpeg",6,1,3,2,"HouseObjects",1,3,"left","left",0.595999956,1,1,1,0,NA,NA,NA,NA,NA,NA,NA,NA,NA,NA,NA,NA,NA,NA,NA,NA,NA,NA,NA,NA,NA,NA,NA,NA
"354","stim/objects/HouseObjects/pan.png",441,30,434,0.9,"stim/62.jpeg",6,2,3,2,"HouseObjects",1,4,"left","left",0.694000006,1,1,1,0,NA,NA,NA,NA,NA,NA,NA,NA,NA,NA,NA,NA,NA,NA,NA,NA,NA,NA,NA,NA,NA,NA,NA,NA
"301","stim/objects/HouseObjects/knife.png",442,30,435,0.9,"stim/64.jpeg",6,4,3,2,"HouseObjects",1,2,"left","left",0.631999969,1,1,1,0,NA,NA,NA,NA,NA,NA,NA,NA,NA,NA,NA,NA,NA,NA,NA,NA,NA,NA,NA,NA,NA,NA,NA,NA
"381","stim/objects/HouseObjects/rubbergloves2.png",443,30,436,0.1,"stim/54.jpeg",5,4,3,1,"HouseObjects",1,1,"left","right",0.656999826,0,0,1,0,137,30,1,0.1,1,"stim/54.jpeg",5,4,"stim/54.jpeg",1,"right",1.658000231,2,1,2.051000357,2,2.434000254,137,0,0,NA,0,NA,1
"464","stim/objects/Instruments/marimba.png",444,30,437,0.9,"stim/51.jpeg",5,1,3,2,"Instruments",2,4,"right","right",0.917000055,1,1,1,0,NA,NA,NA,NA,NA,NA,NA,NA,NA,NA,NA,NA,NA,NA,NA,NA,NA,NA,NA,NA,NA,NA,NA,NA
"570","stim/objects/Instruments/xylophone2.png",445,30,438,0.1,"stim/64.jpeg",6,4,3,1,"Instruments",2,4,"right","left",0.551999807,0,0,1,0,65,30,1,0.1,2,"stim/64.jpeg",6,4,"stim/64.jpeg",4,"right",1.440000057,1,2,2.63100028,1,1.911000013,65,0,0,NA,0,NA,1
"346","stim/objects/HouseObjects/pan.png",446,30,439,0.9,"stim/64.jpeg",6,4,3,2,"HouseObjects",1,4,"left","left",0.616000175,1,1,1,0,NA,NA,NA,NA,NA,NA,NA,NA,NA,NA,NA,NA,NA,NA,NA,NA,NA,NA,NA,NA,NA,NA,NA,NA
"364","stim/objects/HouseObjects/pitcher.png",447,30,440,0.9,"stim/61.jpeg",6,1,3,2,"HouseObjects",1,1,"left","left",0.681999922,1,1,1,0,NA,NA,NA,NA,NA,NA,NA,NA,NA,NA,NA,NA,NA,NA,NA,NA,NA,NA,NA,NA,NA,NA,NA,NA
"555","stim/objects/Instruments/timbal.png",448,30,441,0.5,"stim/22.jpeg",2,2,1,1,"Instruments",2,2,"right","left",0.713000059,0,0,1,0,29,30,1,0.5,2,"stim/22.jpeg",2,2,"stim/22.jpeg",2,"left",1.973000288,2,2,4.072000265,2,4.878000021,29,1,1,1,1,1,1
"406","stim/objects/Instruments/drums.png",449,30,442,0.5,"stim/14.jpeg",1,4,1,2,"Instruments",2,2,"right","left",0.713000059,0,0,1,0,NA,NA,NA,NA,NA,NA,NA,NA,NA,NA,NA,NA,NA,NA,NA,NA,NA,NA,NA,NA,NA,NA,NA,NA
"244","stim/objects/HouseObjects/cushion.png",450,30,443,0.5,"stim/13.jpeg",1,3,1,2,"HouseObjects",1,3,"left","left",0.694000006,1,1,1,0,NA,NA,NA,NA,NA,NA,NA,NA,NA,NA,NA,NA,NA,NA,NA,NA,NA,NA,NA,NA,NA,NA,NA,NA
"385","stim/objects/HouseObjects/safetypin2.png",451,30,444,0.1,"stim/52.jpeg",5,2,3,1,"HouseObjects",1,4,"left","right",0.625999928,0,0,1,0,66,30,1,0.1,1,"stim/52.jpeg",5,2,"stim/52.jpeg",4,"left",1.285000086,4,4,4.13100028,3,2.747000217,66,1,0,0,0,0,1
"530","stim/objects/Instruments/oboe.png",452,30,445,0.9,"stim/53.jpeg",5,3,3,2,"Instruments",2,1,"right","right",0.756999969,1,1,1,0,NA,NA,NA,NA,NA,NA,NA,NA,NA,NA,NA,NA,NA,NA,NA,NA,NA,NA,NA,NA,NA,NA,NA,NA
"355","stim/objects/HouseObjects/pan.png",453,30,446,0.9,"stim/61.jpeg",6,1,3,2,"HouseObjects",1,4,"left","left",0.655999899,1,1,1,0,NA,NA,NA,NA,NA,NA,NA,NA,NA,NA,NA,NA,NA,NA,NA,NA,NA,NA,NA,NA,NA,NA,NA,NA
"461","stim/objects/Instruments/marimba.png",454,30,447,0.9,"stim/54.jpeg",5,4,3,2,"Instruments",2,2,"right","right",0.809999943,1,1,1,0,NA,NA,NA,NA,NA,NA,NA,NA,NA,NA,NA,NA,NA,NA,NA,NA,NA,NA,NA,NA,NA,NA,NA,NA
"419","stim/objects/Instruments/flutetrans.png",455,30,448,0.5,"stim/14.jpeg",1,4,1,2,"Instruments",2,4,"right","left",0.69900012,0,0,1,0,NA,NA,NA,NA,NA,NA,NA,NA,NA,NA,NA,NA,NA,NA,NA,NA,NA,NA,NA,NA,NA,NA,NA,NA
"548","stim/objects/Instruments/record2.png",456,30,449,0.9,"stim/52.jpeg",5,2,3,1,"Instruments",2,2,"right","right",0.714999914,1,1,1,0,157,30,1,0.9,2,"stim/52.jpeg",5,2,"stim/52.jpeg",2,"right",1.575000286,1,2,1.733000278,1,2.588000298,157,0,1,NA,0,NA,1
"254","stim/objects/HouseObjects/dustpan.png",457,30,450,0.5,"stim/12.jpeg",1,2,1,2,"HouseObjects",1,3,"left","left",0.726999998,1,1,1,0,NA,NA,NA,NA,NA,NA,NA,NA,NA,NA,NA,NA,NA,NA,NA,NA,NA,NA,NA,NA,NA,NA,NA,NA
"513","stim/objects/Instruments/musicstand.png",458,30,451,0.9,"stim/51.jpeg",5,1,3,2,"Instruments",2,3,"right","right",0.671000004,1,1,1,0,NA,NA,NA,NA,NA,NA,NA,NA,NA,NA,NA,NA,NA,NA,NA,NA,NA,NA,NA,NA,NA,NA,NA,NA
"284","stim/objects/HouseObjects/ironingboard.png",459,30,452,0.7,"stim/44.jpeg",4,4,2,2,"HouseObjects",1,2,"left","left",0.861999989,1,1,1,0,NA,NA,NA,NA,NA,NA,NA,NA,NA,NA,NA,NA,NA,NA,NA,NA,NA,NA,NA,NA,NA,NA,NA,NA
"268","stim/objects/HouseObjects/hairdryer.png",460,30,453,0.5,"stim/23.jpeg",2,3,1,2,"HouseObjects",1,4,"left","left",0.88499999,1,1,1,0,NA,NA,NA,NA,NA,NA,NA,NA,NA,NA,NA,NA,NA,NA,NA,NA,NA,NA,NA,NA,NA,NA,NA,NA
"297","stim/objects/HouseObjects/knife.png",461,30,454,0.9,"stim/62.jpeg",6,2,3,2,"HouseObjects",1,4,"left","left",0.805999994,1,1,1,0,NA,NA,NA,NA,NA,NA,NA,NA,NA,NA,NA,NA,NA,NA,NA,NA,NA,NA,NA,NA,NA,NA,NA,NA
"367","stim/objects/HouseObjects/pitcher.png",462,30,455,0.9,"stim/61.jpeg",6,1,3,2,"HouseObjects",1,3,"left","left",0.607999802,1,1,1,0,NA,NA,NA,NA,NA,NA,NA,NA,NA,NA,NA,NA,NA,NA,NA,NA,NA,NA,NA,NA,NA,NA,NA,NA
"417","stim/objects/Instruments/flute2.png",463,30,456,0.7,"stim/32.jpeg",3,2,2,1,"Instruments",2,2,"right","right",0.72300005,1,1,1,0,153,30,1,0.7,2,"stim/32.jpeg",3,2,"stim/32.jpeg",2,"right",1.309000254,1,4,3.163000107,4,1.737000227,153,0,0,NA,0,NA,1
"399","stim/objects/HouseObjects/thread2.png",464,30,457,0.9,"stim/63.jpeg",6,3,3,1,"HouseObjects",1,3,"left","left",0.826999903,1,1,1,0,150,30,1,0.9,1,"stim/63.jpeg",6,3,"stim/63.jpeg",3,"right",1.088000059,2,2,3.097000122,3,2.923000097,150,0,0,NA,1,NA,1
"536","stim/objects/Instruments/oboe.png",465,30,458,0.9,"stim/51.jpeg",5,1,3,2,"Instruments",2,3,"right","right",0.647000074,1,1,1,0,NA,NA,NA,NA,NA,NA,NA,NA,NA,NA,NA,NA,NA,NA,NA,NA,NA,NA,NA,NA,NA,NA,NA,NA
"368","stim/objects/HouseObjects/pitcher.png",466,30,459,0.9,"stim/63.jpeg",6,3,3,2,"HouseObjects",1,2,"left","left",0.626999855,1,1,1,0,NA,NA,NA,NA,NA,NA,NA,NA,NA,NA,NA,NA,NA,NA,NA,NA,NA,NA,NA,NA,NA,NA,NA,NA
