"","participant","OvsN","PE_level","object_cat","obj_file","scn_file","corr_scn_cat","corr_scn_inst","scn_file.1","corr_loc","key_resp_id.keys","key_resp_id.rt","key_resp_conf.keys","key_resp_assoc.keys","key_resp_assoc.rt","key_resp_loc.keys","key_resp_loc.rt","trialN","id_acc","assoc.acc","cond_assoc","loc.acc","cond_loc","group"
"1",30,1,0.7,2,"stim/objects/Instruments/drums2.png","stim/33.jpeg",3,3,"stim/33.jpeg",1,"left",2.749000311,4,2,9.177000046,1,2.493000031,1,1,0,0,1,1,1
"2",30,2,0,2,"stim/objects/Instruments/vuvuzela3.png","",0,0,"",0,"right",2.164000273,NA,NA,NA,NA,NA,2,1,NA,NA,NA,NA,1
"3",30,2,0,2,"stim/objects/Instruments/electricdrumset3.png","",0,0,"",0,"left",3.4150002,NA,NA,NA,NA,NA,3,0,NA,NA,NA,NA,1
"4",30,1,0.3,2,"stim/objects/Instruments/laud2.png","stim/42.jpeg",4,2,"stim/42.jpeg",3,"left",4.721000195,2,2,5.938000202,3,2.83100009,4,1,1,1,1,1,1
"5",30,1,0.5,2,"stim/objects/HouseObjects/teapot.png","stim/21.jpeg",2,1,"stim/21.jpeg",4,"left",2.014000177,3,1,6.998000145,4,2.082000256,5,1,1,1,1,1,1
"6",30,1,0.5,2,"stim/objects/HouseObjects/spraybottle.png","stim/24.jpeg",2,4,"stim/24.jpeg",3,"right",3.315999985,3,1,6.6650002,2,2.770000219,6,0,0,NA,0,NA,1
"7",30,2,0,2,"stim/objects/Instruments/frenchhorn4.png","",0,0,"",0,"left",4.957000256,NA,NA,NA,NA,NA,7,0,NA,NA,NA,NA,1
"8",30,2,0,1,"stim/objects/HouseObjects/flyswatter3.png","",0,0,"",0,"right",4.106000185,NA,NA,NA,NA,NA,8,1,NA,NA,NA,NA,1
"9",30,2,0,1,"stim/objects/HouseObjects/vacuumcleaner3.png","",0,0,"",0,"right",3.675000191,NA,NA,NA,NA,NA,9,1,NA,NA,NA,NA,1
"10",30,2,0,1,"stim/objects/HouseObjects/glassmop4.png","",0,0,"",0,"right",2.360000134,NA,NA,NA,NA,NA,10,1,NA,NA,NA,NA,1
"11",30,1,0.9,2,"stim/objects/Instruments/panflute2.png","stim/54.jpeg",5,4,"stim/54.jpeg",3,"right",3.396000147,2,4,6.045000076,2,3.321000099,11,0,1,NA,0,NA,1
"12",30,2,0,2,"stim/objects/Instruments/maraca3.png","",0,0,"",0,"left",2.410000086,NA,NA,NA,NA,NA,12,0,NA,NA,NA,NA,1
"13",30,1,0.7,1,"stim/objects/HouseObjects/hairdryer2.png","stim/44.jpeg",4,4,"stim/44.jpeg",3,"left",1.910000086,2,3,4.407000303,2,2.34100008,13,1,0,0,0,0,1
"14",30,2,0,1,"stim/objects/HouseObjects/ironingboard4.png","",0,0,"",0,"right",1.82400012,NA,NA,NA,NA,NA,14,1,NA,NA,NA,NA,1
"15",30,1,0.3,2,"stim/objects/Instruments/frenchhorn2.png","stim/42.jpeg",4,2,"stim/42.jpeg",1,"right",1.754000187,1,2,4.553000212,2,2.389000177,15,0,1,NA,0,NA,1
"16",30,1,0.5,1,"stim/objects/Instruments/pipepiano.png","stim/13.jpeg",1,3,"stim/13.jpeg",2,"left",2.643000126,3,2,6.952000141,1,2.419000149,16,1,0,0,0,0,1
"17",30,1,0.1,2,"stim/objects/Instruments/tuba2.png","stim/61.jpeg",6,1,"stim/61.jpeg",2,"right",2.154000282,2,4,3.733999968,2,2.070000172,17,0,0,NA,1,NA,1
"18",30,2,0,1,"stim/objects/HouseObjects/remote3.png","",0,0,"",0,"right",2.144000292,NA,NA,NA,NA,NA,18,1,NA,NA,NA,NA,1
"19",30,2,0,1,"stim/objects/HouseObjects/doormat3.png","",0,0,"",0,"right",1.670000315,NA,NA,NA,NA,NA,19,1,NA,NA,NA,NA,1
"20",30,1,0.7,1,"stim/objects/HouseObjects/flyswatter2.png","stim/44.jpeg",4,4,"stim/44.jpeg",1,"left",1.808000088,3,2,5.756000042,4,2.526000261,20,1,0,0,0,0,1
"21",30,1,0.5,1,"stim/objects/Instruments/panflute.png","stim/12.jpeg",1,2,"stim/12.jpeg",1,"left",2.044000149,3,1,7.117000341,3,1.82400012,21,1,0,0,0,0,1
"22",30,1,0.1,1,"stim/objects/HouseObjects/pitcher2.png","stim/51.jpeg",5,1,"stim/51.jpeg",1,"left",2.333000183,2,3,4.968000174,1,1.367000103,22,1,0,0,1,1,1
"23",30,2,0,1,"stim/objects/HouseObjects/thermometer3.png","",0,0,"",0,"right",1.416000128,NA,NA,NA,NA,NA,23,1,NA,NA,NA,NA,1
"24",30,1,0.1,2,"stim/objects/Instruments/trombone2.png","stim/63.jpeg",6,3,"stim/63.jpeg",4,"right",2.094000101,1,4,4.265000105,2,3.748000145,24,0,0,NA,0,NA,1
"25",30,2,0,2,"stim/objects/Instruments/flute3.png","",0,0,"",0,"right",1.990000248,NA,NA,NA,NA,NA,25,1,NA,NA,NA,NA,1
"26",30,2,0,2,"stim/objects/Instruments/xylophone3.png","",0,0,"",0,"right",1.588000059,NA,NA,NA,NA,NA,26,1,NA,NA,NA,NA,1
"27",30,1,0.5,1,"stim/objects/HouseObjects/remote.png","stim/14.jpeg",1,4,"stim/14.jpeg",1,"left",1.565000296,3,1,4.366000175,1,2.680999994,27,1,0,0,1,1,1
"28",30,2,0,2,"stim/objects/Instruments/gong3.png","",0,0,"",0,"right",1.715000153,NA,NA,NA,NA,NA,28,1,NA,NA,NA,NA,1
"29",30,1,0.5,2,"stim/objects/Instruments/timbal.png","stim/22.jpeg",2,2,"stim/22.jpeg",2,"left",1.973000288,2,2,4.072000265,2,4.878000021,29,1,1,1,1,1,1
"30",30,2,0,1,"stim/objects/HouseObjects/iron4.png","",0,0,"",0,"right",1.613000154,NA,NA,NA,NA,NA,30,1,NA,NA,NA,NA,1
"31",30,2,0,2,"stim/objects/Instruments/maraca4.png","",0,0,"",0,"right",1.838999987,NA,NA,NA,NA,NA,31,1,NA,NA,NA,NA,1
"32",30,1,0.5,2,"stim/objects/Instruments/trombone.png","stim/24.jpeg",2,4,"stim/24.jpeg",1,"left",1.34800005,3,1,3.386000156,2,2.985000372,32,1,0,0,0,0,1
"33",30,2,0,1,"stim/objects/HouseObjects/safetypin3.png","",0,0,"",0,"left",1.554000139,NA,NA,NA,NA,NA,33,0,NA,NA,NA,NA,1
"34",30,2,0,1,"stim/objects/HouseObjects/garbagebin4.png","",0,0,"",0,"right",2.394000053,NA,NA,NA,NA,NA,34,1,NA,NA,NA,NA,1
"35",30,1,0.5,1,"stim/objects/HouseObjects/recyclingbin.png","stim/13.jpeg",1,3,"stim/13.jpeg",4,"left",1.18900013,4,1,3.122000217,4,2.126000166,35,1,0,0,1,1,1
"36",30,2,0,2,"stim/objects/Instruments/electricguitar4.png","",0,0,"",0,"right",1.860000134,NA,NA,NA,NA,NA,36,1,NA,NA,NA,NA,1
"37",30,2,0,2,"stim/objects/Instruments/trombone3.png","",0,0,"",0,"left",1.375000238,NA,NA,NA,NA,NA,37,0,NA,NA,NA,NA,1
"38",30,1,0.7,2,"stim/objects/Instruments/violin.png","stim/34.jpeg",3,4,"stim/34.jpeg",4,"right",1.848000288,2,2,6.133000135,4,2.419000149,38,0,0,NA,1,NA,1
"39",30,1,0.1,1,"stim/objects/HouseObjects/match2.png","stim/53.jpeg",5,3,"stim/53.jpeg",3,"left",1.80700016,3,3,7.299000263,2,2.537000179,39,1,1,1,0,0,1
"40",30,1,0.1,1,"stim/objects/HouseObjects/pan2.png","stim/54.jpeg",5,4,"stim/54.jpeg",3,"right",1.258000135,2,4,4.111000061,1,2.935000181,40,0,1,NA,0,NA,1
"41",30,1,0.1,2,"stim/objects/Instruments/trumpet2.png","stim/64.jpeg",6,4,"stim/64.jpeg",4,"left",1.406000137,3,1,5.203000069,1,2.146000147,41,1,0,0,0,0,1
"42",30,1,0.7,2,"stim/objects/Instruments/trumpet.png","stim/32.jpeg",3,2,"stim/32.jpeg",2,"left",1.319000006,3,1,3.38100028,4,2.195000172,42,1,0,0,0,0,1
"43",30,2,0,2,"stim/objects/Instruments/triangle3.png","",0,0,"",0,"left",1.45600009,NA,NA,NA,NA,NA,43,0,NA,NA,NA,NA,1
"44",30,1,0.3,2,"stim/objects/Instruments/guitarcase2.png","stim/41.jpeg",4,1,"stim/41.jpeg",4,"left",1.467000246,3,4,5.205000162,3,2.37100029,44,1,0,0,0,0,1
"45",30,1,0.3,1,"stim/objects/HouseObjects/doormat2.png","stim/31.jpeg",3,1,"stim/31.jpeg",3,"right",2.210000038,2,2,6.034000158,1,1.502000093,45,0,0,NA,0,NA,1
"46",30,1,0.1,1,"stim/objects/HouseObjects/recyclingbin2.png","stim/52.jpeg",5,2,"stim/52.jpeg",3,"right",1.411000013,1,1,3.984000206,3,5.258000135,46,0,0,NA,1,NA,1
"47",30,2,0,1,"stim/objects/HouseObjects/pitcher3.png","",0,0,"",0,"right",1.317000151,NA,NA,NA,NA,NA,47,1,NA,NA,NA,NA,1
"48",30,2,0,2,"stim/objects/Instruments/musicstand3.png","",0,0,"",0,"right",1.532000303,NA,NA,NA,NA,NA,48,1,NA,NA,NA,NA,1
"49",30,2,0,1,"stim/objects/HouseObjects/knife3.png","",0,0,"",0,"right",1.810000181,NA,NA,NA,NA,NA,49,1,NA,NA,NA,NA,1
"50",30,2,0,2,"stim/objects/Instruments/flute4.png","",0,0,"",0,"right",2.243000031,NA,NA,NA,NA,NA,50,1,NA,NA,NA,NA,1
"51",30,2,0,2,"stim/objects/Instruments/drums4.png","",0,0,"",0,"right",2.38800025,NA,NA,NA,NA,NA,51,1,NA,NA,NA,NA,1
"52",30,2,0,1,"stim/objects/HouseObjects/pan3.png","",0,0,"",0,"left",1.288000345,NA,NA,NA,NA,NA,52,0,NA,NA,NA,NA,1
"53",30,1,0.1,2,"stim/objects/Instruments/violin2.png","stim/62.jpeg",6,2,"stim/62.jpeg",4,"left",2.759000063,3,3,3.983000278,3,2.55700016,53,1,0,0,0,0,1
"54",30,1,0.7,2,"stim/objects/Instruments/xylophone.png","stim/32.jpeg",3,2,"stim/32.jpeg",2,"left",2.114000082,2,4,3.069000244,1,1.758000135,54,1,0,0,0,0,1
"55",30,1,0.9,2,"stim/objects/Instruments/marimba2.png","stim/53.jpeg",5,3,"stim/53.jpeg",1,"left",1.791000128,2,4,5.999000311,4,2.542000055,55,1,0,0,0,0,1
"56",30,2,0,2,"stim/objects/Instruments/guitarcase3.png","",0,0,"",0,"right",1.338000298,NA,NA,NA,NA,NA,56,1,NA,NA,NA,NA,1
"57",30,1,0.5,2,"stim/objects/Instruments/triangle.png","stim/23.jpeg",2,3,"stim/23.jpeg",2,"left",1.323000193,4,4,5.261000156,2,1.887000084,57,1,0,0,1,1,1
"58",30,2,0,2,"stim/objects/Instruments/flutetrans4.png","",0,0,"",0,"left",1.576000214,NA,NA,NA,NA,NA,58,0,NA,NA,NA,NA,1
"59",30,1,0.3,2,"stim/objects/Instruments/gong2.png","stim/43.jpeg",4,3,"stim/43.jpeg",4,"left",1.579000235,3,4,5.022000313,4,2.137000084,59,1,0,0,1,1,1
"60",30,2,0,1,"stim/objects/HouseObjects/glass4.png","",0,0,"",0,"right",1.565000296,NA,NA,NA,NA,NA,60,1,NA,NA,NA,NA,1
"61",30,1,0.9,1,"stim/objects/HouseObjects/saw2.png","stim/61.jpeg",6,1,"stim/61.jpeg",1,"left",2.240000248,1,1,2.729000092,1,5.346000195,61,1,1,1,1,1,1
"62",30,1,0.9,2,"stim/objects/Instruments/musicstand2.png","stim/52.jpeg",5,2,"stim/52.jpeg",4,"left",2.194000244,3,1,5.947000027,4,5.578999996,62,1,0,0,1,1,1
"63",30,1,0.7,1,"stim/objects/HouseObjects/ironingboard2.png","stim/44.jpeg",4,4,"stim/44.jpeg",1,"left",1.644000053,3,2,2.163000107,2,1.684000254,63,1,0,0,0,0,1
"64",30,2,0,2,"stim/objects/Instruments/pipepiano3.png","",0,0,"",0,"right",1.494000196,NA,NA,NA,NA,NA,64,1,NA,NA,NA,NA,1
"65",30,1,0.1,2,"stim/objects/Instruments/xylophone2.png","stim/64.jpeg",6,4,"stim/64.jpeg",4,"right",1.440000057,1,2,2.63100028,1,1.911000013,65,0,0,NA,0,NA,1
"66",30,1,0.1,1,"stim/objects/HouseObjects/safetypin2.png","stim/52.jpeg",5,2,"stim/52.jpeg",4,"left",1.285000086,4,4,4.13100028,3,2.747000217,66,1,0,0,0,0,1
"67",30,1,0.7,2,"stim/objects/Instruments/electricdrumset2.png","stim/34.jpeg",3,4,"stim/34.jpeg",1,"left",1.53000021,3,2,2.767000198,2,1.761000156,67,1,0,0,0,0,1
"68",30,2,0,2,"stim/objects/Instruments/oboe3.png","",0,0,"",0,"left",1.738000154,NA,NA,NA,NA,NA,68,0,NA,NA,NA,NA,1
"69",30,2,0,1,"stim/objects/HouseObjects/thread3.png","",0,0,"",0,"right",2.234000206,NA,NA,NA,NA,NA,69,1,NA,NA,NA,NA,1
"70",30,1,0.5,2,"stim/objects/Instruments/speaker.png","stim/24.jpeg",2,4,"stim/24.jpeg",1,"left",1.263999939,4,1,3.296000242,1,1.796000242,70,1,0,0,1,1,1
"71",30,1,0.3,1,"stim/objects/HouseObjects/dustpan2.png","stim/32.jpeg",3,2,"stim/32.jpeg",3,"left",1.822000265,2,3,3.019000292,2,1.592000008,71,1,0,0,0,0,1
"72",30,1,0.3,1,"stim/objects/HouseObjects/vacuumcleaner.png","stim/34.jpeg",3,4,"stim/34.jpeg",3,"left",1.383000374,2,1,1.890000105,1,2.095000267,72,1,0,0,0,0,1
"73",30,1,0.1,2,"stim/objects/Instruments/speaker2.png","stim/63.jpeg",6,3,"stim/63.jpeg",2,"right",1.418000221,2,3,1.59800005,3,2.906000137,73,0,1,NA,0,NA,1
"74",30,1,0.3,1,"stim/objects/HouseObjects/wateringcan.png","stim/31.jpeg",3,1,"stim/31.jpeg",1,"right",1.319000244,1,2,2.338000059,2,2.178000212,74,0,0,NA,0,NA,1
"75",30,2,0,1,"stim/objects/HouseObjects/handvacuum4.png","",0,0,"",0,"right",1.843000174,NA,NA,NA,NA,NA,75,1,NA,NA,NA,NA,1
"76",30,1,0.7,1,"stim/objects/HouseObjects/iron2.png","stim/43.jpeg",4,3,"stim/43.jpeg",2,"right",1.675000191,2,2,1.866000175,1,1.643000126,76,0,0,NA,0,NA,1
"77",30,1,0.3,2,"stim/objects/Instruments/maraca2.png","stim/43.jpeg",4,3,"stim/43.jpeg",2,"left",1.788000345,2,1,1.638000011,1,1.717000246,77,1,0,0,0,0,1
"78",30,2,0,2,"stim/objects/Instruments/drums3.png","",0,0,"",0,"right",1.509000063,NA,NA,NA,NA,NA,78,1,NA,NA,NA,NA,1
"79",30,1,0.9,1,"stim/objects/HouseObjects/spraybottle2.png","stim/64.jpeg",6,4,"stim/64.jpeg",4,"right",1.387000322,1,4,2.810000181,2,3.069000244,79,0,1,NA,0,NA,1
"80",30,2,0,2,"stim/objects/Instruments/tambourine3.png","",0,0,"",0,"right",1.380000114,NA,NA,NA,NA,NA,80,1,NA,NA,NA,NA,1
"81",30,1,0.5,2,"stim/objects/HouseObjects/sponge.png","stim/23.jpeg",2,3,"stim/23.jpeg",3,"right",1.475000143,2,2,1.691000223,2,1.907999992,81,0,0,NA,0,NA,1
"82",30,2,0,2,"stim/objects/Instruments/musicsheet3.png","",0,0,"",0,"left",1.878000021,NA,NA,NA,NA,NA,82,0,NA,NA,NA,NA,1
"83",30,2,0,2,"stim/objects/Instruments/timbal3.png","",0,0,"",0,"right",1.593000174,NA,NA,NA,NA,NA,83,1,NA,NA,NA,NA,1
"84",30,2,0,1,"stim/objects/HouseObjects/glassmop3.png","",0,0,"",0,"right",1.461000204,NA,NA,NA,NA,NA,84,1,NA,NA,NA,NA,1
"85",30,2,0,1,"stim/objects/HouseObjects/rubbergloves3.png","",0,0,"",0,"right",1.632000208,NA,NA,NA,NA,NA,85,1,NA,NA,NA,NA,1
"86",30,2,0,1,"stim/objects/HouseObjects/wateringcan3.png","",0,0,"",0,"right",1.782000065,NA,NA,NA,NA,NA,86,1,NA,NA,NA,NA,1
"87",30,1,0.3,2,"stim/objects/Instruments/harmonica2.png","stim/42.jpeg",4,2,"stim/42.jpeg",2,"left",1.537000179,2,3,3.693000078,2,1.822000265,87,1,0,0,1,1,1
"88",30,1,0.9,1,"stim/objects/HouseObjects/wateringcan2.png","stim/62.jpeg",6,2,"stim/62.jpeg",4,"right",1.983000278,1,2,1.55700016,2,1.860000372,88,0,1,NA,0,NA,1
"89",30,2,0,2,"stim/objects/Instruments/record3.png","",0,0,"",0,"left",1.379000187,NA,NA,NA,NA,NA,89,0,NA,NA,NA,NA,1
"90",30,1,0.7,2,"stim/objects/Instruments/vuvuzela.png","stim/31.jpeg",3,1,"stim/31.jpeg",3,"right",2.220000267,2,3,4.276000261,2,2.06400013,90,0,0,NA,0,NA,1
"91",30,2,0,1,"stim/objects/HouseObjects/cushion4.png","",0,0,"",0,"right",1.30700016,NA,NA,NA,NA,NA,91,1,NA,NA,NA,NA,1
"92",30,2,0,2,"stim/objects/Instruments/saxophone3.png","",0,0,"",0,"right",1.419000149,NA,NA,NA,NA,NA,92,1,NA,NA,NA,NA,1
"93",30,1,0.5,2,"stim/objects/HouseObjects/saw.png","stim/21.jpeg",2,1,"stim/21.jpeg",1,"right",1.442000151,2,2,1.983000278,1,3.085999966,93,0,0,NA,1,NA,1
"94",30,1,0.3,2,"stim/objects/Instruments/keyboard2.png","stim/41.jpeg",4,1,"stim/41.jpeg",4,"left",1.846000195,4,4,4.032000303,4,2.007000208,94,1,0,0,1,1,1
"95",30,1,0.7,2,"stim/objects/Instruments/electricguitar2.png","stim/31.jpeg",3,1,"stim/31.jpeg",1,"right",1.434000015,2,2,4.154000282,2,1.496000051,95,0,0,NA,0,NA,1
"96",30,2,0,1,"stim/objects/HouseObjects/dustpan3.png","",0,0,"",0,"right",0.993000031,NA,NA,NA,NA,NA,96,1,NA,NA,NA,NA,1
"97",30,2,0,2,"stim/objects/Instruments/panflute3.png","",0,0,"",0,"right",1.513000011,NA,NA,NA,NA,NA,97,1,NA,NA,NA,NA,1
"98",30,1,0.3,2,"stim/objects/Instruments/harp2.png","stim/43.jpeg",4,3,"stim/43.jpeg",4,"right",2.04700017,2,2,1.84100008,4,2.085000038,98,0,0,NA,1,NA,1
"99",30,2,0,2,"stim/objects/Instruments/harmonica3.png","",0,0,"",0,"left",1.60800004,NA,NA,NA,NA,NA,99,0,NA,NA,NA,NA,1
"100",30,2,0,1,"stim/objects/HouseObjects/flyswatter4.png","",0,0,"",0,"right",1.4150002,NA,NA,NA,NA,NA,100,1,NA,NA,NA,NA,1
"101",30,2,0,2,"stim/objects/Instruments/flutetrans3.png","",0,0,"",0,"left",1.22900033,NA,NA,NA,NA,NA,101,0,NA,NA,NA,NA,1
"102",30,1,0.9,2,"stim/objects/Instruments/pipepiano2.png","stim/51.jpeg",5,1,"stim/51.jpeg",1,"left",1.652000189,2,2,4.471000195,2,1.853000164,102,1,0,0,0,0,1
"103",30,2,0,2,"stim/objects/Instruments/marimba3.png","",0,0,"",0,"right",1.443000317,NA,NA,NA,NA,NA,103,1,NA,NA,NA,NA,1
"104",30,1,0.9,2,"stim/objects/Instruments/musicsheet2.png","stim/51.jpeg",5,1,"stim/51.jpeg",3,"left",1.166000128,4,2,4.183000088,1,3.504000187,104,1,0,0,0,0,1
"105",30,1,0.5,1,"stim/objects/Instruments/saxophone.png","stim/12.jpeg",1,2,"stim/12.jpeg",3,"right",1.320000172,2,3,2.690000057,3,2.207000256,105,0,0,NA,1,NA,1
"106",30,2,0,1,"stim/objects/HouseObjects/coffee3.png","",0,0,"",0,"right",1.115000248,NA,NA,NA,NA,NA,106,1,NA,NA,NA,NA,1
"107",30,1,0.7,2,"stim/objects/Instruments/tuba.png","stim/33.jpeg",3,3,"stim/33.jpeg",4,"right",1.181000233,2,1,1.962000132,1,1.302999973,107,0,0,NA,0,NA,1
"108",30,1,0.7,1,"stim/objects/HouseObjects/handbrush2.png","stim/41.jpeg",4,1,"stim/41.jpeg",1,"right",1.075000048,2,1,1.656000137,1,1.979000092,108,0,1,NA,1,NA,1
"109",30,2,0,1,"stim/objects/HouseObjects/key4.png","",0,0,"",0,"right",1.798000097,NA,NA,NA,NA,NA,109,1,NA,NA,NA,NA,1
"110",30,1,0.9,1,"stim/objects/HouseObjects/teapot2.png","stim/61.jpeg",6,1,"stim/61.jpeg",1,"right",1.678000212,1,3,3.410000324,2,1.815999985,110,0,0,NA,0,NA,1
"111",30,2,0,1,"stim/objects/HouseObjects/scale3.png","",0,0,"",0,"right",1.147000074,NA,NA,NA,NA,NA,111,1,NA,NA,NA,NA,1
"112",30,2,0,1,"stim/objects/HouseObjects/glass3.png","",0,0,"",0,"right",1.349000216,NA,NA,NA,NA,NA,112,1,NA,NA,NA,NA,1
"113",30,2,0,1,"stim/objects/HouseObjects/iron3.png","",0,0,"",0,"right",1.515000343,NA,NA,NA,NA,NA,113,1,NA,NA,NA,NA,1
"114",30,1,0.1,2,"stim/objects/Instruments/triangle2.png","stim/62.jpeg",6,2,"stim/62.jpeg",2,"right",1.772000313,2,3,3.420000315,2,2.304000139,114,0,0,NA,1,NA,1
"115",30,1,0.5,1,"stim/objects/HouseObjects/rug.png","stim/12.jpeg",1,2,"stim/12.jpeg",2,"right",1.144000053,2,1,2.726000309,1,1.192000151,115,0,0,NA,0,NA,1
"116",30,2,0,2,"stim/objects/Instruments/electricdrumset4.png","",0,0,"",0,"right",2.186000347,NA,NA,NA,NA,NA,116,1,NA,NA,NA,NA,1
"117",30,1,0.9,1,"stim/objects/HouseObjects/vacuumcleaner2.png","stim/61.jpeg",6,1,"stim/61.jpeg",1,"right",1.666000128,2,4,2.344000101,4,1.978000164,117,0,0,NA,0,NA,1
"118",30,1,0.7,1,"stim/objects/HouseObjects/glassmop2.png","stim/43.jpeg",4,3,"stim/43.jpeg",3,"left",1.597000122,3,2,3.371000051,1,3.357000113,118,1,0,0,0,0,1
"119",30,2,0,2,"stim/objects/Instruments/trumpet3.png","",0,0,"",0,"right",1.315000057,NA,NA,NA,NA,NA,119,1,NA,NA,NA,NA,1
"120",30,2,0,1,"stim/objects/HouseObjects/sponge3.png","",0,0,"",0,"right",1.35400033,NA,NA,NA,NA,NA,120,1,NA,NA,NA,NA,1
"121",30,2,0,2,"stim/objects/Instruments/harmonica4.png","",0,0,"",0,"right",1.930000067,NA,NA,NA,NA,NA,121,1,NA,NA,NA,NA,1
"122",30,2,0,1,"stim/objects/HouseObjects/recyclingbin3.png","",0,0,"",0,"right",1.837000132,NA,NA,NA,NA,NA,122,1,NA,NA,NA,NA,1
"123",30,1,0.1,1,"stim/objects/HouseObjects/lintroller2.png","stim/52.jpeg",5,2,"stim/52.jpeg",3,"right",1.860000134,1,2,2.519000053,2,2.024000168,123,0,1,NA,0,NA,1
"124",30,2,0,1,"stim/objects/HouseObjects/saw3.png","",0,0,"",0,"right",1.209000111,NA,NA,NA,NA,NA,124,1,NA,NA,NA,NA,1
"125",30,2,0,2,"stim/objects/Instruments/frenchhorn3.png","",0,0,"",0,"left",1.453000069,NA,NA,NA,NA,NA,125,0,NA,NA,NA,NA,1
"126",30,2,0,2,"stim/objects/Instruments/grandpiano4.png","",0,0,"",0,"right",1.879000187,NA,NA,NA,NA,NA,126,1,NA,NA,NA,NA,1
"127",30,2,0,1,"stim/objects/HouseObjects/rug3.png","",0,0,"",0,"right",2.431000233,NA,NA,NA,NA,NA,127,1,NA,NA,NA,NA,1
"128",30,1,0.5,2,"stim/objects/Instruments/tambourine.png","stim/21.jpeg",2,1,"stim/21.jpeg",2,"right",0.936000109,1,1,2.582000017,2,2.822000265,128,0,1,NA,1,NA,1
"129",30,2,0,2,"stim/objects/Instruments/hihat3.png","",0,0,"",0,"right",1.686000109,NA,NA,NA,NA,NA,129,1,NA,NA,NA,NA,1
"130",30,1,0.9,1,"stim/objects/HouseObjects/towel2.png","stim/64.jpeg",6,4,"stim/64.jpeg",2,"left",1.79700017,2,1,3.052999973,2,3.078999996,130,1,0,0,1,1,1
"131",30,2,0,2,"stim/objects/Instruments/keyboard3.png","",0,0,"",0,"right",1.573000193,NA,NA,NA,NA,NA,131,1,NA,NA,NA,NA,1
"132",30,1,0.7,1,"stim/objects/HouseObjects/glass2.png","stim/42.jpeg",4,2,"stim/42.jpeg",2,"right",1.652000189,2,1,1.871000051,3,2.24600029,132,0,0,NA,0,NA,1
"133",30,2,0,2,"stim/objects/Instruments/guitarcase4.png","",0,0,"",0,"right",1.669000387,NA,NA,NA,NA,NA,133,1,NA,NA,NA,NA,1
"134",30,1,0.7,1,"stim/objects/HouseObjects/handvacuum2.png","stim/42.jpeg",4,2,"stim/42.jpeg",4,"left",1.571000099,3,2,3.087000132,2,2.497000217,134,1,1,1,0,0,1
"135",30,2,0,2,"stim/objects/Instruments/harp4.png","",0,0,"",0,"right",1.777000189,NA,NA,NA,NA,NA,135,1,NA,NA,NA,NA,1
"136",30,1,0.3,1,"stim/objects/HouseObjects/dishsoap2.png","stim/34.jpeg",3,4,"stim/34.jpeg",1,"right",1.130000353,1,4,2.33100009,4,2.279000282,136,0,1,NA,0,NA,1
"137",30,1,0.1,1,"stim/objects/HouseObjects/rubbergloves2.png","stim/54.jpeg",5,4,"stim/54.jpeg",1,"right",1.658000231,2,1,2.051000357,2,2.434000254,137,0,0,NA,0,NA,1
"138",30,1,0.7,2,"stim/objects/Instruments/flutetrans2.png","stim/33.jpeg",3,3,"stim/33.jpeg",1,"right",1.125000238,2,1,1.654000044,1,2.961000204,138,0,0,NA,1,NA,1
"139",30,1,0.1,1,"stim/objects/HouseObjects/knife2.png","stim/51.jpeg",5,1,"stim/51.jpeg",3,"left",1.828999996,3,4,4.693000317,2,2.799000263,139,1,0,0,0,0,1
"140",30,2,0,2,"stim/objects/Instruments/metronome3.png","",0,0,"",0,"right",1.424000263,NA,NA,NA,NA,NA,140,1,NA,NA,NA,NA,1
"141",30,1,0.9,1,"stim/objects/HouseObjects/sponge2.png","stim/63.jpeg",6,3,"stim/63.jpeg",4,"right",1.498000145,2,1,1.630000114,3,2.53000021,141,0,0,NA,0,NA,1
"142",30,2,0,1,"stim/objects/HouseObjects/teapot3.png","",0,0,"",0,"right",1.139000177,NA,NA,NA,NA,NA,142,1,NA,NA,NA,NA,1
"143",30,1,0.5,1,"stim/objects/Instruments/record_player.png","stim/11.jpeg",1,1,"stim/11.jpeg",3,"left",1.570000172,3,1,4.144000053,1,2.312999964,143,1,1,1,0,0,1
"144",30,2,0,2,"stim/objects/Instruments/laud3.png","",0,0,"",0,"right",1.401000261,NA,NA,NA,NA,NA,144,1,NA,NA,NA,NA,1
"145",30,1,0.1,2,"stim/objects/Instruments/timbal2.png","stim/61.jpeg",6,1,"stim/61.jpeg",2,"right",1.340000153,2,2,2.284000158,3,1.97300005,145,0,0,NA,0,NA,1
"146",30,2,0,1,"stim/objects/HouseObjects/match3.png","",0,0,"",0,"right",1.219000101,NA,NA,NA,NA,NA,146,1,NA,NA,NA,NA,1
"147",30,1,0.9,2,"stim/objects/Instruments/saxophone2.png","stim/54.jpeg",5,4,"stim/54.jpeg",1,"right",1.452000141,2,3,3.037000179,2,2.552000046,147,0,0,NA,0,NA,1
"148",30,1,0.3,1,"stim/objects/HouseObjects/coffee2.png","stim/32.jpeg",3,2,"stim/32.jpeg",2,"right",1.791000128,2,3,2.467000008,2,2.482000351,148,0,0,NA,1,NA,1
"149",30,1,0.3,1,"stim/objects/HouseObjects/towel.png","stim/33.jpeg",3,3,"stim/33.jpeg",4,"right",1.575000286,2,1,2.243000031,1,2.164000273,149,0,0,NA,0,NA,1
"150",30,1,0.9,1,"stim/objects/HouseObjects/thread2.png","stim/63.jpeg",6,3,"stim/63.jpeg",3,"right",1.088000059,2,2,3.097000122,3,2.923000097,150,0,0,NA,1,NA,1
"151",30,1,0.5,2,"stim/objects/HouseObjects/scale.png","stim/22.jpeg",2,2,"stim/22.jpeg",2,"right",1.486000061,1,3,3.005000353,2,1.711000204,151,0,0,NA,1,NA,1
"152",30,2,0,2,"stim/objects/Instruments/laud4.png","",0,0,"",0,"right",2.330000162,NA,NA,NA,NA,NA,152,1,NA,NA,NA,NA,1
"153",30,1,0.7,2,"stim/objects/Instruments/flute2.png","stim/32.jpeg",3,2,"stim/32.jpeg",2,"right",1.309000254,1,4,3.163000107,4,1.737000227,153,0,0,NA,0,NA,1
"154",30,2,0,2,"stim/objects/Instruments/hihat4.png","",0,0,"",0,"right",1.399000168,NA,NA,NA,NA,NA,154,1,NA,NA,NA,NA,1
"155",30,1,0.9,2,"stim/objects/Instruments/record_player2.png","stim/53.jpeg",5,3,"stim/53.jpeg",2,"left",1.600000143,3,3,4.735000134,2,1.637000322,155,1,1,1,1,1,1
"156",30,2,0,2,"stim/objects/Instruments/electricguitar3.png","",0,0,"",0,"right",1.541000128,NA,NA,NA,NA,NA,156,1,NA,NA,NA,NA,1
"157",30,1,0.9,2,"stim/objects/Instruments/record2.png","stim/52.jpeg",5,2,"stim/52.jpeg",2,"right",1.575000286,1,2,1.733000278,1,2.588000298,157,0,1,NA,0,NA,1
"158",30,1,0.3,2,"stim/objects/Instruments/grandpiano2.png","stim/44.jpeg",4,4,"stim/44.jpeg",4,"left",1.541000128,3,1,3.528000116,3,2.200999975,158,1,0,0,0,0,1
"159",30,2,0,1,"stim/objects/HouseObjects/hairdryer4.png","",0,0,"",0,"right",1.269000053,NA,NA,NA,NA,NA,159,1,NA,NA,NA,NA,1
"160",30,2,0,1,"stim/objects/HouseObjects/towel3.png","",0,0,"",0,"right",1.629000187,NA,NA,NA,NA,NA,160,1,NA,NA,NA,NA,1
"161",30,2,0,1,"stim/objects/HouseObjects/coffee4.png","",0,0,"",0,"right",1.615000248,NA,NA,NA,NA,NA,161,1,NA,NA,NA,NA,1
"162",30,2,0,2,"stim/objects/Instruments/keyboard4.png","",0,0,"",0,"right",2.351000309,NA,NA,NA,NA,NA,162,1,NA,NA,NA,NA,1
"163",30,2,0,1,"stim/objects/HouseObjects/dishsoap3.png","",0,0,"",0,"right",1.973999977,NA,NA,NA,NA,NA,163,1,NA,NA,NA,NA,1
"164",30,1,0.7,1,"stim/objects/HouseObjects/garbagebin2.png","stim/41.jpeg",4,1,"stim/41.jpeg",1,"right",2.187000275,2,2,3.049000263,2,2.242000103,164,0,0,NA,0,NA,1
"165",30,2,0,1,"stim/objects/HouseObjects/handvacuum3.png","",0,0,"",0,"left",1.839000225,NA,NA,NA,NA,NA,165,0,NA,NA,NA,NA,1
"166",30,2,0,2,"stim/objects/Instruments/harp3.png","",0,0,"",0,"right",1.940000296,NA,NA,NA,NA,NA,166,1,NA,NA,NA,NA,1
"167",30,1,0.3,2,"stim/objects/Instruments/hihat2.png","stim/44.jpeg",4,4,"stim/44.jpeg",2,"left",2.061000109,3,2,2.207000256,3,2.02300024,167,1,0,0,0,0,1
"168",30,1,0.5,1,"stim/objects/Instruments/record.png","stim/14.jpeg",1,4,"stim/14.jpeg",1,"left",1.143000126,3,2,3.796000004,2,1.536000252,168,1,0,0,0,0,1
"169",30,1,0.5,1,"stim/objects/HouseObjects/rubbergloves.png","stim/11.jpeg",1,1,"stim/11.jpeg",4,"right",1.161000252,2,3,2.13499999,1,1.767000198,169,0,0,NA,0,NA,1
"170",30,1,0.9,2,"stim/objects/Instruments/oboe2.png","stim/53.jpeg",5,3,"stim/53.jpeg",4,"left",1.368999958,3,3,4.800000191,2,2.616000175,170,1,1,1,0,0,1
"171",30,1,0.3,1,"stim/objects/HouseObjects/cushion2.png","stim/33.jpeg",3,3,"stim/33.jpeg",4,"right",1.372000217,2,2,2.211000204,2,2.11400032,171,0,0,NA,0,NA,1
"172",30,1,0.1,2,"stim/objects/Instruments/vuvuzela2.png","stim/63.jpeg",6,3,"stim/63.jpeg",2,"right",1.419000387,2,1,1.784000158,2,2.345000029,172,0,0,NA,1,NA,1
"173",30,1,0.9,1,"stim/objects/HouseObjects/scale2.png","stim/62.jpeg",6,2,"stim/62.jpeg",3,"left",2.499000072,3,2,1.73300004,2,1.828000307,173,1,1,1,0,0,1
"174",30,2,0,1,"stim/objects/HouseObjects/cushion3.png","",0,0,"",0,"right",1.508000135,NA,NA,NA,NA,NA,174,1,NA,NA,NA,NA,1
"175",30,1,0.1,2,"stim/objects/Instruments/tambourine2.png","stim/64.jpeg",6,4,"stim/64.jpeg",4,"left",1.649000168,2,1,1.516000271,1,1.752000093,175,1,0,0,0,0,1
"176",30,2,0,1,"stim/objects/HouseObjects/garbagebin3.png","",0,0,"",0,"right",1.270000219,NA,NA,NA,NA,NA,176,1,NA,NA,NA,NA,1
"177",30,2,0,1,"stim/objects/HouseObjects/spraybottle3.png","",0,0,"",0,"right",1.236000061,NA,NA,NA,NA,NA,177,1,NA,NA,NA,NA,1
"178",30,2,0,1,"stim/objects/HouseObjects/dishsoap4.png","",0,0,"",0,"right",1.755000114,NA,NA,NA,NA,NA,178,1,NA,NA,NA,NA,1
"179",30,2,0,1,"stim/objects/HouseObjects/lintroller3.png","",0,0,"",0,"left",1.28000021,NA,NA,NA,NA,NA,179,0,NA,NA,NA,NA,1
"180",30,2,0,1,"stim/objects/HouseObjects/doormat4.png","",0,0,"",0,"right",2.080000162,NA,NA,NA,NA,NA,180,1,NA,NA,NA,NA,1
"181",30,2,0,2,"stim/objects/Instruments/violin3.png","",0,0,"",0,"left",1.401000261,NA,NA,NA,NA,NA,181,0,NA,NA,NA,NA,1
"182",30,2,0,2,"stim/objects/Instruments/tuba3.png","",0,0,"",0,"right",2.238000154,NA,NA,NA,NA,NA,182,1,NA,NA,NA,NA,1
"183",30,1,0.9,1,"stim/objects/HouseObjects/thermometer2.png","stim/62.jpeg",6,2,"stim/62.jpeg",2,"right",1.244000196,1,2,1.543000221,2,1.970000267,183,0,1,NA,1,NA,1
"184",30,1,0.1,1,"stim/objects/HouseObjects/remote2.png","stim/53.jpeg",5,3,"stim/53.jpeg",1,"left",1.837000132,3,1,5.695000172,2,2.032000065,184,1,0,0,0,0,1
"185",30,2,0,2,"stim/objects/Instruments/record_player3.png","",0,0,"",0,"right",1.126000166,NA,NA,NA,NA,NA,185,1,NA,NA,NA,NA,1
"186",30,2,0,1,"stim/objects/HouseObjects/hairdryer3.png","",0,0,"",0,"right",1.652000189,NA,NA,NA,NA,NA,186,1,NA,NA,NA,NA,1
"187",30,1,0.5,1,"stim/objects/HouseObjects/safetypin.png","stim/13.jpeg",1,3,"stim/13.jpeg",1,"right",1.429000378,2,1,3.02300024,1,1.463000059,187,0,0,NA,1,NA,1
"188",30,1,0.1,1,"stim/objects/HouseObjects/rug2.png","stim/51.jpeg",5,1,"stim/51.jpeg",2,"right",1.383000135,1,4,3.524000168,2,1.914999962,188,0,0,NA,1,NA,1
"189",30,1,0.9,2,"stim/objects/Instruments/metronome2.png","stim/54.jpeg",5,4,"stim/54.jpeg",3,"left",2.007000208,3,1,3.765000105,1,1.737000227,189,1,0,0,0,0,1
"190",30,2,0,1,"stim/objects/HouseObjects/handbrush4.png","",0,0,"",0,"right",1.067000389,NA,NA,NA,NA,NA,190,1,NA,NA,NA,NA,1
"191",30,2,0,2,"stim/objects/Instruments/speaker3.png","",0,0,"",0,"right",1.049000025,NA,NA,NA,NA,NA,191,1,NA,NA,NA,NA,1
"192",30,1,0.7,1,"stim/objects/HouseObjects/key2.png","stim/41.jpeg",4,1,"stim/41.jpeg",1,"right",2.823000193,2,2,2.207000256,2,1.517000198,192,0,0,NA,0,NA,1
"193",30,2,0,1,"stim/objects/HouseObjects/handbrush3.png","",0,0,"",0,"right",1.170000076,NA,NA,NA,NA,NA,193,1,NA,NA,NA,NA,1
"194",30,2,0,1,"stim/objects/HouseObjects/key3.png","",0,0,"",0,"right",1.447000027,NA,NA,NA,NA,NA,194,1,NA,NA,NA,NA,1
"195",30,2,0,1,"stim/objects/HouseObjects/ironingboard3.png","",0,0,"",0,"right",1.771000147,NA,NA,NA,NA,NA,195,1,NA,NA,NA,NA,1
"196",30,2,0,1,"stim/objects/HouseObjects/dustpan4.png","",0,0,"",0,"right",1.06400013,NA,NA,NA,NA,NA,196,1,NA,NA,NA,NA,1
"197",30,1,0.3,1,"stim/objects/HouseObjects/thermometer.png","stim/31.jpeg",3,1,"stim/31.jpeg",1,"right",1.068000317,1,1,1.972000122,4,2.277000189,197,0,1,NA,0,NA,1
"198",30,1,0.3,1,"stim/objects/HouseObjects/thread.png","stim/32.jpeg",3,2,"stim/32.jpeg",1,"right",1.059000254,1,2,1.837000132,2,1.963999987,198,0,1,NA,0,NA,1
"199",30,2,0,2,"stim/objects/Instruments/grandpiano3.png","",0,0,"",0,"left",1.555999994,NA,NA,NA,NA,NA,199,0,NA,NA,NA,NA,1
"200",30,2,0,2,"stim/objects/Instruments/gong4.png","",0,0,"",0,"right",0.937000275,NA,NA,NA,NA,NA,200,1,NA,NA,NA,NA,1
