"","obj_file","X.x","participant.x","trialN.x","trial_cond","scn_file.x","scn_cat","scn_inst","scn_condition","fillers","obj_cat","obj_cat_num","quadrant","corr_ans","key_resp_trial.keys","key_resp_trial.rt","trial_acc","trial_acc_manual","group.x","practice","X.y","participant.y","OvsN","PE_level","object_cat","scn_file.y","corr_scn_cat","corr_scn_inst","scn_file.1","corr_loc","key_resp_id.keys","key_resp_id.rt","key_resp_conf.keys","key_resp_assoc.keys","key_resp_assoc.rt","key_resp_loc.keys","key_resp_loc.rt","trialN.y","id_acc","assoc.acc","cond_assoc","loc.acc","cond_loc","group.y"
"233","stim/objects/Instruments/doublebass.png",1,55,1,0.7,"stim/34.jpeg",3,4,2,NA,"Instruments",2,4,"right","",NA,0,0,0,1,NA,NA,NA,NA,NA,NA,NA,NA,NA,NA,NA,NA,NA,NA,NA,NA,NA,NA,NA,NA,NA,NA,NA,NA
"129","stim/objects/Instruments/acousticguitar.png",2,55,2,0.5,"stim/12.jpeg",1,2,1,NA,"Instruments",2,2,"right","right",0.524000168,1,1,0,1,NA,NA,NA,NA,NA,NA,NA,NA,NA,NA,NA,NA,NA,NA,NA,NA,NA,NA,NA,NA,NA,NA,NA,NA
"109","stim/objects/HouseObjects/clothespin.png",3,55,3,0.3,"stim/34.jpeg",3,4,2,NA,"HouseObjects",1,4,"left","right",0.659999847,0,0,0,1,NA,NA,NA,NA,NA,NA,NA,NA,NA,NA,NA,NA,NA,NA,NA,NA,NA,NA,NA,NA,NA,NA,NA,NA
"100","stim/objects/HouseObjects/clothesdryingrack2.png",4,55,4,0.9,"stim/63.jpeg",6,3,3,NA,"HouseObjects",1,2,"left","",NA,0,0,0,1,NA,NA,NA,NA,NA,NA,NA,NA,NA,NA,NA,NA,NA,NA,NA,NA,NA,NA,NA,NA,NA,NA,NA,NA
"18","stim/objects/HouseObjects/ballofstring2.png",5,55,5,0.7,"stim/42.jpeg",4,2,2,NA,"HouseObjects",1,2,"left","left",0.717000008,1,1,0,1,NA,NA,NA,NA,NA,NA,NA,NA,NA,NA,NA,NA,NA,NA,NA,NA,NA,NA,NA,NA,NA,NA,NA,NA
"195","stim/objects/Instruments/chime.png",6,55,6,0.5,"stim/24.jpeg",2,4,1,NA,"Instruments",2,1,"right","right",0.532999992,1,1,0,1,NA,NA,NA,NA,NA,NA,NA,NA,NA,NA,NA,NA,NA,NA,NA,NA,NA,NA,NA,NA,NA,NA,NA,NA
"181","stim/objects/Instruments/cello.png",7,55,7,0.5,"stim/23.jpeg",2,3,1,NA,"Instruments",2,3,"right","right",0.669999838,1,1,0,1,NA,NA,NA,NA,NA,NA,NA,NA,NA,NA,NA,NA,NA,NA,NA,NA,NA,NA,NA,NA,NA,NA,NA,NA
"61","stim/objects/HouseObjects/bottle.png",8,55,8,0.5,"stim/23.jpeg",2,3,1,NA,"HouseObjects",1,1,"left","right",0.398000002,0,0,0,1,NA,NA,NA,NA,NA,NA,NA,NA,NA,NA,NA,NA,NA,NA,NA,NA,NA,NA,NA,NA,NA,NA,NA,NA
"101","stim/objects/HouseObjects/clothesdryingrack2.png",9,55,9,0.9,"stim/63.jpeg",6,3,3,NA,"HouseObjects",1,4,"left","left",0.647000074,1,1,0,1,NA,NA,NA,NA,NA,NA,NA,NA,NA,NA,NA,NA,NA,NA,NA,NA,NA,NA,NA,NA,NA,NA,NA,NA
"88","stim/objects/HouseObjects/clock2.png",10,55,10,0.9,"stim/62.jpeg",6,2,3,NA,"HouseObjects",1,4,"left","left",0.501000166,1,1,0,1,NA,NA,NA,NA,NA,NA,NA,NA,NA,NA,NA,NA,NA,NA,NA,NA,NA,NA,NA,NA,NA,NA,NA,NA
"217","stim/objects/Instruments/cornet.png",11,55,11,0.7,"stim/32.jpeg",3,2,2,NA,"Instruments",2,1,"right","right",0.537999868,1,1,0,1,NA,NA,NA,NA,NA,NA,NA,NA,NA,NA,NA,NA,NA,NA,NA,NA,NA,NA,NA,NA,NA,NA,NA,NA
"76","stim/objects/HouseObjects/bucket2.png",12,55,12,0.9,"stim/61.jpeg",6,1,3,NA,"HouseObjects",1,2,"left","left",0.618000031,1,1,0,1,NA,NA,NA,NA,NA,NA,NA,NA,NA,NA,NA,NA,NA,NA,NA,NA,NA,NA,NA,NA,NA,NA,NA,NA
"167","stim/objects/Instruments/bassguitar.png",13,55,13,0.5,"stim/22.jpeg",2,2,1,NA,"Instruments",2,1,"right","left",0.440000057,0,0,0,1,NA,NA,NA,NA,NA,NA,NA,NA,NA,NA,NA,NA,NA,NA,NA,NA,NA,NA,NA,NA,NA,NA,NA,NA
"225","stim/objects/Instruments/cymbal.png",14,55,14,0.7,"stim/33.jpeg",3,3,2,NA,"Instruments",2,1,"right","left",0.387000084,0,0,0,1,NA,NA,NA,NA,NA,NA,NA,NA,NA,NA,NA,NA,NA,NA,NA,NA,NA,NA,NA,NA,NA,NA,NA,NA
"1","stim/objects/HouseObjects/ashtray.png",15,55,15,0.5,"stim/11.jpeg",1,1,1,NA,"HouseObjects",1,4,"left","left",0.68200016,1,1,0,1,NA,NA,NA,NA,NA,NA,NA,NA,NA,NA,NA,NA,NA,NA,NA,NA,NA,NA,NA,NA,NA,NA,NA,NA
"30","stim/objects/HouseObjects/barbecuelighter2.png",16,55,16,0.7,"stim/43.jpeg",4,3,2,NA,"HouseObjects",1,4,"left","left",0.587000132,1,1,0,1,NA,NA,NA,NA,NA,NA,NA,NA,NA,NA,NA,NA,NA,NA,NA,NA,NA,NA,NA,NA,NA,NA,NA,NA
"196","stim/objects/Instruments/chime.png",17,55,17,0.5,"stim/24.jpeg",2,4,1,NA,"Instruments",2,1,"right","right",0.587000132,1,1,0,1,NA,NA,NA,NA,NA,NA,NA,NA,NA,NA,NA,NA,NA,NA,NA,NA,NA,NA,NA,NA,NA,NA,NA,NA
"186","stim/objects/Instruments/cello2.png",18,55,18,0.9,"stim/53.jpeg",5,3,3,NA,"Instruments",2,2,"right","",NA,0,0,0,1,NA,NA,NA,NA,NA,NA,NA,NA,NA,NA,NA,NA,NA,NA,NA,NA,NA,NA,NA,NA,NA,NA,NA,NA
"67","stim/objects/HouseObjects/broom.png",19,55,19,0.5,"stim/24.jpeg",2,4,1,NA,"HouseObjects",1,3,"left","left",0.518000126,1,1,0,1,NA,NA,NA,NA,NA,NA,NA,NA,NA,NA,NA,NA,NA,NA,NA,NA,NA,NA,NA,NA,NA,NA,NA,NA
"102","stim/objects/HouseObjects/clothesdryingrack2.png",20,55,20,0.9,"stim/63.jpeg",6,3,3,NA,"HouseObjects",1,4,"left","",NA,0,0,0,1,NA,NA,NA,NA,NA,NA,NA,NA,NA,NA,NA,NA,NA,NA,NA,NA,NA,NA,NA,NA,NA,NA,NA,NA
"187","stim/objects/Instruments/cello2.png",21,55,21,0.9,"stim/53.jpeg",5,3,3,NA,"Instruments",2,1,"right","",NA,0,0,0,1,NA,NA,NA,NA,NA,NA,NA,NA,NA,NA,NA,NA,NA,NA,NA,NA,NA,NA,NA,NA,NA,NA,NA,NA
"226","stim/objects/Instruments/cymbal.png",22,55,22,0.7,"stim/33.jpeg",3,3,2,NA,"Instruments",2,1,"right","",NA,0,0,0,1,NA,NA,NA,NA,NA,NA,NA,NA,NA,NA,NA,NA,NA,NA,NA,NA,NA,NA,NA,NA,NA,NA,NA,NA
"182","stim/objects/Instruments/cello.png",23,55,23,0.5,"stim/23.jpeg",2,3,1,NA,"Instruments",2,4,"right","",NA,0,0,0,1,NA,NA,NA,NA,NA,NA,NA,NA,NA,NA,NA,NA,NA,NA,NA,NA,NA,NA,NA,NA,NA,NA,NA,NA
"197","stim/objects/Instruments/chime.png",24,55,24,0.5,"stim/24.jpeg",2,4,1,NA,"Instruments",2,4,"right","right",0.554999828,1,1,0,1,NA,NA,NA,NA,NA,NA,NA,NA,NA,NA,NA,NA,NA,NA,NA,NA,NA,NA,NA,NA,NA,NA,NA,NA
"112","stim/objects/HouseObjects/clothespin2.png",25,55,25,0.9,"stim/64.jpeg",6,4,3,NA,"HouseObjects",1,3,"left","left",0.411000013,1,1,0,1,NA,NA,NA,NA,NA,NA,NA,NA,NA,NA,NA,NA,NA,NA,NA,NA,NA,NA,NA,NA,NA,NA,NA,NA
"62","stim/objects/HouseObjects/bottle.png",26,55,26,0.5,"stim/23.jpeg",2,3,1,NA,"HouseObjects",1,1,"left","right",0.380000114,0,0,0,1,NA,NA,NA,NA,NA,NA,NA,NA,NA,NA,NA,NA,NA,NA,NA,NA,NA,NA,NA,NA,NA,NA,NA,NA
"55","stim/objects/HouseObjects/blender.png",27,55,27,0.5,"stim/22.jpeg",2,2,1,NA,"HouseObjects",1,2,"left","right",0.391000032,0,0,0,1,NA,NA,NA,NA,NA,NA,NA,NA,NA,NA,NA,NA,NA,NA,NA,NA,NA,NA,NA,NA,NA,NA,NA,NA
"209","stim/objects/Instruments/clarinet.png",28,55,28,0.7,"stim/31.jpeg",3,1,2,NA,"Instruments",2,1,"right","right",0.520000219,1,1,0,1,NA,NA,NA,NA,NA,NA,NA,NA,NA,NA,NA,NA,NA,NA,NA,NA,NA,NA,NA,NA,NA,NA,NA,NA
"200","stim/objects/Instruments/chime2.png",29,55,29,0.9,"stim/54.jpeg",5,4,3,NA,"Instruments",2,1,"right","right",0.53399992,1,1,0,1,NA,NA,NA,NA,NA,NA,NA,NA,NA,NA,NA,NA,NA,NA,NA,NA,NA,NA,NA,NA,NA,NA,NA,NA
"188","stim/objects/Instruments/cello2.png",30,55,30,0.9,"stim/53.jpeg",5,3,3,NA,"Instruments",2,3,"right","right",0.556999922,1,1,0,1,NA,NA,NA,NA,NA,NA,NA,NA,NA,NA,NA,NA,NA,NA,NA,NA,NA,NA,NA,NA,NA,NA,NA,NA
"189","stim/objects/Instruments/cello2.png",31,55,31,0.9,"stim/53.jpeg",5,3,3,NA,"Instruments",2,1,"right","right",0.463999987,1,1,0,1,NA,NA,NA,NA,NA,NA,NA,NA,NA,NA,NA,NA,NA,NA,NA,NA,NA,NA,NA,NA,NA,NA,NA,NA
"126","stim/objects/Instruments/accordion2.png",32,55,32,0.3,"stim/41.jpeg",4,1,2,NA,"Instruments",2,1,"right","right",0.619999886,1,1,0,1,NA,NA,NA,NA,NA,NA,NA,NA,NA,NA,NA,NA,NA,NA,NA,NA,NA,NA,NA,NA,NA,NA,NA,NA
"201","stim/objects/Instruments/chime2.png",33,55,33,0.9,"stim/54.jpeg",5,4,3,NA,"Instruments",2,3,"right","right",0.541999817,1,1,0,1,NA,NA,NA,NA,NA,NA,NA,NA,NA,NA,NA,NA,NA,NA,NA,NA,NA,NA,NA,NA,NA,NA,NA,NA
"37","stim/objects/HouseObjects/basket.png",34,55,34,0.5,"stim/14.jpeg",1,4,1,NA,"HouseObjects",1,4,"left","right",0.631000042,0,0,0,1,NA,NA,NA,NA,NA,NA,NA,NA,NA,NA,NA,NA,NA,NA,NA,NA,NA,NA,NA,NA,NA,NA,NA,NA
"153","stim/objects/Instruments/bassdrum.png",35,55,35,0.5,"stim/21.jpeg",2,1,1,NA,"Instruments",2,1,"right","right",0.527999878,1,1,0,1,NA,NA,NA,NA,NA,NA,NA,NA,NA,NA,NA,NA,NA,NA,NA,NA,NA,NA,NA,NA,NA,NA,NA,NA
"113","stim/objects/HouseObjects/clothespin2.png",36,55,36,0.9,"stim/64.jpeg",6,4,3,NA,"HouseObjects",1,3,"left","left",0.575999975,1,1,0,1,NA,NA,NA,NA,NA,NA,NA,NA,NA,NA,NA,NA,NA,NA,NA,NA,NA,NA,NA,NA,NA,NA,NA,NA
"13","stim/objects/HouseObjects/ballofstring.png",37,55,37,0.5,"stim/12.jpeg",1,2,1,NA,"HouseObjects",1,2,"left","right",0.622999907,0,0,0,1,NA,NA,NA,NA,NA,NA,NA,NA,NA,NA,NA,NA,NA,NA,NA,NA,NA,NA,NA,NA,NA,NA,NA,NA
"158","stim/objects/Instruments/bassdrum2.png",38,55,38,0.9,"stim/51.jpeg",5,1,3,NA,"Instruments",2,1,"right","right",0.649000168,1,1,0,1,NA,NA,NA,NA,NA,NA,NA,NA,NA,NA,NA,NA,NA,NA,NA,NA,NA,NA,NA,NA,NA,NA,NA,NA
"137","stim/objects/Instruments/balalaika.png",39,55,39,0.5,"stim/13.jpeg",1,3,1,NA,"Instruments",2,4,"right","right",0.539000034,1,1,0,1,NA,NA,NA,NA,NA,NA,NA,NA,NA,NA,NA,NA,NA,NA,NA,NA,NA,NA,NA,NA,NA,NA,NA,NA
"159","stim/objects/Instruments/bassdrum2.png",40,55,40,0.9,"stim/51.jpeg",5,1,3,NA,"Instruments",2,4,"right","right",0.575999975,1,1,0,1,NA,NA,NA,NA,NA,NA,NA,NA,NA,NA,NA,NA,NA,NA,NA,NA,NA,NA,NA,NA,NA,NA,NA,NA
"56","stim/objects/HouseObjects/blender.png",41,55,41,0.5,"stim/22.jpeg",2,2,1,NA,"HouseObjects",1,3,"left","",NA,0,0,0,1,NA,NA,NA,NA,NA,NA,NA,NA,NA,NA,NA,NA,NA,NA,NA,NA,NA,NA,NA,NA,NA,NA,NA,NA
"172","stim/objects/Instruments/bassguitar2.png",42,55,42,0.9,"stim/52.jpeg",5,2,3,NA,"Instruments",2,1,"right","right",0.724000216,1,1,0,1,NA,NA,NA,NA,NA,NA,NA,NA,NA,NA,NA,NA,NA,NA,NA,NA,NA,NA,NA,NA,NA,NA,NA,NA
"89","stim/objects/HouseObjects/clock2.png",43,55,43,0.9,"stim/62.jpeg",6,2,3,NA,"HouseObjects",1,1,"left","left",0.717000008,1,1,0,1,NA,NA,NA,NA,NA,NA,NA,NA,NA,NA,NA,NA,NA,NA,NA,NA,NA,NA,NA,NA,NA,NA,NA,NA
"90","stim/objects/HouseObjects/clock2.png",44,55,44,0.9,"stim/62.jpeg",6,2,3,NA,"HouseObjects",1,4,"left","left",0.48300004,1,1,0,1,NA,NA,NA,NA,NA,NA,NA,NA,NA,NA,NA,NA,NA,NA,NA,NA,NA,NA,NA,NA,NA,NA,NA,NA
"234","stim/objects/Instruments/doublebass.png",45,55,45,0.7,"stim/34.jpeg",3,4,2,NA,"Instruments",2,3,"right","",NA,0,0,0,1,NA,NA,NA,NA,NA,NA,NA,NA,NA,NA,NA,NA,NA,NA,NA,NA,NA,NA,NA,NA,NA,NA,NA,NA
"19","stim/objects/HouseObjects/ballofstring2.png",46,55,46,0.7,"stim/42.jpeg",4,2,2,NA,"HouseObjects",1,3,"left","right",0.608999968,0,0,0,1,NA,NA,NA,NA,NA,NA,NA,NA,NA,NA,NA,NA,NA,NA,NA,NA,NA,NA,NA,NA,NA,NA,NA,NA
"198","stim/objects/Instruments/chime.png",47,55,47,0.5,"stim/24.jpeg",2,4,1,NA,"Instruments",2,1,"right","right",0.582999945,1,1,0,1,NA,NA,NA,NA,NA,NA,NA,NA,NA,NA,NA,NA,NA,NA,NA,NA,NA,NA,NA,NA,NA,NA,NA,NA
"138","stim/objects/Instruments/balalaika.png",48,55,48,0.5,"stim/13.jpeg",1,3,1,NA,"Instruments",2,3,"right","",NA,0,0,0,1,NA,NA,NA,NA,NA,NA,NA,NA,NA,NA,NA,NA,NA,NA,NA,NA,NA,NA,NA,NA,NA,NA,NA,NA
"218","stim/objects/Instruments/cornet.png",49,55,49,0.7,"stim/32.jpeg",3,2,2,NA,"Instruments",2,4,"right","right",0.649000168,1,1,0,1,NA,NA,NA,NA,NA,NA,NA,NA,NA,NA,NA,NA,NA,NA,NA,NA,NA,NA,NA,NA,NA,NA,NA,NA
"173","stim/objects/Instruments/bassguitar2.png",50,55,50,0.9,"stim/52.jpeg",5,2,3,NA,"Instruments",2,3,"right","right",0.571000099,1,1,0,1,NA,NA,NA,NA,NA,NA,NA,NA,NA,NA,NA,NA,NA,NA,NA,NA,NA,NA,NA,NA,NA,NA,NA,NA
"227","stim/objects/Instruments/cymbal.png",51,55,51,0.7,"stim/33.jpeg",3,3,2,NA,"Instruments",2,2,"right","right",0.671000004,1,1,0,1,NA,NA,NA,NA,NA,NA,NA,NA,NA,NA,NA,NA,NA,NA,NA,NA,NA,NA,NA,NA,NA,NA,NA,NA
"72","stim/objects/HouseObjects/broom2.png",52,55,52,0.1,"stim/54.jpeg",5,4,3,NA,"HouseObjects",1,4,"left","right",0.670000076,0,0,0,1,NA,NA,NA,NA,NA,NA,NA,NA,NA,NA,NA,NA,NA,NA,NA,NA,NA,NA,NA,NA,NA,NA,NA,NA
"6","stim/objects/HouseObjects/ashtray2.png",53,55,53,0.7,"stim/41.jpeg",4,1,2,NA,"HouseObjects",1,2,"left","",NA,0,0,0,1,NA,NA,NA,NA,NA,NA,NA,NA,NA,NA,NA,NA,NA,NA,NA,NA,NA,NA,NA,NA,NA,NA,NA,NA
"154","stim/objects/Instruments/bassdrum.png",54,55,54,0.5,"stim/21.jpeg",2,1,1,NA,"Instruments",2,4,"right","right",0.628999949,1,1,0,1,NA,NA,NA,NA,NA,NA,NA,NA,NA,NA,NA,NA,NA,NA,NA,NA,NA,NA,NA,NA,NA,NA,NA,NA
"202","stim/objects/Instruments/chime2.png",55,55,55,0.9,"stim/54.jpeg",5,4,3,NA,"Instruments",2,2,"right","right",0.778000116,1,1,0,1,NA,NA,NA,NA,NA,NA,NA,NA,NA,NA,NA,NA,NA,NA,NA,NA,NA,NA,NA,NA,NA,NA,NA,NA
"127","stim/objects/Instruments/accordion2.png",56,55,56,0.3,"stim/41.jpeg",4,1,2,NA,"Instruments",2,3,"right","right",0.663000107,1,1,0,1,NA,NA,NA,NA,NA,NA,NA,NA,NA,NA,NA,NA,NA,NA,NA,NA,NA,NA,NA,NA,NA,NA,NA,NA
"110","stim/objects/HouseObjects/clothespin.png",57,55,57,0.3,"stim/34.jpeg",3,4,2,NA,"HouseObjects",1,1,"left","",NA,0,0,0,1,NA,NA,NA,NA,NA,NA,NA,NA,NA,NA,NA,NA,NA,NA,NA,NA,NA,NA,NA,NA,NA,NA,NA,NA
"77","stim/objects/HouseObjects/bucket2.png",58,55,58,0.9,"stim/61.jpeg",6,1,3,NA,"HouseObjects",1,1,"left","left",0.777000189,1,1,0,1,NA,NA,NA,NA,NA,NA,NA,NA,NA,NA,NA,NA,NA,NA,NA,NA,NA,NA,NA,NA,NA,NA,NA,NA
"145","stim/objects/Instruments/banjo.png",59,55,59,0.5,"stim/14.jpeg",1,4,1,NA,"Instruments",2,3,"right","right",0.714999914,1,1,0,1,NA,NA,NA,NA,NA,NA,NA,NA,NA,NA,NA,NA,NA,NA,NA,NA,NA,NA,NA,NA,NA,NA,NA,NA
"14","stim/objects/HouseObjects/ballofstring.png",60,55,60,0.5,"stim/12.jpeg",1,2,1,NA,"HouseObjects",1,2,"left","right",0.741999865,0,0,0,1,NA,NA,NA,NA,NA,NA,NA,NA,NA,NA,NA,NA,NA,NA,NA,NA,NA,NA,NA,NA,NA,NA,NA,NA
"7","stim/objects/HouseObjects/ashtray2.png",61,55,61,0.7,"stim/41.jpeg",4,1,2,NA,"HouseObjects",1,2,"left","left",0.595000029,1,1,0,1,NA,NA,NA,NA,NA,NA,NA,NA,NA,NA,NA,NA,NA,NA,NA,NA,NA,NA,NA,NA,NA,NA,NA,NA
"203","stim/objects/Instruments/chime2.png",62,55,62,0.9,"stim/54.jpeg",5,4,3,NA,"Instruments",2,2,"right","",NA,0,0,0,1,NA,NA,NA,NA,NA,NA,NA,NA,NA,NA,NA,NA,NA,NA,NA,NA,NA,NA,NA,NA,NA,NA,NA,NA
"20","stim/objects/HouseObjects/ballofstring2.png",63,55,63,0.7,"stim/42.jpeg",4,2,2,NA,"HouseObjects",1,4,"left","right",0.575999975,0,0,0,1,NA,NA,NA,NA,NA,NA,NA,NA,NA,NA,NA,NA,NA,NA,NA,NA,NA,NA,NA,NA,NA,NA,NA,NA
"2","stim/objects/HouseObjects/ashtray.png",64,55,64,0.5,"stim/11.jpeg",1,1,1,NA,"HouseObjects",1,2,"left","right",0.75,0,0,0,1,NA,NA,NA,NA,NA,NA,NA,NA,NA,NA,NA,NA,NA,NA,NA,NA,NA,NA,NA,NA,NA,NA,NA,NA
"3","stim/objects/HouseObjects/ashtray.png",65,55,65,0.5,"stim/11.jpeg",1,1,1,NA,"HouseObjects",1,2,"left","left",0.779999971,1,1,0,1,NA,NA,NA,NA,NA,NA,NA,NA,NA,NA,NA,NA,NA,NA,NA,NA,NA,NA,NA,NA,NA,NA,NA,NA
"42","stim/objects/HouseObjects/basket2.png",66,55,66,0.7,"stim/44.jpeg",4,4,2,NA,"HouseObjects",1,3,"left","",NA,0,0,0,1,NA,NA,NA,NA,NA,NA,NA,NA,NA,NA,NA,NA,NA,NA,NA,NA,NA,NA,NA,NA,NA,NA,NA,NA
"190","stim/objects/Instruments/cello2.png",67,55,67,0.9,"stim/53.jpeg",5,3,3,NA,"Instruments",2,2,"right","right",0.565000057,1,1,0,1,NA,NA,NA,NA,NA,NA,NA,NA,NA,NA,NA,NA,NA,NA,NA,NA,NA,NA,NA,NA,NA,NA,NA,NA
"4","stim/objects/HouseObjects/ashtray.png",68,55,68,0.5,"stim/11.jpeg",1,1,1,NA,"HouseObjects",1,2,"left","left",0.809000015,1,1,0,1,NA,NA,NA,NA,NA,NA,NA,NA,NA,NA,NA,NA,NA,NA,NA,NA,NA,NA,NA,NA,NA,NA,NA,NA
"228","stim/objects/Instruments/cymbal.png",69,55,69,0.7,"stim/33.jpeg",3,3,2,NA,"Instruments",2,1,"right","right",0.74000001,1,1,0,1,NA,NA,NA,NA,NA,NA,NA,NA,NA,NA,NA,NA,NA,NA,NA,NA,NA,NA,NA,NA,NA,NA,NA,NA
"38","stim/objects/HouseObjects/basket.png",70,55,70,0.5,"stim/14.jpeg",1,4,1,NA,"HouseObjects",1,3,"left","left",0.746000051,1,1,0,1,NA,NA,NA,NA,NA,NA,NA,NA,NA,NA,NA,NA,NA,NA,NA,NA,NA,NA,NA,NA,NA,NA,NA,NA
"54","stim/objects/HouseObjects/bleachbottle2.png",71,55,71,0.1,"stim/51.jpeg",5,1,3,NA,"HouseObjects",1,1,"left","",NA,0,0,0,1,NA,NA,NA,NA,NA,NA,NA,NA,NA,NA,NA,NA,NA,NA,NA,NA,NA,NA,NA,NA,NA,NA,NA,NA
"103","stim/objects/HouseObjects/clothesdryingrack2.png",72,55,72,0.9,"stim/63.jpeg",6,3,3,NA,"HouseObjects",1,2,"left","left",0.69900012,1,1,0,1,NA,NA,NA,NA,NA,NA,NA,NA,NA,NA,NA,NA,NA,NA,NA,NA,NA,NA,NA,NA,NA,NA,NA,NA
"142","stim/objects/Instruments/balalaika2.png",73,55,73,0.3,"stim/43.jpeg",4,3,2,NA,"Instruments",2,1,"right","right",0.740999937,1,1,0,1,NA,NA,NA,NA,NA,NA,NA,NA,NA,NA,NA,NA,NA,NA,NA,NA,NA,NA,NA,NA,NA,NA,NA,NA
"168","stim/objects/Instruments/bassguitar.png",74,55,74,0.5,"stim/22.jpeg",2,2,1,NA,"Instruments",2,1,"right","right",0.57400012,1,1,0,1,NA,NA,NA,NA,NA,NA,NA,NA,NA,NA,NA,NA,NA,NA,NA,NA,NA,NA,NA,NA,NA,NA,NA,NA
"199","stim/objects/Instruments/chime.png",75,55,75,0.5,"stim/24.jpeg",2,4,1,NA,"Instruments",2,3,"right","right",0.493999958,1,1,0,1,NA,NA,NA,NA,NA,NA,NA,NA,NA,NA,NA,NA,NA,NA,NA,NA,NA,NA,NA,NA,NA,NA,NA,NA
"219","stim/objects/Instruments/cornet.png",76,55,76,0.7,"stim/32.jpeg",3,2,2,NA,"Instruments",2,2,"right","right",0.595000029,1,1,0,1,NA,NA,NA,NA,NA,NA,NA,NA,NA,NA,NA,NA,NA,NA,NA,NA,NA,NA,NA,NA,NA,NA,NA,NA
"114","stim/objects/HouseObjects/clothespin2.png",77,55,77,0.9,"stim/64.jpeg",6,4,3,NA,"HouseObjects",1,1,"left","left",0.682999849,1,1,0,1,NA,NA,NA,NA,NA,NA,NA,NA,NA,NA,NA,NA,NA,NA,NA,NA,NA,NA,NA,NA,NA,NA,NA,NA
"235","stim/objects/Instruments/doublebass.png",78,55,78,0.7,"stim/34.jpeg",3,4,2,NA,"Instruments",2,3,"right","left",0.409999847,0,0,0,1,NA,NA,NA,NA,NA,NA,NA,NA,NA,NA,NA,NA,NA,NA,NA,NA,NA,NA,NA,NA,NA,NA,NA,NA
"115","stim/objects/HouseObjects/clothespin2.png",79,55,79,0.9,"stim/64.jpeg",6,4,3,NA,"HouseObjects",1,4,"left","left",0.643000126,1,1,0,1,NA,NA,NA,NA,NA,NA,NA,NA,NA,NA,NA,NA,NA,NA,NA,NA,NA,NA,NA,NA,NA,NA,NA,NA
"174","stim/objects/Instruments/bassguitar2.png",80,55,80,0.9,"stim/52.jpeg",5,2,3,NA,"Instruments",2,1,"right","right",0.713000059,1,1,0,1,NA,NA,NA,NA,NA,NA,NA,NA,NA,NA,NA,NA,NA,NA,NA,NA,NA,NA,NA,NA,NA,NA,NA,NA
"43","stim/objects/HouseObjects/basket2.png",81,55,81,0.7,"stim/44.jpeg",4,4,2,NA,"HouseObjects",1,2,"left","right",0.758999825,0,0,0,1,NA,NA,NA,NA,NA,NA,NA,NA,NA,NA,NA,NA,NA,NA,NA,NA,NA,NA,NA,NA,NA,NA,NA,NA
"44","stim/objects/HouseObjects/basket2.png",82,55,82,0.7,"stim/44.jpeg",4,4,2,NA,"HouseObjects",1,3,"left","left",0.734000206,1,1,0,1,NA,NA,NA,NA,NA,NA,NA,NA,NA,NA,NA,NA,NA,NA,NA,NA,NA,NA,NA,NA,NA,NA,NA,NA
"78","stim/objects/HouseObjects/bucket2.png",83,55,83,0.9,"stim/61.jpeg",6,1,3,NA,"HouseObjects",1,2,"left","left",0.622999907,1,1,0,1,NA,NA,NA,NA,NA,NA,NA,NA,NA,NA,NA,NA,NA,NA,NA,NA,NA,NA,NA,NA,NA,NA,NA,NA
"134","stim/objects/Instruments/acousticguitar2.png",84,55,84,0.3,"stim/42.jpeg",4,2,2,NA,"Instruments",2,2,"right","",NA,0,0,0,1,NA,NA,NA,NA,NA,NA,NA,NA,NA,NA,NA,NA,NA,NA,NA,NA,NA,NA,NA,NA,NA,NA,NA,NA
"160","stim/objects/Instruments/bassdrum2.png",85,55,85,0.9,"stim/51.jpeg",5,1,3,NA,"Instruments",2,3,"right","right",0.779999971,1,1,0,1,NA,NA,NA,NA,NA,NA,NA,NA,NA,NA,NA,NA,NA,NA,NA,NA,NA,NA,NA,NA,NA,NA,NA,NA
"31","stim/objects/HouseObjects/barbecuelighter2.png",86,55,86,0.7,"stim/43.jpeg",4,3,2,NA,"HouseObjects",1,4,"left","left",0.664000034,1,1,0,1,NA,NA,NA,NA,NA,NA,NA,NA,NA,NA,NA,NA,NA,NA,NA,NA,NA,NA,NA,NA,NA,NA,NA,NA
"21","stim/objects/HouseObjects/ballofstring2.png",87,55,87,0.7,"stim/42.jpeg",4,2,2,NA,"HouseObjects",1,2,"left","left",0.622999907,1,1,0,1,NA,NA,NA,NA,NA,NA,NA,NA,NA,NA,NA,NA,NA,NA,NA,NA,NA,NA,NA,NA,NA,NA,NA,NA
"15","stim/objects/HouseObjects/ballofstring.png",88,55,88,0.5,"stim/12.jpeg",1,2,1,NA,"HouseObjects",1,3,"left","",NA,0,0,0,1,NA,NA,NA,NA,NA,NA,NA,NA,NA,NA,NA,NA,NA,NA,NA,NA,NA,NA,NA,NA,NA,NA,NA,NA
"146","stim/objects/Instruments/banjo.png",89,55,89,0.5,"stim/14.jpeg",1,4,1,NA,"Instruments",2,1,"right","left",0.753000021,0,0,0,1,NA,NA,NA,NA,NA,NA,NA,NA,NA,NA,NA,NA,NA,NA,NA,NA,NA,NA,NA,NA,NA,NA,NA,NA
"191","stim/objects/Instruments/cello2.png",90,55,90,0.9,"stim/53.jpeg",5,3,3,NA,"Instruments",2,2,"right","",NA,0,0,0,1,NA,NA,NA,NA,NA,NA,NA,NA,NA,NA,NA,NA,NA,NA,NA,NA,NA,NA,NA,NA,NA,NA,NA,NA
"22","stim/objects/HouseObjects/ballofstring2.png",91,55,91,0.7,"stim/42.jpeg",4,2,2,NA,"HouseObjects",1,3,"left","",NA,0,0,0,1,NA,NA,NA,NA,NA,NA,NA,NA,NA,NA,NA,NA,NA,NA,NA,NA,NA,NA,NA,NA,NA,NA,NA,NA
"49","stim/objects/HouseObjects/bleachbottle.png",92,55,92,0.5,"stim/21.jpeg",2,1,1,NA,"HouseObjects",1,3,"left","left",0.770999908,1,1,0,1,NA,NA,NA,NA,NA,NA,NA,NA,NA,NA,NA,NA,NA,NA,NA,NA,NA,NA,NA,NA,NA,NA,NA,NA
"25","stim/objects/HouseObjects/barbecuelighter.png",93,55,93,0.5,"stim/13.jpeg",1,3,1,NA,"HouseObjects",1,1,"left","left",0.786000013,1,1,0,1,NA,NA,NA,NA,NA,NA,NA,NA,NA,NA,NA,NA,NA,NA,NA,NA,NA,NA,NA,NA,NA,NA,NA,NA
"210","stim/objects/Instruments/clarinet.png",94,55,94,0.7,"stim/31.jpeg",3,1,2,NA,"Instruments",2,3,"right","right",0.610000134,1,1,0,1,NA,NA,NA,NA,NA,NA,NA,NA,NA,NA,NA,NA,NA,NA,NA,NA,NA,NA,NA,NA,NA,NA,NA,NA
"204","stim/objects/Instruments/chime2.png",95,55,95,0.9,"stim/54.jpeg",5,4,3,NA,"Instruments",2,2,"right","right",0.620000124,1,1,0,1,NA,NA,NA,NA,NA,NA,NA,NA,NA,NA,NA,NA,NA,NA,NA,NA,NA,NA,NA,NA,NA,NA,NA,NA
"73","stim/objects/HouseObjects/bucket.png",96,55,96,0.3,"stim/31.jpeg",3,1,2,NA,"HouseObjects",1,3,"left","right",0.543000221,0,0,0,1,NA,NA,NA,NA,NA,NA,NA,NA,NA,NA,NA,NA,NA,NA,NA,NA,NA,NA,NA,NA,NA,NA,NA,NA
"192","stim/objects/Instruments/cello2.png",97,55,97,0.9,"stim/53.jpeg",5,3,3,NA,"Instruments",2,2,"right","right",0.733999968,1,1,0,1,NA,NA,NA,NA,NA,NA,NA,NA,NA,NA,NA,NA,NA,NA,NA,NA,NA,NA,NA,NA,NA,NA,NA,NA
"175","stim/objects/Instruments/bassguitar2.png",98,55,98,0.9,"stim/52.jpeg",5,2,3,NA,"Instruments",2,3,"right","left",0.49000001,0,0,0,1,NA,NA,NA,NA,NA,NA,NA,NA,NA,NA,NA,NA,NA,NA,NA,NA,NA,NA,NA,NA,NA,NA,NA,NA
"104","stim/objects/HouseObjects/clothesdryingrack2.png",99,55,99,0.9,"stim/63.jpeg",6,3,3,NA,"HouseObjects",1,4,"left","left",0.618999958,1,1,0,1,NA,NA,NA,NA,NA,NA,NA,NA,NA,NA,NA,NA,NA,NA,NA,NA,NA,NA,NA,NA,NA,NA,NA,NA
"26","stim/objects/HouseObjects/barbecuelighter.png",100,55,100,0.5,"stim/13.jpeg",1,3,1,NA,"HouseObjects",1,3,"left","left",0.582000017,1,1,0,1,NA,NA,NA,NA,NA,NA,NA,NA,NA,NA,NA,NA,NA,NA,NA,NA,NA,NA,NA,NA,NA,NA,NA,NA
"116","stim/objects/HouseObjects/clothespin2.png",101,55,101,0.9,"stim/64.jpeg",6,4,3,NA,"HouseObjects",1,1,"left","",NA,0,0,0,1,NA,NA,NA,NA,NA,NA,NA,NA,NA,NA,NA,NA,NA,NA,NA,NA,NA,NA,NA,NA,NA,NA,NA,NA
"60","stim/objects/HouseObjects/blender2.png",102,55,102,0.1,"stim/52.jpeg",5,2,3,NA,"HouseObjects",1,3,"left","",NA,0,0,0,1,NA,NA,NA,NA,NA,NA,NA,NA,NA,NA,NA,NA,NA,NA,NA,NA,NA,NA,NA,NA,NA,NA,NA,NA
"232","stim/objects/Instruments/cymbal2.png",103,55,103,0.1,"stim/63.jpeg",6,3,3,NA,"Instruments",2,4,"right","left",0.621000051,0,0,0,1,NA,NA,NA,NA,NA,NA,NA,NA,NA,NA,NA,NA,NA,NA,NA,NA,NA,NA,NA,NA,NA,NA,NA,NA
"147","stim/objects/Instruments/banjo.png",104,55,104,0.5,"stim/14.jpeg",1,4,1,NA,"Instruments",2,2,"right","right",0.531000137,1,1,0,1,NA,NA,NA,NA,NA,NA,NA,NA,NA,NA,NA,NA,NA,NA,NA,NA,NA,NA,NA,NA,NA,NA,NA,NA
"68","stim/objects/HouseObjects/broom.png",105,55,105,0.5,"stim/24.jpeg",2,4,1,NA,"HouseObjects",1,4,"left","right",0.683000088,0,0,0,1,NA,NA,NA,NA,NA,NA,NA,NA,NA,NA,NA,NA,NA,NA,NA,NA,NA,NA,NA,NA,NA,NA,NA,NA
"45","stim/objects/HouseObjects/basket2.png",106,55,106,0.7,"stim/44.jpeg",4,4,2,NA,"HouseObjects",1,4,"left","left",0.524000168,1,1,0,1,NA,NA,NA,NA,NA,NA,NA,NA,NA,NA,NA,NA,NA,NA,NA,NA,NA,NA,NA,NA,NA,NA,NA,NA
"105","stim/objects/HouseObjects/clothesdryingrack2.png",107,55,107,0.9,"stim/63.jpeg",6,3,3,NA,"HouseObjects",1,4,"left","left",0.532000065,1,1,0,1,NA,NA,NA,NA,NA,NA,NA,NA,NA,NA,NA,NA,NA,NA,NA,NA,NA,NA,NA,NA,NA,NA,NA,NA
"8","stim/objects/HouseObjects/ashtray2.png",108,55,108,0.7,"stim/41.jpeg",4,1,2,NA,"HouseObjects",1,4,"left","",NA,0,0,0,1,NA,NA,NA,NA,NA,NA,NA,NA,NA,NA,NA,NA,NA,NA,NA,NA,NA,NA,NA,NA,NA,NA,NA,NA
"150","stim/objects/Instruments/banjo2.png",109,55,109,0.3,"stim/44.jpeg",4,4,2,NA,"Instruments",2,4,"right","",NA,0,0,0,1,NA,NA,NA,NA,NA,NA,NA,NA,NA,NA,NA,NA,NA,NA,NA,NA,NA,NA,NA,NA,NA,NA,NA,NA
"135","stim/objects/Instruments/acousticguitar2.png",110,55,110,0.3,"stim/42.jpeg",4,2,2,NA,"Instruments",2,3,"right","",NA,0,0,0,1,NA,NA,NA,NA,NA,NA,NA,NA,NA,NA,NA,NA,NA,NA,NA,NA,NA,NA,NA,NA,NA,NA,NA,NA
"32","stim/objects/HouseObjects/barbecuelighter2.png",111,55,111,0.7,"stim/43.jpeg",4,3,2,NA,"HouseObjects",1,2,"left","right",0.619999886,0,0,0,1,NA,NA,NA,NA,NA,NA,NA,NA,NA,NA,NA,NA,NA,NA,NA,NA,NA,NA,NA,NA,NA,NA,NA,NA
"240","stim/objects/Instruments/doublebass2.png",112,55,112,0.1,"stim/64.jpeg",6,4,3,NA,"Instruments",2,3,"right","left",0.214999914,0,0,0,1,NA,NA,NA,NA,NA,NA,NA,NA,NA,NA,NA,NA,NA,NA,NA,NA,NA,NA,NA,NA,NA,NA,NA,NA
"121","stim/objects/Instruments/accordion.png",113,55,113,0.5,"stim/11.jpeg",1,1,1,NA,"Instruments",2,3,"right","left",0.490999937,0,0,0,1,NA,NA,NA,NA,NA,NA,NA,NA,NA,NA,NA,NA,NA,NA,NA,NA,NA,NA,NA,NA,NA,NA,NA,NA
"151","stim/objects/Instruments/banjo2.png",114,55,114,0.3,"stim/44.jpeg",4,4,2,NA,"Instruments",2,1,"right","right",0.325999975,1,1,0,1,NA,NA,NA,NA,NA,NA,NA,NA,NA,NA,NA,NA,NA,NA,NA,NA,NA,NA,NA,NA,NA,NA,NA,NA
"211","stim/objects/Instruments/clarinet.png",115,55,115,0.7,"stim/31.jpeg",3,1,2,NA,"Instruments",2,1,"right","right",0.513000011,1,1,0,1,NA,NA,NA,NA,NA,NA,NA,NA,NA,NA,NA,NA,NA,NA,NA,NA,NA,NA,NA,NA,NA,NA,NA,NA
"63","stim/objects/HouseObjects/bottle.png",116,55,116,0.5,"stim/23.jpeg",2,3,1,NA,"HouseObjects",1,1,"left","right",0.480000019,0,0,0,1,NA,NA,NA,NA,NA,NA,NA,NA,NA,NA,NA,NA,NA,NA,NA,NA,NA,NA,NA,NA,NA,NA,NA,NA
"64","stim/objects/HouseObjects/bottle.png",117,55,117,0.5,"stim/23.jpeg",2,3,1,NA,"HouseObjects",1,3,"left","left",0.458999872,1,1,0,1,NA,NA,NA,NA,NA,NA,NA,NA,NA,NA,NA,NA,NA,NA,NA,NA,NA,NA,NA,NA,NA,NA,NA,NA
"176","stim/objects/Instruments/bassguitar2.png",118,55,118,0.9,"stim/52.jpeg",5,2,3,NA,"Instruments",2,1,"right","right",0.648999929,1,1,0,1,NA,NA,NA,NA,NA,NA,NA,NA,NA,NA,NA,NA,NA,NA,NA,NA,NA,NA,NA,NA,NA,NA,NA,NA
"212","stim/objects/Instruments/clarinet.png",119,55,119,0.7,"stim/31.jpeg",3,1,2,NA,"Instruments",2,4,"right","right",0.542000055,1,1,0,1,NA,NA,NA,NA,NA,NA,NA,NA,NA,NA,NA,NA,NA,NA,NA,NA,NA,NA,NA,NA,NA,NA,NA,NA
"33","stim/objects/HouseObjects/barbecuelighter2.png",120,55,120,0.7,"stim/43.jpeg",4,3,2,NA,"HouseObjects",1,2,"left","left",0.498000145,1,1,0,1,NA,NA,NA,NA,NA,NA,NA,NA,NA,NA,NA,NA,NA,NA,NA,NA,NA,NA,NA,NA,NA,NA,NA,NA
"91","stim/objects/HouseObjects/clock2.png",121,55,121,0.9,"stim/62.jpeg",6,2,3,NA,"HouseObjects",1,3,"left","left",0.494999886,1,1,0,1,NA,NA,NA,NA,NA,NA,NA,NA,NA,NA,NA,NA,NA,NA,NA,NA,NA,NA,NA,NA,NA,NA,NA,NA
"85","stim/objects/HouseObjects/clock.png",122,55,122,0.3,"stim/32.jpeg",3,2,2,NA,"HouseObjects",1,3,"left","right",0.567000151,0,0,0,1,NA,NA,NA,NA,NA,NA,NA,NA,NA,NA,NA,NA,NA,NA,NA,NA,NA,NA,NA,NA,NA,NA,NA,NA
"23","stim/objects/HouseObjects/ballofstring2.png",123,55,123,0.7,"stim/42.jpeg",4,2,2,NA,"HouseObjects",1,4,"left","left",0.524999857,1,1,0,1,NA,NA,NA,NA,NA,NA,NA,NA,NA,NA,NA,NA,NA,NA,NA,NA,NA,NA,NA,NA,NA,NA,NA,NA
"155","stim/objects/Instruments/bassdrum.png",124,55,124,0.5,"stim/21.jpeg",2,1,1,NA,"Instruments",2,2,"right","right",0.453999996,1,1,0,1,NA,NA,NA,NA,NA,NA,NA,NA,NA,NA,NA,NA,NA,NA,NA,NA,NA,NA,NA,NA,NA,NA,NA,NA
"79","stim/objects/HouseObjects/bucket2.png",125,55,125,0.9,"stim/61.jpeg",6,1,3,NA,"HouseObjects",1,2,"left","left",0.613000154,1,1,0,1,NA,NA,NA,NA,NA,NA,NA,NA,NA,NA,NA,NA,NA,NA,NA,NA,NA,NA,NA,NA,NA,NA,NA,NA
"148","stim/objects/Instruments/banjo.png",126,55,126,0.5,"stim/14.jpeg",1,4,1,NA,"Instruments",2,1,"right","left",0.49000001,0,0,0,1,NA,NA,NA,NA,NA,NA,NA,NA,NA,NA,NA,NA,NA,NA,NA,NA,NA,NA,NA,NA,NA,NA,NA,NA
"169","stim/objects/Instruments/bassguitar.png",127,55,127,0.5,"stim/22.jpeg",2,2,1,NA,"Instruments",2,1,"right","left",0.483999968,0,0,0,1,NA,NA,NA,NA,NA,NA,NA,NA,NA,NA,NA,NA,NA,NA,NA,NA,NA,NA,NA,NA,NA,NA,NA,NA
"205","stim/objects/Instruments/chime2.png",128,55,128,0.9,"stim/54.jpeg",5,4,3,NA,"Instruments",2,4,"right","right",0.593999863,1,1,0,1,NA,NA,NA,NA,NA,NA,NA,NA,NA,NA,NA,NA,NA,NA,NA,NA,NA,NA,NA,NA,NA,NA,NA,NA
"236","stim/objects/Instruments/doublebass.png",129,55,129,0.7,"stim/34.jpeg",3,4,2,NA,"Instruments",2,4,"right","",NA,0,0,0,1,NA,NA,NA,NA,NA,NA,NA,NA,NA,NA,NA,NA,NA,NA,NA,NA,NA,NA,NA,NA,NA,NA,NA,NA
"39","stim/objects/HouseObjects/basket.png",130,55,130,0.5,"stim/14.jpeg",1,4,1,NA,"HouseObjects",1,2,"left","left",0.64199996,1,1,0,1,NA,NA,NA,NA,NA,NA,NA,NA,NA,NA,NA,NA,NA,NA,NA,NA,NA,NA,NA,NA,NA,NA,NA,NA
"34","stim/objects/HouseObjects/barbecuelighter2.png",131,55,131,0.7,"stim/43.jpeg",4,3,2,NA,"HouseObjects",1,2,"left","",NA,0,0,0,1,NA,NA,NA,NA,NA,NA,NA,NA,NA,NA,NA,NA,NA,NA,NA,NA,NA,NA,NA,NA,NA,NA,NA,NA
"111","stim/objects/HouseObjects/clothespin.png",132,55,132,0.3,"stim/34.jpeg",3,4,2,NA,"HouseObjects",1,1,"left","right",0.690999985,0,0,0,1,NA,NA,NA,NA,NA,NA,NA,NA,NA,NA,NA,NA,NA,NA,NA,NA,NA,NA,NA,NA,NA,NA,NA,NA
"86","stim/objects/HouseObjects/clock.png",133,55,133,0.3,"stim/32.jpeg",3,2,2,NA,"HouseObjects",1,4,"left","left",0.423000097,1,1,0,1,NA,NA,NA,NA,NA,NA,NA,NA,NA,NA,NA,NA,NA,NA,NA,NA,NA,NA,NA,NA,NA,NA,NA,NA
"80","stim/objects/HouseObjects/bucket2.png",134,55,134,0.9,"stim/61.jpeg",6,1,3,NA,"HouseObjects",1,2,"left","left",0.51699996,1,1,0,1,NA,NA,NA,NA,NA,NA,NA,NA,NA,NA,NA,NA,NA,NA,NA,NA,NA,NA,NA,NA,NA,NA,NA,NA
"122","stim/objects/Instruments/accordion.png",135,55,135,0.5,"stim/11.jpeg",1,1,1,NA,"Instruments",2,2,"right","left",0.514999866,0,0,0,1,NA,NA,NA,NA,NA,NA,NA,NA,NA,NA,NA,NA,NA,NA,NA,NA,NA,NA,NA,NA,NA,NA,NA,NA
"69","stim/objects/HouseObjects/broom.png",136,55,136,0.5,"stim/24.jpeg",2,4,1,NA,"HouseObjects",1,2,"left","right",0.519999981,0,0,0,1,NA,NA,NA,NA,NA,NA,NA,NA,NA,NA,NA,NA,NA,NA,NA,NA,NA,NA,NA,NA,NA,NA,NA,NA
"92","stim/objects/HouseObjects/clock2.png",137,55,137,0.9,"stim/62.jpeg",6,2,3,NA,"HouseObjects",1,3,"left","left",0.42599988,1,1,0,1,NA,NA,NA,NA,NA,NA,NA,NA,NA,NA,NA,NA,NA,NA,NA,NA,NA,NA,NA,NA,NA,NA,NA,NA
"156","stim/objects/Instruments/bassdrum.png",138,55,138,0.5,"stim/21.jpeg",2,1,1,NA,"Instruments",2,1,"right","right",0.688999891,1,1,0,1,NA,NA,NA,NA,NA,NA,NA,NA,NA,NA,NA,NA,NA,NA,NA,NA,NA,NA,NA,NA,NA,NA,NA,NA
"220","stim/objects/Instruments/cornet.png",139,55,139,0.7,"stim/32.jpeg",3,2,2,NA,"Instruments",2,1,"right","left",0.33100009,0,0,0,1,NA,NA,NA,NA,NA,NA,NA,NA,NA,NA,NA,NA,NA,NA,NA,NA,NA,NA,NA,NA,NA,NA,NA,NA
"183","stim/objects/Instruments/cello.png",140,55,140,0.5,"stim/23.jpeg",2,3,1,NA,"Instruments",2,2,"right","left",0.394999981,0,0,0,1,NA,NA,NA,NA,NA,NA,NA,NA,NA,NA,NA,NA,NA,NA,NA,NA,NA,NA,NA,NA,NA,NA,NA,NA
"184","stim/objects/Instruments/cello.png",141,55,141,0.5,"stim/23.jpeg",2,3,1,NA,"Instruments",2,4,"right","right",0.588999987,1,1,0,1,NA,NA,NA,NA,NA,NA,NA,NA,NA,NA,NA,NA,NA,NA,NA,NA,NA,NA,NA,NA,NA,NA,NA,NA
"117","stim/objects/HouseObjects/clothespin2.png",142,55,142,0.9,"stim/64.jpeg",6,4,3,NA,"HouseObjects",1,1,"left","left",0.693000078,1,1,0,1,NA,NA,NA,NA,NA,NA,NA,NA,NA,NA,NA,NA,NA,NA,NA,NA,NA,NA,NA,NA,NA,NA,NA,NA
"221","stim/objects/Instruments/cornet.png",143,55,143,0.7,"stim/32.jpeg",3,2,2,NA,"Instruments",2,3,"right","right",0.697000027,1,1,0,1,NA,NA,NA,NA,NA,NA,NA,NA,NA,NA,NA,NA,NA,NA,NA,NA,NA,NA,NA,NA,NA,NA,NA,NA
"93","stim/objects/HouseObjects/clock2.png",144,55,144,0.9,"stim/62.jpeg",6,2,3,NA,"HouseObjects",1,1,"left","left",0.552999973,1,1,0,1,NA,NA,NA,NA,NA,NA,NA,NA,NA,NA,NA,NA,NA,NA,NA,NA,NA,NA,NA,NA,NA,NA,NA,NA
"27","stim/objects/HouseObjects/barbecuelighter.png",145,55,145,0.5,"stim/13.jpeg",1,3,1,NA,"HouseObjects",1,4,"left","left",0.536999941,1,1,0,1,NA,NA,NA,NA,NA,NA,NA,NA,NA,NA,NA,NA,NA,NA,NA,NA,NA,NA,NA,NA,NA,NA,NA,NA
"193","stim/objects/Instruments/cello2.png",146,55,146,0.9,"stim/53.jpeg",5,3,3,NA,"Instruments",2,4,"right","right",0.667999983,1,1,0,1,NA,NA,NA,NA,NA,NA,NA,NA,NA,NA,NA,NA,NA,NA,NA,NA,NA,NA,NA,NA,NA,NA,NA,NA
"136","stim/objects/Instruments/acousticguitar2.png",147,55,147,0.3,"stim/42.jpeg",4,2,2,NA,"Instruments",2,4,"right","right",0.673000097,1,1,0,1,NA,NA,NA,NA,NA,NA,NA,NA,NA,NA,NA,NA,NA,NA,NA,NA,NA,NA,NA,NA,NA,NA,NA,NA
"46","stim/objects/HouseObjects/basket2.png",148,55,148,0.7,"stim/44.jpeg",4,4,2,NA,"HouseObjects",1,3,"left","right",0.625999928,0,0,0,1,NA,NA,NA,NA,NA,NA,NA,NA,NA,NA,NA,NA,NA,NA,NA,NA,NA,NA,NA,NA,NA,NA,NA,NA
"130","stim/objects/Instruments/acousticguitar.png",149,55,149,0.5,"stim/12.jpeg",1,2,1,NA,"Instruments",2,3,"right","right",0.71999979,1,1,0,1,NA,NA,NA,NA,NA,NA,NA,NA,NA,NA,NA,NA,NA,NA,NA,NA,NA,NA,NA,NA,NA,NA,NA,NA
"9","stim/objects/HouseObjects/ashtray2.png",150,55,150,0.7,"stim/41.jpeg",4,1,2,NA,"HouseObjects",1,4,"left","left",0.655999899,1,1,0,1,NA,NA,NA,NA,NA,NA,NA,NA,NA,NA,NA,NA,NA,NA,NA,NA,NA,NA,NA,NA,NA,NA,NA,NA
"194","stim/objects/Instruments/cello2.png",151,55,151,0.9,"stim/53.jpeg",5,3,3,NA,"Instruments",2,1,"right","",NA,0,0,0,1,NA,NA,NA,NA,NA,NA,NA,NA,NA,NA,NA,NA,NA,NA,NA,NA,NA,NA,NA,NA,NA,NA,NA,NA
"229","stim/objects/Instruments/cymbal.png",152,55,152,0.7,"stim/33.jpeg",3,3,2,NA,"Instruments",2,3,"right","right",0.618999958,1,1,0,1,NA,NA,NA,NA,NA,NA,NA,NA,NA,NA,NA,NA,NA,NA,NA,NA,NA,NA,NA,NA,NA,NA,NA,NA
"10","stim/objects/HouseObjects/ashtray2.png",153,55,153,0.7,"stim/41.jpeg",4,1,2,NA,"HouseObjects",1,2,"left","right",0.448999882,0,0,0,1,NA,NA,NA,NA,NA,NA,NA,NA,NA,NA,NA,NA,NA,NA,NA,NA,NA,NA,NA,NA,NA,NA,NA,NA
"28","stim/objects/HouseObjects/barbecuelighter.png",154,55,154,0.5,"stim/13.jpeg",1,3,1,NA,"HouseObjects",1,1,"left","left",0.46600008,1,1,0,1,NA,NA,NA,NA,NA,NA,NA,NA,NA,NA,NA,NA,NA,NA,NA,NA,NA,NA,NA,NA,NA,NA,NA,NA
"81","stim/objects/HouseObjects/bucket2.png",155,55,155,0.9,"stim/61.jpeg",6,1,3,NA,"HouseObjects",1,3,"left","left",0.553000212,1,1,0,1,NA,NA,NA,NA,NA,NA,NA,NA,NA,NA,NA,NA,NA,NA,NA,NA,NA,NA,NA,NA,NA,NA,NA,NA
"237","stim/objects/Instruments/doublebass.png",156,55,156,0.7,"stim/34.jpeg",3,4,2,NA,"Instruments",2,4,"right","right",0.536000013,1,1,0,1,NA,NA,NA,NA,NA,NA,NA,NA,NA,NA,NA,NA,NA,NA,NA,NA,NA,NA,NA,NA,NA,NA,NA,NA
"170","stim/objects/Instruments/bassguitar.png",157,55,157,0.5,"stim/22.jpeg",2,2,1,NA,"Instruments",2,2,"right","right",0.513999939,1,1,0,1,NA,NA,NA,NA,NA,NA,NA,NA,NA,NA,NA,NA,NA,NA,NA,NA,NA,NA,NA,NA,NA,NA,NA,NA
"40","stim/objects/HouseObjects/basket.png",158,55,158,0.5,"stim/14.jpeg",1,4,1,NA,"HouseObjects",1,3,"left","left",0.430999994,1,1,0,1,NA,NA,NA,NA,NA,NA,NA,NA,NA,NA,NA,NA,NA,NA,NA,NA,NA,NA,NA,NA,NA,NA,NA,NA
"94","stim/objects/HouseObjects/clock2.png",159,55,159,0.9,"stim/62.jpeg",6,2,3,NA,"HouseObjects",1,3,"left","left",0.50999999,1,1,0,1,NA,NA,NA,NA,NA,NA,NA,NA,NA,NA,NA,NA,NA,NA,NA,NA,NA,NA,NA,NA,NA,NA,NA,NA
"206","stim/objects/Instruments/chime2.png",160,55,160,0.9,"stim/54.jpeg",5,4,3,NA,"Instruments",2,4,"right","right",0.545000076,1,1,0,1,NA,NA,NA,NA,NA,NA,NA,NA,NA,NA,NA,NA,NA,NA,NA,NA,NA,NA,NA,NA,NA,NA,NA,NA
"70","stim/objects/HouseObjects/broom.png",161,55,161,0.5,"stim/24.jpeg",2,4,1,NA,"HouseObjects",1,4,"left","right",0.549000025,0,0,0,1,NA,NA,NA,NA,NA,NA,NA,NA,NA,NA,NA,NA,NA,NA,NA,NA,NA,NA,NA,NA,NA,NA,NA,NA
"35","stim/objects/HouseObjects/barbecuelighter2.png",162,55,162,0.7,"stim/43.jpeg",4,3,2,NA,"HouseObjects",1,1,"left","left",0.275000095,1,1,0,1,NA,NA,NA,NA,NA,NA,NA,NA,NA,NA,NA,NA,NA,NA,NA,NA,NA,NA,NA,NA,NA,NA,NA,NA
"24","stim/objects/HouseObjects/ballofstring2.png",163,55,163,0.7,"stim/42.jpeg",4,2,2,NA,"HouseObjects",1,2,"left","right",0.536000013,0,0,0,1,NA,NA,NA,NA,NA,NA,NA,NA,NA,NA,NA,NA,NA,NA,NA,NA,NA,NA,NA,NA,NA,NA,NA,NA
"123","stim/objects/Instruments/accordion.png",164,55,164,0.5,"stim/11.jpeg",1,1,1,NA,"Instruments",2,4,"right","",NA,0,0,0,1,NA,NA,NA,NA,NA,NA,NA,NA,NA,NA,NA,NA,NA,NA,NA,NA,NA,NA,NA,NA,NA,NA,NA,NA
"16","stim/objects/HouseObjects/ballofstring.png",165,55,165,0.5,"stim/12.jpeg",1,2,1,NA,"HouseObjects",1,4,"left","right",0.603000164,0,0,0,1,NA,NA,NA,NA,NA,NA,NA,NA,NA,NA,NA,NA,NA,NA,NA,NA,NA,NA,NA,NA,NA,NA,NA,NA
"161","stim/objects/Instruments/bassdrum2.png",166,55,166,0.9,"stim/51.jpeg",5,1,3,NA,"Instruments",2,1,"right","left",0.693000078,0,0,0,1,NA,NA,NA,NA,NA,NA,NA,NA,NA,NA,NA,NA,NA,NA,NA,NA,NA,NA,NA,NA,NA,NA,NA,NA
"124","stim/objects/Instruments/accordion.png",167,55,167,0.5,"stim/11.jpeg",1,1,1,NA,"Instruments",2,3,"right","",NA,0,0,0,1,NA,NA,NA,NA,NA,NA,NA,NA,NA,NA,NA,NA,NA,NA,NA,NA,NA,NA,NA,NA,NA,NA,NA,NA
"213","stim/objects/Instruments/clarinet.png",168,55,168,0.7,"stim/31.jpeg",3,1,2,NA,"Instruments",2,3,"right","right",0.59800005,1,1,0,1,NA,NA,NA,NA,NA,NA,NA,NA,NA,NA,NA,NA,NA,NA,NA,NA,NA,NA,NA,NA,NA,NA,NA,NA
"50","stim/objects/HouseObjects/bleachbottle.png",169,55,169,0.5,"stim/21.jpeg",2,1,1,NA,"HouseObjects",1,1,"left","left",0.615999937,1,1,0,1,NA,NA,NA,NA,NA,NA,NA,NA,NA,NA,NA,NA,NA,NA,NA,NA,NA,NA,NA,NA,NA,NA,NA,NA
"162","stim/objects/Instruments/bassdrum2.png",170,55,170,0.9,"stim/51.jpeg",5,1,3,NA,"Instruments",2,1,"right","right",0.707999945,1,1,0,1,NA,NA,NA,NA,NA,NA,NA,NA,NA,NA,NA,NA,NA,NA,NA,NA,NA,NA,NA,NA,NA,NA,NA,NA
"71","stim/objects/HouseObjects/broom.png",171,55,171,0.5,"stim/24.jpeg",2,4,1,NA,"HouseObjects",1,4,"left","right",0.563000202,0,0,0,1,NA,NA,NA,NA,NA,NA,NA,NA,NA,NA,NA,NA,NA,NA,NA,NA,NA,NA,NA,NA,NA,NA,NA,NA
"97","stim/objects/HouseObjects/clothesdryingrack.png",172,55,172,0.3,"stim/33.jpeg",3,3,2,NA,"HouseObjects",1,3,"left","left",0.419999838,1,1,0,1,NA,NA,NA,NA,NA,NA,NA,NA,NA,NA,NA,NA,NA,NA,NA,NA,NA,NA,NA,NA,NA,NA,NA,NA
"230","stim/objects/Instruments/cymbal.png",173,55,173,0.7,"stim/33.jpeg",3,3,2,NA,"Instruments",2,3,"right","left",0.470000029,0,0,0,1,NA,NA,NA,NA,NA,NA,NA,NA,NA,NA,NA,NA,NA,NA,NA,NA,NA,NA,NA,NA,NA,NA,NA,NA
"207","stim/objects/Instruments/chime2.png",174,55,174,0.9,"stim/54.jpeg",5,4,3,NA,"Instruments",2,4,"right","right",0.491000175,1,1,0,1,NA,NA,NA,NA,NA,NA,NA,NA,NA,NA,NA,NA,NA,NA,NA,NA,NA,NA,NA,NA,NA,NA,NA,NA
"128","stim/objects/Instruments/accordion2.png",175,55,175,0.3,"stim/41.jpeg",4,1,2,NA,"Instruments",2,2,"right","left",0.577000141,0,0,0,1,NA,NA,NA,NA,NA,NA,NA,NA,NA,NA,NA,NA,NA,NA,NA,NA,NA,NA,NA,NA,NA,NA,NA,NA
"131","stim/objects/Instruments/acousticguitar.png",176,55,176,0.5,"stim/12.jpeg",1,2,1,NA,"Instruments",2,2,"right","right",0.621999979,1,1,0,1,NA,NA,NA,NA,NA,NA,NA,NA,NA,NA,NA,NA,NA,NA,NA,NA,NA,NA,NA,NA,NA,NA,NA,NA
"157","stim/objects/Instruments/bassdrum.png",177,55,177,0.5,"stim/21.jpeg",2,1,1,NA,"Instruments",2,2,"right","right",0.451999903,1,1,0,1,NA,NA,NA,NA,NA,NA,NA,NA,NA,NA,NA,NA,NA,NA,NA,NA,NA,NA,NA,NA,NA,NA,NA,NA
"185","stim/objects/Instruments/cello.png",178,55,178,0.5,"stim/23.jpeg",2,3,1,NA,"Instruments",2,4,"right","right",0.630000114,1,1,0,1,NA,NA,NA,NA,NA,NA,NA,NA,NA,NA,NA,NA,NA,NA,NA,NA,NA,NA,NA,NA,NA,NA,NA,NA
"163","stim/objects/Instruments/bassdrum2.png",179,55,179,0.9,"stim/51.jpeg",5,1,3,NA,"Instruments",2,2,"right","right",0.608999968,1,1,0,1,NA,NA,NA,NA,NA,NA,NA,NA,NA,NA,NA,NA,NA,NA,NA,NA,NA,NA,NA,NA,NA,NA,NA,NA
"95","stim/objects/HouseObjects/clock2.png",180,55,180,0.9,"stim/62.jpeg",6,2,3,NA,"HouseObjects",1,4,"left","left",0.539000034,1,1,0,1,NA,NA,NA,NA,NA,NA,NA,NA,NA,NA,NA,NA,NA,NA,NA,NA,NA,NA,NA,NA,NA,NA,NA,NA
"47","stim/objects/HouseObjects/basket2.png",181,55,181,0.7,"stim/44.jpeg",4,4,2,NA,"HouseObjects",1,1,"left","",NA,0,0,0,1,NA,NA,NA,NA,NA,NA,NA,NA,NA,NA,NA,NA,NA,NA,NA,NA,NA,NA,NA,NA,NA,NA,NA,NA
"57","stim/objects/HouseObjects/blender.png",182,55,182,0.5,"stim/22.jpeg",2,2,1,NA,"HouseObjects",1,4,"left","right",0.513999939,0,0,0,1,NA,NA,NA,NA,NA,NA,NA,NA,NA,NA,NA,NA,NA,NA,NA,NA,NA,NA,NA,NA,NA,NA,NA,NA
"164","stim/objects/Instruments/bassdrum2.png",183,55,183,0.9,"stim/51.jpeg",5,1,3,NA,"Instruments",2,1,"right","right",0.60800004,1,1,0,1,NA,NA,NA,NA,NA,NA,NA,NA,NA,NA,NA,NA,NA,NA,NA,NA,NA,NA,NA,NA,NA,NA,NA,NA
"5","stim/objects/HouseObjects/ashtray.png",184,55,184,0.5,"stim/11.jpeg",1,1,1,NA,"HouseObjects",1,4,"left","left",0.54700017,1,1,0,1,NA,NA,NA,NA,NA,NA,NA,NA,NA,NA,NA,NA,NA,NA,NA,NA,NA,NA,NA,NA,NA,NA,NA,NA
"214","stim/objects/Instruments/clarinet.png",185,55,185,0.7,"stim/31.jpeg",3,1,2,NA,"Instruments",2,1,"right","right",0.683000088,1,1,0,1,NA,NA,NA,NA,NA,NA,NA,NA,NA,NA,NA,NA,NA,NA,NA,NA,NA,NA,NA,NA,NA,NA,NA,NA
"106","stim/objects/HouseObjects/clothesdryingrack2.png",186,55,186,0.9,"stim/63.jpeg",6,3,3,NA,"HouseObjects",1,3,"left","left",0.470999956,1,1,0,1,NA,NA,NA,NA,NA,NA,NA,NA,NA,NA,NA,NA,NA,NA,NA,NA,NA,NA,NA,NA,NA,NA,NA,NA
"165","stim/objects/Instruments/bassdrum2.png",187,55,187,0.9,"stim/51.jpeg",5,1,3,NA,"Instruments",2,4,"right","right",0.451000214,1,1,0,1,NA,NA,NA,NA,NA,NA,NA,NA,NA,NA,NA,NA,NA,NA,NA,NA,NA,NA,NA,NA,NA,NA,NA,NA
"215","stim/objects/Instruments/clarinet.png",188,55,188,0.7,"stim/31.jpeg",3,1,2,NA,"Instruments",2,4,"right","left",0.354000092,0,0,0,1,NA,NA,NA,NA,NA,NA,NA,NA,NA,NA,NA,NA,NA,NA,NA,NA,NA,NA,NA,NA,NA,NA,NA,NA
"139","stim/objects/Instruments/balalaika.png",189,55,189,0.5,"stim/13.jpeg",1,3,1,NA,"Instruments",2,4,"right","right",0.598999977,1,1,0,1,NA,NA,NA,NA,NA,NA,NA,NA,NA,NA,NA,NA,NA,NA,NA,NA,NA,NA,NA,NA,NA,NA,NA,NA
"152","stim/objects/Instruments/banjo2.png",190,55,190,0.3,"stim/44.jpeg",4,4,2,NA,"Instruments",2,3,"right","left",0.51699996,0,0,0,1,NA,NA,NA,NA,NA,NA,NA,NA,NA,NA,NA,NA,NA,NA,NA,NA,NA,NA,NA,NA,NA,NA,NA,NA
"149","stim/objects/Instruments/banjo.png",191,55,191,0.5,"stim/14.jpeg",1,4,1,NA,"Instruments",2,3,"right","left",0.460999966,0,0,0,1,NA,NA,NA,NA,NA,NA,NA,NA,NA,NA,NA,NA,NA,NA,NA,NA,NA,NA,NA,NA,NA,NA,NA,NA
"65","stim/objects/HouseObjects/bottle.png",192,55,192,0.5,"stim/23.jpeg",2,3,1,NA,"HouseObjects",1,2,"left","left",0.683000088,1,1,0,1,NA,NA,NA,NA,NA,NA,NA,NA,NA,NA,NA,NA,NA,NA,NA,NA,NA,NA,NA,NA,NA,NA,NA,NA
"118","stim/objects/HouseObjects/clothespin2.png",193,55,193,0.9,"stim/64.jpeg",6,4,3,NA,"HouseObjects",1,4,"left","left",0.603000164,1,1,0,1,NA,NA,NA,NA,NA,NA,NA,NA,NA,NA,NA,NA,NA,NA,NA,NA,NA,NA,NA,NA,NA,NA,NA,NA
"125","stim/objects/Instruments/accordion.png",194,55,194,0.5,"stim/11.jpeg",1,1,1,NA,"Instruments",2,3,"right","left",0.586999893,0,0,0,1,NA,NA,NA,NA,NA,NA,NA,NA,NA,NA,NA,NA,NA,NA,NA,NA,NA,NA,NA,NA,NA,NA,NA,NA
"177","stim/objects/Instruments/bassguitar2.png",195,55,195,0.9,"stim/52.jpeg",5,2,3,NA,"Instruments",2,3,"right","right",0.433000088,1,1,0,1,NA,NA,NA,NA,NA,NA,NA,NA,NA,NA,NA,NA,NA,NA,NA,NA,NA,NA,NA,NA,NA,NA,NA,NA
"51","stim/objects/HouseObjects/bleachbottle.png",196,55,196,0.5,"stim/21.jpeg",2,1,1,NA,"HouseObjects",1,4,"left","left",0.54700017,1,1,0,1,NA,NA,NA,NA,NA,NA,NA,NA,NA,NA,NA,NA,NA,NA,NA,NA,NA,NA,NA,NA,NA,NA,NA,NA
"238","stim/objects/Instruments/doublebass.png",197,55,197,0.7,"stim/34.jpeg",3,4,2,NA,"Instruments",2,1,"right","right",0.601000071,1,1,0,1,NA,NA,NA,NA,NA,NA,NA,NA,NA,NA,NA,NA,NA,NA,NA,NA,NA,NA,NA,NA,NA,NA,NA,NA
"11","stim/objects/HouseObjects/ashtray2.png",198,55,198,0.7,"stim/41.jpeg",4,1,2,NA,"HouseObjects",1,4,"left","",NA,0,0,0,1,NA,NA,NA,NA,NA,NA,NA,NA,NA,NA,NA,NA,NA,NA,NA,NA,NA,NA,NA,NA,NA,NA,NA,NA
"239","stim/objects/Instruments/doublebass.png",199,55,199,0.7,"stim/34.jpeg",3,4,2,NA,"Instruments",2,3,"right","right",0.606999874,1,1,0,1,NA,NA,NA,NA,NA,NA,NA,NA,NA,NA,NA,NA,NA,NA,NA,NA,NA,NA,NA,NA,NA,NA,NA,NA
"132","stim/objects/Instruments/acousticguitar.png",200,55,200,0.5,"stim/12.jpeg",1,2,1,NA,"Instruments",2,4,"right","left",0.463999987,0,0,0,1,NA,NA,NA,NA,NA,NA,NA,NA,NA,NA,NA,NA,NA,NA,NA,NA,NA,NA,NA,NA,NA,NA,NA,NA
"98","stim/objects/HouseObjects/clothesdryingrack.png",201,55,201,0.3,"stim/33.jpeg",3,3,2,NA,"HouseObjects",1,1,"left","right",0.650000095,0,0,0,1,NA,NA,NA,NA,NA,NA,NA,NA,NA,NA,NA,NA,NA,NA,NA,NA,NA,NA,NA,NA,NA,NA,NA,NA
"231","stim/objects/Instruments/cymbal.png",202,55,202,0.7,"stim/33.jpeg",3,3,2,NA,"Instruments",2,2,"right","left",0.619000196,0,0,0,1,NA,NA,NA,NA,NA,NA,NA,NA,NA,NA,NA,NA,NA,NA,NA,NA,NA,NA,NA,NA,NA,NA,NA,NA
"17","stim/objects/HouseObjects/ballofstring.png",203,55,203,0.5,"stim/12.jpeg",1,2,1,NA,"HouseObjects",1,1,"left","left",0.832000017,1,1,0,1,NA,NA,NA,NA,NA,NA,NA,NA,NA,NA,NA,NA,NA,NA,NA,NA,NA,NA,NA,NA,NA,NA,NA,NA
"48","stim/objects/HouseObjects/basket2.png",204,55,204,0.7,"stim/44.jpeg",4,4,2,NA,"HouseObjects",1,1,"left","right",0.647000074,0,0,0,1,NA,NA,NA,NA,NA,NA,NA,NA,NA,NA,NA,NA,NA,NA,NA,NA,NA,NA,NA,NA,NA,NA,NA,NA
"82","stim/objects/HouseObjects/bucket2.png",205,55,205,0.9,"stim/61.jpeg",6,1,3,NA,"HouseObjects",1,2,"left","left",0.555999994,1,1,0,1,NA,NA,NA,NA,NA,NA,NA,NA,NA,NA,NA,NA,NA,NA,NA,NA,NA,NA,NA,NA,NA,NA,NA,NA
"140","stim/objects/Instruments/balalaika.png",206,55,206,0.5,"stim/13.jpeg",1,3,1,NA,"Instruments",2,2,"right","left",0.434999943,0,0,0,1,NA,NA,NA,NA,NA,NA,NA,NA,NA,NA,NA,NA,NA,NA,NA,NA,NA,NA,NA,NA,NA,NA,NA,NA
"171","stim/objects/Instruments/bassguitar.png",207,55,207,0.5,"stim/22.jpeg",2,2,1,NA,"Instruments",2,1,"right","",NA,0,0,0,1,NA,NA,NA,NA,NA,NA,NA,NA,NA,NA,NA,NA,NA,NA,NA,NA,NA,NA,NA,NA,NA,NA,NA,NA
"222","stim/objects/Instruments/cornet.png",208,55,208,0.7,"stim/32.jpeg",3,2,2,NA,"Instruments",2,1,"right","right",0.679000139,1,1,0,1,NA,NA,NA,NA,NA,NA,NA,NA,NA,NA,NA,NA,NA,NA,NA,NA,NA,NA,NA,NA,NA,NA,NA,NA
"178","stim/objects/Instruments/bassguitar2.png",209,55,209,0.9,"stim/52.jpeg",5,2,3,NA,"Instruments",2,4,"right","",NA,0,0,0,1,NA,NA,NA,NA,NA,NA,NA,NA,NA,NA,NA,NA,NA,NA,NA,NA,NA,NA,NA,NA,NA,NA,NA,NA
"52","stim/objects/HouseObjects/bleachbottle.png",210,55,210,0.5,"stim/21.jpeg",2,1,1,NA,"HouseObjects",1,1,"left","left",0.529999971,1,1,0,1,NA,NA,NA,NA,NA,NA,NA,NA,NA,NA,NA,NA,NA,NA,NA,NA,NA,NA,NA,NA,NA,NA,NA,NA
"53","stim/objects/HouseObjects/bleachbottle.png",211,55,211,0.5,"stim/21.jpeg",2,1,1,NA,"HouseObjects",1,1,"left","left",0.383000135,1,1,0,1,NA,NA,NA,NA,NA,NA,NA,NA,NA,NA,NA,NA,NA,NA,NA,NA,NA,NA,NA,NA,NA,NA,NA,NA
"179","stim/objects/Instruments/bassguitar2.png",212,55,212,0.9,"stim/52.jpeg",5,2,3,NA,"Instruments",2,2,"right","right",0.726000071,1,1,0,1,NA,NA,NA,NA,NA,NA,NA,NA,NA,NA,NA,NA,NA,NA,NA,NA,NA,NA,NA,NA,NA,NA,NA,NA
"66","stim/objects/HouseObjects/bottle2.png",213,55,213,0.1,"stim/53.jpeg",5,3,3,NA,"HouseObjects",1,2,"left","right",0.501000166,0,0,0,1,NA,NA,NA,NA,NA,NA,NA,NA,NA,NA,NA,NA,NA,NA,NA,NA,NA,NA,NA,NA,NA,NA,NA,NA
"208","stim/objects/Instruments/chime2.png",214,55,214,0.9,"stim/54.jpeg",5,4,3,NA,"Instruments",2,3,"right","left",0.434999943,0,0,0,1,NA,NA,NA,NA,NA,NA,NA,NA,NA,NA,NA,NA,NA,NA,NA,NA,NA,NA,NA,NA,NA,NA,NA,NA
"133","stim/objects/Instruments/acousticguitar.png",215,55,215,0.5,"stim/12.jpeg",1,2,1,NA,"Instruments",2,3,"right","right",0.460000038,1,1,0,1,NA,NA,NA,NA,NA,NA,NA,NA,NA,NA,NA,NA,NA,NA,NA,NA,NA,NA,NA,NA,NA,NA,NA,NA
"224","stim/objects/Instruments/cornet2.png",216,55,216,0.1,"stim/62.jpeg",6,2,3,NA,"Instruments",2,1,"right","left",0.604000092,0,0,0,1,NA,NA,NA,NA,NA,NA,NA,NA,NA,NA,NA,NA,NA,NA,NA,NA,NA,NA,NA,NA,NA,NA,NA,NA
"107","stim/objects/HouseObjects/clothesdryingrack2.png",217,55,217,0.9,"stim/63.jpeg",6,3,3,NA,"HouseObjects",1,2,"left","left",0.453999996,1,1,0,1,NA,NA,NA,NA,NA,NA,NA,NA,NA,NA,NA,NA,NA,NA,NA,NA,NA,NA,NA,NA,NA,NA,NA,NA
"58","stim/objects/HouseObjects/blender.png",218,55,218,0.5,"stim/22.jpeg",2,2,1,NA,"HouseObjects",1,3,"left","right",0.450000048,0,0,0,1,NA,NA,NA,NA,NA,NA,NA,NA,NA,NA,NA,NA,NA,NA,NA,NA,NA,NA,NA,NA,NA,NA,NA,NA
"59","stim/objects/HouseObjects/blender.png",219,55,219,0.5,"stim/22.jpeg",2,2,1,NA,"HouseObjects",1,2,"left","left",0.461000204,1,1,0,1,NA,NA,NA,NA,NA,NA,NA,NA,NA,NA,NA,NA,NA,NA,NA,NA,NA,NA,NA,NA,NA,NA,NA,NA
"87","stim/objects/HouseObjects/clock.png",220,55,220,0.3,"stim/32.jpeg",3,2,2,NA,"HouseObjects",1,2,"left","right",0.683000088,0,0,0,1,NA,NA,NA,NA,NA,NA,NA,NA,NA,NA,NA,NA,NA,NA,NA,NA,NA,NA,NA,NA,NA,NA,NA,NA
"108","stim/objects/HouseObjects/clothesdryingrack2.png",221,55,221,0.9,"stim/63.jpeg",6,3,3,NA,"HouseObjects",1,1,"left","left",0.523000002,1,1,0,1,NA,NA,NA,NA,NA,NA,NA,NA,NA,NA,NA,NA,NA,NA,NA,NA,NA,NA,NA,NA,NA,NA,NA,NA
"74","stim/objects/HouseObjects/bucket.png",222,55,222,0.3,"stim/31.jpeg",3,1,2,NA,"HouseObjects",1,2,"left","left",0.412000179,1,1,0,1,NA,NA,NA,NA,NA,NA,NA,NA,NA,NA,NA,NA,NA,NA,NA,NA,NA,NA,NA,NA,NA,NA,NA,NA
"75","stim/objects/HouseObjects/bucket.png",223,55,223,0.3,"stim/31.jpeg",3,1,2,NA,"HouseObjects",1,1,"left","left",0.40199995,1,1,0,1,NA,NA,NA,NA,NA,NA,NA,NA,NA,NA,NA,NA,NA,NA,NA,NA,NA,NA,NA,NA,NA,NA,NA,NA
"141","stim/objects/Instruments/balalaika.png",224,55,224,0.5,"stim/13.jpeg",1,3,1,NA,"Instruments",2,2,"right","left",0.550000191,0,0,0,1,NA,NA,NA,NA,NA,NA,NA,NA,NA,NA,NA,NA,NA,NA,NA,NA,NA,NA,NA,NA,NA,NA,NA,NA
"223","stim/objects/Instruments/cornet.png",225,55,225,0.7,"stim/32.jpeg",3,2,2,NA,"Instruments",2,2,"right","right",0.447999954,1,1,0,1,NA,NA,NA,NA,NA,NA,NA,NA,NA,NA,NA,NA,NA,NA,NA,NA,NA,NA,NA,NA,NA,NA,NA,NA
"96","stim/objects/HouseObjects/clock2.png",226,55,226,0.9,"stim/62.jpeg",6,2,3,NA,"HouseObjects",1,2,"left","left",0.527999878,1,1,0,1,NA,NA,NA,NA,NA,NA,NA,NA,NA,NA,NA,NA,NA,NA,NA,NA,NA,NA,NA,NA,NA,NA,NA,NA
"216","stim/objects/Instruments/clarinet2.png",227,55,227,0.1,"stim/61.jpeg",6,1,3,NA,"Instruments",2,4,"right","left",0.551000118,0,0,0,1,NA,NA,NA,NA,NA,NA,NA,NA,NA,NA,NA,NA,NA,NA,NA,NA,NA,NA,NA,NA,NA,NA,NA,NA
"180","stim/objects/Instruments/bassguitar2.png",228,55,228,0.9,"stim/52.jpeg",5,2,3,NA,"Instruments",2,3,"right","left",0.407000065,0,0,0,1,NA,NA,NA,NA,NA,NA,NA,NA,NA,NA,NA,NA,NA,NA,NA,NA,NA,NA,NA,NA,NA,NA,NA,NA
"41","stim/objects/HouseObjects/basket.png",229,55,229,0.5,"stim/14.jpeg",1,4,1,NA,"HouseObjects",1,4,"left","left",0.532999992,1,1,0,1,NA,NA,NA,NA,NA,NA,NA,NA,NA,NA,NA,NA,NA,NA,NA,NA,NA,NA,NA,NA,NA,NA,NA,NA
"166","stim/objects/Instruments/bassdrum2.png",230,55,230,0.9,"stim/51.jpeg",5,1,3,NA,"Instruments",2,3,"right","right",0.812999964,1,1,0,1,NA,NA,NA,NA,NA,NA,NA,NA,NA,NA,NA,NA,NA,NA,NA,NA,NA,NA,NA,NA,NA,NA,NA,NA
"99","stim/objects/HouseObjects/clothesdryingrack.png",231,55,231,0.3,"stim/33.jpeg",3,3,2,NA,"HouseObjects",1,4,"left","left",0.585000038,1,1,0,1,NA,NA,NA,NA,NA,NA,NA,NA,NA,NA,NA,NA,NA,NA,NA,NA,NA,NA,NA,NA,NA,NA,NA,NA
"83","stim/objects/HouseObjects/bucket2.png",232,55,232,0.9,"stim/61.jpeg",6,1,3,NA,"HouseObjects",1,3,"left","left",0.59100008,1,1,0,1,NA,NA,NA,NA,NA,NA,NA,NA,NA,NA,NA,NA,NA,NA,NA,NA,NA,NA,NA,NA,NA,NA,NA,NA
"119","stim/objects/HouseObjects/clothespin2.png",233,55,233,0.9,"stim/64.jpeg",6,4,3,NA,"HouseObjects",1,3,"left","left",0.529999971,1,1,0,1,NA,NA,NA,NA,NA,NA,NA,NA,NA,NA,NA,NA,NA,NA,NA,NA,NA,NA,NA,NA,NA,NA,NA,NA
"143","stim/objects/Instruments/balalaika2.png",234,55,234,0.3,"stim/43.jpeg",4,3,2,NA,"Instruments",2,3,"right","",NA,0,0,0,1,NA,NA,NA,NA,NA,NA,NA,NA,NA,NA,NA,NA,NA,NA,NA,NA,NA,NA,NA,NA,NA,NA,NA,NA
"120","stim/objects/HouseObjects/clothespin2.png",235,55,235,0.9,"stim/64.jpeg",6,4,3,NA,"HouseObjects",1,2,"left","left",0.54399991,1,1,0,1,NA,NA,NA,NA,NA,NA,NA,NA,NA,NA,NA,NA,NA,NA,NA,NA,NA,NA,NA,NA,NA,NA,NA,NA
"144","stim/objects/Instruments/balalaika2.png",236,55,236,0.3,"stim/43.jpeg",4,3,2,NA,"Instruments",2,2,"right","left",0.463000059,0,0,0,1,NA,NA,NA,NA,NA,NA,NA,NA,NA,NA,NA,NA,NA,NA,NA,NA,NA,NA,NA,NA,NA,NA,NA,NA
"29","stim/objects/HouseObjects/barbecuelighter.png",237,55,237,0.5,"stim/13.jpeg",1,3,1,NA,"HouseObjects",1,3,"left","left",0.414000034,1,1,0,1,NA,NA,NA,NA,NA,NA,NA,NA,NA,NA,NA,NA,NA,NA,NA,NA,NA,NA,NA,NA,NA,NA,NA,NA
"12","stim/objects/HouseObjects/ashtray2.png",238,55,238,0.7,"stim/41.jpeg",4,1,2,NA,"HouseObjects",1,2,"left","right",0.735000134,0,0,0,1,NA,NA,NA,NA,NA,NA,NA,NA,NA,NA,NA,NA,NA,NA,NA,NA,NA,NA,NA,NA,NA,NA,NA,NA
"36","stim/objects/HouseObjects/barbecuelighter2.png",239,55,239,0.7,"stim/43.jpeg",4,3,2,NA,"HouseObjects",1,4,"left","left",0.494999886,1,1,0,1,NA,NA,NA,NA,NA,NA,NA,NA,NA,NA,NA,NA,NA,NA,NA,NA,NA,NA,NA,NA,NA,NA,NA,NA
"84","stim/objects/HouseObjects/bucket2.png",240,55,240,0.9,"stim/61.jpeg",6,1,3,NA,"HouseObjects",1,4,"left","left",0.69900012,1,1,0,1,NA,NA,NA,NA,NA,NA,NA,NA,NA,NA,NA,NA,NA,NA,NA,NA,NA,NA,NA,NA,NA,NA,NA,NA
"456","stim/objects/Instruments/marimba.png",248,55,241,0.9,"stim/53.jpeg",5,3,3,2,"Instruments",2,2,"right","",NA,0,0,1,0,NA,NA,NA,NA,NA,NA,NA,NA,NA,NA,NA,NA,NA,NA,NA,NA,NA,NA,NA,NA,NA,NA,NA,NA
"507","stim/objects/Instruments/musicstand.png",249,55,242,0.9,"stim/53.jpeg",5,3,3,2,"Instruments",2,1,"right","right",0.616000175,1,1,1,0,NA,NA,NA,NA,NA,NA,NA,NA,NA,NA,NA,NA,NA,NA,NA,NA,NA,NA,NA,NA,NA,NA,NA,NA
"473","stim/objects/Instruments/metronome.png",250,55,243,0.9,"stim/51.jpeg",5,1,3,2,"Instruments",2,1,"right","right",0.750999928,1,1,1,0,NA,NA,NA,NA,NA,NA,NA,NA,NA,NA,NA,NA,NA,NA,NA,NA,NA,NA,NA,NA,NA,NA,NA,NA
"275","stim/objects/HouseObjects/handvacuum.png",251,55,244,0.7,"stim/42.jpeg",4,2,2,2,"HouseObjects",1,1,"left","right",0.693000078,0,0,1,0,NA,NA,NA,NA,NA,NA,NA,NA,NA,NA,NA,NA,NA,NA,NA,NA,NA,NA,NA,NA,NA,NA,NA,NA
"276","stim/objects/HouseObjects/handvacuum.png",252,55,245,0.7,"stim/44.jpeg",4,4,2,2,"HouseObjects",1,2,"left","",NA,0,0,1,0,NA,NA,NA,NA,NA,NA,NA,NA,NA,NA,NA,NA,NA,NA,NA,NA,NA,NA,NA,NA,NA,NA,NA,NA
"474","stim/objects/Instruments/metronome.png",253,55,246,0.9,"stim/51.jpeg",5,1,3,2,"Instruments",2,4,"right","right",0.782000065,1,1,1,0,NA,NA,NA,NA,NA,NA,NA,NA,NA,NA,NA,NA,NA,NA,NA,NA,NA,NA,NA,NA,NA,NA,NA,NA
"308","stim/objects/HouseObjects/lintroller.png",254,55,247,0.9,"stim/63.jpeg",6,3,3,2,"HouseObjects",1,1,"left","left",0.462000132,1,1,1,0,NA,NA,NA,NA,NA,NA,NA,NA,NA,NA,NA,NA,NA,NA,NA,NA,NA,NA,NA,NA,NA,NA,NA,NA
"241","stim/objects/HouseObjects/coffee.png",255,55,248,0.5,"stim/11.jpeg",1,1,1,2,"HouseObjects",1,2,"left","right",0.700999975,0,0,1,0,NA,NA,NA,NA,NA,NA,NA,NA,NA,NA,NA,NA,NA,NA,NA,NA,NA,NA,NA,NA,NA,NA,NA,NA
"287","stim/objects/HouseObjects/key.png",256,55,249,0.7,"stim/41.jpeg",4,1,2,2,"HouseObjects",1,3,"left","",NA,0,0,1,0,NA,NA,NA,NA,NA,NA,NA,NA,NA,NA,NA,NA,NA,NA,NA,NA,NA,NA,NA,NA,NA,NA,NA,NA
"274","stim/objects/HouseObjects/handbrush2.png",257,55,250,0.7,"stim/41.jpeg",4,1,2,1,"HouseObjects",1,1,"left","left",0.541000128,1,1,1,0,29,55,1,0.7,1,"stim/41.jpeg",4,1,"stim/41.jpeg",1,"left",1.60800004,4,4,4.796999931,1,2.139999866,29,1,0,0,1,1,0
"342","stim/objects/HouseObjects/pan.png",258,55,251,0.9,"stim/63.jpeg",6,3,3,2,"HouseObjects",1,4,"left","left",0.562999964,1,1,1,0,NA,NA,NA,NA,NA,NA,NA,NA,NA,NA,NA,NA,NA,NA,NA,NA,NA,NA,NA,NA,NA,NA,NA,NA
"325","stim/objects/HouseObjects/match.png",259,55,252,0.9,"stim/63.jpeg",6,3,3,2,"HouseObjects",1,1,"left","left",0.484999895,1,1,1,0,NA,NA,NA,NA,NA,NA,NA,NA,NA,NA,NA,NA,NA,NA,NA,NA,NA,NA,NA,NA,NA,NA,NA,NA
"435","stim/objects/Instruments/harmonica2.png",260,55,253,0.3,"stim/42.jpeg",4,2,2,1,"Instruments",2,2,"right","",NA,0,0,1,0,16,55,1,0.3,2,"stim/42.jpeg",4,2,"stim/42.jpeg",2,"right",3.01699996,4,3,3.322999954,4,6.900999784,16,0,0,NA,0,NA,0
"490","stim/objects/Instruments/musicsheet.png",261,55,254,0.9,"stim/51.jpeg",5,1,3,2,"Instruments",2,4,"right","right",0.661000013,1,1,1,0,NA,NA,NA,NA,NA,NA,NA,NA,NA,NA,NA,NA,NA,NA,NA,NA,NA,NA,NA,NA,NA,NA,NA,NA
"430","stim/objects/Instruments/guitarcase.png",262,55,255,0.5,"stim/21.jpeg",2,1,1,2,"Instruments",2,1,"right","left",0.544000149,0,0,1,0,NA,NA,NA,NA,NA,NA,NA,NA,NA,NA,NA,NA,NA,NA,NA,NA,NA,NA,NA,NA,NA,NA,NA,NA
"388","stim/objects/HouseObjects/scale.png",263,55,256,0.5,"stim/22.jpeg",2,2,1,1,"HouseObjects",1,2,"left","left",0.518000126,1,1,1,0,168,55,1,0.5,2,"stim/22.jpeg",2,2,"stim/22.jpeg",2,"left",1.516000032,4,2,3.730000019,1,5.638000011,168,1,1,1,0,0,0
"412","stim/objects/Instruments/electricguitar.png",264,55,257,0.5,"stim/12.jpeg",1,2,1,2,"Instruments",2,2,"right","left",0.648000002,0,0,1,0,NA,NA,NA,NA,NA,NA,NA,NA,NA,NA,NA,NA,NA,NA,NA,NA,NA,NA,NA,NA,NA,NA,NA,NA
"568","stim/objects/Instruments/vuvuzela2.png",265,55,258,0.1,"stim/63.jpeg",6,3,3,1,"Instruments",2,2,"right","left",0.569000006,0,0,1,0,164,55,1,0.1,2,"stim/63.jpeg",6,3,"stim/63.jpeg",2,"right",0.620999813,4,2,0.296000004,1,0.265999794,164,0,0,NA,0,NA,0
"421","stim/objects/Instruments/frenchhorn.png",266,55,259,0.5,"stim/23.jpeg",2,3,1,2,"Instruments",2,4,"right","right",0.586999893,1,1,1,0,NA,NA,NA,NA,NA,NA,NA,NA,NA,NA,NA,NA,NA,NA,NA,NA,NA,NA,NA,NA,NA,NA,NA,NA
"246","stim/objects/HouseObjects/cushion2.png",267,55,260,0.3,"stim/33.jpeg",3,3,2,1,"HouseObjects",1,4,"left","right",0.556999922,0,0,1,0,35,55,1,0.3,1,"stim/33.jpeg",3,3,"stim/33.jpeg",4,"right",0.605999947,4,2,0.775999784,4,0.773999929,35,0,0,NA,1,NA,0
"418","stim/objects/Instruments/flutetrans.png",268,55,261,0.5,"stim/14.jpeg",1,4,1,2,"Instruments",2,4,"right","left",0.643000126,0,0,1,0,NA,NA,NA,NA,NA,NA,NA,NA,NA,NA,NA,NA,NA,NA,NA,NA,NA,NA,NA,NA,NA,NA,NA,NA
"324","stim/objects/HouseObjects/lintroller2.png",269,55,262,0.1,"stim/52.jpeg",5,2,3,1,"HouseObjects",1,3,"left","",NA,0,0,1,0,121,55,1,0.1,1,"stim/52.jpeg",5,2,"stim/52.jpeg",3,"right",1.269999981,2,4,5.049000025,3,1.465999842,121,0,0,NA,1,NA,0
"543","stim/objects/Instruments/pipepiano.png",270,55,263,0.5,"stim/13.jpeg",1,3,1,1,"Instruments",2,2,"right","left",0.532999992,0,0,1,0,92,55,1,0.5,1,"stim/13.jpeg",1,3,"stim/13.jpeg",2,"left",1.43599987,4,3,9.460000038,1,1.572000027,92,1,1,1,0,0,0
"279","stim/objects/HouseObjects/iron.png",271,55,264,0.7,"stim/41.jpeg",4,1,2,2,"HouseObjects",1,4,"left","left",0.78399992,1,1,1,0,NA,NA,NA,NA,NA,NA,NA,NA,NA,NA,NA,NA,NA,NA,NA,NA,NA,NA,NA,NA,NA,NA,NA,NA
"475","stim/objects/Instruments/metronome.png",272,55,265,0.9,"stim/53.jpeg",5,3,3,2,"Instruments",2,1,"right","right",0.773000002,1,1,1,0,NA,NA,NA,NA,NA,NA,NA,NA,NA,NA,NA,NA,NA,NA,NA,NA,NA,NA,NA,NA,NA,NA,NA,NA
"564","stim/objects/Instruments/tuba2.png",273,55,266,0.1,"stim/61.jpeg",6,1,3,1,"Instruments",2,2,"right","left",0.676999807,0,0,1,0,33,55,1,0.1,2,"stim/61.jpeg",6,1,"stim/61.jpeg",2,"right",1.184000015,4,2,1.730999947,1,0.948999882,33,0,0,NA,0,NA,0
"392","stim/objects/HouseObjects/spraybottle.png",274,55,267,0.5,"stim/24.jpeg",2,4,1,1,"HouseObjects",1,3,"left","left",0.585000038,1,1,1,0,112,55,1,0.5,2,"stim/24.jpeg",2,4,"stim/24.jpeg",3,"right",1.483999968,4,4,3.732999802,2,1.391000032,112,0,1,NA,0,NA,0
"524","stim/objects/Instruments/oboe.png",275,55,268,0.9,"stim/53.jpeg",5,3,3,2,"Instruments",2,3,"right","right",0.755000114,1,1,1,0,NA,NA,NA,NA,NA,NA,NA,NA,NA,NA,NA,NA,NA,NA,NA,NA,NA,NA,NA,NA,NA,NA,NA,NA
"440","stim/objects/Instruments/hihat.png",276,55,269,0.7,"stim/31.jpeg",3,1,2,2,"Instruments",2,4,"right","right",0.69900012,1,1,1,0,NA,NA,NA,NA,NA,NA,NA,NA,NA,NA,NA,NA,NA,NA,NA,NA,NA,NA,NA,NA,NA,NA,NA,NA
"525","stim/objects/Instruments/oboe.png",277,55,270,0.9,"stim/51.jpeg",5,1,3,2,"Instruments",2,4,"right","right",0.605000019,1,1,1,0,NA,NA,NA,NA,NA,NA,NA,NA,NA,NA,NA,NA,NA,NA,NA,NA,NA,NA,NA,NA,NA,NA,NA,NA
"311","stim/objects/HouseObjects/lintroller.png",278,55,271,0.9,"stim/61.jpeg",6,1,3,2,"HouseObjects",1,2,"left","left",0.553999901,1,1,1,0,NA,NA,NA,NA,NA,NA,NA,NA,NA,NA,NA,NA,NA,NA,NA,NA,NA,NA,NA,NA,NA,NA,NA,NA
"253","stim/objects/HouseObjects/dustpan.png",279,55,272,0.5,"stim/11.jpeg",1,1,1,2,"HouseObjects",1,4,"left","right",0.43900013,0,0,1,0,NA,NA,NA,NA,NA,NA,NA,NA,NA,NA,NA,NA,NA,NA,NA,NA,NA,NA,NA,NA,NA,NA,NA,NA
"341","stim/objects/HouseObjects/match2.png",280,55,273,0.1,"stim/53.jpeg",5,3,3,1,"HouseObjects",1,3,"left","left",0.68900013,1,1,1,0,171,55,1,0.1,1,"stim/53.jpeg",5,3,"stim/53.jpeg",3,"right",0.917999983,4,2,0.960999966,2,0.305999994,171,0,0,NA,0,NA,0
"358","stim/objects/HouseObjects/pan2.png",281,55,274,0.1,"stim/54.jpeg",5,4,3,1,"HouseObjects",1,3,"left","",NA,0,0,1,0,105,55,1,0.1,1,"stim/54.jpeg",5,4,"stim/54.jpeg",3,"right",0.614000082,4,3,2.09499979,3,1.54399991,105,0,0,NA,1,NA,0
"476","stim/objects/Instruments/metronome.png",282,55,275,0.9,"stim/52.jpeg",5,2,3,2,"Instruments",2,3,"right","left",0.667999983,0,0,1,0,NA,NA,NA,NA,NA,NA,NA,NA,NA,NA,NA,NA,NA,NA,NA,NA,NA,NA,NA,NA,NA,NA,NA,NA
"344","stim/objects/HouseObjects/pan.png",283,55,276,0.9,"stim/61.jpeg",6,1,3,2,"HouseObjects",1,1,"left","left",0.537000179,1,1,1,0,NA,NA,NA,NA,NA,NA,NA,NA,NA,NA,NA,NA,NA,NA,NA,NA,NA,NA,NA,NA,NA,NA,NA,NA
"259","stim/objects/HouseObjects/garbagebin.png",284,55,277,0.5,"stim/24.jpeg",2,4,1,2,"HouseObjects",1,4,"left","right",0.546999931,0,0,1,0,NA,NA,NA,NA,NA,NA,NA,NA,NA,NA,NA,NA,NA,NA,NA,NA,NA,NA,NA,NA,NA,NA,NA,NA
"526","stim/objects/Instruments/oboe.png",285,55,278,0.9,"stim/54.jpeg",5,4,3,2,"Instruments",2,3,"right","right",0.608999968,1,1,1,0,NA,NA,NA,NA,NA,NA,NA,NA,NA,NA,NA,NA,NA,NA,NA,NA,NA,NA,NA,NA,NA,NA,NA,NA
"360","stim/objects/HouseObjects/pitcher.png",286,55,279,0.9,"stim/61.jpeg",6,1,3,2,"HouseObjects",1,3,"left","right",0.596000195,0,0,1,0,NA,NA,NA,NA,NA,NA,NA,NA,NA,NA,NA,NA,NA,NA,NA,NA,NA,NA,NA,NA,NA,NA,NA,NA
"429","stim/objects/Instruments/grandpiano2.png",287,55,280,0.3,"stim/44.jpeg",4,4,2,1,"Instruments",2,4,"right","right",0.618999958,1,1,1,0,141,55,1,0.3,2,"stim/44.jpeg",4,4,"stim/44.jpeg",4,"right",0.653000116,4,2,0.453000069,2,0.432999849,141,0,0,NA,0,NA,0
"271","stim/objects/HouseObjects/handbrush.png",288,55,281,0.7,"stim/43.jpeg",4,3,2,2,"HouseObjects",1,2,"left","",NA,0,0,1,0,NA,NA,NA,NA,NA,NA,NA,NA,NA,NA,NA,NA,NA,NA,NA,NA,NA,NA,NA,NA,NA,NA,NA,NA
"389","stim/objects/HouseObjects/scale2.png",289,55,282,0.9,"stim/62.jpeg",6,2,3,1,"HouseObjects",1,3,"left","right",0.431999922,0,0,1,0,87,55,1,0.9,1,"stim/62.jpeg",6,2,"stim/62.jpeg",3,"right",0.940000057,4,4,1.347999811,2,1.102999926,87,0,0,NA,0,NA,0
"409","stim/objects/Instruments/electricdrumset.png",290,55,283,0.5,"stim/12.jpeg",1,2,1,2,"Instruments",2,1,"right","",NA,0,0,1,0,NA,NA,NA,NA,NA,NA,NA,NA,NA,NA,NA,NA,NA,NA,NA,NA,NA,NA,NA,NA,NA,NA,NA,NA
"346","stim/objects/HouseObjects/pan.png",291,55,284,0.9,"stim/61.jpeg",6,1,3,2,"HouseObjects",1,1,"left","",NA,0,0,1,0,NA,NA,NA,NA,NA,NA,NA,NA,NA,NA,NA,NA,NA,NA,NA,NA,NA,NA,NA,NA,NA,NA,NA,NA
"472","stim/objects/Instruments/marimba2.png",292,55,285,0.9,"stim/53.jpeg",5,3,3,1,"Instruments",2,1,"right","left",0.409000158,0,0,1,0,18,55,1,0.9,2,"stim/53.jpeg",5,3,"stim/53.jpeg",1,"right",3.519999981,2,2,6.230999947,3,1.269999981,18,0,0,NA,0,NA,0
"433","stim/objects/Instruments/harmonica.png",293,55,286,0.5,"stim/23.jpeg",2,3,1,2,"Instruments",2,1,"right","left",0.263000011,0,0,1,0,NA,NA,NA,NA,NA,NA,NA,NA,NA,NA,NA,NA,NA,NA,NA,NA,NA,NA,NA,NA,NA,NA,NA,NA
"477","stim/objects/Instruments/metronome.png",294,55,287,0.9,"stim/54.jpeg",5,4,3,2,"Instruments",2,1,"right","right",0.221999884,1,1,1,0,NA,NA,NA,NA,NA,NA,NA,NA,NA,NA,NA,NA,NA,NA,NA,NA,NA,NA,NA,NA,NA,NA,NA,NA
"328","stim/objects/HouseObjects/match.png",295,55,288,0.9,"stim/64.jpeg",6,4,3,2,"HouseObjects",1,3,"left","left",0.390000105,1,1,1,0,NA,NA,NA,NA,NA,NA,NA,NA,NA,NA,NA,NA,NA,NA,NA,NA,NA,NA,NA,NA,NA,NA,NA,NA
"453","stim/objects/Instruments/maraca.png",296,55,289,0.7,"stim/31.jpeg",3,1,2,2,"Instruments",2,1,"right","right",0.350999832,1,1,1,0,NA,NA,NA,NA,NA,NA,NA,NA,NA,NA,NA,NA,NA,NA,NA,NA,NA,NA,NA,NA,NA,NA,NA,NA
"283","stim/objects/HouseObjects/ironingboard.png",297,55,290,0.7,"stim/44.jpeg",4,4,2,2,"HouseObjects",1,2,"left","left",0.212000132,1,1,1,0,NA,NA,NA,NA,NA,NA,NA,NA,NA,NA,NA,NA,NA,NA,NA,NA,NA,NA,NA,NA,NA,NA,NA,NA
"291","stim/objects/HouseObjects/knife.png",298,55,291,0.9,"stim/62.jpeg",6,2,3,2,"HouseObjects",1,4,"left","right",0.436000109,0,0,1,0,NA,NA,NA,NA,NA,NA,NA,NA,NA,NA,NA,NA,NA,NA,NA,NA,NA,NA,NA,NA,NA,NA,NA,NA
"396","stim/objects/HouseObjects/thermometer.png",299,55,292,0.3,"stim/31.jpeg",3,1,2,1,"HouseObjects",1,1,"left","right",0.768000126,0,0,1,0,84,55,1,0.3,1,"stim/31.jpeg",3,1,"stim/31.jpeg",1,"right",0.664999962,4,3,1.248999834,2,1.981000185,84,0,0,NA,0,NA,0
"362","stim/objects/HouseObjects/pitcher.png",300,55,293,0.9,"stim/62.jpeg",6,2,3,2,"HouseObjects",1,4,"left","left",0.597000122,1,1,1,0,NA,NA,NA,NA,NA,NA,NA,NA,NA,NA,NA,NA,NA,NA,NA,NA,NA,NA,NA,NA,NA,NA,NA,NA
"363","stim/objects/HouseObjects/pitcher.png",301,55,294,0.9,"stim/62.jpeg",6,2,3,2,"HouseObjects",1,1,"left","left",0.443000078,1,1,1,0,NA,NA,NA,NA,NA,NA,NA,NA,NA,NA,NA,NA,NA,NA,NA,NA,NA,NA,NA,NA,NA,NA,NA,NA
"492","stim/objects/Instruments/musicsheet.png",302,55,295,0.9,"stim/53.jpeg",5,3,3,2,"Instruments",2,3,"right","left",0.517000198,0,0,1,0,NA,NA,NA,NA,NA,NA,NA,NA,NA,NA,NA,NA,NA,NA,NA,NA,NA,NA,NA,NA,NA,NA,NA,NA
"375","stim/objects/HouseObjects/pitcher2.png",303,55,296,0.1,"stim/51.jpeg",5,1,3,1,"HouseObjects",1,1,"left","right",0.77699995,0,0,1,0,69,55,1,0.1,1,"stim/51.jpeg",5,1,"stim/51.jpeg",1,"right",2.243000031,4,4,1.147000074,2,0.302999973,69,0,0,NA,0,NA,0
"307","stim/objects/HouseObjects/knife2.png",304,55,297,0.1,"stim/51.jpeg",5,1,3,1,"HouseObjects",1,3,"left","right",0.536000013,0,0,1,0,122,55,1,0.1,1,"stim/51.jpeg",5,1,"stim/51.jpeg",3,"right",1.246999979,3,2,1.230000019,2,1.786000013,122,0,0,NA,0,NA,0
"451","stim/objects/Instruments/laud2.png",305,55,298,0.3,"stim/42.jpeg",4,2,2,1,"Instruments",2,3,"right","left",0.661999941,0,0,1,0,145,55,1,0.3,2,"stim/42.jpeg",4,2,"stim/42.jpeg",3,"right",0.702000141,4,2,0.521999836,1,0.447000027,145,0,1,NA,0,NA,0
"329","stim/objects/HouseObjects/match.png",306,55,299,0.9,"stim/62.jpeg",6,2,3,2,"HouseObjects",1,4,"left","left",0.815000057,1,1,1,0,NA,NA,NA,NA,NA,NA,NA,NA,NA,NA,NA,NA,NA,NA,NA,NA,NA,NA,NA,NA,NA,NA,NA,NA
"310","stim/objects/HouseObjects/lintroller.png",307,55,300,0.9,"stim/64.jpeg",6,4,3,2,"HouseObjects",1,2,"left","left",0.710000038,1,1,1,0,NA,NA,NA,NA,NA,NA,NA,NA,NA,NA,NA,NA,NA,NA,NA,NA,NA,NA,NA,NA,NA,NA,NA,NA
"380","stim/objects/HouseObjects/rubbergloves.png",308,55,301,0.5,"stim/11.jpeg",1,1,1,1,"HouseObjects",1,4,"left","left",0.703000069,1,1,1,0,37,55,1,0.5,1,"stim/11.jpeg",1,1,"stim/11.jpeg",4,"right",0.669000149,4,1,1.088999987,4,0.682999849,37,0,1,NA,1,NA,0
"270","stim/objects/HouseObjects/hairdryer2.png",309,55,302,0.7,"stim/44.jpeg",4,4,2,1,"HouseObjects",1,3,"left","right",0.687999964,0,0,1,0,157,55,1,0.7,1,"stim/44.jpeg",4,4,"stim/44.jpeg",3,"right",0.981999874,4,2,0.274000168,2,0.470999956,157,0,0,NA,0,NA,0
"545","stim/objects/Instruments/record_player.png",310,55,303,0.5,"stim/11.jpeg",1,1,1,1,"Instruments",2,3,"right","right",0.692000151,1,1,1,0,52,55,1,0.5,1,"stim/11.jpeg",1,1,"stim/11.jpeg",3,"right",1.278999805,2,3,5.907000065,3,2.171000004,52,0,0,NA,1,NA,0
"459","stim/objects/Instruments/marimba.png",311,55,304,0.9,"stim/54.jpeg",5,4,3,2,"Instruments",2,2,"right","",NA,0,0,1,0,NA,NA,NA,NA,NA,NA,NA,NA,NA,NA,NA,NA,NA,NA,NA,NA,NA,NA,NA,NA,NA,NA,NA,NA
"460","stim/objects/Instruments/marimba.png",312,55,305,0.9,"stim/52.jpeg",5,2,3,2,"Instruments",2,2,"right","right",0.635999918,1,1,1,0,NA,NA,NA,NA,NA,NA,NA,NA,NA,NA,NA,NA,NA,NA,NA,NA,NA,NA,NA,NA,NA,NA,NA,NA
"509","stim/objects/Instruments/musicstand.png",313,55,306,0.9,"stim/54.jpeg",5,4,3,2,"Instruments",2,4,"right","right",0.474999905,1,1,1,0,NA,NA,NA,NA,NA,NA,NA,NA,NA,NA,NA,NA,NA,NA,NA,NA,NA,NA,NA,NA,NA,NA,NA,NA
"348","stim/objects/HouseObjects/pan.png",314,55,307,0.9,"stim/64.jpeg",6,4,3,2,"HouseObjects",1,1,"left","left",0.55099988,1,1,1,0,NA,NA,NA,NA,NA,NA,NA,NA,NA,NA,NA,NA,NA,NA,NA,NA,NA,NA,NA,NA,NA,NA,NA,NA
"510","stim/objects/Instruments/musicstand.png",315,55,308,0.9,"stim/51.jpeg",5,1,3,2,"Instruments",2,3,"right","left",0.554000139,0,0,1,0,NA,NA,NA,NA,NA,NA,NA,NA,NA,NA,NA,NA,NA,NA,NA,NA,NA,NA,NA,NA,NA,NA,NA,NA
"441","stim/objects/Instruments/hihat.png",316,55,309,0.7,"stim/32.jpeg",3,2,2,2,"Instruments",2,2,"right","",NA,0,0,1,0,NA,NA,NA,NA,NA,NA,NA,NA,NA,NA,NA,NA,NA,NA,NA,NA,NA,NA,NA,NA,NA,NA,NA,NA
"511","stim/objects/Instruments/musicstand.png",317,55,310,0.9,"stim/52.jpeg",5,2,3,2,"Instruments",2,4,"right","right",0.727999926,1,1,1,0,NA,NA,NA,NA,NA,NA,NA,NA,NA,NA,NA,NA,NA,NA,NA,NA,NA,NA,NA,NA,NA,NA,NA,NA
"288","stim/objects/HouseObjects/key.png",318,55,311,0.7,"stim/42.jpeg",4,2,2,2,"HouseObjects",1,1,"left","right",0.786000013,0,0,1,0,NA,NA,NA,NA,NA,NA,NA,NA,NA,NA,NA,NA,NA,NA,NA,NA,NA,NA,NA,NA,NA,NA,NA,NA
"313","stim/objects/HouseObjects/lintroller.png",319,55,312,0.9,"stim/62.jpeg",6,2,3,2,"HouseObjects",1,1,"left","left",0.451999903,1,1,1,0,NA,NA,NA,NA,NA,NA,NA,NA,NA,NA,NA,NA,NA,NA,NA,NA,NA,NA,NA,NA,NA,NA,NA,NA
"546","stim/objects/Instruments/record_player2.png",320,55,313,0.9,"stim/53.jpeg",5,3,3,1,"Instruments",2,2,"right","left",0.588999987,0,0,1,0,154,55,1,0.9,2,"stim/53.jpeg",5,3,"stim/53.jpeg",2,"right",0.691000223,4,2,0.280999899,2,0.357000113,154,0,0,NA,1,NA,0
"411","stim/objects/Instruments/electricdrumset2.png",321,55,314,0.7,"stim/34.jpeg",3,4,2,1,"Instruments",2,1,"right","left",0.593999863,0,0,1,0,99,55,1,0.7,2,"stim/34.jpeg",3,4,"stim/34.jpeg",1,"right",0.667000055,4,2,0.723999977,2,0.386999846,99,0,0,NA,0,NA,0
"478","stim/objects/Instruments/metronome.png",322,55,315,0.9,"stim/52.jpeg",5,2,3,2,"Instruments",2,1,"right","right",0.731000185,1,1,1,0,NA,NA,NA,NA,NA,NA,NA,NA,NA,NA,NA,NA,NA,NA,NA,NA,NA,NA,NA,NA,NA,NA,NA,NA
"479","stim/objects/Instruments/metronome.png",323,55,316,0.9,"stim/51.jpeg",5,1,3,2,"Instruments",2,3,"right","right",0.846999884,1,1,1,0,NA,NA,NA,NA,NA,NA,NA,NA,NA,NA,NA,NA,NA,NA,NA,NA,NA,NA,NA,NA,NA,NA,NA,NA
"378","stim/objects/HouseObjects/remote.png",324,55,317,0.5,"stim/14.jpeg",1,4,1,1,"HouseObjects",1,1,"left","right",0.615999937,0,0,1,0,71,55,1,0.5,1,"stim/14.jpeg",1,4,"stim/14.jpeg",1,"right",2.700000048,4,4,0.773000002,2,0.397000074,71,0,1,NA,0,NA,0
"480","stim/objects/Instruments/metronome.png",325,55,318,0.9,"stim/54.jpeg",5,4,3,2,"Instruments",2,1,"right","right",0.682999849,1,1,1,0,NA,NA,NA,NA,NA,NA,NA,NA,NA,NA,NA,NA,NA,NA,NA,NA,NA,NA,NA,NA,NA,NA,NA,NA
"550","stim/objects/Instruments/saxophone2.png",326,55,319,0.9,"stim/54.jpeg",5,4,3,1,"Instruments",2,1,"right","right",0.426000118,1,1,1,0,26,55,1,0.9,2,"stim/54.jpeg",5,4,"stim/54.jpeg",1,"left",1.680000067,3,2,4.422999859,1,3.171000004,26,1,0,0,1,1,0
"540","stim/objects/Instruments/oboe2.png",327,55,320,0.9,"stim/53.jpeg",5,3,3,1,"Instruments",2,4,"right","right",0.463000059,1,1,1,0,155,55,1,0.9,2,"stim/53.jpeg",5,3,"stim/53.jpeg",4,"right",0.915999889,4,2,0.265000105,2,0.294000149,155,0,0,NA,0,NA,0
"286","stim/objects/HouseObjects/ironingboard2.png",328,55,321,0.7,"stim/44.jpeg",4,4,2,1,"HouseObjects",1,1,"left","left",0.63499999,1,1,1,0,184,55,1,0.7,1,"stim/44.jpeg",4,4,"stim/44.jpeg",1,"right",0.746999979,2,1,3.264000177,4,1.187000036,184,0,0,NA,0,NA,0
"379","stim/objects/HouseObjects/remote2.png",329,55,322,0.1,"stim/53.jpeg",5,3,3,1,"HouseObjects",1,1,"left","left",0.760999918,1,1,1,0,91,55,1,0.1,1,"stim/53.jpeg",5,3,"stim/53.jpeg",1,"right",1.989999771,4,2,1.338000059,3,1.062999964,91,0,0,NA,0,NA,0
"330","stim/objects/HouseObjects/match.png",330,55,323,0.9,"stim/61.jpeg",6,1,3,2,"HouseObjects",1,1,"left","left",0.719000101,1,1,1,0,NA,NA,NA,NA,NA,NA,NA,NA,NA,NA,NA,NA,NA,NA,NA,NA,NA,NA,NA,NA,NA,NA,NA,NA
"527","stim/objects/Instruments/oboe.png",331,55,324,0.9,"stim/54.jpeg",5,4,3,2,"Instruments",2,2,"right","right",0.808000088,1,1,1,0,NA,NA,NA,NA,NA,NA,NA,NA,NA,NA,NA,NA,NA,NA,NA,NA,NA,NA,NA,NA,NA,NA,NA,NA
"293","stim/objects/HouseObjects/knife.png",332,55,325,0.9,"stim/61.jpeg",6,1,3,2,"HouseObjects",1,2,"left","left",0.589999914,1,1,1,0,NA,NA,NA,NA,NA,NA,NA,NA,NA,NA,NA,NA,NA,NA,NA,NA,NA,NA,NA,NA,NA,NA,NA,NA
"423","stim/objects/Instruments/frenchhorn2.png",333,55,326,0.3,"stim/42.jpeg",4,2,2,1,"Instruments",2,1,"right","left",0.830999851,0,0,1,0,137,55,1,0.3,2,"stim/42.jpeg",4,2,"stim/42.jpeg",1,"right",2.069000006,4,4,0.397000074,4,0.388999939,137,0,0,NA,0,NA,0
"256","stim/objects/HouseObjects/flyswatter.png",334,55,327,0.5,"stim/24.jpeg",2,4,1,2,"HouseObjects",1,2,"left","left",0.61500001,1,1,1,0,NA,NA,NA,NA,NA,NA,NA,NA,NA,NA,NA,NA,NA,NA,NA,NA,NA,NA,NA,NA,NA,NA,NA,NA
"424","stim/objects/Instruments/gong.png",335,55,328,0.5,"stim/24.jpeg",2,4,1,2,"Instruments",2,2,"right","left",0.505000114,0,0,1,0,NA,NA,NA,NA,NA,NA,NA,NA,NA,NA,NA,NA,NA,NA,NA,NA,NA,NA,NA,NA,NA,NA,NA,NA
"557","stim/objects/Instruments/triangle.png",336,55,329,0.5,"stim/23.jpeg",2,3,1,1,"Instruments",2,2,"right","right",0.44900012,1,1,1,0,80,55,1,0.5,2,"stim/23.jpeg",2,3,"stim/23.jpeg",2,"right",1.142999887,4,1,1.174999952,4,0.794999838,80,0,0,NA,0,NA,0
"294","stim/objects/HouseObjects/knife.png",337,55,330,0.9,"stim/63.jpeg",6,3,3,2,"HouseObjects",1,2,"left","left",0.575000048,1,1,1,0,NA,NA,NA,NA,NA,NA,NA,NA,NA,NA,NA,NA,NA,NA,NA,NA,NA,NA,NA,NA,NA,NA,NA,NA
"381","stim/objects/HouseObjects/rubbergloves2.png",338,55,331,0.1,"stim/54.jpeg",5,4,3,1,"HouseObjects",1,1,"left","left",0.64199996,1,1,1,0,187,55,1,0.1,1,"stim/54.jpeg",5,4,"stim/54.jpeg",1,"right",0.551000118,4,2,0.758999825,2,0.282999992,187,0,0,NA,0,NA,0
"552","stim/objects/Instruments/speaker2.png",339,55,332,0.1,"stim/63.jpeg",6,3,3,1,"Instruments",2,2,"right","left",0.470999956,0,0,1,0,135,55,1,0.1,2,"stim/63.jpeg",6,3,"stim/63.jpeg",2,"right",0.681999922,4,2,1.183000088,4,0.653000116,135,0,0,NA,0,NA,0
"250","stim/objects/HouseObjects/doormat.png",340,55,333,0.5,"stim/11.jpeg",1,1,1,2,"HouseObjects",1,1,"left","left",0.539000034,1,1,1,0,NA,NA,NA,NA,NA,NA,NA,NA,NA,NA,NA,NA,NA,NA,NA,NA,NA,NA,NA,NA,NA,NA,NA,NA
"481","stim/objects/Instruments/metronome.png",341,55,334,0.9,"stim/54.jpeg",5,4,3,2,"Instruments",2,1,"right","right",0.792000055,1,1,1,0,NA,NA,NA,NA,NA,NA,NA,NA,NA,NA,NA,NA,NA,NA,NA,NA,NA,NA,NA,NA,NA,NA,NA,NA
"262","stim/objects/HouseObjects/glass.png",342,55,335,0.5,"stim/22.jpeg",2,2,1,2,"HouseObjects",1,4,"left","left",0.440999985,1,1,1,0,NA,NA,NA,NA,NA,NA,NA,NA,NA,NA,NA,NA,NA,NA,NA,NA,NA,NA,NA,NA,NA,NA,NA,NA
"364","stim/objects/HouseObjects/pitcher.png",343,55,336,0.9,"stim/64.jpeg",6,4,3,2,"HouseObjects",1,3,"left","left",0.592999935,1,1,1,0,NA,NA,NA,NA,NA,NA,NA,NA,NA,NA,NA,NA,NA,NA,NA,NA,NA,NA,NA,NA,NA,NA,NA,NA
"315","stim/objects/HouseObjects/lintroller.png",344,55,337,0.9,"stim/61.jpeg",6,1,3,2,"HouseObjects",1,4,"left","left",0.410000086,1,1,1,0,NA,NA,NA,NA,NA,NA,NA,NA,NA,NA,NA,NA,NA,NA,NA,NA,NA,NA,NA,NA,NA,NA,NA,NA
"268","stim/objects/HouseObjects/hairdryer.png",345,55,338,0.5,"stim/23.jpeg",2,3,1,2,"HouseObjects",1,4,"left","right",0.684000015,0,0,1,0,NA,NA,NA,NA,NA,NA,NA,NA,NA,NA,NA,NA,NA,NA,NA,NA,NA,NA,NA,NA,NA,NA,NA,NA
"530","stim/objects/Instruments/oboe.png",346,55,339,0.9,"stim/52.jpeg",5,2,3,2,"Instruments",2,4,"right","right",0.597000122,1,1,1,0,NA,NA,NA,NA,NA,NA,NA,NA,NA,NA,NA,NA,NA,NA,NA,NA,NA,NA,NA,NA,NA,NA,NA,NA
"385","stim/objects/HouseObjects/safetypin2.png",347,55,340,0.1,"stim/52.jpeg",5,2,3,1,"HouseObjects",1,4,"left","",NA,0,0,1,0,175,55,1,0.1,1,"stim/52.jpeg",5,2,"stim/52.jpeg",4,"right",0.710999966,4,3,1.006999969,2,0.809999943,175,0,0,NA,0,NA,0
"295","stim/objects/HouseObjects/knife.png",348,55,341,0.9,"stim/64.jpeg",6,4,3,2,"HouseObjects",1,2,"left","left",0.529000044,1,1,1,0,NA,NA,NA,NA,NA,NA,NA,NA,NA,NA,NA,NA,NA,NA,NA,NA,NA,NA,NA,NA,NA,NA,NA,NA
"489","stim/objects/Instruments/metronome2.png",349,55,342,0.9,"stim/54.jpeg",5,4,3,1,"Instruments",2,3,"right","left",0.481000185,0,0,1,0,151,55,1,0.9,2,"stim/54.jpeg",5,4,"stim/54.jpeg",3,"right",1.693000078,4,2,0.718999863,1,0.420000076,151,0,0,NA,0,NA,0
"331","stim/objects/HouseObjects/match.png",350,55,343,0.9,"stim/62.jpeg",6,2,3,2,"HouseObjects",1,3,"left","right",0.504000187,0,0,1,0,NA,NA,NA,NA,NA,NA,NA,NA,NA,NA,NA,NA,NA,NA,NA,NA,NA,NA,NA,NA,NA,NA,NA,NA
"332","stim/objects/HouseObjects/match.png",351,55,344,0.9,"stim/63.jpeg",6,3,3,2,"HouseObjects",1,2,"left","right",0.579999924,0,0,1,0,NA,NA,NA,NA,NA,NA,NA,NA,NA,NA,NA,NA,NA,NA,NA,NA,NA,NA,NA,NA,NA,NA,NA,NA
"442","stim/objects/Instruments/hihat.png",352,55,345,0.7,"stim/34.jpeg",3,4,2,2,"Instruments",2,4,"right","right",0.648999929,1,1,1,0,NA,NA,NA,NA,NA,NA,NA,NA,NA,NA,NA,NA,NA,NA,NA,NA,NA,NA,NA,NA,NA,NA,NA,NA
"482","stim/objects/Instruments/metronome.png",353,55,346,0.9,"stim/51.jpeg",5,1,3,2,"Instruments",2,1,"right","left",0.388000011,0,0,1,0,NA,NA,NA,NA,NA,NA,NA,NA,NA,NA,NA,NA,NA,NA,NA,NA,NA,NA,NA,NA,NA,NA,NA,NA
"272","stim/objects/HouseObjects/handbrush.png",354,55,347,0.7,"stim/42.jpeg",4,2,2,2,"HouseObjects",1,4,"left","left",0.629999876,1,1,1,0,NA,NA,NA,NA,NA,NA,NA,NA,NA,NA,NA,NA,NA,NA,NA,NA,NA,NA,NA,NA,NA,NA,NA,NA
"483","stim/objects/Instruments/metronome.png",355,55,348,0.9,"stim/52.jpeg",5,2,3,2,"Instruments",2,3,"right","right",0.683000088,1,1,1,0,NA,NA,NA,NA,NA,NA,NA,NA,NA,NA,NA,NA,NA,NA,NA,NA,NA,NA,NA,NA,NA,NA,NA,NA
"436","stim/objects/Instruments/harp.png",356,55,349,0.7,"stim/31.jpeg",3,1,2,2,"Instruments",2,3,"right","right",0.661999941,1,1,1,0,NA,NA,NA,NA,NA,NA,NA,NA,NA,NA,NA,NA,NA,NA,NA,NA,NA,NA,NA,NA,NA,NA,NA,NA
"531","stim/objects/Instruments/oboe.png",357,55,350,0.9,"stim/54.jpeg",5,4,3,2,"Instruments",2,1,"right","right",0.664999962,1,1,1,0,NA,NA,NA,NA,NA,NA,NA,NA,NA,NA,NA,NA,NA,NA,NA,NA,NA,NA,NA,NA,NA,NA,NA,NA
"261","stim/objects/HouseObjects/garbagebin2.png",358,55,351,0.7,"stim/41.jpeg",4,1,2,1,"HouseObjects",1,1,"left","left",0.723999977,1,1,1,0,174,55,1,0.7,1,"stim/41.jpeg",4,1,"stim/41.jpeg",1,"right",0.483999968,2,1,2.52699995,3,3.359999895,174,0,1,NA,0,NA,0
"434","stim/objects/Instruments/harmonica.png",359,55,352,0.5,"stim/22.jpeg",2,2,1,2,"Instruments",2,3,"right","right",0.677999973,1,1,1,0,NA,NA,NA,NA,NA,NA,NA,NA,NA,NA,NA,NA,NA,NA,NA,NA,NA,NA,NA,NA,NA,NA,NA,NA
"484","stim/objects/Instruments/metronome.png",360,55,353,0.9,"stim/52.jpeg",5,2,3,2,"Instruments",2,4,"right","right",0.744999886,1,1,1,0,NA,NA,NA,NA,NA,NA,NA,NA,NA,NA,NA,NA,NA,NA,NA,NA,NA,NA,NA,NA,NA,NA,NA,NA
"255","stim/objects/HouseObjects/dustpan2.png",361,55,354,0.3,"stim/32.jpeg",3,2,2,1,"HouseObjects",1,3,"left","right",0.750999928,0,0,1,0,146,55,1,0.3,1,"stim/32.jpeg",3,2,"stim/32.jpeg",3,"right",0.90199995,2,4,0.332999945,4,0.554999828,146,0,0,NA,0,NA,0
"258","stim/objects/HouseObjects/flyswatter2.png",362,55,355,0.7,"stim/44.jpeg",4,4,2,1,"HouseObjects",1,1,"left","left",0.536000013,1,1,1,0,50,55,1,0.7,1,"stim/44.jpeg",4,4,"stim/44.jpeg",1,"right",1.661999941,2,1,2.919000149,3,2.062000036,50,0,0,NA,0,NA,0
"264","stim/objects/HouseObjects/glass2.png",363,55,356,0.7,"stim/42.jpeg",4,2,2,1,"HouseObjects",1,2,"left","right",0.496999979,0,0,1,0,85,55,1,0.7,1,"stim/42.jpeg",4,2,"stim/42.jpeg",2,"left",2.200999975,3,4,4.110000134,3,1.971999884,85,1,0,0,0,0,0
"562","stim/objects/Instruments/trumpet2.png",364,55,357,0.1,"stim/64.jpeg",6,4,3,1,"Instruments",2,4,"right","left",0.499000072,0,0,1,0,163,55,1,0.1,2,"stim/64.jpeg",6,4,"stim/64.jpeg",4,"right",0.951999903,4,2,0.289999962,2,0.26699996,163,0,0,NA,0,NA,0
"439","stim/objects/Instruments/harp2.png",365,55,358,0.3,"stim/43.jpeg",4,3,2,1,"Instruments",2,4,"right","left",0.696000099,0,0,1,0,17,55,1,0.3,2,"stim/43.jpeg",4,3,"stim/43.jpeg",4,"left",3.062999964,2,4,3.279000044,3,1.937999964,17,1,0,0,0,0,0
"443","stim/objects/Instruments/hihat2.png",366,55,359,0.3,"stim/44.jpeg",4,4,2,1,"Instruments",2,2,"right","right",0.579999924,1,1,1,0,93,55,1,0.3,2,"stim/44.jpeg",4,4,"stim/44.jpeg",2,"right",1.789999962,4,4,0.972999811,2,0.463000059,93,0,1,NA,1,NA,0
"427","stim/objects/Instruments/grandpiano.png",367,55,360,0.5,"stim/24.jpeg",2,4,1,2,"Instruments",2,1,"right","",NA,0,0,1,0,NA,NA,NA,NA,NA,NA,NA,NA,NA,NA,NA,NA,NA,NA,NA,NA,NA,NA,NA,NA,NA,NA,NA,NA
"406","stim/objects/Instruments/drums.png",368,55,361,0.5,"stim/11.jpeg",1,1,1,2,"Instruments",2,3,"right","left",0.626999855,0,0,1,0,NA,NA,NA,NA,NA,NA,NA,NA,NA,NA,NA,NA,NA,NA,NA,NA,NA,NA,NA,NA,NA,NA,NA,NA
"314","stim/objects/HouseObjects/lintroller.png",369,55,362,0.9,"stim/64.jpeg",6,4,3,2,"HouseObjects",1,2,"left","right",0.441000223,0,0,1,0,NA,NA,NA,NA,NA,NA,NA,NA,NA,NA,NA,NA,NA,NA,NA,NA,NA,NA,NA,NA,NA,NA,NA,NA
"493","stim/objects/Instruments/musicsheet.png",370,55,363,0.9,"stim/54.jpeg",5,4,3,2,"Instruments",2,1,"right","right",0.613000154,1,1,1,0,NA,NA,NA,NA,NA,NA,NA,NA,NA,NA,NA,NA,NA,NA,NA,NA,NA,NA,NA,NA,NA,NA,NA,NA
"515","stim/objects/Instruments/musicstand.png",371,55,364,0.9,"stim/51.jpeg",5,1,3,2,"Instruments",2,3,"right","right",0.65899992,1,1,1,0,NA,NA,NA,NA,NA,NA,NA,NA,NA,NA,NA,NA,NA,NA,NA,NA,NA,NA,NA,NA,NA,NA,NA,NA
"554","stim/objects/Instruments/tambourine2.png",372,55,365,0.1,"stim/64.jpeg",6,4,3,1,"Instruments",2,4,"right","right",0.476000071,1,1,1,0,130,55,1,0.1,2,"stim/64.jpeg",6,4,"stim/64.jpeg",4,"right",0.753000021,3,3,3.077000141,4,2.039999962,130,0,0,NA,1,NA,0
"444","stim/objects/Instruments/keyboard.png",373,55,366,0.7,"stim/32.jpeg",3,2,2,2,"Instruments",2,3,"right","right",0.750999928,1,1,1,0,NA,NA,NA,NA,NA,NA,NA,NA,NA,NA,NA,NA,NA,NA,NA,NA,NA,NA,NA,NA,NA,NA,NA,NA
"399","stim/objects/HouseObjects/thread2.png",374,55,367,0.9,"stim/63.jpeg",6,3,3,1,"HouseObjects",1,3,"left","right",0.53399992,0,0,1,0,90,55,1,0.9,1,"stim/63.jpeg",6,3,"stim/63.jpeg",3,"left",2.087999821,4,3,6.486999989,1,3.16899991,90,1,1,1,0,0,0
"317","stim/objects/HouseObjects/lintroller.png",375,55,368,0.9,"stim/62.jpeg",6,2,3,2,"HouseObjects",1,2,"left","left",0.548000097,1,1,1,0,NA,NA,NA,NA,NA,NA,NA,NA,NA,NA,NA,NA,NA,NA,NA,NA,NA,NA,NA,NA,NA,NA,NA,NA
"565","stim/objects/Instruments/violin.png",376,55,369,0.7,"stim/34.jpeg",3,4,2,1,"Instruments",2,4,"right","right",0.478000164,1,1,1,0,15,55,1,0.7,2,"stim/34.jpeg",3,4,"stim/34.jpeg",4,"left",2.907999992,4,1,5.105999947,2,3.511999846,15,1,0,0,0,0,0
"398","stim/objects/HouseObjects/thread.png",377,55,370,0.3,"stim/32.jpeg",3,2,2,1,"HouseObjects",1,1,"left","left",0.516000032,1,1,1,0,198,55,1,0.3,1,"stim/32.jpeg",3,2,"stim/32.jpeg",1,"right",1.417999983,4,2,1.47300005,4,1.319999933,198,0,1,NA,0,NA,0
"457","stim/objects/Instruments/marimba.png",378,55,371,0.9,"stim/53.jpeg",5,3,3,2,"Instruments",2,4,"right","right",0.586999893,1,1,1,0,NA,NA,NA,NA,NA,NA,NA,NA,NA,NA,NA,NA,NA,NA,NA,NA,NA,NA,NA,NA,NA,NA,NA,NA
"529","stim/objects/Instruments/oboe.png",379,55,372,0.9,"stim/52.jpeg",5,2,3,2,"Instruments",2,1,"right","right",0.680999994,1,1,1,0,NA,NA,NA,NA,NA,NA,NA,NA,NA,NA,NA,NA,NA,NA,NA,NA,NA,NA,NA,NA,NA,NA,NA,NA
"244","stim/objects/HouseObjects/cushion.png",380,55,373,0.5,"stim/12.jpeg",1,2,1,2,"HouseObjects",1,4,"left","left",0.621999979,1,1,1,0,NA,NA,NA,NA,NA,NA,NA,NA,NA,NA,NA,NA,NA,NA,NA,NA,NA,NA,NA,NA,NA,NA,NA,NA
"309","stim/objects/HouseObjects/lintroller.png",381,55,374,0.9,"stim/63.jpeg",6,3,3,2,"HouseObjects",1,1,"left","left",0.801000118,1,1,1,0,NA,NA,NA,NA,NA,NA,NA,NA,NA,NA,NA,NA,NA,NA,NA,NA,NA,NA,NA,NA,NA,NA,NA,NA
"417","stim/objects/Instruments/flute2.png",382,55,375,0.7,"stim/32.jpeg",3,2,2,1,"Instruments",2,2,"right","",NA,0,0,1,0,3,55,1,0.7,2,"stim/32.jpeg",3,2,"stim/32.jpeg",2,"left",0.839999914,1,1,6.787999868,2,5.23300004,3,1,0,0,1,1,0
"555","stim/objects/Instruments/timbal.png",383,55,376,0.5,"stim/22.jpeg",2,2,1,1,"Instruments",2,2,"right","right",0.637000084,1,1,1,0,119,55,1,0.5,2,"stim/22.jpeg",2,2,"stim/22.jpeg",2,"right",0.73300004,4,4,0.951999903,4,0.286000013,119,0,0,NA,0,NA,0
"541","stim/objects/Instruments/panflute.png",384,55,377,0.5,"stim/12.jpeg",1,2,1,1,"Instruments",2,1,"right","left",0.761000156,0,0,1,0,65,55,1,0.5,1,"stim/12.jpeg",1,2,"stim/12.jpeg",1,"right",2.522000074,2,3,1.829999924,2,1.97300005,65,0,0,NA,0,NA,0
"366","stim/objects/HouseObjects/pitcher.png",385,55,378,0.9,"stim/64.jpeg",6,4,3,2,"HouseObjects",1,4,"left","right",0.479000092,0,0,1,0,NA,NA,NA,NA,NA,NA,NA,NA,NA,NA,NA,NA,NA,NA,NA,NA,NA,NA,NA,NA,NA,NA,NA,NA
"561","stim/objects/Instruments/trumpet.png",386,55,379,0.7,"stim/32.jpeg",3,2,2,1,"Instruments",2,2,"right","right",0.542000055,1,1,1,0,113,55,1,0.7,2,"stim/32.jpeg",3,2,"stim/32.jpeg",2,"left",1.243000031,4,4,3.667000055,3,1.648000002,113,1,0,0,0,0,0
"247","stim/objects/HouseObjects/dishsoap.png",387,55,380,0.5,"stim/14.jpeg",1,4,1,2,"HouseObjects",1,1,"left","left",0.530999899,1,1,1,0,NA,NA,NA,NA,NA,NA,NA,NA,NA,NA,NA,NA,NA,NA,NA,NA,NA,NA,NA,NA,NA,NA,NA,NA
"408","stim/objects/Instruments/drums2.png",388,55,381,0.7,"stim/33.jpeg",3,3,2,1,"Instruments",2,1,"right","left",0.473999977,0,0,1,0,166,55,1,0.7,2,"stim/33.jpeg",3,3,"stim/33.jpeg",1,"right",0.546000004,4,2,0.401000023,1,0.145999908,166,0,0,NA,1,NA,0
"335","stim/objects/HouseObjects/match.png",389,55,382,0.9,"stim/64.jpeg",6,4,3,2,"HouseObjects",1,1,"left","left",0.751000166,1,1,1,0,NA,NA,NA,NA,NA,NA,NA,NA,NA,NA,NA,NA,NA,NA,NA,NA,NA,NA,NA,NA,NA,NA,NA,NA
"327","stim/objects/HouseObjects/match.png",390,55,383,0.9,"stim/61.jpeg",6,1,3,2,"HouseObjects",1,2,"left","left",0.641000032,1,1,1,0,NA,NA,NA,NA,NA,NA,NA,NA,NA,NA,NA,NA,NA,NA,NA,NA,NA,NA,NA,NA,NA,NA,NA,NA
"452","stim/objects/Instruments/maraca.png",391,55,384,0.7,"stim/33.jpeg",3,3,2,2,"Instruments",2,4,"right","right",0.67599988,1,1,1,0,NA,NA,NA,NA,NA,NA,NA,NA,NA,NA,NA,NA,NA,NA,NA,NA,NA,NA,NA,NA,NA,NA,NA,NA
"370","stim/objects/HouseObjects/pitcher.png",392,55,385,0.9,"stim/61.jpeg",6,1,3,2,"HouseObjects",1,2,"left","left",0.588000059,1,1,1,0,NA,NA,NA,NA,NA,NA,NA,NA,NA,NA,NA,NA,NA,NA,NA,NA,NA,NA,NA,NA,NA,NA,NA,NA
"495","stim/objects/Instruments/musicsheet.png",393,55,386,0.9,"stim/53.jpeg",5,3,3,2,"Instruments",2,1,"right","",NA,0,0,1,0,NA,NA,NA,NA,NA,NA,NA,NA,NA,NA,NA,NA,NA,NA,NA,NA,NA,NA,NA,NA,NA,NA,NA,NA
"249","stim/objects/HouseObjects/dishsoap2.png",394,55,387,0.3,"stim/34.jpeg",3,4,2,1,"HouseObjects",1,1,"left","left",0.383000135,1,1,1,0,106,55,1,0.3,1,"stim/34.jpeg",3,4,"stim/34.jpeg",1,"right",1.10800004,2,2,1.092999935,2,0.571000099,106,0,0,NA,0,NA,0
"277","stim/objects/HouseObjects/handvacuum.png",395,55,388,0.7,"stim/43.jpeg",4,3,2,2,"HouseObjects",1,4,"left","left",0.477999926,1,1,1,0,NA,NA,NA,NA,NA,NA,NA,NA,NA,NA,NA,NA,NA,NA,NA,NA,NA,NA,NA,NA,NA,NA,NA,NA
"465","stim/objects/Instruments/marimba.png",396,55,389,0.9,"stim/51.jpeg",5,1,3,2,"Instruments",2,3,"right","right",0.582000017,1,1,1,0,NA,NA,NA,NA,NA,NA,NA,NA,NA,NA,NA,NA,NA,NA,NA,NA,NA,NA,NA,NA,NA,NA,NA,NA
"551","stim/objects/Instruments/speaker.png",397,55,390,0.5,"stim/24.jpeg",2,4,1,1,"Instruments",2,1,"right","left",0.416000128,0,0,1,0,117,55,1,0.5,2,"stim/24.jpeg",2,4,"stim/24.jpeg",1,"right",1.180999994,4,2,1.728999853,3,1.536999941,117,0,0,NA,0,NA,0
"243","stim/objects/HouseObjects/coffee2.png",398,55,391,0.3,"stim/32.jpeg",3,2,2,1,"HouseObjects",1,2,"left","right",0.720999956,0,0,1,0,101,55,1,0.3,1,"stim/32.jpeg",3,2,"stim/32.jpeg",2,"left",1.599999905,4,1,3.187999964,2,3.602999926,101,1,0,0,1,1,0
"466","stim/objects/Instruments/marimba.png",399,55,392,0.9,"stim/53.jpeg",5,3,3,2,"Instruments",2,1,"right","left",0.480999947,0,0,1,0,NA,NA,NA,NA,NA,NA,NA,NA,NA,NA,NA,NA,NA,NA,NA,NA,NA,NA,NA,NA,NA,NA,NA,NA
"336","stim/objects/HouseObjects/match.png",400,55,393,0.9,"stim/61.jpeg",6,1,3,2,"HouseObjects",1,3,"left","left",0.674000025,1,1,1,0,NA,NA,NA,NA,NA,NA,NA,NA,NA,NA,NA,NA,NA,NA,NA,NA,NA,NA,NA,NA,NA,NA,NA,NA
"343","stim/objects/HouseObjects/pan.png",401,55,394,0.9,"stim/62.jpeg",6,2,3,2,"HouseObjects",1,2,"left","left",0.592000008,1,1,1,0,NA,NA,NA,NA,NA,NA,NA,NA,NA,NA,NA,NA,NA,NA,NA,NA,NA,NA,NA,NA,NA,NA,NA,NA
"312","stim/objects/HouseObjects/lintroller.png",402,55,395,0.9,"stim/64.jpeg",6,4,3,2,"HouseObjects",1,3,"left","left",0.555999994,1,1,1,0,NA,NA,NA,NA,NA,NA,NA,NA,NA,NA,NA,NA,NA,NA,NA,NA,NA,NA,NA,NA,NA,NA,NA,NA
"497","stim/objects/Instruments/musicsheet.png",403,55,396,0.9,"stim/54.jpeg",5,4,3,2,"Instruments",2,2,"right","left",0.490999937,0,0,1,0,NA,NA,NA,NA,NA,NA,NA,NA,NA,NA,NA,NA,NA,NA,NA,NA,NA,NA,NA,NA,NA,NA,NA,NA
"265","stim/objects/HouseObjects/glassmop.png",404,55,397,0.5,"stim/22.jpeg",2,2,1,2,"HouseObjects",1,1,"left","",NA,0,0,1,0,NA,NA,NA,NA,NA,NA,NA,NA,NA,NA,NA,NA,NA,NA,NA,NA,NA,NA,NA,NA,NA,NA,NA,NA
"372","stim/objects/HouseObjects/pitcher.png",405,55,398,0.9,"stim/63.jpeg",6,3,3,2,"HouseObjects",1,3,"left","left",0.443000078,1,1,1,0,NA,NA,NA,NA,NA,NA,NA,NA,NA,NA,NA,NA,NA,NA,NA,NA,NA,NA,NA,NA,NA,NA,NA,NA
"553","stim/objects/Instruments/tambourine.png",406,55,399,0.5,"stim/21.jpeg",2,1,1,1,"Instruments",2,2,"right","left",0.499000072,0,0,1,0,95,55,1,0.5,2,"stim/21.jpeg",2,1,"stim/21.jpeg",2,"right",0.580999851,4,4,0.562999964,2,1.366999865,95,0,0,NA,1,NA,0
"548","stim/objects/Instruments/record2.png",407,55,400,0.9,"stim/52.jpeg",5,2,3,1,"Instruments",2,2,"right","left",0.40899992,0,0,1,0,111,55,1,0.9,2,"stim/52.jpeg",5,2,"stim/52.jpeg",2,"right",1.594000101,4,4,1.075000048,4,2.049999952,111,0,0,NA,0,NA,0
"361","stim/objects/HouseObjects/pitcher.png",408,55,401,0.9,"stim/64.jpeg",6,4,3,2,"HouseObjects",1,4,"left","right",0.462000132,0,0,1,0,NA,NA,NA,NA,NA,NA,NA,NA,NA,NA,NA,NA,NA,NA,NA,NA,NA,NA,NA,NA,NA,NA,NA,NA
"485","stim/objects/Instruments/metronome.png",409,55,402,0.9,"stim/53.jpeg",5,3,3,2,"Instruments",2,2,"right","left",0.308000088,0,0,1,0,NA,NA,NA,NA,NA,NA,NA,NA,NA,NA,NA,NA,NA,NA,NA,NA,NA,NA,NA,NA,NA,NA,NA,NA
"401","stim/objects/HouseObjects/towel2.png",410,55,403,0.9,"stim/64.jpeg",6,4,3,1,"HouseObjects",1,2,"left","left",0.489000082,1,1,1,0,167,55,1,0.9,1,"stim/64.jpeg",6,4,"stim/64.jpeg",2,"right",1.770999908,4,2,0.710000038,1,0.396000147,167,0,0,NA,0,NA,0
"415","stim/objects/Instruments/flute.png",411,55,404,0.5,"stim/14.jpeg",1,4,1,2,"Instruments",2,3,"right","right",0.808000088,1,1,1,0,NA,NA,NA,NA,NA,NA,NA,NA,NA,NA,NA,NA,NA,NA,NA,NA,NA,NA,NA,NA,NA,NA,NA,NA
"373","stim/objects/HouseObjects/pitcher.png",412,55,405,0.9,"stim/63.jpeg",6,3,3,2,"HouseObjects",1,4,"left","right",0.513000011,0,0,1,0,NA,NA,NA,NA,NA,NA,NA,NA,NA,NA,NA,NA,NA,NA,NA,NA,NA,NA,NA,NA,NA,NA,NA,NA
"508","stim/objects/Instruments/musicstand.png",413,55,406,0.9,"stim/54.jpeg",5,4,3,2,"Instruments",2,3,"right","",NA,0,0,1,0,NA,NA,NA,NA,NA,NA,NA,NA,NA,NA,NA,NA,NA,NA,NA,NA,NA,NA,NA,NA,NA,NA,NA,NA
"300","stim/objects/HouseObjects/knife.png",414,55,407,0.9,"stim/64.jpeg",6,4,3,2,"HouseObjects",1,4,"left","right",0.427999973,0,0,1,0,NA,NA,NA,NA,NA,NA,NA,NA,NA,NA,NA,NA,NA,NA,NA,NA,NA,NA,NA,NA,NA,NA,NA,NA
"301","stim/objects/HouseObjects/knife.png",415,55,408,0.9,"stim/62.jpeg",6,2,3,2,"HouseObjects",1,1,"left","left",0.628999949,1,1,1,0,NA,NA,NA,NA,NA,NA,NA,NA,NA,NA,NA,NA,NA,NA,NA,NA,NA,NA,NA,NA,NA,NA,NA,NA
"566","stim/objects/Instruments/violin2.png",416,55,409,0.1,"stim/62.jpeg",6,2,3,1,"Instruments",2,4,"right","left",0.563999891,0,0,1,0,165,55,1,0.1,2,"stim/62.jpeg",6,2,"stim/62.jpeg",4,"right",1.855000019,2,4,0.202000141,4,0.439999819,165,0,0,NA,1,NA,0
"267","stim/objects/HouseObjects/glassmop2.png",417,55,410,0.7,"stim/43.jpeg",4,3,2,1,"HouseObjects",1,3,"left","left",0.737999916,1,1,1,0,195,55,1,0.7,1,"stim/43.jpeg",4,3,"stim/43.jpeg",3,"right",0.546000004,4,2,0.302000046,2,0.407000065,195,0,0,NA,0,NA,0
"445","stim/objects/Instruments/keyboard.png",418,55,411,0.7,"stim/31.jpeg",3,1,2,2,"Instruments",2,3,"right","right",0.63499999,1,1,1,0,NA,NA,NA,NA,NA,NA,NA,NA,NA,NA,NA,NA,NA,NA,NA,NA,NA,NA,NA,NA,NA,NA,NA,NA
"532","stim/objects/Instruments/oboe.png",419,55,412,0.9,"stim/53.jpeg",5,3,3,2,"Instruments",2,4,"right","left",0.522000074,0,0,1,0,NA,NA,NA,NA,NA,NA,NA,NA,NA,NA,NA,NA,NA,NA,NA,NA,NA,NA,NA,NA,NA,NA,NA,NA
"284","stim/objects/HouseObjects/ironingboard.png",420,55,413,0.7,"stim/42.jpeg",4,2,2,2,"HouseObjects",1,1,"left","left",0.433000088,1,1,1,0,NA,NA,NA,NA,NA,NA,NA,NA,NA,NA,NA,NA,NA,NA,NA,NA,NA,NA,NA,NA,NA,NA,NA,NA
"486","stim/objects/Instruments/metronome.png",421,55,414,0.9,"stim/54.jpeg",5,4,3,2,"Instruments",2,2,"right","left",0.521000147,0,0,1,0,NA,NA,NA,NA,NA,NA,NA,NA,NA,NA,NA,NA,NA,NA,NA,NA,NA,NA,NA,NA,NA,NA,NA,NA
"468","stim/objects/Instruments/marimba.png",422,55,415,0.9,"stim/54.jpeg",5,4,3,2,"Instruments",2,4,"right","right",0.487999916,1,1,1,0,NA,NA,NA,NA,NA,NA,NA,NA,NA,NA,NA,NA,NA,NA,NA,NA,NA,NA,NA,NA,NA,NA,NA,NA
"533","stim/objects/Instruments/oboe.png",423,55,416,0.9,"stim/53.jpeg",5,3,3,2,"Instruments",2,1,"right","left",0.286000013,0,0,1,0,NA,NA,NA,NA,NA,NA,NA,NA,NA,NA,NA,NA,NA,NA,NA,NA,NA,NA,NA,NA,NA,NA,NA,NA
"326","stim/objects/HouseObjects/match.png",424,55,417,0.9,"stim/62.jpeg",6,2,3,2,"HouseObjects",1,3,"left","left",0.31400013,1,1,1,0,NA,NA,NA,NA,NA,NA,NA,NA,NA,NA,NA,NA,NA,NA,NA,NA,NA,NA,NA,NA,NA,NA,NA,NA
"347","stim/objects/HouseObjects/pan.png",425,55,418,0.9,"stim/64.jpeg",6,4,3,2,"HouseObjects",1,1,"left","left",0.625,1,1,1,0,NA,NA,NA,NA,NA,NA,NA,NA,NA,NA,NA,NA,NA,NA,NA,NA,NA,NA,NA,NA,NA,NA,NA,NA
"491","stim/objects/Instruments/musicsheet.png",426,55,419,0.9,"stim/51.jpeg",5,1,3,2,"Instruments",2,4,"right","left",0.569999933,0,0,1,0,NA,NA,NA,NA,NA,NA,NA,NA,NA,NA,NA,NA,NA,NA,NA,NA,NA,NA,NA,NA,NA,NA,NA,NA
"464","stim/objects/Instruments/marimba.png",427,55,420,0.9,"stim/51.jpeg",5,1,3,2,"Instruments",2,4,"right","right",0.720999956,1,1,1,0,NA,NA,NA,NA,NA,NA,NA,NA,NA,NA,NA,NA,NA,NA,NA,NA,NA,NA,NA,NA,NA,NA,NA,NA
"516","stim/objects/Instruments/musicstand.png",428,55,421,0.9,"stim/52.jpeg",5,2,3,2,"Instruments",2,2,"right","left",0.440999985,0,0,1,0,NA,NA,NA,NA,NA,NA,NA,NA,NA,NA,NA,NA,NA,NA,NA,NA,NA,NA,NA,NA,NA,NA,NA,NA
"458","stim/objects/Instruments/marimba.png",429,55,422,0.9,"stim/53.jpeg",5,3,3,2,"Instruments",2,3,"right","left",0.720000029,0,0,1,0,NA,NA,NA,NA,NA,NA,NA,NA,NA,NA,NA,NA,NA,NA,NA,NA,NA,NA,NA,NA,NA,NA,NA,NA
"292","stim/objects/HouseObjects/knife.png",430,55,423,0.9,"stim/61.jpeg",6,1,3,2,"HouseObjects",1,3,"left","left",0.595999956,1,1,1,0,NA,NA,NA,NA,NA,NA,NA,NA,NA,NA,NA,NA,NA,NA,NA,NA,NA,NA,NA,NA,NA,NA,NA,NA
"365","stim/objects/HouseObjects/pitcher.png",431,55,424,0.9,"stim/63.jpeg",6,3,3,2,"HouseObjects",1,2,"left","left",0.496999979,1,1,1,0,NA,NA,NA,NA,NA,NA,NA,NA,NA,NA,NA,NA,NA,NA,NA,NA,NA,NA,NA,NA,NA,NA,NA,NA
"353","stim/objects/HouseObjects/pan.png",432,55,425,0.9,"stim/63.jpeg",6,3,3,2,"HouseObjects",1,1,"left","left",0.479000092,1,1,1,0,NA,NA,NA,NA,NA,NA,NA,NA,NA,NA,NA,NA,NA,NA,NA,NA,NA,NA,NA,NA,NA,NA,NA,NA
"245","stim/objects/HouseObjects/cushion.png",433,55,426,0.5,"stim/13.jpeg",1,3,1,2,"HouseObjects",1,3,"left","left",0.583000183,1,1,1,0,NA,NA,NA,NA,NA,NA,NA,NA,NA,NA,NA,NA,NA,NA,NA,NA,NA,NA,NA,NA,NA,NA,NA,NA
"257","stim/objects/HouseObjects/flyswatter.png",434,55,427,0.5,"stim/23.jpeg",2,3,1,2,"HouseObjects",1,4,"left","left",0.539000034,1,1,1,0,NA,NA,NA,NA,NA,NA,NA,NA,NA,NA,NA,NA,NA,NA,NA,NA,NA,NA,NA,NA,NA,NA,NA,NA
"338","stim/objects/HouseObjects/match.png",435,55,428,0.9,"stim/61.jpeg",6,1,3,2,"HouseObjects",1,4,"left","left",0.509000063,1,1,1,0,NA,NA,NA,NA,NA,NA,NA,NA,NA,NA,NA,NA,NA,NA,NA,NA,NA,NA,NA,NA,NA,NA,NA,NA
"498","stim/objects/Instruments/musicsheet.png",436,55,429,0.9,"stim/54.jpeg",5,4,3,2,"Instruments",2,3,"right","left",0.519000053,0,0,1,0,NA,NA,NA,NA,NA,NA,NA,NA,NA,NA,NA,NA,NA,NA,NA,NA,NA,NA,NA,NA,NA,NA,NA,NA
"374","stim/objects/HouseObjects/pitcher.png",437,55,430,0.9,"stim/63.jpeg",6,3,3,2,"HouseObjects",1,3,"left","left",0.480000019,1,1,1,0,NA,NA,NA,NA,NA,NA,NA,NA,NA,NA,NA,NA,NA,NA,NA,NA,NA,NA,NA,NA,NA,NA,NA,NA
"496","stim/objects/Instruments/musicsheet.png",438,55,431,0.9,"stim/52.jpeg",5,2,3,2,"Instruments",2,2,"right","right",0.585999966,1,1,1,0,NA,NA,NA,NA,NA,NA,NA,NA,NA,NA,NA,NA,NA,NA,NA,NA,NA,NA,NA,NA,NA,NA,NA,NA
"558","stim/objects/Instruments/triangle2.png",439,55,432,0.1,"stim/62.jpeg",6,2,3,1,"Instruments",2,2,"right","left",0.476000071,0,0,1,0,5,55,1,0.1,2,"stim/62.jpeg",6,2,"stim/62.jpeg",2,"left",1.186000109,4,3,4.417000055,4,4.717000008,5,1,0,0,0,0,0
"520","stim/objects/Instruments/musicstand.png",440,55,433,0.9,"stim/52.jpeg",5,2,3,2,"Instruments",2,3,"right","right",0.743999958,1,1,1,0,NA,NA,NA,NA,NA,NA,NA,NA,NA,NA,NA,NA,NA,NA,NA,NA,NA,NA,NA,NA,NA,NA,NA,NA
"349","stim/objects/HouseObjects/pan.png",441,55,434,0.9,"stim/62.jpeg",6,2,3,2,"HouseObjects",1,3,"left","left",0.51699996,1,1,1,0,NA,NA,NA,NA,NA,NA,NA,NA,NA,NA,NA,NA,NA,NA,NA,NA,NA,NA,NA,NA,NA,NA,NA,NA
"512","stim/objects/Instruments/musicstand.png",442,55,435,0.9,"stim/51.jpeg",5,1,3,2,"Instruments",2,4,"right","left",0.480000019,0,0,1,0,NA,NA,NA,NA,NA,NA,NA,NA,NA,NA,NA,NA,NA,NA,NA,NA,NA,NA,NA,NA,NA,NA,NA,NA
"390","stim/objects/HouseObjects/sponge.png",443,55,436,0.5,"stim/23.jpeg",2,3,1,1,"HouseObjects",1,3,"left","right",0.749000072,0,0,1,0,19,55,1,0.5,2,"stim/23.jpeg",2,3,"stim/23.jpeg",3,"right",1.20299983,4,3,1.707999945,1,1.162000179,19,0,1,NA,0,NA,0
"447","stim/objects/Instruments/keyboard2.png",444,55,437,0.3,"stim/41.jpeg",4,1,2,1,"Instruments",2,4,"right","right",0.444000006,1,1,1,0,48,55,1,0.3,2,"stim/41.jpeg",4,1,"stim/41.jpeg",4,"right",0.94900012,4,4,1.980999947,4,0.919000149,48,0,0,NA,1,NA,0
"350","stim/objects/HouseObjects/pan.png",445,55,438,0.9,"stim/63.jpeg",6,3,3,2,"HouseObjects",1,1,"left","left",0.492000103,1,1,1,0,NA,NA,NA,NA,NA,NA,NA,NA,NA,NA,NA,NA,NA,NA,NA,NA,NA,NA,NA,NA,NA,NA,NA,NA
"537","stim/objects/Instruments/oboe.png",446,55,439,0.9,"stim/52.jpeg",5,2,3,2,"Instruments",2,2,"right","right",0.580000162,1,1,1,0,NA,NA,NA,NA,NA,NA,NA,NA,NA,NA,NA,NA,NA,NA,NA,NA,NA,NA,NA,NA,NA,NA,NA,NA
"461","stim/objects/Instruments/marimba.png",447,55,440,0.9,"stim/52.jpeg",5,2,3,2,"Instruments",2,3,"right","right",0.577000141,1,1,1,0,NA,NA,NA,NA,NA,NA,NA,NA,NA,NA,NA,NA,NA,NA,NA,NA,NA,NA,NA,NA,NA,NA,NA,NA
"448","stim/objects/Instruments/laud.png",448,55,441,0.7,"stim/33.jpeg",3,3,2,2,"Instruments",2,3,"right","left",0.623000145,0,0,1,0,NA,NA,NA,NA,NA,NA,NA,NA,NA,NA,NA,NA,NA,NA,NA,NA,NA,NA,NA,NA,NA,NA,NA,NA
"377","stim/objects/HouseObjects/recyclingbin2.png",449,55,442,0.1,"stim/52.jpeg",5,2,3,1,"HouseObjects",1,3,"left","right",0.529000044,0,0,1,0,108,55,1,0.1,1,"stim/52.jpeg",5,2,"stim/52.jpeg",3,"left",1.016000032,4,1,4.534000158,1,3.424999952,108,1,0,0,0,0,0
"345","stim/objects/HouseObjects/pan.png",450,55,443,0.9,"stim/62.jpeg",6,2,3,2,"HouseObjects",1,4,"left","left",0.605999947,1,1,1,0,NA,NA,NA,NA,NA,NA,NA,NA,NA,NA,NA,NA,NA,NA,NA,NA,NA,NA,NA,NA,NA,NA,NA,NA
"407","stim/objects/Instruments/drums.png",451,55,444,0.5,"stim/14.jpeg",1,4,1,2,"Instruments",2,2,"right","right",0.75999999,1,1,1,0,NA,NA,NA,NA,NA,NA,NA,NA,NA,NA,NA,NA,NA,NA,NA,NA,NA,NA,NA,NA,NA,NA,NA,NA
"422","stim/objects/Instruments/frenchhorn.png",452,55,445,0.5,"stim/22.jpeg",2,2,1,2,"Instruments",2,4,"right","left",0.454999924,0,0,1,0,NA,NA,NA,NA,NA,NA,NA,NA,NA,NA,NA,NA,NA,NA,NA,NA,NA,NA,NA,NA,NA,NA,NA,NA
"560","stim/objects/Instruments/trombone2.png",453,55,446,0.1,"stim/63.jpeg",6,3,3,1,"Instruments",2,4,"right","right",0.52300024,1,1,1,0,189,55,1,0.1,2,"stim/63.jpeg",6,3,"stim/63.jpeg",4,"right",0.940000057,2,2,2.230000019,2,0.937000036,189,0,0,NA,0,NA,0
"432","stim/objects/Instruments/guitarcase2.png",454,55,447,0.3,"stim/41.jpeg",4,1,2,1,"Instruments",2,4,"right","left",0.467000008,0,0,1,0,150,55,1,0.3,2,"stim/41.jpeg",4,1,"stim/41.jpeg",4,"left",1.315000057,4,3,6.578999996,3,2.219000101,150,1,0,0,0,0,0
"354","stim/objects/HouseObjects/pan.png",455,55,448,0.9,"stim/64.jpeg",6,4,3,2,"HouseObjects",1,2,"left","left",0.438999891,1,1,1,0,NA,NA,NA,NA,NA,NA,NA,NA,NA,NA,NA,NA,NA,NA,NA,NA,NA,NA,NA,NA,NA,NA,NA,NA
"556","stim/objects/Instruments/timbal2.png",456,55,449,0.1,"stim/61.jpeg",6,1,3,1,"Instruments",2,2,"right","left",0.476000071,0,0,1,0,82,55,1,0.1,2,"stim/61.jpeg",6,1,"stim/61.jpeg",2,"right",3.114000082,4,1,2.78399992,4,1.460999966,82,0,1,NA,0,NA,0
"382","stim/objects/HouseObjects/rug.png",457,55,450,0.5,"stim/12.jpeg",1,2,1,1,"HouseObjects",1,2,"left","left",0.361999989,1,1,1,0,51,55,1,0.5,1,"stim/12.jpeg",1,2,"stim/12.jpeg",2,"right",1.687999964,3,4,4.508000135,2,3.614000082,51,0,0,NA,1,NA,0
"242","stim/objects/HouseObjects/coffee.png",458,55,451,0.5,"stim/12.jpeg",1,2,1,2,"HouseObjects",1,3,"left","left",0.440000057,1,1,1,0,NA,NA,NA,NA,NA,NA,NA,NA,NA,NA,NA,NA,NA,NA,NA,NA,NA,NA,NA,NA,NA,NA,NA,NA
"506","stim/objects/Instruments/musicsheet2.png",459,55,452,0.9,"stim/51.jpeg",5,1,3,1,"Instruments",2,3,"right","left",0.476999998,0,0,1,0,200,55,1,0.9,2,"stim/51.jpeg",5,1,"stim/51.jpeg",3,"left",1.114000082,4,4,4.325999975,2,3.404000044,200,1,0,0,0,0,0
"544","stim/objects/Instruments/pipepiano2.png",460,55,453,0.9,"stim/51.jpeg",5,1,3,1,"Instruments",2,1,"right","right",0.713999987,1,1,1,0,169,55,1,0.9,2,"stim/51.jpeg",5,1,"stim/51.jpeg",1,"right",1.123999834,1,4,3.334000111,3,4.631000042,169,0,0,NA,0,NA,0
"337","stim/objects/HouseObjects/match.png",461,55,454,0.9,"stim/63.jpeg",6,3,3,2,"HouseObjects",1,2,"left","left",0.451999903,1,1,1,0,NA,NA,NA,NA,NA,NA,NA,NA,NA,NA,NA,NA,NA,NA,NA,NA,NA,NA,NA,NA,NA,NA,NA,NA
"567","stim/objects/Instruments/vuvuzela.png",462,55,455,0.7,"stim/31.jpeg",3,1,2,1,"Instruments",2,3,"right","right",0.662999868,1,1,1,0,20,55,1,0.7,2,"stim/31.jpeg",3,1,"stim/31.jpeg",3,"right",1.305000067,4,1,1.242000103,2,0.751000166,20,0,1,NA,0,NA,0
"438","stim/objects/Instruments/harp.png",463,55,456,0.7,"stim/33.jpeg",3,3,2,2,"Instruments",2,2,"right","left",0.519000053,0,0,1,0,NA,NA,NA,NA,NA,NA,NA,NA,NA,NA,NA,NA,NA,NA,NA,NA,NA,NA,NA,NA,NA,NA,NA,NA
"318","stim/objects/HouseObjects/lintroller.png",464,55,457,0.9,"stim/63.jpeg",6,3,3,2,"HouseObjects",1,2,"left","left",0.573000193,1,1,1,0,NA,NA,NA,NA,NA,NA,NA,NA,NA,NA,NA,NA,NA,NA,NA,NA,NA,NA,NA,NA,NA,NA,NA,NA
"269","stim/objects/HouseObjects/hairdryer.png",465,55,458,0.5,"stim/24.jpeg",2,4,1,2,"HouseObjects",1,2,"left","right",0.51699996,0,0,1,0,NA,NA,NA,NA,NA,NA,NA,NA,NA,NA,NA,NA,NA,NA,NA,NA,NA,NA,NA,NA,NA,NA,NA,NA
"523","stim/objects/Instruments/musicstand2.png",466,55,459,0.9,"stim/52.jpeg",5,2,3,1,"Instruments",2,4,"right","",NA,0,0,1,0,64,55,1,0.9,2,"stim/52.jpeg",5,2,"stim/52.jpeg",4,"left",1.018000126,4,3,6.880000114,4,4.90199995,64,1,0,0,1,1,0
"519","stim/objects/Instruments/musicstand.png",467,55,460,0.9,"stim/54.jpeg",5,4,3,2,"Instruments",2,4,"right","left",0.394999981,0,0,1,0,NA,NA,NA,NA,NA,NA,NA,NA,NA,NA,NA,NA,NA,NA,NA,NA,NA,NA,NA,NA,NA,NA,NA,NA
"454","stim/objects/Instruments/maraca.png",468,55,461,0.7,"stim/34.jpeg",3,4,2,2,"Instruments",2,2,"right","right",0.56099987,1,1,1,0,NA,NA,NA,NA,NA,NA,NA,NA,NA,NA,NA,NA,NA,NA,NA,NA,NA,NA,NA,NA,NA,NA,NA,NA
