"","obj_file","X.x","participant.x","trialN.x","trial_cond","scn_file.x","scn_cat","scn_inst","scn_condition","fillers","obj_cat","obj_cat_num","quadrant","corr_ans","key_resp_trial.keys","key_resp_trial.rt","trial_acc","trial_acc_manual","group.x","practice","X.y","participant.y","OvsN","PE_level","object_cat","scn_file.y","corr_scn_cat","corr_scn_inst","scn_file.1","corr_loc","key_resp_id.keys","key_resp_id.rt","key_resp_conf.keys","key_resp_assoc.keys","key_resp_assoc.rt","key_resp_loc.keys","key_resp_loc.rt","trialN.y","id_acc","assoc.acc","cond_assoc","loc.acc","cond_loc","group.y"
"153","stim/objects/Instruments/timbal.png",1,49,1,0.5,"stim/41.jpeg",4,1,1,NA,"Instruments",2,4,"right","",NA,0,0,0,1,NA,NA,NA,NA,NA,NA,NA,NA,NA,NA,NA,NA,NA,NA,NA,NA,NA,NA,NA,NA,NA,NA,NA,NA
"18","stim/objects/HouseObjects/safetypin2.png",2,49,2,0.7,"stim/62.jpeg",6,2,2,NA,"HouseObjects",1,3,"left","left",0.957999945,1,1,0,1,NA,NA,NA,NA,NA,NA,NA,NA,NA,NA,NA,NA,NA,NA,NA,NA,NA,NA,NA,NA,NA,NA,NA,NA
"112","stim/objects/HouseObjects/wateringcan2.png",3,49,3,0.9,"stim/24.jpeg",2,4,3,NA,"HouseObjects",1,1,"left","left",0.848999977,1,1,0,1,NA,NA,NA,NA,NA,NA,NA,NA,NA,NA,NA,NA,NA,NA,NA,NA,NA,NA,NA,NA,NA,NA,NA,NA
"186","stim/objects/Instruments/trombone2.png",4,49,4,0.9,"stim/13.jpeg",1,3,3,NA,"Instruments",2,2,"right","right",0.944000006,1,1,0,1,NA,NA,NA,NA,NA,NA,NA,NA,NA,NA,NA,NA,NA,NA,NA,NA,NA,NA,NA,NA,NA,NA,NA,NA
"37","stim/objects/HouseObjects/scale.png",5,49,5,0.5,"stim/34.jpeg",3,4,1,NA,"HouseObjects",1,3,"left","left",0.861999989,1,1,0,1,NA,NA,NA,NA,NA,NA,NA,NA,NA,NA,NA,NA,NA,NA,NA,NA,NA,NA,NA,NA,NA,NA,NA,NA
"134","stim/objects/Instruments/saxophone2.png",6,49,6,0.3,"stim/62.jpeg",6,2,2,NA,"Instruments",2,4,"right","left",0.849999905,0,0,0,1,NA,NA,NA,NA,NA,NA,NA,NA,NA,NA,NA,NA,NA,NA,NA,NA,NA,NA,NA,NA,NA,NA,NA,NA
"100","stim/objects/HouseObjects/vacuumcleaner2.png",7,49,7,0.9,"stim/23.jpeg",2,3,3,NA,"HouseObjects",1,4,"left","",NA,0,0,0,1,NA,NA,NA,NA,NA,NA,NA,NA,NA,NA,NA,NA,NA,NA,NA,NA,NA,NA,NA,NA,NA,NA,NA,NA
"88","stim/objects/HouseObjects/towel2.png",8,49,8,0.9,"stim/22.jpeg",2,2,3,NA,"HouseObjects",1,3,"left","left",0.941999912,1,1,0,1,NA,NA,NA,NA,NA,NA,NA,NA,NA,NA,NA,NA,NA,NA,NA,NA,NA,NA,NA,NA,NA,NA,NA,NA
"13","stim/objects/HouseObjects/safetypin.png",9,49,9,0.5,"stim/32.jpeg",3,2,1,NA,"HouseObjects",1,4,"left","right",0.842999935,0,0,0,1,NA,NA,NA,NA,NA,NA,NA,NA,NA,NA,NA,NA,NA,NA,NA,NA,NA,NA,NA,NA,NA,NA,NA,NA
"200","stim/objects/Instruments/trumpet2.png",10,49,10,0.9,"stim/14.jpeg",1,4,3,NA,"Instruments",2,3,"right","left",0.934999943,0,0,0,1,NA,NA,NA,NA,NA,NA,NA,NA,NA,NA,NA,NA,NA,NA,NA,NA,NA,NA,NA,NA,NA,NA,NA,NA
"129","stim/objects/Instruments/saxophone.png",11,49,11,0.5,"stim/32.jpeg",3,2,1,NA,"Instruments",2,1,"right","",NA,0,0,0,1,NA,NA,NA,NA,NA,NA,NA,NA,NA,NA,NA,NA,NA,NA,NA,NA,NA,NA,NA,NA,NA,NA,NA,NA
"54","stim/objects/HouseObjects/sponge2.png",12,49,12,0.1,"stim/11.jpeg",1,1,3,NA,"HouseObjects",1,2,"left","right",0.862000227,0,0,0,1,NA,NA,NA,NA,NA,NA,NA,NA,NA,NA,NA,NA,NA,NA,NA,NA,NA,NA,NA,NA,NA,NA,NA,NA
"181","stim/objects/Instruments/trombone.png",13,49,13,0.5,"stim/43.jpeg",4,3,1,NA,"Instruments",2,3,"right","left",0.688999891,0,0,0,1,NA,NA,NA,NA,NA,NA,NA,NA,NA,NA,NA,NA,NA,NA,NA,NA,NA,NA,NA,NA,NA,NA,NA,NA
"109","stim/objects/HouseObjects/wateringcan.png",14,49,14,0.3,"stim/54.jpeg",5,4,2,NA,"HouseObjects",1,2,"left","right",0.945000172,0,0,0,1,NA,NA,NA,NA,NA,NA,NA,NA,NA,NA,NA,NA,NA,NA,NA,NA,NA,NA,NA,NA,NA,NA,NA,NA
"225","stim/objects/Instruments/vuvuzela.png",15,49,15,0.7,"stim/53.jpeg",5,3,2,NA,"Instruments",2,2,"right","",NA,0,0,0,1,NA,NA,NA,NA,NA,NA,NA,NA,NA,NA,NA,NA,NA,NA,NA,NA,NA,NA,NA,NA,NA,NA,NA,NA
"42","stim/objects/HouseObjects/scale2.png",16,49,16,0.7,"stim/64.jpeg",6,4,2,NA,"HouseObjects",1,4,"left","left",0.662999868,1,1,0,1,NA,NA,NA,NA,NA,NA,NA,NA,NA,NA,NA,NA,NA,NA,NA,NA,NA,NA,NA,NA,NA,NA,NA,NA
"25","stim/objects/HouseObjects/saw.png",17,49,17,0.5,"stim/33.jpeg",3,3,1,NA,"HouseObjects",1,1,"left","right",0.848999977,0,0,0,1,NA,NA,NA,NA,NA,NA,NA,NA,NA,NA,NA,NA,NA,NA,NA,NA,NA,NA,NA,NA,NA,NA,NA,NA
"195","stim/objects/Instruments/trumpet.png",18,49,18,0.5,"stim/44.jpeg",4,4,1,NA,"Instruments",2,4,"right","right",0.927000046,1,1,0,1,NA,NA,NA,NA,NA,NA,NA,NA,NA,NA,NA,NA,NA,NA,NA,NA,NA,NA,NA,NA,NA,NA,NA,NA
"55","stim/objects/HouseObjects/spraybottle.png",19,49,19,0.5,"stim/42.jpeg",4,2,1,NA,"HouseObjects",1,4,"left","right",0.744999886,0,0,0,1,NA,NA,NA,NA,NA,NA,NA,NA,NA,NA,NA,NA,NA,NA,NA,NA,NA,NA,NA,NA,NA,NA,NA,NA
"167","stim/objects/Instruments/triangle.png",20,49,20,0.5,"stim/42.jpeg",4,2,1,NA,"Instruments",2,2,"right","left",0.842000008,0,0,0,1,NA,NA,NA,NA,NA,NA,NA,NA,NA,NA,NA,NA,NA,NA,NA,NA,NA,NA,NA,NA,NA,NA,NA,NA
"150","stim/objects/Instruments/tambourine2.png",21,49,21,0.3,"stim/64.jpeg",6,4,2,NA,"Instruments",2,3,"right","left",0.83100009,0,0,0,1,NA,NA,NA,NA,NA,NA,NA,NA,NA,NA,NA,NA,NA,NA,NA,NA,NA,NA,NA,NA,NA,NA,NA,NA
"172","stim/objects/Instruments/triangle2.png",22,49,22,0.9,"stim/12.jpeg",1,2,3,NA,"Instruments",2,3,"right","right",0.741999865,1,1,0,1,NA,NA,NA,NA,NA,NA,NA,NA,NA,NA,NA,NA,NA,NA,NA,NA,NA,NA,NA,NA,NA,NA,NA,NA
"226","stim/objects/Instruments/vuvuzela.png",23,49,23,0.7,"stim/53.jpeg",5,3,2,NA,"Instruments",2,2,"right","right",0.746000051,1,1,0,1,NA,NA,NA,NA,NA,NA,NA,NA,NA,NA,NA,NA,NA,NA,NA,NA,NA,NA,NA,NA,NA,NA,NA,NA
"154","stim/objects/Instruments/timbal.png",24,49,24,0.5,"stim/41.jpeg",4,1,1,NA,"Instruments",2,1,"right","left",0.934999943,0,0,0,1,NA,NA,NA,NA,NA,NA,NA,NA,NA,NA,NA,NA,NA,NA,NA,NA,NA,NA,NA,NA,NA,NA,NA,NA
"76","stim/objects/HouseObjects/thread2.png",25,49,25,0.9,"stim/21.jpeg",2,1,3,NA,"HouseObjects",1,2,"left","left",0.934000015,1,1,0,1,NA,NA,NA,NA,NA,NA,NA,NA,NA,NA,NA,NA,NA,NA,NA,NA,NA,NA,NA,NA,NA,NA,NA,NA
"173","stim/objects/Instruments/triangle2.png",26,49,26,0.9,"stim/12.jpeg",1,2,3,NA,"Instruments",2,1,"right","",NA,0,0,0,1,NA,NA,NA,NA,NA,NA,NA,NA,NA,NA,NA,NA,NA,NA,NA,NA,NA,NA,NA,NA,NA,NA,NA,NA
"158","stim/objects/Instruments/timbal2.png",27,49,27,0.9,"stim/11.jpeg",1,1,3,NA,"Instruments",2,1,"right","right",0.933000088,1,1,0,1,NA,NA,NA,NA,NA,NA,NA,NA,NA,NA,NA,NA,NA,NA,NA,NA,NA,NA,NA,NA,NA,NA,NA,NA
"217","stim/objects/Instruments/violin.png",28,49,28,0.7,"stim/52.jpeg",5,2,2,NA,"Instruments",2,4,"right","",NA,0,0,0,1,NA,NA,NA,NA,NA,NA,NA,NA,NA,NA,NA,NA,NA,NA,NA,NA,NA,NA,NA,NA,NA,NA,NA,NA
"19","stim/objects/HouseObjects/safetypin2.png",29,49,29,0.7,"stim/62.jpeg",6,2,2,NA,"HouseObjects",1,3,"left","left",0.744999886,1,1,0,1,NA,NA,NA,NA,NA,NA,NA,NA,NA,NA,NA,NA,NA,NA,NA,NA,NA,NA,NA,NA,NA,NA,NA,NA
"20","stim/objects/HouseObjects/safetypin2.png",30,49,30,0.7,"stim/62.jpeg",6,2,2,NA,"HouseObjects",1,1,"left","left",0.758000135,1,1,0,1,NA,NA,NA,NA,NA,NA,NA,NA,NA,NA,NA,NA,NA,NA,NA,NA,NA,NA,NA,NA,NA,NA,NA,NA
"174","stim/objects/Instruments/triangle2.png",31,49,31,0.9,"stim/12.jpeg",1,2,3,NA,"Instruments",2,1,"right","right",0.838000059,1,1,0,1,NA,NA,NA,NA,NA,NA,NA,NA,NA,NA,NA,NA,NA,NA,NA,NA,NA,NA,NA,NA,NA,NA,NA,NA
"110","stim/objects/HouseObjects/wateringcan.png",32,49,32,0.3,"stim/54.jpeg",5,4,2,NA,"HouseObjects",1,3,"left","right",0.835000038,0,0,0,1,NA,NA,NA,NA,NA,NA,NA,NA,NA,NA,NA,NA,NA,NA,NA,NA,NA,NA,NA,NA,NA,NA,NA,NA
"97","stim/objects/HouseObjects/vacuumcleaner.png",33,49,33,0.3,"stim/53.jpeg",5,3,2,NA,"HouseObjects",1,3,"left","right",0.736999989,0,0,0,1,NA,NA,NA,NA,NA,NA,NA,NA,NA,NA,NA,NA,NA,NA,NA,NA,NA,NA,NA,NA,NA,NA,NA,NA
"145","stim/objects/Instruments/tambourine.png",34,49,34,0.5,"stim/34.jpeg",3,4,1,NA,"Instruments",2,2,"right","",NA,0,0,0,1,NA,NA,NA,NA,NA,NA,NA,NA,NA,NA,NA,NA,NA,NA,NA,NA,NA,NA,NA,NA,NA,NA,NA,NA
"151","stim/objects/Instruments/tambourine2.png",35,49,35,0.3,"stim/64.jpeg",6,4,2,NA,"Instruments",2,4,"right","left",0.825999975,0,0,0,1,NA,NA,NA,NA,NA,NA,NA,NA,NA,NA,NA,NA,NA,NA,NA,NA,NA,NA,NA,NA,NA,NA,NA,NA
"89","stim/objects/HouseObjects/towel2.png",36,49,36,0.9,"stim/22.jpeg",2,2,3,NA,"HouseObjects",1,1,"left","left",0.830999851,1,1,0,1,NA,NA,NA,NA,NA,NA,NA,NA,NA,NA,NA,NA,NA,NA,NA,NA,NA,NA,NA,NA,NA,NA,NA,NA
"111","stim/objects/HouseObjects/wateringcan.png",37,49,37,0.3,"stim/54.jpeg",5,4,2,NA,"HouseObjects",1,2,"left","right",0.846000195,0,0,0,1,NA,NA,NA,NA,NA,NA,NA,NA,NA,NA,NA,NA,NA,NA,NA,NA,NA,NA,NA,NA,NA,NA,NA,NA
"187","stim/objects/Instruments/trombone2.png",38,49,38,0.9,"stim/13.jpeg",1,3,3,NA,"Instruments",2,3,"right","",NA,0,0,0,1,NA,NA,NA,NA,NA,NA,NA,NA,NA,NA,NA,NA,NA,NA,NA,NA,NA,NA,NA,NA,NA,NA,NA,NA
"175","stim/objects/Instruments/triangle2.png",39,49,39,0.9,"stim/12.jpeg",1,2,3,NA,"Instruments",2,1,"right","right",0.835999966,1,1,0,1,NA,NA,NA,NA,NA,NA,NA,NA,NA,NA,NA,NA,NA,NA,NA,NA,NA,NA,NA,NA,NA,NA,NA,NA
"67","stim/objects/HouseObjects/thermometer.png",40,49,40,0.5,"stim/44.jpeg",4,4,1,NA,"HouseObjects",1,1,"left","left",0.832000017,1,1,0,1,NA,NA,NA,NA,NA,NA,NA,NA,NA,NA,NA,NA,NA,NA,NA,NA,NA,NA,NA,NA,NA,NA,NA,NA
"85","stim/objects/HouseObjects/towel.png",41,49,41,0.3,"stim/52.jpeg",5,2,2,NA,"HouseObjects",1,2,"left","right",0.928000212,0,0,0,1,NA,NA,NA,NA,NA,NA,NA,NA,NA,NA,NA,NA,NA,NA,NA,NA,NA,NA,NA,NA,NA,NA,NA,NA
"43","stim/objects/HouseObjects/scale2.png",42,49,42,0.7,"stim/64.jpeg",6,4,2,NA,"HouseObjects",1,4,"left","left",0.753999949,1,1,0,1,NA,NA,NA,NA,NA,NA,NA,NA,NA,NA,NA,NA,NA,NA,NA,NA,NA,NA,NA,NA,NA,NA,NA,NA
"1","stim/objects/HouseObjects/rug.png",43,49,43,0.5,"stim/31.jpeg",3,1,1,NA,"HouseObjects",1,2,"left","right",0.856000185,0,0,0,1,NA,NA,NA,NA,NA,NA,NA,NA,NA,NA,NA,NA,NA,NA,NA,NA,NA,NA,NA,NA,NA,NA,NA,NA
"227","stim/objects/Instruments/vuvuzela.png",44,49,44,0.7,"stim/53.jpeg",5,3,2,NA,"Instruments",2,1,"right","left",0.924000025,0,0,0,1,NA,NA,NA,NA,NA,NA,NA,NA,NA,NA,NA,NA,NA,NA,NA,NA,NA,NA,NA,NA,NA,NA,NA,NA
"6","stim/objects/HouseObjects/rug2.png",45,49,45,0.7,"stim/61.jpeg",6,1,2,NA,"HouseObjects",1,3,"left","left",0.765000105,1,1,0,1,NA,NA,NA,NA,NA,NA,NA,NA,NA,NA,NA,NA,NA,NA,NA,NA,NA,NA,NA,NA,NA,NA,NA,NA
"60","stim/objects/HouseObjects/spraybottle2.png",46,49,46,0.1,"stim/12.jpeg",1,2,3,NA,"HouseObjects",1,3,"left","left",0.835999966,1,1,0,1,NA,NA,NA,NA,NA,NA,NA,NA,NA,NA,NA,NA,NA,NA,NA,NA,NA,NA,NA,NA,NA,NA,NA,NA
"196","stim/objects/Instruments/trumpet.png",47,49,47,0.5,"stim/44.jpeg",4,4,1,NA,"Instruments",2,2,"right","right",0.761999846,1,1,0,1,NA,NA,NA,NA,NA,NA,NA,NA,NA,NA,NA,NA,NA,NA,NA,NA,NA,NA,NA,NA,NA,NA,NA,NA
"159","stim/objects/Instruments/timbal2.png",48,49,48,0.9,"stim/11.jpeg",1,1,3,NA,"Instruments",2,1,"right","right",0.752000093,1,1,0,1,NA,NA,NA,NA,NA,NA,NA,NA,NA,NA,NA,NA,NA,NA,NA,NA,NA,NA,NA,NA,NA,NA,NA,NA
"73","stim/objects/HouseObjects/thread.png",49,49,49,0.3,"stim/51.jpeg",5,1,2,NA,"HouseObjects",1,1,"left","",NA,0,0,0,1,NA,NA,NA,NA,NA,NA,NA,NA,NA,NA,NA,NA,NA,NA,NA,NA,NA,NA,NA,NA,NA,NA,NA,NA
"197","stim/objects/Instruments/trumpet.png",50,49,50,0.5,"stim/44.jpeg",4,4,1,NA,"Instruments",2,1,"right","left",0.74000001,0,0,0,1,NA,NA,NA,NA,NA,NA,NA,NA,NA,NA,NA,NA,NA,NA,NA,NA,NA,NA,NA,NA,NA,NA,NA,NA
"201","stim/objects/Instruments/trumpet2.png",51,49,51,0.9,"stim/14.jpeg",1,4,3,NA,"Instruments",2,3,"right","",NA,0,0,0,1,NA,NA,NA,NA,NA,NA,NA,NA,NA,NA,NA,NA,NA,NA,NA,NA,NA,NA,NA,NA,NA,NA,NA,NA
"228","stim/objects/Instruments/vuvuzela.png",52,49,52,0.7,"stim/53.jpeg",5,3,2,NA,"Instruments",2,1,"right","right",0.84800005,1,1,0,1,NA,NA,NA,NA,NA,NA,NA,NA,NA,NA,NA,NA,NA,NA,NA,NA,NA,NA,NA,NA,NA,NA,NA,NA
"218","stim/objects/Instruments/violin.png",53,49,53,0.7,"stim/52.jpeg",5,2,2,NA,"Instruments",2,4,"right","left",0.747999907,0,0,0,1,NA,NA,NA,NA,NA,NA,NA,NA,NA,NA,NA,NA,NA,NA,NA,NA,NA,NA,NA,NA,NA,NA,NA,NA
"233","stim/objects/Instruments/xylophone.png",54,49,54,0.7,"stim/54.jpeg",5,4,2,NA,"Instruments",2,1,"right","left",0.736999989,0,0,0,1,NA,NA,NA,NA,NA,NA,NA,NA,NA,NA,NA,NA,NA,NA,NA,NA,NA,NA,NA,NA,NA,NA,NA,NA
"26","stim/objects/HouseObjects/saw.png",55,49,55,0.5,"stim/33.jpeg",3,3,1,NA,"HouseObjects",1,3,"left","",NA,0,0,0,1,NA,NA,NA,NA,NA,NA,NA,NA,NA,NA,NA,NA,NA,NA,NA,NA,NA,NA,NA,NA,NA,NA,NA,NA
"202","stim/objects/Instruments/trumpet2.png",56,49,56,0.9,"stim/14.jpeg",1,4,3,NA,"Instruments",2,2,"right","left",0.847000122,0,0,0,1,NA,NA,NA,NA,NA,NA,NA,NA,NA,NA,NA,NA,NA,NA,NA,NA,NA,NA,NA,NA,NA,NA,NA,NA
"77","stim/objects/HouseObjects/thread2.png",57,49,57,0.9,"stim/21.jpeg",2,1,3,NA,"HouseObjects",1,2,"left","left",0.75,1,1,0,1,NA,NA,NA,NA,NA,NA,NA,NA,NA,NA,NA,NA,NA,NA,NA,NA,NA,NA,NA,NA,NA,NA,NA,NA
"137","stim/objects/Instruments/speaker.png",58,49,58,0.5,"stim/33.jpeg",3,3,1,NA,"Instruments",2,3,"right","right",0.937000036,1,1,0,1,NA,NA,NA,NA,NA,NA,NA,NA,NA,NA,NA,NA,NA,NA,NA,NA,NA,NA,NA,NA,NA,NA,NA,NA
"56","stim/objects/HouseObjects/spraybottle.png",59,49,59,0.5,"stim/42.jpeg",4,2,1,NA,"HouseObjects",1,4,"left","right",0.832999945,0,0,0,1,NA,NA,NA,NA,NA,NA,NA,NA,NA,NA,NA,NA,NA,NA,NA,NA,NA,NA,NA,NA,NA,NA,NA,NA
"209","stim/objects/Instruments/tuba.png",60,49,60,0.7,"stim/51.jpeg",5,1,2,NA,"Instruments",2,1,"right","",NA,0,0,0,1,NA,NA,NA,NA,NA,NA,NA,NA,NA,NA,NA,NA,NA,NA,NA,NA,NA,NA,NA,NA,NA,NA,NA,NA
"160","stim/objects/Instruments/timbal2.png",61,49,61,0.9,"stim/11.jpeg",1,1,3,NA,"Instruments",2,1,"right","right",0.749000072,1,1,0,1,NA,NA,NA,NA,NA,NA,NA,NA,NA,NA,NA,NA,NA,NA,NA,NA,NA,NA,NA,NA,NA,NA,NA,NA
"188","stim/objects/Instruments/trombone2.png",62,49,62,0.9,"stim/13.jpeg",1,3,3,NA,"Instruments",2,4,"right","right",0.837000132,1,1,0,1,NA,NA,NA,NA,NA,NA,NA,NA,NA,NA,NA,NA,NA,NA,NA,NA,NA,NA,NA,NA,NA,NA,NA,NA
"146","stim/objects/Instruments/tambourine.png",63,49,63,0.5,"stim/34.jpeg",3,4,1,NA,"Instruments",2,4,"right","right",0.744000196,1,1,0,1,NA,NA,NA,NA,NA,NA,NA,NA,NA,NA,NA,NA,NA,NA,NA,NA,NA,NA,NA,NA,NA,NA,NA,NA
"2","stim/objects/HouseObjects/rug.png",64,49,64,0.5,"stim/31.jpeg",3,1,1,NA,"HouseObjects",1,3,"left","right",0.742000103,0,0,0,1,NA,NA,NA,NA,NA,NA,NA,NA,NA,NA,NA,NA,NA,NA,NA,NA,NA,NA,NA,NA,NA,NA,NA,NA
"232","stim/objects/Instruments/vuvuzela2.png",65,49,65,0.1,"stim/23.jpeg",2,3,3,NA,"Instruments",2,2,"right","left",0.757999897,0,0,0,1,NA,NA,NA,NA,NA,NA,NA,NA,NA,NA,NA,NA,NA,NA,NA,NA,NA,NA,NA,NA,NA,NA,NA,NA
"101","stim/objects/HouseObjects/vacuumcleaner2.png",66,49,66,0.9,"stim/23.jpeg",2,3,3,NA,"HouseObjects",1,3,"left","left",0.654000044,1,1,0,1,NA,NA,NA,NA,NA,NA,NA,NA,NA,NA,NA,NA,NA,NA,NA,NA,NA,NA,NA,NA,NA,NA,NA,NA
"30","stim/objects/HouseObjects/saw2.png",67,49,67,0.7,"stim/63.jpeg",6,3,2,NA,"HouseObjects",1,2,"left","left",0.756999969,1,1,0,1,NA,NA,NA,NA,NA,NA,NA,NA,NA,NA,NA,NA,NA,NA,NA,NA,NA,NA,NA,NA,NA,NA,NA,NA
"142","stim/objects/Instruments/speaker2.png",68,49,68,0.3,"stim/63.jpeg",6,3,2,NA,"Instruments",2,1,"right","left",0.742000103,0,0,0,1,NA,NA,NA,NA,NA,NA,NA,NA,NA,NA,NA,NA,NA,NA,NA,NA,NA,NA,NA,NA,NA,NA,NA,NA
"31","stim/objects/HouseObjects/saw2.png",69,49,69,0.7,"stim/63.jpeg",6,3,2,NA,"HouseObjects",1,4,"left","left",0.653000116,1,1,0,1,NA,NA,NA,NA,NA,NA,NA,NA,NA,NA,NA,NA,NA,NA,NA,NA,NA,NA,NA,NA,NA,NA,NA,NA
"49","stim/objects/HouseObjects/sponge.png",70,49,70,0.5,"stim/41.jpeg",4,1,1,NA,"HouseObjects",1,4,"left","right",0.829999924,0,0,0,1,NA,NA,NA,NA,NA,NA,NA,NA,NA,NA,NA,NA,NA,NA,NA,NA,NA,NA,NA,NA,NA,NA,NA,NA
"57","stim/objects/HouseObjects/spraybottle.png",71,49,71,0.5,"stim/42.jpeg",4,2,1,NA,"HouseObjects",1,4,"left","left",0.746999979,1,1,0,1,NA,NA,NA,NA,NA,NA,NA,NA,NA,NA,NA,NA,NA,NA,NA,NA,NA,NA,NA,NA,NA,NA,NA,NA
"3","stim/objects/HouseObjects/rug.png",72,49,72,0.5,"stim/31.jpeg",3,1,1,NA,"HouseObjects",1,1,"left","right",0.842000008,0,0,0,1,NA,NA,NA,NA,NA,NA,NA,NA,NA,NA,NA,NA,NA,NA,NA,NA,NA,NA,NA,NA,NA,NA,NA,NA
"98","stim/objects/HouseObjects/vacuumcleaner.png",73,49,73,0.3,"stim/53.jpeg",5,3,2,NA,"HouseObjects",1,4,"left","left",0.740999937,1,1,0,1,NA,NA,NA,NA,NA,NA,NA,NA,NA,NA,NA,NA,NA,NA,NA,NA,NA,NA,NA,NA,NA,NA,NA,NA
"147","stim/objects/Instruments/tambourine.png",74,49,74,0.5,"stim/34.jpeg",3,4,1,NA,"Instruments",2,1,"right","right",0.828999996,1,1,0,1,NA,NA,NA,NA,NA,NA,NA,NA,NA,NA,NA,NA,NA,NA,NA,NA,NA,NA,NA,NA,NA,NA,NA,NA
"168","stim/objects/Instruments/triangle.png",75,49,75,0.5,"stim/42.jpeg",4,2,1,NA,"Instruments",2,1,"right","left",0.928999901,0,0,0,1,NA,NA,NA,NA,NA,NA,NA,NA,NA,NA,NA,NA,NA,NA,NA,NA,NA,NA,NA,NA,NA,NA,NA,NA
"90","stim/objects/HouseObjects/towel2.png",76,49,76,0.9,"stim/22.jpeg",2,2,3,NA,"HouseObjects",1,3,"left","left",0.74000001,1,1,0,1,NA,NA,NA,NA,NA,NA,NA,NA,NA,NA,NA,NA,NA,NA,NA,NA,NA,NA,NA,NA,NA,NA,NA,NA
"113","stim/objects/HouseObjects/wateringcan2.png",77,49,77,0.9,"stim/24.jpeg",2,4,3,NA,"HouseObjects",1,2,"left","left",0.555000067,1,1,0,1,NA,NA,NA,NA,NA,NA,NA,NA,NA,NA,NA,NA,NA,NA,NA,NA,NA,NA,NA,NA,NA,NA,NA,NA
"203","stim/objects/Instruments/trumpet2.png",78,49,78,0.9,"stim/14.jpeg",1,4,3,NA,"Instruments",2,2,"right","left",0.854000092,0,0,0,1,NA,NA,NA,NA,NA,NA,NA,NA,NA,NA,NA,NA,NA,NA,NA,NA,NA,NA,NA,NA,NA,NA,NA,NA
"126","stim/objects/Instruments/record_player2.png",79,49,79,0.3,"stim/61.jpeg",6,1,2,NA,"Instruments",2,3,"right","left",0.756000042,0,0,0,1,NA,NA,NA,NA,NA,NA,NA,NA,NA,NA,NA,NA,NA,NA,NA,NA,NA,NA,NA,NA,NA,NA,NA,NA
"234","stim/objects/Instruments/xylophone.png",80,49,80,0.7,"stim/54.jpeg",5,4,2,NA,"Instruments",2,3,"right","left",0.930999994,0,0,0,1,NA,NA,NA,NA,NA,NA,NA,NA,NA,NA,NA,NA,NA,NA,NA,NA,NA,NA,NA,NA,NA,NA,NA,NA
"210","stim/objects/Instruments/tuba.png",81,49,81,0.7,"stim/51.jpeg",5,1,2,NA,"Instruments",2,1,"right","left",0.751000166,0,0,0,1,NA,NA,NA,NA,NA,NA,NA,NA,NA,NA,NA,NA,NA,NA,NA,NA,NA,NA,NA,NA,NA,NA,NA,NA
"161","stim/objects/Instruments/timbal2.png",82,49,82,0.9,"stim/11.jpeg",1,1,3,NA,"Instruments",2,2,"right","left",0.743000031,0,0,0,1,NA,NA,NA,NA,NA,NA,NA,NA,NA,NA,NA,NA,NA,NA,NA,NA,NA,NA,NA,NA,NA,NA,NA,NA
"32","stim/objects/HouseObjects/saw2.png",83,49,83,0.7,"stim/63.jpeg",6,3,2,NA,"HouseObjects",1,4,"left","left",0.753000021,1,1,0,1,NA,NA,NA,NA,NA,NA,NA,NA,NA,NA,NA,NA,NA,NA,NA,NA,NA,NA,NA,NA,NA,NA,NA,NA
"235","stim/objects/Instruments/xylophone.png",84,49,84,0.7,"stim/54.jpeg",5,4,2,NA,"Instruments",2,1,"right","left",0.929000139,0,0,0,1,NA,NA,NA,NA,NA,NA,NA,NA,NA,NA,NA,NA,NA,NA,NA,NA,NA,NA,NA,NA,NA,NA,NA,NA
"91","stim/objects/HouseObjects/towel2.png",85,49,85,0.9,"stim/22.jpeg",2,2,3,NA,"HouseObjects",1,2,"left","left",0.747000217,1,1,0,1,NA,NA,NA,NA,NA,NA,NA,NA,NA,NA,NA,NA,NA,NA,NA,NA,NA,NA,NA,NA,NA,NA,NA,NA
"155","stim/objects/Instruments/timbal.png",86,49,86,0.5,"stim/41.jpeg",4,1,1,NA,"Instruments",2,2,"right","left",0.855999947,0,0,0,1,NA,NA,NA,NA,NA,NA,NA,NA,NA,NA,NA,NA,NA,NA,NA,NA,NA,NA,NA,NA,NA,NA,NA,NA
"130","stim/objects/Instruments/saxophone.png",87,49,87,0.5,"stim/32.jpeg",3,2,1,NA,"Instruments",2,3,"right","right",0.924999952,1,1,0,1,NA,NA,NA,NA,NA,NA,NA,NA,NA,NA,NA,NA,NA,NA,NA,NA,NA,NA,NA,NA,NA,NA,NA,NA
"38","stim/objects/HouseObjects/scale.png",88,49,88,0.5,"stim/34.jpeg",3,4,1,NA,"HouseObjects",1,2,"left","right",0.649000168,0,0,0,1,NA,NA,NA,NA,NA,NA,NA,NA,NA,NA,NA,NA,NA,NA,NA,NA,NA,NA,NA,NA,NA,NA,NA,NA
"44","stim/objects/HouseObjects/scale2.png",89,49,89,0.7,"stim/64.jpeg",6,4,2,NA,"HouseObjects",1,3,"left","left",0.736999989,1,1,0,1,NA,NA,NA,NA,NA,NA,NA,NA,NA,NA,NA,NA,NA,NA,NA,NA,NA,NA,NA,NA,NA,NA,NA,NA
"219","stim/objects/Instruments/violin.png",90,49,90,0.7,"stim/52.jpeg",5,2,2,NA,"Instruments",2,2,"right","right",0.921000004,1,1,0,1,NA,NA,NA,NA,NA,NA,NA,NA,NA,NA,NA,NA,NA,NA,NA,NA,NA,NA,NA,NA,NA,NA,NA,NA
"50","stim/objects/HouseObjects/sponge.png",91,49,91,0.5,"stim/41.jpeg",4,1,1,NA,"HouseObjects",1,4,"left","right",0.838000059,0,0,0,1,NA,NA,NA,NA,NA,NA,NA,NA,NA,NA,NA,NA,NA,NA,NA,NA,NA,NA,NA,NA,NA,NA,NA,NA
"138","stim/objects/Instruments/speaker.png",92,49,92,0.5,"stim/33.jpeg",3,3,1,NA,"Instruments",2,1,"right","right",0.65899992,1,1,0,1,NA,NA,NA,NA,NA,NA,NA,NA,NA,NA,NA,NA,NA,NA,NA,NA,NA,NA,NA,NA,NA,NA,NA,NA
"240","stim/objects/Instruments/xylophone2.png",93,49,93,0.1,"stim/24.jpeg",2,4,3,NA,"Instruments",2,3,"right","left",0.670000076,0,0,0,1,NA,NA,NA,NA,NA,NA,NA,NA,NA,NA,NA,NA,NA,NA,NA,NA,NA,NA,NA,NA,NA,NA,NA,NA
"114","stim/objects/HouseObjects/wateringcan2.png",94,49,94,0.9,"stim/24.jpeg",2,4,3,NA,"HouseObjects",1,4,"left","left",0.742000103,1,1,0,1,NA,NA,NA,NA,NA,NA,NA,NA,NA,NA,NA,NA,NA,NA,NA,NA,NA,NA,NA,NA,NA,NA,NA,NA
"99","stim/objects/HouseObjects/vacuumcleaner.png",95,49,95,0.3,"stim/53.jpeg",5,3,2,NA,"HouseObjects",1,3,"left","right",0.757999897,0,0,0,1,NA,NA,NA,NA,NA,NA,NA,NA,NA,NA,NA,NA,NA,NA,NA,NA,NA,NA,NA,NA,NA,NA,NA,NA
"162","stim/objects/Instruments/timbal2.png",96,49,96,0.9,"stim/11.jpeg",1,1,3,NA,"Instruments",2,4,"right","left",0.931999922,0,0,0,1,NA,NA,NA,NA,NA,NA,NA,NA,NA,NA,NA,NA,NA,NA,NA,NA,NA,NA,NA,NA,NA,NA,NA,NA
"182","stim/objects/Instruments/trombone.png",97,49,97,0.5,"stim/43.jpeg",4,3,1,NA,"Instruments",2,3,"right","left",0.736000061,0,0,0,1,NA,NA,NA,NA,NA,NA,NA,NA,NA,NA,NA,NA,NA,NA,NA,NA,NA,NA,NA,NA,NA,NA,NA,NA
"78","stim/objects/HouseObjects/thread2.png",98,49,98,0.9,"stim/21.jpeg",2,1,3,NA,"HouseObjects",1,1,"left","left",0.744000196,1,1,0,1,NA,NA,NA,NA,NA,NA,NA,NA,NA,NA,NA,NA,NA,NA,NA,NA,NA,NA,NA,NA,NA,NA,NA,NA
"176","stim/objects/Instruments/triangle2.png",99,49,99,0.9,"stim/12.jpeg",1,2,3,NA,"Instruments",2,2,"right","left",0.924999952,0,0,0,1,NA,NA,NA,NA,NA,NA,NA,NA,NA,NA,NA,NA,NA,NA,NA,NA,NA,NA,NA,NA,NA,NA,NA,NA
"39","stim/objects/HouseObjects/scale.png",100,49,100,0.5,"stim/34.jpeg",3,4,1,NA,"HouseObjects",1,2,"left","right",0.74000001,0,0,0,1,NA,NA,NA,NA,NA,NA,NA,NA,NA,NA,NA,NA,NA,NA,NA,NA,NA,NA,NA,NA,NA,NA,NA,NA
"14","stim/objects/HouseObjects/safetypin.png",101,49,101,0.5,"stim/32.jpeg",3,2,1,NA,"HouseObjects",1,3,"left","right",0.741000175,0,0,0,1,NA,NA,NA,NA,NA,NA,NA,NA,NA,NA,NA,NA,NA,NA,NA,NA,NA,NA,NA,NA,NA,NA,NA,NA
"15","stim/objects/HouseObjects/safetypin.png",102,49,102,0.5,"stim/32.jpeg",3,2,1,NA,"HouseObjects",1,3,"left","right",0.657999992,0,0,0,1,NA,NA,NA,NA,NA,NA,NA,NA,NA,NA,NA,NA,NA,NA,NA,NA,NA,NA,NA,NA,NA,NA,NA,NA
"21","stim/objects/HouseObjects/safetypin2.png",103,49,103,0.7,"stim/62.jpeg",6,2,2,NA,"HouseObjects",1,1,"left","left",0.734000206,1,1,0,1,NA,NA,NA,NA,NA,NA,NA,NA,NA,NA,NA,NA,NA,NA,NA,NA,NA,NA,NA,NA,NA,NA,NA,NA
"183","stim/objects/Instruments/trombone.png",104,49,104,0.5,"stim/43.jpeg",4,3,1,NA,"Instruments",2,4,"right","left",0.832999945,0,0,0,1,NA,NA,NA,NA,NA,NA,NA,NA,NA,NA,NA,NA,NA,NA,NA,NA,NA,NA,NA,NA,NA,NA,NA,NA
"127","stim/objects/Instruments/record_player2.png",105,49,105,0.3,"stim/61.jpeg",6,1,2,NA,"Instruments",2,1,"right","left",0.924999952,0,0,0,1,NA,NA,NA,NA,NA,NA,NA,NA,NA,NA,NA,NA,NA,NA,NA,NA,NA,NA,NA,NA,NA,NA,NA,NA
"51","stim/objects/HouseObjects/sponge.png",106,49,106,0.5,"stim/41.jpeg",4,1,1,NA,"HouseObjects",1,3,"left","left",0.838999987,1,1,0,1,NA,NA,NA,NA,NA,NA,NA,NA,NA,NA,NA,NA,NA,NA,NA,NA,NA,NA,NA,NA,NA,NA,NA,NA
"45","stim/objects/HouseObjects/scale2.png",107,49,107,0.7,"stim/64.jpeg",6,4,2,NA,"HouseObjects",1,2,"left","right",0.657999992,0,0,0,1,NA,NA,NA,NA,NA,NA,NA,NA,NA,NA,NA,NA,NA,NA,NA,NA,NA,NA,NA,NA,NA,NA,NA,NA
"236","stim/objects/Instruments/xylophone.png",108,49,108,0.7,"stim/54.jpeg",5,4,2,NA,"Instruments",2,1,"right","right",0.835000038,1,1,0,1,NA,NA,NA,NA,NA,NA,NA,NA,NA,NA,NA,NA,NA,NA,NA,NA,NA,NA,NA,NA,NA,NA,NA,NA
"7","stim/objects/HouseObjects/rug2.png",109,49,109,0.7,"stim/61.jpeg",6,1,2,NA,"HouseObjects",1,3,"left","left",0.75,1,1,0,1,NA,NA,NA,NA,NA,NA,NA,NA,NA,NA,NA,NA,NA,NA,NA,NA,NA,NA,NA,NA,NA,NA,NA,NA
"79","stim/objects/HouseObjects/thread2.png",110,49,110,0.9,"stim/21.jpeg",2,1,3,NA,"HouseObjects",1,2,"left","left",0.748000145,1,1,0,1,NA,NA,NA,NA,NA,NA,NA,NA,NA,NA,NA,NA,NA,NA,NA,NA,NA,NA,NA,NA,NA,NA,NA,NA
"237","stim/objects/Instruments/xylophone.png",111,49,111,0.7,"stim/54.jpeg",5,4,2,NA,"Instruments",2,2,"right","left",0.738999844,0,0,0,1,NA,NA,NA,NA,NA,NA,NA,NA,NA,NA,NA,NA,NA,NA,NA,NA,NA,NA,NA,NA,NA,NA,NA,NA
"68","stim/objects/HouseObjects/thermometer.png",112,49,112,0.5,"stim/44.jpeg",4,4,1,NA,"HouseObjects",1,2,"left","left",0.73300004,1,1,0,1,NA,NA,NA,NA,NA,NA,NA,NA,NA,NA,NA,NA,NA,NA,NA,NA,NA,NA,NA,NA,NA,NA,NA,NA
"163","stim/objects/Instruments/timbal2.png",113,49,113,0.9,"stim/11.jpeg",1,1,3,NA,"Instruments",2,1,"right","right",0.651000023,1,1,0,1,NA,NA,NA,NA,NA,NA,NA,NA,NA,NA,NA,NA,NA,NA,NA,NA,NA,NA,NA,NA,NA,NA,NA,NA
"80","stim/objects/HouseObjects/thread2.png",114,49,114,0.9,"stim/21.jpeg",2,1,3,NA,"HouseObjects",1,4,"left","left",0.743999958,1,1,0,1,NA,NA,NA,NA,NA,NA,NA,NA,NA,NA,NA,NA,NA,NA,NA,NA,NA,NA,NA,NA,NA,NA,NA,NA
"164","stim/objects/Instruments/timbal2.png",115,49,115,0.9,"stim/11.jpeg",1,1,3,NA,"Instruments",2,1,"right","right",0.751000166,1,1,0,1,NA,NA,NA,NA,NA,NA,NA,NA,NA,NA,NA,NA,NA,NA,NA,NA,NA,NA,NA,NA,NA,NA,NA,NA
"216","stim/objects/Instruments/tuba2.png",116,49,116,0.1,"stim/21.jpeg",2,1,3,NA,"Instruments",2,1,"right","left",0.746000051,0,0,0,1,NA,NA,NA,NA,NA,NA,NA,NA,NA,NA,NA,NA,NA,NA,NA,NA,NA,NA,NA,NA,NA,NA,NA,NA
"121","stim/objects/Instruments/record_player.png",117,49,117,0.5,"stim/31.jpeg",3,1,1,NA,"Instruments",2,2,"right","right",0.736999989,1,1,0,1,NA,NA,NA,NA,NA,NA,NA,NA,NA,NA,NA,NA,NA,NA,NA,NA,NA,NA,NA,NA,NA,NA,NA,NA
"86","stim/objects/HouseObjects/towel.png",118,49,118,0.3,"stim/52.jpeg",5,2,2,NA,"HouseObjects",1,1,"left","left",0.828000069,1,1,0,1,NA,NA,NA,NA,NA,NA,NA,NA,NA,NA,NA,NA,NA,NA,NA,NA,NA,NA,NA,NA,NA,NA,NA,NA
"220","stim/objects/Instruments/violin.png",119,49,119,0.7,"stim/52.jpeg",5,2,2,NA,"Instruments",2,2,"right","left",0.828999996,0,0,0,1,NA,NA,NA,NA,NA,NA,NA,NA,NA,NA,NA,NA,NA,NA,NA,NA,NA,NA,NA,NA,NA,NA,NA,NA
"102","stim/objects/HouseObjects/vacuumcleaner2.png",120,49,120,0.9,"stim/23.jpeg",2,3,3,NA,"HouseObjects",1,4,"left","left",0.735000134,1,1,0,1,NA,NA,NA,NA,NA,NA,NA,NA,NA,NA,NA,NA,NA,NA,NA,NA,NA,NA,NA,NA,NA,NA,NA,NA
"27","stim/objects/HouseObjects/saw.png",121,49,121,0.5,"stim/33.jpeg",3,3,1,NA,"HouseObjects",1,3,"left","left",0.850999832,1,1,0,1,NA,NA,NA,NA,NA,NA,NA,NA,NA,NA,NA,NA,NA,NA,NA,NA,NA,NA,NA,NA,NA,NA,NA,NA
"198","stim/objects/Instruments/trumpet.png",122,49,122,0.5,"stim/44.jpeg",4,4,1,NA,"Instruments",2,3,"right","right",0.926000118,1,1,0,1,NA,NA,NA,NA,NA,NA,NA,NA,NA,NA,NA,NA,NA,NA,NA,NA,NA,NA,NA,NA,NA,NA,NA,NA
"122","stim/objects/Instruments/record_player.png",123,49,123,0.5,"stim/31.jpeg",3,1,1,NA,"Instruments",2,1,"right","left",0.828000069,0,0,0,1,NA,NA,NA,NA,NA,NA,NA,NA,NA,NA,NA,NA,NA,NA,NA,NA,NA,NA,NA,NA,NA,NA,NA,NA
"28","stim/objects/HouseObjects/saw.png",124,49,124,0.5,"stim/33.jpeg",3,3,1,NA,"HouseObjects",1,1,"left","right",0.740999937,0,0,0,1,NA,NA,NA,NA,NA,NA,NA,NA,NA,NA,NA,NA,NA,NA,NA,NA,NA,NA,NA,NA,NA,NA,NA,NA
"143","stim/objects/Instruments/speaker2.png",125,49,125,0.3,"stim/63.jpeg",6,3,2,NA,"Instruments",2,4,"right","left",0.741999865,0,0,0,1,NA,NA,NA,NA,NA,NA,NA,NA,NA,NA,NA,NA,NA,NA,NA,NA,NA,NA,NA,NA,NA,NA,NA,NA
"211","stim/objects/Instruments/tuba.png",126,49,126,0.7,"stim/51.jpeg",5,1,2,NA,"Instruments",2,2,"right","right",0.923000097,1,1,0,1,NA,NA,NA,NA,NA,NA,NA,NA,NA,NA,NA,NA,NA,NA,NA,NA,NA,NA,NA,NA,NA,NA,NA,NA
"123","stim/objects/Instruments/record_player.png",127,49,127,0.5,"stim/31.jpeg",3,1,1,NA,"Instruments",2,1,"right","right",0.664999962,1,1,0,1,NA,NA,NA,NA,NA,NA,NA,NA,NA,NA,NA,NA,NA,NA,NA,NA,NA,NA,NA,NA,NA,NA,NA,NA
"69","stim/objects/HouseObjects/thermometer.png",128,49,128,0.5,"stim/44.jpeg",4,4,1,NA,"HouseObjects",1,2,"left","left",0.840999842,1,1,0,1,NA,NA,NA,NA,NA,NA,NA,NA,NA,NA,NA,NA,NA,NA,NA,NA,NA,NA,NA,NA,NA,NA,NA,NA
"177","stim/objects/Instruments/triangle2.png",129,49,129,0.9,"stim/12.jpeg",1,2,3,NA,"Instruments",2,1,"right","left",0.832999945,0,0,0,1,NA,NA,NA,NA,NA,NA,NA,NA,NA,NA,NA,NA,NA,NA,NA,NA,NA,NA,NA,NA,NA,NA,NA,NA
"61","stim/objects/HouseObjects/teapot.png",130,49,130,0.5,"stim/43.jpeg",4,3,1,NA,"HouseObjects",1,4,"left","left",0.844000101,1,1,0,1,NA,NA,NA,NA,NA,NA,NA,NA,NA,NA,NA,NA,NA,NA,NA,NA,NA,NA,NA,NA,NA,NA,NA,NA
"81","stim/objects/HouseObjects/thread2.png",131,49,131,0.9,"stim/21.jpeg",2,1,3,NA,"HouseObjects",1,4,"left","left",0.833999872,1,1,0,1,NA,NA,NA,NA,NA,NA,NA,NA,NA,NA,NA,NA,NA,NA,NA,NA,NA,NA,NA,NA,NA,NA,NA,NA
"58","stim/objects/HouseObjects/spraybottle.png",132,49,132,0.5,"stim/42.jpeg",4,2,1,NA,"HouseObjects",1,2,"left","right",0.927999973,0,0,0,1,NA,NA,NA,NA,NA,NA,NA,NA,NA,NA,NA,NA,NA,NA,NA,NA,NA,NA,NA,NA,NA,NA,NA,NA
"189","stim/objects/Instruments/trombone2.png",133,49,133,0.9,"stim/13.jpeg",1,3,3,NA,"Instruments",2,4,"right","left",0.927999973,0,0,0,1,NA,NA,NA,NA,NA,NA,NA,NA,NA,NA,NA,NA,NA,NA,NA,NA,NA,NA,NA,NA,NA,NA,NA,NA
"82","stim/objects/HouseObjects/thread2.png",134,49,134,0.9,"stim/21.jpeg",2,1,3,NA,"HouseObjects",1,1,"left","left",0.751000166,1,1,0,1,NA,NA,NA,NA,NA,NA,NA,NA,NA,NA,NA,NA,NA,NA,NA,NA,NA,NA,NA,NA,NA,NA,NA,NA
"184","stim/objects/Instruments/trombone.png",135,49,135,0.5,"stim/43.jpeg",4,3,1,NA,"Instruments",2,4,"right","right",0.83100009,1,1,0,1,NA,NA,NA,NA,NA,NA,NA,NA,NA,NA,NA,NA,NA,NA,NA,NA,NA,NA,NA,NA,NA,NA,NA,NA
"22","stim/objects/HouseObjects/safetypin2.png",136,49,136,0.7,"stim/62.jpeg",6,2,2,NA,"HouseObjects",1,4,"left","left",0.742000103,1,1,0,1,NA,NA,NA,NA,NA,NA,NA,NA,NA,NA,NA,NA,NA,NA,NA,NA,NA,NA,NA,NA,NA,NA,NA,NA
"83","stim/objects/HouseObjects/thread2.png",137,49,137,0.9,"stim/21.jpeg",2,1,3,NA,"HouseObjects",1,4,"left","left",0.737999916,1,1,0,1,NA,NA,NA,NA,NA,NA,NA,NA,NA,NA,NA,NA,NA,NA,NA,NA,NA,NA,NA,NA,NA,NA,NA,NA
"128","stim/objects/Instruments/record_player2.png",138,49,138,0.3,"stim/61.jpeg",6,1,2,NA,"Instruments",2,1,"right","right",0.754999876,1,1,0,1,NA,NA,NA,NA,NA,NA,NA,NA,NA,NA,NA,NA,NA,NA,NA,NA,NA,NA,NA,NA,NA,NA,NA,NA
"148","stim/objects/Instruments/tambourine.png",139,49,139,0.5,"stim/34.jpeg",3,4,1,NA,"Instruments",2,1,"right","right",0.840999842,1,1,0,1,NA,NA,NA,NA,NA,NA,NA,NA,NA,NA,NA,NA,NA,NA,NA,NA,NA,NA,NA,NA,NA,NA,NA,NA
"178","stim/objects/Instruments/triangle2.png",140,49,140,0.9,"stim/12.jpeg",1,2,3,NA,"Instruments",2,4,"right","left",0.741999865,0,0,0,1,NA,NA,NA,NA,NA,NA,NA,NA,NA,NA,NA,NA,NA,NA,NA,NA,NA,NA,NA,NA,NA,NA,NA,NA
"221","stim/objects/Instruments/violin.png",141,49,141,0.7,"stim/52.jpeg",5,2,2,NA,"Instruments",2,2,"right","right",0.927000046,1,1,0,1,NA,NA,NA,NA,NA,NA,NA,NA,NA,NA,NA,NA,NA,NA,NA,NA,NA,NA,NA,NA,NA,NA,NA,NA
"115","stim/objects/HouseObjects/wateringcan2.png",142,49,142,0.9,"stim/24.jpeg",2,4,3,NA,"HouseObjects",1,4,"left","left",0.743000031,1,1,0,1,NA,NA,NA,NA,NA,NA,NA,NA,NA,NA,NA,NA,NA,NA,NA,NA,NA,NA,NA,NA,NA,NA,NA,NA
"103","stim/objects/HouseObjects/vacuumcleaner2.png",143,49,143,0.9,"stim/23.jpeg",2,3,3,NA,"HouseObjects",1,4,"left","left",0.756000042,1,1,0,1,NA,NA,NA,NA,NA,NA,NA,NA,NA,NA,NA,NA,NA,NA,NA,NA,NA,NA,NA,NA,NA,NA,NA,NA
"116","stim/objects/HouseObjects/wateringcan2.png",144,49,144,0.9,"stim/24.jpeg",2,4,3,NA,"HouseObjects",1,2,"left","left",0.657999992,1,1,0,1,NA,NA,NA,NA,NA,NA,NA,NA,NA,NA,NA,NA,NA,NA,NA,NA,NA,NA,NA,NA,NA,NA,NA,NA
"33","stim/objects/HouseObjects/saw2.png",145,49,145,0.7,"stim/63.jpeg",6,3,2,NA,"HouseObjects",1,3,"left","left",0.752999783,1,1,0,1,NA,NA,NA,NA,NA,NA,NA,NA,NA,NA,NA,NA,NA,NA,NA,NA,NA,NA,NA,NA,NA,NA,NA,NA
"204","stim/objects/Instruments/trumpet2.png",146,49,146,0.9,"stim/14.jpeg",1,4,3,NA,"Instruments",2,4,"right","right",0.739000082,1,1,0,1,NA,NA,NA,NA,NA,NA,NA,NA,NA,NA,NA,NA,NA,NA,NA,NA,NA,NA,NA,NA,NA,NA,NA,NA
"131","stim/objects/Instruments/saxophone.png",147,49,147,0.5,"stim/32.jpeg",3,2,1,NA,"Instruments",2,4,"right","right",0.838000059,1,1,0,1,NA,NA,NA,NA,NA,NA,NA,NA,NA,NA,NA,NA,NA,NA,NA,NA,NA,NA,NA,NA,NA,NA,NA,NA
"238","stim/objects/Instruments/xylophone.png",148,49,148,0.7,"stim/54.jpeg",5,4,2,NA,"Instruments",2,4,"right","left",0.842000008,0,0,0,1,NA,NA,NA,NA,NA,NA,NA,NA,NA,NA,NA,NA,NA,NA,NA,NA,NA,NA,NA,NA,NA,NA,NA,NA
"46","stim/objects/HouseObjects/scale2.png",149,49,149,0.7,"stim/64.jpeg",6,4,2,NA,"HouseObjects",1,2,"left","left",0.740999937,1,1,0,1,NA,NA,NA,NA,NA,NA,NA,NA,NA,NA,NA,NA,NA,NA,NA,NA,NA,NA,NA,NA,NA,NA,NA,NA
"104","stim/objects/HouseObjects/vacuumcleaner2.png",150,49,150,0.9,"stim/23.jpeg",2,3,3,NA,"HouseObjects",1,4,"left","left",0.737999916,1,1,0,1,NA,NA,NA,NA,NA,NA,NA,NA,NA,NA,NA,NA,NA,NA,NA,NA,NA,NA,NA,NA,NA,NA,NA,NA
"8","stim/objects/HouseObjects/rug2.png",151,49,151,0.7,"stim/61.jpeg",6,1,2,NA,"HouseObjects",1,2,"left","left",0.743000031,1,1,0,1,NA,NA,NA,NA,NA,NA,NA,NA,NA,NA,NA,NA,NA,NA,NA,NA,NA,NA,NA,NA,NA,NA,NA,NA
"149","stim/objects/Instruments/tambourine.png",152,49,152,0.5,"stim/34.jpeg",3,4,1,NA,"Instruments",2,1,"right","right",0.75,1,1,0,1,NA,NA,NA,NA,NA,NA,NA,NA,NA,NA,NA,NA,NA,NA,NA,NA,NA,NA,NA,NA,NA,NA,NA,NA
"66","stim/objects/HouseObjects/teapot2.png",153,49,153,0.1,"stim/13.jpeg",1,3,3,NA,"HouseObjects",1,1,"left","right",0.738999844,0,0,0,1,NA,NA,NA,NA,NA,NA,NA,NA,NA,NA,NA,NA,NA,NA,NA,NA,NA,NA,NA,NA,NA,NA,NA,NA
"105","stim/objects/HouseObjects/vacuumcleaner2.png",154,49,154,0.9,"stim/23.jpeg",2,3,3,NA,"HouseObjects",1,2,"left","left",0.763000011,1,1,0,1,NA,NA,NA,NA,NA,NA,NA,NA,NA,NA,NA,NA,NA,NA,NA,NA,NA,NA,NA,NA,NA,NA,NA,NA
"72","stim/objects/HouseObjects/thermometer2.png",155,49,155,0.1,"stim/14.jpeg",1,4,3,NA,"HouseObjects",1,3,"left","right",0.943000078,0,0,0,1,NA,NA,NA,NA,NA,NA,NA,NA,NA,NA,NA,NA,NA,NA,NA,NA,NA,NA,NA,NA,NA,NA,NA,NA
"117","stim/objects/HouseObjects/wateringcan2.png",156,49,156,0.9,"stim/24.jpeg",2,4,3,NA,"HouseObjects",1,3,"left","left",0.753000021,1,1,0,1,NA,NA,NA,NA,NA,NA,NA,NA,NA,NA,NA,NA,NA,NA,NA,NA,NA,NA,NA,NA,NA,NA,NA,NA
"190","stim/objects/Instruments/trombone2.png",157,49,157,0.9,"stim/13.jpeg",1,3,3,NA,"Instruments",2,3,"right","right",0.828999996,1,1,0,1,NA,NA,NA,NA,NA,NA,NA,NA,NA,NA,NA,NA,NA,NA,NA,NA,NA,NA,NA,NA,NA,NA,NA,NA
"9","stim/objects/HouseObjects/rug2.png",158,49,158,0.7,"stim/61.jpeg",6,1,2,NA,"HouseObjects",1,1,"left","left",0.751000166,1,1,0,1,NA,NA,NA,NA,NA,NA,NA,NA,NA,NA,NA,NA,NA,NA,NA,NA,NA,NA,NA,NA,NA,NA,NA,NA
"224","stim/objects/Instruments/violin2.png",159,49,159,0.1,"stim/22.jpeg",2,2,3,NA,"Instruments",2,4,"right","left",0.746000051,0,0,0,1,NA,NA,NA,NA,NA,NA,NA,NA,NA,NA,NA,NA,NA,NA,NA,NA,NA,NA,NA,NA,NA,NA,NA,NA
"169","stim/objects/Instruments/triangle.png",160,49,160,0.5,"stim/42.jpeg",4,2,1,NA,"Instruments",2,1,"right","",NA,0,0,0,1,NA,NA,NA,NA,NA,NA,NA,NA,NA,NA,NA,NA,NA,NA,NA,NA,NA,NA,NA,NA,NA,NA,NA,NA
"205","stim/objects/Instruments/trumpet2.png",161,49,161,0.9,"stim/14.jpeg",1,4,3,NA,"Instruments",2,1,"right","right",0.828999996,1,1,0,1,NA,NA,NA,NA,NA,NA,NA,NA,NA,NA,NA,NA,NA,NA,NA,NA,NA,NA,NA,NA,NA,NA,NA,NA
"191","stim/objects/Instruments/trombone2.png",162,49,162,0.9,"stim/13.jpeg",1,3,3,NA,"Instruments",2,2,"right","right",0.742000103,1,1,0,1,NA,NA,NA,NA,NA,NA,NA,NA,NA,NA,NA,NA,NA,NA,NA,NA,NA,NA,NA,NA,NA,NA,NA,NA
"106","stim/objects/HouseObjects/vacuumcleaner2.png",163,49,163,0.9,"stim/23.jpeg",2,3,3,NA,"HouseObjects",1,1,"left","left",0.754000187,1,1,0,1,NA,NA,NA,NA,NA,NA,NA,NA,NA,NA,NA,NA,NA,NA,NA,NA,NA,NA,NA,NA,NA,NA,NA,NA
"206","stim/objects/Instruments/trumpet2.png",164,49,164,0.9,"stim/14.jpeg",1,4,3,NA,"Instruments",2,3,"right","left",0.659000158,0,0,0,1,NA,NA,NA,NA,NA,NA,NA,NA,NA,NA,NA,NA,NA,NA,NA,NA,NA,NA,NA,NA,NA,NA,NA,NA
"229","stim/objects/Instruments/vuvuzela.png",165,49,165,0.7,"stim/53.jpeg",5,3,2,NA,"Instruments",2,1,"right","right",0.83100009,1,1,0,1,NA,NA,NA,NA,NA,NA,NA,NA,NA,NA,NA,NA,NA,NA,NA,NA,NA,NA,NA,NA,NA,NA,NA,NA
"156","stim/objects/Instruments/timbal.png",166,49,166,0.5,"stim/41.jpeg",4,1,1,NA,"Instruments",2,2,"right","right",0.832999945,1,1,0,1,NA,NA,NA,NA,NA,NA,NA,NA,NA,NA,NA,NA,NA,NA,NA,NA,NA,NA,NA,NA,NA,NA,NA,NA
"132","stim/objects/Instruments/saxophone.png",167,49,167,0.5,"stim/32.jpeg",3,2,1,NA,"Instruments",2,1,"right","right",0.747999907,1,1,0,1,NA,NA,NA,NA,NA,NA,NA,NA,NA,NA,NA,NA,NA,NA,NA,NA,NA,NA,NA,NA,NA,NA,NA,NA
"212","stim/objects/Instruments/tuba.png",168,49,168,0.7,"stim/51.jpeg",5,1,2,NA,"Instruments",2,2,"right","right",0.763000011,1,1,0,1,NA,NA,NA,NA,NA,NA,NA,NA,NA,NA,NA,NA,NA,NA,NA,NA,NA,NA,NA,NA,NA,NA,NA,NA
"179","stim/objects/Instruments/triangle2.png",169,49,169,0.9,"stim/12.jpeg",1,2,3,NA,"Instruments",2,3,"right","left",0.82799983,0,0,0,1,NA,NA,NA,NA,NA,NA,NA,NA,NA,NA,NA,NA,NA,NA,NA,NA,NA,NA,NA,NA,NA,NA,NA,NA
"222","stim/objects/Instruments/violin.png",170,49,170,0.7,"stim/52.jpeg",5,2,2,NA,"Instruments",2,3,"right","left",0.929000139,0,0,0,1,NA,NA,NA,NA,NA,NA,NA,NA,NA,NA,NA,NA,NA,NA,NA,NA,NA,NA,NA,NA,NA,NA,NA,NA
"239","stim/objects/Instruments/xylophone.png",171,49,171,0.7,"stim/54.jpeg",5,4,2,NA,"Instruments",2,1,"right","right",0.754000187,1,1,0,1,NA,NA,NA,NA,NA,NA,NA,NA,NA,NA,NA,NA,NA,NA,NA,NA,NA,NA,NA,NA,NA,NA,NA,NA
"135","stim/objects/Instruments/saxophone2.png",172,49,172,0.3,"stim/62.jpeg",6,2,2,NA,"Instruments",2,4,"right","left",0.661000013,0,0,0,1,NA,NA,NA,NA,NA,NA,NA,NA,NA,NA,NA,NA,NA,NA,NA,NA,NA,NA,NA,NA,NA,NA,NA,NA
"34","stim/objects/HouseObjects/saw2.png",173,49,173,0.7,"stim/63.jpeg",6,3,2,NA,"HouseObjects",1,3,"left","left",0.747000217,1,1,0,1,NA,NA,NA,NA,NA,NA,NA,NA,NA,NA,NA,NA,NA,NA,NA,NA,NA,NA,NA,NA,NA,NA,NA,NA
"47","stim/objects/HouseObjects/scale2.png",174,49,174,0.7,"stim/64.jpeg",6,4,2,NA,"HouseObjects",1,4,"left","left",0.741000175,1,1,0,1,NA,NA,NA,NA,NA,NA,NA,NA,NA,NA,NA,NA,NA,NA,NA,NA,NA,NA,NA,NA,NA,NA,NA,NA
"10","stim/objects/HouseObjects/rug2.png",175,49,175,0.7,"stim/61.jpeg",6,1,2,NA,"HouseObjects",1,3,"left","left",0.746999979,1,1,0,1,NA,NA,NA,NA,NA,NA,NA,NA,NA,NA,NA,NA,NA,NA,NA,NA,NA,NA,NA,NA,NA,NA,NA,NA
"139","stim/objects/Instruments/speaker.png",176,49,176,0.5,"stim/33.jpeg",3,3,1,NA,"Instruments",2,2,"right","right",0.662999868,1,1,0,1,NA,NA,NA,NA,NA,NA,NA,NA,NA,NA,NA,NA,NA,NA,NA,NA,NA,NA,NA,NA,NA,NA,NA,NA
"118","stim/objects/HouseObjects/wateringcan2.png",177,49,177,0.9,"stim/24.jpeg",2,4,3,NA,"HouseObjects",1,4,"left","left",0.741000175,1,1,0,1,NA,NA,NA,NA,NA,NA,NA,NA,NA,NA,NA,NA,NA,NA,NA,NA,NA,NA,NA,NA,NA,NA,NA,NA
"92","stim/objects/HouseObjects/towel2.png",178,49,178,0.9,"stim/22.jpeg",2,2,3,NA,"HouseObjects",1,3,"left","left",0.65199995,1,1,0,1,NA,NA,NA,NA,NA,NA,NA,NA,NA,NA,NA,NA,NA,NA,NA,NA,NA,NA,NA,NA,NA,NA,NA,NA
"119","stim/objects/HouseObjects/wateringcan2.png",179,49,179,0.9,"stim/24.jpeg",2,4,3,NA,"HouseObjects",1,3,"left","left",0.654999971,1,1,0,1,NA,NA,NA,NA,NA,NA,NA,NA,NA,NA,NA,NA,NA,NA,NA,NA,NA,NA,NA,NA,NA,NA,NA,NA
"165","stim/objects/Instruments/timbal2.png",180,49,180,0.9,"stim/11.jpeg",1,1,3,NA,"Instruments",2,2,"right","left",0.743999958,0,0,0,1,NA,NA,NA,NA,NA,NA,NA,NA,NA,NA,NA,NA,NA,NA,NA,NA,NA,NA,NA,NA,NA,NA,NA,NA
"52","stim/objects/HouseObjects/sponge.png",181,49,181,0.5,"stim/41.jpeg",4,1,1,NA,"HouseObjects",1,2,"left","right",0.937999964,0,0,0,1,NA,NA,NA,NA,NA,NA,NA,NA,NA,NA,NA,NA,NA,NA,NA,NA,NA,NA,NA,NA,NA,NA,NA,NA
"166","stim/objects/Instruments/timbal2.png",182,49,182,0.9,"stim/11.jpeg",1,1,3,NA,"Instruments",2,4,"right","right",0.929999828,1,1,0,1,NA,NA,NA,NA,NA,NA,NA,NA,NA,NA,NA,NA,NA,NA,NA,NA,NA,NA,NA,NA,NA,NA,NA,NA
"16","stim/objects/HouseObjects/safetypin.png",183,49,183,0.5,"stim/32.jpeg",3,2,1,NA,"HouseObjects",1,4,"left","right",0.746999979,0,0,0,1,NA,NA,NA,NA,NA,NA,NA,NA,NA,NA,NA,NA,NA,NA,NA,NA,NA,NA,NA,NA,NA,NA,NA,NA
"84","stim/objects/HouseObjects/thread2.png",184,49,184,0.9,"stim/21.jpeg",2,1,3,NA,"HouseObjects",1,4,"left","left",0.91899991,1,1,0,1,NA,NA,NA,NA,NA,NA,NA,NA,NA,NA,NA,NA,NA,NA,NA,NA,NA,NA,NA,NA,NA,NA,NA,NA
"93","stim/objects/HouseObjects/towel2.png",185,49,185,0.9,"stim/22.jpeg",2,2,3,NA,"HouseObjects",1,4,"left","left",0.830000162,1,1,0,1,NA,NA,NA,NA,NA,NA,NA,NA,NA,NA,NA,NA,NA,NA,NA,NA,NA,NA,NA,NA,NA,NA,NA,NA
"23","stim/objects/HouseObjects/safetypin2.png",186,49,186,0.7,"stim/62.jpeg",6,2,2,NA,"HouseObjects",1,2,"left","left",0.756999969,1,1,0,1,NA,NA,NA,NA,NA,NA,NA,NA,NA,NA,NA,NA,NA,NA,NA,NA,NA,NA,NA,NA,NA,NA,NA,NA
"62","stim/objects/HouseObjects/teapot.png",187,49,187,0.5,"stim/43.jpeg",4,3,1,NA,"HouseObjects",1,4,"left","left",0.647000074,1,1,0,1,NA,NA,NA,NA,NA,NA,NA,NA,NA,NA,NA,NA,NA,NA,NA,NA,NA,NA,NA,NA,NA,NA,NA,NA
"17","stim/objects/HouseObjects/safetypin.png",188,49,188,0.5,"stim/32.jpeg",3,2,1,NA,"HouseObjects",1,1,"left","right",0.648999929,0,0,0,1,NA,NA,NA,NA,NA,NA,NA,NA,NA,NA,NA,NA,NA,NA,NA,NA,NA,NA,NA,NA,NA,NA,NA,NA
"40","stim/objects/HouseObjects/scale.png",189,49,189,0.5,"stim/34.jpeg",3,4,1,NA,"HouseObjects",1,3,"left","right",0.829999924,0,0,0,1,NA,NA,NA,NA,NA,NA,NA,NA,NA,NA,NA,NA,NA,NA,NA,NA,NA,NA,NA,NA,NA,NA,NA,NA
"157","stim/objects/Instruments/timbal.png",190,49,190,0.5,"stim/41.jpeg",4,1,1,NA,"Instruments",2,2,"right","right",0.926000118,1,1,0,1,NA,NA,NA,NA,NA,NA,NA,NA,NA,NA,NA,NA,NA,NA,NA,NA,NA,NA,NA,NA,NA,NA,NA,NA
"192","stim/objects/Instruments/trombone2.png",191,49,191,0.9,"stim/13.jpeg",1,3,3,NA,"Instruments",2,2,"right","right",0.853999853,1,1,0,1,NA,NA,NA,NA,NA,NA,NA,NA,NA,NA,NA,NA,NA,NA,NA,NA,NA,NA,NA,NA,NA,NA,NA,NA
"140","stim/objects/Instruments/speaker.png",192,49,192,0.5,"stim/33.jpeg",3,3,1,NA,"Instruments",2,1,"right","right",0.832999945,1,1,0,1,NA,NA,NA,NA,NA,NA,NA,NA,NA,NA,NA,NA,NA,NA,NA,NA,NA,NA,NA,NA,NA,NA,NA,NA
"107","stim/objects/HouseObjects/vacuumcleaner2.png",193,49,193,0.9,"stim/23.jpeg",2,3,3,NA,"HouseObjects",1,3,"left","left",0.75,1,1,0,1,NA,NA,NA,NA,NA,NA,NA,NA,NA,NA,NA,NA,NA,NA,NA,NA,NA,NA,NA,NA,NA,NA,NA,NA
"199","stim/objects/Instruments/trumpet.png",194,49,194,0.5,"stim/44.jpeg",4,4,1,NA,"Instruments",2,3,"right","right",0.832000017,1,1,0,1,NA,NA,NA,NA,NA,NA,NA,NA,NA,NA,NA,NA,NA,NA,NA,NA,NA,NA,NA,NA,NA,NA,NA,NA
"48","stim/objects/HouseObjects/scale2.png",195,49,195,0.7,"stim/64.jpeg",6,4,2,NA,"HouseObjects",1,4,"left","left",0.749000072,1,1,0,1,NA,NA,NA,NA,NA,NA,NA,NA,NA,NA,NA,NA,NA,NA,NA,NA,NA,NA,NA,NA,NA,NA,NA,NA
"170","stim/objects/Instruments/triangle.png",196,49,196,0.5,"stim/42.jpeg",4,2,1,NA,"Instruments",2,3,"right","",NA,0,0,0,1,NA,NA,NA,NA,NA,NA,NA,NA,NA,NA,NA,NA,NA,NA,NA,NA,NA,NA,NA,NA,NA,NA,NA,NA
"223","stim/objects/Instruments/violin.png",197,49,197,0.7,"stim/52.jpeg",5,2,2,NA,"Instruments",2,3,"right","right",0.835000038,1,1,0,1,NA,NA,NA,NA,NA,NA,NA,NA,NA,NA,NA,NA,NA,NA,NA,NA,NA,NA,NA,NA,NA,NA,NA,NA
"24","stim/objects/HouseObjects/safetypin2.png",198,49,198,0.7,"stim/62.jpeg",6,2,2,NA,"HouseObjects",1,2,"left","left",0.743000031,1,1,0,1,NA,NA,NA,NA,NA,NA,NA,NA,NA,NA,NA,NA,NA,NA,NA,NA,NA,NA,NA,NA,NA,NA,NA,NA
"124","stim/objects/Instruments/record_player.png",199,49,199,0.5,"stim/31.jpeg",3,1,1,NA,"Instruments",2,1,"right","right",0.83100009,1,1,0,1,NA,NA,NA,NA,NA,NA,NA,NA,NA,NA,NA,NA,NA,NA,NA,NA,NA,NA,NA,NA,NA,NA,NA,NA
"213","stim/objects/Instruments/tuba.png",200,49,200,0.7,"stim/51.jpeg",5,1,2,NA,"Instruments",2,2,"right","right",0.74000001,1,1,0,1,NA,NA,NA,NA,NA,NA,NA,NA,NA,NA,NA,NA,NA,NA,NA,NA,NA,NA,NA,NA,NA,NA,NA,NA
"41","stim/objects/HouseObjects/scale.png",201,49,201,0.5,"stim/34.jpeg",3,4,1,NA,"HouseObjects",1,4,"left","right",0.752000093,0,0,0,1,NA,NA,NA,NA,NA,NA,NA,NA,NA,NA,NA,NA,NA,NA,NA,NA,NA,NA,NA,NA,NA,NA,NA,NA
"152","stim/objects/Instruments/tambourine2.png",202,49,202,0.3,"stim/64.jpeg",6,4,2,NA,"Instruments",2,1,"right","left",0.738000154,0,0,0,1,NA,NA,NA,NA,NA,NA,NA,NA,NA,NA,NA,NA,NA,NA,NA,NA,NA,NA,NA,NA,NA,NA,NA,NA
"94","stim/objects/HouseObjects/towel2.png",203,49,203,0.9,"stim/22.jpeg",2,2,3,NA,"HouseObjects",1,2,"left","left",0.742000103,1,1,0,1,NA,NA,NA,NA,NA,NA,NA,NA,NA,NA,NA,NA,NA,NA,NA,NA,NA,NA,NA,NA,NA,NA,NA,NA
"120","stim/objects/HouseObjects/wateringcan2.png",204,49,204,0.9,"stim/24.jpeg",2,4,3,NA,"HouseObjects",1,1,"left","left",0.74000001,1,1,0,1,NA,NA,NA,NA,NA,NA,NA,NA,NA,NA,NA,NA,NA,NA,NA,NA,NA,NA,NA,NA,NA,NA,NA,NA
"214","stim/objects/Instruments/tuba.png",205,49,205,0.7,"stim/51.jpeg",5,1,2,NA,"Instruments",2,3,"right","right",0.746999979,1,1,0,1,NA,NA,NA,NA,NA,NA,NA,NA,NA,NA,NA,NA,NA,NA,NA,NA,NA,NA,NA,NA,NA,NA,NA,NA
"74","stim/objects/HouseObjects/thread.png",206,49,206,0.3,"stim/51.jpeg",5,1,2,NA,"HouseObjects",1,4,"left","right",0.649000168,0,0,0,1,NA,NA,NA,NA,NA,NA,NA,NA,NA,NA,NA,NA,NA,NA,NA,NA,NA,NA,NA,NA,NA,NA,NA,NA
"185","stim/objects/Instruments/trombone.png",207,49,207,0.5,"stim/43.jpeg",4,3,1,NA,"Instruments",2,4,"right","",NA,0,0,0,1,NA,NA,NA,NA,NA,NA,NA,NA,NA,NA,NA,NA,NA,NA,NA,NA,NA,NA,NA,NA,NA,NA,NA,NA
"4","stim/objects/HouseObjects/rug.png",208,49,208,0.5,"stim/31.jpeg",3,1,1,NA,"HouseObjects",1,2,"left","right",0.738999844,0,0,0,1,NA,NA,NA,NA,NA,NA,NA,NA,NA,NA,NA,NA,NA,NA,NA,NA,NA,NA,NA,NA,NA,NA,NA,NA
"87","stim/objects/HouseObjects/towel.png",209,49,209,0.3,"stim/52.jpeg",5,2,2,NA,"HouseObjects",1,4,"left","left",0.654000044,1,1,0,1,NA,NA,NA,NA,NA,NA,NA,NA,NA,NA,NA,NA,NA,NA,NA,NA,NA,NA,NA,NA,NA,NA,NA,NA
"75","stim/objects/HouseObjects/thread.png",210,49,210,0.3,"stim/51.jpeg",5,1,2,NA,"HouseObjects",1,2,"left","right",0.757999897,0,0,0,1,NA,NA,NA,NA,NA,NA,NA,NA,NA,NA,NA,NA,NA,NA,NA,NA,NA,NA,NA,NA,NA,NA,NA,NA
"230","stim/objects/Instruments/vuvuzela.png",211,49,211,0.7,"stim/53.jpeg",5,3,2,NA,"Instruments",2,4,"right","left",0.828999996,0,0,0,1,NA,NA,NA,NA,NA,NA,NA,NA,NA,NA,NA,NA,NA,NA,NA,NA,NA,NA,NA,NA,NA,NA,NA,NA
"141","stim/objects/Instruments/speaker.png",212,49,212,0.5,"stim/33.jpeg",3,3,1,NA,"Instruments",2,3,"right","right",0.836999893,1,1,0,1,NA,NA,NA,NA,NA,NA,NA,NA,NA,NA,NA,NA,NA,NA,NA,NA,NA,NA,NA,NA,NA,NA,NA,NA
"53","stim/objects/HouseObjects/sponge.png",213,49,213,0.5,"stim/41.jpeg",4,1,1,NA,"HouseObjects",1,3,"left","right",0.827000141,0,0,0,1,NA,NA,NA,NA,NA,NA,NA,NA,NA,NA,NA,NA,NA,NA,NA,NA,NA,NA,NA,NA,NA,NA,NA,NA
"63","stim/objects/HouseObjects/teapot.png",214,49,214,0.5,"stim/43.jpeg",4,3,1,NA,"HouseObjects",1,2,"left","right",0.836999893,0,0,0,1,NA,NA,NA,NA,NA,NA,NA,NA,NA,NA,NA,NA,NA,NA,NA,NA,NA,NA,NA,NA,NA,NA,NA,NA
"193","stim/objects/Instruments/trombone2.png",215,49,215,0.9,"stim/13.jpeg",1,3,3,NA,"Instruments",2,3,"right","right",0.84100008,1,1,0,1,NA,NA,NA,NA,NA,NA,NA,NA,NA,NA,NA,NA,NA,NA,NA,NA,NA,NA,NA,NA,NA,NA,NA,NA
"70","stim/objects/HouseObjects/thermometer.png",216,49,216,0.5,"stim/44.jpeg",4,4,1,NA,"HouseObjects",1,3,"left","right",0.646000147,0,0,0,1,NA,NA,NA,NA,NA,NA,NA,NA,NA,NA,NA,NA,NA,NA,NA,NA,NA,NA,NA,NA,NA,NA,NA,NA
"59","stim/objects/HouseObjects/spraybottle.png",217,49,217,0.5,"stim/42.jpeg",4,2,1,NA,"HouseObjects",1,4,"left","left",0.654000044,1,1,0,1,NA,NA,NA,NA,NA,NA,NA,NA,NA,NA,NA,NA,NA,NA,NA,NA,NA,NA,NA,NA,NA,NA,NA,NA
"35","stim/objects/HouseObjects/saw2.png",218,49,218,0.7,"stim/63.jpeg",6,3,2,NA,"HouseObjects",1,3,"left","left",0.739000082,1,1,0,1,NA,NA,NA,NA,NA,NA,NA,NA,NA,NA,NA,NA,NA,NA,NA,NA,NA,NA,NA,NA,NA,NA,NA,NA
"108","stim/objects/HouseObjects/vacuumcleaner2.png",219,49,219,0.9,"stim/23.jpeg",2,3,3,NA,"HouseObjects",1,1,"left","left",0.737999916,1,1,0,1,NA,NA,NA,NA,NA,NA,NA,NA,NA,NA,NA,NA,NA,NA,NA,NA,NA,NA,NA,NA,NA,NA,NA,NA
"71","stim/objects/HouseObjects/thermometer.png",220,49,220,0.5,"stim/44.jpeg",4,4,1,NA,"HouseObjects",1,3,"left","left",0.851999998,1,1,0,1,NA,NA,NA,NA,NA,NA,NA,NA,NA,NA,NA,NA,NA,NA,NA,NA,NA,NA,NA,NA,NA,NA,NA,NA
"64","stim/objects/HouseObjects/teapot.png",221,49,221,0.5,"stim/43.jpeg",4,3,1,NA,"HouseObjects",1,4,"left","right",0.759000063,0,0,0,1,NA,NA,NA,NA,NA,NA,NA,NA,NA,NA,NA,NA,NA,NA,NA,NA,NA,NA,NA,NA,NA,NA,NA,NA
"215","stim/objects/Instruments/tuba.png",222,49,222,0.7,"stim/51.jpeg",5,1,2,NA,"Instruments",2,1,"right","right",0.753999949,1,1,0,1,NA,NA,NA,NA,NA,NA,NA,NA,NA,NA,NA,NA,NA,NA,NA,NA,NA,NA,NA,NA,NA,NA,NA,NA
"180","stim/objects/Instruments/triangle2.png",223,49,223,0.9,"stim/12.jpeg",1,2,3,NA,"Instruments",2,3,"right","",NA,0,0,0,1,NA,NA,NA,NA,NA,NA,NA,NA,NA,NA,NA,NA,NA,NA,NA,NA,NA,NA,NA,NA,NA,NA,NA,NA
"36","stim/objects/HouseObjects/saw2.png",224,49,224,0.7,"stim/63.jpeg",6,3,2,NA,"HouseObjects",1,4,"left","right",0.651000023,0,0,0,1,NA,NA,NA,NA,NA,NA,NA,NA,NA,NA,NA,NA,NA,NA,NA,NA,NA,NA,NA,NA,NA,NA,NA,NA
"133","stim/objects/Instruments/saxophone.png",225,49,225,0.5,"stim/32.jpeg",3,2,1,NA,"Instruments",2,1,"right","right",0.75999999,1,1,0,1,NA,NA,NA,NA,NA,NA,NA,NA,NA,NA,NA,NA,NA,NA,NA,NA,NA,NA,NA,NA,NA,NA,NA,NA
"207","stim/objects/Instruments/trumpet2.png",226,49,226,0.9,"stim/14.jpeg",1,4,3,NA,"Instruments",2,1,"right","right",0.845000029,1,1,0,1,NA,NA,NA,NA,NA,NA,NA,NA,NA,NA,NA,NA,NA,NA,NA,NA,NA,NA,NA,NA,NA,NA,NA,NA
"29","stim/objects/HouseObjects/saw.png",227,49,227,0.5,"stim/33.jpeg",3,3,1,NA,"HouseObjects",1,2,"left","right",0.835999966,0,0,0,1,NA,NA,NA,NA,NA,NA,NA,NA,NA,NA,NA,NA,NA,NA,NA,NA,NA,NA,NA,NA,NA,NA,NA,NA
"65","stim/objects/HouseObjects/teapot.png",228,49,228,0.5,"stim/43.jpeg",4,3,1,NA,"HouseObjects",1,2,"left","right",0.849999905,0,0,0,1,NA,NA,NA,NA,NA,NA,NA,NA,NA,NA,NA,NA,NA,NA,NA,NA,NA,NA,NA,NA,NA,NA,NA,NA
"208","stim/objects/Instruments/trumpet2.png",229,49,229,0.9,"stim/14.jpeg",1,4,3,NA,"Instruments",2,3,"right","right",0.756000042,1,1,0,1,NA,NA,NA,NA,NA,NA,NA,NA,NA,NA,NA,NA,NA,NA,NA,NA,NA,NA,NA,NA,NA,NA,NA,NA
"95","stim/objects/HouseObjects/towel2.png",230,49,230,0.9,"stim/22.jpeg",2,2,3,NA,"HouseObjects",1,2,"left","left",0.83100009,1,1,0,1,NA,NA,NA,NA,NA,NA,NA,NA,NA,NA,NA,NA,NA,NA,NA,NA,NA,NA,NA,NA,NA,NA,NA,NA
"125","stim/objects/Instruments/record_player.png",231,49,231,0.5,"stim/31.jpeg",3,1,1,NA,"Instruments",2,4,"right","right",0.924999952,1,1,0,1,NA,NA,NA,NA,NA,NA,NA,NA,NA,NA,NA,NA,NA,NA,NA,NA,NA,NA,NA,NA,NA,NA,NA,NA
"231","stim/objects/Instruments/vuvuzela.png",232,49,232,0.7,"stim/53.jpeg",5,3,2,NA,"Instruments",2,4,"right","right",0.652000189,1,1,0,1,NA,NA,NA,NA,NA,NA,NA,NA,NA,NA,NA,NA,NA,NA,NA,NA,NA,NA,NA,NA,NA,NA,NA,NA
"144","stim/objects/Instruments/speaker2.png",233,49,233,0.3,"stim/63.jpeg",6,3,2,NA,"Instruments",2,3,"right","left",0.758000135,0,0,0,1,NA,NA,NA,NA,NA,NA,NA,NA,NA,NA,NA,NA,NA,NA,NA,NA,NA,NA,NA,NA,NA,NA,NA,NA
"5","stim/objects/HouseObjects/rug.png",234,49,234,0.5,"stim/31.jpeg",3,1,1,NA,"HouseObjects",1,3,"left","right",0.743999958,0,0,0,1,NA,NA,NA,NA,NA,NA,NA,NA,NA,NA,NA,NA,NA,NA,NA,NA,NA,NA,NA,NA,NA,NA,NA,NA
"136","stim/objects/Instruments/saxophone2.png",235,49,235,0.3,"stim/62.jpeg",6,2,2,NA,"Instruments",2,3,"right","left",0.745000124,0,0,0,1,NA,NA,NA,NA,NA,NA,NA,NA,NA,NA,NA,NA,NA,NA,NA,NA,NA,NA,NA,NA,NA,NA,NA,NA
"194","stim/objects/Instruments/trombone2.png",236,49,236,0.9,"stim/13.jpeg",1,3,3,NA,"Instruments",2,2,"right","left",0.832999945,0,0,0,1,NA,NA,NA,NA,NA,NA,NA,NA,NA,NA,NA,NA,NA,NA,NA,NA,NA,NA,NA,NA,NA,NA,NA,NA
"96","stim/objects/HouseObjects/towel2.png",237,49,237,0.9,"stim/22.jpeg",2,2,3,NA,"HouseObjects",1,4,"left","left",0.753999949,1,1,0,1,NA,NA,NA,NA,NA,NA,NA,NA,NA,NA,NA,NA,NA,NA,NA,NA,NA,NA,NA,NA,NA,NA,NA,NA
"11","stim/objects/HouseObjects/rug2.png",238,49,238,0.7,"stim/61.jpeg",6,1,2,NA,"HouseObjects",1,1,"left","left",0.745999813,1,1,0,1,NA,NA,NA,NA,NA,NA,NA,NA,NA,NA,NA,NA,NA,NA,NA,NA,NA,NA,NA,NA,NA,NA,NA,NA
"171","stim/objects/Instruments/triangle.png",239,49,239,0.5,"stim/42.jpeg",4,2,1,NA,"Instruments",2,2,"right","right",0.84100008,1,1,0,1,NA,NA,NA,NA,NA,NA,NA,NA,NA,NA,NA,NA,NA,NA,NA,NA,NA,NA,NA,NA,NA,NA,NA,NA
"12","stim/objects/HouseObjects/rug2.png",240,49,240,0.7,"stim/61.jpeg",6,1,2,NA,"HouseObjects",1,2,"left","left",0.746999979,1,1,0,1,NA,NA,NA,NA,NA,NA,NA,NA,NA,NA,NA,NA,NA,NA,NA,NA,NA,NA,NA,NA,NA,NA,NA,NA
"524","stim/objects/Instruments/grandpiano.png",248,49,241,0.9,"stim/14.jpeg",1,4,3,2,"Instruments",2,4,"right","",NA,0,0,1,0,NA,NA,NA,NA,NA,NA,NA,NA,NA,NA,NA,NA,NA,NA,NA,NA,NA,NA,NA,NA,NA,NA,NA,NA
"291","stim/objects/HouseObjects/doormat.png",249,49,242,0.9,"stim/23.jpeg",2,3,3,2,"HouseObjects",1,4,"left","left",0.753999949,1,1,1,0,NA,NA,NA,NA,NA,NA,NA,NA,NA,NA,NA,NA,NA,NA,NA,NA,NA,NA,NA,NA,NA,NA,NA,NA
"325","stim/objects/HouseObjects/flyswatter.png",250,49,243,0.9,"stim/24.jpeg",2,4,3,2,"HouseObjects",1,4,"left","left",0.845999956,1,1,1,0,NA,NA,NA,NA,NA,NA,NA,NA,NA,NA,NA,NA,NA,NA,NA,NA,NA,NA,NA,NA,NA,NA,NA,NA
"545","stim/objects/Instruments/harp.png",251,49,244,0.5,"stim/34.jpeg",3,4,1,1,"Instruments",2,2,"right","",NA,0,0,1,0,150,49,1,0.5,1,"stim/34.jpeg",3,4,"stim/34.jpeg",2,"right",0.80700016,2,2,0.871999979,2,0.210999966,150,0,0,NA,1,NA,0
"421","stim/objects/Instruments/bassguitar.png",252,49,245,0.5,"stim/42.jpeg",4,2,1,2,"Instruments",2,4,"right","right",0.853999853,1,1,1,0,NA,NA,NA,NA,NA,NA,NA,NA,NA,NA,NA,NA,NA,NA,NA,NA,NA,NA,NA,NA,NA,NA,NA,NA
"308","stim/objects/HouseObjects/dustpan.png",253,49,246,0.9,"stim/24.jpeg",2,4,3,2,"HouseObjects",1,1,"left","left",0.749000072,1,1,1,0,NA,NA,NA,NA,NA,NA,NA,NA,NA,NA,NA,NA,NA,NA,NA,NA,NA,NA,NA,NA,NA,NA,NA,NA
"326","stim/objects/HouseObjects/flyswatter.png",254,49,247,0.9,"stim/21.jpeg",2,1,3,2,"HouseObjects",1,1,"left","left",0.66899991,1,1,1,0,NA,NA,NA,NA,NA,NA,NA,NA,NA,NA,NA,NA,NA,NA,NA,NA,NA,NA,NA,NA,NA,NA,NA,NA
"456","stim/objects/Instruments/flute.png",255,49,248,0.9,"stim/11.jpeg",1,1,3,2,"Instruments",2,2,"right","right",0.861999989,1,1,1,0,NA,NA,NA,NA,NA,NA,NA,NA,NA,NA,NA,NA,NA,NA,NA,NA,NA,NA,NA,NA,NA,NA,NA,NA
"560","stim/objects/Instruments/musicsheet2.png",256,49,249,0.1,"stim/23.jpeg",2,3,3,1,"Instruments",2,4,"right","left",0.742000103,0,0,1,0,34,49,1,0.1,2,"stim/23.jpeg",2,3,"stim/23.jpeg",4,"left",0.937000036,4,2,1.395999908,2,0.67200017,34,1,0,0,0,0,0
"444","stim/objects/Instruments/drums.png",257,49,250,0.7,"stim/53.jpeg",5,3,2,2,"Instruments",2,2,"right","right",0.850000143,1,1,1,0,NA,NA,NA,NA,NA,NA,NA,NA,NA,NA,NA,NA,NA,NA,NA,NA,NA,NA,NA,NA,NA,NA,NA,NA
"324","stim/objects/HouseObjects/dustpan2.png",258,49,251,0.1,"stim/12.jpeg",1,2,3,1,"HouseObjects",1,2,"left","right",0.845999956,0,0,1,0,157,49,1,0.1,1,"stim/12.jpeg",1,2,"stim/12.jpeg",2,"right",1.436999798,2,2,0.273999929,2,0.260999918,157,0,1,NA,1,NA,0
"264","stim/objects/HouseObjects/broom2.png",259,49,252,0.7,"stim/62.jpeg",6,2,2,1,"HouseObjects",1,2,"left","left",0.847999811,1,1,1,0,145,49,1,0.7,1,"stim/62.jpeg",6,2,"stim/62.jpeg",2,"right",1.113000154,2,2,0.673999786,2,0.479000092,145,0,1,NA,1,NA,0
"414","stim/objects/Instruments/balalaika2.png",260,49,253,0.7,"stim/51.jpeg",5,1,2,1,"Instruments",2,3,"right","right",0.845000029,1,1,1,0,52,49,1,0.7,2,"stim/51.jpeg",5,1,"stim/51.jpeg",3,"left",1.049999952,4,3,0.986999989,3,0.513000011,52,1,0,0,1,1,0
"436","stim/objects/Instruments/cymbal.png",261,49,254,0.7,"stim/51.jpeg",5,1,2,2,"Instruments",2,3,"right","right",0.661999941,1,1,1,0,NA,NA,NA,NA,NA,NA,NA,NA,NA,NA,NA,NA,NA,NA,NA,NA,NA,NA,NA,NA,NA,NA,NA,NA
"255","stim/objects/HouseObjects/bleachbottle2.png",262,49,255,0.3,"stim/52.jpeg",5,2,2,1,"HouseObjects",1,4,"left","right",0.838999987,0,0,1,0,90,49,1,0.3,1,"stim/52.jpeg",5,2,"stim/52.jpeg",4,"left",1.03399992,3,3,0.618999958,3,0.214999914,90,1,0,0,0,0,0
"359","stim/objects/HouseObjects/glass.png",263,49,256,0.9,"stim/21.jpeg",2,1,3,2,"HouseObjects",1,4,"left","left",0.755000114,1,1,1,0,NA,NA,NA,NA,NA,NA,NA,NA,NA,NA,NA,NA,NA,NA,NA,NA,NA,NA,NA,NA,NA,NA,NA,NA
"490","stim/objects/Instruments/frenchhorn.png",264,49,257,0.9,"stim/11.jpeg",1,1,3,2,"Instruments",2,2,"right","right",0.662999868,1,1,1,0,NA,NA,NA,NA,NA,NA,NA,NA,NA,NA,NA,NA,NA,NA,NA,NA,NA,NA,NA,NA,NA,NA,NA,NA
"451","stim/objects/Instruments/electricdrumset2.png",265,49,258,0.3,"stim/62.jpeg",6,2,2,1,"Instruments",2,4,"right","left",0.75,0,0,1,0,143,49,1,0.3,2,"stim/62.jpeg",6,2,"stim/62.jpeg",4,"left",2.940999985,3,3,0.320000172,3,0.267000198,143,1,0,0,0,0,0
"491","stim/objects/Instruments/frenchhorn.png",266,49,259,0.9,"stim/13.jpeg",1,3,3,2,"Instruments",2,2,"right","right",0.833000183,1,1,1,0,NA,NA,NA,NA,NA,NA,NA,NA,NA,NA,NA,NA,NA,NA,NA,NA,NA,NA,NA,NA,NA,NA,NA,NA
"328","stim/objects/HouseObjects/flyswatter.png",267,49,260,0.9,"stim/21.jpeg",2,1,3,2,"HouseObjects",1,1,"left","left",0.749000072,1,1,1,0,NA,NA,NA,NA,NA,NA,NA,NA,NA,NA,NA,NA,NA,NA,NA,NA,NA,NA,NA,NA,NA,NA,NA,NA
"275","stim/objects/HouseObjects/clothespin.png",268,49,261,0.7,"stim/64.jpeg",6,4,2,2,"HouseObjects",1,3,"left","left",0.743000031,1,1,1,0,NA,NA,NA,NA,NA,NA,NA,NA,NA,NA,NA,NA,NA,NA,NA,NA,NA,NA,NA,NA,NA,NA,NA,NA
"309","stim/objects/HouseObjects/dustpan.png",269,49,262,0.9,"stim/22.jpeg",2,2,3,2,"HouseObjects",1,1,"left","left",0.744999886,1,1,1,0,NA,NA,NA,NA,NA,NA,NA,NA,NA,NA,NA,NA,NA,NA,NA,NA,NA,NA,NA,NA,NA,NA,NA,NA
"418","stim/objects/Instruments/bassdrum.png",270,49,263,0.5,"stim/31.jpeg",3,1,1,2,"Instruments",2,1,"right","right",0.83100009,1,1,1,0,NA,NA,NA,NA,NA,NA,NA,NA,NA,NA,NA,NA,NA,NA,NA,NA,NA,NA,NA,NA,NA,NA,NA,NA
"564","stim/objects/Instruments/oboe2.png",271,49,264,0.1,"stim/21.jpeg",2,1,3,1,"Instruments",2,4,"right","left",0.66899991,0,0,1,0,170,49,1,0.1,2,"stim/21.jpeg",2,1,"stim/21.jpeg",4,"left",1.348999977,3,3,0.256999969,3,0.519000053,170,1,0,0,0,0,0
"279","stim/objects/HouseObjects/coffee.png",272,49,265,0.7,"stim/61.jpeg",6,1,2,2,"HouseObjects",1,1,"left","left",0.843999863,1,1,1,0,NA,NA,NA,NA,NA,NA,NA,NA,NA,NA,NA,NA,NA,NA,NA,NA,NA,NA,NA,NA,NA,NA,NA,NA
"430","stim/objects/Instruments/clarinet.png",273,49,266,0.5,"stim/42.jpeg",4,2,1,2,"Instruments",2,2,"right","right",0.927000046,1,1,1,0,NA,NA,NA,NA,NA,NA,NA,NA,NA,NA,NA,NA,NA,NA,NA,NA,NA,NA,NA,NA,NA,NA,NA,NA
"310","stim/objects/HouseObjects/dustpan.png",274,49,267,0.9,"stim/21.jpeg",2,1,3,2,"HouseObjects",1,2,"left","right",0.832000017,0,0,1,0,NA,NA,NA,NA,NA,NA,NA,NA,NA,NA,NA,NA,NA,NA,NA,NA,NA,NA,NA,NA,NA,NA,NA,NA
"311","stim/objects/HouseObjects/dustpan.png",275,49,268,0.9,"stim/22.jpeg",2,2,3,2,"HouseObjects",1,1,"left","left",0.651000023,1,1,1,0,NA,NA,NA,NA,NA,NA,NA,NA,NA,NA,NA,NA,NA,NA,NA,NA,NA,NA,NA,NA,NA,NA,NA,NA
"526","stim/objects/Instruments/grandpiano.png",276,49,269,0.9,"stim/13.jpeg",1,3,3,2,"Instruments",2,4,"right","right",0.921000004,1,1,1,0,NA,NA,NA,NA,NA,NA,NA,NA,NA,NA,NA,NA,NA,NA,NA,NA,NA,NA,NA,NA,NA,NA,NA,NA
"509","stim/objects/Instruments/gong.png",277,49,270,0.9,"stim/11.jpeg",1,1,3,2,"Instruments",2,1,"right","right",0.74000001,1,1,1,0,NA,NA,NA,NA,NA,NA,NA,NA,NA,NA,NA,NA,NA,NA,NA,NA,NA,NA,NA,NA,NA,NA,NA,NA
"412","stim/objects/Instruments/balalaika.png",278,49,271,0.5,"stim/33.jpeg",3,3,1,2,"Instruments",2,4,"right","",NA,0,0,1,0,NA,NA,NA,NA,NA,NA,NA,NA,NA,NA,NA,NA,NA,NA,NA,NA,NA,NA,NA,NA,NA,NA,NA,NA
"527","stim/objects/Instruments/grandpiano.png",279,49,272,0.9,"stim/12.jpeg",1,2,3,2,"Instruments",2,3,"right","right",0.845000029,1,1,1,0,NA,NA,NA,NA,NA,NA,NA,NA,NA,NA,NA,NA,NA,NA,NA,NA,NA,NA,NA,NA,NA,NA,NA,NA
"278","stim/objects/HouseObjects/clothespin2.png",280,49,273,0.7,"stim/62.jpeg",6,2,2,1,"HouseObjects",1,4,"left","left",0.830999851,1,1,1,0,167,49,1,0.7,1,"stim/62.jpeg",6,2,"stim/62.jpeg",4,"left",1.348999977,3,3,0.582000017,3,0.205999851,167,1,0,0,0,0,0
"445","stim/objects/Instruments/drums.png",281,49,274,0.7,"stim/52.jpeg",5,2,2,2,"Instruments",2,1,"right","right",0.937999964,1,1,1,0,NA,NA,NA,NA,NA,NA,NA,NA,NA,NA,NA,NA,NA,NA,NA,NA,NA,NA,NA,NA,NA,NA,NA,NA
"243","stim/objects/HouseObjects/ashtray2.png",282,49,275,0.3,"stim/52.jpeg",5,2,2,1,"HouseObjects",1,3,"left","right",0.664000034,0,0,1,0,183,49,1,0.3,1,"stim/52.jpeg",5,2,"stim/52.jpeg",3,"left",1.309999943,4,4,0.225999832,4,0.16899991,183,1,0,0,0,0,0
"474","stim/objects/Instruments/flutetrans.png",283,49,276,0.9,"stim/13.jpeg",1,3,3,2,"Instruments",2,3,"right","right",0.664000034,1,1,1,0,NA,NA,NA,NA,NA,NA,NA,NA,NA,NA,NA,NA,NA,NA,NA,NA,NA,NA,NA,NA,NA,NA,NA,NA
"433","stim/objects/Instruments/cornet.png",284,49,277,0.5,"stim/42.jpeg",4,2,1,2,"Instruments",2,3,"right","left",0.832000017,0,0,1,0,NA,NA,NA,NA,NA,NA,NA,NA,NA,NA,NA,NA,NA,NA,NA,NA,NA,NA,NA,NA,NA,NA,NA,NA
"557","stim/objects/Instruments/metronome.png",285,49,278,0.5,"stim/43.jpeg",4,3,1,1,"Instruments",2,3,"right","right",0.842000008,1,1,1,0,123,49,1,0.5,2,"stim/43.jpeg",4,3,"stim/43.jpeg",3,"left",1.210999966,3,3,0.404999971,3,0.269000053,123,1,1,1,1,1,0
"427","stim/objects/Instruments/chime.png",286,49,279,0.5,"stim/44.jpeg",4,4,1,2,"Instruments",2,1,"right","right",0.738999844,1,1,1,0,NA,NA,NA,NA,NA,NA,NA,NA,NA,NA,NA,NA,NA,NA,NA,NA,NA,NA,NA,NA,NA,NA,NA,NA
"510","stim/objects/Instruments/gong.png",287,49,280,0.9,"stim/14.jpeg",1,4,3,2,"Instruments",2,4,"right","right",0.647000074,1,1,1,0,NA,NA,NA,NA,NA,NA,NA,NA,NA,NA,NA,NA,NA,NA,NA,NA,NA,NA,NA,NA,NA,NA,NA,NA
"241","stim/objects/HouseObjects/ashtray.png",288,49,281,0.5,"stim/31.jpeg",3,1,1,2,"HouseObjects",1,1,"left","right",0.569000006,0,0,1,0,NA,NA,NA,NA,NA,NA,NA,NA,NA,NA,NA,NA,NA,NA,NA,NA,NA,NA,NA,NA,NA,NA,NA,NA
"330","stim/objects/HouseObjects/flyswatter.png",289,49,282,0.9,"stim/22.jpeg",2,2,3,2,"HouseObjects",1,2,"left","left",0.738000154,1,1,1,0,NA,NA,NA,NA,NA,NA,NA,NA,NA,NA,NA,NA,NA,NA,NA,NA,NA,NA,NA,NA,NA,NA,NA,NA
"360","stim/objects/HouseObjects/glass.png",290,49,283,0.9,"stim/24.jpeg",2,4,3,2,"HouseObjects",1,1,"left","left",0.849999905,1,1,1,0,NA,NA,NA,NA,NA,NA,NA,NA,NA,NA,NA,NA,NA,NA,NA,NA,NA,NA,NA,NA,NA,NA,NA,NA
"261","stim/objects/HouseObjects/bottle2.png",291,49,284,0.7,"stim/61.jpeg",6,1,2,1,"HouseObjects",1,4,"left","",NA,0,0,1,0,6,49,1,0.7,1,"stim/61.jpeg",6,1,"stim/61.jpeg",4,"right",1.857000113,2,2,3.88499999,1,1.309999943,6,0,0,NA,0,NA,0
"376","stim/objects/HouseObjects/glassmop.png",292,49,285,0.5,"stim/33.jpeg",3,3,1,1,"HouseObjects",1,1,"left","right",0.650000095,0,0,1,0,140,49,1,0.5,1,"stim/33.jpeg",3,3,"stim/33.jpeg",1,"left",1.349999905,3,3,0.624000072,3,0.527999878,140,1,1,1,0,0,0
"307","stim/objects/HouseObjects/doormat2.png",293,49,286,0.1,"stim/11.jpeg",1,1,3,1,"HouseObjects",1,4,"left","left",0.741999865,1,1,1,0,180,49,1,0.1,1,"stim/11.jpeg",1,1,"stim/11.jpeg",4,"left",1.933000088,2,2,0.316999912,2,0.314999819,180,1,0,0,0,0,0
"343","stim/objects/HouseObjects/garbagebin.png",294,49,287,0.9,"stim/22.jpeg",2,2,3,2,"HouseObjects",1,2,"left","left",0.84800005,1,1,1,0,NA,NA,NA,NA,NA,NA,NA,NA,NA,NA,NA,NA,NA,NA,NA,NA,NA,NA,NA,NA,NA,NA,NA,NA
"459","stim/objects/Instruments/flute.png",295,49,288,0.9,"stim/11.jpeg",1,1,3,2,"Instruments",2,4,"right","left",0.74000001,0,0,1,0,NA,NA,NA,NA,NA,NA,NA,NA,NA,NA,NA,NA,NA,NA,NA,NA,NA,NA,NA,NA,NA,NA,NA,NA
"415","stim/objects/Instruments/banjo.png",296,49,289,0.5,"stim/34.jpeg",3,4,1,2,"Instruments",2,3,"right","right",0.758000135,1,1,1,0,NA,NA,NA,NA,NA,NA,NA,NA,NA,NA,NA,NA,NA,NA,NA,NA,NA,NA,NA,NA,NA,NA,NA,NA
"331","stim/objects/HouseObjects/flyswatter.png",297,49,290,0.9,"stim/21.jpeg",2,1,3,2,"HouseObjects",1,3,"left","left",0.65199995,1,1,1,0,NA,NA,NA,NA,NA,NA,NA,NA,NA,NA,NA,NA,NA,NA,NA,NA,NA,NA,NA,NA,NA,NA,NA,NA
"446","stim/objects/Instruments/drums.png",298,49,291,0.7,"stim/51.jpeg",5,1,2,2,"Instruments",2,2,"right","right",0.744999886,1,1,1,0,NA,NA,NA,NA,NA,NA,NA,NA,NA,NA,NA,NA,NA,NA,NA,NA,NA,NA,NA,NA,NA,NA,NA,NA
"332","stim/objects/HouseObjects/flyswatter.png",299,49,292,0.9,"stim/24.jpeg",2,4,3,2,"HouseObjects",1,4,"left","left",0.741999865,1,1,1,0,NA,NA,NA,NA,NA,NA,NA,NA,NA,NA,NA,NA,NA,NA,NA,NA,NA,NA,NA,NA,NA,NA,NA,NA
"528","stim/objects/Instruments/grandpiano.png",300,49,293,0.9,"stim/14.jpeg",1,4,3,2,"Instruments",2,2,"right","right",0.930999994,1,1,1,0,NA,NA,NA,NA,NA,NA,NA,NA,NA,NA,NA,NA,NA,NA,NA,NA,NA,NA,NA,NA,NA,NA,NA,NA
"287","stim/objects/HouseObjects/dishsoap.png",301,49,294,0.7,"stim/62.jpeg",6,2,2,2,"HouseObjects",1,1,"left","left",0.843000174,1,1,1,0,NA,NA,NA,NA,NA,NA,NA,NA,NA,NA,NA,NA,NA,NA,NA,NA,NA,NA,NA,NA,NA,NA,NA,NA
"333","stim/objects/HouseObjects/flyswatter.png",302,49,295,0.9,"stim/23.jpeg",2,3,3,2,"HouseObjects",1,4,"left","left",0.74000001,1,1,1,0,NA,NA,NA,NA,NA,NA,NA,NA,NA,NA,NA,NA,NA,NA,NA,NA,NA,NA,NA,NA,NA,NA,NA,NA
"394","stim/objects/HouseObjects/match.png",303,49,296,0.5,"stim/41.jpeg",4,1,1,1,"HouseObjects",1,1,"left","right",0.843999863,0,0,1,0,86,49,1,0.5,2,"stim/41.jpeg",4,1,"stim/41.jpeg",1,"left",1.02699995,3,3,0.343000174,3,0.487999916,86,1,0,0,0,0,0
"406","stim/objects/Instruments/accordion.png",304,49,297,0.5,"stim/34.jpeg",3,4,1,2,"Instruments",2,1,"right","right",0.666000128,1,1,1,0,NA,NA,NA,NA,NA,NA,NA,NA,NA,NA,NA,NA,NA,NA,NA,NA,NA,NA,NA,NA,NA,NA,NA,NA
"259","stim/objects/HouseObjects/bottle.png",305,49,298,0.5,"stim/41.jpeg",4,1,1,2,"HouseObjects",1,2,"left","left",0.937000036,1,1,1,0,NA,NA,NA,NA,NA,NA,NA,NA,NA,NA,NA,NA,NA,NA,NA,NA,NA,NA,NA,NA,NA,NA,NA,NA
"288","stim/objects/HouseObjects/dishsoap.png",306,49,299,0.7,"stim/63.jpeg",6,3,2,2,"HouseObjects",1,4,"left","right",0.650000095,0,0,1,0,NA,NA,NA,NA,NA,NA,NA,NA,NA,NA,NA,NA,NA,NA,NA,NA,NA,NA,NA,NA,NA,NA,NA,NA
"292","stim/objects/HouseObjects/doormat.png",307,49,300,0.9,"stim/21.jpeg",2,1,3,2,"HouseObjects",1,3,"left","left",0.647000074,1,1,1,0,NA,NA,NA,NA,NA,NA,NA,NA,NA,NA,NA,NA,NA,NA,NA,NA,NA,NA,NA,NA,NA,NA,NA,NA
"361","stim/objects/HouseObjects/glass.png",308,49,301,0.9,"stim/22.jpeg",2,2,3,2,"HouseObjects",1,2,"left","left",0.653000116,1,1,1,0,NA,NA,NA,NA,NA,NA,NA,NA,NA,NA,NA,NA,NA,NA,NA,NA,NA,NA,NA,NA,NA,NA,NA,NA
"460","stim/objects/Instruments/flute.png",309,49,302,0.9,"stim/13.jpeg",1,3,3,2,"Instruments",2,3,"right","left",0.743999958,0,0,1,0,NA,NA,NA,NA,NA,NA,NA,NA,NA,NA,NA,NA,NA,NA,NA,NA,NA,NA,NA,NA,NA,NA,NA,NA
"422","stim/objects/Instruments/bassguitar.png",310,49,303,0.5,"stim/43.jpeg",4,3,1,2,"Instruments",2,4,"right","right",0.844000101,1,1,1,0,NA,NA,NA,NA,NA,NA,NA,NA,NA,NA,NA,NA,NA,NA,NA,NA,NA,NA,NA,NA,NA,NA,NA,NA
"529","stim/objects/Instruments/grandpiano.png",311,49,304,0.9,"stim/14.jpeg",1,4,3,2,"Instruments",2,4,"right","right",0.839999914,1,1,1,0,NA,NA,NA,NA,NA,NA,NA,NA,NA,NA,NA,NA,NA,NA,NA,NA,NA,NA,NA,NA,NA,NA,NA,NA
"461","stim/objects/Instruments/flute.png",312,49,305,0.9,"stim/12.jpeg",1,2,3,2,"Instruments",2,2,"right","right",0.647000074,1,1,1,0,NA,NA,NA,NA,NA,NA,NA,NA,NA,NA,NA,NA,NA,NA,NA,NA,NA,NA,NA,NA,NA,NA,NA,NA
"530","stim/objects/Instruments/grandpiano.png",313,49,306,0.9,"stim/13.jpeg",1,3,3,2,"Instruments",2,2,"right","right",0.661000013,1,1,1,0,NA,NA,NA,NA,NA,NA,NA,NA,NA,NA,NA,NA,NA,NA,NA,NA,NA,NA,NA,NA,NA,NA,NA,NA
"362","stim/objects/HouseObjects/glass.png",314,49,307,0.9,"stim/24.jpeg",2,4,3,2,"HouseObjects",1,4,"left","left",0.828999996,1,1,1,0,NA,NA,NA,NA,NA,NA,NA,NA,NA,NA,NA,NA,NA,NA,NA,NA,NA,NA,NA,NA,NA,NA,NA,NA
"553","stim/objects/Instruments/maraca.png",315,49,308,0.5,"stim/41.jpeg",4,1,1,1,"Instruments",2,3,"right","left",0.739000082,0,0,1,0,21,49,1,0.5,2,"stim/41.jpeg",4,1,"stim/41.jpeg",3,"left",1.715999842,4,3,1.126999855,3,2.105999947,21,1,0,0,1,1,0
"363","stim/objects/HouseObjects/glass.png",316,49,309,0.9,"stim/23.jpeg",2,3,3,2,"HouseObjects",1,3,"left","left",0.843999863,1,1,1,0,NA,NA,NA,NA,NA,NA,NA,NA,NA,NA,NA,NA,NA,NA,NA,NA,NA,NA,NA,NA,NA,NA,NA,NA
"399","stim/objects/HouseObjects/pitcher2.png",317,49,310,0.9,"stim/23.jpeg",2,3,3,1,"HouseObjects",1,2,"left","left",0.645999908,1,1,1,0,20,49,1,0.9,1,"stim/23.jpeg",2,3,"stim/23.jpeg",2,"left",1.289000034,4,2,1.137000084,2,0.715000153,20,1,0,0,1,1,0
"294","stim/objects/HouseObjects/doormat.png",318,49,311,0.9,"stim/24.jpeg",2,4,3,2,"HouseObjects",1,2,"left","left",0.845999956,1,1,1,0,NA,NA,NA,NA,NA,NA,NA,NA,NA,NA,NA,NA,NA,NA,NA,NA,NA,NA,NA,NA,NA,NA,NA,NA
"452","stim/objects/Instruments/electricguitar.png",319,49,312,0.7,"stim/51.jpeg",5,1,2,2,"Instruments",2,1,"right","right",0.844000101,1,1,1,0,NA,NA,NA,NA,NA,NA,NA,NA,NA,NA,NA,NA,NA,NA,NA,NA,NA,NA,NA,NA,NA,NA,NA,NA
"364","stim/objects/HouseObjects/glass.png",320,49,313,0.9,"stim/22.jpeg",2,2,3,2,"HouseObjects",1,3,"left","left",0.746000051,1,1,1,0,NA,NA,NA,NA,NA,NA,NA,NA,NA,NA,NA,NA,NA,NA,NA,NA,NA,NA,NA,NA,NA,NA,NA,NA
"295","stim/objects/HouseObjects/doormat.png",321,49,314,0.9,"stim/22.jpeg",2,2,3,2,"HouseObjects",1,1,"left","left",0.651000023,1,1,1,0,NA,NA,NA,NA,NA,NA,NA,NA,NA,NA,NA,NA,NA,NA,NA,NA,NA,NA,NA,NA,NA,NA,NA,NA
"254","stim/objects/HouseObjects/bleachbottle.png",322,49,315,0.5,"stim/32.jpeg",3,2,1,2,"HouseObjects",1,3,"left","right",0.938999891,0,0,1,0,NA,NA,NA,NA,NA,NA,NA,NA,NA,NA,NA,NA,NA,NA,NA,NA,NA,NA,NA,NA,NA,NA,NA,NA
"476","stim/objects/Instruments/flutetrans.png",323,49,316,0.9,"stim/12.jpeg",1,2,3,2,"Instruments",2,1,"right","",NA,0,0,1,0,NA,NA,NA,NA,NA,NA,NA,NA,NA,NA,NA,NA,NA,NA,NA,NA,NA,NA,NA,NA,NA,NA,NA,NA
"492","stim/objects/Instruments/frenchhorn.png",324,49,317,0.9,"stim/14.jpeg",1,4,3,2,"Instruments",2,1,"right","right",0.55700016,1,1,1,0,NA,NA,NA,NA,NA,NA,NA,NA,NA,NA,NA,NA,NA,NA,NA,NA,NA,NA,NA,NA,NA,NA,NA,NA
"477","stim/objects/Instruments/flutetrans.png",325,49,318,0.9,"stim/12.jpeg",1,2,3,2,"Instruments",2,3,"right","right",0.656000137,1,1,1,0,NA,NA,NA,NA,NA,NA,NA,NA,NA,NA,NA,NA,NA,NA,NA,NA,NA,NA,NA,NA,NA,NA,NA,NA
"249","stim/objects/HouseObjects/barbecuelighter2.png",326,49,319,0.3,"stim/54.jpeg",5,4,2,1,"HouseObjects",1,1,"left","right",0.849999905,0,0,1,0,33,49,1,0.3,1,"stim/54.jpeg",5,4,"stim/54.jpeg",1,"left",1.076999903,4,4,2.450000048,4,1.057999849,33,1,1,1,0,0,0
"274","stim/objects/HouseObjects/clothesdryingrack2.png",327,49,320,0.7,"stim/61.jpeg",6,1,2,1,"HouseObjects",1,4,"left","left",0.838000059,1,1,1,0,58,49,1,0.7,1,"stim/61.jpeg",6,1,"stim/61.jpeg",4,"right",1.560000181,2,2,0.562999964,2,0.314999819,58,0,0,NA,0,NA,0
"548","stim/objects/Instruments/hihat2.png",328,49,321,0.9,"stim/13.jpeg",1,3,3,1,"Instruments",2,3,"right","left",0.662000179,0,0,1,0,61,49,1,0.9,2,"stim/13.jpeg",1,3,"stim/13.jpeg",3,"left",1.384000063,3,3,0.368000031,3,0.470999956,61,1,1,1,1,1,0
"296","stim/objects/HouseObjects/doormat.png",329,49,322,0.9,"stim/21.jpeg",2,1,3,2,"HouseObjects",1,3,"left","left",0.745000124,1,1,1,0,NA,NA,NA,NA,NA,NA,NA,NA,NA,NA,NA,NA,NA,NA,NA,NA,NA,NA,NA,NA,NA,NA,NA,NA
"297","stim/objects/HouseObjects/doormat.png",330,49,323,0.9,"stim/22.jpeg",2,2,3,2,"HouseObjects",1,4,"left","left",0.927000046,1,1,1,0,NA,NA,NA,NA,NA,NA,NA,NA,NA,NA,NA,NA,NA,NA,NA,NA,NA,NA,NA,NA,NA,NA,NA,NA
"552","stim/objects/Instruments/laud2.png",331,49,324,0.1,"stim/23.jpeg",2,3,3,1,"Instruments",2,4,"right","left",0.743000031,0,0,1,0,19,49,1,0.1,2,"stim/23.jpeg",2,3,"stim/23.jpeg",4,"left",1.125999928,3,4,1.208000183,4,0.947999954,19,1,0,0,1,1,0
"403","stim/objects/HouseObjects/remote2.png",332,49,325,0.9,"stim/21.jpeg",2,1,3,1,"HouseObjects",1,2,"left","left",0.755000114,1,1,1,0,39,49,1,0.9,1,"stim/21.jpeg",2,1,"stim/21.jpeg",2,"left",0.886999846,2,2,1.571000099,2,0.559000015,39,1,0,0,1,1,0
"341","stim/objects/HouseObjects/flyswatter2.png",333,49,326,0.1,"stim/13.jpeg",1,3,3,1,"HouseObjects",1,3,"left","left",0.947000027,1,1,1,0,60,49,1,0.1,1,"stim/13.jpeg",1,3,"stim/13.jpeg",3,"left",1.387000084,2,2,0.394999981,2,0.272000074,60,1,0,0,0,0,0
"298","stim/objects/HouseObjects/doormat.png",334,49,327,0.9,"stim/24.jpeg",2,4,3,2,"HouseObjects",1,4,"left","left",0.8349998,1,1,1,0,NA,NA,NA,NA,NA,NA,NA,NA,NA,NA,NA,NA,NA,NA,NA,NA,NA,NA,NA,NA,NA,NA,NA,NA
"345","stim/objects/HouseObjects/garbagebin.png",335,49,328,0.9,"stim/22.jpeg",2,2,3,2,"HouseObjects",1,2,"left","right",0.845000029,0,0,1,0,NA,NA,NA,NA,NA,NA,NA,NA,NA,NA,NA,NA,NA,NA,NA,NA,NA,NA,NA,NA,NA,NA,NA,NA
"268","stim/objects/HouseObjects/clock.png",336,49,329,0.5,"stim/43.jpeg",4,3,1,2,"HouseObjects",1,1,"left","right",0.828999996,0,0,1,0,NA,NA,NA,NA,NA,NA,NA,NA,NA,NA,NA,NA,NA,NA,NA,NA,NA,NA,NA,NA,NA,NA,NA,NA
"334","stim/objects/HouseObjects/flyswatter.png",337,49,330,0.9,"stim/24.jpeg",2,4,3,2,"HouseObjects",1,3,"left","left",0.66899991,1,1,1,0,NA,NA,NA,NA,NA,NA,NA,NA,NA,NA,NA,NA,NA,NA,NA,NA,NA,NA,NA,NA,NA,NA,NA,NA
"258","stim/objects/HouseObjects/blender2.png",338,49,331,0.7,"stim/64.jpeg",6,4,2,1,"HouseObjects",1,2,"left","left",0.747999907,1,1,1,0,182,49,1,0.7,1,"stim/64.jpeg",6,4,"stim/64.jpeg",2,"left",1.226000071,4,4,0.305000067,4,0.309000015,182,1,1,1,0,0,0
"358","stim/objects/HouseObjects/garbagebin2.png",339,49,332,0.1,"stim/14.jpeg",1,4,3,1,"HouseObjects",1,3,"left","left",0.752000093,1,1,1,0,53,49,1,0.1,1,"stim/14.jpeg",1,4,"stim/14.jpeg",3,"left",1.041000128,3,2,1.132999897,2,0.784000158,53,1,0,0,0,0,0
"512","stim/objects/Instruments/gong.png",340,49,333,0.9,"stim/14.jpeg",1,4,3,2,"Instruments",2,1,"right","right",0.855000019,1,1,1,0,NA,NA,NA,NA,NA,NA,NA,NA,NA,NA,NA,NA,NA,NA,NA,NA,NA,NA,NA,NA,NA,NA,NA,NA
"289","stim/objects/HouseObjects/dishsoap.png",341,49,334,0.7,"stim/61.jpeg",6,1,2,2,"HouseObjects",1,3,"left","left",0.744999886,1,1,1,0,NA,NA,NA,NA,NA,NA,NA,NA,NA,NA,NA,NA,NA,NA,NA,NA,NA,NA,NA,NA,NA,NA,NA,NA
"425","stim/objects/Instruments/cello.png",342,49,335,0.5,"stim/43.jpeg",4,3,1,2,"Instruments",2,2,"right","left",0.829999924,0,0,1,0,NA,NA,NA,NA,NA,NA,NA,NA,NA,NA,NA,NA,NA,NA,NA,NA,NA,NA,NA,NA,NA,NA,NA,NA
"379","stim/objects/HouseObjects/hairdryer2.png",343,49,336,0.1,"stim/13.jpeg",1,3,3,1,"HouseObjects",1,4,"left","right",0.855999947,0,0,1,0,11,49,1,0.1,1,"stim/13.jpeg",1,3,"stim/13.jpeg",4,"left",1.035000086,3,2,1.288000107,1,1.151000023,11,1,0,0,0,0,0
"543","stim/objects/Instruments/harmonica.png",344,49,337,0.5,"stim/33.jpeg",3,3,1,1,"Instruments",2,3,"right","right",0.739000082,1,1,1,0,127,49,1,0.5,1,"stim/33.jpeg",3,3,"stim/33.jpeg",3,"left",2.175000191,2,2,0.621999979,2,0.303999901,127,1,0,0,0,0,0
"531","stim/objects/Instruments/grandpiano.png",345,49,338,0.9,"stim/14.jpeg",1,4,3,2,"Instruments",2,2,"right","",NA,0,0,1,0,NA,NA,NA,NA,NA,NA,NA,NA,NA,NA,NA,NA,NA,NA,NA,NA,NA,NA,NA,NA,NA,NA,NA,NA
"389","stim/objects/HouseObjects/key2.png",346,49,339,0.9,"stim/22.jpeg",2,2,3,1,"HouseObjects",1,3,"left","left",0.756999969,1,1,1,0,199,49,1,0.9,1,"stim/22.jpeg",2,2,"stim/22.jpeg",3,"right",1.062000036,2,2,0.489000082,2,0.201999903,199,0,1,NA,0,NA,0
"506","stim/objects/Instruments/frenchhorn2.png",347,49,340,0.9,"stim/11.jpeg",1,1,3,1,"Instruments",2,1,"right","right",0.742999792,1,1,1,0,196,49,1,0.9,2,"stim/11.jpeg",1,1,"stim/11.jpeg",1,"left",1.065000057,4,4,0.268000126,4,0.42200017,196,1,0,0,0,0,0
"286","stim/objects/HouseObjects/cushion2.png",348,49,341,0.7,"stim/64.jpeg",6,4,2,1,"HouseObjects",1,3,"left","left",0.739000082,1,1,1,0,65,49,1,0.7,1,"stim/64.jpeg",6,4,"stim/64.jpeg",3,"left",2.387000084,2,2,0.75999999,2,0.381999969,65,1,0,0,0,0,0
"513","stim/objects/Instruments/gong.png",349,49,342,0.9,"stim/11.jpeg",1,1,3,2,"Instruments",2,2,"right","right",0.648999929,1,1,1,0,NA,NA,NA,NA,NA,NA,NA,NA,NA,NA,NA,NA,NA,NA,NA,NA,NA,NA,NA,NA,NA,NA,NA,NA
"551","stim/objects/Instruments/laud.png",350,49,343,0.5,"stim/44.jpeg",4,4,1,1,"Instruments",2,1,"right","right",0.84499979,1,1,1,0,144,49,1,0.5,2,"stim/44.jpeg",4,4,"stim/44.jpeg",1,"left",1.207000017,3,3,0.290999889,3,0.325999975,144,1,0,0,0,0,0
"533","stim/objects/Instruments/grandpiano.png",351,49,344,0.9,"stim/11.jpeg",1,1,3,2,"Instruments",2,1,"right","right",0.648999929,1,1,1,0,NA,NA,NA,NA,NA,NA,NA,NA,NA,NA,NA,NA,NA,NA,NA,NA,NA,NA,NA,NA,NA,NA,NA,NA
"271","stim/objects/HouseObjects/clothesdryingrack.png",352,49,345,0.7,"stim/61.jpeg",6,1,2,2,"HouseObjects",1,2,"left","left",0.664000034,1,1,1,0,NA,NA,NA,NA,NA,NA,NA,NA,NA,NA,NA,NA,NA,NA,NA,NA,NA,NA,NA,NA,NA,NA,NA,NA
"335","stim/objects/HouseObjects/flyswatter.png",353,49,346,0.9,"stim/21.jpeg",2,1,3,2,"HouseObjects",1,3,"left","left",0.826999903,1,1,1,0,NA,NA,NA,NA,NA,NA,NA,NA,NA,NA,NA,NA,NA,NA,NA,NA,NA,NA,NA,NA,NA,NA,NA,NA
"390","stim/objects/HouseObjects/knife.png",354,49,347,0.5,"stim/43.jpeg",4,3,1,1,"HouseObjects",1,1,"left","right",0.84100008,0,0,1,0,161,49,1,0.5,2,"stim/43.jpeg",4,3,"stim/43.jpeg",1,"right",1.431999922,2,2,0.234999895,2,0.267999887,161,0,0,NA,0,NA,0
"347","stim/objects/HouseObjects/garbagebin.png",355,49,348,0.9,"stim/21.jpeg",2,1,3,2,"HouseObjects",1,3,"left","left",0.738999844,1,1,1,0,NA,NA,NA,NA,NA,NA,NA,NA,NA,NA,NA,NA,NA,NA,NA,NA,NA,NA,NA,NA,NA,NA,NA,NA
"402","stim/objects/HouseObjects/remote.png",356,49,349,0.3,"stim/54.jpeg",5,4,2,1,"HouseObjects",1,3,"left","left",0.744999886,1,1,1,0,48,49,1,0.3,1,"stim/54.jpeg",5,4,"stim/54.jpeg",3,"right",1.128000021,2,2,1.111999989,2,0.85800004,48,0,0,NA,0,NA,0
"293","stim/objects/HouseObjects/doormat.png",357,49,350,0.9,"stim/24.jpeg",2,4,3,2,"HouseObjects",1,3,"left","left",0.74000001,1,1,1,0,NA,NA,NA,NA,NA,NA,NA,NA,NA,NA,NA,NA,NA,NA,NA,NA,NA,NA,NA,NA,NA,NA,NA,NA
"561","stim/objects/Instruments/musicstand.png",358,49,351,0.7,"stim/52.jpeg",5,2,2,1,"Instruments",2,2,"right","right",0.74000001,1,1,1,0,137,49,1,0.7,2,"stim/52.jpeg",5,2,"stim/52.jpeg",2,"left",1.164999962,3,3,0.358999968,3,0.531999826,137,1,0,0,0,0,0
"480","stim/objects/Instruments/flutetrans.png",359,49,352,0.9,"stim/14.jpeg",1,4,3,2,"Instruments",2,4,"right","right",0.747999907,1,1,1,0,NA,NA,NA,NA,NA,NA,NA,NA,NA,NA,NA,NA,NA,NA,NA,NA,NA,NA,NA,NA,NA,NA,NA,NA
"514","stim/objects/Instruments/gong.png",360,49,353,0.9,"stim/13.jpeg",1,3,3,2,"Instruments",2,2,"right","right",0.648999929,1,1,1,0,NA,NA,NA,NA,NA,NA,NA,NA,NA,NA,NA,NA,NA,NA,NA,NA,NA,NA,NA,NA,NA,NA,NA,NA
"462","stim/objects/Instruments/flute.png",361,49,354,0.9,"stim/13.jpeg",1,3,3,2,"Instruments",2,2,"right","right",0.568000078,1,1,1,0,NA,NA,NA,NA,NA,NA,NA,NA,NA,NA,NA,NA,NA,NA,NA,NA,NA,NA,NA,NA,NA,NA,NA,NA
"366","stim/objects/HouseObjects/glass.png",362,49,355,0.9,"stim/21.jpeg",2,1,3,2,"HouseObjects",1,1,"left","left",0.744000196,1,1,1,0,NA,NA,NA,NA,NA,NA,NA,NA,NA,NA,NA,NA,NA,NA,NA,NA,NA,NA,NA,NA,NA,NA,NA,NA
"336","stim/objects/HouseObjects/flyswatter.png",363,49,356,0.9,"stim/24.jpeg",2,4,3,2,"HouseObjects",1,1,"left","left",0.656000137,1,1,1,0,NA,NA,NA,NA,NA,NA,NA,NA,NA,NA,NA,NA,NA,NA,NA,NA,NA,NA,NA,NA,NA,NA,NA,NA
"449","stim/objects/Instruments/electricdrumset.png",364,49,357,0.7,"stim/52.jpeg",5,2,2,2,"Instruments",2,3,"right","right",0.756000042,1,1,1,0,NA,NA,NA,NA,NA,NA,NA,NA,NA,NA,NA,NA,NA,NA,NA,NA,NA,NA,NA,NA,NA,NA,NA,NA
"463","stim/objects/Instruments/flute.png",365,49,358,0.9,"stim/14.jpeg",1,4,3,2,"Instruments",2,4,"right","right",0.656000137,1,1,1,0,NA,NA,NA,NA,NA,NA,NA,NA,NA,NA,NA,NA,NA,NA,NA,NA,NA,NA,NA,NA,NA,NA,NA,NA
"276","stim/objects/HouseObjects/clothespin.png",366,49,359,0.7,"stim/63.jpeg",6,3,2,2,"HouseObjects",1,2,"left","left",0.736000061,1,1,1,0,NA,NA,NA,NA,NA,NA,NA,NA,NA,NA,NA,NA,NA,NA,NA,NA,NA,NA,NA,NA,NA,NA,NA,NA
"478","stim/objects/Instruments/flutetrans.png",367,49,360,0.9,"stim/12.jpeg",1,2,3,2,"Instruments",2,4,"right","right",0.93200016,1,1,1,0,NA,NA,NA,NA,NA,NA,NA,NA,NA,NA,NA,NA,NA,NA,NA,NA,NA,NA,NA,NA,NA,NA,NA,NA
"413","stim/objects/Instruments/balalaika.png",368,49,361,0.5,"stim/32.jpeg",3,2,1,2,"Instruments",2,1,"right","right",0.822999954,1,1,1,0,NA,NA,NA,NA,NA,NA,NA,NA,NA,NA,NA,NA,NA,NA,NA,NA,NA,NA,NA,NA,NA,NA,NA,NA
"550","stim/objects/Instruments/keyboard2.png",369,49,362,0.9,"stim/14.jpeg",1,4,3,1,"Instruments",2,2,"right","right",0.65199995,1,1,1,0,69,49,1,0.9,2,"stim/14.jpeg",1,4,"stim/14.jpeg",2,"left",1.058000088,4,3,1.350999832,4,1.04700017,69,1,0,0,0,0,0
"482","stim/objects/Instruments/flutetrans.png",370,49,363,0.9,"stim/12.jpeg",1,2,3,2,"Instruments",2,1,"right","right",0.739000082,1,1,1,0,NA,NA,NA,NA,NA,NA,NA,NA,NA,NA,NA,NA,NA,NA,NA,NA,NA,NA,NA,NA,NA,NA,NA,NA
"247","stim/objects/HouseObjects/barbecuelighter.png",371,49,364,0.5,"stim/33.jpeg",3,3,1,2,"HouseObjects",1,2,"left","right",0.748999834,0,0,1,0,NA,NA,NA,NA,NA,NA,NA,NA,NA,NA,NA,NA,NA,NA,NA,NA,NA,NA,NA,NA,NA,NA,NA,NA
"507","stim/objects/Instruments/gong.png",372,49,365,0.9,"stim/14.jpeg",1,4,3,2,"Instruments",2,3,"right","right",0.752000093,1,1,1,0,NA,NA,NA,NA,NA,NA,NA,NA,NA,NA,NA,NA,NA,NA,NA,NA,NA,NA,NA,NA,NA,NA,NA,NA
"375","stim/objects/HouseObjects/glass2.png",373,49,366,0.1,"stim/11.jpeg",1,1,3,1,"HouseObjects",1,4,"left","right",0.743000031,0,0,1,0,83,49,1,0.1,1,"stim/11.jpeg",1,1,"stim/11.jpeg",4,"left",1.657000065,2,2,0.545000076,2,0.306999922,83,1,0,0,0,0,0
"423","stim/objects/Instruments/bassguitar2.png",374,49,367,0.3,"stim/62.jpeg",6,2,2,1,"Instruments",2,3,"right","left",0.753000021,0,0,1,0,162,49,1,0.3,2,"stim/62.jpeg",6,2,"stim/62.jpeg",3,"right",3.664000034,2,2,0.221999884,2,0.345000029,162,0,1,NA,0,NA,0
"568","stim/objects/Instruments/pipepiano2.png",375,49,368,0.1,"stim/23.jpeg",2,3,3,1,"Instruments",2,3,"right","left",0.744999886,0,0,1,0,171,49,1,0.1,2,"stim/23.jpeg",2,3,"stim/23.jpeg",3,"left",1.796000004,4,4,0.271000147,4,0.208999872,171,1,0,0,0,0,0
"483","stim/objects/Instruments/flutetrans.png",376,49,369,0.9,"stim/14.jpeg",1,4,3,2,"Instruments",2,1,"right","left",0.737999916,0,0,1,0,NA,NA,NA,NA,NA,NA,NA,NA,NA,NA,NA,NA,NA,NA,NA,NA,NA,NA,NA,NA,NA,NA,NA,NA
"473","stim/objects/Instruments/flutetrans.png",377,49,370,0.9,"stim/11.jpeg",1,1,3,2,"Instruments",2,3,"right","right",0.656000137,1,1,1,0,NA,NA,NA,NA,NA,NA,NA,NA,NA,NA,NA,NA,NA,NA,NA,NA,NA,NA,NA,NA,NA,NA,NA,NA
"382","stim/objects/HouseObjects/handvacuum.png",378,49,371,0.5,"stim/32.jpeg",3,2,1,1,"HouseObjects",1,2,"left","right",0.750999928,0,0,1,0,23,49,1,0.5,1,"stim/32.jpeg",3,2,"stim/32.jpeg",2,"right",1.966999769,2,1,3.539999962,2,1.352999926,23,0,0,NA,1,NA,0
"448","stim/objects/Instruments/electricdrumset.png",379,49,372,0.7,"stim/53.jpeg",5,3,2,2,"Instruments",2,2,"right","right",0.829000235,1,1,1,0,NA,NA,NA,NA,NA,NA,NA,NA,NA,NA,NA,NA,NA,NA,NA,NA,NA,NA,NA,NA,NA,NA,NA,NA
"385","stim/objects/HouseObjects/iron2.png",380,49,373,0.1,"stim/12.jpeg",1,2,3,1,"HouseObjects",1,4,"left","right",0.647000074,0,0,1,0,119,49,1,0.1,1,"stim/12.jpeg",1,2,"stim/12.jpeg",4,"right",1.04399991,2,2,0.588999987,2,0.306999922,119,0,1,NA,0,NA,0
"525","stim/objects/Instruments/grandpiano.png",381,49,374,0.9,"stim/12.jpeg",1,2,3,2,"Instruments",2,2,"right","right",0.927000046,1,1,1,0,NA,NA,NA,NA,NA,NA,NA,NA,NA,NA,NA,NA,NA,NA,NA,NA,NA,NA,NA,NA,NA,NA,NA,NA
"316","stim/objects/HouseObjects/dustpan.png",382,49,375,0.9,"stim/22.jpeg",2,2,3,2,"HouseObjects",1,1,"left","left",0.74000001,1,1,1,0,NA,NA,NA,NA,NA,NA,NA,NA,NA,NA,NA,NA,NA,NA,NA,NA,NA,NA,NA,NA,NA,NA,NA,NA
"566","stim/objects/Instruments/panflute2.png",383,49,376,0.1,"stim/22.jpeg",2,2,3,1,"Instruments",2,1,"right","left",0.65199995,0,0,1,0,109,49,1,0.1,2,"stim/22.jpeg",2,2,"stim/22.jpeg",1,"right",3.052000046,2,2,0.75999999,2,0.298000097,109,0,1,NA,0,NA,0
"380","stim/objects/HouseObjects/handbrush.png",384,49,377,0.5,"stim/31.jpeg",3,1,1,1,"HouseObjects",1,4,"left","right",0.832999945,0,0,1,0,84,49,1,0.5,1,"stim/31.jpeg",3,1,"stim/31.jpeg",4,"left",1.17599988,3,3,0.450999975,3,0.161999941,84,1,0,0,0,0,0
"484","stim/objects/Instruments/flutetrans.png",385,49,378,0.9,"stim/14.jpeg",1,4,3,2,"Instruments",2,3,"right","right",0.643999815,1,1,1,0,NA,NA,NA,NA,NA,NA,NA,NA,NA,NA,NA,NA,NA,NA,NA,NA,NA,NA,NA,NA,NA,NA,NA,NA
"457","stim/objects/Instruments/flute.png",386,49,379,0.9,"stim/14.jpeg",1,4,3,2,"Instruments",2,2,"right","right",0.745999813,1,1,1,0,NA,NA,NA,NA,NA,NA,NA,NA,NA,NA,NA,NA,NA,NA,NA,NA,NA,NA,NA,NA,NA,NA,NA,NA
"369","stim/objects/HouseObjects/glass.png",387,49,380,0.9,"stim/22.jpeg",2,2,3,2,"HouseObjects",1,4,"left","right",0.64199996,0,0,1,0,NA,NA,NA,NA,NA,NA,NA,NA,NA,NA,NA,NA,NA,NA,NA,NA,NA,NA,NA,NA,NA,NA,NA,NA
"315","stim/objects/HouseObjects/dustpan.png",388,49,381,0.9,"stim/21.jpeg",2,1,3,2,"HouseObjects",1,4,"left","left",0.736000061,1,1,1,0,NA,NA,NA,NA,NA,NA,NA,NA,NA,NA,NA,NA,NA,NA,NA,NA,NA,NA,NA,NA,NA,NA,NA,NA
"408","stim/objects/Instruments/accordion2.png",389,49,382,0.7,"stim/53.jpeg",5,3,2,1,"Instruments",2,4,"right","left",0.742000103,0,0,1,0,78,49,1,0.7,2,"stim/53.jpeg",5,3,"stim/53.jpeg",4,"left",1.299000025,4,3,1.038999796,3,0.901000023,78,1,1,1,0,0,0
"498","stim/objects/Instruments/frenchhorn.png",390,49,383,0.9,"stim/13.jpeg",1,3,3,2,"Instruments",2,1,"right","right",0.738999844,1,1,1,0,NA,NA,NA,NA,NA,NA,NA,NA,NA,NA,NA,NA,NA,NA,NA,NA,NA,NA,NA,NA,NA,NA,NA,NA
"499","stim/objects/Instruments/frenchhorn.png",391,49,384,0.9,"stim/12.jpeg",1,2,3,2,"Instruments",2,2,"right","right",0.567000151,1,1,1,0,NA,NA,NA,NA,NA,NA,NA,NA,NA,NA,NA,NA,NA,NA,NA,NA,NA,NA,NA,NA,NA,NA,NA,NA
"391","stim/objects/HouseObjects/knife2.png",392,49,385,0.9,"stim/23.jpeg",2,3,3,1,"HouseObjects",1,3,"left","right",0.64199996,0,0,1,0,3,49,1,0.9,1,"stim/23.jpeg",2,3,"stim/23.jpeg",3,"left",1.526000023,3,3,4.501999855,3,1.361000061,3,1,1,1,1,1,0
"377","stim/objects/HouseObjects/glassmop2.png",393,49,386,0.1,"stim/12.jpeg",1,2,3,1,"HouseObjects",1,3,"left","right",0.737999916,0,0,1,0,107,49,1,0.1,1,"stim/12.jpeg",1,2,"stim/12.jpeg",3,"left",0.994999886,3,3,0.6650002,3,0.259000063,107,1,0,0,1,1,0
"417","stim/objects/Instruments/banjo2.png",394,49,387,0.7,"stim/52.jpeg",5,2,2,1,"Instruments",2,1,"right","right",0.827000141,1,1,1,0,164,49,1,0.7,2,"stim/52.jpeg",5,2,"stim/52.jpeg",1,"left",1.430999994,3,3,0.174999952,3,0.259000063,164,1,0,0,0,0,0
"244","stim/objects/HouseObjects/ballofstring.png",395,49,388,0.5,"stim/32.jpeg",3,2,1,2,"HouseObjects",1,3,"left","right",0.750999928,0,0,1,0,NA,NA,NA,NA,NA,NA,NA,NA,NA,NA,NA,NA,NA,NA,NA,NA,NA,NA,NA,NA,NA,NA,NA,NA
"479","stim/objects/Instruments/flutetrans.png",396,49,389,0.9,"stim/11.jpeg",1,1,3,2,"Instruments",2,3,"right","right",0.648000002,1,1,1,0,NA,NA,NA,NA,NA,NA,NA,NA,NA,NA,NA,NA,NA,NA,NA,NA,NA,NA,NA,NA,NA,NA,NA,NA
"558","stim/objects/Instruments/metronome2.png",397,49,390,0.1,"stim/22.jpeg",2,2,3,1,"Instruments",2,3,"right","left",0.733999968,0,0,1,0,14,49,1,0.1,2,"stim/22.jpeg",2,2,"stim/22.jpeg",3,"left",1.128000021,4,1,3.222999811,4,1.315999985,14,1,0,0,0,0,0
"397","stim/objects/HouseObjects/pan2.png",398,49,391,0.9,"stim/22.jpeg",2,2,3,1,"HouseObjects",1,3,"left","left",0.568000078,1,1,1,0,132,49,1,0.9,1,"stim/22.jpeg",2,2,"stim/22.jpeg",3,"right",0.713000059,2,2,0.463000059,2,0.263999939,132,0,1,NA,0,NA,0
"416","stim/objects/Instruments/banjo.png",399,49,392,0.5,"stim/33.jpeg",3,3,1,2,"Instruments",2,2,"right","right",0.647000074,1,1,1,0,NA,NA,NA,NA,NA,NA,NA,NA,NA,NA,NA,NA,NA,NA,NA,NA,NA,NA,NA,NA,NA,NA,NA,NA
"371","stim/objects/HouseObjects/glass.png",400,49,393,0.9,"stim/23.jpeg",2,3,3,2,"HouseObjects",1,1,"left","left",0.739000082,1,1,1,0,NA,NA,NA,NA,NA,NA,NA,NA,NA,NA,NA,NA,NA,NA,NA,NA,NA,NA,NA,NA,NA,NA,NA,NA
"329","stim/objects/HouseObjects/flyswatter.png",401,49,394,0.9,"stim/23.jpeg",2,3,3,2,"HouseObjects",1,1,"left","left",0.566999912,1,1,1,0,NA,NA,NA,NA,NA,NA,NA,NA,NA,NA,NA,NA,NA,NA,NA,NA,NA,NA,NA,NA,NA,NA,NA,NA
"536","stim/objects/Instruments/grandpiano.png",402,49,395,0.9,"stim/11.jpeg",1,1,3,2,"Instruments",2,3,"right","right",0.664000034,1,1,1,0,NA,NA,NA,NA,NA,NA,NA,NA,NA,NA,NA,NA,NA,NA,NA,NA,NA,NA,NA,NA,NA,NA,NA,NA
"312","stim/objects/HouseObjects/dustpan.png",403,49,396,0.9,"stim/23.jpeg",2,3,3,2,"HouseObjects",1,4,"left","right",0.733999968,0,0,1,0,NA,NA,NA,NA,NA,NA,NA,NA,NA,NA,NA,NA,NA,NA,NA,NA,NA,NA,NA,NA,NA,NA,NA,NA
"337","stim/objects/HouseObjects/flyswatter.png",404,49,397,0.9,"stim/22.jpeg",2,2,3,2,"HouseObjects",1,3,"left","left",0.674000025,1,1,1,0,NA,NA,NA,NA,NA,NA,NA,NA,NA,NA,NA,NA,NA,NA,NA,NA,NA,NA,NA,NA,NA,NA,NA,NA
"378","stim/objects/HouseObjects/hairdryer.png",405,49,398,0.5,"stim/34.jpeg",3,4,1,1,"HouseObjects",1,3,"left","right",0.737999916,0,0,1,0,87,49,1,0.5,1,"stim/34.jpeg",3,4,"stim/34.jpeg",3,"right",1.070000172,2,2,0.404000044,2,0.207000017,87,0,0,NA,0,NA,0
"396","stim/objects/HouseObjects/pan.png",406,49,399,0.3,"stim/51.jpeg",5,1,2,1,"HouseObjects",1,4,"left","right",0.737999916,0,0,1,0,112,49,1,0.3,1,"stim/51.jpeg",5,1,"stim/51.jpeg",4,"right",1.089999914,2,2,0.851999998,2,0.263000011,112,0,0,NA,0,NA,0
"535","stim/objects/Instruments/grandpiano.png",407,49,400,0.9,"stim/11.jpeg",1,1,3,2,"Instruments",2,3,"right","left",0.660000086,0,0,1,0,NA,NA,NA,NA,NA,NA,NA,NA,NA,NA,NA,NA,NA,NA,NA,NA,NA,NA,NA,NA,NA,NA,NA,NA
"538","stim/objects/Instruments/grandpiano.png",408,49,401,0.9,"stim/11.jpeg",1,1,3,2,"Instruments",2,3,"right","right",0.572000027,1,1,1,0,NA,NA,NA,NA,NA,NA,NA,NA,NA,NA,NA,NA,NA,NA,NA,NA,NA,NA,NA,NA,NA,NA,NA,NA
"383","stim/objects/HouseObjects/handvacuum2.png",409,49,402,0.1,"stim/11.jpeg",1,1,3,1,"HouseObjects",1,2,"left","right",0.657999992,0,0,1,0,5,49,1,0.1,1,"stim/11.jpeg",1,1,"stim/11.jpeg",2,"left",1.02699995,4,2,2.691999912,4,2.823999882,5,1,0,0,0,0,0
"555","stim/objects/Instruments/marimba.png",410,49,403,0.5,"stim/42.jpeg",4,2,1,1,"Instruments",2,4,"right","right",0.829999924,1,1,1,0,142,49,1,0.5,2,"stim/42.jpeg",4,2,"stim/42.jpeg",4,"left",1.38499999,3,3,0.4599998,3,0.256999969,142,1,0,0,0,0,0
"267","stim/objects/HouseObjects/bucket2.png",411,49,404,0.7,"stim/63.jpeg",6,3,2,1,"HouseObjects",1,4,"left","left",0.739000082,1,1,1,0,187,49,1,0.7,1,"stim/63.jpeg",6,3,"stim/63.jpeg",4,"left",1.075999975,3,3,0.213999987,3,0.31799984,187,1,1,1,0,0,0
"409","stim/objects/Instruments/acousticguitar.png",412,49,405,0.5,"stim/31.jpeg",3,1,1,2,"Instruments",2,4,"right","right",0.834000111,1,1,1,0,NA,NA,NA,NA,NA,NA,NA,NA,NA,NA,NA,NA,NA,NA,NA,NA,NA,NA,NA,NA,NA,NA,NA,NA
"313","stim/objects/HouseObjects/dustpan.png",413,49,406,0.9,"stim/21.jpeg",2,1,3,2,"HouseObjects",1,3,"left","left",0.924999952,1,1,1,0,NA,NA,NA,NA,NA,NA,NA,NA,NA,NA,NA,NA,NA,NA,NA,NA,NA,NA,NA,NA,NA,NA,NA,NA
"253","stim/objects/HouseObjects/bleachbottle.png",414,49,407,0.5,"stim/31.jpeg",3,1,1,2,"HouseObjects",1,3,"left","",NA,0,0,1,0,NA,NA,NA,NA,NA,NA,NA,NA,NA,NA,NA,NA,NA,NA,NA,NA,NA,NA,NA,NA,NA,NA,NA,NA
"467","stim/objects/Instruments/flute.png",415,49,408,0.9,"stim/12.jpeg",1,2,3,2,"Instruments",2,4,"right","left",0.835999966,0,0,1,0,NA,NA,NA,NA,NA,NA,NA,NA,NA,NA,NA,NA,NA,NA,NA,NA,NA,NA,NA,NA,NA,NA,NA,NA
"485","stim/objects/Instruments/flutetrans.png",416,49,409,0.9,"stim/13.jpeg",1,3,3,2,"Instruments",2,4,"right","right",0.845000029,1,1,1,0,NA,NA,NA,NA,NA,NA,NA,NA,NA,NA,NA,NA,NA,NA,NA,NA,NA,NA,NA,NA,NA,NA,NA,NA
"386","stim/objects/HouseObjects/ironingboard.png",417,49,410,0.5,"stim/41.jpeg",4,1,1,1,"HouseObjects",1,3,"left","right",0.921000004,0,0,1,0,44,49,1,0.5,2,"stim/41.jpeg",4,1,"stim/41.jpeg",3,"left",1.108999968,2,2,1.71600008,3,1.213000059,44,1,0,0,1,1,0
"489","stim/objects/Instruments/flutetrans2.png",418,49,411,0.9,"stim/14.jpeg",1,4,3,1,"Instruments",2,4,"right","right",0.937999964,1,1,1,0,8,49,1,0.9,2,"stim/14.jpeg",1,4,"stim/14.jpeg",4,"left",0.995999813,4,3,2.393000126,2,1.73300004,8,1,0,0,0,0,0
"511","stim/objects/Instruments/gong.png",419,49,412,0.9,"stim/13.jpeg",1,3,3,2,"Instruments",2,3,"right","right",0.647000074,1,1,1,0,NA,NA,NA,NA,NA,NA,NA,NA,NA,NA,NA,NA,NA,NA,NA,NA,NA,NA,NA,NA,NA,NA,NA,NA
"367","stim/objects/HouseObjects/glass.png",420,49,413,0.9,"stim/21.jpeg",2,1,3,2,"HouseObjects",1,1,"left","left",0.842999935,1,1,1,0,NA,NA,NA,NA,NA,NA,NA,NA,NA,NA,NA,NA,NA,NA,NA,NA,NA,NA,NA,NA,NA,NA,NA,NA
"352","stim/objects/HouseObjects/garbagebin.png",421,49,414,0.9,"stim/22.jpeg",2,2,3,2,"HouseObjects",1,1,"left","left",0.755999804,1,1,1,0,NA,NA,NA,NA,NA,NA,NA,NA,NA,NA,NA,NA,NA,NA,NA,NA,NA,NA,NA,NA,NA,NA,NA,NA
"501","stim/objects/Instruments/frenchhorn.png",422,49,415,0.9,"stim/11.jpeg",1,1,3,2,"Instruments",2,1,"right","right",0.659999847,1,1,1,0,NA,NA,NA,NA,NA,NA,NA,NA,NA,NA,NA,NA,NA,NA,NA,NA,NA,NA,NA,NA,NA,NA,NA,NA
"265","stim/objects/HouseObjects/bucket.png",423,49,416,0.5,"stim/42.jpeg",4,2,1,2,"HouseObjects",1,4,"left","right",0.847000122,0,0,1,0,NA,NA,NA,NA,NA,NA,NA,NA,NA,NA,NA,NA,NA,NA,NA,NA,NA,NA,NA,NA,NA,NA,NA,NA
"475","stim/objects/Instruments/flutetrans.png",424,49,417,0.9,"stim/14.jpeg",1,4,3,2,"Instruments",2,4,"right","right",0.832999945,1,1,1,0,NA,NA,NA,NA,NA,NA,NA,NA,NA,NA,NA,NA,NA,NA,NA,NA,NA,NA,NA,NA,NA,NA,NA,NA
"400","stim/objects/HouseObjects/recyclingbin.png",425,49,418,0.3,"stim/53.jpeg",5,3,2,1,"HouseObjects",1,1,"left","right",0.842000008,0,0,1,0,79,49,1,0.3,1,"stim/53.jpeg",5,3,"stim/53.jpeg",1,"left",1.835999966,3,3,0.437000036,3,0.371999979,79,1,1,1,0,0,0
"454","stim/objects/Instruments/electricguitar.png",426,49,419,0.7,"stim/54.jpeg",5,4,2,2,"Instruments",2,1,"right","right",0.74000001,1,1,1,0,NA,NA,NA,NA,NA,NA,NA,NA,NA,NA,NA,NA,NA,NA,NA,NA,NA,NA,NA,NA,NA,NA,NA,NA
"434","stim/objects/Instruments/cornet.png",427,49,420,0.5,"stim/43.jpeg",4,3,1,2,"Instruments",2,4,"right","right",0.861000061,1,1,1,0,NA,NA,NA,NA,NA,NA,NA,NA,NA,NA,NA,NA,NA,NA,NA,NA,NA,NA,NA,NA,NA,NA,NA,NA
"567","stim/objects/Instruments/pipepiano.png",428,49,421,0.7,"stim/51.jpeg",5,1,2,1,"Instruments",2,4,"right","right",0.739000082,1,1,1,0,141,49,1,0.7,2,"stim/51.jpeg",5,1,"stim/51.jpeg",4,"right",0.796000004,2,2,0.626999855,2,0.269999981,141,0,0,NA,0,NA,0
"285","stim/objects/HouseObjects/cushion.png",429,49,422,0.7,"stim/61.jpeg",6,1,2,2,"HouseObjects",1,4,"left","right",0.851999998,0,0,1,0,NA,NA,NA,NA,NA,NA,NA,NA,NA,NA,NA,NA,NA,NA,NA,NA,NA,NA,NA,NA,NA,NA,NA,NA
"339","stim/objects/HouseObjects/flyswatter.png",430,49,423,0.9,"stim/22.jpeg",2,2,3,2,"HouseObjects",1,1,"left","left",0.815999985,1,1,1,0,NA,NA,NA,NA,NA,NA,NA,NA,NA,NA,NA,NA,NA,NA,NA,NA,NA,NA,NA,NA,NA,NA,NA,NA
"284","stim/objects/HouseObjects/cushion.png",431,49,424,0.7,"stim/64.jpeg",6,4,2,2,"HouseObjects",1,3,"left","left",0.938999891,1,1,1,0,NA,NA,NA,NA,NA,NA,NA,NA,NA,NA,NA,NA,NA,NA,NA,NA,NA,NA,NA,NA,NA,NA,NA,NA
"496","stim/objects/Instruments/frenchhorn.png",432,49,425,0.9,"stim/14.jpeg",1,4,3,2,"Instruments",2,1,"right","right",0.828999996,1,1,1,0,NA,NA,NA,NA,NA,NA,NA,NA,NA,NA,NA,NA,NA,NA,NA,NA,NA,NA,NA,NA,NA,NA,NA,NA
"280","stim/objects/HouseObjects/coffee.png",433,49,426,0.7,"stim/64.jpeg",6,4,2,2,"HouseObjects",1,2,"left","left",0.846999884,1,1,1,0,NA,NA,NA,NA,NA,NA,NA,NA,NA,NA,NA,NA,NA,NA,NA,NA,NA,NA,NA,NA,NA,NA,NA,NA
"348","stim/objects/HouseObjects/garbagebin.png",434,49,427,0.9,"stim/24.jpeg",2,4,3,2,"HouseObjects",1,3,"left","left",0.848999977,1,1,1,0,NA,NA,NA,NA,NA,NA,NA,NA,NA,NA,NA,NA,NA,NA,NA,NA,NA,NA,NA,NA,NA,NA,NA,NA
"252","stim/objects/HouseObjects/basket2.png",435,49,428,0.3,"stim/51.jpeg",5,1,2,1,"HouseObjects",1,3,"left","right",0.749000072,0,0,1,0,30,49,1,0.3,1,"stim/51.jpeg",5,1,"stim/51.jpeg",3,"left",1.309000015,2,1,1.568999767,1,1.867000103,30,1,1,1,0,0,0
"407","stim/objects/Instruments/accordion.png",436,49,429,0.5,"stim/31.jpeg",3,1,1,2,"Instruments",2,4,"right","right",0.75,1,1,1,0,NA,NA,NA,NA,NA,NA,NA,NA,NA,NA,NA,NA,NA,NA,NA,NA,NA,NA,NA,NA,NA,NA,NA,NA
"368","stim/objects/HouseObjects/glass.png",437,49,430,0.9,"stim/22.jpeg",2,2,3,2,"HouseObjects",1,3,"left","left",0.842999935,1,1,1,0,NA,NA,NA,NA,NA,NA,NA,NA,NA,NA,NA,NA,NA,NA,NA,NA,NA,NA,NA,NA,NA,NA,NA,NA
"443","stim/objects/Instruments/doublebass2.png",438,49,431,0.3,"stim/64.jpeg",6,4,2,1,"Instruments",2,2,"right","left",0.826999903,0,0,1,0,166,49,1,0.3,2,"stim/64.jpeg",6,4,"stim/64.jpeg",2,"left",2.77699995,2,2,0.26699996,2,0.263999939,166,1,0,0,1,1,0
"437","stim/objects/Instruments/cymbal.png",439,49,432,0.7,"stim/54.jpeg",5,4,2,2,"Instruments",2,3,"right","right",0.921999931,1,1,1,0,NA,NA,NA,NA,NA,NA,NA,NA,NA,NA,NA,NA,NA,NA,NA,NA,NA,NA,NA,NA,NA,NA,NA,NA
"269","stim/objects/HouseObjects/clock.png",440,49,433,0.5,"stim/44.jpeg",4,4,1,2,"HouseObjects",1,1,"left","right",0.745999813,0,0,1,0,NA,NA,NA,NA,NA,NA,NA,NA,NA,NA,NA,NA,NA,NA,NA,NA,NA,NA,NA,NA,NA,NA,NA,NA
"419","stim/objects/Instruments/bassdrum.png",441,49,434,0.5,"stim/34.jpeg",3,4,1,2,"Instruments",2,3,"right","right",0.749000072,1,1,1,0,NA,NA,NA,NA,NA,NA,NA,NA,NA,NA,NA,NA,NA,NA,NA,NA,NA,NA,NA,NA,NA,NA,NA,NA
"486","stim/objects/Instruments/flutetrans.png",442,49,435,0.9,"stim/11.jpeg",1,1,3,2,"Instruments",2,2,"right","",NA,0,0,1,0,NA,NA,NA,NA,NA,NA,NA,NA,NA,NA,NA,NA,NA,NA,NA,NA,NA,NA,NA,NA,NA,NA,NA,NA
"563","stim/objects/Instruments/oboe.png",443,49,436,0.7,"stim/53.jpeg",5,3,2,1,"Instruments",2,1,"right","right",0.844000101,1,1,1,0,200,49,1,0.7,2,"stim/53.jpeg",5,3,"stim/53.jpeg",1,"right",2.223999977,2,2,0.578999996,2,0.264999866,200,0,0,NA,0,NA,0
"517","stim/objects/Instruments/gong.png",444,49,437,0.9,"stim/14.jpeg",1,4,3,2,"Instruments",2,4,"right","right",0.844000101,1,1,1,0,NA,NA,NA,NA,NA,NA,NA,NA,NA,NA,NA,NA,NA,NA,NA,NA,NA,NA,NA,NA,NA,NA,NA,NA
"263","stim/objects/HouseObjects/broom.png",445,49,438,0.5,"stim/41.jpeg",4,1,1,2,"HouseObjects",1,4,"left","right",0.842999935,0,0,1,0,NA,NA,NA,NA,NA,NA,NA,NA,NA,NA,NA,NA,NA,NA,NA,NA,NA,NA,NA,NA,NA,NA,NA,NA
"466","stim/objects/Instruments/flute.png",446,49,439,0.9,"stim/12.jpeg",1,2,3,2,"Instruments",2,2,"right","right",0.758000135,1,1,1,0,NA,NA,NA,NA,NA,NA,NA,NA,NA,NA,NA,NA,NA,NA,NA,NA,NA,NA,NA,NA,NA,NA,NA,NA
"344","stim/objects/HouseObjects/garbagebin.png",447,49,440,0.9,"stim/21.jpeg",2,1,3,2,"HouseObjects",1,1,"left","left",0.650999784,1,1,1,0,NA,NA,NA,NA,NA,NA,NA,NA,NA,NA,NA,NA,NA,NA,NA,NA,NA,NA,NA,NA,NA,NA,NA,NA
"439","stim/objects/Instruments/cymbal2.png",448,49,441,0.3,"stim/63.jpeg",6,3,2,1,"Instruments",2,3,"right","left",0.832000017,0,0,1,0,27,49,1,0.3,2,"stim/63.jpeg",6,3,"stim/63.jpeg",3,"right",2.955999851,2,4,1.896000147,3,1.637000084,27,0,0,NA,1,NA,0
"424","stim/objects/Instruments/cello.png",449,49,442,0.5,"stim/44.jpeg",4,4,1,2,"Instruments",2,4,"right","right",0.828000069,1,1,1,0,NA,NA,NA,NA,NA,NA,NA,NA,NA,NA,NA,NA,NA,NA,NA,NA,NA,NA,NA,NA,NA,NA,NA,NA
"405","stim/objects/HouseObjects/rubbergloves2.png",450,49,443,0.9,"stim/22.jpeg",2,2,3,1,"HouseObjects",1,4,"left","left",0.828999996,1,1,1,0,56,49,1,0.9,1,"stim/22.jpeg",2,2,"stim/22.jpeg",4,"left",3.881000042,2,2,0.63499999,2,0.47300005,56,1,1,1,0,0,0
"317","stim/objects/HouseObjects/dustpan.png",451,49,444,0.9,"stim/22.jpeg",2,2,3,2,"HouseObjects",1,3,"left","left",0.646000147,1,1,1,0,NA,NA,NA,NA,NA,NA,NA,NA,NA,NA,NA,NA,NA,NA,NA,NA,NA,NA,NA,NA,NA,NA,NA,NA
"420","stim/objects/Instruments/bassdrum2.png",452,49,445,0.7,"stim/53.jpeg",5,3,2,1,"Instruments",2,2,"right","right",0.739000082,1,1,1,0,194,49,1,0.7,2,"stim/53.jpeg",5,3,"stim/53.jpeg",2,"right",1.208000183,3,3,0.264999866,3,0.51699996,194,0,1,NA,0,NA,0
"493","stim/objects/Instruments/frenchhorn.png",453,49,446,0.9,"stim/12.jpeg",1,2,3,2,"Instruments",2,1,"right","right",0.84800005,1,1,1,0,NA,NA,NA,NA,NA,NA,NA,NA,NA,NA,NA,NA,NA,NA,NA,NA,NA,NA,NA,NA,NA,NA,NA,NA
"494","stim/objects/Instruments/frenchhorn.png",454,49,447,0.9,"stim/13.jpeg",1,3,3,2,"Instruments",2,1,"right","right",0.655999899,1,1,1,0,NA,NA,NA,NA,NA,NA,NA,NA,NA,NA,NA,NA,NA,NA,NA,NA,NA,NA,NA,NA,NA,NA,NA,NA
"374","stim/objects/HouseObjects/glass.png",455,49,448,0.9,"stim/24.jpeg",2,4,3,2,"HouseObjects",1,1,"left","right",0.644999981,0,0,1,0,NA,NA,NA,NA,NA,NA,NA,NA,NA,NA,NA,NA,NA,NA,NA,NA,NA,NA,NA,NA,NA,NA,NA,NA
"321","stim/objects/HouseObjects/dustpan.png",456,49,449,0.9,"stim/23.jpeg",2,3,3,2,"HouseObjects",1,4,"left","left",0.651000023,1,1,1,0,NA,NA,NA,NA,NA,NA,NA,NA,NA,NA,NA,NA,NA,NA,NA,NA,NA,NA,NA,NA,NA,NA,NA,NA
"516","stim/objects/Instruments/gong.png",457,49,450,0.9,"stim/11.jpeg",1,1,3,2,"Instruments",2,3,"right","right",0.931999922,1,1,1,0,NA,NA,NA,NA,NA,NA,NA,NA,NA,NA,NA,NA,NA,NA,NA,NA,NA,NA,NA,NA,NA,NA,NA,NA
"305","stim/objects/HouseObjects/doormat.png",458,49,451,0.9,"stim/21.jpeg",2,1,3,2,"HouseObjects",1,2,"left","left",0.746999979,1,1,1,0,NA,NA,NA,NA,NA,NA,NA,NA,NA,NA,NA,NA,NA,NA,NA,NA,NA,NA,NA,NA,NA,NA,NA,NA
"299","stim/objects/HouseObjects/doormat.png",459,49,452,0.9,"stim/24.jpeg",2,4,3,2,"HouseObjects",1,2,"left","right",0.84100008,0,0,1,0,NA,NA,NA,NA,NA,NA,NA,NA,NA,NA,NA,NA,NA,NA,NA,NA,NA,NA,NA,NA,NA,NA,NA,NA
"388","stim/objects/HouseObjects/key.png",460,49,453,0.5,"stim/42.jpeg",4,2,1,1,"HouseObjects",1,4,"left","right",0.740999937,0,0,1,0,135,49,1,0.5,2,"stim/42.jpeg",4,2,"stim/42.jpeg",4,"left",1.251000166,3,3,0.399999857,3,0.215999842,135,1,0,0,0,0,0
"455","stim/objects/Instruments/electricguitar2.png",461,49,454,0.3,"stim/63.jpeg",6,3,2,1,"Instruments",2,1,"right","left",0.646000147,0,0,1,0,110,49,1,0.3,2,"stim/63.jpeg",6,3,"stim/63.jpeg",1,"right",1.305000067,3,3,0.490999937,3,0.267999887,110,0,1,NA,0,NA,0
"246","stim/objects/HouseObjects/ballofstring2.png",462,49,455,0.3,"stim/53.jpeg",5,3,2,1,"HouseObjects",1,3,"left","right",0.834000111,0,0,1,0,12,49,1,0.3,1,"stim/53.jpeg",5,3,"stim/53.jpeg",3,"right",2.836999893,2,1,1.503999949,1,1.097999811,12,0,0,NA,0,NA,0
"320","stim/objects/HouseObjects/dustpan.png",463,49,456,0.9,"stim/21.jpeg",2,1,3,2,"HouseObjects",1,3,"left","left",0.750999928,1,1,1,0,NA,NA,NA,NA,NA,NA,NA,NA,NA,NA,NA,NA,NA,NA,NA,NA,NA,NA,NA,NA,NA,NA,NA,NA
"440","stim/objects/Instruments/doublebass.png",464,49,457,0.7,"stim/52.jpeg",5,2,2,2,"Instruments",2,2,"right","right",0.91899991,1,1,1,0,NA,NA,NA,NA,NA,NA,NA,NA,NA,NA,NA,NA,NA,NA,NA,NA,NA,NA,NA,NA,NA,NA,NA,NA
"411","stim/objects/Instruments/acousticguitar2.png",465,49,458,0.7,"stim/54.jpeg",5,4,2,1,"Instruments",2,1,"right","right",0.645999908,1,1,1,0,178,49,1,0.7,2,"stim/54.jpeg",5,4,"stim/54.jpeg",1,"right",2.051999807,2,2,0.274999857,2,0.266000032,178,0,0,NA,0,NA,0
"340","stim/objects/HouseObjects/flyswatter.png",466,49,459,0.9,"stim/23.jpeg",2,3,3,2,"HouseObjects",1,3,"left","left",0.756000042,1,1,1,0,NA,NA,NA,NA,NA,NA,NA,NA,NA,NA,NA,NA,NA,NA,NA,NA,NA,NA,NA,NA,NA,NA,NA,NA
"365","stim/objects/HouseObjects/glass.png",467,49,460,0.9,"stim/21.jpeg",2,1,3,2,"HouseObjects",1,1,"left","left",0.842000008,1,1,1,0,NA,NA,NA,NA,NA,NA,NA,NA,NA,NA,NA,NA,NA,NA,NA,NA,NA,NA,NA,NA,NA,NA,NA,NA
"346","stim/objects/HouseObjects/garbagebin.png",468,49,461,0.9,"stim/24.jpeg",2,4,3,2,"HouseObjects",1,1,"left","left",0.667999983,1,1,1,0,NA,NA,NA,NA,NA,NA,NA,NA,NA,NA,NA,NA,NA,NA,NA,NA,NA,NA,NA,NA,NA,NA,NA,NA
