"","obj_file","X.x","participant.x","trialN.x","trial_cond","scn_file.x","scn_cat","scn_inst","scn_condition","fillers","obj_cat","obj_cat_num","quadrant","corr_ans","key_resp_trial.keys","key_resp_trial.rt","trial_acc","trial_acc_manual","group.x","practice","X.y","participant.y","OvsN","PE_level","object_cat","scn_file.y","corr_scn_cat","corr_scn_inst","scn_file.1","corr_loc","key_resp_id.keys","key_resp_id.rt","key_resp_conf.keys","key_resp_assoc.keys","key_resp_assoc.rt","key_resp_loc.keys","key_resp_loc.rt","trialN.y","id_acc","assoc.acc","cond_assoc","loc.acc","cond_loc","group.y"
"100","stim/objects/HouseObjects/clothesdryingrack2.png",1,50,1,0.9,"stim/63.jpeg",6,3,3,NA,"HouseObjects",1,3,"left","",NA,0,0,0,1,NA,NA,NA,NA,NA,NA,NA,NA,NA,NA,NA,NA,NA,NA,NA,NA,NA,NA,NA,NA,NA,NA,NA,NA
"153","stim/objects/Instruments/bassdrum.png",2,50,2,0.5,"stim/21.jpeg",2,1,1,NA,"Instruments",2,2,"right","left",0.775000095,0,0,0,1,NA,NA,NA,NA,NA,NA,NA,NA,NA,NA,NA,NA,NA,NA,NA,NA,NA,NA,NA,NA,NA,NA,NA,NA
"49","stim/objects/HouseObjects/bleachbottle.png",3,50,3,0.5,"stim/21.jpeg",2,1,1,NA,"HouseObjects",1,4,"left","left",0.861000061,1,1,0,1,NA,NA,NA,NA,NA,NA,NA,NA,NA,NA,NA,NA,NA,NA,NA,NA,NA,NA,NA,NA,NA,NA,NA,NA
"18","stim/objects/HouseObjects/ballofstring2.png",4,50,4,0.7,"stim/42.jpeg",4,2,2,NA,"HouseObjects",1,3,"left","",NA,0,0,0,1,NA,NA,NA,NA,NA,NA,NA,NA,NA,NA,NA,NA,NA,NA,NA,NA,NA,NA,NA,NA,NA,NA,NA,NA
"55","stim/objects/HouseObjects/blender.png",5,50,5,0.5,"stim/22.jpeg",2,2,1,NA,"HouseObjects",1,2,"left","left",0.757999897,1,1,0,1,NA,NA,NA,NA,NA,NA,NA,NA,NA,NA,NA,NA,NA,NA,NA,NA,NA,NA,NA,NA,NA,NA,NA,NA
"172","stim/objects/Instruments/bassguitar2.png",6,50,6,0.9,"stim/52.jpeg",5,2,3,NA,"Instruments",2,3,"right","left",0.76699996,0,0,0,1,NA,NA,NA,NA,NA,NA,NA,NA,NA,NA,NA,NA,NA,NA,NA,NA,NA,NA,NA,NA,NA,NA,NA,NA
"76","stim/objects/HouseObjects/bucket2.png",7,50,7,0.9,"stim/61.jpeg",6,1,3,NA,"HouseObjects",1,3,"left","left",0.607999802,1,1,0,1,NA,NA,NA,NA,NA,NA,NA,NA,NA,NA,NA,NA,NA,NA,NA,NA,NA,NA,NA,NA,NA,NA,NA,NA
"25","stim/objects/HouseObjects/barbecuelighter.png",8,50,8,0.5,"stim/13.jpeg",1,3,1,NA,"HouseObjects",1,1,"left","right",0.701999903,0,0,0,1,NA,NA,NA,NA,NA,NA,NA,NA,NA,NA,NA,NA,NA,NA,NA,NA,NA,NA,NA,NA,NA,NA,NA,NA
"30","stim/objects/HouseObjects/barbecuelighter2.png",9,50,9,0.7,"stim/43.jpeg",4,3,2,NA,"HouseObjects",1,2,"left","left",0.735000134,1,1,0,1,NA,NA,NA,NA,NA,NA,NA,NA,NA,NA,NA,NA,NA,NA,NA,NA,NA,NA,NA,NA,NA,NA,NA,NA
"217","stim/objects/Instruments/cornet.png",10,50,10,0.7,"stim/32.jpeg",3,2,2,NA,"Instruments",2,2,"right","left",0.593999863,0,0,0,1,NA,NA,NA,NA,NA,NA,NA,NA,NA,NA,NA,NA,NA,NA,NA,NA,NA,NA,NA,NA,NA,NA,NA,NA
"186","stim/objects/Instruments/cello2.png",11,50,11,0.9,"stim/53.jpeg",5,3,3,NA,"Instruments",2,2,"right","right",0.538000107,1,1,0,1,NA,NA,NA,NA,NA,NA,NA,NA,NA,NA,NA,NA,NA,NA,NA,NA,NA,NA,NA,NA,NA,NA,NA,NA
"129","stim/objects/Instruments/acousticguitar.png",12,50,12,0.5,"stim/12.jpeg",1,2,1,NA,"Instruments",2,2,"right","left",0.552999973,0,0,0,1,NA,NA,NA,NA,NA,NA,NA,NA,NA,NA,NA,NA,NA,NA,NA,NA,NA,NA,NA,NA,NA,NA,NA,NA
"88","stim/objects/HouseObjects/clock2.png",13,50,13,0.9,"stim/62.jpeg",6,2,3,NA,"HouseObjects",1,3,"left","left",0.481000185,1,1,0,1,NA,NA,NA,NA,NA,NA,NA,NA,NA,NA,NA,NA,NA,NA,NA,NA,NA,NA,NA,NA,NA,NA,NA,NA
"173","stim/objects/Instruments/bassguitar2.png",14,50,14,0.9,"stim/52.jpeg",5,2,3,NA,"Instruments",2,1,"right","left",0.684999943,0,0,0,1,NA,NA,NA,NA,NA,NA,NA,NA,NA,NA,NA,NA,NA,NA,NA,NA,NA,NA,NA,NA,NA,NA,NA,NA
"200","stim/objects/Instruments/chime2.png",15,50,15,0.9,"stim/54.jpeg",5,4,3,NA,"Instruments",2,2,"right","right",0.774999857,1,1,0,1,NA,NA,NA,NA,NA,NA,NA,NA,NA,NA,NA,NA,NA,NA,NA,NA,NA,NA,NA,NA,NA,NA,NA,NA
"195","stim/objects/Instruments/chime.png",16,50,16,0.5,"stim/24.jpeg",2,4,1,NA,"Instruments",2,1,"right","left",0.838000059,0,0,0,1,NA,NA,NA,NA,NA,NA,NA,NA,NA,NA,NA,NA,NA,NA,NA,NA,NA,NA,NA,NA,NA,NA,NA,NA
"225","stim/objects/Instruments/cymbal.png",17,50,17,0.7,"stim/33.jpeg",3,3,2,NA,"Instruments",2,1,"right","left",0.661000013,0,0,0,1,NA,NA,NA,NA,NA,NA,NA,NA,NA,NA,NA,NA,NA,NA,NA,NA,NA,NA,NA,NA,NA,NA,NA,NA
"60","stim/objects/HouseObjects/blender2.png",18,50,18,0.1,"stim/52.jpeg",5,2,3,NA,"HouseObjects",1,3,"left","",NA,0,0,0,1,NA,NA,NA,NA,NA,NA,NA,NA,NA,NA,NA,NA,NA,NA,NA,NA,NA,NA,NA,NA,NA,NA,NA,NA
"37","stim/objects/HouseObjects/basket.png",19,50,19,0.5,"stim/14.jpeg",1,4,1,NA,"HouseObjects",1,4,"left","left",0.671999931,1,1,0,1,NA,NA,NA,NA,NA,NA,NA,NA,NA,NA,NA,NA,NA,NA,NA,NA,NA,NA,NA,NA,NA,NA,NA,NA
"209","stim/objects/Instruments/clarinet.png",20,50,20,0.7,"stim/31.jpeg",3,1,2,NA,"Instruments",2,3,"right","left",0.76699996,0,0,0,1,NA,NA,NA,NA,NA,NA,NA,NA,NA,NA,NA,NA,NA,NA,NA,NA,NA,NA,NA,NA,NA,NA,NA,NA
"56","stim/objects/HouseObjects/blender.png",21,50,21,0.5,"stim/22.jpeg",2,2,1,NA,"HouseObjects",1,4,"left","right",0.625999928,0,0,0,1,NA,NA,NA,NA,NA,NA,NA,NA,NA,NA,NA,NA,NA,NA,NA,NA,NA,NA,NA,NA,NA,NA,NA,NA
"89","stim/objects/HouseObjects/clock2.png",22,50,22,0.9,"stim/62.jpeg",6,2,3,NA,"HouseObjects",1,1,"left","left",0.649999857,1,1,0,1,NA,NA,NA,NA,NA,NA,NA,NA,NA,NA,NA,NA,NA,NA,NA,NA,NA,NA,NA,NA,NA,NA,NA,NA
"109","stim/objects/HouseObjects/clothespin.png",23,50,23,0.3,"stim/34.jpeg",3,4,2,NA,"HouseObjects",1,4,"left","",NA,0,0,0,1,NA,NA,NA,NA,NA,NA,NA,NA,NA,NA,NA,NA,NA,NA,NA,NA,NA,NA,NA,NA,NA,NA,NA,NA
"1","stim/objects/HouseObjects/ashtray.png",24,50,24,0.5,"stim/11.jpeg",1,1,1,NA,"HouseObjects",1,2,"left","right",0.638000011,0,0,0,1,NA,NA,NA,NA,NA,NA,NA,NA,NA,NA,NA,NA,NA,NA,NA,NA,NA,NA,NA,NA,NA,NA,NA,NA
"158","stim/objects/Instruments/bassdrum2.png",25,50,25,0.9,"stim/51.jpeg",5,1,3,NA,"Instruments",2,1,"right","right",0.868999958,1,1,0,1,NA,NA,NA,NA,NA,NA,NA,NA,NA,NA,NA,NA,NA,NA,NA,NA,NA,NA,NA,NA,NA,NA,NA,NA
"101","stim/objects/HouseObjects/clothesdryingrack2.png",26,50,26,0.9,"stim/63.jpeg",6,3,3,NA,"HouseObjects",1,2,"left","left",0.552999973,1,1,0,1,NA,NA,NA,NA,NA,NA,NA,NA,NA,NA,NA,NA,NA,NA,NA,NA,NA,NA,NA,NA,NA,NA,NA,NA
"167","stim/objects/Instruments/bassguitar.png",27,50,27,0.5,"stim/22.jpeg",2,2,1,NA,"Instruments",2,1,"right","right",0.836999893,1,1,0,1,NA,NA,NA,NA,NA,NA,NA,NA,NA,NA,NA,NA,NA,NA,NA,NA,NA,NA,NA,NA,NA,NA,NA,NA
"102","stim/objects/HouseObjects/clothesdryingrack2.png",28,50,28,0.9,"stim/63.jpeg",6,3,3,NA,"HouseObjects",1,4,"left","left",0.559999943,1,1,0,1,NA,NA,NA,NA,NA,NA,NA,NA,NA,NA,NA,NA,NA,NA,NA,NA,NA,NA,NA,NA,NA,NA,NA,NA
"67","stim/objects/HouseObjects/broom.png",29,50,29,0.5,"stim/24.jpeg",2,4,1,NA,"HouseObjects",1,2,"left","right",0.638999939,0,0,0,1,NA,NA,NA,NA,NA,NA,NA,NA,NA,NA,NA,NA,NA,NA,NA,NA,NA,NA,NA,NA,NA,NA,NA,NA
"121","stim/objects/Instruments/accordion.png",30,50,30,0.5,"stim/11.jpeg",1,1,1,NA,"Instruments",2,3,"right","right",0.695999861,1,1,0,1,NA,NA,NA,NA,NA,NA,NA,NA,NA,NA,NA,NA,NA,NA,NA,NA,NA,NA,NA,NA,NA,NA,NA,NA
"103","stim/objects/HouseObjects/clothesdryingrack2.png",31,50,31,0.9,"stim/63.jpeg",6,3,3,NA,"HouseObjects",1,1,"left","left",0.529999971,1,1,0,1,NA,NA,NA,NA,NA,NA,NA,NA,NA,NA,NA,NA,NA,NA,NA,NA,NA,NA,NA,NA,NA,NA,NA,NA
"122","stim/objects/Instruments/accordion.png",32,50,32,0.5,"stim/11.jpeg",1,1,1,NA,"Instruments",2,3,"right","right",0.729000092,1,1,0,1,NA,NA,NA,NA,NA,NA,NA,NA,NA,NA,NA,NA,NA,NA,NA,NA,NA,NA,NA,NA,NA,NA,NA,NA
"104","stim/objects/HouseObjects/clothesdryingrack2.png",33,50,33,0.9,"stim/63.jpeg",6,3,3,NA,"HouseObjects",1,4,"left","left",0.585000038,1,1,0,1,NA,NA,NA,NA,NA,NA,NA,NA,NA,NA,NA,NA,NA,NA,NA,NA,NA,NA,NA,NA,NA,NA,NA,NA
"218","stim/objects/Instruments/cornet.png",34,50,34,0.7,"stim/32.jpeg",3,2,2,NA,"Instruments",2,1,"right","right",0.755000114,1,1,0,1,NA,NA,NA,NA,NA,NA,NA,NA,NA,NA,NA,NA,NA,NA,NA,NA,NA,NA,NA,NA,NA,NA,NA,NA
"145","stim/objects/Instruments/banjo.png",35,50,35,0.5,"stim/14.jpeg",1,4,1,NA,"Instruments",2,2,"right","right",0.899999857,1,1,0,1,NA,NA,NA,NA,NA,NA,NA,NA,NA,NA,NA,NA,NA,NA,NA,NA,NA,NA,NA,NA,NA,NA,NA,NA
"73","stim/objects/HouseObjects/bucket.png",36,50,36,0.3,"stim/31.jpeg",3,1,2,NA,"HouseObjects",1,1,"left","left",0.868000031,1,1,0,1,NA,NA,NA,NA,NA,NA,NA,NA,NA,NA,NA,NA,NA,NA,NA,NA,NA,NA,NA,NA,NA,NA,NA,NA
"66","stim/objects/HouseObjects/bottle2.png",37,50,37,0.1,"stim/53.jpeg",5,3,3,NA,"HouseObjects",1,2,"left","right",0.840999842,0,0,0,1,NA,NA,NA,NA,NA,NA,NA,NA,NA,NA,NA,NA,NA,NA,NA,NA,NA,NA,NA,NA,NA,NA,NA,NA
"19","stim/objects/HouseObjects/ballofstring2.png",38,50,38,0.7,"stim/42.jpeg",4,2,2,NA,"HouseObjects",1,4,"left","left",0.700000048,1,1,0,1,NA,NA,NA,NA,NA,NA,NA,NA,NA,NA,NA,NA,NA,NA,NA,NA,NA,NA,NA,NA,NA,NA,NA,NA
"134","stim/objects/Instruments/acousticguitar2.png",39,50,39,0.3,"stim/42.jpeg",4,2,2,NA,"Instruments",2,4,"right","left",0.792999983,0,0,0,1,NA,NA,NA,NA,NA,NA,NA,NA,NA,NA,NA,NA,NA,NA,NA,NA,NA,NA,NA,NA,NA,NA,NA,NA
"2","stim/objects/HouseObjects/ashtray.png",40,50,40,0.5,"stim/11.jpeg",1,1,1,NA,"HouseObjects",1,2,"left","right",0.775000095,0,0,0,1,NA,NA,NA,NA,NA,NA,NA,NA,NA,NA,NA,NA,NA,NA,NA,NA,NA,NA,NA,NA,NA,NA,NA,NA
"130","stim/objects/Instruments/acousticguitar.png",41,50,41,0.5,"stim/12.jpeg",1,2,1,NA,"Instruments",2,3,"right","right",0.710000038,1,1,0,1,NA,NA,NA,NA,NA,NA,NA,NA,NA,NA,NA,NA,NA,NA,NA,NA,NA,NA,NA,NA,NA,NA,NA,NA
"150","stim/objects/Instruments/banjo2.png",42,50,42,0.3,"stim/44.jpeg",4,4,2,NA,"Instruments",2,4,"right","left",0.812000036,0,0,0,1,NA,NA,NA,NA,NA,NA,NA,NA,NA,NA,NA,NA,NA,NA,NA,NA,NA,NA,NA,NA,NA,NA,NA,NA
"90","stim/objects/HouseObjects/clock2.png",43,50,43,0.9,"stim/62.jpeg",6,2,3,NA,"HouseObjects",1,2,"left","left",0.611999989,1,1,0,1,NA,NA,NA,NA,NA,NA,NA,NA,NA,NA,NA,NA,NA,NA,NA,NA,NA,NA,NA,NA,NA,NA,NA,NA
"50","stim/objects/HouseObjects/bleachbottle.png",44,50,44,0.5,"stim/21.jpeg",2,1,1,NA,"HouseObjects",1,1,"left","right",0.652000189,0,0,0,1,NA,NA,NA,NA,NA,NA,NA,NA,NA,NA,NA,NA,NA,NA,NA,NA,NA,NA,NA,NA,NA,NA,NA,NA
"13","stim/objects/HouseObjects/ballofstring.png",45,50,45,0.5,"stim/12.jpeg",1,2,1,NA,"HouseObjects",1,1,"left","right",0.688999891,0,0,0,1,NA,NA,NA,NA,NA,NA,NA,NA,NA,NA,NA,NA,NA,NA,NA,NA,NA,NA,NA,NA,NA,NA,NA,NA
"142","stim/objects/Instruments/balalaika2.png",46,50,46,0.3,"stim/43.jpeg",4,3,2,NA,"Instruments",2,3,"right","right",0.654999971,1,1,0,1,NA,NA,NA,NA,NA,NA,NA,NA,NA,NA,NA,NA,NA,NA,NA,NA,NA,NA,NA,NA,NA,NA,NA,NA
"143","stim/objects/Instruments/balalaika2.png",47,50,47,0.3,"stim/43.jpeg",4,3,2,NA,"Instruments",2,2,"right","left",0.763999939,0,0,0,1,NA,NA,NA,NA,NA,NA,NA,NA,NA,NA,NA,NA,NA,NA,NA,NA,NA,NA,NA,NA,NA,NA,NA,NA
"26","stim/objects/HouseObjects/barbecuelighter.png",48,50,48,0.5,"stim/13.jpeg",1,3,1,NA,"HouseObjects",1,3,"left","left",0.548000097,1,1,0,1,NA,NA,NA,NA,NA,NA,NA,NA,NA,NA,NA,NA,NA,NA,NA,NA,NA,NA,NA,NA,NA,NA,NA,NA
"14","stim/objects/HouseObjects/ballofstring.png",49,50,49,0.5,"stim/12.jpeg",1,2,1,NA,"HouseObjects",1,3,"left","right",0.703000069,0,0,0,1,NA,NA,NA,NA,NA,NA,NA,NA,NA,NA,NA,NA,NA,NA,NA,NA,NA,NA,NA,NA,NA,NA,NA,NA
"38","stim/objects/HouseObjects/basket.png",50,50,50,0.5,"stim/14.jpeg",1,4,1,NA,"HouseObjects",1,3,"left","left",0.917999983,1,1,0,1,NA,NA,NA,NA,NA,NA,NA,NA,NA,NA,NA,NA,NA,NA,NA,NA,NA,NA,NA,NA,NA,NA,NA,NA
"196","stim/objects/Instruments/chime.png",51,50,51,0.5,"stim/24.jpeg",2,4,1,NA,"Instruments",2,1,"right","",NA,0,0,0,1,NA,NA,NA,NA,NA,NA,NA,NA,NA,NA,NA,NA,NA,NA,NA,NA,NA,NA,NA,NA,NA,NA,NA,NA
"137","stim/objects/Instruments/balalaika.png",52,50,52,0.5,"stim/13.jpeg",1,3,1,NA,"Instruments",2,3,"right","right",0.871999979,1,1,0,1,NA,NA,NA,NA,NA,NA,NA,NA,NA,NA,NA,NA,NA,NA,NA,NA,NA,NA,NA,NA,NA,NA,NA,NA
"97","stim/objects/HouseObjects/clothesdryingrack.png",53,50,53,0.3,"stim/33.jpeg",3,3,2,NA,"HouseObjects",1,4,"left","right",0.898000002,0,0,0,1,NA,NA,NA,NA,NA,NA,NA,NA,NA,NA,NA,NA,NA,NA,NA,NA,NA,NA,NA,NA,NA,NA,NA,NA
"197","stim/objects/Instruments/chime.png",54,50,54,0.5,"stim/24.jpeg",2,4,1,NA,"Instruments",2,1,"right","",NA,0,0,0,1,NA,NA,NA,NA,NA,NA,NA,NA,NA,NA,NA,NA,NA,NA,NA,NA,NA,NA,NA,NA,NA,NA,NA,NA
"77","stim/objects/HouseObjects/bucket2.png",55,50,55,0.9,"stim/61.jpeg",6,1,3,NA,"HouseObjects",1,4,"left","left",0.541000128,1,1,0,1,NA,NA,NA,NA,NA,NA,NA,NA,NA,NA,NA,NA,NA,NA,NA,NA,NA,NA,NA,NA,NA,NA,NA,NA
"138","stim/objects/Instruments/balalaika.png",56,50,56,0.5,"stim/13.jpeg",1,3,1,NA,"Instruments",2,4,"right","right",0.626999855,1,1,0,1,NA,NA,NA,NA,NA,NA,NA,NA,NA,NA,NA,NA,NA,NA,NA,NA,NA,NA,NA,NA,NA,NA,NA,NA
"181","stim/objects/Instruments/cello.png",57,50,57,0.5,"stim/23.jpeg",2,3,1,NA,"Instruments",2,4,"right","left",0.739000082,0,0,0,1,NA,NA,NA,NA,NA,NA,NA,NA,NA,NA,NA,NA,NA,NA,NA,NA,NA,NA,NA,NA,NA,NA,NA,NA
"139","stim/objects/Instruments/balalaika.png",58,50,58,0.5,"stim/13.jpeg",1,3,1,NA,"Instruments",2,2,"right","left",0.771000147,0,0,0,1,NA,NA,NA,NA,NA,NA,NA,NA,NA,NA,NA,NA,NA,NA,NA,NA,NA,NA,NA,NA,NA,NA,NA,NA
"210","stim/objects/Instruments/clarinet.png",59,50,59,0.7,"stim/31.jpeg",3,1,2,NA,"Instruments",2,4,"right","right",0.694000006,1,1,0,1,NA,NA,NA,NA,NA,NA,NA,NA,NA,NA,NA,NA,NA,NA,NA,NA,NA,NA,NA,NA,NA,NA,NA,NA
"182","stim/objects/Instruments/cello.png",60,50,60,0.5,"stim/23.jpeg",2,3,1,NA,"Instruments",2,2,"right","",NA,0,0,0,1,NA,NA,NA,NA,NA,NA,NA,NA,NA,NA,NA,NA,NA,NA,NA,NA,NA,NA,NA,NA,NA,NA,NA,NA
"201","stim/objects/Instruments/chime2.png",61,50,61,0.9,"stim/54.jpeg",5,4,3,NA,"Instruments",2,3,"right","right",0.713999987,1,1,0,1,NA,NA,NA,NA,NA,NA,NA,NA,NA,NA,NA,NA,NA,NA,NA,NA,NA,NA,NA,NA,NA,NA,NA,NA
"202","stim/objects/Instruments/chime2.png",62,50,62,0.9,"stim/54.jpeg",5,4,3,NA,"Instruments",2,4,"right","right",0.693000078,1,1,0,1,NA,NA,NA,NA,NA,NA,NA,NA,NA,NA,NA,NA,NA,NA,NA,NA,NA,NA,NA,NA,NA,NA,NA,NA
"20","stim/objects/HouseObjects/ballofstring2.png",63,50,63,0.7,"stim/42.jpeg",4,2,2,NA,"HouseObjects",1,2,"left","left",0.715000153,1,1,0,1,NA,NA,NA,NA,NA,NA,NA,NA,NA,NA,NA,NA,NA,NA,NA,NA,NA,NA,NA,NA,NA,NA,NA,NA
"112","stim/objects/HouseObjects/clothespin2.png",64,50,64,0.9,"stim/64.jpeg",6,4,3,NA,"HouseObjects",1,1,"left","left",0.628999949,1,1,0,1,NA,NA,NA,NA,NA,NA,NA,NA,NA,NA,NA,NA,NA,NA,NA,NA,NA,NA,NA,NA,NA,NA,NA,NA
"21","stim/objects/HouseObjects/ballofstring2.png",65,50,65,0.7,"stim/42.jpeg",4,2,2,NA,"HouseObjects",1,3,"left","left",0.822999954,1,1,0,1,NA,NA,NA,NA,NA,NA,NA,NA,NA,NA,NA,NA,NA,NA,NA,NA,NA,NA,NA,NA,NA,NA,NA,NA
"233","stim/objects/Instruments/doublebass.png",66,50,66,0.7,"stim/34.jpeg",3,4,2,NA,"Instruments",2,1,"right","right",0.576999903,1,1,0,1,NA,NA,NA,NA,NA,NA,NA,NA,NA,NA,NA,NA,NA,NA,NA,NA,NA,NA,NA,NA,NA,NA,NA,NA
"159","stim/objects/Instruments/bassdrum2.png",67,50,67,0.9,"stim/51.jpeg",5,1,3,NA,"Instruments",2,3,"right","left",0.659000158,0,0,0,1,NA,NA,NA,NA,NA,NA,NA,NA,NA,NA,NA,NA,NA,NA,NA,NA,NA,NA,NA,NA,NA,NA,NA,NA
"6","stim/objects/HouseObjects/ashtray2.png",68,50,68,0.7,"stim/41.jpeg",4,1,2,NA,"HouseObjects",1,2,"left","",NA,0,0,0,1,NA,NA,NA,NA,NA,NA,NA,NA,NA,NA,NA,NA,NA,NA,NA,NA,NA,NA,NA,NA,NA,NA,NA,NA
"174","stim/objects/Instruments/bassguitar2.png",69,50,69,0.9,"stim/52.jpeg",5,2,3,NA,"Instruments",2,3,"right","left",0.842999935,0,0,0,1,NA,NA,NA,NA,NA,NA,NA,NA,NA,NA,NA,NA,NA,NA,NA,NA,NA,NA,NA,NA,NA,NA,NA,NA
"31","stim/objects/HouseObjects/barbecuelighter2.png",70,50,70,0.7,"stim/43.jpeg",4,3,2,NA,"HouseObjects",1,4,"left","left",0.693000078,1,1,0,1,NA,NA,NA,NA,NA,NA,NA,NA,NA,NA,NA,NA,NA,NA,NA,NA,NA,NA,NA,NA,NA,NA,NA,NA
"126","stim/objects/Instruments/accordion2.png",71,50,71,0.3,"stim/41.jpeg",4,1,2,NA,"Instruments",2,3,"right","left",0.885999918,0,0,0,1,NA,NA,NA,NA,NA,NA,NA,NA,NA,NA,NA,NA,NA,NA,NA,NA,NA,NA,NA,NA,NA,NA,NA,NA
"160","stim/objects/Instruments/bassdrum2.png",72,50,72,0.9,"stim/51.jpeg",5,1,3,NA,"Instruments",2,2,"right","",NA,0,0,0,1,NA,NA,NA,NA,NA,NA,NA,NA,NA,NA,NA,NA,NA,NA,NA,NA,NA,NA,NA,NA,NA,NA,NA,NA
"219","stim/objects/Instruments/cornet.png",73,50,73,0.7,"stim/32.jpeg",3,2,2,NA,"Instruments",2,2,"right","right",0.679999828,1,1,0,1,NA,NA,NA,NA,NA,NA,NA,NA,NA,NA,NA,NA,NA,NA,NA,NA,NA,NA,NA,NA,NA,NA,NA,NA
"168","stim/objects/Instruments/bassguitar.png",74,50,74,0.5,"stim/22.jpeg",2,2,1,NA,"Instruments",2,1,"right","right",0.733999968,1,1,0,1,NA,NA,NA,NA,NA,NA,NA,NA,NA,NA,NA,NA,NA,NA,NA,NA,NA,NA,NA,NA,NA,NA,NA,NA
"187","stim/objects/Instruments/cello2.png",75,50,75,0.9,"stim/53.jpeg",5,3,3,NA,"Instruments",2,3,"right","left",0.559000015,0,0,0,1,NA,NA,NA,NA,NA,NA,NA,NA,NA,NA,NA,NA,NA,NA,NA,NA,NA,NA,NA,NA,NA,NA,NA,NA
"42","stim/objects/HouseObjects/basket2.png",76,50,76,0.7,"stim/44.jpeg",4,4,2,NA,"HouseObjects",1,1,"left","left",0.874000072,1,1,0,1,NA,NA,NA,NA,NA,NA,NA,NA,NA,NA,NA,NA,NA,NA,NA,NA,NA,NA,NA,NA,NA,NA,NA,NA
"220","stim/objects/Instruments/cornet.png",77,50,77,0.7,"stim/32.jpeg",3,2,2,NA,"Instruments",2,4,"right","right",0.617000103,1,1,0,1,NA,NA,NA,NA,NA,NA,NA,NA,NA,NA,NA,NA,NA,NA,NA,NA,NA,NA,NA,NA,NA,NA,NA,NA
"78","stim/objects/HouseObjects/bucket2.png",78,50,78,0.9,"stim/61.jpeg",6,1,3,NA,"HouseObjects",1,2,"left","left",0.571000099,1,1,0,1,NA,NA,NA,NA,NA,NA,NA,NA,NA,NA,NA,NA,NA,NA,NA,NA,NA,NA,NA,NA,NA,NA,NA,NA
"234","stim/objects/Instruments/doublebass.png",79,50,79,0.7,"stim/34.jpeg",3,4,2,NA,"Instruments",2,3,"right","left",0.698999882,0,0,0,1,NA,NA,NA,NA,NA,NA,NA,NA,NA,NA,NA,NA,NA,NA,NA,NA,NA,NA,NA,NA,NA,NA,NA,NA
"235","stim/objects/Instruments/doublebass.png",80,50,80,0.7,"stim/34.jpeg",3,4,2,NA,"Instruments",2,4,"right","right",0.442000151,1,1,0,1,NA,NA,NA,NA,NA,NA,NA,NA,NA,NA,NA,NA,NA,NA,NA,NA,NA,NA,NA,NA,NA,NA,NA,NA
"113","stim/objects/HouseObjects/clothespin2.png",81,50,81,0.9,"stim/64.jpeg",6,4,3,NA,"HouseObjects",1,1,"left","left",0.458999872,1,1,0,1,NA,NA,NA,NA,NA,NA,NA,NA,NA,NA,NA,NA,NA,NA,NA,NA,NA,NA,NA,NA,NA,NA,NA,NA
"32","stim/objects/HouseObjects/barbecuelighter2.png",82,50,82,0.7,"stim/43.jpeg",4,3,2,NA,"HouseObjects",1,4,"left","right",0.430999994,0,0,0,1,NA,NA,NA,NA,NA,NA,NA,NA,NA,NA,NA,NA,NA,NA,NA,NA,NA,NA,NA,NA,NA,NA,NA,NA
"154","stim/objects/Instruments/bassdrum.png",83,50,83,0.5,"stim/21.jpeg",2,1,1,NA,"Instruments",2,1,"right","left",0.427999973,0,0,0,1,NA,NA,NA,NA,NA,NA,NA,NA,NA,NA,NA,NA,NA,NA,NA,NA,NA,NA,NA,NA,NA,NA,NA,NA
"151","stim/objects/Instruments/banjo2.png",84,50,84,0.3,"stim/44.jpeg",4,4,2,NA,"Instruments",2,1,"right","right",0.379000187,1,1,0,1,NA,NA,NA,NA,NA,NA,NA,NA,NA,NA,NA,NA,NA,NA,NA,NA,NA,NA,NA,NA,NA,NA,NA,NA
"57","stim/objects/HouseObjects/blender.png",85,50,85,0.5,"stim/22.jpeg",2,2,1,NA,"HouseObjects",1,3,"left","left",0.671000004,1,1,0,1,NA,NA,NA,NA,NA,NA,NA,NA,NA,NA,NA,NA,NA,NA,NA,NA,NA,NA,NA,NA,NA,NA,NA,NA
"123","stim/objects/Instruments/accordion.png",86,50,86,0.5,"stim/11.jpeg",1,1,1,NA,"Instruments",2,4,"right","right",0.906999826,1,1,0,1,NA,NA,NA,NA,NA,NA,NA,NA,NA,NA,NA,NA,NA,NA,NA,NA,NA,NA,NA,NA,NA,NA,NA,NA
"211","stim/objects/Instruments/clarinet.png",87,50,87,0.7,"stim/31.jpeg",3,1,2,NA,"Instruments",2,1,"right","left",0.730000019,0,0,0,1,NA,NA,NA,NA,NA,NA,NA,NA,NA,NA,NA,NA,NA,NA,NA,NA,NA,NA,NA,NA,NA,NA,NA,NA
"203","stim/objects/Instruments/chime2.png",88,50,88,0.9,"stim/54.jpeg",5,4,3,NA,"Instruments",2,2,"right","left",0.79399991,0,0,0,1,NA,NA,NA,NA,NA,NA,NA,NA,NA,NA,NA,NA,NA,NA,NA,NA,NA,NA,NA,NA,NA,NA,NA,NA
"39","stim/objects/HouseObjects/basket.png",89,50,89,0.5,"stim/14.jpeg",1,4,1,NA,"HouseObjects",1,3,"left","right",0.818000078,0,0,0,1,NA,NA,NA,NA,NA,NA,NA,NA,NA,NA,NA,NA,NA,NA,NA,NA,NA,NA,NA,NA,NA,NA,NA,NA
"161","stim/objects/Instruments/bassdrum2.png",90,50,90,0.9,"stim/51.jpeg",5,1,3,NA,"Instruments",2,1,"right","left",0.680999994,0,0,0,1,NA,NA,NA,NA,NA,NA,NA,NA,NA,NA,NA,NA,NA,NA,NA,NA,NA,NA,NA,NA,NA,NA,NA,NA
"114","stim/objects/HouseObjects/clothespin2.png",91,50,91,0.9,"stim/64.jpeg",6,4,3,NA,"HouseObjects",1,1,"left","left",0.52699995,1,1,0,1,NA,NA,NA,NA,NA,NA,NA,NA,NA,NA,NA,NA,NA,NA,NA,NA,NA,NA,NA,NA,NA,NA,NA,NA
"61","stim/objects/HouseObjects/bottle.png",92,50,92,0.5,"stim/23.jpeg",2,3,1,NA,"HouseObjects",1,3,"left","right",0.839999914,0,0,0,1,NA,NA,NA,NA,NA,NA,NA,NA,NA,NA,NA,NA,NA,NA,NA,NA,NA,NA,NA,NA,NA,NA,NA,NA
"131","stim/objects/Instruments/acousticguitar.png",93,50,93,0.5,"stim/12.jpeg",1,2,1,NA,"Instruments",2,3,"right","left",0.725000143,0,0,0,1,NA,NA,NA,NA,NA,NA,NA,NA,NA,NA,NA,NA,NA,NA,NA,NA,NA,NA,NA,NA,NA,NA,NA,NA
"188","stim/objects/Instruments/cello2.png",94,50,94,0.9,"stim/53.jpeg",5,3,3,NA,"Instruments",2,2,"right","right",0.819000006,1,1,0,1,NA,NA,NA,NA,NA,NA,NA,NA,NA,NA,NA,NA,NA,NA,NA,NA,NA,NA,NA,NA,NA,NA,NA,NA
"105","stim/objects/HouseObjects/clothesdryingrack2.png",95,50,95,0.9,"stim/63.jpeg",6,3,3,NA,"HouseObjects",1,2,"left","left",0.536999941,1,1,0,1,NA,NA,NA,NA,NA,NA,NA,NA,NA,NA,NA,NA,NA,NA,NA,NA,NA,NA,NA,NA,NA,NA,NA,NA
"33","stim/objects/HouseObjects/barbecuelighter2.png",96,50,96,0.7,"stim/43.jpeg",4,3,2,NA,"HouseObjects",1,4,"left","",NA,0,0,0,1,NA,NA,NA,NA,NA,NA,NA,NA,NA,NA,NA,NA,NA,NA,NA,NA,NA,NA,NA,NA,NA,NA,NA,NA
"34","stim/objects/HouseObjects/barbecuelighter2.png",97,50,97,0.7,"stim/43.jpeg",4,3,2,NA,"HouseObjects",1,2,"left","left",0.858999968,1,1,0,1,NA,NA,NA,NA,NA,NA,NA,NA,NA,NA,NA,NA,NA,NA,NA,NA,NA,NA,NA,NA,NA,NA,NA,NA
"175","stim/objects/Instruments/bassguitar2.png",98,50,98,0.9,"stim/52.jpeg",5,2,3,NA,"Instruments",2,4,"right","right",0.775000095,1,1,0,1,NA,NA,NA,NA,NA,NA,NA,NA,NA,NA,NA,NA,NA,NA,NA,NA,NA,NA,NA,NA,NA,NA,NA,NA
"176","stim/objects/Instruments/bassguitar2.png",99,50,99,0.9,"stim/52.jpeg",5,2,3,NA,"Instruments",2,1,"right","right",0.730000019,1,1,0,1,NA,NA,NA,NA,NA,NA,NA,NA,NA,NA,NA,NA,NA,NA,NA,NA,NA,NA,NA,NA,NA,NA,NA,NA
"152","stim/objects/Instruments/banjo2.png",100,50,100,0.3,"stim/44.jpeg",4,4,2,NA,"Instruments",2,3,"right","",NA,0,0,0,1,NA,NA,NA,NA,NA,NA,NA,NA,NA,NA,NA,NA,NA,NA,NA,NA,NA,NA,NA,NA,NA,NA,NA,NA
"15","stim/objects/HouseObjects/ballofstring.png",101,50,101,0.5,"stim/12.jpeg",1,2,1,NA,"HouseObjects",1,2,"left","left",0.675000191,1,1,0,1,NA,NA,NA,NA,NA,NA,NA,NA,NA,NA,NA,NA,NA,NA,NA,NA,NA,NA,NA,NA,NA,NA,NA,NA
"189","stim/objects/Instruments/cello2.png",102,50,102,0.9,"stim/53.jpeg",5,3,3,NA,"Instruments",2,2,"right","right",0.65899992,1,1,0,1,NA,NA,NA,NA,NA,NA,NA,NA,NA,NA,NA,NA,NA,NA,NA,NA,NA,NA,NA,NA,NA,NA,NA,NA
"91","stim/objects/HouseObjects/clock2.png",103,50,103,0.9,"stim/62.jpeg",6,2,3,NA,"HouseObjects",1,4,"left","left",0.536000013,1,1,0,1,NA,NA,NA,NA,NA,NA,NA,NA,NA,NA,NA,NA,NA,NA,NA,NA,NA,NA,NA,NA,NA,NA,NA,NA
"236","stim/objects/Instruments/doublebass.png",104,50,104,0.7,"stim/34.jpeg",3,4,2,NA,"Instruments",2,4,"right","right",0.576999903,1,1,0,1,NA,NA,NA,NA,NA,NA,NA,NA,NA,NA,NA,NA,NA,NA,NA,NA,NA,NA,NA,NA,NA,NA,NA,NA
"190","stim/objects/Instruments/cello2.png",105,50,105,0.9,"stim/53.jpeg",5,3,3,NA,"Instruments",2,2,"right","",NA,0,0,0,1,NA,NA,NA,NA,NA,NA,NA,NA,NA,NA,NA,NA,NA,NA,NA,NA,NA,NA,NA,NA,NA,NA,NA,NA
"140","stim/objects/Instruments/balalaika.png",106,50,106,0.5,"stim/13.jpeg",1,3,1,NA,"Instruments",2,2,"right","right",0.726000071,1,1,0,1,NA,NA,NA,NA,NA,NA,NA,NA,NA,NA,NA,NA,NA,NA,NA,NA,NA,NA,NA,NA,NA,NA,NA,NA
"43","stim/objects/HouseObjects/basket2.png",107,50,107,0.7,"stim/44.jpeg",4,4,2,NA,"HouseObjects",1,1,"left","right",0.878000021,0,0,0,1,NA,NA,NA,NA,NA,NA,NA,NA,NA,NA,NA,NA,NA,NA,NA,NA,NA,NA,NA,NA,NA,NA,NA,NA
"221","stim/objects/Instruments/cornet.png",108,50,108,0.7,"stim/32.jpeg",3,2,2,NA,"Instruments",2,3,"right","right",0.691999912,1,1,0,1,NA,NA,NA,NA,NA,NA,NA,NA,NA,NA,NA,NA,NA,NA,NA,NA,NA,NA,NA,NA,NA,NA,NA,NA
"92","stim/objects/HouseObjects/clock2.png",109,50,109,0.9,"stim/62.jpeg",6,2,3,NA,"HouseObjects",1,4,"left","left",0.601999998,1,1,0,1,NA,NA,NA,NA,NA,NA,NA,NA,NA,NA,NA,NA,NA,NA,NA,NA,NA,NA,NA,NA,NA,NA,NA,NA
"51","stim/objects/HouseObjects/bleachbottle.png",110,50,110,0.5,"stim/21.jpeg",2,1,1,NA,"HouseObjects",1,3,"left","right",0.909000158,0,0,0,1,NA,NA,NA,NA,NA,NA,NA,NA,NA,NA,NA,NA,NA,NA,NA,NA,NA,NA,NA,NA,NA,NA,NA,NA
"7","stim/objects/HouseObjects/ashtray2.png",111,50,111,0.7,"stim/41.jpeg",4,1,2,NA,"HouseObjects",1,2,"left","right",0.907999992,0,0,0,1,NA,NA,NA,NA,NA,NA,NA,NA,NA,NA,NA,NA,NA,NA,NA,NA,NA,NA,NA,NA,NA,NA,NA,NA
"222","stim/objects/Instruments/cornet.png",112,50,112,0.7,"stim/32.jpeg",3,2,2,NA,"Instruments",2,1,"right","right",0.609999895,1,1,0,1,NA,NA,NA,NA,NA,NA,NA,NA,NA,NA,NA,NA,NA,NA,NA,NA,NA,NA,NA,NA,NA,NA,NA,NA
"177","stim/objects/Instruments/bassguitar2.png",113,50,113,0.9,"stim/52.jpeg",5,2,3,NA,"Instruments",2,3,"right","left",0.609999895,0,0,0,1,NA,NA,NA,NA,NA,NA,NA,NA,NA,NA,NA,NA,NA,NA,NA,NA,NA,NA,NA,NA,NA,NA,NA,NA
"22","stim/objects/HouseObjects/ballofstring2.png",114,50,114,0.7,"stim/42.jpeg",4,2,2,NA,"HouseObjects",1,2,"left","left",0.659999847,1,1,0,1,NA,NA,NA,NA,NA,NA,NA,NA,NA,NA,NA,NA,NA,NA,NA,NA,NA,NA,NA,NA,NA,NA,NA,NA
"44","stim/objects/HouseObjects/basket2.png",115,50,115,0.7,"stim/44.jpeg",4,4,2,NA,"HouseObjects",1,3,"left","left",0.876999855,1,1,0,1,NA,NA,NA,NA,NA,NA,NA,NA,NA,NA,NA,NA,NA,NA,NA,NA,NA,NA,NA,NA,NA,NA,NA,NA
"132","stim/objects/Instruments/acousticguitar.png",116,50,116,0.5,"stim/12.jpeg",1,2,1,NA,"Instruments",2,4,"right","",NA,0,0,0,1,NA,NA,NA,NA,NA,NA,NA,NA,NA,NA,NA,NA,NA,NA,NA,NA,NA,NA,NA,NA,NA,NA,NA,NA
"204","stim/objects/Instruments/chime2.png",117,50,117,0.9,"stim/54.jpeg",5,4,3,NA,"Instruments",2,4,"right","right",0.730999947,1,1,0,1,NA,NA,NA,NA,NA,NA,NA,NA,NA,NA,NA,NA,NA,NA,NA,NA,NA,NA,NA,NA,NA,NA,NA,NA
"8","stim/objects/HouseObjects/ashtray2.png",118,50,118,0.7,"stim/41.jpeg",4,1,2,NA,"HouseObjects",1,4,"left","left",0.881999969,1,1,0,1,NA,NA,NA,NA,NA,NA,NA,NA,NA,NA,NA,NA,NA,NA,NA,NA,NA,NA,NA,NA,NA,NA,NA,NA
"23","stim/objects/HouseObjects/ballofstring2.png",119,50,119,0.7,"stim/42.jpeg",4,2,2,NA,"HouseObjects",1,4,"left","left",0.828999996,1,1,0,1,NA,NA,NA,NA,NA,NA,NA,NA,NA,NA,NA,NA,NA,NA,NA,NA,NA,NA,NA,NA,NA,NA,NA,NA
"205","stim/objects/Instruments/chime2.png",120,50,120,0.9,"stim/54.jpeg",5,4,3,NA,"Instruments",2,3,"right","right",0.711999893,1,1,0,1,NA,NA,NA,NA,NA,NA,NA,NA,NA,NA,NA,NA,NA,NA,NA,NA,NA,NA,NA,NA,NA,NA,NA,NA
"62","stim/objects/HouseObjects/bottle.png",121,50,121,0.5,"stim/23.jpeg",2,3,1,NA,"HouseObjects",1,1,"left","left",0.828999996,1,1,0,1,NA,NA,NA,NA,NA,NA,NA,NA,NA,NA,NA,NA,NA,NA,NA,NA,NA,NA,NA,NA,NA,NA,NA,NA
"162","stim/objects/Instruments/bassdrum2.png",122,50,122,0.9,"stim/51.jpeg",5,1,3,NA,"Instruments",2,3,"right","right",0.77699995,1,1,0,1,NA,NA,NA,NA,NA,NA,NA,NA,NA,NA,NA,NA,NA,NA,NA,NA,NA,NA,NA,NA,NA,NA,NA,NA
"45","stim/objects/HouseObjects/basket2.png",123,50,123,0.7,"stim/44.jpeg",4,4,2,NA,"HouseObjects",1,4,"left","right",0.694999933,0,0,0,1,NA,NA,NA,NA,NA,NA,NA,NA,NA,NA,NA,NA,NA,NA,NA,NA,NA,NA,NA,NA,NA,NA,NA,NA
"155","stim/objects/Instruments/bassdrum.png",124,50,124,0.5,"stim/21.jpeg",2,1,1,NA,"Instruments",2,1,"right","left",0.786000013,0,0,0,1,NA,NA,NA,NA,NA,NA,NA,NA,NA,NA,NA,NA,NA,NA,NA,NA,NA,NA,NA,NA,NA,NA,NA,NA
"183","stim/objects/Instruments/cello.png",125,50,125,0.5,"stim/23.jpeg",2,3,1,NA,"Instruments",2,4,"right","left",0.643000126,0,0,0,1,NA,NA,NA,NA,NA,NA,NA,NA,NA,NA,NA,NA,NA,NA,NA,NA,NA,NA,NA,NA,NA,NA,NA,NA
"16","stim/objects/HouseObjects/ballofstring.png",126,50,126,0.5,"stim/12.jpeg",1,2,1,NA,"HouseObjects",1,4,"left","left",0.842000008,1,1,0,1,NA,NA,NA,NA,NA,NA,NA,NA,NA,NA,NA,NA,NA,NA,NA,NA,NA,NA,NA,NA,NA,NA,NA,NA
"206","stim/objects/Instruments/chime2.png",127,50,127,0.9,"stim/54.jpeg",5,4,3,NA,"Instruments",2,1,"right","right",0.704999924,1,1,0,1,NA,NA,NA,NA,NA,NA,NA,NA,NA,NA,NA,NA,NA,NA,NA,NA,NA,NA,NA,NA,NA,NA,NA,NA
"63","stim/objects/HouseObjects/bottle.png",128,50,128,0.5,"stim/23.jpeg",2,3,1,NA,"HouseObjects",1,1,"left","left",0.679999828,1,1,0,1,NA,NA,NA,NA,NA,NA,NA,NA,NA,NA,NA,NA,NA,NA,NA,NA,NA,NA,NA,NA,NA,NA,NA,NA
"110","stim/objects/HouseObjects/clothespin.png",129,50,129,0.3,"stim/34.jpeg",3,4,2,NA,"HouseObjects",1,1,"left","right",0.611999989,0,0,0,1,NA,NA,NA,NA,NA,NA,NA,NA,NA,NA,NA,NA,NA,NA,NA,NA,NA,NA,NA,NA,NA,NA,NA,NA
"85","stim/objects/HouseObjects/clock.png",130,50,130,0.3,"stim/32.jpeg",3,2,2,NA,"HouseObjects",1,2,"left","left",0.779000044,1,1,0,1,NA,NA,NA,NA,NA,NA,NA,NA,NA,NA,NA,NA,NA,NA,NA,NA,NA,NA,NA,NA,NA,NA,NA,NA
"226","stim/objects/Instruments/cymbal.png",131,50,131,0.7,"stim/33.jpeg",3,3,2,NA,"Instruments",2,1,"right","left",0.851000071,0,0,0,1,NA,NA,NA,NA,NA,NA,NA,NA,NA,NA,NA,NA,NA,NA,NA,NA,NA,NA,NA,NA,NA,NA,NA,NA
"106","stim/objects/HouseObjects/clothesdryingrack2.png",132,50,132,0.9,"stim/63.jpeg",6,3,3,NA,"HouseObjects",1,4,"left","left",0.756000042,1,1,0,1,NA,NA,NA,NA,NA,NA,NA,NA,NA,NA,NA,NA,NA,NA,NA,NA,NA,NA,NA,NA,NA,NA,NA,NA
"27","stim/objects/HouseObjects/barbecuelighter.png",133,50,133,0.5,"stim/13.jpeg",1,3,1,NA,"HouseObjects",1,1,"left","right",0.748999834,0,0,0,1,NA,NA,NA,NA,NA,NA,NA,NA,NA,NA,NA,NA,NA,NA,NA,NA,NA,NA,NA,NA,NA,NA,NA,NA
"115","stim/objects/HouseObjects/clothespin2.png",134,50,134,0.9,"stim/64.jpeg",6,4,3,NA,"HouseObjects",1,4,"left","left",0.680000067,1,1,0,1,NA,NA,NA,NA,NA,NA,NA,NA,NA,NA,NA,NA,NA,NA,NA,NA,NA,NA,NA,NA,NA,NA,NA,NA
"46","stim/objects/HouseObjects/basket2.png",135,50,135,0.7,"stim/44.jpeg",4,4,2,NA,"HouseObjects",1,3,"left","left",0.710999966,1,1,0,1,NA,NA,NA,NA,NA,NA,NA,NA,NA,NA,NA,NA,NA,NA,NA,NA,NA,NA,NA,NA,NA,NA,NA,NA
"28","stim/objects/HouseObjects/barbecuelighter.png",136,50,136,0.5,"stim/13.jpeg",1,3,1,NA,"HouseObjects",1,3,"left","right",0.717999935,0,0,0,1,NA,NA,NA,NA,NA,NA,NA,NA,NA,NA,NA,NA,NA,NA,NA,NA,NA,NA,NA,NA,NA,NA,NA,NA
"29","stim/objects/HouseObjects/barbecuelighter.png",137,50,137,0.5,"stim/13.jpeg",1,3,1,NA,"HouseObjects",1,4,"left","left",0.595000029,1,1,0,1,NA,NA,NA,NA,NA,NA,NA,NA,NA,NA,NA,NA,NA,NA,NA,NA,NA,NA,NA,NA,NA,NA,NA,NA
"198","stim/objects/Instruments/chime.png",138,50,138,0.5,"stim/24.jpeg",2,4,1,NA,"Instruments",2,3,"right","right",0.914999962,1,1,0,1,NA,NA,NA,NA,NA,NA,NA,NA,NA,NA,NA,NA,NA,NA,NA,NA,NA,NA,NA,NA,NA,NA,NA,NA
"212","stim/objects/Instruments/clarinet.png",139,50,139,0.7,"stim/31.jpeg",3,1,2,NA,"Instruments",2,1,"right","left",0.613000154,0,0,0,1,NA,NA,NA,NA,NA,NA,NA,NA,NA,NA,NA,NA,NA,NA,NA,NA,NA,NA,NA,NA,NA,NA,NA,NA
"35","stim/objects/HouseObjects/barbecuelighter2.png",140,50,140,0.7,"stim/43.jpeg",4,3,2,NA,"HouseObjects",1,1,"left","left",0.615999937,1,1,0,1,NA,NA,NA,NA,NA,NA,NA,NA,NA,NA,NA,NA,NA,NA,NA,NA,NA,NA,NA,NA,NA,NA,NA,NA
"227","stim/objects/Instruments/cymbal.png",141,50,141,0.7,"stim/33.jpeg",3,3,2,NA,"Instruments",2,2,"right","right",0.678999901,1,1,0,1,NA,NA,NA,NA,NA,NA,NA,NA,NA,NA,NA,NA,NA,NA,NA,NA,NA,NA,NA,NA,NA,NA,NA,NA
"79","stim/objects/HouseObjects/bucket2.png",142,50,142,0.9,"stim/61.jpeg",6,1,3,NA,"HouseObjects",1,2,"left","left",0.513000011,1,1,0,1,NA,NA,NA,NA,NA,NA,NA,NA,NA,NA,NA,NA,NA,NA,NA,NA,NA,NA,NA,NA,NA,NA,NA,NA
"86","stim/objects/HouseObjects/clock.png",143,50,143,0.3,"stim/32.jpeg",3,2,2,NA,"HouseObjects",1,4,"left","left",0.65199995,1,1,0,1,NA,NA,NA,NA,NA,NA,NA,NA,NA,NA,NA,NA,NA,NA,NA,NA,NA,NA,NA,NA,NA,NA,NA,NA
"228","stim/objects/Instruments/cymbal.png",144,50,144,0.7,"stim/33.jpeg",3,3,2,NA,"Instruments",2,3,"right","left",0.494000196,0,0,0,1,NA,NA,NA,NA,NA,NA,NA,NA,NA,NA,NA,NA,NA,NA,NA,NA,NA,NA,NA,NA,NA,NA,NA,NA
"191","stim/objects/Instruments/cello2.png",145,50,145,0.9,"stim/53.jpeg",5,3,3,NA,"Instruments",2,4,"right","right",0.713000059,1,1,0,1,NA,NA,NA,NA,NA,NA,NA,NA,NA,NA,NA,NA,NA,NA,NA,NA,NA,NA,NA,NA,NA,NA,NA,NA
"116","stim/objects/HouseObjects/clothespin2.png",146,50,146,0.9,"stim/64.jpeg",6,4,3,NA,"HouseObjects",1,2,"left","left",0.531999826,1,1,0,1,NA,NA,NA,NA,NA,NA,NA,NA,NA,NA,NA,NA,NA,NA,NA,NA,NA,NA,NA,NA,NA,NA,NA,NA
"107","stim/objects/HouseObjects/clothesdryingrack2.png",147,50,147,0.9,"stim/63.jpeg",6,3,3,NA,"HouseObjects",1,2,"left","left",0.444000006,1,1,0,1,NA,NA,NA,NA,NA,NA,NA,NA,NA,NA,NA,NA,NA,NA,NA,NA,NA,NA,NA,NA,NA,NA,NA,NA
"192","stim/objects/Instruments/cello2.png",148,50,148,0.9,"stim/53.jpeg",5,3,3,NA,"Instruments",2,1,"right","right",0.749000072,1,1,0,1,NA,NA,NA,NA,NA,NA,NA,NA,NA,NA,NA,NA,NA,NA,NA,NA,NA,NA,NA,NA,NA,NA,NA,NA
"240","stim/objects/Instruments/doublebass2.png",149,50,149,0.1,"stim/64.jpeg",6,4,3,NA,"Instruments",2,3,"right","left",0.496000051,0,0,0,1,NA,NA,NA,NA,NA,NA,NA,NA,NA,NA,NA,NA,NA,NA,NA,NA,NA,NA,NA,NA,NA,NA,NA,NA
"52","stim/objects/HouseObjects/bleachbottle.png",150,50,150,0.5,"stim/21.jpeg",2,1,1,NA,"HouseObjects",1,1,"left","left",0.546000004,1,1,0,1,NA,NA,NA,NA,NA,NA,NA,NA,NA,NA,NA,NA,NA,NA,NA,NA,NA,NA,NA,NA,NA,NA,NA,NA
"117","stim/objects/HouseObjects/clothespin2.png",151,50,151,0.9,"stim/64.jpeg",6,4,3,NA,"HouseObjects",1,3,"left","left",0.595000029,1,1,0,1,NA,NA,NA,NA,NA,NA,NA,NA,NA,NA,NA,NA,NA,NA,NA,NA,NA,NA,NA,NA,NA,NA,NA,NA
"141","stim/objects/Instruments/balalaika.png",152,50,152,0.5,"stim/13.jpeg",1,3,1,NA,"Instruments",2,4,"right","left",0.801000118,0,0,0,1,NA,NA,NA,NA,NA,NA,NA,NA,NA,NA,NA,NA,NA,NA,NA,NA,NA,NA,NA,NA,NA,NA,NA,NA
"54","stim/objects/HouseObjects/bleachbottle2.png",153,50,153,0.1,"stim/51.jpeg",5,1,3,NA,"HouseObjects",1,1,"left","right",0.757999897,0,0,0,1,NA,NA,NA,NA,NA,NA,NA,NA,NA,NA,NA,NA,NA,NA,NA,NA,NA,NA,NA,NA,NA,NA,NA,NA
"40","stim/objects/HouseObjects/basket.png",154,50,154,0.5,"stim/14.jpeg",1,4,1,NA,"HouseObjects",1,4,"left","right",0.835999966,0,0,0,1,NA,NA,NA,NA,NA,NA,NA,NA,NA,NA,NA,NA,NA,NA,NA,NA,NA,NA,NA,NA,NA,NA,NA,NA
"68","stim/objects/HouseObjects/broom.png",155,50,155,0.5,"stim/24.jpeg",2,4,1,NA,"HouseObjects",1,4,"left","right",0.678999901,0,0,0,1,NA,NA,NA,NA,NA,NA,NA,NA,NA,NA,NA,NA,NA,NA,NA,NA,NA,NA,NA,NA,NA,NA,NA,NA
"163","stim/objects/Instruments/bassdrum2.png",156,50,156,0.9,"stim/51.jpeg",5,1,3,NA,"Instruments",2,4,"right","right",0.693000078,1,1,0,1,NA,NA,NA,NA,NA,NA,NA,NA,NA,NA,NA,NA,NA,NA,NA,NA,NA,NA,NA,NA,NA,NA,NA,NA
"224","stim/objects/Instruments/cornet2.png",157,50,157,0.1,"stim/62.jpeg",6,2,3,NA,"Instruments",2,1,"right","left",0.613000154,0,0,0,1,NA,NA,NA,NA,NA,NA,NA,NA,NA,NA,NA,NA,NA,NA,NA,NA,NA,NA,NA,NA,NA,NA,NA,NA
"58","stim/objects/HouseObjects/blender.png",158,50,158,0.5,"stim/22.jpeg",2,2,1,NA,"HouseObjects",1,3,"left","left",0.774999857,1,1,0,1,NA,NA,NA,NA,NA,NA,NA,NA,NA,NA,NA,NA,NA,NA,NA,NA,NA,NA,NA,NA,NA,NA,NA,NA
"193","stim/objects/Instruments/cello2.png",159,50,159,0.9,"stim/53.jpeg",5,3,3,NA,"Instruments",2,1,"right","right",0.769000053,1,1,0,1,NA,NA,NA,NA,NA,NA,NA,NA,NA,NA,NA,NA,NA,NA,NA,NA,NA,NA,NA,NA,NA,NA,NA,NA
"9","stim/objects/HouseObjects/ashtray2.png",160,50,160,0.7,"stim/41.jpeg",4,1,2,NA,"HouseObjects",1,4,"left","left",0.743000031,1,1,0,1,NA,NA,NA,NA,NA,NA,NA,NA,NA,NA,NA,NA,NA,NA,NA,NA,NA,NA,NA,NA,NA,NA,NA,NA
"156","stim/objects/Instruments/bassdrum.png",161,50,161,0.5,"stim/21.jpeg",2,1,1,NA,"Instruments",2,2,"right","",NA,0,0,0,1,NA,NA,NA,NA,NA,NA,NA,NA,NA,NA,NA,NA,NA,NA,NA,NA,NA,NA,NA,NA,NA,NA,NA,NA
"69","stim/objects/HouseObjects/broom.png",162,50,162,0.5,"stim/24.jpeg",2,4,1,NA,"HouseObjects",1,3,"left","left",0.552000046,1,1,0,1,NA,NA,NA,NA,NA,NA,NA,NA,NA,NA,NA,NA,NA,NA,NA,NA,NA,NA,NA,NA,NA,NA,NA,NA
"80","stim/objects/HouseObjects/bucket2.png",163,50,163,0.9,"stim/61.jpeg",6,1,3,NA,"HouseObjects",1,3,"left","left",0.601000071,1,1,0,1,NA,NA,NA,NA,NA,NA,NA,NA,NA,NA,NA,NA,NA,NA,NA,NA,NA,NA,NA,NA,NA,NA,NA,NA
"36","stim/objects/HouseObjects/barbecuelighter2.png",164,50,164,0.7,"stim/43.jpeg",4,3,2,NA,"HouseObjects",1,2,"left","right",0.776000023,0,0,0,1,NA,NA,NA,NA,NA,NA,NA,NA,NA,NA,NA,NA,NA,NA,NA,NA,NA,NA,NA,NA,NA,NA,NA,NA
"74","stim/objects/HouseObjects/bucket.png",165,50,165,0.3,"stim/31.jpeg",3,1,2,NA,"HouseObjects",1,2,"left","right",0.570000172,0,0,0,1,NA,NA,NA,NA,NA,NA,NA,NA,NA,NA,NA,NA,NA,NA,NA,NA,NA,NA,NA,NA,NA,NA,NA,NA
"207","stim/objects/Instruments/chime2.png",166,50,166,0.9,"stim/54.jpeg",5,4,3,NA,"Instruments",2,2,"right","right",0.763000011,1,1,0,1,NA,NA,NA,NA,NA,NA,NA,NA,NA,NA,NA,NA,NA,NA,NA,NA,NA,NA,NA,NA,NA,NA,NA,NA
"3","stim/objects/HouseObjects/ashtray.png",167,50,167,0.5,"stim/11.jpeg",1,1,1,NA,"HouseObjects",1,4,"left","",NA,0,0,0,1,NA,NA,NA,NA,NA,NA,NA,NA,NA,NA,NA,NA,NA,NA,NA,NA,NA,NA,NA,NA,NA,NA,NA,NA
"223","stim/objects/Instruments/cornet.png",168,50,168,0.7,"stim/32.jpeg",3,2,2,NA,"Instruments",2,1,"right","left",0.578999996,0,0,0,1,NA,NA,NA,NA,NA,NA,NA,NA,NA,NA,NA,NA,NA,NA,NA,NA,NA,NA,NA,NA,NA,NA,NA,NA
"81","stim/objects/HouseObjects/bucket2.png",169,50,169,0.9,"stim/61.jpeg",6,1,3,NA,"HouseObjects",1,1,"left","left",0.512000084,1,1,0,1,NA,NA,NA,NA,NA,NA,NA,NA,NA,NA,NA,NA,NA,NA,NA,NA,NA,NA,NA,NA,NA,NA,NA,NA
"178","stim/objects/Instruments/bassguitar2.png",170,50,170,0.9,"stim/52.jpeg",5,2,3,NA,"Instruments",2,1,"right","right",0.50999999,1,1,0,1,NA,NA,NA,NA,NA,NA,NA,NA,NA,NA,NA,NA,NA,NA,NA,NA,NA,NA,NA,NA,NA,NA,NA,NA
"59","stim/objects/HouseObjects/blender.png",171,50,171,0.5,"stim/22.jpeg",2,2,1,NA,"HouseObjects",1,2,"left","left",0.683000088,1,1,0,1,NA,NA,NA,NA,NA,NA,NA,NA,NA,NA,NA,NA,NA,NA,NA,NA,NA,NA,NA,NA,NA,NA,NA,NA
"237","stim/objects/Instruments/doublebass.png",172,50,172,0.7,"stim/34.jpeg",3,4,2,NA,"Instruments",2,4,"right","left",0.601999998,0,0,0,1,NA,NA,NA,NA,NA,NA,NA,NA,NA,NA,NA,NA,NA,NA,NA,NA,NA,NA,NA,NA,NA,NA,NA,NA
"229","stim/objects/Instruments/cymbal.png",173,50,173,0.7,"stim/33.jpeg",3,3,2,NA,"Instruments",2,2,"right","right",0.45600009,1,1,0,1,NA,NA,NA,NA,NA,NA,NA,NA,NA,NA,NA,NA,NA,NA,NA,NA,NA,NA,NA,NA,NA,NA,NA,NA
"93","stim/objects/HouseObjects/clock2.png",174,50,174,0.9,"stim/62.jpeg",6,2,3,NA,"HouseObjects",1,1,"left","left",0.644000053,1,1,0,1,NA,NA,NA,NA,NA,NA,NA,NA,NA,NA,NA,NA,NA,NA,NA,NA,NA,NA,NA,NA,NA,NA,NA,NA
"108","stim/objects/HouseObjects/clothesdryingrack2.png",175,50,175,0.9,"stim/63.jpeg",6,3,3,NA,"HouseObjects",1,4,"left","left",0.555999994,1,1,0,1,NA,NA,NA,NA,NA,NA,NA,NA,NA,NA,NA,NA,NA,NA,NA,NA,NA,NA,NA,NA,NA,NA,NA,NA
"70","stim/objects/HouseObjects/broom.png",176,50,176,0.5,"stim/24.jpeg",2,4,1,NA,"HouseObjects",1,4,"left","left",0.779000044,1,1,0,1,NA,NA,NA,NA,NA,NA,NA,NA,NA,NA,NA,NA,NA,NA,NA,NA,NA,NA,NA,NA,NA,NA,NA,NA
"118","stim/objects/HouseObjects/clothespin2.png",177,50,177,0.9,"stim/64.jpeg",6,4,3,NA,"HouseObjects",1,3,"left","left",0.551000118,1,1,0,1,NA,NA,NA,NA,NA,NA,NA,NA,NA,NA,NA,NA,NA,NA,NA,NA,NA,NA,NA,NA,NA,NA,NA,NA
"4","stim/objects/HouseObjects/ashtray.png",178,50,178,0.5,"stim/11.jpeg",1,1,1,NA,"HouseObjects",1,2,"left","right",0.617999792,0,0,0,1,NA,NA,NA,NA,NA,NA,NA,NA,NA,NA,NA,NA,NA,NA,NA,NA,NA,NA,NA,NA,NA,NA,NA,NA
"127","stim/objects/Instruments/accordion2.png",179,50,179,0.3,"stim/41.jpeg",4,1,2,NA,"Instruments",2,2,"right","left",0.628000021,0,0,0,1,NA,NA,NA,NA,NA,NA,NA,NA,NA,NA,NA,NA,NA,NA,NA,NA,NA,NA,NA,NA,NA,NA,NA,NA
"124","stim/objects/Instruments/accordion.png",180,50,180,0.5,"stim/11.jpeg",1,1,1,NA,"Instruments",2,2,"right","left",0.68599987,0,0,0,1,NA,NA,NA,NA,NA,NA,NA,NA,NA,NA,NA,NA,NA,NA,NA,NA,NA,NA,NA,NA,NA,NA,NA,NA
"119","stim/objects/HouseObjects/clothespin2.png",181,50,181,0.9,"stim/64.jpeg",6,4,3,NA,"HouseObjects",1,4,"left","left",0.894999981,1,1,0,1,NA,NA,NA,NA,NA,NA,NA,NA,NA,NA,NA,NA,NA,NA,NA,NA,NA,NA,NA,NA,NA,NA,NA,NA
"238","stim/objects/Instruments/doublebass.png",182,50,182,0.7,"stim/34.jpeg",3,4,2,NA,"Instruments",2,3,"right","right",0.684000015,1,1,0,1,NA,NA,NA,NA,NA,NA,NA,NA,NA,NA,NA,NA,NA,NA,NA,NA,NA,NA,NA,NA,NA,NA,NA,NA
"239","stim/objects/Instruments/doublebass.png",183,50,183,0.7,"stim/34.jpeg",3,4,2,NA,"Instruments",2,3,"right","right",0.59800005,1,1,0,1,NA,NA,NA,NA,NA,NA,NA,NA,NA,NA,NA,NA,NA,NA,NA,NA,NA,NA,NA,NA,NA,NA,NA,NA
"133","stim/objects/Instruments/acousticguitar.png",184,50,184,0.5,"stim/12.jpeg",1,2,1,NA,"Instruments",2,2,"right","right",0.465000153,1,1,0,1,NA,NA,NA,NA,NA,NA,NA,NA,NA,NA,NA,NA,NA,NA,NA,NA,NA,NA,NA,NA,NA,NA,NA,NA
"82","stim/objects/HouseObjects/bucket2.png",185,50,185,0.9,"stim/61.jpeg",6,1,3,NA,"HouseObjects",1,2,"left","left",0.602999926,1,1,0,1,NA,NA,NA,NA,NA,NA,NA,NA,NA,NA,NA,NA,NA,NA,NA,NA,NA,NA,NA,NA,NA,NA,NA,NA
"17","stim/objects/HouseObjects/ballofstring.png",186,50,186,0.5,"stim/12.jpeg",1,2,1,NA,"HouseObjects",1,2,"left","left",0.536999941,1,1,0,1,NA,NA,NA,NA,NA,NA,NA,NA,NA,NA,NA,NA,NA,NA,NA,NA,NA,NA,NA,NA,NA,NA,NA,NA
"75","stim/objects/HouseObjects/bucket.png",187,50,187,0.3,"stim/31.jpeg",3,1,2,NA,"HouseObjects",1,3,"left","left",0.846999884,1,1,0,1,NA,NA,NA,NA,NA,NA,NA,NA,NA,NA,NA,NA,NA,NA,NA,NA,NA,NA,NA,NA,NA,NA,NA,NA
"5","stim/objects/HouseObjects/ashtray.png",188,50,188,0.5,"stim/11.jpeg",1,1,1,NA,"HouseObjects",1,4,"left","right",0.531999826,0,0,0,1,NA,NA,NA,NA,NA,NA,NA,NA,NA,NA,NA,NA,NA,NA,NA,NA,NA,NA,NA,NA,NA,NA,NA,NA
"98","stim/objects/HouseObjects/clothesdryingrack.png",189,50,189,0.3,"stim/33.jpeg",3,3,2,NA,"HouseObjects",1,3,"left","left",0.717000008,1,1,0,1,NA,NA,NA,NA,NA,NA,NA,NA,NA,NA,NA,NA,NA,NA,NA,NA,NA,NA,NA,NA,NA,NA,NA,NA
"208","stim/objects/Instruments/chime2.png",190,50,190,0.9,"stim/54.jpeg",5,4,3,NA,"Instruments",2,4,"right","right",0.477999926,1,1,0,1,NA,NA,NA,NA,NA,NA,NA,NA,NA,NA,NA,NA,NA,NA,NA,NA,NA,NA,NA,NA,NA,NA,NA,NA
"179","stim/objects/Instruments/bassguitar2.png",191,50,191,0.9,"stim/52.jpeg",5,2,3,NA,"Instruments",2,3,"right","left",0.523000002,0,0,0,1,NA,NA,NA,NA,NA,NA,NA,NA,NA,NA,NA,NA,NA,NA,NA,NA,NA,NA,NA,NA,NA,NA,NA,NA
"41","stim/objects/HouseObjects/basket.png",192,50,192,0.5,"stim/14.jpeg",1,4,1,NA,"HouseObjects",1,2,"left","left",0.561000109,1,1,0,1,NA,NA,NA,NA,NA,NA,NA,NA,NA,NA,NA,NA,NA,NA,NA,NA,NA,NA,NA,NA,NA,NA,NA,NA
"164","stim/objects/Instruments/bassdrum2.png",193,50,193,0.9,"stim/51.jpeg",5,1,3,NA,"Instruments",2,4,"right","",NA,0,0,0,1,NA,NA,NA,NA,NA,NA,NA,NA,NA,NA,NA,NA,NA,NA,NA,NA,NA,NA,NA,NA,NA,NA,NA,NA
"184","stim/objects/Instruments/cello.png",194,50,194,0.5,"stim/23.jpeg",2,3,1,NA,"Instruments",2,4,"right","left",0.758000135,0,0,0,1,NA,NA,NA,NA,NA,NA,NA,NA,NA,NA,NA,NA,NA,NA,NA,NA,NA,NA,NA,NA,NA,NA,NA,NA
"24","stim/objects/HouseObjects/ballofstring2.png",195,50,195,0.7,"stim/42.jpeg",4,2,2,NA,"HouseObjects",1,2,"left","left",0.680999994,1,1,0,1,NA,NA,NA,NA,NA,NA,NA,NA,NA,NA,NA,NA,NA,NA,NA,NA,NA,NA,NA,NA,NA,NA,NA,NA
"64","stim/objects/HouseObjects/bottle.png",196,50,196,0.5,"stim/23.jpeg",2,3,1,NA,"HouseObjects",1,1,"left","left",0.714999914,1,1,0,1,NA,NA,NA,NA,NA,NA,NA,NA,NA,NA,NA,NA,NA,NA,NA,NA,NA,NA,NA,NA,NA,NA,NA,NA
"83","stim/objects/HouseObjects/bucket2.png",197,50,197,0.9,"stim/61.jpeg",6,1,3,NA,"HouseObjects",1,2,"left","left",0.527999878,1,1,0,1,NA,NA,NA,NA,NA,NA,NA,NA,NA,NA,NA,NA,NA,NA,NA,NA,NA,NA,NA,NA,NA,NA,NA,NA
"169","stim/objects/Instruments/bassguitar.png",198,50,198,0.5,"stim/22.jpeg",2,2,1,NA,"Instruments",2,1,"right","",NA,0,0,0,1,NA,NA,NA,NA,NA,NA,NA,NA,NA,NA,NA,NA,NA,NA,NA,NA,NA,NA,NA,NA,NA,NA,NA,NA
"194","stim/objects/Instruments/cello2.png",199,50,199,0.9,"stim/53.jpeg",5,3,3,NA,"Instruments",2,1,"right","left",0.5400002,0,0,0,1,NA,NA,NA,NA,NA,NA,NA,NA,NA,NA,NA,NA,NA,NA,NA,NA,NA,NA,NA,NA,NA,NA,NA,NA
"94","stim/objects/HouseObjects/clock2.png",200,50,200,0.9,"stim/62.jpeg",6,2,3,NA,"HouseObjects",1,3,"left","left",0.528000116,1,1,0,1,NA,NA,NA,NA,NA,NA,NA,NA,NA,NA,NA,NA,NA,NA,NA,NA,NA,NA,NA,NA,NA,NA,NA,NA
"213","stim/objects/Instruments/clarinet.png",201,50,201,0.7,"stim/31.jpeg",3,1,2,NA,"Instruments",2,3,"right","left",0.488999844,0,0,0,1,NA,NA,NA,NA,NA,NA,NA,NA,NA,NA,NA,NA,NA,NA,NA,NA,NA,NA,NA,NA,NA,NA,NA,NA
"125","stim/objects/Instruments/accordion.png",202,50,202,0.5,"stim/11.jpeg",1,1,1,NA,"Instruments",2,3,"right","right",0.710000038,1,1,0,1,NA,NA,NA,NA,NA,NA,NA,NA,NA,NA,NA,NA,NA,NA,NA,NA,NA,NA,NA,NA,NA,NA,NA,NA
"230","stim/objects/Instruments/cymbal.png",203,50,203,0.7,"stim/33.jpeg",3,3,2,NA,"Instruments",2,1,"right","",NA,0,0,0,1,NA,NA,NA,NA,NA,NA,NA,NA,NA,NA,NA,NA,NA,NA,NA,NA,NA,NA,NA,NA,NA,NA,NA,NA
"146","stim/objects/Instruments/banjo.png",204,50,204,0.5,"stim/14.jpeg",1,4,1,NA,"Instruments",2,3,"right","right",0.569000006,1,1,0,1,NA,NA,NA,NA,NA,NA,NA,NA,NA,NA,NA,NA,NA,NA,NA,NA,NA,NA,NA,NA,NA,NA,NA,NA
"120","stim/objects/HouseObjects/clothespin2.png",205,50,205,0.9,"stim/64.jpeg",6,4,3,NA,"HouseObjects",1,3,"left","left",0.490999937,1,1,0,1,NA,NA,NA,NA,NA,NA,NA,NA,NA,NA,NA,NA,NA,NA,NA,NA,NA,NA,NA,NA,NA,NA,NA,NA
"170","stim/objects/Instruments/bassguitar.png",206,50,206,0.5,"stim/22.jpeg",2,2,1,NA,"Instruments",2,1,"right","right",0.5,1,1,0,1,NA,NA,NA,NA,NA,NA,NA,NA,NA,NA,NA,NA,NA,NA,NA,NA,NA,NA,NA,NA,NA,NA,NA,NA
"53","stim/objects/HouseObjects/bleachbottle.png",207,50,207,0.5,"stim/21.jpeg",2,1,1,NA,"HouseObjects",1,1,"left","left",0.636000156,1,1,0,1,NA,NA,NA,NA,NA,NA,NA,NA,NA,NA,NA,NA,NA,NA,NA,NA,NA,NA,NA,NA,NA,NA,NA,NA
"99","stim/objects/HouseObjects/clothesdryingrack.png",208,50,208,0.3,"stim/33.jpeg",3,3,2,NA,"HouseObjects",1,1,"left","right",0.521999836,0,0,0,1,NA,NA,NA,NA,NA,NA,NA,NA,NA,NA,NA,NA,NA,NA,NA,NA,NA,NA,NA,NA,NA,NA,NA,NA
"171","stim/objects/Instruments/bassguitar.png",209,50,209,0.5,"stim/22.jpeg",2,2,1,NA,"Instruments",2,2,"right","left",0.628000021,0,0,0,1,NA,NA,NA,NA,NA,NA,NA,NA,NA,NA,NA,NA,NA,NA,NA,NA,NA,NA,NA,NA,NA,NA,NA,NA
"72","stim/objects/HouseObjects/broom2.png",210,50,210,0.1,"stim/54.jpeg",5,4,3,NA,"HouseObjects",1,4,"left","right",0.707000017,0,0,0,1,NA,NA,NA,NA,NA,NA,NA,NA,NA,NA,NA,NA,NA,NA,NA,NA,NA,NA,NA,NA,NA,NA,NA,NA
"180","stim/objects/Instruments/bassguitar2.png",211,50,211,0.9,"stim/52.jpeg",5,2,3,NA,"Instruments",2,2,"right","right",0.497999907,1,1,0,1,NA,NA,NA,NA,NA,NA,NA,NA,NA,NA,NA,NA,NA,NA,NA,NA,NA,NA,NA,NA,NA,NA,NA,NA
"135","stim/objects/Instruments/acousticguitar2.png",212,50,212,0.3,"stim/42.jpeg",4,2,2,NA,"Instruments",2,3,"right","left",0.655999899,0,0,0,1,NA,NA,NA,NA,NA,NA,NA,NA,NA,NA,NA,NA,NA,NA,NA,NA,NA,NA,NA,NA,NA,NA,NA,NA
"199","stim/objects/Instruments/chime.png",213,50,213,0.5,"stim/24.jpeg",2,4,1,NA,"Instruments",2,4,"right","left",0.709000111,0,0,0,1,NA,NA,NA,NA,NA,NA,NA,NA,NA,NA,NA,NA,NA,NA,NA,NA,NA,NA,NA,NA,NA,NA,NA,NA
"128","stim/objects/Instruments/accordion2.png",214,50,214,0.3,"stim/41.jpeg",4,1,2,NA,"Instruments",2,1,"right","left",0.888000011,0,0,0,1,NA,NA,NA,NA,NA,NA,NA,NA,NA,NA,NA,NA,NA,NA,NA,NA,NA,NA,NA,NA,NA,NA,NA,NA
"216","stim/objects/Instruments/clarinet2.png",215,50,215,0.1,"stim/61.jpeg",6,1,3,NA,"Instruments",2,4,"right","left",0.55099988,0,0,0,1,NA,NA,NA,NA,NA,NA,NA,NA,NA,NA,NA,NA,NA,NA,NA,NA,NA,NA,NA,NA,NA,NA,NA,NA
"10","stim/objects/HouseObjects/ashtray2.png",216,50,216,0.7,"stim/41.jpeg",4,1,2,NA,"HouseObjects",1,2,"left","left",0.710999966,1,1,0,1,NA,NA,NA,NA,NA,NA,NA,NA,NA,NA,NA,NA,NA,NA,NA,NA,NA,NA,NA,NA,NA,NA,NA,NA
"147","stim/objects/Instruments/banjo.png",217,50,217,0.5,"stim/14.jpeg",1,4,1,NA,"Instruments",2,1,"right","right",0.580999851,1,1,0,1,NA,NA,NA,NA,NA,NA,NA,NA,NA,NA,NA,NA,NA,NA,NA,NA,NA,NA,NA,NA,NA,NA,NA,NA
"87","stim/objects/HouseObjects/clock.png",218,50,218,0.3,"stim/32.jpeg",3,2,2,NA,"HouseObjects",1,3,"left","left",0.595000029,1,1,0,1,NA,NA,NA,NA,NA,NA,NA,NA,NA,NA,NA,NA,NA,NA,NA,NA,NA,NA,NA,NA,NA,NA,NA,NA
"111","stim/objects/HouseObjects/clothespin.png",219,50,219,0.3,"stim/34.jpeg",3,4,2,NA,"HouseObjects",1,1,"left","left",0.578000069,1,1,0,1,NA,NA,NA,NA,NA,NA,NA,NA,NA,NA,NA,NA,NA,NA,NA,NA,NA,NA,NA,NA,NA,NA,NA,NA
"11","stim/objects/HouseObjects/ashtray2.png",220,50,220,0.7,"stim/41.jpeg",4,1,2,NA,"HouseObjects",1,4,"left","left",0.712000132,1,1,0,1,NA,NA,NA,NA,NA,NA,NA,NA,NA,NA,NA,NA,NA,NA,NA,NA,NA,NA,NA,NA,NA,NA,NA,NA
"157","stim/objects/Instruments/bassdrum.png",221,50,221,0.5,"stim/21.jpeg",2,1,1,NA,"Instruments",2,4,"right","left",0.65199995,0,0,0,1,NA,NA,NA,NA,NA,NA,NA,NA,NA,NA,NA,NA,NA,NA,NA,NA,NA,NA,NA,NA,NA,NA,NA,NA
"214","stim/objects/Instruments/clarinet.png",222,50,222,0.7,"stim/31.jpeg",3,1,2,NA,"Instruments",2,4,"right","left",0.608999968,0,0,0,1,NA,NA,NA,NA,NA,NA,NA,NA,NA,NA,NA,NA,NA,NA,NA,NA,NA,NA,NA,NA,NA,NA,NA,NA
"185","stim/objects/Instruments/cello.png",223,50,223,0.5,"stim/23.jpeg",2,3,1,NA,"Instruments",2,3,"right","left",0.766000032,0,0,0,1,NA,NA,NA,NA,NA,NA,NA,NA,NA,NA,NA,NA,NA,NA,NA,NA,NA,NA,NA,NA,NA,NA,NA,NA
"95","stim/objects/HouseObjects/clock2.png",224,50,224,0.9,"stim/62.jpeg",6,2,3,NA,"HouseObjects",1,4,"left","left",0.558000088,1,1,0,1,NA,NA,NA,NA,NA,NA,NA,NA,NA,NA,NA,NA,NA,NA,NA,NA,NA,NA,NA,NA,NA,NA,NA,NA
"96","stim/objects/HouseObjects/clock2.png",225,50,225,0.9,"stim/62.jpeg",6,2,3,NA,"HouseObjects",1,3,"left","left",0.445000172,1,1,0,1,NA,NA,NA,NA,NA,NA,NA,NA,NA,NA,NA,NA,NA,NA,NA,NA,NA,NA,NA,NA,NA,NA,NA,NA
"71","stim/objects/HouseObjects/broom.png",226,50,226,0.5,"stim/24.jpeg",2,4,1,NA,"HouseObjects",1,4,"left","right",0.730000019,0,0,0,1,NA,NA,NA,NA,NA,NA,NA,NA,NA,NA,NA,NA,NA,NA,NA,NA,NA,NA,NA,NA,NA,NA,NA,NA
"165","stim/objects/Instruments/bassdrum2.png",227,50,227,0.9,"stim/51.jpeg",5,1,3,NA,"Instruments",2,1,"right","right",0.570000172,1,1,0,1,NA,NA,NA,NA,NA,NA,NA,NA,NA,NA,NA,NA,NA,NA,NA,NA,NA,NA,NA,NA,NA,NA,NA,NA
"148","stim/objects/Instruments/banjo.png",228,50,228,0.5,"stim/14.jpeg",1,4,1,NA,"Instruments",2,1,"right","right",0.713000059,1,1,0,1,NA,NA,NA,NA,NA,NA,NA,NA,NA,NA,NA,NA,NA,NA,NA,NA,NA,NA,NA,NA,NA,NA,NA,NA
"47","stim/objects/HouseObjects/basket2.png",229,50,229,0.7,"stim/44.jpeg",4,4,2,NA,"HouseObjects",1,3,"left","right",0.730000019,0,0,0,1,NA,NA,NA,NA,NA,NA,NA,NA,NA,NA,NA,NA,NA,NA,NA,NA,NA,NA,NA,NA,NA,NA,NA,NA
"232","stim/objects/Instruments/cymbal2.png",230,50,230,0.1,"stim/63.jpeg",6,3,3,NA,"Instruments",2,4,"right","left",0.545000076,0,0,0,1,NA,NA,NA,NA,NA,NA,NA,NA,NA,NA,NA,NA,NA,NA,NA,NA,NA,NA,NA,NA,NA,NA,NA,NA
"136","stim/objects/Instruments/acousticguitar2.png",231,50,231,0.3,"stim/42.jpeg",4,2,2,NA,"Instruments",2,2,"right","left",0.75999999,0,0,0,1,NA,NA,NA,NA,NA,NA,NA,NA,NA,NA,NA,NA,NA,NA,NA,NA,NA,NA,NA,NA,NA,NA,NA,NA
"48","stim/objects/HouseObjects/basket2.png",232,50,232,0.7,"stim/44.jpeg",4,4,2,NA,"HouseObjects",1,2,"left","left",0.595999956,1,1,0,1,NA,NA,NA,NA,NA,NA,NA,NA,NA,NA,NA,NA,NA,NA,NA,NA,NA,NA,NA,NA,NA,NA,NA,NA
"231","stim/objects/Instruments/cymbal.png",233,50,233,0.7,"stim/33.jpeg",3,3,2,NA,"Instruments",2,3,"right","left",0.523000002,0,0,0,1,NA,NA,NA,NA,NA,NA,NA,NA,NA,NA,NA,NA,NA,NA,NA,NA,NA,NA,NA,NA,NA,NA,NA,NA
"84","stim/objects/HouseObjects/bucket2.png",234,50,234,0.9,"stim/61.jpeg",6,1,3,NA,"HouseObjects",1,2,"left","left",0.486999989,1,1,0,1,NA,NA,NA,NA,NA,NA,NA,NA,NA,NA,NA,NA,NA,NA,NA,NA,NA,NA,NA,NA,NA,NA,NA,NA
"12","stim/objects/HouseObjects/ashtray2.png",235,50,235,0.7,"stim/41.jpeg",4,1,2,NA,"HouseObjects",1,2,"left","left",0.746999979,1,1,0,1,NA,NA,NA,NA,NA,NA,NA,NA,NA,NA,NA,NA,NA,NA,NA,NA,NA,NA,NA,NA,NA,NA,NA,NA
"144","stim/objects/Instruments/balalaika2.png",236,50,236,0.3,"stim/43.jpeg",4,3,2,NA,"Instruments",2,1,"right","left",0.828999996,0,0,0,1,NA,NA,NA,NA,NA,NA,NA,NA,NA,NA,NA,NA,NA,NA,NA,NA,NA,NA,NA,NA,NA,NA,NA,NA
"149","stim/objects/Instruments/banjo.png",237,50,237,0.5,"stim/14.jpeg",1,4,1,NA,"Instruments",2,3,"right","right",0.63499999,1,1,0,1,NA,NA,NA,NA,NA,NA,NA,NA,NA,NA,NA,NA,NA,NA,NA,NA,NA,NA,NA,NA,NA,NA,NA,NA
"65","stim/objects/HouseObjects/bottle.png",238,50,238,0.5,"stim/23.jpeg",2,3,1,NA,"HouseObjects",1,2,"left","right",0.763000011,0,0,0,1,NA,NA,NA,NA,NA,NA,NA,NA,NA,NA,NA,NA,NA,NA,NA,NA,NA,NA,NA,NA,NA,NA,NA,NA
"166","stim/objects/Instruments/bassdrum2.png",239,50,239,0.9,"stim/51.jpeg",5,1,3,NA,"Instruments",2,1,"right","right",0.730000019,1,1,0,1,NA,NA,NA,NA,NA,NA,NA,NA,NA,NA,NA,NA,NA,NA,NA,NA,NA,NA,NA,NA,NA,NA,NA,NA
"215","stim/objects/Instruments/clarinet.png",240,50,240,0.7,"stim/31.jpeg",3,1,2,NA,"Instruments",2,1,"right","left",0.578999996,0,0,0,1,NA,NA,NA,NA,NA,NA,NA,NA,NA,NA,NA,NA,NA,NA,NA,NA,NA,NA,NA,NA,NA,NA,NA,NA
"244","stim/objects/HouseObjects/cushion.png",248,50,241,0.5,"stim/12.jpeg",1,2,1,2,"HouseObjects",1,4,"left","",NA,0,0,1,0,NA,NA,NA,NA,NA,NA,NA,NA,NA,NA,NA,NA,NA,NA,NA,NA,NA,NA,NA,NA,NA,NA,NA,NA
"308","stim/objects/HouseObjects/lintroller.png",249,50,242,0.9,"stim/62.jpeg",6,2,3,2,"HouseObjects",1,3,"left","left",0.557999849,1,1,1,0,NA,NA,NA,NA,NA,NA,NA,NA,NA,NA,NA,NA,NA,NA,NA,NA,NA,NA,NA,NA,NA,NA,NA,NA
"243","stim/objects/HouseObjects/coffee2.png",250,50,243,0.3,"stim/32.jpeg",3,2,2,1,"HouseObjects",1,2,"left","right",0.743999958,0,0,1,0,52,50,1,0.3,1,"stim/32.jpeg",3,2,"stim/32.jpeg",2,"left",0.776000023,4,1,3.555999994,3,2.272000074,52,1,0,0,0,0,0
"309","stim/objects/HouseObjects/lintroller.png",251,50,244,0.9,"stim/64.jpeg",6,4,3,2,"HouseObjects",1,2,"left","left",0.546999931,1,1,1,0,NA,NA,NA,NA,NA,NA,NA,NA,NA,NA,NA,NA,NA,NA,NA,NA,NA,NA,NA,NA,NA,NA,NA,NA
"381","stim/objects/HouseObjects/rubbergloves2.png",252,50,245,0.1,"stim/54.jpeg",5,4,3,1,"HouseObjects",1,1,"left","right",0.714999914,0,0,1,0,116,50,1,0.1,1,"stim/54.jpeg",5,4,"stim/54.jpeg",1,"right",0.792999983,2,4,3.601999998,3,2.308000088,116,0,1,NA,0,NA,0
"270","stim/objects/HouseObjects/hairdryer2.png",253,50,246,0.7,"stim/44.jpeg",4,4,2,1,"HouseObjects",1,3,"left","left",0.544000149,1,1,1,0,160,50,1,0.7,1,"stim/44.jpeg",4,4,"stim/44.jpeg",3,"left",1.376999855,4,4,1.677999973,4,2.111000061,160,1,1,1,0,0,0
"557","stim/objects/Instruments/triangle.png",254,50,247,0.5,"stim/23.jpeg",2,3,1,1,"Instruments",2,2,"right","left",0.687000036,0,0,1,0,123,50,1,0.5,2,"stim/23.jpeg",2,3,"stim/23.jpeg",2,"left",0.798000097,4,4,1.586000204,2,1.222000122,123,1,0,0,1,1,0
"384","stim/objects/HouseObjects/safetypin.png",255,50,248,0.5,"stim/13.jpeg",1,3,1,1,"HouseObjects",1,1,"left","left",0.59800005,1,1,1,0,125,50,1,0.5,1,"stim/13.jpeg",1,3,"stim/13.jpeg",1,"right",1.596999884,2,2,0.950999975,1,2.096999884,125,0,0,NA,1,NA,0
"443","stim/objects/Instruments/hihat2.png",256,50,249,0.3,"stim/44.jpeg",4,4,2,1,"Instruments",2,2,"right","right",0.578999996,1,1,1,0,66,50,1,0.3,2,"stim/44.jpeg",4,4,"stim/44.jpeg",2,"left",0.996999979,3,1,3.304000139,3,2.765000105,66,1,0,0,0,0,0
"360","stim/objects/HouseObjects/pitcher.png",257,50,250,0.9,"stim/64.jpeg",6,4,3,2,"HouseObjects",1,4,"left","left",0.545000076,1,1,1,0,NA,NA,NA,NA,NA,NA,NA,NA,NA,NA,NA,NA,NA,NA,NA,NA,NA,NA,NA,NA,NA,NA,NA,NA
"426","stim/objects/Instruments/gong2.png",258,50,251,0.3,"stim/43.jpeg",4,3,2,1,"Instruments",2,4,"right","left",0.707000017,0,0,1,0,59,50,1,0.3,2,"stim/43.jpeg",4,3,"stim/43.jpeg",4,"left",0.819000006,4,2,1.828000069,3,4.368000031,59,1,0,0,0,0,0
"548","stim/objects/Instruments/record2.png",259,50,252,0.9,"stim/52.jpeg",5,2,3,1,"Instruments",2,2,"right","left",0.546000004,0,0,1,0,179,50,1,0.9,2,"stim/52.jpeg",5,2,"stim/52.jpeg",2,"left",0.669999838,4,1,2.329999924,2,2.731999874,179,1,0,0,1,1,0
"392","stim/objects/HouseObjects/spraybottle.png",260,50,253,0.5,"stim/24.jpeg",2,4,1,1,"HouseObjects",1,3,"left","left",0.548000097,1,1,1,0,142,50,1,0.5,2,"stim/24.jpeg",2,4,"stim/24.jpeg",3,"right",0.724999905,2,2,0.859999895,3,1.111999989,142,0,0,NA,1,NA,0
"436","stim/objects/Instruments/harp.png",261,50,254,0.7,"stim/34.jpeg",3,4,2,2,"Instruments",2,2,"right","left",0.643999815,0,0,1,0,NA,NA,NA,NA,NA,NA,NA,NA,NA,NA,NA,NA,NA,NA,NA,NA,NA,NA,NA,NA,NA,NA,NA,NA
"342","stim/objects/HouseObjects/pan.png",262,50,255,0.9,"stim/63.jpeg",6,3,3,2,"HouseObjects",1,1,"left","left",0.512000084,1,1,1,0,NA,NA,NA,NA,NA,NA,NA,NA,NA,NA,NA,NA,NA,NA,NA,NA,NA,NA,NA,NA,NA,NA,NA,NA
"343","stim/objects/HouseObjects/pan.png",263,50,256,0.9,"stim/61.jpeg",6,1,3,2,"HouseObjects",1,4,"left","left",0.495999813,1,1,1,0,NA,NA,NA,NA,NA,NA,NA,NA,NA,NA,NA,NA,NA,NA,NA,NA,NA,NA,NA,NA,NA,NA,NA,NA
"491","stim/objects/Instruments/musicsheet.png",264,50,257,0.9,"stim/51.jpeg",5,1,3,2,"Instruments",2,4,"right","right",0.532999992,1,1,1,0,NA,NA,NA,NA,NA,NA,NA,NA,NA,NA,NA,NA,NA,NA,NA,NA,NA,NA,NA,NA,NA,NA,NA,NA
"283","stim/objects/HouseObjects/ironingboard.png",265,50,258,0.7,"stim/42.jpeg",4,2,2,2,"HouseObjects",1,1,"left","left",0.880000114,1,1,1,0,NA,NA,NA,NA,NA,NA,NA,NA,NA,NA,NA,NA,NA,NA,NA,NA,NA,NA,NA,NA,NA,NA,NA,NA
"474","stim/objects/Instruments/metronome.png",266,50,259,0.9,"stim/52.jpeg",5,2,3,2,"Instruments",2,3,"right","left",0.548000097,0,0,1,0,NA,NA,NA,NA,NA,NA,NA,NA,NA,NA,NA,NA,NA,NA,NA,NA,NA,NA,NA,NA,NA,NA,NA,NA
"286","stim/objects/HouseObjects/ironingboard2.png",267,50,260,0.7,"stim/44.jpeg",4,4,2,1,"HouseObjects",1,1,"left","right",0.638000011,0,0,1,0,105,50,1,0.7,1,"stim/44.jpeg",4,4,"stim/44.jpeg",1,"left",0.826999903,4,1,2.445999861,4,2.135999918,105,1,0,0,0,0,0
"569","stim/objects/Instruments/xylophone.png",268,50,261,0.7,"stim/32.jpeg",3,2,2,1,"Instruments",2,2,"right","right",0.549000025,1,1,1,0,67,50,1,0.7,2,"stim/32.jpeg",3,2,"stim/32.jpeg",2,"right",0.792999983,2,3,2.095000029,3,2.585000038,67,0,0,NA,0,NA,0
"544","stim/objects/Instruments/pipepiano2.png",269,50,262,0.9,"stim/51.jpeg",5,1,3,1,"Instruments",2,1,"right","",NA,0,0,1,0,45,50,1,0.9,2,"stim/51.jpeg",5,1,"stim/51.jpeg",1,"right",0.971000195,2,3,2.729000092,4,6.036999941,45,0,0,NA,0,NA,0
"311","stim/objects/HouseObjects/lintroller.png",270,50,263,0.9,"stim/61.jpeg",6,1,3,2,"HouseObjects",1,1,"left","left",0.534000158,1,1,1,0,NA,NA,NA,NA,NA,NA,NA,NA,NA,NA,NA,NA,NA,NA,NA,NA,NA,NA,NA,NA,NA,NA,NA,NA
"284","stim/objects/HouseObjects/ironingboard.png",271,50,264,0.7,"stim/44.jpeg",4,4,2,2,"HouseObjects",1,2,"left","right",0.828000069,0,0,1,0,NA,NA,NA,NA,NA,NA,NA,NA,NA,NA,NA,NA,NA,NA,NA,NA,NA,NA,NA,NA,NA,NA,NA,NA
"507","stim/objects/Instruments/musicstand.png",272,50,265,0.9,"stim/52.jpeg",5,2,3,2,"Instruments",2,4,"right","right",0.593000174,1,1,1,0,NA,NA,NA,NA,NA,NA,NA,NA,NA,NA,NA,NA,NA,NA,NA,NA,NA,NA,NA,NA,NA,NA,NA,NA
"258","stim/objects/HouseObjects/flyswatter2.png",273,50,266,0.7,"stim/44.jpeg",4,4,2,1,"HouseObjects",1,1,"left","right",0.769000053,0,0,1,0,70,50,1,0.7,1,"stim/44.jpeg",4,4,"stim/44.jpeg",1,"left",1.013000011,4,4,2.967999935,2,2.178999901,70,1,1,1,0,0,0
"437","stim/objects/Instruments/harp.png",274,50,267,0.7,"stim/33.jpeg",3,3,2,2,"Instruments",2,2,"right","left",0.548999786,0,0,1,0,NA,NA,NA,NA,NA,NA,NA,NA,NA,NA,NA,NA,NA,NA,NA,NA,NA,NA,NA,NA,NA,NA,NA,NA
"361","stim/objects/HouseObjects/pitcher.png",275,50,268,0.9,"stim/62.jpeg",6,2,3,2,"HouseObjects",1,4,"left","left",0.601000071,1,1,1,0,NA,NA,NA,NA,NA,NA,NA,NA,NA,NA,NA,NA,NA,NA,NA,NA,NA,NA,NA,NA,NA,NA,NA,NA
"413","stim/objects/Instruments/electricguitar.png",276,50,269,0.5,"stim/12.jpeg",1,2,1,2,"Instruments",2,2,"right","right",0.813000202,1,1,1,0,NA,NA,NA,NA,NA,NA,NA,NA,NA,NA,NA,NA,NA,NA,NA,NA,NA,NA,NA,NA,NA,NA,NA,NA
"249","stim/objects/HouseObjects/dishsoap2.png",277,50,270,0.3,"stim/34.jpeg",3,4,2,1,"HouseObjects",1,1,"left","right",0.628999949,0,0,1,0,4,50,1,0.3,1,"stim/34.jpeg",3,4,"stim/34.jpeg",1,"left",3.66899991,3,1,4.131999969,2,2.065999985,4,1,0,0,0,0,0
"458","stim/objects/Instruments/marimba.png",278,50,271,0.9,"stim/54.jpeg",5,4,3,2,"Instruments",2,3,"right","left",0.578999996,0,0,1,0,NA,NA,NA,NA,NA,NA,NA,NA,NA,NA,NA,NA,NA,NA,NA,NA,NA,NA,NA,NA,NA,NA,NA,NA
"506","stim/objects/Instruments/musicsheet2.png",279,50,272,0.9,"stim/51.jpeg",5,1,3,1,"Instruments",2,3,"right","left",0.498000145,0,0,1,0,119,50,1,0.9,2,"stim/51.jpeg",5,1,"stim/51.jpeg",3,"left",0.787999868,4,3,2.055000067,2,1.244000196,119,1,0,0,0,0,0
"265","stim/objects/HouseObjects/glassmop.png",280,50,273,0.5,"stim/23.jpeg",2,3,1,2,"HouseObjects",1,3,"left","left",0.812999964,1,1,1,0,NA,NA,NA,NA,NA,NA,NA,NA,NA,NA,NA,NA,NA,NA,NA,NA,NA,NA,NA,NA,NA,NA,NA,NA
"382","stim/objects/HouseObjects/rug.png",281,50,274,0.5,"stim/12.jpeg",1,2,1,1,"HouseObjects",1,2,"left","right",0.782000065,0,0,1,0,32,50,1,0.5,1,"stim/12.jpeg",1,2,"stim/12.jpeg",2,"left",1.613999844,4,4,3.032999992,2,1.82799983,32,1,0,0,1,1,0
"566","stim/objects/Instruments/violin2.png",282,50,275,0.1,"stim/62.jpeg",6,2,3,1,"Instruments",2,4,"right","left",0.547999859,0,0,1,0,79,50,1,0.1,2,"stim/62.jpeg",6,2,"stim/62.jpeg",4,"left",0.789000034,4,4,1.819999933,2,1.446000099,79,1,0,0,0,0,0
"389","stim/objects/HouseObjects/scale2.png",283,50,276,0.9,"stim/62.jpeg",6,2,3,1,"HouseObjects",1,3,"left","left",0.480000019,1,1,1,0,84,50,1,0.9,1,"stim/62.jpeg",6,2,"stim/62.jpeg",3,"right",0.648000002,2,4,3.237999916,3,2.434999943,84,0,0,NA,1,NA,0
"261","stim/objects/HouseObjects/garbagebin2.png",284,50,277,0.7,"stim/41.jpeg",4,1,2,1,"HouseObjects",1,1,"left","left",0.812000036,1,1,1,0,83,50,1,0.7,1,"stim/41.jpeg",4,1,"stim/41.jpeg",1,"right",0.740999937,3,3,2.30099988,1,3.842000008,83,0,0,NA,1,NA,0
"526","stim/objects/Instruments/oboe.png",285,50,278,0.9,"stim/53.jpeg",5,3,3,2,"Instruments",2,1,"right","right",0.660000086,1,1,1,0,NA,NA,NA,NA,NA,NA,NA,NA,NA,NA,NA,NA,NA,NA,NA,NA,NA,NA,NA,NA,NA,NA,NA,NA
"292","stim/objects/HouseObjects/knife.png",286,50,279,0.9,"stim/62.jpeg",6,2,3,2,"HouseObjects",1,3,"left","left",0.647000074,1,1,1,0,NA,NA,NA,NA,NA,NA,NA,NA,NA,NA,NA,NA,NA,NA,NA,NA,NA,NA,NA,NA,NA,NA,NA,NA
"271","stim/objects/HouseObjects/handbrush.png",287,50,280,0.7,"stim/43.jpeg",4,3,2,2,"HouseObjects",1,2,"left","right",0.789000034,0,0,1,0,NA,NA,NA,NA,NA,NA,NA,NA,NA,NA,NA,NA,NA,NA,NA,NA,NA,NA,NA,NA,NA,NA,NA,NA
"267","stim/objects/HouseObjects/glassmop2.png",288,50,281,0.7,"stim/43.jpeg",4,3,2,1,"HouseObjects",1,3,"left","left",0.733999968,1,1,1,0,158,50,1,0.7,1,"stim/43.jpeg",4,3,"stim/43.jpeg",3,"right",0.621999979,3,1,2.147000074,3,2.088999987,158,0,0,NA,1,NA,0
"562","stim/objects/Instruments/trumpet2.png",289,50,282,0.1,"stim/64.jpeg",6,4,3,1,"Instruments",2,4,"right","left",0.576999903,0,0,1,0,87,50,1,0.1,2,"stim/64.jpeg",6,4,"stim/64.jpeg",4,"left",0.89199996,4,1,2.052000046,4,2.967999935,87,1,0,0,1,1,0
"345","stim/objects/HouseObjects/pan.png",290,50,283,0.9,"stim/61.jpeg",6,1,3,2,"HouseObjects",1,1,"left","left",0.661000013,1,1,1,0,NA,NA,NA,NA,NA,NA,NA,NA,NA,NA,NA,NA,NA,NA,NA,NA,NA,NA,NA,NA,NA,NA,NA,NA
"245","stim/objects/HouseObjects/cushion.png",291,50,284,0.5,"stim/13.jpeg",1,3,1,2,"HouseObjects",1,3,"left","right",0.683000088,0,0,1,0,NA,NA,NA,NA,NA,NA,NA,NA,NA,NA,NA,NA,NA,NA,NA,NA,NA,NA,NA,NA,NA,NA,NA,NA
"246","stim/objects/HouseObjects/cushion2.png",292,50,285,0.3,"stim/33.jpeg",3,3,2,1,"HouseObjects",1,4,"left","right",0.542999983,0,0,1,0,191,50,1,0.3,1,"stim/33.jpeg",3,3,"stim/33.jpeg",4,"left",0.898999929,4,1,2.960000038,2,1.97300005,191,1,0,0,0,0,0
"545","stim/objects/Instruments/record_player.png",293,50,286,0.5,"stim/11.jpeg",1,1,1,1,"Instruments",2,3,"right","right",0.769000053,1,1,1,0,115,50,1,0.5,1,"stim/11.jpeg",1,1,"stim/11.jpeg",3,"left",1.937999964,4,2,1.253000021,3,2.058000088,115,1,0,0,1,1,0
"326","stim/objects/HouseObjects/match.png",294,50,287,0.9,"stim/61.jpeg",6,1,3,2,"HouseObjects",1,3,"left","left",0.603999853,1,1,1,0,NA,NA,NA,NA,NA,NA,NA,NA,NA,NA,NA,NA,NA,NA,NA,NA,NA,NA,NA,NA,NA,NA,NA,NA
"409","stim/objects/Instruments/electricdrumset.png",295,50,288,0.5,"stim/11.jpeg",1,1,1,2,"Instruments",2,1,"right","right",0.763000011,1,1,1,0,NA,NA,NA,NA,NA,NA,NA,NA,NA,NA,NA,NA,NA,NA,NA,NA,NA,NA,NA,NA,NA,NA,NA,NA
"552","stim/objects/Instruments/speaker2.png",296,50,289,0.1,"stim/63.jpeg",6,3,3,1,"Instruments",2,2,"right","left",0.797999859,0,0,1,0,138,50,1,0.1,2,"stim/63.jpeg",6,3,"stim/63.jpeg",2,"left",0.979000092,3,2,1.686000109,4,1.680999994,138,1,0,0,0,0,0
"527","stim/objects/Instruments/oboe.png",297,50,290,0.9,"stim/54.jpeg",5,4,3,2,"Instruments",2,1,"right","right",0.650999784,1,1,1,0,NA,NA,NA,NA,NA,NA,NA,NA,NA,NA,NA,NA,NA,NA,NA,NA,NA,NA,NA,NA,NA,NA,NA,NA
"312","stim/objects/HouseObjects/lintroller.png",298,50,291,0.9,"stim/64.jpeg",6,4,3,2,"HouseObjects",1,3,"left","right",0.863999844,0,0,1,0,NA,NA,NA,NA,NA,NA,NA,NA,NA,NA,NA,NA,NA,NA,NA,NA,NA,NA,NA,NA,NA,NA,NA,NA
"307","stim/objects/HouseObjects/knife2.png",299,50,292,0.1,"stim/51.jpeg",5,1,3,1,"HouseObjects",1,3,"left","right",0.644999981,0,0,1,0,145,50,1,0.1,1,"stim/51.jpeg",5,1,"stim/51.jpeg",3,"left",0.996000051,3,3,1.404999971,1,2.450000048,145,1,0,0,0,0,0
"460","stim/objects/Instruments/marimba.png",300,50,293,0.9,"stim/51.jpeg",5,1,3,2,"Instruments",2,3,"right","left",0.445000172,0,0,1,0,NA,NA,NA,NA,NA,NA,NA,NA,NA,NA,NA,NA,NA,NA,NA,NA,NA,NA,NA,NA,NA,NA,NA,NA
"423","stim/objects/Instruments/frenchhorn2.png",301,50,294,0.3,"stim/42.jpeg",4,2,2,1,"Instruments",2,1,"right","left",0.696000099,0,0,1,0,168,50,1,0.3,2,"stim/42.jpeg",4,2,"stim/42.jpeg",1,"right",0.723999977,4,4,1.934999943,2,1.365999937,168,0,0,NA,0,NA,0
"280","stim/objects/HouseObjects/iron.png",302,50,295,0.7,"stim/43.jpeg",4,3,2,2,"HouseObjects",1,3,"left","right",0.588999987,0,0,1,0,NA,NA,NA,NA,NA,NA,NA,NA,NA,NA,NA,NA,NA,NA,NA,NA,NA,NA,NA,NA,NA,NA,NA,NA
"346","stim/objects/HouseObjects/pan.png",303,50,296,0.9,"stim/63.jpeg",6,3,3,2,"HouseObjects",1,1,"left","left",0.529999971,1,1,1,0,NA,NA,NA,NA,NA,NA,NA,NA,NA,NA,NA,NA,NA,NA,NA,NA,NA,NA,NA,NA,NA,NA,NA,NA
"278","stim/objects/HouseObjects/handvacuum2.png",304,50,297,0.7,"stim/42.jpeg",4,2,2,1,"HouseObjects",1,4,"left","left",0.684000015,1,1,1,0,86,50,1,0.7,1,"stim/42.jpeg",4,2,"stim/42.jpeg",4,"right",0.666000128,2,3,2.582999945,3,1.951999903,86,0,0,NA,0,NA,0
"365","stim/objects/HouseObjects/pitcher.png",305,50,298,0.9,"stim/63.jpeg",6,3,3,2,"HouseObjects",1,2,"left","left",0.598999977,1,1,1,0,NA,NA,NA,NA,NA,NA,NA,NA,NA,NA,NA,NA,NA,NA,NA,NA,NA,NA,NA,NA,NA,NA,NA,NA
"397","stim/objects/HouseObjects/thermometer2.png",306,50,299,0.9,"stim/62.jpeg",6,2,3,1,"HouseObjects",1,2,"left","left",0.581999779,1,1,1,0,19,50,1,0.9,1,"stim/62.jpeg",6,2,"stim/62.jpeg",2,"left",1.568000078,4,4,7.542000055,2,3.484000206,19,1,0,0,1,1,0
"440","stim/objects/Instruments/hihat.png",307,50,300,0.7,"stim/32.jpeg",3,2,2,2,"Instruments",2,2,"right","right",0.556999922,1,1,1,0,NA,NA,NA,NA,NA,NA,NA,NA,NA,NA,NA,NA,NA,NA,NA,NA,NA,NA,NA,NA,NA,NA,NA,NA
"275","stim/objects/HouseObjects/handvacuum.png",308,50,301,0.7,"stim/44.jpeg",4,4,2,2,"HouseObjects",1,2,"left","left",0.81799984,1,1,1,0,NA,NA,NA,NA,NA,NA,NA,NA,NA,NA,NA,NA,NA,NA,NA,NA,NA,NA,NA,NA,NA,NA,NA,NA
"472","stim/objects/Instruments/marimba2.png",309,50,302,0.9,"stim/53.jpeg",5,3,3,1,"Instruments",2,1,"right","right",0.559999943,1,1,1,0,151,50,1,0.9,2,"stim/53.jpeg",5,3,"stim/53.jpeg",1,"left",0.777999878,4,3,1.330999851,4,2.815999985,151,1,1,1,0,0,0
"347","stim/objects/HouseObjects/pan.png",310,50,303,0.9,"stim/64.jpeg",6,4,3,2,"HouseObjects",1,4,"left","left",0.709000111,1,1,1,0,NA,NA,NA,NA,NA,NA,NA,NA,NA,NA,NA,NA,NA,NA,NA,NA,NA,NA,NA,NA,NA,NA,NA,NA
"463","stim/objects/Instruments/marimba.png",311,50,304,0.9,"stim/52.jpeg",5,2,3,2,"Instruments",2,2,"right","right",0.649000168,1,1,1,0,NA,NA,NA,NA,NA,NA,NA,NA,NA,NA,NA,NA,NA,NA,NA,NA,NA,NA,NA,NA,NA,NA,NA,NA
"314","stim/objects/HouseObjects/lintroller.png",312,50,305,0.9,"stim/61.jpeg",6,1,3,2,"HouseObjects",1,3,"left","left",0.497999907,1,1,1,0,NA,NA,NA,NA,NA,NA,NA,NA,NA,NA,NA,NA,NA,NA,NA,NA,NA,NA,NA,NA,NA,NA,NA,NA
"241","stim/objects/HouseObjects/coffee.png",313,50,306,0.5,"stim/11.jpeg",1,1,1,2,"HouseObjects",1,2,"left","left",0.794000149,1,1,1,0,NA,NA,NA,NA,NA,NA,NA,NA,NA,NA,NA,NA,NA,NA,NA,NA,NA,NA,NA,NA,NA,NA,NA,NA
"546","stim/objects/Instruments/record_player2.png",314,50,307,0.9,"stim/53.jpeg",5,3,3,1,"Instruments",2,2,"right","right",0.582999945,1,1,1,0,71,50,1,0.9,2,"stim/53.jpeg",5,3,"stim/53.jpeg",2,"right",1.257000208,2,1,2.122999907,4,3.104000092,71,0,0,NA,0,NA,0
"253","stim/objects/HouseObjects/dustpan.png",315,50,308,0.5,"stim/11.jpeg",1,1,1,2,"HouseObjects",1,4,"left","right",0.586000204,0,0,1,0,NA,NA,NA,NA,NA,NA,NA,NA,NA,NA,NA,NA,NA,NA,NA,NA,NA,NA,NA,NA,NA,NA,NA,NA
"348","stim/objects/HouseObjects/pan.png",316,50,309,0.9,"stim/64.jpeg",6,4,3,2,"HouseObjects",1,2,"left","left",0.756000042,1,1,1,0,NA,NA,NA,NA,NA,NA,NA,NA,NA,NA,NA,NA,NA,NA,NA,NA,NA,NA,NA,NA,NA,NA,NA,NA
"551","stim/objects/Instruments/speaker.png",317,50,310,0.5,"stim/24.jpeg",2,4,1,1,"Instruments",2,1,"right","left",0.559000015,0,0,1,0,131,50,1,0.5,2,"stim/24.jpeg",2,4,"stim/24.jpeg",1,"right",0.650999784,3,2,2.13499999,1,1.795000076,131,0,0,NA,1,NA,0
"570","stim/objects/Instruments/xylophone2.png",318,50,311,0.1,"stim/64.jpeg",6,4,3,1,"Instruments",2,4,"right","left",0.496000051,0,0,1,0,64,50,1,0.1,2,"stim/64.jpeg",6,4,"stim/64.jpeg",4,"right",0.673000097,3,1,3.609999895,2,2.299000025,64,0,0,NA,0,NA,0
"567","stim/objects/Instruments/vuvuzela.png",319,50,312,0.7,"stim/31.jpeg",3,1,2,1,"Instruments",2,3,"right","left",0.453999996,0,0,1,0,107,50,1,0.7,2,"stim/31.jpeg",3,1,"stim/31.jpeg",3,"left",1.166000128,3,2,1.57400012,1,1.950999975,107,1,0,0,0,0,0
"464","stim/objects/Instruments/marimba.png",320,50,313,0.9,"stim/51.jpeg",5,1,3,2,"Instruments",2,4,"right","right",0.665999889,1,1,1,0,NA,NA,NA,NA,NA,NA,NA,NA,NA,NA,NA,NA,NA,NA,NA,NA,NA,NA,NA,NA,NA,NA,NA,NA
"266","stim/objects/HouseObjects/glassmop.png",321,50,314,0.5,"stim/22.jpeg",2,2,1,2,"HouseObjects",1,1,"left","left",0.621000051,1,1,1,0,NA,NA,NA,NA,NA,NA,NA,NA,NA,NA,NA,NA,NA,NA,NA,NA,NA,NA,NA,NA,NA,NA,NA,NA
"394","stim/objects/HouseObjects/teapot.png",322,50,315,0.5,"stim/21.jpeg",2,1,1,1,"HouseObjects",1,4,"left","left",0.499000072,1,1,1,0,157,50,1,0.5,2,"stim/21.jpeg",2,1,"stim/21.jpeg",4,"right",1.243000031,2,2,0.756999969,1,1.103000164,157,0,0,NA,0,NA,0
"257","stim/objects/HouseObjects/flyswatter.png",323,50,316,0.5,"stim/23.jpeg",2,3,1,2,"HouseObjects",1,4,"left","left",0.526000023,1,1,1,0,NA,NA,NA,NA,NA,NA,NA,NA,NA,NA,NA,NA,NA,NA,NA,NA,NA,NA,NA,NA,NA,NA,NA,NA
"274","stim/objects/HouseObjects/handbrush2.png",324,50,317,0.7,"stim/41.jpeg",4,1,2,1,"HouseObjects",1,1,"left","left",0.545000076,1,1,1,0,172,50,1,0.7,1,"stim/41.jpeg",4,1,"stim/41.jpeg",1,"right",0.601000071,3,2,0.828999996,1,1.180000067,172,0,0,NA,1,NA,0
"329","stim/objects/HouseObjects/match.png",325,50,318,0.9,"stim/61.jpeg",6,1,3,2,"HouseObjects",1,2,"left","left",0.489000082,1,1,1,0,NA,NA,NA,NA,NA,NA,NA,NA,NA,NA,NA,NA,NA,NA,NA,NA,NA,NA,NA,NA,NA,NA,NA,NA
"475","stim/objects/Instruments/metronome.png",326,50,319,0.9,"stim/53.jpeg",5,3,3,2,"Instruments",2,1,"right","right",0.462000132,1,1,1,0,NA,NA,NA,NA,NA,NA,NA,NA,NA,NA,NA,NA,NA,NA,NA,NA,NA,NA,NA,NA,NA,NA,NA,NA
"276","stim/objects/HouseObjects/handvacuum.png",327,50,320,0.7,"stim/43.jpeg",4,3,2,2,"HouseObjects",1,4,"left","left",0.606000185,1,1,1,0,NA,NA,NA,NA,NA,NA,NA,NA,NA,NA,NA,NA,NA,NA,NA,NA,NA,NA,NA,NA,NA,NA,NA,NA
"330","stim/objects/HouseObjects/match.png",328,50,321,0.9,"stim/62.jpeg",6,2,3,2,"HouseObjects",1,1,"left","left",0.762000084,1,1,1,0,NA,NA,NA,NA,NA,NA,NA,NA,NA,NA,NA,NA,NA,NA,NA,NA,NA,NA,NA,NA,NA,NA,NA,NA
"528","stim/objects/Instruments/oboe.png",329,50,322,0.9,"stim/53.jpeg",5,3,3,2,"Instruments",2,4,"right","right",0.662999868,1,1,1,0,NA,NA,NA,NA,NA,NA,NA,NA,NA,NA,NA,NA,NA,NA,NA,NA,NA,NA,NA,NA,NA,NA,NA,NA
"554","stim/objects/Instruments/tambourine2.png",330,50,323,0.1,"stim/64.jpeg",6,4,3,1,"Instruments",2,4,"right","left",0.662999868,0,0,1,0,171,50,1,0.1,2,"stim/64.jpeg",6,4,"stim/64.jpeg",4,"left",1.021000147,3,1,2.71600008,2,1.790999889,171,1,0,0,0,0,0
"293","stim/objects/HouseObjects/knife.png",331,50,324,0.9,"stim/64.jpeg",6,4,3,2,"HouseObjects",1,2,"left","right",0.612999916,0,0,1,0,NA,NA,NA,NA,NA,NA,NA,NA,NA,NA,NA,NA,NA,NA,NA,NA,NA,NA,NA,NA,NA,NA,NA,NA
"390","stim/objects/HouseObjects/sponge.png",332,50,325,0.5,"stim/23.jpeg",2,3,1,1,"HouseObjects",1,3,"left","left",0.507999897,1,1,1,0,92,50,1,0.5,2,"stim/23.jpeg",2,3,"stim/23.jpeg",3,"left",0.796000004,4,2,2.438999891,2,3.686000109,92,1,0,0,0,0,0
"331","stim/objects/HouseObjects/match.png",333,50,326,0.9,"stim/64.jpeg",6,4,3,2,"HouseObjects",1,4,"left","left",0.474999905,1,1,1,0,NA,NA,NA,NA,NA,NA,NA,NA,NA,NA,NA,NA,NA,NA,NA,NA,NA,NA,NA,NA,NA,NA,NA,NA
"315","stim/objects/HouseObjects/lintroller.png",334,50,327,0.9,"stim/64.jpeg",6,4,3,2,"HouseObjects",1,2,"left","left",0.476999998,1,1,1,0,NA,NA,NA,NA,NA,NA,NA,NA,NA,NA,NA,NA,NA,NA,NA,NA,NA,NA,NA,NA,NA,NA,NA,NA
"294","stim/objects/HouseObjects/knife.png",335,50,328,0.9,"stim/62.jpeg",6,2,3,2,"HouseObjects",1,1,"left","left",0.552999973,1,1,1,0,NA,NA,NA,NA,NA,NA,NA,NA,NA,NA,NA,NA,NA,NA,NA,NA,NA,NA,NA,NA,NA,NA,NA,NA
"332","stim/objects/HouseObjects/match.png",336,50,329,0.9,"stim/62.jpeg",6,2,3,2,"HouseObjects",1,3,"left","left",0.419000149,1,1,1,0,NA,NA,NA,NA,NA,NA,NA,NA,NA,NA,NA,NA,NA,NA,NA,NA,NA,NA,NA,NA,NA,NA,NA,NA
"465","stim/objects/Instruments/marimba.png",337,50,330,0.9,"stim/51.jpeg",5,1,3,2,"Instruments",2,3,"right","right",0.562000036,1,1,1,0,NA,NA,NA,NA,NA,NA,NA,NA,NA,NA,NA,NA,NA,NA,NA,NA,NA,NA,NA,NA,NA,NA,NA,NA
"404","stim/objects/HouseObjects/wateringcan.png",338,50,331,0.3,"stim/31.jpeg",3,1,2,1,"HouseObjects",1,1,"left","right",0.597999811,0,0,1,0,96,50,1,0.3,1,"stim/31.jpeg",3,1,"stim/31.jpeg",1,"right",0.753000021,2,2,1.249000072,1,1.917000055,96,0,0,NA,1,NA,0
"466","stim/objects/Instruments/marimba.png",339,50,332,0.9,"stim/54.jpeg",5,4,3,2,"Instruments",2,4,"right","left",0.524999857,0,0,1,0,NA,NA,NA,NA,NA,NA,NA,NA,NA,NA,NA,NA,NA,NA,NA,NA,NA,NA,NA,NA,NA,NA,NA,NA
"561","stim/objects/Instruments/trumpet.png",340,50,333,0.7,"stim/32.jpeg",3,2,2,1,"Instruments",2,2,"right","right",0.553999901,1,1,1,0,121,50,1,0.7,2,"stim/32.jpeg",3,2,"stim/32.jpeg",2,"left",0.718999863,4,2,1.144000053,3,1.818000078,121,1,1,1,0,0,0
"287","stim/objects/HouseObjects/key.png",341,50,334,0.7,"stim/41.jpeg",4,1,2,2,"HouseObjects",1,3,"left","left",0.545000076,1,1,1,0,NA,NA,NA,NA,NA,NA,NA,NA,NA,NA,NA,NA,NA,NA,NA,NA,NA,NA,NA,NA,NA,NA,NA,NA
"316","stim/objects/HouseObjects/lintroller.png",342,50,335,0.9,"stim/63.jpeg",6,3,3,2,"HouseObjects",1,1,"left","left",0.548000097,1,1,1,0,NA,NA,NA,NA,NA,NA,NA,NA,NA,NA,NA,NA,NA,NA,NA,NA,NA,NA,NA,NA,NA,NA,NA,NA
"559","stim/objects/Instruments/trombone.png",343,50,336,0.5,"stim/24.jpeg",2,4,1,1,"Instruments",2,1,"right","left",0.678999901,0,0,1,0,25,50,1,0.5,2,"stim/24.jpeg",2,4,"stim/24.jpeg",1,"left",1.026000023,3,4,3.536999941,2,3.325000048,25,1,1,1,0,0,0
"296","stim/objects/HouseObjects/knife.png",344,50,337,0.9,"stim/63.jpeg",6,3,3,2,"HouseObjects",1,2,"left","left",0.645000219,1,1,1,0,NA,NA,NA,NA,NA,NA,NA,NA,NA,NA,NA,NA,NA,NA,NA,NA,NA,NA,NA,NA,NA,NA,NA,NA
"494","stim/objects/Instruments/musicsheet.png",345,50,338,0.9,"stim/54.jpeg",5,4,3,2,"Instruments",2,1,"right","right",0.64199996,1,1,1,0,NA,NA,NA,NA,NA,NA,NA,NA,NA,NA,NA,NA,NA,NA,NA,NA,NA,NA,NA,NA,NA,NA,NA,NA
"248","stim/objects/HouseObjects/dishsoap.png",346,50,339,0.5,"stim/14.jpeg",1,4,1,2,"HouseObjects",1,1,"left","right",0.628000021,0,0,1,0,NA,NA,NA,NA,NA,NA,NA,NA,NA,NA,NA,NA,NA,NA,NA,NA,NA,NA,NA,NA,NA,NA,NA,NA
"467","stim/objects/Instruments/marimba.png",347,50,340,0.9,"stim/53.jpeg",5,3,3,2,"Instruments",2,2,"right","right",0.592999935,1,1,1,0,NA,NA,NA,NA,NA,NA,NA,NA,NA,NA,NA,NA,NA,NA,NA,NA,NA,NA,NA,NA,NA,NA,NA,NA
"542","stim/objects/Instruments/panflute2.png",348,50,341,0.9,"stim/54.jpeg",5,4,3,1,"Instruments",2,3,"right","left",0.375999928,0,0,1,0,127,50,1,0.9,2,"stim/54.jpeg",5,4,"stim/54.jpeg",3,"left",1.085000038,4,2,2.720000029,2,2.708999872,127,1,0,0,0,0,0
"399","stim/objects/HouseObjects/thread2.png",349,50,342,0.9,"stim/63.jpeg",6,3,3,1,"HouseObjects",1,3,"left","left",0.568000078,1,1,1,0,128,50,1,0.9,1,"stim/63.jpeg",6,3,"stim/63.jpeg",3,"right",0.875,4,2,3.190000057,1,1.323999882,128,0,0,NA,0,NA,0
"366","stim/objects/HouseObjects/pitcher.png",350,50,343,0.9,"stim/64.jpeg",6,4,3,2,"HouseObjects",1,2,"left","left",0.5400002,1,1,1,0,NA,NA,NA,NA,NA,NA,NA,NA,NA,NA,NA,NA,NA,NA,NA,NA,NA,NA,NA,NA,NA,NA,NA,NA
"510","stim/objects/Instruments/musicstand.png",351,50,344,0.9,"stim/53.jpeg",5,3,3,2,"Instruments",2,1,"right","left",0.430999994,0,0,1,0,NA,NA,NA,NA,NA,NA,NA,NA,NA,NA,NA,NA,NA,NA,NA,NA,NA,NA,NA,NA,NA,NA,NA,NA
"476","stim/objects/Instruments/metronome.png",352,50,345,0.9,"stim/54.jpeg",5,4,3,2,"Instruments",2,1,"right","left",0.444999933,0,0,1,0,NA,NA,NA,NA,NA,NA,NA,NA,NA,NA,NA,NA,NA,NA,NA,NA,NA,NA,NA,NA,NA,NA,NA,NA
"297","stim/objects/HouseObjects/knife.png",353,50,346,0.9,"stim/62.jpeg",6,2,3,2,"HouseObjects",1,4,"left","left",0.583000183,1,1,1,0,NA,NA,NA,NA,NA,NA,NA,NA,NA,NA,NA,NA,NA,NA,NA,NA,NA,NA,NA,NA,NA,NA,NA,NA
"431","stim/objects/Instruments/guitarcase.png",354,50,347,0.5,"stim/22.jpeg",2,2,1,2,"Instruments",2,2,"right","left",0.530999899,0,0,1,0,NA,NA,NA,NA,NA,NA,NA,NA,NA,NA,NA,NA,NA,NA,NA,NA,NA,NA,NA,NA,NA,NA,NA,NA
"511","stim/objects/Instruments/musicstand.png",355,50,348,0.9,"stim/53.jpeg",5,3,3,2,"Instruments",2,2,"right","right",0.647000074,1,1,1,0,NA,NA,NA,NA,NA,NA,NA,NA,NA,NA,NA,NA,NA,NA,NA,NA,NA,NA,NA,NA,NA,NA,NA,NA
"512","stim/objects/Instruments/musicstand.png",356,50,349,0.9,"stim/52.jpeg",5,2,3,2,"Instruments",2,3,"right","left",0.569000006,0,0,1,0,NA,NA,NA,NA,NA,NA,NA,NA,NA,NA,NA,NA,NA,NA,NA,NA,NA,NA,NA,NA,NA,NA,NA,NA
"242","stim/objects/HouseObjects/coffee.png",357,50,350,0.5,"stim/12.jpeg",1,2,1,2,"HouseObjects",1,3,"left","right",0.885999918,0,0,1,0,NA,NA,NA,NA,NA,NA,NA,NA,NA,NA,NA,NA,NA,NA,NA,NA,NA,NA,NA,NA,NA,NA,NA,NA
"351","stim/objects/HouseObjects/pan.png",358,50,351,0.9,"stim/62.jpeg",6,2,3,2,"HouseObjects",1,3,"left","left",0.496999979,1,1,1,0,NA,NA,NA,NA,NA,NA,NA,NA,NA,NA,NA,NA,NA,NA,NA,NA,NA,NA,NA,NA,NA,NA,NA,NA
"367","stim/objects/HouseObjects/pitcher.png",359,50,352,0.9,"stim/61.jpeg",6,1,3,2,"HouseObjects",1,2,"left","left",0.557999849,1,1,1,0,NA,NA,NA,NA,NA,NA,NA,NA,NA,NA,NA,NA,NA,NA,NA,NA,NA,NA,NA,NA,NA,NA,NA,NA
"477","stim/objects/Instruments/metronome.png",360,50,353,0.9,"stim/51.jpeg",5,1,3,2,"Instruments",2,4,"right","right",0.464999914,1,1,1,0,NA,NA,NA,NA,NA,NA,NA,NA,NA,NA,NA,NA,NA,NA,NA,NA,NA,NA,NA,NA,NA,NA,NA,NA
"352","stim/objects/HouseObjects/pan.png",361,50,354,0.9,"stim/64.jpeg",6,4,3,2,"HouseObjects",1,1,"left","right",0.535000086,0,0,1,0,NA,NA,NA,NA,NA,NA,NA,NA,NA,NA,NA,NA,NA,NA,NA,NA,NA,NA,NA,NA,NA,NA,NA,NA
"259","stim/objects/HouseObjects/garbagebin.png",362,50,355,0.5,"stim/21.jpeg",2,1,1,2,"HouseObjects",1,4,"left","left",0.517999887,1,1,1,0,NA,NA,NA,NA,NA,NA,NA,NA,NA,NA,NA,NA,NA,NA,NA,NA,NA,NA,NA,NA,NA,NA,NA,NA
"252","stim/objects/HouseObjects/doormat2.png",363,50,356,0.3,"stim/31.jpeg",3,1,2,1,"HouseObjects",1,3,"left","",NA,0,0,1,0,7,50,1,0.3,1,"stim/31.jpeg",3,1,"stim/31.jpeg",3,"right",2.195999861,2,2,2.65899992,3,4.160000086,7,0,0,NA,1,NA,0
"260","stim/objects/HouseObjects/garbagebin.png",364,50,357,0.5,"stim/24.jpeg",2,4,1,2,"HouseObjects",1,4,"left","right",0.446000099,0,0,1,0,NA,NA,NA,NA,NA,NA,NA,NA,NA,NA,NA,NA,NA,NA,NA,NA,NA,NA,NA,NA,NA,NA,NA,NA
"353","stim/objects/HouseObjects/pan.png",365,50,358,0.9,"stim/62.jpeg",6,2,3,2,"HouseObjects",1,4,"left","left",0.483999968,1,1,1,0,NA,NA,NA,NA,NA,NA,NA,NA,NA,NA,NA,NA,NA,NA,NA,NA,NA,NA,NA,NA,NA,NA,NA,NA
"288","stim/objects/HouseObjects/key.png",366,50,359,0.7,"stim/42.jpeg",4,2,2,2,"HouseObjects",1,1,"left","left",0.582999945,1,1,1,0,NA,NA,NA,NA,NA,NA,NA,NA,NA,NA,NA,NA,NA,NA,NA,NA,NA,NA,NA,NA,NA,NA,NA,NA
"285","stim/objects/HouseObjects/ironingboard.png",367,50,360,0.7,"stim/41.jpeg",4,1,2,2,"HouseObjects",1,4,"left","left",0.798000097,1,1,1,0,NA,NA,NA,NA,NA,NA,NA,NA,NA,NA,NA,NA,NA,NA,NA,NA,NA,NA,NA,NA,NA,NA,NA,NA
"568","stim/objects/Instruments/vuvuzela2.png",368,50,361,0.1,"stim/63.jpeg",6,3,3,1,"Instruments",2,2,"right","left",0.52699995,0,0,1,0,74,50,1,0.1,2,"stim/63.jpeg",6,3,"stim/63.jpeg",2,"left",0.866999865,4,2,1.979000092,1,3.116999865,74,1,0,0,0,0,0
"478","stim/objects/Instruments/metronome.png",369,50,362,0.9,"stim/54.jpeg",5,4,3,2,"Instruments",2,1,"right","left",0.492999792,0,0,1,0,NA,NA,NA,NA,NA,NA,NA,NA,NA,NA,NA,NA,NA,NA,NA,NA,NA,NA,NA,NA,NA,NA,NA,NA
"289","stim/objects/HouseObjects/key.png",370,50,363,0.7,"stim/43.jpeg",4,3,2,2,"HouseObjects",1,3,"left","left",0.460999966,1,1,1,0,NA,NA,NA,NA,NA,NA,NA,NA,NA,NA,NA,NA,NA,NA,NA,NA,NA,NA,NA,NA,NA,NA,NA,NA
"412","stim/objects/Instruments/electricguitar.png",371,50,364,0.5,"stim/13.jpeg",1,3,1,2,"Instruments",2,3,"right","left",0.474999905,0,0,1,0,NA,NA,NA,NA,NA,NA,NA,NA,NA,NA,NA,NA,NA,NA,NA,NA,NA,NA,NA,NA,NA,NA,NA,NA
"450","stim/objects/Instruments/laud.png",372,50,365,0.7,"stim/32.jpeg",3,2,2,2,"Instruments",2,2,"right","right",0.473999977,1,1,1,0,NA,NA,NA,NA,NA,NA,NA,NA,NA,NA,NA,NA,NA,NA,NA,NA,NA,NA,NA,NA,NA,NA,NA,NA
"291","stim/objects/HouseObjects/knife.png",373,50,366,0.9,"stim/63.jpeg",6,3,3,2,"HouseObjects",1,4,"left","left",0.524000168,1,1,1,0,NA,NA,NA,NA,NA,NA,NA,NA,NA,NA,NA,NA,NA,NA,NA,NA,NA,NA,NA,NA,NA,NA,NA,NA
"359","stim/objects/HouseObjects/pitcher.png",374,50,367,0.9,"stim/64.jpeg",6,4,3,2,"HouseObjects",1,3,"left","left",0.496999979,1,1,1,0,NA,NA,NA,NA,NA,NA,NA,NA,NA,NA,NA,NA,NA,NA,NA,NA,NA,NA,NA,NA,NA,NA,NA,NA
"473","stim/objects/Instruments/metronome.png",375,50,368,0.9,"stim/51.jpeg",5,1,3,2,"Instruments",2,3,"right","left",0.60800004,0,0,1,0,NA,NA,NA,NA,NA,NA,NA,NA,NA,NA,NA,NA,NA,NA,NA,NA,NA,NA,NA,NA,NA,NA,NA,NA
"420","stim/objects/Instruments/flutetrans2.png",376,50,369,0.7,"stim/33.jpeg",3,3,2,1,"Instruments",2,1,"right","right",0.459000111,1,1,1,0,10,50,1,0.7,2,"stim/33.jpeg",3,3,"stim/33.jpeg",1,"right",1.986000061,2,3,3.417000055,2,3.811000109,10,0,1,NA,0,NA,0
"490","stim/objects/Instruments/musicsheet.png",377,50,370,0.9,"stim/54.jpeg",5,4,3,2,"Instruments",2,2,"right","right",0.463000059,1,1,1,0,NA,NA,NA,NA,NA,NA,NA,NA,NA,NA,NA,NA,NA,NA,NA,NA,NA,NA,NA,NA,NA,NA,NA,NA
"358","stim/objects/HouseObjects/pan2.png",378,50,371,0.1,"stim/54.jpeg",5,4,3,1,"HouseObjects",1,3,"left","right",0.469000101,0,0,1,0,36,50,1,0.1,1,"stim/54.jpeg",5,4,"stim/54.jpeg",3,"right",0.755000114,2,2,2.184999943,2,1.996000051,36,0,0,NA,0,NA,0
"444","stim/objects/Instruments/keyboard.png",379,50,372,0.7,"stim/32.jpeg",3,2,2,2,"Instruments",2,3,"right","left",0.605999947,0,0,1,0,NA,NA,NA,NA,NA,NA,NA,NA,NA,NA,NA,NA,NA,NA,NA,NA,NA,NA,NA,NA,NA,NA,NA,NA
"310","stim/objects/HouseObjects/lintroller.png",380,50,373,0.9,"stim/61.jpeg",6,1,3,2,"HouseObjects",1,2,"left","left",0.726999998,1,1,1,0,NA,NA,NA,NA,NA,NA,NA,NA,NA,NA,NA,NA,NA,NA,NA,NA,NA,NA,NA,NA,NA,NA,NA,NA
"456","stim/objects/Instruments/marimba.png",381,50,374,0.9,"stim/53.jpeg",5,3,3,2,"Instruments",2,4,"right","left",0.863999844,0,0,1,0,NA,NA,NA,NA,NA,NA,NA,NA,NA,NA,NA,NA,NA,NA,NA,NA,NA,NA,NA,NA,NA,NA,NA,NA
"516","stim/objects/Instruments/musicstand.png",382,50,375,0.9,"stim/51.jpeg",5,1,3,2,"Instruments",2,4,"right","left",0.50999999,0,0,1,0,NA,NA,NA,NA,NA,NA,NA,NA,NA,NA,NA,NA,NA,NA,NA,NA,NA,NA,NA,NA,NA,NA,NA,NA
"405","stim/objects/HouseObjects/wateringcan2.png",383,50,376,0.9,"stim/62.jpeg",6,2,3,1,"HouseObjects",1,4,"left","left",0.508000135,1,1,1,0,188,50,1,0.9,1,"stim/62.jpeg",6,2,"stim/62.jpeg",4,"left",0.845999956,4,1,1.957999945,2,1.802000046,188,1,0,0,0,0,0
"530","stim/objects/Instruments/oboe.png",384,50,377,0.9,"stim/52.jpeg",5,2,3,2,"Instruments",2,2,"right","left",0.461999893,0,0,1,0,NA,NA,NA,NA,NA,NA,NA,NA,NA,NA,NA,NA,NA,NA,NA,NA,NA,NA,NA,NA,NA,NA,NA,NA
"300","stim/objects/HouseObjects/knife.png",385,50,378,0.9,"stim/64.jpeg",6,4,3,2,"HouseObjects",1,4,"left","right",0.25999999,0,0,1,0,NA,NA,NA,NA,NA,NA,NA,NA,NA,NA,NA,NA,NA,NA,NA,NA,NA,NA,NA,NA,NA,NA,NA,NA
"541","stim/objects/Instruments/panflute.png",386,50,379,0.5,"stim/12.jpeg",1,2,1,1,"Instruments",2,1,"right","left",0.653000116,0,0,1,0,169,50,1,0.5,1,"stim/12.jpeg",1,2,"stim/12.jpeg",1,"right",0.713000059,1,1,0.909999847,1,0.799999952,169,0,0,NA,1,NA,0
"531","stim/objects/Instruments/oboe.png",387,50,380,0.9,"stim/52.jpeg",5,2,3,2,"Instruments",2,1,"right","right",0.763999939,1,1,1,0,NA,NA,NA,NA,NA,NA,NA,NA,NA,NA,NA,NA,NA,NA,NA,NA,NA,NA,NA,NA,NA,NA,NA,NA
"524","stim/objects/Instruments/oboe.png",388,50,381,0.9,"stim/54.jpeg",5,4,3,2,"Instruments",2,3,"right","left",0.56799984,0,0,1,0,NA,NA,NA,NA,NA,NA,NA,NA,NA,NA,NA,NA,NA,NA,NA,NA,NA,NA,NA,NA,NA,NA,NA,NA
"383","stim/objects/HouseObjects/rug2.png",389,50,382,0.1,"stim/51.jpeg",5,1,3,1,"HouseObjects",1,2,"left","right",0.680999994,0,0,1,0,180,50,1,0.1,1,"stim/51.jpeg",5,1,"stim/51.jpeg",2,"left",1.240999937,3,4,1.618000031,1,2.558000088,180,1,0,0,0,0,0
"344","stim/objects/HouseObjects/pan.png",390,50,383,0.9,"stim/61.jpeg",6,1,3,2,"HouseObjects",1,1,"left","left",0.523999929,1,1,1,0,NA,NA,NA,NA,NA,NA,NA,NA,NA,NA,NA,NA,NA,NA,NA,NA,NA,NA,NA,NA,NA,NA,NA,NA
"378","stim/objects/HouseObjects/remote.png",391,50,384,0.5,"stim/14.jpeg",1,4,1,1,"HouseObjects",1,1,"left","right",0.707000017,0,0,1,0,182,50,1,0.5,1,"stim/14.jpeg",1,4,"stim/14.jpeg",1,"left",0.959000111,4,2,2.457000017,4,1.488000154,182,1,0,0,0,0,0
"447","stim/objects/Instruments/keyboard2.png",392,50,385,0.3,"stim/41.jpeg",4,1,2,1,"Instruments",2,4,"right","left",0.647000074,0,0,1,0,15,50,1,0.3,2,"stim/41.jpeg",4,1,"stim/41.jpeg",4,"left",1.53399992,4,4,4.401000023,4,2.411999941,15,1,0,0,1,1,0
"406","stim/objects/Instruments/drums.png",393,50,386,0.5,"stim/14.jpeg",1,4,1,2,"Instruments",2,2,"right","left",0.695999861,0,0,1,0,NA,NA,NA,NA,NA,NA,NA,NA,NA,NA,NA,NA,NA,NA,NA,NA,NA,NA,NA,NA,NA,NA,NA,NA
"508","stim/objects/Instruments/musicstand.png",394,50,387,0.9,"stim/54.jpeg",5,4,3,2,"Instruments",2,4,"right","left",0.465999842,0,0,1,0,NA,NA,NA,NA,NA,NA,NA,NA,NA,NA,NA,NA,NA,NA,NA,NA,NA,NA,NA,NA,NA,NA,NA,NA
"393","stim/objects/HouseObjects/spraybottle2.png",395,50,388,0.9,"stim/64.jpeg",6,4,3,1,"HouseObjects",1,4,"left","left",0.559999943,1,1,1,0,166,50,1,0.9,1,"stim/64.jpeg",6,4,"stim/64.jpeg",4,"right",0.56400013,2,2,1.246000051,3,1.146000147,166,0,0,NA,0,NA,0
"499","stim/objects/Instruments/musicsheet.png",396,50,389,0.9,"stim/51.jpeg",5,1,3,2,"Instruments",2,2,"right","right",0.660000086,1,1,1,0,NA,NA,NA,NA,NA,NA,NA,NA,NA,NA,NA,NA,NA,NA,NA,NA,NA,NA,NA,NA,NA,NA,NA,NA
"556","stim/objects/Instruments/timbal2.png",397,50,390,0.1,"stim/61.jpeg",6,1,3,1,"Instruments",2,2,"right","left",0.769999981,0,0,1,0,94,50,1,0.1,2,"stim/61.jpeg",6,1,"stim/61.jpeg",2,"left",1.361999989,3,1,2.657999992,3,2.802000046,94,1,1,1,0,0,0
"457","stim/objects/Instruments/marimba.png",398,50,391,0.9,"stim/53.jpeg",5,3,3,2,"Instruments",2,1,"right","right",0.548000097,1,1,1,0,NA,NA,NA,NA,NA,NA,NA,NA,NA,NA,NA,NA,NA,NA,NA,NA,NA,NA,NA,NA,NA,NA,NA,NA
"302","stim/objects/HouseObjects/knife.png",399,50,392,0.9,"stim/62.jpeg",6,2,3,2,"HouseObjects",1,4,"left","left",0.555999994,1,1,1,0,NA,NA,NA,NA,NA,NA,NA,NA,NA,NA,NA,NA,NA,NA,NA,NA,NA,NA,NA,NA,NA,NA,NA,NA
"362","stim/objects/HouseObjects/pitcher.png",400,50,393,0.9,"stim/61.jpeg",6,1,3,2,"HouseObjects",1,1,"left","right",0.549000025,0,0,1,0,NA,NA,NA,NA,NA,NA,NA,NA,NA,NA,NA,NA,NA,NA,NA,NA,NA,NA,NA,NA,NA,NA,NA,NA
"500","stim/objects/Instruments/musicsheet.png",401,50,394,0.9,"stim/52.jpeg",5,2,3,2,"Instruments",2,4,"right","right",0.704999924,1,1,1,0,NA,NA,NA,NA,NA,NA,NA,NA,NA,NA,NA,NA,NA,NA,NA,NA,NA,NA,NA,NA,NA,NA,NA,NA
"376","stim/objects/HouseObjects/recyclingbin.png",402,50,395,0.5,"stim/13.jpeg",1,3,1,1,"HouseObjects",1,4,"left","right",0.60800004,0,0,1,0,29,50,1,0.5,1,"stim/13.jpeg",1,3,"stim/13.jpeg",4,"left",0.869999886,4,2,2.585999966,3,1.895999908,29,1,0,0,0,0,0
"448","stim/objects/Instruments/laud.png",403,50,396,0.7,"stim/33.jpeg",3,3,2,2,"Instruments",2,3,"right","left",0.712999821,0,0,1,0,NA,NA,NA,NA,NA,NA,NA,NA,NA,NA,NA,NA,NA,NA,NA,NA,NA,NA,NA,NA,NA,NA,NA,NA
"363","stim/objects/HouseObjects/pitcher.png",404,50,397,0.9,"stim/64.jpeg",6,4,3,2,"HouseObjects",1,4,"left","left",0.56799984,1,1,1,0,NA,NA,NA,NA,NA,NA,NA,NA,NA,NA,NA,NA,NA,NA,NA,NA,NA,NA,NA,NA,NA,NA,NA,NA
"364","stim/objects/HouseObjects/pitcher.png",405,50,398,0.9,"stim/61.jpeg",6,1,3,2,"HouseObjects",1,3,"left","left",0.414999962,1,1,1,0,NA,NA,NA,NA,NA,NA,NA,NA,NA,NA,NA,NA,NA,NA,NA,NA,NA,NA,NA,NA,NA,NA,NA,NA
"501","stim/objects/Instruments/musicsheet.png",406,50,399,0.9,"stim/53.jpeg",5,3,3,2,"Instruments",2,1,"right","right",0.746999979,1,1,1,0,NA,NA,NA,NA,NA,NA,NA,NA,NA,NA,NA,NA,NA,NA,NA,NA,NA,NA,NA,NA,NA,NA,NA,NA
"481","stim/objects/Instruments/metronome.png",407,50,400,0.9,"stim/52.jpeg",5,2,3,2,"Instruments",2,3,"right","left",0.708999872,0,0,1,0,NA,NA,NA,NA,NA,NA,NA,NA,NA,NA,NA,NA,NA,NA,NA,NA,NA,NA,NA,NA,NA,NA,NA,NA
"489","stim/objects/Instruments/metronome2.png",408,50,401,0.9,"stim/54.jpeg",5,4,3,1,"Instruments",2,3,"right","right",0.541999817,1,1,1,0,194,50,1,0.9,2,"stim/54.jpeg",5,4,"stim/54.jpeg",3,"right",1.570999861,3,2,0.855999947,2,0.967999935,194,0,0,NA,0,NA,0
"401","stim/objects/HouseObjects/towel2.png",409,50,402,0.9,"stim/64.jpeg",6,4,3,1,"HouseObjects",1,2,"left","left",0.519000053,1,1,1,0,143,50,1,0.9,1,"stim/64.jpeg",6,4,"stim/64.jpeg",2,"right",0.784999847,3,2,1.142000198,1,1.652000189,143,0,0,NA,0,NA,0
"563","stim/objects/Instruments/tuba.png",410,50,403,0.7,"stim/33.jpeg",3,3,2,1,"Instruments",2,4,"right","right",0.636000156,1,1,1,0,2,50,1,0.7,2,"stim/33.jpeg",3,3,"stim/33.jpeg",4,"left",0.891000032,4,3,6.413000107,1,3.70600009,2,1,1,1,0,0,0
"298","stim/objects/HouseObjects/knife.png",411,50,404,0.9,"stim/63.jpeg",6,3,3,2,"HouseObjects",1,1,"left","left",0.633999825,1,1,1,0,NA,NA,NA,NA,NA,NA,NA,NA,NA,NA,NA,NA,NA,NA,NA,NA,NA,NA,NA,NA,NA,NA,NA,NA
"427","stim/objects/Instruments/grandpiano.png",412,50,405,0.5,"stim/24.jpeg",2,4,1,2,"Instruments",2,1,"right","right",0.545000076,1,1,1,0,NA,NA,NA,NA,NA,NA,NA,NA,NA,NA,NA,NA,NA,NA,NA,NA,NA,NA,NA,NA,NA,NA,NA,NA
"449","stim/objects/Instruments/laud.png",413,50,406,0.7,"stim/34.jpeg",3,4,2,2,"Instruments",2,3,"right","",NA,0,0,1,0,NA,NA,NA,NA,NA,NA,NA,NA,NA,NA,NA,NA,NA,NA,NA,NA,NA,NA,NA,NA,NA,NA,NA,NA
"415","stim/objects/Instruments/flute.png",414,50,407,0.5,"stim/14.jpeg",1,4,1,2,"Instruments",2,3,"right","right",0.378999949,1,1,1,0,NA,NA,NA,NA,NA,NA,NA,NA,NA,NA,NA,NA,NA,NA,NA,NA,NA,NA,NA,NA,NA,NA,NA,NA
"370","stim/objects/HouseObjects/pitcher.png",415,50,408,0.9,"stim/62.jpeg",6,2,3,2,"HouseObjects",1,3,"left","left",0.430999994,1,1,1,0,NA,NA,NA,NA,NA,NA,NA,NA,NA,NA,NA,NA,NA,NA,NA,NA,NA,NA,NA,NA,NA,NA,NA,NA
"377","stim/objects/HouseObjects/recyclingbin2.png",416,50,409,0.1,"stim/52.jpeg",5,2,3,1,"HouseObjects",1,3,"left","left",0.328000069,1,1,1,0,34,50,1,0.1,1,"stim/52.jpeg",5,2,"stim/52.jpeg",3,"right",0.777999878,3,2,1.907000065,4,4.198999882,34,0,1,NA,0,NA,0
"564","stim/objects/Instruments/tuba2.png",417,50,410,0.1,"stim/61.jpeg",6,1,3,1,"Instruments",2,2,"right","left",0.571999788,0,0,1,0,31,50,1,0.1,2,"stim/61.jpeg",6,1,"stim/61.jpeg",2,"right",1.056999922,3,2,2.391000032,3,1.527999878,31,0,0,NA,0,NA,0
"321","stim/objects/HouseObjects/lintroller.png",418,50,411,0.9,"stim/62.jpeg",6,2,3,2,"HouseObjects",1,3,"left","left",0.493000031,1,1,1,0,NA,NA,NA,NA,NA,NA,NA,NA,NA,NA,NA,NA,NA,NA,NA,NA,NA,NA,NA,NA,NA,NA,NA,NA
"421","stim/objects/Instruments/frenchhorn.png",419,50,412,0.5,"stim/23.jpeg",2,3,1,2,"Instruments",2,4,"right","right",0.437999964,1,1,1,0,NA,NA,NA,NA,NA,NA,NA,NA,NA,NA,NA,NA,NA,NA,NA,NA,NA,NA,NA,NA,NA,NA,NA,NA
"459","stim/objects/Instruments/marimba.png",420,50,413,0.9,"stim/52.jpeg",5,2,3,2,"Instruments",2,3,"right","left",0.362999916,0,0,1,0,NA,NA,NA,NA,NA,NA,NA,NA,NA,NA,NA,NA,NA,NA,NA,NA,NA,NA,NA,NA,NA,NA,NA,NA
"482","stim/objects/Instruments/metronome.png",421,50,414,0.9,"stim/51.jpeg",5,1,3,2,"Instruments",2,1,"right","left",0.378999949,0,0,1,0,NA,NA,NA,NA,NA,NA,NA,NA,NA,NA,NA,NA,NA,NA,NA,NA,NA,NA,NA,NA,NA,NA,NA,NA
"461","stim/objects/Instruments/marimba.png",422,50,415,0.9,"stim/54.jpeg",5,4,3,2,"Instruments",2,3,"right","left",0.388999939,0,0,1,0,NA,NA,NA,NA,NA,NA,NA,NA,NA,NA,NA,NA,NA,NA,NA,NA,NA,NA,NA,NA,NA,NA,NA,NA
"264","stim/objects/HouseObjects/glass2.png",423,50,416,0.7,"stim/42.jpeg",4,2,2,1,"HouseObjects",1,2,"left","left",0.562999964,1,1,1,0,46,50,1,0.7,1,"stim/42.jpeg",4,2,"stim/42.jpeg",2,"left",1.226999998,4,4,4.970999956,3,3.154999971,46,1,0,0,0,0,0
"433","stim/objects/Instruments/harmonica.png",424,50,417,0.5,"stim/23.jpeg",2,3,1,2,"Instruments",2,1,"right","left",0.701999903,0,0,1,0,NA,NA,NA,NA,NA,NA,NA,NA,NA,NA,NA,NA,NA,NA,NA,NA,NA,NA,NA,NA,NA,NA,NA,NA
"462","stim/objects/Instruments/marimba.png",425,50,418,0.9,"stim/51.jpeg",5,1,3,2,"Instruments",2,3,"right","right",0.84100008,1,1,1,0,NA,NA,NA,NA,NA,NA,NA,NA,NA,NA,NA,NA,NA,NA,NA,NA,NA,NA,NA,NA,NA,NA,NA,NA
"517","stim/objects/Instruments/musicstand.png",426,50,419,0.9,"stim/52.jpeg",5,2,3,2,"Instruments",2,3,"right","right",0.397000074,1,1,1,0,NA,NA,NA,NA,NA,NA,NA,NA,NA,NA,NA,NA,NA,NA,NA,NA,NA,NA,NA,NA,NA,NA,NA,NA
"411","stim/objects/Instruments/electricdrumset2.png",427,50,420,0.7,"stim/34.jpeg",3,4,2,1,"Instruments",2,1,"right","left",0.463999987,0,0,1,0,163,50,1,0.7,2,"stim/34.jpeg",3,4,"stim/34.jpeg",1,"right",0.938000202,3,2,1.118999958,3,1.28000021,163,0,0,NA,0,NA,0
"495","stim/objects/Instruments/musicsheet.png",428,50,421,0.9,"stim/52.jpeg",5,2,3,2,"Instruments",2,2,"right","right",0.476999998,1,1,1,0,NA,NA,NA,NA,NA,NA,NA,NA,NA,NA,NA,NA,NA,NA,NA,NA,NA,NA,NA,NA,NA,NA,NA,NA
"496","stim/objects/Instruments/musicsheet.png",429,50,422,0.9,"stim/53.jpeg",5,3,3,2,"Instruments",2,1,"right","right",0.575999975,1,1,1,0,NA,NA,NA,NA,NA,NA,NA,NA,NA,NA,NA,NA,NA,NA,NA,NA,NA,NA,NA,NA,NA,NA,NA,NA
"509","stim/objects/Instruments/musicstand.png",430,50,423,0.9,"stim/51.jpeg",5,1,3,2,"Instruments",2,4,"right","right",0.278000116,1,1,1,0,NA,NA,NA,NA,NA,NA,NA,NA,NA,NA,NA,NA,NA,NA,NA,NA,NA,NA,NA,NA,NA,NA,NA,NA
"391","stim/objects/HouseObjects/sponge2.png",431,50,424,0.9,"stim/63.jpeg",6,3,3,1,"HouseObjects",1,4,"left","right",0.384000063,0,0,1,0,118,50,1,0.9,1,"stim/63.jpeg",6,3,"stim/63.jpeg",4,"left",0.861999989,4,1,3.100999832,2,1.321000099,118,1,0,0,0,0,0
"498","stim/objects/Instruments/musicsheet.png",432,50,425,0.9,"stim/53.jpeg",5,3,3,2,"Instruments",2,1,"right","left",0.44900012,0,0,1,0,NA,NA,NA,NA,NA,NA,NA,NA,NA,NA,NA,NA,NA,NA,NA,NA,NA,NA,NA,NA,NA,NA,NA,NA
"335","stim/objects/HouseObjects/match.png",433,50,426,0.9,"stim/64.jpeg",6,4,3,2,"HouseObjects",1,3,"left","left",0.464999914,1,1,1,0,NA,NA,NA,NA,NA,NA,NA,NA,NA,NA,NA,NA,NA,NA,NA,NA,NA,NA,NA,NA,NA,NA,NA,NA
"386","stim/objects/HouseObjects/saw.png",434,50,427,0.5,"stim/21.jpeg",2,1,1,1,"HouseObjects",1,1,"left","left",0.536000013,1,1,1,0,68,50,1,0.5,2,"stim/21.jpeg",2,1,"stim/21.jpeg",1,"right",1.047999859,2,4,2.210000038,2,1.398999929,68,0,0,NA,0,NA,0
"419","stim/objects/Instruments/flutetrans.png",435,50,428,0.5,"stim/14.jpeg",1,4,1,2,"Instruments",2,4,"right","right",0.39199996,1,1,1,0,NA,NA,NA,NA,NA,NA,NA,NA,NA,NA,NA,NA,NA,NA,NA,NA,NA,NA,NA,NA,NA,NA,NA,NA
"483","stim/objects/Instruments/metronome.png",436,50,429,0.9,"stim/53.jpeg",5,3,3,2,"Instruments",2,2,"right","right",0.560000181,1,1,1,0,NA,NA,NA,NA,NA,NA,NA,NA,NA,NA,NA,NA,NA,NA,NA,NA,NA,NA,NA,NA,NA,NA,NA,NA
"371","stim/objects/HouseObjects/pitcher.png",437,50,430,0.9,"stim/63.jpeg",6,3,3,2,"HouseObjects",1,3,"left","left",0.405999899,1,1,1,0,NA,NA,NA,NA,NA,NA,NA,NA,NA,NA,NA,NA,NA,NA,NA,NA,NA,NA,NA,NA,NA,NA,NA,NA
"282","stim/objects/HouseObjects/iron2.png",438,50,431,0.7,"stim/43.jpeg",4,3,2,1,"HouseObjects",1,2,"left","left",0.595999956,1,1,1,0,124,50,1,0.7,1,"stim/43.jpeg",4,3,"stim/43.jpeg",2,"right",0.84800005,2,2,0.803999901,3,1.477999926,124,0,0,NA,0,NA,0
"492","stim/objects/Instruments/musicsheet.png",439,50,432,0.9,"stim/52.jpeg",5,2,3,2,"Instruments",2,2,"right","right",0.522000074,1,1,1,0,NA,NA,NA,NA,NA,NA,NA,NA,NA,NA,NA,NA,NA,NA,NA,NA,NA,NA,NA,NA,NA,NA,NA,NA
"256","stim/objects/HouseObjects/flyswatter.png",440,50,433,0.5,"stim/24.jpeg",2,4,1,2,"HouseObjects",1,2,"left","right",0.404000044,0,0,1,0,NA,NA,NA,NA,NA,NA,NA,NA,NA,NA,NA,NA,NA,NA,NA,NA,NA,NA,NA,NA,NA,NA,NA,NA
"535","stim/objects/Instruments/oboe.png",441,50,434,0.9,"stim/54.jpeg",5,4,3,2,"Instruments",2,2,"right","right",0.460999966,1,1,1,0,NA,NA,NA,NA,NA,NA,NA,NA,NA,NA,NA,NA,NA,NA,NA,NA,NA,NA,NA,NA,NA,NA,NA,NA
"318","stim/objects/HouseObjects/lintroller.png",442,50,435,0.9,"stim/64.jpeg",6,4,3,2,"HouseObjects",1,4,"left","left",0.549999952,1,1,1,0,NA,NA,NA,NA,NA,NA,NA,NA,NA,NA,NA,NA,NA,NA,NA,NA,NA,NA,NA,NA,NA,NA,NA,NA
"247","stim/objects/HouseObjects/dishsoap.png",443,50,436,0.5,"stim/13.jpeg",1,3,1,2,"HouseObjects",1,4,"left","right",0.488000154,0,0,1,0,NA,NA,NA,NA,NA,NA,NA,NA,NA,NA,NA,NA,NA,NA,NA,NA,NA,NA,NA,NA,NA,NA,NA,NA
"469","stim/objects/Instruments/marimba.png",444,50,437,0.9,"stim/52.jpeg",5,2,3,2,"Instruments",2,3,"right","left",0.486000061,0,0,1,0,NA,NA,NA,NA,NA,NA,NA,NA,NA,NA,NA,NA,NA,NA,NA,NA,NA,NA,NA,NA,NA,NA,NA,NA
"493","stim/objects/Instruments/musicsheet.png",445,50,438,0.9,"stim/51.jpeg",5,1,3,2,"Instruments",2,2,"right","right",0.406000137,1,1,1,0,NA,NA,NA,NA,NA,NA,NA,NA,NA,NA,NA,NA,NA,NA,NA,NA,NA,NA,NA,NA,NA,NA,NA,NA
"536","stim/objects/Instruments/oboe.png",446,50,439,0.9,"stim/52.jpeg",5,2,3,2,"Instruments",2,2,"right","right",0.493999958,1,1,1,0,NA,NA,NA,NA,NA,NA,NA,NA,NA,NA,NA,NA,NA,NA,NA,NA,NA,NA,NA,NA,NA,NA,NA,NA
"485","stim/objects/Instruments/metronome.png",447,50,440,0.9,"stim/53.jpeg",5,3,3,2,"Instruments",2,2,"right","right",0.544000149,1,1,1,0,NA,NA,NA,NA,NA,NA,NA,NA,NA,NA,NA,NA,NA,NA,NA,NA,NA,NA,NA,NA,NA,NA,NA,NA
"521","stim/objects/Instruments/musicstand.png",448,50,441,0.9,"stim/54.jpeg",5,4,3,2,"Instruments",2,3,"right","left",0.555999994,0,0,1,0,NA,NA,NA,NA,NA,NA,NA,NA,NA,NA,NA,NA,NA,NA,NA,NA,NA,NA,NA,NA,NA,NA,NA,NA
"255","stim/objects/HouseObjects/dustpan2.png",449,50,442,0.3,"stim/32.jpeg",3,2,2,1,"HouseObjects",1,3,"left","left",0.594000101,1,1,1,0,27,50,1,0.3,1,"stim/32.jpeg",3,2,"stim/32.jpeg",3,"left",1.18599987,3,3,4.275000095,1,1.991999865,27,1,0,0,0,0,0
"533","stim/objects/Instruments/oboe.png",450,50,443,0.9,"stim/53.jpeg",5,3,3,2,"Instruments",2,2,"right","right",0.769000053,1,1,1,0,NA,NA,NA,NA,NA,NA,NA,NA,NA,NA,NA,NA,NA,NA,NA,NA,NA,NA,NA,NA,NA,NA,NA,NA
"398","stim/objects/HouseObjects/thread.png",451,50,444,0.3,"stim/32.jpeg",3,2,2,1,"HouseObjects",1,1,"left","right",0.512000084,0,0,1,0,196,50,1,0.3,1,"stim/32.jpeg",3,2,"stim/32.jpeg",1,"left",0.744999886,4,4,1.917999983,3,1.774000168,196,1,0,0,0,0,0
"407","stim/objects/Instruments/drums.png",452,50,445,0.5,"stim/11.jpeg",1,1,1,2,"Instruments",2,3,"right","right",0.703000069,1,1,1,0,NA,NA,NA,NA,NA,NA,NA,NA,NA,NA,NA,NA,NA,NA,NA,NA,NA,NA,NA,NA,NA,NA,NA,NA
"349","stim/objects/HouseObjects/pan.png",453,50,446,0.9,"stim/63.jpeg",6,3,3,2,"HouseObjects",1,1,"left","left",0.729000092,1,1,1,0,NA,NA,NA,NA,NA,NA,NA,NA,NA,NA,NA,NA,NA,NA,NA,NA,NA,NA,NA,NA,NA,NA,NA,NA
"323","stim/objects/HouseObjects/lintroller.png",454,50,447,0.9,"stim/61.jpeg",6,1,3,2,"HouseObjects",1,4,"left","left",0.502000093,1,1,1,0,NA,NA,NA,NA,NA,NA,NA,NA,NA,NA,NA,NA,NA,NA,NA,NA,NA,NA,NA,NA,NA,NA,NA,NA
"520","stim/objects/Instruments/musicstand.png",455,50,448,0.9,"stim/53.jpeg",5,3,3,2,"Instruments",2,3,"right","right",0.457000017,1,1,1,0,NA,NA,NA,NA,NA,NA,NA,NA,NA,NA,NA,NA,NA,NA,NA,NA,NA,NA,NA,NA,NA,NA,NA,NA
"388","stim/objects/HouseObjects/scale.png",456,50,449,0.5,"stim/22.jpeg",2,2,1,1,"HouseObjects",1,2,"left","left",0.578999996,1,1,1,0,39,50,1,0.5,2,"stim/22.jpeg",2,2,"stim/22.jpeg",2,"left",1.160000086,4,1,3.308000088,3,3.888999939,39,1,0,0,0,0,0
"453","stim/objects/Instruments/maraca.png",457,50,450,0.7,"stim/34.jpeg",3,4,2,2,"Instruments",2,2,"right","right",0.468999863,1,1,1,0,NA,NA,NA,NA,NA,NA,NA,NA,NA,NA,NA,NA,NA,NA,NA,NA,NA,NA,NA,NA,NA,NA,NA,NA
"565","stim/objects/Instruments/violin.png",458,50,451,0.7,"stim/34.jpeg",3,4,2,1,"Instruments",2,4,"right","right",0.491000175,1,1,1,0,6,50,1,0.7,2,"stim/34.jpeg",3,4,"stim/34.jpeg",4,"left",1.909999847,4,1,6.933000088,4,4.940999985,6,1,0,0,1,1,0
"333","stim/objects/HouseObjects/match.png",459,50,452,0.9,"stim/64.jpeg",6,4,3,2,"HouseObjects",1,1,"left","left",0.427000046,1,1,1,0,NA,NA,NA,NA,NA,NA,NA,NA,NA,NA,NA,NA,NA,NA,NA,NA,NA,NA,NA,NA,NA,NA,NA,NA
"519","stim/objects/Instruments/musicstand.png",460,50,453,0.9,"stim/52.jpeg",5,2,3,2,"Instruments",2,2,"right","right",0.54700017,1,1,1,0,NA,NA,NA,NA,NA,NA,NA,NA,NA,NA,NA,NA,NA,NA,NA,NA,NA,NA,NA,NA,NA,NA,NA,NA
"403","stim/objects/HouseObjects/vacuumcleaner2.png",461,50,454,0.9,"stim/61.jpeg",6,1,3,1,"HouseObjects",1,1,"left","left",0.580000162,1,1,1,0,130,50,1,0.9,1,"stim/61.jpeg",6,1,"stim/61.jpeg",1,"left",1.31400013,4,4,3.741999865,3,2.349000216,130,1,0,0,0,0,0
"486","stim/objects/Instruments/metronome.png",462,50,455,0.9,"stim/52.jpeg",5,2,3,2,"Instruments",2,4,"right","right",0.459000111,1,1,1,0,NA,NA,NA,NA,NA,NA,NA,NA,NA,NA,NA,NA,NA,NA,NA,NA,NA,NA,NA,NA,NA,NA,NA,NA
"537","stim/objects/Instruments/oboe.png",463,50,456,0.9,"stim/51.jpeg",5,1,3,2,"Instruments",2,1,"right","right",0.572000027,1,1,1,0,NA,NA,NA,NA,NA,NA,NA,NA,NA,NA,NA,NA,NA,NA,NA,NA,NA,NA,NA,NA,NA,NA,NA,NA
"350","stim/objects/HouseObjects/pan.png",464,50,457,0.9,"stim/62.jpeg",6,2,3,2,"HouseObjects",1,2,"left","left",0.549000025,1,1,1,0,NA,NA,NA,NA,NA,NA,NA,NA,NA,NA,NA,NA,NA,NA,NA,NA,NA,NA,NA,NA,NA,NA,NA,NA
"373","stim/objects/HouseObjects/pitcher.png",465,50,458,0.9,"stim/62.jpeg",6,2,3,2,"HouseObjects",1,1,"left","left",0.455999851,1,1,1,0,NA,NA,NA,NA,NA,NA,NA,NA,NA,NA,NA,NA,NA,NA,NA,NA,NA,NA,NA,NA,NA,NA,NA,NA
"354","stim/objects/HouseObjects/pan.png",466,50,459,0.9,"stim/64.jpeg",6,4,3,2,"HouseObjects",1,1,"left","left",0.526000023,1,1,1,0,NA,NA,NA,NA,NA,NA,NA,NA,NA,NA,NA,NA,NA,NA,NA,NA,NA,NA,NA,NA,NA,NA,NA,NA
"502","stim/objects/Instruments/musicsheet.png",467,50,460,0.9,"stim/51.jpeg",5,1,3,2,"Instruments",2,4,"right","right",0.644999981,1,1,1,0,NA,NA,NA,NA,NA,NA,NA,NA,NA,NA,NA,NA,NA,NA,NA,NA,NA,NA,NA,NA,NA,NA,NA,NA
