"","participant","trial_index","trial_cond","scn_file","scn_cat","scn_inst","scn_condition","fillers","obj_cat","obj_cat_num","obj_file","quadrant","corr_ans","key_resp_trial.keys","key_resp_trial.rt","trial_acc","trial_acc_manual","group"
"1",50,1,0.9,"stim/63.jpeg",6,3,3,NA,"HouseObjects",1,"stim/objects/HouseObjects/clothesdryingrack2.png",3,"left","",NA,0,0,0
"2",50,2,0.5,"stim/21.jpeg",2,1,1,NA,"Instruments",2,"stim/objects/Instruments/bassdrum.png",2,"right","left",0.775000095,0,0,0
"3",50,3,0.5,"stim/21.jpeg",2,1,1,NA,"HouseObjects",1,"stim/objects/HouseObjects/bleachbottle.png",4,"left","left",0.861000061,1,1,0
"4",50,4,0.7,"stim/42.jpeg",4,2,2,NA,"HouseObjects",1,"stim/objects/HouseObjects/ballofstring2.png",3,"left","",NA,0,0,0
"5",50,5,0.5,"stim/22.jpeg",2,2,1,NA,"HouseObjects",1,"stim/objects/HouseObjects/blender.png",2,"left","left",0.757999897,1,1,0
"6",50,6,0.9,"stim/52.jpeg",5,2,3,NA,"Instruments",2,"stim/objects/Instruments/bassguitar2.png",3,"right","left",0.76699996,0,0,0
"7",50,7,0.9,"stim/61.jpeg",6,1,3,NA,"HouseObjects",1,"stim/objects/HouseObjects/bucket2.png",3,"left","left",0.607999802,1,1,0
"8",50,8,0.5,"stim/13.jpeg",1,3,1,NA,"HouseObjects",1,"stim/objects/HouseObjects/barbecuelighter.png",1,"left","right",0.701999903,0,0,0
"9",50,9,0.7,"stim/43.jpeg",4,3,2,NA,"HouseObjects",1,"stim/objects/HouseObjects/barbecuelighter2.png",2,"left","left",0.735000134,1,1,0
"10",50,10,0.7,"stim/32.jpeg",3,2,2,NA,"Instruments",2,"stim/objects/Instruments/cornet.png",2,"right","left",0.593999863,0,0,0
"11",50,11,0.9,"stim/53.jpeg",5,3,3,NA,"Instruments",2,"stim/objects/Instruments/cello2.png",2,"right","right",0.538000107,1,1,0
"12",50,12,0.5,"stim/12.jpeg",1,2,1,NA,"Instruments",2,"stim/objects/Instruments/acousticguitar.png",2,"right","left",0.552999973,0,0,0
"13",50,13,0.9,"stim/62.jpeg",6,2,3,NA,"HouseObjects",1,"stim/objects/HouseObjects/clock2.png",3,"left","left",0.481000185,1,1,0
"14",50,14,0.9,"stim/52.jpeg",5,2,3,NA,"Instruments",2,"stim/objects/Instruments/bassguitar2.png",1,"right","left",0.684999943,0,0,0
"15",50,15,0.9,"stim/54.jpeg",5,4,3,NA,"Instruments",2,"stim/objects/Instruments/chime2.png",2,"right","right",0.774999857,1,1,0
"16",50,16,0.5,"stim/24.jpeg",2,4,1,NA,"Instruments",2,"stim/objects/Instruments/chime.png",1,"right","left",0.838000059,0,0,0
"17",50,17,0.7,"stim/33.jpeg",3,3,2,NA,"Instruments",2,"stim/objects/Instruments/cymbal.png",1,"right","left",0.661000013,0,0,0
"18",50,18,0.1,"stim/52.jpeg",5,2,3,NA,"HouseObjects",1,"stim/objects/HouseObjects/blender2.png",3,"left","",NA,0,0,0
"19",50,19,0.5,"stim/14.jpeg",1,4,1,NA,"HouseObjects",1,"stim/objects/HouseObjects/basket.png",4,"left","left",0.671999931,1,1,0
"20",50,20,0.7,"stim/31.jpeg",3,1,2,NA,"Instruments",2,"stim/objects/Instruments/clarinet.png",3,"right","left",0.76699996,0,0,0
"21",50,21,0.5,"stim/22.jpeg",2,2,1,NA,"HouseObjects",1,"stim/objects/HouseObjects/blender.png",4,"left","right",0.625999928,0,0,0
"22",50,22,0.9,"stim/62.jpeg",6,2,3,NA,"HouseObjects",1,"stim/objects/HouseObjects/clock2.png",1,"left","left",0.649999857,1,1,0
"23",50,23,0.3,"stim/34.jpeg",3,4,2,NA,"HouseObjects",1,"stim/objects/HouseObjects/clothespin.png",4,"left","",NA,0,0,0
"24",50,24,0.5,"stim/11.jpeg",1,1,1,NA,"HouseObjects",1,"stim/objects/HouseObjects/ashtray.png",2,"left","right",0.638000011,0,0,0
"25",50,25,0.9,"stim/51.jpeg",5,1,3,NA,"Instruments",2,"stim/objects/Instruments/bassdrum2.png",1,"right","right",0.868999958,1,1,0
"26",50,26,0.9,"stim/63.jpeg",6,3,3,NA,"HouseObjects",1,"stim/objects/HouseObjects/clothesdryingrack2.png",2,"left","left",0.552999973,1,1,0
"27",50,27,0.5,"stim/22.jpeg",2,2,1,NA,"Instruments",2,"stim/objects/Instruments/bassguitar.png",1,"right","right",0.836999893,1,1,0
"28",50,28,0.9,"stim/63.jpeg",6,3,3,NA,"HouseObjects",1,"stim/objects/HouseObjects/clothesdryingrack2.png",4,"left","left",0.559999943,1,1,0
"29",50,29,0.5,"stim/24.jpeg",2,4,1,NA,"HouseObjects",1,"stim/objects/HouseObjects/broom.png",2,"left","right",0.638999939,0,0,0
"30",50,30,0.5,"stim/11.jpeg",1,1,1,NA,"Instruments",2,"stim/objects/Instruments/accordion.png",3,"right","right",0.695999861,1,1,0
"31",50,31,0.9,"stim/63.jpeg",6,3,3,NA,"HouseObjects",1,"stim/objects/HouseObjects/clothesdryingrack2.png",1,"left","left",0.529999971,1,1,0
"32",50,32,0.5,"stim/11.jpeg",1,1,1,NA,"Instruments",2,"stim/objects/Instruments/accordion.png",3,"right","right",0.729000092,1,1,0
"33",50,33,0.9,"stim/63.jpeg",6,3,3,NA,"HouseObjects",1,"stim/objects/HouseObjects/clothesdryingrack2.png",4,"left","left",0.585000038,1,1,0
"34",50,34,0.7,"stim/32.jpeg",3,2,2,NA,"Instruments",2,"stim/objects/Instruments/cornet.png",1,"right","right",0.755000114,1,1,0
"35",50,35,0.5,"stim/14.jpeg",1,4,1,NA,"Instruments",2,"stim/objects/Instruments/banjo.png",2,"right","right",0.899999857,1,1,0
"36",50,36,0.3,"stim/31.jpeg",3,1,2,NA,"HouseObjects",1,"stim/objects/HouseObjects/bucket.png",1,"left","left",0.868000031,1,1,0
"37",50,37,0.1,"stim/53.jpeg",5,3,3,NA,"HouseObjects",1,"stim/objects/HouseObjects/bottle2.png",2,"left","right",0.840999842,0,0,0
"38",50,38,0.7,"stim/42.jpeg",4,2,2,NA,"HouseObjects",1,"stim/objects/HouseObjects/ballofstring2.png",4,"left","left",0.700000048,1,1,0
"39",50,39,0.3,"stim/42.jpeg",4,2,2,NA,"Instruments",2,"stim/objects/Instruments/acousticguitar2.png",4,"right","left",0.792999983,0,0,0
"40",50,40,0.5,"stim/11.jpeg",1,1,1,NA,"HouseObjects",1,"stim/objects/HouseObjects/ashtray.png",2,"left","right",0.775000095,0,0,0
"41",50,41,0.5,"stim/12.jpeg",1,2,1,NA,"Instruments",2,"stim/objects/Instruments/acousticguitar.png",3,"right","right",0.710000038,1,1,0
"42",50,42,0.3,"stim/44.jpeg",4,4,2,NA,"Instruments",2,"stim/objects/Instruments/banjo2.png",4,"right","left",0.812000036,0,0,0
"43",50,43,0.9,"stim/62.jpeg",6,2,3,NA,"HouseObjects",1,"stim/objects/HouseObjects/clock2.png",2,"left","left",0.611999989,1,1,0
"44",50,44,0.5,"stim/21.jpeg",2,1,1,NA,"HouseObjects",1,"stim/objects/HouseObjects/bleachbottle.png",1,"left","right",0.652000189,0,0,0
"45",50,45,0.5,"stim/12.jpeg",1,2,1,NA,"HouseObjects",1,"stim/objects/HouseObjects/ballofstring.png",1,"left","right",0.688999891,0,0,0
"46",50,46,0.3,"stim/43.jpeg",4,3,2,NA,"Instruments",2,"stim/objects/Instruments/balalaika2.png",3,"right","right",0.654999971,1,1,0
"47",50,47,0.3,"stim/43.jpeg",4,3,2,NA,"Instruments",2,"stim/objects/Instruments/balalaika2.png",2,"right","left",0.763999939,0,0,0
"48",50,48,0.5,"stim/13.jpeg",1,3,1,NA,"HouseObjects",1,"stim/objects/HouseObjects/barbecuelighter.png",3,"left","left",0.548000097,1,1,0
"49",50,49,0.5,"stim/12.jpeg",1,2,1,NA,"HouseObjects",1,"stim/objects/HouseObjects/ballofstring.png",3,"left","right",0.703000069,0,0,0
"50",50,50,0.5,"stim/14.jpeg",1,4,1,NA,"HouseObjects",1,"stim/objects/HouseObjects/basket.png",3,"left","left",0.917999983,1,1,0
"51",50,51,0.5,"stim/24.jpeg",2,4,1,NA,"Instruments",2,"stim/objects/Instruments/chime.png",1,"right","",NA,0,0,0
"52",50,52,0.5,"stim/13.jpeg",1,3,1,NA,"Instruments",2,"stim/objects/Instruments/balalaika.png",3,"right","right",0.871999979,1,1,0
"53",50,53,0.3,"stim/33.jpeg",3,3,2,NA,"HouseObjects",1,"stim/objects/HouseObjects/clothesdryingrack.png",4,"left","right",0.898000002,0,0,0
"54",50,54,0.5,"stim/24.jpeg",2,4,1,NA,"Instruments",2,"stim/objects/Instruments/chime.png",1,"right","",NA,0,0,0
"55",50,55,0.9,"stim/61.jpeg",6,1,3,NA,"HouseObjects",1,"stim/objects/HouseObjects/bucket2.png",4,"left","left",0.541000128,1,1,0
"56",50,56,0.5,"stim/13.jpeg",1,3,1,NA,"Instruments",2,"stim/objects/Instruments/balalaika.png",4,"right","right",0.626999855,1,1,0
"57",50,57,0.5,"stim/23.jpeg",2,3,1,NA,"Instruments",2,"stim/objects/Instruments/cello.png",4,"right","left",0.739000082,0,0,0
"58",50,58,0.5,"stim/13.jpeg",1,3,1,NA,"Instruments",2,"stim/objects/Instruments/balalaika.png",2,"right","left",0.771000147,0,0,0
"59",50,59,0.7,"stim/31.jpeg",3,1,2,NA,"Instruments",2,"stim/objects/Instruments/clarinet.png",4,"right","right",0.694000006,1,1,0
"60",50,60,0.5,"stim/23.jpeg",2,3,1,NA,"Instruments",2,"stim/objects/Instruments/cello.png",2,"right","",NA,0,0,0
"61",50,61,0.9,"stim/54.jpeg",5,4,3,NA,"Instruments",2,"stim/objects/Instruments/chime2.png",3,"right","right",0.713999987,1,1,0
"62",50,62,0.9,"stim/54.jpeg",5,4,3,NA,"Instruments",2,"stim/objects/Instruments/chime2.png",4,"right","right",0.693000078,1,1,0
"63",50,63,0.7,"stim/42.jpeg",4,2,2,NA,"HouseObjects",1,"stim/objects/HouseObjects/ballofstring2.png",2,"left","left",0.715000153,1,1,0
"64",50,64,0.9,"stim/64.jpeg",6,4,3,NA,"HouseObjects",1,"stim/objects/HouseObjects/clothespin2.png",1,"left","left",0.628999949,1,1,0
"65",50,65,0.7,"stim/42.jpeg",4,2,2,NA,"HouseObjects",1,"stim/objects/HouseObjects/ballofstring2.png",3,"left","left",0.822999954,1,1,0
"66",50,66,0.7,"stim/34.jpeg",3,4,2,NA,"Instruments",2,"stim/objects/Instruments/doublebass.png",1,"right","right",0.576999903,1,1,0
"67",50,67,0.9,"stim/51.jpeg",5,1,3,NA,"Instruments",2,"stim/objects/Instruments/bassdrum2.png",3,"right","left",0.659000158,0,0,0
"68",50,68,0.7,"stim/41.jpeg",4,1,2,NA,"HouseObjects",1,"stim/objects/HouseObjects/ashtray2.png",2,"left","",NA,0,0,0
"69",50,69,0.9,"stim/52.jpeg",5,2,3,NA,"Instruments",2,"stim/objects/Instruments/bassguitar2.png",3,"right","left",0.842999935,0,0,0
"70",50,70,0.7,"stim/43.jpeg",4,3,2,NA,"HouseObjects",1,"stim/objects/HouseObjects/barbecuelighter2.png",4,"left","left",0.693000078,1,1,0
"71",50,71,0.3,"stim/41.jpeg",4,1,2,NA,"Instruments",2,"stim/objects/Instruments/accordion2.png",3,"right","left",0.885999918,0,0,0
"72",50,72,0.9,"stim/51.jpeg",5,1,3,NA,"Instruments",2,"stim/objects/Instruments/bassdrum2.png",2,"right","",NA,0,0,0
"73",50,73,0.7,"stim/32.jpeg",3,2,2,NA,"Instruments",2,"stim/objects/Instruments/cornet.png",2,"right","right",0.679999828,1,1,0
"74",50,74,0.5,"stim/22.jpeg",2,2,1,NA,"Instruments",2,"stim/objects/Instruments/bassguitar.png",1,"right","right",0.733999968,1,1,0
"75",50,75,0.9,"stim/53.jpeg",5,3,3,NA,"Instruments",2,"stim/objects/Instruments/cello2.png",3,"right","left",0.559000015,0,0,0
"76",50,76,0.7,"stim/44.jpeg",4,4,2,NA,"HouseObjects",1,"stim/objects/HouseObjects/basket2.png",1,"left","left",0.874000072,1,1,0
"77",50,77,0.7,"stim/32.jpeg",3,2,2,NA,"Instruments",2,"stim/objects/Instruments/cornet.png",4,"right","right",0.617000103,1,1,0
"78",50,78,0.9,"stim/61.jpeg",6,1,3,NA,"HouseObjects",1,"stim/objects/HouseObjects/bucket2.png",2,"left","left",0.571000099,1,1,0
"79",50,79,0.7,"stim/34.jpeg",3,4,2,NA,"Instruments",2,"stim/objects/Instruments/doublebass.png",3,"right","left",0.698999882,0,0,0
"80",50,80,0.7,"stim/34.jpeg",3,4,2,NA,"Instruments",2,"stim/objects/Instruments/doublebass.png",4,"right","right",0.442000151,1,1,0
"81",50,81,0.9,"stim/64.jpeg",6,4,3,NA,"HouseObjects",1,"stim/objects/HouseObjects/clothespin2.png",1,"left","left",0.458999872,1,1,0
"82",50,82,0.7,"stim/43.jpeg",4,3,2,NA,"HouseObjects",1,"stim/objects/HouseObjects/barbecuelighter2.png",4,"left","right",0.430999994,0,0,0
"83",50,83,0.5,"stim/21.jpeg",2,1,1,NA,"Instruments",2,"stim/objects/Instruments/bassdrum.png",1,"right","left",0.427999973,0,0,0
"84",50,84,0.3,"stim/44.jpeg",4,4,2,NA,"Instruments",2,"stim/objects/Instruments/banjo2.png",1,"right","right",0.379000187,1,1,0
"85",50,85,0.5,"stim/22.jpeg",2,2,1,NA,"HouseObjects",1,"stim/objects/HouseObjects/blender.png",3,"left","left",0.671000004,1,1,0
"86",50,86,0.5,"stim/11.jpeg",1,1,1,NA,"Instruments",2,"stim/objects/Instruments/accordion.png",4,"right","right",0.906999826,1,1,0
"87",50,87,0.7,"stim/31.jpeg",3,1,2,NA,"Instruments",2,"stim/objects/Instruments/clarinet.png",1,"right","left",0.730000019,0,0,0
"88",50,88,0.9,"stim/54.jpeg",5,4,3,NA,"Instruments",2,"stim/objects/Instruments/chime2.png",2,"right","left",0.79399991,0,0,0
"89",50,89,0.5,"stim/14.jpeg",1,4,1,NA,"HouseObjects",1,"stim/objects/HouseObjects/basket.png",3,"left","right",0.818000078,0,0,0
"90",50,90,0.9,"stim/51.jpeg",5,1,3,NA,"Instruments",2,"stim/objects/Instruments/bassdrum2.png",1,"right","left",0.680999994,0,0,0
"91",50,91,0.9,"stim/64.jpeg",6,4,3,NA,"HouseObjects",1,"stim/objects/HouseObjects/clothespin2.png",1,"left","left",0.52699995,1,1,0
"92",50,92,0.5,"stim/23.jpeg",2,3,1,NA,"HouseObjects",1,"stim/objects/HouseObjects/bottle.png",3,"left","right",0.839999914,0,0,0
"93",50,93,0.5,"stim/12.jpeg",1,2,1,NA,"Instruments",2,"stim/objects/Instruments/acousticguitar.png",3,"right","left",0.725000143,0,0,0
"94",50,94,0.9,"stim/53.jpeg",5,3,3,NA,"Instruments",2,"stim/objects/Instruments/cello2.png",2,"right","right",0.819000006,1,1,0
"95",50,95,0.9,"stim/63.jpeg",6,3,3,NA,"HouseObjects",1,"stim/objects/HouseObjects/clothesdryingrack2.png",2,"left","left",0.536999941,1,1,0
"96",50,96,0.7,"stim/43.jpeg",4,3,2,NA,"HouseObjects",1,"stim/objects/HouseObjects/barbecuelighter2.png",4,"left","",NA,0,0,0
"97",50,97,0.7,"stim/43.jpeg",4,3,2,NA,"HouseObjects",1,"stim/objects/HouseObjects/barbecuelighter2.png",2,"left","left",0.858999968,1,1,0
"98",50,98,0.9,"stim/52.jpeg",5,2,3,NA,"Instruments",2,"stim/objects/Instruments/bassguitar2.png",4,"right","right",0.775000095,1,1,0
"99",50,99,0.9,"stim/52.jpeg",5,2,3,NA,"Instruments",2,"stim/objects/Instruments/bassguitar2.png",1,"right","right",0.730000019,1,1,0
"100",50,100,0.3,"stim/44.jpeg",4,4,2,NA,"Instruments",2,"stim/objects/Instruments/banjo2.png",3,"right","",NA,0,0,0
"101",50,101,0.5,"stim/12.jpeg",1,2,1,NA,"HouseObjects",1,"stim/objects/HouseObjects/ballofstring.png",2,"left","left",0.675000191,1,1,0
"102",50,102,0.9,"stim/53.jpeg",5,3,3,NA,"Instruments",2,"stim/objects/Instruments/cello2.png",2,"right","right",0.65899992,1,1,0
"103",50,103,0.9,"stim/62.jpeg",6,2,3,NA,"HouseObjects",1,"stim/objects/HouseObjects/clock2.png",4,"left","left",0.536000013,1,1,0
"104",50,104,0.7,"stim/34.jpeg",3,4,2,NA,"Instruments",2,"stim/objects/Instruments/doublebass.png",4,"right","right",0.576999903,1,1,0
"105",50,105,0.9,"stim/53.jpeg",5,3,3,NA,"Instruments",2,"stim/objects/Instruments/cello2.png",2,"right","",NA,0,0,0
"106",50,106,0.5,"stim/13.jpeg",1,3,1,NA,"Instruments",2,"stim/objects/Instruments/balalaika.png",2,"right","right",0.726000071,1,1,0
"107",50,107,0.7,"stim/44.jpeg",4,4,2,NA,"HouseObjects",1,"stim/objects/HouseObjects/basket2.png",1,"left","right",0.878000021,0,0,0
"108",50,108,0.7,"stim/32.jpeg",3,2,2,NA,"Instruments",2,"stim/objects/Instruments/cornet.png",3,"right","right",0.691999912,1,1,0
"109",50,109,0.9,"stim/62.jpeg",6,2,3,NA,"HouseObjects",1,"stim/objects/HouseObjects/clock2.png",4,"left","left",0.601999998,1,1,0
"110",50,110,0.5,"stim/21.jpeg",2,1,1,NA,"HouseObjects",1,"stim/objects/HouseObjects/bleachbottle.png",3,"left","right",0.909000158,0,0,0
"111",50,111,0.7,"stim/41.jpeg",4,1,2,NA,"HouseObjects",1,"stim/objects/HouseObjects/ashtray2.png",2,"left","right",0.907999992,0,0,0
"112",50,112,0.7,"stim/32.jpeg",3,2,2,NA,"Instruments",2,"stim/objects/Instruments/cornet.png",1,"right","right",0.609999895,1,1,0
"113",50,113,0.9,"stim/52.jpeg",5,2,3,NA,"Instruments",2,"stim/objects/Instruments/bassguitar2.png",3,"right","left",0.609999895,0,0,0
"114",50,114,0.7,"stim/42.jpeg",4,2,2,NA,"HouseObjects",1,"stim/objects/HouseObjects/ballofstring2.png",2,"left","left",0.659999847,1,1,0
"115",50,115,0.7,"stim/44.jpeg",4,4,2,NA,"HouseObjects",1,"stim/objects/HouseObjects/basket2.png",3,"left","left",0.876999855,1,1,0
"116",50,116,0.5,"stim/12.jpeg",1,2,1,NA,"Instruments",2,"stim/objects/Instruments/acousticguitar.png",4,"right","",NA,0,0,0
"117",50,117,0.9,"stim/54.jpeg",5,4,3,NA,"Instruments",2,"stim/objects/Instruments/chime2.png",4,"right","right",0.730999947,1,1,0
"118",50,118,0.7,"stim/41.jpeg",4,1,2,NA,"HouseObjects",1,"stim/objects/HouseObjects/ashtray2.png",4,"left","left",0.881999969,1,1,0
"119",50,119,0.7,"stim/42.jpeg",4,2,2,NA,"HouseObjects",1,"stim/objects/HouseObjects/ballofstring2.png",4,"left","left",0.828999996,1,1,0
"120",50,120,0.9,"stim/54.jpeg",5,4,3,NA,"Instruments",2,"stim/objects/Instruments/chime2.png",3,"right","right",0.711999893,1,1,0
"121",50,121,0.5,"stim/23.jpeg",2,3,1,NA,"HouseObjects",1,"stim/objects/HouseObjects/bottle.png",1,"left","left",0.828999996,1,1,0
"122",50,122,0.9,"stim/51.jpeg",5,1,3,NA,"Instruments",2,"stim/objects/Instruments/bassdrum2.png",3,"right","right",0.77699995,1,1,0
"123",50,123,0.7,"stim/44.jpeg",4,4,2,NA,"HouseObjects",1,"stim/objects/HouseObjects/basket2.png",4,"left","right",0.694999933,0,0,0
"124",50,124,0.5,"stim/21.jpeg",2,1,1,NA,"Instruments",2,"stim/objects/Instruments/bassdrum.png",1,"right","left",0.786000013,0,0,0
"125",50,125,0.5,"stim/23.jpeg",2,3,1,NA,"Instruments",2,"stim/objects/Instruments/cello.png",4,"right","left",0.643000126,0,0,0
"126",50,126,0.5,"stim/12.jpeg",1,2,1,NA,"HouseObjects",1,"stim/objects/HouseObjects/ballofstring.png",4,"left","left",0.842000008,1,1,0
"127",50,127,0.9,"stim/54.jpeg",5,4,3,NA,"Instruments",2,"stim/objects/Instruments/chime2.png",1,"right","right",0.704999924,1,1,0
"128",50,128,0.5,"stim/23.jpeg",2,3,1,NA,"HouseObjects",1,"stim/objects/HouseObjects/bottle.png",1,"left","left",0.679999828,1,1,0
"129",50,129,0.3,"stim/34.jpeg",3,4,2,NA,"HouseObjects",1,"stim/objects/HouseObjects/clothespin.png",1,"left","right",0.611999989,0,0,0
"130",50,130,0.3,"stim/32.jpeg",3,2,2,NA,"HouseObjects",1,"stim/objects/HouseObjects/clock.png",2,"left","left",0.779000044,1,1,0
"131",50,131,0.7,"stim/33.jpeg",3,3,2,NA,"Instruments",2,"stim/objects/Instruments/cymbal.png",1,"right","left",0.851000071,0,0,0
"132",50,132,0.9,"stim/63.jpeg",6,3,3,NA,"HouseObjects",1,"stim/objects/HouseObjects/clothesdryingrack2.png",4,"left","left",0.756000042,1,1,0
"133",50,133,0.5,"stim/13.jpeg",1,3,1,NA,"HouseObjects",1,"stim/objects/HouseObjects/barbecuelighter.png",1,"left","right",0.748999834,0,0,0
"134",50,134,0.9,"stim/64.jpeg",6,4,3,NA,"HouseObjects",1,"stim/objects/HouseObjects/clothespin2.png",4,"left","left",0.680000067,1,1,0
"135",50,135,0.7,"stim/44.jpeg",4,4,2,NA,"HouseObjects",1,"stim/objects/HouseObjects/basket2.png",3,"left","left",0.710999966,1,1,0
"136",50,136,0.5,"stim/13.jpeg",1,3,1,NA,"HouseObjects",1,"stim/objects/HouseObjects/barbecuelighter.png",3,"left","right",0.717999935,0,0,0
"137",50,137,0.5,"stim/13.jpeg",1,3,1,NA,"HouseObjects",1,"stim/objects/HouseObjects/barbecuelighter.png",4,"left","left",0.595000029,1,1,0
"138",50,138,0.5,"stim/24.jpeg",2,4,1,NA,"Instruments",2,"stim/objects/Instruments/chime.png",3,"right","right",0.914999962,1,1,0
"139",50,139,0.7,"stim/31.jpeg",3,1,2,NA,"Instruments",2,"stim/objects/Instruments/clarinet.png",1,"right","left",0.613000154,0,0,0
"140",50,140,0.7,"stim/43.jpeg",4,3,2,NA,"HouseObjects",1,"stim/objects/HouseObjects/barbecuelighter2.png",1,"left","left",0.615999937,1,1,0
"141",50,141,0.7,"stim/33.jpeg",3,3,2,NA,"Instruments",2,"stim/objects/Instruments/cymbal.png",2,"right","right",0.678999901,1,1,0
"142",50,142,0.9,"stim/61.jpeg",6,1,3,NA,"HouseObjects",1,"stim/objects/HouseObjects/bucket2.png",2,"left","left",0.513000011,1,1,0
"143",50,143,0.3,"stim/32.jpeg",3,2,2,NA,"HouseObjects",1,"stim/objects/HouseObjects/clock.png",4,"left","left",0.65199995,1,1,0
"144",50,144,0.7,"stim/33.jpeg",3,3,2,NA,"Instruments",2,"stim/objects/Instruments/cymbal.png",3,"right","left",0.494000196,0,0,0
"145",50,145,0.9,"stim/53.jpeg",5,3,3,NA,"Instruments",2,"stim/objects/Instruments/cello2.png",4,"right","right",0.713000059,1,1,0
"146",50,146,0.9,"stim/64.jpeg",6,4,3,NA,"HouseObjects",1,"stim/objects/HouseObjects/clothespin2.png",2,"left","left",0.531999826,1,1,0
"147",50,147,0.9,"stim/63.jpeg",6,3,3,NA,"HouseObjects",1,"stim/objects/HouseObjects/clothesdryingrack2.png",2,"left","left",0.444000006,1,1,0
"148",50,148,0.9,"stim/53.jpeg",5,3,3,NA,"Instruments",2,"stim/objects/Instruments/cello2.png",1,"right","right",0.749000072,1,1,0
"149",50,149,0.1,"stim/64.jpeg",6,4,3,NA,"Instruments",2,"stim/objects/Instruments/doublebass2.png",3,"right","left",0.496000051,0,0,0
"150",50,150,0.5,"stim/21.jpeg",2,1,1,NA,"HouseObjects",1,"stim/objects/HouseObjects/bleachbottle.png",1,"left","left",0.546000004,1,1,0
"151",50,151,0.9,"stim/64.jpeg",6,4,3,NA,"HouseObjects",1,"stim/objects/HouseObjects/clothespin2.png",3,"left","left",0.595000029,1,1,0
"152",50,152,0.5,"stim/13.jpeg",1,3,1,NA,"Instruments",2,"stim/objects/Instruments/balalaika.png",4,"right","left",0.801000118,0,0,0
"153",50,153,0.1,"stim/51.jpeg",5,1,3,NA,"HouseObjects",1,"stim/objects/HouseObjects/bleachbottle2.png",1,"left","right",0.757999897,0,0,0
"154",50,154,0.5,"stim/14.jpeg",1,4,1,NA,"HouseObjects",1,"stim/objects/HouseObjects/basket.png",4,"left","right",0.835999966,0,0,0
"155",50,155,0.5,"stim/24.jpeg",2,4,1,NA,"HouseObjects",1,"stim/objects/HouseObjects/broom.png",4,"left","right",0.678999901,0,0,0
"156",50,156,0.9,"stim/51.jpeg",5,1,3,NA,"Instruments",2,"stim/objects/Instruments/bassdrum2.png",4,"right","right",0.693000078,1,1,0
"157",50,157,0.1,"stim/62.jpeg",6,2,3,NA,"Instruments",2,"stim/objects/Instruments/cornet2.png",1,"right","left",0.613000154,0,0,0
"158",50,158,0.5,"stim/22.jpeg",2,2,1,NA,"HouseObjects",1,"stim/objects/HouseObjects/blender.png",3,"left","left",0.774999857,1,1,0
"159",50,159,0.9,"stim/53.jpeg",5,3,3,NA,"Instruments",2,"stim/objects/Instruments/cello2.png",1,"right","right",0.769000053,1,1,0
"160",50,160,0.7,"stim/41.jpeg",4,1,2,NA,"HouseObjects",1,"stim/objects/HouseObjects/ashtray2.png",4,"left","left",0.743000031,1,1,0
"161",50,161,0.5,"stim/21.jpeg",2,1,1,NA,"Instruments",2,"stim/objects/Instruments/bassdrum.png",2,"right","",NA,0,0,0
"162",50,162,0.5,"stim/24.jpeg",2,4,1,NA,"HouseObjects",1,"stim/objects/HouseObjects/broom.png",3,"left","left",0.552000046,1,1,0
"163",50,163,0.9,"stim/61.jpeg",6,1,3,NA,"HouseObjects",1,"stim/objects/HouseObjects/bucket2.png",3,"left","left",0.601000071,1,1,0
"164",50,164,0.7,"stim/43.jpeg",4,3,2,NA,"HouseObjects",1,"stim/objects/HouseObjects/barbecuelighter2.png",2,"left","right",0.776000023,0,0,0
"165",50,165,0.3,"stim/31.jpeg",3,1,2,NA,"HouseObjects",1,"stim/objects/HouseObjects/bucket.png",2,"left","right",0.570000172,0,0,0
"166",50,166,0.9,"stim/54.jpeg",5,4,3,NA,"Instruments",2,"stim/objects/Instruments/chime2.png",2,"right","right",0.763000011,1,1,0
"167",50,167,0.5,"stim/11.jpeg",1,1,1,NA,"HouseObjects",1,"stim/objects/HouseObjects/ashtray.png",4,"left","",NA,0,0,0
"168",50,168,0.7,"stim/32.jpeg",3,2,2,NA,"Instruments",2,"stim/objects/Instruments/cornet.png",1,"right","left",0.578999996,0,0,0
"169",50,169,0.9,"stim/61.jpeg",6,1,3,NA,"HouseObjects",1,"stim/objects/HouseObjects/bucket2.png",1,"left","left",0.512000084,1,1,0
"170",50,170,0.9,"stim/52.jpeg",5,2,3,NA,"Instruments",2,"stim/objects/Instruments/bassguitar2.png",1,"right","right",0.50999999,1,1,0
"171",50,171,0.5,"stim/22.jpeg",2,2,1,NA,"HouseObjects",1,"stim/objects/HouseObjects/blender.png",2,"left","left",0.683000088,1,1,0
"172",50,172,0.7,"stim/34.jpeg",3,4,2,NA,"Instruments",2,"stim/objects/Instruments/doublebass.png",4,"right","left",0.601999998,0,0,0
"173",50,173,0.7,"stim/33.jpeg",3,3,2,NA,"Instruments",2,"stim/objects/Instruments/cymbal.png",2,"right","right",0.45600009,1,1,0
"174",50,174,0.9,"stim/62.jpeg",6,2,3,NA,"HouseObjects",1,"stim/objects/HouseObjects/clock2.png",1,"left","left",0.644000053,1,1,0
"175",50,175,0.9,"stim/63.jpeg",6,3,3,NA,"HouseObjects",1,"stim/objects/HouseObjects/clothesdryingrack2.png",4,"left","left",0.555999994,1,1,0
"176",50,176,0.5,"stim/24.jpeg",2,4,1,NA,"HouseObjects",1,"stim/objects/HouseObjects/broom.png",4,"left","left",0.779000044,1,1,0
"177",50,177,0.9,"stim/64.jpeg",6,4,3,NA,"HouseObjects",1,"stim/objects/HouseObjects/clothespin2.png",3,"left","left",0.551000118,1,1,0
"178",50,178,0.5,"stim/11.jpeg",1,1,1,NA,"HouseObjects",1,"stim/objects/HouseObjects/ashtray.png",2,"left","right",0.617999792,0,0,0
"179",50,179,0.3,"stim/41.jpeg",4,1,2,NA,"Instruments",2,"stim/objects/Instruments/accordion2.png",2,"right","left",0.628000021,0,0,0
"180",50,180,0.5,"stim/11.jpeg",1,1,1,NA,"Instruments",2,"stim/objects/Instruments/accordion.png",2,"right","left",0.68599987,0,0,0
"181",50,181,0.9,"stim/64.jpeg",6,4,3,NA,"HouseObjects",1,"stim/objects/HouseObjects/clothespin2.png",4,"left","left",0.894999981,1,1,0
"182",50,182,0.7,"stim/34.jpeg",3,4,2,NA,"Instruments",2,"stim/objects/Instruments/doublebass.png",3,"right","right",0.684000015,1,1,0
"183",50,183,0.7,"stim/34.jpeg",3,4,2,NA,"Instruments",2,"stim/objects/Instruments/doublebass.png",3,"right","right",0.59800005,1,1,0
"184",50,184,0.5,"stim/12.jpeg",1,2,1,NA,"Instruments",2,"stim/objects/Instruments/acousticguitar.png",2,"right","right",0.465000153,1,1,0
"185",50,185,0.9,"stim/61.jpeg",6,1,3,NA,"HouseObjects",1,"stim/objects/HouseObjects/bucket2.png",2,"left","left",0.602999926,1,1,0
"186",50,186,0.5,"stim/12.jpeg",1,2,1,NA,"HouseObjects",1,"stim/objects/HouseObjects/ballofstring.png",2,"left","left",0.536999941,1,1,0
"187",50,187,0.3,"stim/31.jpeg",3,1,2,NA,"HouseObjects",1,"stim/objects/HouseObjects/bucket.png",3,"left","left",0.846999884,1,1,0
"188",50,188,0.5,"stim/11.jpeg",1,1,1,NA,"HouseObjects",1,"stim/objects/HouseObjects/ashtray.png",4,"left","right",0.531999826,0,0,0
"189",50,189,0.3,"stim/33.jpeg",3,3,2,NA,"HouseObjects",1,"stim/objects/HouseObjects/clothesdryingrack.png",3,"left","left",0.717000008,1,1,0
"190",50,190,0.9,"stim/54.jpeg",5,4,3,NA,"Instruments",2,"stim/objects/Instruments/chime2.png",4,"right","right",0.477999926,1,1,0
"191",50,191,0.9,"stim/52.jpeg",5,2,3,NA,"Instruments",2,"stim/objects/Instruments/bassguitar2.png",3,"right","left",0.523000002,0,0,0
"192",50,192,0.5,"stim/14.jpeg",1,4,1,NA,"HouseObjects",1,"stim/objects/HouseObjects/basket.png",2,"left","left",0.561000109,1,1,0
"193",50,193,0.9,"stim/51.jpeg",5,1,3,NA,"Instruments",2,"stim/objects/Instruments/bassdrum2.png",4,"right","",NA,0,0,0
"194",50,194,0.5,"stim/23.jpeg",2,3,1,NA,"Instruments",2,"stim/objects/Instruments/cello.png",4,"right","left",0.758000135,0,0,0
"195",50,195,0.7,"stim/42.jpeg",4,2,2,NA,"HouseObjects",1,"stim/objects/HouseObjects/ballofstring2.png",2,"left","left",0.680999994,1,1,0
"196",50,196,0.5,"stim/23.jpeg",2,3,1,NA,"HouseObjects",1,"stim/objects/HouseObjects/bottle.png",1,"left","left",0.714999914,1,1,0
"197",50,197,0.9,"stim/61.jpeg",6,1,3,NA,"HouseObjects",1,"stim/objects/HouseObjects/bucket2.png",2,"left","left",0.527999878,1,1,0
"198",50,198,0.5,"stim/22.jpeg",2,2,1,NA,"Instruments",2,"stim/objects/Instruments/bassguitar.png",1,"right","",NA,0,0,0
"199",50,199,0.9,"stim/53.jpeg",5,3,3,NA,"Instruments",2,"stim/objects/Instruments/cello2.png",1,"right","left",0.5400002,0,0,0
"200",50,200,0.9,"stim/62.jpeg",6,2,3,NA,"HouseObjects",1,"stim/objects/HouseObjects/clock2.png",3,"left","left",0.528000116,1,1,0
"201",50,201,0.7,"stim/31.jpeg",3,1,2,NA,"Instruments",2,"stim/objects/Instruments/clarinet.png",3,"right","left",0.488999844,0,0,0
"202",50,202,0.5,"stim/11.jpeg",1,1,1,NA,"Instruments",2,"stim/objects/Instruments/accordion.png",3,"right","right",0.710000038,1,1,0
"203",50,203,0.7,"stim/33.jpeg",3,3,2,NA,"Instruments",2,"stim/objects/Instruments/cymbal.png",1,"right","",NA,0,0,0
"204",50,204,0.5,"stim/14.jpeg",1,4,1,NA,"Instruments",2,"stim/objects/Instruments/banjo.png",3,"right","right",0.569000006,1,1,0
"205",50,205,0.9,"stim/64.jpeg",6,4,3,NA,"HouseObjects",1,"stim/objects/HouseObjects/clothespin2.png",3,"left","left",0.490999937,1,1,0
"206",50,206,0.5,"stim/22.jpeg",2,2,1,NA,"Instruments",2,"stim/objects/Instruments/bassguitar.png",1,"right","right",0.5,1,1,0
"207",50,207,0.5,"stim/21.jpeg",2,1,1,NA,"HouseObjects",1,"stim/objects/HouseObjects/bleachbottle.png",1,"left","left",0.636000156,1,1,0
"208",50,208,0.3,"stim/33.jpeg",3,3,2,NA,"HouseObjects",1,"stim/objects/HouseObjects/clothesdryingrack.png",1,"left","right",0.521999836,0,0,0
"209",50,209,0.5,"stim/22.jpeg",2,2,1,NA,"Instruments",2,"stim/objects/Instruments/bassguitar.png",2,"right","left",0.628000021,0,0,0
"210",50,210,0.1,"stim/54.jpeg",5,4,3,NA,"HouseObjects",1,"stim/objects/HouseObjects/broom2.png",4,"left","right",0.707000017,0,0,0
"211",50,211,0.9,"stim/52.jpeg",5,2,3,NA,"Instruments",2,"stim/objects/Instruments/bassguitar2.png",2,"right","right",0.497999907,1,1,0
"212",50,212,0.3,"stim/42.jpeg",4,2,2,NA,"Instruments",2,"stim/objects/Instruments/acousticguitar2.png",3,"right","left",0.655999899,0,0,0
"213",50,213,0.5,"stim/24.jpeg",2,4,1,NA,"Instruments",2,"stim/objects/Instruments/chime.png",4,"right","left",0.709000111,0,0,0
"214",50,214,0.3,"stim/41.jpeg",4,1,2,NA,"Instruments",2,"stim/objects/Instruments/accordion2.png",1,"right","left",0.888000011,0,0,0
"215",50,215,0.1,"stim/61.jpeg",6,1,3,NA,"Instruments",2,"stim/objects/Instruments/clarinet2.png",4,"right","left",0.55099988,0,0,0
"216",50,216,0.7,"stim/41.jpeg",4,1,2,NA,"HouseObjects",1,"stim/objects/HouseObjects/ashtray2.png",2,"left","left",0.710999966,1,1,0
"217",50,217,0.5,"stim/14.jpeg",1,4,1,NA,"Instruments",2,"stim/objects/Instruments/banjo.png",1,"right","right",0.580999851,1,1,0
"218",50,218,0.3,"stim/32.jpeg",3,2,2,NA,"HouseObjects",1,"stim/objects/HouseObjects/clock.png",3,"left","left",0.595000029,1,1,0
"219",50,219,0.3,"stim/34.jpeg",3,4,2,NA,"HouseObjects",1,"stim/objects/HouseObjects/clothespin.png",1,"left","left",0.578000069,1,1,0
"220",50,220,0.7,"stim/41.jpeg",4,1,2,NA,"HouseObjects",1,"stim/objects/HouseObjects/ashtray2.png",4,"left","left",0.712000132,1,1,0
"221",50,221,0.5,"stim/21.jpeg",2,1,1,NA,"Instruments",2,"stim/objects/Instruments/bassdrum.png",4,"right","left",0.65199995,0,0,0
"222",50,222,0.7,"stim/31.jpeg",3,1,2,NA,"Instruments",2,"stim/objects/Instruments/clarinet.png",4,"right","left",0.608999968,0,0,0
"223",50,223,0.5,"stim/23.jpeg",2,3,1,NA,"Instruments",2,"stim/objects/Instruments/cello.png",3,"right","left",0.766000032,0,0,0
"224",50,224,0.9,"stim/62.jpeg",6,2,3,NA,"HouseObjects",1,"stim/objects/HouseObjects/clock2.png",4,"left","left",0.558000088,1,1,0
"225",50,225,0.9,"stim/62.jpeg",6,2,3,NA,"HouseObjects",1,"stim/objects/HouseObjects/clock2.png",3,"left","left",0.445000172,1,1,0
"226",50,226,0.5,"stim/24.jpeg",2,4,1,NA,"HouseObjects",1,"stim/objects/HouseObjects/broom.png",4,"left","right",0.730000019,0,0,0
"227",50,227,0.9,"stim/51.jpeg",5,1,3,NA,"Instruments",2,"stim/objects/Instruments/bassdrum2.png",1,"right","right",0.570000172,1,1,0
"228",50,228,0.5,"stim/14.jpeg",1,4,1,NA,"Instruments",2,"stim/objects/Instruments/banjo.png",1,"right","right",0.713000059,1,1,0
"229",50,229,0.7,"stim/44.jpeg",4,4,2,NA,"HouseObjects",1,"stim/objects/HouseObjects/basket2.png",3,"left","right",0.730000019,0,0,0
"230",50,230,0.1,"stim/63.jpeg",6,3,3,NA,"Instruments",2,"stim/objects/Instruments/cymbal2.png",4,"right","left",0.545000076,0,0,0
"231",50,231,0.3,"stim/42.jpeg",4,2,2,NA,"Instruments",2,"stim/objects/Instruments/acousticguitar2.png",2,"right","left",0.75999999,0,0,0
"232",50,232,0.7,"stim/44.jpeg",4,4,2,NA,"HouseObjects",1,"stim/objects/HouseObjects/basket2.png",2,"left","left",0.595999956,1,1,0
"233",50,233,0.7,"stim/33.jpeg",3,3,2,NA,"Instruments",2,"stim/objects/Instruments/cymbal.png",3,"right","left",0.523000002,0,0,0
"234",50,234,0.9,"stim/61.jpeg",6,1,3,NA,"HouseObjects",1,"stim/objects/HouseObjects/bucket2.png",2,"left","left",0.486999989,1,1,0
"235",50,235,0.7,"stim/41.jpeg",4,1,2,NA,"HouseObjects",1,"stim/objects/HouseObjects/ashtray2.png",2,"left","left",0.746999979,1,1,0
"236",50,236,0.3,"stim/43.jpeg",4,3,2,NA,"Instruments",2,"stim/objects/Instruments/balalaika2.png",1,"right","left",0.828999996,0,0,0
"237",50,237,0.5,"stim/14.jpeg",1,4,1,NA,"Instruments",2,"stim/objects/Instruments/banjo.png",3,"right","right",0.63499999,1,1,0
"238",50,238,0.5,"stim/23.jpeg",2,3,1,NA,"HouseObjects",1,"stim/objects/HouseObjects/bottle.png",2,"left","right",0.763000011,0,0,0
"239",50,239,0.9,"stim/51.jpeg",5,1,3,NA,"Instruments",2,"stim/objects/Instruments/bassdrum2.png",1,"right","right",0.730000019,1,1,0
"240",50,240,0.7,"stim/31.jpeg",3,1,2,NA,"Instruments",2,"stim/objects/Instruments/clarinet.png",1,"right","left",0.578999996,0,0,0
