"","participant","trialN","trial_cond","scn_file","scn_cat","scn_inst","scn_condition","fillers","obj_cat","obj_cat_num","obj_file","quadrant","corr_ans","key_resp_trial.keys","key_resp_trial.rt","trial_acc","trial_acc_manual","group"
"248",62,241,0.1,"stim/31.jpeg",3,1,3,1,"HouseObjects",1,"stim/objects/HouseObjects/handvacuum2.png",2,"left","",NA,0,0,1
"249",62,242,0.3,"stim/21.jpeg",2,1,2,1,"Instruments",2,"stim/objects/Instruments/drums2.png",3,"right","left",0.316000223,0,0,1
"250",62,243,0.9,"stim/44.jpeg",4,4,3,2,"HouseObjects",1,"stim/objects/HouseObjects/dustpan.png",3,"left","left",0.274999857,1,1,1
"251",62,244,0.9,"stim/42.jpeg",4,2,3,2,"HouseObjects",1,"stim/objects/HouseObjects/dustpan.png",3,"left","left",0.350999832,1,1,1
"252",62,245,0.9,"stim/34.jpeg",3,4,3,2,"Instruments",2,"stim/objects/Instruments/gong.png",1,"right","right",0.322000027,1,1,1
"253",62,246,0.5,"stim/54.jpeg",5,4,1,2,"Instruments",2,"stim/objects/Instruments/banjo.png",2,"right","left",0.187999964,0,0,1
"254",62,247,0.9,"stim/31.jpeg",3,1,3,2,"Instruments",2,"stim/objects/Instruments/flute.png",2,"right","right",0.338999987,1,1,1
"255",62,248,0.9,"stim/34.jpeg",3,4,3,2,"Instruments",2,"stim/objects/Instruments/gong.png",4,"right","right",0.256000042,1,1,1
"256",62,249,0.9,"stim/33.jpeg",3,3,3,2,"Instruments",2,"stim/objects/Instruments/gong.png",2,"right","right",0.265000105,1,1,1
"257",62,250,0.1,"stim/43.jpeg",4,3,3,1,"Instruments",2,"stim/objects/Instruments/speaker2.png",1,"right","right",0.161999941,1,1,1
"258",62,251,0.5,"stim/51.jpeg",5,1,1,1,"HouseObjects",1,"stim/objects/HouseObjects/handbrush.png",1,"left","left",0.306999922,1,1,1
"259",62,252,0.5,"stim/52.jpeg",5,2,1,2,"Instruments",2,"stim/objects/Instruments/balalaika.png",2,"right","left",0.34100008,0,0,1
"260",62,253,0.9,"stim/32.jpeg",3,2,3,2,"Instruments",2,"stim/objects/Instruments/grandpiano.png",2,"right","right",0.250999928,1,1,1
"261",62,254,0.9,"stim/33.jpeg",3,3,3,2,"Instruments",2,"stim/objects/Instruments/frenchhorn.png",3,"right","right",0.226000071,1,1,1
"262",62,255,0.9,"stim/41.jpeg",4,1,3,2,"HouseObjects",1,"stim/objects/HouseObjects/doormat.png",4,"left","right",0.781999826,0,0,1
"263",62,256,0.9,"stim/42.jpeg",4,2,3,2,"HouseObjects",1,"stim/objects/HouseObjects/doormat.png",1,"left","left",0.367000103,1,1,1
"264",62,257,0.9,"stim/32.jpeg",3,2,3,2,"Instruments",2,"stim/objects/Instruments/frenchhorn.png",1,"right","left",0.299000025,0,0,1
"265",62,258,0.7,"stim/21.jpeg",2,1,2,2,"HouseObjects",1,"stim/objects/HouseObjects/cushion.png",2,"left","right",0.299999952,0,0,1
"266",62,259,0.9,"stim/34.jpeg",3,4,3,2,"Instruments",2,"stim/objects/Instruments/flutetrans.png",4,"right","right",0.285000086,1,1,1
"267",62,260,0.9,"stim/32.jpeg",3,2,3,2,"Instruments",2,"stim/objects/Instruments/flutetrans.png",1,"right","right",0.414999962,1,1,1
"268",62,261,0.9,"stim/44.jpeg",4,4,3,1,"HouseObjects",1,"stim/objects/HouseObjects/towel2.png",3,"left","right",0.239000082,0,0,1
"269",62,262,0.9,"stim/33.jpeg",3,3,3,2,"Instruments",2,"stim/objects/Instruments/grandpiano.png",3,"right","left",0.366000175,0,0,1
"270",62,263,0.9,"stim/41.jpeg",4,1,3,2,"HouseObjects",1,"stim/objects/HouseObjects/garbagebin.png",4,"left","left",0.197000027,1,1,1
"271",62,264,0.7,"stim/11.jpeg",1,1,2,2,"Instruments",2,"stim/objects/Instruments/electricguitar.png",2,"right","left",0.251000166,0,0,1
"272",62,265,0.5,"stim/63.jpeg",6,3,1,2,"HouseObjects",1,"stim/objects/HouseObjects/blender.png",4,"left","right",0.19900012,0,0,1
"273",62,266,0.9,"stim/44.jpeg",4,4,3,2,"HouseObjects",1,"stim/objects/HouseObjects/dustpan.png",1,"left","right",0.24000001,0,0,1
"274",62,267,0.7,"stim/13.jpeg",1,3,2,2,"Instruments",2,"stim/objects/Instruments/electricdrumset.png",4,"right","right",0.273999929,1,1,1
"275",62,268,0.9,"stim/44.jpeg",4,4,3,2,"HouseObjects",1,"stim/objects/HouseObjects/glass.png",4,"left","right",0.259000063,0,0,1
"276",62,269,0.9,"stim/42.jpeg",4,2,3,2,"HouseObjects",1,"stim/objects/HouseObjects/flyswatter.png",3,"left","right",0.299000025,0,0,1
"277",62,270,0.9,"stim/34.jpeg",3,4,3,2,"Instruments",2,"stim/objects/Instruments/grandpiano.png",4,"right","right",0.282999992,1,1,1
"278",62,271,0.7,"stim/14.jpeg",1,4,2,2,"Instruments",2,"stim/objects/Instruments/cymbal.png",2,"right","left",0.007999897,0,0,1
"279",62,272,0.9,"stim/41.jpeg",4,1,3,2,"HouseObjects",1,"stim/objects/HouseObjects/glass.png",2,"left","left",0.529000044,1,1,1
"280",62,273,0.9,"stim/41.jpeg",4,1,3,1,"HouseObjects",1,"stim/objects/HouseObjects/saw2.png",3,"left","left",0.073999882,1,1,1
"281",62,274,0.9,"stim/31.jpeg",3,1,3,2,"Instruments",2,"stim/objects/Instruments/gong.png",3,"right","left",0.394000053,0,0,1
"282",62,275,0.3,"stim/23.jpeg",2,3,2,1,"Instruments",2,"stim/objects/Instruments/electricguitar2.png",1,"right","right",0.398000002,1,1,1
"283",62,276,0.9,"stim/31.jpeg",3,1,3,2,"Instruments",2,"stim/objects/Instruments/grandpiano.png",3,"right","right",0.335999966,1,1,1
"284",62,277,0.5,"stim/53.jpeg",5,3,1,2,"Instruments",2,"stim/objects/Instruments/banjo.png",4,"right","right",0.361000061,1,1,1
"285",62,278,0.9,"stim/42.jpeg",4,2,3,2,"HouseObjects",1,"stim/objects/HouseObjects/glass.png",2,"left","right",0.236999989,0,0,1
"286",62,279,0.1,"stim/41.jpeg",4,1,3,1,"Instruments",2,"stim/objects/Instruments/tuba2.png",3,"right","right",0.317000151,1,1,1
"287",62,280,0.3,"stim/22.jpeg",2,2,2,1,"Instruments",2,"stim/objects/Instruments/bassguitar2.png",4,"right","left",0.133000135,0,0,1
"288",62,281,0.9,"stim/44.jpeg",4,4,3,2,"HouseObjects",1,"stim/objects/HouseObjects/garbagebin.png",3,"left","left",0.245000124,1,1,1
"289",62,282,0.7,"stim/11.jpeg",1,1,2,1,"Instruments",2,"stim/objects/Instruments/vuvuzela.png",2,"right","left",0.360999823,0,0,1
"290",62,283,0.9,"stim/43.jpeg",4,3,3,2,"HouseObjects",1,"stim/objects/HouseObjects/dustpan.png",4,"left","left",0.376999855,1,1,1
"291",62,284,0.5,"stim/61.jpeg",6,1,1,1,"HouseObjects",1,"stim/objects/HouseObjects/saw.png",2,"left","right",0.205999851,0,0,1
"292",62,285,0.7,"stim/23.jpeg",2,3,2,2,"HouseObjects",1,"stim/objects/HouseObjects/clothespin.png",2,"left","left",0.148000002,1,1,1
"293",62,286,0.5,"stim/61.jpeg",6,1,1,2,"HouseObjects",1,"stim/objects/HouseObjects/bottle.png",2,"left","left",0.311000109,1,1,1
"294",62,287,0.5,"stim/63.jpeg",6,3,1,2,"Instruments",2,"stim/objects/Instruments/cello.png",1,"right","left",0.63499999,0,0,1
"295",62,288,0.1,"stim/31.jpeg",3,1,3,1,"HouseObjects",1,"stim/objects/HouseObjects/glass2.png",1,"left","left",0.711999893,1,1,1
"296",62,289,0.5,"stim/53.jpeg",5,3,1,2,"HouseObjects",1,"stim/objects/HouseObjects/barbecuelighter.png",1,"left","left",0.697999954,1,1,1
"297",62,290,0.9,"stim/31.jpeg",3,1,3,2,"Instruments",2,"stim/objects/Instruments/frenchhorn.png",2,"right","left",0.615999937,0,0,1
"298",62,291,0.9,"stim/43.jpeg",4,3,3,2,"HouseObjects",1,"stim/objects/HouseObjects/glass.png",2,"left","right",0.296000004,0,0,1
"299",62,292,0.9,"stim/44.jpeg",4,4,3,2,"HouseObjects",1,"stim/objects/HouseObjects/flyswatter.png",3,"left","left",0.431999922,1,1,1
"300",62,293,0.5,"stim/51.jpeg",5,1,1,2,"Instruments",2,"stim/objects/Instruments/accordion.png",2,"right","left",0.789000034,0,0,1
"301",62,294,0.9,"stim/31.jpeg",3,1,3,2,"Instruments",2,"stim/objects/Instruments/grandpiano.png",2,"right","left",0.434000015,0,0,1
"302",62,295,0.9,"stim/43.jpeg",4,3,3,2,"HouseObjects",1,"stim/objects/HouseObjects/garbagebin.png",2,"left","right",0.330000162,0,0,1
"303",62,296,0.3,"stim/12.jpeg",1,2,2,1,"HouseObjects",1,"stim/objects/HouseObjects/bleachbottle2.png",4,"left","left",0.359999895,1,1,1
"304",62,297,0.9,"stim/44.jpeg",4,4,3,2,"HouseObjects",1,"stim/objects/HouseObjects/flyswatter.png",2,"left","",NA,0,0,1
"305",62,298,0.9,"stim/31.jpeg",3,1,3,1,"Instruments",2,"stim/objects/Instruments/frenchhorn2.png",1,"right","right",0.281999826,1,1,1
"306",62,299,0.9,"stim/33.jpeg",3,3,3,1,"Instruments",2,"stim/objects/Instruments/hihat2.png",3,"right","right",0.488999844,1,1,1
"307",62,300,0.5,"stim/62.jpeg",6,2,1,2,"HouseObjects",1,"stim/objects/HouseObjects/broom.png",2,"left","right",0.471000195,0,0,1
"308",62,301,0.9,"stim/42.jpeg",4,2,3,2,"HouseObjects",1,"stim/objects/HouseObjects/doormat.png",4,"left","",NA,0,0,1
"309",62,302,0.9,"stim/32.jpeg",3,2,3,2,"Instruments",2,"stim/objects/Instruments/frenchhorn.png",2,"right","left",0.220999956,0,0,1
"310",62,303,0.3,"stim/11.jpeg",1,1,2,1,"HouseObjects",1,"stim/objects/HouseObjects/thermometer.png",1,"left","right",0.275999784,0,0,1
"311",62,304,0.9,"stim/43.jpeg",4,3,3,1,"HouseObjects",1,"stim/objects/HouseObjects/thread2.png",3,"left","right",0.358999968,0,0,1
"312",62,305,0.5,"stim/52.jpeg",5,2,1,2,"HouseObjects",1,"stim/objects/HouseObjects/bleachbottle.png",1,"left","right",0.486000061,0,0,1
"313",62,306,0.7,"stim/22.jpeg",2,2,2,2,"HouseObjects",1,"stim/objects/HouseObjects/clothesdryingrack.png",1,"left","right",0.184999943,0,0,1
"314",62,307,0.1,"stim/41.jpeg",4,1,3,1,"Instruments",2,"stim/objects/Instruments/timbal2.png",1,"right","left",0.344000101,0,0,1
"315",62,308,0.7,"stim/24.jpeg",2,4,2,1,"HouseObjects",1,"stim/objects/HouseObjects/blender2.png",3,"left","left",0.229000092,1,1,1
"316",62,309,0.9,"stim/41.jpeg",4,1,3,2,"HouseObjects",1,"stim/objects/HouseObjects/glass.png",4,"left","right",0.244000196,0,0,1
"317",62,310,0.9,"stim/32.jpeg",3,2,3,2,"Instruments",2,"stim/objects/Instruments/grandpiano.png",3,"right","right",0.378000021,1,1,1
"318",62,311,0.5,"stim/53.jpeg",5,3,1,1,"HouseObjects",1,"stim/objects/HouseObjects/glassmop.png",3,"left","right",0.391000032,0,0,1
"319",62,312,0.9,"stim/32.jpeg",3,2,3,2,"Instruments",2,"stim/objects/Instruments/gong.png",3,"right","left",0.312999964,0,0,1
"320",62,313,0.9,"stim/32.jpeg",3,2,3,2,"Instruments",2,"stim/objects/Instruments/flutetrans.png",4,"right","right",0.329999924,1,1,1
"321",62,314,0.5,"stim/53.jpeg",5,3,1,1,"Instruments",2,"stim/objects/Instruments/harmonica.png",3,"right","left",0.001000166,0,0,1
"322",62,315,0.9,"stim/41.jpeg",4,1,3,2,"HouseObjects",1,"stim/objects/HouseObjects/garbagebin.png",2,"left","right",0.421000004,0,0,1
"323",62,316,0.9,"stim/33.jpeg",3,3,3,2,"Instruments",2,"stim/objects/Instruments/flutetrans.png",3,"right","right",0.600000143,1,1,1
"324",62,317,0.9,"stim/34.jpeg",3,4,3,1,"Instruments",2,"stim/objects/Instruments/flutetrans2.png",4,"right","",NA,0,0,1
"325",62,318,0.9,"stim/43.jpeg",4,3,3,2,"HouseObjects",1,"stim/objects/HouseObjects/glass.png",1,"left","right",0.399000168,0,0,1
"326",62,319,0.5,"stim/52.jpeg",5,2,1,2,"HouseObjects",1,"stim/objects/HouseObjects/ashtray.png",3,"left","left",0.246999979,1,1,1
"327",62,320,0.9,"stim/32.jpeg",3,2,3,2,"Instruments",2,"stim/objects/Instruments/gong.png",1,"right","left",0.479000092,0,0,1
"328",62,321,0.5,"stim/61.jpeg",6,1,1,1,"HouseObjects",1,"stim/objects/HouseObjects/teapot.png",1,"left","right",0.313999891,0,0,1
"329",62,322,0.1,"stim/34.jpeg",3,4,3,1,"HouseObjects",1,"stim/objects/HouseObjects/garbagebin2.png",4,"left","right",0.48300004,0,0,1
"330",62,323,0.5,"stim/62.jpeg",6,2,1,1,"Instruments",2,"stim/objects/Instruments/timbal.png",4,"right","right",0.67200017,1,1,1
"331",62,324,0.9,"stim/44.jpeg",4,4,3,2,"HouseObjects",1,"stim/objects/HouseObjects/dustpan.png",2,"left","right",0.695000172,0,0,1
"332",62,325,0.3,"stim/24.jpeg",2,4,2,1,"Instruments",2,"stim/objects/Instruments/doublebass2.png",3,"right","right",0.816999912,1,1,1
"333",62,326,0.7,"stim/24.jpeg",2,4,2,2,"HouseObjects",1,"stim/objects/HouseObjects/clothespin.png",3,"left","left",0.826999903,1,1,1
"334",62,327,0.9,"stim/33.jpeg",3,3,3,2,"Instruments",2,"stim/objects/Instruments/gong.png",3,"right","left",0.605000019,0,0,1
"335",62,328,0.5,"stim/62.jpeg",6,2,1,2,"Instruments",2,"stim/objects/Instruments/cornet.png",2,"right","right",0.724999905,1,1,1
"336",62,329,0.9,"stim/34.jpeg",3,4,3,2,"Instruments",2,"stim/objects/Instruments/flute.png",4,"right","right",0.601999998,1,1,1
"337",62,330,0.7,"stim/23.jpeg",2,3,2,1,"HouseObjects",1,"stim/objects/HouseObjects/coffee2.png",2,"left","right",0.845999956,0,0,1
"338",62,331,0.9,"stim/44.jpeg",4,4,3,2,"HouseObjects",1,"stim/objects/HouseObjects/flyswatter.png",3,"left","",NA,0,0,1
"339",62,332,0.9,"stim/33.jpeg",3,3,3,2,"Instruments",2,"stim/objects/Instruments/grandpiano.png",2,"right","left",0.203000069,0,0,1
"340",62,333,0.9,"stim/32.jpeg",3,2,3,2,"Instruments",2,"stim/objects/Instruments/grandpiano.png",1,"right","right",0.226999998,1,1,1
"341",62,334,0.9,"stim/42.jpeg",4,2,3,2,"HouseObjects",1,"stim/objects/HouseObjects/glass.png",2,"left","right",0.361999989,0,0,1
"342",62,335,0.9,"stim/43.jpeg",4,3,3,2,"HouseObjects",1,"stim/objects/HouseObjects/flyswatter.png",4,"left","right",0.809999943,0,0,1
"343",62,336,0.9,"stim/41.jpeg",4,1,3,2,"HouseObjects",1,"stim/objects/HouseObjects/flyswatter.png",1,"left","left",0.54700017,1,1,1
"344",62,337,0.9,"stim/41.jpeg",4,1,3,2,"HouseObjects",1,"stim/objects/HouseObjects/dustpan.png",2,"left","left",0.786000013,1,1,1
"345",62,338,0.9,"stim/42.jpeg",4,2,3,2,"HouseObjects",1,"stim/objects/HouseObjects/garbagebin.png",3,"left","left",0.605000019,1,1,1
"346",62,339,0.7,"stim/13.jpeg",1,3,2,2,"Instruments",2,"stim/objects/Instruments/cymbal.png",2,"right","left",0.790999889,0,0,1
"347",62,340,0.9,"stim/43.jpeg",4,3,3,2,"HouseObjects",1,"stim/objects/HouseObjects/doormat.png",4,"left","right",0.319999933,0,0,1
"348",62,341,0.9,"stim/42.jpeg",4,2,3,2,"HouseObjects",1,"stim/objects/HouseObjects/glass.png",3,"left","right",0.390000105,0,0,1
"349",62,342,0.5,"stim/52.jpeg",5,2,1,1,"Instruments",2,"stim/objects/Instruments/guitarcase.png",3,"right","",NA,0,0,1
"350",62,343,0.7,"stim/12.jpeg",1,2,2,1,"Instruments",2,"stim/objects/Instruments/banjo2.png",2,"right","right",0.409000158,1,1,1
"351",62,344,0.9,"stim/41.jpeg",4,1,3,2,"HouseObjects",1,"stim/objects/HouseObjects/flyswatter.png",1,"left","right",0.30099988,0,0,1
"352",62,345,0.9,"stim/32.jpeg",3,2,3,2,"Instruments",2,"stim/objects/Instruments/flute.png",4,"right","right",0.326999903,1,1,1
"353",62,346,0.9,"stim/42.jpeg",4,2,3,2,"HouseObjects",1,"stim/objects/HouseObjects/doormat.png",1,"left","",NA,0,0,1
"354",62,347,0.7,"stim/21.jpeg",2,1,2,1,"HouseObjects",1,"stim/objects/HouseObjects/clothesdryingrack2.png",3,"left","right",0.4599998,0,0,1
"355",62,348,0.9,"stim/41.jpeg",4,1,3,2,"HouseObjects",1,"stim/objects/HouseObjects/flyswatter.png",1,"left","",NA,0,0,1
"356",62,349,0.9,"stim/31.jpeg",3,1,3,2,"Instruments",2,"stim/objects/Instruments/grandpiano.png",2,"right","right",0.145999908,1,1,1
"357",62,350,0.9,"stim/43.jpeg",4,3,3,2,"HouseObjects",1,"stim/objects/HouseObjects/glass.png",4,"left","right",0.432999849,0,0,1
"358",62,351,0.5,"stim/62.jpeg",6,2,1,2,"HouseObjects",1,"stim/objects/HouseObjects/bucket.png",4,"left","left",0.394999981,1,1,1
"359",62,352,0.7,"stim/11.jpeg",1,1,2,2,"Instruments",2,"stim/objects/Instruments/cymbal.png",4,"right","left",0.323000193,0,0,1
"360",62,353,0.9,"stim/34.jpeg",3,4,3,2,"Instruments",2,"stim/objects/Instruments/frenchhorn.png",2,"right","left",0.309999943,0,0,1
"361",62,354,0.3,"stim/11.jpeg",1,1,2,1,"HouseObjects",1,"stim/objects/HouseObjects/wateringcan.png",1,"left","right",0.29399991,0,0,1
"362",62,355,0.5,"stim/51.jpeg",5,1,1,2,"HouseObjects",1,"stim/objects/HouseObjects/basket.png",1,"left","right",0.575999975,0,0,1
"363",62,356,0.7,"stim/11.jpeg",1,1,2,1,"Instruments",2,"stim/objects/Instruments/balalaika2.png",4,"right","",NA,0,0,1
"364",62,357,0.1,"stim/32.jpeg",3,2,3,1,"HouseObjects",1,"stim/objects/HouseObjects/glassmop2.png",3,"left","right",0.845999956,0,0,1
"365",62,358,0.9,"stim/33.jpeg",3,3,3,2,"Instruments",2,"stim/objects/Instruments/grandpiano.png",2,"right","right",0.682999849,1,1,1
"366",62,359,0.9,"stim/31.jpeg",3,1,3,2,"Instruments",2,"stim/objects/Instruments/flute.png",2,"right","right",0.332000017,1,1,1
"367",62,360,0.9,"stim/31.jpeg",3,1,3,2,"Instruments",2,"stim/objects/Instruments/frenchhorn.png",1,"right","left",0.354000092,0,0,1
"368",62,361,0.9,"stim/34.jpeg",3,4,3,1,"Instruments",2,"stim/objects/Instruments/guitarcase2.png",4,"right","left",0.361000061,0,0,1
"369",62,362,0.7,"stim/11.jpeg",1,1,2,2,"Instruments",2,"stim/objects/Instruments/doublebass.png",1,"right","left",0.01699996,0,0,1
"370",62,363,0.7,"stim/22.jpeg",2,2,2,2,"HouseObjects",1,"stim/objects/HouseObjects/clothespin.png",1,"left","right",0.572000027,0,0,1
"371",62,364,0.9,"stim/33.jpeg",3,3,3,2,"Instruments",2,"stim/objects/Instruments/flutetrans.png",2,"right","right",0.812999964,1,1,1
"372",62,365,0.5,"stim/62.jpeg",6,2,1,1,"HouseObjects",1,"stim/objects/HouseObjects/scale.png",2,"left","right",0.365999937,0,0,1
"373",62,366,0.7,"stim/23.jpeg",2,3,2,1,"HouseObjects",1,"stim/objects/HouseObjects/bucket2.png",3,"left","right",0.832000017,0,0,1
"374",62,367,0.9,"stim/44.jpeg",4,4,3,2,"HouseObjects",1,"stim/objects/HouseObjects/doormat.png",4,"left","",NA,0,0,1
"375",62,368,0.7,"stim/22.jpeg",2,2,2,2,"HouseObjects",1,"stim/objects/HouseObjects/dishsoap.png",2,"left","left",0.447000027,1,1,1
"376",62,369,0.9,"stim/43.jpeg",4,3,3,2,"HouseObjects",1,"stim/objects/HouseObjects/glass.png",3,"left","left",0.262000084,1,1,1
"377",62,370,0.9,"stim/41.jpeg",4,1,3,1,"HouseObjects",1,"stim/objects/HouseObjects/teapot2.png",4,"left","",NA,0,0,1
"378",62,371,0.1,"stim/42.jpeg",4,2,3,1,"Instruments",2,"stim/objects/Instruments/violin2.png",2,"right","right",0.506999969,1,1,1
"379",62,372,0.9,"stim/42.jpeg",4,2,3,2,"HouseObjects",1,"stim/objects/HouseObjects/dustpan.png",1,"left","left",0.582000017,1,1,1
"380",62,373,0.7,"stim/12.jpeg",1,2,2,1,"Instruments",2,"stim/objects/Instruments/trumpet.png",4,"right","right",0.285000086,1,1,1
"381",62,374,0.9,"stim/41.jpeg",4,1,3,2,"HouseObjects",1,"stim/objects/HouseObjects/dustpan.png",2,"left","left",0.128999949,1,1,1
"382",62,375,0.7,"stim/12.jpeg",1,2,2,2,"Instruments",2,"stim/objects/Instruments/electricdrumset.png",1,"right","left",0.309000015,0,0,1
"383",62,376,0.7,"stim/22.jpeg",2,2,2,2,"HouseObjects",1,"stim/objects/HouseObjects/cushion.png",3,"left","right",0.890000105,0,0,1
"384",62,377,0.3,"stim/12.jpeg",1,2,2,1,"HouseObjects",1,"stim/objects/HouseObjects/thread.png",3,"left","right",0.562000036,0,0,1
"385",62,378,0.9,"stim/42.jpeg",4,2,3,2,"HouseObjects",1,"stim/objects/HouseObjects/garbagebin.png",2,"left","right",0.509000063,0,0,1
"386",62,379,0.9,"stim/34.jpeg",3,4,3,2,"Instruments",2,"stim/objects/Instruments/gong.png",4,"right","right",0.461999893,1,1,1
"387",62,380,0.5,"stim/54.jpeg",5,4,1,1,"HouseObjects",1,"stim/objects/HouseObjects/hairdryer.png",3,"left","left",0.385999918,1,1,1
"388",62,381,0.9,"stim/32.jpeg",3,2,3,2,"Instruments",2,"stim/objects/Instruments/grandpiano.png",1,"right","left",0.292000055,0,0,1
"389",62,382,0.7,"stim/13.jpeg",1,3,2,2,"Instruments",2,"stim/objects/Instruments/electricguitar.png",2,"right","right",0.301000118,1,1,1
"390",62,383,0.9,"stim/42.jpeg",4,2,3,1,"HouseObjects",1,"stim/objects/HouseObjects/thermometer2.png",1,"left","right",0.45600009,0,0,1
"391",62,384,0.5,"stim/62.jpeg",6,2,1,2,"Instruments",2,"stim/objects/Instruments/bassguitar.png",4,"right","right",0.238999844,1,1,1
"392",62,385,0.3,"stim/14.jpeg",1,4,2,1,"HouseObjects",1,"stim/objects/HouseObjects/vacuumcleaner.png",1,"left","right",0.225999832,0,0,1
"393",62,386,0.5,"stim/53.jpeg",5,3,1,2,"Instruments",2,"stim/objects/Instruments/balalaika.png",4,"right","right",0.372999907,1,1,1
"394",62,387,0.9,"stim/41.jpeg",4,1,3,2,"HouseObjects",1,"stim/objects/HouseObjects/doormat.png",4,"left","left",0.292999983,1,1,1
"395",62,388,0.7,"stim/23.jpeg",2,3,2,2,"HouseObjects",1,"stim/objects/HouseObjects/clothesdryingrack.png",4,"left","right",0.241999865,0,0,1
"396",62,389,0.7,"stim/13.jpeg",1,3,2,1,"Instruments",2,"stim/objects/Instruments/bassdrum2.png",1,"right","right",0.221999884,1,1,1
"397",62,390,0.9,"stim/44.jpeg",4,4,3,2,"HouseObjects",1,"stim/objects/HouseObjects/doormat.png",2,"left","right",0.247999907,0,0,1
"398",62,391,0.9,"stim/43.jpeg",4,3,3,2,"HouseObjects",1,"stim/objects/HouseObjects/garbagebin.png",3,"left","right",0.328999996,0,0,1
"399",62,392,0.3,"stim/21.jpeg",2,1,2,1,"Instruments",2,"stim/objects/Instruments/clarinet2.png",1,"right","left",0.292999983,0,0,1
"400",62,393,0.9,"stim/32.jpeg",3,2,3,2,"Instruments",2,"stim/objects/Instruments/gong.png",4,"right","right",0.297999859,1,1,1
"401",62,394,0.3,"stim/13.jpeg",1,3,2,1,"HouseObjects",1,"stim/objects/HouseObjects/ballofstring2.png",3,"left","right",0.246999979,0,0,1
"402",62,395,0.1,"stim/44.jpeg",4,4,3,1,"Instruments",2,"stim/objects/Instruments/xylophone2.png",2,"right","left",0.340000153,0,0,1
"403",62,396,0.9,"stim/31.jpeg",3,1,3,2,"Instruments",2,"stim/objects/Instruments/flute.png",2,"right","right",0.282999992,1,1,1
"404",62,397,0.5,"stim/54.jpeg",5,4,1,2,"Instruments",2,"stim/objects/Instruments/bassdrum.png",3,"right","right",0.390000105,1,1,1
"405",62,398,0.9,"stim/34.jpeg",3,4,3,2,"Instruments",2,"stim/objects/Instruments/flutetrans.png",4,"right","right",0.364999771,1,1,1
"406",62,399,0.1,"stim/33.jpeg",3,3,3,1,"HouseObjects",1,"stim/objects/HouseObjects/hairdryer2.png",3,"left","right",0.361999989,0,0,1
"407",62,400,0.5,"stim/51.jpeg",5,1,1,2,"Instruments",2,"stim/objects/Instruments/acousticguitar.png",3,"right","right",0.289000034,1,1,1
"408",62,401,0.9,"stim/43.jpeg",4,3,3,2,"HouseObjects",1,"stim/objects/HouseObjects/doormat.png",3,"left","left",0.316999912,1,1,1
"409",62,402,0.9,"stim/32.jpeg",3,2,3,1,"Instruments",2,"stim/objects/Instruments/harp2.png",1,"right","left",0.465999842,0,0,1
"410",62,403,0.1,"stim/32.jpeg",3,2,3,1,"HouseObjects",1,"stim/objects/HouseObjects/safetypin2.png",1,"left","right",0.384000063,0,0,1
"411",62,404,0.7,"stim/23.jpeg",2,3,2,2,"HouseObjects",1,"stim/objects/HouseObjects/dishsoap.png",1,"left","left",0.338000059,1,1,1
"412",62,405,0.7,"stim/12.jpeg",1,2,2,2,"Instruments",2,"stim/objects/Instruments/drums.png",4,"right","left",0.259000063,0,0,1
"413",62,406,0.9,"stim/41.jpeg",4,1,3,2,"HouseObjects",1,"stim/objects/HouseObjects/garbagebin.png",3,"left","right",0.85800004,0,0,1
"414",62,407,0.9,"stim/31.jpeg",3,1,3,2,"Instruments",2,"stim/objects/Instruments/flute.png",4,"right","left",0.348999977,0,0,1
"415",62,408,0.9,"stim/41.jpeg",4,1,3,2,"HouseObjects",1,"stim/objects/HouseObjects/glass.png",4,"left","right",0.419999838,0,0,1
"416",62,409,0.5,"stim/63.jpeg",6,3,1,2,"Instruments",2,"stim/objects/Instruments/cornet.png",1,"right","",NA,0,0,1
"417",62,410,0.9,"stim/44.jpeg",4,4,3,2,"HouseObjects",1,"stim/objects/HouseObjects/glass.png",3,"left","left",0.238000154,1,1,1
"418",62,411,0.9,"stim/33.jpeg",3,3,3,2,"Instruments",2,"stim/objects/Instruments/gong.png",3,"right","right",0.369999886,1,1,1
"419",62,412,0.7,"stim/13.jpeg",1,3,2,1,"Instruments",2,"stim/objects/Instruments/tuba.png",3,"right","left",0.697000027,0,0,1
"420",62,413,0.7,"stim/21.jpeg",2,1,2,1,"HouseObjects",1,"stim/objects/HouseObjects/dishsoap2.png",4,"left","",NA,0,0,1
"421",62,414,0.7,"stim/13.jpeg",1,3,2,2,"Instruments",2,"stim/objects/Instruments/drums.png",2,"right","right",0.349000216,1,1,1
"422",62,415,0.5,"stim/63.jpeg",6,3,1,1,"HouseObjects",1,"stim/objects/HouseObjects/sponge.png",1,"left","",NA,0,0,1
"423",62,416,0.9,"stim/32.jpeg",3,2,3,1,"Instruments",2,"stim/objects/Instruments/gong2.png",2,"right","left",0.259000063,0,0,1
"424",62,417,0.9,"stim/31.jpeg",3,1,3,2,"Instruments",2,"stim/objects/Instruments/gong.png",3,"right","right",0.821000099,1,1,1
"425",62,418,0.7,"stim/22.jpeg",2,2,2,1,"HouseObjects",1,"stim/objects/HouseObjects/broom2.png",4,"left","right",0.713999987,0,0,1
"426",62,419,0.9,"stim/43.jpeg",4,3,3,2,"HouseObjects",1,"stim/objects/HouseObjects/garbagebin.png",3,"left","left",0.664999962,1,1,1
"427",62,420,0.5,"stim/64.jpeg",6,4,1,2,"Instruments",2,"stim/objects/Instruments/cello.png",4,"right","left",0.74000001,0,0,1
"428",62,421,0.7,"stim/24.jpeg",2,4,2,1,"HouseObjects",1,"stim/objects/HouseObjects/cushion2.png",4,"left","right",0.641000032,0,0,1
"429",62,422,0.9,"stim/33.jpeg",3,3,3,2,"Instruments",2,"stim/objects/Instruments/frenchhorn.png",1,"right","right",0.261999846,1,1,1
"430",62,423,0.9,"stim/33.jpeg",3,3,3,2,"Instruments",2,"stim/objects/Instruments/flutetrans.png",3,"right","right",0.319000006,1,1,1
"431",62,424,0.5,"stim/54.jpeg",5,4,1,2,"Instruments",2,"stim/objects/Instruments/accordion.png",4,"right","right",0.285000086,1,1,1
"432",62,425,0.9,"stim/33.jpeg",3,3,3,2,"Instruments",2,"stim/objects/Instruments/frenchhorn.png",1,"right","right",0.268999815,1,1,1
"433",62,426,0.5,"stim/52.jpeg",5,2,1,1,"Instruments",2,"stim/objects/Instruments/saxophone.png",2,"right","right",0.350000143,1,1,1
"434",62,427,0.9,"stim/44.jpeg",4,4,3,2,"HouseObjects",1,"stim/objects/HouseObjects/doormat.png",2,"left","right",0.220000029,0,0,1
"435",62,428,0.9,"stim/33.jpeg",3,3,3,2,"Instruments",2,"stim/objects/Instruments/flute.png",1,"right","left",0.362000227,0,0,1
"436",62,429,0.9,"stim/33.jpeg",3,3,3,2,"Instruments",2,"stim/objects/Instruments/flutetrans.png",2,"right","right",0.177999973,1,1,1
"437",62,430,0.1,"stim/34.jpeg",3,4,3,1,"HouseObjects",1,"stim/objects/HouseObjects/handbrush2.png",3,"left","right",0.217999935,0,0,1
"438",62,431,0.5,"stim/61.jpeg",6,1,1,2,"Instruments",2,"stim/objects/Instruments/clarinet.png",4,"right","right",0.227999926,1,1,1
"439",62,432,0.5,"stim/64.jpeg",6,4,1,2,"Instruments",2,"stim/objects/Instruments/chime.png",1,"right","left",0.289000034,0,0,1
"440",62,433,0.7,"stim/14.jpeg",1,4,2,2,"Instruments",2,"stim/objects/Instruments/electricguitar.png",4,"right","left",0.424000025,0,0,1
"441",62,434,0.9,"stim/34.jpeg",3,4,3,2,"Instruments",2,"stim/objects/Instruments/grandpiano.png",1,"right","right",0.266000032,1,1,1
"442",62,435,0.1,"stim/42.jpeg",4,2,3,1,"Instruments",2,"stim/objects/Instruments/triangle2.png",1,"right","right",0.150000095,1,1,1
"443",62,436,0.9,"stim/42.jpeg",4,2,3,2,"HouseObjects",1,"stim/objects/HouseObjects/garbagebin.png",1,"left","right",0.339999914,0,0,1
"444",62,437,0.5,"stim/63.jpeg",6,3,1,2,"Instruments",2,"stim/objects/Instruments/bassguitar.png",4,"right","left",0.475999832,0,0,1
"445",62,438,0.9,"stim/41.jpeg",4,1,3,2,"HouseObjects",1,"stim/objects/HouseObjects/glass.png",2,"left","left",0.313999891,1,1,1
"446",62,439,0.9,"stim/43.jpeg",4,3,3,2,"HouseObjects",1,"stim/objects/HouseObjects/dustpan.png",4,"left","right",0.539999962,0,0,1
"447",62,440,0.9,"stim/44.jpeg",4,4,3,2,"HouseObjects",1,"stim/objects/HouseObjects/dustpan.png",3,"left","right",0.396999836,0,0,1
"448",62,441,0.9,"stim/33.jpeg",3,3,3,2,"Instruments",2,"stim/objects/Instruments/flute.png",1,"right","left",0.279999971,0,0,1
"449",62,442,0.9,"stim/34.jpeg",3,4,3,2,"Instruments",2,"stim/objects/Instruments/frenchhorn.png",1,"right","right",0.371999979,1,1,1
"450",62,443,0.9,"stim/44.jpeg",4,4,3,2,"HouseObjects",1,"stim/objects/HouseObjects/glass.png",3,"left","right",0.131999969,0,0,1
"451",62,444,0.9,"stim/32.jpeg",3,2,3,2,"Instruments",2,"stim/objects/Instruments/gong.png",4,"right","left",0.26699996,0,0,1
"452",62,445,0.5,"stim/52.jpeg",5,2,1,2,"Instruments",2,"stim/objects/Instruments/acousticguitar.png",1,"right","right",0.586999893,1,1,1
"453",62,446,0.1,"stim/32.jpeg",3,2,3,1,"HouseObjects",1,"stim/objects/HouseObjects/dustpan2.png",2,"left","left",0.257999897,1,1,1
"454",62,447,0.9,"stim/42.jpeg",4,2,3,2,"HouseObjects",1,"stim/objects/HouseObjects/doormat.png",1,"left","left",0.190999985,1,1,1
"455",62,448,0.9,"stim/42.jpeg",4,2,3,2,"HouseObjects",1,"stim/objects/HouseObjects/flyswatter.png",1,"left","left",0.696000099,1,1,1
"456",62,449,0.7,"stim/24.jpeg",2,4,2,2,"HouseObjects",1,"stim/objects/HouseObjects/cushion.png",1,"left","left",0.542000055,1,1,1
"457",62,450,0.7,"stim/12.jpeg",1,2,2,1,"Instruments",2,"stim/objects/Instruments/xylophone.png",3,"right","right",0.652999878,1,1,1
"458",62,451,0.3,"stim/14.jpeg",1,4,2,1,"HouseObjects",1,"stim/objects/HouseObjects/barbecuelighter2.png",3,"left","right",0.546999931,0,0,1
"459",62,452,0.9,"stim/33.jpeg",3,3,3,1,"Instruments",2,"stim/objects/Instruments/grandpiano2.png",2,"right","left",0.512000084,0,0,1
"460",62,453,0.9,"stim/44.jpeg",4,4,3,2,"HouseObjects",1,"stim/objects/HouseObjects/garbagebin.png",3,"left","right",0.48300004,0,0,1
"461",62,454,0.7,"stim/23.jpeg",2,3,2,2,"HouseObjects",1,"stim/objects/HouseObjects/coffee.png",3,"left","right",0.618000031,0,0,1
"462",62,455,0.9,"stim/42.jpeg",4,2,3,2,"HouseObjects",1,"stim/objects/HouseObjects/glass.png",4,"left","right",0.454999924,0,0,1
"463",62,456,0.7,"stim/24.jpeg",2,4,2,1,"HouseObjects",1,"stim/objects/HouseObjects/clock2.png",3,"left","left",0.357999802,1,1,1
"464",62,457,0.9,"stim/31.jpeg",3,1,3,2,"Instruments",2,"stim/objects/Instruments/frenchhorn.png",2,"right","left",0.381000042,0,0,1
"465",62,458,0.9,"stim/43.jpeg",4,3,3,2,"HouseObjects",1,"stim/objects/HouseObjects/garbagebin.png",3,"left","right",0.34800005,0,0,1
"466",62,459,0.9,"stim/43.jpeg",4,3,3,2,"HouseObjects",1,"stim/objects/HouseObjects/flyswatter.png",1,"left","left",0.46600008,1,1,1
"467",62,460,0.7,"stim/14.jpeg",1,4,2,2,"Instruments",2,"stim/objects/Instruments/electricdrumset.png",2,"right","left",0.528000116,0,0,1
"468",62,461,0.9,"stim/44.jpeg",4,4,3,2,"HouseObjects",1,"stim/objects/HouseObjects/flyswatter.png",3,"left","right",0.467000008,0,0,1
"469",62,462,0.5,"stim/61.jpeg",6,1,1,2,"HouseObjects",1,"stim/objects/HouseObjects/broom.png",3,"left","right",0.319000006,0,0,1
"470",62,463,0.9,"stim/42.jpeg",4,2,3,1,"HouseObjects",1,"stim/objects/HouseObjects/wateringcan2.png",4,"left","left",0.374000072,1,1,1
"471",62,464,0.5,"stim/51.jpeg",5,1,1,1,"Instruments",2,"stim/objects/Instruments/hihat.png",2,"right","left",0.372999907,0,0,1
"472",62,465,0.5,"stim/54.jpeg",5,4,1,1,"Instruments",2,"stim/objects/Instruments/harp.png",4,"right","right",0.34100008,1,1,1
"473",62,466,0.9,"stim/34.jpeg",3,4,3,2,"Instruments",2,"stim/objects/Instruments/flute.png",4,"right","right",0.381999969,1,1,1
"474",62,467,0.5,"stim/54.jpeg",5,4,1,2,"HouseObjects",1,"stim/objects/HouseObjects/barbecuelighter.png",2,"left","left",0.299999952,1,1,1
"475",62,468,0.9,"stim/41.jpeg",4,1,3,2,"HouseObjects",1,"stim/objects/HouseObjects/doormat.png",2,"left","right",0.370000124,0,0,1
"476",62,469,0.5,"stim/63.jpeg",6,3,1,2,"HouseObjects",1,"stim/objects/HouseObjects/clock.png",4,"left","right",0.406000137,0,0,1
"477",62,470,0.9,"stim/41.jpeg",4,1,3,2,"HouseObjects",1,"stim/objects/HouseObjects/garbagebin.png",4,"left","right",0.379999876,0,0,1
"478",62,471,0.7,"stim/21.jpeg",2,1,2,2,"HouseObjects",1,"stim/objects/HouseObjects/clothesdryingrack.png",1,"left","right",0.278000116,0,0,1
"479",62,472,0.9,"stim/44.jpeg",4,4,3,2,"HouseObjects",1,"stim/objects/HouseObjects/doormat.png",1,"left","right",0.250999928,0,0,1
"480",62,473,0.7,"stim/14.jpeg",1,4,2,2,"Instruments",2,"stim/objects/Instruments/doublebass.png",4,"right","right",0.292999983,1,1,1
"481",62,474,0.9,"stim/41.jpeg",4,1,3,2,"HouseObjects",1,"stim/objects/HouseObjects/dustpan.png",2,"left","left",0.008000135,1,1,1
"482",62,475,0.9,"stim/31.jpeg",3,1,3,2,"Instruments",2,"stim/objects/Instruments/flutetrans.png",4,"right","left",0.239000082,0,0,1
"483",62,476,0.9,"stim/32.jpeg",3,2,3,2,"Instruments",2,"stim/objects/Instruments/frenchhorn.png",2,"right","right",0.007999897,1,1,1
"484",62,477,0.7,"stim/14.jpeg",1,4,2,1,"Instruments",2,"stim/objects/Instruments/violin.png",2,"right","left",0.122000217,0,0,1
"485",62,478,0.9,"stim/34.jpeg",3,4,3,2,"Instruments",2,"stim/objects/Instruments/flutetrans.png",3,"right","right",0.167999983,1,1,1
"486",62,479,0.9,"stim/34.jpeg",3,4,3,2,"Instruments",2,"stim/objects/Instruments/flutetrans.png",3,"right","right",0.06400013,1,1,1
"487",62,480,0.7,"stim/13.jpeg",1,3,2,1,"Instruments",2,"stim/objects/Instruments/accordion2.png",2,"right","right",0.120999813,1,1,1
"488",62,481,0.5,"stim/62.jpeg",6,2,1,2,"Instruments",2,"stim/objects/Instruments/clarinet.png",2,"right","left",0.246000051,0,0,1
"489",62,482,0.9,"stim/34.jpeg",3,4,3,2,"Instruments",2,"stim/objects/Instruments/grandpiano.png",1,"right","right",0.237999916,1,1,1
"490",62,483,0.5,"stim/64.jpeg",6,4,1,2,"HouseObjects",1,"stim/objects/HouseObjects/blender.png",1,"left","left",0.230000019,1,1,1
"491",62,484,0.9,"stim/43.jpeg",4,3,3,1,"HouseObjects",1,"stim/objects/HouseObjects/sponge2.png",4,"left","",NA,0,0,1
"492",62,485,0.9,"stim/43.jpeg",4,3,3,2,"HouseObjects",1,"stim/objects/HouseObjects/doormat.png",3,"left","right",0.810000181,0,0,1
"493",62,486,0.9,"stim/41.jpeg",4,1,3,2,"HouseObjects",1,"stim/objects/HouseObjects/doormat.png",2,"left","left",0.389000177,1,1,1
"494",62,487,0.7,"stim/14.jpeg",1,4,2,1,"Instruments",2,"stim/objects/Instruments/acousticguitar2.png",4,"right","left",0.319999933,0,0,1
"495",62,488,0.9,"stim/44.jpeg",4,4,3,2,"HouseObjects",1,"stim/objects/HouseObjects/glass.png",2,"left","left",0.217999935,1,1,1
"496",62,489,0.9,"stim/33.jpeg",3,3,3,2,"Instruments",2,"stim/objects/Instruments/flute.png",1,"right","right",0.296999931,1,1,1
"497",62,490,0.9,"stim/42.jpeg",4,2,3,2,"HouseObjects",1,"stim/objects/HouseObjects/dustpan.png",4,"left","right",0.636000156,0,0,1
"498",62,491,0.5,"stim/54.jpeg",5,4,1,2,"HouseObjects",1,"stim/objects/HouseObjects/basket.png",1,"left","right",0.000999928,0,0,1
"499",62,492,0.9,"stim/34.jpeg",3,4,3,2,"Instruments",2,"stim/objects/Instruments/frenchhorn.png",1,"right","left",0.149999857,0,0,1
"500",62,493,0.3,"stim/22.jpeg",2,2,2,1,"Instruments",2,"stim/objects/Instruments/cornet2.png",4,"right","left",0.239000082,0,0,1
"501",62,494,0.9,"stim/43.jpeg",4,3,3,2,"HouseObjects",1,"stim/objects/HouseObjects/flyswatter.png",1,"left","left",0.102999926,1,1,1
"502",62,495,0.9,"stim/44.jpeg",4,4,3,2,"HouseObjects",1,"stim/objects/HouseObjects/garbagebin.png",1,"left","right",0.141000032,0,0,1
"503",62,496,0.5,"stim/64.jpeg",6,4,1,2,"HouseObjects",1,"stim/objects/HouseObjects/bottle.png",3,"left","right",0.578999996,0,0,1
"504",62,497,0.3,"stim/23.jpeg",2,3,2,1,"Instruments",2,"stim/objects/Instruments/cymbal2.png",4,"right","right",0.784999847,1,1,1
"505",62,498,0.9,"stim/32.jpeg",3,2,3,2,"Instruments",2,"stim/objects/Instruments/frenchhorn.png",4,"right","right",0.243999958,1,1,1
"506",62,499,0.9,"stim/43.jpeg",4,3,3,2,"HouseObjects",1,"stim/objects/HouseObjects/doormat.png",1,"left","left",0.109999895,1,1,1
"507",62,500,0.5,"stim/64.jpeg",6,4,1,2,"HouseObjects",1,"stim/objects/HouseObjects/clock.png",1,"left","right",0.205000162,0,0,1
"508",62,501,0.9,"stim/41.jpeg",4,1,3,1,"HouseObjects",1,"stim/objects/HouseObjects/vacuumcleaner2.png",2,"left","left",0.282999992,1,1,1
"509",62,502,0.9,"stim/44.jpeg",4,4,3,1,"HouseObjects",1,"stim/objects/HouseObjects/spraybottle2.png",1,"left","left",0.554000139,1,1,1
"510",62,503,0.9,"stim/31.jpeg",3,1,3,2,"Instruments",2,"stim/objects/Instruments/flutetrans.png",1,"right","right",0.298000097,1,1,1
"511",62,504,0.5,"stim/63.jpeg",6,3,1,1,"Instruments",2,"stim/objects/Instruments/triangle.png",4,"right","right",0.335000038,1,1,1
"512",62,505,0.9,"stim/32.jpeg",3,2,3,2,"Instruments",2,"stim/objects/Instruments/flutetrans.png",1,"right","right",0.268000126,1,1,1
"513",62,506,0.1,"stim/44.jpeg",4,4,3,1,"Instruments",2,"stim/objects/Instruments/trumpet2.png",1,"right","right",0.36500001,1,1,1
"514",62,507,0.5,"stim/61.jpeg",6,1,1,2,"Instruments",2,"stim/objects/Instruments/chime.png",3,"right","left",0.148000002,0,0,1
"515",62,508,0.5,"stim/64.jpeg",6,4,1,1,"Instruments",2,"stim/objects/Instruments/speaker.png",1,"right","left",0.381000042,0,0,1
"516",62,509,0.5,"stim/51.jpeg",5,1,1,2,"HouseObjects",1,"stim/objects/HouseObjects/bleachbottle.png",4,"left","right",0.177000046,0,0,1
"517",62,510,0.9,"stim/44.jpeg",4,4,3,2,"HouseObjects",1,"stim/objects/HouseObjects/garbagebin.png",3,"left","right",0.167999983,0,0,1
"518",62,511,0.5,"stim/51.jpeg",5,1,1,2,"Instruments",2,"stim/objects/Instruments/bassdrum.png",3,"right","left",0.105999947,0,0,1
"519",62,512,0.9,"stim/31.jpeg",3,1,3,1,"Instruments",2,"stim/objects/Instruments/harmonica2.png",1,"right","left",0.580999851,0,0,1
"520",62,513,0.9,"stim/33.jpeg",3,3,3,2,"Instruments",2,"stim/objects/Instruments/grandpiano.png",4,"right","right",0.243999958,1,1,1
"521",62,514,0.5,"stim/63.jpeg",6,3,1,2,"HouseObjects",1,"stim/objects/HouseObjects/bucket.png",2,"left","right",0.289000034,0,0,1
"522",62,515,0.9,"stim/31.jpeg",3,1,3,2,"Instruments",2,"stim/objects/Instruments/flutetrans.png",3,"right","right",0.220999956,1,1,1
"523",62,516,0.3,"stim/13.jpeg",1,3,2,1,"HouseObjects",1,"stim/objects/HouseObjects/towel.png",1,"left","left",0.161999941,1,1,1
"524",62,517,0.9,"stim/34.jpeg",3,4,3,1,"Instruments",2,"stim/objects/Instruments/saxophone2.png",2,"right","right",0.390000105,1,1,1
"525",62,518,0.5,"stim/51.jpeg",5,1,1,2,"HouseObjects",1,"stim/objects/HouseObjects/ashtray.png",3,"left","left",0.394999981,1,1,1
"526",62,519,0.9,"stim/32.jpeg",3,2,3,2,"Instruments",2,"stim/objects/Instruments/flutetrans.png",1,"right","right",0.253000021,1,1,1
"527",62,520,0.9,"stim/33.jpeg",3,3,3,2,"Instruments",2,"stim/objects/Instruments/frenchhorn.png",4,"right","left",0.236999989,0,0,1
"528",62,521,0.5,"stim/64.jpeg",6,4,1,1,"Instruments",2,"stim/objects/Instruments/trombone.png",1,"right","right",0.661000013,1,1,1
"529",62,522,0.7,"stim/11.jpeg",1,1,2,2,"Instruments",2,"stim/objects/Instruments/drums.png",4,"right","right",0.619000196,1,1,1
"530",62,523,0.5,"stim/61.jpeg",6,1,1,1,"Instruments",2,"stim/objects/Instruments/tambourine.png",2,"right","left",0.422999859,0,0,1
"531",62,524,0.3,"stim/23.jpeg",2,3,2,1,"Instruments",2,"stim/objects/Instruments/cello2.png",3,"right","left",0.410000086,0,0,1
"532",62,525,0.9,"stim/42.jpeg",4,2,3,2,"HouseObjects",1,"stim/objects/HouseObjects/dustpan.png",4,"left","right",0.200000048,0,0,1
"533",62,526,0.9,"stim/41.jpeg",4,1,3,2,"HouseObjects",1,"stim/objects/HouseObjects/dustpan.png",2,"left","left",0.345000029,1,1,1
"534",62,527,0.9,"stim/42.jpeg",4,2,3,2,"HouseObjects",1,"stim/objects/HouseObjects/flyswatter.png",2,"left","right",0.31099987,0,0,1
"535",62,528,0.9,"stim/31.jpeg",3,1,3,2,"Instruments",2,"stim/objects/Instruments/gong.png",3,"right","right",0.398000002,1,1,1
"536",62,529,0.9,"stim/43.jpeg",4,3,3,2,"HouseObjects",1,"stim/objects/HouseObjects/dustpan.png",2,"left","right",0.249000072,0,0,1
"537",62,530,0.3,"stim/22.jpeg",2,2,2,1,"Instruments",2,"stim/objects/Instruments/electricdrumset2.png",2,"right","left",0.229000092,0,0,1
"538",62,531,0.9,"stim/41.jpeg",4,1,3,2,"HouseObjects",1,"stim/objects/HouseObjects/flyswatter.png",1,"left","right",0.165999889,0,0,1
"539",62,532,0.5,"stim/52.jpeg",5,2,1,2,"HouseObjects",1,"stim/objects/HouseObjects/ballofstring.png",2,"left","left",0.243999958,1,1,1
"540",62,533,0.1,"stim/44.jpeg",4,4,3,1,"Instruments",2,"stim/objects/Instruments/tambourine2.png",4,"right","left",0.227999926,0,0,1
"541",62,534,0.9,"stim/34.jpeg",3,4,3,2,"Instruments",2,"stim/objects/Instruments/frenchhorn.png",4,"right","right",0.167000055,1,1,1
"542",62,535,0.5,"stim/52.jpeg",5,2,1,1,"HouseObjects",1,"stim/objects/HouseObjects/handvacuum.png",4,"left","right",0.243000031,0,0,1
"543",62,536,0.9,"stim/33.jpeg",3,3,3,2,"Instruments",2,"stim/objects/Instruments/flute.png",2,"right","left",0.273999929,0,0,1
"544",62,537,0.9,"stim/33.jpeg",3,3,3,1,"Instruments",2,"stim/objects/Instruments/flute2.png",4,"right","right",0.197999954,1,1,1
"545",62,538,0.3,"stim/12.jpeg",1,2,2,1,"HouseObjects",1,"stim/objects/HouseObjects/ashtray2.png",2,"left","right",0.226000071,0,0,1
"546",62,539,0.3,"stim/11.jpeg",1,1,2,1,"HouseObjects",1,"stim/objects/HouseObjects/basket2.png",2,"left","right",0.213000059,0,0,1
"547",62,540,0.5,"stim/53.jpeg",5,3,1,2,"HouseObjects",1,"stim/objects/HouseObjects/ballofstring.png",3,"left","left",0.008000135,1,1,1
"548",62,541,0.9,"stim/42.jpeg",4,2,3,2,"HouseObjects",1,"stim/objects/HouseObjects/garbagebin.png",4,"left","left",0.200999975,1,1,1
"549",62,542,0.9,"stim/34.jpeg",3,4,3,2,"Instruments",2,"stim/objects/Instruments/grandpiano.png",4,"right","left",0.281999826,0,0,1
"550",62,543,0.9,"stim/42.jpeg",4,2,3,1,"HouseObjects",1,"stim/objects/HouseObjects/scale2.png",4,"left","right",0.129999876,0,0,1
"551",62,544,0.7,"stim/22.jpeg",2,2,2,1,"HouseObjects",1,"stim/objects/HouseObjects/clothespin2.png",3,"left","right",0.18900013,0,0,1
"552",62,545,0.9,"stim/31.jpeg",3,1,3,2,"Instruments",2,"stim/objects/Instruments/flutetrans.png",3,"right","right",0.335999966,1,1,1
"553",62,546,0.7,"stim/12.jpeg",1,2,2,2,"Instruments",2,"stim/objects/Instruments/doublebass.png",1,"right","right",0.597000122,1,1,1
"554",62,547,0.9,"stim/34.jpeg",3,4,3,2,"Instruments",2,"stim/objects/Instruments/flute.png",1,"right","right",0.646999836,1,1,1
"555",62,548,0.5,"stim/53.jpeg",5,3,1,1,"HouseObjects",1,"stim/objects/HouseObjects/safetypin.png",3,"left","right",0.588000059,0,0,1
"556",62,549,0.9,"stim/43.jpeg",4,3,3,2,"HouseObjects",1,"stim/objects/HouseObjects/flyswatter.png",4,"left","left",0.643000126,1,1,1
"557",62,550,0.7,"stim/24.jpeg",2,4,2,2,"HouseObjects",1,"stim/objects/HouseObjects/coffee.png",4,"left","left",0.419999838,1,1,1
"558",62,551,0.9,"stim/34.jpeg",3,4,3,2,"Instruments",2,"stim/objects/Instruments/flute.png",2,"right","left",0.614000082,0,0,1
"559",62,552,0.9,"stim/31.jpeg",3,1,3,2,"Instruments",2,"stim/objects/Instruments/frenchhorn.png",1,"right","left",0.585999966,0,0,1
"560",62,553,0.9,"stim/42.jpeg",4,2,3,2,"HouseObjects",1,"stim/objects/HouseObjects/flyswatter.png",3,"left","",NA,0,0,1
"561",62,554,0.1,"stim/33.jpeg",3,3,3,1,"HouseObjects",1,"stim/objects/HouseObjects/flyswatter2.png",3,"left","right",0.302999973,0,0,1
"562",62,555,0.5,"stim/64.jpeg",6,4,1,1,"HouseObjects",1,"stim/objects/HouseObjects/spraybottle.png",3,"left","left",0.335000038,1,1,1
"563",62,556,0.7,"stim/21.jpeg",2,1,2,1,"HouseObjects",1,"stim/objects/HouseObjects/bottle2.png",1,"left","left",0.171000004,1,1,1
"564",62,557,0.1,"stim/43.jpeg",4,3,3,1,"Instruments",2,"stim/objects/Instruments/vuvuzela2.png",3,"right","left",0.211999893,0,0,1
"565",62,558,0.7,"stim/21.jpeg",2,1,2,2,"HouseObjects",1,"stim/objects/HouseObjects/coffee.png",3,"left","right",0.332000017,0,0,1
"566",62,559,0.1,"stim/31.jpeg",3,1,3,1,"HouseObjects",1,"stim/objects/HouseObjects/doormat2.png",1,"left","right",0.148000002,0,0,1
"567",62,560,0.9,"stim/32.jpeg",3,2,3,2,"Instruments",2,"stim/objects/Instruments/flute.png",2,"right","right",0.243999958,1,1,1
"568",62,561,0.9,"stim/32.jpeg",3,2,3,2,"Instruments",2,"stim/objects/Instruments/flute.png",2,"right","right",0.167999983,1,1,1
"569",62,562,0.9,"stim/43.jpeg",4,3,3,2,"HouseObjects",1,"stim/objects/HouseObjects/dustpan.png",2,"left","right",0.312000036,0,0,1
"570",62,563,0.7,"stim/21.jpeg",2,1,2,2,"HouseObjects",1,"stim/objects/HouseObjects/dishsoap.png",3,"left","right",0.244999886,0,0,1
"571",62,564,0.1,"stim/43.jpeg",4,3,3,1,"Instruments",2,"stim/objects/Instruments/trombone2.png",4,"right","right",0.198999882,1,1,1
"572",62,565,0.9,"stim/31.jpeg",3,1,3,2,"Instruments",2,"stim/objects/Instruments/gong.png",4,"right","right",0.263000011,1,1,1
"573",62,566,0.3,"stim/24.jpeg",2,4,2,1,"Instruments",2,"stim/objects/Instruments/chime2.png",1,"right","right",0.230000019,1,1,1
"574",62,567,0.9,"stim/32.jpeg",3,2,3,2,"Instruments",2,"stim/objects/Instruments/flute.png",4,"right","right",0.312999964,1,1,1
"575",62,568,0.9,"stim/31.jpeg",3,1,3,2,"Instruments",2,"stim/objects/Instruments/grandpiano.png",4,"right","left",0.391000032,0,0,1
"576",62,569,0.9,"stim/33.jpeg",3,3,3,2,"Instruments",2,"stim/objects/Instruments/gong.png",2,"right","left",0.392999887,0,0,1
"577",62,570,0.9,"stim/34.jpeg",3,4,3,2,"Instruments",2,"stim/objects/Instruments/gong.png",3,"right","left",0.677000046,0,0,1
