"","obj_file","X.x","participant.x","trialN.x","trial_cond","scn_file.x","scn_cat","scn_inst","scn_condition","fillers","obj_cat","obj_cat_num","quadrant","corr_ans","key_resp_trial.keys","key_resp_trial.rt","trial_acc","trial_acc_manual","group.x","practice","X.y","participant.y","OvsN","PE_level","object_cat","scn_file.y","corr_scn_cat","corr_scn_inst","scn_file.1","corr_loc","key_resp_id.keys","key_resp_id.rt","key_resp_conf.keys","key_resp_assoc.keys","key_resp_assoc.rt","key_resp_loc.keys","key_resp_loc.rt","trialN.y","id_acc","assoc.acc","cond_assoc","loc.acc","cond_loc","group.y"
"145","stim/objects/Instruments/marimba.png",1,62,1,0.5,"stim/54.jpeg",5,4,1,NA,"Instruments",2,2,"right","",NA,0,0,0,1,NA,NA,NA,NA,NA,NA,NA,NA,NA,NA,NA,NA,NA,NA,NA,NA,NA,NA,NA,NA,NA,NA,NA,NA
"42","stim/objects/HouseObjects/knife2.png",2,62,2,0.7,"stim/24.jpeg",2,4,2,NA,"HouseObjects",1,4,"left","right",0.388000011,0,0,0,1,NA,NA,NA,NA,NA,NA,NA,NA,NA,NA,NA,NA,NA,NA,NA,NA,NA,NA,NA,NA,NA,NA,NA,NA
"55","stim/objects/HouseObjects/match.png",3,62,3,0.5,"stim/62.jpeg",6,2,1,NA,"HouseObjects",1,3,"left","left",0.291000128,1,1,0,1,NA,NA,NA,NA,NA,NA,NA,NA,NA,NA,NA,NA,NA,NA,NA,NA,NA,NA,NA,NA,NA,NA,NA,NA
"1","stim/objects/HouseObjects/iron.png",4,62,4,0.5,"stim/51.jpeg",5,1,1,NA,"HouseObjects",1,1,"left","right",0.375999928,0,0,0,1,NA,NA,NA,NA,NA,NA,NA,NA,NA,NA,NA,NA,NA,NA,NA,NA,NA,NA,NA,NA,NA,NA,NA,NA
"158","stim/objects/Instruments/metronome2.png",5,62,5,0.9,"stim/31.jpeg",3,1,3,NA,"Instruments",2,1,"right","left",0.292000055,0,0,0,1,NA,NA,NA,NA,NA,NA,NA,NA,NA,NA,NA,NA,NA,NA,NA,NA,NA,NA,NA,NA,NA,NA,NA,NA
"109","stim/objects/HouseObjects/rug.png",6,62,6,0.3,"stim/14.jpeg",1,4,2,NA,"HouseObjects",1,4,"left","right",0.467999935,0,0,0,1,NA,NA,NA,NA,NA,NA,NA,NA,NA,NA,NA,NA,NA,NA,NA,NA,NA,NA,NA,NA,NA,NA,NA,NA
"67","stim/objects/HouseObjects/pitcher.png",7,62,7,0.5,"stim/64.jpeg",6,4,1,NA,"HouseObjects",1,3,"left","right",0.284999847,0,0,0,1,NA,NA,NA,NA,NA,NA,NA,NA,NA,NA,NA,NA,NA,NA,NA,NA,NA,NA,NA,NA,NA,NA,NA,NA
"153","stim/objects/Instruments/metronome.png",8,62,8,0.5,"stim/61.jpeg",6,1,1,NA,"Instruments",2,2,"right","left",0.387000084,0,0,0,1,NA,NA,NA,NA,NA,NA,NA,NA,NA,NA,NA,NA,NA,NA,NA,NA,NA,NA,NA,NA,NA,NA,NA,NA
"225","stim/objects/Instruments/record_player.png",9,62,9,0.7,"stim/14.jpeg",1,4,2,NA,"Instruments",2,4,"right","right",0.396000147,1,1,0,1,NA,NA,NA,NA,NA,NA,NA,NA,NA,NA,NA,NA,NA,NA,NA,NA,NA,NA,NA,NA,NA,NA,NA,NA
"195","stim/objects/Instruments/oboe.png",10,62,10,0.5,"stim/64.jpeg",6,4,1,NA,"Instruments",2,1,"right","right",0.280999899,1,1,0,1,NA,NA,NA,NA,NA,NA,NA,NA,NA,NA,NA,NA,NA,NA,NA,NA,NA,NA,NA,NA,NA,NA,NA,NA
"6","stim/objects/HouseObjects/iron2.png",11,62,11,0.7,"stim/21.jpeg",2,1,2,NA,"HouseObjects",1,3,"left","left",0.279000044,1,1,0,1,NA,NA,NA,NA,NA,NA,NA,NA,NA,NA,NA,NA,NA,NA,NA,NA,NA,NA,NA,NA,NA,NA,NA,NA
"112","stim/objects/HouseObjects/rug2.png",12,62,12,0.9,"stim/44.jpeg",4,4,3,NA,"HouseObjects",1,4,"left","right",0.397000074,0,0,0,1,NA,NA,NA,NA,NA,NA,NA,NA,NA,NA,NA,NA,NA,NA,NA,NA,NA,NA,NA,NA,NA,NA,NA,NA
"97","stim/objects/HouseObjects/rubbergloves.png",13,62,13,0.3,"stim/13.jpeg",1,3,2,NA,"HouseObjects",1,4,"left","right",0.601000071,0,0,0,1,NA,NA,NA,NA,NA,NA,NA,NA,NA,NA,NA,NA,NA,NA,NA,NA,NA,NA,NA,NA,NA,NA,NA,NA
"88","stim/objects/HouseObjects/remote2.png",14,62,14,0.9,"stim/42.jpeg",4,2,3,NA,"HouseObjects",1,3,"left","left",0.308000088,1,1,0,1,NA,NA,NA,NA,NA,NA,NA,NA,NA,NA,NA,NA,NA,NA,NA,NA,NA,NA,NA,NA,NA,NA,NA,NA
"129","stim/objects/Instruments/laud.png",15,62,15,0.5,"stim/52.jpeg",5,2,1,NA,"Instruments",2,4,"right","left",0.510999918,0,0,0,1,NA,NA,NA,NA,NA,NA,NA,NA,NA,NA,NA,NA,NA,NA,NA,NA,NA,NA,NA,NA,NA,NA,NA,NA
"209","stim/objects/Instruments/panflute.png",16,62,16,0.7,"stim/11.jpeg",1,1,2,NA,"Instruments",2,3,"right","left",0.194999933,0,0,0,1,NA,NA,NA,NA,NA,NA,NA,NA,NA,NA,NA,NA,NA,NA,NA,NA,NA,NA,NA,NA,NA,NA,NA,NA
"30","stim/objects/HouseObjects/key2.png",17,62,17,0.7,"stim/23.jpeg",2,3,2,NA,"HouseObjects",1,1,"left","right",0.104999781,0,0,0,1,NA,NA,NA,NA,NA,NA,NA,NA,NA,NA,NA,NA,NA,NA,NA,NA,NA,NA,NA,NA,NA,NA,NA,NA
"7","stim/objects/HouseObjects/iron2.png",18,62,18,0.7,"stim/21.jpeg",2,1,2,NA,"HouseObjects",1,2,"left","right",0.536999941,0,0,0,1,NA,NA,NA,NA,NA,NA,NA,NA,NA,NA,NA,NA,NA,NA,NA,NA,NA,NA,NA,NA,NA,NA,NA,NA
"172","stim/objects/Instruments/musicsheet2.png",19,62,19,0.9,"stim/32.jpeg",3,2,3,NA,"Instruments",2,4,"right","left",0.05099988,0,0,0,1,NA,NA,NA,NA,NA,NA,NA,NA,NA,NA,NA,NA,NA,NA,NA,NA,NA,NA,NA,NA,NA,NA,NA,NA
"89","stim/objects/HouseObjects/remote2.png",20,62,20,0.9,"stim/42.jpeg",4,2,3,NA,"HouseObjects",1,2,"left","left",0.304999828,1,1,0,1,NA,NA,NA,NA,NA,NA,NA,NA,NA,NA,NA,NA,NA,NA,NA,NA,NA,NA,NA,NA,NA,NA,NA,NA
"13","stim/objects/HouseObjects/ironingboard.png",21,62,21,0.5,"stim/52.jpeg",5,2,1,NA,"HouseObjects",1,2,"left","",NA,0,0,0,1,NA,NA,NA,NA,NA,NA,NA,NA,NA,NA,NA,NA,NA,NA,NA,NA,NA,NA,NA,NA,NA,NA,NA,NA
"226","stim/objects/Instruments/record_player.png",22,62,22,0.7,"stim/14.jpeg",1,4,2,NA,"Instruments",2,3,"right","left",0.426999807,0,0,0,1,NA,NA,NA,NA,NA,NA,NA,NA,NA,NA,NA,NA,NA,NA,NA,NA,NA,NA,NA,NA,NA,NA,NA,NA
"167","stim/objects/Instruments/musicsheet.png",23,62,23,0.5,"stim/62.jpeg",6,2,1,NA,"Instruments",2,1,"right","right",0.488000154,1,1,0,1,NA,NA,NA,NA,NA,NA,NA,NA,NA,NA,NA,NA,NA,NA,NA,NA,NA,NA,NA,NA,NA,NA,NA,NA
"68","stim/objects/HouseObjects/pitcher.png",24,62,24,0.5,"stim/64.jpeg",6,4,1,NA,"HouseObjects",1,4,"left","right",0.360000134,0,0,0,1,NA,NA,NA,NA,NA,NA,NA,NA,NA,NA,NA,NA,NA,NA,NA,NA,NA,NA,NA,NA,NA,NA,NA,NA
"14","stim/objects/HouseObjects/ironingboard.png",25,62,25,0.5,"stim/52.jpeg",5,2,1,NA,"HouseObjects",1,1,"left","left",0.259000063,1,1,0,1,NA,NA,NA,NA,NA,NA,NA,NA,NA,NA,NA,NA,NA,NA,NA,NA,NA,NA,NA,NA,NA,NA,NA,NA
"56","stim/objects/HouseObjects/match.png",26,62,26,0.5,"stim/62.jpeg",6,2,1,NA,"HouseObjects",1,4,"left","left",0.463999987,1,1,0,1,NA,NA,NA,NA,NA,NA,NA,NA,NA,NA,NA,NA,NA,NA,NA,NA,NA,NA,NA,NA,NA,NA,NA,NA
"18","stim/objects/HouseObjects/ironingboard2.png",27,62,27,0.7,"stim/22.jpeg",2,2,2,NA,"HouseObjects",1,3,"left","left",0.513999939,1,1,0,1,NA,NA,NA,NA,NA,NA,NA,NA,NA,NA,NA,NA,NA,NA,NA,NA,NA,NA,NA,NA,NA,NA,NA,NA
"8","stim/objects/HouseObjects/iron2.png",28,62,28,0.7,"stim/21.jpeg",2,1,2,NA,"HouseObjects",1,1,"left","left",0.575999975,1,1,0,1,NA,NA,NA,NA,NA,NA,NA,NA,NA,NA,NA,NA,NA,NA,NA,NA,NA,NA,NA,NA,NA,NA,NA,NA
"173","stim/objects/Instruments/musicsheet2.png",29,62,29,0.9,"stim/32.jpeg",3,2,3,NA,"Instruments",2,4,"right","left",0.511999846,0,0,0,1,NA,NA,NA,NA,NA,NA,NA,NA,NA,NA,NA,NA,NA,NA,NA,NA,NA,NA,NA,NA,NA,NA,NA,NA
"2","stim/objects/HouseObjects/iron.png",30,62,30,0.5,"stim/51.jpeg",5,1,1,NA,"HouseObjects",1,1,"left","right",0.57799983,0,0,0,1,NA,NA,NA,NA,NA,NA,NA,NA,NA,NA,NA,NA,NA,NA,NA,NA,NA,NA,NA,NA,NA,NA,NA,NA
"100","stim/objects/HouseObjects/rubbergloves2.png",31,62,31,0.9,"stim/43.jpeg",4,3,3,NA,"HouseObjects",1,2,"left","left",0.455999851,1,1,0,1,NA,NA,NA,NA,NA,NA,NA,NA,NA,NA,NA,NA,NA,NA,NA,NA,NA,NA,NA,NA,NA,NA,NA,NA
"210","stim/objects/Instruments/panflute.png",32,62,32,0.7,"stim/11.jpeg",1,1,2,NA,"Instruments",2,1,"right","left",0.383000135,0,0,0,1,NA,NA,NA,NA,NA,NA,NA,NA,NA,NA,NA,NA,NA,NA,NA,NA,NA,NA,NA,NA,NA,NA,NA,NA
"134","stim/objects/Instruments/laud2.png",33,62,33,0.3,"stim/22.jpeg",2,2,2,NA,"Instruments",2,3,"right","right",0.402999878,1,1,0,1,NA,NA,NA,NA,NA,NA,NA,NA,NA,NA,NA,NA,NA,NA,NA,NA,NA,NA,NA,NA,NA,NA,NA,NA
"37","stim/objects/HouseObjects/knife.png",34,62,34,0.5,"stim/54.jpeg",5,4,1,NA,"HouseObjects",1,1,"left","right",0.404000044,0,0,0,1,NA,NA,NA,NA,NA,NA,NA,NA,NA,NA,NA,NA,NA,NA,NA,NA,NA,NA,NA,NA,NA,NA,NA,NA
"186","stim/objects/Instruments/musicstand2.png",35,62,35,0.9,"stim/33.jpeg",3,3,3,NA,"Instruments",2,2,"right","left",0.372999907,0,0,0,1,NA,NA,NA,NA,NA,NA,NA,NA,NA,NA,NA,NA,NA,NA,NA,NA,NA,NA,NA,NA,NA,NA,NA,NA
"137","stim/objects/Instruments/maraca.png",36,62,36,0.5,"stim/53.jpeg",5,3,1,NA,"Instruments",2,4,"right","right",0.365999937,1,1,0,1,NA,NA,NA,NA,NA,NA,NA,NA,NA,NA,NA,NA,NA,NA,NA,NA,NA,NA,NA,NA,NA,NA,NA,NA
"142","stim/objects/Instruments/maraca2.png",37,62,37,0.3,"stim/23.jpeg",2,3,2,NA,"Instruments",2,1,"right","left",0.308000088,0,0,0,1,NA,NA,NA,NA,NA,NA,NA,NA,NA,NA,NA,NA,NA,NA,NA,NA,NA,NA,NA,NA,NA,NA,NA,NA
"76","stim/objects/HouseObjects/recyclingbin2.png",38,62,38,0.9,"stim/41.jpeg",4,1,3,NA,"HouseObjects",1,1,"left","right",0.34100008,0,0,0,1,NA,NA,NA,NA,NA,NA,NA,NA,NA,NA,NA,NA,NA,NA,NA,NA,NA,NA,NA,NA,NA,NA,NA,NA
"143","stim/objects/Instruments/maraca2.png",39,62,39,0.3,"stim/23.jpeg",2,3,2,NA,"Instruments",2,1,"right","left",0.33100009,0,0,0,1,NA,NA,NA,NA,NA,NA,NA,NA,NA,NA,NA,NA,NA,NA,NA,NA,NA,NA,NA,NA,NA,NA,NA,NA
"101","stim/objects/HouseObjects/rubbergloves2.png",40,62,40,0.9,"stim/43.jpeg",4,3,3,NA,"HouseObjects",1,1,"left","right",0.333999872,0,0,0,1,NA,NA,NA,NA,NA,NA,NA,NA,NA,NA,NA,NA,NA,NA,NA,NA,NA,NA,NA,NA,NA,NA,NA,NA
"174","stim/objects/Instruments/musicsheet2.png",41,62,41,0.9,"stim/32.jpeg",3,2,3,NA,"Instruments",2,4,"right","left",0.312000036,0,0,0,1,NA,NA,NA,NA,NA,NA,NA,NA,NA,NA,NA,NA,NA,NA,NA,NA,NA,NA,NA,NA,NA,NA,NA,NA
"200","stim/objects/Instruments/oboe2.png",42,62,42,0.9,"stim/34.jpeg",3,4,3,NA,"Instruments",2,2,"right","right",0.277000189,1,1,0,1,NA,NA,NA,NA,NA,NA,NA,NA,NA,NA,NA,NA,NA,NA,NA,NA,NA,NA,NA,NA,NA,NA,NA,NA
"90","stim/objects/HouseObjects/remote2.png",43,62,43,0.9,"stim/42.jpeg",4,2,3,NA,"HouseObjects",1,3,"left","right",0.301000118,0,0,0,1,NA,NA,NA,NA,NA,NA,NA,NA,NA,NA,NA,NA,NA,NA,NA,NA,NA,NA,NA,NA,NA,NA,NA,NA
"54","stim/objects/HouseObjects/lintroller2.png",44,62,44,0.1,"stim/31.jpeg",3,1,3,NA,"HouseObjects",1,4,"left","left",0.469000101,1,1,0,1,NA,NA,NA,NA,NA,NA,NA,NA,NA,NA,NA,NA,NA,NA,NA,NA,NA,NA,NA,NA,NA,NA,NA,NA
"211","stim/objects/Instruments/panflute.png",45,62,45,0.7,"stim/11.jpeg",1,1,2,NA,"Instruments",2,3,"right","left",0.377000093,0,0,0,1,NA,NA,NA,NA,NA,NA,NA,NA,NA,NA,NA,NA,NA,NA,NA,NA,NA,NA,NA,NA,NA,NA,NA,NA
"130","stim/objects/Instruments/laud.png",46,62,46,0.5,"stim/52.jpeg",5,2,1,NA,"Instruments",2,2,"right","right",0.476999998,1,1,0,1,NA,NA,NA,NA,NA,NA,NA,NA,NA,NA,NA,NA,NA,NA,NA,NA,NA,NA,NA,NA,NA,NA,NA,NA
"49","stim/objects/HouseObjects/lintroller.png",47,62,47,0.5,"stim/61.jpeg",6,1,1,NA,"HouseObjects",1,2,"left","right",0.523999929,0,0,0,1,NA,NA,NA,NA,NA,NA,NA,NA,NA,NA,NA,NA,NA,NA,NA,NA,NA,NA,NA,NA,NA,NA,NA,NA
"31","stim/objects/HouseObjects/key2.png",48,62,48,0.7,"stim/23.jpeg",2,3,2,NA,"HouseObjects",1,3,"left","left",0.847000122,1,1,0,1,NA,NA,NA,NA,NA,NA,NA,NA,NA,NA,NA,NA,NA,NA,NA,NA,NA,NA,NA,NA,NA,NA,NA,NA
"135","stim/objects/Instruments/laud2.png",49,62,49,0.3,"stim/22.jpeg",2,2,2,NA,"Instruments",2,4,"right","right",0.482000113,1,1,0,1,NA,NA,NA,NA,NA,NA,NA,NA,NA,NA,NA,NA,NA,NA,NA,NA,NA,NA,NA,NA,NA,NA,NA,NA
"102","stim/objects/HouseObjects/rubbergloves2.png",50,62,50,0.9,"stim/43.jpeg",4,3,3,NA,"HouseObjects",1,4,"left","left",0.792999983,1,1,0,1,NA,NA,NA,NA,NA,NA,NA,NA,NA,NA,NA,NA,NA,NA,NA,NA,NA,NA,NA,NA,NA,NA,NA,NA
"91","stim/objects/HouseObjects/remote2.png",51,62,51,0.9,"stim/42.jpeg",4,2,3,NA,"HouseObjects",1,1,"left","left",0.896000147,1,1,0,1,NA,NA,NA,NA,NA,NA,NA,NA,NA,NA,NA,NA,NA,NA,NA,NA,NA,NA,NA,NA,NA,NA,NA,NA
"232","stim/objects/Instruments/record_player2.png",52,62,52,0.1,"stim/44.jpeg",4,4,3,NA,"Instruments",2,3,"right","left",0.434999943,0,0,0,1,NA,NA,NA,NA,NA,NA,NA,NA,NA,NA,NA,NA,NA,NA,NA,NA,NA,NA,NA,NA,NA,NA,NA,NA
"92","stim/objects/HouseObjects/remote2.png",53,62,53,0.9,"stim/42.jpeg",4,2,3,NA,"HouseObjects",1,1,"left","",NA,0,0,0,1,NA,NA,NA,NA,NA,NA,NA,NA,NA,NA,NA,NA,NA,NA,NA,NA,NA,NA,NA,NA,NA,NA,NA,NA
"187","stim/objects/Instruments/musicstand2.png",54,62,54,0.9,"stim/33.jpeg",3,3,3,NA,"Instruments",2,2,"right","right",0.215999842,1,1,0,1,NA,NA,NA,NA,NA,NA,NA,NA,NA,NA,NA,NA,NA,NA,NA,NA,NA,NA,NA,NA,NA,NA,NA,NA
"233","stim/objects/Instruments/record.png",55,62,55,0.7,"stim/13.jpeg",1,3,2,NA,"Instruments",2,1,"right","right",0.561000109,1,1,0,1,NA,NA,NA,NA,NA,NA,NA,NA,NA,NA,NA,NA,NA,NA,NA,NA,NA,NA,NA,NA,NA,NA,NA,NA
"93","stim/objects/HouseObjects/remote2.png",56,62,56,0.9,"stim/42.jpeg",4,2,3,NA,"HouseObjects",1,1,"left","left",0.578000069,1,1,0,1,NA,NA,NA,NA,NA,NA,NA,NA,NA,NA,NA,NA,NA,NA,NA,NA,NA,NA,NA,NA,NA,NA,NA,NA
"103","stim/objects/HouseObjects/rubbergloves2.png",57,62,57,0.9,"stim/43.jpeg",4,3,3,NA,"HouseObjects",1,3,"left","left",0.601999998,1,1,0,1,NA,NA,NA,NA,NA,NA,NA,NA,NA,NA,NA,NA,NA,NA,NA,NA,NA,NA,NA,NA,NA,NA,NA,NA
"32","stim/objects/HouseObjects/key2.png",58,62,58,0.7,"stim/23.jpeg",2,3,2,NA,"HouseObjects",1,3,"left","left",0.497999907,1,1,0,1,NA,NA,NA,NA,NA,NA,NA,NA,NA,NA,NA,NA,NA,NA,NA,NA,NA,NA,NA,NA,NA,NA,NA,NA
"94","stim/objects/HouseObjects/remote2.png",59,62,59,0.9,"stim/42.jpeg",4,2,3,NA,"HouseObjects",1,2,"left","right",0.552999973,0,0,0,1,NA,NA,NA,NA,NA,NA,NA,NA,NA,NA,NA,NA,NA,NA,NA,NA,NA,NA,NA,NA,NA,NA,NA,NA
"126","stim/objects/Instruments/keyboard2.png",60,62,60,0.3,"stim/21.jpeg",2,1,2,NA,"Instruments",2,2,"right","left",0.315000057,0,0,0,1,NA,NA,NA,NA,NA,NA,NA,NA,NA,NA,NA,NA,NA,NA,NA,NA,NA,NA,NA,NA,NA,NA,NA,NA
"43","stim/objects/HouseObjects/knife2.png",61,62,61,0.7,"stim/24.jpeg",2,4,2,NA,"HouseObjects",1,4,"left","right",0.357000113,0,0,0,1,NA,NA,NA,NA,NA,NA,NA,NA,NA,NA,NA,NA,NA,NA,NA,NA,NA,NA,NA,NA,NA,NA,NA,NA
"175","stim/objects/Instruments/musicsheet2.png",62,62,62,0.9,"stim/32.jpeg",3,2,3,NA,"Instruments",2,4,"right","right",0.267999887,1,1,0,1,NA,NA,NA,NA,NA,NA,NA,NA,NA,NA,NA,NA,NA,NA,NA,NA,NA,NA,NA,NA,NA,NA,NA,NA
"9","stim/objects/HouseObjects/iron2.png",63,62,63,0.7,"stim/21.jpeg",2,1,2,NA,"HouseObjects",1,1,"left","right",0.404999971,0,0,0,1,NA,NA,NA,NA,NA,NA,NA,NA,NA,NA,NA,NA,NA,NA,NA,NA,NA,NA,NA,NA,NA,NA,NA,NA
"85","stim/objects/HouseObjects/remote.png",64,62,64,0.3,"stim/12.jpeg",1,2,2,NA,"HouseObjects",1,2,"left","left",0.345999956,1,1,0,1,NA,NA,NA,NA,NA,NA,NA,NA,NA,NA,NA,NA,NA,NA,NA,NA,NA,NA,NA,NA,NA,NA,NA,NA
"181","stim/objects/Instruments/musicstand.png",65,62,65,0.5,"stim/63.jpeg",6,3,1,NA,"Instruments",2,3,"right","left",0.344000101,0,0,0,1,NA,NA,NA,NA,NA,NA,NA,NA,NA,NA,NA,NA,NA,NA,NA,NA,NA,NA,NA,NA,NA,NA,NA,NA
"3","stim/objects/HouseObjects/iron.png",66,62,66,0.5,"stim/51.jpeg",5,1,1,NA,"HouseObjects",1,2,"left","right",0.683000088,0,0,0,1,NA,NA,NA,NA,NA,NA,NA,NA,NA,NA,NA,NA,NA,NA,NA,NA,NA,NA,NA,NA,NA,NA,NA,NA
"150","stim/objects/Instruments/marimba2.png",67,62,67,0.3,"stim/24.jpeg",2,4,2,NA,"Instruments",2,2,"right","right",0.426000118,1,1,0,1,NA,NA,NA,NA,NA,NA,NA,NA,NA,NA,NA,NA,NA,NA,NA,NA,NA,NA,NA,NA,NA,NA,NA,NA
"77","stim/objects/HouseObjects/recyclingbin2.png",68,62,68,0.9,"stim/41.jpeg",4,1,3,NA,"HouseObjects",1,1,"left","right",0.372999907,0,0,0,1,NA,NA,NA,NA,NA,NA,NA,NA,NA,NA,NA,NA,NA,NA,NA,NA,NA,NA,NA,NA,NA,NA,NA,NA
"159","stim/objects/Instruments/metronome2.png",69,62,69,0.9,"stim/31.jpeg",3,1,3,NA,"Instruments",2,3,"right","left",0.545000076,0,0,0,1,NA,NA,NA,NA,NA,NA,NA,NA,NA,NA,NA,NA,NA,NA,NA,NA,NA,NA,NA,NA,NA,NA,NA,NA
"10","stim/objects/HouseObjects/iron2.png",70,62,70,0.7,"stim/21.jpeg",2,1,2,NA,"HouseObjects",1,1,"left","right",0.437999964,0,0,0,1,NA,NA,NA,NA,NA,NA,NA,NA,NA,NA,NA,NA,NA,NA,NA,NA,NA,NA,NA,NA,NA,NA,NA,NA
"188","stim/objects/Instruments/musicstand2.png",71,62,71,0.9,"stim/33.jpeg",3,3,3,NA,"Instruments",2,2,"right","right",0.242000103,1,1,0,1,NA,NA,NA,NA,NA,NA,NA,NA,NA,NA,NA,NA,NA,NA,NA,NA,NA,NA,NA,NA,NA,NA,NA,NA
"25","stim/objects/HouseObjects/key.png",72,62,72,0.5,"stim/53.jpeg",5,3,1,NA,"HouseObjects",1,4,"left","left",0.249000072,1,1,0,1,NA,NA,NA,NA,NA,NA,NA,NA,NA,NA,NA,NA,NA,NA,NA,NA,NA,NA,NA,NA,NA,NA,NA,NA
"78","stim/objects/HouseObjects/recyclingbin2.png",73,62,73,0.9,"stim/41.jpeg",4,1,3,NA,"HouseObjects",1,1,"left","left",0.305999994,1,1,0,1,NA,NA,NA,NA,NA,NA,NA,NA,NA,NA,NA,NA,NA,NA,NA,NA,NA,NA,NA,NA,NA,NA,NA,NA
"217","stim/objects/Instruments/pipepiano.png",74,62,74,0.7,"stim/12.jpeg",1,2,2,NA,"Instruments",2,1,"right","left",0.429000139,0,0,0,1,NA,NA,NA,NA,NA,NA,NA,NA,NA,NA,NA,NA,NA,NA,NA,NA,NA,NA,NA,NA,NA,NA,NA,NA
"218","stim/objects/Instruments/pipepiano.png",75,62,75,0.7,"stim/12.jpeg",1,2,2,NA,"Instruments",2,1,"right","right",0.5,1,1,0,1,NA,NA,NA,NA,NA,NA,NA,NA,NA,NA,NA,NA,NA,NA,NA,NA,NA,NA,NA,NA,NA,NA,NA,NA
"33","stim/objects/HouseObjects/key2.png",76,62,76,0.7,"stim/23.jpeg",2,3,2,NA,"HouseObjects",1,4,"left","right",0.253000021,0,0,0,1,NA,NA,NA,NA,NA,NA,NA,NA,NA,NA,NA,NA,NA,NA,NA,NA,NA,NA,NA,NA,NA,NA,NA,NA
"176","stim/objects/Instruments/musicsheet2.png",77,62,77,0.9,"stim/32.jpeg",3,2,3,NA,"Instruments",2,3,"right","left",0.664000034,0,0,0,1,NA,NA,NA,NA,NA,NA,NA,NA,NA,NA,NA,NA,NA,NA,NA,NA,NA,NA,NA,NA,NA,NA,NA,NA
"201","stim/objects/Instruments/oboe2.png",78,62,78,0.9,"stim/34.jpeg",3,4,3,NA,"Instruments",2,4,"right","right",0.271999836,1,1,0,1,NA,NA,NA,NA,NA,NA,NA,NA,NA,NA,NA,NA,NA,NA,NA,NA,NA,NA,NA,NA,NA,NA,NA,NA
"4","stim/objects/HouseObjects/iron.png",79,62,79,0.5,"stim/51.jpeg",5,1,1,NA,"HouseObjects",1,3,"left","right",0.315999985,0,0,0,1,NA,NA,NA,NA,NA,NA,NA,NA,NA,NA,NA,NA,NA,NA,NA,NA,NA,NA,NA,NA,NA,NA,NA,NA
"182","stim/objects/Instruments/musicstand.png",80,62,80,0.5,"stim/63.jpeg",6,3,1,NA,"Instruments",2,2,"right","right",0.582000017,1,1,0,1,NA,NA,NA,NA,NA,NA,NA,NA,NA,NA,NA,NA,NA,NA,NA,NA,NA,NA,NA,NA,NA,NA,NA,NA
"34","stim/objects/HouseObjects/key2.png",81,62,81,0.7,"stim/23.jpeg",2,3,2,NA,"HouseObjects",1,2,"left","right",0.497999907,0,0,0,1,NA,NA,NA,NA,NA,NA,NA,NA,NA,NA,NA,NA,NA,NA,NA,NA,NA,NA,NA,NA,NA,NA,NA,NA
"183","stim/objects/Instruments/musicstand.png",82,62,82,0.5,"stim/63.jpeg",6,3,1,NA,"Instruments",2,4,"right","left",0.367000103,0,0,0,1,NA,NA,NA,NA,NA,NA,NA,NA,NA,NA,NA,NA,NA,NA,NA,NA,NA,NA,NA,NA,NA,NA,NA,NA
"121","stim/objects/Instruments/keyboard.png",83,62,83,0.5,"stim/51.jpeg",5,1,1,NA,"Instruments",2,4,"right","left",0.476999998,0,0,0,1,NA,NA,NA,NA,NA,NA,NA,NA,NA,NA,NA,NA,NA,NA,NA,NA,NA,NA,NA,NA,NA,NA,NA,NA
"122","stim/objects/Instruments/keyboard.png",84,62,84,0.5,"stim/51.jpeg",5,1,1,NA,"Instruments",2,4,"right","left",0.626999855,0,0,0,1,NA,NA,NA,NA,NA,NA,NA,NA,NA,NA,NA,NA,NA,NA,NA,NA,NA,NA,NA,NA,NA,NA,NA,NA
"154","stim/objects/Instruments/metronome.png",85,62,85,0.5,"stim/61.jpeg",6,1,1,NA,"Instruments",2,3,"right","right",0.367000103,1,1,0,1,NA,NA,NA,NA,NA,NA,NA,NA,NA,NA,NA,NA,NA,NA,NA,NA,NA,NA,NA,NA,NA,NA,NA,NA
"212","stim/objects/Instruments/panflute.png",86,62,86,0.7,"stim/11.jpeg",1,1,2,NA,"Instruments",2,3,"right","left",0.605000019,0,0,0,1,NA,NA,NA,NA,NA,NA,NA,NA,NA,NA,NA,NA,NA,NA,NA,NA,NA,NA,NA,NA,NA,NA,NA,NA
"131","stim/objects/Instruments/laud.png",87,62,87,0.5,"stim/52.jpeg",5,2,1,NA,"Instruments",2,3,"right","left",0.417000055,0,0,0,1,NA,NA,NA,NA,NA,NA,NA,NA,NA,NA,NA,NA,NA,NA,NA,NA,NA,NA,NA,NA,NA,NA,NA,NA
"160","stim/objects/Instruments/metronome2.png",88,62,88,0.9,"stim/31.jpeg",3,1,3,NA,"Instruments",2,1,"right","right",0.349999905,1,1,0,1,NA,NA,NA,NA,NA,NA,NA,NA,NA,NA,NA,NA,NA,NA,NA,NA,NA,NA,NA,NA,NA,NA,NA,NA
"26","stim/objects/HouseObjects/key.png",89,62,89,0.5,"stim/53.jpeg",5,3,1,NA,"HouseObjects",1,1,"left","right",0.719000101,0,0,0,1,NA,NA,NA,NA,NA,NA,NA,NA,NA,NA,NA,NA,NA,NA,NA,NA,NA,NA,NA,NA,NA,NA,NA,NA
"213","stim/objects/Instruments/panflute.png",90,62,90,0.7,"stim/11.jpeg",1,1,2,NA,"Instruments",2,1,"right","left",0.586999893,0,0,0,1,NA,NA,NA,NA,NA,NA,NA,NA,NA,NA,NA,NA,NA,NA,NA,NA,NA,NA,NA,NA,NA,NA,NA,NA
"155","stim/objects/Instruments/metronome.png",91,62,91,0.5,"stim/61.jpeg",6,1,1,NA,"Instruments",2,3,"right","left",0.907000065,0,0,0,1,NA,NA,NA,NA,NA,NA,NA,NA,NA,NA,NA,NA,NA,NA,NA,NA,NA,NA,NA,NA,NA,NA,NA,NA
"19","stim/objects/HouseObjects/ironingboard2.png",92,62,92,0.7,"stim/22.jpeg",2,2,2,NA,"HouseObjects",1,3,"left","left",0.451999903,1,1,0,1,NA,NA,NA,NA,NA,NA,NA,NA,NA,NA,NA,NA,NA,NA,NA,NA,NA,NA,NA,NA,NA,NA,NA,NA
"113","stim/objects/HouseObjects/rug2.png",93,62,93,0.9,"stim/44.jpeg",4,4,3,NA,"HouseObjects",1,1,"left","right",0.561000109,0,0,0,1,NA,NA,NA,NA,NA,NA,NA,NA,NA,NA,NA,NA,NA,NA,NA,NA,NA,NA,NA,NA,NA,NA,NA,NA
"138","stim/objects/Instruments/maraca.png",94,62,94,0.5,"stim/53.jpeg",5,3,1,NA,"Instruments",2,3,"right","left",0.74000001,0,0,0,1,NA,NA,NA,NA,NA,NA,NA,NA,NA,NA,NA,NA,NA,NA,NA,NA,NA,NA,NA,NA,NA,NA,NA,NA
"61","stim/objects/HouseObjects/pan.png",95,62,95,0.5,"stim/63.jpeg",6,3,1,NA,"HouseObjects",1,1,"left","right",0.383000135,0,0,0,1,NA,NA,NA,NA,NA,NA,NA,NA,NA,NA,NA,NA,NA,NA,NA,NA,NA,NA,NA,NA,NA,NA,NA,NA
"151","stim/objects/Instruments/marimba2.png",96,62,96,0.3,"stim/24.jpeg",2,4,2,NA,"Instruments",2,2,"right","left",0.470999956,0,0,0,1,NA,NA,NA,NA,NA,NA,NA,NA,NA,NA,NA,NA,NA,NA,NA,NA,NA,NA,NA,NA,NA,NA,NA,NA
"146","stim/objects/Instruments/marimba.png",97,62,97,0.5,"stim/54.jpeg",5,4,1,NA,"Instruments",2,2,"right","right",0.349999905,1,1,0,1,NA,NA,NA,NA,NA,NA,NA,NA,NA,NA,NA,NA,NA,NA,NA,NA,NA,NA,NA,NA,NA,NA,NA,NA
"147","stim/objects/Instruments/marimba.png",98,62,98,0.5,"stim/54.jpeg",5,4,1,NA,"Instruments",2,4,"right","left",0.419000149,0,0,0,1,NA,NA,NA,NA,NA,NA,NA,NA,NA,NA,NA,NA,NA,NA,NA,NA,NA,NA,NA,NA,NA,NA,NA,NA
"95","stim/objects/HouseObjects/remote2.png",99,62,99,0.9,"stim/42.jpeg",4,2,3,NA,"HouseObjects",1,3,"left","left",0.354999781,1,1,0,1,NA,NA,NA,NA,NA,NA,NA,NA,NA,NA,NA,NA,NA,NA,NA,NA,NA,NA,NA,NA,NA,NA,NA,NA
"79","stim/objects/HouseObjects/recyclingbin2.png",100,62,100,0.9,"stim/41.jpeg",4,1,3,NA,"HouseObjects",1,3,"left","right",0.441999912,0,0,0,1,NA,NA,NA,NA,NA,NA,NA,NA,NA,NA,NA,NA,NA,NA,NA,NA,NA,NA,NA,NA,NA,NA,NA,NA
"234","stim/objects/Instruments/record.png",101,62,101,0.7,"stim/13.jpeg",1,3,2,NA,"Instruments",2,1,"right","left",0.443000078,0,0,0,1,NA,NA,NA,NA,NA,NA,NA,NA,NA,NA,NA,NA,NA,NA,NA,NA,NA,NA,NA,NA,NA,NA,NA,NA
"114","stim/objects/HouseObjects/rug2.png",102,62,102,0.9,"stim/44.jpeg",4,4,3,NA,"HouseObjects",1,4,"left","right",0.799000025,0,0,0,1,NA,NA,NA,NA,NA,NA,NA,NA,NA,NA,NA,NA,NA,NA,NA,NA,NA,NA,NA,NA,NA,NA,NA,NA
"73","stim/objects/HouseObjects/recyclingbin.png",103,62,103,0.3,"stim/11.jpeg",1,1,2,NA,"HouseObjects",1,1,"left","right",0.86500001,0,0,0,1,NA,NA,NA,NA,NA,NA,NA,NA,NA,NA,NA,NA,NA,NA,NA,NA,NA,NA,NA,NA,NA,NA,NA,NA
"104","stim/objects/HouseObjects/rubbergloves2.png",104,62,104,0.9,"stim/43.jpeg",4,3,3,NA,"HouseObjects",1,2,"left","",NA,0,0,0,1,NA,NA,NA,NA,NA,NA,NA,NA,NA,NA,NA,NA,NA,NA,NA,NA,NA,NA,NA,NA,NA,NA,NA,NA
"69","stim/objects/HouseObjects/pitcher.png",105,62,105,0.5,"stim/64.jpeg",6,4,1,NA,"HouseObjects",1,4,"left","left",0.47300005,1,1,0,1,NA,NA,NA,NA,NA,NA,NA,NA,NA,NA,NA,NA,NA,NA,NA,NA,NA,NA,NA,NA,NA,NA,NA,NA
"184","stim/objects/Instruments/musicstand.png",106,62,106,0.5,"stim/63.jpeg",6,3,1,NA,"Instruments",2,1,"right","right",0.802000046,1,1,0,1,NA,NA,NA,NA,NA,NA,NA,NA,NA,NA,NA,NA,NA,NA,NA,NA,NA,NA,NA,NA,NA,NA,NA,NA
"5","stim/objects/HouseObjects/iron.png",107,62,107,0.5,"stim/51.jpeg",5,1,1,NA,"HouseObjects",1,1,"left","",NA,0,0,0,1,NA,NA,NA,NA,NA,NA,NA,NA,NA,NA,NA,NA,NA,NA,NA,NA,NA,NA,NA,NA,NA,NA,NA,NA
"98","stim/objects/HouseObjects/rubbergloves.png",108,62,108,0.3,"stim/13.jpeg",1,3,2,NA,"HouseObjects",1,4,"left","right",0.269000053,0,0,0,1,NA,NA,NA,NA,NA,NA,NA,NA,NA,NA,NA,NA,NA,NA,NA,NA,NA,NA,NA,NA,NA,NA,NA,NA
"136","stim/objects/Instruments/laud2.png",109,62,109,0.3,"stim/22.jpeg",2,2,2,NA,"Instruments",2,4,"right","left",0.345000029,0,0,0,1,NA,NA,NA,NA,NA,NA,NA,NA,NA,NA,NA,NA,NA,NA,NA,NA,NA,NA,NA,NA,NA,NA,NA,NA
"96","stim/objects/HouseObjects/remote2.png",110,62,110,0.9,"stim/42.jpeg",4,2,3,NA,"HouseObjects",1,4,"left","right",0.295000076,0,0,0,1,NA,NA,NA,NA,NA,NA,NA,NA,NA,NA,NA,NA,NA,NA,NA,NA,NA,NA,NA,NA,NA,NA,NA,NA
"189","stim/objects/Instruments/musicstand2.png",111,62,111,0.9,"stim/33.jpeg",3,3,3,NA,"Instruments",2,2,"right","left",0.371000051,0,0,0,1,NA,NA,NA,NA,NA,NA,NA,NA,NA,NA,NA,NA,NA,NA,NA,NA,NA,NA,NA,NA,NA,NA,NA,NA
"202","stim/objects/Instruments/oboe2.png",112,62,112,0.9,"stim/34.jpeg",3,4,3,NA,"Instruments",2,2,"right","left",0.260999918,0,0,0,1,NA,NA,NA,NA,NA,NA,NA,NA,NA,NA,NA,NA,NA,NA,NA,NA,NA,NA,NA,NA,NA,NA,NA,NA
"216","stim/objects/Instruments/panflute2.png",113,62,113,0.1,"stim/41.jpeg",4,1,3,NA,"Instruments",2,1,"right","right",0.265000105,1,1,0,1,NA,NA,NA,NA,NA,NA,NA,NA,NA,NA,NA,NA,NA,NA,NA,NA,NA,NA,NA,NA,NA,NA,NA,NA
"219","stim/objects/Instruments/pipepiano.png",114,62,114,0.7,"stim/12.jpeg",1,2,2,NA,"Instruments",2,3,"right","left",0.342000008,0,0,0,1,NA,NA,NA,NA,NA,NA,NA,NA,NA,NA,NA,NA,NA,NA,NA,NA,NA,NA,NA,NA,NA,NA,NA,NA
"110","stim/objects/HouseObjects/rug.png",115,62,115,0.3,"stim/14.jpeg",1,4,2,NA,"HouseObjects",1,3,"left","right",0.354000092,0,0,0,1,NA,NA,NA,NA,NA,NA,NA,NA,NA,NA,NA,NA,NA,NA,NA,NA,NA,NA,NA,NA,NA,NA,NA,NA
"86","stim/objects/HouseObjects/remote.png",116,62,116,0.3,"stim/12.jpeg",1,2,2,NA,"HouseObjects",1,2,"left","left",0.426000118,1,1,0,1,NA,NA,NA,NA,NA,NA,NA,NA,NA,NA,NA,NA,NA,NA,NA,NA,NA,NA,NA,NA,NA,NA,NA,NA
"161","stim/objects/Instruments/metronome2.png",117,62,117,0.9,"stim/31.jpeg",3,1,3,NA,"Instruments",2,4,"right","left",0.254999876,0,0,0,1,NA,NA,NA,NA,NA,NA,NA,NA,NA,NA,NA,NA,NA,NA,NA,NA,NA,NA,NA,NA,NA,NA,NA,NA
"20","stim/objects/HouseObjects/ironingboard2.png",118,62,118,0.7,"stim/22.jpeg",2,2,2,NA,"HouseObjects",1,3,"left","left",0.411000013,1,1,0,1,NA,NA,NA,NA,NA,NA,NA,NA,NA,NA,NA,NA,NA,NA,NA,NA,NA,NA,NA,NA,NA,NA,NA,NA
"87","stim/objects/HouseObjects/remote.png",119,62,119,0.3,"stim/12.jpeg",1,2,2,NA,"HouseObjects",1,1,"left","right",0.414999962,0,0,0,1,NA,NA,NA,NA,NA,NA,NA,NA,NA,NA,NA,NA,NA,NA,NA,NA,NA,NA,NA,NA,NA,NA,NA,NA
"224","stim/objects/Instruments/pipepiano2.png",120,62,120,0.1,"stim/42.jpeg",4,2,3,NA,"Instruments",2,3,"right","right",0.360000134,1,1,0,1,NA,NA,NA,NA,NA,NA,NA,NA,NA,NA,NA,NA,NA,NA,NA,NA,NA,NA,NA,NA,NA,NA,NA,NA
"21","stim/objects/HouseObjects/ironingboard2.png",121,62,121,0.7,"stim/22.jpeg",2,2,2,NA,"HouseObjects",1,4,"left","left",0.56400013,1,1,0,1,NA,NA,NA,NA,NA,NA,NA,NA,NA,NA,NA,NA,NA,NA,NA,NA,NA,NA,NA,NA,NA,NA,NA,NA
"123","stim/objects/Instruments/keyboard.png",122,62,122,0.5,"stim/51.jpeg",5,1,1,NA,"Instruments",2,4,"right","left",0.578999996,0,0,0,1,NA,NA,NA,NA,NA,NA,NA,NA,NA,NA,NA,NA,NA,NA,NA,NA,NA,NA,NA,NA,NA,NA,NA,NA
"50","stim/objects/HouseObjects/lintroller.png",123,62,123,0.5,"stim/61.jpeg",6,1,1,NA,"HouseObjects",1,2,"left","right",0.475999832,0,0,0,1,NA,NA,NA,NA,NA,NA,NA,NA,NA,NA,NA,NA,NA,NA,NA,NA,NA,NA,NA,NA,NA,NA,NA,NA
"127","stim/objects/Instruments/keyboard2.png",124,62,124,0.3,"stim/21.jpeg",2,1,2,NA,"Instruments",2,4,"right","left",0.297999859,0,0,0,1,NA,NA,NA,NA,NA,NA,NA,NA,NA,NA,NA,NA,NA,NA,NA,NA,NA,NA,NA,NA,NA,NA,NA,NA
"162","stim/objects/Instruments/metronome2.png",125,62,125,0.9,"stim/31.jpeg",3,1,3,NA,"Instruments",2,3,"right","right",0.428999901,1,1,0,1,NA,NA,NA,NA,NA,NA,NA,NA,NA,NA,NA,NA,NA,NA,NA,NA,NA,NA,NA,NA,NA,NA,NA,NA
"235","stim/objects/Instruments/record.png",126,62,126,0.7,"stim/13.jpeg",1,3,2,NA,"Instruments",2,4,"right","right",0.644999981,1,1,0,1,NA,NA,NA,NA,NA,NA,NA,NA,NA,NA,NA,NA,NA,NA,NA,NA,NA,NA,NA,NA,NA,NA,NA,NA
"60","stim/objects/HouseObjects/match2.png",127,62,127,0.1,"stim/32.jpeg",3,2,3,NA,"HouseObjects",1,4,"left","",NA,0,0,0,1,NA,NA,NA,NA,NA,NA,NA,NA,NA,NA,NA,NA,NA,NA,NA,NA,NA,NA,NA,NA,NA,NA,NA,NA
"190","stim/objects/Instruments/musicstand2.png",128,62,128,0.9,"stim/33.jpeg",3,3,3,NA,"Instruments",2,1,"right","right",0.566000223,1,1,0,1,NA,NA,NA,NA,NA,NA,NA,NA,NA,NA,NA,NA,NA,NA,NA,NA,NA,NA,NA,NA,NA,NA,NA,NA
"148","stim/objects/Instruments/marimba.png",129,62,129,0.5,"stim/54.jpeg",5,4,1,NA,"Instruments",2,3,"right","right",0.392999887,1,1,0,1,NA,NA,NA,NA,NA,NA,NA,NA,NA,NA,NA,NA,NA,NA,NA,NA,NA,NA,NA,NA,NA,NA,NA,NA
"163","stim/objects/Instruments/metronome2.png",130,62,130,0.9,"stim/31.jpeg",3,1,3,NA,"Instruments",2,3,"right","right",0.500999928,1,1,0,1,NA,NA,NA,NA,NA,NA,NA,NA,NA,NA,NA,NA,NA,NA,NA,NA,NA,NA,NA,NA,NA,NA,NA,NA
"44","stim/objects/HouseObjects/knife2.png",131,62,131,0.7,"stim/24.jpeg",2,4,2,NA,"HouseObjects",1,4,"left","right",0.342000008,0,0,0,1,NA,NA,NA,NA,NA,NA,NA,NA,NA,NA,NA,NA,NA,NA,NA,NA,NA,NA,NA,NA,NA,NA,NA,NA
"70","stim/objects/HouseObjects/pitcher.png",132,62,132,0.5,"stim/64.jpeg",6,4,1,NA,"HouseObjects",1,3,"left","left",0.437000036,1,1,0,1,NA,NA,NA,NA,NA,NA,NA,NA,NA,NA,NA,NA,NA,NA,NA,NA,NA,NA,NA,NA,NA,NA,NA,NA
"105","stim/objects/HouseObjects/rubbergloves2.png",133,62,133,0.9,"stim/43.jpeg",4,3,3,NA,"HouseObjects",1,2,"left","left",0.344000101,1,1,0,1,NA,NA,NA,NA,NA,NA,NA,NA,NA,NA,NA,NA,NA,NA,NA,NA,NA,NA,NA,NA,NA,NA,NA,NA
"196","stim/objects/Instruments/oboe.png",134,62,134,0.5,"stim/64.jpeg",6,4,1,NA,"Instruments",2,3,"right","left",0.569000006,0,0,0,1,NA,NA,NA,NA,NA,NA,NA,NA,NA,NA,NA,NA,NA,NA,NA,NA,NA,NA,NA,NA,NA,NA,NA,NA
"72","stim/objects/HouseObjects/pitcher2.png",135,62,135,0.1,"stim/34.jpeg",3,4,3,NA,"HouseObjects",1,3,"left","right",0.611999989,0,0,0,1,NA,NA,NA,NA,NA,NA,NA,NA,NA,NA,NA,NA,NA,NA,NA,NA,NA,NA,NA,NA,NA,NA,NA,NA
"177","stim/objects/Instruments/musicsheet2.png",136,62,136,0.9,"stim/32.jpeg",3,2,3,NA,"Instruments",2,4,"right","right",0.424999952,1,1,0,1,NA,NA,NA,NA,NA,NA,NA,NA,NA,NA,NA,NA,NA,NA,NA,NA,NA,NA,NA,NA,NA,NA,NA,NA
"220","stim/objects/Instruments/pipepiano.png",137,62,137,0.7,"stim/12.jpeg",1,2,2,NA,"Instruments",2,1,"right","left",0.374000072,0,0,0,1,NA,NA,NA,NA,NA,NA,NA,NA,NA,NA,NA,NA,NA,NA,NA,NA,NA,NA,NA,NA,NA,NA,NA,NA
"128","stim/objects/Instruments/keyboard2.png",138,62,138,0.3,"stim/21.jpeg",2,1,2,NA,"Instruments",2,4,"right","right",0.541999817,1,1,0,1,NA,NA,NA,NA,NA,NA,NA,NA,NA,NA,NA,NA,NA,NA,NA,NA,NA,NA,NA,NA,NA,NA,NA,NA
"240","stim/objects/Instruments/record2.png",139,62,139,0.1,"stim/43.jpeg",4,3,3,NA,"Instruments",2,3,"right","right",0.28399992,1,1,0,1,NA,NA,NA,NA,NA,NA,NA,NA,NA,NA,NA,NA,NA,NA,NA,NA,NA,NA,NA,NA,NA,NA,NA,NA
"227","stim/objects/Instruments/record_player.png",140,62,140,0.7,"stim/14.jpeg",1,4,2,NA,"Instruments",2,2,"right","right",0.664999962,1,1,0,1,NA,NA,NA,NA,NA,NA,NA,NA,NA,NA,NA,NA,NA,NA,NA,NA,NA,NA,NA,NA,NA,NA,NA,NA
"191","stim/objects/Instruments/musicstand2.png",141,62,141,0.9,"stim/33.jpeg",3,3,3,NA,"Instruments",2,4,"right","right",0.271000147,1,1,0,1,NA,NA,NA,NA,NA,NA,NA,NA,NA,NA,NA,NA,NA,NA,NA,NA,NA,NA,NA,NA,NA,NA,NA,NA
"27","stim/objects/HouseObjects/key.png",142,62,142,0.5,"stim/53.jpeg",5,3,1,NA,"HouseObjects",1,4,"left","right",0.43599987,0,0,0,1,NA,NA,NA,NA,NA,NA,NA,NA,NA,NA,NA,NA,NA,NA,NA,NA,NA,NA,NA,NA,NA,NA,NA,NA
"74","stim/objects/HouseObjects/recyclingbin.png",143,62,143,0.3,"stim/11.jpeg",1,1,2,NA,"HouseObjects",1,4,"left","left",0.163000107,1,1,0,1,NA,NA,NA,NA,NA,NA,NA,NA,NA,NA,NA,NA,NA,NA,NA,NA,NA,NA,NA,NA,NA,NA,NA,NA
"185","stim/objects/Instruments/musicstand.png",144,62,144,0.5,"stim/63.jpeg",6,3,1,NA,"Instruments",2,1,"right","left",0.262000084,0,0,0,1,NA,NA,NA,NA,NA,NA,NA,NA,NA,NA,NA,NA,NA,NA,NA,NA,NA,NA,NA,NA,NA,NA,NA,NA
"228","stim/objects/Instruments/record_player.png",145,62,145,0.7,"stim/14.jpeg",1,4,2,NA,"Instruments",2,3,"right","right",0.233999968,1,1,0,1,NA,NA,NA,NA,NA,NA,NA,NA,NA,NA,NA,NA,NA,NA,NA,NA,NA,NA,NA,NA,NA,NA,NA,NA
"168","stim/objects/Instruments/musicsheet.png",146,62,146,0.5,"stim/62.jpeg",6,2,1,NA,"Instruments",2,2,"right","right",0.238999844,1,1,0,1,NA,NA,NA,NA,NA,NA,NA,NA,NA,NA,NA,NA,NA,NA,NA,NA,NA,NA,NA,NA,NA,NA,NA,NA
"38","stim/objects/HouseObjects/knife.png",147,62,147,0.5,"stim/54.jpeg",5,4,1,NA,"HouseObjects",1,4,"left","right",0.239000082,0,0,0,1,NA,NA,NA,NA,NA,NA,NA,NA,NA,NA,NA,NA,NA,NA,NA,NA,NA,NA,NA,NA,NA,NA,NA,NA
"236","stim/objects/Instruments/record.png",148,62,148,0.7,"stim/13.jpeg",1,3,2,NA,"Instruments",2,2,"right","left",0.268999815,0,0,0,1,NA,NA,NA,NA,NA,NA,NA,NA,NA,NA,NA,NA,NA,NA,NA,NA,NA,NA,NA,NA,NA,NA,NA,NA
"39","stim/objects/HouseObjects/knife.png",149,62,149,0.5,"stim/54.jpeg",5,4,1,NA,"HouseObjects",1,3,"left","right",0.291999817,0,0,0,1,NA,NA,NA,NA,NA,NA,NA,NA,NA,NA,NA,NA,NA,NA,NA,NA,NA,NA,NA,NA,NA,NA,NA,NA
"57","stim/objects/HouseObjects/match.png",150,62,150,0.5,"stim/62.jpeg",6,2,1,NA,"HouseObjects",1,1,"left","left",0.230000019,1,1,0,1,NA,NA,NA,NA,NA,NA,NA,NA,NA,NA,NA,NA,NA,NA,NA,NA,NA,NA,NA,NA,NA,NA,NA,NA
"203","stim/objects/Instruments/oboe2.png",151,62,151,0.9,"stim/34.jpeg",3,4,3,NA,"Instruments",2,1,"right","left",0.237000227,0,0,0,1,NA,NA,NA,NA,NA,NA,NA,NA,NA,NA,NA,NA,NA,NA,NA,NA,NA,NA,NA,NA,NA,NA,NA,NA
"45","stim/objects/HouseObjects/knife2.png",152,62,152,0.7,"stim/24.jpeg",2,4,2,NA,"HouseObjects",1,2,"left","right",0.258999825,0,0,0,1,NA,NA,NA,NA,NA,NA,NA,NA,NA,NA,NA,NA,NA,NA,NA,NA,NA,NA,NA,NA,NA,NA,NA,NA
"132","stim/objects/Instruments/laud.png",153,62,153,0.5,"stim/52.jpeg",5,2,1,NA,"Instruments",2,4,"right","right",0.698999882,1,1,0,1,NA,NA,NA,NA,NA,NA,NA,NA,NA,NA,NA,NA,NA,NA,NA,NA,NA,NA,NA,NA,NA,NA,NA,NA
"28","stim/objects/HouseObjects/key.png",154,62,154,0.5,"stim/53.jpeg",5,3,1,NA,"HouseObjects",1,3,"left","right",0.828999996,0,0,0,1,NA,NA,NA,NA,NA,NA,NA,NA,NA,NA,NA,NA,NA,NA,NA,NA,NA,NA,NA,NA,NA,NA,NA,NA
"115","stim/objects/HouseObjects/rug2.png",155,62,155,0.9,"stim/44.jpeg",4,4,3,NA,"HouseObjects",1,2,"left","left",0.312999964,1,1,0,1,NA,NA,NA,NA,NA,NA,NA,NA,NA,NA,NA,NA,NA,NA,NA,NA,NA,NA,NA,NA,NA,NA,NA,NA
"192","stim/objects/Instruments/musicstand2.png",156,62,156,0.9,"stim/33.jpeg",3,3,3,NA,"Instruments",2,1,"right","",NA,0,0,0,1,NA,NA,NA,NA,NA,NA,NA,NA,NA,NA,NA,NA,NA,NA,NA,NA,NA,NA,NA,NA,NA,NA,NA,NA
"116","stim/objects/HouseObjects/rug2.png",157,62,157,0.9,"stim/44.jpeg",4,4,3,NA,"HouseObjects",1,4,"left","left",0.347000122,1,1,0,1,NA,NA,NA,NA,NA,NA,NA,NA,NA,NA,NA,NA,NA,NA,NA,NA,NA,NA,NA,NA,NA,NA,NA,NA
"22","stim/objects/HouseObjects/ironingboard2.png",158,62,158,0.7,"stim/22.jpeg",2,2,2,NA,"HouseObjects",1,4,"left","right",0.319000006,0,0,0,1,NA,NA,NA,NA,NA,NA,NA,NA,NA,NA,NA,NA,NA,NA,NA,NA,NA,NA,NA,NA,NA,NA,NA,NA
"156","stim/objects/Instruments/metronome.png",159,62,159,0.5,"stim/61.jpeg",6,1,1,NA,"Instruments",2,1,"right","right",0.299000025,1,1,0,1,NA,NA,NA,NA,NA,NA,NA,NA,NA,NA,NA,NA,NA,NA,NA,NA,NA,NA,NA,NA,NA,NA,NA,NA
"178","stim/objects/Instruments/musicsheet2.png",160,62,160,0.9,"stim/32.jpeg",3,2,3,NA,"Instruments",2,1,"right","left",0.507999897,0,0,0,1,NA,NA,NA,NA,NA,NA,NA,NA,NA,NA,NA,NA,NA,NA,NA,NA,NA,NA,NA,NA,NA,NA,NA,NA
"204","stim/objects/Instruments/oboe2.png",161,62,161,0.9,"stim/34.jpeg",3,4,3,NA,"Instruments",2,1,"right","right",0.552000046,1,1,0,1,NA,NA,NA,NA,NA,NA,NA,NA,NA,NA,NA,NA,NA,NA,NA,NA,NA,NA,NA,NA,NA,NA,NA,NA
"106","stim/objects/HouseObjects/rubbergloves2.png",162,62,162,0.9,"stim/43.jpeg",4,3,3,NA,"HouseObjects",1,3,"left","",NA,0,0,0,1,NA,NA,NA,NA,NA,NA,NA,NA,NA,NA,NA,NA,NA,NA,NA,NA,NA,NA,NA,NA,NA,NA,NA,NA
"23","stim/objects/HouseObjects/ironingboard2.png",163,62,163,0.7,"stim/22.jpeg",2,2,2,NA,"HouseObjects",1,1,"left","",NA,0,0,0,1,NA,NA,NA,NA,NA,NA,NA,NA,NA,NA,NA,NA,NA,NA,NA,NA,NA,NA,NA,NA,NA,NA,NA,NA
"62","stim/objects/HouseObjects/pan.png",164,62,164,0.5,"stim/63.jpeg",6,3,1,NA,"HouseObjects",1,3,"left","left",0.778000116,1,1,0,1,NA,NA,NA,NA,NA,NA,NA,NA,NA,NA,NA,NA,NA,NA,NA,NA,NA,NA,NA,NA,NA,NA,NA,NA
"197","stim/objects/Instruments/oboe.png",165,62,165,0.5,"stim/64.jpeg",6,4,1,NA,"Instruments",2,2,"right","right",0.677000046,1,1,0,1,NA,NA,NA,NA,NA,NA,NA,NA,NA,NA,NA,NA,NA,NA,NA,NA,NA,NA,NA,NA,NA,NA,NA,NA
"46","stim/objects/HouseObjects/knife2.png",166,62,166,0.7,"stim/24.jpeg",2,4,2,NA,"HouseObjects",1,3,"left","",NA,0,0,0,1,NA,NA,NA,NA,NA,NA,NA,NA,NA,NA,NA,NA,NA,NA,NA,NA,NA,NA,NA,NA,NA,NA,NA,NA
"75","stim/objects/HouseObjects/recyclingbin.png",167,62,167,0.3,"stim/11.jpeg",1,1,2,NA,"HouseObjects",1,2,"left","left",0.816999912,1,1,0,1,NA,NA,NA,NA,NA,NA,NA,NA,NA,NA,NA,NA,NA,NA,NA,NA,NA,NA,NA,NA,NA,NA,NA,NA
"11","stim/objects/HouseObjects/iron2.png",168,62,168,0.7,"stim/21.jpeg",2,1,2,NA,"HouseObjects",1,2,"left","",NA,0,0,0,1,NA,NA,NA,NA,NA,NA,NA,NA,NA,NA,NA,NA,NA,NA,NA,NA,NA,NA,NA,NA,NA,NA,NA,NA
"205","stim/objects/Instruments/oboe2.png",169,62,169,0.9,"stim/34.jpeg",3,4,3,NA,"Instruments",2,3,"right","left",0.398999929,0,0,0,1,NA,NA,NA,NA,NA,NA,NA,NA,NA,NA,NA,NA,NA,NA,NA,NA,NA,NA,NA,NA,NA,NA,NA,NA
"80","stim/objects/HouseObjects/recyclingbin2.png",170,62,170,0.9,"stim/41.jpeg",4,1,3,NA,"HouseObjects",1,2,"left","right",0.553999901,0,0,0,1,NA,NA,NA,NA,NA,NA,NA,NA,NA,NA,NA,NA,NA,NA,NA,NA,NA,NA,NA,NA,NA,NA,NA,NA
"51","stim/objects/HouseObjects/lintroller.png",171,62,171,0.5,"stim/61.jpeg",6,1,1,NA,"HouseObjects",1,1,"left","left",0.451999903,1,1,0,1,NA,NA,NA,NA,NA,NA,NA,NA,NA,NA,NA,NA,NA,NA,NA,NA,NA,NA,NA,NA,NA,NA,NA,NA
"12","stim/objects/HouseObjects/iron2.png",172,62,172,0.7,"stim/21.jpeg",2,1,2,NA,"HouseObjects",1,1,"left","left",0.40199995,1,1,0,1,NA,NA,NA,NA,NA,NA,NA,NA,NA,NA,NA,NA,NA,NA,NA,NA,NA,NA,NA,NA,NA,NA,NA,NA
"81","stim/objects/HouseObjects/recyclingbin2.png",173,62,173,0.9,"stim/41.jpeg",4,1,3,NA,"HouseObjects",1,1,"left","left",0.380000114,1,1,0,1,NA,NA,NA,NA,NA,NA,NA,NA,NA,NA,NA,NA,NA,NA,NA,NA,NA,NA,NA,NA,NA,NA,NA,NA
"206","stim/objects/Instruments/oboe2.png",174,62,174,0.9,"stim/34.jpeg",3,4,3,NA,"Instruments",2,4,"right","left",0.310000181,0,0,0,1,NA,NA,NA,NA,NA,NA,NA,NA,NA,NA,NA,NA,NA,NA,NA,NA,NA,NA,NA,NA,NA,NA,NA,NA
"124","stim/objects/Instruments/keyboard.png",175,62,175,0.5,"stim/51.jpeg",5,1,1,NA,"Instruments",2,1,"right","right",0.259000063,1,1,0,1,NA,NA,NA,NA,NA,NA,NA,NA,NA,NA,NA,NA,NA,NA,NA,NA,NA,NA,NA,NA,NA,NA,NA,NA
"82","stim/objects/HouseObjects/recyclingbin2.png",176,62,176,0.9,"stim/41.jpeg",4,1,3,NA,"HouseObjects",1,1,"left","right",0.267000198,0,0,0,1,NA,NA,NA,NA,NA,NA,NA,NA,NA,NA,NA,NA,NA,NA,NA,NA,NA,NA,NA,NA,NA,NA,NA,NA
"107","stim/objects/HouseObjects/rubbergloves2.png",177,62,177,0.9,"stim/43.jpeg",4,3,3,NA,"HouseObjects",1,4,"left","right",0.279000044,0,0,0,1,NA,NA,NA,NA,NA,NA,NA,NA,NA,NA,NA,NA,NA,NA,NA,NA,NA,NA,NA,NA,NA,NA,NA,NA
"214","stim/objects/Instruments/panflute.png",178,62,178,0.7,"stim/11.jpeg",1,1,2,NA,"Instruments",2,2,"right","left",0.524999857,0,0,0,1,NA,NA,NA,NA,NA,NA,NA,NA,NA,NA,NA,NA,NA,NA,NA,NA,NA,NA,NA,NA,NA,NA,NA,NA
"237","stim/objects/Instruments/record.png",179,62,179,0.7,"stim/13.jpeg",1,3,2,NA,"Instruments",2,4,"right","left",0.285000086,0,0,0,1,NA,NA,NA,NA,NA,NA,NA,NA,NA,NA,NA,NA,NA,NA,NA,NA,NA,NA,NA,NA,NA,NA,NA,NA
"15","stim/objects/HouseObjects/ironingboard.png",180,62,180,0.5,"stim/52.jpeg",5,2,1,NA,"HouseObjects",1,3,"left","left",0.184999943,1,1,0,1,NA,NA,NA,NA,NA,NA,NA,NA,NA,NA,NA,NA,NA,NA,NA,NA,NA,NA,NA,NA,NA,NA,NA,NA
"29","stim/objects/HouseObjects/key.png",181,62,181,0.5,"stim/53.jpeg",5,3,1,NA,"HouseObjects",1,2,"left","left",0.280999899,1,1,0,1,NA,NA,NA,NA,NA,NA,NA,NA,NA,NA,NA,NA,NA,NA,NA,NA,NA,NA,NA,NA,NA,NA,NA,NA
"179","stim/objects/Instruments/musicsheet2.png",182,62,182,0.9,"stim/32.jpeg",3,2,3,NA,"Instruments",2,3,"right","left",0.427999973,0,0,0,1,NA,NA,NA,NA,NA,NA,NA,NA,NA,NA,NA,NA,NA,NA,NA,NA,NA,NA,NA,NA,NA,NA,NA,NA
"117","stim/objects/HouseObjects/rug2.png",183,62,183,0.9,"stim/44.jpeg",4,4,3,NA,"HouseObjects",1,2,"left","right",0.097000122,0,0,0,1,NA,NA,NA,NA,NA,NA,NA,NA,NA,NA,NA,NA,NA,NA,NA,NA,NA,NA,NA,NA,NA,NA,NA,NA
"152","stim/objects/Instruments/marimba2.png",184,62,184,0.3,"stim/24.jpeg",2,4,2,NA,"Instruments",2,3,"right","left",0.292999983,0,0,0,1,NA,NA,NA,NA,NA,NA,NA,NA,NA,NA,NA,NA,NA,NA,NA,NA,NA,NA,NA,NA,NA,NA,NA,NA
"198","stim/objects/Instruments/oboe.png",185,62,185,0.5,"stim/64.jpeg",6,4,1,NA,"Instruments",2,3,"right","right",0.69900012,1,1,0,1,NA,NA,NA,NA,NA,NA,NA,NA,NA,NA,NA,NA,NA,NA,NA,NA,NA,NA,NA,NA,NA,NA,NA,NA
"40","stim/objects/HouseObjects/knife.png",186,62,186,0.5,"stim/54.jpeg",5,4,1,NA,"HouseObjects",1,4,"left","right",0.572999954,0,0,0,1,NA,NA,NA,NA,NA,NA,NA,NA,NA,NA,NA,NA,NA,NA,NA,NA,NA,NA,NA,NA,NA,NA,NA,NA
"52","stim/objects/HouseObjects/lintroller.png",187,62,187,0.5,"stim/61.jpeg",6,1,1,NA,"HouseObjects",1,4,"left","left",0.440000057,1,1,0,1,NA,NA,NA,NA,NA,NA,NA,NA,NA,NA,NA,NA,NA,NA,NA,NA,NA,NA,NA,NA,NA,NA,NA,NA
"207","stim/objects/Instruments/oboe2.png",188,62,188,0.9,"stim/34.jpeg",3,4,3,NA,"Instruments",2,3,"right","left",0.505000114,0,0,0,1,NA,NA,NA,NA,NA,NA,NA,NA,NA,NA,NA,NA,NA,NA,NA,NA,NA,NA,NA,NA,NA,NA,NA,NA
"180","stim/objects/Instruments/musicsheet2.png",189,62,189,0.9,"stim/32.jpeg",3,2,3,NA,"Instruments",2,4,"right","left",0.311000109,0,0,0,1,NA,NA,NA,NA,NA,NA,NA,NA,NA,NA,NA,NA,NA,NA,NA,NA,NA,NA,NA,NA,NA,NA,NA,NA
"164","stim/objects/Instruments/metronome2.png",190,62,190,0.9,"stim/31.jpeg",3,1,3,NA,"Instruments",2,1,"right","right",0.432999849,1,1,0,1,NA,NA,NA,NA,NA,NA,NA,NA,NA,NA,NA,NA,NA,NA,NA,NA,NA,NA,NA,NA,NA,NA,NA,NA
"208","stim/objects/Instruments/oboe2.png",191,62,191,0.9,"stim/34.jpeg",3,4,3,NA,"Instruments",2,2,"right","right",0.353999853,1,1,0,1,NA,NA,NA,NA,NA,NA,NA,NA,NA,NA,NA,NA,NA,NA,NA,NA,NA,NA,NA,NA,NA,NA,NA,NA
"199","stim/objects/Instruments/oboe.png",192,62,192,0.5,"stim/64.jpeg",6,4,1,NA,"Instruments",2,3,"right","left",0.431999922,0,0,0,1,NA,NA,NA,NA,NA,NA,NA,NA,NA,NA,NA,NA,NA,NA,NA,NA,NA,NA,NA,NA,NA,NA,NA,NA
"16","stim/objects/HouseObjects/ironingboard.png",193,62,193,0.5,"stim/52.jpeg",5,2,1,NA,"HouseObjects",1,2,"left","right",0.602999926,0,0,0,1,NA,NA,NA,NA,NA,NA,NA,NA,NA,NA,NA,NA,NA,NA,NA,NA,NA,NA,NA,NA,NA,NA,NA,NA
"66","stim/objects/HouseObjects/pan2.png",194,62,194,0.1,"stim/33.jpeg",3,3,3,NA,"HouseObjects",1,4,"left","left",0.375,1,1,0,1,NA,NA,NA,NA,NA,NA,NA,NA,NA,NA,NA,NA,NA,NA,NA,NA,NA,NA,NA,NA,NA,NA,NA,NA
"169","stim/objects/Instruments/musicsheet.png",195,62,195,0.5,"stim/62.jpeg",6,2,1,NA,"Instruments",2,4,"right","left",0.69900012,0,0,0,1,NA,NA,NA,NA,NA,NA,NA,NA,NA,NA,NA,NA,NA,NA,NA,NA,NA,NA,NA,NA,NA,NA,NA,NA
"83","stim/objects/HouseObjects/recyclingbin2.png",196,62,196,0.9,"stim/41.jpeg",4,1,3,NA,"HouseObjects",1,3,"left","left",0.447000027,1,1,0,1,NA,NA,NA,NA,NA,NA,NA,NA,NA,NA,NA,NA,NA,NA,NA,NA,NA,NA,NA,NA,NA,NA,NA,NA
"24","stim/objects/HouseObjects/ironingboard2.png",197,62,197,0.7,"stim/22.jpeg",2,2,2,NA,"HouseObjects",1,3,"left","left",0.707000017,1,1,0,1,NA,NA,NA,NA,NA,NA,NA,NA,NA,NA,NA,NA,NA,NA,NA,NA,NA,NA,NA,NA,NA,NA,NA,NA
"84","stim/objects/HouseObjects/recyclingbin2.png",198,62,198,0.9,"stim/41.jpeg",4,1,3,NA,"HouseObjects",1,3,"left","right",0.371000051,0,0,0,1,NA,NA,NA,NA,NA,NA,NA,NA,NA,NA,NA,NA,NA,NA,NA,NA,NA,NA,NA,NA,NA,NA,NA,NA
"149","stim/objects/Instruments/marimba.png",199,62,199,0.5,"stim/54.jpeg",5,4,1,NA,"Instruments",2,3,"right","left",0.42200017,0,0,0,1,NA,NA,NA,NA,NA,NA,NA,NA,NA,NA,NA,NA,NA,NA,NA,NA,NA,NA,NA,NA,NA,NA,NA,NA
"58","stim/objects/HouseObjects/match.png",200,62,200,0.5,"stim/62.jpeg",6,2,1,NA,"HouseObjects",1,3,"left","right",0.262000084,0,0,0,1,NA,NA,NA,NA,NA,NA,NA,NA,NA,NA,NA,NA,NA,NA,NA,NA,NA,NA,NA,NA,NA,NA,NA,NA
"238","stim/objects/Instruments/record.png",201,62,201,0.7,"stim/13.jpeg",1,3,2,NA,"Instruments",2,4,"right","right",0.203999996,1,1,0,1,NA,NA,NA,NA,NA,NA,NA,NA,NA,NA,NA,NA,NA,NA,NA,NA,NA,NA,NA,NA,NA,NA,NA,NA
"111","stim/objects/HouseObjects/rug.png",202,62,202,0.3,"stim/14.jpeg",1,4,2,NA,"HouseObjects",1,2,"left","left",0.245000124,1,1,0,1,NA,NA,NA,NA,NA,NA,NA,NA,NA,NA,NA,NA,NA,NA,NA,NA,NA,NA,NA,NA,NA,NA,NA,NA
"157","stim/objects/Instruments/metronome.png",203,62,203,0.5,"stim/61.jpeg",6,1,1,NA,"Instruments",2,2,"right","left",0.264999866,0,0,0,1,NA,NA,NA,NA,NA,NA,NA,NA,NA,NA,NA,NA,NA,NA,NA,NA,NA,NA,NA,NA,NA,NA,NA,NA
"229","stim/objects/Instruments/record_player.png",204,62,204,0.7,"stim/14.jpeg",1,4,2,NA,"Instruments",2,3,"right","",NA,0,0,0,1,NA,NA,NA,NA,NA,NA,NA,NA,NA,NA,NA,NA,NA,NA,NA,NA,NA,NA,NA,NA,NA,NA,NA,NA
"63","stim/objects/HouseObjects/pan.png",205,62,205,0.5,"stim/63.jpeg",6,3,1,NA,"HouseObjects",1,4,"left","right",0.463999987,0,0,0,1,NA,NA,NA,NA,NA,NA,NA,NA,NA,NA,NA,NA,NA,NA,NA,NA,NA,NA,NA,NA,NA,NA,NA,NA
"139","stim/objects/Instruments/maraca.png",206,62,206,0.5,"stim/53.jpeg",5,3,1,NA,"Instruments",2,3,"right","left",0.111999989,0,0,0,1,NA,NA,NA,NA,NA,NA,NA,NA,NA,NA,NA,NA,NA,NA,NA,NA,NA,NA,NA,NA,NA,NA,NA,NA
"17","stim/objects/HouseObjects/ironingboard.png",207,62,207,0.5,"stim/52.jpeg",5,2,1,NA,"HouseObjects",1,2,"left","right",0.237999916,0,0,0,1,NA,NA,NA,NA,NA,NA,NA,NA,NA,NA,NA,NA,NA,NA,NA,NA,NA,NA,NA,NA,NA,NA,NA,NA
"165","stim/objects/Instruments/metronome2.png",208,62,208,0.9,"stim/31.jpeg",3,1,3,NA,"Instruments",2,2,"right","right",0.350000143,1,1,0,1,NA,NA,NA,NA,NA,NA,NA,NA,NA,NA,NA,NA,NA,NA,NA,NA,NA,NA,NA,NA,NA,NA,NA,NA
"170","stim/objects/Instruments/musicsheet.png",209,62,209,0.5,"stim/62.jpeg",6,2,1,NA,"Instruments",2,1,"right","left",0.280999899,0,0,0,1,NA,NA,NA,NA,NA,NA,NA,NA,NA,NA,NA,NA,NA,NA,NA,NA,NA,NA,NA,NA,NA,NA,NA,NA
"221","stim/objects/Instruments/pipepiano.png",210,62,210,0.7,"stim/12.jpeg",1,2,2,NA,"Instruments",2,3,"right","left",0.295000076,0,0,0,1,NA,NA,NA,NA,NA,NA,NA,NA,NA,NA,NA,NA,NA,NA,NA,NA,NA,NA,NA,NA,NA,NA,NA,NA
"193","stim/objects/Instruments/musicstand2.png",211,62,211,0.9,"stim/33.jpeg",3,3,3,NA,"Instruments",2,3,"right","left",0.192000151,0,0,0,1,NA,NA,NA,NA,NA,NA,NA,NA,NA,NA,NA,NA,NA,NA,NA,NA,NA,NA,NA,NA,NA,NA,NA,NA
"64","stim/objects/HouseObjects/pan.png",212,62,212,0.5,"stim/63.jpeg",6,3,1,NA,"HouseObjects",1,4,"left","",NA,0,0,0,1,NA,NA,NA,NA,NA,NA,NA,NA,NA,NA,NA,NA,NA,NA,NA,NA,NA,NA,NA,NA,NA,NA,NA,NA
"47","stim/objects/HouseObjects/knife2.png",213,62,213,0.7,"stim/24.jpeg",2,4,2,NA,"HouseObjects",1,3,"left","left",0.127000093,1,1,0,1,NA,NA,NA,NA,NA,NA,NA,NA,NA,NA,NA,NA,NA,NA,NA,NA,NA,NA,NA,NA,NA,NA,NA,NA
"65","stim/objects/HouseObjects/pan.png",214,62,214,0.5,"stim/63.jpeg",6,3,1,NA,"HouseObjects",1,1,"left","left",0.339999914,1,1,0,1,NA,NA,NA,NA,NA,NA,NA,NA,NA,NA,NA,NA,NA,NA,NA,NA,NA,NA,NA,NA,NA,NA,NA,NA
"230","stim/objects/Instruments/record_player.png",215,62,215,0.7,"stim/14.jpeg",1,4,2,NA,"Instruments",2,4,"right","left",0.430999994,0,0,0,1,NA,NA,NA,NA,NA,NA,NA,NA,NA,NA,NA,NA,NA,NA,NA,NA,NA,NA,NA,NA,NA,NA,NA,NA
"231","stim/objects/Instruments/record_player.png",216,62,216,0.7,"stim/14.jpeg",1,4,2,NA,"Instruments",2,1,"right","left",0.272000074,0,0,0,1,NA,NA,NA,NA,NA,NA,NA,NA,NA,NA,NA,NA,NA,NA,NA,NA,NA,NA,NA,NA,NA,NA,NA,NA
"35","stim/objects/HouseObjects/key2.png",217,62,217,0.7,"stim/23.jpeg",2,3,2,NA,"HouseObjects",1,1,"left","left",0.228999853,1,1,0,1,NA,NA,NA,NA,NA,NA,NA,NA,NA,NA,NA,NA,NA,NA,NA,NA,NA,NA,NA,NA,NA,NA,NA,NA
"99","stim/objects/HouseObjects/rubbergloves.png",218,62,218,0.3,"stim/13.jpeg",1,3,2,NA,"HouseObjects",1,1,"left","left",0.40199995,1,1,0,1,NA,NA,NA,NA,NA,NA,NA,NA,NA,NA,NA,NA,NA,NA,NA,NA,NA,NA,NA,NA,NA,NA,NA,NA
"48","stim/objects/HouseObjects/knife2.png",219,62,219,0.7,"stim/24.jpeg",2,4,2,NA,"HouseObjects",1,2,"left","left",0.542000055,1,1,0,1,NA,NA,NA,NA,NA,NA,NA,NA,NA,NA,NA,NA,NA,NA,NA,NA,NA,NA,NA,NA,NA,NA,NA,NA
"118","stim/objects/HouseObjects/rug2.png",220,62,220,0.9,"stim/44.jpeg",4,4,3,NA,"HouseObjects",1,2,"left","left",0.480000019,1,1,0,1,NA,NA,NA,NA,NA,NA,NA,NA,NA,NA,NA,NA,NA,NA,NA,NA,NA,NA,NA,NA,NA,NA,NA,NA
"171","stim/objects/Instruments/musicsheet.png",221,62,221,0.5,"stim/62.jpeg",6,2,1,NA,"Instruments",2,2,"right","left",0.338999987,0,0,0,1,NA,NA,NA,NA,NA,NA,NA,NA,NA,NA,NA,NA,NA,NA,NA,NA,NA,NA,NA,NA,NA,NA,NA,NA
"53","stim/objects/HouseObjects/lintroller.png",222,62,222,0.5,"stim/61.jpeg",6,1,1,NA,"HouseObjects",1,4,"left","right",0.213000059,0,0,0,1,NA,NA,NA,NA,NA,NA,NA,NA,NA,NA,NA,NA,NA,NA,NA,NA,NA,NA,NA,NA,NA,NA,NA,NA
"144","stim/objects/Instruments/maraca2.png",223,62,223,0.3,"stim/23.jpeg",2,3,2,NA,"Instruments",2,2,"right","right",0.335999966,1,1,0,1,NA,NA,NA,NA,NA,NA,NA,NA,NA,NA,NA,NA,NA,NA,NA,NA,NA,NA,NA,NA,NA,NA,NA,NA
"140","stim/objects/Instruments/maraca.png",224,62,224,0.5,"stim/53.jpeg",5,3,1,NA,"Instruments",2,2,"right","right",0.305000067,1,1,0,1,NA,NA,NA,NA,NA,NA,NA,NA,NA,NA,NA,NA,NA,NA,NA,NA,NA,NA,NA,NA,NA,NA,NA,NA
"41","stim/objects/HouseObjects/knife.png",225,62,225,0.5,"stim/54.jpeg",5,4,1,NA,"HouseObjects",1,2,"left","right",0.61500001,0,0,0,1,NA,NA,NA,NA,NA,NA,NA,NA,NA,NA,NA,NA,NA,NA,NA,NA,NA,NA,NA,NA,NA,NA,NA,NA
"141","stim/objects/Instruments/maraca.png",226,62,226,0.5,"stim/53.jpeg",5,3,1,NA,"Instruments",2,2,"right","right",0.327000141,1,1,0,1,NA,NA,NA,NA,NA,NA,NA,NA,NA,NA,NA,NA,NA,NA,NA,NA,NA,NA,NA,NA,NA,NA,NA,NA
"239","stim/objects/Instruments/record.png",227,62,227,0.7,"stim/13.jpeg",1,3,2,NA,"Instruments",2,4,"right","right",0.315000057,1,1,0,1,NA,NA,NA,NA,NA,NA,NA,NA,NA,NA,NA,NA,NA,NA,NA,NA,NA,NA,NA,NA,NA,NA,NA,NA
"194","stim/objects/Instruments/musicstand2.png",228,62,228,0.9,"stim/33.jpeg",3,3,3,NA,"Instruments",2,2,"right","right",0.403000116,1,1,0,1,NA,NA,NA,NA,NA,NA,NA,NA,NA,NA,NA,NA,NA,NA,NA,NA,NA,NA,NA,NA,NA,NA,NA,NA
"59","stim/objects/HouseObjects/match.png",229,62,229,0.5,"stim/62.jpeg",6,2,1,NA,"HouseObjects",1,1,"left","left",0.335000038,1,1,0,1,NA,NA,NA,NA,NA,NA,NA,NA,NA,NA,NA,NA,NA,NA,NA,NA,NA,NA,NA,NA,NA,NA,NA,NA
"125","stim/objects/Instruments/keyboard.png",230,62,230,0.5,"stim/51.jpeg",5,1,1,NA,"Instruments",2,1,"right","left",0.508999825,0,0,0,1,NA,NA,NA,NA,NA,NA,NA,NA,NA,NA,NA,NA,NA,NA,NA,NA,NA,NA,NA,NA,NA,NA,NA,NA
"71","stim/objects/HouseObjects/pitcher.png",231,62,231,0.5,"stim/64.jpeg",6,4,1,NA,"HouseObjects",1,1,"left","left",0.509000063,1,1,0,1,NA,NA,NA,NA,NA,NA,NA,NA,NA,NA,NA,NA,NA,NA,NA,NA,NA,NA,NA,NA,NA,NA,NA,NA
"108","stim/objects/HouseObjects/rubbergloves2.png",232,62,232,0.9,"stim/43.jpeg",4,3,3,NA,"HouseObjects",1,1,"left","left",0.36500001,1,1,0,1,NA,NA,NA,NA,NA,NA,NA,NA,NA,NA,NA,NA,NA,NA,NA,NA,NA,NA,NA,NA,NA,NA,NA,NA
"222","stim/objects/Instruments/pipepiano.png",233,62,233,0.7,"stim/12.jpeg",1,2,2,NA,"Instruments",2,2,"right","left",0.236999989,0,0,0,1,NA,NA,NA,NA,NA,NA,NA,NA,NA,NA,NA,NA,NA,NA,NA,NA,NA,NA,NA,NA,NA,NA,NA,NA
"133","stim/objects/Instruments/laud.png",234,62,234,0.5,"stim/52.jpeg",5,2,1,NA,"Instruments",2,2,"right","right",0.378000021,1,1,0,1,NA,NA,NA,NA,NA,NA,NA,NA,NA,NA,NA,NA,NA,NA,NA,NA,NA,NA,NA,NA,NA,NA,NA,NA
"223","stim/objects/Instruments/pipepiano.png",235,62,235,0.7,"stim/12.jpeg",1,2,2,NA,"Instruments",2,2,"right","right",0.437000036,1,1,0,1,NA,NA,NA,NA,NA,NA,NA,NA,NA,NA,NA,NA,NA,NA,NA,NA,NA,NA,NA,NA,NA,NA,NA,NA
"36","stim/objects/HouseObjects/key2.png",236,62,236,0.7,"stim/23.jpeg",2,3,2,NA,"HouseObjects",1,2,"left","right",0.474999905,0,0,0,1,NA,NA,NA,NA,NA,NA,NA,NA,NA,NA,NA,NA,NA,NA,NA,NA,NA,NA,NA,NA,NA,NA,NA,NA
"166","stim/objects/Instruments/metronome2.png",237,62,237,0.9,"stim/31.jpeg",3,1,3,NA,"Instruments",2,2,"right","right",0.457000017,1,1,0,1,NA,NA,NA,NA,NA,NA,NA,NA,NA,NA,NA,NA,NA,NA,NA,NA,NA,NA,NA,NA,NA,NA,NA,NA
"119","stim/objects/HouseObjects/rug2.png",238,62,238,0.9,"stim/44.jpeg",4,4,3,NA,"HouseObjects",1,4,"left","right",0.558000088,0,0,0,1,NA,NA,NA,NA,NA,NA,NA,NA,NA,NA,NA,NA,NA,NA,NA,NA,NA,NA,NA,NA,NA,NA,NA,NA
"215","stim/objects/Instruments/panflute.png",239,62,239,0.7,"stim/11.jpeg",1,1,2,NA,"Instruments",2,2,"right","right",0.578000069,1,1,0,1,NA,NA,NA,NA,NA,NA,NA,NA,NA,NA,NA,NA,NA,NA,NA,NA,NA,NA,NA,NA,NA,NA,NA,NA
"120","stim/objects/HouseObjects/rug2.png",240,62,240,0.9,"stim/44.jpeg",4,4,3,NA,"HouseObjects",1,2,"left","right",0.837000132,0,0,0,1,NA,NA,NA,NA,NA,NA,NA,NA,NA,NA,NA,NA,NA,NA,NA,NA,NA,NA,NA,NA,NA,NA,NA,NA
"383","stim/objects/HouseObjects/handvacuum2.png",248,62,241,0.1,"stim/31.jpeg",3,1,3,1,"HouseObjects",1,2,"left","",NA,0,0,1,0,111,62,1,0.1,1,"stim/31.jpeg",3,1,"stim/31.jpeg",2,"left",1.81400013,4,4,1.729000092,4,0.288999796,111,1,0,0,0,0,0
"447","stim/objects/Instruments/drums2.png",249,62,242,0.3,"stim/21.jpeg",2,1,2,1,"Instruments",2,3,"right","left",0.316000223,0,0,1,0,141,62,1,0.3,2,"stim/21.jpeg",2,1,"stim/21.jpeg",3,"right",1.082999945,4,2,0.385999918,1,0.330999851,141,0,0,NA,0,NA,0
"308","stim/objects/HouseObjects/dustpan.png",250,62,243,0.9,"stim/44.jpeg",4,4,3,2,"HouseObjects",1,3,"left","left",0.274999857,1,1,1,0,NA,NA,NA,NA,NA,NA,NA,NA,NA,NA,NA,NA,NA,NA,NA,NA,NA,NA,NA,NA,NA,NA,NA,NA
"309","stim/objects/HouseObjects/dustpan.png",251,62,244,0.9,"stim/42.jpeg",4,2,3,2,"HouseObjects",1,3,"left","left",0.350999832,1,1,1,0,NA,NA,NA,NA,NA,NA,NA,NA,NA,NA,NA,NA,NA,NA,NA,NA,NA,NA,NA,NA,NA,NA,NA,NA
"507","stim/objects/Instruments/gong.png",252,62,245,0.9,"stim/34.jpeg",3,4,3,2,"Instruments",2,1,"right","right",0.322000027,1,1,1,0,NA,NA,NA,NA,NA,NA,NA,NA,NA,NA,NA,NA,NA,NA,NA,NA,NA,NA,NA,NA,NA,NA,NA,NA
"415","stim/objects/Instruments/banjo.png",253,62,246,0.5,"stim/54.jpeg",5,4,1,2,"Instruments",2,2,"right","left",0.187999964,0,0,1,0,NA,NA,NA,NA,NA,NA,NA,NA,NA,NA,NA,NA,NA,NA,NA,NA,NA,NA,NA,NA,NA,NA,NA,NA
"456","stim/objects/Instruments/flute.png",254,62,247,0.9,"stim/31.jpeg",3,1,3,2,"Instruments",2,2,"right","right",0.338999987,1,1,1,0,NA,NA,NA,NA,NA,NA,NA,NA,NA,NA,NA,NA,NA,NA,NA,NA,NA,NA,NA,NA,NA,NA,NA,NA
"508","stim/objects/Instruments/gong.png",255,62,248,0.9,"stim/34.jpeg",3,4,3,2,"Instruments",2,4,"right","right",0.256000042,1,1,1,0,NA,NA,NA,NA,NA,NA,NA,NA,NA,NA,NA,NA,NA,NA,NA,NA,NA,NA,NA,NA,NA,NA,NA,NA
"509","stim/objects/Instruments/gong.png",256,62,249,0.9,"stim/33.jpeg",3,3,3,2,"Instruments",2,2,"right","right",0.265000105,1,1,1,0,NA,NA,NA,NA,NA,NA,NA,NA,NA,NA,NA,NA,NA,NA,NA,NA,NA,NA,NA,NA,NA,NA,NA,NA
"552","stim/objects/Instruments/speaker2.png",257,62,250,0.1,"stim/43.jpeg",4,3,3,1,"Instruments",2,1,"right","right",0.161999941,1,1,1,0,157,62,1,0.1,2,"stim/43.jpeg",4,3,"stim/43.jpeg",1,"left",1.171999931,4,3,1.411999941,1,1.063999891,157,1,1,1,1,1,0
"380","stim/objects/HouseObjects/handbrush.png",258,62,251,0.5,"stim/51.jpeg",5,1,1,1,"HouseObjects",1,1,"left","left",0.306999922,1,1,1,0,197,62,1,0.5,1,"stim/51.jpeg",5,1,"stim/51.jpeg",1,"right",1.25999999,3,2,0.211999893,1,0.38499999,197,0,0,NA,1,NA,0
"412","stim/objects/Instruments/balalaika.png",259,62,252,0.5,"stim/52.jpeg",5,2,1,2,"Instruments",2,2,"right","left",0.34100008,0,0,1,0,NA,NA,NA,NA,NA,NA,NA,NA,NA,NA,NA,NA,NA,NA,NA,NA,NA,NA,NA,NA,NA,NA,NA,NA
"524","stim/objects/Instruments/grandpiano.png",260,62,253,0.9,"stim/32.jpeg",3,2,3,2,"Instruments",2,2,"right","right",0.250999928,1,1,1,0,NA,NA,NA,NA,NA,NA,NA,NA,NA,NA,NA,NA,NA,NA,NA,NA,NA,NA,NA,NA,NA,NA,NA,NA
"491","stim/objects/Instruments/frenchhorn.png",261,62,254,0.9,"stim/33.jpeg",3,3,3,2,"Instruments",2,3,"right","right",0.226000071,1,1,1,0,NA,NA,NA,NA,NA,NA,NA,NA,NA,NA,NA,NA,NA,NA,NA,NA,NA,NA,NA,NA,NA,NA,NA,NA
"291","stim/objects/HouseObjects/doormat.png",262,62,255,0.9,"stim/41.jpeg",4,1,3,2,"HouseObjects",1,4,"left","right",0.781999826,0,0,1,0,NA,NA,NA,NA,NA,NA,NA,NA,NA,NA,NA,NA,NA,NA,NA,NA,NA,NA,NA,NA,NA,NA,NA,NA
"292","stim/objects/HouseObjects/doormat.png",263,62,256,0.9,"stim/42.jpeg",4,2,3,2,"HouseObjects",1,1,"left","left",0.367000103,1,1,1,0,NA,NA,NA,NA,NA,NA,NA,NA,NA,NA,NA,NA,NA,NA,NA,NA,NA,NA,NA,NA,NA,NA,NA,NA
"492","stim/objects/Instruments/frenchhorn.png",264,62,257,0.9,"stim/32.jpeg",3,2,3,2,"Instruments",2,1,"right","left",0.299000025,0,0,1,0,NA,NA,NA,NA,NA,NA,NA,NA,NA,NA,NA,NA,NA,NA,NA,NA,NA,NA,NA,NA,NA,NA,NA,NA
"283","stim/objects/HouseObjects/cushion.png",265,62,258,0.7,"stim/21.jpeg",2,1,2,2,"HouseObjects",1,2,"left","right",0.299999952,0,0,1,0,NA,NA,NA,NA,NA,NA,NA,NA,NA,NA,NA,NA,NA,NA,NA,NA,NA,NA,NA,NA,NA,NA,NA,NA
"473","stim/objects/Instruments/flutetrans.png",266,62,259,0.9,"stim/34.jpeg",3,4,3,2,"Instruments",2,4,"right","right",0.285000086,1,1,1,0,NA,NA,NA,NA,NA,NA,NA,NA,NA,NA,NA,NA,NA,NA,NA,NA,NA,NA,NA,NA,NA,NA,NA,NA
"474","stim/objects/Instruments/flutetrans.png",267,62,260,0.9,"stim/32.jpeg",3,2,3,2,"Instruments",2,1,"right","right",0.414999962,1,1,1,0,NA,NA,NA,NA,NA,NA,NA,NA,NA,NA,NA,NA,NA,NA,NA,NA,NA,NA,NA,NA,NA,NA,NA,NA
"401","stim/objects/HouseObjects/towel2.png",268,62,261,0.9,"stim/44.jpeg",4,4,3,1,"HouseObjects",1,3,"left","right",0.239000082,0,0,1,0,126,62,1,0.9,1,"stim/44.jpeg",4,4,"stim/44.jpeg",3,"left",1.023000002,3,2,1.498999834,3,0.911000013,126,1,0,0,1,1,0
"525","stim/objects/Instruments/grandpiano.png",269,62,262,0.9,"stim/33.jpeg",3,3,3,2,"Instruments",2,3,"right","left",0.366000175,0,0,1,0,NA,NA,NA,NA,NA,NA,NA,NA,NA,NA,NA,NA,NA,NA,NA,NA,NA,NA,NA,NA,NA,NA,NA,NA
"342","stim/objects/HouseObjects/garbagebin.png",270,62,263,0.9,"stim/41.jpeg",4,1,3,2,"HouseObjects",1,4,"left","left",0.197000027,1,1,1,0,NA,NA,NA,NA,NA,NA,NA,NA,NA,NA,NA,NA,NA,NA,NA,NA,NA,NA,NA,NA,NA,NA,NA,NA
"453","stim/objects/Instruments/electricguitar.png",271,62,264,0.7,"stim/11.jpeg",1,1,2,2,"Instruments",2,2,"right","left",0.251000166,0,0,1,0,NA,NA,NA,NA,NA,NA,NA,NA,NA,NA,NA,NA,NA,NA,NA,NA,NA,NA,NA,NA,NA,NA,NA,NA
"256","stim/objects/HouseObjects/blender.png",272,62,265,0.5,"stim/63.jpeg",6,3,1,2,"HouseObjects",1,4,"left","right",0.19900012,0,0,1,0,NA,NA,NA,NA,NA,NA,NA,NA,NA,NA,NA,NA,NA,NA,NA,NA,NA,NA,NA,NA,NA,NA,NA,NA
"311","stim/objects/HouseObjects/dustpan.png",273,62,266,0.9,"stim/44.jpeg",4,4,3,2,"HouseObjects",1,1,"left","right",0.24000001,0,0,1,0,NA,NA,NA,NA,NA,NA,NA,NA,NA,NA,NA,NA,NA,NA,NA,NA,NA,NA,NA,NA,NA,NA,NA,NA
"448","stim/objects/Instruments/electricdrumset.png",274,62,267,0.7,"stim/13.jpeg",1,3,2,2,"Instruments",2,4,"right","right",0.273999929,1,1,1,0,NA,NA,NA,NA,NA,NA,NA,NA,NA,NA,NA,NA,NA,NA,NA,NA,NA,NA,NA,NA,NA,NA,NA,NA
"359","stim/objects/HouseObjects/glass.png",275,62,268,0.9,"stim/44.jpeg",4,4,3,2,"HouseObjects",1,4,"left","right",0.259000063,0,0,1,0,NA,NA,NA,NA,NA,NA,NA,NA,NA,NA,NA,NA,NA,NA,NA,NA,NA,NA,NA,NA,NA,NA,NA,NA
"325","stim/objects/HouseObjects/flyswatter.png",276,62,269,0.9,"stim/42.jpeg",4,2,3,2,"HouseObjects",1,3,"left","right",0.299000025,0,0,1,0,NA,NA,NA,NA,NA,NA,NA,NA,NA,NA,NA,NA,NA,NA,NA,NA,NA,NA,NA,NA,NA,NA,NA,NA
"526","stim/objects/Instruments/grandpiano.png",277,62,270,0.9,"stim/34.jpeg",3,4,3,2,"Instruments",2,4,"right","right",0.282999992,1,1,1,0,NA,NA,NA,NA,NA,NA,NA,NA,NA,NA,NA,NA,NA,NA,NA,NA,NA,NA,NA,NA,NA,NA,NA,NA
"436","stim/objects/Instruments/cymbal.png",278,62,271,0.7,"stim/14.jpeg",1,4,2,2,"Instruments",2,2,"right","left",0.007999897,0,0,1,0,NA,NA,NA,NA,NA,NA,NA,NA,NA,NA,NA,NA,NA,NA,NA,NA,NA,NA,NA,NA,NA,NA,NA,NA
"360","stim/objects/HouseObjects/glass.png",279,62,272,0.9,"stim/41.jpeg",4,1,3,2,"HouseObjects",1,2,"left","left",0.529000044,1,1,1,0,NA,NA,NA,NA,NA,NA,NA,NA,NA,NA,NA,NA,NA,NA,NA,NA,NA,NA,NA,NA,NA,NA,NA,NA
"387","stim/objects/HouseObjects/saw2.png",280,62,273,0.9,"stim/41.jpeg",4,1,3,1,"HouseObjects",1,3,"left","left",0.073999882,1,1,1,0,36,62,1,0.9,1,"stim/41.jpeg",4,1,"stim/41.jpeg",3,"left",1.811999798,4,2,1.764999866,2,3.03399992,36,1,0,0,0,0,0
"510","stim/objects/Instruments/gong.png",281,62,274,0.9,"stim/31.jpeg",3,1,3,2,"Instruments",2,3,"right","left",0.394000053,0,0,1,0,NA,NA,NA,NA,NA,NA,NA,NA,NA,NA,NA,NA,NA,NA,NA,NA,NA,NA,NA,NA,NA,NA,NA,NA
"455","stim/objects/Instruments/electricguitar2.png",282,62,275,0.3,"stim/23.jpeg",2,3,2,1,"Instruments",2,1,"right","right",0.398000002,1,1,1,0,87,62,1,0.3,2,"stim/23.jpeg",2,3,"stim/23.jpeg",1,"left",1.684000015,3,2,1.210999966,1,0.870000124,87,1,0,0,1,1,0
"527","stim/objects/Instruments/grandpiano.png",283,62,276,0.9,"stim/31.jpeg",3,1,3,2,"Instruments",2,3,"right","right",0.335999966,1,1,1,0,NA,NA,NA,NA,NA,NA,NA,NA,NA,NA,NA,NA,NA,NA,NA,NA,NA,NA,NA,NA,NA,NA,NA,NA
"416","stim/objects/Instruments/banjo.png",284,62,277,0.5,"stim/53.jpeg",5,3,1,2,"Instruments",2,4,"right","right",0.361000061,1,1,1,0,NA,NA,NA,NA,NA,NA,NA,NA,NA,NA,NA,NA,NA,NA,NA,NA,NA,NA,NA,NA,NA,NA,NA,NA
"361","stim/objects/HouseObjects/glass.png",285,62,278,0.9,"stim/42.jpeg",4,2,3,2,"HouseObjects",1,2,"left","right",0.236999989,0,0,1,0,NA,NA,NA,NA,NA,NA,NA,NA,NA,NA,NA,NA,NA,NA,NA,NA,NA,NA,NA,NA,NA,NA,NA,NA
"564","stim/objects/Instruments/tuba2.png",286,62,279,0.1,"stim/41.jpeg",4,1,3,1,"Instruments",2,3,"right","right",0.317000151,1,1,1,0,149,62,1,0.1,2,"stim/41.jpeg",4,1,"stim/41.jpeg",3,"left",2.450999975,4,2,0.429000139,1,0.313999891,149,1,0,0,0,0,0
"423","stim/objects/Instruments/bassguitar2.png",287,62,280,0.3,"stim/22.jpeg",2,2,2,1,"Instruments",2,4,"right","left",0.133000135,0,0,1,0,46,62,1,0.3,2,"stim/22.jpeg",2,2,"stim/22.jpeg",4,"left",2.194999933,3,1,1.597000122,1,1.972999811,46,1,0,0,0,0,0
"343","stim/objects/HouseObjects/garbagebin.png",288,62,281,0.9,"stim/44.jpeg",4,4,3,2,"HouseObjects",1,3,"left","left",0.245000124,1,1,1,0,NA,NA,NA,NA,NA,NA,NA,NA,NA,NA,NA,NA,NA,NA,NA,NA,NA,NA,NA,NA,NA,NA,NA,NA
"567","stim/objects/Instruments/vuvuzela.png",289,62,282,0.7,"stim/11.jpeg",1,1,2,1,"Instruments",2,2,"right","left",0.360999823,0,0,1,0,179,62,1,0.7,2,"stim/11.jpeg",1,1,"stim/11.jpeg",2,"left",1.095999956,4,2,1.335999966,3,2.461999893,179,1,0,0,0,0,0
"312","stim/objects/HouseObjects/dustpan.png",290,62,283,0.9,"stim/43.jpeg",4,3,3,2,"HouseObjects",1,4,"left","left",0.376999855,1,1,1,0,NA,NA,NA,NA,NA,NA,NA,NA,NA,NA,NA,NA,NA,NA,NA,NA,NA,NA,NA,NA,NA,NA,NA,NA
"386","stim/objects/HouseObjects/saw.png",291,62,284,0.5,"stim/61.jpeg",6,1,1,1,"HouseObjects",1,2,"left","right",0.205999851,0,0,1,0,171,62,1,0.5,2,"stim/61.jpeg",6,1,"stim/61.jpeg",2,"left",1.617999792,4,3,2.49000001,2,1.863999844,171,1,0,0,1,1,0
"276","stim/objects/HouseObjects/clothespin.png",292,62,285,0.7,"stim/23.jpeg",2,3,2,2,"HouseObjects",1,2,"left","left",0.148000002,1,1,1,0,NA,NA,NA,NA,NA,NA,NA,NA,NA,NA,NA,NA,NA,NA,NA,NA,NA,NA,NA,NA,NA,NA,NA,NA
"259","stim/objects/HouseObjects/bottle.png",293,62,286,0.5,"stim/61.jpeg",6,1,1,2,"HouseObjects",1,2,"left","left",0.311000109,1,1,1,0,NA,NA,NA,NA,NA,NA,NA,NA,NA,NA,NA,NA,NA,NA,NA,NA,NA,NA,NA,NA,NA,NA,NA,NA
"424","stim/objects/Instruments/cello.png",294,62,287,0.5,"stim/63.jpeg",6,3,1,2,"Instruments",2,1,"right","left",0.63499999,0,0,1,0,NA,NA,NA,NA,NA,NA,NA,NA,NA,NA,NA,NA,NA,NA,NA,NA,NA,NA,NA,NA,NA,NA,NA,NA
"375","stim/objects/HouseObjects/glass2.png",295,62,288,0.1,"stim/31.jpeg",3,1,3,1,"HouseObjects",1,1,"left","left",0.711999893,1,1,1,0,127,62,1,0.1,1,"stim/31.jpeg",3,1,"stim/31.jpeg",1,"right",1.305999994,2,1,0.352999926,4,0.996999979,127,0,1,NA,0,NA,0
"247","stim/objects/HouseObjects/barbecuelighter.png",296,62,289,0.5,"stim/53.jpeg",5,3,1,2,"HouseObjects",1,1,"left","left",0.697999954,1,1,1,0,NA,NA,NA,NA,NA,NA,NA,NA,NA,NA,NA,NA,NA,NA,NA,NA,NA,NA,NA,NA,NA,NA,NA,NA
"493","stim/objects/Instruments/frenchhorn.png",297,62,290,0.9,"stim/31.jpeg",3,1,3,2,"Instruments",2,2,"right","left",0.615999937,0,0,1,0,NA,NA,NA,NA,NA,NA,NA,NA,NA,NA,NA,NA,NA,NA,NA,NA,NA,NA,NA,NA,NA,NA,NA,NA
"363","stim/objects/HouseObjects/glass.png",298,62,291,0.9,"stim/43.jpeg",4,3,3,2,"HouseObjects",1,2,"left","right",0.296000004,0,0,1,0,NA,NA,NA,NA,NA,NA,NA,NA,NA,NA,NA,NA,NA,NA,NA,NA,NA,NA,NA,NA,NA,NA,NA,NA
"326","stim/objects/HouseObjects/flyswatter.png",299,62,292,0.9,"stim/44.jpeg",4,4,3,2,"HouseObjects",1,3,"left","left",0.431999922,1,1,1,0,NA,NA,NA,NA,NA,NA,NA,NA,NA,NA,NA,NA,NA,NA,NA,NA,NA,NA,NA,NA,NA,NA,NA,NA
"406","stim/objects/Instruments/accordion.png",300,62,293,0.5,"stim/51.jpeg",5,1,1,2,"Instruments",2,2,"right","left",0.789000034,0,0,1,0,NA,NA,NA,NA,NA,NA,NA,NA,NA,NA,NA,NA,NA,NA,NA,NA,NA,NA,NA,NA,NA,NA,NA,NA
"528","stim/objects/Instruments/grandpiano.png",301,62,294,0.9,"stim/31.jpeg",3,1,3,2,"Instruments",2,2,"right","left",0.434000015,0,0,1,0,NA,NA,NA,NA,NA,NA,NA,NA,NA,NA,NA,NA,NA,NA,NA,NA,NA,NA,NA,NA,NA,NA,NA,NA
"344","stim/objects/HouseObjects/garbagebin.png",302,62,295,0.9,"stim/43.jpeg",4,3,3,2,"HouseObjects",1,2,"left","right",0.330000162,0,0,1,0,NA,NA,NA,NA,NA,NA,NA,NA,NA,NA,NA,NA,NA,NA,NA,NA,NA,NA,NA,NA,NA,NA,NA,NA
"255","stim/objects/HouseObjects/bleachbottle2.png",303,62,296,0.3,"stim/12.jpeg",1,2,2,1,"HouseObjects",1,4,"left","left",0.359999895,1,1,1,0,84,62,1,0.3,1,"stim/12.jpeg",1,2,"stim/12.jpeg",4,"left",2.020999908,4,3,2.589999914,2,1.363999844,84,1,0,0,0,0,0
"327","stim/objects/HouseObjects/flyswatter.png",304,62,297,0.9,"stim/44.jpeg",4,4,3,2,"HouseObjects",1,2,"left","",NA,0,0,1,0,NA,NA,NA,NA,NA,NA,NA,NA,NA,NA,NA,NA,NA,NA,NA,NA,NA,NA,NA,NA,NA,NA,NA,NA
"506","stim/objects/Instruments/frenchhorn2.png",305,62,298,0.9,"stim/31.jpeg",3,1,3,1,"Instruments",2,1,"right","right",0.281999826,1,1,1,0,56,62,1,0.9,2,"stim/31.jpeg",3,1,"stim/31.jpeg",1,"right",1.611999989,2,1,0.983999968,4,0.906999826,56,0,1,NA,0,NA,0
"548","stim/objects/Instruments/hihat2.png",306,62,299,0.9,"stim/33.jpeg",3,3,3,1,"Instruments",2,3,"right","right",0.488999844,1,1,1,0,22,62,1,0.9,2,"stim/33.jpeg",3,3,"stim/33.jpeg",3,"left",2.217999935,3,4,3.388999939,1,1.39199996,22,1,0,0,0,0,0
"262","stim/objects/HouseObjects/broom.png",307,62,300,0.5,"stim/62.jpeg",6,2,1,2,"HouseObjects",1,2,"left","right",0.471000195,0,0,1,0,NA,NA,NA,NA,NA,NA,NA,NA,NA,NA,NA,NA,NA,NA,NA,NA,NA,NA,NA,NA,NA,NA,NA,NA
"294","stim/objects/HouseObjects/doormat.png",308,62,301,0.9,"stim/42.jpeg",4,2,3,2,"HouseObjects",1,4,"left","",NA,0,0,1,0,NA,NA,NA,NA,NA,NA,NA,NA,NA,NA,NA,NA,NA,NA,NA,NA,NA,NA,NA,NA,NA,NA,NA,NA
"494","stim/objects/Instruments/frenchhorn.png",309,62,302,0.9,"stim/32.jpeg",3,2,3,2,"Instruments",2,2,"right","left",0.220999956,0,0,1,0,NA,NA,NA,NA,NA,NA,NA,NA,NA,NA,NA,NA,NA,NA,NA,NA,NA,NA,NA,NA,NA,NA,NA,NA
"396","stim/objects/HouseObjects/thermometer.png",310,62,303,0.3,"stim/11.jpeg",1,1,2,1,"HouseObjects",1,1,"left","right",0.275999784,0,0,1,0,148,62,1,0.3,1,"stim/11.jpeg",1,1,"stim/11.jpeg",1,"right",0.99000001,4,2,0.565000057,2,0.946000099,148,0,0,NA,0,NA,0
"399","stim/objects/HouseObjects/thread2.png",311,62,304,0.9,"stim/43.jpeg",4,3,3,1,"HouseObjects",1,3,"left","right",0.358999968,0,0,1,0,8,62,1,0.9,1,"stim/43.jpeg",4,3,"stim/43.jpeg",3,"left",2.629999876,2,3,3.566999912,2,3.438999891,8,1,1,1,0,0,0
"253","stim/objects/HouseObjects/bleachbottle.png",312,62,305,0.5,"stim/52.jpeg",5,2,1,2,"HouseObjects",1,1,"left","right",0.486000061,0,0,1,0,NA,NA,NA,NA,NA,NA,NA,NA,NA,NA,NA,NA,NA,NA,NA,NA,NA,NA,NA,NA,NA,NA,NA,NA
"271","stim/objects/HouseObjects/clothesdryingrack.png",313,62,306,0.7,"stim/22.jpeg",2,2,2,2,"HouseObjects",1,1,"left","right",0.184999943,0,0,1,0,NA,NA,NA,NA,NA,NA,NA,NA,NA,NA,NA,NA,NA,NA,NA,NA,NA,NA,NA,NA,NA,NA,NA,NA
"556","stim/objects/Instruments/timbal2.png",314,62,307,0.1,"stim/41.jpeg",4,1,3,1,"Instruments",2,1,"right","left",0.344000101,0,0,1,0,94,62,1,0.1,2,"stim/41.jpeg",4,1,"stim/41.jpeg",1,"left",2.579999924,3,1,1.027999878,2,1.207999945,94,1,1,1,0,0,0
"258","stim/objects/HouseObjects/blender2.png",315,62,308,0.7,"stim/24.jpeg",2,4,2,1,"HouseObjects",1,3,"left","left",0.229000092,1,1,1,0,78,62,1,0.7,1,"stim/24.jpeg",2,4,"stim/24.jpeg",3,"left",1.54399991,4,3,0.494999886,2,0.586999893,78,1,0,0,0,0,0
"364","stim/objects/HouseObjects/glass.png",316,62,309,0.9,"stim/41.jpeg",4,1,3,2,"HouseObjects",1,4,"left","right",0.244000196,0,0,1,0,NA,NA,NA,NA,NA,NA,NA,NA,NA,NA,NA,NA,NA,NA,NA,NA,NA,NA,NA,NA,NA,NA,NA,NA
"529","stim/objects/Instruments/grandpiano.png",317,62,310,0.9,"stim/32.jpeg",3,2,3,2,"Instruments",2,3,"right","right",0.378000021,1,1,1,0,NA,NA,NA,NA,NA,NA,NA,NA,NA,NA,NA,NA,NA,NA,NA,NA,NA,NA,NA,NA,NA,NA,NA,NA
"376","stim/objects/HouseObjects/glassmop.png",318,62,311,0.5,"stim/53.jpeg",5,3,1,1,"HouseObjects",1,3,"left","right",0.391000032,0,0,1,0,91,62,1,0.5,1,"stim/53.jpeg",5,3,"stim/53.jpeg",3,"right",5.761999846,4,2,1.344000101,1,0.792999983,91,0,0,NA,0,NA,0
"512","stim/objects/Instruments/gong.png",319,62,312,0.9,"stim/32.jpeg",3,2,3,2,"Instruments",2,3,"right","left",0.312999964,0,0,1,0,NA,NA,NA,NA,NA,NA,NA,NA,NA,NA,NA,NA,NA,NA,NA,NA,NA,NA,NA,NA,NA,NA,NA,NA
"477","stim/objects/Instruments/flutetrans.png",320,62,313,0.9,"stim/32.jpeg",3,2,3,2,"Instruments",2,4,"right","right",0.329999924,1,1,1,0,NA,NA,NA,NA,NA,NA,NA,NA,NA,NA,NA,NA,NA,NA,NA,NA,NA,NA,NA,NA,NA,NA,NA,NA
"543","stim/objects/Instruments/harmonica.png",321,62,314,0.5,"stim/53.jpeg",5,3,1,1,"Instruments",2,3,"right","left",0.001000166,0,0,1,0,53,62,1,0.5,1,"stim/53.jpeg",5,3,"stim/53.jpeg",3,"right",2.847999811,3,3,3.221999884,1,2.237999916,53,0,1,NA,0,NA,0
"346","stim/objects/HouseObjects/garbagebin.png",322,62,315,0.9,"stim/41.jpeg",4,1,3,2,"HouseObjects",1,2,"left","right",0.421000004,0,0,1,0,NA,NA,NA,NA,NA,NA,NA,NA,NA,NA,NA,NA,NA,NA,NA,NA,NA,NA,NA,NA,NA,NA,NA,NA
"479","stim/objects/Instruments/flutetrans.png",323,62,316,0.9,"stim/33.jpeg",3,3,3,2,"Instruments",2,3,"right","right",0.600000143,1,1,1,0,NA,NA,NA,NA,NA,NA,NA,NA,NA,NA,NA,NA,NA,NA,NA,NA,NA,NA,NA,NA,NA,NA,NA,NA
"489","stim/objects/Instruments/flutetrans2.png",324,62,317,0.9,"stim/34.jpeg",3,4,3,1,"Instruments",2,4,"right","",NA,0,0,1,0,173,62,1,0.9,2,"stim/34.jpeg",3,4,"stim/34.jpeg",4,"right",1.076999903,3,1,0.873999834,4,1.279999733,173,0,0,NA,1,NA,0
"366","stim/objects/HouseObjects/glass.png",325,62,318,0.9,"stim/43.jpeg",4,3,3,2,"HouseObjects",1,1,"left","right",0.399000168,0,0,1,0,NA,NA,NA,NA,NA,NA,NA,NA,NA,NA,NA,NA,NA,NA,NA,NA,NA,NA,NA,NA,NA,NA,NA,NA
"241","stim/objects/HouseObjects/ashtray.png",326,62,319,0.5,"stim/52.jpeg",5,2,1,2,"HouseObjects",1,3,"left","left",0.246999979,1,1,1,0,NA,NA,NA,NA,NA,NA,NA,NA,NA,NA,NA,NA,NA,NA,NA,NA,NA,NA,NA,NA,NA,NA,NA,NA
"513","stim/objects/Instruments/gong.png",327,62,320,0.9,"stim/32.jpeg",3,2,3,2,"Instruments",2,1,"right","left",0.479000092,0,0,1,0,NA,NA,NA,NA,NA,NA,NA,NA,NA,NA,NA,NA,NA,NA,NA,NA,NA,NA,NA,NA,NA,NA,NA,NA
"394","stim/objects/HouseObjects/teapot.png",328,62,321,0.5,"stim/61.jpeg",6,1,1,1,"HouseObjects",1,1,"left","right",0.313999891,0,0,1,0,11,62,1,0.5,2,"stim/61.jpeg",6,1,"stim/61.jpeg",1,"right",1.153999805,4,1,2.460999966,3,1.886999846,11,0,1,NA,0,NA,0
"358","stim/objects/HouseObjects/garbagebin2.png",329,62,322,0.1,"stim/34.jpeg",3,4,3,1,"HouseObjects",1,4,"left","right",0.48300004,0,0,1,0,182,62,1,0.1,1,"stim/34.jpeg",3,4,"stim/34.jpeg",4,"right",0.832000017,3,2,0.272000074,3,0.497999907,182,0,0,NA,0,NA,0
"555","stim/objects/Instruments/timbal.png",330,62,323,0.5,"stim/62.jpeg",6,2,1,1,"Instruments",2,4,"right","right",0.67200017,1,1,1,0,180,62,1,0.5,2,"stim/62.jpeg",6,2,"stim/62.jpeg",4,"right",2.273000002,2,4,0.544999838,2,0.460000038,180,0,0,NA,0,NA,0
"313","stim/objects/HouseObjects/dustpan.png",331,62,324,0.9,"stim/44.jpeg",4,4,3,2,"HouseObjects",1,2,"left","right",0.695000172,0,0,1,0,NA,NA,NA,NA,NA,NA,NA,NA,NA,NA,NA,NA,NA,NA,NA,NA,NA,NA,NA,NA,NA,NA,NA,NA
"443","stim/objects/Instruments/doublebass2.png",332,62,325,0.3,"stim/24.jpeg",2,4,2,1,"Instruments",2,3,"right","right",0.816999912,1,1,1,0,188,62,1,0.3,2,"stim/24.jpeg",2,4,"stim/24.jpeg",3,"left",1.81099987,2,3,0.00399971,4,0.217000008,188,1,0,0,0,0,0
"277","stim/objects/HouseObjects/clothespin.png",333,62,326,0.7,"stim/24.jpeg",2,4,2,2,"HouseObjects",1,3,"left","left",0.826999903,1,1,1,0,NA,NA,NA,NA,NA,NA,NA,NA,NA,NA,NA,NA,NA,NA,NA,NA,NA,NA,NA,NA,NA,NA,NA,NA
"515","stim/objects/Instruments/gong.png",334,62,327,0.9,"stim/33.jpeg",3,3,3,2,"Instruments",2,3,"right","left",0.605000019,0,0,1,0,NA,NA,NA,NA,NA,NA,NA,NA,NA,NA,NA,NA,NA,NA,NA,NA,NA,NA,NA,NA,NA,NA,NA,NA
"434","stim/objects/Instruments/cornet.png",335,62,328,0.5,"stim/62.jpeg",6,2,1,2,"Instruments",2,2,"right","right",0.724999905,1,1,1,0,NA,NA,NA,NA,NA,NA,NA,NA,NA,NA,NA,NA,NA,NA,NA,NA,NA,NA,NA,NA,NA,NA,NA,NA
"460","stim/objects/Instruments/flute.png",336,62,329,0.9,"stim/34.jpeg",3,4,3,2,"Instruments",2,4,"right","right",0.601999998,1,1,1,0,NA,NA,NA,NA,NA,NA,NA,NA,NA,NA,NA,NA,NA,NA,NA,NA,NA,NA,NA,NA,NA,NA,NA,NA
"282","stim/objects/HouseObjects/coffee2.png",337,62,330,0.7,"stim/23.jpeg",2,3,2,1,"HouseObjects",1,2,"left","right",0.845999956,0,0,1,0,107,62,1,0.7,1,"stim/23.jpeg",2,3,"stim/23.jpeg",2,"left",2.688999891,3,3,2.694999933,3,2.177999973,107,1,1,1,0,0,0
"328","stim/objects/HouseObjects/flyswatter.png",338,62,331,0.9,"stim/44.jpeg",4,4,3,2,"HouseObjects",1,3,"left","",NA,0,0,1,0,NA,NA,NA,NA,NA,NA,NA,NA,NA,NA,NA,NA,NA,NA,NA,NA,NA,NA,NA,NA,NA,NA,NA,NA
"530","stim/objects/Instruments/grandpiano.png",339,62,332,0.9,"stim/33.jpeg",3,3,3,2,"Instruments",2,2,"right","left",0.203000069,0,0,1,0,NA,NA,NA,NA,NA,NA,NA,NA,NA,NA,NA,NA,NA,NA,NA,NA,NA,NA,NA,NA,NA,NA,NA,NA
"531","stim/objects/Instruments/grandpiano.png",340,62,333,0.9,"stim/32.jpeg",3,2,3,2,"Instruments",2,1,"right","right",0.226999998,1,1,1,0,NA,NA,NA,NA,NA,NA,NA,NA,NA,NA,NA,NA,NA,NA,NA,NA,NA,NA,NA,NA,NA,NA,NA,NA
"367","stim/objects/HouseObjects/glass.png",341,62,334,0.9,"stim/42.jpeg",4,2,3,2,"HouseObjects",1,2,"left","right",0.361999989,0,0,1,0,NA,NA,NA,NA,NA,NA,NA,NA,NA,NA,NA,NA,NA,NA,NA,NA,NA,NA,NA,NA,NA,NA,NA,NA
"329","stim/objects/HouseObjects/flyswatter.png",342,62,335,0.9,"stim/43.jpeg",4,3,3,2,"HouseObjects",1,4,"left","right",0.809999943,0,0,1,0,NA,NA,NA,NA,NA,NA,NA,NA,NA,NA,NA,NA,NA,NA,NA,NA,NA,NA,NA,NA,NA,NA,NA,NA
"330","stim/objects/HouseObjects/flyswatter.png",343,62,336,0.9,"stim/41.jpeg",4,1,3,2,"HouseObjects",1,1,"left","left",0.54700017,1,1,1,0,NA,NA,NA,NA,NA,NA,NA,NA,NA,NA,NA,NA,NA,NA,NA,NA,NA,NA,NA,NA,NA,NA,NA,NA
"314","stim/objects/HouseObjects/dustpan.png",344,62,337,0.9,"stim/41.jpeg",4,1,3,2,"HouseObjects",1,2,"left","left",0.786000013,1,1,1,0,NA,NA,NA,NA,NA,NA,NA,NA,NA,NA,NA,NA,NA,NA,NA,NA,NA,NA,NA,NA,NA,NA,NA,NA
"347","stim/objects/HouseObjects/garbagebin.png",345,62,338,0.9,"stim/42.jpeg",4,2,3,2,"HouseObjects",1,3,"left","left",0.605000019,1,1,1,0,NA,NA,NA,NA,NA,NA,NA,NA,NA,NA,NA,NA,NA,NA,NA,NA,NA,NA,NA,NA,NA,NA,NA,NA
"437","stim/objects/Instruments/cymbal.png",346,62,339,0.7,"stim/13.jpeg",1,3,2,2,"Instruments",2,2,"right","left",0.790999889,0,0,1,0,NA,NA,NA,NA,NA,NA,NA,NA,NA,NA,NA,NA,NA,NA,NA,NA,NA,NA,NA,NA,NA,NA,NA,NA
"295","stim/objects/HouseObjects/doormat.png",347,62,340,0.9,"stim/43.jpeg",4,3,3,2,"HouseObjects",1,4,"left","right",0.319999933,0,0,1,0,NA,NA,NA,NA,NA,NA,NA,NA,NA,NA,NA,NA,NA,NA,NA,NA,NA,NA,NA,NA,NA,NA,NA,NA
"368","stim/objects/HouseObjects/glass.png",348,62,341,0.9,"stim/42.jpeg",4,2,3,2,"HouseObjects",1,3,"left","right",0.390000105,0,0,1,0,NA,NA,NA,NA,NA,NA,NA,NA,NA,NA,NA,NA,NA,NA,NA,NA,NA,NA,NA,NA,NA,NA,NA,NA
"541","stim/objects/Instruments/guitarcase.png",349,62,342,0.5,"stim/52.jpeg",5,2,1,1,"Instruments",2,3,"right","",NA,0,0,1,0,117,62,1,0.5,1,"stim/52.jpeg",5,2,"stim/52.jpeg",3,"right",0.916999817,1,1,0.483999729,1,0.447000027,117,0,0,NA,0,NA,0
"417","stim/objects/Instruments/banjo2.png",350,62,343,0.7,"stim/12.jpeg",1,2,2,1,"Instruments",2,2,"right","right",0.409000158,1,1,1,0,21,62,1,0.7,2,"stim/12.jpeg",1,2,"stim/12.jpeg",2,"left",1.730999947,3,2,1.56099987,1,0.930999756,21,1,1,1,0,0,0
"331","stim/objects/HouseObjects/flyswatter.png",351,62,344,0.9,"stim/41.jpeg",4,1,3,2,"HouseObjects",1,1,"left","right",0.30099988,0,0,1,0,NA,NA,NA,NA,NA,NA,NA,NA,NA,NA,NA,NA,NA,NA,NA,NA,NA,NA,NA,NA,NA,NA,NA,NA
"461","stim/objects/Instruments/flute.png",352,62,345,0.9,"stim/32.jpeg",3,2,3,2,"Instruments",2,4,"right","right",0.326999903,1,1,1,0,NA,NA,NA,NA,NA,NA,NA,NA,NA,NA,NA,NA,NA,NA,NA,NA,NA,NA,NA,NA,NA,NA,NA,NA
"296","stim/objects/HouseObjects/doormat.png",353,62,346,0.9,"stim/42.jpeg",4,2,3,2,"HouseObjects",1,1,"left","",NA,0,0,1,0,NA,NA,NA,NA,NA,NA,NA,NA,NA,NA,NA,NA,NA,NA,NA,NA,NA,NA,NA,NA,NA,NA,NA,NA
"274","stim/objects/HouseObjects/clothesdryingrack2.png",354,62,347,0.7,"stim/21.jpeg",2,1,2,1,"HouseObjects",1,3,"left","right",0.4599998,0,0,1,0,191,62,1,0.7,1,"stim/21.jpeg",2,1,"stim/21.jpeg",3,"right",0.730000019,2,1,0.512999773,2,0.77699995,191,0,1,NA,0,NA,0
"332","stim/objects/HouseObjects/flyswatter.png",355,62,348,0.9,"stim/41.jpeg",4,1,3,2,"HouseObjects",1,1,"left","",NA,0,0,1,0,NA,NA,NA,NA,NA,NA,NA,NA,NA,NA,NA,NA,NA,NA,NA,NA,NA,NA,NA,NA,NA,NA,NA,NA
"532","stim/objects/Instruments/grandpiano.png",356,62,349,0.9,"stim/31.jpeg",3,1,3,2,"Instruments",2,2,"right","right",0.145999908,1,1,1,0,NA,NA,NA,NA,NA,NA,NA,NA,NA,NA,NA,NA,NA,NA,NA,NA,NA,NA,NA,NA,NA,NA,NA,NA
"369","stim/objects/HouseObjects/glass.png",357,62,350,0.9,"stim/43.jpeg",4,3,3,2,"HouseObjects",1,4,"left","right",0.432999849,0,0,1,0,NA,NA,NA,NA,NA,NA,NA,NA,NA,NA,NA,NA,NA,NA,NA,NA,NA,NA,NA,NA,NA,NA,NA,NA
"265","stim/objects/HouseObjects/bucket.png",358,62,351,0.5,"stim/62.jpeg",6,2,1,2,"HouseObjects",1,4,"left","left",0.394999981,1,1,1,0,NA,NA,NA,NA,NA,NA,NA,NA,NA,NA,NA,NA,NA,NA,NA,NA,NA,NA,NA,NA,NA,NA,NA,NA
"438","stim/objects/Instruments/cymbal.png",359,62,352,0.7,"stim/11.jpeg",1,1,2,2,"Instruments",2,4,"right","left",0.323000193,0,0,1,0,NA,NA,NA,NA,NA,NA,NA,NA,NA,NA,NA,NA,NA,NA,NA,NA,NA,NA,NA,NA,NA,NA,NA,NA
"497","stim/objects/Instruments/frenchhorn.png",360,62,353,0.9,"stim/34.jpeg",3,4,3,2,"Instruments",2,2,"right","left",0.309999943,0,0,1,0,NA,NA,NA,NA,NA,NA,NA,NA,NA,NA,NA,NA,NA,NA,NA,NA,NA,NA,NA,NA,NA,NA,NA,NA
"404","stim/objects/HouseObjects/wateringcan.png",361,62,354,0.3,"stim/11.jpeg",1,1,2,1,"HouseObjects",1,1,"left","right",0.29399991,0,0,1,0,51,62,1,0.3,1,"stim/11.jpeg",1,1,"stim/11.jpeg",1,"right",2.763999939,4,1,1.933999777,3,1.388999939,51,0,1,NA,0,NA,0
"251","stim/objects/HouseObjects/basket.png",362,62,355,0.5,"stim/51.jpeg",5,1,1,2,"HouseObjects",1,1,"left","right",0.575999975,0,0,1,0,NA,NA,NA,NA,NA,NA,NA,NA,NA,NA,NA,NA,NA,NA,NA,NA,NA,NA,NA,NA,NA,NA,NA,NA
"414","stim/objects/Instruments/balalaika2.png",363,62,356,0.7,"stim/11.jpeg",1,1,2,1,"Instruments",2,4,"right","",NA,0,0,1,0,172,62,1,0.7,2,"stim/11.jpeg",1,1,"stim/11.jpeg",4,"right",1.407999992,4,3,0.463999987,2,0.230000019,172,0,0,NA,0,NA,0
"377","stim/objects/HouseObjects/glassmop2.png",364,62,357,0.1,"stim/32.jpeg",3,2,3,1,"HouseObjects",1,3,"left","right",0.845999956,0,0,1,0,166,62,1,0.1,1,"stim/32.jpeg",3,2,"stim/32.jpeg",3,"right",1,3,2,0.360999823,1,0.482999802,166,0,1,NA,0,NA,0
"534","stim/objects/Instruments/grandpiano.png",365,62,358,0.9,"stim/33.jpeg",3,3,3,2,"Instruments",2,2,"right","right",0.682999849,1,1,1,0,NA,NA,NA,NA,NA,NA,NA,NA,NA,NA,NA,NA,NA,NA,NA,NA,NA,NA,NA,NA,NA,NA,NA,NA
"462","stim/objects/Instruments/flute.png",366,62,359,0.9,"stim/31.jpeg",3,1,3,2,"Instruments",2,2,"right","right",0.332000017,1,1,1,0,NA,NA,NA,NA,NA,NA,NA,NA,NA,NA,NA,NA,NA,NA,NA,NA,NA,NA,NA,NA,NA,NA,NA,NA
"498","stim/objects/Instruments/frenchhorn.png",367,62,360,0.9,"stim/31.jpeg",3,1,3,2,"Instruments",2,1,"right","left",0.354000092,0,0,1,0,NA,NA,NA,NA,NA,NA,NA,NA,NA,NA,NA,NA,NA,NA,NA,NA,NA,NA,NA,NA,NA,NA,NA,NA
"542","stim/objects/Instruments/guitarcase2.png",368,62,361,0.9,"stim/34.jpeg",3,4,3,1,"Instruments",2,4,"right","left",0.361000061,0,0,1,0,85,62,1,0.9,2,"stim/34.jpeg",3,4,"stim/34.jpeg",4,"left",2.167999744,4,2,1.561000109,1,0.690999985,85,1,0,0,0,0,0
"440","stim/objects/Instruments/doublebass.png",369,62,362,0.7,"stim/11.jpeg",1,1,2,2,"Instruments",2,1,"right","left",0.01699996,0,0,1,0,NA,NA,NA,NA,NA,NA,NA,NA,NA,NA,NA,NA,NA,NA,NA,NA,NA,NA,NA,NA,NA,NA,NA,NA
"275","stim/objects/HouseObjects/clothespin.png",370,62,363,0.7,"stim/22.jpeg",2,2,2,2,"HouseObjects",1,1,"left","right",0.572000027,0,0,1,0,NA,NA,NA,NA,NA,NA,NA,NA,NA,NA,NA,NA,NA,NA,NA,NA,NA,NA,NA,NA,NA,NA,NA,NA
"483","stim/objects/Instruments/flutetrans.png",371,62,364,0.9,"stim/33.jpeg",3,3,3,2,"Instruments",2,2,"right","right",0.812999964,1,1,1,0,NA,NA,NA,NA,NA,NA,NA,NA,NA,NA,NA,NA,NA,NA,NA,NA,NA,NA,NA,NA,NA,NA,NA,NA
"388","stim/objects/HouseObjects/scale.png",372,62,365,0.5,"stim/62.jpeg",6,2,1,1,"HouseObjects",1,2,"left","right",0.365999937,0,0,1,0,190,62,1,0.5,2,"stim/62.jpeg",6,2,"stim/62.jpeg",2,"right",0.859999895,4,2,0.399999857,2,0.155999899,190,0,1,NA,1,NA,0
"267","stim/objects/HouseObjects/bucket2.png",373,62,366,0.7,"stim/23.jpeg",2,3,2,1,"HouseObjects",1,3,"left","right",0.832000017,0,0,1,0,183,62,1,0.7,1,"stim/23.jpeg",2,3,"stim/23.jpeg",3,"left",1.671999931,4,3,0.299999952,1,0.230999947,183,1,1,1,0,0,0
"299","stim/objects/HouseObjects/doormat.png",374,62,367,0.9,"stim/44.jpeg",4,4,3,2,"HouseObjects",1,4,"left","",NA,0,0,1,0,NA,NA,NA,NA,NA,NA,NA,NA,NA,NA,NA,NA,NA,NA,NA,NA,NA,NA,NA,NA,NA,NA,NA,NA
"288","stim/objects/HouseObjects/dishsoap.png",375,62,368,0.7,"stim/22.jpeg",2,2,2,2,"HouseObjects",1,2,"left","left",0.447000027,1,1,1,0,NA,NA,NA,NA,NA,NA,NA,NA,NA,NA,NA,NA,NA,NA,NA,NA,NA,NA,NA,NA,NA,NA,NA,NA
"370","stim/objects/HouseObjects/glass.png",376,62,369,0.9,"stim/43.jpeg",4,3,3,2,"HouseObjects",1,3,"left","left",0.262000084,1,1,1,0,NA,NA,NA,NA,NA,NA,NA,NA,NA,NA,NA,NA,NA,NA,NA,NA,NA,NA,NA,NA,NA,NA,NA,NA
"395","stim/objects/HouseObjects/teapot2.png",377,62,370,0.9,"stim/41.jpeg",4,1,3,1,"HouseObjects",1,4,"left","",NA,0,0,1,0,136,62,1,0.9,1,"stim/41.jpeg",4,1,"stim/41.jpeg",4,"left",0.914999962,2,1,0.463999987,3,0.614999771,136,1,1,1,0,0,0
"566","stim/objects/Instruments/violin2.png",378,62,371,0.1,"stim/42.jpeg",4,2,3,1,"Instruments",2,2,"right","right",0.506999969,1,1,1,0,15,62,1,0.1,2,"stim/42.jpeg",4,2,"stim/42.jpeg",2,"left",1.194999933,3,1,0.970000029,4,1.484999895,15,1,0,0,0,0,0
"310","stim/objects/HouseObjects/dustpan.png",379,62,372,0.9,"stim/42.jpeg",4,2,3,2,"HouseObjects",1,1,"left","left",0.582000017,1,1,1,0,NA,NA,NA,NA,NA,NA,NA,NA,NA,NA,NA,NA,NA,NA,NA,NA,NA,NA,NA,NA,NA,NA,NA,NA
"561","stim/objects/Instruments/trumpet.png",380,62,373,0.7,"stim/12.jpeg",1,2,2,1,"Instruments",2,4,"right","right",0.285000086,1,1,1,0,110,62,1,0.7,2,"stim/12.jpeg",1,2,"stim/12.jpeg",4,"left",0.99000001,4,2,1.336999893,3,2.563999891,110,1,1,1,0,0,0
"315","stim/objects/HouseObjects/dustpan.png",381,62,374,0.9,"stim/41.jpeg",4,1,3,2,"HouseObjects",1,2,"left","left",0.128999949,1,1,1,0,NA,NA,NA,NA,NA,NA,NA,NA,NA,NA,NA,NA,NA,NA,NA,NA,NA,NA,NA,NA,NA,NA,NA,NA
"449","stim/objects/Instruments/electricdrumset.png",382,62,375,0.7,"stim/12.jpeg",1,2,2,2,"Instruments",2,1,"right","left",0.309000015,0,0,1,0,NA,NA,NA,NA,NA,NA,NA,NA,NA,NA,NA,NA,NA,NA,NA,NA,NA,NA,NA,NA,NA,NA,NA,NA
"284","stim/objects/HouseObjects/cushion.png",383,62,376,0.7,"stim/22.jpeg",2,2,2,2,"HouseObjects",1,3,"left","right",0.890000105,0,0,1,0,NA,NA,NA,NA,NA,NA,NA,NA,NA,NA,NA,NA,NA,NA,NA,NA,NA,NA,NA,NA,NA,NA,NA,NA
"398","stim/objects/HouseObjects/thread.png",384,62,377,0.3,"stim/12.jpeg",1,2,2,1,"HouseObjects",1,3,"left","right",0.562000036,0,0,1,0,106,62,1,0.3,1,"stim/12.jpeg",1,2,"stim/12.jpeg",3,"right",3.142999887,1,3,1.444000006,2,1.097999811,106,0,0,NA,0,NA,0
"351","stim/objects/HouseObjects/garbagebin.png",385,62,378,0.9,"stim/42.jpeg",4,2,3,2,"HouseObjects",1,2,"left","right",0.509000063,0,0,1,0,NA,NA,NA,NA,NA,NA,NA,NA,NA,NA,NA,NA,NA,NA,NA,NA,NA,NA,NA,NA,NA,NA,NA,NA
"517","stim/objects/Instruments/gong.png",386,62,379,0.9,"stim/34.jpeg",3,4,3,2,"Instruments",2,4,"right","right",0.461999893,1,1,1,0,NA,NA,NA,NA,NA,NA,NA,NA,NA,NA,NA,NA,NA,NA,NA,NA,NA,NA,NA,NA,NA,NA,NA,NA
"378","stim/objects/HouseObjects/hairdryer.png",387,62,380,0.5,"stim/54.jpeg",5,4,1,1,"HouseObjects",1,3,"left","left",0.385999918,1,1,1,0,90,62,1,0.5,1,"stim/54.jpeg",5,4,"stim/54.jpeg",3,"left",1.58100009,2,1,1.093999863,4,1.17599988,90,1,0,0,0,0,0
"536","stim/objects/Instruments/grandpiano.png",388,62,381,0.9,"stim/32.jpeg",3,2,3,2,"Instruments",2,1,"right","left",0.292000055,0,0,1,0,NA,NA,NA,NA,NA,NA,NA,NA,NA,NA,NA,NA,NA,NA,NA,NA,NA,NA,NA,NA,NA,NA,NA,NA
"452","stim/objects/Instruments/electricguitar.png",389,62,382,0.7,"stim/13.jpeg",1,3,2,2,"Instruments",2,2,"right","right",0.301000118,1,1,1,0,NA,NA,NA,NA,NA,NA,NA,NA,NA,NA,NA,NA,NA,NA,NA,NA,NA,NA,NA,NA,NA,NA,NA,NA
"397","stim/objects/HouseObjects/thermometer2.png",390,62,383,0.9,"stim/42.jpeg",4,2,3,1,"HouseObjects",1,1,"left","right",0.45600009,0,0,1,0,7,62,1,0.9,1,"stim/42.jpeg",4,2,"stim/42.jpeg",1,"right",1.656999826,4,1,2.082999945,2,3.001999855,7,0,0,NA,0,NA,0
"421","stim/objects/Instruments/bassguitar.png",391,62,384,0.5,"stim/62.jpeg",6,2,1,2,"Instruments",2,4,"right","right",0.238999844,1,1,1,0,NA,NA,NA,NA,NA,NA,NA,NA,NA,NA,NA,NA,NA,NA,NA,NA,NA,NA,NA,NA,NA,NA,NA,NA
"402","stim/objects/HouseObjects/vacuumcleaner.png",392,62,385,0.3,"stim/14.jpeg",1,4,2,1,"HouseObjects",1,1,"left","right",0.225999832,0,0,1,0,50,62,1,0.3,1,"stim/14.jpeg",1,4,"stim/14.jpeg",1,"left",1.964999914,3,2,1.961999893,1,0.862999916,50,1,0,0,1,1,0
"413","stim/objects/Instruments/balalaika.png",393,62,386,0.5,"stim/53.jpeg",5,3,1,2,"Instruments",2,4,"right","right",0.372999907,1,1,1,0,NA,NA,NA,NA,NA,NA,NA,NA,NA,NA,NA,NA,NA,NA,NA,NA,NA,NA,NA,NA,NA,NA,NA,NA
"300","stim/objects/HouseObjects/doormat.png",394,62,387,0.9,"stim/41.jpeg",4,1,3,2,"HouseObjects",1,4,"left","left",0.292999983,1,1,1,0,NA,NA,NA,NA,NA,NA,NA,NA,NA,NA,NA,NA,NA,NA,NA,NA,NA,NA,NA,NA,NA,NA,NA,NA
"272","stim/objects/HouseObjects/clothesdryingrack.png",395,62,388,0.7,"stim/23.jpeg",2,3,2,2,"HouseObjects",1,4,"left","right",0.241999865,0,0,1,0,NA,NA,NA,NA,NA,NA,NA,NA,NA,NA,NA,NA,NA,NA,NA,NA,NA,NA,NA,NA,NA,NA,NA,NA
"420","stim/objects/Instruments/bassdrum2.png",396,62,389,0.7,"stim/13.jpeg",1,3,2,1,"Instruments",2,1,"right","right",0.221999884,1,1,1,0,128,62,1,0.7,2,"stim/13.jpeg",1,3,"stim/13.jpeg",1,"right",1.789000034,4,2,0.647000074,1,0.701999903,128,0,0,NA,1,NA,0
"301","stim/objects/HouseObjects/doormat.png",397,62,390,0.9,"stim/44.jpeg",4,4,3,2,"HouseObjects",1,2,"left","right",0.247999907,0,0,1,0,NA,NA,NA,NA,NA,NA,NA,NA,NA,NA,NA,NA,NA,NA,NA,NA,NA,NA,NA,NA,NA,NA,NA,NA
"353","stim/objects/HouseObjects/garbagebin.png",398,62,391,0.9,"stim/43.jpeg",4,3,3,2,"HouseObjects",1,3,"left","right",0.328999996,0,0,1,0,NA,NA,NA,NA,NA,NA,NA,NA,NA,NA,NA,NA,NA,NA,NA,NA,NA,NA,NA,NA,NA,NA,NA,NA
"432","stim/objects/Instruments/clarinet2.png",399,62,392,0.3,"stim/21.jpeg",2,1,2,1,"Instruments",2,1,"right","left",0.292999983,0,0,1,0,40,62,1,0.3,2,"stim/21.jpeg",2,1,"stim/21.jpeg",1,"left",2.545000076,4,1,0.822999954,3,1.286000013,40,1,1,1,0,0,0
"518","stim/objects/Instruments/gong.png",400,62,393,0.9,"stim/32.jpeg",3,2,3,2,"Instruments",2,4,"right","right",0.297999859,1,1,1,0,NA,NA,NA,NA,NA,NA,NA,NA,NA,NA,NA,NA,NA,NA,NA,NA,NA,NA,NA,NA,NA,NA,NA,NA
"246","stim/objects/HouseObjects/ballofstring2.png",401,62,394,0.3,"stim/13.jpeg",1,3,2,1,"HouseObjects",1,3,"left","right",0.246999979,0,0,1,0,155,62,1,0.3,1,"stim/13.jpeg",1,3,"stim/13.jpeg",3,"right",1.994999886,3,2,0.312999964,1,0.421999931,155,0,0,NA,0,NA,0
"570","stim/objects/Instruments/xylophone2.png",402,62,395,0.1,"stim/44.jpeg",4,4,3,1,"Instruments",2,2,"right","left",0.340000153,0,0,1,0,57,62,1,0.1,2,"stim/44.jpeg",4,4,"stim/44.jpeg",2,"right",2.85800004,2,1,1.416999817,2,1.602999926,57,0,0,NA,1,NA,0
"457","stim/objects/Instruments/flute.png",403,62,396,0.9,"stim/31.jpeg",3,1,3,2,"Instruments",2,2,"right","right",0.282999992,1,1,1,0,NA,NA,NA,NA,NA,NA,NA,NA,NA,NA,NA,NA,NA,NA,NA,NA,NA,NA,NA,NA,NA,NA,NA,NA
"418","stim/objects/Instruments/bassdrum.png",404,62,397,0.5,"stim/54.jpeg",5,4,1,2,"Instruments",2,3,"right","right",0.390000105,1,1,1,0,NA,NA,NA,NA,NA,NA,NA,NA,NA,NA,NA,NA,NA,NA,NA,NA,NA,NA,NA,NA,NA,NA,NA,NA
"484","stim/objects/Instruments/flutetrans.png",405,62,398,0.9,"stim/34.jpeg",3,4,3,2,"Instruments",2,4,"right","right",0.364999771,1,1,1,0,NA,NA,NA,NA,NA,NA,NA,NA,NA,NA,NA,NA,NA,NA,NA,NA,NA,NA,NA,NA,NA,NA,NA,NA
"379","stim/objects/HouseObjects/hairdryer2.png",406,62,399,0.1,"stim/33.jpeg",3,3,3,1,"HouseObjects",1,3,"left","right",0.361999989,0,0,1,0,185,62,1,0.1,1,"stim/33.jpeg",3,3,"stim/33.jpeg",3,"left",2.029000044,3,1,0.961999893,3,0.395999908,185,1,0,0,1,1,0
"409","stim/objects/Instruments/acousticguitar.png",407,62,400,0.5,"stim/51.jpeg",5,1,1,2,"Instruments",2,3,"right","right",0.289000034,1,1,1,0,NA,NA,NA,NA,NA,NA,NA,NA,NA,NA,NA,NA,NA,NA,NA,NA,NA,NA,NA,NA,NA,NA,NA,NA
"293","stim/objects/HouseObjects/doormat.png",408,62,401,0.9,"stim/43.jpeg",4,3,3,2,"HouseObjects",1,3,"left","left",0.316999912,1,1,1,0,NA,NA,NA,NA,NA,NA,NA,NA,NA,NA,NA,NA,NA,NA,NA,NA,NA,NA,NA,NA,NA,NA,NA,NA
"546","stim/objects/Instruments/harp2.png",409,62,402,0.9,"stim/32.jpeg",3,2,3,1,"Instruments",2,1,"right","left",0.465999842,0,0,1,0,74,62,1,0.9,2,"stim/32.jpeg",3,2,"stim/32.jpeg",1,"right",1.957000017,2,3,0.446999788,1,0.950000048,74,0,0,NA,1,NA,0
"385","stim/objects/HouseObjects/safetypin2.png",410,62,403,0.1,"stim/32.jpeg",3,2,3,1,"HouseObjects",1,1,"left","right",0.384000063,0,0,1,0,108,62,1,0.1,1,"stim/32.jpeg",3,2,"stim/32.jpeg",1,"right",1.230000019,2,1,0.711999893,4,1.096999884,108,0,0,NA,0,NA,0
"289","stim/objects/HouseObjects/dishsoap.png",411,62,404,0.7,"stim/23.jpeg",2,3,2,2,"HouseObjects",1,1,"left","left",0.338000059,1,1,1,0,NA,NA,NA,NA,NA,NA,NA,NA,NA,NA,NA,NA,NA,NA,NA,NA,NA,NA,NA,NA,NA,NA,NA,NA
"444","stim/objects/Instruments/drums.png",412,62,405,0.7,"stim/12.jpeg",1,2,2,2,"Instruments",2,4,"right","left",0.259000063,0,0,1,0,NA,NA,NA,NA,NA,NA,NA,NA,NA,NA,NA,NA,NA,NA,NA,NA,NA,NA,NA,NA,NA,NA,NA,NA
"349","stim/objects/HouseObjects/garbagebin.png",413,62,406,0.9,"stim/41.jpeg",4,1,3,2,"HouseObjects",1,3,"left","right",0.85800004,0,0,1,0,NA,NA,NA,NA,NA,NA,NA,NA,NA,NA,NA,NA,NA,NA,NA,NA,NA,NA,NA,NA,NA,NA,NA,NA
"464","stim/objects/Instruments/flute.png",414,62,407,0.9,"stim/31.jpeg",3,1,3,2,"Instruments",2,4,"right","left",0.348999977,0,0,1,0,NA,NA,NA,NA,NA,NA,NA,NA,NA,NA,NA,NA,NA,NA,NA,NA,NA,NA,NA,NA,NA,NA,NA,NA
"372","stim/objects/HouseObjects/glass.png",415,62,408,0.9,"stim/41.jpeg",4,1,3,2,"HouseObjects",1,4,"left","right",0.419999838,0,0,1,0,NA,NA,NA,NA,NA,NA,NA,NA,NA,NA,NA,NA,NA,NA,NA,NA,NA,NA,NA,NA,NA,NA,NA,NA
"433","stim/objects/Instruments/cornet.png",416,62,409,0.5,"stim/63.jpeg",6,3,1,2,"Instruments",2,1,"right","",NA,0,0,1,0,NA,NA,NA,NA,NA,NA,NA,NA,NA,NA,NA,NA,NA,NA,NA,NA,NA,NA,NA,NA,NA,NA,NA,NA
"371","stim/objects/HouseObjects/glass.png",417,62,410,0.9,"stim/44.jpeg",4,4,3,2,"HouseObjects",1,3,"left","left",0.238000154,1,1,1,0,NA,NA,NA,NA,NA,NA,NA,NA,NA,NA,NA,NA,NA,NA,NA,NA,NA,NA,NA,NA,NA,NA,NA,NA
"516","stim/objects/Instruments/gong.png",418,62,411,0.9,"stim/33.jpeg",3,3,3,2,"Instruments",2,3,"right","right",0.369999886,1,1,1,0,NA,NA,NA,NA,NA,NA,NA,NA,NA,NA,NA,NA,NA,NA,NA,NA,NA,NA,NA,NA,NA,NA,NA,NA
"563","stim/objects/Instruments/tuba.png",419,62,412,0.7,"stim/13.jpeg",1,3,2,1,"Instruments",2,3,"right","left",0.697000027,0,0,1,0,10,62,1,0.7,2,"stim/13.jpeg",1,3,"stim/13.jpeg",3,"left",1.020999908,3,2,2.027999878,2,3.468999863,10,1,0,0,0,0,0
"290","stim/objects/HouseObjects/dishsoap2.png",420,62,413,0.7,"stim/21.jpeg",2,1,2,1,"HouseObjects",1,4,"left","",NA,0,0,1,0,161,62,1,0.7,1,"stim/21.jpeg",2,1,"stim/21.jpeg",4,"left",1.496999741,4,3,2.131000042,1,0.972999811,161,1,0,0,0,0,0
"446","stim/objects/Instruments/drums.png",421,62,414,0.7,"stim/13.jpeg",1,3,2,2,"Instruments",2,2,"right","right",0.349000216,1,1,1,0,NA,NA,NA,NA,NA,NA,NA,NA,NA,NA,NA,NA,NA,NA,NA,NA,NA,NA,NA,NA,NA,NA,NA,NA
"390","stim/objects/HouseObjects/sponge.png",422,62,415,0.5,"stim/63.jpeg",6,3,1,1,"HouseObjects",1,1,"left","",NA,0,0,1,0,35,62,1,0.5,2,"stim/63.jpeg",6,3,"stim/63.jpeg",1,"right",1.062999964,4,1,0.955999851,2,0.68599987,35,0,0,NA,0,NA,0
"523","stim/objects/Instruments/gong2.png",423,62,416,0.9,"stim/32.jpeg",3,2,3,1,"Instruments",2,2,"right","left",0.259000063,0,0,1,0,55,62,1,0.9,2,"stim/32.jpeg",3,2,"stim/32.jpeg",2,"left",2.963999987,3,1,0.977999926,3,2.848999977,55,1,0,0,0,0,0
"511","stim/objects/Instruments/gong.png",424,62,417,0.9,"stim/31.jpeg",3,1,3,2,"Instruments",2,3,"right","right",0.821000099,1,1,1,0,NA,NA,NA,NA,NA,NA,NA,NA,NA,NA,NA,NA,NA,NA,NA,NA,NA,NA,NA,NA,NA,NA,NA,NA
"264","stim/objects/HouseObjects/broom2.png",425,62,418,0.7,"stim/22.jpeg",2,2,2,1,"HouseObjects",1,4,"left","right",0.713999987,0,0,1,0,131,62,1,0.7,1,"stim/22.jpeg",2,2,"stim/22.jpeg",4,"left",1.534999847,4,2,1.256999731,1,1.135999918,131,1,1,1,0,0,0
"345","stim/objects/HouseObjects/garbagebin.png",426,62,419,0.9,"stim/43.jpeg",4,3,3,2,"HouseObjects",1,3,"left","left",0.664999962,1,1,1,0,NA,NA,NA,NA,NA,NA,NA,NA,NA,NA,NA,NA,NA,NA,NA,NA,NA,NA,NA,NA,NA,NA,NA,NA
"425","stim/objects/Instruments/cello.png",427,62,420,0.5,"stim/64.jpeg",6,4,1,2,"Instruments",2,4,"right","left",0.74000001,0,0,1,0,NA,NA,NA,NA,NA,NA,NA,NA,NA,NA,NA,NA,NA,NA,NA,NA,NA,NA,NA,NA,NA,NA,NA,NA
"286","stim/objects/HouseObjects/cushion2.png",428,62,421,0.7,"stim/24.jpeg",2,4,2,1,"HouseObjects",1,4,"left","right",0.641000032,0,0,1,0,82,62,1,0.7,1,"stim/24.jpeg",2,4,"stim/24.jpeg",4,"right",1.160000086,2,4,2.507999897,3,1.295999765,82,0,1,NA,0,NA,0
"500","stim/objects/Instruments/frenchhorn.png",429,62,422,0.9,"stim/33.jpeg",3,3,3,2,"Instruments",2,1,"right","right",0.261999846,1,1,1,0,NA,NA,NA,NA,NA,NA,NA,NA,NA,NA,NA,NA,NA,NA,NA,NA,NA,NA,NA,NA,NA,NA,NA,NA
"481","stim/objects/Instruments/flutetrans.png",430,62,423,0.9,"stim/33.jpeg",3,3,3,2,"Instruments",2,3,"right","right",0.319000006,1,1,1,0,NA,NA,NA,NA,NA,NA,NA,NA,NA,NA,NA,NA,NA,NA,NA,NA,NA,NA,NA,NA,NA,NA,NA,NA
"407","stim/objects/Instruments/accordion.png",431,62,424,0.5,"stim/54.jpeg",5,4,1,2,"Instruments",2,4,"right","right",0.285000086,1,1,1,0,NA,NA,NA,NA,NA,NA,NA,NA,NA,NA,NA,NA,NA,NA,NA,NA,NA,NA,NA,NA,NA,NA,NA,NA
"495","stim/objects/Instruments/frenchhorn.png",432,62,425,0.9,"stim/33.jpeg",3,3,3,2,"Instruments",2,1,"right","right",0.268999815,1,1,1,0,NA,NA,NA,NA,NA,NA,NA,NA,NA,NA,NA,NA,NA,NA,NA,NA,NA,NA,NA,NA,NA,NA,NA,NA
"549","stim/objects/Instruments/saxophone.png",433,62,426,0.5,"stim/52.jpeg",5,2,1,1,"Instruments",2,2,"right","right",0.350000143,1,1,1,0,28,62,1,0.5,1,"stim/52.jpeg",5,2,"stim/52.jpeg",2,"right",1.777999878,3,2,1.264999866,1,0.932999849,28,0,1,NA,0,NA,0
"302","stim/objects/HouseObjects/doormat.png",434,62,427,0.9,"stim/44.jpeg",4,4,3,2,"HouseObjects",1,2,"left","right",0.220000029,0,0,1,0,NA,NA,NA,NA,NA,NA,NA,NA,NA,NA,NA,NA,NA,NA,NA,NA,NA,NA,NA,NA,NA,NA,NA,NA
"458","stim/objects/Instruments/flute.png",435,62,428,0.9,"stim/33.jpeg",3,3,3,2,"Instruments",2,1,"right","left",0.362000227,0,0,1,0,NA,NA,NA,NA,NA,NA,NA,NA,NA,NA,NA,NA,NA,NA,NA,NA,NA,NA,NA,NA,NA,NA,NA,NA
"476","stim/objects/Instruments/flutetrans.png",436,62,429,0.9,"stim/33.jpeg",3,3,3,2,"Instruments",2,2,"right","right",0.177999973,1,1,1,0,NA,NA,NA,NA,NA,NA,NA,NA,NA,NA,NA,NA,NA,NA,NA,NA,NA,NA,NA,NA,NA,NA,NA,NA
"381","stim/objects/HouseObjects/handbrush2.png",437,62,430,0.1,"stim/34.jpeg",3,4,3,1,"HouseObjects",1,3,"left","right",0.217999935,0,0,1,0,49,62,1,0.1,1,"stim/34.jpeg",3,4,"stim/34.jpeg",3,"right",1.104999781,4,1,1.008999825,3,1.65199995,49,0,0,NA,1,NA,0
"430","stim/objects/Instruments/clarinet.png",438,62,431,0.5,"stim/61.jpeg",6,1,1,2,"Instruments",2,4,"right","right",0.227999926,1,1,1,0,NA,NA,NA,NA,NA,NA,NA,NA,NA,NA,NA,NA,NA,NA,NA,NA,NA,NA,NA,NA,NA,NA,NA,NA
"427","stim/objects/Instruments/chime.png",439,62,432,0.5,"stim/64.jpeg",6,4,1,2,"Instruments",2,1,"right","left",0.289000034,0,0,1,0,NA,NA,NA,NA,NA,NA,NA,NA,NA,NA,NA,NA,NA,NA,NA,NA,NA,NA,NA,NA,NA,NA,NA,NA
"454","stim/objects/Instruments/electricguitar.png",440,62,433,0.7,"stim/14.jpeg",1,4,2,2,"Instruments",2,4,"right","left",0.424000025,0,0,1,0,NA,NA,NA,NA,NA,NA,NA,NA,NA,NA,NA,NA,NA,NA,NA,NA,NA,NA,NA,NA,NA,NA,NA,NA
"533","stim/objects/Instruments/grandpiano.png",441,62,434,0.9,"stim/34.jpeg",3,4,3,2,"Instruments",2,1,"right","right",0.266000032,1,1,1,0,NA,NA,NA,NA,NA,NA,NA,NA,NA,NA,NA,NA,NA,NA,NA,NA,NA,NA,NA,NA,NA,NA,NA,NA
"558","stim/objects/Instruments/triangle2.png",442,62,435,0.1,"stim/42.jpeg",4,2,3,1,"Instruments",2,1,"right","right",0.150000095,1,1,1,0,20,62,1,0.1,2,"stim/42.jpeg",4,2,"stim/42.jpeg",1,"right",2.008000135,3,2,0.764999866,2,1.399999857,20,0,1,NA,0,NA,0
"348","stim/objects/HouseObjects/garbagebin.png",443,62,436,0.9,"stim/42.jpeg",4,2,3,2,"HouseObjects",1,1,"left","right",0.339999914,0,0,1,0,NA,NA,NA,NA,NA,NA,NA,NA,NA,NA,NA,NA,NA,NA,NA,NA,NA,NA,NA,NA,NA,NA,NA,NA
"422","stim/objects/Instruments/bassguitar.png",444,62,437,0.5,"stim/63.jpeg",6,3,1,2,"Instruments",2,4,"right","left",0.475999832,0,0,1,0,NA,NA,NA,NA,NA,NA,NA,NA,NA,NA,NA,NA,NA,NA,NA,NA,NA,NA,NA,NA,NA,NA,NA,NA
"365","stim/objects/HouseObjects/glass.png",445,62,438,0.9,"stim/41.jpeg",4,1,3,2,"HouseObjects",1,2,"left","left",0.313999891,1,1,1,0,NA,NA,NA,NA,NA,NA,NA,NA,NA,NA,NA,NA,NA,NA,NA,NA,NA,NA,NA,NA,NA,NA,NA,NA
"321","stim/objects/HouseObjects/dustpan.png",446,62,439,0.9,"stim/43.jpeg",4,3,3,2,"HouseObjects",1,4,"left","right",0.539999962,0,0,1,0,NA,NA,NA,NA,NA,NA,NA,NA,NA,NA,NA,NA,NA,NA,NA,NA,NA,NA,NA,NA,NA,NA,NA,NA
"318","stim/objects/HouseObjects/dustpan.png",447,62,440,0.9,"stim/44.jpeg",4,4,3,2,"HouseObjects",1,3,"left","right",0.396999836,0,0,1,0,NA,NA,NA,NA,NA,NA,NA,NA,NA,NA,NA,NA,NA,NA,NA,NA,NA,NA,NA,NA,NA,NA,NA,NA
"467","stim/objects/Instruments/flute.png",448,62,441,0.9,"stim/33.jpeg",3,3,3,2,"Instruments",2,1,"right","left",0.279999971,0,0,1,0,NA,NA,NA,NA,NA,NA,NA,NA,NA,NA,NA,NA,NA,NA,NA,NA,NA,NA,NA,NA,NA,NA,NA,NA
"496","stim/objects/Instruments/frenchhorn.png",449,62,442,0.9,"stim/34.jpeg",3,4,3,2,"Instruments",2,1,"right","right",0.371999979,1,1,1,0,NA,NA,NA,NA,NA,NA,NA,NA,NA,NA,NA,NA,NA,NA,NA,NA,NA,NA,NA,NA,NA,NA,NA,NA
"362","stim/objects/HouseObjects/glass.png",450,62,443,0.9,"stim/44.jpeg",4,4,3,2,"HouseObjects",1,3,"left","right",0.131999969,0,0,1,0,NA,NA,NA,NA,NA,NA,NA,NA,NA,NA,NA,NA,NA,NA,NA,NA,NA,NA,NA,NA,NA,NA,NA,NA
"514","stim/objects/Instruments/gong.png",451,62,444,0.9,"stim/32.jpeg",3,2,3,2,"Instruments",2,4,"right","left",0.26699996,0,0,1,0,NA,NA,NA,NA,NA,NA,NA,NA,NA,NA,NA,NA,NA,NA,NA,NA,NA,NA,NA,NA,NA,NA,NA,NA
"410","stim/objects/Instruments/acousticguitar.png",452,62,445,0.5,"stim/52.jpeg",5,2,1,2,"Instruments",2,1,"right","right",0.586999893,1,1,1,0,NA,NA,NA,NA,NA,NA,NA,NA,NA,NA,NA,NA,NA,NA,NA,NA,NA,NA,NA,NA,NA,NA,NA,NA
"324","stim/objects/HouseObjects/dustpan2.png",453,62,446,0.1,"stim/32.jpeg",3,2,3,1,"HouseObjects",1,2,"left","left",0.257999897,1,1,1,0,170,62,1,0.1,1,"stim/32.jpeg",3,2,"stim/32.jpeg",2,"right",1.132999897,4,3,0.238999844,2,0.23300004,170,0,0,NA,1,NA,0
"303","stim/objects/HouseObjects/doormat.png",454,62,447,0.9,"stim/42.jpeg",4,2,3,2,"HouseObjects",1,1,"left","left",0.190999985,1,1,1,0,NA,NA,NA,NA,NA,NA,NA,NA,NA,NA,NA,NA,NA,NA,NA,NA,NA,NA,NA,NA,NA,NA,NA,NA
"337","stim/objects/HouseObjects/flyswatter.png",455,62,448,0.9,"stim/42.jpeg",4,2,3,2,"HouseObjects",1,1,"left","left",0.696000099,1,1,1,0,NA,NA,NA,NA,NA,NA,NA,NA,NA,NA,NA,NA,NA,NA,NA,NA,NA,NA,NA,NA,NA,NA,NA,NA
"285","stim/objects/HouseObjects/cushion.png",456,62,449,0.7,"stim/24.jpeg",2,4,2,2,"HouseObjects",1,1,"left","left",0.542000055,1,1,1,0,NA,NA,NA,NA,NA,NA,NA,NA,NA,NA,NA,NA,NA,NA,NA,NA,NA,NA,NA,NA,NA,NA,NA,NA
"569","stim/objects/Instruments/xylophone.png",457,62,450,0.7,"stim/12.jpeg",1,2,2,1,"Instruments",2,3,"right","right",0.652999878,1,1,1,0,41,62,1,0.7,2,"stim/12.jpeg",1,2,"stim/12.jpeg",3,"right",1.785000086,4,1,1.912999868,3,1.253000021,41,0,0,NA,1,NA,0
"249","stim/objects/HouseObjects/barbecuelighter2.png",458,62,451,0.3,"stim/14.jpeg",1,4,2,1,"HouseObjects",1,3,"left","right",0.546999931,0,0,1,0,143,62,1,0.3,1,"stim/14.jpeg",1,4,"stim/14.jpeg",3,"right",0.862999916,4,2,0.532000065,1,0.314999819,143,0,0,NA,0,NA,0
"540","stim/objects/Instruments/grandpiano2.png",459,62,452,0.9,"stim/33.jpeg",3,3,3,1,"Instruments",2,2,"right","left",0.512000084,0,0,1,0,140,62,1,0.9,2,"stim/33.jpeg",3,3,"stim/33.jpeg",2,"right",1.316999912,3,2,0.279000044,1,0.347000122,140,0,0,NA,0,NA,0
"355","stim/objects/HouseObjects/garbagebin.png",460,62,453,0.9,"stim/44.jpeg",4,4,3,2,"HouseObjects",1,3,"left","right",0.48300004,0,0,1,0,NA,NA,NA,NA,NA,NA,NA,NA,NA,NA,NA,NA,NA,NA,NA,NA,NA,NA,NA,NA,NA,NA,NA,NA
"280","stim/objects/HouseObjects/coffee.png",461,62,454,0.7,"stim/23.jpeg",2,3,2,2,"HouseObjects",1,3,"left","right",0.618000031,0,0,1,0,NA,NA,NA,NA,NA,NA,NA,NA,NA,NA,NA,NA,NA,NA,NA,NA,NA,NA,NA,NA,NA,NA,NA,NA
"373","stim/objects/HouseObjects/glass.png",462,62,455,0.9,"stim/42.jpeg",4,2,3,2,"HouseObjects",1,4,"left","right",0.454999924,0,0,1,0,NA,NA,NA,NA,NA,NA,NA,NA,NA,NA,NA,NA,NA,NA,NA,NA,NA,NA,NA,NA,NA,NA,NA,NA
"270","stim/objects/HouseObjects/clock2.png",463,62,456,0.7,"stim/24.jpeg",2,4,2,1,"HouseObjects",1,3,"left","left",0.357999802,1,1,1,0,135,62,1,0.7,1,"stim/24.jpeg",2,4,"stim/24.jpeg",3,"right",0.660000086,3,2,0.260999918,1,0.214999914,135,0,0,NA,0,NA,0
"504","stim/objects/Instruments/frenchhorn.png",464,62,457,0.9,"stim/31.jpeg",3,1,3,2,"Instruments",2,2,"right","left",0.381000042,0,0,1,0,NA,NA,NA,NA,NA,NA,NA,NA,NA,NA,NA,NA,NA,NA,NA,NA,NA,NA,NA,NA,NA,NA,NA,NA
"354","stim/objects/HouseObjects/garbagebin.png",465,62,458,0.9,"stim/43.jpeg",4,3,3,2,"HouseObjects",1,3,"left","right",0.34800005,0,0,1,0,NA,NA,NA,NA,NA,NA,NA,NA,NA,NA,NA,NA,NA,NA,NA,NA,NA,NA,NA,NA,NA,NA,NA,NA
"339","stim/objects/HouseObjects/flyswatter.png",466,62,459,0.9,"stim/43.jpeg",4,3,3,2,"HouseObjects",1,1,"left","left",0.46600008,1,1,1,0,NA,NA,NA,NA,NA,NA,NA,NA,NA,NA,NA,NA,NA,NA,NA,NA,NA,NA,NA,NA,NA,NA,NA,NA
"450","stim/objects/Instruments/electricdrumset.png",467,62,460,0.7,"stim/14.jpeg",1,4,2,2,"Instruments",2,2,"right","left",0.528000116,0,0,1,0,NA,NA,NA,NA,NA,NA,NA,NA,NA,NA,NA,NA,NA,NA,NA,NA,NA,NA,NA,NA,NA,NA,NA,NA
"338","stim/objects/HouseObjects/flyswatter.png",468,62,461,0.9,"stim/44.jpeg",4,4,3,2,"HouseObjects",1,3,"left","right",0.467000008,0,0,1,0,NA,NA,NA,NA,NA,NA,NA,NA,NA,NA,NA,NA,NA,NA,NA,NA,NA,NA,NA,NA,NA,NA,NA,NA
"263","stim/objects/HouseObjects/broom.png",469,62,462,0.5,"stim/61.jpeg",6,1,1,2,"HouseObjects",1,3,"left","right",0.319000006,0,0,1,0,NA,NA,NA,NA,NA,NA,NA,NA,NA,NA,NA,NA,NA,NA,NA,NA,NA,NA,NA,NA,NA,NA,NA,NA
