"","obj_file","X.x","participant.x","trialN.x","trial_cond","scn_file.x","scn_cat","scn_inst","scn_condition","fillers","obj_cat","obj_cat_num","quadrant","corr_ans","key_resp_trial.keys","key_resp_trial.rt","trial_acc","trial_acc_manual","group.x","practice","X.y","participant.y","OvsN","PE_level","object_cat","scn_file.y","corr_scn_cat","corr_scn_inst","scn_file.1","corr_loc","key_resp_id.keys","key_resp_id.rt","key_resp_conf.keys","key_resp_assoc.keys","key_resp_assoc.rt","key_resp_loc.keys","key_resp_loc.rt","trialN.y","id_acc","assoc.acc","cond_assoc","loc.acc","cond_loc","group.y"
"138","stim/objects/Instruments/electricdrumset2.png",1,36,1,0.7,"stim/62.jpeg",6,2,2,NA,"Instruments",1,4,"left","",NA,0,0,1,1,NA,NA,NA,NA,NA,NA,NA,NA,NA,NA,NA,NA,NA,NA,NA,NA,NA,NA,NA,NA,NA,NA,NA,NA
"52","stim/objects/HouseObjects/flyswatter2.png",2,36,2,0.9,"stim/12.jpeg",1,2,3,NA,"HouseObjects",2,2,"right","",NA,0,0,1,1,NA,NA,NA,NA,NA,NA,NA,NA,NA,NA,NA,NA,NA,NA,NA,NA,NA,NA,NA,NA,NA,NA,NA,NA
"208","stim/objects/Instruments/harmonica2.png",3,36,3,0.9,"stim/22.jpeg",2,2,3,NA,"Instruments",1,3,"left","left",0.597000122,1,1,1,1,NA,NA,NA,NA,NA,NA,NA,NA,NA,NA,NA,NA,NA,NA,NA,NA,NA,NA,NA,NA,NA,NA,NA,NA
"75","stim/objects/HouseObjects/glass.png",4,36,4,0.5,"stim/44.jpeg",4,4,1,NA,"HouseObjects",2,4,"right","right",0.690999985,1,1,1,1,NA,NA,NA,NA,NA,NA,NA,NA,NA,NA,NA,NA,NA,NA,NA,NA,NA,NA,NA,NA,NA,NA,NA,NA
"17","stim/objects/HouseObjects/dishsoap.png",5,36,5,0.5,"stim/33.jpeg",3,3,1,NA,"HouseObjects",2,4,"right","left",0.693999767,0,0,1,1,NA,NA,NA,NA,NA,NA,NA,NA,NA,NA,NA,NA,NA,NA,NA,NA,NA,NA,NA,NA,NA,NA,NA,NA
"169","stim/objects/Instruments/flutetrans.png",6,36,6,0.5,"stim/41.jpeg",4,1,1,NA,"Instruments",1,4,"left","right",0.671999931,0,0,1,1,NA,NA,NA,NA,NA,NA,NA,NA,NA,NA,NA,NA,NA,NA,NA,NA,NA,NA,NA,NA,NA,NA,NA,NA
"157","stim/objects/Instruments/flute.png",7,36,7,0.5,"stim/34.jpeg",3,4,1,NA,"Instruments",1,2,"left","left",0.772000074,1,1,1,1,NA,NA,NA,NA,NA,NA,NA,NA,NA,NA,NA,NA,NA,NA,NA,NA,NA,NA,NA,NA,NA,NA,NA,NA
"1","stim/objects/HouseObjects/coffee.png",8,36,8,0.5,"stim/31.jpeg",3,1,1,NA,"HouseObjects",2,2,"right","",NA,0,0,1,1,NA,NA,NA,NA,NA,NA,NA,NA,NA,NA,NA,NA,NA,NA,NA,NA,NA,NA,NA,NA,NA,NA,NA,NA
"97","stim/objects/HouseObjects/hairdryer.png",9,36,9,0.7,"stim/52.jpeg",5,2,2,NA,"HouseObjects",2,3,"right","",NA,0,0,1,1,NA,NA,NA,NA,NA,NA,NA,NA,NA,NA,NA,NA,NA,NA,NA,NA,NA,NA,NA,NA,NA,NA,NA,NA
"162","stim/objects/Instruments/flute2.png",10,36,10,0.7,"stim/64.jpeg",6,4,2,NA,"Instruments",1,1,"left","left",0.693000078,1,1,1,1,NA,NA,NA,NA,NA,NA,NA,NA,NA,NA,NA,NA,NA,NA,NA,NA,NA,NA,NA,NA,NA,NA,NA,NA
"38","stim/objects/HouseObjects/dustpan2.png",11,36,11,0.9,"stim/11.jpeg",1,1,3,NA,"HouseObjects",2,1,"right","right",0.655999899,1,1,1,1,NA,NA,NA,NA,NA,NA,NA,NA,NA,NA,NA,NA,NA,NA,NA,NA,NA,NA,NA,NA,NA,NA,NA,NA
"209","stim/objects/Instruments/harmonica2.png",12,36,12,0.9,"stim/22.jpeg",2,2,3,NA,"Instruments",1,2,"left","left",0.625999928,1,1,1,1,NA,NA,NA,NA,NA,NA,NA,NA,NA,NA,NA,NA,NA,NA,NA,NA,NA,NA,NA,NA,NA,NA,NA,NA
"61","stim/objects/HouseObjects/garbagebin.png",13,36,13,0.5,"stim/43.jpeg",4,3,1,NA,"HouseObjects",2,3,"right","left",0.682999849,0,0,1,1,NA,NA,NA,NA,NA,NA,NA,NA,NA,NA,NA,NA,NA,NA,NA,NA,NA,NA,NA,NA,NA,NA,NA,NA
"62","stim/objects/HouseObjects/garbagebin.png",14,36,14,0.5,"stim/43.jpeg",4,3,1,NA,"HouseObjects",2,3,"right","right",0.591999769,1,1,1,1,NA,NA,NA,NA,NA,NA,NA,NA,NA,NA,NA,NA,NA,NA,NA,NA,NA,NA,NA,NA,NA,NA,NA,NA
"112","stim/objects/HouseObjects/handbrush2.png",15,36,15,0.1,"stim/23.jpeg",2,3,3,NA,"HouseObjects",2,4,"right","left",0.627999783,0,0,1,1,NA,NA,NA,NA,NA,NA,NA,NA,NA,NA,NA,NA,NA,NA,NA,NA,NA,NA,NA,NA,NA,NA,NA,NA
"205","stim/objects/Instruments/harmonica.png",16,36,16,0.3,"stim/52.jpeg",5,2,2,NA,"Instruments",1,1,"left","right",0.750999928,0,0,1,1,NA,NA,NA,NA,NA,NA,NA,NA,NA,NA,NA,NA,NA,NA,NA,NA,NA,NA,NA,NA,NA,NA,NA,NA
"158","stim/objects/Instruments/flute.png",17,36,17,0.5,"stim/34.jpeg",3,4,1,NA,"Instruments",1,3,"left","left",0.591999769,1,1,1,1,NA,NA,NA,NA,NA,NA,NA,NA,NA,NA,NA,NA,NA,NA,NA,NA,NA,NA,NA,NA,NA,NA,NA,NA
"210","stim/objects/Instruments/harmonica2.png",18,36,18,0.9,"stim/22.jpeg",2,2,3,NA,"Instruments",1,4,"left","left",0.604999781,1,1,1,1,NA,NA,NA,NA,NA,NA,NA,NA,NA,NA,NA,NA,NA,NA,NA,NA,NA,NA,NA,NA,NA,NA,NA,NA
"175","stim/objects/Instruments/frenchhorn.png",19,36,19,0.5,"stim/42.jpeg",4,2,1,NA,"Instruments",1,4,"left","right",0.767999887,0,0,1,1,NA,NA,NA,NA,NA,NA,NA,NA,NA,NA,NA,NA,NA,NA,NA,NA,NA,NA,NA,NA,NA,NA,NA,NA
"33","stim/objects/HouseObjects/dustpan.png",20,36,20,0.5,"stim/41.jpeg",4,1,1,NA,"HouseObjects",2,4,"right","right",0.847999811,1,1,1,1,NA,NA,NA,NA,NA,NA,NA,NA,NA,NA,NA,NA,NA,NA,NA,NA,NA,NA,NA,NA,NA,NA,NA,NA
"139","stim/objects/Instruments/electricdrumset2.png",21,36,21,0.7,"stim/62.jpeg",6,2,2,NA,"Instruments",1,3,"left","left",0.720999956,1,1,1,1,NA,NA,NA,NA,NA,NA,NA,NA,NA,NA,NA,NA,NA,NA,NA,NA,NA,NA,NA,NA,NA,NA,NA,NA
"196","stim/objects/Instruments/guitarcase2.png",22,36,22,0.9,"stim/21.jpeg",2,1,3,NA,"Instruments",1,2,"left","left",0.686999798,1,1,1,1,NA,NA,NA,NA,NA,NA,NA,NA,NA,NA,NA,NA,NA,NA,NA,NA,NA,NA,NA,NA,NA,NA,NA,NA
"176","stim/objects/Instruments/frenchhorn.png",23,36,23,0.5,"stim/42.jpeg",4,2,1,NA,"Instruments",1,2,"left","right",0.640000105,0,0,1,1,NA,NA,NA,NA,NA,NA,NA,NA,NA,NA,NA,NA,NA,NA,NA,NA,NA,NA,NA,NA,NA,NA,NA,NA
"47","stim/objects/HouseObjects/flyswatter.png",24,36,24,0.5,"stim/42.jpeg",4,2,1,NA,"HouseObjects",2,2,"right","right",0.819999933,1,1,1,1,NA,NA,NA,NA,NA,NA,NA,NA,NA,NA,NA,NA,NA,NA,NA,NA,NA,NA,NA,NA,NA,NA,NA,NA
"30","stim/objects/HouseObjects/doormat2.png",25,36,25,0.3,"stim/64.jpeg",6,4,2,NA,"HouseObjects",2,2,"right","left",0.56099987,0,0,1,1,NA,NA,NA,NA,NA,NA,NA,NA,NA,NA,NA,NA,NA,NA,NA,NA,NA,NA,NA,NA,NA,NA,NA,NA
"120","stim/objects/HouseObjects/handvacuum2.png",26,36,26,0.1,"stim/24.jpeg",2,4,3,NA,"HouseObjects",2,3,"right","left",0.564999819,0,0,1,1,NA,NA,NA,NA,NA,NA,NA,NA,NA,NA,NA,NA,NA,NA,NA,NA,NA,NA,NA,NA,NA,NA,NA,NA
"9","stim/objects/HouseObjects/cushion.png",27,36,27,0.5,"stim/32.jpeg",3,2,1,NA,"HouseObjects",2,1,"right","left",0.717000008,0,0,1,1,NA,NA,NA,NA,NA,NA,NA,NA,NA,NA,NA,NA,NA,NA,NA,NA,NA,NA,NA,NA,NA,NA,NA,NA
"105","stim/objects/HouseObjects/handbrush.png",28,36,28,0.7,"stim/53.jpeg",5,3,2,NA,"HouseObjects",2,3,"right","right",0.631999969,1,1,1,1,NA,NA,NA,NA,NA,NA,NA,NA,NA,NA,NA,NA,NA,NA,NA,NA,NA,NA,NA,NA,NA,NA,NA,NA
"217","stim/objects/Instruments/harp.png",29,36,29,0.3,"stim/53.jpeg",5,3,2,NA,"Instruments",1,1,"left","right",0.775000095,0,0,1,1,NA,NA,NA,NA,NA,NA,NA,NA,NA,NA,NA,NA,NA,NA,NA,NA,NA,NA,NA,NA,NA,NA,NA,NA
"220","stim/objects/Instruments/harp2.png",30,36,30,0.9,"stim/23.jpeg",2,3,3,NA,"Instruments",1,1,"left","left",0.555999994,1,1,1,1,NA,NA,NA,NA,NA,NA,NA,NA,NA,NA,NA,NA,NA,NA,NA,NA,NA,NA,NA,NA,NA,NA,NA,NA
"221","stim/objects/Instruments/harp2.png",31,36,31,0.9,"stim/23.jpeg",2,3,3,NA,"Instruments",1,3,"left","left",0.608999968,1,1,1,1,NA,NA,NA,NA,NA,NA,NA,NA,NA,NA,NA,NA,NA,NA,NA,NA,NA,NA,NA,NA,NA,NA,NA,NA
"18","stim/objects/HouseObjects/dishsoap.png",32,36,32,0.5,"stim/33.jpeg",3,3,1,NA,"HouseObjects",2,3,"right","right",0.804999828,1,1,1,1,NA,NA,NA,NA,NA,NA,NA,NA,NA,NA,NA,NA,NA,NA,NA,NA,NA,NA,NA,NA,NA,NA,NA,NA
"80","stim/objects/HouseObjects/glass2.png",33,36,33,0.9,"stim/14.jpeg",1,4,3,NA,"HouseObjects",2,3,"right","right",0.828999758,1,1,1,1,NA,NA,NA,NA,NA,NA,NA,NA,NA,NA,NA,NA,NA,NA,NA,NA,NA,NA,NA,NA,NA,NA,NA,NA
"159","stim/objects/Instruments/flute.png",34,36,34,0.5,"stim/34.jpeg",3,4,1,NA,"Instruments",1,3,"left","",NA,0,0,1,1,NA,NA,NA,NA,NA,NA,NA,NA,NA,NA,NA,NA,NA,NA,NA,NA,NA,NA,NA,NA,NA,NA,NA,NA
"76","stim/objects/HouseObjects/glass.png",35,36,35,0.5,"stim/44.jpeg",4,4,1,NA,"HouseObjects",2,1,"right","right",0.895999908,1,1,1,1,NA,NA,NA,NA,NA,NA,NA,NA,NA,NA,NA,NA,NA,NA,NA,NA,NA,NA,NA,NA,NA,NA,NA,NA
"10","stim/objects/HouseObjects/cushion.png",36,36,36,0.5,"stim/32.jpeg",3,2,1,NA,"HouseObjects",2,1,"right","right",0.815999985,1,1,1,1,NA,NA,NA,NA,NA,NA,NA,NA,NA,NA,NA,NA,NA,NA,NA,NA,NA,NA,NA,NA,NA,NA,NA,NA
"53","stim/objects/HouseObjects/flyswatter2.png",37,36,37,0.9,"stim/12.jpeg",1,2,3,NA,"HouseObjects",2,2,"right","right",0.602999926,1,1,1,1,NA,NA,NA,NA,NA,NA,NA,NA,NA,NA,NA,NA,NA,NA,NA,NA,NA,NA,NA,NA,NA,NA,NA,NA
"229","stim/objects/Instruments/hihat.png",38,36,38,0.3,"stim/54.jpeg",5,4,2,NA,"Instruments",1,1,"left","right",0.707000017,0,0,1,1,NA,NA,NA,NA,NA,NA,NA,NA,NA,NA,NA,NA,NA,NA,NA,NA,NA,NA,NA,NA,NA,NA,NA,NA
"187","stim/objects/Instruments/grandpiano.png",39,36,39,0.5,"stim/44.jpeg",4,4,1,NA,"Instruments",1,2,"left","right",0.521999836,0,0,1,1,NA,NA,NA,NA,NA,NA,NA,NA,NA,NA,NA,NA,NA,NA,NA,NA,NA,NA,NA,NA,NA,NA,NA,NA
"25","stim/objects/HouseObjects/doormat.png",40,36,40,0.5,"stim/34.jpeg",3,4,1,NA,"HouseObjects",2,1,"right","left",0.898000002,0,0,1,1,NA,NA,NA,NA,NA,NA,NA,NA,NA,NA,NA,NA,NA,NA,NA,NA,NA,NA,NA,NA,NA,NA,NA,NA
"230","stim/objects/Instruments/hihat.png",41,36,41,0.3,"stim/54.jpeg",5,4,2,NA,"Instruments",1,2,"left","right",0.530999899,0,0,1,1,NA,NA,NA,NA,NA,NA,NA,NA,NA,NA,NA,NA,NA,NA,NA,NA,NA,NA,NA,NA,NA,NA,NA,NA
"232","stim/objects/Instruments/hihat2.png",42,36,42,0.9,"stim/24.jpeg",2,4,3,NA,"Instruments",1,3,"left","left",0.61500001,1,1,1,1,NA,NA,NA,NA,NA,NA,NA,NA,NA,NA,NA,NA,NA,NA,NA,NA,NA,NA,NA,NA,NA,NA,NA,NA
"77","stim/objects/HouseObjects/glass.png",43,36,43,0.5,"stim/44.jpeg",4,4,1,NA,"HouseObjects",2,3,"right","right",0.792000055,1,1,1,1,NA,NA,NA,NA,NA,NA,NA,NA,NA,NA,NA,NA,NA,NA,NA,NA,NA,NA,NA,NA,NA,NA,NA,NA
"113","stim/objects/HouseObjects/handvacuum.png",44,36,44,0.7,"stim/54.jpeg",5,4,2,NA,"HouseObjects",2,1,"right","right",0.660000086,1,1,1,1,NA,NA,NA,NA,NA,NA,NA,NA,NA,NA,NA,NA,NA,NA,NA,NA,NA,NA,NA,NA,NA,NA,NA,NA
"66","stim/objects/HouseObjects/garbagebin2.png",45,36,45,0.9,"stim/13.jpeg",1,3,3,NA,"HouseObjects",2,3,"right","right",0.578999996,1,1,1,1,NA,NA,NA,NA,NA,NA,NA,NA,NA,NA,NA,NA,NA,NA,NA,NA,NA,NA,NA,NA,NA,NA,NA,NA
"26","stim/objects/HouseObjects/doormat.png",46,36,46,0.5,"stim/34.jpeg",3,4,1,NA,"HouseObjects",2,3,"right","right",0.791000128,1,1,1,1,NA,NA,NA,NA,NA,NA,NA,NA,NA,NA,NA,NA,NA,NA,NA,NA,NA,NA,NA,NA,NA,NA,NA,NA
"197","stim/objects/Instruments/guitarcase2.png",47,36,47,0.9,"stim/21.jpeg",2,1,3,NA,"Instruments",1,1,"left","left",0.743999958,1,1,1,1,NA,NA,NA,NA,NA,NA,NA,NA,NA,NA,NA,NA,NA,NA,NA,NA,NA,NA,NA,NA,NA,NA,NA,NA
"140","stim/objects/Instruments/electricdrumset2.png",48,36,48,0.7,"stim/62.jpeg",6,2,2,NA,"Instruments",1,4,"left","left",0.697999954,1,1,1,1,NA,NA,NA,NA,NA,NA,NA,NA,NA,NA,NA,NA,NA,NA,NA,NA,NA,NA,NA,NA,NA,NA,NA,NA
"150","stim/objects/Instruments/electricguitar2.png",49,36,49,0.7,"stim/63.jpeg",6,3,2,NA,"Instruments",1,3,"left","left",0.677999973,1,1,1,1,NA,NA,NA,NA,NA,NA,NA,NA,NA,NA,NA,NA,NA,NA,NA,NA,NA,NA,NA,NA,NA,NA,NA,NA
"121","stim/objects/Instruments/drums.png",50,36,50,0.5,"stim/31.jpeg",3,1,1,NA,"Instruments",1,2,"left","left",0.652999878,1,1,1,1,NA,NA,NA,NA,NA,NA,NA,NA,NA,NA,NA,NA,NA,NA,NA,NA,NA,NA,NA,NA,NA,NA,NA,NA
"6","stim/objects/HouseObjects/coffee2.png",51,36,51,0.3,"stim/61.jpeg",6,1,2,NA,"HouseObjects",2,3,"right","left",0.747999907,0,0,1,1,NA,NA,NA,NA,NA,NA,NA,NA,NA,NA,NA,NA,NA,NA,NA,NA,NA,NA,NA,NA,NA,NA,NA,NA
"106","stim/objects/HouseObjects/handbrush.png",52,36,52,0.7,"stim/53.jpeg",5,3,2,NA,"HouseObjects",2,1,"right","right",0.701999903,1,1,1,1,NA,NA,NA,NA,NA,NA,NA,NA,NA,NA,NA,NA,NA,NA,NA,NA,NA,NA,NA,NA,NA,NA,NA,NA
"181","stim/objects/Instruments/gong.png",53,36,53,0.5,"stim/43.jpeg",4,3,1,NA,"Instruments",1,4,"left","",NA,0,0,1,1,NA,NA,NA,NA,NA,NA,NA,NA,NA,NA,NA,NA,NA,NA,NA,NA,NA,NA,NA,NA,NA,NA,NA,NA
"198","stim/objects/Instruments/guitarcase2.png",54,36,54,0.9,"stim/21.jpeg",2,1,3,NA,"Instruments",1,2,"left","left",0.564999819,1,1,1,1,NA,NA,NA,NA,NA,NA,NA,NA,NA,NA,NA,NA,NA,NA,NA,NA,NA,NA,NA,NA,NA,NA,NA,NA
"211","stim/objects/Instruments/harmonica2.png",55,36,55,0.9,"stim/22.jpeg",2,2,3,NA,"Instruments",1,4,"left","left",0.608999968,1,1,1,1,NA,NA,NA,NA,NA,NA,NA,NA,NA,NA,NA,NA,NA,NA,NA,NA,NA,NA,NA,NA,NA,NA,NA,NA
"163","stim/objects/Instruments/flute2.png",56,36,56,0.7,"stim/64.jpeg",6,4,2,NA,"Instruments",1,3,"left","right",0.878999949,0,0,1,1,NA,NA,NA,NA,NA,NA,NA,NA,NA,NA,NA,NA,NA,NA,NA,NA,NA,NA,NA,NA,NA,NA,NA,NA
"233","stim/objects/Instruments/hihat2.png",57,36,57,0.9,"stim/24.jpeg",2,4,3,NA,"Instruments",1,4,"left","left",0.616999865,1,1,1,1,NA,NA,NA,NA,NA,NA,NA,NA,NA,NA,NA,NA,NA,NA,NA,NA,NA,NA,NA,NA,NA,NA,NA,NA
"231","stim/objects/Instruments/hihat.png",58,36,58,0.3,"stim/54.jpeg",5,4,2,NA,"Instruments",1,2,"left","right",0.679999828,0,0,1,1,NA,NA,NA,NA,NA,NA,NA,NA,NA,NA,NA,NA,NA,NA,NA,NA,NA,NA,NA,NA,NA,NA,NA,NA
"98","stim/objects/HouseObjects/hairdryer.png",59,36,59,0.7,"stim/52.jpeg",5,2,2,NA,"HouseObjects",2,3,"right","right",0.759000063,1,1,1,1,NA,NA,NA,NA,NA,NA,NA,NA,NA,NA,NA,NA,NA,NA,NA,NA,NA,NA,NA,NA,NA,NA,NA,NA
"234","stim/objects/Instruments/hihat2.png",60,36,60,0.9,"stim/24.jpeg",2,4,3,NA,"Instruments",1,2,"left","left",0.662999868,1,1,1,1,NA,NA,NA,NA,NA,NA,NA,NA,NA,NA,NA,NA,NA,NA,NA,NA,NA,NA,NA,NA,NA,NA,NA,NA
"89","stim/objects/HouseObjects/glassmop.png",61,36,61,0.7,"stim/51.jpeg",5,1,2,NA,"HouseObjects",2,3,"right","right",0.849999905,1,1,1,1,NA,NA,NA,NA,NA,NA,NA,NA,NA,NA,NA,NA,NA,NA,NA,NA,NA,NA,NA,NA,NA,NA,NA,NA
"160","stim/objects/Instruments/flute.png",62,36,62,0.5,"stim/34.jpeg",3,4,1,NA,"Instruments",1,2,"left","left",0.833999872,1,1,1,1,NA,NA,NA,NA,NA,NA,NA,NA,NA,NA,NA,NA,NA,NA,NA,NA,NA,NA,NA,NA,NA,NA,NA,NA
"114","stim/objects/HouseObjects/handvacuum.png",63,36,63,0.7,"stim/54.jpeg",5,4,2,NA,"HouseObjects",2,2,"right","right",0.729999781,1,1,1,1,NA,NA,NA,NA,NA,NA,NA,NA,NA,NA,NA,NA,NA,NA,NA,NA,NA,NA,NA,NA,NA,NA,NA,NA
"99","stim/objects/HouseObjects/hairdryer.png",64,36,64,0.7,"stim/52.jpeg",5,2,2,NA,"HouseObjects",2,2,"right","right",0.772999763,1,1,1,1,NA,NA,NA,NA,NA,NA,NA,NA,NA,NA,NA,NA,NA,NA,NA,NA,NA,NA,NA,NA,NA,NA,NA,NA
"235","stim/objects/Instruments/hihat2.png",65,36,65,0.9,"stim/24.jpeg",2,4,3,NA,"Instruments",1,4,"left","left",0.871999979,1,1,1,1,NA,NA,NA,NA,NA,NA,NA,NA,NA,NA,NA,NA,NA,NA,NA,NA,NA,NA,NA,NA,NA,NA,NA,NA
"96","stim/objects/HouseObjects/glassmop2.png",66,36,66,0.1,"stim/21.jpeg",2,1,3,NA,"HouseObjects",2,3,"right","left",0.774999857,0,0,1,1,NA,NA,NA,NA,NA,NA,NA,NA,NA,NA,NA,NA,NA,NA,NA,NA,NA,NA,NA,NA,NA,NA,NA,NA
"199","stim/objects/Instruments/guitarcase2.png",67,36,67,0.9,"stim/21.jpeg",2,1,3,NA,"Instruments",1,1,"left","left",0.553999901,1,1,1,1,NA,NA,NA,NA,NA,NA,NA,NA,NA,NA,NA,NA,NA,NA,NA,NA,NA,NA,NA,NA,NA,NA,NA,NA
"48","stim/objects/HouseObjects/flyswatter.png",68,36,68,0.5,"stim/42.jpeg",4,2,1,NA,"HouseObjects",2,2,"right","right",0.635999918,1,1,1,1,NA,NA,NA,NA,NA,NA,NA,NA,NA,NA,NA,NA,NA,NA,NA,NA,NA,NA,NA,NA,NA,NA,NA,NA
"67","stim/objects/HouseObjects/garbagebin2.png",69,36,69,0.9,"stim/13.jpeg",1,3,3,NA,"HouseObjects",2,1,"right","right",0.648999929,1,1,1,1,NA,NA,NA,NA,NA,NA,NA,NA,NA,NA,NA,NA,NA,NA,NA,NA,NA,NA,NA,NA,NA,NA,NA,NA
"141","stim/objects/Instruments/electricdrumset2.png",70,36,70,0.7,"stim/62.jpeg",6,2,2,NA,"Instruments",1,1,"left","left",0.635999918,1,1,1,1,NA,NA,NA,NA,NA,NA,NA,NA,NA,NA,NA,NA,NA,NA,NA,NA,NA,NA,NA,NA,NA,NA,NA,NA
"200","stim/objects/Instruments/guitarcase2.png",71,36,71,0.9,"stim/21.jpeg",2,1,3,NA,"Instruments",1,1,"left","left",0.555000067,1,1,1,1,NA,NA,NA,NA,NA,NA,NA,NA,NA,NA,NA,NA,NA,NA,NA,NA,NA,NA,NA,NA,NA,NA,NA,NA
"188","stim/objects/Instruments/grandpiano.png",72,36,72,0.5,"stim/44.jpeg",4,4,1,NA,"Instruments",1,2,"left","right",0.862999916,0,0,1,1,NA,NA,NA,NA,NA,NA,NA,NA,NA,NA,NA,NA,NA,NA,NA,NA,NA,NA,NA,NA,NA,NA,NA,NA
"39","stim/objects/HouseObjects/dustpan2.png",73,36,73,0.9,"stim/11.jpeg",1,1,3,NA,"HouseObjects",2,3,"right","right",0.638000011,1,1,1,1,NA,NA,NA,NA,NA,NA,NA,NA,NA,NA,NA,NA,NA,NA,NA,NA,NA,NA,NA,NA,NA,NA,NA,NA
"236","stim/objects/Instruments/hihat2.png",74,36,74,0.9,"stim/24.jpeg",2,4,3,NA,"Instruments",1,1,"left","left",0.578000069,1,1,1,1,NA,NA,NA,NA,NA,NA,NA,NA,NA,NA,NA,NA,NA,NA,NA,NA,NA,NA,NA,NA,NA,NA,NA,NA
"145","stim/objects/Instruments/electricguitar.png",75,36,75,0.5,"stim/33.jpeg",3,3,1,NA,"Instruments",1,1,"left","right",0.870999813,0,0,1,1,NA,NA,NA,NA,NA,NA,NA,NA,NA,NA,NA,NA,NA,NA,NA,NA,NA,NA,NA,NA,NA,NA,NA,NA
"212","stim/objects/Instruments/harmonica2.png",76,36,76,0.9,"stim/22.jpeg",2,2,3,NA,"Instruments",1,3,"left","left",0.622999907,1,1,1,1,NA,NA,NA,NA,NA,NA,NA,NA,NA,NA,NA,NA,NA,NA,NA,NA,NA,NA,NA,NA,NA,NA,NA,NA
"49","stim/objects/HouseObjects/flyswatter.png",77,36,77,0.5,"stim/42.jpeg",4,2,1,NA,"HouseObjects",2,3,"right","right",0.661999941,1,1,1,1,NA,NA,NA,NA,NA,NA,NA,NA,NA,NA,NA,NA,NA,NA,NA,NA,NA,NA,NA,NA,NA,NA,NA,NA
"27","stim/objects/HouseObjects/doormat.png",78,36,78,0.5,"stim/34.jpeg",3,4,1,NA,"HouseObjects",2,1,"right","left",0.547999859,0,0,1,1,NA,NA,NA,NA,NA,NA,NA,NA,NA,NA,NA,NA,NA,NA,NA,NA,NA,NA,NA,NA,NA,NA,NA,NA
"193","stim/objects/Instruments/guitarcase.png",79,36,79,0.3,"stim/51.jpeg",5,1,2,NA,"Instruments",1,3,"left","right",0.548999786,0,0,1,1,NA,NA,NA,NA,NA,NA,NA,NA,NA,NA,NA,NA,NA,NA,NA,NA,NA,NA,NA,NA,NA,NA,NA,NA
"182","stim/objects/Instruments/gong.png",80,36,80,0.5,"stim/43.jpeg",4,3,1,NA,"Instruments",1,2,"left","",NA,0,0,1,1,NA,NA,NA,NA,NA,NA,NA,NA,NA,NA,NA,NA,NA,NA,NA,NA,NA,NA,NA,NA,NA,NA,NA,NA
"164","stim/objects/Instruments/flute2.png",81,36,81,0.7,"stim/64.jpeg",6,4,2,NA,"Instruments",1,4,"left","left",0.605000019,1,1,1,1,NA,NA,NA,NA,NA,NA,NA,NA,NA,NA,NA,NA,NA,NA,NA,NA,NA,NA,NA,NA,NA,NA,NA,NA
"19","stim/objects/HouseObjects/dishsoap.png",82,36,82,0.5,"stim/33.jpeg",3,3,1,NA,"HouseObjects",2,3,"right","right",0.796000004,1,1,1,1,NA,NA,NA,NA,NA,NA,NA,NA,NA,NA,NA,NA,NA,NA,NA,NA,NA,NA,NA,NA,NA,NA,NA,NA
"54","stim/objects/HouseObjects/flyswatter2.png",83,36,83,0.9,"stim/12.jpeg",1,2,3,NA,"HouseObjects",2,3,"right","right",0.54399991,1,1,1,1,NA,NA,NA,NA,NA,NA,NA,NA,NA,NA,NA,NA,NA,NA,NA,NA,NA,NA,NA,NA,NA,NA,NA,NA
"115","stim/objects/HouseObjects/handvacuum.png",84,36,84,0.7,"stim/54.jpeg",5,4,2,NA,"HouseObjects",2,1,"right","right",0.714999914,1,1,1,1,NA,NA,NA,NA,NA,NA,NA,NA,NA,NA,NA,NA,NA,NA,NA,NA,NA,NA,NA,NA,NA,NA,NA,NA
"213","stim/objects/Instruments/harmonica2.png",85,36,85,0.9,"stim/22.jpeg",2,2,3,NA,"Instruments",1,4,"left","left",0.595999956,1,1,1,1,NA,NA,NA,NA,NA,NA,NA,NA,NA,NA,NA,NA,NA,NA,NA,NA,NA,NA,NA,NA,NA,NA,NA,NA
"68","stim/objects/HouseObjects/garbagebin2.png",86,36,86,0.9,"stim/13.jpeg",1,3,3,NA,"HouseObjects",2,3,"right","right",0.530999899,1,1,1,1,NA,NA,NA,NA,NA,NA,NA,NA,NA,NA,NA,NA,NA,NA,NA,NA,NA,NA,NA,NA,NA,NA,NA,NA
"237","stim/objects/Instruments/hihat2.png",87,36,87,0.9,"stim/24.jpeg",2,4,3,NA,"Instruments",1,1,"left","left",0.549999952,1,1,1,1,NA,NA,NA,NA,NA,NA,NA,NA,NA,NA,NA,NA,NA,NA,NA,NA,NA,NA,NA,NA,NA,NA,NA,NA
"78","stim/objects/HouseObjects/glass.png",88,36,88,0.5,"stim/44.jpeg",4,4,1,NA,"HouseObjects",2,2,"right","right",0.536999941,1,1,1,1,NA,NA,NA,NA,NA,NA,NA,NA,NA,NA,NA,NA,NA,NA,NA,NA,NA,NA,NA,NA,NA,NA,NA,NA
"11","stim/objects/HouseObjects/cushion.png",89,36,89,0.5,"stim/32.jpeg",3,2,1,NA,"HouseObjects",2,1,"right","left",0.631000042,0,0,1,1,NA,NA,NA,NA,NA,NA,NA,NA,NA,NA,NA,NA,NA,NA,NA,NA,NA,NA,NA,NA,NA,NA,NA,NA
"170","stim/objects/Instruments/flutetrans.png",90,36,90,0.5,"stim/41.jpeg",4,1,1,NA,"Instruments",1,2,"left","right",0.703000069,0,0,1,1,NA,NA,NA,NA,NA,NA,NA,NA,NA,NA,NA,NA,NA,NA,NA,NA,NA,NA,NA,NA,NA,NA,NA,NA
"69","stim/objects/HouseObjects/garbagebin2.png",91,36,91,0.9,"stim/13.jpeg",1,3,3,NA,"HouseObjects",2,2,"right","right",0.60800004,1,1,1,1,NA,NA,NA,NA,NA,NA,NA,NA,NA,NA,NA,NA,NA,NA,NA,NA,NA,NA,NA,NA,NA,NA,NA,NA
"165","stim/objects/Instruments/flute2.png",92,36,92,0.7,"stim/64.jpeg",6,4,2,NA,"Instruments",1,4,"left","",NA,0,0,1,1,NA,NA,NA,NA,NA,NA,NA,NA,NA,NA,NA,NA,NA,NA,NA,NA,NA,NA,NA,NA,NA,NA,NA,NA
"166","stim/objects/Instruments/flute2.png",93,36,93,0.7,"stim/64.jpeg",6,4,2,NA,"Instruments",1,2,"left","left",0.894999981,1,1,1,1,NA,NA,NA,NA,NA,NA,NA,NA,NA,NA,NA,NA,NA,NA,NA,NA,NA,NA,NA,NA,NA,NA,NA,NA
"126","stim/objects/Instruments/drums2.png",94,36,94,0.7,"stim/61.jpeg",6,1,2,NA,"Instruments",1,2,"left","left",0.63499999,1,1,1,1,NA,NA,NA,NA,NA,NA,NA,NA,NA,NA,NA,NA,NA,NA,NA,NA,NA,NA,NA,NA,NA,NA,NA,NA
"14","stim/objects/HouseObjects/cushion2.png",95,36,95,0.3,"stim/62.jpeg",6,2,2,NA,"HouseObjects",2,1,"right","left",0.662999868,0,0,1,1,NA,NA,NA,NA,NA,NA,NA,NA,NA,NA,NA,NA,NA,NA,NA,NA,NA,NA,NA,NA,NA,NA,NA,NA
"28","stim/objects/HouseObjects/doormat.png",96,36,96,0.5,"stim/34.jpeg",3,4,1,NA,"HouseObjects",2,1,"right","right",0.839999914,1,1,1,1,NA,NA,NA,NA,NA,NA,NA,NA,NA,NA,NA,NA,NA,NA,NA,NA,NA,NA,NA,NA,NA,NA,NA,NA
"90","stim/objects/HouseObjects/glassmop.png",97,36,97,0.7,"stim/51.jpeg",5,1,2,NA,"HouseObjects",2,4,"right","right",0.661999941,1,1,1,1,NA,NA,NA,NA,NA,NA,NA,NA,NA,NA,NA,NA,NA,NA,NA,NA,NA,NA,NA,NA,NA,NA,NA,NA
"238","stim/objects/Instruments/hihat2.png",98,36,98,0.9,"stim/24.jpeg",2,4,3,NA,"Instruments",1,4,"left","left",0.603999853,1,1,1,1,NA,NA,NA,NA,NA,NA,NA,NA,NA,NA,NA,NA,NA,NA,NA,NA,NA,NA,NA,NA,NA,NA,NA,NA
"34","stim/objects/HouseObjects/dustpan.png",99,36,99,0.5,"stim/41.jpeg",4,1,1,NA,"HouseObjects",2,4,"right","right",0.633999825,1,1,1,1,NA,NA,NA,NA,NA,NA,NA,NA,NA,NA,NA,NA,NA,NA,NA,NA,NA,NA,NA,NA,NA,NA,NA,NA
"70","stim/objects/HouseObjects/garbagebin2.png",100,36,100,0.9,"stim/13.jpeg",1,3,3,NA,"HouseObjects",2,1,"right","right",0.598999977,1,1,1,1,NA,NA,NA,NA,NA,NA,NA,NA,NA,NA,NA,NA,NA,NA,NA,NA,NA,NA,NA,NA,NA,NA,NA,NA
"127","stim/objects/Instruments/drums2.png",101,36,101,0.7,"stim/61.jpeg",6,1,2,NA,"Instruments",1,4,"left","left",0.746999979,1,1,1,1,NA,NA,NA,NA,NA,NA,NA,NA,NA,NA,NA,NA,NA,NA,NA,NA,NA,NA,NA,NA,NA,NA,NA,NA
"91","stim/objects/HouseObjects/glassmop.png",102,36,102,0.7,"stim/51.jpeg",5,1,2,NA,"HouseObjects",2,4,"right","right",0.640999794,1,1,1,1,NA,NA,NA,NA,NA,NA,NA,NA,NA,NA,NA,NA,NA,NA,NA,NA,NA,NA,NA,NA,NA,NA,NA,NA
"222","stim/objects/Instruments/harp2.png",103,36,103,0.9,"stim/23.jpeg",2,3,3,NA,"Instruments",1,4,"left","left",0.645999908,1,1,1,1,NA,NA,NA,NA,NA,NA,NA,NA,NA,NA,NA,NA,NA,NA,NA,NA,NA,NA,NA,NA,NA,NA,NA,NA
"100","stim/objects/HouseObjects/hairdryer.png",104,36,104,0.7,"stim/52.jpeg",5,2,2,NA,"HouseObjects",2,2,"right","right",0.66899991,1,1,1,1,NA,NA,NA,NA,NA,NA,NA,NA,NA,NA,NA,NA,NA,NA,NA,NA,NA,NA,NA,NA,NA,NA,NA,NA
"122","stim/objects/Instruments/drums.png",105,36,105,0.5,"stim/31.jpeg",3,1,1,NA,"Instruments",1,1,"left","right",0.846999884,0,0,1,1,NA,NA,NA,NA,NA,NA,NA,NA,NA,NA,NA,NA,NA,NA,NA,NA,NA,NA,NA,NA,NA,NA,NA,NA
"101","stim/objects/HouseObjects/hairdryer.png",106,36,106,0.7,"stim/52.jpeg",5,2,2,NA,"HouseObjects",2,3,"right","",NA,0,0,1,1,NA,NA,NA,NA,NA,NA,NA,NA,NA,NA,NA,NA,NA,NA,NA,NA,NA,NA,NA,NA,NA,NA,NA,NA
"151","stim/objects/Instruments/electricguitar2.png",107,36,107,0.7,"stim/63.jpeg",6,3,2,NA,"Instruments",1,3,"left","left",0.614999771,1,1,1,1,NA,NA,NA,NA,NA,NA,NA,NA,NA,NA,NA,NA,NA,NA,NA,NA,NA,NA,NA,NA,NA,NA,NA,NA
"171","stim/objects/Instruments/flutetrans.png",108,36,108,0.5,"stim/41.jpeg",4,1,1,NA,"Instruments",1,1,"left","left",0.815999985,1,1,1,1,NA,NA,NA,NA,NA,NA,NA,NA,NA,NA,NA,NA,NA,NA,NA,NA,NA,NA,NA,NA,NA,NA,NA,NA
"206","stim/objects/Instruments/harmonica.png",109,36,109,0.3,"stim/52.jpeg",5,2,2,NA,"Instruments",1,2,"left","right",0.510999918,0,0,1,1,NA,NA,NA,NA,NA,NA,NA,NA,NA,NA,NA,NA,NA,NA,NA,NA,NA,NA,NA,NA,NA,NA,NA,NA
"12","stim/objects/HouseObjects/cushion.png",110,36,110,0.5,"stim/32.jpeg",3,2,1,NA,"HouseObjects",2,3,"right","left",0.76699996,0,0,1,1,NA,NA,NA,NA,NA,NA,NA,NA,NA,NA,NA,NA,NA,NA,NA,NA,NA,NA,NA,NA,NA,NA,NA,NA
"189","stim/objects/Instruments/grandpiano.png",111,36,111,0.5,"stim/44.jpeg",4,4,1,NA,"Instruments",1,3,"left","left",0.920000076,1,1,1,1,NA,NA,NA,NA,NA,NA,NA,NA,NA,NA,NA,NA,NA,NA,NA,NA,NA,NA,NA,NA,NA,NA,NA,NA
"107","stim/objects/HouseObjects/handbrush.png",112,36,112,0.7,"stim/53.jpeg",5,3,2,NA,"HouseObjects",2,3,"right","right",0.747999907,1,1,1,1,NA,NA,NA,NA,NA,NA,NA,NA,NA,NA,NA,NA,NA,NA,NA,NA,NA,NA,NA,NA,NA,NA,NA,NA
"81","stim/objects/HouseObjects/glass2.png",113,36,113,0.9,"stim/14.jpeg",1,4,3,NA,"HouseObjects",2,3,"right","right",0.575999975,1,1,1,1,NA,NA,NA,NA,NA,NA,NA,NA,NA,NA,NA,NA,NA,NA,NA,NA,NA,NA,NA,NA,NA,NA,NA,NA
"15","stim/objects/HouseObjects/cushion2.png",114,36,114,0.3,"stim/62.jpeg",6,2,2,NA,"HouseObjects",2,4,"right","right",0.687999964,1,1,1,1,NA,NA,NA,NA,NA,NA,NA,NA,NA,NA,NA,NA,NA,NA,NA,NA,NA,NA,NA,NA,NA,NA,NA,NA
"183","stim/objects/Instruments/gong.png",115,36,115,0.5,"stim/43.jpeg",4,3,1,NA,"Instruments",1,4,"left","right",0.864999771,0,0,1,1,NA,NA,NA,NA,NA,NA,NA,NA,NA,NA,NA,NA,NA,NA,NA,NA,NA,NA,NA,NA,NA,NA,NA,NA
"142","stim/objects/Instruments/electricdrumset2.png",116,36,116,0.7,"stim/62.jpeg",6,2,2,NA,"Instruments",1,3,"left","left",0.578000069,1,1,1,1,NA,NA,NA,NA,NA,NA,NA,NA,NA,NA,NA,NA,NA,NA,NA,NA,NA,NA,NA,NA,NA,NA,NA,NA
"20","stim/objects/HouseObjects/dishsoap.png",117,36,117,0.5,"stim/33.jpeg",3,3,1,NA,"HouseObjects",2,2,"right","left",0.789000034,0,0,1,1,NA,NA,NA,NA,NA,NA,NA,NA,NA,NA,NA,NA,NA,NA,NA,NA,NA,NA,NA,NA,NA,NA,NA,NA
"40","stim/objects/HouseObjects/dustpan2.png",118,36,118,0.9,"stim/11.jpeg",1,1,3,NA,"HouseObjects",2,4,"right","",NA,0,0,1,1,NA,NA,NA,NA,NA,NA,NA,NA,NA,NA,NA,NA,NA,NA,NA,NA,NA,NA,NA,NA,NA,NA,NA,NA
"152","stim/objects/Instruments/electricguitar2.png",119,36,119,0.7,"stim/63.jpeg",6,3,2,NA,"Instruments",1,2,"left","left",0.605000019,1,1,1,1,NA,NA,NA,NA,NA,NA,NA,NA,NA,NA,NA,NA,NA,NA,NA,NA,NA,NA,NA,NA,NA,NA,NA,NA
"177","stim/objects/Instruments/frenchhorn.png",120,36,120,0.5,"stim/42.jpeg",4,2,1,NA,"Instruments",1,3,"left","left",0.588999748,1,1,1,1,NA,NA,NA,NA,NA,NA,NA,NA,NA,NA,NA,NA,NA,NA,NA,NA,NA,NA,NA,NA,NA,NA,NA,NA
"201","stim/objects/Instruments/guitarcase2.png",121,36,121,0.9,"stim/21.jpeg",2,1,3,NA,"Instruments",1,2,"left","left",0.682999849,1,1,1,1,NA,NA,NA,NA,NA,NA,NA,NA,NA,NA,NA,NA,NA,NA,NA,NA,NA,NA,NA,NA,NA,NA,NA,NA
"104","stim/objects/HouseObjects/hairdryer2.png",122,36,122,0.1,"stim/22.jpeg",2,2,3,NA,"HouseObjects",2,2,"right","left",0.691999912,0,0,1,1,NA,NA,NA,NA,NA,NA,NA,NA,NA,NA,NA,NA,NA,NA,NA,NA,NA,NA,NA,NA,NA,NA,NA,NA
"41","stim/objects/HouseObjects/dustpan2.png",123,36,123,0.9,"stim/11.jpeg",1,1,3,NA,"HouseObjects",2,4,"right","right",0.545000076,1,1,1,1,NA,NA,NA,NA,NA,NA,NA,NA,NA,NA,NA,NA,NA,NA,NA,NA,NA,NA,NA,NA,NA,NA,NA,NA
"133","stim/objects/Instruments/electricdrumset.png",124,36,124,0.5,"stim/32.jpeg",3,2,1,NA,"Instruments",1,2,"left","left",0.624000072,1,1,1,1,NA,NA,NA,NA,NA,NA,NA,NA,NA,NA,NA,NA,NA,NA,NA,NA,NA,NA,NA,NA,NA,NA,NA,NA
"223","stim/objects/Instruments/harp2.png",125,36,125,0.9,"stim/23.jpeg",2,3,3,NA,"Instruments",1,3,"left","left",0.555999994,1,1,1,1,NA,NA,NA,NA,NA,NA,NA,NA,NA,NA,NA,NA,NA,NA,NA,NA,NA,NA,NA,NA,NA,NA,NA,NA
"224","stim/objects/Instruments/harp2.png",126,36,126,0.9,"stim/23.jpeg",2,3,3,NA,"Instruments",1,4,"left","left",0.505000114,1,1,1,1,NA,NA,NA,NA,NA,NA,NA,NA,NA,NA,NA,NA,NA,NA,NA,NA,NA,NA,NA,NA,NA,NA,NA,NA
"42","stim/objects/HouseObjects/dustpan2.png",127,36,127,0.9,"stim/11.jpeg",1,1,3,NA,"HouseObjects",2,3,"right","right",0.547999859,1,1,1,1,NA,NA,NA,NA,NA,NA,NA,NA,NA,NA,NA,NA,NA,NA,NA,NA,NA,NA,NA,NA,NA,NA,NA,NA
"202","stim/objects/Instruments/guitarcase2.png",128,36,128,0.9,"stim/21.jpeg",2,1,3,NA,"Instruments",1,4,"left","left",0.595000029,1,1,1,1,NA,NA,NA,NA,NA,NA,NA,NA,NA,NA,NA,NA,NA,NA,NA,NA,NA,NA,NA,NA,NA,NA,NA,NA
"50","stim/objects/HouseObjects/flyswatter.png",129,36,129,0.5,"stim/42.jpeg",4,2,1,NA,"HouseObjects",2,2,"right","right",0.579999924,1,1,1,1,NA,NA,NA,NA,NA,NA,NA,NA,NA,NA,NA,NA,NA,NA,NA,NA,NA,NA,NA,NA,NA,NA,NA,NA
"82","stim/objects/HouseObjects/glass2.png",130,36,130,0.9,"stim/14.jpeg",1,4,3,NA,"HouseObjects",2,3,"right","right",0.559999943,1,1,1,1,NA,NA,NA,NA,NA,NA,NA,NA,NA,NA,NA,NA,NA,NA,NA,NA,NA,NA,NA,NA,NA,NA,NA,NA
"239","stim/objects/Instruments/hihat2.png",131,36,131,0.9,"stim/24.jpeg",2,4,3,NA,"Instruments",1,1,"left","left",0.548000097,1,1,1,1,NA,NA,NA,NA,NA,NA,NA,NA,NA,NA,NA,NA,NA,NA,NA,NA,NA,NA,NA,NA,NA,NA,NA,NA
"167","stim/objects/Instruments/flute2.png",132,36,132,0.7,"stim/64.jpeg",6,4,2,NA,"Instruments",1,4,"left","left",0.588000059,1,1,1,1,NA,NA,NA,NA,NA,NA,NA,NA,NA,NA,NA,NA,NA,NA,NA,NA,NA,NA,NA,NA,NA,NA,NA,NA
"172","stim/objects/Instruments/flutetrans.png",133,36,133,0.5,"stim/41.jpeg",4,1,1,NA,"Instruments",1,2,"left","right",0.708999872,0,0,1,1,NA,NA,NA,NA,NA,NA,NA,NA,NA,NA,NA,NA,NA,NA,NA,NA,NA,NA,NA,NA,NA,NA,NA,NA
"7","stim/objects/HouseObjects/coffee2.png",134,36,134,0.3,"stim/61.jpeg",6,1,2,NA,"HouseObjects",2,2,"right","left",0.745999813,0,0,1,1,NA,NA,NA,NA,NA,NA,NA,NA,NA,NA,NA,NA,NA,NA,NA,NA,NA,NA,NA,NA,NA,NA,NA,NA
"225","stim/objects/Instruments/harp2.png",135,36,135,0.9,"stim/23.jpeg",2,3,3,NA,"Instruments",1,1,"left","left",0.536999941,1,1,1,1,NA,NA,NA,NA,NA,NA,NA,NA,NA,NA,NA,NA,NA,NA,NA,NA,NA,NA,NA,NA,NA,NA,NA,NA
"83","stim/objects/HouseObjects/glass2.png",136,36,136,0.9,"stim/14.jpeg",1,4,3,NA,"HouseObjects",2,2,"right","right",0.592000008,1,1,1,1,NA,NA,NA,NA,NA,NA,NA,NA,NA,NA,NA,NA,NA,NA,NA,NA,NA,NA,NA,NA,NA,NA,NA,NA
"92","stim/objects/HouseObjects/glassmop.png",137,36,137,0.7,"stim/51.jpeg",5,1,2,NA,"HouseObjects",2,3,"right","right",0.667000055,1,1,1,1,NA,NA,NA,NA,NA,NA,NA,NA,NA,NA,NA,NA,NA,NA,NA,NA,NA,NA,NA,NA,NA,NA,NA,NA
"108","stim/objects/HouseObjects/handbrush.png",138,36,138,0.7,"stim/53.jpeg",5,3,2,NA,"HouseObjects",2,3,"right","right",0.601999998,1,1,1,1,NA,NA,NA,NA,NA,NA,NA,NA,NA,NA,NA,NA,NA,NA,NA,NA,NA,NA,NA,NA,NA,NA,NA,NA
"63","stim/objects/HouseObjects/garbagebin.png",139,36,139,0.5,"stim/43.jpeg",4,3,1,NA,"HouseObjects",2,1,"right","right",0.746999979,1,1,1,1,NA,NA,NA,NA,NA,NA,NA,NA,NA,NA,NA,NA,NA,NA,NA,NA,NA,NA,NA,NA,NA,NA,NA,NA
"93","stim/objects/HouseObjects/glassmop.png",140,36,140,0.7,"stim/51.jpeg",5,1,2,NA,"HouseObjects",2,1,"right","right",0.636999846,1,1,1,1,NA,NA,NA,NA,NA,NA,NA,NA,NA,NA,NA,NA,NA,NA,NA,NA,NA,NA,NA,NA,NA,NA,NA,NA
"102","stim/objects/HouseObjects/hairdryer.png",141,36,141,0.7,"stim/52.jpeg",5,2,2,NA,"HouseObjects",2,1,"right","right",0.555000067,1,1,1,1,NA,NA,NA,NA,NA,NA,NA,NA,NA,NA,NA,NA,NA,NA,NA,NA,NA,NA,NA,NA,NA,NA,NA,NA
"84","stim/objects/HouseObjects/glass2.png",142,36,142,0.9,"stim/14.jpeg",1,4,3,NA,"HouseObjects",2,4,"right","right",0.549999952,1,1,1,1,NA,NA,NA,NA,NA,NA,NA,NA,NA,NA,NA,NA,NA,NA,NA,NA,NA,NA,NA,NA,NA,NA,NA,NA
"203","stim/objects/Instruments/guitarcase2.png",143,36,143,0.9,"stim/21.jpeg",2,1,3,NA,"Instruments",1,1,"left","left",0.660999775,1,1,1,1,NA,NA,NA,NA,NA,NA,NA,NA,NA,NA,NA,NA,NA,NA,NA,NA,NA,NA,NA,NA,NA,NA,NA,NA
"43","stim/objects/HouseObjects/dustpan2.png",144,36,144,0.9,"stim/11.jpeg",1,1,3,NA,"HouseObjects",2,1,"right","right",0.638999939,1,1,1,1,NA,NA,NA,NA,NA,NA,NA,NA,NA,NA,NA,NA,NA,NA,NA,NA,NA,NA,NA,NA,NA,NA,NA,NA
"35","stim/objects/HouseObjects/dustpan.png",145,36,145,0.5,"stim/41.jpeg",4,1,1,NA,"HouseObjects",2,4,"right","left",0.820999861,0,0,1,1,NA,NA,NA,NA,NA,NA,NA,NA,NA,NA,NA,NA,NA,NA,NA,NA,NA,NA,NA,NA,NA,NA,NA,NA
"226","stim/objects/Instruments/harp2.png",146,36,146,0.9,"stim/23.jpeg",2,3,3,NA,"Instruments",1,1,"left","left",0.674999952,1,1,1,1,NA,NA,NA,NA,NA,NA,NA,NA,NA,NA,NA,NA,NA,NA,NA,NA,NA,NA,NA,NA,NA,NA,NA,NA
"116","stim/objects/HouseObjects/handvacuum.png",147,36,147,0.7,"stim/54.jpeg",5,4,2,NA,"HouseObjects",2,4,"right","right",0.569999933,1,1,1,1,NA,NA,NA,NA,NA,NA,NA,NA,NA,NA,NA,NA,NA,NA,NA,NA,NA,NA,NA,NA,NA,NA,NA,NA
"55","stim/objects/HouseObjects/flyswatter2.png",148,36,148,0.9,"stim/12.jpeg",1,2,3,NA,"HouseObjects",2,2,"right","right",0.588999987,1,1,1,1,NA,NA,NA,NA,NA,NA,NA,NA,NA,NA,NA,NA,NA,NA,NA,NA,NA,NA,NA,NA,NA,NA,NA,NA
"123","stim/objects/Instruments/drums.png",149,36,149,0.5,"stim/31.jpeg",3,1,1,NA,"Instruments",1,1,"left","left",0.697000027,1,1,1,1,NA,NA,NA,NA,NA,NA,NA,NA,NA,NA,NA,NA,NA,NA,NA,NA,NA,NA,NA,NA,NA,NA,NA,NA
"124","stim/objects/Instruments/drums.png",150,36,150,0.5,"stim/31.jpeg",3,1,1,NA,"Instruments",1,2,"left","left",0.753999949,1,1,1,1,NA,NA,NA,NA,NA,NA,NA,NA,NA,NA,NA,NA,NA,NA,NA,NA,NA,NA,NA,NA,NA,NA,NA,NA
"227","stim/objects/Instruments/harp2.png",151,36,151,0.9,"stim/23.jpeg",2,3,3,NA,"Instruments",1,4,"left","left",0.629999876,1,1,1,1,NA,NA,NA,NA,NA,NA,NA,NA,NA,NA,NA,NA,NA,NA,NA,NA,NA,NA,NA,NA,NA,NA,NA,NA
"71","stim/objects/HouseObjects/garbagebin2.png",152,36,152,0.9,"stim/13.jpeg",1,3,3,NA,"HouseObjects",2,1,"right","right",0.542999983,1,1,1,1,NA,NA,NA,NA,NA,NA,NA,NA,NA,NA,NA,NA,NA,NA,NA,NA,NA,NA,NA,NA,NA,NA,NA,NA
"22","stim/objects/HouseObjects/dishsoap2.png",153,36,153,0.3,"stim/63.jpeg",6,3,2,NA,"HouseObjects",2,2,"right","left",0.61199975,0,0,1,1,NA,NA,NA,NA,NA,NA,NA,NA,NA,NA,NA,NA,NA,NA,NA,NA,NA,NA,NA,NA,NA,NA,NA,NA
"178","stim/objects/Instruments/frenchhorn.png",154,36,154,0.5,"stim/42.jpeg",4,2,1,NA,"Instruments",1,4,"left","left",0.871000051,1,1,1,1,NA,NA,NA,NA,NA,NA,NA,NA,NA,NA,NA,NA,NA,NA,NA,NA,NA,NA,NA,NA,NA,NA,NA,NA
"153","stim/objects/Instruments/electricguitar2.png",155,36,155,0.7,"stim/63.jpeg",6,3,2,NA,"Instruments",1,2,"left","left",0.777999878,1,1,1,1,NA,NA,NA,NA,NA,NA,NA,NA,NA,NA,NA,NA,NA,NA,NA,NA,NA,NA,NA,NA,NA,NA,NA,NA
"125","stim/objects/Instruments/drums.png",156,36,156,0.5,"stim/31.jpeg",3,1,1,NA,"Instruments",1,2,"left","left",0.74000001,1,1,1,1,NA,NA,NA,NA,NA,NA,NA,NA,NA,NA,NA,NA,NA,NA,NA,NA,NA,NA,NA,NA,NA,NA,NA,NA
"72","stim/objects/HouseObjects/garbagebin2.png",157,36,157,0.9,"stim/13.jpeg",1,3,3,NA,"HouseObjects",2,4,"right","right",0.611000061,1,1,1,1,NA,NA,NA,NA,NA,NA,NA,NA,NA,NA,NA,NA,NA,NA,NA,NA,NA,NA,NA,NA,NA,NA,NA,NA
"117","stim/objects/HouseObjects/handvacuum.png",158,36,158,0.7,"stim/54.jpeg",5,4,2,NA,"HouseObjects",2,4,"right","right",0.701999903,1,1,1,1,NA,NA,NA,NA,NA,NA,NA,NA,NA,NA,NA,NA,NA,NA,NA,NA,NA,NA,NA,NA,NA,NA,NA,NA
"23","stim/objects/HouseObjects/dishsoap2.png",159,36,159,0.3,"stim/63.jpeg",6,3,2,NA,"HouseObjects",2,4,"right","left",0.82799983,0,0,1,1,NA,NA,NA,NA,NA,NA,NA,NA,NA,NA,NA,NA,NA,NA,NA,NA,NA,NA,NA,NA,NA,NA,NA,NA
"44","stim/objects/HouseObjects/dustpan2.png",160,36,160,0.9,"stim/11.jpeg",1,1,3,NA,"HouseObjects",2,2,"right","right",0.636999846,1,1,1,1,NA,NA,NA,NA,NA,NA,NA,NA,NA,NA,NA,NA,NA,NA,NA,NA,NA,NA,NA,NA,NA,NA,NA,NA
"56","stim/objects/HouseObjects/flyswatter2.png",161,36,161,0.9,"stim/12.jpeg",1,2,3,NA,"HouseObjects",2,1,"right","right",0.760999918,1,1,1,1,NA,NA,NA,NA,NA,NA,NA,NA,NA,NA,NA,NA,NA,NA,NA,NA,NA,NA,NA,NA,NA,NA,NA,NA
"194","stim/objects/Instruments/guitarcase.png",162,36,162,0.3,"stim/51.jpeg",5,1,2,NA,"Instruments",1,1,"left","right",0.617000103,0,0,1,1,NA,NA,NA,NA,NA,NA,NA,NA,NA,NA,NA,NA,NA,NA,NA,NA,NA,NA,NA,NA,NA,NA,NA,NA
"161","stim/objects/Instruments/flute.png",163,36,163,0.5,"stim/34.jpeg",3,4,1,NA,"Instruments",1,1,"left","left",0.833999872,1,1,1,1,NA,NA,NA,NA,NA,NA,NA,NA,NA,NA,NA,NA,NA,NA,NA,NA,NA,NA,NA,NA,NA,NA,NA,NA
"31","stim/objects/HouseObjects/doormat2.png",164,36,164,0.3,"stim/64.jpeg",6,4,2,NA,"HouseObjects",2,1,"right","",NA,0,0,1,1,NA,NA,NA,NA,NA,NA,NA,NA,NA,NA,NA,NA,NA,NA,NA,NA,NA,NA,NA,NA,NA,NA,NA,NA
"207","stim/objects/Instruments/harmonica.png",165,36,165,0.3,"stim/52.jpeg",5,2,2,NA,"Instruments",1,1,"left","right",0.769999981,0,0,1,1,NA,NA,NA,NA,NA,NA,NA,NA,NA,NA,NA,NA,NA,NA,NA,NA,NA,NA,NA,NA,NA,NA,NA,NA
"85","stim/objects/HouseObjects/glass2.png",166,36,166,0.9,"stim/14.jpeg",1,4,3,NA,"HouseObjects",2,1,"right","right",0.597000122,1,1,1,1,NA,NA,NA,NA,NA,NA,NA,NA,NA,NA,NA,NA,NA,NA,NA,NA,NA,NA,NA,NA,NA,NA,NA,NA
"32","stim/objects/HouseObjects/doormat2.png",167,36,167,0.3,"stim/64.jpeg",6,4,2,NA,"HouseObjects",2,4,"right","left",0.710999966,0,0,1,1,NA,NA,NA,NA,NA,NA,NA,NA,NA,NA,NA,NA,NA,NA,NA,NA,NA,NA,NA,NA,NA,NA,NA,NA
"143","stim/objects/Instruments/electricdrumset2.png",168,36,168,0.7,"stim/62.jpeg",6,2,2,NA,"Instruments",1,2,"left","left",0.712999821,1,1,1,1,NA,NA,NA,NA,NA,NA,NA,NA,NA,NA,NA,NA,NA,NA,NA,NA,NA,NA,NA,NA,NA,NA,NA,NA
"57","stim/objects/HouseObjects/flyswatter2.png",169,36,169,0.9,"stim/12.jpeg",1,2,3,NA,"HouseObjects",2,4,"right","right",0.605999947,1,1,1,1,NA,NA,NA,NA,NA,NA,NA,NA,NA,NA,NA,NA,NA,NA,NA,NA,NA,NA,NA,NA,NA,NA,NA,NA
"2","stim/objects/HouseObjects/coffee.png",170,36,170,0.5,"stim/31.jpeg",3,1,1,NA,"HouseObjects",2,3,"right","left",0.607000113,0,0,1,1,NA,NA,NA,NA,NA,NA,NA,NA,NA,NA,NA,NA,NA,NA,NA,NA,NA,NA,NA,NA,NA,NA,NA,NA
"94","stim/objects/HouseObjects/glassmop.png",171,36,171,0.7,"stim/51.jpeg",5,1,2,NA,"HouseObjects",2,4,"right","right",0.485000134,1,1,1,1,NA,NA,NA,NA,NA,NA,NA,NA,NA,NA,NA,NA,NA,NA,NA,NA,NA,NA,NA,NA,NA,NA,NA,NA
"128","stim/objects/Instruments/drums2.png",172,36,172,0.7,"stim/61.jpeg",6,1,2,NA,"Instruments",1,4,"left","left",0.664999962,1,1,1,1,NA,NA,NA,NA,NA,NA,NA,NA,NA,NA,NA,NA,NA,NA,NA,NA,NA,NA,NA,NA,NA,NA,NA,NA
"184","stim/objects/Instruments/gong.png",173,36,173,0.5,"stim/43.jpeg",4,3,1,NA,"Instruments",1,1,"left","right",0.555999994,0,0,1,1,NA,NA,NA,NA,NA,NA,NA,NA,NA,NA,NA,NA,NA,NA,NA,NA,NA,NA,NA,NA,NA,NA,NA,NA
"64","stim/objects/HouseObjects/garbagebin.png",174,36,174,0.5,"stim/43.jpeg",4,3,1,NA,"HouseObjects",2,4,"right","left",0.65199995,0,0,1,1,NA,NA,NA,NA,NA,NA,NA,NA,NA,NA,NA,NA,NA,NA,NA,NA,NA,NA,NA,NA,NA,NA,NA,NA
"86","stim/objects/HouseObjects/glass2.png",175,36,175,0.9,"stim/14.jpeg",1,4,3,NA,"HouseObjects",2,1,"right","right",0.65899992,1,1,1,1,NA,NA,NA,NA,NA,NA,NA,NA,NA,NA,NA,NA,NA,NA,NA,NA,NA,NA,NA,NA,NA,NA,NA,NA
"36","stim/objects/HouseObjects/dustpan.png",176,36,176,0.5,"stim/41.jpeg",4,1,1,NA,"HouseObjects",2,1,"right","left",0.851999998,0,0,1,1,NA,NA,NA,NA,NA,NA,NA,NA,NA,NA,NA,NA,NA,NA,NA,NA,NA,NA,NA,NA,NA,NA,NA,NA
"146","stim/objects/Instruments/electricguitar.png",177,36,177,0.5,"stim/33.jpeg",3,3,1,NA,"Instruments",1,3,"left","left",0.610999823,1,1,1,1,NA,NA,NA,NA,NA,NA,NA,NA,NA,NA,NA,NA,NA,NA,NA,NA,NA,NA,NA,NA,NA,NA,NA,NA
"109","stim/objects/HouseObjects/handbrush.png",178,36,178,0.7,"stim/53.jpeg",5,3,2,NA,"HouseObjects",2,3,"right","right",0.677000046,1,1,1,1,NA,NA,NA,NA,NA,NA,NA,NA,NA,NA,NA,NA,NA,NA,NA,NA,NA,NA,NA,NA,NA,NA,NA,NA
"134","stim/objects/Instruments/electricdrumset.png",179,36,179,0.5,"stim/32.jpeg",3,2,1,NA,"Instruments",1,4,"left","left",0.826999903,1,1,1,1,NA,NA,NA,NA,NA,NA,NA,NA,NA,NA,NA,NA,NA,NA,NA,NA,NA,NA,NA,NA,NA,NA,NA,NA
"147","stim/objects/Instruments/electricguitar.png",180,36,180,0.5,"stim/33.jpeg",3,3,1,NA,"Instruments",1,4,"left","left",0.618999958,1,1,1,1,NA,NA,NA,NA,NA,NA,NA,NA,NA,NA,NA,NA,NA,NA,NA,NA,NA,NA,NA,NA,NA,NA,NA,NA
"110","stim/objects/HouseObjects/handbrush.png",181,36,181,0.7,"stim/53.jpeg",5,3,2,NA,"HouseObjects",2,2,"right","right",0.687000036,1,1,1,1,NA,NA,NA,NA,NA,NA,NA,NA,NA,NA,NA,NA,NA,NA,NA,NA,NA,NA,NA,NA,NA,NA,NA,NA
"16","stim/objects/HouseObjects/cushion2.png",182,36,182,0.3,"stim/62.jpeg",6,2,2,NA,"HouseObjects",2,2,"right","left",0.671999931,0,0,1,1,NA,NA,NA,NA,NA,NA,NA,NA,NA,NA,NA,NA,NA,NA,NA,NA,NA,NA,NA,NA,NA,NA,NA,NA
"228","stim/objects/Instruments/harp2.png",183,36,183,0.9,"stim/23.jpeg",2,3,3,NA,"Instruments",1,2,"left","left",0.552000046,1,1,1,1,NA,NA,NA,NA,NA,NA,NA,NA,NA,NA,NA,NA,NA,NA,NA,NA,NA,NA,NA,NA,NA,NA,NA,NA
"135","stim/objects/Instruments/electricdrumset.png",184,36,184,0.5,"stim/32.jpeg",3,2,1,NA,"Instruments",1,4,"left","left",0.717999935,1,1,1,1,NA,NA,NA,NA,NA,NA,NA,NA,NA,NA,NA,NA,NA,NA,NA,NA,NA,NA,NA,NA,NA,NA,NA,NA
"103","stim/objects/HouseObjects/hairdryer.png",185,36,185,0.7,"stim/52.jpeg",5,2,2,NA,"HouseObjects",2,4,"right","right",0.769999981,1,1,1,1,NA,NA,NA,NA,NA,NA,NA,NA,NA,NA,NA,NA,NA,NA,NA,NA,NA,NA,NA,NA,NA,NA,NA,NA
"214","stim/objects/Instruments/harmonica2.png",186,36,186,0.9,"stim/22.jpeg",2,2,3,NA,"Instruments",1,2,"left","left",0.586999893,1,1,1,1,NA,NA,NA,NA,NA,NA,NA,NA,NA,NA,NA,NA,NA,NA,NA,NA,NA,NA,NA,NA,NA,NA,NA,NA
"79","stim/objects/HouseObjects/glass.png",187,36,187,0.5,"stim/44.jpeg",4,4,1,NA,"HouseObjects",2,3,"right","right",0.662999868,1,1,1,1,NA,NA,NA,NA,NA,NA,NA,NA,NA,NA,NA,NA,NA,NA,NA,NA,NA,NA,NA,NA,NA,NA,NA,NA
"136","stim/objects/Instruments/electricdrumset.png",188,36,188,0.5,"stim/32.jpeg",3,2,1,NA,"Instruments",1,3,"left","left",0.659999847,1,1,1,1,NA,NA,NA,NA,NA,NA,NA,NA,NA,NA,NA,NA,NA,NA,NA,NA,NA,NA,NA,NA,NA,NA,NA,NA
"21","stim/objects/HouseObjects/dishsoap.png",189,36,189,0.5,"stim/33.jpeg",3,3,1,NA,"HouseObjects",2,3,"right","left",0.666999817,0,0,1,1,NA,NA,NA,NA,NA,NA,NA,NA,NA,NA,NA,NA,NA,NA,NA,NA,NA,NA,NA,NA,NA,NA,NA,NA
"218","stim/objects/Instruments/harp.png",190,36,190,0.3,"stim/53.jpeg",5,3,2,NA,"Instruments",1,1,"left","right",0.737999916,0,0,1,1,NA,NA,NA,NA,NA,NA,NA,NA,NA,NA,NA,NA,NA,NA,NA,NA,NA,NA,NA,NA,NA,NA,NA,NA
"65","stim/objects/HouseObjects/garbagebin.png",191,36,191,0.5,"stim/43.jpeg",4,3,1,NA,"HouseObjects",2,1,"right","",NA,0,0,1,1,NA,NA,NA,NA,NA,NA,NA,NA,NA,NA,NA,NA,NA,NA,NA,NA,NA,NA,NA,NA,NA,NA,NA,NA
"3","stim/objects/HouseObjects/coffee.png",192,36,192,0.5,"stim/31.jpeg",3,1,1,NA,"HouseObjects",2,4,"right","",NA,0,0,1,1,NA,NA,NA,NA,NA,NA,NA,NA,NA,NA,NA,NA,NA,NA,NA,NA,NA,NA,NA,NA,NA,NA,NA,NA
"154","stim/objects/Instruments/electricguitar2.png",193,36,193,0.7,"stim/63.jpeg",6,3,2,NA,"Instruments",1,2,"left","left",0.618999958,1,1,1,1,NA,NA,NA,NA,NA,NA,NA,NA,NA,NA,NA,NA,NA,NA,NA,NA,NA,NA,NA,NA,NA,NA,NA,NA
"45","stim/objects/HouseObjects/dustpan2.png",194,36,194,0.9,"stim/11.jpeg",1,1,3,NA,"HouseObjects",2,4,"right","right",0.617000103,1,1,1,1,NA,NA,NA,NA,NA,NA,NA,NA,NA,NA,NA,NA,NA,NA,NA,NA,NA,NA,NA,NA,NA,NA,NA,NA
"118","stim/objects/HouseObjects/handvacuum.png",195,36,195,0.7,"stim/54.jpeg",5,4,2,NA,"HouseObjects",2,4,"right","",NA,0,0,1,1,NA,NA,NA,NA,NA,NA,NA,NA,NA,NA,NA,NA,NA,NA,NA,NA,NA,NA,NA,NA,NA,NA,NA,NA
"148","stim/objects/Instruments/electricguitar.png",196,36,196,0.5,"stim/33.jpeg",3,3,1,NA,"Instruments",1,4,"left","left",0.619999886,1,1,1,1,NA,NA,NA,NA,NA,NA,NA,NA,NA,NA,NA,NA,NA,NA,NA,NA,NA,NA,NA,NA,NA,NA,NA,NA
"119","stim/objects/HouseObjects/handvacuum.png",197,36,197,0.7,"stim/54.jpeg",5,4,2,NA,"HouseObjects",2,3,"right","right",0.551999807,1,1,1,1,NA,NA,NA,NA,NA,NA,NA,NA,NA,NA,NA,NA,NA,NA,NA,NA,NA,NA,NA,NA,NA,NA,NA,NA
"155","stim/objects/Instruments/electricguitar2.png",198,36,198,0.7,"stim/63.jpeg",6,3,2,NA,"Instruments",1,4,"left","left",0.59800005,1,1,1,1,NA,NA,NA,NA,NA,NA,NA,NA,NA,NA,NA,NA,NA,NA,NA,NA,NA,NA,NA,NA,NA,NA,NA,NA
"95","stim/objects/HouseObjects/glassmop.png",199,36,199,0.7,"stim/51.jpeg",5,1,2,NA,"HouseObjects",2,2,"right","right",0.568000078,1,1,1,1,NA,NA,NA,NA,NA,NA,NA,NA,NA,NA,NA,NA,NA,NA,NA,NA,NA,NA,NA,NA,NA,NA,NA,NA
"215","stim/objects/Instruments/harmonica2.png",200,36,200,0.9,"stim/22.jpeg",2,2,3,NA,"Instruments",1,3,"left","left",0.562000036,1,1,1,1,NA,NA,NA,NA,NA,NA,NA,NA,NA,NA,NA,NA,NA,NA,NA,NA,NA,NA,NA,NA,NA,NA,NA,NA
"129","stim/objects/Instruments/drums2.png",201,36,201,0.7,"stim/61.jpeg",6,1,2,NA,"Instruments",1,3,"left","left",0.59100008,1,1,1,1,NA,NA,NA,NA,NA,NA,NA,NA,NA,NA,NA,NA,NA,NA,NA,NA,NA,NA,NA,NA,NA,NA,NA,NA
"37","stim/objects/HouseObjects/dustpan.png",202,36,202,0.5,"stim/41.jpeg",4,1,1,NA,"HouseObjects",2,1,"right","right",0.552000046,1,1,1,1,NA,NA,NA,NA,NA,NA,NA,NA,NA,NA,NA,NA,NA,NA,NA,NA,NA,NA,NA,NA,NA,NA,NA,NA
"8","stim/objects/HouseObjects/coffee2.png",203,36,203,0.3,"stim/61.jpeg",6,1,2,NA,"HouseObjects",2,3,"right","left",0.612999916,0,0,1,1,NA,NA,NA,NA,NA,NA,NA,NA,NA,NA,NA,NA,NA,NA,NA,NA,NA,NA,NA,NA,NA,NA,NA,NA
"111","stim/objects/HouseObjects/handbrush.png",204,36,204,0.7,"stim/53.jpeg",5,3,2,NA,"HouseObjects",2,2,"right","right",0.559000015,1,1,1,1,NA,NA,NA,NA,NA,NA,NA,NA,NA,NA,NA,NA,NA,NA,NA,NA,NA,NA,NA,NA,NA,NA,NA,NA
"190","stim/objects/Instruments/grandpiano.png",205,36,205,0.5,"stim/44.jpeg",4,4,1,NA,"Instruments",1,4,"left","right",0.763999939,0,0,1,1,NA,NA,NA,NA,NA,NA,NA,NA,NA,NA,NA,NA,NA,NA,NA,NA,NA,NA,NA,NA,NA,NA,NA,NA
"130","stim/objects/Instruments/drums2.png",206,36,206,0.7,"stim/61.jpeg",6,1,2,NA,"Instruments",1,1,"left","left",0.621000051,1,1,1,1,NA,NA,NA,NA,NA,NA,NA,NA,NA,NA,NA,NA,NA,NA,NA,NA,NA,NA,NA,NA,NA,NA,NA,NA
"174","stim/objects/Instruments/flutetrans2.png",207,36,207,0.1,"stim/11.jpeg",1,1,3,NA,"Instruments",1,3,"left","right",0.636999846,0,0,1,1,NA,NA,NA,NA,NA,NA,NA,NA,NA,NA,NA,NA,NA,NA,NA,NA,NA,NA,NA,NA,NA,NA,NA,NA
"131","stim/objects/Instruments/drums2.png",208,36,208,0.7,"stim/61.jpeg",6,1,2,NA,"Instruments",1,1,"left","left",0.869999886,1,1,1,1,NA,NA,NA,NA,NA,NA,NA,NA,NA,NA,NA,NA,NA,NA,NA,NA,NA,NA,NA,NA,NA,NA,NA,NA
"4","stim/objects/HouseObjects/coffee.png",209,36,209,0.5,"stim/31.jpeg",3,1,1,NA,"HouseObjects",2,1,"right","left",0.664999962,0,0,1,1,NA,NA,NA,NA,NA,NA,NA,NA,NA,NA,NA,NA,NA,NA,NA,NA,NA,NA,NA,NA,NA,NA,NA,NA
"87","stim/objects/HouseObjects/glass2.png",210,36,210,0.9,"stim/14.jpeg",1,4,3,NA,"HouseObjects",2,4,"right","right",0.538000107,1,1,1,1,NA,NA,NA,NA,NA,NA,NA,NA,NA,NA,NA,NA,NA,NA,NA,NA,NA,NA,NA,NA,NA,NA,NA,NA
"240","stim/objects/Instruments/hihat2.png",211,36,211,0.9,"stim/24.jpeg",2,4,3,NA,"Instruments",1,3,"left","left",0.605000019,1,1,1,1,NA,NA,NA,NA,NA,NA,NA,NA,NA,NA,NA,NA,NA,NA,NA,NA,NA,NA,NA,NA,NA,NA,NA,NA
"195","stim/objects/Instruments/guitarcase.png",212,36,212,0.3,"stim/51.jpeg",5,1,2,NA,"Instruments",1,1,"left","right",0.601000071,0,0,1,1,NA,NA,NA,NA,NA,NA,NA,NA,NA,NA,NA,NA,NA,NA,NA,NA,NA,NA,NA,NA,NA,NA,NA,NA
"219","stim/objects/Instruments/harp.png",213,36,213,0.3,"stim/53.jpeg",5,3,2,NA,"Instruments",1,4,"left","right",0.710999966,0,0,1,1,NA,NA,NA,NA,NA,NA,NA,NA,NA,NA,NA,NA,NA,NA,NA,NA,NA,NA,NA,NA,NA,NA,NA,NA
"168","stim/objects/Instruments/flute2.png",214,36,214,0.7,"stim/64.jpeg",6,4,2,NA,"Instruments",1,2,"left","left",0.676999807,1,1,1,1,NA,NA,NA,NA,NA,NA,NA,NA,NA,NA,NA,NA,NA,NA,NA,NA,NA,NA,NA,NA,NA,NA,NA,NA
"204","stim/objects/Instruments/guitarcase2.png",215,36,215,0.9,"stim/21.jpeg",2,1,3,NA,"Instruments",1,2,"left","left",0.578999758,1,1,1,1,NA,NA,NA,NA,NA,NA,NA,NA,NA,NA,NA,NA,NA,NA,NA,NA,NA,NA,NA,NA,NA,NA,NA,NA
"156","stim/objects/Instruments/electricguitar2.png",216,36,216,0.7,"stim/63.jpeg",6,3,2,NA,"Instruments",1,1,"left","left",0.549999952,1,1,1,1,NA,NA,NA,NA,NA,NA,NA,NA,NA,NA,NA,NA,NA,NA,NA,NA,NA,NA,NA,NA,NA,NA,NA,NA
"88","stim/objects/HouseObjects/glass2.png",217,36,217,0.9,"stim/14.jpeg",1,4,3,NA,"HouseObjects",2,2,"right","right",0.586999893,1,1,1,1,NA,NA,NA,NA,NA,NA,NA,NA,NA,NA,NA,NA,NA,NA,NA,NA,NA,NA,NA,NA,NA,NA,NA,NA
"46","stim/objects/HouseObjects/dustpan2.png",218,36,218,0.9,"stim/11.jpeg",1,1,3,NA,"HouseObjects",2,2,"right","right",0.513999939,1,1,1,1,NA,NA,NA,NA,NA,NA,NA,NA,NA,NA,NA,NA,NA,NA,NA,NA,NA,NA,NA,NA,NA,NA,NA,NA
"58","stim/objects/HouseObjects/flyswatter2.png",219,36,219,0.9,"stim/12.jpeg",1,2,3,NA,"HouseObjects",2,4,"right","right",0.559000015,1,1,1,1,NA,NA,NA,NA,NA,NA,NA,NA,NA,NA,NA,NA,NA,NA,NA,NA,NA,NA,NA,NA,NA,NA,NA,NA
"132","stim/objects/Instruments/drums2.png",220,36,220,0.7,"stim/61.jpeg",6,1,2,NA,"Instruments",1,1,"left","left",0.495000124,1,1,1,1,NA,NA,NA,NA,NA,NA,NA,NA,NA,NA,NA,NA,NA,NA,NA,NA,NA,NA,NA,NA,NA,NA,NA,NA
"149","stim/objects/Instruments/electricguitar.png",221,36,221,0.5,"stim/33.jpeg",3,3,1,NA,"Instruments",1,1,"left","left",0.586999893,1,1,1,1,NA,NA,NA,NA,NA,NA,NA,NA,NA,NA,NA,NA,NA,NA,NA,NA,NA,NA,NA,NA,NA,NA,NA,NA
"73","stim/objects/HouseObjects/garbagebin2.png",222,36,222,0.9,"stim/13.jpeg",1,3,3,NA,"HouseObjects",2,2,"right","right",0.47300005,1,1,1,1,NA,NA,NA,NA,NA,NA,NA,NA,NA,NA,NA,NA,NA,NA,NA,NA,NA,NA,NA,NA,NA,NA,NA,NA
"5","stim/objects/HouseObjects/coffee.png",223,36,223,0.5,"stim/31.jpeg",3,1,1,NA,"HouseObjects",2,1,"right","left",0.546000004,0,0,1,1,NA,NA,NA,NA,NA,NA,NA,NA,NA,NA,NA,NA,NA,NA,NA,NA,NA,NA,NA,NA,NA,NA,NA,NA
"179","stim/objects/Instruments/frenchhorn.png",224,36,224,0.5,"stim/42.jpeg",4,2,1,NA,"Instruments",1,3,"left","left",0.703999996,1,1,1,1,NA,NA,NA,NA,NA,NA,NA,NA,NA,NA,NA,NA,NA,NA,NA,NA,NA,NA,NA,NA,NA,NA,NA,NA
"216","stim/objects/Instruments/harmonica2.png",225,36,225,0.9,"stim/22.jpeg",2,2,3,NA,"Instruments",1,1,"left","right",0.467999935,0,0,1,1,NA,NA,NA,NA,NA,NA,NA,NA,NA,NA,NA,NA,NA,NA,NA,NA,NA,NA,NA,NA,NA,NA,NA,NA
"24","stim/objects/HouseObjects/dishsoap2.png",226,36,226,0.3,"stim/63.jpeg",6,3,2,NA,"HouseObjects",2,4,"right","left",0.66899991,0,0,1,1,NA,NA,NA,NA,NA,NA,NA,NA,NA,NA,NA,NA,NA,NA,NA,NA,NA,NA,NA,NA,NA,NA,NA,NA
"192","stim/objects/Instruments/grandpiano2.png",227,36,227,0.1,"stim/14.jpeg",1,4,3,NA,"Instruments",1,2,"left","right",0.553999901,0,0,1,1,NA,NA,NA,NA,NA,NA,NA,NA,NA,NA,NA,NA,NA,NA,NA,NA,NA,NA,NA,NA,NA,NA,NA,NA
"59","stim/objects/HouseObjects/flyswatter2.png",228,36,228,0.9,"stim/12.jpeg",1,2,3,NA,"HouseObjects",2,1,"right","right",0.626999855,1,1,1,1,NA,NA,NA,NA,NA,NA,NA,NA,NA,NA,NA,NA,NA,NA,NA,NA,NA,NA,NA,NA,NA,NA,NA,NA
"191","stim/objects/Instruments/grandpiano.png",229,36,229,0.5,"stim/44.jpeg",4,4,1,NA,"Instruments",1,3,"left","right",0.833999872,0,0,1,1,NA,NA,NA,NA,NA,NA,NA,NA,NA,NA,NA,NA,NA,NA,NA,NA,NA,NA,NA,NA,NA,NA,NA,NA
"186","stim/objects/Instruments/gong2.png",230,36,230,0.1,"stim/13.jpeg",1,3,3,NA,"Instruments",1,2,"left","right",0.595999956,0,0,1,1,NA,NA,NA,NA,NA,NA,NA,NA,NA,NA,NA,NA,NA,NA,NA,NA,NA,NA,NA,NA,NA,NA,NA,NA
"185","stim/objects/Instruments/gong.png",231,36,231,0.5,"stim/43.jpeg",4,3,1,NA,"Instruments",1,2,"left","right",0.556999922,0,0,1,1,NA,NA,NA,NA,NA,NA,NA,NA,NA,NA,NA,NA,NA,NA,NA,NA,NA,NA,NA,NA,NA,NA,NA,NA
"74","stim/objects/HouseObjects/garbagebin2.png",232,36,232,0.9,"stim/13.jpeg",1,3,3,NA,"HouseObjects",2,3,"right","right",0.585999966,1,1,1,1,NA,NA,NA,NA,NA,NA,NA,NA,NA,NA,NA,NA,NA,NA,NA,NA,NA,NA,NA,NA,NA,NA,NA,NA
"173","stim/objects/Instruments/flutetrans.png",233,36,233,0.5,"stim/41.jpeg",4,1,1,NA,"Instruments",1,2,"left","left",0.568000078,1,1,1,1,NA,NA,NA,NA,NA,NA,NA,NA,NA,NA,NA,NA,NA,NA,NA,NA,NA,NA,NA,NA,NA,NA,NA,NA
"60","stim/objects/HouseObjects/flyswatter2.png",234,36,234,0.9,"stim/12.jpeg",1,2,3,NA,"HouseObjects",2,4,"right","right",0.562000036,1,1,1,1,NA,NA,NA,NA,NA,NA,NA,NA,NA,NA,NA,NA,NA,NA,NA,NA,NA,NA,NA,NA,NA,NA,NA,NA
"137","stim/objects/Instruments/electricdrumset.png",235,36,235,0.5,"stim/32.jpeg",3,2,1,NA,"Instruments",1,4,"left","right",0.607999802,0,0,1,1,NA,NA,NA,NA,NA,NA,NA,NA,NA,NA,NA,NA,NA,NA,NA,NA,NA,NA,NA,NA,NA,NA,NA,NA
"180","stim/objects/Instruments/frenchhorn2.png",236,36,236,0.1,"stim/12.jpeg",1,2,3,NA,"Instruments",1,3,"left","right",0.497999907,0,0,1,1,NA,NA,NA,NA,NA,NA,NA,NA,NA,NA,NA,NA,NA,NA,NA,NA,NA,NA,NA,NA,NA,NA,NA,NA
"144","stim/objects/Instruments/electricdrumset2.png",237,36,237,0.7,"stim/62.jpeg",6,2,2,NA,"Instruments",1,3,"left","left",0.588999987,1,1,1,1,NA,NA,NA,NA,NA,NA,NA,NA,NA,NA,NA,NA,NA,NA,NA,NA,NA,NA,NA,NA,NA,NA,NA,NA
"51","stim/objects/HouseObjects/flyswatter.png",238,36,238,0.5,"stim/42.jpeg",4,2,1,NA,"HouseObjects",2,4,"right","right",0.442000151,1,1,1,1,NA,NA,NA,NA,NA,NA,NA,NA,NA,NA,NA,NA,NA,NA,NA,NA,NA,NA,NA,NA,NA,NA,NA,NA
"29","stim/objects/HouseObjects/doormat.png",239,36,239,0.5,"stim/34.jpeg",3,4,1,NA,"HouseObjects",2,3,"right","left",0.485999823,0,0,1,1,NA,NA,NA,NA,NA,NA,NA,NA,NA,NA,NA,NA,NA,NA,NA,NA,NA,NA,NA,NA,NA,NA,NA,NA
"13","stim/objects/HouseObjects/cushion.png",240,36,240,0.5,"stim/32.jpeg",3,2,1,NA,"HouseObjects",2,4,"right","right",0.556999922,1,1,1,1,NA,NA,NA,NA,NA,NA,NA,NA,NA,NA,NA,NA,NA,NA,NA,NA,NA,NA,NA,NA,NA,NA,NA,NA
"405","stim/objects/HouseObjects/wateringcan4.png",248,36,241,0.1,"stim/24.jpeg",2,4,3,1,"HouseObjects",2,4,"right","left",0.718999863,0,0,1,0,185,36,1,0.1,2,"stim/24.jpeg",2,4,"stim/24.jpeg",4,"right",1.635999918,1,3,0.32400012,4,0.602999926,185,0,0,NA,1,NA,1
"325","stim/objects/HouseObjects/match3.png",249,36,242,0.9,"stim/13.jpeg",1,3,3,2,"HouseObjects",2,4,"right","right",0.821999788,1,1,1,0,NA,NA,NA,NA,NA,NA,NA,NA,NA,NA,NA,NA,NA,NA,NA,NA,NA,NA,NA,NA,NA,NA,NA,NA
"308","stim/objects/HouseObjects/lintroller3.png",250,36,243,0.9,"stim/14.jpeg",1,4,3,2,"HouseObjects",2,1,"right","right",0.742000103,1,1,1,0,NA,NA,NA,NA,NA,NA,NA,NA,NA,NA,NA,NA,NA,NA,NA,NA,NA,NA,NA,NA,NA,NA,NA,NA
"456","stim/objects/Instruments/marimba3.png",251,36,244,0.9,"stim/22.jpeg",2,2,3,2,"Instruments",1,3,"left","left",0.602999926,1,1,1,0,NA,NA,NA,NA,NA,NA,NA,NA,NA,NA,NA,NA,NA,NA,NA,NA,NA,NA,NA,NA,NA,NA,NA,NA
"490","stim/objects/Instruments/musicsheet3.png",252,36,245,0.9,"stim/21.jpeg",2,1,3,2,"Instruments",1,4,"left","left",0.728999853,1,1,1,0,NA,NA,NA,NA,NA,NA,NA,NA,NA,NA,NA,NA,NA,NA,NA,NA,NA,NA,NA,NA,NA,NA,NA,NA
"392","stim/objects/HouseObjects/spraybottle3.png",253,36,246,0.5,"stim/43.jpeg",4,3,1,1,"HouseObjects",2,1,"right","right",0.551999807,1,1,1,0,90,36,1,0.5,2,"stim/43.jpeg",4,3,"stim/43.jpeg",1,"right",1.217999935,1,2,1.239000082,1,2.528999805,90,0,0,NA,1,NA,1
"506","stim/objects/Instruments/musicsheet4.png",254,36,247,0.1,"stim/13.jpeg",1,3,3,1,"Instruments",1,1,"left","right",0.523000002,0,0,1,0,116,36,1,0.1,1,"stim/13.jpeg",1,3,"stim/13.jpeg",1,"left",1.312999964,4,3,1.225000143,4,1.592999935,116,1,1,1,0,0,1
"427","stim/objects/Instruments/chime3.png",255,36,248,0.5,"stim/41.jpeg",4,1,1,2,"Instruments",1,2,"left","left",0.784999847,1,1,1,0,NA,NA,NA,NA,NA,NA,NA,NA,NA,NA,NA,NA,NA,NA,NA,NA,NA,NA,NA,NA,NA,NA,NA,NA
"359","stim/objects/HouseObjects/pitcher3.png",256,36,249,0.9,"stim/14.jpeg",1,4,3,2,"HouseObjects",2,1,"right","right",0.56799984,1,1,1,0,NA,NA,NA,NA,NA,NA,NA,NA,NA,NA,NA,NA,NA,NA,NA,NA,NA,NA,NA,NA,NA,NA,NA,NA
"548","stim/objects/Instruments/record4.png",257,36,250,0.1,"stim/14.jpeg",1,4,3,1,"Instruments",1,3,"left","right",0.534999847,0,0,1,0,124,36,1,0.1,1,"stim/14.jpeg",1,4,"stim/14.jpeg",3,"left",0.872999907,3,3,0.751999855,3,0.657000065,124,1,0,0,1,1,1
"256","stim/objects/HouseObjects/blender3.png",258,36,251,0.5,"stim/42.jpeg",4,2,1,2,"HouseObjects",2,1,"right","left",0.717000008,0,0,1,0,NA,NA,NA,NA,NA,NA,NA,NA,NA,NA,NA,NA,NA,NA,NA,NA,NA,NA,NA,NA,NA,NA,NA,NA
"360","stim/objects/HouseObjects/pitcher3.png",259,36,252,0.9,"stim/12.jpeg",1,2,3,2,"HouseObjects",2,4,"right","right",0.534999847,1,1,1,0,NA,NA,NA,NA,NA,NA,NA,NA,NA,NA,NA,NA,NA,NA,NA,NA,NA,NA,NA,NA,NA,NA,NA,NA
"473","stim/objects/Instruments/metronome3.png",260,36,253,0.9,"stim/24.jpeg",2,4,3,2,"Instruments",1,3,"left","left",0.580999851,1,1,1,0,NA,NA,NA,NA,NA,NA,NA,NA,NA,NA,NA,NA,NA,NA,NA,NA,NA,NA,NA,NA,NA,NA,NA,NA
"375","stim/objects/HouseObjects/pitcher4.png",261,36,254,0.9,"stim/13.jpeg",1,3,3,1,"HouseObjects",2,3,"right","right",0.579999924,1,1,1,0,24,36,1,0.9,2,"stim/13.jpeg",1,3,"stim/13.jpeg",3,"right",1.371000051,1,2,3.670000076,4,2.095999956,24,0,0,NA,0,NA,1
"309","stim/objects/HouseObjects/lintroller3.png",262,36,255,0.9,"stim/12.jpeg",1,2,3,2,"HouseObjects",2,1,"right","right",0.601999998,1,1,1,0,NA,NA,NA,NA,NA,NA,NA,NA,NA,NA,NA,NA,NA,NA,NA,NA,NA,NA,NA,NA,NA,NA,NA,NA
"417","stim/objects/Instruments/banjo4.png",263,36,256,0.3,"stim/51.jpeg",5,1,2,1,"Instruments",1,3,"left","right",0.720999956,0,0,1,0,9,36,1,0.3,1,"stim/51.jpeg",5,1,"stim/51.jpeg",3,"left",1.019999981,4,2,6.493000031,3,2.431999922,9,1,0,0,1,1,1
"291","stim/objects/HouseObjects/knife3.png",264,36,257,0.9,"stim/14.jpeg",1,4,3,2,"HouseObjects",2,1,"right","right",0.562999964,1,1,1,0,NA,NA,NA,NA,NA,NA,NA,NA,NA,NA,NA,NA,NA,NA,NA,NA,NA,NA,NA,NA,NA,NA,NA,NA
"457","stim/objects/Instruments/marimba3.png",265,36,258,0.9,"stim/22.jpeg",2,2,3,2,"Instruments",1,2,"left","left",0.574999809,1,1,1,0,NA,NA,NA,NA,NA,NA,NA,NA,NA,NA,NA,NA,NA,NA,NA,NA,NA,NA,NA,NA,NA,NA,NA,NA
"275","stim/objects/HouseObjects/clothespin3.png",266,36,259,0.7,"stim/54.jpeg",5,4,2,2,"HouseObjects",2,4,"right","right",0.585000038,1,1,1,0,NA,NA,NA,NA,NA,NA,NA,NA,NA,NA,NA,NA,NA,NA,NA,NA,NA,NA,NA,NA,NA,NA,NA,NA
"406","stim/objects/Instruments/accordion3.png",267,36,260,0.5,"stim/31.jpeg",3,1,1,2,"Instruments",1,1,"left","left",0.592999935,1,1,1,0,NA,NA,NA,NA,NA,NA,NA,NA,NA,NA,NA,NA,NA,NA,NA,NA,NA,NA,NA,NA,NA,NA,NA,NA
"403","stim/objects/HouseObjects/vacuumcleaner4.png",268,36,261,0.1,"stim/23.jpeg",2,3,3,1,"HouseObjects",2,4,"right","left",0.606999874,0,0,1,0,59,36,1,0.1,2,"stim/23.jpeg",2,3,"stim/23.jpeg",4,"left",1.522000074,3,2,1.5849998,2,1.11500001,59,1,0,0,0,0,1
"292","stim/objects/HouseObjects/knife3.png",269,36,262,0.9,"stim/13.jpeg",1,3,3,2,"HouseObjects",2,4,"right","right",0.506999969,1,1,1,0,NA,NA,NA,NA,NA,NA,NA,NA,NA,NA,NA,NA,NA,NA,NA,NA,NA,NA,NA,NA,NA,NA,NA,NA
"361","stim/objects/HouseObjects/pitcher3.png",270,36,263,0.9,"stim/12.jpeg",1,2,3,2,"HouseObjects",2,1,"right","right",0.572999954,1,1,1,0,NA,NA,NA,NA,NA,NA,NA,NA,NA,NA,NA,NA,NA,NA,NA,NA,NA,NA,NA,NA,NA,NA,NA,NA
"474","stim/objects/Instruments/metronome3.png",271,36,264,0.9,"stim/24.jpeg",2,4,3,2,"Instruments",1,1,"left","left",0.634000063,1,1,1,0,NA,NA,NA,NA,NA,NA,NA,NA,NA,NA,NA,NA,NA,NA,NA,NA,NA,NA,NA,NA,NA,NA,NA,NA
"310","stim/objects/HouseObjects/lintroller3.png",272,36,265,0.9,"stim/11.jpeg",1,1,3,2,"HouseObjects",2,3,"right","right",0.566999912,1,1,1,0,NA,NA,NA,NA,NA,NA,NA,NA,NA,NA,NA,NA,NA,NA,NA,NA,NA,NA,NA,NA,NA,NA,NA,NA
"247","stim/objects/HouseObjects/barbecuelighter3.png",273,36,266,0.5,"stim/33.jpeg",3,3,1,2,"HouseObjects",2,1,"right","",NA,0,0,1,0,NA,NA,NA,NA,NA,NA,NA,NA,NA,NA,NA,NA,NA,NA,NA,NA,NA,NA,NA,NA,NA,NA,NA,NA
"265","stim/objects/HouseObjects/bucket3.png",274,36,267,0.5,"stim/41.jpeg",4,1,1,2,"HouseObjects",2,2,"right","left",0.677000046,0,0,1,0,NA,NA,NA,NA,NA,NA,NA,NA,NA,NA,NA,NA,NA,NA,NA,NA,NA,NA,NA,NA,NA,NA,NA,NA
"507","stim/objects/Instruments/musicstand3.png",275,36,268,0.9,"stim/23.jpeg",2,3,3,2,"Instruments",1,4,"left","left",0.643999815,1,1,1,0,NA,NA,NA,NA,NA,NA,NA,NA,NA,NA,NA,NA,NA,NA,NA,NA,NA,NA,NA,NA,NA,NA,NA,NA
"311","stim/objects/HouseObjects/lintroller3.png",276,36,269,0.9,"stim/14.jpeg",1,4,3,2,"HouseObjects",2,2,"right","right",0.538000107,1,1,1,0,NA,NA,NA,NA,NA,NA,NA,NA,NA,NA,NA,NA,NA,NA,NA,NA,NA,NA,NA,NA,NA,NA,NA,NA
"362","stim/objects/HouseObjects/pitcher3.png",277,36,270,0.9,"stim/13.jpeg",1,3,3,2,"HouseObjects",2,4,"right","right",0.482000113,1,1,1,0,NA,NA,NA,NA,NA,NA,NA,NA,NA,NA,NA,NA,NA,NA,NA,NA,NA,NA,NA,NA,NA,NA,NA,NA
"243","stim/objects/HouseObjects/ashtray4.png",278,36,271,0.7,"stim/53.jpeg",5,3,2,1,"HouseObjects",2,3,"right","right",0.573999882,1,1,1,0,92,36,1,0.7,2,"stim/53.jpeg",5,3,"stim/53.jpeg",3,"right",0.792000055,4,4,1.599999905,3,1.565000057,92,0,0,NA,1,NA,1
"458","stim/objects/Instruments/marimba3.png",279,36,272,0.9,"stim/21.jpeg",2,1,3,2,"Instruments",1,3,"left","left",0.592999935,1,1,1,0,NA,NA,NA,NA,NA,NA,NA,NA,NA,NA,NA,NA,NA,NA,NA,NA,NA,NA,NA,NA,NA,NA,NA,NA
"326","stim/objects/HouseObjects/match3.png",280,36,273,0.9,"stim/12.jpeg",1,2,3,2,"HouseObjects",2,2,"right","right",0.525999784,1,1,1,0,NA,NA,NA,NA,NA,NA,NA,NA,NA,NA,NA,NA,NA,NA,NA,NA,NA,NA,NA,NA,NA,NA,NA,NA
"459","stim/objects/Instruments/marimba3.png",281,36,274,0.9,"stim/24.jpeg",2,4,3,2,"Instruments",1,4,"left","left",0.605999708,1,1,1,0,NA,NA,NA,NA,NA,NA,NA,NA,NA,NA,NA,NA,NA,NA,NA,NA,NA,NA,NA,NA,NA,NA,NA,NA
"431","stim/objects/Instruments/clarinet3.png",282,36,275,0.5,"stim/43.jpeg",4,3,1,2,"Instruments",1,2,"left","right",0.703000069,0,0,1,0,NA,NA,NA,NA,NA,NA,NA,NA,NA,NA,NA,NA,NA,NA,NA,NA,NA,NA,NA,NA,NA,NA,NA,NA
"293","stim/objects/HouseObjects/knife3.png",283,36,276,0.9,"stim/13.jpeg",1,3,3,2,"HouseObjects",2,1,"right","right",0.596999884,1,1,1,0,NA,NA,NA,NA,NA,NA,NA,NA,NA,NA,NA,NA,NA,NA,NA,NA,NA,NA,NA,NA,NA,NA,NA,NA
"399","stim/objects/HouseObjects/thread4.png",284,36,277,0.1,"stim/21.jpeg",2,1,3,1,"HouseObjects",2,3,"right","left",0.590000153,0,0,1,0,192,36,1,0.1,2,"stim/21.jpeg",2,1,"stim/21.jpeg",3,"left",2.127000093,3,4,0.342000008,2,0.253000021,192,1,0,0,0,0,1
"327","stim/objects/HouseObjects/match3.png",285,36,278,0.9,"stim/12.jpeg",1,2,3,2,"HouseObjects",2,1,"right","right",0.539999962,1,1,1,0,NA,NA,NA,NA,NA,NA,NA,NA,NA,NA,NA,NA,NA,NA,NA,NA,NA,NA,NA,NA,NA,NA,NA,NA
"294","stim/objects/HouseObjects/knife3.png",286,36,279,0.9,"stim/12.jpeg",1,2,3,2,"HouseObjects",2,3,"right","right",0.664999962,1,1,1,0,NA,NA,NA,NA,NA,NA,NA,NA,NA,NA,NA,NA,NA,NA,NA,NA,NA,NA,NA,NA,NA,NA,NA,NA
"475","stim/objects/Instruments/metronome3.png",287,36,280,0.9,"stim/22.jpeg",2,2,3,2,"Instruments",1,3,"left","left",0.53399992,1,1,1,0,NA,NA,NA,NA,NA,NA,NA,NA,NA,NA,NA,NA,NA,NA,NA,NA,NA,NA,NA,NA,NA,NA,NA,NA
"248","stim/objects/HouseObjects/barbecuelighter3.png",288,36,281,0.5,"stim/32.jpeg",3,2,1,2,"HouseObjects",2,3,"right","left",0.562999964,0,0,1,0,NA,NA,NA,NA,NA,NA,NA,NA,NA,NA,NA,NA,NA,NA,NA,NA,NA,NA,NA,NA,NA,NA,NA,NA
"443","stim/objects/Instruments/doublebass4.png",289,36,282,0.7,"stim/62.jpeg",6,2,2,1,"Instruments",1,3,"left","left",0.501999855,1,1,1,0,49,36,1,0.7,1,"stim/62.jpeg",6,2,"stim/62.jpeg",3,"right",0.680999994,2,2,1.036000013,4,1.469000101,49,0,1,NA,0,NA,1
"527","stim/objects/Instruments/oboe3.png",290,36,283,0.9,"stim/22.jpeg",2,2,3,2,"Instruments",1,4,"left","left",0.585999966,1,1,1,0,NA,NA,NA,NA,NA,NA,NA,NA,NA,NA,NA,NA,NA,NA,NA,NA,NA,NA,NA,NA,NA,NA,NA,NA
"246","stim/objects/HouseObjects/ballofstring4.png",291,36,284,0.7,"stim/54.jpeg",5,4,2,1,"HouseObjects",2,3,"right","right",0.578000069,1,1,1,0,106,36,1,0.7,2,"stim/54.jpeg",5,4,"stim/54.jpeg",3,"right",1.463999987,2,2,0.650999784,3,1.526000023,106,0,0,NA,1,NA,1
"278","stim/objects/HouseObjects/clothespin4.png",292,36,285,0.3,"stim/64.jpeg",6,4,2,1,"HouseObjects",2,1,"right","left",0.521000147,0,0,1,0,80,36,1,0.3,2,"stim/64.jpeg",6,4,"stim/64.jpeg",1,"left",2.335999966,4,4,2.301000118,3,2.01699996,80,1,1,1,0,0,1
"394","stim/objects/HouseObjects/teapot3.png",293,36,286,0.5,"stim/44.jpeg",4,4,1,1,"HouseObjects",2,3,"right","right",0.575999975,1,1,1,0,38,36,1,0.5,2,"stim/44.jpeg",4,4,"stim/44.jpeg",3,"right",2.235999823,2,2,1.425000191,3,1.179000139,38,0,0,NA,1,NA,1
"476","stim/objects/Instruments/metronome3.png",294,36,287,0.9,"stim/21.jpeg",2,1,3,2,"Instruments",1,2,"left","left",0.632999897,1,1,1,0,NA,NA,NA,NA,NA,NA,NA,NA,NA,NA,NA,NA,NA,NA,NA,NA,NA,NA,NA,NA,NA,NA,NA,NA
"364","stim/objects/HouseObjects/pitcher3.png",295,36,288,0.9,"stim/14.jpeg",1,4,3,2,"HouseObjects",2,2,"right","right",0.633999825,1,1,1,0,NA,NA,NA,NA,NA,NA,NA,NA,NA,NA,NA,NA,NA,NA,NA,NA,NA,NA,NA,NA,NA,NA,NA,NA
"415","stim/objects/Instruments/banjo3.png",296,36,289,0.5,"stim/34.jpeg",3,4,1,2,"Instruments",1,3,"left","left",0.600999832,1,1,1,0,NA,NA,NA,NA,NA,NA,NA,NA,NA,NA,NA,NA,NA,NA,NA,NA,NA,NA,NA,NA,NA,NA,NA,NA
"328","stim/objects/HouseObjects/match3.png",297,36,290,0.9,"stim/14.jpeg",1,4,3,2,"HouseObjects",2,2,"right","right",0.523999929,1,1,1,0,NA,NA,NA,NA,NA,NA,NA,NA,NA,NA,NA,NA,NA,NA,NA,NA,NA,NA,NA,NA,NA,NA,NA,NA
"549","stim/objects/Instruments/saxophone3.png",298,36,291,0.5,"stim/33.jpeg",3,3,1,1,"Instruments",1,3,"left","left",0.634999752,1,1,1,0,191,36,1,0.5,1,"stim/33.jpeg",3,3,"stim/33.jpeg",3,"right",0.807999849,3,2,0.676000118,3,0.351000071,191,0,0,NA,1,NA,1
"543","stim/objects/Instruments/pipepiano3.png",299,36,292,0.5,"stim/34.jpeg",3,4,1,1,"Instruments",1,2,"left","left",0.659999847,1,1,1,0,127,36,1,0.5,1,"stim/34.jpeg",3,4,"stim/34.jpeg",2,"right",1.738000154,1,4,1.282999992,4,0.714999914,127,0,1,NA,0,NA,1
"472","stim/objects/Instruments/marimba4.png",300,36,293,0.1,"stim/11.jpeg",1,1,3,1,"Instruments",1,4,"left","right",0.444999695,0,0,1,0,25,36,1,0.1,1,"stim/11.jpeg",1,1,"stim/11.jpeg",4,"right",1.294000149,2,1,2.657999992,2,1.164000034,25,0,1,NA,0,NA,1
"290","stim/objects/HouseObjects/key4.png",301,36,294,0.3,"stim/63.jpeg",6,3,2,1,"HouseObjects",2,1,"right","left",0.534999847,0,0,1,0,62,36,1,0.3,2,"stim/63.jpeg",6,3,"stim/63.jpeg",1,"left",0.963999987,3,4,4.670000076,3,3.133999825,62,1,0,0,0,0,1
"312","stim/objects/HouseObjects/lintroller3.png",302,36,295,0.9,"stim/14.jpeg",1,4,3,2,"HouseObjects",2,2,"right","right",0.518999815,1,1,1,0,NA,NA,NA,NA,NA,NA,NA,NA,NA,NA,NA,NA,NA,NA,NA,NA,NA,NA,NA,NA,NA,NA,NA,NA
"529","stim/objects/Instruments/oboe3.png",303,36,296,0.9,"stim/24.jpeg",2,4,3,2,"Instruments",1,1,"left","left",0.535000086,1,1,1,0,NA,NA,NA,NA,NA,NA,NA,NA,NA,NA,NA,NA,NA,NA,NA,NA,NA,NA,NA,NA,NA,NA,NA,NA
"555","stim/objects/Instruments/timbal3.png",304,36,297,0.5,"stim/43.jpeg",4,3,1,1,"Instruments",1,1,"left","left",0.506999969,1,1,1,0,32,36,1,0.5,2,"stim/43.jpeg",4,3,"stim/43.jpeg",1,"right",0.90199995,3,4,2.349999905,4,2.868999958,32,0,0,NA,0,NA,1
"380","stim/objects/HouseObjects/rubbergloves3.png",305,36,298,0.5,"stim/34.jpeg",3,4,1,1,"HouseObjects",2,3,"right","left",0.579999924,0,0,1,0,200,36,1,0.5,1,"stim/34.jpeg",3,4,"stim/34.jpeg",3,"right",0.690000057,4,3,0.217999935,4,0.173000097,200,0,0,NA,0,NA,1
"479","stim/objects/Instruments/metronome3.png",306,36,299,0.9,"stim/22.jpeg",2,2,3,2,"Instruments",1,4,"left","right",0.419999838,0,0,1,0,NA,NA,NA,NA,NA,NA,NA,NA,NA,NA,NA,NA,NA,NA,NA,NA,NA,NA,NA,NA,NA,NA,NA,NA
"365","stim/objects/HouseObjects/pitcher3.png",307,36,300,0.9,"stim/11.jpeg",1,1,3,2,"HouseObjects",2,2,"right","right",0.619999886,1,1,1,0,NA,NA,NA,NA,NA,NA,NA,NA,NA,NA,NA,NA,NA,NA,NA,NA,NA,NA,NA,NA,NA,NA,NA,NA
"423","stim/objects/Instruments/bassguitar4.png",308,36,301,0.7,"stim/64.jpeg",6,4,2,1,"Instruments",1,1,"left","left",0.50999999,1,1,1,0,132,36,1,0.7,1,"stim/64.jpeg",6,4,"stim/64.jpeg",1,"right",0.951999903,1,2,1.03399992,4,1.263999939,132,0,0,NA,0,NA,1
"414","stim/objects/Instruments/balalaika4.png",309,36,302,0.3,"stim/54.jpeg",5,4,2,1,"Instruments",1,4,"left","right",0.507999897,0,0,1,0,181,36,1,0.3,1,"stim/54.jpeg",5,4,"stim/54.jpeg",4,"right",1.132999897,3,3,0.48300004,4,0.457999945,181,0,0,NA,1,NA,1
"441","stim/objects/Instruments/doublebass3.png",310,36,303,0.7,"stim/64.jpeg",6,4,2,2,"Instruments",1,3,"left","left",0.693000078,1,1,1,0,NA,NA,NA,NA,NA,NA,NA,NA,NA,NA,NA,NA,NA,NA,NA,NA,NA,NA,NA,NA,NA,NA,NA,NA
"345","stim/objects/HouseObjects/pan3.png",311,36,304,0.9,"stim/12.jpeg",1,2,3,2,"HouseObjects",2,1,"right","right",0.482999802,1,1,1,0,NA,NA,NA,NA,NA,NA,NA,NA,NA,NA,NA,NA,NA,NA,NA,NA,NA,NA,NA,NA,NA,NA,NA,NA
"460","stim/objects/Instruments/marimba3.png",312,36,305,0.9,"stim/21.jpeg",2,1,3,2,"Instruments",1,2,"left","left",0.568000078,1,1,1,0,NA,NA,NA,NA,NA,NA,NA,NA,NA,NA,NA,NA,NA,NA,NA,NA,NA,NA,NA,NA,NA,NA,NA,NA
"271","stim/objects/HouseObjects/clothesdryingrack3.png",313,36,306,0.7,"stim/54.jpeg",5,4,2,2,"HouseObjects",2,1,"right","left",0.522999763,0,0,1,0,NA,NA,NA,NA,NA,NA,NA,NA,NA,NA,NA,NA,NA,NA,NA,NA,NA,NA,NA,NA,NA,NA,NA,NA
"313","stim/objects/HouseObjects/lintroller3.png",314,36,307,0.9,"stim/13.jpeg",1,3,3,2,"HouseObjects",2,4,"right","right",0.625999928,1,1,1,0,NA,NA,NA,NA,NA,NA,NA,NA,NA,NA,NA,NA,NA,NA,NA,NA,NA,NA,NA,NA,NA,NA,NA,NA
"435","stim/objects/Instruments/cornet4.png",315,36,308,0.7,"stim/64.jpeg",6,4,2,1,"Instruments",1,1,"left","left",0.546000004,1,1,1,0,30,36,1,0.7,1,"stim/64.jpeg",6,4,"stim/64.jpeg",1,"left",1.101000071,4,3,4.506000042,2,3.123000145,30,1,0,0,0,0,1
"262","stim/objects/HouseObjects/broom3.png",316,36,309,0.5,"stim/41.jpeg",4,1,1,2,"HouseObjects",2,4,"right","right",0.477999926,1,1,1,0,NA,NA,NA,NA,NA,NA,NA,NA,NA,NA,NA,NA,NA,NA,NA,NA,NA,NA,NA,NA,NA,NA,NA,NA
"493","stim/objects/Instruments/musicsheet3.png",317,36,310,0.9,"stim/22.jpeg",2,2,3,2,"Instruments",1,4,"left","left",0.679999828,1,1,1,0,NA,NA,NA,NA,NA,NA,NA,NA,NA,NA,NA,NA,NA,NA,NA,NA,NA,NA,NA,NA,NA,NA,NA,NA
"420","stim/objects/Instruments/bassdrum4.png",318,36,311,0.3,"stim/52.jpeg",5,2,2,1,"Instruments",1,2,"left","left",0.787999868,1,1,1,0,147,36,1,0.3,1,"stim/52.jpeg",5,2,"stim/52.jpeg",2,"left",1.374000072,3,2,1.510999918,3,2.000999928,147,1,1,1,0,0,1
"448","stim/objects/Instruments/laud3.png",319,36,312,0.7,"stim/62.jpeg",6,2,2,2,"Instruments",1,3,"left","left",0.636999846,1,1,1,0,NA,NA,NA,NA,NA,NA,NA,NA,NA,NA,NA,NA,NA,NA,NA,NA,NA,NA,NA,NA,NA,NA,NA,NA
"314","stim/objects/HouseObjects/lintroller3.png",320,36,313,0.9,"stim/14.jpeg",1,4,3,2,"HouseObjects",2,1,"right","right",0.605999947,1,1,1,0,NA,NA,NA,NA,NA,NA,NA,NA,NA,NA,NA,NA,NA,NA,NA,NA,NA,NA,NA,NA,NA,NA,NA,NA
"494","stim/objects/Instruments/musicsheet3.png",321,36,314,0.9,"stim/21.jpeg",2,1,3,2,"Instruments",1,4,"left","left",0.609999895,1,1,1,0,NA,NA,NA,NA,NA,NA,NA,NA,NA,NA,NA,NA,NA,NA,NA,NA,NA,NA,NA,NA,NA,NA,NA,NA
"509","stim/objects/Instruments/musicstand3.png",322,36,315,0.9,"stim/24.jpeg",2,4,3,2,"Instruments",1,3,"left","left",0.536999941,1,1,1,0,NA,NA,NA,NA,NA,NA,NA,NA,NA,NA,NA,NA,NA,NA,NA,NA,NA,NA,NA,NA,NA,NA,NA,NA
"257","stim/objects/HouseObjects/blender3.png",323,36,316,0.5,"stim/43.jpeg",4,3,1,2,"HouseObjects",2,2,"right","right",0.62899971,1,1,1,0,NA,NA,NA,NA,NA,NA,NA,NA,NA,NA,NA,NA,NA,NA,NA,NA,NA,NA,NA,NA,NA,NA,NA,NA
"295","stim/objects/HouseObjects/knife3.png",324,36,317,0.9,"stim/14.jpeg",1,4,3,2,"HouseObjects",2,3,"right","right",0.687000036,1,1,1,0,NA,NA,NA,NA,NA,NA,NA,NA,NA,NA,NA,NA,NA,NA,NA,NA,NA,NA,NA,NA,NA,NA,NA,NA
"315","stim/objects/HouseObjects/lintroller3.png",325,36,318,0.9,"stim/13.jpeg",1,3,3,2,"HouseObjects",2,4,"right","right",0.798000097,1,1,1,0,NA,NA,NA,NA,NA,NA,NA,NA,NA,NA,NA,NA,NA,NA,NA,NA,NA,NA,NA,NA,NA,NA,NA,NA
"461","stim/objects/Instruments/marimba3.png",326,36,319,0.9,"stim/23.jpeg",2,3,3,2,"Instruments",1,3,"left","left",0.525999784,1,1,1,0,NA,NA,NA,NA,NA,NA,NA,NA,NA,NA,NA,NA,NA,NA,NA,NA,NA,NA,NA,NA,NA,NA,NA,NA
"402","stim/objects/HouseObjects/vacuumcleaner3.png",327,36,320,0.7,"stim/51.jpeg",5,1,2,1,"HouseObjects",2,1,"right","right",0.572000027,1,1,1,0,23,36,1,0.7,2,"stim/51.jpeg",5,1,"stim/51.jpeg",1,"left",0.988000154,4,1,3.646999836,1,1.201999903,23,1,1,1,1,1,1
"366","stim/objects/HouseObjects/pitcher3.png",328,36,321,0.9,"stim/11.jpeg",1,1,3,2,"HouseObjects",2,2,"right","right",0.541999817,1,1,1,0,NA,NA,NA,NA,NA,NA,NA,NA,NA,NA,NA,NA,NA,NA,NA,NA,NA,NA,NA,NA,NA,NA,NA,NA
"451","stim/objects/Instruments/laud4.png",329,36,322,0.7,"stim/64.jpeg",6,4,2,1,"Instruments",1,2,"left","left",0.580999851,1,1,1,0,162,36,1,0.7,1,"stim/64.jpeg",6,4,"stim/64.jpeg",2,"left",0.781000137,3,3,0.584000111,2,2.220999956,162,1,0,0,1,1,1
"455","stim/objects/Instruments/maraca4.png",330,36,323,0.7,"stim/61.jpeg",6,1,2,1,"Instruments",1,4,"left","left",0.604999781,1,1,1,0,140,36,1,0.7,1,"stim/61.jpeg",6,1,"stim/61.jpeg",4,"right",1.421000004,4,3,1.553999901,3,0.518000126,140,0,0,NA,0,NA,1
"296","stim/objects/HouseObjects/knife3.png",331,36,324,0.9,"stim/14.jpeg",1,4,3,2,"HouseObjects",2,2,"right","right",0.541999817,1,1,1,0,NA,NA,NA,NA,NA,NA,NA,NA,NA,NA,NA,NA,NA,NA,NA,NA,NA,NA,NA,NA,NA,NA,NA,NA
"508","stim/objects/Instruments/musicstand3.png",332,36,325,0.9,"stim/24.jpeg",2,4,3,2,"Instruments",1,3,"left","left",0.554999828,1,1,1,0,NA,NA,NA,NA,NA,NA,NA,NA,NA,NA,NA,NA,NA,NA,NA,NA,NA,NA,NA,NA,NA,NA,NA,NA
"330","stim/objects/HouseObjects/match3.png",333,36,326,0.9,"stim/13.jpeg",1,3,3,2,"HouseObjects",2,2,"right","right",0.555999756,1,1,1,0,NA,NA,NA,NA,NA,NA,NA,NA,NA,NA,NA,NA,NA,NA,NA,NA,NA,NA,NA,NA,NA,NA,NA,NA
"298","stim/objects/HouseObjects/knife3.png",334,36,327,0.9,"stim/11.jpeg",1,1,3,2,"HouseObjects",2,4,"right","right",0.51699996,1,1,1,0,NA,NA,NA,NA,NA,NA,NA,NA,NA,NA,NA,NA,NA,NA,NA,NA,NA,NA,NA,NA,NA,NA,NA,NA
"378","stim/objects/HouseObjects/remote3.png",335,36,328,0.5,"stim/33.jpeg",3,3,1,1,"HouseObjects",2,2,"right","left",0.71600008,0,0,1,0,146,36,1,0.5,1,"stim/33.jpeg",3,3,"stim/33.jpeg",2,"right",2.190000057,2,3,0.556999922,2,0.761999846,146,0,1,NA,1,NA,1
"436","stim/objects/Instruments/cymbal3.png",336,36,329,0.7,"stim/62.jpeg",6,2,2,2,"Instruments",1,4,"left","left",0.670000076,1,1,1,0,NA,NA,NA,NA,NA,NA,NA,NA,NA,NA,NA,NA,NA,NA,NA,NA,NA,NA,NA,NA,NA,NA,NA,NA
"462","stim/objects/Instruments/marimba3.png",337,36,330,0.9,"stim/22.jpeg",2,2,3,2,"Instruments",1,4,"left","right",0.712999821,0,0,1,0,NA,NA,NA,NA,NA,NA,NA,NA,NA,NA,NA,NA,NA,NA,NA,NA,NA,NA,NA,NA,NA,NA,NA,NA
"316","stim/objects/HouseObjects/lintroller3.png",338,36,331,0.9,"stim/13.jpeg",1,3,3,2,"HouseObjects",2,2,"right","right",0.5849998,1,1,1,0,NA,NA,NA,NA,NA,NA,NA,NA,NA,NA,NA,NA,NA,NA,NA,NA,NA,NA,NA,NA,NA,NA,NA,NA
"569","stim/objects/Instruments/xylophone3.png",339,36,332,0.3,"stim/51.jpeg",5,1,2,1,"Instruments",1,1,"left","right",0.711999893,0,0,1,0,26,36,1,0.3,1,"stim/51.jpeg",5,1,"stim/51.jpeg",1,"right",0.84100008,2,4,1.750999928,4,1.534999847,26,0,0,NA,0,NA,1
"531","stim/objects/Instruments/oboe3.png",340,36,333,0.9,"stim/21.jpeg",2,1,3,2,"Instruments",1,2,"left","left",0.518999815,1,1,1,0,NA,NA,NA,NA,NA,NA,NA,NA,NA,NA,NA,NA,NA,NA,NA,NA,NA,NA,NA,NA,NA,NA,NA,NA
"556","stim/objects/Instruments/timbal4.png",341,36,334,0.9,"stim/23.jpeg",2,3,3,1,"Instruments",1,1,"left","left",0.538000107,1,1,1,0,69,36,1,0.9,1,"stim/23.jpeg",2,3,"stim/23.jpeg",1,"right",0.710000038,3,2,1.301000118,2,0.832999945,69,0,0,NA,0,NA,1
"545","stim/objects/Instruments/record_player3.png",342,36,335,0.5,"stim/32.jpeg",3,2,1,1,"Instruments",1,1,"left","left",0.625,1,1,1,0,94,36,1,0.5,1,"stim/32.jpeg",3,2,"stim/32.jpeg",1,"right",1.318000078,1,2,1.048000097,2,1.427999973,94,0,1,NA,0,NA,1
"532","stim/objects/Instruments/oboe3.png",343,36,336,0.9,"stim/21.jpeg",2,1,3,2,"Instruments",1,1,"left","left",0.508999825,1,1,1,0,NA,NA,NA,NA,NA,NA,NA,NA,NA,NA,NA,NA,NA,NA,NA,NA,NA,NA,NA,NA,NA,NA,NA,NA
"480","stim/objects/Instruments/metronome3.png",344,36,337,0.9,"stim/23.jpeg",2,3,3,2,"Instruments",1,2,"left","left",0.536999941,1,1,1,0,NA,NA,NA,NA,NA,NA,NA,NA,NA,NA,NA,NA,NA,NA,NA,NA,NA,NA,NA,NA,NA,NA,NA,NA
"266","stim/objects/HouseObjects/bucket3.png",345,36,338,0.5,"stim/42.jpeg",4,2,1,2,"HouseObjects",2,1,"right","right",0.544000149,1,1,1,0,NA,NA,NA,NA,NA,NA,NA,NA,NA,NA,NA,NA,NA,NA,NA,NA,NA,NA,NA,NA,NA,NA,NA,NA
"389","stim/objects/HouseObjects/scale4.png",346,36,339,0.1,"stim/24.jpeg",2,4,3,1,"HouseObjects",2,2,"right","left",0.510999918,0,0,1,0,195,36,1,0.1,2,"stim/24.jpeg",2,4,"stim/24.jpeg",2,"right",0.717000008,4,3,0.417999983,4,0.450000048,195,0,0,NA,0,NA,1
"463","stim/objects/Instruments/marimba3.png",347,36,340,0.9,"stim/22.jpeg",2,2,3,2,"Instruments",1,1,"left","left",0.447999954,1,1,1,0,NA,NA,NA,NA,NA,NA,NA,NA,NA,NA,NA,NA,NA,NA,NA,NA,NA,NA,NA,NA,NA,NA,NA,NA
"397","stim/objects/HouseObjects/thermometer4.png",348,36,341,0.1,"stim/24.jpeg",2,4,3,1,"HouseObjects",2,1,"right","left",0.618000031,0,0,1,0,143,36,1,0.1,2,"stim/24.jpeg",2,4,"stim/24.jpeg",1,"left",1.135999918,4,4,1.220000029,2,1.469000101,143,1,1,1,0,0,1
"344","stim/objects/HouseObjects/pan3.png",349,36,342,0.9,"stim/14.jpeg",1,4,3,2,"HouseObjects",2,3,"right","right",0.597999811,1,1,1,0,NA,NA,NA,NA,NA,NA,NA,NA,NA,NA,NA,NA,NA,NA,NA,NA,NA,NA,NA,NA,NA,NA,NA,NA
"511","stim/objects/Instruments/musicstand3.png",350,36,343,0.9,"stim/22.jpeg",2,2,3,2,"Instruments",1,3,"left","right",0.659999847,0,0,1,0,NA,NA,NA,NA,NA,NA,NA,NA,NA,NA,NA,NA,NA,NA,NA,NA,NA,NA,NA,NA,NA,NA,NA,NA
"464","stim/objects/Instruments/marimba3.png",351,36,344,0.9,"stim/21.jpeg",2,1,3,2,"Instruments",1,2,"left","left",0.630999804,1,1,1,0,NA,NA,NA,NA,NA,NA,NA,NA,NA,NA,NA,NA,NA,NA,NA,NA,NA,NA,NA,NA,NA,NA,NA,NA
"299","stim/objects/HouseObjects/knife3.png",352,36,345,0.9,"stim/12.jpeg",1,2,3,2,"HouseObjects",2,2,"right","right",0.597999811,1,1,1,0,NA,NA,NA,NA,NA,NA,NA,NA,NA,NA,NA,NA,NA,NA,NA,NA,NA,NA,NA,NA,NA,NA,NA,NA
"512","stim/objects/Instruments/musicstand3.png",353,36,346,0.9,"stim/24.jpeg",2,4,3,2,"Instruments",1,2,"left","left",0.585999966,1,1,1,0,NA,NA,NA,NA,NA,NA,NA,NA,NA,NA,NA,NA,NA,NA,NA,NA,NA,NA,NA,NA,NA,NA,NA,NA
"495","stim/objects/Instruments/musicsheet3.png",354,36,347,0.9,"stim/24.jpeg",2,4,3,2,"Instruments",1,2,"left","left",0.578999996,1,1,1,0,NA,NA,NA,NA,NA,NA,NA,NA,NA,NA,NA,NA,NA,NA,NA,NA,NA,NA,NA,NA,NA,NA,NA,NA
"551","stim/objects/Instruments/speaker3.png",355,36,348,0.5,"stim/41.jpeg",4,1,1,1,"Instruments",1,4,"left","right",0.622999907,0,0,1,0,175,36,1,0.5,2,"stim/41.jpeg",4,1,"stim/41.jpeg",4,"right",1.420000076,1,4,1.133999825,2,1.53399992,175,0,0,NA,0,NA,1
"367","stim/objects/HouseObjects/pitcher3.png",356,36,349,0.9,"stim/11.jpeg",1,1,3,2,"HouseObjects",2,1,"right","right",0.595999956,1,1,1,0,NA,NA,NA,NA,NA,NA,NA,NA,NA,NA,NA,NA,NA,NA,NA,NA,NA,NA,NA,NA,NA,NA,NA,NA
"496","stim/objects/Instruments/musicsheet3.png",357,36,350,0.9,"stim/22.jpeg",2,2,3,2,"Instruments",1,2,"left","left",0.679999828,1,1,1,0,NA,NA,NA,NA,NA,NA,NA,NA,NA,NA,NA,NA,NA,NA,NA,NA,NA,NA,NA,NA,NA,NA,NA,NA
"349","stim/objects/HouseObjects/pan3.png",358,36,351,0.9,"stim/13.jpeg",1,3,3,2,"HouseObjects",2,4,"right","right",0.520999908,1,1,1,0,NA,NA,NA,NA,NA,NA,NA,NA,NA,NA,NA,NA,NA,NA,NA,NA,NA,NA,NA,NA,NA,NA,NA,NA
"566","stim/objects/Instruments/violin4.png",359,36,352,0.9,"stim/24.jpeg",2,4,3,1,"Instruments",1,3,"left","left",0.678999901,1,1,1,0,29,36,1,0.9,1,"stim/24.jpeg",2,4,"stim/24.jpeg",3,"left",0.84800005,4,2,2.885999918,4,2.737000227,29,1,0,0,0,0,1
"408","stim/objects/Instruments/accordion4.png",360,36,353,0.3,"stim/52.jpeg",5,2,2,1,"Instruments",1,1,"left","right",0.551999807,0,0,1,0,152,36,1,0.3,1,"stim/52.jpeg",5,2,"stim/52.jpeg",1,"left",1.368999958,4,3,1.184000015,2,0.49000001,152,1,0,0,0,0,1
"386","stim/objects/HouseObjects/saw3.png",361,36,354,0.5,"stim/44.jpeg",4,4,1,1,"HouseObjects",2,2,"right","right",0.796999931,1,1,1,0,145,36,1,0.5,2,"stim/44.jpeg",4,4,"stim/44.jpeg",2,"left",1.417999983,4,3,1.254999876,2,2.620000124,145,1,0,0,1,1,1
"513","stim/objects/Instruments/musicstand3.png",362,36,355,0.9,"stim/21.jpeg",2,1,3,2,"Instruments",1,3,"left","left",0.544999838,1,1,1,0,NA,NA,NA,NA,NA,NA,NA,NA,NA,NA,NA,NA,NA,NA,NA,NA,NA,NA,NA,NA,NA,NA,NA,NA
"542","stim/objects/Instruments/panflute4.png",363,36,356,0.1,"stim/12.jpeg",1,2,3,1,"Instruments",1,3,"left","right",0.618999958,0,0,1,0,139,36,1,0.1,1,"stim/12.jpeg",1,2,"stim/12.jpeg",3,"right",1.416999817,2,4,1.611999989,1,1.970000029,139,0,0,NA,0,NA,1
"514","stim/objects/Instruments/musicstand3.png",364,36,357,0.9,"stim/21.jpeg",2,1,3,2,"Instruments",1,2,"left","left",0.620999813,1,1,1,0,NA,NA,NA,NA,NA,NA,NA,NA,NA,NA,NA,NA,NA,NA,NA,NA,NA,NA,NA,NA,NA,NA,NA,NA
"267","stim/objects/HouseObjects/bucket4.png",365,36,358,0.3,"stim/61.jpeg",6,1,2,1,"HouseObjects",2,3,"right","left",0.801999807,0,0,1,0,1,36,1,0.3,2,"stim/61.jpeg",6,1,"stim/61.jpeg",3,"right",0.971999884,1,2,8.046999931,2,4.017000198,1,0,0,NA,0,NA,1
"250","stim/objects/HouseObjects/basket3.png",366,36,359,0.5,"stim/33.jpeg",3,3,1,2,"HouseObjects",2,4,"right","left",0.813999891,0,0,1,0,NA,NA,NA,NA,NA,NA,NA,NA,NA,NA,NA,NA,NA,NA,NA,NA,NA,NA,NA,NA,NA,NA,NA,NA
"410","stim/objects/Instruments/acousticguitar3.png",367,36,360,0.5,"stim/33.jpeg",3,3,1,2,"Instruments",1,1,"left","right",0.78399992,0,0,1,0,NA,NA,NA,NA,NA,NA,NA,NA,NA,NA,NA,NA,NA,NA,NA,NA,NA,NA,NA,NA,NA,NA,NA,NA
"283","stim/objects/HouseObjects/ironingboard3.png",368,36,361,0.7,"stim/54.jpeg",5,4,2,2,"HouseObjects",2,4,"right","right",0.745999813,1,1,1,0,NA,NA,NA,NA,NA,NA,NA,NA,NA,NA,NA,NA,NA,NA,NA,NA,NA,NA,NA,NA,NA,NA,NA,NA
"552","stim/objects/Instruments/speaker4.png",369,36,362,0.9,"stim/21.jpeg",2,1,3,1,"Instruments",1,2,"left","left",0.589999914,1,1,1,0,115,36,1,0.9,1,"stim/21.jpeg",2,1,"stim/21.jpeg",2,"left",0.799999952,4,3,2.406999826,2,3.684999943,115,1,0,0,1,1,1
"444","stim/objects/Instruments/keyboard3.png",370,36,363,0.7,"stim/64.jpeg",6,4,2,2,"Instruments",1,2,"left","right",0.578000069,0,0,1,0,NA,NA,NA,NA,NA,NA,NA,NA,NA,NA,NA,NA,NA,NA,NA,NA,NA,NA,NA,NA,NA,NA,NA,NA
"533","stim/objects/Instruments/oboe3.png",371,36,364,0.9,"stim/21.jpeg",2,1,3,2,"Instruments",1,1,"left","left",0.684000015,1,1,1,0,NA,NA,NA,NA,NA,NA,NA,NA,NA,NA,NA,NA,NA,NA,NA,NA,NA,NA,NA,NA,NA,NA,NA,NA
"398","stim/objects/HouseObjects/thread3.png",372,36,365,0.7,"stim/53.jpeg",5,3,2,1,"HouseObjects",2,1,"right","right",0.601000071,1,1,1,0,174,36,1,0.7,2,"stim/53.jpeg",5,3,"stim/53.jpeg",1,"left",0.878999949,4,3,0.476000071,4,0.401000023,174,1,1,1,0,0,1
"498","stim/objects/Instruments/musicsheet3.png",373,36,366,0.9,"stim/24.jpeg",2,4,3,2,"Instruments",1,2,"left","left",0.564999819,1,1,1,0,NA,NA,NA,NA,NA,NA,NA,NA,NA,NA,NA,NA,NA,NA,NA,NA,NA,NA,NA,NA,NA,NA,NA,NA
"524","stim/objects/Instruments/oboe3.png",374,36,367,0.9,"stim/22.jpeg",2,2,3,2,"Instruments",1,2,"left","left",0.631999969,1,1,1,0,NA,NA,NA,NA,NA,NA,NA,NA,NA,NA,NA,NA,NA,NA,NA,NA,NA,NA,NA,NA,NA,NA,NA,NA
"491","stim/objects/Instruments/musicsheet3.png",375,36,368,0.9,"stim/23.jpeg",2,3,3,2,"Instruments",1,1,"left","left",0.505999804,1,1,1,0,NA,NA,NA,NA,NA,NA,NA,NA,NA,NA,NA,NA,NA,NA,NA,NA,NA,NA,NA,NA,NA,NA,NA,NA
"482","stim/objects/Instruments/metronome3.png",376,36,369,0.9,"stim/21.jpeg",2,1,3,2,"Instruments",1,1,"left","left",0.552999973,1,1,1,0,NA,NA,NA,NA,NA,NA,NA,NA,NA,NA,NA,NA,NA,NA,NA,NA,NA,NA,NA,NA,NA,NA,NA,NA
"333","stim/objects/HouseObjects/match3.png",377,36,370,0.9,"stim/11.jpeg",1,1,3,2,"HouseObjects",2,1,"right","right",0.605000019,1,1,1,0,NA,NA,NA,NA,NA,NA,NA,NA,NA,NA,NA,NA,NA,NA,NA,NA,NA,NA,NA,NA,NA,NA,NA,NA
"492","stim/objects/Instruments/musicsheet3.png",378,36,371,0.9,"stim/23.jpeg",2,3,3,2,"Instruments",1,1,"left","left",0.638999939,1,1,1,0,NA,NA,NA,NA,NA,NA,NA,NA,NA,NA,NA,NA,NA,NA,NA,NA,NA,NA,NA,NA,NA,NA,NA,NA
"401","stim/objects/HouseObjects/towel4.png",379,36,372,0.1,"stim/22.jpeg",2,2,3,1,"HouseObjects",2,2,"right","left",0.612999916,0,0,1,0,16,36,1,0.1,2,"stim/22.jpeg",2,2,"stim/22.jpeg",2,"right",0.693000078,2,3,1.734999895,3,1.75,16,0,0,NA,0,NA,1
"499","stim/objects/Instruments/musicsheet3.png",380,36,373,0.9,"stim/21.jpeg",2,1,3,2,"Instruments",1,3,"left","left",0.56799984,1,1,1,0,NA,NA,NA,NA,NA,NA,NA,NA,NA,NA,NA,NA,NA,NA,NA,NA,NA,NA,NA,NA,NA,NA,NA,NA
"270","stim/objects/HouseObjects/clock4.png",381,36,374,0.3,"stim/62.jpeg",6,2,2,1,"HouseObjects",2,2,"right","left",0.558000088,0,0,1,0,79,36,1,0.3,2,"stim/62.jpeg",6,2,"stim/62.jpeg",2,"right",1.003999949,4,4,1.301000118,3,1.2099998,79,0,0,NA,0,NA,1
"241","stim/objects/HouseObjects/ashtray3.png",382,36,375,0.5,"stim/31.jpeg",3,1,1,2,"HouseObjects",2,4,"right","left",0.680000067,0,0,1,0,NA,NA,NA,NA,NA,NA,NA,NA,NA,NA,NA,NA,NA,NA,NA,NA,NA,NA,NA,NA,NA,NA,NA,NA
"483","stim/objects/Instruments/metronome3.png",383,36,376,0.9,"stim/23.jpeg",2,3,3,2,"Instruments",1,3,"left","left",0.552000046,1,1,1,0,NA,NA,NA,NA,NA,NA,NA,NA,NA,NA,NA,NA,NA,NA,NA,NA,NA,NA,NA,NA,NA,NA,NA,NA
"565","stim/objects/Instruments/violin3.png",384,36,377,0.3,"stim/53.jpeg",5,3,2,1,"Instruments",1,2,"left","",NA,0,0,1,0,154,36,1,0.3,1,"stim/53.jpeg",5,3,"stim/53.jpeg",2,"left",0.863000154,3,3,0.967999935,3,0.866999865,154,1,1,1,0,0,1
"387","stim/objects/HouseObjects/saw4.png",385,36,378,0.1,"stim/23.jpeg",2,3,3,1,"HouseObjects",2,2,"right","left",0.573999882,0,0,1,0,172,36,1,0.1,2,"stim/23.jpeg",2,3,"stim/23.jpeg",2,"left",0.80099988,4,4,0.718000174,2,1.519000053,172,1,0,0,1,1,1
"302","stim/objects/HouseObjects/knife3.png",386,36,379,0.9,"stim/12.jpeg",1,2,3,2,"HouseObjects",2,1,"right","right",0.546000004,1,1,1,0,NA,NA,NA,NA,NA,NA,NA,NA,NA,NA,NA,NA,NA,NA,NA,NA,NA,NA,NA,NA,NA,NA,NA,NA
"317","stim/objects/HouseObjects/lintroller3.png",387,36,380,0.9,"stim/13.jpeg",1,3,3,2,"HouseObjects",2,3,"right","right",0.517999887,1,1,1,0,NA,NA,NA,NA,NA,NA,NA,NA,NA,NA,NA,NA,NA,NA,NA,NA,NA,NA,NA,NA,NA,NA,NA,NA
"484","stim/objects/Instruments/metronome3.png",388,36,381,0.9,"stim/24.jpeg",2,4,3,2,"Instruments",1,1,"left","left",0.621999979,1,1,1,0,NA,NA,NA,NA,NA,NA,NA,NA,NA,NA,NA,NA,NA,NA,NA,NA,NA,NA,NA,NA,NA,NA,NA,NA
"430","stim/objects/Instruments/clarinet3.png",389,36,382,0.5,"stim/42.jpeg",4,2,1,2,"Instruments",1,2,"left","left",0.708999872,1,1,1,0,NA,NA,NA,NA,NA,NA,NA,NA,NA,NA,NA,NA,NA,NA,NA,NA,NA,NA,NA,NA,NA,NA,NA,NA
"447","stim/objects/Instruments/keyboard4.png",390,36,383,0.7,"stim/63.jpeg",6,3,2,1,"Instruments",1,2,"left","left",0.606999874,1,1,1,0,84,36,1,0.7,1,"stim/63.jpeg",6,3,"stim/63.jpeg",2,"right",0.961000204,4,4,0.465999842,3,0.883000135,84,0,0,NA,0,NA,1
"412","stim/objects/Instruments/balalaika3.png",391,36,384,0.5,"stim/34.jpeg",3,4,1,2,"Instruments",1,4,"left","left",0.512999773,1,1,1,0,NA,NA,NA,NA,NA,NA,NA,NA,NA,NA,NA,NA,NA,NA,NA,NA,NA,NA,NA,NA,NA,NA,NA,NA
"439","stim/objects/Instruments/cymbal4.png",392,36,385,0.7,"stim/61.jpeg",6,1,2,1,"Instruments",1,1,"left","left",0.476999998,1,1,1,0,157,36,1,0.7,1,"stim/61.jpeg",6,1,"stim/61.jpeg",1,"right",1.320999861,1,2,0.382999897,3,1.164999962,157,0,0,NA,0,NA,1
"541","stim/objects/Instruments/panflute3.png",393,36,386,0.5,"stim/33.jpeg",3,3,1,1,"Instruments",1,2,"left","right",0.427999973,0,0,1,0,168,36,1,0.5,1,"stim/33.jpeg",3,3,"stim/33.jpeg",2,"right",0.883000135,1,2,0.450000048,3,0.493999958,168,0,0,NA,0,NA,1
"351","stim/objects/HouseObjects/pan3.png",394,36,387,0.9,"stim/11.jpeg",1,1,3,2,"HouseObjects",2,2,"right","left",0.38499999,0,0,1,0,NA,NA,NA,NA,NA,NA,NA,NA,NA,NA,NA,NA,NA,NA,NA,NA,NA,NA,NA,NA,NA,NA,NA,NA
"348","stim/objects/HouseObjects/pan3.png",395,36,388,0.9,"stim/11.jpeg",1,1,3,2,"HouseObjects",2,4,"right","right",0.531999826,1,1,1,0,NA,NA,NA,NA,NA,NA,NA,NA,NA,NA,NA,NA,NA,NA,NA,NA,NA,NA,NA,NA,NA,NA,NA,NA
"515","stim/objects/Instruments/musicstand3.png",396,36,389,0.9,"stim/23.jpeg",2,3,3,2,"Instruments",1,4,"left","left",0.55099988,1,1,1,0,NA,NA,NA,NA,NA,NA,NA,NA,NA,NA,NA,NA,NA,NA,NA,NA,NA,NA,NA,NA,NA,NA,NA,NA
"304","stim/objects/HouseObjects/knife3.png",397,36,390,0.9,"stim/11.jpeg",1,1,3,2,"HouseObjects",2,3,"right","left",0.572999954,0,0,1,0,NA,NA,NA,NA,NA,NA,NA,NA,NA,NA,NA,NA,NA,NA,NA,NA,NA,NA,NA,NA,NA,NA,NA,NA
"369","stim/objects/HouseObjects/pitcher3.png",398,36,391,0.9,"stim/13.jpeg",1,3,3,2,"HouseObjects",2,3,"right","right",0.606999874,1,1,1,0,NA,NA,NA,NA,NA,NA,NA,NA,NA,NA,NA,NA,NA,NA,NA,NA,NA,NA,NA,NA,NA,NA,NA,NA
"525","stim/objects/Instruments/oboe3.png",399,36,392,0.9,"stim/23.jpeg",2,3,3,2,"Instruments",1,1,"left","left",0.455999851,1,1,1,0,NA,NA,NA,NA,NA,NA,NA,NA,NA,NA,NA,NA,NA,NA,NA,NA,NA,NA,NA,NA,NA,NA,NA,NA
"481","stim/objects/Instruments/metronome3.png",400,36,393,0.9,"stim/21.jpeg",2,1,3,2,"Instruments",1,4,"left","right",0.485999823,0,0,1,0,NA,NA,NA,NA,NA,NA,NA,NA,NA,NA,NA,NA,NA,NA,NA,NA,NA,NA,NA,NA,NA,NA,NA,NA
"466","stim/objects/Instruments/marimba3.png",401,36,394,0.9,"stim/21.jpeg",2,1,3,2,"Instruments",1,3,"left","left",0.55099988,1,1,1,0,NA,NA,NA,NA,NA,NA,NA,NA,NA,NA,NA,NA,NA,NA,NA,NA,NA,NA,NA,NA,NA,NA,NA,NA
"352","stim/objects/HouseObjects/pan3.png",402,36,395,0.9,"stim/12.jpeg",1,2,3,2,"HouseObjects",2,1,"right","right",0.556999922,1,1,1,0,NA,NA,NA,NA,NA,NA,NA,NA,NA,NA,NA,NA,NA,NA,NA,NA,NA,NA,NA,NA,NA,NA,NA,NA
"546","stim/objects/Instruments/record_player4.png",403,36,396,0.1,"stim/11.jpeg",1,1,3,1,"Instruments",1,1,"left","right",0.463999987,0,0,1,0,144,36,1,0.1,1,"stim/11.jpeg",1,1,"stim/11.jpeg",1,"right",0.950999975,3,3,0.805000067,2,0.689999819,144,0,0,NA,0,NA,1
"318","stim/objects/HouseObjects/lintroller3.png",404,36,397,0.9,"stim/11.jpeg",1,1,3,2,"HouseObjects",2,2,"right","right",0.434000015,1,1,1,0,NA,NA,NA,NA,NA,NA,NA,NA,NA,NA,NA,NA,NA,NA,NA,NA,NA,NA,NA,NA,NA,NA,NA,NA
"363","stim/objects/HouseObjects/pitcher3.png",405,36,398,0.9,"stim/13.jpeg",1,3,3,2,"HouseObjects",2,2,"right","right",0.468999863,1,1,1,0,NA,NA,NA,NA,NA,NA,NA,NA,NA,NA,NA,NA,NA,NA,NA,NA,NA,NA,NA,NA,NA,NA,NA,NA
"319","stim/objects/HouseObjects/lintroller3.png",406,36,399,0.9,"stim/12.jpeg",1,2,3,2,"HouseObjects",2,4,"right","right",0.50999999,1,1,1,0,NA,NA,NA,NA,NA,NA,NA,NA,NA,NA,NA,NA,NA,NA,NA,NA,NA,NA,NA,NA,NA,NA,NA,NA
"273","stim/objects/HouseObjects/clothesdryingrack3.png",407,36,400,0.7,"stim/53.jpeg",5,3,2,2,"HouseObjects",2,3,"right","right",0.620999813,1,1,1,0,NA,NA,NA,NA,NA,NA,NA,NA,NA,NA,NA,NA,NA,NA,NA,NA,NA,NA,NA,NA,NA,NA,NA,NA
"429","stim/objects/Instruments/chime4.png",408,36,401,0.7,"stim/62.jpeg",6,2,2,1,"Instruments",1,4,"left","left",0.678999901,1,1,1,0,164,36,1,0.7,1,"stim/62.jpeg",6,2,"stim/62.jpeg",4,"left",0.851000071,4,4,3.403000116,2,1.967999935,164,1,0,0,0,0,1
"567","stim/objects/Instruments/vuvuzela3.png",409,36,402,0.3,"stim/54.jpeg",5,4,2,1,"Instruments",1,4,"left","right",0.75,0,0,1,0,63,36,1,0.3,1,"stim/54.jpeg",5,4,"stim/54.jpeg",4,"left",1.190999985,4,4,4.429000139,4,0.861000061,63,1,1,1,1,1,1
"258","stim/objects/HouseObjects/blender4.png",410,36,403,0.3,"stim/62.jpeg",6,2,2,1,"HouseObjects",2,1,"right","left",0.57400012,0,0,1,0,93,36,1,0.3,2,"stim/62.jpeg",6,2,"stim/62.jpeg",1,"left",3.986999989,4,2,1.770999908,4,1.088999987,93,1,1,1,0,0,1
"370","stim/objects/HouseObjects/pitcher3.png",411,36,404,0.9,"stim/12.jpeg",1,2,3,2,"HouseObjects",2,2,"right","right",0.603999853,1,1,1,0,NA,NA,NA,NA,NA,NA,NA,NA,NA,NA,NA,NA,NA,NA,NA,NA,NA,NA,NA,NA,NA,NA,NA,NA
"287","stim/objects/HouseObjects/key3.png",412,36,405,0.7,"stim/51.jpeg",5,1,2,2,"HouseObjects",2,3,"right","right",0.539000034,1,1,1,0,NA,NA,NA,NA,NA,NA,NA,NA,NA,NA,NA,NA,NA,NA,NA,NA,NA,NA,NA,NA,NA,NA,NA,NA
"379","stim/objects/HouseObjects/remote4.png",413,36,406,0.9,"stim/11.jpeg",1,1,3,1,"HouseObjects",2,1,"right","right",0.671000004,1,1,1,0,126,36,1,0.9,2,"stim/11.jpeg",1,1,"stim/11.jpeg",1,"left",1.254999876,3,1,1.649999857,2,1.717000008,126,1,1,1,0,0,1
"342","stim/objects/HouseObjects/pan3.png",414,36,407,0.9,"stim/11.jpeg",1,1,3,2,"HouseObjects",2,1,"right","right",0.559999943,1,1,1,0,NA,NA,NA,NA,NA,NA,NA,NA,NA,NA,NA,NA,NA,NA,NA,NA,NA,NA,NA,NA,NA,NA,NA,NA
"536","stim/objects/Instruments/oboe3.png",415,36,408,0.9,"stim/24.jpeg",2,4,3,2,"Instruments",1,4,"left","left",0.602999926,1,1,1,0,NA,NA,NA,NA,NA,NA,NA,NA,NA,NA,NA,NA,NA,NA,NA,NA,NA,NA,NA,NA,NA,NA,NA,NA
"450","stim/objects/Instruments/laud3.png",416,36,409,0.7,"stim/64.jpeg",6,4,2,2,"Instruments",1,3,"left","right",0.524999857,0,0,1,0,NA,NA,NA,NA,NA,NA,NA,NA,NA,NA,NA,NA,NA,NA,NA,NA,NA,NA,NA,NA,NA,NA,NA,NA
"371","stim/objects/HouseObjects/pitcher3.png",417,36,410,0.9,"stim/14.jpeg",1,4,3,2,"HouseObjects",2,1,"right","left",0.807999849,0,0,1,0,NA,NA,NA,NA,NA,NA,NA,NA,NA,NA,NA,NA,NA,NA,NA,NA,NA,NA,NA,NA,NA,NA,NA,NA
"500","stim/objects/Instruments/musicsheet3.png",418,36,411,0.9,"stim/24.jpeg",2,4,3,2,"Instruments",1,1,"left","left",0.574999809,1,1,1,0,NA,NA,NA,NA,NA,NA,NA,NA,NA,NA,NA,NA,NA,NA,NA,NA,NA,NA,NA,NA,NA,NA,NA,NA
"563","stim/objects/Instruments/tuba3.png",419,36,412,0.3,"stim/52.jpeg",5,2,2,1,"Instruments",1,4,"left","right",0.572000027,0,0,1,0,88,36,1,0.3,1,"stim/52.jpeg",5,2,"stim/52.jpeg",4,"left",1.775000095,3,2,0.851000071,4,1.087000132,88,1,1,1,1,1,1
"343","stim/objects/HouseObjects/pan3.png",420,36,413,0.9,"stim/14.jpeg",1,4,3,2,"HouseObjects",2,3,"right","right",0.553999901,1,1,1,0,NA,NA,NA,NA,NA,NA,NA,NA,NA,NA,NA,NA,NA,NA,NA,NA,NA,NA,NA,NA,NA,NA,NA,NA
"477","stim/objects/Instruments/metronome3.png",421,36,414,0.9,"stim/23.jpeg",2,3,3,2,"Instruments",1,4,"left","left",0.56799984,1,1,1,0,NA,NA,NA,NA,NA,NA,NA,NA,NA,NA,NA,NA,NA,NA,NA,NA,NA,NA,NA,NA,NA,NA,NA,NA
"528","stim/objects/Instruments/oboe3.png",422,36,415,0.9,"stim/24.jpeg",2,4,3,2,"Instruments",1,1,"left","left",0.521999836,1,1,1,0,NA,NA,NA,NA,NA,NA,NA,NA,NA,NA,NA,NA,NA,NA,NA,NA,NA,NA,NA,NA,NA,NA,NA,NA
"537","stim/objects/Instruments/oboe3.png",423,36,416,0.9,"stim/23.jpeg",2,3,3,2,"Instruments",1,2,"left","left",0.552999973,1,1,1,0,NA,NA,NA,NA,NA,NA,NA,NA,NA,NA,NA,NA,NA,NA,NA,NA,NA,NA,NA,NA,NA,NA,NA,NA
"550","stim/objects/Instruments/saxophone4.png",424,36,417,0.1,"stim/12.jpeg",1,2,3,1,"Instruments",1,4,"left","right",0.512999773,0,0,1,0,66,36,1,0.1,1,"stim/12.jpeg",1,2,"stim/12.jpeg",4,"right",1.5400002,2,1,0.968000174,3,1.517999887,66,0,0,NA,0,NA,1
"274","stim/objects/HouseObjects/clothesdryingrack4.png",425,36,418,0.3,"stim/63.jpeg",6,3,2,1,"HouseObjects",2,3,"right","left",0.491999865,0,0,1,0,7,36,1,0.3,2,"stim/63.jpeg",6,3,"stim/63.jpeg",3,"right",1.786000013,3,1,13.74499989,3,1.628999949,7,0,0,NA,1,NA,1
"478","stim/objects/Instruments/metronome3.png",426,36,419,0.9,"stim/24.jpeg",2,4,3,2,"Instruments",1,1,"left","left",0.454999924,1,1,1,0,NA,NA,NA,NA,NA,NA,NA,NA,NA,NA,NA,NA,NA,NA,NA,NA,NA,NA,NA,NA,NA,NA,NA,NA
"432","stim/objects/Instruments/clarinet4.png",427,36,420,0.7,"stim/63.jpeg",6,3,2,1,"Instruments",1,4,"left","left",0.493999958,1,1,1,0,133,36,1,0.7,1,"stim/63.jpeg",6,3,"stim/63.jpeg",4,"left",1.252000093,4,3,1.950999975,2,2.018000126,133,1,1,1,0,0,1
"554","stim/objects/Instruments/tambourine4.png",428,36,421,0.9,"stim/22.jpeg",2,2,3,1,"Instruments",1,2,"left","left",0.5,1,1,1,0,128,36,1,0.9,1,"stim/22.jpeg",2,2,"stim/22.jpeg",2,"right",0.78399992,3,4,1.806999922,4,1.66899991,128,0,0,NA,0,NA,1
"254","stim/objects/HouseObjects/bleachbottle3.png",429,36,422,0.5,"stim/31.jpeg",3,1,1,2,"HouseObjects",2,4,"right","left",0.480000019,0,0,1,0,NA,NA,NA,NA,NA,NA,NA,NA,NA,NA,NA,NA,NA,NA,NA,NA,NA,NA,NA,NA,NA,NA,NA,NA
"388","stim/objects/HouseObjects/scale3.png",430,36,423,0.5,"stim/41.jpeg",4,1,1,1,"HouseObjects",2,1,"right","left",0.746999741,0,0,1,0,151,36,1,0.5,2,"stim/41.jpeg",4,1,"stim/41.jpeg",1,"left",1.369000196,3,2,0.625999928,2,1.73300004,151,1,0,0,0,0,1
"553","stim/objects/Instruments/tambourine3.png",431,36,424,0.5,"stim/42.jpeg",4,2,1,1,"Instruments",1,3,"left","right",0.760999918,0,0,1,0,138,36,1,0.5,2,"stim/42.jpeg",4,2,"stim/42.jpeg",3,"right",1.273000002,2,2,2.802999973,3,1.458999872,138,0,1,NA,1,NA,1
"501","stim/objects/Instruments/musicsheet3.png",432,36,425,0.9,"stim/23.jpeg",2,3,3,2,"Instruments",1,1,"left","left",0.611000061,1,1,1,0,NA,NA,NA,NA,NA,NA,NA,NA,NA,NA,NA,NA,NA,NA,NA,NA,NA,NA,NA,NA,NA,NA,NA,NA
"487","stim/objects/Instruments/metronome3.png",433,36,426,0.9,"stim/21.jpeg",2,1,3,2,"Instruments",1,3,"left","left",0.792999744,1,1,1,0,NA,NA,NA,NA,NA,NA,NA,NA,NA,NA,NA,NA,NA,NA,NA,NA,NA,NA,NA,NA,NA,NA,NA,NA
"544","stim/objects/Instruments/pipepiano4.png",434,36,427,0.1,"stim/13.jpeg",1,3,3,1,"Instruments",1,3,"left","right",0.572999954,0,0,1,0,110,36,1,0.1,1,"stim/13.jpeg",1,3,"stim/13.jpeg",3,"left",1.718999863,4,1,1.767999887,3,1.869999886,110,1,0,0,1,1,1
"260","stim/objects/HouseObjects/bottle3.png",435,36,428,0.5,"stim/43.jpeg",4,3,1,2,"HouseObjects",2,4,"right","right",0.446000099,1,1,1,0,NA,NA,NA,NA,NA,NA,NA,NA,NA,NA,NA,NA,NA,NA,NA,NA,NA,NA,NA,NA,NA,NA,NA,NA
"409","stim/objects/Instruments/acousticguitar3.png",436,36,429,0.5,"stim/32.jpeg",3,2,1,2,"Instruments",1,2,"left","left",0.615999937,1,1,1,0,NA,NA,NA,NA,NA,NA,NA,NA,NA,NA,NA,NA,NA,NA,NA,NA,NA,NA,NA,NA,NA,NA,NA,NA
"373","stim/objects/HouseObjects/pitcher3.png",437,36,430,0.9,"stim/13.jpeg",1,3,3,2,"HouseObjects",2,4,"right","right",0.525999784,1,1,1,0,NA,NA,NA,NA,NA,NA,NA,NA,NA,NA,NA,NA,NA,NA,NA,NA,NA,NA,NA,NA,NA,NA,NA,NA
"425","stim/objects/Instruments/cello3.png",438,36,431,0.5,"stim/44.jpeg",4,4,1,2,"Instruments",1,3,"left","right",0.56099987,0,0,1,0,NA,NA,NA,NA,NA,NA,NA,NA,NA,NA,NA,NA,NA,NA,NA,NA,NA,NA,NA,NA,NA,NA,NA,NA
"276","stim/objects/HouseObjects/clothespin3.png",439,36,432,0.7,"stim/51.jpeg",5,1,2,2,"HouseObjects",2,2,"right","right",0.630999804,1,1,1,0,NA,NA,NA,NA,NA,NA,NA,NA,NA,NA,NA,NA,NA,NA,NA,NA,NA,NA,NA,NA,NA,NA,NA,NA
"242","stim/objects/HouseObjects/ashtray3.png",440,36,433,0.5,"stim/34.jpeg",3,4,1,2,"HouseObjects",2,2,"right","right",0.724999905,1,1,1,0,NA,NA,NA,NA,NA,NA,NA,NA,NA,NA,NA,NA,NA,NA,NA,NA,NA,NA,NA,NA,NA,NA,NA,NA
"538","stim/objects/Instruments/oboe3.png",441,36,434,0.9,"stim/24.jpeg",2,4,3,2,"Instruments",1,4,"left","right",0.427999973,0,0,1,0,NA,NA,NA,NA,NA,NA,NA,NA,NA,NA,NA,NA,NA,NA,NA,NA,NA,NA,NA,NA,NA,NA,NA,NA
"445","stim/objects/Instruments/keyboard3.png",442,36,435,0.7,"stim/63.jpeg",6,3,2,2,"Instruments",1,2,"left","left",0.592999935,1,1,1,0,NA,NA,NA,NA,NA,NA,NA,NA,NA,NA,NA,NA,NA,NA,NA,NA,NA,NA,NA,NA,NA,NA,NA,NA
"424","stim/objects/Instruments/cello3.png",443,36,436,0.5,"stim/41.jpeg",4,1,1,2,"Instruments",1,4,"left","left",0.596999884,1,1,1,0,NA,NA,NA,NA,NA,NA,NA,NA,NA,NA,NA,NA,NA,NA,NA,NA,NA,NA,NA,NA,NA,NA,NA,NA
"337","stim/objects/HouseObjects/match3.png",444,36,437,0.9,"stim/12.jpeg",1,2,3,2,"HouseObjects",2,3,"right","right",0.609999895,1,1,1,0,NA,NA,NA,NA,NA,NA,NA,NA,NA,NA,NA,NA,NA,NA,NA,NA,NA,NA,NA,NA,NA,NA,NA,NA
"384","stim/objects/HouseObjects/safetypin3.png",445,36,438,0.5,"stim/32.jpeg",3,2,1,1,"HouseObjects",2,3,"right","left",0.653999805,0,0,1,0,105,36,1,0.5,1,"stim/32.jpeg",3,2,"stim/32.jpeg",3,"left",1.546999931,3,3,0.726000071,2,1.069999933,105,1,0,0,0,0,1
"322","stim/objects/HouseObjects/lintroller3.png",446,36,439,0.9,"stim/11.jpeg",1,1,3,2,"HouseObjects",2,4,"right","right",0.629999876,1,1,1,0,NA,NA,NA,NA,NA,NA,NA,NA,NA,NA,NA,NA,NA,NA,NA,NA,NA,NA,NA,NA,NA,NA,NA,NA
"411","stim/objects/Instruments/acousticguitar4.png",447,36,440,0.3,"stim/53.jpeg",5,3,2,1,"Instruments",1,3,"left","right",0.676000118,0,0,1,0,27,36,1,0.3,1,"stim/53.jpeg",5,3,"stim/53.jpeg",3,"left",0.967000008,3,3,1.733999968,3,2.083000183,27,1,1,1,1,1,1
"449","stim/objects/Instruments/laud3.png",448,36,441,0.7,"stim/61.jpeg",6,1,2,2,"Instruments",1,3,"left","left",0.498999834,1,1,1,0,NA,NA,NA,NA,NA,NA,NA,NA,NA,NA,NA,NA,NA,NA,NA,NA,NA,NA,NA,NA,NA,NA,NA,NA
"564","stim/objects/Instruments/tuba4.png",449,36,442,0.9,"stim/23.jpeg",2,3,3,1,"Instruments",1,3,"left","left",0.552000046,1,1,1,0,97,36,1,0.9,1,"stim/23.jpeg",2,3,"stim/23.jpeg",3,"left",0.914000034,2,4,1.170000076,3,1.218000174,97,1,0,0,1,1,1
"510","stim/objects/Instruments/musicstand3.png",450,36,443,0.9,"stim/23.jpeg",2,3,3,2,"Instruments",1,3,"left","left",0.510999918,1,1,1,0,NA,NA,NA,NA,NA,NA,NA,NA,NA,NA,NA,NA,NA,NA,NA,NA,NA,NA,NA,NA,NA,NA,NA,NA
"530","stim/objects/Instruments/oboe3.png",451,36,444,0.9,"stim/21.jpeg",2,1,3,2,"Instruments",1,4,"left","right",0.434999943,0,0,1,0,NA,NA,NA,NA,NA,NA,NA,NA,NA,NA,NA,NA,NA,NA,NA,NA,NA,NA,NA,NA,NA,NA,NA,NA
"282","stim/objects/HouseObjects/iron4.png",452,36,445,0.3,"stim/61.jpeg",6,1,2,1,"HouseObjects",2,1,"right","left",0.708999872,0,0,1,0,12,36,1,0.3,2,"stim/61.jpeg",6,1,"stim/61.jpeg",1,"left",1.178999901,4,2,5.263000011,4,5.236999989,12,1,0,0,0,0,1
"307","stim/objects/HouseObjects/knife4.png",453,36,446,0.9,"stim/13.jpeg",1,3,3,1,"HouseObjects",2,2,"right","right",0.462000132,1,1,1,0,71,36,1,0.9,2,"stim/13.jpeg",1,3,"stim/13.jpeg",2,"right",0.736999989,4,4,1.251999855,4,0.537000179,71,0,0,NA,0,NA,1
"520","stim/objects/Instruments/musicstand3.png",454,36,447,0.9,"stim/21.jpeg",2,1,3,2,"Instruments",1,3,"left","left",0.601000071,1,1,1,0,NA,NA,NA,NA,NA,NA,NA,NA,NA,NA,NA,NA,NA,NA,NA,NA,NA,NA,NA,NA,NA,NA,NA,NA
"286","stim/objects/HouseObjects/ironingboard4.png",455,36,448,0.3,"stim/62.jpeg",6,2,2,1,"HouseObjects",2,1,"right","left",0.640999794,0,0,1,0,130,36,1,0.3,2,"stim/62.jpeg",6,2,"stim/62.jpeg",1,"left",1.296000004,4,2,2.089999914,3,2.000999928,130,1,1,1,0,0,1
"263","stim/objects/HouseObjects/broom3.png",456,36,449,0.5,"stim/44.jpeg",4,4,1,2,"HouseObjects",2,4,"right","left",0.687999964,0,0,1,0,NA,NA,NA,NA,NA,NA,NA,NA,NA,NA,NA,NA,NA,NA,NA,NA,NA,NA,NA,NA,NA,NA,NA,NA
"281","stim/objects/HouseObjects/iron3.png",457,36,450,0.7,"stim/51.jpeg",5,1,2,2,"HouseObjects",2,3,"right","right",0.562999964,1,1,1,0,NA,NA,NA,NA,NA,NA,NA,NA,NA,NA,NA,NA,NA,NA,NA,NA,NA,NA,NA,NA,NA,NA,NA,NA
"407","stim/objects/Instruments/accordion3.png",458,36,451,0.5,"stim/32.jpeg",3,2,1,2,"Instruments",1,1,"left","right",0.64199996,0,0,1,0,NA,NA,NA,NA,NA,NA,NA,NA,NA,NA,NA,NA,NA,NA,NA,NA,NA,NA,NA,NA,NA,NA,NA,NA
"393","stim/objects/HouseObjects/spraybottle4.png",459,36,452,0.1,"stim/22.jpeg",2,2,3,1,"HouseObjects",2,1,"right","left",0.537999868,0,0,1,0,37,36,1,0.1,2,"stim/22.jpeg",2,2,"stim/22.jpeg",1,"right",0.947000027,3,4,1.719000101,4,3.469000101,37,0,0,NA,0,NA,1
"346","stim/objects/HouseObjects/pan3.png",460,36,453,0.9,"stim/11.jpeg",1,1,3,2,"HouseObjects",2,2,"right","right",0.736000061,1,1,1,0,NA,NA,NA,NA,NA,NA,NA,NA,NA,NA,NA,NA,NA,NA,NA,NA,NA,NA,NA,NA,NA,NA,NA,NA
"488","stim/objects/Instruments/metronome3.png",461,36,454,0.9,"stim/22.jpeg",2,2,3,2,"Instruments",1,1,"left","left",0.575999975,1,1,1,0,NA,NA,NA,NA,NA,NA,NA,NA,NA,NA,NA,NA,NA,NA,NA,NA,NA,NA,NA,NA,NA,NA,NA,NA
"331","stim/objects/HouseObjects/match3.png",462,36,455,0.9,"stim/14.jpeg",1,4,3,2,"HouseObjects",2,3,"right","right",0.549999952,1,1,1,0,NA,NA,NA,NA,NA,NA,NA,NA,NA,NA,NA,NA,NA,NA,NA,NA,NA,NA,NA,NA,NA,NA,NA,NA
"332","stim/objects/HouseObjects/match3.png",463,36,456,0.9,"stim/12.jpeg",1,2,3,2,"HouseObjects",2,2,"right","right",0.595999956,1,1,1,0,NA,NA,NA,NA,NA,NA,NA,NA,NA,NA,NA,NA,NA,NA,NA,NA,NA,NA,NA,NA,NA,NA,NA,NA
"336","stim/objects/HouseObjects/match3.png",464,36,457,0.9,"stim/11.jpeg",1,1,3,2,"HouseObjects",2,1,"right","right",0.470999956,1,1,1,0,NA,NA,NA,NA,NA,NA,NA,NA,NA,NA,NA,NA,NA,NA,NA,NA,NA,NA,NA,NA,NA,NA,NA,NA
"249","stim/objects/HouseObjects/barbecuelighter4.png",465,36,458,0.7,"stim/51.jpeg",5,1,2,1,"HouseObjects",2,4,"right","right",0.544000149,1,1,1,0,74,36,1,0.7,2,"stim/51.jpeg",5,1,"stim/51.jpeg",4,"right",1.868000031,2,2,0.951999903,2,0.857000113,74,0,0,NA,0,NA,1
"395","stim/objects/HouseObjects/teapot4.png",466,36,459,0.1,"stim/23.jpeg",2,3,3,1,"HouseObjects",2,2,"right","left",0.503999949,0,0,1,0,180,36,1,0.1,2,"stim/23.jpeg",2,3,"stim/23.jpeg",2,"right",0.778000116,1,3,0.523000002,2,0.567000151,180,0,1,NA,1,NA,1
