"","participant","trial_index","trial_cond","scn_file","scn_cat","scn_inst","scn_condition","fillers","obj_cat","obj_cat_num","obj_file","quadrant","corr_ans","key_resp_trial.keys","key_resp_trial.rt","trial_acc","trial_acc_manual","group"
"1",36,1,0.7,"stim/62.jpeg",6,2,2,NA,"Instruments",1,"stim/objects/Instruments/electricdrumset2.png",4,"left","",NA,0,0,1
"2",36,2,0.9,"stim/12.jpeg",1,2,3,NA,"HouseObjects",2,"stim/objects/HouseObjects/flyswatter2.png",2,"right","",NA,0,0,1
"3",36,3,0.9,"stim/22.jpeg",2,2,3,NA,"Instruments",1,"stim/objects/Instruments/harmonica2.png",3,"left","left",0.597000122,1,1,1
"4",36,4,0.5,"stim/44.jpeg",4,4,1,NA,"HouseObjects",2,"stim/objects/HouseObjects/glass.png",4,"right","right",0.690999985,1,1,1
"5",36,5,0.5,"stim/33.jpeg",3,3,1,NA,"HouseObjects",2,"stim/objects/HouseObjects/dishsoap.png",4,"right","left",0.693999767,0,0,1
"6",36,6,0.5,"stim/41.jpeg",4,1,1,NA,"Instruments",1,"stim/objects/Instruments/flutetrans.png",4,"left","right",0.671999931,0,0,1
"7",36,7,0.5,"stim/34.jpeg",3,4,1,NA,"Instruments",1,"stim/objects/Instruments/flute.png",2,"left","left",0.772000074,1,1,1
"8",36,8,0.5,"stim/31.jpeg",3,1,1,NA,"HouseObjects",2,"stim/objects/HouseObjects/coffee.png",2,"right","",NA,0,0,1
"9",36,9,0.7,"stim/52.jpeg",5,2,2,NA,"HouseObjects",2,"stim/objects/HouseObjects/hairdryer.png",3,"right","",NA,0,0,1
"10",36,10,0.7,"stim/64.jpeg",6,4,2,NA,"Instruments",1,"stim/objects/Instruments/flute2.png",1,"left","left",0.693000078,1,1,1
"11",36,11,0.9,"stim/11.jpeg",1,1,3,NA,"HouseObjects",2,"stim/objects/HouseObjects/dustpan2.png",1,"right","right",0.655999899,1,1,1
"12",36,12,0.9,"stim/22.jpeg",2,2,3,NA,"Instruments",1,"stim/objects/Instruments/harmonica2.png",2,"left","left",0.625999928,1,1,1
"13",36,13,0.5,"stim/43.jpeg",4,3,1,NA,"HouseObjects",2,"stim/objects/HouseObjects/garbagebin.png",3,"right","left",0.682999849,0,0,1
"14",36,14,0.5,"stim/43.jpeg",4,3,1,NA,"HouseObjects",2,"stim/objects/HouseObjects/garbagebin.png",3,"right","right",0.591999769,1,1,1
"15",36,15,0.1,"stim/23.jpeg",2,3,3,NA,"HouseObjects",2,"stim/objects/HouseObjects/handbrush2.png",4,"right","left",0.627999783,0,0,1
"16",36,16,0.3,"stim/52.jpeg",5,2,2,NA,"Instruments",1,"stim/objects/Instruments/harmonica.png",1,"left","right",0.750999928,0,0,1
"17",36,17,0.5,"stim/34.jpeg",3,4,1,NA,"Instruments",1,"stim/objects/Instruments/flute.png",3,"left","left",0.591999769,1,1,1
"18",36,18,0.9,"stim/22.jpeg",2,2,3,NA,"Instruments",1,"stim/objects/Instruments/harmonica2.png",4,"left","left",0.604999781,1,1,1
"19",36,19,0.5,"stim/42.jpeg",4,2,1,NA,"Instruments",1,"stim/objects/Instruments/frenchhorn.png",4,"left","right",0.767999887,0,0,1
"20",36,20,0.5,"stim/41.jpeg",4,1,1,NA,"HouseObjects",2,"stim/objects/HouseObjects/dustpan.png",4,"right","right",0.847999811,1,1,1
"21",36,21,0.7,"stim/62.jpeg",6,2,2,NA,"Instruments",1,"stim/objects/Instruments/electricdrumset2.png",3,"left","left",0.720999956,1,1,1
"22",36,22,0.9,"stim/21.jpeg",2,1,3,NA,"Instruments",1,"stim/objects/Instruments/guitarcase2.png",2,"left","left",0.686999798,1,1,1
"23",36,23,0.5,"stim/42.jpeg",4,2,1,NA,"Instruments",1,"stim/objects/Instruments/frenchhorn.png",2,"left","right",0.640000105,0,0,1
"24",36,24,0.5,"stim/42.jpeg",4,2,1,NA,"HouseObjects",2,"stim/objects/HouseObjects/flyswatter.png",2,"right","right",0.819999933,1,1,1
"25",36,25,0.3,"stim/64.jpeg",6,4,2,NA,"HouseObjects",2,"stim/objects/HouseObjects/doormat2.png",2,"right","left",0.56099987,0,0,1
"26",36,26,0.1,"stim/24.jpeg",2,4,3,NA,"HouseObjects",2,"stim/objects/HouseObjects/handvacuum2.png",3,"right","left",0.564999819,0,0,1
"27",36,27,0.5,"stim/32.jpeg",3,2,1,NA,"HouseObjects",2,"stim/objects/HouseObjects/cushion.png",1,"right","left",0.717000008,0,0,1
"28",36,28,0.7,"stim/53.jpeg",5,3,2,NA,"HouseObjects",2,"stim/objects/HouseObjects/handbrush.png",3,"right","right",0.631999969,1,1,1
"29",36,29,0.3,"stim/53.jpeg",5,3,2,NA,"Instruments",1,"stim/objects/Instruments/harp.png",1,"left","right",0.775000095,0,0,1
"30",36,30,0.9,"stim/23.jpeg",2,3,3,NA,"Instruments",1,"stim/objects/Instruments/harp2.png",1,"left","left",0.555999994,1,1,1
"31",36,31,0.9,"stim/23.jpeg",2,3,3,NA,"Instruments",1,"stim/objects/Instruments/harp2.png",3,"left","left",0.608999968,1,1,1
"32",36,32,0.5,"stim/33.jpeg",3,3,1,NA,"HouseObjects",2,"stim/objects/HouseObjects/dishsoap.png",3,"right","right",0.804999828,1,1,1
"33",36,33,0.9,"stim/14.jpeg",1,4,3,NA,"HouseObjects",2,"stim/objects/HouseObjects/glass2.png",3,"right","right",0.828999758,1,1,1
"34",36,34,0.5,"stim/34.jpeg",3,4,1,NA,"Instruments",1,"stim/objects/Instruments/flute.png",3,"left","",NA,0,0,1
"35",36,35,0.5,"stim/44.jpeg",4,4,1,NA,"HouseObjects",2,"stim/objects/HouseObjects/glass.png",1,"right","right",0.895999908,1,1,1
"36",36,36,0.5,"stim/32.jpeg",3,2,1,NA,"HouseObjects",2,"stim/objects/HouseObjects/cushion.png",1,"right","right",0.815999985,1,1,1
"37",36,37,0.9,"stim/12.jpeg",1,2,3,NA,"HouseObjects",2,"stim/objects/HouseObjects/flyswatter2.png",2,"right","right",0.602999926,1,1,1
"38",36,38,0.3,"stim/54.jpeg",5,4,2,NA,"Instruments",1,"stim/objects/Instruments/hihat.png",1,"left","right",0.707000017,0,0,1
"39",36,39,0.5,"stim/44.jpeg",4,4,1,NA,"Instruments",1,"stim/objects/Instruments/grandpiano.png",2,"left","right",0.521999836,0,0,1
"40",36,40,0.5,"stim/34.jpeg",3,4,1,NA,"HouseObjects",2,"stim/objects/HouseObjects/doormat.png",1,"right","left",0.898000002,0,0,1
"41",36,41,0.3,"stim/54.jpeg",5,4,2,NA,"Instruments",1,"stim/objects/Instruments/hihat.png",2,"left","right",0.530999899,0,0,1
"42",36,42,0.9,"stim/24.jpeg",2,4,3,NA,"Instruments",1,"stim/objects/Instruments/hihat2.png",3,"left","left",0.61500001,1,1,1
"43",36,43,0.5,"stim/44.jpeg",4,4,1,NA,"HouseObjects",2,"stim/objects/HouseObjects/glass.png",3,"right","right",0.792000055,1,1,1
"44",36,44,0.7,"stim/54.jpeg",5,4,2,NA,"HouseObjects",2,"stim/objects/HouseObjects/handvacuum.png",1,"right","right",0.660000086,1,1,1
"45",36,45,0.9,"stim/13.jpeg",1,3,3,NA,"HouseObjects",2,"stim/objects/HouseObjects/garbagebin2.png",3,"right","right",0.578999996,1,1,1
"46",36,46,0.5,"stim/34.jpeg",3,4,1,NA,"HouseObjects",2,"stim/objects/HouseObjects/doormat.png",3,"right","right",0.791000128,1,1,1
"47",36,47,0.9,"stim/21.jpeg",2,1,3,NA,"Instruments",1,"stim/objects/Instruments/guitarcase2.png",1,"left","left",0.743999958,1,1,1
"48",36,48,0.7,"stim/62.jpeg",6,2,2,NA,"Instruments",1,"stim/objects/Instruments/electricdrumset2.png",4,"left","left",0.697999954,1,1,1
"49",36,49,0.7,"stim/63.jpeg",6,3,2,NA,"Instruments",1,"stim/objects/Instruments/electricguitar2.png",3,"left","left",0.677999973,1,1,1
"50",36,50,0.5,"stim/31.jpeg",3,1,1,NA,"Instruments",1,"stim/objects/Instruments/drums.png",2,"left","left",0.652999878,1,1,1
"51",36,51,0.3,"stim/61.jpeg",6,1,2,NA,"HouseObjects",2,"stim/objects/HouseObjects/coffee2.png",3,"right","left",0.747999907,0,0,1
"52",36,52,0.7,"stim/53.jpeg",5,3,2,NA,"HouseObjects",2,"stim/objects/HouseObjects/handbrush.png",1,"right","right",0.701999903,1,1,1
"53",36,53,0.5,"stim/43.jpeg",4,3,1,NA,"Instruments",1,"stim/objects/Instruments/gong.png",4,"left","",NA,0,0,1
"54",36,54,0.9,"stim/21.jpeg",2,1,3,NA,"Instruments",1,"stim/objects/Instruments/guitarcase2.png",2,"left","left",0.564999819,1,1,1
"55",36,55,0.9,"stim/22.jpeg",2,2,3,NA,"Instruments",1,"stim/objects/Instruments/harmonica2.png",4,"left","left",0.608999968,1,1,1
"56",36,56,0.7,"stim/64.jpeg",6,4,2,NA,"Instruments",1,"stim/objects/Instruments/flute2.png",3,"left","right",0.878999949,0,0,1
"57",36,57,0.9,"stim/24.jpeg",2,4,3,NA,"Instruments",1,"stim/objects/Instruments/hihat2.png",4,"left","left",0.616999865,1,1,1
"58",36,58,0.3,"stim/54.jpeg",5,4,2,NA,"Instruments",1,"stim/objects/Instruments/hihat.png",2,"left","right",0.679999828,0,0,1
"59",36,59,0.7,"stim/52.jpeg",5,2,2,NA,"HouseObjects",2,"stim/objects/HouseObjects/hairdryer.png",3,"right","right",0.759000063,1,1,1
"60",36,60,0.9,"stim/24.jpeg",2,4,3,NA,"Instruments",1,"stim/objects/Instruments/hihat2.png",2,"left","left",0.662999868,1,1,1
"61",36,61,0.7,"stim/51.jpeg",5,1,2,NA,"HouseObjects",2,"stim/objects/HouseObjects/glassmop.png",3,"right","right",0.849999905,1,1,1
"62",36,62,0.5,"stim/34.jpeg",3,4,1,NA,"Instruments",1,"stim/objects/Instruments/flute.png",2,"left","left",0.833999872,1,1,1
"63",36,63,0.7,"stim/54.jpeg",5,4,2,NA,"HouseObjects",2,"stim/objects/HouseObjects/handvacuum.png",2,"right","right",0.729999781,1,1,1
"64",36,64,0.7,"stim/52.jpeg",5,2,2,NA,"HouseObjects",2,"stim/objects/HouseObjects/hairdryer.png",2,"right","right",0.772999763,1,1,1
"65",36,65,0.9,"stim/24.jpeg",2,4,3,NA,"Instruments",1,"stim/objects/Instruments/hihat2.png",4,"left","left",0.871999979,1,1,1
"66",36,66,0.1,"stim/21.jpeg",2,1,3,NA,"HouseObjects",2,"stim/objects/HouseObjects/glassmop2.png",3,"right","left",0.774999857,0,0,1
"67",36,67,0.9,"stim/21.jpeg",2,1,3,NA,"Instruments",1,"stim/objects/Instruments/guitarcase2.png",1,"left","left",0.553999901,1,1,1
"68",36,68,0.5,"stim/42.jpeg",4,2,1,NA,"HouseObjects",2,"stim/objects/HouseObjects/flyswatter.png",2,"right","right",0.635999918,1,1,1
"69",36,69,0.9,"stim/13.jpeg",1,3,3,NA,"HouseObjects",2,"stim/objects/HouseObjects/garbagebin2.png",1,"right","right",0.648999929,1,1,1
"70",36,70,0.7,"stim/62.jpeg",6,2,2,NA,"Instruments",1,"stim/objects/Instruments/electricdrumset2.png",1,"left","left",0.635999918,1,1,1
"71",36,71,0.9,"stim/21.jpeg",2,1,3,NA,"Instruments",1,"stim/objects/Instruments/guitarcase2.png",1,"left","left",0.555000067,1,1,1
"72",36,72,0.5,"stim/44.jpeg",4,4,1,NA,"Instruments",1,"stim/objects/Instruments/grandpiano.png",2,"left","right",0.862999916,0,0,1
"73",36,73,0.9,"stim/11.jpeg",1,1,3,NA,"HouseObjects",2,"stim/objects/HouseObjects/dustpan2.png",3,"right","right",0.638000011,1,1,1
"74",36,74,0.9,"stim/24.jpeg",2,4,3,NA,"Instruments",1,"stim/objects/Instruments/hihat2.png",1,"left","left",0.578000069,1,1,1
"75",36,75,0.5,"stim/33.jpeg",3,3,1,NA,"Instruments",1,"stim/objects/Instruments/electricguitar.png",1,"left","right",0.870999813,0,0,1
"76",36,76,0.9,"stim/22.jpeg",2,2,3,NA,"Instruments",1,"stim/objects/Instruments/harmonica2.png",3,"left","left",0.622999907,1,1,1
"77",36,77,0.5,"stim/42.jpeg",4,2,1,NA,"HouseObjects",2,"stim/objects/HouseObjects/flyswatter.png",3,"right","right",0.661999941,1,1,1
"78",36,78,0.5,"stim/34.jpeg",3,4,1,NA,"HouseObjects",2,"stim/objects/HouseObjects/doormat.png",1,"right","left",0.547999859,0,0,1
"79",36,79,0.3,"stim/51.jpeg",5,1,2,NA,"Instruments",1,"stim/objects/Instruments/guitarcase.png",3,"left","right",0.548999786,0,0,1
"80",36,80,0.5,"stim/43.jpeg",4,3,1,NA,"Instruments",1,"stim/objects/Instruments/gong.png",2,"left","",NA,0,0,1
"81",36,81,0.7,"stim/64.jpeg",6,4,2,NA,"Instruments",1,"stim/objects/Instruments/flute2.png",4,"left","left",0.605000019,1,1,1
"82",36,82,0.5,"stim/33.jpeg",3,3,1,NA,"HouseObjects",2,"stim/objects/HouseObjects/dishsoap.png",3,"right","right",0.796000004,1,1,1
"83",36,83,0.9,"stim/12.jpeg",1,2,3,NA,"HouseObjects",2,"stim/objects/HouseObjects/flyswatter2.png",3,"right","right",0.54399991,1,1,1
"84",36,84,0.7,"stim/54.jpeg",5,4,2,NA,"HouseObjects",2,"stim/objects/HouseObjects/handvacuum.png",1,"right","right",0.714999914,1,1,1
"85",36,85,0.9,"stim/22.jpeg",2,2,3,NA,"Instruments",1,"stim/objects/Instruments/harmonica2.png",4,"left","left",0.595999956,1,1,1
"86",36,86,0.9,"stim/13.jpeg",1,3,3,NA,"HouseObjects",2,"stim/objects/HouseObjects/garbagebin2.png",3,"right","right",0.530999899,1,1,1
"87",36,87,0.9,"stim/24.jpeg",2,4,3,NA,"Instruments",1,"stim/objects/Instruments/hihat2.png",1,"left","left",0.549999952,1,1,1
"88",36,88,0.5,"stim/44.jpeg",4,4,1,NA,"HouseObjects",2,"stim/objects/HouseObjects/glass.png",2,"right","right",0.536999941,1,1,1
"89",36,89,0.5,"stim/32.jpeg",3,2,1,NA,"HouseObjects",2,"stim/objects/HouseObjects/cushion.png",1,"right","left",0.631000042,0,0,1
"90",36,90,0.5,"stim/41.jpeg",4,1,1,NA,"Instruments",1,"stim/objects/Instruments/flutetrans.png",2,"left","right",0.703000069,0,0,1
"91",36,91,0.9,"stim/13.jpeg",1,3,3,NA,"HouseObjects",2,"stim/objects/HouseObjects/garbagebin2.png",2,"right","right",0.60800004,1,1,1
"92",36,92,0.7,"stim/64.jpeg",6,4,2,NA,"Instruments",1,"stim/objects/Instruments/flute2.png",4,"left","",NA,0,0,1
"93",36,93,0.7,"stim/64.jpeg",6,4,2,NA,"Instruments",1,"stim/objects/Instruments/flute2.png",2,"left","left",0.894999981,1,1,1
"94",36,94,0.7,"stim/61.jpeg",6,1,2,NA,"Instruments",1,"stim/objects/Instruments/drums2.png",2,"left","left",0.63499999,1,1,1
"95",36,95,0.3,"stim/62.jpeg",6,2,2,NA,"HouseObjects",2,"stim/objects/HouseObjects/cushion2.png",1,"right","left",0.662999868,0,0,1
"96",36,96,0.5,"stim/34.jpeg",3,4,1,NA,"HouseObjects",2,"stim/objects/HouseObjects/doormat.png",1,"right","right",0.839999914,1,1,1
"97",36,97,0.7,"stim/51.jpeg",5,1,2,NA,"HouseObjects",2,"stim/objects/HouseObjects/glassmop.png",4,"right","right",0.661999941,1,1,1
"98",36,98,0.9,"stim/24.jpeg",2,4,3,NA,"Instruments",1,"stim/objects/Instruments/hihat2.png",4,"left","left",0.603999853,1,1,1
"99",36,99,0.5,"stim/41.jpeg",4,1,1,NA,"HouseObjects",2,"stim/objects/HouseObjects/dustpan.png",4,"right","right",0.633999825,1,1,1
"100",36,100,0.9,"stim/13.jpeg",1,3,3,NA,"HouseObjects",2,"stim/objects/HouseObjects/garbagebin2.png",1,"right","right",0.598999977,1,1,1
"101",36,101,0.7,"stim/61.jpeg",6,1,2,NA,"Instruments",1,"stim/objects/Instruments/drums2.png",4,"left","left",0.746999979,1,1,1
"102",36,102,0.7,"stim/51.jpeg",5,1,2,NA,"HouseObjects",2,"stim/objects/HouseObjects/glassmop.png",4,"right","right",0.640999794,1,1,1
"103",36,103,0.9,"stim/23.jpeg",2,3,3,NA,"Instruments",1,"stim/objects/Instruments/harp2.png",4,"left","left",0.645999908,1,1,1
"104",36,104,0.7,"stim/52.jpeg",5,2,2,NA,"HouseObjects",2,"stim/objects/HouseObjects/hairdryer.png",2,"right","right",0.66899991,1,1,1
"105",36,105,0.5,"stim/31.jpeg",3,1,1,NA,"Instruments",1,"stim/objects/Instruments/drums.png",1,"left","right",0.846999884,0,0,1
"106",36,106,0.7,"stim/52.jpeg",5,2,2,NA,"HouseObjects",2,"stim/objects/HouseObjects/hairdryer.png",3,"right","",NA,0,0,1
"107",36,107,0.7,"stim/63.jpeg",6,3,2,NA,"Instruments",1,"stim/objects/Instruments/electricguitar2.png",3,"left","left",0.614999771,1,1,1
"108",36,108,0.5,"stim/41.jpeg",4,1,1,NA,"Instruments",1,"stim/objects/Instruments/flutetrans.png",1,"left","left",0.815999985,1,1,1
"109",36,109,0.3,"stim/52.jpeg",5,2,2,NA,"Instruments",1,"stim/objects/Instruments/harmonica.png",2,"left","right",0.510999918,0,0,1
"110",36,110,0.5,"stim/32.jpeg",3,2,1,NA,"HouseObjects",2,"stim/objects/HouseObjects/cushion.png",3,"right","left",0.76699996,0,0,1
"111",36,111,0.5,"stim/44.jpeg",4,4,1,NA,"Instruments",1,"stim/objects/Instruments/grandpiano.png",3,"left","left",0.920000076,1,1,1
"112",36,112,0.7,"stim/53.jpeg",5,3,2,NA,"HouseObjects",2,"stim/objects/HouseObjects/handbrush.png",3,"right","right",0.747999907,1,1,1
"113",36,113,0.9,"stim/14.jpeg",1,4,3,NA,"HouseObjects",2,"stim/objects/HouseObjects/glass2.png",3,"right","right",0.575999975,1,1,1
"114",36,114,0.3,"stim/62.jpeg",6,2,2,NA,"HouseObjects",2,"stim/objects/HouseObjects/cushion2.png",4,"right","right",0.687999964,1,1,1
"115",36,115,0.5,"stim/43.jpeg",4,3,1,NA,"Instruments",1,"stim/objects/Instruments/gong.png",4,"left","right",0.864999771,0,0,1
"116",36,116,0.7,"stim/62.jpeg",6,2,2,NA,"Instruments",1,"stim/objects/Instruments/electricdrumset2.png",3,"left","left",0.578000069,1,1,1
"117",36,117,0.5,"stim/33.jpeg",3,3,1,NA,"HouseObjects",2,"stim/objects/HouseObjects/dishsoap.png",2,"right","left",0.789000034,0,0,1
"118",36,118,0.9,"stim/11.jpeg",1,1,3,NA,"HouseObjects",2,"stim/objects/HouseObjects/dustpan2.png",4,"right","",NA,0,0,1
"119",36,119,0.7,"stim/63.jpeg",6,3,2,NA,"Instruments",1,"stim/objects/Instruments/electricguitar2.png",2,"left","left",0.605000019,1,1,1
"120",36,120,0.5,"stim/42.jpeg",4,2,1,NA,"Instruments",1,"stim/objects/Instruments/frenchhorn.png",3,"left","left",0.588999748,1,1,1
"121",36,121,0.9,"stim/21.jpeg",2,1,3,NA,"Instruments",1,"stim/objects/Instruments/guitarcase2.png",2,"left","left",0.682999849,1,1,1
"122",36,122,0.1,"stim/22.jpeg",2,2,3,NA,"HouseObjects",2,"stim/objects/HouseObjects/hairdryer2.png",2,"right","left",0.691999912,0,0,1
"123",36,123,0.9,"stim/11.jpeg",1,1,3,NA,"HouseObjects",2,"stim/objects/HouseObjects/dustpan2.png",4,"right","right",0.545000076,1,1,1
"124",36,124,0.5,"stim/32.jpeg",3,2,1,NA,"Instruments",1,"stim/objects/Instruments/electricdrumset.png",2,"left","left",0.624000072,1,1,1
"125",36,125,0.9,"stim/23.jpeg",2,3,3,NA,"Instruments",1,"stim/objects/Instruments/harp2.png",3,"left","left",0.555999994,1,1,1
"126",36,126,0.9,"stim/23.jpeg",2,3,3,NA,"Instruments",1,"stim/objects/Instruments/harp2.png",4,"left","left",0.505000114,1,1,1
"127",36,127,0.9,"stim/11.jpeg",1,1,3,NA,"HouseObjects",2,"stim/objects/HouseObjects/dustpan2.png",3,"right","right",0.547999859,1,1,1
"128",36,128,0.9,"stim/21.jpeg",2,1,3,NA,"Instruments",1,"stim/objects/Instruments/guitarcase2.png",4,"left","left",0.595000029,1,1,1
"129",36,129,0.5,"stim/42.jpeg",4,2,1,NA,"HouseObjects",2,"stim/objects/HouseObjects/flyswatter.png",2,"right","right",0.579999924,1,1,1
"130",36,130,0.9,"stim/14.jpeg",1,4,3,NA,"HouseObjects",2,"stim/objects/HouseObjects/glass2.png",3,"right","right",0.559999943,1,1,1
"131",36,131,0.9,"stim/24.jpeg",2,4,3,NA,"Instruments",1,"stim/objects/Instruments/hihat2.png",1,"left","left",0.548000097,1,1,1
"132",36,132,0.7,"stim/64.jpeg",6,4,2,NA,"Instruments",1,"stim/objects/Instruments/flute2.png",4,"left","left",0.588000059,1,1,1
"133",36,133,0.5,"stim/41.jpeg",4,1,1,NA,"Instruments",1,"stim/objects/Instruments/flutetrans.png",2,"left","right",0.708999872,0,0,1
"134",36,134,0.3,"stim/61.jpeg",6,1,2,NA,"HouseObjects",2,"stim/objects/HouseObjects/coffee2.png",2,"right","left",0.745999813,0,0,1
"135",36,135,0.9,"stim/23.jpeg",2,3,3,NA,"Instruments",1,"stim/objects/Instruments/harp2.png",1,"left","left",0.536999941,1,1,1
"136",36,136,0.9,"stim/14.jpeg",1,4,3,NA,"HouseObjects",2,"stim/objects/HouseObjects/glass2.png",2,"right","right",0.592000008,1,1,1
"137",36,137,0.7,"stim/51.jpeg",5,1,2,NA,"HouseObjects",2,"stim/objects/HouseObjects/glassmop.png",3,"right","right",0.667000055,1,1,1
"138",36,138,0.7,"stim/53.jpeg",5,3,2,NA,"HouseObjects",2,"stim/objects/HouseObjects/handbrush.png",3,"right","right",0.601999998,1,1,1
"139",36,139,0.5,"stim/43.jpeg",4,3,1,NA,"HouseObjects",2,"stim/objects/HouseObjects/garbagebin.png",1,"right","right",0.746999979,1,1,1
"140",36,140,0.7,"stim/51.jpeg",5,1,2,NA,"HouseObjects",2,"stim/objects/HouseObjects/glassmop.png",1,"right","right",0.636999846,1,1,1
"141",36,141,0.7,"stim/52.jpeg",5,2,2,NA,"HouseObjects",2,"stim/objects/HouseObjects/hairdryer.png",1,"right","right",0.555000067,1,1,1
"142",36,142,0.9,"stim/14.jpeg",1,4,3,NA,"HouseObjects",2,"stim/objects/HouseObjects/glass2.png",4,"right","right",0.549999952,1,1,1
"143",36,143,0.9,"stim/21.jpeg",2,1,3,NA,"Instruments",1,"stim/objects/Instruments/guitarcase2.png",1,"left","left",0.660999775,1,1,1
"144",36,144,0.9,"stim/11.jpeg",1,1,3,NA,"HouseObjects",2,"stim/objects/HouseObjects/dustpan2.png",1,"right","right",0.638999939,1,1,1
"145",36,145,0.5,"stim/41.jpeg",4,1,1,NA,"HouseObjects",2,"stim/objects/HouseObjects/dustpan.png",4,"right","left",0.820999861,0,0,1
"146",36,146,0.9,"stim/23.jpeg",2,3,3,NA,"Instruments",1,"stim/objects/Instruments/harp2.png",1,"left","left",0.674999952,1,1,1
"147",36,147,0.7,"stim/54.jpeg",5,4,2,NA,"HouseObjects",2,"stim/objects/HouseObjects/handvacuum.png",4,"right","right",0.569999933,1,1,1
"148",36,148,0.9,"stim/12.jpeg",1,2,3,NA,"HouseObjects",2,"stim/objects/HouseObjects/flyswatter2.png",2,"right","right",0.588999987,1,1,1
"149",36,149,0.5,"stim/31.jpeg",3,1,1,NA,"Instruments",1,"stim/objects/Instruments/drums.png",1,"left","left",0.697000027,1,1,1
"150",36,150,0.5,"stim/31.jpeg",3,1,1,NA,"Instruments",1,"stim/objects/Instruments/drums.png",2,"left","left",0.753999949,1,1,1
"151",36,151,0.9,"stim/23.jpeg",2,3,3,NA,"Instruments",1,"stim/objects/Instruments/harp2.png",4,"left","left",0.629999876,1,1,1
"152",36,152,0.9,"stim/13.jpeg",1,3,3,NA,"HouseObjects",2,"stim/objects/HouseObjects/garbagebin2.png",1,"right","right",0.542999983,1,1,1
"153",36,153,0.3,"stim/63.jpeg",6,3,2,NA,"HouseObjects",2,"stim/objects/HouseObjects/dishsoap2.png",2,"right","left",0.61199975,0,0,1
"154",36,154,0.5,"stim/42.jpeg",4,2,1,NA,"Instruments",1,"stim/objects/Instruments/frenchhorn.png",4,"left","left",0.871000051,1,1,1
"155",36,155,0.7,"stim/63.jpeg",6,3,2,NA,"Instruments",1,"stim/objects/Instruments/electricguitar2.png",2,"left","left",0.777999878,1,1,1
"156",36,156,0.5,"stim/31.jpeg",3,1,1,NA,"Instruments",1,"stim/objects/Instruments/drums.png",2,"left","left",0.74000001,1,1,1
"157",36,157,0.9,"stim/13.jpeg",1,3,3,NA,"HouseObjects",2,"stim/objects/HouseObjects/garbagebin2.png",4,"right","right",0.611000061,1,1,1
"158",36,158,0.7,"stim/54.jpeg",5,4,2,NA,"HouseObjects",2,"stim/objects/HouseObjects/handvacuum.png",4,"right","right",0.701999903,1,1,1
"159",36,159,0.3,"stim/63.jpeg",6,3,2,NA,"HouseObjects",2,"stim/objects/HouseObjects/dishsoap2.png",4,"right","left",0.82799983,0,0,1
"160",36,160,0.9,"stim/11.jpeg",1,1,3,NA,"HouseObjects",2,"stim/objects/HouseObjects/dustpan2.png",2,"right","right",0.636999846,1,1,1
"161",36,161,0.9,"stim/12.jpeg",1,2,3,NA,"HouseObjects",2,"stim/objects/HouseObjects/flyswatter2.png",1,"right","right",0.760999918,1,1,1
"162",36,162,0.3,"stim/51.jpeg",5,1,2,NA,"Instruments",1,"stim/objects/Instruments/guitarcase.png",1,"left","right",0.617000103,0,0,1
"163",36,163,0.5,"stim/34.jpeg",3,4,1,NA,"Instruments",1,"stim/objects/Instruments/flute.png",1,"left","left",0.833999872,1,1,1
"164",36,164,0.3,"stim/64.jpeg",6,4,2,NA,"HouseObjects",2,"stim/objects/HouseObjects/doormat2.png",1,"right","",NA,0,0,1
"165",36,165,0.3,"stim/52.jpeg",5,2,2,NA,"Instruments",1,"stim/objects/Instruments/harmonica.png",1,"left","right",0.769999981,0,0,1
"166",36,166,0.9,"stim/14.jpeg",1,4,3,NA,"HouseObjects",2,"stim/objects/HouseObjects/glass2.png",1,"right","right",0.597000122,1,1,1
"167",36,167,0.3,"stim/64.jpeg",6,4,2,NA,"HouseObjects",2,"stim/objects/HouseObjects/doormat2.png",4,"right","left",0.710999966,0,0,1
"168",36,168,0.7,"stim/62.jpeg",6,2,2,NA,"Instruments",1,"stim/objects/Instruments/electricdrumset2.png",2,"left","left",0.712999821,1,1,1
"169",36,169,0.9,"stim/12.jpeg",1,2,3,NA,"HouseObjects",2,"stim/objects/HouseObjects/flyswatter2.png",4,"right","right",0.605999947,1,1,1
"170",36,170,0.5,"stim/31.jpeg",3,1,1,NA,"HouseObjects",2,"stim/objects/HouseObjects/coffee.png",3,"right","left",0.607000113,0,0,1
"171",36,171,0.7,"stim/51.jpeg",5,1,2,NA,"HouseObjects",2,"stim/objects/HouseObjects/glassmop.png",4,"right","right",0.485000134,1,1,1
"172",36,172,0.7,"stim/61.jpeg",6,1,2,NA,"Instruments",1,"stim/objects/Instruments/drums2.png",4,"left","left",0.664999962,1,1,1
"173",36,173,0.5,"stim/43.jpeg",4,3,1,NA,"Instruments",1,"stim/objects/Instruments/gong.png",1,"left","right",0.555999994,0,0,1
"174",36,174,0.5,"stim/43.jpeg",4,3,1,NA,"HouseObjects",2,"stim/objects/HouseObjects/garbagebin.png",4,"right","left",0.65199995,0,0,1
"175",36,175,0.9,"stim/14.jpeg",1,4,3,NA,"HouseObjects",2,"stim/objects/HouseObjects/glass2.png",1,"right","right",0.65899992,1,1,1
"176",36,176,0.5,"stim/41.jpeg",4,1,1,NA,"HouseObjects",2,"stim/objects/HouseObjects/dustpan.png",1,"right","left",0.851999998,0,0,1
"177",36,177,0.5,"stim/33.jpeg",3,3,1,NA,"Instruments",1,"stim/objects/Instruments/electricguitar.png",3,"left","left",0.610999823,1,1,1
"178",36,178,0.7,"stim/53.jpeg",5,3,2,NA,"HouseObjects",2,"stim/objects/HouseObjects/handbrush.png",3,"right","right",0.677000046,1,1,1
"179",36,179,0.5,"stim/32.jpeg",3,2,1,NA,"Instruments",1,"stim/objects/Instruments/electricdrumset.png",4,"left","left",0.826999903,1,1,1
"180",36,180,0.5,"stim/33.jpeg",3,3,1,NA,"Instruments",1,"stim/objects/Instruments/electricguitar.png",4,"left","left",0.618999958,1,1,1
"181",36,181,0.7,"stim/53.jpeg",5,3,2,NA,"HouseObjects",2,"stim/objects/HouseObjects/handbrush.png",2,"right","right",0.687000036,1,1,1
"182",36,182,0.3,"stim/62.jpeg",6,2,2,NA,"HouseObjects",2,"stim/objects/HouseObjects/cushion2.png",2,"right","left",0.671999931,0,0,1
"183",36,183,0.9,"stim/23.jpeg",2,3,3,NA,"Instruments",1,"stim/objects/Instruments/harp2.png",2,"left","left",0.552000046,1,1,1
"184",36,184,0.5,"stim/32.jpeg",3,2,1,NA,"Instruments",1,"stim/objects/Instruments/electricdrumset.png",4,"left","left",0.717999935,1,1,1
"185",36,185,0.7,"stim/52.jpeg",5,2,2,NA,"HouseObjects",2,"stim/objects/HouseObjects/hairdryer.png",4,"right","right",0.769999981,1,1,1
"186",36,186,0.9,"stim/22.jpeg",2,2,3,NA,"Instruments",1,"stim/objects/Instruments/harmonica2.png",2,"left","left",0.586999893,1,1,1
"187",36,187,0.5,"stim/44.jpeg",4,4,1,NA,"HouseObjects",2,"stim/objects/HouseObjects/glass.png",3,"right","right",0.662999868,1,1,1
"188",36,188,0.5,"stim/32.jpeg",3,2,1,NA,"Instruments",1,"stim/objects/Instruments/electricdrumset.png",3,"left","left",0.659999847,1,1,1
"189",36,189,0.5,"stim/33.jpeg",3,3,1,NA,"HouseObjects",2,"stim/objects/HouseObjects/dishsoap.png",3,"right","left",0.666999817,0,0,1
"190",36,190,0.3,"stim/53.jpeg",5,3,2,NA,"Instruments",1,"stim/objects/Instruments/harp.png",1,"left","right",0.737999916,0,0,1
"191",36,191,0.5,"stim/43.jpeg",4,3,1,NA,"HouseObjects",2,"stim/objects/HouseObjects/garbagebin.png",1,"right","",NA,0,0,1
"192",36,192,0.5,"stim/31.jpeg",3,1,1,NA,"HouseObjects",2,"stim/objects/HouseObjects/coffee.png",4,"right","",NA,0,0,1
"193",36,193,0.7,"stim/63.jpeg",6,3,2,NA,"Instruments",1,"stim/objects/Instruments/electricguitar2.png",2,"left","left",0.618999958,1,1,1
"194",36,194,0.9,"stim/11.jpeg",1,1,3,NA,"HouseObjects",2,"stim/objects/HouseObjects/dustpan2.png",4,"right","right",0.617000103,1,1,1
"195",36,195,0.7,"stim/54.jpeg",5,4,2,NA,"HouseObjects",2,"stim/objects/HouseObjects/handvacuum.png",4,"right","",NA,0,0,1
"196",36,196,0.5,"stim/33.jpeg",3,3,1,NA,"Instruments",1,"stim/objects/Instruments/electricguitar.png",4,"left","left",0.619999886,1,1,1
"197",36,197,0.7,"stim/54.jpeg",5,4,2,NA,"HouseObjects",2,"stim/objects/HouseObjects/handvacuum.png",3,"right","right",0.551999807,1,1,1
"198",36,198,0.7,"stim/63.jpeg",6,3,2,NA,"Instruments",1,"stim/objects/Instruments/electricguitar2.png",4,"left","left",0.59800005,1,1,1
"199",36,199,0.7,"stim/51.jpeg",5,1,2,NA,"HouseObjects",2,"stim/objects/HouseObjects/glassmop.png",2,"right","right",0.568000078,1,1,1
"200",36,200,0.9,"stim/22.jpeg",2,2,3,NA,"Instruments",1,"stim/objects/Instruments/harmonica2.png",3,"left","left",0.562000036,1,1,1
"201",36,201,0.7,"stim/61.jpeg",6,1,2,NA,"Instruments",1,"stim/objects/Instruments/drums2.png",3,"left","left",0.59100008,1,1,1
"202",36,202,0.5,"stim/41.jpeg",4,1,1,NA,"HouseObjects",2,"stim/objects/HouseObjects/dustpan.png",1,"right","right",0.552000046,1,1,1
"203",36,203,0.3,"stim/61.jpeg",6,1,2,NA,"HouseObjects",2,"stim/objects/HouseObjects/coffee2.png",3,"right","left",0.612999916,0,0,1
"204",36,204,0.7,"stim/53.jpeg",5,3,2,NA,"HouseObjects",2,"stim/objects/HouseObjects/handbrush.png",2,"right","right",0.559000015,1,1,1
"205",36,205,0.5,"stim/44.jpeg",4,4,1,NA,"Instruments",1,"stim/objects/Instruments/grandpiano.png",4,"left","right",0.763999939,0,0,1
"206",36,206,0.7,"stim/61.jpeg",6,1,2,NA,"Instruments",1,"stim/objects/Instruments/drums2.png",1,"left","left",0.621000051,1,1,1
"207",36,207,0.1,"stim/11.jpeg",1,1,3,NA,"Instruments",1,"stim/objects/Instruments/flutetrans2.png",3,"left","right",0.636999846,0,0,1
"208",36,208,0.7,"stim/61.jpeg",6,1,2,NA,"Instruments",1,"stim/objects/Instruments/drums2.png",1,"left","left",0.869999886,1,1,1
"209",36,209,0.5,"stim/31.jpeg",3,1,1,NA,"HouseObjects",2,"stim/objects/HouseObjects/coffee.png",1,"right","left",0.664999962,0,0,1
"210",36,210,0.9,"stim/14.jpeg",1,4,3,NA,"HouseObjects",2,"stim/objects/HouseObjects/glass2.png",4,"right","right",0.538000107,1,1,1
"211",36,211,0.9,"stim/24.jpeg",2,4,3,NA,"Instruments",1,"stim/objects/Instruments/hihat2.png",3,"left","left",0.605000019,1,1,1
"212",36,212,0.3,"stim/51.jpeg",5,1,2,NA,"Instruments",1,"stim/objects/Instruments/guitarcase.png",1,"left","right",0.601000071,0,0,1
"213",36,213,0.3,"stim/53.jpeg",5,3,2,NA,"Instruments",1,"stim/objects/Instruments/harp.png",4,"left","right",0.710999966,0,0,1
"214",36,214,0.7,"stim/64.jpeg",6,4,2,NA,"Instruments",1,"stim/objects/Instruments/flute2.png",2,"left","left",0.676999807,1,1,1
"215",36,215,0.9,"stim/21.jpeg",2,1,3,NA,"Instruments",1,"stim/objects/Instruments/guitarcase2.png",2,"left","left",0.578999758,1,1,1
"216",36,216,0.7,"stim/63.jpeg",6,3,2,NA,"Instruments",1,"stim/objects/Instruments/electricguitar2.png",1,"left","left",0.549999952,1,1,1
"217",36,217,0.9,"stim/14.jpeg",1,4,3,NA,"HouseObjects",2,"stim/objects/HouseObjects/glass2.png",2,"right","right",0.586999893,1,1,1
"218",36,218,0.9,"stim/11.jpeg",1,1,3,NA,"HouseObjects",2,"stim/objects/HouseObjects/dustpan2.png",2,"right","right",0.513999939,1,1,1
"219",36,219,0.9,"stim/12.jpeg",1,2,3,NA,"HouseObjects",2,"stim/objects/HouseObjects/flyswatter2.png",4,"right","right",0.559000015,1,1,1
"220",36,220,0.7,"stim/61.jpeg",6,1,2,NA,"Instruments",1,"stim/objects/Instruments/drums2.png",1,"left","left",0.495000124,1,1,1
"221",36,221,0.5,"stim/33.jpeg",3,3,1,NA,"Instruments",1,"stim/objects/Instruments/electricguitar.png",1,"left","left",0.586999893,1,1,1
"222",36,222,0.9,"stim/13.jpeg",1,3,3,NA,"HouseObjects",2,"stim/objects/HouseObjects/garbagebin2.png",2,"right","right",0.47300005,1,1,1
"223",36,223,0.5,"stim/31.jpeg",3,1,1,NA,"HouseObjects",2,"stim/objects/HouseObjects/coffee.png",1,"right","left",0.546000004,0,0,1
"224",36,224,0.5,"stim/42.jpeg",4,2,1,NA,"Instruments",1,"stim/objects/Instruments/frenchhorn.png",3,"left","left",0.703999996,1,1,1
"225",36,225,0.9,"stim/22.jpeg",2,2,3,NA,"Instruments",1,"stim/objects/Instruments/harmonica2.png",1,"left","right",0.467999935,0,0,1
"226",36,226,0.3,"stim/63.jpeg",6,3,2,NA,"HouseObjects",2,"stim/objects/HouseObjects/dishsoap2.png",4,"right","left",0.66899991,0,0,1
"227",36,227,0.1,"stim/14.jpeg",1,4,3,NA,"Instruments",1,"stim/objects/Instruments/grandpiano2.png",2,"left","right",0.553999901,0,0,1
"228",36,228,0.9,"stim/12.jpeg",1,2,3,NA,"HouseObjects",2,"stim/objects/HouseObjects/flyswatter2.png",1,"right","right",0.626999855,1,1,1
"229",36,229,0.5,"stim/44.jpeg",4,4,1,NA,"Instruments",1,"stim/objects/Instruments/grandpiano.png",3,"left","right",0.833999872,0,0,1
"230",36,230,0.1,"stim/13.jpeg",1,3,3,NA,"Instruments",1,"stim/objects/Instruments/gong2.png",2,"left","right",0.595999956,0,0,1
"231",36,231,0.5,"stim/43.jpeg",4,3,1,NA,"Instruments",1,"stim/objects/Instruments/gong.png",2,"left","right",0.556999922,0,0,1
"232",36,232,0.9,"stim/13.jpeg",1,3,3,NA,"HouseObjects",2,"stim/objects/HouseObjects/garbagebin2.png",3,"right","right",0.585999966,1,1,1
"233",36,233,0.5,"stim/41.jpeg",4,1,1,NA,"Instruments",1,"stim/objects/Instruments/flutetrans.png",2,"left","left",0.568000078,1,1,1
"234",36,234,0.9,"stim/12.jpeg",1,2,3,NA,"HouseObjects",2,"stim/objects/HouseObjects/flyswatter2.png",4,"right","right",0.562000036,1,1,1
"235",36,235,0.5,"stim/32.jpeg",3,2,1,NA,"Instruments",1,"stim/objects/Instruments/electricdrumset.png",4,"left","right",0.607999802,0,0,1
"236",36,236,0.1,"stim/12.jpeg",1,2,3,NA,"Instruments",1,"stim/objects/Instruments/frenchhorn2.png",3,"left","right",0.497999907,0,0,1
"237",36,237,0.7,"stim/62.jpeg",6,2,2,NA,"Instruments",1,"stim/objects/Instruments/electricdrumset2.png",3,"left","left",0.588999987,1,1,1
"238",36,238,0.5,"stim/42.jpeg",4,2,1,NA,"HouseObjects",2,"stim/objects/HouseObjects/flyswatter.png",4,"right","right",0.442000151,1,1,1
"239",36,239,0.5,"stim/34.jpeg",3,4,1,NA,"HouseObjects",2,"stim/objects/HouseObjects/doormat.png",3,"right","left",0.485999823,0,0,1
"240",36,240,0.5,"stim/32.jpeg",3,2,1,NA,"HouseObjects",2,"stim/objects/HouseObjects/cushion.png",4,"right","right",0.556999922,1,1,1
