"","participant","OvsN","PE_level","object_cat","obj_file","scn_file","corr_scn_cat","corr_scn_inst","scn_file.1","corr_loc","key_resp_id.keys","key_resp_id.rt","key_resp_conf.keys","key_resp_assoc.keys","key_resp_assoc.rt","key_resp_loc.keys","key_resp_loc.rt","trialN","id_acc","assoc.acc","cond_assoc","loc.acc","cond_loc","group"
"1",69,1,0.5,2,"stim/objects/HouseObjects/key.png","stim/42.jpeg",4,2,"stim/42.jpeg",4,"left",3.579000235,3,3,7.751000166,2,8.895000219,1,1,0,0,0,0,0
"2",69,1,0.1,1,"stim/objects/HouseObjects/glassmop2.png","stim/12.jpeg",1,2,"stim/12.jpeg",3,"right",2.872000217,3,1,3.965000153,1,4.649000168,2,0,0,NA,0,NA,0
"3",69,2,0,2,"stim/objects/Instruments/bassguitar4.png","",0,0,"",0,"right",2.257000208,NA,NA,NA,NA,NA,3,1,NA,NA,NA,NA,0
"4",69,2,0,1,"stim/objects/HouseObjects/glassmop3.png","",0,0,"",0,"left",2.595000267,NA,NA,NA,NA,NA,4,0,NA,NA,NA,NA,0
"5",69,2,0,1,"stim/objects/HouseObjects/pitcher3.png","",0,0,"",0,"right",4.793000221,NA,NA,NA,NA,NA,5,1,NA,NA,NA,NA,0
"6",69,2,0,1,"stim/objects/HouseObjects/glass3.png","",0,0,"",0,"left",1.328999996,NA,NA,NA,NA,NA,6,0,NA,NA,NA,NA,0
"7",69,2,0,2,"stim/objects/Instruments/accordion4.png","",0,0,"",0,"right",0.78000021,NA,NA,NA,NA,NA,7,1,NA,NA,NA,NA,0
"8",69,1,0.1,1,"stim/objects/HouseObjects/flyswatter2.png","stim/13.jpeg",1,3,"stim/13.jpeg",3,"right",1.59400034,4,2,8.104000092,2,1.720000267,8,0,0,NA,0,NA,0
"9",69,1,0.3,1,"stim/objects/HouseObjects/remote.png","stim/54.jpeg",5,4,"stim/54.jpeg",3,"right",2.606000185,3,2,8.289000034,4,5.982000113,9,0,0,NA,0,NA,0
"10",69,2,0,1,"stim/objects/HouseObjects/knife3.png","",0,0,"",0,"right",2.758000374,NA,NA,NA,NA,NA,10,1,NA,NA,NA,NA,0
"11",69,1,0.7,2,"stim/objects/Instruments/bassdrum2.png","stim/53.jpeg",5,3,"stim/53.jpeg",2,"left",3.26300025,2,4,8.333000183,1,3.748000145,11,1,0,0,0,0,0
"12",69,1,0.9,1,"stim/objects/HouseObjects/knife2.png","stim/23.jpeg",2,3,"stim/23.jpeg",3,"right",1.537000179,3,4,6.5400002,1,2.197000265,12,0,0,NA,0,NA,0
"13",69,1,0.1,2,"stim/objects/Instruments/metronome2.png","stim/22.jpeg",2,2,"stim/22.jpeg",3,"left",1.70600009,3,3,17.98000026,2,3.110000134,13,1,0,0,0,0,0
"14",69,1,0.1,1,"stim/objects/HouseObjects/glass2.png","stim/11.jpeg",1,1,"stim/11.jpeg",4,"right",5.771000147,2,3,4.59700036,2,3.965000153,14,0,0,NA,0,NA,0
"15",69,2,0,1,"stim/objects/HouseObjects/blender3.png","",0,0,"",0,"right",2.660000324,NA,NA,NA,NA,NA,15,1,NA,NA,NA,NA,0
"16",69,1,0.5,1,"stim/objects/Instruments/hihat.png","stim/31.jpeg",3,1,"stim/31.jpeg",4,"left",3.098000288,2,3,22.46500015,4,4.28000021,16,1,0,0,1,1,0
"17",69,2,0,2,"stim/objects/Instruments/flute3.png","",0,0,"",0,"right",2.141000032,NA,NA,NA,NA,NA,17,1,NA,NA,NA,NA,0
"18",69,2,0,2,"stim/objects/Instruments/drums4.png","",0,0,"",0,"right",0.987000227,NA,NA,NA,NA,NA,18,1,NA,NA,NA,NA,0
"19",69,2,0,2,"stim/objects/Instruments/harp3.png","",0,0,"",0,"left",1.534000158,NA,NA,NA,NA,NA,19,0,NA,NA,NA,NA,0
"20",69,1,0.7,1,"stim/objects/HouseObjects/dishsoap2.png","stim/61.jpeg",6,1,"stim/61.jpeg",1,"right",2.279999971,4,1,7.889000177,1,1.526000261,20,0,1,NA,1,NA,0
"21",69,2,0,1,"stim/objects/HouseObjects/bottle3.png","",0,0,"",0,"right",1.576000214,NA,NA,NA,NA,NA,21,1,NA,NA,NA,NA,0
"22",69,2,0,1,"stim/objects/HouseObjects/ashtray3.png","",0,0,"",0,"left",1.716000319,NA,NA,NA,NA,NA,22,0,NA,NA,NA,NA,0
"23",69,1,0.9,2,"stim/objects/Instruments/harp2.png","stim/12.jpeg",1,2,"stim/12.jpeg",2,"left",1.480000019,3,4,6.027000189,3,5.152000189,23,1,0,0,0,0,0
"24",69,2,0,1,"stim/objects/HouseObjects/bucket4.png","",0,0,"",0,"right",1.654000044,NA,NA,NA,NA,NA,24,1,NA,NA,NA,NA,0
"25",69,1,0.3,2,"stim/objects/Instruments/cymbal2.png","stim/63.jpeg",6,3,"stim/63.jpeg",3,"right",1.726000309,3,2,12.64100027,2,2.006999969,25,0,0,NA,0,NA,0
"26",69,2,0,1,"stim/objects/HouseObjects/flyswatter3.png","",0,0,"",0,"right",6.604000092,NA,NA,NA,NA,NA,26,1,NA,NA,NA,NA,0
"27",69,1,0.1,1,"stim/objects/HouseObjects/handbrush2.png","stim/14.jpeg",1,4,"stim/14.jpeg",2,"right",1.551000118,4,3,3.517000198,2,1.022000074,27,0,0,NA,1,NA,0
"28",69,2,0,2,"stim/objects/Instruments/electricdrumset4.png","",0,0,"",0,"left",4.02300024,NA,NA,NA,NA,NA,28,0,NA,NA,NA,NA,0
"29",69,1,0.7,1,"stim/objects/HouseObjects/bottle2.png","stim/61.jpeg",6,1,"stim/61.jpeg",4,"right",1.11400032,3,4,3.958000183,2,0.720000267,29,0,0,NA,0,NA,0
"30",69,2,0,2,"stim/objects/Instruments/record3.png","",0,0,"",0,"left",2.559000254,NA,NA,NA,NA,NA,30,0,NA,NA,NA,NA,0
"31",69,1,0.7,1,"stim/objects/HouseObjects/cushion2.png","stim/64.jpeg",6,4,"stim/64.jpeg",3,"right",0.933000326,3,1,1.593000174,1,0.486000061,31,0,0,NA,0,NA,0
"32",69,1,0.5,1,"stim/objects/Instruments/harmonica.png","stim/33.jpeg",3,3,"stim/33.jpeg",3,"left",3.389000177,3,3,3.34800005,2,1.426000118,32,1,1,1,0,0,0
"33",69,2,0,2,"stim/objects/Instruments/electricguitar3.png","",0,0,"",0,"right",1.104000092,NA,NA,NA,NA,NA,33,1,NA,NA,NA,NA,0
"34",69,2,0,1,"stim/objects/HouseObjects/cushion4.png","",0,0,"",0,"right",1.056000233,NA,NA,NA,NA,NA,34,1,NA,NA,NA,NA,0
"35",69,1,0.1,2,"stim/objects/Instruments/panflute2.png","stim/22.jpeg",2,2,"stim/22.jpeg",1,"right",2.796000004,3,2,20.50900006,4,1.56400013,35,0,1,NA,0,NA,0
"36",69,2,0,1,"stim/objects/HouseObjects/clothesdryingrack4.png","",0,0,"",0,"right",2.946000338,NA,NA,NA,NA,NA,36,1,NA,NA,NA,NA,0
"37",69,1,0.7,2,"stim/objects/Instruments/oboe.png","stim/53.jpeg",5,3,"stim/53.jpeg",1,"left",1.106000185,4,2,11.352,4,5.510000229,37,1,0,0,0,0,0
"38",69,1,0.7,1,"stim/objects/HouseObjects/coffee2.png","stim/63.jpeg",6,3,"stim/63.jpeg",1,"right",2.409000158,3,4,2.708000183,2,3.308000326,38,0,0,NA,0,NA,0
"39",69,1,0.9,2,"stim/objects/Instruments/guitarcase2.png","stim/14.jpeg",1,4,"stim/14.jpeg",4,"left",2.65500021,4,1,10.34600019,2,7.724000216,39,1,0,0,0,0,0
"40",69,1,0.5,1,"stim/objects/HouseObjects/handvacuum.png","stim/32.jpeg",3,2,"stim/32.jpeg",2,"right",3.071000338,4,3,3.270000219,2,3.268000126,40,0,0,NA,1,NA,0
"41",69,2,0,2,"stim/objects/Instruments/acousticguitar3.png","",0,0,"",0,"right",2.363000154,NA,NA,NA,NA,NA,41,1,NA,NA,NA,NA,0
"42",69,1,0.1,2,"stim/objects/Instruments/oboe2.png","stim/21.jpeg",2,1,"stim/21.jpeg",4,"right",1.423000097,3,4,3.643000126,4,2.623000145,42,0,0,NA,1,NA,0
"43",69,1,0.3,1,"stim/objects/HouseObjects/rubbergloves.png","stim/51.jpeg",5,1,"stim/51.jpeg",1,"right",5.98900032,3,2,3.251000166,4,78.12300014,43,0,0,NA,0,NA,0
"44",69,1,0.7,2,"stim/objects/Instruments/balalaika2.png","stim/51.jpeg",5,1,"stim/51.jpeg",3,"right",1.051000118,3,1,1.179000378,3,2.601000309,44,0,1,NA,1,NA,0
"45",69,2,0,1,"stim/objects/HouseObjects/coffee3.png","",0,0,"",0,"right",1.472000122,NA,NA,NA,NA,NA,45,1,NA,NA,NA,NA,0
"46",69,2,0,2,"stim/objects/Instruments/hihat3.png","",0,0,"",0,"left",1.30700016,NA,NA,NA,NA,NA,46,0,NA,NA,NA,NA,0
"47",69,2,0,2,"stim/objects/Instruments/keyboard3.png","",0,0,"",0,"right",2.196000099,NA,NA,NA,NA,NA,47,1,NA,NA,NA,NA,0
"48",69,2,0,1,"stim/objects/HouseObjects/barbecuelighter4.png","",0,0,"",0,"right",1.151000023,NA,NA,NA,NA,NA,48,1,NA,NA,NA,NA,0
"49",69,2,0,1,"stim/objects/HouseObjects/bucket3.png","",0,0,"",0,"right",2.028000116,NA,NA,NA,NA,NA,49,1,NA,NA,NA,NA,0
"50",69,1,0.9,1,"stim/objects/HouseObjects/lintroller2.png","stim/24.jpeg",2,4,"stim/24.jpeg",4,"right",0.936000347,4,4,2.986999989,2,2.114000082,50,0,1,NA,0,NA,0
"51",69,1,0.9,1,"stim/objects/HouseObjects/match2.png","stim/21.jpeg",2,1,"stim/21.jpeg",2,"right",3.516000271,4,2,1.378000021,2,2.162000179,51,0,0,NA,1,NA,0
"52",69,1,0.9,2,"stim/objects/Instruments/gong2.png","stim/12.jpeg",1,2,"stim/12.jpeg",2,"left",2.311000109,2,3,10.05100036,4,5.333000183,52,1,0,0,0,0,0
"53",69,1,0.5,2,"stim/objects/Instruments/metronome.png","stim/43.jpeg",4,3,"stim/43.jpeg",3,"left",1.5400002,4,1,12.38900018,1,6.345000267,53,1,0,0,0,0,0
"54",69,2,0,2,"stim/objects/Instruments/bassdrum3.png","",0,0,"",0,"right",2.09800005,NA,NA,NA,NA,NA,54,1,NA,NA,NA,NA,0
"55",69,2,0,2,"stim/objects/Instruments/chime3.png","",0,0,"",0,"right",1.604000092,NA,NA,NA,NA,NA,55,1,NA,NA,NA,NA,0
"56",69,1,0.3,2,"stim/objects/Instruments/electricguitar2.png","stim/63.jpeg",6,3,"stim/63.jpeg",1,"right",1.594000101,2,3,2.966000319,3,2.252000093,56,0,1,NA,0,NA,0
"57",69,1,0.5,2,"stim/objects/HouseObjects/lintroller.png","stim/44.jpeg",4,4,"stim/44.jpeg",1,"left",1.456000328,4,3,12.28500009,2,4.57400012,57,1,0,0,0,0,0
"58",69,1,0.3,2,"stim/objects/Instruments/chime2.png","stim/64.jpeg",6,4,"stim/64.jpeg",1,"left",2.101000071,2,2,2.377000093,1,2.036000252,58,1,0,0,1,1,0
"59",69,2,0,1,"stim/objects/HouseObjects/pan3.png","",0,0,"",0,"left",15.56100035,NA,NA,NA,NA,NA,59,0,NA,NA,NA,NA,0
"60",69,1,0.5,2,"stim/objects/Instruments/marimba.png","stim/42.jpeg",4,2,"stim/42.jpeg",4,"left",1.731000185,3,4,13.25500011,2,3.837000132,60,1,0,0,0,0,0
"61",69,2,0,2,"stim/objects/Instruments/accordion3.png","",0,0,"",0,"left",2.546000004,NA,NA,NA,NA,NA,61,0,NA,NA,NA,NA,0
"62",69,2,0,2,"stim/objects/Instruments/doublebass4.png","",0,0,"",0,"right",1.404000282,NA,NA,NA,NA,NA,62,1,NA,NA,NA,NA,0
"63",69,1,0.9,1,"stim/objects/HouseObjects/rubbergloves2.png","stim/22.jpeg",2,2,"stim/22.jpeg",4,"right",1.417000055,3,1,3.484000206,2,2.088000298,63,0,0,NA,0,NA,0
"64",69,1,0.1,2,"stim/objects/Instruments/pipepiano2.png","stim/23.jpeg",2,3,"stim/23.jpeg",3,"left",2.640000105,4,4,2.861000299,2,1.325000286,64,1,0,0,0,0,0
"65",69,1,0.3,2,"stim/objects/Instruments/drums2.png","stim/61.jpeg",6,1,"stim/61.jpeg",3,"right",2.444000244,2,2,1.116000175,3,1.563000202,65,0,0,NA,1,NA,0
"66",69,1,0.9,2,"stim/objects/Instruments/grandpiano2.png","stim/13.jpeg",1,3,"stim/13.jpeg",1,"right",2.053000212,2,4,4.058000088,3,3.879000187,66,0,0,NA,0,NA,0
"67",69,1,0.7,1,"stim/objects/HouseObjects/bucket2.png","stim/63.jpeg",6,3,"stim/63.jpeg",4,"left",1.420000076,3,2,4.498000145,4,3.353000164,67,1,0,0,1,1,0
"68",69,1,0.9,1,"stim/objects/HouseObjects/key2.png","stim/22.jpeg",2,2,"stim/22.jpeg",3,"right",1.338000059,3,4,7.018000126,3,2.175000191,68,0,0,NA,1,NA,0
"69",69,2,0,2,"stim/objects/Instruments/clarinet3.png","",0,0,"",0,"right",2.274000168,NA,NA,NA,NA,NA,69,1,NA,NA,NA,NA,0
"70",69,1,0.9,2,"stim/objects/Instruments/flute2.png","stim/13.jpeg",1,3,"stim/13.jpeg",3,"right",1.493999958,2,1,1.71900034,4,2.291000366,70,0,0,NA,0,NA,0
"71",69,2,0,1,"stim/objects/HouseObjects/handbrush3.png","",0,0,"",0,"right",1.169000387,NA,NA,NA,NA,NA,71,1,NA,NA,NA,NA,0
"72",69,2,0,2,"stim/objects/Instruments/drums3.png","",0,0,"",0,"right",0.935000181,NA,NA,NA,NA,NA,72,1,NA,NA,NA,NA,0
"73",69,1,0.1,2,"stim/objects/Instruments/maraca2.png","stim/24.jpeg",2,4,"stim/24.jpeg",4,"right",2.872000217,2,3,5.023000002,2,2.304000139,73,0,0,NA,0,NA,0
"74",69,1,0.3,2,"stim/objects/Instruments/cello2.png","stim/63.jpeg",6,3,"stim/63.jpeg",4,"left",1.919000149,2,4,3.384000301,1,1.863000154,74,1,0,0,0,0,0
"75",69,2,0,2,"stim/objects/Instruments/flutetrans3.png","",0,0,"",0,"left",2.100000143,NA,NA,NA,NA,NA,75,0,NA,NA,NA,NA,0
"76",69,1,0.1,2,"stim/objects/Instruments/musicsheet2.png","stim/23.jpeg",2,3,"stim/23.jpeg",4,"left",1.578000069,4,1,5.470000267,2,2.579000235,76,1,0,0,0,0,0
"77",69,1,0.9,1,"stim/objects/HouseObjects/recyclingbin2.png","stim/24.jpeg",2,4,"stim/24.jpeg",1,"right",1.23300004,4,3,2.161000013,2,2.08100009,77,0,0,NA,0,NA,0
"78",69,2,0,2,"stim/objects/Instruments/electricdrumset3.png","",0,0,"",0,"right",2.082000256,NA,NA,NA,NA,NA,78,1,NA,NA,NA,NA,0
"79",69,2,0,1,"stim/objects/HouseObjects/ironingboard3.png","",0,0,"",0,"right",2.826000214,NA,NA,NA,NA,NA,79,1,NA,NA,NA,NA,0
"80",69,1,0.3,1,"stim/objects/HouseObjects/ballofstring2.png","stim/53.jpeg",5,3,"stim/53.jpeg",3,"right",0.976000309,3,2,1.336000204,2,0.735000134,80,0,0,NA,0,NA,0
"81",69,1,0.7,1,"stim/objects/HouseObjects/broom2.png","stim/62.jpeg",6,2,"stim/62.jpeg",2,"right",1.137000084,1,2,2.060000181,2,1.271000147,81,0,1,NA,1,NA,0
"82",69,2,0,1,"stim/objects/HouseObjects/match3.png","",0,0,"",0,"right",1.143000126,NA,NA,NA,NA,NA,82,1,NA,NA,NA,NA,0
"83",69,2,0,1,"stim/objects/HouseObjects/coffee4.png","",0,0,"",0,"right",1.315000057,NA,NA,NA,NA,NA,83,1,NA,NA,NA,NA,0
"84",69,2,0,2,"stim/objects/Instruments/electricguitar4.png","",0,0,"",0,"left",1.909000158,NA,NA,NA,NA,NA,84,0,NA,NA,NA,NA,0
"85",69,2,0,2,"stim/objects/Instruments/grandpiano3.png","",0,0,"",0,"right",2.308000088,NA,NA,NA,NA,NA,85,1,NA,NA,NA,NA,0
"86",69,2,0,2,"stim/objects/Instruments/harmonica3.png","",0,0,"",0,"left",1.322000027,NA,NA,NA,NA,NA,86,0,NA,NA,NA,NA,0
"87",69,1,0.1,2,"stim/objects/Instruments/record2.png","stim/24.jpeg",2,4,"stim/24.jpeg",3,"left",1.032999992,3,1,2.275000334,2,1.685000181,87,1,0,0,0,0,0
"88",69,2,0,1,"stim/objects/HouseObjects/dishsoap3.png","",0,0,"",0,"right",4.750000238,NA,NA,NA,NA,NA,88,1,NA,NA,NA,NA,0
"89",69,1,0.7,2,"stim/objects/Instruments/banjo2.png","stim/52.jpeg",5,2,"stim/52.jpeg",1,"left",1.305000305,3,4,5.015000343,2,1.889000177,89,1,0,0,0,0,0
"90",69,2,0,1,"stim/objects/HouseObjects/handvacuum3.png","",0,0,"",0,"left",1.491000175,NA,NA,NA,NA,NA,90,0,NA,NA,NA,NA,0
"91",69,1,0.7,1,"stim/objects/HouseObjects/clothespin2.png","stim/62.jpeg",6,2,"stim/62.jpeg",4,"left",0.963000059,4,4,5.685000181,4,1.741000175,91,1,0,0,1,1,0
"92",69,1,0.3,1,"stim/objects/HouseObjects/pan.png","stim/51.jpeg",5,1,"stim/51.jpeg",4,"right",2.205000162,2,1,6.041000128,2,2.608000278,92,0,1,NA,0,NA,0
"93",69,1,0.1,1,"stim/objects/HouseObjects/dustpan2.png","stim/12.jpeg",1,2,"stim/12.jpeg",2,"right",1.961000204,2,3,3.604000092,2,2.620000124,93,0,0,NA,1,NA,0
"94",69,2,0,1,"stim/objects/HouseObjects/blender4.png","",0,0,"",0,"right",2.476999998,NA,NA,NA,NA,NA,94,1,NA,NA,NA,NA,0
"95",69,2,0,1,"stim/objects/HouseObjects/recyclingbin3.png","",0,0,"",0,"right",0.835999966,NA,NA,NA,NA,NA,95,1,NA,NA,NA,NA,0
"96",69,2,0,1,"stim/objects/HouseObjects/ballofstring4.png","",0,0,"",0,"right",0.997000217,NA,NA,NA,NA,NA,96,1,NA,NA,NA,NA,0
"97",69,2,0,1,"stim/objects/HouseObjects/clock3.png","",0,0,"",0,"right",0.830000162,NA,NA,NA,NA,NA,97,1,NA,NA,NA,NA,0
"98",69,1,0.3,2,"stim/objects/Instruments/doublebass2.png","stim/64.jpeg",6,4,"stim/64.jpeg",2,"right",1.47900033,2,4,2.542999983,3,1.613000154,98,0,1,NA,0,NA,0
"99",69,1,0.7,1,"stim/objects/HouseObjects/clock2.png","stim/64.jpeg",6,4,"stim/64.jpeg",1,"right",5.678000212,2,1,1.069000244,4,1.474000216,99,0,0,NA,0,NA,0
"100",69,2,0,2,"stim/objects/Instruments/guitarcase3.png","",0,0,"",0,"left",1.225000143,NA,NA,NA,NA,NA,100,0,NA,NA,NA,NA,0
"101",69,1,0.7,2,"stim/objects/Instruments/musicstand.png","stim/52.jpeg",5,2,"stim/52.jpeg",2,"left",0.891000271,3,4,5.256000042,3,3.39800024,101,1,0,0,0,0,0
"102",69,1,0.1,1,"stim/objects/HouseObjects/iron2.png","stim/12.jpeg",1,2,"stim/12.jpeg",4,"right",2.202000141,2,1,1.65500021,2,1.493000269,102,0,0,NA,0,NA,0
"103",69,1,0.5,1,"stim/objects/HouseObjects/glassmop.png","stim/33.jpeg",3,3,"stim/33.jpeg",1,"right",1.170000076,3,4,2.5400002,2,1.912000179,103,0,0,NA,0,NA,0
"104",69,1,0.9,2,"stim/objects/Instruments/frenchhorn2.png","stim/11.jpeg",1,1,"stim/11.jpeg",1,"left",1.34800005,4,3,6.520000219,4,3.588000059,104,1,0,0,0,0,0
"105",69,1,0.5,1,"stim/objects/Instruments/guitarcase.png","stim/32.jpeg",3,2,"stim/32.jpeg",2,"right",1.197000027,4,2,2.938000202,1,2.292000294,105,0,1,NA,0,NA,0
"106",69,1,0.3,1,"stim/objects/HouseObjects/pitcher.png","stim/52.jpeg",5,2,"stim/52.jpeg",2,"right",1.058000088,3,1,1.794000149,1,0.95200038,106,0,0,NA,0,NA,0
"107",69,1,0.1,2,"stim/objects/Instruments/laud2.png","stim/23.jpeg",2,3,"stim/23.jpeg",4,"right",1.167999983,2,4,1.700000048,3,1.416000128,107,0,0,NA,0,NA,0
"108",69,1,0.5,1,"stim/objects/HouseObjects/iron.png","stim/33.jpeg",3,3,"stim/33.jpeg",2,"right",1.761000395,3,2,3.714000225,2,0.789999962,108,0,0,NA,1,NA,0
"109",69,2,0,1,"stim/objects/HouseObjects/basket4.png","",0,0,"",0,"right",2.094000101,NA,NA,NA,NA,NA,109,1,NA,NA,NA,NA,0
"110",69,2,0,2,"stim/objects/Instruments/banjo4.png","",0,0,"",0,"left",1.866000175,NA,NA,NA,NA,NA,110,0,NA,NA,NA,NA,0
"111",69,2,0,1,"stim/objects/HouseObjects/rubbergloves3.png","",0,0,"",0,"right",1.379000187,NA,NA,NA,NA,NA,111,1,NA,NA,NA,NA,0
"112",69,2,0,1,"stim/objects/HouseObjects/ashtray4.png","",0,0,"",0,"left",1.085000277,NA,NA,NA,NA,NA,112,0,NA,NA,NA,NA,0
"113",69,1,0.3,1,"stim/objects/HouseObjects/basket2.png","stim/51.jpeg",5,1,"stim/51.jpeg",3,"right",1.232000113,3,2,1.736000299,1,0.921000242,113,0,0,NA,0,NA,0
"114",69,1,0.5,1,"stim/objects/HouseObjects/handbrush.png","stim/31.jpeg",3,1,"stim/31.jpeg",4,"left",2.385000229,2,3,2.156000137,1,0.882000208,114,1,0,0,0,0,0
"115",69,1,0.7,2,"stim/objects/Instruments/pipepiano.png","stim/51.jpeg",5,1,"stim/51.jpeg",4,"left",1.492000103,4,2,5.194000244,4,5.769000292,115,1,0,0,1,1,0
"116",69,2,0,2,"stim/objects/Instruments/acousticguitar4.png","",0,0,"",0,"left",1.507000208,NA,NA,NA,NA,NA,116,0,NA,NA,NA,NA,0
"117",69,2,0,1,"stim/objects/HouseObjects/bleachbottle3.png","",0,0,"",0,"right",1.419000149,NA,NA,NA,NA,NA,117,1,NA,NA,NA,NA,0
"118",69,1,0.5,2,"stim/objects/Instruments/maraca.png","stim/41.jpeg",4,1,"stim/41.jpeg",3,"left",1.066000223,3,1,1.818000317,4,1.494000196,118,1,1,1,0,0,0
"119",69,1,0.9,1,"stim/objects/HouseObjects/ironingboard2.png","stim/21.jpeg",2,1,"stim/21.jpeg",4,"right",2.815000296,3,2,1.413000345,4,2.782000303,119,0,0,NA,1,NA,0
"120",69,2,0,2,"stim/objects/Instruments/panflute3.png","",0,0,"",0,"right",2.043000221,NA,NA,NA,NA,NA,120,1,NA,NA,NA,NA,0
"121",69,2,0,2,"stim/objects/Instruments/cymbal4.png","",0,0,"",0,"left",2.514000177,NA,NA,NA,NA,NA,121,0,NA,NA,NA,NA,0
"122",69,2,0,2,"stim/objects/Instruments/musicstand3.png","",0,0,"",0,"right",1.128000259,NA,NA,NA,NA,NA,122,1,NA,NA,NA,NA,0
"123",69,1,0.1,1,"stim/objects/HouseObjects/doormat2.png","stim/11.jpeg",1,1,"stim/11.jpeg",4,"left",2.690000057,4,3,4.796000242,1,1.207000017,123,1,0,0,0,0,0
"124",69,1,0.9,2,"stim/objects/Instruments/keyboard2.png","stim/14.jpeg",1,4,"stim/14.jpeg",2,"right",1.460000038,3,3,16.68700004,2,1.836000204,124,0,0,NA,1,NA,0
"125",69,2,0,1,"stim/objects/HouseObjects/hairdryer3.png","",0,0,"",0,"right",2.097000122,NA,NA,NA,NA,NA,125,1,NA,NA,NA,NA,0
"126",69,2,0,2,"stim/objects/Instruments/balalaika4.png","",0,0,"",0,"left",2.054000378,NA,NA,NA,NA,NA,126,0,NA,NA,NA,NA,0
"127",69,1,0.5,1,"stim/objects/Instruments/keyboard.png","stim/32.jpeg",3,2,"stim/32.jpeg",2,"left",1.121000051,3,4,4.578000307,2,2.184000254,127,1,0,0,1,1,0
"128",69,1,0.9,2,"stim/objects/Instruments/harmonica2.png","stim/11.jpeg",1,1,"stim/11.jpeg",3,"right",1.971000195,4,1,1.011000156,3,0.930000305,128,0,1,NA,1,NA,0
"129",69,1,0.1,2,"stim/objects/Instruments/musicstand2.png","stim/24.jpeg",2,4,"stim/24.jpeg",3,"right",4.221000195,4,3,2.618000031,4,1.417000055,129,0,0,NA,0,NA,0
"130",69,2,0,2,"stim/objects/Instruments/musicsheet3.png","",0,0,"",0,"right",2.909000158,NA,NA,NA,NA,NA,130,1,NA,NA,NA,NA,0
"131",69,2,0,1,"stim/objects/HouseObjects/key3.png","",0,0,"",0,"right",1.370000362,NA,NA,NA,NA,NA,131,1,NA,NA,NA,NA,0
"132",69,2,0,1,"stim/objects/HouseObjects/lintroller3.png","",0,0,"",0,"right",1.118000031,NA,NA,NA,NA,NA,132,1,NA,NA,NA,NA,0
"133",69,2,0,2,"stim/objects/Instruments/cornet3.png","",0,0,"",0,"right",1.078000307,NA,NA,NA,NA,NA,133,1,NA,NA,NA,NA,0
"134",69,1,0.1,2,"stim/objects/Instruments/marimba2.png","stim/21.jpeg",2,1,"stim/21.jpeg",2,"right",3.161000252,2,1,2.505000114,3,1.581000328,134,0,1,NA,0,NA,0
"135",69,2,0,1,"stim/objects/HouseObjects/clock4.png","",0,0,"",0,"left",5.581000328,NA,NA,NA,NA,NA,135,0,NA,NA,NA,NA,0
"136",69,1,0.3,2,"stim/objects/Instruments/clarinet2.png","stim/61.jpeg",6,1,"stim/61.jpeg",3,"left",1.403000116,3,4,2.673000336,4,2.361000299,136,1,0,0,0,0,0
"137",69,2,0,2,"stim/objects/Instruments/cello3.png","",0,0,"",0,"left",1.472000122,NA,NA,NA,NA,NA,137,0,NA,NA,NA,NA,0
"138",69,2,0,1,"stim/objects/HouseObjects/barbecuelighter3.png","",0,0,"",0,"left",1.29700017,NA,NA,NA,NA,NA,138,0,NA,NA,NA,NA,0
"139",69,1,0.3,1,"stim/objects/HouseObjects/recyclingbin.png","stim/53.jpeg",5,3,"stim/53.jpeg",1,"right",0.923000097,2,2,2.059000015,2,2.360000134,139,0,0,NA,0,NA,0
"140",69,2,0,1,"stim/objects/HouseObjects/iron3.png","",0,0,"",0,"right",0.953000069,NA,NA,NA,NA,NA,140,1,NA,NA,NA,NA,0
"141",69,2,0,2,"stim/objects/Instruments/metronome3.png","",0,0,"",0,"left",1.13100028,NA,NA,NA,NA,NA,141,0,NA,NA,NA,NA,0
"142",69,2,0,1,"stim/objects/HouseObjects/clothesdryingrack3.png","",0,0,"",0,"right",1.737000227,NA,NA,NA,NA,NA,142,1,NA,NA,NA,NA,0
"143",69,2,0,1,"stim/objects/HouseObjects/dishsoap4.png","",0,0,"",0,"right",0.886000156,NA,NA,NA,NA,NA,143,1,NA,NA,NA,NA,0
"144",69,2,0,1,"stim/objects/HouseObjects/clothespin3.png","",0,0,"",0,"left",1.495000362,NA,NA,NA,NA,NA,144,0,NA,NA,NA,NA,0
"145",69,2,0,1,"stim/objects/HouseObjects/doormat3.png","",0,0,"",0,"left",1.695000172,NA,NA,NA,NA,NA,145,0,NA,NA,NA,NA,0
"146",69,1,0.7,1,"stim/objects/HouseObjects/clothesdryingrack2.png","stim/61.jpeg",6,1,"stim/61.jpeg",4,"right",1.50999999,3,2,1.262000084,4,1.371000051,146,0,0,NA,1,NA,0
"147",69,2,0,1,"stim/objects/HouseObjects/cushion3.png","",0,0,"",0,"right",1.322000027,NA,NA,NA,NA,NA,147,1,NA,NA,NA,NA,0
"148",69,2,0,2,"stim/objects/Instruments/cello4.png","",0,0,"",0,"right",1.022000074,NA,NA,NA,NA,NA,148,1,NA,NA,NA,NA,0
"149",69,2,0,1,"stim/objects/HouseObjects/clothespin4.png","",0,0,"",0,"right",0.805000305,NA,NA,NA,NA,NA,149,1,NA,NA,NA,NA,0
"150",69,1,0.3,1,"stim/objects/HouseObjects/bleachbottle2.png","stim/52.jpeg",5,2,"stim/52.jpeg",4,"right",0.683000088,2,4,1.890000343,1,0.770000219,150,0,0,NA,0,NA,0
"151",69,1,0.9,1,"stim/objects/HouseObjects/pan2.png","stim/22.jpeg",2,2,"stim/22.jpeg",3,"left",1.981000185,2,4,1.213000059,2,1.275000334,151,1,0,0,0,0,0
"152",69,2,0,2,"stim/objects/Instruments/banjo3.png","",0,0,"",0,"left",1.125000238,NA,NA,NA,NA,NA,152,0,NA,NA,NA,NA,0
"153",69,2,0,1,"stim/objects/HouseObjects/remote3.png","",0,0,"",0,"right",1.103000164,NA,NA,NA,NA,NA,153,1,NA,NA,NA,NA,0
"154",69,1,0.1,1,"stim/objects/HouseObjects/handvacuum2.png","stim/11.jpeg",1,1,"stim/11.jpeg",2,"left",1.131999969,1,2,0.88800025,3,1.367000103,154,1,0,0,0,0,0
"155",69,1,0.5,2,"stim/objects/HouseObjects/ironingboard.png","stim/41.jpeg",4,1,"stim/41.jpeg",3,"left",0.870000124,3,4,2.317000151,2,2.056000233,155,1,0,0,0,0,0
"156",69,1,0.9,1,"stim/objects/HouseObjects/remote2.png","stim/21.jpeg",2,1,"stim/21.jpeg",2,"right",11.49300003,3,2,2.093000174,2,0.837000132,156,0,0,NA,1,NA,0
"157",69,1,0.3,1,"stim/objects/HouseObjects/ashtray2.png","stim/52.jpeg",5,2,"stim/52.jpeg",3,"right",1.039000273,3,1,1.133000135,4,1.776000261,157,0,0,NA,0,NA,0
"158",69,2,0,2,"stim/objects/Instruments/gong3.png","",0,0,"",0,"left",2.753000021,NA,NA,NA,NA,NA,158,0,NA,NA,NA,NA,0
"159",69,2,0,2,"stim/objects/Instruments/bassguitar3.png","",0,0,"",0,"left",1.169000149,NA,NA,NA,NA,NA,159,0,NA,NA,NA,NA,0
"160",69,1,0.3,2,"stim/objects/Instruments/cornet2.png","stim/62.jpeg",6,2,"stim/62.jpeg",2,"left",0.838000059,2,3,3.046000242,4,1.677000284,160,1,0,0,0,0,0
"161",69,1,0.3,1,"stim/objects/HouseObjects/barbecuelighter2.png","stim/54.jpeg",5,4,"stim/54.jpeg",1,"right",0.886000156,3,4,2.15500021,2,1.933000088,161,0,1,NA,0,NA,0
"162",69,2,0,2,"stim/objects/Instruments/bassdrum4.png","",0,0,"",0,"left",1.031000137,NA,NA,NA,NA,NA,162,0,NA,NA,NA,NA,0
"163",69,2,0,2,"stim/objects/Instruments/maraca3.png","",0,0,"",0,"left",0.7900002,NA,NA,NA,NA,NA,163,0,NA,NA,NA,NA,0
"164",69,2,0,2,"stim/objects/Instruments/laud3.png","",0,0,"",0,"right",3.265000105,NA,NA,NA,NA,NA,164,1,NA,NA,NA,NA,0
"165",69,2,0,2,"stim/objects/Instruments/frenchhorn3.png","",0,0,"",0,"right",1.011000156,NA,NA,NA,NA,NA,165,1,NA,NA,NA,NA,0
"166",69,2,0,1,"stim/objects/HouseObjects/basket3.png","",0,0,"",0,"right",1.363000154,NA,NA,NA,NA,NA,166,1,NA,NA,NA,NA,0
"167",69,1,0.5,1,"stim/objects/HouseObjects/hairdryer.png","stim/34.jpeg",3,4,"stim/34.jpeg",3,"right",0.776000261,1,2,0.553000212,4,0.975000143,167,0,0,NA,0,NA,0
"168",69,2,0,1,"stim/objects/HouseObjects/dustpan3.png","",0,0,"",0,"right",1.029000044,NA,NA,NA,NA,NA,168,1,NA,NA,NA,NA,0
"169",69,2,0,1,"stim/objects/HouseObjects/ballofstring3.png","",0,0,"",0,"right",0.867000341,NA,NA,NA,NA,NA,169,1,NA,NA,NA,NA,0
"170",69,2,0,2,"stim/objects/Instruments/cymbal3.png","",0,0,"",0,"right",0.948000193,NA,NA,NA,NA,NA,170,1,NA,NA,NA,NA,0
"171",69,1,0.5,2,"stim/objects/HouseObjects/knife.png","stim/43.jpeg",4,3,"stim/43.jpeg",1,"right",0.705000162,4,3,1.48900032,2,0.775000334,171,0,1,NA,0,NA,0
"172",69,1,0.1,1,"stim/objects/HouseObjects/hairdryer2.png","stim/13.jpeg",1,3,"stim/13.jpeg",4,"right",0.889000177,2,2,0.835000038,3,0.503000021,172,0,0,NA,0,NA,0
"173",69,1,0.7,2,"stim/objects/Instruments/acousticguitar2.png","stim/54.jpeg",5,4,"stim/54.jpeg",1,"right",1.349000216,3,1,0.635000229,3,0.921000242,173,0,0,NA,0,NA,0
"174",69,1,0.7,1,"stim/objects/HouseObjects/blender2.png","stim/64.jpeg",6,4,"stim/64.jpeg",2,"right",0.743000031,4,3,0.842000246,1,0.366000175,174,0,0,NA,0,NA,0
"175",69,2,0,2,"stim/objects/Instruments/oboe3.png","",0,0,"",0,"left",1.427000284,NA,NA,NA,NA,NA,175,0,NA,NA,NA,NA,0
"176",69,1,0.3,2,"stim/objects/Instruments/electricdrumset2.png","stim/62.jpeg",6,2,"stim/62.jpeg",4,"right",1.592000246,2,3,0.772000074,1,0.70600009,176,0,0,NA,0,NA,0
"177",69,1,0.7,2,"stim/objects/Instruments/panflute.png","stim/54.jpeg",5,4,"stim/54.jpeg",4,"right",0.730000019,4,2,0.666000128,1,0.24000001,177,0,0,NA,0,NA,0
"178",69,2,0,1,"stim/objects/HouseObjects/broom4.png","",0,0,"",0,"right",0.635000229,NA,NA,NA,NA,NA,178,1,NA,NA,NA,NA,0
"179",69,1,0.5,2,"stim/objects/HouseObjects/match.png","stim/41.jpeg",4,1,"stim/41.jpeg",1,"right",0.666000128,1,2,0.407000065,4,0.743000269,179,0,0,NA,0,NA,0
"180",69,1,0.1,1,"stim/objects/HouseObjects/garbagebin2.png","stim/14.jpeg",1,4,"stim/14.jpeg",3,"right",0.986999989,4,3,0.960000277,2,1.020000219,180,0,0,NA,0,NA,0
"181",69,1,0.5,1,"stim/objects/Instruments/harp.png","stim/34.jpeg",3,4,"stim/34.jpeg",2,"left",1.029999971,3,2,0.804000139,3,0.733000278,181,1,0,0,0,0,0
"182",69,2,0,1,"stim/objects/HouseObjects/bleachbottle4.png","",0,0,"",0,"right",2.944000006,NA,NA,NA,NA,NA,182,1,NA,NA,NA,NA,0
"183",69,2,0,2,"stim/objects/Instruments/clarinet4.png","",0,0,"",0,"left",1.04700017,NA,NA,NA,NA,NA,183,0,NA,NA,NA,NA,0
"184",69,2,0,2,"stim/objects/Instruments/balalaika3.png","",0,0,"",0,"left",1.221000195,NA,NA,NA,NA,NA,184,0,NA,NA,NA,NA,0
"185",69,2,0,1,"stim/objects/HouseObjects/bottle4.png","",0,0,"",0,"right",1.055000305,NA,NA,NA,NA,NA,185,1,NA,NA,NA,NA,0
"186",69,1,0.9,1,"stim/objects/HouseObjects/pitcher2.png","stim/23.jpeg",2,3,"stim/23.jpeg",2,"right",0.918000221,3,2,0.531000137,1,0.720999956,186,0,0,NA,0,NA,0
"187",69,1,0.5,2,"stim/objects/Instruments/musicsheet.png","stim/44.jpeg",4,4,"stim/44.jpeg",2,"right",1.024000168,3,2,0.910000086,3,1.012000084,187,0,0,NA,0,NA,0
"188",69,1,0.7,2,"stim/objects/Instruments/record.png","stim/52.jpeg",5,2,"stim/52.jpeg",3,"left",1.58100009,3,4,1.638999939,3,0.668000221,188,1,0,0,1,1,0
"189",69,1,0.5,2,"stim/objects/Instruments/laud.png","stim/44.jpeg",4,4,"stim/44.jpeg",1,"right",1.049000263,3,1,0.738000154,3,0.554000139,189,0,0,NA,0,NA,0
"190",69,1,0.3,2,"stim/objects/Instruments/bassguitar2.png","stim/62.jpeg",6,2,"stim/62.jpeg",3,"left",1.176000118,3,3,0.57400012,1,0.567000151,190,1,0,0,0,0,0
"191",69,2,0,1,"stim/objects/HouseObjects/broom3.png","",0,0,"",0,"right",1.137000322,NA,NA,NA,NA,NA,191,1,NA,NA,NA,NA,0
"192",69,1,0.9,2,"stim/objects/Instruments/hihat2.png","stim/13.jpeg",1,3,"stim/13.jpeg",3,"left",0.822000265,3,2,1.736000299,3,0.798000336,192,1,0,0,1,1,0
"193",69,2,0,2,"stim/objects/Instruments/marimba3.png","",0,0,"",0,"right",1.111999989,NA,NA,NA,NA,NA,193,1,NA,NA,NA,NA,0
"194",69,2,0,2,"stim/objects/Instruments/cornet4.png","",0,0,"",0,"right",0.795000076,NA,NA,NA,NA,NA,194,1,NA,NA,NA,NA,0
"195",69,2,0,2,"stim/objects/Instruments/pipepiano3.png","",0,0,"",0,"right",0.671000242,NA,NA,NA,NA,NA,195,1,NA,NA,NA,NA,0
"196",69,2,0,2,"stim/objects/Instruments/chime4.png","",0,0,"",0,"left",0.003000021,NA,NA,NA,NA,NA,196,0,NA,NA,NA,NA,0
"197",69,2,0,1,"stim/objects/HouseObjects/garbagebin3.png","",0,0,"",0,"right",2.066000223,NA,NA,NA,NA,NA,197,1,NA,NA,NA,NA,0
"198",69,2,0,2,"stim/objects/Instruments/doublebass3.png","",0,0,"",0,"right",0.776000261,NA,NA,NA,NA,NA,198,1,NA,NA,NA,NA,0
"199",69,1,0.9,2,"stim/objects/Instruments/flutetrans2.png","stim/14.jpeg",1,4,"stim/14.jpeg",4,"right",1.269000053,2,3,0.586000204,1,0.509000301,199,0,0,NA,0,NA,0
"200",69,1,0.7,2,"stim/objects/Instruments/accordion2.png","stim/53.jpeg",5,3,"stim/53.jpeg",4,"right",15.89400005,3,1,1.061000109,1,0.642000198,200,0,0,NA,0,NA,0
