"","obj_file","X.x","participant.x","trialN.x","trial_cond","scn_file.x","scn_cat","scn_inst","scn_condition","fillers","obj_cat","obj_cat_num","quadrant","corr_ans","key_resp_trial.keys","key_resp_trial.rt","trial_acc","trial_acc_manual","group.x","practice","X.y","participant.y","OvsN","PE_level","object_cat","scn_file.y","corr_scn_cat","corr_scn_inst","scn_file.1","corr_loc","key_resp_id.keys","key_resp_id.rt","key_resp_conf.keys","key_resp_assoc.keys","key_resp_assoc.rt","key_resp_loc.keys","key_resp_loc.rt","trialN.y","id_acc","assoc.acc","cond_assoc","loc.acc","cond_loc","group.y"
"37","stim/objects/HouseObjects/scale.png",1,69,1,0.5,"stim/34.jpeg",3,4,1,NA,"HouseObjects",1,2,"left","",NA,0,0,0,1,NA,NA,NA,NA,NA,NA,NA,NA,NA,NA,NA,NA,NA,NA,NA,NA,NA,NA,NA,NA,NA,NA,NA,NA
"167","stim/objects/Instruments/triangle.png",2,69,2,0.5,"stim/42.jpeg",4,2,1,NA,"Instruments",2,2,"right","right",0.758999825,1,1,0,1,NA,NA,NA,NA,NA,NA,NA,NA,NA,NA,NA,NA,NA,NA,NA,NA,NA,NA,NA,NA,NA,NA,NA,NA
"172","stim/objects/Instruments/triangle2.png",3,69,3,0.9,"stim/12.jpeg",1,2,3,NA,"Instruments",2,3,"right","",NA,0,0,0,1,NA,NA,NA,NA,NA,NA,NA,NA,NA,NA,NA,NA,NA,NA,NA,NA,NA,NA,NA,NA,NA,NA,NA,NA
"73","stim/objects/HouseObjects/thread.png",4,69,4,0.3,"stim/51.jpeg",5,1,2,NA,"HouseObjects",1,1,"left","",NA,0,0,0,1,NA,NA,NA,NA,NA,NA,NA,NA,NA,NA,NA,NA,NA,NA,NA,NA,NA,NA,NA,NA,NA,NA,NA,NA
"129","stim/objects/Instruments/saxophone.png",5,69,5,0.5,"stim/32.jpeg",3,2,1,NA,"Instruments",2,1,"right","right",0.651000023,1,1,0,1,NA,NA,NA,NA,NA,NA,NA,NA,NA,NA,NA,NA,NA,NA,NA,NA,NA,NA,NA,NA,NA,NA,NA,NA
"137","stim/objects/Instruments/speaker.png",6,69,6,0.5,"stim/33.jpeg",3,3,1,NA,"Instruments",2,1,"right","right",0.789999962,1,1,0,1,NA,NA,NA,NA,NA,NA,NA,NA,NA,NA,NA,NA,NA,NA,NA,NA,NA,NA,NA,NA,NA,NA,NA,NA
"126","stim/objects/Instruments/record_player2.png",7,69,7,0.3,"stim/61.jpeg",6,1,2,NA,"Instruments",2,1,"right","",NA,0,0,0,1,NA,NA,NA,NA,NA,NA,NA,NA,NA,NA,NA,NA,NA,NA,NA,NA,NA,NA,NA,NA,NA,NA,NA,NA
"100","stim/objects/HouseObjects/vacuumcleaner2.png",8,69,8,0.9,"stim/23.jpeg",2,3,3,NA,"HouseObjects",1,1,"left","left",0.659999847,1,1,0,1,NA,NA,NA,NA,NA,NA,NA,NA,NA,NA,NA,NA,NA,NA,NA,NA,NA,NA,NA,NA,NA,NA,NA,NA
"18","stim/objects/HouseObjects/safetypin2.png",9,69,9,0.7,"stim/62.jpeg",6,2,2,NA,"HouseObjects",1,4,"left","left",0.57799983,1,1,0,1,NA,NA,NA,NA,NA,NA,NA,NA,NA,NA,NA,NA,NA,NA,NA,NA,NA,NA,NA,NA,NA,NA,NA,NA
"76","stim/objects/HouseObjects/thread2.png",10,69,10,0.9,"stim/21.jpeg",2,1,3,NA,"HouseObjects",1,4,"left","right",0.693999767,0,0,0,1,NA,NA,NA,NA,NA,NA,NA,NA,NA,NA,NA,NA,NA,NA,NA,NA,NA,NA,NA,NA,NA,NA,NA,NA
"42","stim/objects/HouseObjects/scale2.png",11,69,11,0.7,"stim/64.jpeg",6,4,2,NA,"HouseObjects",1,4,"left","right",0.768999815,0,0,0,1,NA,NA,NA,NA,NA,NA,NA,NA,NA,NA,NA,NA,NA,NA,NA,NA,NA,NA,NA,NA,NA,NA,NA,NA
"158","stim/objects/Instruments/timbal2.png",12,69,12,0.9,"stim/11.jpeg",1,1,3,NA,"Instruments",2,1,"right","right",0.705999851,1,1,0,1,NA,NA,NA,NA,NA,NA,NA,NA,NA,NA,NA,NA,NA,NA,NA,NA,NA,NA,NA,NA,NA,NA,NA,NA
"130","stim/objects/Instruments/saxophone.png",13,69,13,0.5,"stim/32.jpeg",3,2,1,NA,"Instruments",2,3,"right","",NA,0,0,0,1,NA,NA,NA,NA,NA,NA,NA,NA,NA,NA,NA,NA,NA,NA,NA,NA,NA,NA,NA,NA,NA,NA,NA,NA
"168","stim/objects/Instruments/triangle.png",14,69,14,0.5,"stim/42.jpeg",4,2,1,NA,"Instruments",2,3,"right","",NA,0,0,0,1,NA,NA,NA,NA,NA,NA,NA,NA,NA,NA,NA,NA,NA,NA,NA,NA,NA,NA,NA,NA,NA,NA,NA,NA
"209","stim/objects/Instruments/tuba.png",15,69,15,0.7,"stim/51.jpeg",5,1,2,NA,"Instruments",2,2,"right","",NA,0,0,0,1,NA,NA,NA,NA,NA,NA,NA,NA,NA,NA,NA,NA,NA,NA,NA,NA,NA,NA,NA,NA,NA,NA,NA,NA
"66","stim/objects/HouseObjects/teapot2.png",16,69,16,0.1,"stim/13.jpeg",1,3,3,NA,"HouseObjects",1,1,"left","",NA,0,0,0,1,NA,NA,NA,NA,NA,NA,NA,NA,NA,NA,NA,NA,NA,NA,NA,NA,NA,NA,NA,NA,NA,NA,NA,NA
"225","stim/objects/Instruments/vuvuzela.png",17,69,17,0.7,"stim/53.jpeg",5,3,2,NA,"Instruments",2,4,"right","right",0.764999866,1,1,0,1,NA,NA,NA,NA,NA,NA,NA,NA,NA,NA,NA,NA,NA,NA,NA,NA,NA,NA,NA,NA,NA,NA,NA,NA
"61","stim/objects/HouseObjects/teapot.png",18,69,18,0.5,"stim/43.jpeg",4,3,1,NA,"HouseObjects",1,2,"left","right",0.465999842,0,0,0,1,NA,NA,NA,NA,NA,NA,NA,NA,NA,NA,NA,NA,NA,NA,NA,NA,NA,NA,NA,NA,NA,NA,NA,NA
"232","stim/objects/Instruments/vuvuzela2.png",19,69,19,0.1,"stim/23.jpeg",2,3,3,NA,"Instruments",2,2,"right","left",0.710999966,0,0,0,1,NA,NA,NA,NA,NA,NA,NA,NA,NA,NA,NA,NA,NA,NA,NA,NA,NA,NA,NA,NA,NA,NA,NA,NA
"88","stim/objects/HouseObjects/towel2.png",20,69,20,0.9,"stim/22.jpeg",2,2,3,NA,"HouseObjects",1,2,"left","left",0.697999954,1,1,0,1,NA,NA,NA,NA,NA,NA,NA,NA,NA,NA,NA,NA,NA,NA,NA,NA,NA,NA,NA,NA,NA,NA,NA,NA
"62","stim/objects/HouseObjects/teapot.png",21,69,21,0.5,"stim/43.jpeg",4,3,1,NA,"HouseObjects",1,4,"left","right",0.607000113,0,0,0,1,NA,NA,NA,NA,NA,NA,NA,NA,NA,NA,NA,NA,NA,NA,NA,NA,NA,NA,NA,NA,NA,NA,NA,NA
"1","stim/objects/HouseObjects/rug.png",22,69,22,0.5,"stim/31.jpeg",3,1,1,NA,"HouseObjects",1,3,"left","right",0.728999853,0,0,0,1,NA,NA,NA,NA,NA,NA,NA,NA,NA,NA,NA,NA,NA,NA,NA,NA,NA,NA,NA,NA,NA,NA,NA,NA
"101","stim/objects/HouseObjects/vacuumcleaner2.png",23,69,23,0.9,"stim/23.jpeg",2,3,3,NA,"HouseObjects",1,4,"left","left",0.654999971,1,1,0,1,NA,NA,NA,NA,NA,NA,NA,NA,NA,NA,NA,NA,NA,NA,NA,NA,NA,NA,NA,NA,NA,NA,NA,NA
"6","stim/objects/HouseObjects/rug2.png",24,69,24,0.7,"stim/61.jpeg",6,1,2,NA,"HouseObjects",1,3,"left","right",0.548000097,0,0,0,1,NA,NA,NA,NA,NA,NA,NA,NA,NA,NA,NA,NA,NA,NA,NA,NA,NA,NA,NA,NA,NA,NA,NA,NA
"112","stim/objects/HouseObjects/wateringcan2.png",25,69,25,0.9,"stim/24.jpeg",2,4,3,NA,"HouseObjects",1,1,"left","left",0.618999958,1,1,0,1,NA,NA,NA,NA,NA,NA,NA,NA,NA,NA,NA,NA,NA,NA,NA,NA,NA,NA,NA,NA,NA,NA,NA,NA
"226","stim/objects/Instruments/vuvuzela.png",26,69,26,0.7,"stim/53.jpeg",5,3,2,NA,"Instruments",2,1,"right","right",0.564999819,1,1,0,1,NA,NA,NA,NA,NA,NA,NA,NA,NA,NA,NA,NA,NA,NA,NA,NA,NA,NA,NA,NA,NA,NA,NA,NA
"233","stim/objects/Instruments/xylophone.png",27,69,27,0.7,"stim/54.jpeg",5,4,2,NA,"Instruments",2,1,"right","right",0.614999771,1,1,0,1,NA,NA,NA,NA,NA,NA,NA,NA,NA,NA,NA,NA,NA,NA,NA,NA,NA,NA,NA,NA,NA,NA,NA,NA
"150","stim/objects/Instruments/tambourine2.png",28,69,28,0.3,"stim/64.jpeg",6,4,2,NA,"Instruments",2,3,"right","left",0.498000145,0,0,0,1,NA,NA,NA,NA,NA,NA,NA,NA,NA,NA,NA,NA,NA,NA,NA,NA,NA,NA,NA,NA,NA,NA,NA,NA
"113","stim/objects/HouseObjects/wateringcan2.png",29,69,29,0.9,"stim/24.jpeg",2,4,3,NA,"HouseObjects",1,4,"left","left",0.596999884,1,1,0,1,NA,NA,NA,NA,NA,NA,NA,NA,NA,NA,NA,NA,NA,NA,NA,NA,NA,NA,NA,NA,NA,NA,NA,NA
"173","stim/objects/Instruments/triangle2.png",30,69,30,0.9,"stim/12.jpeg",1,2,3,NA,"Instruments",2,1,"right","right",0.553999901,1,1,0,1,NA,NA,NA,NA,NA,NA,NA,NA,NA,NA,NA,NA,NA,NA,NA,NA,NA,NA,NA,NA,NA,NA,NA,NA
"30","stim/objects/HouseObjects/saw2.png",31,69,31,0.7,"stim/63.jpeg",6,3,2,NA,"HouseObjects",1,3,"left","left",0.624999762,1,1,0,1,NA,NA,NA,NA,NA,NA,NA,NA,NA,NA,NA,NA,NA,NA,NA,NA,NA,NA,NA,NA,NA,NA,NA,NA
"134","stim/objects/Instruments/saxophone2.png",32,69,32,0.3,"stim/62.jpeg",6,2,2,NA,"Instruments",2,4,"right","right",0.729999781,1,1,0,1,NA,NA,NA,NA,NA,NA,NA,NA,NA,NA,NA,NA,NA,NA,NA,NA,NA,NA,NA,NA,NA,NA,NA,NA
"2","stim/objects/HouseObjects/rug.png",33,69,33,0.5,"stim/31.jpeg",3,1,1,NA,"HouseObjects",1,3,"left","right",0.562999964,0,0,0,1,NA,NA,NA,NA,NA,NA,NA,NA,NA,NA,NA,NA,NA,NA,NA,NA,NA,NA,NA,NA,NA,NA,NA,NA
"55","stim/objects/HouseObjects/spraybottle.png",34,69,34,0.5,"stim/42.jpeg",4,2,1,NA,"HouseObjects",1,4,"left","right",0.723999977,0,0,0,1,NA,NA,NA,NA,NA,NA,NA,NA,NA,NA,NA,NA,NA,NA,NA,NA,NA,NA,NA,NA,NA,NA,NA,NA
"43","stim/objects/HouseObjects/scale2.png",35,69,35,0.7,"stim/64.jpeg",6,4,2,NA,"HouseObjects",1,2,"left","right",0.755999804,0,0,0,1,NA,NA,NA,NA,NA,NA,NA,NA,NA,NA,NA,NA,NA,NA,NA,NA,NA,NA,NA,NA,NA,NA,NA,NA
"217","stim/objects/Instruments/violin.png",36,69,36,0.7,"stim/52.jpeg",5,2,2,NA,"Instruments",2,3,"right","right",0.598999977,1,1,0,1,NA,NA,NA,NA,NA,NA,NA,NA,NA,NA,NA,NA,NA,NA,NA,NA,NA,NA,NA,NA,NA,NA,NA,NA
"234","stim/objects/Instruments/xylophone.png",37,69,37,0.7,"stim/54.jpeg",5,4,2,NA,"Instruments",2,1,"right","right",0.780999899,1,1,0,1,NA,NA,NA,NA,NA,NA,NA,NA,NA,NA,NA,NA,NA,NA,NA,NA,NA,NA,NA,NA,NA,NA,NA,NA
"7","stim/objects/HouseObjects/rug2.png",38,69,38,0.7,"stim/61.jpeg",6,1,2,NA,"HouseObjects",1,3,"left","left",0.570999861,1,1,0,1,NA,NA,NA,NA,NA,NA,NA,NA,NA,NA,NA,NA,NA,NA,NA,NA,NA,NA,NA,NA,NA,NA,NA,NA
"186","stim/objects/Instruments/trombone2.png",39,69,39,0.9,"stim/13.jpeg",1,3,3,NA,"Instruments",2,2,"right","right",0.589999914,1,1,0,1,NA,NA,NA,NA,NA,NA,NA,NA,NA,NA,NA,NA,NA,NA,NA,NA,NA,NA,NA,NA,NA,NA,NA,NA
"218","stim/objects/Instruments/violin.png",40,69,40,0.7,"stim/52.jpeg",5,2,2,NA,"Instruments",2,2,"right","right",0.515999794,1,1,0,1,NA,NA,NA,NA,NA,NA,NA,NA,NA,NA,NA,NA,NA,NA,NA,NA,NA,NA,NA,NA,NA,NA,NA,NA
"31","stim/objects/HouseObjects/saw2.png",41,69,41,0.7,"stim/63.jpeg",6,3,2,NA,"HouseObjects",1,3,"left","right",0.756999969,0,0,0,1,NA,NA,NA,NA,NA,NA,NA,NA,NA,NA,NA,NA,NA,NA,NA,NA,NA,NA,NA,NA,NA,NA,NA,NA
"97","stim/objects/HouseObjects/vacuumcleaner.png",42,69,42,0.3,"stim/53.jpeg",5,3,2,NA,"HouseObjects",1,4,"left","right",0.563999891,0,0,0,1,NA,NA,NA,NA,NA,NA,NA,NA,NA,NA,NA,NA,NA,NA,NA,NA,NA,NA,NA,NA,NA,NA,NA,NA
"89","stim/objects/HouseObjects/towel2.png",43,69,43,0.9,"stim/22.jpeg",2,2,3,NA,"HouseObjects",1,3,"left","left",0.619999886,1,1,0,1,NA,NA,NA,NA,NA,NA,NA,NA,NA,NA,NA,NA,NA,NA,NA,NA,NA,NA,NA,NA,NA,NA,NA,NA
"32","stim/objects/HouseObjects/saw2.png",44,69,44,0.7,"stim/63.jpeg",6,3,2,NA,"HouseObjects",1,2,"left","right",0.670000076,0,0,0,1,NA,NA,NA,NA,NA,NA,NA,NA,NA,NA,NA,NA,NA,NA,NA,NA,NA,NA,NA,NA,NA,NA,NA,NA
"159","stim/objects/Instruments/timbal2.png",45,69,45,0.9,"stim/11.jpeg",1,1,3,NA,"Instruments",2,1,"right","right",0.59499979,1,1,0,1,NA,NA,NA,NA,NA,NA,NA,NA,NA,NA,NA,NA,NA,NA,NA,NA,NA,NA,NA,NA,NA,NA,NA,NA
"240","stim/objects/Instruments/xylophone2.png",46,69,46,0.1,"stim/24.jpeg",2,4,3,NA,"Instruments",2,3,"right","left",0.662999868,0,0,0,1,NA,NA,NA,NA,NA,NA,NA,NA,NA,NA,NA,NA,NA,NA,NA,NA,NA,NA,NA,NA,NA,NA,NA,NA
"33","stim/objects/HouseObjects/saw2.png",47,69,47,0.7,"stim/63.jpeg",6,3,2,NA,"HouseObjects",1,4,"left","",NA,0,0,0,1,NA,NA,NA,NA,NA,NA,NA,NA,NA,NA,NA,NA,NA,NA,NA,NA,NA,NA,NA,NA,NA,NA,NA,NA
"142","stim/objects/Instruments/speaker2.png",48,69,48,0.3,"stim/63.jpeg",6,3,2,NA,"Instruments",2,4,"right","left",0.634000063,0,0,0,1,NA,NA,NA,NA,NA,NA,NA,NA,NA,NA,NA,NA,NA,NA,NA,NA,NA,NA,NA,NA,NA,NA,NA,NA
"200","stim/objects/Instruments/trumpet2.png",49,69,49,0.9,"stim/14.jpeg",1,4,3,NA,"Instruments",2,3,"right","right",0.696000099,1,1,0,1,NA,NA,NA,NA,NA,NA,NA,NA,NA,NA,NA,NA,NA,NA,NA,NA,NA,NA,NA,NA,NA,NA,NA,NA
"187","stim/objects/Instruments/trombone2.png",50,69,50,0.9,"stim/13.jpeg",1,3,3,NA,"Instruments",2,2,"right","right",0.643999815,1,1,0,1,NA,NA,NA,NA,NA,NA,NA,NA,NA,NA,NA,NA,NA,NA,NA,NA,NA,NA,NA,NA,NA,NA,NA,NA
"67","stim/objects/HouseObjects/thermometer.png",51,69,51,0.5,"stim/44.jpeg",4,4,1,NA,"HouseObjects",1,3,"left","right",0.733999729,0,0,0,1,NA,NA,NA,NA,NA,NA,NA,NA,NA,NA,NA,NA,NA,NA,NA,NA,NA,NA,NA,NA,NA,NA,NA,NA
"25","stim/objects/HouseObjects/saw.png",52,69,52,0.5,"stim/33.jpeg",3,3,1,NA,"HouseObjects",1,2,"left","right",0.773999929,0,0,0,1,NA,NA,NA,NA,NA,NA,NA,NA,NA,NA,NA,NA,NA,NA,NA,NA,NA,NA,NA,NA,NA,NA,NA,NA
"210","stim/objects/Instruments/tuba.png",53,69,53,0.7,"stim/51.jpeg",5,1,2,NA,"Instruments",2,2,"right","",NA,0,0,0,1,NA,NA,NA,NA,NA,NA,NA,NA,NA,NA,NA,NA,NA,NA,NA,NA,NA,NA,NA,NA,NA,NA,NA,NA
"138","stim/objects/Instruments/speaker.png",54,69,54,0.5,"stim/33.jpeg",3,3,1,NA,"Instruments",2,1,"right","right",0.679000139,1,1,0,1,NA,NA,NA,NA,NA,NA,NA,NA,NA,NA,NA,NA,NA,NA,NA,NA,NA,NA,NA,NA,NA,NA,NA,NA
"90","stim/objects/HouseObjects/towel2.png",55,69,55,0.9,"stim/22.jpeg",2,2,3,NA,"HouseObjects",1,3,"left","left",0.559000015,1,1,0,1,NA,NA,NA,NA,NA,NA,NA,NA,NA,NA,NA,NA,NA,NA,NA,NA,NA,NA,NA,NA,NA,NA,NA,NA
"143","stim/objects/Instruments/speaker2.png",56,69,56,0.3,"stim/63.jpeg",6,3,2,NA,"Instruments",2,1,"right","left",0.698999882,0,0,0,1,NA,NA,NA,NA,NA,NA,NA,NA,NA,NA,NA,NA,NA,NA,NA,NA,NA,NA,NA,NA,NA,NA,NA,NA
"44","stim/objects/HouseObjects/scale2.png",57,69,57,0.7,"stim/64.jpeg",6,4,2,NA,"HouseObjects",1,4,"left","left",0.707000017,1,1,0,1,NA,NA,NA,NA,NA,NA,NA,NA,NA,NA,NA,NA,NA,NA,NA,NA,NA,NA,NA,NA,NA,NA,NA,NA
"121","stim/objects/Instruments/record_player.png",58,69,58,0.5,"stim/31.jpeg",3,1,1,NA,"Instruments",2,4,"right","left",0.680999994,0,0,0,1,NA,NA,NA,NA,NA,NA,NA,NA,NA,NA,NA,NA,NA,NA,NA,NA,NA,NA,NA,NA,NA,NA,NA,NA
"201","stim/objects/Instruments/trumpet2.png",59,69,59,0.9,"stim/14.jpeg",1,4,3,NA,"Instruments",2,2,"right","right",0.676000118,1,1,0,1,NA,NA,NA,NA,NA,NA,NA,NA,NA,NA,NA,NA,NA,NA,NA,NA,NA,NA,NA,NA,NA,NA,NA,NA
"77","stim/objects/HouseObjects/thread2.png",60,69,60,0.9,"stim/21.jpeg",2,1,3,NA,"HouseObjects",1,4,"left","",NA,0,0,0,1,NA,NA,NA,NA,NA,NA,NA,NA,NA,NA,NA,NA,NA,NA,NA,NA,NA,NA,NA,NA,NA,NA,NA,NA
"122","stim/objects/Instruments/record_player.png",61,69,61,0.5,"stim/31.jpeg",3,1,1,NA,"Instruments",2,1,"right","",NA,0,0,0,1,NA,NA,NA,NA,NA,NA,NA,NA,NA,NA,NA,NA,NA,NA,NA,NA,NA,NA,NA,NA,NA,NA,NA,NA
"181","stim/objects/Instruments/trombone.png",62,69,62,0.5,"stim/43.jpeg",4,3,1,NA,"Instruments",2,3,"right","left",0.535000086,0,0,0,1,NA,NA,NA,NA,NA,NA,NA,NA,NA,NA,NA,NA,NA,NA,NA,NA,NA,NA,NA,NA,NA,NA,NA,NA
"63","stim/objects/HouseObjects/teapot.png",63,69,63,0.5,"stim/43.jpeg",4,3,1,NA,"HouseObjects",1,4,"left","",NA,0,0,0,1,NA,NA,NA,NA,NA,NA,NA,NA,NA,NA,NA,NA,NA,NA,NA,NA,NA,NA,NA,NA,NA,NA,NA,NA
"216","stim/objects/Instruments/tuba2.png",64,69,64,0.1,"stim/21.jpeg",2,1,3,NA,"Instruments",2,1,"right","left",0.437000036,0,0,0,1,NA,NA,NA,NA,NA,NA,NA,NA,NA,NA,NA,NA,NA,NA,NA,NA,NA,NA,NA,NA,NA,NA,NA,NA
"174","stim/objects/Instruments/triangle2.png",65,69,65,0.9,"stim/12.jpeg",1,2,3,NA,"Instruments",2,2,"right","right",0.348999739,1,1,0,1,NA,NA,NA,NA,NA,NA,NA,NA,NA,NA,NA,NA,NA,NA,NA,NA,NA,NA,NA,NA,NA,NA,NA,NA
"38","stim/objects/HouseObjects/scale.png",66,69,66,0.5,"stim/34.jpeg",3,4,1,NA,"HouseObjects",1,2,"left","right",0.531999826,0,0,0,1,NA,NA,NA,NA,NA,NA,NA,NA,NA,NA,NA,NA,NA,NA,NA,NA,NA,NA,NA,NA,NA,NA,NA,NA
"144","stim/objects/Instruments/speaker2.png",67,69,67,0.3,"stim/63.jpeg",6,3,2,NA,"Instruments",2,3,"right","left",0.762000084,0,0,0,1,NA,NA,NA,NA,NA,NA,NA,NA,NA,NA,NA,NA,NA,NA,NA,NA,NA,NA,NA,NA,NA,NA,NA,NA
"188","stim/objects/Instruments/trombone2.png",68,69,68,0.9,"stim/13.jpeg",1,3,3,NA,"Instruments",2,3,"right","right",0.56099987,1,1,0,1,NA,NA,NA,NA,NA,NA,NA,NA,NA,NA,NA,NA,NA,NA,NA,NA,NA,NA,NA,NA,NA,NA,NA,NA
"202","stim/objects/Instruments/trumpet2.png",69,69,69,0.9,"stim/14.jpeg",1,4,3,NA,"Instruments",2,1,"right","right",0.628000021,1,1,0,1,NA,NA,NA,NA,NA,NA,NA,NA,NA,NA,NA,NA,NA,NA,NA,NA,NA,NA,NA,NA,NA,NA,NA,NA
"34","stim/objects/HouseObjects/saw2.png",70,69,70,0.7,"stim/63.jpeg",6,3,2,NA,"HouseObjects",1,4,"left","left",0.618000031,1,1,0,1,NA,NA,NA,NA,NA,NA,NA,NA,NA,NA,NA,NA,NA,NA,NA,NA,NA,NA,NA,NA,NA,NA,NA,NA
"114","stim/objects/HouseObjects/wateringcan2.png",71,69,71,0.9,"stim/24.jpeg",2,4,3,NA,"HouseObjects",1,3,"left","left",0.679999828,1,1,0,1,NA,NA,NA,NA,NA,NA,NA,NA,NA,NA,NA,NA,NA,NA,NA,NA,NA,NA,NA,NA,NA,NA,NA,NA
"109","stim/objects/HouseObjects/wateringcan.png",72,69,72,0.3,"stim/54.jpeg",5,4,2,NA,"HouseObjects",1,2,"left","right",0.651000023,0,0,0,1,NA,NA,NA,NA,NA,NA,NA,NA,NA,NA,NA,NA,NA,NA,NA,NA,NA,NA,NA,NA,NA,NA,NA,NA
"19","stim/objects/HouseObjects/safetypin2.png",73,69,73,0.7,"stim/62.jpeg",6,2,2,NA,"HouseObjects",1,1,"left","left",0.838999987,1,1,0,1,NA,NA,NA,NA,NA,NA,NA,NA,NA,NA,NA,NA,NA,NA,NA,NA,NA,NA,NA,NA,NA,NA,NA,NA
"182","stim/objects/Instruments/trombone.png",74,69,74,0.5,"stim/43.jpeg",4,3,1,NA,"Instruments",2,4,"right","left",0.573999882,0,0,0,1,NA,NA,NA,NA,NA,NA,NA,NA,NA,NA,NA,NA,NA,NA,NA,NA,NA,NA,NA,NA,NA,NA,NA,NA
"195","stim/objects/Instruments/trumpet.png",75,69,75,0.5,"stim/44.jpeg",4,4,1,NA,"Instruments",2,4,"right","right",0.666999817,1,1,0,1,NA,NA,NA,NA,NA,NA,NA,NA,NA,NA,NA,NA,NA,NA,NA,NA,NA,NA,NA,NA,NA,NA,NA,NA
"91","stim/objects/HouseObjects/towel2.png",76,69,76,0.9,"stim/22.jpeg",2,2,3,NA,"HouseObjects",1,2,"left","left",0.583999872,1,1,0,1,NA,NA,NA,NA,NA,NA,NA,NA,NA,NA,NA,NA,NA,NA,NA,NA,NA,NA,NA,NA,NA,NA,NA,NA
"54","stim/objects/HouseObjects/sponge2.png",77,69,77,0.1,"stim/11.jpeg",1,1,3,NA,"HouseObjects",1,2,"left","right",0.662999868,0,0,0,1,NA,NA,NA,NA,NA,NA,NA,NA,NA,NA,NA,NA,NA,NA,NA,NA,NA,NA,NA,NA,NA,NA,NA,NA
"227","stim/objects/Instruments/vuvuzela.png",78,69,78,0.7,"stim/53.jpeg",5,3,2,NA,"Instruments",2,2,"right","right",0.605999947,1,1,0,1,NA,NA,NA,NA,NA,NA,NA,NA,NA,NA,NA,NA,NA,NA,NA,NA,NA,NA,NA,NA,NA,NA,NA,NA
"203","stim/objects/Instruments/trumpet2.png",79,69,79,0.9,"stim/14.jpeg",1,4,3,NA,"Instruments",2,1,"right","right",0.710999966,1,1,0,1,NA,NA,NA,NA,NA,NA,NA,NA,NA,NA,NA,NA,NA,NA,NA,NA,NA,NA,NA,NA,NA,NA,NA,NA
"39","stim/objects/HouseObjects/scale.png",80,69,80,0.5,"stim/34.jpeg",3,4,1,NA,"HouseObjects",1,3,"left","",NA,0,0,0,1,NA,NA,NA,NA,NA,NA,NA,NA,NA,NA,NA,NA,NA,NA,NA,NA,NA,NA,NA,NA,NA,NA,NA,NA
"20","stim/objects/HouseObjects/safetypin2.png",81,69,81,0.7,"stim/62.jpeg",6,2,2,NA,"HouseObjects",1,3,"left","left",0.700000048,1,1,0,1,NA,NA,NA,NA,NA,NA,NA,NA,NA,NA,NA,NA,NA,NA,NA,NA,NA,NA,NA,NA,NA,NA,NA,NA
"115","stim/objects/HouseObjects/wateringcan2.png",82,69,82,0.9,"stim/24.jpeg",2,4,3,NA,"HouseObjects",1,4,"left","left",0.55099988,1,1,0,1,NA,NA,NA,NA,NA,NA,NA,NA,NA,NA,NA,NA,NA,NA,NA,NA,NA,NA,NA,NA,NA,NA,NA,NA
"49","stim/objects/HouseObjects/sponge.png",83,69,83,0.5,"stim/41.jpeg",4,1,1,NA,"HouseObjects",1,3,"left","left",0.612999916,1,1,0,1,NA,NA,NA,NA,NA,NA,NA,NA,NA,NA,NA,NA,NA,NA,NA,NA,NA,NA,NA,NA,NA,NA,NA,NA
"123","stim/objects/Instruments/record_player.png",84,69,84,0.5,"stim/31.jpeg",3,1,1,NA,"Instruments",2,1,"right","right",0.812999964,1,1,0,1,NA,NA,NA,NA,NA,NA,NA,NA,NA,NA,NA,NA,NA,NA,NA,NA,NA,NA,NA,NA,NA,NA,NA,NA
"45","stim/objects/HouseObjects/scale2.png",85,69,85,0.7,"stim/64.jpeg",6,4,2,NA,"HouseObjects",1,4,"left","left",0.602999926,1,1,0,1,NA,NA,NA,NA,NA,NA,NA,NA,NA,NA,NA,NA,NA,NA,NA,NA,NA,NA,NA,NA,NA,NA,NA,NA
"135","stim/objects/Instruments/saxophone2.png",86,69,86,0.3,"stim/62.jpeg",6,2,2,NA,"Instruments",2,3,"right","left",0.575000048,0,0,0,1,NA,NA,NA,NA,NA,NA,NA,NA,NA,NA,NA,NA,NA,NA,NA,NA,NA,NA,NA,NA,NA,NA,NA,NA
"13","stim/objects/HouseObjects/safetypin.png",87,69,87,0.5,"stim/32.jpeg",3,2,1,NA,"HouseObjects",1,4,"left","right",0.608999968,0,0,0,1,NA,NA,NA,NA,NA,NA,NA,NA,NA,NA,NA,NA,NA,NA,NA,NA,NA,NA,NA,NA,NA,NA,NA,NA
"46","stim/objects/HouseObjects/scale2.png",88,69,88,0.7,"stim/64.jpeg",6,4,2,NA,"HouseObjects",1,2,"left","left",0.519999981,1,1,0,1,NA,NA,NA,NA,NA,NA,NA,NA,NA,NA,NA,NA,NA,NA,NA,NA,NA,NA,NA,NA,NA,NA,NA,NA
"14","stim/objects/HouseObjects/safetypin.png",89,69,89,0.5,"stim/32.jpeg",3,2,1,NA,"HouseObjects",1,4,"left","right",0.638999939,0,0,0,1,NA,NA,NA,NA,NA,NA,NA,NA,NA,NA,NA,NA,NA,NA,NA,NA,NA,NA,NA,NA,NA,NA,NA,NA
"47","stim/objects/HouseObjects/scale2.png",90,69,90,0.7,"stim/64.jpeg",6,4,2,NA,"HouseObjects",1,3,"left","left",0.517999887,1,1,0,1,NA,NA,NA,NA,NA,NA,NA,NA,NA,NA,NA,NA,NA,NA,NA,NA,NA,NA,NA,NA,NA,NA,NA,NA
"64","stim/objects/HouseObjects/teapot.png",91,69,91,0.5,"stim/43.jpeg",4,3,1,NA,"HouseObjects",1,4,"left","",NA,0,0,0,1,NA,NA,NA,NA,NA,NA,NA,NA,NA,NA,NA,NA,NA,NA,NA,NA,NA,NA,NA,NA,NA,NA,NA,NA
"175","stim/objects/Instruments/triangle2.png",92,69,92,0.9,"stim/12.jpeg",1,2,3,NA,"Instruments",2,1,"right","right",0.625999928,1,1,0,1,NA,NA,NA,NA,NA,NA,NA,NA,NA,NA,NA,NA,NA,NA,NA,NA,NA,NA,NA,NA,NA,NA,NA,NA
"196","stim/objects/Instruments/trumpet.png",93,69,93,0.5,"stim/44.jpeg",4,4,1,NA,"Instruments",2,3,"right","right",0.766000032,1,1,0,1,NA,NA,NA,NA,NA,NA,NA,NA,NA,NA,NA,NA,NA,NA,NA,NA,NA,NA,NA,NA,NA,NA,NA,NA
"102","stim/objects/HouseObjects/vacuumcleaner2.png",94,69,94,0.9,"stim/23.jpeg",2,3,3,NA,"HouseObjects",1,4,"left","left",0.520999908,1,1,0,1,NA,NA,NA,NA,NA,NA,NA,NA,NA,NA,NA,NA,NA,NA,NA,NA,NA,NA,NA,NA,NA,NA,NA,NA
"145","stim/objects/Instruments/tambourine.png",95,69,95,0.5,"stim/34.jpeg",3,4,1,NA,"Instruments",2,4,"right","right",0.677000046,1,1,0,1,NA,NA,NA,NA,NA,NA,NA,NA,NA,NA,NA,NA,NA,NA,NA,NA,NA,NA,NA,NA,NA,NA,NA,NA
"153","stim/objects/Instruments/timbal.png",96,69,96,0.5,"stim/41.jpeg",4,1,1,NA,"Instruments",2,4,"right","left",0.601000071,0,0,0,1,NA,NA,NA,NA,NA,NA,NA,NA,NA,NA,NA,NA,NA,NA,NA,NA,NA,NA,NA,NA,NA,NA,NA,NA
"74","stim/objects/HouseObjects/thread.png",97,69,97,0.3,"stim/51.jpeg",5,1,2,NA,"HouseObjects",1,2,"left","left",0.599999905,1,1,0,1,NA,NA,NA,NA,NA,NA,NA,NA,NA,NA,NA,NA,NA,NA,NA,NA,NA,NA,NA,NA,NA,NA,NA,NA
"92","stim/objects/HouseObjects/towel2.png",98,69,98,0.9,"stim/22.jpeg",2,2,3,NA,"HouseObjects",1,4,"left","left",0.662999868,1,1,0,1,NA,NA,NA,NA,NA,NA,NA,NA,NA,NA,NA,NA,NA,NA,NA,NA,NA,NA,NA,NA,NA,NA,NA,NA
"85","stim/objects/HouseObjects/towel.png",99,69,99,0.3,"stim/52.jpeg",5,2,2,NA,"HouseObjects",1,4,"left","right",0.572999954,0,0,0,1,NA,NA,NA,NA,NA,NA,NA,NA,NA,NA,NA,NA,NA,NA,NA,NA,NA,NA,NA,NA,NA,NA,NA,NA
"146","stim/objects/Instruments/tambourine.png",100,69,100,0.5,"stim/34.jpeg",3,4,1,NA,"Instruments",2,2,"right","left",0.549000025,0,0,0,1,NA,NA,NA,NA,NA,NA,NA,NA,NA,NA,NA,NA,NA,NA,NA,NA,NA,NA,NA,NA,NA,NA,NA,NA
"169","stim/objects/Instruments/triangle.png",101,69,101,0.5,"stim/42.jpeg",4,2,1,NA,"Instruments",2,1,"right","right",0.615999937,1,1,0,1,NA,NA,NA,NA,NA,NA,NA,NA,NA,NA,NA,NA,NA,NA,NA,NA,NA,NA,NA,NA,NA,NA,NA,NA
"211","stim/objects/Instruments/tuba.png",102,69,102,0.7,"stim/51.jpeg",5,1,2,NA,"Instruments",2,3,"right","left",0.693999767,0,0,0,1,NA,NA,NA,NA,NA,NA,NA,NA,NA,NA,NA,NA,NA,NA,NA,NA,NA,NA,NA,NA,NA,NA,NA,NA
"219","stim/objects/Instruments/violin.png",103,69,103,0.7,"stim/52.jpeg",5,2,2,NA,"Instruments",2,2,"right","right",0.539000034,1,1,0,1,NA,NA,NA,NA,NA,NA,NA,NA,NA,NA,NA,NA,NA,NA,NA,NA,NA,NA,NA,NA,NA,NA,NA,NA
"68","stim/objects/HouseObjects/thermometer.png",104,69,104,0.5,"stim/44.jpeg",4,4,1,NA,"HouseObjects",1,2,"left","right",0.539999962,0,0,0,1,NA,NA,NA,NA,NA,NA,NA,NA,NA,NA,NA,NA,NA,NA,NA,NA,NA,NA,NA,NA,NA,NA,NA,NA
"69","stim/objects/HouseObjects/thermometer.png",105,69,105,0.5,"stim/44.jpeg",4,4,1,NA,"HouseObjects",1,1,"left","right",0.570999861,0,0,0,1,NA,NA,NA,NA,NA,NA,NA,NA,NA,NA,NA,NA,NA,NA,NA,NA,NA,NA,NA,NA,NA,NA,NA,NA
"127","stim/objects/Instruments/record_player2.png",106,69,106,0.3,"stim/61.jpeg",6,1,2,NA,"Instruments",2,3,"right","right",0.818000078,1,1,0,1,NA,NA,NA,NA,NA,NA,NA,NA,NA,NA,NA,NA,NA,NA,NA,NA,NA,NA,NA,NA,NA,NA,NA,NA
"21","stim/objects/HouseObjects/safetypin2.png",107,69,107,0.7,"stim/62.jpeg",6,2,2,NA,"HouseObjects",1,2,"left","left",0.588999987,1,1,0,1,NA,NA,NA,NA,NA,NA,NA,NA,NA,NA,NA,NA,NA,NA,NA,NA,NA,NA,NA,NA,NA,NA,NA,NA
"228","stim/objects/Instruments/vuvuzela.png",108,69,108,0.7,"stim/53.jpeg",5,3,2,NA,"Instruments",2,4,"right","right",0.678999901,1,1,0,1,NA,NA,NA,NA,NA,NA,NA,NA,NA,NA,NA,NA,NA,NA,NA,NA,NA,NA,NA,NA,NA,NA,NA,NA
"35","stim/objects/HouseObjects/saw2.png",109,69,109,0.7,"stim/63.jpeg",6,3,2,NA,"HouseObjects",1,3,"left","left",0.780999899,1,1,0,1,NA,NA,NA,NA,NA,NA,NA,NA,NA,NA,NA,NA,NA,NA,NA,NA,NA,NA,NA,NA,NA,NA,NA,NA
"160","stim/objects/Instruments/timbal2.png",110,69,110,0.9,"stim/11.jpeg",1,1,3,NA,"Instruments",2,4,"right","right",0.595999956,1,1,0,1,NA,NA,NA,NA,NA,NA,NA,NA,NA,NA,NA,NA,NA,NA,NA,NA,NA,NA,NA,NA,NA,NA,NA,NA
"36","stim/objects/HouseObjects/saw2.png",111,69,111,0.7,"stim/63.jpeg",6,3,2,NA,"HouseObjects",1,4,"left","left",0.621999979,1,1,0,1,NA,NA,NA,NA,NA,NA,NA,NA,NA,NA,NA,NA,NA,NA,NA,NA,NA,NA,NA,NA,NA,NA,NA,NA
"116","stim/objects/HouseObjects/wateringcan2.png",112,69,112,0.9,"stim/24.jpeg",2,4,3,NA,"HouseObjects",1,2,"left","left",0.631000042,1,1,0,1,NA,NA,NA,NA,NA,NA,NA,NA,NA,NA,NA,NA,NA,NA,NA,NA,NA,NA,NA,NA,NA,NA,NA,NA
"78","stim/objects/HouseObjects/thread2.png",113,69,113,0.9,"stim/21.jpeg",2,1,3,NA,"HouseObjects",1,4,"left","",NA,0,0,0,1,NA,NA,NA,NA,NA,NA,NA,NA,NA,NA,NA,NA,NA,NA,NA,NA,NA,NA,NA,NA,NA,NA,NA,NA
"40","stim/objects/HouseObjects/scale.png",114,69,114,0.5,"stim/34.jpeg",3,4,1,NA,"HouseObjects",1,3,"left","right",0.744999886,0,0,0,1,NA,NA,NA,NA,NA,NA,NA,NA,NA,NA,NA,NA,NA,NA,NA,NA,NA,NA,NA,NA,NA,NA,NA,NA
"22","stim/objects/HouseObjects/safetypin2.png",115,69,115,0.7,"stim/62.jpeg",6,2,2,NA,"HouseObjects",1,2,"left","left",0.438999891,1,1,0,1,NA,NA,NA,NA,NA,NA,NA,NA,NA,NA,NA,NA,NA,NA,NA,NA,NA,NA,NA,NA,NA,NA,NA,NA
"50","stim/objects/HouseObjects/sponge.png",116,69,116,0.5,"stim/41.jpeg",4,1,1,NA,"HouseObjects",1,3,"left","right",0.611999989,0,0,0,1,NA,NA,NA,NA,NA,NA,NA,NA,NA,NA,NA,NA,NA,NA,NA,NA,NA,NA,NA,NA,NA,NA,NA,NA
"48","stim/objects/HouseObjects/scale2.png",117,69,117,0.7,"stim/64.jpeg",6,4,2,NA,"HouseObjects",1,4,"left","left",0.555999994,1,1,0,1,NA,NA,NA,NA,NA,NA,NA,NA,NA,NA,NA,NA,NA,NA,NA,NA,NA,NA,NA,NA,NA,NA,NA,NA
"189","stim/objects/Instruments/trombone2.png",118,69,118,0.9,"stim/13.jpeg",1,3,3,NA,"Instruments",2,2,"right","right",0.673000097,1,1,0,1,NA,NA,NA,NA,NA,NA,NA,NA,NA,NA,NA,NA,NA,NA,NA,NA,NA,NA,NA,NA,NA,NA,NA,NA
"131","stim/objects/Instruments/saxophone.png",119,69,119,0.5,"stim/32.jpeg",3,2,1,NA,"Instruments",2,4,"right","left",0.645999908,0,0,0,1,NA,NA,NA,NA,NA,NA,NA,NA,NA,NA,NA,NA,NA,NA,NA,NA,NA,NA,NA,NA,NA,NA,NA,NA
"204","stim/objects/Instruments/trumpet2.png",120,69,120,0.9,"stim/14.jpeg",1,4,3,NA,"Instruments",2,3,"right","right",0.612999916,1,1,0,1,NA,NA,NA,NA,NA,NA,NA,NA,NA,NA,NA,NA,NA,NA,NA,NA,NA,NA,NA,NA,NA,NA,NA,NA
"93","stim/objects/HouseObjects/towel2.png",121,69,121,0.9,"stim/22.jpeg",2,2,3,NA,"HouseObjects",1,3,"left","left",0.635999918,1,1,0,1,NA,NA,NA,NA,NA,NA,NA,NA,NA,NA,NA,NA,NA,NA,NA,NA,NA,NA,NA,NA,NA,NA,NA,NA
"205","stim/objects/Instruments/trumpet2.png",122,69,122,0.9,"stim/14.jpeg",1,4,3,NA,"Instruments",2,4,"right","right",0.584000111,1,1,0,1,NA,NA,NA,NA,NA,NA,NA,NA,NA,NA,NA,NA,NA,NA,NA,NA,NA,NA,NA,NA,NA,NA,NA,NA
"26","stim/objects/HouseObjects/saw.png",123,69,123,0.5,"stim/33.jpeg",3,3,1,NA,"HouseObjects",1,3,"left","right",0.779999971,0,0,0,1,NA,NA,NA,NA,NA,NA,NA,NA,NA,NA,NA,NA,NA,NA,NA,NA,NA,NA,NA,NA,NA,NA,NA,NA
"220","stim/objects/Instruments/violin.png",124,69,124,0.7,"stim/52.jpeg",5,2,2,NA,"Instruments",2,2,"right","left",0.485999823,0,0,0,1,NA,NA,NA,NA,NA,NA,NA,NA,NA,NA,NA,NA,NA,NA,NA,NA,NA,NA,NA,NA,NA,NA,NA,NA
"86","stim/objects/HouseObjects/towel.png",125,69,125,0.3,"stim/52.jpeg",5,2,2,NA,"HouseObjects",1,2,"left","right",0.794999838,0,0,0,1,NA,NA,NA,NA,NA,NA,NA,NA,NA,NA,NA,NA,NA,NA,NA,NA,NA,NA,NA,NA,NA,NA,NA,NA
"221","stim/objects/Instruments/violin.png",126,69,126,0.7,"stim/52.jpeg",5,2,2,NA,"Instruments",2,4,"right","",NA,0,0,0,1,NA,NA,NA,NA,NA,NA,NA,NA,NA,NA,NA,NA,NA,NA,NA,NA,NA,NA,NA,NA,NA,NA,NA,NA
"98","stim/objects/HouseObjects/vacuumcleaner.png",127,69,127,0.3,"stim/53.jpeg",5,3,2,NA,"HouseObjects",1,3,"left","",NA,0,0,0,1,NA,NA,NA,NA,NA,NA,NA,NA,NA,NA,NA,NA,NA,NA,NA,NA,NA,NA,NA,NA,NA,NA,NA,NA
"229","stim/objects/Instruments/vuvuzela.png",128,69,128,0.7,"stim/53.jpeg",5,3,2,NA,"Instruments",2,1,"right","right",0.625999928,1,1,0,1,NA,NA,NA,NA,NA,NA,NA,NA,NA,NA,NA,NA,NA,NA,NA,NA,NA,NA,NA,NA,NA,NA,NA,NA
"27","stim/objects/HouseObjects/saw.png",129,69,129,0.5,"stim/33.jpeg",3,3,1,NA,"HouseObjects",1,1,"left","right",0.805999994,0,0,0,1,NA,NA,NA,NA,NA,NA,NA,NA,NA,NA,NA,NA,NA,NA,NA,NA,NA,NA,NA,NA,NA,NA,NA,NA
"51","stim/objects/HouseObjects/sponge.png",130,69,130,0.5,"stim/41.jpeg",4,1,1,NA,"HouseObjects",1,2,"left","left",0.754999876,1,1,0,1,NA,NA,NA,NA,NA,NA,NA,NA,NA,NA,NA,NA,NA,NA,NA,NA,NA,NA,NA,NA,NA,NA,NA,NA
"139","stim/objects/Instruments/speaker.png",131,69,131,0.5,"stim/33.jpeg",3,3,1,NA,"Instruments",2,3,"right","right",0.844000101,1,1,0,1,NA,NA,NA,NA,NA,NA,NA,NA,NA,NA,NA,NA,NA,NA,NA,NA,NA,NA,NA,NA,NA,NA,NA,NA
"117","stim/objects/HouseObjects/wateringcan2.png",132,69,132,0.9,"stim/24.jpeg",2,4,3,NA,"HouseObjects",1,4,"left","left",0.502999783,1,1,0,1,NA,NA,NA,NA,NA,NA,NA,NA,NA,NA,NA,NA,NA,NA,NA,NA,NA,NA,NA,NA,NA,NA,NA,NA
"235","stim/objects/Instruments/xylophone.png",133,69,133,0.7,"stim/54.jpeg",5,4,2,NA,"Instruments",2,1,"right","right",0.527999878,1,1,0,1,NA,NA,NA,NA,NA,NA,NA,NA,NA,NA,NA,NA,NA,NA,NA,NA,NA,NA,NA,NA,NA,NA,NA,NA
"190","stim/objects/Instruments/trombone2.png",134,69,134,0.9,"stim/13.jpeg",1,3,3,NA,"Instruments",2,3,"right","right",0.627000093,1,1,0,1,NA,NA,NA,NA,NA,NA,NA,NA,NA,NA,NA,NA,NA,NA,NA,NA,NA,NA,NA,NA,NA,NA,NA,NA
"118","stim/objects/HouseObjects/wateringcan2.png",135,69,135,0.9,"stim/24.jpeg",2,4,3,NA,"HouseObjects",1,2,"left","left",0.546999931,1,1,0,1,NA,NA,NA,NA,NA,NA,NA,NA,NA,NA,NA,NA,NA,NA,NA,NA,NA,NA,NA,NA,NA,NA,NA,NA
"56","stim/objects/HouseObjects/spraybottle.png",136,69,136,0.5,"stim/42.jpeg",4,2,1,NA,"HouseObjects",1,4,"left","right",0.677000046,0,0,0,1,NA,NA,NA,NA,NA,NA,NA,NA,NA,NA,NA,NA,NA,NA,NA,NA,NA,NA,NA,NA,NA,NA,NA,NA
"161","stim/objects/Instruments/timbal2.png",137,69,137,0.9,"stim/11.jpeg",1,1,3,NA,"Instruments",2,1,"right","right",0.671000004,1,1,0,1,NA,NA,NA,NA,NA,NA,NA,NA,NA,NA,NA,NA,NA,NA,NA,NA,NA,NA,NA,NA,NA,NA,NA,NA
"119","stim/objects/HouseObjects/wateringcan2.png",138,69,138,0.9,"stim/24.jpeg",2,4,3,NA,"HouseObjects",1,3,"left","left",0.534999847,1,1,0,1,NA,NA,NA,NA,NA,NA,NA,NA,NA,NA,NA,NA,NA,NA,NA,NA,NA,NA,NA,NA,NA,NA,NA,NA
"162","stim/objects/Instruments/timbal2.png",139,69,139,0.9,"stim/11.jpeg",1,1,3,NA,"Instruments",2,2,"right","right",0.56400013,1,1,0,1,NA,NA,NA,NA,NA,NA,NA,NA,NA,NA,NA,NA,NA,NA,NA,NA,NA,NA,NA,NA,NA,NA,NA,NA
"212","stim/objects/Instruments/tuba.png",140,69,140,0.7,"stim/51.jpeg",5,1,2,NA,"Instruments",2,1,"right","right",0.565000057,1,1,0,1,NA,NA,NA,NA,NA,NA,NA,NA,NA,NA,NA,NA,NA,NA,NA,NA,NA,NA,NA,NA,NA,NA,NA,NA
"213","stim/objects/Instruments/tuba.png",141,69,141,0.7,"stim/51.jpeg",5,1,2,NA,"Instruments",2,2,"right","right",0.77699995,1,1,0,1,NA,NA,NA,NA,NA,NA,NA,NA,NA,NA,NA,NA,NA,NA,NA,NA,NA,NA,NA,NA,NA,NA,NA,NA
"79","stim/objects/HouseObjects/thread2.png",142,69,142,0.9,"stim/21.jpeg",2,1,3,NA,"HouseObjects",1,2,"left","left",0.529999971,1,1,0,1,NA,NA,NA,NA,NA,NA,NA,NA,NA,NA,NA,NA,NA,NA,NA,NA,NA,NA,NA,NA,NA,NA,NA,NA
"170","stim/objects/Instruments/triangle.png",143,69,143,0.5,"stim/42.jpeg",4,2,1,NA,"Instruments",2,2,"right","right",0.664000034,1,1,0,1,NA,NA,NA,NA,NA,NA,NA,NA,NA,NA,NA,NA,NA,NA,NA,NA,NA,NA,NA,NA,NA,NA,NA,NA
"15","stim/objects/HouseObjects/safetypin.png",144,69,144,0.5,"stim/32.jpeg",3,2,1,NA,"HouseObjects",1,3,"left","left",0.638999939,1,1,0,1,NA,NA,NA,NA,NA,NA,NA,NA,NA,NA,NA,NA,NA,NA,NA,NA,NA,NA,NA,NA,NA,NA,NA,NA
"154","stim/objects/Instruments/timbal.png",145,69,145,0.5,"stim/41.jpeg",4,1,1,NA,"Instruments",2,2,"right","right",0.595999956,1,1,0,1,NA,NA,NA,NA,NA,NA,NA,NA,NA,NA,NA,NA,NA,NA,NA,NA,NA,NA,NA,NA,NA,NA,NA,NA
"155","stim/objects/Instruments/timbal.png",146,69,146,0.5,"stim/41.jpeg",4,1,1,NA,"Instruments",2,1,"right","right",0.654000044,1,1,0,1,NA,NA,NA,NA,NA,NA,NA,NA,NA,NA,NA,NA,NA,NA,NA,NA,NA,NA,NA,NA,NA,NA,NA,NA
"191","stim/objects/Instruments/trombone2.png",147,69,147,0.9,"stim/13.jpeg",1,3,3,NA,"Instruments",2,3,"right","right",0.691999912,1,1,0,1,NA,NA,NA,NA,NA,NA,NA,NA,NA,NA,NA,NA,NA,NA,NA,NA,NA,NA,NA,NA,NA,NA,NA,NA
"156","stim/objects/Instruments/timbal.png",148,69,148,0.5,"stim/41.jpeg",4,1,1,NA,"Instruments",2,2,"right","right",0.828999996,1,1,0,1,NA,NA,NA,NA,NA,NA,NA,NA,NA,NA,NA,NA,NA,NA,NA,NA,NA,NA,NA,NA,NA,NA,NA,NA
"120","stim/objects/HouseObjects/wateringcan2.png",149,69,149,0.9,"stim/24.jpeg",2,4,3,NA,"HouseObjects",1,1,"left","left",0.552999973,1,1,0,1,NA,NA,NA,NA,NA,NA,NA,NA,NA,NA,NA,NA,NA,NA,NA,NA,NA,NA,NA,NA,NA,NA,NA,NA
"183","stim/objects/Instruments/trombone.png",150,69,150,0.5,"stim/43.jpeg",4,3,1,NA,"Instruments",2,3,"right","right",0.686000109,1,1,0,1,NA,NA,NA,NA,NA,NA,NA,NA,NA,NA,NA,NA,NA,NA,NA,NA,NA,NA,NA,NA,NA,NA,NA,NA
"224","stim/objects/Instruments/violin2.png",151,69,151,0.1,"stim/22.jpeg",2,2,3,NA,"Instruments",2,4,"right","right",0.450999975,1,1,0,1,NA,NA,NA,NA,NA,NA,NA,NA,NA,NA,NA,NA,NA,NA,NA,NA,NA,NA,NA,NA,NA,NA,NA,NA
"176","stim/objects/Instruments/triangle2.png",152,69,152,0.9,"stim/12.jpeg",1,2,3,NA,"Instruments",2,3,"right","right",0.661000013,1,1,0,1,NA,NA,NA,NA,NA,NA,NA,NA,NA,NA,NA,NA,NA,NA,NA,NA,NA,NA,NA,NA,NA,NA,NA,NA
"103","stim/objects/HouseObjects/vacuumcleaner2.png",153,69,153,0.9,"stim/23.jpeg",2,3,3,NA,"HouseObjects",1,2,"left","left",0.573999882,1,1,0,1,NA,NA,NA,NA,NA,NA,NA,NA,NA,NA,NA,NA,NA,NA,NA,NA,NA,NA,NA,NA,NA,NA,NA,NA
"236","stim/objects/Instruments/xylophone.png",154,69,154,0.7,"stim/54.jpeg",5,4,2,NA,"Instruments",2,2,"right","right",0.781000137,1,1,0,1,NA,NA,NA,NA,NA,NA,NA,NA,NA,NA,NA,NA,NA,NA,NA,NA,NA,NA,NA,NA,NA,NA,NA,NA
"72","stim/objects/HouseObjects/thermometer2.png",155,69,155,0.1,"stim/14.jpeg",1,4,3,NA,"HouseObjects",1,3,"left","right",0.686999798,0,0,0,1,NA,NA,NA,NA,NA,NA,NA,NA,NA,NA,NA,NA,NA,NA,NA,NA,NA,NA,NA,NA,NA,NA,NA,NA
"23","stim/objects/HouseObjects/safetypin2.png",156,69,156,0.7,"stim/62.jpeg",6,2,2,NA,"HouseObjects",1,3,"left","left",0.651000023,1,1,0,1,NA,NA,NA,NA,NA,NA,NA,NA,NA,NA,NA,NA,NA,NA,NA,NA,NA,NA,NA,NA,NA,NA,NA,NA
"177","stim/objects/Instruments/triangle2.png",157,69,157,0.9,"stim/12.jpeg",1,2,3,NA,"Instruments",2,1,"right","right",0.517999887,1,1,0,1,NA,NA,NA,NA,NA,NA,NA,NA,NA,NA,NA,NA,NA,NA,NA,NA,NA,NA,NA,NA,NA,NA,NA,NA
"184","stim/objects/Instruments/trombone.png",158,69,158,0.5,"stim/43.jpeg",4,3,1,NA,"Instruments",2,4,"right","left",0.530999899,0,0,0,1,NA,NA,NA,NA,NA,NA,NA,NA,NA,NA,NA,NA,NA,NA,NA,NA,NA,NA,NA,NA,NA,NA,NA,NA
"132","stim/objects/Instruments/saxophone.png",159,69,159,0.5,"stim/32.jpeg",3,2,1,NA,"Instruments",2,1,"right","right",0.569999933,1,1,0,1,NA,NA,NA,NA,NA,NA,NA,NA,NA,NA,NA,NA,NA,NA,NA,NA,NA,NA,NA,NA,NA,NA,NA,NA
"8","stim/objects/HouseObjects/rug2.png",160,69,160,0.7,"stim/61.jpeg",6,1,2,NA,"HouseObjects",1,1,"left","right",0.434000015,0,0,0,1,NA,NA,NA,NA,NA,NA,NA,NA,NA,NA,NA,NA,NA,NA,NA,NA,NA,NA,NA,NA,NA,NA,NA,NA
"163","stim/objects/Instruments/timbal2.png",161,69,161,0.9,"stim/11.jpeg",1,1,3,NA,"Instruments",2,4,"right","right",0.585000038,1,1,0,1,NA,NA,NA,NA,NA,NA,NA,NA,NA,NA,NA,NA,NA,NA,NA,NA,NA,NA,NA,NA,NA,NA,NA,NA
"214","stim/objects/Instruments/tuba.png",162,69,162,0.7,"stim/51.jpeg",5,1,2,NA,"Instruments",2,1,"right","right",0.666999817,1,1,0,1,NA,NA,NA,NA,NA,NA,NA,NA,NA,NA,NA,NA,NA,NA,NA,NA,NA,NA,NA,NA,NA,NA,NA,NA
"206","stim/objects/Instruments/trumpet2.png",163,69,163,0.9,"stim/14.jpeg",1,4,3,NA,"Instruments",2,3,"right","right",0.704999924,1,1,0,1,NA,NA,NA,NA,NA,NA,NA,NA,NA,NA,NA,NA,NA,NA,NA,NA,NA,NA,NA,NA,NA,NA,NA,NA
"80","stim/objects/HouseObjects/thread2.png",164,69,164,0.9,"stim/21.jpeg",2,1,3,NA,"HouseObjects",1,4,"left","left",0.521999836,1,1,0,1,NA,NA,NA,NA,NA,NA,NA,NA,NA,NA,NA,NA,NA,NA,NA,NA,NA,NA,NA,NA,NA,NA,NA,NA
"28","stim/objects/HouseObjects/saw.png",165,69,165,0.5,"stim/33.jpeg",3,3,1,NA,"HouseObjects",1,3,"left","right",0.694999933,0,0,0,1,NA,NA,NA,NA,NA,NA,NA,NA,NA,NA,NA,NA,NA,NA,NA,NA,NA,NA,NA,NA,NA,NA,NA,NA
"147","stim/objects/Instruments/tambourine.png",166,69,166,0.5,"stim/34.jpeg",3,4,1,NA,"Instruments",2,1,"right","right",0.707999706,1,1,0,1,NA,NA,NA,NA,NA,NA,NA,NA,NA,NA,NA,NA,NA,NA,NA,NA,NA,NA,NA,NA,NA,NA,NA,NA
"81","stim/objects/HouseObjects/thread2.png",167,69,167,0.9,"stim/21.jpeg",2,1,3,NA,"HouseObjects",1,1,"left","left",0.588999987,1,1,0,1,NA,NA,NA,NA,NA,NA,NA,NA,NA,NA,NA,NA,NA,NA,NA,NA,NA,NA,NA,NA,NA,NA,NA,NA
"16","stim/objects/HouseObjects/safetypin.png",168,69,168,0.5,"stim/32.jpeg",3,2,1,NA,"HouseObjects",1,1,"left","",NA,0,0,0,1,NA,NA,NA,NA,NA,NA,NA,NA,NA,NA,NA,NA,NA,NA,NA,NA,NA,NA,NA,NA,NA,NA,NA,NA
"41","stim/objects/HouseObjects/scale.png",169,69,169,0.5,"stim/34.jpeg",3,4,1,NA,"HouseObjects",1,4,"left","left",0.5849998,1,1,0,1,NA,NA,NA,NA,NA,NA,NA,NA,NA,NA,NA,NA,NA,NA,NA,NA,NA,NA,NA,NA,NA,NA,NA,NA
"29","stim/objects/HouseObjects/saw.png",170,69,170,0.5,"stim/33.jpeg",3,3,1,NA,"HouseObjects",1,1,"left","left",0.642999887,1,1,0,1,NA,NA,NA,NA,NA,NA,NA,NA,NA,NA,NA,NA,NA,NA,NA,NA,NA,NA,NA,NA,NA,NA,NA,NA
"94","stim/objects/HouseObjects/towel2.png",171,69,171,0.9,"stim/22.jpeg",2,2,3,NA,"HouseObjects",1,4,"left","left",0.638000011,1,1,0,1,NA,NA,NA,NA,NA,NA,NA,NA,NA,NA,NA,NA,NA,NA,NA,NA,NA,NA,NA,NA,NA,NA,NA,NA
"9","stim/objects/HouseObjects/rug2.png",172,69,172,0.7,"stim/61.jpeg",6,1,2,NA,"HouseObjects",1,3,"left","left",0.822999954,1,1,0,1,NA,NA,NA,NA,NA,NA,NA,NA,NA,NA,NA,NA,NA,NA,NA,NA,NA,NA,NA,NA,NA,NA,NA,NA
"164","stim/objects/Instruments/timbal2.png",173,69,173,0.9,"stim/11.jpeg",1,1,3,NA,"Instruments",2,2,"right","right",0.625,1,1,0,1,NA,NA,NA,NA,NA,NA,NA,NA,NA,NA,NA,NA,NA,NA,NA,NA,NA,NA,NA,NA,NA,NA,NA,NA
"237","stim/objects/Instruments/xylophone.png",174,69,174,0.7,"stim/54.jpeg",5,4,2,NA,"Instruments",2,4,"right","right",0.559999943,1,1,0,1,NA,NA,NA,NA,NA,NA,NA,NA,NA,NA,NA,NA,NA,NA,NA,NA,NA,NA,NA,NA,NA,NA,NA,NA
"222","stim/objects/Instruments/violin.png",175,69,175,0.7,"stim/52.jpeg",5,2,2,NA,"Instruments",2,4,"right","left",0.341999769,0,0,0,1,NA,NA,NA,NA,NA,NA,NA,NA,NA,NA,NA,NA,NA,NA,NA,NA,NA,NA,NA,NA,NA,NA,NA,NA
"165","stim/objects/Instruments/timbal2.png",176,69,176,0.9,"stim/11.jpeg",1,1,3,NA,"Instruments",2,1,"right","",NA,0,0,0,1,NA,NA,NA,NA,NA,NA,NA,NA,NA,NA,NA,NA,NA,NA,NA,NA,NA,NA,NA,NA,NA,NA,NA,NA
"52","stim/objects/HouseObjects/sponge.png",177,69,177,0.5,"stim/41.jpeg",4,1,1,NA,"HouseObjects",1,4,"left","right",0.732999802,0,0,0,1,NA,NA,NA,NA,NA,NA,NA,NA,NA,NA,NA,NA,NA,NA,NA,NA,NA,NA,NA,NA,NA,NA,NA,NA
"3","stim/objects/HouseObjects/rug.png",178,69,178,0.5,"stim/31.jpeg",3,1,1,NA,"HouseObjects",1,2,"left","",NA,0,0,0,1,NA,NA,NA,NA,NA,NA,NA,NA,NA,NA,NA,NA,NA,NA,NA,NA,NA,NA,NA,NA,NA,NA,NA,NA
"99","stim/objects/HouseObjects/vacuumcleaner.png",179,69,179,0.3,"stim/53.jpeg",5,3,2,NA,"HouseObjects",1,3,"left","right",0.436000109,0,0,0,1,NA,NA,NA,NA,NA,NA,NA,NA,NA,NA,NA,NA,NA,NA,NA,NA,NA,NA,NA,NA,NA,NA,NA,NA
"178","stim/objects/Instruments/triangle2.png",180,69,180,0.9,"stim/12.jpeg",1,2,3,NA,"Instruments",2,3,"right","right",0.694999933,1,1,0,1,NA,NA,NA,NA,NA,NA,NA,NA,NA,NA,NA,NA,NA,NA,NA,NA,NA,NA,NA,NA,NA,NA,NA,NA
"185","stim/objects/Instruments/trombone.png",181,69,181,0.5,"stim/43.jpeg",4,3,1,NA,"Instruments",2,4,"right","",NA,0,0,0,1,NA,NA,NA,NA,NA,NA,NA,NA,NA,NA,NA,NA,NA,NA,NA,NA,NA,NA,NA,NA,NA,NA,NA,NA
"110","stim/objects/HouseObjects/wateringcan.png",182,69,182,0.3,"stim/54.jpeg",5,4,2,NA,"HouseObjects",1,3,"left","right",0.518999815,0,0,0,1,NA,NA,NA,NA,NA,NA,NA,NA,NA,NA,NA,NA,NA,NA,NA,NA,NA,NA,NA,NA,NA,NA,NA,NA
"171","stim/objects/Instruments/triangle.png",183,69,183,0.5,"stim/42.jpeg",4,2,1,NA,"Instruments",2,1,"right","right",0.588000059,1,1,0,1,NA,NA,NA,NA,NA,NA,NA,NA,NA,NA,NA,NA,NA,NA,NA,NA,NA,NA,NA,NA,NA,NA,NA,NA
"140","stim/objects/Instruments/speaker.png",184,69,184,0.5,"stim/33.jpeg",3,3,1,NA,"Instruments",2,2,"right","left",0.670000076,0,0,0,1,NA,NA,NA,NA,NA,NA,NA,NA,NA,NA,NA,NA,NA,NA,NA,NA,NA,NA,NA,NA,NA,NA,NA,NA
"95","stim/objects/HouseObjects/towel2.png",185,69,185,0.9,"stim/22.jpeg",2,2,3,NA,"HouseObjects",1,1,"left","left",0.69299984,1,1,0,1,NA,NA,NA,NA,NA,NA,NA,NA,NA,NA,NA,NA,NA,NA,NA,NA,NA,NA,NA,NA,NA,NA,NA,NA
"24","stim/objects/HouseObjects/safetypin2.png",186,69,186,0.7,"stim/62.jpeg",6,2,2,NA,"HouseObjects",1,1,"left","left",0.765000105,1,1,0,1,NA,NA,NA,NA,NA,NA,NA,NA,NA,NA,NA,NA,NA,NA,NA,NA,NA,NA,NA,NA,NA,NA,NA,NA
"82","stim/objects/HouseObjects/thread2.png",187,69,187,0.9,"stim/21.jpeg",2,1,3,NA,"HouseObjects",1,1,"left","left",0.549000025,1,1,0,1,NA,NA,NA,NA,NA,NA,NA,NA,NA,NA,NA,NA,NA,NA,NA,NA,NA,NA,NA,NA,NA,NA,NA,NA
"157","stim/objects/Instruments/timbal.png",188,69,188,0.5,"stim/41.jpeg",4,1,1,NA,"Instruments",2,2,"right","right",0.551000118,1,1,0,1,NA,NA,NA,NA,NA,NA,NA,NA,NA,NA,NA,NA,NA,NA,NA,NA,NA,NA,NA,NA,NA,NA,NA,NA
"192","stim/objects/Instruments/trombone2.png",189,69,189,0.9,"stim/13.jpeg",1,3,3,NA,"Instruments",2,4,"right","",NA,0,0,0,1,NA,NA,NA,NA,NA,NA,NA,NA,NA,NA,NA,NA,NA,NA,NA,NA,NA,NA,NA,NA,NA,NA,NA,NA
"70","stim/objects/HouseObjects/thermometer.png",190,69,190,0.5,"stim/44.jpeg",4,4,1,NA,"HouseObjects",1,3,"left","right",0.746999979,0,0,0,1,NA,NA,NA,NA,NA,NA,NA,NA,NA,NA,NA,NA,NA,NA,NA,NA,NA,NA,NA,NA,NA,NA,NA,NA
"96","stim/objects/HouseObjects/towel2.png",191,69,191,0.9,"stim/22.jpeg",2,2,3,NA,"HouseObjects",1,2,"left","left",0.595999956,1,1,0,1,NA,NA,NA,NA,NA,NA,NA,NA,NA,NA,NA,NA,NA,NA,NA,NA,NA,NA,NA,NA,NA,NA,NA,NA
"136","stim/objects/Instruments/saxophone2.png",192,69,192,0.3,"stim/62.jpeg",6,2,2,NA,"Instruments",2,4,"right","left",0.714999914,0,0,0,1,NA,NA,NA,NA,NA,NA,NA,NA,NA,NA,NA,NA,NA,NA,NA,NA,NA,NA,NA,NA,NA,NA,NA,NA
"57","stim/objects/HouseObjects/spraybottle.png",193,69,193,0.5,"stim/42.jpeg",4,2,1,NA,"HouseObjects",1,2,"left","right",0.665999889,0,0,0,1,NA,NA,NA,NA,NA,NA,NA,NA,NA,NA,NA,NA,NA,NA,NA,NA,NA,NA,NA,NA,NA,NA,NA,NA
"197","stim/objects/Instruments/trumpet.png",194,69,194,0.5,"stim/44.jpeg",4,4,1,NA,"Instruments",2,2,"right","left",0.778999805,0,0,0,1,NA,NA,NA,NA,NA,NA,NA,NA,NA,NA,NA,NA,NA,NA,NA,NA,NA,NA,NA,NA,NA,NA,NA,NA
"17","stim/objects/HouseObjects/safetypin.png",195,69,195,0.5,"stim/32.jpeg",3,2,1,NA,"HouseObjects",1,3,"left","",NA,0,0,0,1,NA,NA,NA,NA,NA,NA,NA,NA,NA,NA,NA,NA,NA,NA,NA,NA,NA,NA,NA,NA,NA,NA,NA,NA
"104","stim/objects/HouseObjects/vacuumcleaner2.png",196,69,196,0.9,"stim/23.jpeg",2,3,3,NA,"HouseObjects",1,3,"left","right",0.49000001,0,0,0,1,NA,NA,NA,NA,NA,NA,NA,NA,NA,NA,NA,NA,NA,NA,NA,NA,NA,NA,NA,NA,NA,NA,NA,NA
"105","stim/objects/HouseObjects/vacuumcleaner2.png",197,69,197,0.9,"stim/23.jpeg",2,3,3,NA,"HouseObjects",1,4,"left","left",0.561999798,1,1,0,1,NA,NA,NA,NA,NA,NA,NA,NA,NA,NA,NA,NA,NA,NA,NA,NA,NA,NA,NA,NA,NA,NA,NA,NA
"83","stim/objects/HouseObjects/thread2.png",198,69,198,0.9,"stim/21.jpeg",2,1,3,NA,"HouseObjects",1,2,"left","left",0.580999851,1,1,0,1,NA,NA,NA,NA,NA,NA,NA,NA,NA,NA,NA,NA,NA,NA,NA,NA,NA,NA,NA,NA,NA,NA,NA,NA
"106","stim/objects/HouseObjects/vacuumcleaner2.png",199,69,199,0.9,"stim/23.jpeg",2,3,3,NA,"HouseObjects",1,4,"left","left",0.802999973,1,1,0,1,NA,NA,NA,NA,NA,NA,NA,NA,NA,NA,NA,NA,NA,NA,NA,NA,NA,NA,NA,NA,NA,NA,NA,NA
"151","stim/objects/Instruments/tambourine2.png",200,69,200,0.3,"stim/64.jpeg",6,4,2,NA,"Instruments",2,4,"right","",NA,0,0,0,1,NA,NA,NA,NA,NA,NA,NA,NA,NA,NA,NA,NA,NA,NA,NA,NA,NA,NA,NA,NA,NA,NA,NA,NA
"60","stim/objects/HouseObjects/spraybottle2.png",201,69,201,0.1,"stim/12.jpeg",1,2,3,NA,"HouseObjects",1,3,"left","right",0.671999931,0,0,0,1,NA,NA,NA,NA,NA,NA,NA,NA,NA,NA,NA,NA,NA,NA,NA,NA,NA,NA,NA,NA,NA,NA,NA,NA
"71","stim/objects/HouseObjects/thermometer.png",202,69,202,0.5,"stim/44.jpeg",4,4,1,NA,"HouseObjects",1,2,"left","left",0.54399991,1,1,0,1,NA,NA,NA,NA,NA,NA,NA,NA,NA,NA,NA,NA,NA,NA,NA,NA,NA,NA,NA,NA,NA,NA,NA,NA
"10","stim/objects/HouseObjects/rug2.png",203,69,203,0.7,"stim/61.jpeg",6,1,2,NA,"HouseObjects",1,2,"left","left",0.620999813,1,1,0,1,NA,NA,NA,NA,NA,NA,NA,NA,NA,NA,NA,NA,NA,NA,NA,NA,NA,NA,NA,NA,NA,NA,NA,NA
"152","stim/objects/Instruments/tambourine2.png",204,69,204,0.3,"stim/64.jpeg",6,4,2,NA,"Instruments",2,1,"right","left",0.677999973,0,0,0,1,NA,NA,NA,NA,NA,NA,NA,NA,NA,NA,NA,NA,NA,NA,NA,NA,NA,NA,NA,NA,NA,NA,NA,NA
"179","stim/objects/Instruments/triangle2.png",205,69,205,0.9,"stim/12.jpeg",1,2,3,NA,"Instruments",2,1,"right","right",0.593999863,1,1,0,1,NA,NA,NA,NA,NA,NA,NA,NA,NA,NA,NA,NA,NA,NA,NA,NA,NA,NA,NA,NA,NA,NA,NA,NA
"11","stim/objects/HouseObjects/rug2.png",206,69,206,0.7,"stim/61.jpeg",6,1,2,NA,"HouseObjects",1,1,"left","left",0.769999743,1,1,0,1,NA,NA,NA,NA,NA,NA,NA,NA,NA,NA,NA,NA,NA,NA,NA,NA,NA,NA,NA,NA,NA,NA,NA,NA
"65","stim/objects/HouseObjects/teapot.png",207,69,207,0.5,"stim/43.jpeg",4,3,1,NA,"HouseObjects",1,2,"left","right",0.8349998,0,0,0,1,NA,NA,NA,NA,NA,NA,NA,NA,NA,NA,NA,NA,NA,NA,NA,NA,NA,NA,NA,NA,NA,NA,NA,NA
"207","stim/objects/Instruments/trumpet2.png",208,69,208,0.9,"stim/14.jpeg",1,4,3,NA,"Instruments",2,3,"right","right",0.615999937,1,1,0,1,NA,NA,NA,NA,NA,NA,NA,NA,NA,NA,NA,NA,NA,NA,NA,NA,NA,NA,NA,NA,NA,NA,NA,NA
"238","stim/objects/Instruments/xylophone.png",209,69,209,0.7,"stim/54.jpeg",5,4,2,NA,"Instruments",2,1,"right","right",0.638000011,1,1,0,1,NA,NA,NA,NA,NA,NA,NA,NA,NA,NA,NA,NA,NA,NA,NA,NA,NA,NA,NA,NA,NA,NA,NA,NA
"223","stim/objects/Instruments/violin.png",210,69,210,0.7,"stim/52.jpeg",5,2,2,NA,"Instruments",2,3,"right","right",0.729000092,1,1,0,1,NA,NA,NA,NA,NA,NA,NA,NA,NA,NA,NA,NA,NA,NA,NA,NA,NA,NA,NA,NA,NA,NA,NA,NA
"230","stim/objects/Instruments/vuvuzela.png",211,69,211,0.7,"stim/53.jpeg",5,3,2,NA,"Instruments",2,2,"right","right",0.752000093,1,1,0,1,NA,NA,NA,NA,NA,NA,NA,NA,NA,NA,NA,NA,NA,NA,NA,NA,NA,NA,NA,NA,NA,NA,NA,NA
"107","stim/objects/HouseObjects/vacuumcleaner2.png",212,69,212,0.9,"stim/23.jpeg",2,3,3,NA,"HouseObjects",1,3,"left","left",0.569999933,1,1,0,1,NA,NA,NA,NA,NA,NA,NA,NA,NA,NA,NA,NA,NA,NA,NA,NA,NA,NA,NA,NA,NA,NA,NA,NA
"4","stim/objects/HouseObjects/rug.png",213,69,213,0.5,"stim/31.jpeg",3,1,1,NA,"HouseObjects",1,2,"left","right",0.546999931,0,0,0,1,NA,NA,NA,NA,NA,NA,NA,NA,NA,NA,NA,NA,NA,NA,NA,NA,NA,NA,NA,NA,NA,NA,NA,NA
"193","stim/objects/Instruments/trombone2.png",214,69,214,0.9,"stim/13.jpeg",1,3,3,NA,"Instruments",2,4,"right","right",0.630999804,1,1,0,1,NA,NA,NA,NA,NA,NA,NA,NA,NA,NA,NA,NA,NA,NA,NA,NA,NA,NA,NA,NA,NA,NA,NA,NA
"108","stim/objects/HouseObjects/vacuumcleaner2.png",215,69,215,0.9,"stim/23.jpeg",2,3,3,NA,"HouseObjects",1,1,"left","left",0.595000029,1,1,0,1,NA,NA,NA,NA,NA,NA,NA,NA,NA,NA,NA,NA,NA,NA,NA,NA,NA,NA,NA,NA,NA,NA,NA,NA
"133","stim/objects/Instruments/saxophone.png",216,69,216,0.5,"stim/32.jpeg",3,2,1,NA,"Instruments",2,1,"right","left",0.808999777,0,0,0,1,NA,NA,NA,NA,NA,NA,NA,NA,NA,NA,NA,NA,NA,NA,NA,NA,NA,NA,NA,NA,NA,NA,NA,NA
"75","stim/objects/HouseObjects/thread.png",217,69,217,0.3,"stim/51.jpeg",5,1,2,NA,"HouseObjects",1,4,"left","right",0.657000065,0,0,0,1,NA,NA,NA,NA,NA,NA,NA,NA,NA,NA,NA,NA,NA,NA,NA,NA,NA,NA,NA,NA,NA,NA,NA,NA
"58","stim/objects/HouseObjects/spraybottle.png",218,69,218,0.5,"stim/42.jpeg",4,2,1,NA,"HouseObjects",1,4,"left","",NA,0,0,0,1,NA,NA,NA,NA,NA,NA,NA,NA,NA,NA,NA,NA,NA,NA,NA,NA,NA,NA,NA,NA,NA,NA,NA,NA
"53","stim/objects/HouseObjects/sponge.png",219,69,219,0.5,"stim/41.jpeg",4,1,1,NA,"HouseObjects",1,4,"left","left",0.563999891,1,1,0,1,NA,NA,NA,NA,NA,NA,NA,NA,NA,NA,NA,NA,NA,NA,NA,NA,NA,NA,NA,NA,NA,NA,NA,NA
"5","stim/objects/HouseObjects/rug.png",220,69,220,0.5,"stim/31.jpeg",3,1,1,NA,"HouseObjects",1,1,"left","left",0.806999922,1,1,0,1,NA,NA,NA,NA,NA,NA,NA,NA,NA,NA,NA,NA,NA,NA,NA,NA,NA,NA,NA,NA,NA,NA,NA,NA
"166","stim/objects/Instruments/timbal2.png",221,69,221,0.9,"stim/11.jpeg",1,1,3,NA,"Instruments",2,1,"right","right",0.526000023,1,1,0,1,NA,NA,NA,NA,NA,NA,NA,NA,NA,NA,NA,NA,NA,NA,NA,NA,NA,NA,NA,NA,NA,NA,NA,NA
"215","stim/objects/Instruments/tuba.png",222,69,222,0.7,"stim/51.jpeg",5,1,2,NA,"Instruments",2,1,"right","right",0.594000101,1,1,0,1,NA,NA,NA,NA,NA,NA,NA,NA,NA,NA,NA,NA,NA,NA,NA,NA,NA,NA,NA,NA,NA,NA,NA,NA
"12","stim/objects/HouseObjects/rug2.png",223,69,223,0.7,"stim/61.jpeg",6,1,2,NA,"HouseObjects",1,2,"left","left",0.538000107,1,1,0,1,NA,NA,NA,NA,NA,NA,NA,NA,NA,NA,NA,NA,NA,NA,NA,NA,NA,NA,NA,NA,NA,NA,NA,NA
"208","stim/objects/Instruments/trumpet2.png",224,69,224,0.9,"stim/14.jpeg",1,4,3,NA,"Instruments",2,2,"right","right",0.539999962,1,1,0,1,NA,NA,NA,NA,NA,NA,NA,NA,NA,NA,NA,NA,NA,NA,NA,NA,NA,NA,NA,NA,NA,NA,NA,NA
"148","stim/objects/Instruments/tambourine.png",225,69,225,0.5,"stim/34.jpeg",3,4,1,NA,"Instruments",2,1,"right","",NA,0,0,0,1,NA,NA,NA,NA,NA,NA,NA,NA,NA,NA,NA,NA,NA,NA,NA,NA,NA,NA,NA,NA,NA,NA,NA,NA
"87","stim/objects/HouseObjects/towel.png",226,69,226,0.3,"stim/52.jpeg",5,2,2,NA,"HouseObjects",1,1,"left","right",0.725999832,0,0,0,1,NA,NA,NA,NA,NA,NA,NA,NA,NA,NA,NA,NA,NA,NA,NA,NA,NA,NA,NA,NA,NA,NA,NA,NA
"231","stim/objects/Instruments/vuvuzela.png",227,69,227,0.7,"stim/53.jpeg",5,3,2,NA,"Instruments",2,1,"right","right",0.643000126,1,1,0,1,NA,NA,NA,NA,NA,NA,NA,NA,NA,NA,NA,NA,NA,NA,NA,NA,NA,NA,NA,NA,NA,NA,NA,NA
"239","stim/objects/Instruments/xylophone.png",228,69,228,0.7,"stim/54.jpeg",5,4,2,NA,"Instruments",2,3,"right","right",0.699999809,1,1,0,1,NA,NA,NA,NA,NA,NA,NA,NA,NA,NA,NA,NA,NA,NA,NA,NA,NA,NA,NA,NA,NA,NA,NA,NA
"124","stim/objects/Instruments/record_player.png",229,69,229,0.5,"stim/31.jpeg",3,1,1,NA,"Instruments",2,1,"right","",NA,0,0,0,1,NA,NA,NA,NA,NA,NA,NA,NA,NA,NA,NA,NA,NA,NA,NA,NA,NA,NA,NA,NA,NA,NA,NA,NA
"198","stim/objects/Instruments/trumpet.png",230,69,230,0.5,"stim/44.jpeg",4,4,1,NA,"Instruments",2,3,"right","right",0.601000071,1,1,0,1,NA,NA,NA,NA,NA,NA,NA,NA,NA,NA,NA,NA,NA,NA,NA,NA,NA,NA,NA,NA,NA,NA,NA,NA
"180","stim/objects/Instruments/triangle2.png",231,69,231,0.9,"stim/12.jpeg",1,2,3,NA,"Instruments",2,4,"right","right",0.697999716,1,1,0,1,NA,NA,NA,NA,NA,NA,NA,NA,NA,NA,NA,NA,NA,NA,NA,NA,NA,NA,NA,NA,NA,NA,NA,NA
"199","stim/objects/Instruments/trumpet.png",232,69,232,0.5,"stim/44.jpeg",4,4,1,NA,"Instruments",2,1,"right","left",0.724999905,0,0,0,1,NA,NA,NA,NA,NA,NA,NA,NA,NA,NA,NA,NA,NA,NA,NA,NA,NA,NA,NA,NA,NA,NA,NA,NA
"149","stim/objects/Instruments/tambourine.png",233,69,233,0.5,"stim/34.jpeg",3,4,1,NA,"Instruments",2,1,"right","",NA,0,0,0,1,NA,NA,NA,NA,NA,NA,NA,NA,NA,NA,NA,NA,NA,NA,NA,NA,NA,NA,NA,NA,NA,NA,NA,NA
"194","stim/objects/Instruments/trombone2.png",234,69,234,0.9,"stim/13.jpeg",1,3,3,NA,"Instruments",2,2,"right","right",0.605999708,1,1,0,1,NA,NA,NA,NA,NA,NA,NA,NA,NA,NA,NA,NA,NA,NA,NA,NA,NA,NA,NA,NA,NA,NA,NA,NA
"59","stim/objects/HouseObjects/spraybottle.png",235,69,235,0.5,"stim/42.jpeg",4,2,1,NA,"HouseObjects",1,4,"left","right",0.720999956,0,0,0,1,NA,NA,NA,NA,NA,NA,NA,NA,NA,NA,NA,NA,NA,NA,NA,NA,NA,NA,NA,NA,NA,NA,NA,NA
"141","stim/objects/Instruments/speaker.png",236,69,236,0.5,"stim/33.jpeg",3,3,1,NA,"Instruments",2,3,"right","left",0.66899991,0,0,0,1,NA,NA,NA,NA,NA,NA,NA,NA,NA,NA,NA,NA,NA,NA,NA,NA,NA,NA,NA,NA,NA,NA,NA,NA
"125","stim/objects/Instruments/record_player.png",237,69,237,0.5,"stim/31.jpeg",3,1,1,NA,"Instruments",2,2,"right","",NA,0,0,0,1,NA,NA,NA,NA,NA,NA,NA,NA,NA,NA,NA,NA,NA,NA,NA,NA,NA,NA,NA,NA,NA,NA,NA,NA
"84","stim/objects/HouseObjects/thread2.png",238,69,238,0.9,"stim/21.jpeg",2,1,3,NA,"HouseObjects",1,2,"left","left",0.647000074,1,1,0,1,NA,NA,NA,NA,NA,NA,NA,NA,NA,NA,NA,NA,NA,NA,NA,NA,NA,NA,NA,NA,NA,NA,NA,NA
"128","stim/objects/Instruments/record_player2.png",239,69,239,0.3,"stim/61.jpeg",6,1,2,NA,"Instruments",2,1,"right","left",0.601999998,0,0,0,1,NA,NA,NA,NA,NA,NA,NA,NA,NA,NA,NA,NA,NA,NA,NA,NA,NA,NA,NA,NA,NA,NA,NA,NA
"111","stim/objects/HouseObjects/wateringcan.png",240,69,240,0.3,"stim/54.jpeg",5,4,2,NA,"HouseObjects",1,2,"left","right",0.506999969,0,0,0,1,NA,NA,NA,NA,NA,NA,NA,NA,NA,NA,NA,NA,NA,NA,NA,NA,NA,NA,NA,NA,NA,NA,NA,NA
"325","stim/objects/HouseObjects/flyswatter.png",248,69,241,0.9,"stim/22.jpeg",2,2,3,2,"HouseObjects",1,2,"left","",NA,0,0,1,0,NA,NA,NA,NA,NA,NA,NA,NA,NA,NA,NA,NA,NA,NA,NA,NA,NA,NA,NA,NA,NA,NA,NA,NA
"405","stim/objects/HouseObjects/rubbergloves2.png",249,69,242,0.9,"stim/22.jpeg",2,2,3,1,"HouseObjects",1,4,"left","left",0.553999901,1,1,1,0,63,69,1,0.9,1,"stim/22.jpeg",2,2,"stim/22.jpeg",4,"right",1.417000055,3,1,3.484000206,2,2.088000298,63,0,0,NA,0,NA,0
"253","stim/objects/HouseObjects/bleachbottle.png",250,69,243,0.5,"stim/31.jpeg",3,1,1,2,"HouseObjects",1,3,"left","",NA,0,0,1,0,NA,NA,NA,NA,NA,NA,NA,NA,NA,NA,NA,NA,NA,NA,NA,NA,NA,NA,NA,NA,NA,NA,NA,NA
"456","stim/objects/Instruments/flute.png",251,69,244,0.9,"stim/14.jpeg",1,4,3,2,"Instruments",2,4,"right","left",0.458999872,0,0,1,0,NA,NA,NA,NA,NA,NA,NA,NA,NA,NA,NA,NA,NA,NA,NA,NA,NA,NA,NA,NA,NA,NA,NA,NA
"291","stim/objects/HouseObjects/doormat.png",252,69,245,0.9,"stim/24.jpeg",2,4,3,2,"HouseObjects",1,4,"left","left",0.638000011,1,1,1,0,NA,NA,NA,NA,NA,NA,NA,NA,NA,NA,NA,NA,NA,NA,NA,NA,NA,NA,NA,NA,NA,NA,NA,NA
"473","stim/objects/Instruments/flutetrans.png",253,69,246,0.9,"stim/13.jpeg",1,3,3,2,"Instruments",2,2,"right","right",0.445999861,1,1,1,0,NA,NA,NA,NA,NA,NA,NA,NA,NA,NA,NA,NA,NA,NA,NA,NA,NA,NA,NA,NA,NA,NA,NA,NA
"308","stim/objects/HouseObjects/dustpan.png",254,69,247,0.9,"stim/22.jpeg",2,2,3,2,"HouseObjects",1,1,"left","left",0.589999914,1,1,1,0,NA,NA,NA,NA,NA,NA,NA,NA,NA,NA,NA,NA,NA,NA,NA,NA,NA,NA,NA,NA,NA,NA,NA,NA
"292","stim/objects/HouseObjects/doormat.png",255,69,248,0.9,"stim/21.jpeg",2,1,3,2,"HouseObjects",1,2,"left","left",0.822999954,1,1,1,0,NA,NA,NA,NA,NA,NA,NA,NA,NA,NA,NA,NA,NA,NA,NA,NA,NA,NA,NA,NA,NA,NA,NA,NA
"391","stim/objects/HouseObjects/knife2.png",256,69,249,0.9,"stim/23.jpeg",2,3,3,1,"HouseObjects",1,3,"left","left",0.520999908,1,1,1,0,12,69,1,0.9,1,"stim/23.jpeg",2,3,"stim/23.jpeg",3,"right",1.537000179,3,4,6.5400002,1,2.197000265,12,0,0,NA,0,NA,0
"448","stim/objects/Instruments/electricdrumset.png",257,69,250,0.7,"stim/53.jpeg",5,3,2,2,"Instruments",2,2,"right","right",0.54399991,1,1,1,0,NA,NA,NA,NA,NA,NA,NA,NA,NA,NA,NA,NA,NA,NA,NA,NA,NA,NA,NA,NA,NA,NA,NA,NA
"524","stim/objects/Instruments/grandpiano.png",258,69,251,0.9,"stim/14.jpeg",1,4,3,2,"Instruments",2,4,"right","left",0.565999985,0,0,1,0,NA,NA,NA,NA,NA,NA,NA,NA,NA,NA,NA,NA,NA,NA,NA,NA,NA,NA,NA,NA,NA,NA,NA,NA
"383","stim/objects/HouseObjects/handvacuum2.png",259,69,252,0.1,"stim/11.jpeg",1,1,3,1,"HouseObjects",1,2,"left","right",0.585999727,0,0,1,0,154,69,1,0.1,1,"stim/11.jpeg",1,1,"stim/11.jpeg",2,"left",1.131999969,1,2,0.88800025,3,1.367000103,154,1,0,0,0,0,0
"509","stim/objects/Instruments/gong.png",260,69,253,0.9,"stim/13.jpeg",1,3,3,2,"Instruments",2,4,"right","right",0.499000072,1,1,1,0,NA,NA,NA,NA,NA,NA,NA,NA,NA,NA,NA,NA,NA,NA,NA,NA,NA,NA,NA,NA,NA,NA,NA,NA
"342","stim/objects/HouseObjects/garbagebin.png",261,69,254,0.9,"stim/22.jpeg",2,2,3,2,"HouseObjects",1,1,"left","left",0.527999878,1,1,1,0,NA,NA,NA,NA,NA,NA,NA,NA,NA,NA,NA,NA,NA,NA,NA,NA,NA,NA,NA,NA,NA,NA,NA,NA
"525","stim/objects/Instruments/grandpiano.png",262,69,255,0.9,"stim/12.jpeg",1,2,3,2,"Instruments",2,4,"right","right",0.535999775,1,1,1,0,NA,NA,NA,NA,NA,NA,NA,NA,NA,NA,NA,NA,NA,NA,NA,NA,NA,NA,NA,NA,NA,NA,NA,NA
"526","stim/objects/Instruments/grandpiano.png",263,69,256,0.9,"stim/13.jpeg",1,3,3,2,"Instruments",2,4,"right","right",0.4599998,1,1,1,0,NA,NA,NA,NA,NA,NA,NA,NA,NA,NA,NA,NA,NA,NA,NA,NA,NA,NA,NA,NA,NA,NA,NA,NA
"398","stim/objects/HouseObjects/pitcher.png",264,69,257,0.3,"stim/52.jpeg",5,2,2,1,"HouseObjects",1,2,"left","right",0.78399992,0,0,1,0,106,69,1,0.3,1,"stim/52.jpeg",5,2,"stim/52.jpeg",2,"right",1.058000088,3,1,1.794000149,1,0.95200038,106,0,0,NA,0,NA,0
"412","stim/objects/Instruments/balalaika.png",265,69,258,0.5,"stim/32.jpeg",3,2,1,2,"Instruments",2,1,"right","left",0.785999775,0,0,1,0,NA,NA,NA,NA,NA,NA,NA,NA,NA,NA,NA,NA,NA,NA,NA,NA,NA,NA,NA,NA,NA,NA,NA,NA
"381","stim/objects/HouseObjects/handbrush2.png",266,69,259,0.1,"stim/14.jpeg",1,4,3,1,"HouseObjects",1,2,"left","right",0.569999933,0,0,1,0,27,69,1,0.1,1,"stim/14.jpeg",1,4,"stim/14.jpeg",2,"right",1.551000118,4,3,3.517000198,2,1.022000074,27,0,0,NA,1,NA,0
"440","stim/objects/Instruments/doublebass.png",267,69,260,0.7,"stim/54.jpeg",5,4,2,2,"Instruments",2,2,"right","right",0.871999979,1,1,1,0,NA,NA,NA,NA,NA,NA,NA,NA,NA,NA,NA,NA,NA,NA,NA,NA,NA,NA,NA,NA,NA,NA,NA,NA
"490","stim/objects/Instruments/frenchhorn.png",268,69,261,0.9,"stim/13.jpeg",1,3,3,2,"Instruments",2,2,"right","right",0.551999807,1,1,1,0,NA,NA,NA,NA,NA,NA,NA,NA,NA,NA,NA,NA,NA,NA,NA,NA,NA,NA,NA,NA,NA,NA,NA,NA
"246","stim/objects/HouseObjects/ballofstring2.png",269,69,262,0.3,"stim/53.jpeg",5,3,2,1,"HouseObjects",1,3,"left","right",0.664999962,0,0,1,0,80,69,1,0.3,1,"stim/53.jpeg",5,3,"stim/53.jpeg",3,"right",0.976000309,3,2,1.336000204,2,0.735000134,80,0,0,NA,0,NA,0
"556","stim/objects/Instruments/marimba2.png",270,69,263,0.1,"stim/21.jpeg",2,1,3,1,"Instruments",2,2,"right","left",0.581999779,0,0,1,0,134,69,1,0.1,2,"stim/21.jpeg",2,1,"stim/21.jpeg",2,"right",3.161000252,2,1,2.505000114,3,1.581000328,134,0,1,NA,0,NA,0
"458","stim/objects/Instruments/flute.png",271,69,264,0.9,"stim/13.jpeg",1,3,3,2,"Instruments",2,4,"right","right",0.624999762,1,1,1,0,NA,NA,NA,NA,NA,NA,NA,NA,NA,NA,NA,NA,NA,NA,NA,NA,NA,NA,NA,NA,NA,NA,NA,NA
"307","stim/objects/HouseObjects/doormat2.png",272,69,265,0.1,"stim/11.jpeg",1,1,3,1,"HouseObjects",1,4,"left","right",0.536999941,0,0,1,0,123,69,1,0.1,1,"stim/11.jpeg",1,1,"stim/11.jpeg",4,"left",2.690000057,4,3,4.796000242,1,1.207000017,123,1,0,0,0,0,0
"380","stim/objects/HouseObjects/handbrush.png",273,69,266,0.5,"stim/31.jpeg",3,1,1,1,"HouseObjects",1,4,"left","right",0.712999821,0,0,1,0,114,69,1,0.5,1,"stim/31.jpeg",3,1,"stim/31.jpeg",4,"left",2.385000229,2,3,2.156000137,1,0.882000208,114,1,0,0,0,0,0
"510","stim/objects/Instruments/gong.png",274,69,267,0.9,"stim/12.jpeg",1,2,3,2,"Instruments",2,1,"right","right",0.618999958,1,1,1,0,NA,NA,NA,NA,NA,NA,NA,NA,NA,NA,NA,NA,NA,NA,NA,NA,NA,NA,NA,NA,NA,NA,NA,NA
"274","stim/objects/HouseObjects/clothesdryingrack2.png",275,69,268,0.7,"stim/61.jpeg",6,1,2,1,"HouseObjects",1,4,"left","left",0.621999979,1,1,1,0,146,69,1,0.7,1,"stim/61.jpeg",6,1,"stim/61.jpeg",4,"right",1.50999999,3,2,1.262000084,4,1.371000051,146,0,0,NA,1,NA,0
"386","stim/objects/HouseObjects/ironingboard.png",276,69,269,0.5,"stim/41.jpeg",4,1,1,1,"HouseObjects",1,3,"left","right",0.588999987,0,0,1,0,155,69,1,0.5,2,"stim/41.jpeg",4,1,"stim/41.jpeg",3,"left",0.870000124,3,4,2.317000151,2,2.056000233,155,1,0,0,0,0,0
"343","stim/objects/HouseObjects/garbagebin.png",277,69,270,0.9,"stim/22.jpeg",2,2,3,2,"HouseObjects",1,1,"left","left",0.542999744,1,1,1,0,NA,NA,NA,NA,NA,NA,NA,NA,NA,NA,NA,NA,NA,NA,NA,NA,NA,NA,NA,NA,NA,NA,NA,NA
"561","stim/objects/Instruments/musicstand.png",278,69,271,0.7,"stim/52.jpeg",5,2,2,1,"Instruments",2,2,"right","left",0.752999783,0,0,1,0,101,69,1,0.7,2,"stim/52.jpeg",5,2,"stim/52.jpeg",2,"left",0.891000271,3,4,5.256000042,3,3.39800024,101,1,0,0,0,0,0
"360","stim/objects/HouseObjects/glass.png",279,69,272,0.9,"stim/23.jpeg",2,3,3,2,"HouseObjects",1,4,"left","left",0.690999985,1,1,1,0,NA,NA,NA,NA,NA,NA,NA,NA,NA,NA,NA,NA,NA,NA,NA,NA,NA,NA,NA,NA,NA,NA,NA,NA
"361","stim/objects/HouseObjects/glass.png",280,69,273,0.9,"stim/22.jpeg",2,2,3,2,"HouseObjects",1,3,"left","left",0.576999903,1,1,1,0,NA,NA,NA,NA,NA,NA,NA,NA,NA,NA,NA,NA,NA,NA,NA,NA,NA,NA,NA,NA,NA,NA,NA,NA
"271","stim/objects/HouseObjects/clothesdryingrack.png",281,69,274,0.7,"stim/61.jpeg",6,1,2,2,"HouseObjects",1,2,"left","left",0.619999886,1,1,1,0,NA,NA,NA,NA,NA,NA,NA,NA,NA,NA,NA,NA,NA,NA,NA,NA,NA,NA,NA,NA,NA,NA,NA,NA
"387","stim/objects/HouseObjects/ironingboard2.png",282,69,275,0.9,"stim/21.jpeg",2,1,3,1,"HouseObjects",1,4,"left","left",0.57799983,1,1,1,0,119,69,1,0.9,1,"stim/21.jpeg",2,1,"stim/21.jpeg",4,"right",2.815000296,3,2,1.413000345,4,2.782000303,119,0,0,NA,1,NA,0
"396","stim/objects/HouseObjects/pan.png",283,69,276,0.3,"stim/51.jpeg",5,1,2,1,"HouseObjects",1,4,"left","left",0.65199995,1,1,1,0,92,69,1,0.3,1,"stim/51.jpeg",5,1,"stim/51.jpeg",4,"right",2.205000162,2,1,6.041000128,2,2.608000278,92,0,1,NA,0,NA,0
"262","stim/objects/HouseObjects/broom.png",284,69,277,0.5,"stim/41.jpeg",4,1,1,2,"HouseObjects",1,4,"left","left",0.556999922,1,1,1,0,NA,NA,NA,NA,NA,NA,NA,NA,NA,NA,NA,NA,NA,NA,NA,NA,NA,NA,NA,NA,NA,NA,NA,NA
"476","stim/objects/Instruments/flutetrans.png",285,69,278,0.9,"stim/11.jpeg",1,1,3,2,"Instruments",2,2,"right","right",0.777999878,1,1,1,0,NA,NA,NA,NA,NA,NA,NA,NA,NA,NA,NA,NA,NA,NA,NA,NA,NA,NA,NA,NA,NA,NA,NA,NA
"491","stim/objects/Instruments/frenchhorn.png",286,69,279,0.9,"stim/11.jpeg",1,1,3,2,"Instruments",2,1,"right","right",0.677999973,1,1,1,0,NA,NA,NA,NA,NA,NA,NA,NA,NA,NA,NA,NA,NA,NA,NA,NA,NA,NA,NA,NA,NA,NA,NA,NA
"344","stim/objects/HouseObjects/garbagebin.png",287,69,280,0.9,"stim/22.jpeg",2,2,3,2,"HouseObjects",1,2,"left","left",0.59800005,1,1,1,0,NA,NA,NA,NA,NA,NA,NA,NA,NA,NA,NA,NA,NA,NA,NA,NA,NA,NA,NA,NA,NA,NA,NA,NA
"523","stim/objects/Instruments/gong2.png",288,69,281,0.9,"stim/12.jpeg",1,2,3,1,"Instruments",2,2,"right","right",0.592999935,1,1,1,0,52,69,1,0.9,2,"stim/12.jpeg",1,2,"stim/12.jpeg",2,"left",2.311000109,2,3,10.05100036,4,5.333000183,52,1,0,0,0,0,0
"384","stim/objects/HouseObjects/iron.png",289,69,282,0.5,"stim/33.jpeg",3,3,1,1,"HouseObjects",1,2,"left","left",0.747999907,1,1,1,0,108,69,1,0.5,1,"stim/33.jpeg",3,3,"stim/33.jpeg",2,"right",1.761000395,3,2,3.714000225,2,0.789999962,108,0,0,NA,1,NA,0
"293","stim/objects/HouseObjects/doormat.png",290,69,283,0.9,"stim/21.jpeg",2,1,3,2,"HouseObjects",1,3,"left","left",0.628000021,1,1,1,0,NA,NA,NA,NA,NA,NA,NA,NA,NA,NA,NA,NA,NA,NA,NA,NA,NA,NA,NA,NA,NA,NA,NA,NA
"560","stim/objects/Instruments/musicsheet2.png",291,69,284,0.1,"stim/23.jpeg",2,3,3,1,"Instruments",2,4,"right","left",0.603999853,0,0,1,0,76,69,1,0.1,2,"stim/23.jpeg",2,3,"stim/23.jpeg",4,"left",1.578000069,4,1,5.470000267,2,2.579000235,76,1,0,0,0,0,0
"460","stim/objects/Instruments/flute.png",292,69,285,0.9,"stim/14.jpeg",1,4,3,2,"Instruments",2,2,"right","right",0.673000097,1,1,1,0,NA,NA,NA,NA,NA,NA,NA,NA,NA,NA,NA,NA,NA,NA,NA,NA,NA,NA,NA,NA,NA,NA,NA,NA
"557","stim/objects/Instruments/metronome.png",293,69,286,0.5,"stim/43.jpeg",4,3,1,1,"Instruments",2,3,"right","left",0.703999758,0,0,1,0,53,69,1,0.5,2,"stim/43.jpeg",4,3,"stim/43.jpeg",3,"left",1.5400002,4,1,12.38900018,1,6.345000267,53,1,0,0,0,0,0
"421","stim/objects/Instruments/bassguitar.png",294,69,287,0.5,"stim/42.jpeg",4,2,1,2,"Instruments",2,4,"right","left",0.572999954,0,0,1,0,NA,NA,NA,NA,NA,NA,NA,NA,NA,NA,NA,NA,NA,NA,NA,NA,NA,NA,NA,NA,NA,NA,NA,NA
"250","stim/objects/HouseObjects/basket.png",295,69,288,0.5,"stim/31.jpeg",3,1,1,2,"HouseObjects",1,3,"left","left",0.473999739,1,1,1,0,NA,NA,NA,NA,NA,NA,NA,NA,NA,NA,NA,NA,NA,NA,NA,NA,NA,NA,NA,NA,NA,NA,NA,NA
"394","stim/objects/HouseObjects/match.png",296,69,289,0.5,"stim/41.jpeg",4,1,1,1,"HouseObjects",1,1,"left","left",0.820999861,1,1,1,0,179,69,1,0.5,2,"stim/41.jpeg",4,1,"stim/41.jpeg",1,"right",0.666000128,1,2,0.407000065,4,0.743000269,179,0,0,NA,0,NA,0
"312","stim/objects/HouseObjects/dustpan.png",297,69,290,0.9,"stim/24.jpeg",2,4,3,2,"HouseObjects",1,2,"left","left",0.538999796,1,1,1,0,NA,NA,NA,NA,NA,NA,NA,NA,NA,NA,NA,NA,NA,NA,NA,NA,NA,NA,NA,NA,NA,NA,NA,NA
"313","stim/objects/HouseObjects/dustpan.png",298,69,291,0.9,"stim/22.jpeg",2,2,3,2,"HouseObjects",1,1,"left","left",0.475999832,1,1,1,0,NA,NA,NA,NA,NA,NA,NA,NA,NA,NA,NA,NA,NA,NA,NA,NA,NA,NA,NA,NA,NA,NA,NA,NA
"413","stim/objects/Instruments/balalaika.png",299,69,292,0.5,"stim/33.jpeg",3,3,1,2,"Instruments",2,4,"right","right",0.556999922,1,1,1,0,NA,NA,NA,NA,NA,NA,NA,NA,NA,NA,NA,NA,NA,NA,NA,NA,NA,NA,NA,NA,NA,NA,NA,NA
"417","stim/objects/Instruments/banjo2.png",300,69,293,0.7,"stim/52.jpeg",5,2,2,1,"Instruments",2,1,"right","left",0.446999788,0,0,1,0,89,69,1,0.7,2,"stim/52.jpeg",5,2,"stim/52.jpeg",1,"left",1.305000305,3,4,5.015000343,2,1.889000177,89,1,0,0,0,0,0
"258","stim/objects/HouseObjects/blender2.png",301,69,294,0.7,"stim/64.jpeg",6,4,2,1,"HouseObjects",1,2,"left","left",0.616999865,1,1,1,0,174,69,1,0.7,1,"stim/64.jpeg",6,4,"stim/64.jpeg",2,"right",0.743000031,4,3,0.842000246,1,0.366000175,174,0,0,NA,0,NA,0
"527","stim/objects/Instruments/grandpiano.png",302,69,295,0.9,"stim/12.jpeg",1,2,3,2,"Instruments",2,3,"right","right",0.753999949,1,1,1,0,NA,NA,NA,NA,NA,NA,NA,NA,NA,NA,NA,NA,NA,NA,NA,NA,NA,NA,NA,NA,NA,NA,NA,NA
"241","stim/objects/HouseObjects/ashtray.png",303,69,296,0.5,"stim/32.jpeg",3,2,1,2,"HouseObjects",1,2,"left","left",0.575000048,1,1,1,0,NA,NA,NA,NA,NA,NA,NA,NA,NA,NA,NA,NA,NA,NA,NA,NA,NA,NA,NA,NA,NA,NA,NA,NA
"341","stim/objects/HouseObjects/flyswatter2.png",304,69,297,0.1,"stim/13.jpeg",1,3,3,1,"HouseObjects",1,3,"left","left",0.454999924,1,1,1,0,8,69,1,0.1,1,"stim/13.jpeg",1,3,"stim/13.jpeg",3,"right",1.59400034,4,2,8.104000092,2,1.720000267,8,0,0,NA,0,NA,0
"378","stim/objects/HouseObjects/hairdryer.png",305,69,298,0.5,"stim/34.jpeg",3,4,1,1,"HouseObjects",1,3,"left","right",0.474999905,0,0,1,0,167,69,1,0.5,1,"stim/34.jpeg",3,4,"stim/34.jpeg",3,"right",0.776000261,1,2,0.553000212,4,0.975000143,167,0,0,NA,0,NA,0
"528","stim/objects/Instruments/grandpiano.png",306,69,299,0.9,"stim/13.jpeg",1,3,3,2,"Instruments",2,2,"right","left",0.501999855,0,0,1,0,NA,NA,NA,NA,NA,NA,NA,NA,NA,NA,NA,NA,NA,NA,NA,NA,NA,NA,NA,NA,NA,NA,NA,NA
"547","stim/objects/Instruments/hihat.png",307,69,300,0.5,"stim/31.jpeg",3,1,1,1,"Instruments",2,4,"right","left",0.787999868,0,0,1,0,16,69,1,0.5,1,"stim/31.jpeg",3,1,"stim/31.jpeg",4,"left",3.098000288,2,3,22.46500015,4,4.28000021,16,1,0,0,1,1,0
"512","stim/objects/Instruments/gong.png",308,69,301,0.9,"stim/11.jpeg",1,1,3,2,"Instruments",2,1,"right","right",0.621000051,1,1,1,0,NA,NA,NA,NA,NA,NA,NA,NA,NA,NA,NA,NA,NA,NA,NA,NA,NA,NA,NA,NA,NA,NA,NA,NA
"529","stim/objects/Instruments/grandpiano.png",309,69,302,0.9,"stim/12.jpeg",1,2,3,2,"Instruments",2,2,"right","right",0.631999969,1,1,1,0,NA,NA,NA,NA,NA,NA,NA,NA,NA,NA,NA,NA,NA,NA,NA,NA,NA,NA,NA,NA,NA,NA,NA,NA
"461","stim/objects/Instruments/flute.png",310,69,303,0.9,"stim/12.jpeg",1,2,3,2,"Instruments",2,4,"right","right",0.724999905,1,1,1,0,NA,NA,NA,NA,NA,NA,NA,NA,NA,NA,NA,NA,NA,NA,NA,NA,NA,NA,NA,NA,NA,NA,NA,NA
"462","stim/objects/Instruments/flute.png",311,69,304,0.9,"stim/14.jpeg",1,4,3,2,"Instruments",2,4,"right","right",0.791999817,1,1,1,0,NA,NA,NA,NA,NA,NA,NA,NA,NA,NA,NA,NA,NA,NA,NA,NA,NA,NA,NA,NA,NA,NA,NA,NA
"418","stim/objects/Instruments/bassdrum.png",312,69,305,0.5,"stim/34.jpeg",3,4,1,2,"Instruments",2,3,"right","left",0.581999779,0,0,1,0,NA,NA,NA,NA,NA,NA,NA,NA,NA,NA,NA,NA,NA,NA,NA,NA,NA,NA,NA,NA,NA,NA,NA,NA
"362","stim/objects/HouseObjects/glass.png",313,69,306,0.9,"stim/22.jpeg",2,2,3,2,"HouseObjects",1,2,"left","left",0.545999765,1,1,1,0,NA,NA,NA,NA,NA,NA,NA,NA,NA,NA,NA,NA,NA,NA,NA,NA,NA,NA,NA,NA,NA,NA,NA,NA
"545","stim/objects/Instruments/harp.png",314,69,307,0.5,"stim/34.jpeg",3,4,1,1,"Instruments",2,2,"right","right",0.836999893,1,1,1,0,181,69,1,0.5,1,"stim/34.jpeg",3,4,"stim/34.jpeg",2,"left",1.029999971,3,2,0.804000139,3,0.733000278,181,1,0,0,0,0,0
"328","stim/objects/HouseObjects/flyswatter.png",315,69,308,0.9,"stim/23.jpeg",2,3,3,2,"HouseObjects",1,1,"left","left",0.534999847,1,1,1,0,NA,NA,NA,NA,NA,NA,NA,NA,NA,NA,NA,NA,NA,NA,NA,NA,NA,NA,NA,NA,NA,NA,NA,NA
"388","stim/objects/HouseObjects/key.png",316,69,309,0.5,"stim/42.jpeg",4,2,1,1,"HouseObjects",1,4,"left","left",0.608999968,1,1,1,0,1,69,1,0.5,2,"stim/42.jpeg",4,2,"stim/42.jpeg",4,"left",3.579000235,3,3,7.751000166,2,8.895000219,1,1,0,0,0,0,0
"424","stim/objects/Instruments/cello.png",317,69,310,0.5,"stim/44.jpeg",4,4,1,2,"Instruments",2,4,"right","right",0.851999998,1,1,1,0,NA,NA,NA,NA,NA,NA,NA,NA,NA,NA,NA,NA,NA,NA,NA,NA,NA,NA,NA,NA,NA,NA,NA,NA
"404","stim/objects/HouseObjects/rubbergloves.png",318,69,311,0.3,"stim/51.jpeg",5,1,2,1,"HouseObjects",1,1,"left","left",0.56099987,1,1,1,0,43,69,1,0.3,1,"stim/51.jpeg",5,1,"stim/51.jpeg",1,"right",5.98900032,3,2,3.251000166,4,78.12300014,43,0,0,NA,0,NA,0
"564","stim/objects/Instruments/oboe2.png",319,69,312,0.1,"stim/21.jpeg",2,1,3,1,"Instruments",2,4,"right","left",0.697000027,0,0,1,0,42,69,1,0.1,2,"stim/21.jpeg",2,1,"stim/21.jpeg",4,"right",1.423000097,3,4,3.643000126,4,2.623000145,42,0,0,NA,1,NA,0
"251","stim/objects/HouseObjects/basket.png",320,69,313,0.5,"stim/34.jpeg",3,4,1,2,"HouseObjects",1,4,"left","right",0.615999937,0,0,1,0,NA,NA,NA,NA,NA,NA,NA,NA,NA,NA,NA,NA,NA,NA,NA,NA,NA,NA,NA,NA,NA,NA,NA,NA
"443","stim/objects/Instruments/doublebass2.png",321,69,314,0.3,"stim/64.jpeg",6,4,2,1,"Instruments",2,2,"right","left",0.613999844,0,0,1,0,98,69,1,0.3,2,"stim/64.jpeg",6,4,"stim/64.jpeg",2,"right",1.47900033,2,4,2.542999983,3,1.613000154,98,0,1,NA,0,NA,0
"447","stim/objects/Instruments/drums2.png",322,69,315,0.3,"stim/61.jpeg",6,1,2,1,"Instruments",2,3,"right","",NA,0,0,1,0,65,69,1,0.3,2,"stim/61.jpeg",6,1,"stim/61.jpeg",3,"right",2.444000244,2,2,1.116000175,3,1.563000202,65,0,0,NA,1,NA,0
"260","stim/objects/HouseObjects/bottle.png",323,69,316,0.5,"stim/44.jpeg",4,4,1,2,"HouseObjects",1,2,"left","left",0.526000023,1,1,1,0,NA,NA,NA,NA,NA,NA,NA,NA,NA,NA,NA,NA,NA,NA,NA,NA,NA,NA,NA,NA,NA,NA,NA,NA
"567","stim/objects/Instruments/pipepiano.png",324,69,317,0.7,"stim/51.jpeg",5,1,2,1,"Instruments",2,4,"right","right",0.609999895,1,1,1,0,115,69,1,0.7,2,"stim/51.jpeg",5,1,"stim/51.jpeg",4,"left",1.492000103,4,2,5.194000244,4,5.769000292,115,1,0,0,1,1,0
"395","stim/objects/HouseObjects/match2.png",325,69,318,0.9,"stim/21.jpeg",2,1,3,1,"HouseObjects",1,2,"left","left",0.605000019,1,1,1,0,51,69,1,0.9,1,"stim/21.jpeg",2,1,"stim/21.jpeg",2,"right",3.516000271,4,2,1.378000021,2,2.162000179,51,0,0,NA,1,NA,0
"463","stim/objects/Instruments/flute.png",326,69,319,0.9,"stim/12.jpeg",1,2,3,2,"Instruments",2,2,"right","right",0.578999758,1,1,1,0,NA,NA,NA,NA,NA,NA,NA,NA,NA,NA,NA,NA,NA,NA,NA,NA,NA,NA,NA,NA,NA,NA,NA,NA
"427","stim/objects/Instruments/chime.png",327,69,320,0.5,"stim/44.jpeg",4,4,1,2,"Instruments",2,1,"right","left",0.596999884,0,0,1,0,NA,NA,NA,NA,NA,NA,NA,NA,NA,NA,NA,NA,NA,NA,NA,NA,NA,NA,NA,NA,NA,NA,NA,NA
"478","stim/objects/Instruments/flutetrans.png",328,69,321,0.9,"stim/13.jpeg",1,3,3,2,"Instruments",2,3,"right","right",0.72699976,1,1,1,0,NA,NA,NA,NA,NA,NA,NA,NA,NA,NA,NA,NA,NA,NA,NA,NA,NA,NA,NA,NA,NA,NA,NA,NA
"330","stim/objects/HouseObjects/flyswatter.png",329,69,322,0.9,"stim/23.jpeg",2,3,3,2,"HouseObjects",1,1,"left","left",0.736999989,1,1,1,0,NA,NA,NA,NA,NA,NA,NA,NA,NA,NA,NA,NA,NA,NA,NA,NA,NA,NA,NA,NA,NA,NA,NA,NA
"550","stim/objects/Instruments/keyboard2.png",330,69,323,0.9,"stim/14.jpeg",1,4,3,1,"Instruments",2,2,"right","left",0.614000082,0,0,1,0,124,69,1,0.9,2,"stim/14.jpeg",1,4,"stim/14.jpeg",2,"right",1.460000038,3,3,16.68700004,2,1.836000204,124,0,0,NA,1,NA,0
"403","stim/objects/HouseObjects/remote2.png",331,69,324,0.9,"stim/21.jpeg",2,1,3,1,"HouseObjects",1,2,"left","left",0.681999922,1,1,1,0,156,69,1,0.9,1,"stim/21.jpeg",2,1,"stim/21.jpeg",2,"right",11.49300003,3,2,2.093000174,2,0.837000132,156,0,0,NA,1,NA,0
"568","stim/objects/Instruments/pipepiano2.png",332,69,325,0.1,"stim/23.jpeg",2,3,3,1,"Instruments",2,3,"right","left",0.586999893,0,0,1,0,64,69,1,0.1,2,"stim/23.jpeg",2,3,"stim/23.jpeg",3,"left",2.640000105,4,4,2.861000299,2,1.325000286,64,1,0,0,0,0,0
"513","stim/objects/Instruments/gong.png",333,69,326,0.9,"stim/13.jpeg",1,3,3,2,"Instruments",2,2,"right","left",0.628999949,0,0,1,0,NA,NA,NA,NA,NA,NA,NA,NA,NA,NA,NA,NA,NA,NA,NA,NA,NA,NA,NA,NA,NA,NA,NA,NA
"464","stim/objects/Instruments/flute.png",334,69,327,0.9,"stim/12.jpeg",1,2,3,2,"Instruments",2,2,"right","right",0.561999798,1,1,1,0,NA,NA,NA,NA,NA,NA,NA,NA,NA,NA,NA,NA,NA,NA,NA,NA,NA,NA,NA,NA,NA,NA,NA,NA
"542","stim/objects/Instruments/guitarcase2.png",335,69,328,0.9,"stim/14.jpeg",1,4,3,1,"Instruments",2,4,"right","right",0.458999872,1,1,1,0,39,69,1,0.9,2,"stim/14.jpeg",1,4,"stim/14.jpeg",4,"left",2.65500021,4,1,10.34600019,2,7.724000216,39,1,0,0,0,0,0
"254","stim/objects/HouseObjects/bleachbottle.png",336,69,329,0.5,"stim/32.jpeg",3,2,1,2,"HouseObjects",1,3,"left","left",0.814999819,1,1,1,0,NA,NA,NA,NA,NA,NA,NA,NA,NA,NA,NA,NA,NA,NA,NA,NA,NA,NA,NA,NA,NA,NA,NA,NA
"559","stim/objects/Instruments/musicsheet.png",337,69,330,0.5,"stim/44.jpeg",4,4,1,1,"Instruments",2,2,"right","right",0.502999783,1,1,1,0,187,69,1,0.5,2,"stim/44.jpeg",4,4,"stim/44.jpeg",2,"right",1.024000168,3,2,0.910000086,3,1.012000084,187,0,0,NA,0,NA,0
"436","stim/objects/Instruments/cymbal.png",338,69,331,0.7,"stim/51.jpeg",5,1,2,2,"Instruments",2,3,"right","right",0.554999828,1,1,1,0,NA,NA,NA,NA,NA,NA,NA,NA,NA,NA,NA,NA,NA,NA,NA,NA,NA,NA,NA,NA,NA,NA,NA,NA
"297","stim/objects/HouseObjects/doormat.png",339,69,332,0.9,"stim/23.jpeg",2,3,3,2,"HouseObjects",1,4,"left","left",0.523000002,1,1,1,0,NA,NA,NA,NA,NA,NA,NA,NA,NA,NA,NA,NA,NA,NA,NA,NA,NA,NA,NA,NA,NA,NA,NA,NA
"379","stim/objects/HouseObjects/hairdryer2.png",340,69,333,0.1,"stim/13.jpeg",1,3,3,1,"HouseObjects",1,4,"left","right",0.65199995,0,0,1,0,172,69,1,0.1,1,"stim/13.jpeg",1,3,"stim/13.jpeg",4,"right",0.889000177,2,2,0.835000038,3,0.503000021,172,0,0,NA,0,NA,0
"552","stim/objects/Instruments/laud2.png",341,69,334,0.1,"stim/23.jpeg",2,3,3,1,"Instruments",2,4,"right","left",0.553999901,0,0,1,0,107,69,1,0.1,2,"stim/23.jpeg",2,3,"stim/23.jpeg",4,"right",1.167999983,2,4,1.700000048,3,1.416000128,107,0,0,NA,0,NA,0
"492","stim/objects/Instruments/frenchhorn.png",342,69,335,0.9,"stim/13.jpeg",1,3,3,2,"Instruments",2,1,"right","right",0.546999693,1,1,1,0,NA,NA,NA,NA,NA,NA,NA,NA,NA,NA,NA,NA,NA,NA,NA,NA,NA,NA,NA,NA,NA,NA,NA,NA
"493","stim/objects/Instruments/frenchhorn.png",343,69,336,0.9,"stim/14.jpeg",1,4,3,2,"Instruments",2,4,"right","right",0.564999819,1,1,1,0,NA,NA,NA,NA,NA,NA,NA,NA,NA,NA,NA,NA,NA,NA,NA,NA,NA,NA,NA,NA,NA,NA,NA,NA
"286","stim/objects/HouseObjects/cushion2.png",344,69,337,0.7,"stim/64.jpeg",6,4,2,1,"HouseObjects",1,3,"left","left",0.621000051,1,1,1,0,31,69,1,0.7,1,"stim/64.jpeg",6,4,"stim/64.jpeg",3,"right",0.933000326,3,1,1.593000174,1,0.486000061,31,0,0,NA,0,NA,0
"315","stim/objects/HouseObjects/dustpan.png",345,69,338,0.9,"stim/23.jpeg",2,3,3,2,"HouseObjects",1,1,"left","left",0.584000111,1,1,1,0,NA,NA,NA,NA,NA,NA,NA,NA,NA,NA,NA,NA,NA,NA,NA,NA,NA,NA,NA,NA,NA,NA,NA,NA
"283","stim/objects/HouseObjects/cushion.png",346,69,339,0.7,"stim/64.jpeg",6,4,2,2,"HouseObjects",1,3,"left","left",0.72300005,1,1,1,0,NA,NA,NA,NA,NA,NA,NA,NA,NA,NA,NA,NA,NA,NA,NA,NA,NA,NA,NA,NA,NA,NA,NA,NA
"414","stim/objects/Instruments/balalaika2.png",347,69,340,0.7,"stim/51.jpeg",5,1,2,1,"Instruments",2,3,"right","right",0.482000113,1,1,1,0,44,69,1,0.7,2,"stim/51.jpeg",5,1,"stim/51.jpeg",3,"right",1.051000118,3,1,1.179000378,3,2.601000309,44,0,1,NA,1,NA,0
"426","stim/objects/Instruments/cello2.png",348,69,341,0.3,"stim/63.jpeg",6,3,2,1,"Instruments",2,4,"right","left",0.575999975,0,0,1,0,74,69,1,0.3,2,"stim/63.jpeg",6,3,"stim/63.jpeg",4,"left",1.919000149,2,4,3.384000301,1,1.863000154,74,1,0,0,0,0,0
"428","stim/objects/Instruments/chime.png",349,69,342,0.5,"stim/41.jpeg",4,1,1,2,"Instruments",2,2,"right","right",0.492000103,1,1,1,0,NA,NA,NA,NA,NA,NA,NA,NA,NA,NA,NA,NA,NA,NA,NA,NA,NA,NA,NA,NA,NA,NA,NA,NA
"555","stim/objects/Instruments/marimba.png",350,69,343,0.5,"stim/42.jpeg",4,2,1,1,"Instruments",2,4,"right","",NA,0,0,1,0,60,69,1,0.5,2,"stim/42.jpeg",4,2,"stim/42.jpeg",4,"left",1.731000185,3,4,13.25500011,2,3.837000132,60,1,0,0,0,0,0
"332","stim/objects/HouseObjects/flyswatter.png",351,69,344,0.9,"stim/21.jpeg",2,1,3,2,"HouseObjects",1,3,"left","left",0.503000021,1,1,1,0,NA,NA,NA,NA,NA,NA,NA,NA,NA,NA,NA,NA,NA,NA,NA,NA,NA,NA,NA,NA,NA,NA,NA,NA
"479","stim/objects/Instruments/flutetrans.png",352,69,345,0.9,"stim/14.jpeg",1,4,3,2,"Instruments",2,3,"right","right",0.546999931,1,1,1,0,NA,NA,NA,NA,NA,NA,NA,NA,NA,NA,NA,NA,NA,NA,NA,NA,NA,NA,NA,NA,NA,NA,NA,NA
"480","stim/objects/Instruments/flutetrans.png",353,69,346,0.9,"stim/12.jpeg",1,2,3,2,"Instruments",2,1,"right","left",0.595999956,0,0,1,0,NA,NA,NA,NA,NA,NA,NA,NA,NA,NA,NA,NA,NA,NA,NA,NA,NA,NA,NA,NA,NA,NA,NA,NA
"263","stim/objects/HouseObjects/broom.png",354,69,347,0.5,"stim/42.jpeg",4,2,1,2,"HouseObjects",1,1,"left","right",0.701999903,0,0,1,0,NA,NA,NA,NA,NA,NA,NA,NA,NA,NA,NA,NA,NA,NA,NA,NA,NA,NA,NA,NA,NA,NA,NA,NA
"455","stim/objects/Instruments/electricguitar2.png",355,69,348,0.3,"stim/63.jpeg",6,3,2,1,"Instruments",2,1,"right","left",0.630999804,0,0,1,0,56,69,1,0.3,2,"stim/63.jpeg",6,3,"stim/63.jpeg",1,"right",1.594000101,2,3,2.966000319,3,2.252000093,56,0,1,NA,0,NA,0
"348","stim/objects/HouseObjects/garbagebin.png",356,69,349,0.9,"stim/23.jpeg",2,3,3,2,"HouseObjects",1,2,"left","left",0.562999964,1,1,1,0,NA,NA,NA,NA,NA,NA,NA,NA,NA,NA,NA,NA,NA,NA,NA,NA,NA,NA,NA,NA,NA,NA,NA,NA
"437","stim/objects/Instruments/cymbal.png",357,69,350,0.7,"stim/53.jpeg",5,3,2,2,"Instruments",2,4,"right","right",0.497999907,1,1,1,0,NA,NA,NA,NA,NA,NA,NA,NA,NA,NA,NA,NA,NA,NA,NA,NA,NA,NA,NA,NA,NA,NA,NA,NA
"299","stim/objects/HouseObjects/doormat.png",358,69,351,0.9,"stim/22.jpeg",2,2,3,2,"HouseObjects",1,2,"left","left",0.537999868,1,1,1,0,NA,NA,NA,NA,NA,NA,NA,NA,NA,NA,NA,NA,NA,NA,NA,NA,NA,NA,NA,NA,NA,NA,NA,NA
"532","stim/objects/Instruments/grandpiano.png",359,69,352,0.9,"stim/11.jpeg",1,1,3,2,"Instruments",2,3,"right","right",0.496999979,1,1,1,0,NA,NA,NA,NA,NA,NA,NA,NA,NA,NA,NA,NA,NA,NA,NA,NA,NA,NA,NA,NA,NA,NA,NA,NA
"256","stim/objects/HouseObjects/blender.png",360,69,353,0.5,"stim/44.jpeg",4,4,1,2,"HouseObjects",1,2,"left","left",0.79399991,1,1,1,0,NA,NA,NA,NA,NA,NA,NA,NA,NA,NA,NA,NA,NA,NA,NA,NA,NA,NA,NA,NA,NA,NA,NA,NA
"255","stim/objects/HouseObjects/bleachbottle2.png",361,69,354,0.3,"stim/52.jpeg",5,2,2,1,"HouseObjects",1,4,"left","left",0.485999823,1,1,1,0,150,69,1,0.3,1,"stim/52.jpeg",5,2,"stim/52.jpeg",4,"right",0.683000088,2,4,1.890000343,1,0.770000219,150,0,0,NA,0,NA,0
"494","stim/objects/Instruments/frenchhorn.png",362,69,355,0.9,"stim/11.jpeg",1,1,3,2,"Instruments",2,4,"right","right",0.453999996,1,1,1,0,NA,NA,NA,NA,NA,NA,NA,NA,NA,NA,NA,NA,NA,NA,NA,NA,NA,NA,NA,NA,NA,NA,NA,NA
"365","stim/objects/HouseObjects/glass.png",363,69,356,0.9,"stim/21.jpeg",2,1,3,2,"HouseObjects",1,1,"left","left",0.60800004,1,1,1,0,NA,NA,NA,NA,NA,NA,NA,NA,NA,NA,NA,NA,NA,NA,NA,NA,NA,NA,NA,NA,NA,NA,NA,NA
"481","stim/objects/Instruments/flutetrans.png",364,69,357,0.9,"stim/14.jpeg",1,4,3,2,"Instruments",2,1,"right","right",0.680000067,1,1,1,0,NA,NA,NA,NA,NA,NA,NA,NA,NA,NA,NA,NA,NA,NA,NA,NA,NA,NA,NA,NA,NA,NA,NA,NA
"540","stim/objects/Instruments/grandpiano2.png",365,69,358,0.9,"stim/13.jpeg",1,3,3,1,"Instruments",2,1,"right","right",0.759999752,1,1,1,0,66,69,1,0.9,2,"stim/13.jpeg",1,3,"stim/13.jpeg",1,"right",2.053000212,2,4,4.058000088,3,3.879000187,66,0,0,NA,0,NA,0
"366","stim/objects/HouseObjects/glass.png",366,69,359,0.9,"stim/21.jpeg",2,1,3,2,"HouseObjects",1,1,"left","left",0.510999918,1,1,1,0,NA,NA,NA,NA,NA,NA,NA,NA,NA,NA,NA,NA,NA,NA,NA,NA,NA,NA,NA,NA,NA,NA,NA,NA
"300","stim/objects/HouseObjects/doormat.png",367,69,360,0.9,"stim/24.jpeg",2,4,3,2,"HouseObjects",1,3,"left","left",0.519999981,1,1,1,0,NA,NA,NA,NA,NA,NA,NA,NA,NA,NA,NA,NA,NA,NA,NA,NA,NA,NA,NA,NA,NA,NA,NA,NA
"533","stim/objects/Instruments/grandpiano.png",368,69,361,0.9,"stim/11.jpeg",1,1,3,2,"Instruments",2,3,"right","right",0.639999866,1,1,1,0,NA,NA,NA,NA,NA,NA,NA,NA,NA,NA,NA,NA,NA,NA,NA,NA,NA,NA,NA,NA,NA,NA,NA,NA
"451","stim/objects/Instruments/electricdrumset2.png",369,69,362,0.3,"stim/62.jpeg",6,2,2,1,"Instruments",2,4,"right","left",0.79399991,0,0,1,0,176,69,1,0.3,2,"stim/62.jpeg",6,2,"stim/62.jpeg",4,"right",1.592000246,2,3,0.772000074,1,0.70600009,176,0,0,NA,0,NA,0
"507","stim/objects/Instruments/gong.png",370,69,363,0.9,"stim/13.jpeg",1,3,3,2,"Instruments",2,2,"right","right",0.65199995,1,1,1,0,NA,NA,NA,NA,NA,NA,NA,NA,NA,NA,NA,NA,NA,NA,NA,NA,NA,NA,NA,NA,NA,NA,NA,NA
"516","stim/objects/Instruments/gong.png",371,69,364,0.9,"stim/11.jpeg",1,1,3,2,"Instruments",2,4,"right","right",0.622999907,1,1,1,0,NA,NA,NA,NA,NA,NA,NA,NA,NA,NA,NA,NA,NA,NA,NA,NA,NA,NA,NA,NA,NA,NA,NA,NA
"282","stim/objects/HouseObjects/coffee2.png",372,69,365,0.7,"stim/63.jpeg",6,3,2,1,"HouseObjects",1,1,"left","left",0.726999998,1,1,1,0,38,69,1,0.7,1,"stim/63.jpeg",6,3,"stim/63.jpeg",1,"right",2.409000158,3,4,2.708000183,2,3.308000326,38,0,0,NA,0,NA,0
"301","stim/objects/HouseObjects/doormat.png",373,69,366,0.9,"stim/24.jpeg",2,4,3,2,"HouseObjects",1,2,"left","left",0.596999884,1,1,1,0,NA,NA,NA,NA,NA,NA,NA,NA,NA,NA,NA,NA,NA,NA,NA,NA,NA,NA,NA,NA,NA,NA,NA,NA
"407","stim/objects/Instruments/accordion.png",374,69,367,0.5,"stim/31.jpeg",3,1,1,2,"Instruments",2,4,"right","left",0.579999924,0,0,1,0,NA,NA,NA,NA,NA,NA,NA,NA,NA,NA,NA,NA,NA,NA,NA,NA,NA,NA,NA,NA,NA,NA,NA,NA
"302","stim/objects/HouseObjects/doormat.png",375,69,368,0.9,"stim/24.jpeg",2,4,3,2,"HouseObjects",1,2,"left","left",0.500999928,1,1,1,0,NA,NA,NA,NA,NA,NA,NA,NA,NA,NA,NA,NA,NA,NA,NA,NA,NA,NA,NA,NA,NA,NA,NA,NA
"261","stim/objects/HouseObjects/bottle2.png",376,69,369,0.7,"stim/61.jpeg",6,1,2,1,"HouseObjects",1,4,"left","right",0.514999866,0,0,1,0,29,69,1,0.7,1,"stim/61.jpeg",6,1,"stim/61.jpeg",4,"right",1.11400032,3,4,3.958000183,2,0.720000267,29,0,0,NA,0,NA,0
"508","stim/objects/Instruments/gong.png",377,69,370,0.9,"stim/11.jpeg",1,1,3,2,"Instruments",2,2,"right","right",0.626999855,1,1,1,0,NA,NA,NA,NA,NA,NA,NA,NA,NA,NA,NA,NA,NA,NA,NA,NA,NA,NA,NA,NA,NA,NA,NA,NA
"335","stim/objects/HouseObjects/flyswatter.png",378,69,371,0.9,"stim/24.jpeg",2,4,3,2,"HouseObjects",1,1,"left","right",0.680999756,0,0,1,0,NA,NA,NA,NA,NA,NA,NA,NA,NA,NA,NA,NA,NA,NA,NA,NA,NA,NA,NA,NA,NA,NA,NA,NA
"566","stim/objects/Instruments/panflute2.png",379,69,372,0.1,"stim/22.jpeg",2,2,3,1,"Instruments",2,1,"right","left",0.601999998,0,0,1,0,35,69,1,0.1,2,"stim/22.jpeg",2,2,"stim/22.jpeg",1,"right",2.796000004,3,2,20.50900006,4,1.56400013,35,0,1,NA,0,NA,0
"457","stim/objects/Instruments/flute.png",380,69,373,0.9,"stim/11.jpeg",1,1,3,2,"Instruments",2,1,"right","right",0.657999992,1,1,1,0,NA,NA,NA,NA,NA,NA,NA,NA,NA,NA,NA,NA,NA,NA,NA,NA,NA,NA,NA,NA,NA,NA,NA,NA
"314","stim/objects/HouseObjects/dustpan.png",381,69,374,0.9,"stim/24.jpeg",2,4,3,2,"HouseObjects",1,1,"left","right",0.440999985,0,0,1,0,NA,NA,NA,NA,NA,NA,NA,NA,NA,NA,NA,NA,NA,NA,NA,NA,NA,NA,NA,NA,NA,NA,NA,NA
"558","stim/objects/Instruments/metronome2.png",382,69,375,0.1,"stim/22.jpeg",2,2,3,1,"Instruments",2,3,"right","left",0.450000048,0,0,1,0,13,69,1,0.1,2,"stim/22.jpeg",2,2,"stim/22.jpeg",3,"left",1.70600009,3,3,17.98000026,2,3.110000134,13,1,0,0,0,0,0
"393","stim/objects/HouseObjects/lintroller2.png",383,69,376,0.9,"stim/24.jpeg",2,4,3,1,"HouseObjects",1,4,"left","left",0.432999849,1,1,1,0,50,69,1,0.9,1,"stim/24.jpeg",2,4,"stim/24.jpeg",4,"right",0.936000347,4,4,2.986999989,2,2.114000082,50,0,1,NA,0,NA,0
"506","stim/objects/Instruments/frenchhorn2.png",384,69,377,0.9,"stim/11.jpeg",1,1,3,1,"Instruments",2,1,"right","right",0.535000086,1,1,1,0,104,69,1,0.9,2,"stim/11.jpeg",1,1,"stim/11.jpeg",1,"left",1.34800005,4,3,6.520000219,4,3.588000059,104,1,0,0,0,0,0
"247","stim/objects/HouseObjects/barbecuelighter.png",385,69,378,0.5,"stim/33.jpeg",3,3,1,2,"HouseObjects",1,2,"left","",NA,0,0,1,0,NA,NA,NA,NA,NA,NA,NA,NA,NA,NA,NA,NA,NA,NA,NA,NA,NA,NA,NA,NA,NA,NA,NA,NA
"349","stim/objects/HouseObjects/garbagebin.png",386,69,379,0.9,"stim/23.jpeg",2,3,3,2,"HouseObjects",1,1,"left","left",0.488999844,1,1,1,0,NA,NA,NA,NA,NA,NA,NA,NA,NA,NA,NA,NA,NA,NA,NA,NA,NA,NA,NA,NA,NA,NA,NA,NA
"309","stim/objects/HouseObjects/dustpan.png",387,69,380,0.9,"stim/23.jpeg",2,3,3,2,"HouseObjects",1,4,"left","left",0.570999861,1,1,1,0,NA,NA,NA,NA,NA,NA,NA,NA,NA,NA,NA,NA,NA,NA,NA,NA,NA,NA,NA,NA,NA,NA,NA,NA
"298","stim/objects/HouseObjects/doormat.png",388,69,381,0.9,"stim/23.jpeg",2,3,3,2,"HouseObjects",1,3,"left","left",0.544999838,1,1,1,0,NA,NA,NA,NA,NA,NA,NA,NA,NA,NA,NA,NA,NA,NA,NA,NA,NA,NA,NA,NA,NA,NA,NA,NA
"518","stim/objects/Instruments/gong.png",389,69,382,0.9,"stim/11.jpeg",1,1,3,2,"Instruments",2,3,"right","right",0.667999983,1,1,1,0,NA,NA,NA,NA,NA,NA,NA,NA,NA,NA,NA,NA,NA,NA,NA,NA,NA,NA,NA,NA,NA,NA,NA,NA
"268","stim/objects/HouseObjects/clock.png",390,69,383,0.5,"stim/43.jpeg",4,3,1,2,"HouseObjects",1,1,"left","left",0.696999788,1,1,1,0,NA,NA,NA,NA,NA,NA,NA,NA,NA,NA,NA,NA,NA,NA,NA,NA,NA,NA,NA,NA,NA,NA,NA,NA
"259","stim/objects/HouseObjects/bottle.png",391,69,384,0.5,"stim/41.jpeg",4,1,1,2,"HouseObjects",1,2,"left","left",0.593999863,1,1,1,0,NA,NA,NA,NA,NA,NA,NA,NA,NA,NA,NA,NA,NA,NA,NA,NA,NA,NA,NA,NA,NA,NA,NA,NA
"565","stim/objects/Instruments/panflute.png",392,69,385,0.7,"stim/54.jpeg",5,4,2,1,"Instruments",2,4,"right","right",0.632999897,1,1,1,0,177,69,1,0.7,2,"stim/54.jpeg",5,4,"stim/54.jpeg",4,"right",0.730000019,4,2,0.666000128,1,0.24000001,177,0,0,NA,0,NA,0
"459","stim/objects/Instruments/flute.png",393,69,386,0.9,"stim/13.jpeg",1,3,3,2,"Instruments",2,3,"right","right",0.76699996,1,1,1,0,NA,NA,NA,NA,NA,NA,NA,NA,NA,NA,NA,NA,NA,NA,NA,NA,NA,NA,NA,NA,NA,NA,NA,NA
"287","stim/objects/HouseObjects/dishsoap.png",394,69,387,0.7,"stim/62.jpeg",6,2,2,2,"HouseObjects",1,1,"left","left",0.649999857,1,1,1,0,NA,NA,NA,NA,NA,NA,NA,NA,NA,NA,NA,NA,NA,NA,NA,NA,NA,NA,NA,NA,NA,NA,NA,NA
"401","stim/objects/HouseObjects/recyclingbin2.png",395,69,388,0.9,"stim/24.jpeg",2,4,3,1,"HouseObjects",1,1,"left","left",0.819999933,1,1,1,0,77,69,1,0.9,1,"stim/24.jpeg",2,4,"stim/24.jpeg",1,"right",1.23300004,4,3,2.161000013,2,2.08100009,77,0,0,NA,0,NA,0
"474","stim/objects/Instruments/flutetrans.png",396,69,389,0.9,"stim/12.jpeg",1,2,3,2,"Instruments",2,4,"right","right",0.575000048,1,1,1,0,NA,NA,NA,NA,NA,NA,NA,NA,NA,NA,NA,NA,NA,NA,NA,NA,NA,NA,NA,NA,NA,NA,NA,NA
"359","stim/objects/HouseObjects/glass.png",397,69,390,0.9,"stim/24.jpeg",2,4,3,2,"HouseObjects",1,4,"left","right",0.562999964,0,0,1,0,NA,NA,NA,NA,NA,NA,NA,NA,NA,NA,NA,NA,NA,NA,NA,NA,NA,NA,NA,NA,NA,NA,NA,NA
"453","stim/objects/Instruments/electricguitar.png",398,69,391,0.7,"stim/53.jpeg",5,3,2,2,"Instruments",2,4,"right","right",0.640000105,1,1,1,0,NA,NA,NA,NA,NA,NA,NA,NA,NA,NA,NA,NA,NA,NA,NA,NA,NA,NA,NA,NA,NA,NA,NA,NA
"472","stim/objects/Instruments/flute2.png",399,69,392,0.9,"stim/13.jpeg",1,3,3,1,"Instruments",2,3,"right","right",0.763999701,1,1,1,0,70,69,1,0.9,2,"stim/13.jpeg",1,3,"stim/13.jpeg",3,"right",1.493999958,2,1,1.71900034,4,2.291000366,70,0,0,NA,0,NA,0
"551","stim/objects/Instruments/laud.png",400,69,393,0.5,"stim/44.jpeg",4,4,1,1,"Instruments",2,1,"right","left",0.711999893,0,0,1,0,189,69,1,0.5,2,"stim/44.jpeg",4,4,"stim/44.jpeg",1,"right",1.049000263,3,1,0.738000154,3,0.554000139,189,0,0,NA,0,NA,0
"485","stim/objects/Instruments/flutetrans.png",401,69,394,0.9,"stim/14.jpeg",1,4,3,2,"Instruments",2,4,"right","left",0.730999708,0,0,1,0,NA,NA,NA,NA,NA,NA,NA,NA,NA,NA,NA,NA,NA,NA,NA,NA,NA,NA,NA,NA,NA,NA,NA,NA
"554","stim/objects/Instruments/maraca2.png",402,69,395,0.1,"stim/24.jpeg",2,4,3,1,"Instruments",2,4,"right","left",0.583999872,0,0,1,0,73,69,1,0.1,2,"stim/24.jpeg",2,4,"stim/24.jpeg",4,"right",2.872000217,2,3,5.023000002,2,2.304000139,73,0,0,NA,0,NA,0
"264","stim/objects/HouseObjects/broom2.png",403,69,396,0.7,"stim/62.jpeg",6,2,2,1,"HouseObjects",1,2,"left","left",0.669000149,1,1,1,0,81,69,1,0.7,1,"stim/62.jpeg",6,2,"stim/62.jpeg",2,"right",1.137000084,1,2,2.060000181,2,1.271000147,81,0,1,NA,1,NA,0
"420","stim/objects/Instruments/bassdrum2.png",404,69,397,0.7,"stim/53.jpeg",5,3,2,1,"Instruments",2,2,"right","right",0.531999826,1,1,1,0,11,69,1,0.7,2,"stim/53.jpeg",5,3,"stim/53.jpeg",2,"left",3.26300025,2,4,8.333000183,1,3.748000145,11,1,0,0,0,0,0
"316","stim/objects/HouseObjects/dustpan.png",405,69,398,0.9,"stim/21.jpeg",2,1,3,2,"HouseObjects",1,3,"left","left",0.568000078,1,1,1,0,NA,NA,NA,NA,NA,NA,NA,NA,NA,NA,NA,NA,NA,NA,NA,NA,NA,NA,NA,NA,NA,NA,NA,NA
"562","stim/objects/Instruments/musicstand2.png",406,69,399,0.1,"stim/24.jpeg",2,4,3,1,"Instruments",2,3,"right","left",0.777999878,0,0,1,0,129,69,1,0.1,2,"stim/24.jpeg",2,4,"stim/24.jpeg",3,"right",4.221000195,4,3,2.618000031,4,1.417000055,129,0,0,NA,0,NA,0
"248","stim/objects/HouseObjects/barbecuelighter.png",407,69,400,0.5,"stim/34.jpeg",3,4,1,2,"HouseObjects",1,1,"left","left",0.769999981,1,1,1,0,NA,NA,NA,NA,NA,NA,NA,NA,NA,NA,NA,NA,NA,NA,NA,NA,NA,NA,NA,NA,NA,NA,NA,NA
"570","stim/objects/Instruments/record2.png",408,69,401,0.1,"stim/24.jpeg",2,4,3,1,"Instruments",2,3,"right","left",0.607999802,0,0,1,0,87,69,1,0.1,2,"stim/24.jpeg",2,4,"stim/24.jpeg",3,"left",1.032999992,3,1,2.275000334,2,1.685000181,87,1,0,0,0,0,0
"406","stim/objects/Instruments/accordion.png",409,69,402,0.5,"stim/34.jpeg",3,4,1,2,"Instruments",2,1,"right","right",0.493000031,1,1,1,0,NA,NA,NA,NA,NA,NA,NA,NA,NA,NA,NA,NA,NA,NA,NA,NA,NA,NA,NA,NA,NA,NA,NA,NA
"326","stim/objects/HouseObjects/flyswatter.png",410,69,403,0.9,"stim/24.jpeg",2,4,3,2,"HouseObjects",1,3,"left","left",0.463999987,1,1,1,0,NA,NA,NA,NA,NA,NA,NA,NA,NA,NA,NA,NA,NA,NA,NA,NA,NA,NA,NA,NA,NA,NA,NA,NA
"497","stim/objects/Instruments/frenchhorn.png",411,69,404,0.9,"stim/14.jpeg",1,4,3,2,"Instruments",2,1,"right","right",0.710000038,1,1,1,0,NA,NA,NA,NA,NA,NA,NA,NA,NA,NA,NA,NA,NA,NA,NA,NA,NA,NA,NA,NA,NA,NA,NA,NA
"310","stim/objects/HouseObjects/dustpan.png",412,69,405,0.9,"stim/24.jpeg",2,4,3,2,"HouseObjects",1,1,"left","left",0.645999908,1,1,1,0,NA,NA,NA,NA,NA,NA,NA,NA,NA,NA,NA,NA,NA,NA,NA,NA,NA,NA,NA,NA,NA,NA,NA,NA
"245","stim/objects/HouseObjects/ballofstring.png",413,69,406,0.5,"stim/32.jpeg",3,2,1,2,"HouseObjects",1,3,"left","left",0.673999786,1,1,1,0,NA,NA,NA,NA,NA,NA,NA,NA,NA,NA,NA,NA,NA,NA,NA,NA,NA,NA,NA,NA,NA,NA,NA,NA
"433","stim/objects/Instruments/cornet.png",414,69,407,0.5,"stim/42.jpeg",4,2,1,2,"Instruments",2,3,"right","left",0.500999928,0,0,1,0,NA,NA,NA,NA,NA,NA,NA,NA,NA,NA,NA,NA,NA,NA,NA,NA,NA,NA,NA,NA,NA,NA,NA,NA
"278","stim/objects/HouseObjects/clothespin2.png",415,69,408,0.7,"stim/62.jpeg",6,2,2,1,"HouseObjects",1,4,"left","left",0.585999727,1,1,1,0,91,69,1,0.7,1,"stim/62.jpeg",6,2,"stim/62.jpeg",4,"left",0.963000059,4,4,5.685000181,4,1.741000175,91,1,0,0,1,1,0
"266","stim/objects/HouseObjects/bucket.png",416,69,409,0.5,"stim/42.jpeg",4,2,1,2,"HouseObjects",1,4,"left","left",0.487999916,1,1,1,0,NA,NA,NA,NA,NA,NA,NA,NA,NA,NA,NA,NA,NA,NA,NA,NA,NA,NA,NA,NA,NA,NA,NA,NA
"311","stim/objects/HouseObjects/dustpan.png",417,69,410,0.9,"stim/23.jpeg",2,3,3,2,"HouseObjects",1,4,"left","left",0.617999792,1,1,1,0,NA,NA,NA,NA,NA,NA,NA,NA,NA,NA,NA,NA,NA,NA,NA,NA,NA,NA,NA,NA,NA,NA,NA,NA
"304","stim/objects/HouseObjects/doormat.png",418,69,411,0.9,"stim/22.jpeg",2,2,3,2,"HouseObjects",1,2,"left","left",0.573999882,1,1,1,0,NA,NA,NA,NA,NA,NA,NA,NA,NA,NA,NA,NA,NA,NA,NA,NA,NA,NA,NA,NA,NA,NA,NA,NA
"273","stim/objects/HouseObjects/clothesdryingrack.png",419,69,412,0.7,"stim/63.jpeg",6,3,2,2,"HouseObjects",1,2,"left","right",0.61500001,0,0,1,0,NA,NA,NA,NA,NA,NA,NA,NA,NA,NA,NA,NA,NA,NA,NA,NA,NA,NA,NA,NA,NA,NA,NA,NA
"408","stim/objects/Instruments/accordion2.png",420,69,413,0.7,"stim/53.jpeg",5,3,2,1,"Instruments",2,4,"right","left",0.516000032,0,0,1,0,200,69,1,0.7,2,"stim/53.jpeg",5,3,"stim/53.jpeg",4,"right",15.89400005,3,1,1.061000109,1,0.642000198,200,0,0,NA,0,NA,0
"294","stim/objects/HouseObjects/doormat.png",421,69,414,0.9,"stim/23.jpeg",2,3,3,2,"HouseObjects",1,2,"left","left",0.514999866,1,1,1,0,NA,NA,NA,NA,NA,NA,NA,NA,NA,NA,NA,NA,NA,NA,NA,NA,NA,NA,NA,NA,NA,NA,NA,NA
"511","stim/objects/Instruments/gong.png",422,69,415,0.9,"stim/12.jpeg",1,2,3,2,"Instruments",2,4,"right","right",0.601000071,1,1,1,0,NA,NA,NA,NA,NA,NA,NA,NA,NA,NA,NA,NA,NA,NA,NA,NA,NA,NA,NA,NA,NA,NA,NA,NA
"390","stim/objects/HouseObjects/knife.png",423,69,416,0.5,"stim/43.jpeg",4,3,1,1,"HouseObjects",1,1,"left","left",0.704999924,1,1,1,0,171,69,1,0.5,2,"stim/43.jpeg",4,3,"stim/43.jpeg",1,"right",0.705000162,4,3,1.48900032,2,0.775000334,171,0,1,NA,0,NA,0
"397","stim/objects/HouseObjects/pan2.png",424,69,417,0.9,"stim/22.jpeg",2,2,3,1,"HouseObjects",1,3,"left","left",0.573999882,1,1,1,0,151,69,1,0.9,1,"stim/22.jpeg",2,2,"stim/22.jpeg",3,"left",1.981000185,2,4,1.213000059,2,1.275000334,151,1,0,0,0,0,0
"546","stim/objects/Instruments/harp2.png",425,69,418,0.9,"stim/12.jpeg",1,2,3,1,"Instruments",2,2,"right","right",0.825999975,1,1,1,0,23,69,1,0.9,2,"stim/12.jpeg",1,2,"stim/12.jpeg",2,"left",1.480000019,3,4,6.027000189,3,5.152000189,23,1,0,0,0,0,0
"279","stim/objects/HouseObjects/coffee.png",426,69,419,0.7,"stim/64.jpeg",6,4,2,2,"HouseObjects",1,2,"left","left",0.76699996,1,1,1,0,NA,NA,NA,NA,NA,NA,NA,NA,NA,NA,NA,NA,NA,NA,NA,NA,NA,NA,NA,NA,NA,NA,NA,NA
"280","stim/objects/HouseObjects/coffee.png",427,69,420,0.7,"stim/63.jpeg",6,3,2,2,"HouseObjects",1,1,"left","left",0.579999924,1,1,1,0,NA,NA,NA,NA,NA,NA,NA,NA,NA,NA,NA,NA,NA,NA,NA,NA,NA,NA,NA,NA,NA,NA,NA,NA
"327","stim/objects/HouseObjects/flyswatter.png",428,69,421,0.9,"stim/21.jpeg",2,1,3,2,"HouseObjects",1,3,"left","left",0.517999887,1,1,1,0,NA,NA,NA,NA,NA,NA,NA,NA,NA,NA,NA,NA,NA,NA,NA,NA,NA,NA,NA,NA,NA,NA,NA,NA
"499","stim/objects/Instruments/frenchhorn.png",429,69,422,0.9,"stim/11.jpeg",1,1,3,2,"Instruments",2,3,"right","left",0.510999918,0,0,1,0,NA,NA,NA,NA,NA,NA,NA,NA,NA,NA,NA,NA,NA,NA,NA,NA,NA,NA,NA,NA,NA,NA,NA,NA
"500","stim/objects/Instruments/frenchhorn.png",430,69,423,0.9,"stim/12.jpeg",1,2,3,2,"Instruments",2,2,"right","right",0.381999969,1,1,1,0,NA,NA,NA,NA,NA,NA,NA,NA,NA,NA,NA,NA,NA,NA,NA,NA,NA,NA,NA,NA,NA,NA,NA,NA
"435","stim/objects/Instruments/cornet2.png",431,69,424,0.3,"stim/62.jpeg",6,2,2,1,"Instruments",2,2,"right","left",0.737999916,0,0,1,0,160,69,1,0.3,2,"stim/62.jpeg",6,2,"stim/62.jpeg",2,"left",0.838000059,2,3,3.046000242,4,1.677000284,160,1,0,0,0,0,0
"501","stim/objects/Instruments/frenchhorn.png",432,69,425,0.9,"stim/13.jpeg",1,3,3,2,"Instruments",2,1,"right","right",0.723999977,1,1,1,0,NA,NA,NA,NA,NA,NA,NA,NA,NA,NA,NA,NA,NA,NA,NA,NA,NA,NA,NA,NA,NA,NA,NA,NA
"502","stim/objects/Instruments/frenchhorn.png",433,69,426,0.9,"stim/12.jpeg",1,2,3,2,"Instruments",2,2,"right","right",0.67599988,1,1,1,0,NA,NA,NA,NA,NA,NA,NA,NA,NA,NA,NA,NA,NA,NA,NA,NA,NA,NA,NA,NA,NA,NA,NA,NA
"535","stim/objects/Instruments/grandpiano.png",434,69,427,0.9,"stim/12.jpeg",1,2,3,2,"Instruments",2,2,"right","right",0.626999855,1,1,1,0,NA,NA,NA,NA,NA,NA,NA,NA,NA,NA,NA,NA,NA,NA,NA,NA,NA,NA,NA,NA,NA,NA,NA,NA
"296","stim/objects/HouseObjects/doormat.png",435,69,428,0.9,"stim/21.jpeg",2,1,3,2,"HouseObjects",1,2,"left","right",0.862999916,0,0,1,0,NA,NA,NA,NA,NA,NA,NA,NA,NA,NA,NA,NA,NA,NA,NA,NA,NA,NA,NA,NA,NA,NA,NA,NA
"521","stim/objects/Instruments/gong.png",436,69,429,0.9,"stim/14.jpeg",1,4,3,2,"Instruments",2,3,"right","right",0.638999939,1,1,1,0,NA,NA,NA,NA,NA,NA,NA,NA,NA,NA,NA,NA,NA,NA,NA,NA,NA,NA,NA,NA,NA,NA,NA,NA
"345","stim/objects/HouseObjects/garbagebin.png",437,69,430,0.9,"stim/21.jpeg",2,1,3,2,"HouseObjects",1,3,"left","left",0.575999975,1,1,1,0,NA,NA,NA,NA,NA,NA,NA,NA,NA,NA,NA,NA,NA,NA,NA,NA,NA,NA,NA,NA,NA,NA,NA,NA
"520","stim/objects/Instruments/gong.png",438,69,431,0.9,"stim/13.jpeg",1,3,3,2,"Instruments",2,3,"right","",NA,0,0,1,0,NA,NA,NA,NA,NA,NA,NA,NA,NA,NA,NA,NA,NA,NA,NA,NA,NA,NA,NA,NA,NA,NA,NA,NA
"477","stim/objects/Instruments/flutetrans.png",439,69,432,0.9,"stim/11.jpeg",1,1,3,2,"Instruments",2,2,"right","right",0.736000061,1,1,1,0,NA,NA,NA,NA,NA,NA,NA,NA,NA,NA,NA,NA,NA,NA,NA,NA,NA,NA,NA,NA,NA,NA,NA,NA
"553","stim/objects/Instruments/maraca.png",440,69,433,0.5,"stim/41.jpeg",4,1,1,1,"Instruments",2,3,"right","right",0.505999804,1,1,1,0,118,69,1,0.5,2,"stim/41.jpeg",4,1,"stim/41.jpeg",3,"left",1.066000223,3,1,1.818000317,4,1.494000196,118,1,1,1,0,0,0
"284","stim/objects/HouseObjects/cushion.png",441,69,434,0.7,"stim/62.jpeg",6,2,2,2,"HouseObjects",1,3,"left","left",0.568999767,1,1,1,0,NA,NA,NA,NA,NA,NA,NA,NA,NA,NA,NA,NA,NA,NA,NA,NA,NA,NA,NA,NA,NA,NA,NA,NA
"363","stim/objects/HouseObjects/glass.png",442,69,435,0.9,"stim/24.jpeg",2,4,3,2,"HouseObjects",1,4,"left","left",0.55099988,1,1,1,0,NA,NA,NA,NA,NA,NA,NA,NA,NA,NA,NA,NA,NA,NA,NA,NA,NA,NA,NA,NA,NA,NA,NA,NA
"530","stim/objects/Instruments/grandpiano.png",443,69,436,0.9,"stim/14.jpeg",1,4,3,2,"Instruments",2,2,"right","right",0.608999729,1,1,1,0,NA,NA,NA,NA,NA,NA,NA,NA,NA,NA,NA,NA,NA,NA,NA,NA,NA,NA,NA,NA,NA,NA,NA,NA
"544","stim/objects/Instruments/harmonica2.png",444,69,437,0.9,"stim/11.jpeg",1,1,3,1,"Instruments",2,3,"right","right",0.815000057,1,1,1,0,128,69,1,0.9,2,"stim/11.jpeg",1,1,"stim/11.jpeg",3,"right",1.971000195,4,1,1.011000156,3,0.930000305,128,0,1,NA,1,NA,0
"288","stim/objects/HouseObjects/dishsoap.png",445,69,438,0.7,"stim/63.jpeg",6,3,2,2,"HouseObjects",1,4,"left","left",0.592000008,1,1,1,0,NA,NA,NA,NA,NA,NA,NA,NA,NA,NA,NA,NA,NA,NA,NA,NA,NA,NA,NA,NA,NA,NA,NA,NA
"243","stim/objects/HouseObjects/ashtray2.png",446,69,439,0.3,"stim/52.jpeg",5,2,2,1,"HouseObjects",1,3,"left","left",0.632999897,1,1,1,0,157,69,1,0.3,1,"stim/52.jpeg",5,2,"stim/52.jpeg",3,"right",1.039000273,3,1,1.133000135,4,1.776000261,157,0,0,NA,0,NA,0
"305","stim/objects/HouseObjects/doormat.png",447,69,440,0.9,"stim/22.jpeg",2,2,3,2,"HouseObjects",1,1,"left","left",0.67599988,1,1,1,0,NA,NA,NA,NA,NA,NA,NA,NA,NA,NA,NA,NA,NA,NA,NA,NA,NA,NA,NA,NA,NA,NA,NA,NA
"431","stim/objects/Instruments/clarinet.png",448,69,441,0.5,"stim/41.jpeg",4,1,1,2,"Instruments",2,4,"right","left",0.65899992,0,0,1,0,NA,NA,NA,NA,NA,NA,NA,NA,NA,NA,NA,NA,NA,NA,NA,NA,NA,NA,NA,NA,NA,NA,NA,NA
"338","stim/objects/HouseObjects/flyswatter.png",449,69,442,0.9,"stim/24.jpeg",2,4,3,2,"HouseObjects",1,4,"left","left",0.571000099,1,1,1,0,NA,NA,NA,NA,NA,NA,NA,NA,NA,NA,NA,NA,NA,NA,NA,NA,NA,NA,NA,NA,NA,NA,NA,NA
"503","stim/objects/Instruments/frenchhorn.png",450,69,443,0.9,"stim/13.jpeg",1,3,3,2,"Instruments",2,1,"right","right",0.586999893,1,1,1,0,NA,NA,NA,NA,NA,NA,NA,NA,NA,NA,NA,NA,NA,NA,NA,NA,NA,NA,NA,NA,NA,NA,NA,NA
"265","stim/objects/HouseObjects/bucket.png",451,69,444,0.5,"stim/43.jpeg",4,3,1,2,"HouseObjects",1,3,"left","left",0.563999891,1,1,1,0,NA,NA,NA,NA,NA,NA,NA,NA,NA,NA,NA,NA,NA,NA,NA,NA,NA,NA,NA,NA,NA,NA,NA,NA
"548","stim/objects/Instruments/hihat2.png",452,69,445,0.9,"stim/13.jpeg",1,3,3,1,"Instruments",2,3,"right","left",0.490999937,0,0,1,0,192,69,1,0.9,2,"stim/13.jpeg",1,3,"stim/13.jpeg",3,"left",0.822000265,3,2,1.736000299,3,0.798000336,192,1,0,0,1,1,0
"331","stim/objects/HouseObjects/flyswatter.png",453,69,446,0.9,"stim/23.jpeg",2,3,3,2,"HouseObjects",1,4,"left","left",0.554999828,1,1,1,0,NA,NA,NA,NA,NA,NA,NA,NA,NA,NA,NA,NA,NA,NA,NA,NA,NA,NA,NA,NA,NA,NA,NA,NA
"411","stim/objects/Instruments/acousticguitar2.png",454,69,447,0.7,"stim/54.jpeg",5,4,2,1,"Instruments",2,1,"right","left",0.601000071,0,0,1,0,173,69,1,0.7,2,"stim/54.jpeg",5,4,"stim/54.jpeg",1,"right",1.349000216,3,1,0.635000229,3,0.921000242,173,0,0,NA,0,NA,0
"439","stim/objects/Instruments/cymbal2.png",455,69,448,0.3,"stim/63.jpeg",6,3,2,1,"Instruments",2,3,"right","left",0.824999809,0,0,1,0,25,69,1,0.3,2,"stim/63.jpeg",6,3,"stim/63.jpeg",3,"right",1.726000309,3,2,12.64100027,2,2.006999969,25,0,0,NA,0,NA,0
"569","stim/objects/Instruments/record.png",456,69,449,0.7,"stim/52.jpeg",5,2,2,1,"Instruments",2,3,"right","",NA,0,0,1,0,188,69,1,0.7,2,"stim/52.jpeg",5,2,"stim/52.jpeg",3,"left",1.58100009,3,4,1.638999939,3,0.668000221,188,1,0,0,1,1,0
"409","stim/objects/Instruments/acousticguitar.png",457,69,450,0.5,"stim/32.jpeg",3,2,1,2,"Instruments",2,3,"right","",NA,0,0,1,0,NA,NA,NA,NA,NA,NA,NA,NA,NA,NA,NA,NA,NA,NA,NA,NA,NA,NA,NA,NA,NA,NA,NA,NA
"377","stim/objects/HouseObjects/glassmop2.png",458,69,451,0.1,"stim/12.jpeg",1,2,3,1,"HouseObjects",1,3,"left","right",0.650000095,0,0,1,0,2,69,1,0.1,1,"stim/12.jpeg",1,2,"stim/12.jpeg",3,"right",2.872000217,3,1,3.965000153,1,4.649000168,2,0,0,NA,0,NA,0
"402","stim/objects/HouseObjects/remote.png",459,69,452,0.3,"stim/54.jpeg",5,4,2,1,"HouseObjects",1,3,"left","right",0.57400012,0,0,1,0,9,69,1,0.3,1,"stim/54.jpeg",5,4,"stim/54.jpeg",3,"right",2.606000185,3,2,8.289000034,4,5.982000113,9,0,0,NA,0,NA,0
"336","stim/objects/HouseObjects/flyswatter.png",460,69,453,0.9,"stim/21.jpeg",2,1,3,2,"HouseObjects",1,1,"left","left",0.637999773,1,1,1,0,NA,NA,NA,NA,NA,NA,NA,NA,NA,NA,NA,NA,NA,NA,NA,NA,NA,NA,NA,NA,NA,NA,NA,NA
"346","stim/objects/HouseObjects/garbagebin.png",461,69,454,0.9,"stim/22.jpeg",2,2,3,2,"HouseObjects",1,2,"left","left",0.615999937,1,1,1,0,NA,NA,NA,NA,NA,NA,NA,NA,NA,NA,NA,NA,NA,NA,NA,NA,NA,NA,NA,NA,NA,NA,NA,NA
"385","stim/objects/HouseObjects/iron2.png",462,69,455,0.1,"stim/12.jpeg",1,2,3,1,"HouseObjects",1,4,"left","right",0.842000008,0,0,1,0,102,69,1,0.1,1,"stim/12.jpeg",1,2,"stim/12.jpeg",4,"right",2.202000141,2,1,1.65500021,2,1.493000269,102,0,0,NA,0,NA,0
"376","stim/objects/HouseObjects/glassmop.png",463,69,456,0.5,"stim/33.jpeg",3,3,1,1,"HouseObjects",1,1,"left","left",0.529999733,1,1,1,0,103,69,1,0.5,1,"stim/33.jpeg",3,3,"stim/33.jpeg",1,"right",1.170000076,3,4,2.5400002,2,1.912000179,103,0,0,NA,0,NA,0
"324","stim/objects/HouseObjects/dustpan2.png",464,69,457,0.1,"stim/12.jpeg",1,2,3,1,"HouseObjects",1,2,"left","left",0.507999897,1,1,1,0,93,69,1,0.1,1,"stim/12.jpeg",1,2,"stim/12.jpeg",2,"right",1.961000204,2,3,3.604000092,2,2.620000124,93,0,0,NA,1,NA,0
"295","stim/objects/HouseObjects/doormat.png",465,69,458,0.9,"stim/23.jpeg",2,3,3,2,"HouseObjects",1,1,"left","left",0.544999838,1,1,1,0,NA,NA,NA,NA,NA,NA,NA,NA,NA,NA,NA,NA,NA,NA,NA,NA,NA,NA,NA,NA,NA,NA,NA,NA
"337","stim/objects/HouseObjects/flyswatter.png",466,69,459,0.9,"stim/22.jpeg",2,2,3,2,"HouseObjects",1,1,"left","right",0.718999863,0,0,1,0,NA,NA,NA,NA,NA,NA,NA,NA,NA,NA,NA,NA,NA,NA,NA,NA,NA,NA,NA,NA,NA,NA,NA,NA
