"","obj_file","X.x","participant.x","trialN.x","trial_cond","scn_file.x","scn_cat","scn_inst","scn_condition","fillers","obj_cat","obj_cat_num","quadrant","corr_ans","key_resp_trial.keys","key_resp_trial.rt","trial_acc","trial_acc_manual","group.x","practice","X.y","participant.y","OvsN","PE_level","object_cat","scn_file.y","corr_scn_cat","corr_scn_inst","scn_file.1","corr_loc","key_resp_id.keys","key_resp_id.rt","key_resp_conf.keys","key_resp_assoc.keys","key_resp_assoc.rt","key_resp_loc.keys","key_resp_loc.rt","trialN.y","id_acc","assoc.acc","cond_assoc","loc.acc","cond_loc","group.y"
"169","stim/objects/Instruments/flutetrans.png",1,11,1,0.5,"stim/41.jpeg",4,1,1,NA,"Instruments",1,4,"left","right",0.60400033,0,0,1,1,NA,NA,NA,NA,NA,NA,NA,NA,NA,NA,NA,NA,NA,NA,NA,NA,NA,NA,NA,NA,NA,NA,NA,NA
"97","stim/objects/HouseObjects/hairdryer.png",2,11,2,0.7,"stim/52.jpeg",5,2,2,NA,"HouseObjects",2,2,"right","right",0.644000053,1,1,1,1,NA,NA,NA,NA,NA,NA,NA,NA,NA,NA,NA,NA,NA,NA,NA,NA,NA,NA,NA,NA,NA,NA,NA,NA
"220","stim/objects/Instruments/harp2.png",3,11,3,0.9,"stim/23.jpeg",2,3,3,NA,"Instruments",1,3,"left","left",0.467000246,1,1,1,1,NA,NA,NA,NA,NA,NA,NA,NA,NA,NA,NA,NA,NA,NA,NA,NA,NA,NA,NA,NA,NA,NA,NA,NA
"150","stim/objects/Instruments/electricguitar2.png",4,11,4,0.7,"stim/63.jpeg",6,3,2,NA,"Instruments",1,3,"left","left",0.561000347,1,1,1,1,NA,NA,NA,NA,NA,NA,NA,NA,NA,NA,NA,NA,NA,NA,NA,NA,NA,NA,NA,NA,NA,NA,NA,NA
"80","stim/objects/HouseObjects/glass2.png",5,11,5,0.9,"stim/14.jpeg",1,4,3,NA,"HouseObjects",2,3,"right","right",0.649000168,1,1,1,1,NA,NA,NA,NA,NA,NA,NA,NA,NA,NA,NA,NA,NA,NA,NA,NA,NA,NA,NA,NA,NA,NA,NA,NA
"38","stim/objects/HouseObjects/dustpan2.png",6,11,6,0.9,"stim/11.jpeg",1,1,3,NA,"HouseObjects",2,1,"right","right",0.515000105,1,1,1,1,NA,NA,NA,NA,NA,NA,NA,NA,NA,NA,NA,NA,NA,NA,NA,NA,NA,NA,NA,NA,NA,NA,NA,NA
"221","stim/objects/Instruments/harp2.png",7,11,7,0.9,"stim/23.jpeg",2,3,3,NA,"Instruments",1,1,"left","left",0.501000166,1,1,1,1,NA,NA,NA,NA,NA,NA,NA,NA,NA,NA,NA,NA,NA,NA,NA,NA,NA,NA,NA,NA,NA,NA,NA,NA
"133","stim/objects/Instruments/electricdrumset.png",8,11,8,0.5,"stim/32.jpeg",3,2,1,NA,"Instruments",1,4,"left","right",0.720000029,0,0,1,1,NA,NA,NA,NA,NA,NA,NA,NA,NA,NA,NA,NA,NA,NA,NA,NA,NA,NA,NA,NA,NA,NA,NA,NA
"113","stim/objects/HouseObjects/handvacuum.png",9,11,9,0.7,"stim/54.jpeg",5,4,2,NA,"HouseObjects",2,4,"right","right",0.586000204,1,1,1,1,NA,NA,NA,NA,NA,NA,NA,NA,NA,NA,NA,NA,NA,NA,NA,NA,NA,NA,NA,NA,NA,NA,NA,NA
"162","stim/objects/Instruments/flute2.png",10,11,10,0.7,"stim/64.jpeg",6,4,2,NA,"Instruments",1,1,"left","left",0.532000065,1,1,1,1,NA,NA,NA,NA,NA,NA,NA,NA,NA,NA,NA,NA,NA,NA,NA,NA,NA,NA,NA,NA,NA,NA,NA,NA
"229","stim/objects/Instruments/hihat.png",11,11,11,0.3,"stim/54.jpeg",5,4,2,NA,"Instruments",1,2,"left","right",0.468000174,0,0,1,1,NA,NA,NA,NA,NA,NA,NA,NA,NA,NA,NA,NA,NA,NA,NA,NA,NA,NA,NA,NA,NA,NA,NA,NA
"138","stim/objects/Instruments/electricdrumset2.png",12,11,12,0.7,"stim/62.jpeg",6,2,2,NA,"Instruments",1,2,"left","left",0.551000118,1,1,1,1,NA,NA,NA,NA,NA,NA,NA,NA,NA,NA,NA,NA,NA,NA,NA,NA,NA,NA,NA,NA,NA,NA,NA,NA
"98","stim/objects/HouseObjects/hairdryer.png",13,11,13,0.7,"stim/52.jpeg",5,2,2,NA,"HouseObjects",2,3,"right","right",0.570000172,1,1,1,1,NA,NA,NA,NA,NA,NA,NA,NA,NA,NA,NA,NA,NA,NA,NA,NA,NA,NA,NA,NA,NA,NA,NA,NA
"157","stim/objects/Instruments/flute.png",14,11,14,0.5,"stim/34.jpeg",3,4,1,NA,"Instruments",1,1,"left","left",0.559000015,1,1,1,1,NA,NA,NA,NA,NA,NA,NA,NA,NA,NA,NA,NA,NA,NA,NA,NA,NA,NA,NA,NA,NA,NA,NA,NA
"47","stim/objects/HouseObjects/flyswatter.png",15,11,15,0.5,"stim/42.jpeg",4,2,1,NA,"HouseObjects",2,4,"right","right",0.450000048,1,1,1,1,NA,NA,NA,NA,NA,NA,NA,NA,NA,NA,NA,NA,NA,NA,NA,NA,NA,NA,NA,NA,NA,NA,NA,NA
"39","stim/objects/HouseObjects/dustpan2.png",16,11,16,0.9,"stim/11.jpeg",1,1,3,NA,"HouseObjects",2,2,"right","right",0.606000185,1,1,1,1,NA,NA,NA,NA,NA,NA,NA,NA,NA,NA,NA,NA,NA,NA,NA,NA,NA,NA,NA,NA,NA,NA,NA,NA
"25","stim/objects/HouseObjects/doormat.png",17,11,17,0.5,"stim/34.jpeg",3,4,1,NA,"HouseObjects",2,1,"right","left",0.612000227,0,0,1,1,NA,NA,NA,NA,NA,NA,NA,NA,NA,NA,NA,NA,NA,NA,NA,NA,NA,NA,NA,NA,NA,NA,NA,NA
"196","stim/objects/Instruments/guitarcase2.png",18,11,18,0.9,"stim/21.jpeg",2,1,3,NA,"Instruments",1,1,"left","left",0.603000164,1,1,1,1,NA,NA,NA,NA,NA,NA,NA,NA,NA,NA,NA,NA,NA,NA,NA,NA,NA,NA,NA,NA,NA,NA,NA,NA
"81","stim/objects/HouseObjects/glass2.png",19,11,19,0.9,"stim/14.jpeg",1,4,3,NA,"HouseObjects",2,3,"right","right",0.532000303,1,1,1,1,NA,NA,NA,NA,NA,NA,NA,NA,NA,NA,NA,NA,NA,NA,NA,NA,NA,NA,NA,NA,NA,NA,NA,NA
"174","stim/objects/Instruments/flutetrans2.png",20,11,20,0.1,"stim/11.jpeg",1,1,3,NA,"Instruments",1,3,"left","right",0.551000118,0,0,1,1,NA,NA,NA,NA,NA,NA,NA,NA,NA,NA,NA,NA,NA,NA,NA,NA,NA,NA,NA,NA,NA,NA,NA,NA
"114","stim/objects/HouseObjects/handvacuum.png",21,11,21,0.7,"stim/54.jpeg",5,4,2,NA,"HouseObjects",2,1,"right","right",0.519999981,1,1,1,1,NA,NA,NA,NA,NA,NA,NA,NA,NA,NA,NA,NA,NA,NA,NA,NA,NA,NA,NA,NA,NA,NA,NA,NA
"121","stim/objects/Instruments/drums.png",22,11,22,0.5,"stim/31.jpeg",3,1,1,NA,"Instruments",1,3,"left","left",0.611000061,1,1,1,1,NA,NA,NA,NA,NA,NA,NA,NA,NA,NA,NA,NA,NA,NA,NA,NA,NA,NA,NA,NA,NA,NA,NA,NA
"82","stim/objects/HouseObjects/glass2.png",23,11,23,0.9,"stim/14.jpeg",1,4,3,NA,"HouseObjects",2,1,"right","right",0.500000238,1,1,1,1,NA,NA,NA,NA,NA,NA,NA,NA,NA,NA,NA,NA,NA,NA,NA,NA,NA,NA,NA,NA,NA,NA,NA,NA
"61","stim/objects/HouseObjects/garbagebin.png",24,11,24,0.5,"stim/43.jpeg",4,3,1,NA,"HouseObjects",2,2,"right","right",0.646000147,1,1,1,1,NA,NA,NA,NA,NA,NA,NA,NA,NA,NA,NA,NA,NA,NA,NA,NA,NA,NA,NA,NA,NA,NA,NA,NA
"208","stim/objects/Instruments/harmonica2.png",25,11,25,0.9,"stim/22.jpeg",2,2,3,NA,"Instruments",1,3,"left","left",0.476000309,1,1,1,1,NA,NA,NA,NA,NA,NA,NA,NA,NA,NA,NA,NA,NA,NA,NA,NA,NA,NA,NA,NA,NA,NA,NA,NA
"205","stim/objects/Instruments/harmonica.png",26,11,26,0.3,"stim/52.jpeg",5,2,2,NA,"Instruments",1,3,"left","right",0.514000177,0,0,1,1,NA,NA,NA,NA,NA,NA,NA,NA,NA,NA,NA,NA,NA,NA,NA,NA,NA,NA,NA,NA,NA,NA,NA,NA
"187","stim/objects/Instruments/grandpiano.png",27,11,27,0.5,"stim/44.jpeg",4,4,1,NA,"Instruments",1,2,"left","right",0.589000225,0,0,1,1,NA,NA,NA,NA,NA,NA,NA,NA,NA,NA,NA,NA,NA,NA,NA,NA,NA,NA,NA,NA,NA,NA,NA,NA
"170","stim/objects/Instruments/flutetrans.png",28,11,28,0.5,"stim/41.jpeg",4,1,1,NA,"Instruments",1,1,"left","",NA,0,0,1,1,NA,NA,NA,NA,NA,NA,NA,NA,NA,NA,NA,NA,NA,NA,NA,NA,NA,NA,NA,NA,NA,NA,NA,NA
"175","stim/objects/Instruments/frenchhorn.png",29,11,29,0.5,"stim/42.jpeg",4,2,1,NA,"Instruments",1,1,"left","right",0.528000116,0,0,1,1,NA,NA,NA,NA,NA,NA,NA,NA,NA,NA,NA,NA,NA,NA,NA,NA,NA,NA,NA,NA,NA,NA,NA,NA
"83","stim/objects/HouseObjects/glass2.png",30,11,30,0.9,"stim/14.jpeg",1,4,3,NA,"HouseObjects",2,4,"right","right",0.628000259,1,1,1,1,NA,NA,NA,NA,NA,NA,NA,NA,NA,NA,NA,NA,NA,NA,NA,NA,NA,NA,NA,NA,NA,NA,NA,NA
"209","stim/objects/Instruments/harmonica2.png",31,11,31,0.9,"stim/22.jpeg",2,2,3,NA,"Instruments",1,1,"left","left",0.485000134,1,1,1,1,NA,NA,NA,NA,NA,NA,NA,NA,NA,NA,NA,NA,NA,NA,NA,NA,NA,NA,NA,NA,NA,NA,NA,NA
"52","stim/objects/HouseObjects/flyswatter2.png",32,11,32,0.9,"stim/12.jpeg",1,2,3,NA,"HouseObjects",2,1,"right","right",0.496000051,1,1,1,1,NA,NA,NA,NA,NA,NA,NA,NA,NA,NA,NA,NA,NA,NA,NA,NA,NA,NA,NA,NA,NA,NA,NA,NA
"139","stim/objects/Instruments/electricdrumset2.png",33,11,33,0.7,"stim/62.jpeg",6,2,2,NA,"Instruments",1,1,"left","left",0.595000267,1,1,1,1,NA,NA,NA,NA,NA,NA,NA,NA,NA,NA,NA,NA,NA,NA,NA,NA,NA,NA,NA,NA,NA,NA,NA,NA
"122","stim/objects/Instruments/drums.png",34,11,34,0.5,"stim/31.jpeg",3,1,1,NA,"Instruments",1,2,"left","left",0.566000223,1,1,1,1,NA,NA,NA,NA,NA,NA,NA,NA,NA,NA,NA,NA,NA,NA,NA,NA,NA,NA,NA,NA,NA,NA,NA,NA
"197","stim/objects/Instruments/guitarcase2.png",35,11,35,0.9,"stim/21.jpeg",2,1,3,NA,"Instruments",1,4,"left","left",0.55700016,1,1,1,1,NA,NA,NA,NA,NA,NA,NA,NA,NA,NA,NA,NA,NA,NA,NA,NA,NA,NA,NA,NA,NA,NA,NA,NA
"145","stim/objects/Instruments/electricguitar.png",36,11,36,0.5,"stim/33.jpeg",3,3,1,NA,"Instruments",1,4,"left","right",0.662000179,0,0,1,1,NA,NA,NA,NA,NA,NA,NA,NA,NA,NA,NA,NA,NA,NA,NA,NA,NA,NA,NA,NA,NA,NA,NA,NA
"89","stim/objects/HouseObjects/glassmop.png",37,11,37,0.7,"stim/51.jpeg",5,1,2,NA,"HouseObjects",2,1,"right","right",0.528000116,1,1,1,1,NA,NA,NA,NA,NA,NA,NA,NA,NA,NA,NA,NA,NA,NA,NA,NA,NA,NA,NA,NA,NA,NA,NA,NA
"181","stim/objects/Instruments/gong.png",38,11,38,0.5,"stim/43.jpeg",4,3,1,NA,"Instruments",1,4,"left","left",0.715000153,1,1,1,1,NA,NA,NA,NA,NA,NA,NA,NA,NA,NA,NA,NA,NA,NA,NA,NA,NA,NA,NA,NA,NA,NA,NA,NA
"186","stim/objects/Instruments/gong2.png",39,11,39,0.1,"stim/13.jpeg",1,3,3,NA,"Instruments",1,1,"left","right",0.52300024,0,0,1,1,NA,NA,NA,NA,NA,NA,NA,NA,NA,NA,NA,NA,NA,NA,NA,NA,NA,NA,NA,NA,NA,NA,NA,NA
"158","stim/objects/Instruments/flute.png",40,11,40,0.5,"stim/34.jpeg",3,4,1,NA,"Instruments",1,3,"left","left",0.604000092,1,1,1,1,NA,NA,NA,NA,NA,NA,NA,NA,NA,NA,NA,NA,NA,NA,NA,NA,NA,NA,NA,NA,NA,NA,NA,NA
"6","stim/objects/HouseObjects/coffee2.png",41,11,41,0.3,"stim/61.jpeg",6,1,2,NA,"HouseObjects",2,1,"right","left",0.548000097,0,0,1,1,NA,NA,NA,NA,NA,NA,NA,NA,NA,NA,NA,NA,NA,NA,NA,NA,NA,NA,NA,NA,NA,NA,NA,NA
"176","stim/objects/Instruments/frenchhorn.png",42,11,42,0.5,"stim/42.jpeg",4,2,1,NA,"Instruments",1,1,"left","right",0.829000235,0,0,1,1,NA,NA,NA,NA,NA,NA,NA,NA,NA,NA,NA,NA,NA,NA,NA,NA,NA,NA,NA,NA,NA,NA,NA,NA
"198","stim/objects/Instruments/guitarcase2.png",43,11,43,0.9,"stim/21.jpeg",2,1,3,NA,"Instruments",1,3,"left","left",0.512000084,1,1,1,1,NA,NA,NA,NA,NA,NA,NA,NA,NA,NA,NA,NA,NA,NA,NA,NA,NA,NA,NA,NA,NA,NA,NA,NA
"126","stim/objects/Instruments/drums2.png",44,11,44,0.7,"stim/61.jpeg",6,1,2,NA,"Instruments",1,4,"left","left",0.525000095,1,1,1,1,NA,NA,NA,NA,NA,NA,NA,NA,NA,NA,NA,NA,NA,NA,NA,NA,NA,NA,NA,NA,NA,NA,NA,NA
"182","stim/objects/Instruments/gong.png",45,11,45,0.5,"stim/43.jpeg",4,3,1,NA,"Instruments",1,4,"left","right",0.493000269,0,0,1,1,NA,NA,NA,NA,NA,NA,NA,NA,NA,NA,NA,NA,NA,NA,NA,NA,NA,NA,NA,NA,NA,NA,NA,NA
"1","stim/objects/HouseObjects/coffee.png",46,11,46,0.5,"stim/31.jpeg",3,1,1,NA,"HouseObjects",2,2,"right","left",0.536000013,0,0,1,1,NA,NA,NA,NA,NA,NA,NA,NA,NA,NA,NA,NA,NA,NA,NA,NA,NA,NA,NA,NA,NA,NA,NA,NA
"96","stim/objects/HouseObjects/glassmop2.png",47,11,47,0.1,"stim/21.jpeg",2,1,3,NA,"HouseObjects",2,1,"right","left",0.522000313,0,0,1,1,NA,NA,NA,NA,NA,NA,NA,NA,NA,NA,NA,NA,NA,NA,NA,NA,NA,NA,NA,NA,NA,NA,NA,NA
"222","stim/objects/Instruments/harp2.png",48,11,48,0.9,"stim/23.jpeg",2,3,3,NA,"Instruments",1,2,"left","left",0.537000179,1,1,1,1,NA,NA,NA,NA,NA,NA,NA,NA,NA,NA,NA,NA,NA,NA,NA,NA,NA,NA,NA,NA,NA,NA,NA,NA
"53","stim/objects/HouseObjects/flyswatter2.png",49,11,49,0.9,"stim/12.jpeg",1,2,3,NA,"HouseObjects",2,4,"right","right",0.59100008,1,1,1,1,NA,NA,NA,NA,NA,NA,NA,NA,NA,NA,NA,NA,NA,NA,NA,NA,NA,NA,NA,NA,NA,NA,NA,NA
"123","stim/objects/Instruments/drums.png",50,11,50,0.5,"stim/31.jpeg",3,1,1,NA,"Instruments",1,2,"left","left",0.518000126,1,1,1,1,NA,NA,NA,NA,NA,NA,NA,NA,NA,NA,NA,NA,NA,NA,NA,NA,NA,NA,NA,NA,NA,NA,NA,NA
"75","stim/objects/HouseObjects/glass.png",51,11,51,0.5,"stim/44.jpeg",4,4,1,NA,"HouseObjects",2,1,"right","right",0.714000225,1,1,1,1,NA,NA,NA,NA,NA,NA,NA,NA,NA,NA,NA,NA,NA,NA,NA,NA,NA,NA,NA,NA,NA,NA,NA,NA
"99","stim/objects/HouseObjects/hairdryer.png",52,11,52,0.7,"stim/52.jpeg",5,2,2,NA,"HouseObjects",2,2,"right","right",0.59800005,1,1,1,1,NA,NA,NA,NA,NA,NA,NA,NA,NA,NA,NA,NA,NA,NA,NA,NA,NA,NA,NA,NA,NA,NA,NA,NA
"171","stim/objects/Instruments/flutetrans.png",53,11,53,0.5,"stim/41.jpeg",4,1,1,NA,"Instruments",1,4,"left","right",0.709000111,0,0,1,1,NA,NA,NA,NA,NA,NA,NA,NA,NA,NA,NA,NA,NA,NA,NA,NA,NA,NA,NA,NA,NA,NA,NA,NA
"115","stim/objects/HouseObjects/handvacuum.png",54,11,54,0.7,"stim/54.jpeg",5,4,2,NA,"HouseObjects",2,1,"right","right",0.570000172,1,1,1,1,NA,NA,NA,NA,NA,NA,NA,NA,NA,NA,NA,NA,NA,NA,NA,NA,NA,NA,NA,NA,NA,NA,NA,NA
"146","stim/objects/Instruments/electricguitar.png",55,11,55,0.5,"stim/33.jpeg",3,3,1,NA,"Instruments",1,3,"left","left",0.728000164,1,1,1,1,NA,NA,NA,NA,NA,NA,NA,NA,NA,NA,NA,NA,NA,NA,NA,NA,NA,NA,NA,NA,NA,NA,NA,NA
"188","stim/objects/Instruments/grandpiano.png",56,11,56,0.5,"stim/44.jpeg",4,4,1,NA,"Instruments",1,4,"left","right",0.493000031,0,0,1,1,NA,NA,NA,NA,NA,NA,NA,NA,NA,NA,NA,NA,NA,NA,NA,NA,NA,NA,NA,NA,NA,NA,NA,NA
"22","stim/objects/HouseObjects/dishsoap2.png",57,11,57,0.3,"stim/63.jpeg",6,3,2,NA,"HouseObjects",2,2,"right","left",0.551000357,0,0,1,1,NA,NA,NA,NA,NA,NA,NA,NA,NA,NA,NA,NA,NA,NA,NA,NA,NA,NA,NA,NA,NA,NA,NA,NA
"2","stim/objects/HouseObjects/coffee.png",58,11,58,0.5,"stim/31.jpeg",3,1,1,NA,"HouseObjects",2,3,"right","left",0.538000345,0,0,1,1,NA,NA,NA,NA,NA,NA,NA,NA,NA,NA,NA,NA,NA,NA,NA,NA,NA,NA,NA,NA,NA,NA,NA,NA
"14","stim/objects/HouseObjects/cushion2.png",59,11,59,0.3,"stim/62.jpeg",6,2,2,NA,"HouseObjects",2,3,"right","left",0.501000166,0,0,1,1,NA,NA,NA,NA,NA,NA,NA,NA,NA,NA,NA,NA,NA,NA,NA,NA,NA,NA,NA,NA,NA,NA,NA,NA
"177","stim/objects/Instruments/frenchhorn.png",60,11,60,0.5,"stim/42.jpeg",4,2,1,NA,"Instruments",1,2,"left","right",0.485000134,0,0,1,1,NA,NA,NA,NA,NA,NA,NA,NA,NA,NA,NA,NA,NA,NA,NA,NA,NA,NA,NA,NA,NA,NA,NA,NA
"206","stim/objects/Instruments/harmonica.png",61,11,61,0.3,"stim/52.jpeg",5,2,2,NA,"Instruments",1,4,"left","right",0.555999994,0,0,1,1,NA,NA,NA,NA,NA,NA,NA,NA,NA,NA,NA,NA,NA,NA,NA,NA,NA,NA,NA,NA,NA,NA,NA,NA
"17","stim/objects/HouseObjects/dishsoap.png",62,11,62,0.5,"stim/33.jpeg",3,3,1,NA,"HouseObjects",2,3,"right","left",0.503999949,0,0,1,1,NA,NA,NA,NA,NA,NA,NA,NA,NA,NA,NA,NA,NA,NA,NA,NA,NA,NA,NA,NA,NA,NA,NA,NA
"40","stim/objects/HouseObjects/dustpan2.png",63,11,63,0.9,"stim/11.jpeg",1,1,3,NA,"HouseObjects",2,1,"right","right",0.604000092,1,1,1,1,NA,NA,NA,NA,NA,NA,NA,NA,NA,NA,NA,NA,NA,NA,NA,NA,NA,NA,NA,NA,NA,NA,NA,NA
"3","stim/objects/HouseObjects/coffee.png",64,11,64,0.5,"stim/31.jpeg",3,1,1,NA,"HouseObjects",2,3,"right","left",0.429000139,0,0,1,1,NA,NA,NA,NA,NA,NA,NA,NA,NA,NA,NA,NA,NA,NA,NA,NA,NA,NA,NA,NA,NA,NA,NA,NA
"4","stim/objects/HouseObjects/coffee.png",65,11,65,0.5,"stim/31.jpeg",3,1,1,NA,"HouseObjects",2,4,"right","right",0.555000067,1,1,1,1,NA,NA,NA,NA,NA,NA,NA,NA,NA,NA,NA,NA,NA,NA,NA,NA,NA,NA,NA,NA,NA,NA,NA,NA
"54","stim/objects/HouseObjects/flyswatter2.png",66,11,66,0.9,"stim/12.jpeg",1,2,3,NA,"HouseObjects",2,4,"right","right",0.531000137,1,1,1,1,NA,NA,NA,NA,NA,NA,NA,NA,NA,NA,NA,NA,NA,NA,NA,NA,NA,NA,NA,NA,NA,NA,NA,NA
"41","stim/objects/HouseObjects/dustpan2.png",67,11,67,0.9,"stim/11.jpeg",1,1,3,NA,"HouseObjects",2,3,"right","right",0.535000086,1,1,1,1,NA,NA,NA,NA,NA,NA,NA,NA,NA,NA,NA,NA,NA,NA,NA,NA,NA,NA,NA,NA,NA,NA,NA,NA
"76","stim/objects/HouseObjects/glass.png",68,11,68,0.5,"stim/44.jpeg",4,4,1,NA,"HouseObjects",2,2,"right","right",0.576000214,1,1,1,1,NA,NA,NA,NA,NA,NA,NA,NA,NA,NA,NA,NA,NA,NA,NA,NA,NA,NA,NA,NA,NA,NA,NA,NA
"66","stim/objects/HouseObjects/garbagebin2.png",69,11,69,0.9,"stim/13.jpeg",1,3,3,NA,"HouseObjects",2,1,"right","right",0.483999968,1,1,1,1,NA,NA,NA,NA,NA,NA,NA,NA,NA,NA,NA,NA,NA,NA,NA,NA,NA,NA,NA,NA,NA,NA,NA,NA
"100","stim/objects/HouseObjects/hairdryer.png",70,11,70,0.7,"stim/52.jpeg",5,2,2,NA,"HouseObjects",2,3,"right","right",0.477000237,1,1,1,1,NA,NA,NA,NA,NA,NA,NA,NA,NA,NA,NA,NA,NA,NA,NA,NA,NA,NA,NA,NA,NA,NA,NA,NA
"9","stim/objects/HouseObjects/cushion.png",71,11,71,0.5,"stim/32.jpeg",3,2,1,NA,"HouseObjects",2,4,"right","left",0.60400033,0,0,1,1,NA,NA,NA,NA,NA,NA,NA,NA,NA,NA,NA,NA,NA,NA,NA,NA,NA,NA,NA,NA,NA,NA,NA,NA
"172","stim/objects/Instruments/flutetrans.png",72,11,72,0.5,"stim/41.jpeg",4,1,1,NA,"Instruments",1,1,"left","right",0.528000355,0,0,1,1,NA,NA,NA,NA,NA,NA,NA,NA,NA,NA,NA,NA,NA,NA,NA,NA,NA,NA,NA,NA,NA,NA,NA,NA
"67","stim/objects/HouseObjects/garbagebin2.png",73,11,73,0.9,"stim/13.jpeg",1,3,3,NA,"HouseObjects",2,2,"right","right",0.619000196,1,1,1,1,NA,NA,NA,NA,NA,NA,NA,NA,NA,NA,NA,NA,NA,NA,NA,NA,NA,NA,NA,NA,NA,NA,NA,NA
"223","stim/objects/Instruments/harp2.png",74,11,74,0.9,"stim/23.jpeg",2,3,3,NA,"Instruments",1,4,"left","left",0.532000303,1,1,1,1,NA,NA,NA,NA,NA,NA,NA,NA,NA,NA,NA,NA,NA,NA,NA,NA,NA,NA,NA,NA,NA,NA,NA,NA
"127","stim/objects/Instruments/drums2.png",75,11,75,0.7,"stim/61.jpeg",6,1,2,NA,"Instruments",1,3,"left","left",0.513000011,1,1,1,1,NA,NA,NA,NA,NA,NA,NA,NA,NA,NA,NA,NA,NA,NA,NA,NA,NA,NA,NA,NA,NA,NA,NA,NA
"232","stim/objects/Instruments/hihat2.png",76,11,76,0.9,"stim/24.jpeg",2,4,3,NA,"Instruments",1,2,"left","left",0.504000187,1,1,1,1,NA,NA,NA,NA,NA,NA,NA,NA,NA,NA,NA,NA,NA,NA,NA,NA,NA,NA,NA,NA,NA,NA,NA,NA
"134","stim/objects/Instruments/electricdrumset.png",77,11,77,0.5,"stim/32.jpeg",3,2,1,NA,"Instruments",1,1,"left","left",0.664000273,1,1,1,1,NA,NA,NA,NA,NA,NA,NA,NA,NA,NA,NA,NA,NA,NA,NA,NA,NA,NA,NA,NA,NA,NA,NA,NA
"147","stim/objects/Instruments/electricguitar.png",78,11,78,0.5,"stim/33.jpeg",3,3,1,NA,"Instruments",1,2,"left","left",0.524000168,1,1,1,1,NA,NA,NA,NA,NA,NA,NA,NA,NA,NA,NA,NA,NA,NA,NA,NA,NA,NA,NA,NA,NA,NA,NA,NA
"62","stim/objects/HouseObjects/garbagebin.png",79,11,79,0.5,"stim/43.jpeg",4,3,1,NA,"HouseObjects",2,2,"right","left",0.634000301,0,0,1,1,NA,NA,NA,NA,NA,NA,NA,NA,NA,NA,NA,NA,NA,NA,NA,NA,NA,NA,NA,NA,NA,NA,NA,NA
"68","stim/objects/HouseObjects/garbagebin2.png",80,11,80,0.9,"stim/13.jpeg",1,3,3,NA,"HouseObjects",2,1,"right","right",0.565000057,1,1,1,1,NA,NA,NA,NA,NA,NA,NA,NA,NA,NA,NA,NA,NA,NA,NA,NA,NA,NA,NA,NA,NA,NA,NA,NA
"210","stim/objects/Instruments/harmonica2.png",81,11,81,0.9,"stim/22.jpeg",2,2,3,NA,"Instruments",1,4,"left","left",0.561000109,1,1,1,1,NA,NA,NA,NA,NA,NA,NA,NA,NA,NA,NA,NA,NA,NA,NA,NA,NA,NA,NA,NA,NA,NA,NA,NA
"124","stim/objects/Instruments/drums.png",82,11,82,0.5,"stim/31.jpeg",3,1,1,NA,"Instruments",1,3,"left","left",0.671000004,1,1,1,1,NA,NA,NA,NA,NA,NA,NA,NA,NA,NA,NA,NA,NA,NA,NA,NA,NA,NA,NA,NA,NA,NA,NA,NA
"90","stim/objects/HouseObjects/glassmop.png",83,11,83,0.7,"stim/51.jpeg",5,1,2,NA,"HouseObjects",2,4,"right","right",0.564000368,1,1,1,1,NA,NA,NA,NA,NA,NA,NA,NA,NA,NA,NA,NA,NA,NA,NA,NA,NA,NA,NA,NA,NA,NA,NA,NA
"69","stim/objects/HouseObjects/garbagebin2.png",84,11,84,0.9,"stim/13.jpeg",1,3,3,NA,"HouseObjects",2,3,"right","right",0.497000217,1,1,1,1,NA,NA,NA,NA,NA,NA,NA,NA,NA,NA,NA,NA,NA,NA,NA,NA,NA,NA,NA,NA,NA,NA,NA,NA
"116","stim/objects/HouseObjects/handvacuum.png",85,11,85,0.7,"stim/54.jpeg",5,4,2,NA,"HouseObjects",2,4,"right","right",0.538000107,1,1,1,1,NA,NA,NA,NA,NA,NA,NA,NA,NA,NA,NA,NA,NA,NA,NA,NA,NA,NA,NA,NA,NA,NA,NA,NA
"63","stim/objects/HouseObjects/garbagebin.png",86,11,86,0.5,"stim/43.jpeg",4,3,1,NA,"HouseObjects",2,1,"right","",NA,0,0,1,1,NA,NA,NA,NA,NA,NA,NA,NA,NA,NA,NA,NA,NA,NA,NA,NA,NA,NA,NA,NA,NA,NA,NA,NA
"128","stim/objects/Instruments/drums2.png",87,11,87,0.7,"stim/61.jpeg",6,1,2,NA,"Instruments",1,1,"left","left",0.537000179,1,1,1,1,NA,NA,NA,NA,NA,NA,NA,NA,NA,NA,NA,NA,NA,NA,NA,NA,NA,NA,NA,NA,NA,NA,NA,NA
"42","stim/objects/HouseObjects/dustpan2.png",88,11,88,0.9,"stim/11.jpeg",1,1,3,NA,"HouseObjects",2,4,"right","right",0.529000044,1,1,1,1,NA,NA,NA,NA,NA,NA,NA,NA,NA,NA,NA,NA,NA,NA,NA,NA,NA,NA,NA,NA,NA,NA,NA,NA
"199","stim/objects/Instruments/guitarcase2.png",89,11,89,0.9,"stim/21.jpeg",2,1,3,NA,"Instruments",1,1,"left","left",0.508000135,1,1,1,1,NA,NA,NA,NA,NA,NA,NA,NA,NA,NA,NA,NA,NA,NA,NA,NA,NA,NA,NA,NA,NA,NA,NA,NA
"18","stim/objects/HouseObjects/dishsoap.png",90,11,90,0.5,"stim/33.jpeg",3,3,1,NA,"HouseObjects",2,1,"right","left",0.578999996,0,0,1,1,NA,NA,NA,NA,NA,NA,NA,NA,NA,NA,NA,NA,NA,NA,NA,NA,NA,NA,NA,NA,NA,NA,NA,NA
"173","stim/objects/Instruments/flutetrans.png",91,11,91,0.5,"stim/41.jpeg",4,1,1,NA,"Instruments",1,3,"left","right",0.548000097,0,0,1,1,NA,NA,NA,NA,NA,NA,NA,NA,NA,NA,NA,NA,NA,NA,NA,NA,NA,NA,NA,NA,NA,NA,NA,NA
"233","stim/objects/Instruments/hihat2.png",92,11,92,0.9,"stim/24.jpeg",2,4,3,NA,"Instruments",1,2,"left","left",0.503000259,1,1,1,1,NA,NA,NA,NA,NA,NA,NA,NA,NA,NA,NA,NA,NA,NA,NA,NA,NA,NA,NA,NA,NA,NA,NA,NA
"64","stim/objects/HouseObjects/garbagebin.png",93,11,93,0.5,"stim/43.jpeg",4,3,1,NA,"HouseObjects",2,4,"right","right",0.71600008,1,1,1,1,NA,NA,NA,NA,NA,NA,NA,NA,NA,NA,NA,NA,NA,NA,NA,NA,NA,NA,NA,NA,NA,NA,NA,NA
"189","stim/objects/Instruments/grandpiano.png",94,11,94,0.5,"stim/44.jpeg",4,4,1,NA,"Instruments",1,4,"left","right",0.558000088,0,0,1,1,NA,NA,NA,NA,NA,NA,NA,NA,NA,NA,NA,NA,NA,NA,NA,NA,NA,NA,NA,NA,NA,NA,NA,NA
"183","stim/objects/Instruments/gong.png",95,11,95,0.5,"stim/43.jpeg",4,3,1,NA,"Instruments",1,4,"left","left",0.686000109,1,1,1,1,NA,NA,NA,NA,NA,NA,NA,NA,NA,NA,NA,NA,NA,NA,NA,NA,NA,NA,NA,NA,NA,NA,NA,NA
"55","stim/objects/HouseObjects/flyswatter2.png",96,11,96,0.9,"stim/12.jpeg",1,2,3,NA,"HouseObjects",2,4,"right","right",0.583000183,1,1,1,1,NA,NA,NA,NA,NA,NA,NA,NA,NA,NA,NA,NA,NA,NA,NA,NA,NA,NA,NA,NA,NA,NA,NA,NA
"129","stim/objects/Instruments/drums2.png",97,11,97,0.7,"stim/61.jpeg",6,1,2,NA,"Instruments",1,3,"left","left",0.42200017,1,1,1,1,NA,NA,NA,NA,NA,NA,NA,NA,NA,NA,NA,NA,NA,NA,NA,NA,NA,NA,NA,NA,NA,NA,NA,NA
"112","stim/objects/HouseObjects/handbrush2.png",98,11,98,0.1,"stim/23.jpeg",2,3,3,NA,"HouseObjects",2,1,"right","left",0.525000095,0,0,1,1,NA,NA,NA,NA,NA,NA,NA,NA,NA,NA,NA,NA,NA,NA,NA,NA,NA,NA,NA,NA,NA,NA,NA,NA
"84","stim/objects/HouseObjects/glass2.png",99,11,99,0.9,"stim/14.jpeg",1,4,3,NA,"HouseObjects",2,4,"right","right",0.517000198,1,1,1,1,NA,NA,NA,NA,NA,NA,NA,NA,NA,NA,NA,NA,NA,NA,NA,NA,NA,NA,NA,NA,NA,NA,NA,NA
"43","stim/objects/HouseObjects/dustpan2.png",100,11,100,0.9,"stim/11.jpeg",1,1,3,NA,"HouseObjects",2,3,"right","left",0.529000282,0,0,1,1,NA,NA,NA,NA,NA,NA,NA,NA,NA,NA,NA,NA,NA,NA,NA,NA,NA,NA,NA,NA,NA,NA,NA,NA
"211","stim/objects/Instruments/harmonica2.png",101,11,101,0.9,"stim/22.jpeg",2,2,3,NA,"Instruments",1,2,"left","left",0.745000124,1,1,1,1,NA,NA,NA,NA,NA,NA,NA,NA,NA,NA,NA,NA,NA,NA,NA,NA,NA,NA,NA,NA,NA,NA,NA,NA
"148","stim/objects/Instruments/electricguitar.png",102,11,102,0.5,"stim/33.jpeg",3,3,1,NA,"Instruments",1,2,"left","left",0.636000156,1,1,1,1,NA,NA,NA,NA,NA,NA,NA,NA,NA,NA,NA,NA,NA,NA,NA,NA,NA,NA,NA,NA,NA,NA,NA,NA
"230","stim/objects/Instruments/hihat.png",103,11,103,0.3,"stim/54.jpeg",5,4,2,NA,"Instruments",1,1,"left","right",0.53000021,0,0,1,1,NA,NA,NA,NA,NA,NA,NA,NA,NA,NA,NA,NA,NA,NA,NA,NA,NA,NA,NA,NA,NA,NA,NA,NA
"212","stim/objects/Instruments/harmonica2.png",104,11,104,0.9,"stim/22.jpeg",2,2,3,NA,"Instruments",1,2,"left","left",0.528000355,1,1,1,1,NA,NA,NA,NA,NA,NA,NA,NA,NA,NA,NA,NA,NA,NA,NA,NA,NA,NA,NA,NA,NA,NA,NA,NA
"30","stim/objects/HouseObjects/doormat2.png",105,11,105,0.3,"stim/64.jpeg",6,4,2,NA,"HouseObjects",2,3,"right","left",0.58100009,0,0,1,1,NA,NA,NA,NA,NA,NA,NA,NA,NA,NA,NA,NA,NA,NA,NA,NA,NA,NA,NA,NA,NA,NA,NA,NA
"151","stim/objects/Instruments/electricguitar2.png",106,11,106,0.7,"stim/63.jpeg",6,3,2,NA,"Instruments",1,1,"left","left",0.596000195,1,1,1,1,NA,NA,NA,NA,NA,NA,NA,NA,NA,NA,NA,NA,NA,NA,NA,NA,NA,NA,NA,NA,NA,NA,NA,NA
"101","stim/objects/HouseObjects/hairdryer.png",107,11,107,0.7,"stim/52.jpeg",5,2,2,NA,"HouseObjects",2,3,"right","right",0.525000334,1,1,1,1,NA,NA,NA,NA,NA,NA,NA,NA,NA,NA,NA,NA,NA,NA,NA,NA,NA,NA,NA,NA,NA,NA,NA,NA
"130","stim/objects/Instruments/drums2.png",108,11,108,0.7,"stim/61.jpeg",6,1,2,NA,"Instruments",1,1,"left","left",0.560000181,1,1,1,1,NA,NA,NA,NA,NA,NA,NA,NA,NA,NA,NA,NA,NA,NA,NA,NA,NA,NA,NA,NA,NA,NA,NA,NA
"131","stim/objects/Instruments/drums2.png",109,11,109,0.7,"stim/61.jpeg",6,1,2,NA,"Instruments",1,3,"left","left",0.630000114,1,1,1,1,NA,NA,NA,NA,NA,NA,NA,NA,NA,NA,NA,NA,NA,NA,NA,NA,NA,NA,NA,NA,NA,NA,NA,NA
"159","stim/objects/Instruments/flute.png",110,11,110,0.5,"stim/34.jpeg",3,4,1,NA,"Instruments",1,1,"left","left",0.617000341,1,1,1,1,NA,NA,NA,NA,NA,NA,NA,NA,NA,NA,NA,NA,NA,NA,NA,NA,NA,NA,NA,NA,NA,NA,NA,NA
"207","stim/objects/Instruments/harmonica.png",111,11,111,0.3,"stim/52.jpeg",5,2,2,NA,"Instruments",1,2,"left","right",0.482000113,0,0,1,1,NA,NA,NA,NA,NA,NA,NA,NA,NA,NA,NA,NA,NA,NA,NA,NA,NA,NA,NA,NA,NA,NA,NA,NA
"105","stim/objects/HouseObjects/handbrush.png",112,11,112,0.7,"stim/53.jpeg",5,3,2,NA,"HouseObjects",2,2,"right","right",0.637000322,1,1,1,1,NA,NA,NA,NA,NA,NA,NA,NA,NA,NA,NA,NA,NA,NA,NA,NA,NA,NA,NA,NA,NA,NA,NA,NA
"33","stim/objects/HouseObjects/dustpan.png",113,11,113,0.5,"stim/41.jpeg",4,1,1,NA,"HouseObjects",2,2,"right","left",0.697000265,0,0,1,1,NA,NA,NA,NA,NA,NA,NA,NA,NA,NA,NA,NA,NA,NA,NA,NA,NA,NA,NA,NA,NA,NA,NA,NA
"140","stim/objects/Instruments/electricdrumset2.png",114,11,114,0.7,"stim/62.jpeg",6,2,2,NA,"Instruments",1,3,"left","left",0.505000114,1,1,1,1,NA,NA,NA,NA,NA,NA,NA,NA,NA,NA,NA,NA,NA,NA,NA,NA,NA,NA,NA,NA,NA,NA,NA,NA
"117","stim/objects/HouseObjects/handvacuum.png",115,11,115,0.7,"stim/54.jpeg",5,4,2,NA,"HouseObjects",2,2,"right","right",0.727000237,1,1,1,1,NA,NA,NA,NA,NA,NA,NA,NA,NA,NA,NA,NA,NA,NA,NA,NA,NA,NA,NA,NA,NA,NA,NA,NA
"234","stim/objects/Instruments/hihat2.png",116,11,116,0.9,"stim/24.jpeg",2,4,3,NA,"Instruments",1,3,"left","left",0.505000114,1,1,1,1,NA,NA,NA,NA,NA,NA,NA,NA,NA,NA,NA,NA,NA,NA,NA,NA,NA,NA,NA,NA,NA,NA,NA,NA
"120","stim/objects/HouseObjects/handvacuum2.png",117,11,117,0.1,"stim/24.jpeg",2,4,3,NA,"HouseObjects",2,1,"right","left",0.519999981,0,0,1,1,NA,NA,NA,NA,NA,NA,NA,NA,NA,NA,NA,NA,NA,NA,NA,NA,NA,NA,NA,NA,NA,NA,NA,NA
"224","stim/objects/Instruments/harp2.png",118,11,118,0.9,"stim/23.jpeg",2,3,3,NA,"Instruments",1,3,"left","left",0.444000244,1,1,1,1,NA,NA,NA,NA,NA,NA,NA,NA,NA,NA,NA,NA,NA,NA,NA,NA,NA,NA,NA,NA,NA,NA,NA,NA
"135","stim/objects/Instruments/electricdrumset.png",119,11,119,0.5,"stim/32.jpeg",3,2,1,NA,"Instruments",1,3,"left","left",0.586000204,1,1,1,1,NA,NA,NA,NA,NA,NA,NA,NA,NA,NA,NA,NA,NA,NA,NA,NA,NA,NA,NA,NA,NA,NA,NA,NA
"91","stim/objects/HouseObjects/glassmop.png",120,11,120,0.7,"stim/51.jpeg",5,1,2,NA,"HouseObjects",2,4,"right","right",0.524000168,1,1,1,1,NA,NA,NA,NA,NA,NA,NA,NA,NA,NA,NA,NA,NA,NA,NA,NA,NA,NA,NA,NA,NA,NA,NA,NA
"26","stim/objects/HouseObjects/doormat.png",121,11,121,0.5,"stim/34.jpeg",3,4,1,NA,"HouseObjects",2,3,"right","left",0.653000116,0,0,1,1,NA,NA,NA,NA,NA,NA,NA,NA,NA,NA,NA,NA,NA,NA,NA,NA,NA,NA,NA,NA,NA,NA,NA,NA
"92","stim/objects/HouseObjects/glassmop.png",122,11,122,0.7,"stim/51.jpeg",5,1,2,NA,"HouseObjects",2,1,"right","right",0.53000021,1,1,1,1,NA,NA,NA,NA,NA,NA,NA,NA,NA,NA,NA,NA,NA,NA,NA,NA,NA,NA,NA,NA,NA,NA,NA,NA
"104","stim/objects/HouseObjects/hairdryer2.png",123,11,123,0.1,"stim/22.jpeg",2,2,3,NA,"HouseObjects",2,4,"right","left",0.562000275,0,0,1,1,NA,NA,NA,NA,NA,NA,NA,NA,NA,NA,NA,NA,NA,NA,NA,NA,NA,NA,NA,NA,NA,NA,NA,NA
"160","stim/objects/Instruments/flute.png",124,11,124,0.5,"stim/34.jpeg",3,4,1,NA,"Instruments",1,2,"left","left",0.651000261,1,1,1,1,NA,NA,NA,NA,NA,NA,NA,NA,NA,NA,NA,NA,NA,NA,NA,NA,NA,NA,NA,NA,NA,NA,NA,NA
"44","stim/objects/HouseObjects/dustpan2.png",125,11,125,0.9,"stim/11.jpeg",1,1,3,NA,"HouseObjects",2,3,"right","left",0.503000021,0,0,1,1,NA,NA,NA,NA,NA,NA,NA,NA,NA,NA,NA,NA,NA,NA,NA,NA,NA,NA,NA,NA,NA,NA,NA,NA
"70","stim/objects/HouseObjects/garbagebin2.png",126,11,126,0.9,"stim/13.jpeg",1,3,3,NA,"HouseObjects",2,2,"right","right",0.511000156,1,1,1,1,NA,NA,NA,NA,NA,NA,NA,NA,NA,NA,NA,NA,NA,NA,NA,NA,NA,NA,NA,NA,NA,NA,NA,NA
"152","stim/objects/Instruments/electricguitar2.png",127,11,127,0.7,"stim/63.jpeg",6,3,2,NA,"Instruments",1,2,"left","left",0.586000204,1,1,1,1,NA,NA,NA,NA,NA,NA,NA,NA,NA,NA,NA,NA,NA,NA,NA,NA,NA,NA,NA,NA,NA,NA,NA,NA
"34","stim/objects/HouseObjects/dustpan.png",128,11,128,0.5,"stim/41.jpeg",4,1,1,NA,"HouseObjects",2,2,"right","right",0.475000143,1,1,1,1,NA,NA,NA,NA,NA,NA,NA,NA,NA,NA,NA,NA,NA,NA,NA,NA,NA,NA,NA,NA,NA,NA,NA,NA
"31","stim/objects/HouseObjects/doormat2.png",129,11,129,0.3,"stim/64.jpeg",6,4,2,NA,"HouseObjects",2,4,"right","left",0.634000063,0,0,1,1,NA,NA,NA,NA,NA,NA,NA,NA,NA,NA,NA,NA,NA,NA,NA,NA,NA,NA,NA,NA,NA,NA,NA,NA
"71","stim/objects/HouseObjects/garbagebin2.png",130,11,130,0.9,"stim/13.jpeg",1,3,3,NA,"HouseObjects",2,2,"right","right",0.569000006,1,1,1,1,NA,NA,NA,NA,NA,NA,NA,NA,NA,NA,NA,NA,NA,NA,NA,NA,NA,NA,NA,NA,NA,NA,NA,NA
"45","stim/objects/HouseObjects/dustpan2.png",131,11,131,0.9,"stim/11.jpeg",1,1,3,NA,"HouseObjects",2,1,"right","right",0.50600028,1,1,1,1,NA,NA,NA,NA,NA,NA,NA,NA,NA,NA,NA,NA,NA,NA,NA,NA,NA,NA,NA,NA,NA,NA,NA,NA
"178","stim/objects/Instruments/frenchhorn.png",132,11,132,0.5,"stim/42.jpeg",4,2,1,NA,"Instruments",1,3,"left","right",0.481000185,0,0,1,1,NA,NA,NA,NA,NA,NA,NA,NA,NA,NA,NA,NA,NA,NA,NA,NA,NA,NA,NA,NA,NA,NA,NA,NA
"149","stim/objects/Instruments/electricguitar.png",133,11,133,0.5,"stim/33.jpeg",3,3,1,NA,"Instruments",1,3,"left","left",0.64800024,1,1,1,1,NA,NA,NA,NA,NA,NA,NA,NA,NA,NA,NA,NA,NA,NA,NA,NA,NA,NA,NA,NA,NA,NA,NA,NA
"153","stim/objects/Instruments/electricguitar2.png",134,11,134,0.7,"stim/63.jpeg",6,3,2,NA,"Instruments",1,4,"left","left",0.59800005,1,1,1,1,NA,NA,NA,NA,NA,NA,NA,NA,NA,NA,NA,NA,NA,NA,NA,NA,NA,NA,NA,NA,NA,NA,NA,NA
"200","stim/objects/Instruments/guitarcase2.png",135,11,135,0.9,"stim/21.jpeg",2,1,3,NA,"Instruments",1,3,"left","left",0.565000057,1,1,1,1,NA,NA,NA,NA,NA,NA,NA,NA,NA,NA,NA,NA,NA,NA,NA,NA,NA,NA,NA,NA,NA,NA,NA,NA
"106","stim/objects/HouseObjects/handbrush.png",136,11,136,0.7,"stim/53.jpeg",5,3,2,NA,"HouseObjects",2,1,"right","right",0.49600029,1,1,1,1,NA,NA,NA,NA,NA,NA,NA,NA,NA,NA,NA,NA,NA,NA,NA,NA,NA,NA,NA,NA,NA,NA,NA,NA
"163","stim/objects/Instruments/flute2.png",137,11,137,0.7,"stim/64.jpeg",6,4,2,NA,"Instruments",1,1,"left","left",0.544000149,1,1,1,1,NA,NA,NA,NA,NA,NA,NA,NA,NA,NA,NA,NA,NA,NA,NA,NA,NA,NA,NA,NA,NA,NA,NA,NA
"35","stim/objects/HouseObjects/dustpan.png",138,11,138,0.5,"stim/41.jpeg",4,1,1,NA,"HouseObjects",2,2,"right","right",0.561000109,1,1,1,1,NA,NA,NA,NA,NA,NA,NA,NA,NA,NA,NA,NA,NA,NA,NA,NA,NA,NA,NA,NA,NA,NA,NA,NA
"235","stim/objects/Instruments/hihat2.png",139,11,139,0.9,"stim/24.jpeg",2,4,3,NA,"Instruments",1,4,"left","left",0.648000002,1,1,1,1,NA,NA,NA,NA,NA,NA,NA,NA,NA,NA,NA,NA,NA,NA,NA,NA,NA,NA,NA,NA,NA,NA,NA,NA
"141","stim/objects/Instruments/electricdrumset2.png",140,11,140,0.7,"stim/62.jpeg",6,2,2,NA,"Instruments",1,2,"left","left",0.483000278,1,1,1,1,NA,NA,NA,NA,NA,NA,NA,NA,NA,NA,NA,NA,NA,NA,NA,NA,NA,NA,NA,NA,NA,NA,NA,NA
"142","stim/objects/Instruments/electricdrumset2.png",141,11,141,0.7,"stim/62.jpeg",6,2,2,NA,"Instruments",1,2,"left","left",0.512000084,1,1,1,1,NA,NA,NA,NA,NA,NA,NA,NA,NA,NA,NA,NA,NA,NA,NA,NA,NA,NA,NA,NA,NA,NA,NA,NA
"46","stim/objects/HouseObjects/dustpan2.png",142,11,142,0.9,"stim/11.jpeg",1,1,3,NA,"HouseObjects",2,3,"right","right",0.55700016,1,1,1,1,NA,NA,NA,NA,NA,NA,NA,NA,NA,NA,NA,NA,NA,NA,NA,NA,NA,NA,NA,NA,NA,NA,NA,NA
"213","stim/objects/Instruments/harmonica2.png",143,11,143,0.9,"stim/22.jpeg",2,2,3,NA,"Instruments",1,2,"left","left",0.537000179,1,1,1,1,NA,NA,NA,NA,NA,NA,NA,NA,NA,NA,NA,NA,NA,NA,NA,NA,NA,NA,NA,NA,NA,NA,NA,NA
"107","stim/objects/HouseObjects/handbrush.png",144,11,144,0.7,"stim/53.jpeg",5,3,2,NA,"HouseObjects",2,3,"right","right",0.521000385,1,1,1,1,NA,NA,NA,NA,NA,NA,NA,NA,NA,NA,NA,NA,NA,NA,NA,NA,NA,NA,NA,NA,NA,NA,NA,NA
"164","stim/objects/Instruments/flute2.png",145,11,145,0.7,"stim/64.jpeg",6,4,2,NA,"Instruments",1,4,"left","left",0.478000164,1,1,1,1,NA,NA,NA,NA,NA,NA,NA,NA,NA,NA,NA,NA,NA,NA,NA,NA,NA,NA,NA,NA,NA,NA,NA,NA
"201","stim/objects/Instruments/guitarcase2.png",146,11,146,0.9,"stim/21.jpeg",2,1,3,NA,"Instruments",1,4,"left","left",0.529000044,1,1,1,1,NA,NA,NA,NA,NA,NA,NA,NA,NA,NA,NA,NA,NA,NA,NA,NA,NA,NA,NA,NA,NA,NA,NA,NA
"48","stim/objects/HouseObjects/flyswatter.png",147,11,147,0.5,"stim/42.jpeg",4,2,1,NA,"HouseObjects",2,3,"right","right",0.546000004,1,1,1,1,NA,NA,NA,NA,NA,NA,NA,NA,NA,NA,NA,NA,NA,NA,NA,NA,NA,NA,NA,NA,NA,NA,NA,NA
"214","stim/objects/Instruments/harmonica2.png",148,11,148,0.9,"stim/22.jpeg",2,2,3,NA,"Instruments",1,4,"left","left",0.537000179,1,1,1,1,NA,NA,NA,NA,NA,NA,NA,NA,NA,NA,NA,NA,NA,NA,NA,NA,NA,NA,NA,NA,NA,NA,NA,NA
"19","stim/objects/HouseObjects/dishsoap.png",149,11,149,0.5,"stim/33.jpeg",3,3,1,NA,"HouseObjects",2,4,"right","left",0.573000193,0,0,1,1,NA,NA,NA,NA,NA,NA,NA,NA,NA,NA,NA,NA,NA,NA,NA,NA,NA,NA,NA,NA,NA,NA,NA,NA
"202","stim/objects/Instruments/guitarcase2.png",150,11,150,0.9,"stim/21.jpeg",2,1,3,NA,"Instruments",1,1,"left","left",0.474000216,1,1,1,1,NA,NA,NA,NA,NA,NA,NA,NA,NA,NA,NA,NA,NA,NA,NA,NA,NA,NA,NA,NA,NA,NA,NA,NA
"49","stim/objects/HouseObjects/flyswatter.png",151,11,151,0.5,"stim/42.jpeg",4,2,1,NA,"HouseObjects",2,3,"right","right",0.600000143,1,1,1,1,NA,NA,NA,NA,NA,NA,NA,NA,NA,NA,NA,NA,NA,NA,NA,NA,NA,NA,NA,NA,NA,NA,NA,NA
"102","stim/objects/HouseObjects/hairdryer.png",152,11,152,0.7,"stim/52.jpeg",5,2,2,NA,"HouseObjects",2,4,"right","right",0.531000137,1,1,1,1,NA,NA,NA,NA,NA,NA,NA,NA,NA,NA,NA,NA,NA,NA,NA,NA,NA,NA,NA,NA,NA,NA,NA,NA
"215","stim/objects/Instruments/harmonica2.png",153,11,153,0.9,"stim/22.jpeg",2,2,3,NA,"Instruments",1,2,"left","left",0.458000183,1,1,1,1,NA,NA,NA,NA,NA,NA,NA,NA,NA,NA,NA,NA,NA,NA,NA,NA,NA,NA,NA,NA,NA,NA,NA,NA
"217","stim/objects/Instruments/harp.png",154,11,154,0.3,"stim/53.jpeg",5,3,2,NA,"Instruments",1,2,"left","right",0.554000139,0,0,1,1,NA,NA,NA,NA,NA,NA,NA,NA,NA,NA,NA,NA,NA,NA,NA,NA,NA,NA,NA,NA,NA,NA,NA,NA
"93","stim/objects/HouseObjects/glassmop.png",155,11,155,0.7,"stim/51.jpeg",5,1,2,NA,"HouseObjects",2,1,"right","right",0.492000103,1,1,1,1,NA,NA,NA,NA,NA,NA,NA,NA,NA,NA,NA,NA,NA,NA,NA,NA,NA,NA,NA,NA,NA,NA,NA,NA
"108","stim/objects/HouseObjects/handbrush.png",156,11,156,0.7,"stim/53.jpeg",5,3,2,NA,"HouseObjects",2,3,"right","right",0.52300024,1,1,1,1,NA,NA,NA,NA,NA,NA,NA,NA,NA,NA,NA,NA,NA,NA,NA,NA,NA,NA,NA,NA,NA,NA,NA,NA
"10","stim/objects/HouseObjects/cushion.png",157,11,157,0.5,"stim/32.jpeg",3,2,1,NA,"HouseObjects",2,1,"right","left",0.552000046,0,0,1,1,NA,NA,NA,NA,NA,NA,NA,NA,NA,NA,NA,NA,NA,NA,NA,NA,NA,NA,NA,NA,NA,NA,NA,NA
"94","stim/objects/HouseObjects/glassmop.png",158,11,158,0.7,"stim/51.jpeg",5,1,2,NA,"HouseObjects",2,3,"right","right",0.541000128,1,1,1,1,NA,NA,NA,NA,NA,NA,NA,NA,NA,NA,NA,NA,NA,NA,NA,NA,NA,NA,NA,NA,NA,NA,NA,NA
"193","stim/objects/Instruments/guitarcase.png",159,11,159,0.3,"stim/51.jpeg",5,1,2,NA,"Instruments",1,1,"left","right",0.511000156,0,0,1,1,NA,NA,NA,NA,NA,NA,NA,NA,NA,NA,NA,NA,NA,NA,NA,NA,NA,NA,NA,NA,NA,NA,NA,NA
"218","stim/objects/Instruments/harp.png",160,11,160,0.3,"stim/53.jpeg",5,3,2,NA,"Instruments",1,2,"left","right",0.505000114,0,0,1,1,NA,NA,NA,NA,NA,NA,NA,NA,NA,NA,NA,NA,NA,NA,NA,NA,NA,NA,NA,NA,NA,NA,NA,NA
"192","stim/objects/Instruments/grandpiano2.png",161,11,161,0.1,"stim/14.jpeg",1,4,3,NA,"Instruments",1,4,"left","right",0.481000185,0,0,1,1,NA,NA,NA,NA,NA,NA,NA,NA,NA,NA,NA,NA,NA,NA,NA,NA,NA,NA,NA,NA,NA,NA,NA,NA
"20","stim/objects/HouseObjects/dishsoap.png",162,11,162,0.5,"stim/33.jpeg",3,3,1,NA,"HouseObjects",2,2,"right","right",0.572000265,1,1,1,1,NA,NA,NA,NA,NA,NA,NA,NA,NA,NA,NA,NA,NA,NA,NA,NA,NA,NA,NA,NA,NA,NA,NA,NA
"184","stim/objects/Instruments/gong.png",163,11,163,0.5,"stim/43.jpeg",4,3,1,NA,"Instruments",1,3,"left","left",0.662000179,1,1,1,1,NA,NA,NA,NA,NA,NA,NA,NA,NA,NA,NA,NA,NA,NA,NA,NA,NA,NA,NA,NA,NA,NA,NA,NA
"56","stim/objects/HouseObjects/flyswatter2.png",164,11,164,0.9,"stim/12.jpeg",1,2,3,NA,"HouseObjects",2,1,"right","right",0.529000044,1,1,1,1,NA,NA,NA,NA,NA,NA,NA,NA,NA,NA,NA,NA,NA,NA,NA,NA,NA,NA,NA,NA,NA,NA,NA,NA
"27","stim/objects/HouseObjects/doormat.png",165,11,165,0.5,"stim/34.jpeg",3,4,1,NA,"HouseObjects",2,1,"right","left",0.59100008,0,0,1,1,NA,NA,NA,NA,NA,NA,NA,NA,NA,NA,NA,NA,NA,NA,NA,NA,NA,NA,NA,NA,NA,NA,NA,NA
"109","stim/objects/HouseObjects/handbrush.png",166,11,166,0.7,"stim/53.jpeg",5,3,2,NA,"HouseObjects",2,3,"right","right",0.499000072,1,1,1,1,NA,NA,NA,NA,NA,NA,NA,NA,NA,NA,NA,NA,NA,NA,NA,NA,NA,NA,NA,NA,NA,NA,NA,NA
"236","stim/objects/Instruments/hihat2.png",167,11,167,0.9,"stim/24.jpeg",2,4,3,NA,"Instruments",1,4,"left","left",0.562000275,1,1,1,1,NA,NA,NA,NA,NA,NA,NA,NA,NA,NA,NA,NA,NA,NA,NA,NA,NA,NA,NA,NA,NA,NA,NA,NA
"179","stim/objects/Instruments/frenchhorn.png",168,11,168,0.5,"stim/42.jpeg",4,2,1,NA,"Instruments",1,3,"left","right",0.535000324,0,0,1,1,NA,NA,NA,NA,NA,NA,NA,NA,NA,NA,NA,NA,NA,NA,NA,NA,NA,NA,NA,NA,NA,NA,NA,NA
"180","stim/objects/Instruments/frenchhorn2.png",169,11,169,0.1,"stim/12.jpeg",1,2,3,NA,"Instruments",1,2,"left","right",0.573000193,0,0,1,1,NA,NA,NA,NA,NA,NA,NA,NA,NA,NA,NA,NA,NA,NA,NA,NA,NA,NA,NA,NA,NA,NA,NA,NA
"125","stim/objects/Instruments/drums.png",170,11,170,0.5,"stim/31.jpeg",3,1,1,NA,"Instruments",1,4,"left","left",0.651000023,1,1,1,1,NA,NA,NA,NA,NA,NA,NA,NA,NA,NA,NA,NA,NA,NA,NA,NA,NA,NA,NA,NA,NA,NA,NA,NA
"95","stim/objects/HouseObjects/glassmop.png",171,11,171,0.7,"stim/51.jpeg",5,1,2,NA,"HouseObjects",2,4,"right","right",0.461000204,1,1,1,1,NA,NA,NA,NA,NA,NA,NA,NA,NA,NA,NA,NA,NA,NA,NA,NA,NA,NA,NA,NA,NA,NA,NA,NA
"161","stim/objects/Instruments/flute.png",172,11,172,0.5,"stim/34.jpeg",3,4,1,NA,"Instruments",1,1,"left","left",0.5400002,1,1,1,1,NA,NA,NA,NA,NA,NA,NA,NA,NA,NA,NA,NA,NA,NA,NA,NA,NA,NA,NA,NA,NA,NA,NA,NA
"85","stim/objects/HouseObjects/glass2.png",173,11,173,0.9,"stim/14.jpeg",1,4,3,NA,"HouseObjects",2,2,"right","right",0.526000023,1,1,1,1,NA,NA,NA,NA,NA,NA,NA,NA,NA,NA,NA,NA,NA,NA,NA,NA,NA,NA,NA,NA,NA,NA,NA,NA
"203","stim/objects/Instruments/guitarcase2.png",174,11,174,0.9,"stim/21.jpeg",2,1,3,NA,"Instruments",1,2,"left","left",0.534000158,1,1,1,1,NA,NA,NA,NA,NA,NA,NA,NA,NA,NA,NA,NA,NA,NA,NA,NA,NA,NA,NA,NA,NA,NA,NA,NA
"57","stim/objects/HouseObjects/flyswatter2.png",175,11,175,0.9,"stim/12.jpeg",1,2,3,NA,"HouseObjects",2,1,"right","right",0.53000021,1,1,1,1,NA,NA,NA,NA,NA,NA,NA,NA,NA,NA,NA,NA,NA,NA,NA,NA,NA,NA,NA,NA,NA,NA,NA,NA
"194","stim/objects/Instruments/guitarcase.png",176,11,176,0.3,"stim/51.jpeg",5,1,2,NA,"Instruments",1,3,"left","right",0.577000141,0,0,1,1,NA,NA,NA,NA,NA,NA,NA,NA,NA,NA,NA,NA,NA,NA,NA,NA,NA,NA,NA,NA,NA,NA,NA,NA
"50","stim/objects/HouseObjects/flyswatter.png",177,11,177,0.5,"stim/42.jpeg",4,2,1,NA,"HouseObjects",2,1,"right","right",0.548000097,1,1,1,1,NA,NA,NA,NA,NA,NA,NA,NA,NA,NA,NA,NA,NA,NA,NA,NA,NA,NA,NA,NA,NA,NA,NA,NA
"185","stim/objects/Instruments/gong.png",178,11,178,0.5,"stim/43.jpeg",4,3,1,NA,"Instruments",1,2,"left","left",0.709000111,1,1,1,1,NA,NA,NA,NA,NA,NA,NA,NA,NA,NA,NA,NA,NA,NA,NA,NA,NA,NA,NA,NA,NA,NA,NA,NA
"195","stim/objects/Instruments/guitarcase.png",179,11,179,0.3,"stim/51.jpeg",5,1,2,NA,"Instruments",1,1,"left","right",0.473000288,0,0,1,1,NA,NA,NA,NA,NA,NA,NA,NA,NA,NA,NA,NA,NA,NA,NA,NA,NA,NA,NA,NA,NA,NA,NA,NA
"11","stim/objects/HouseObjects/cushion.png",180,11,180,0.5,"stim/32.jpeg",3,2,1,NA,"HouseObjects",2,4,"right","left",0.577000141,0,0,1,1,NA,NA,NA,NA,NA,NA,NA,NA,NA,NA,NA,NA,NA,NA,NA,NA,NA,NA,NA,NA,NA,NA,NA,NA
"65","stim/objects/HouseObjects/garbagebin.png",181,11,181,0.5,"stim/43.jpeg",4,3,1,NA,"HouseObjects",2,1,"right","left",0.595000029,0,0,1,1,NA,NA,NA,NA,NA,NA,NA,NA,NA,NA,NA,NA,NA,NA,NA,NA,NA,NA,NA,NA,NA,NA,NA,NA
"237","stim/objects/Instruments/hihat2.png",182,11,182,0.9,"stim/24.jpeg",2,4,3,NA,"Instruments",1,3,"left","left",0.526000023,1,1,1,1,NA,NA,NA,NA,NA,NA,NA,NA,NA,NA,NA,NA,NA,NA,NA,NA,NA,NA,NA,NA,NA,NA,NA,NA
"77","stim/objects/HouseObjects/glass.png",183,11,183,0.5,"stim/44.jpeg",4,4,1,NA,"HouseObjects",2,3,"right","right",0.585000277,1,1,1,1,NA,NA,NA,NA,NA,NA,NA,NA,NA,NA,NA,NA,NA,NA,NA,NA,NA,NA,NA,NA,NA,NA,NA,NA
"7","stim/objects/HouseObjects/coffee2.png",184,11,184,0.3,"stim/61.jpeg",6,1,2,NA,"HouseObjects",2,4,"right","left",0.514000177,0,0,1,1,NA,NA,NA,NA,NA,NA,NA,NA,NA,NA,NA,NA,NA,NA,NA,NA,NA,NA,NA,NA,NA,NA,NA,NA
"136","stim/objects/Instruments/electricdrumset.png",185,11,185,0.5,"stim/32.jpeg",3,2,1,NA,"Instruments",1,3,"left","left",0.446000099,1,1,1,1,NA,NA,NA,NA,NA,NA,NA,NA,NA,NA,NA,NA,NA,NA,NA,NA,NA,NA,NA,NA,NA,NA,NA,NA
"28","stim/objects/HouseObjects/doormat.png",186,11,186,0.5,"stim/34.jpeg",3,4,1,NA,"HouseObjects",2,4,"right","left",0.660000324,0,0,1,1,NA,NA,NA,NA,NA,NA,NA,NA,NA,NA,NA,NA,NA,NA,NA,NA,NA,NA,NA,NA,NA,NA,NA,NA
"165","stim/objects/Instruments/flute2.png",187,11,187,0.7,"stim/64.jpeg",6,4,2,NA,"Instruments",1,1,"left","left",0.444000244,1,1,1,1,NA,NA,NA,NA,NA,NA,NA,NA,NA,NA,NA,NA,NA,NA,NA,NA,NA,NA,NA,NA,NA,NA,NA,NA
"58","stim/objects/HouseObjects/flyswatter2.png",188,11,188,0.9,"stim/12.jpeg",1,2,3,NA,"HouseObjects",2,4,"right","right",0.605000257,1,1,1,1,NA,NA,NA,NA,NA,NA,NA,NA,NA,NA,NA,NA,NA,NA,NA,NA,NA,NA,NA,NA,NA,NA,NA,NA
"166","stim/objects/Instruments/flute2.png",189,11,189,0.7,"stim/64.jpeg",6,4,2,NA,"Instruments",1,2,"left","left",0.554000139,1,1,1,1,NA,NA,NA,NA,NA,NA,NA,NA,NA,NA,NA,NA,NA,NA,NA,NA,NA,NA,NA,NA,NA,NA,NA,NA
"21","stim/objects/HouseObjects/dishsoap.png",190,11,190,0.5,"stim/33.jpeg",3,3,1,NA,"HouseObjects",2,1,"right","left",0.626000166,0,0,1,1,NA,NA,NA,NA,NA,NA,NA,NA,NA,NA,NA,NA,NA,NA,NA,NA,NA,NA,NA,NA,NA,NA,NA,NA
"190","stim/objects/Instruments/grandpiano.png",191,11,191,0.5,"stim/44.jpeg",4,4,1,NA,"Instruments",1,3,"left","left",0.696000099,1,1,1,1,NA,NA,NA,NA,NA,NA,NA,NA,NA,NA,NA,NA,NA,NA,NA,NA,NA,NA,NA,NA,NA,NA,NA,NA
"72","stim/objects/HouseObjects/garbagebin2.png",192,11,192,0.9,"stim/13.jpeg",1,3,3,NA,"HouseObjects",2,4,"right","right",0.485000134,1,1,1,1,NA,NA,NA,NA,NA,NA,NA,NA,NA,NA,NA,NA,NA,NA,NA,NA,NA,NA,NA,NA,NA,NA,NA,NA
"73","stim/objects/HouseObjects/garbagebin2.png",193,11,193,0.9,"stim/13.jpeg",1,3,3,NA,"HouseObjects",2,3,"right","right",0.548000097,1,1,1,1,NA,NA,NA,NA,NA,NA,NA,NA,NA,NA,NA,NA,NA,NA,NA,NA,NA,NA,NA,NA,NA,NA,NA,NA
"238","stim/objects/Instruments/hihat2.png",194,11,194,0.9,"stim/24.jpeg",2,4,3,NA,"Instruments",1,3,"left","left",0.459000111,1,1,1,1,NA,NA,NA,NA,NA,NA,NA,NA,NA,NA,NA,NA,NA,NA,NA,NA,NA,NA,NA,NA,NA,NA,NA,NA
"32","stim/objects/HouseObjects/doormat2.png",195,11,195,0.3,"stim/64.jpeg",6,4,2,NA,"HouseObjects",2,3,"right","left",0.473000288,0,0,1,1,NA,NA,NA,NA,NA,NA,NA,NA,NA,NA,NA,NA,NA,NA,NA,NA,NA,NA,NA,NA,NA,NA,NA,NA
"204","stim/objects/Instruments/guitarcase2.png",196,11,196,0.9,"stim/21.jpeg",2,1,3,NA,"Instruments",1,2,"left","left",0.545000076,1,1,1,1,NA,NA,NA,NA,NA,NA,NA,NA,NA,NA,NA,NA,NA,NA,NA,NA,NA,NA,NA,NA,NA,NA,NA,NA
"86","stim/objects/HouseObjects/glass2.png",197,11,197,0.9,"stim/14.jpeg",1,4,3,NA,"HouseObjects",2,3,"right","right",0.621000051,1,1,1,1,NA,NA,NA,NA,NA,NA,NA,NA,NA,NA,NA,NA,NA,NA,NA,NA,NA,NA,NA,NA,NA,NA,NA,NA
"143","stim/objects/Instruments/electricdrumset2.png",198,11,198,0.7,"stim/62.jpeg",6,2,2,NA,"Instruments",1,4,"left","left",0.56400013,1,1,1,1,NA,NA,NA,NA,NA,NA,NA,NA,NA,NA,NA,NA,NA,NA,NA,NA,NA,NA,NA,NA,NA,NA,NA,NA
"118","stim/objects/HouseObjects/handvacuum.png",199,11,199,0.7,"stim/54.jpeg",5,4,2,NA,"HouseObjects",2,1,"right","right",0.582000017,1,1,1,1,NA,NA,NA,NA,NA,NA,NA,NA,NA,NA,NA,NA,NA,NA,NA,NA,NA,NA,NA,NA,NA,NA,NA,NA
"191","stim/objects/Instruments/grandpiano.png",200,11,200,0.5,"stim/44.jpeg",4,4,1,NA,"Instruments",1,2,"left","left",0.492000341,1,1,1,1,NA,NA,NA,NA,NA,NA,NA,NA,NA,NA,NA,NA,NA,NA,NA,NA,NA,NA,NA,NA,NA,NA,NA,NA
"167","stim/objects/Instruments/flute2.png",201,11,201,0.7,"stim/64.jpeg",6,4,2,NA,"Instruments",1,2,"left","left",0.596000195,1,1,1,1,NA,NA,NA,NA,NA,NA,NA,NA,NA,NA,NA,NA,NA,NA,NA,NA,NA,NA,NA,NA,NA,NA,NA,NA
"225","stim/objects/Instruments/harp2.png",202,11,202,0.9,"stim/23.jpeg",2,3,3,NA,"Instruments",1,1,"left","left",0.584000349,1,1,1,1,NA,NA,NA,NA,NA,NA,NA,NA,NA,NA,NA,NA,NA,NA,NA,NA,NA,NA,NA,NA,NA,NA,NA,NA
"51","stim/objects/HouseObjects/flyswatter.png",203,11,203,0.5,"stim/42.jpeg",4,2,1,NA,"HouseObjects",2,1,"right","right",0.599000216,1,1,1,1,NA,NA,NA,NA,NA,NA,NA,NA,NA,NA,NA,NA,NA,NA,NA,NA,NA,NA,NA,NA,NA,NA,NA,NA
"226","stim/objects/Instruments/harp2.png",204,11,204,0.9,"stim/23.jpeg",2,3,3,NA,"Instruments",1,2,"left","left",0.510000229,1,1,1,1,NA,NA,NA,NA,NA,NA,NA,NA,NA,NA,NA,NA,NA,NA,NA,NA,NA,NA,NA,NA,NA,NA,NA,NA
"74","stim/objects/HouseObjects/garbagebin2.png",205,11,205,0.9,"stim/13.jpeg",1,3,3,NA,"HouseObjects",2,2,"right","right",0.566000223,1,1,1,1,NA,NA,NA,NA,NA,NA,NA,NA,NA,NA,NA,NA,NA,NA,NA,NA,NA,NA,NA,NA,NA,NA,NA,NA
"78","stim/objects/HouseObjects/glass.png",206,11,206,0.5,"stim/44.jpeg",4,4,1,NA,"HouseObjects",2,1,"right","right",0.649000168,1,1,1,1,NA,NA,NA,NA,NA,NA,NA,NA,NA,NA,NA,NA,NA,NA,NA,NA,NA,NA,NA,NA,NA,NA,NA,NA
"12","stim/objects/HouseObjects/cushion.png",207,11,207,0.5,"stim/32.jpeg",3,2,1,NA,"HouseObjects",2,2,"right","left",0.602000237,0,0,1,1,NA,NA,NA,NA,NA,NA,NA,NA,NA,NA,NA,NA,NA,NA,NA,NA,NA,NA,NA,NA,NA,NA,NA,NA
"8","stim/objects/HouseObjects/coffee2.png",208,11,208,0.3,"stim/61.jpeg",6,1,2,NA,"HouseObjects",2,4,"right","left",0.562999964,0,0,1,1,NA,NA,NA,NA,NA,NA,NA,NA,NA,NA,NA,NA,NA,NA,NA,NA,NA,NA,NA,NA,NA,NA,NA,NA
"87","stim/objects/HouseObjects/glass2.png",209,11,209,0.9,"stim/14.jpeg",1,4,3,NA,"HouseObjects",2,4,"right","right",0.590000153,1,1,1,1,NA,NA,NA,NA,NA,NA,NA,NA,NA,NA,NA,NA,NA,NA,NA,NA,NA,NA,NA,NA,NA,NA,NA,NA
"15","stim/objects/HouseObjects/cushion2.png",210,11,210,0.3,"stim/62.jpeg",6,2,2,NA,"HouseObjects",2,4,"right","left",0.561000109,0,0,1,1,NA,NA,NA,NA,NA,NA,NA,NA,NA,NA,NA,NA,NA,NA,NA,NA,NA,NA,NA,NA,NA,NA,NA,NA
"144","stim/objects/Instruments/electricdrumset2.png",211,11,211,0.7,"stim/62.jpeg",6,2,2,NA,"Instruments",1,2,"left","left",0.565000296,1,1,1,1,NA,NA,NA,NA,NA,NA,NA,NA,NA,NA,NA,NA,NA,NA,NA,NA,NA,NA,NA,NA,NA,NA,NA,NA
"137","stim/objects/Instruments/electricdrumset.png",212,11,212,0.5,"stim/32.jpeg",3,2,1,NA,"Instruments",1,2,"left","left",0.678000212,1,1,1,1,NA,NA,NA,NA,NA,NA,NA,NA,NA,NA,NA,NA,NA,NA,NA,NA,NA,NA,NA,NA,NA,NA,NA,NA
"59","stim/objects/HouseObjects/flyswatter2.png",213,11,213,0.9,"stim/12.jpeg",1,2,3,NA,"HouseObjects",2,1,"right","right",0.535000324,1,1,1,1,NA,NA,NA,NA,NA,NA,NA,NA,NA,NA,NA,NA,NA,NA,NA,NA,NA,NA,NA,NA,NA,NA,NA,NA
"216","stim/objects/Instruments/harmonica2.png",214,11,214,0.9,"stim/22.jpeg",2,2,3,NA,"Instruments",1,3,"left","left",0.510000229,1,1,1,1,NA,NA,NA,NA,NA,NA,NA,NA,NA,NA,NA,NA,NA,NA,NA,NA,NA,NA,NA,NA,NA,NA,NA,NA
"154","stim/objects/Instruments/electricguitar2.png",215,11,215,0.7,"stim/63.jpeg",6,3,2,NA,"Instruments",1,2,"left","left",0.545000315,1,1,1,1,NA,NA,NA,NA,NA,NA,NA,NA,NA,NA,NA,NA,NA,NA,NA,NA,NA,NA,NA,NA,NA,NA,NA,NA
"60","stim/objects/HouseObjects/flyswatter2.png",216,11,216,0.9,"stim/12.jpeg",1,2,3,NA,"HouseObjects",2,4,"right","right",0.433000088,1,1,1,1,NA,NA,NA,NA,NA,NA,NA,NA,NA,NA,NA,NA,NA,NA,NA,NA,NA,NA,NA,NA,NA,NA,NA,NA
"110","stim/objects/HouseObjects/handbrush.png",217,11,217,0.7,"stim/53.jpeg",5,3,2,NA,"HouseObjects",2,3,"right","right",0.584000111,1,1,1,1,NA,NA,NA,NA,NA,NA,NA,NA,NA,NA,NA,NA,NA,NA,NA,NA,NA,NA,NA,NA,NA,NA,NA,NA
"79","stim/objects/HouseObjects/glass.png",218,11,218,0.5,"stim/44.jpeg",4,4,1,NA,"HouseObjects",2,4,"right","right",0.565999985,1,1,1,1,NA,NA,NA,NA,NA,NA,NA,NA,NA,NA,NA,NA,NA,NA,NA,NA,NA,NA,NA,NA,NA,NA,NA,NA
"132","stim/objects/Instruments/drums2.png",219,11,219,0.7,"stim/61.jpeg",6,1,2,NA,"Instruments",1,2,"left","left",0.441000223,1,1,1,1,NA,NA,NA,NA,NA,NA,NA,NA,NA,NA,NA,NA,NA,NA,NA,NA,NA,NA,NA,NA,NA,NA,NA,NA
"29","stim/objects/HouseObjects/doormat.png",220,11,220,0.5,"stim/34.jpeg",3,4,1,NA,"HouseObjects",2,1,"right","left",0.580000162,0,0,1,1,NA,NA,NA,NA,NA,NA,NA,NA,NA,NA,NA,NA,NA,NA,NA,NA,NA,NA,NA,NA,NA,NA,NA,NA
"103","stim/objects/HouseObjects/hairdryer.png",221,11,221,0.7,"stim/52.jpeg",5,2,2,NA,"HouseObjects",2,4,"right","right",0.440999985,1,1,1,1,NA,NA,NA,NA,NA,NA,NA,NA,NA,NA,NA,NA,NA,NA,NA,NA,NA,NA,NA,NA,NA,NA,NA,NA
"36","stim/objects/HouseObjects/dustpan.png",222,11,222,0.5,"stim/41.jpeg",4,1,1,NA,"HouseObjects",2,4,"right","right",0.602000237,1,1,1,1,NA,NA,NA,NA,NA,NA,NA,NA,NA,NA,NA,NA,NA,NA,NA,NA,NA,NA,NA,NA,NA,NA,NA,NA
"23","stim/objects/HouseObjects/dishsoap2.png",223,11,223,0.3,"stim/63.jpeg",6,3,2,NA,"HouseObjects",2,4,"right","left",0.542000294,0,0,1,1,NA,NA,NA,NA,NA,NA,NA,NA,NA,NA,NA,NA,NA,NA,NA,NA,NA,NA,NA,NA,NA,NA,NA,NA
"119","stim/objects/HouseObjects/handvacuum.png",224,11,224,0.7,"stim/54.jpeg",5,4,2,NA,"HouseObjects",2,4,"right","right",0.603000164,1,1,1,1,NA,NA,NA,NA,NA,NA,NA,NA,NA,NA,NA,NA,NA,NA,NA,NA,NA,NA,NA,NA,NA,NA,NA,NA
"239","stim/objects/Instruments/hihat2.png",225,11,225,0.9,"stim/24.jpeg",2,4,3,NA,"Instruments",1,2,"left","left",0.546000242,1,1,1,1,NA,NA,NA,NA,NA,NA,NA,NA,NA,NA,NA,NA,NA,NA,NA,NA,NA,NA,NA,NA,NA,NA,NA,NA
"155","stim/objects/Instruments/electricguitar2.png",226,11,226,0.7,"stim/63.jpeg",6,3,2,NA,"Instruments",1,3,"left","left",0.488000393,1,1,1,1,NA,NA,NA,NA,NA,NA,NA,NA,NA,NA,NA,NA,NA,NA,NA,NA,NA,NA,NA,NA,NA,NA,NA,NA
"13","stim/objects/HouseObjects/cushion.png",227,11,227,0.5,"stim/32.jpeg",3,2,1,NA,"HouseObjects",2,2,"right","left",0.524000168,0,0,1,1,NA,NA,NA,NA,NA,NA,NA,NA,NA,NA,NA,NA,NA,NA,NA,NA,NA,NA,NA,NA,NA,NA,NA,NA
"219","stim/objects/Instruments/harp.png",228,11,228,0.3,"stim/53.jpeg",5,3,2,NA,"Instruments",1,3,"left","right",0.569000244,0,0,1,1,NA,NA,NA,NA,NA,NA,NA,NA,NA,NA,NA,NA,NA,NA,NA,NA,NA,NA,NA,NA,NA,NA,NA,NA
"37","stim/objects/HouseObjects/dustpan.png",229,11,229,0.5,"stim/41.jpeg",4,1,1,NA,"HouseObjects",2,3,"right","right",0.496000051,1,1,1,1,NA,NA,NA,NA,NA,NA,NA,NA,NA,NA,NA,NA,NA,NA,NA,NA,NA,NA,NA,NA,NA,NA,NA,NA
"24","stim/objects/HouseObjects/dishsoap2.png",230,11,230,0.3,"stim/63.jpeg",6,3,2,NA,"HouseObjects",2,2,"right","left",0.511000156,0,0,1,1,NA,NA,NA,NA,NA,NA,NA,NA,NA,NA,NA,NA,NA,NA,NA,NA,NA,NA,NA,NA,NA,NA,NA,NA
"16","stim/objects/HouseObjects/cushion2.png",231,11,231,0.3,"stim/62.jpeg",6,2,2,NA,"HouseObjects",2,1,"right","left",0.584000111,0,0,1,1,NA,NA,NA,NA,NA,NA,NA,NA,NA,NA,NA,NA,NA,NA,NA,NA,NA,NA,NA,NA,NA,NA,NA,NA
"240","stim/objects/Instruments/hihat2.png",232,11,232,0.9,"stim/24.jpeg",2,4,3,NA,"Instruments",1,2,"left","left",0.519000053,1,1,1,1,NA,NA,NA,NA,NA,NA,NA,NA,NA,NA,NA,NA,NA,NA,NA,NA,NA,NA,NA,NA,NA,NA,NA,NA
"156","stim/objects/Instruments/electricguitar2.png",233,11,233,0.7,"stim/63.jpeg",6,3,2,NA,"Instruments",1,2,"left","left",0.51300025,1,1,1,1,NA,NA,NA,NA,NA,NA,NA,NA,NA,NA,NA,NA,NA,NA,NA,NA,NA,NA,NA,NA,NA,NA,NA,NA
"111","stim/objects/HouseObjects/handbrush.png",234,11,234,0.7,"stim/53.jpeg",5,3,2,NA,"HouseObjects",2,4,"right","right",0.577000141,1,1,1,1,NA,NA,NA,NA,NA,NA,NA,NA,NA,NA,NA,NA,NA,NA,NA,NA,NA,NA,NA,NA,NA,NA,NA,NA
"227","stim/objects/Instruments/harp2.png",235,11,235,0.9,"stim/23.jpeg",2,3,3,NA,"Instruments",1,3,"left","left",0.516000032,1,1,1,1,NA,NA,NA,NA,NA,NA,NA,NA,NA,NA,NA,NA,NA,NA,NA,NA,NA,NA,NA,NA,NA,NA,NA,NA
"231","stim/objects/Instruments/hihat.png",236,11,236,0.3,"stim/54.jpeg",5,4,2,NA,"Instruments",1,1,"left","right",0.509000301,0,0,1,1,NA,NA,NA,NA,NA,NA,NA,NA,NA,NA,NA,NA,NA,NA,NA,NA,NA,NA,NA,NA,NA,NA,NA,NA
"228","stim/objects/Instruments/harp2.png",237,11,237,0.9,"stim/23.jpeg",2,3,3,NA,"Instruments",1,4,"left","left",0.537000179,1,1,1,1,NA,NA,NA,NA,NA,NA,NA,NA,NA,NA,NA,NA,NA,NA,NA,NA,NA,NA,NA,NA,NA,NA,NA,NA
"5","stim/objects/HouseObjects/coffee.png",238,11,238,0.5,"stim/31.jpeg",3,1,1,NA,"HouseObjects",2,4,"right","left",0.552000284,0,0,1,1,NA,NA,NA,NA,NA,NA,NA,NA,NA,NA,NA,NA,NA,NA,NA,NA,NA,NA,NA,NA,NA,NA,NA,NA
"168","stim/objects/Instruments/flute2.png",239,11,239,0.7,"stim/64.jpeg",6,4,2,NA,"Instruments",1,4,"left","left",0.671000242,1,1,1,1,NA,NA,NA,NA,NA,NA,NA,NA,NA,NA,NA,NA,NA,NA,NA,NA,NA,NA,NA,NA,NA,NA,NA,NA
"88","stim/objects/HouseObjects/glass2.png",240,11,240,0.9,"stim/14.jpeg",1,4,3,NA,"HouseObjects",2,2,"right","",NA,0,0,1,1,NA,NA,NA,NA,NA,NA,NA,NA,NA,NA,NA,NA,NA,NA,NA,NA,NA,NA,NA,NA,NA,NA,NA,NA
"325","stim/objects/HouseObjects/match3.png",248,11,241,0.9,"stim/14.jpeg",1,4,3,2,"HouseObjects",2,2,"right","right",0.732000113,1,1,1,0,NA,NA,NA,NA,NA,NA,NA,NA,NA,NA,NA,NA,NA,NA,NA,NA,NA,NA,NA,NA,NA,NA,NA,NA
"490","stim/objects/Instruments/musicsheet3.png",249,11,242,0.9,"stim/24.jpeg",2,4,3,2,"Instruments",1,2,"left","left",0.53000021,1,1,1,0,NA,NA,NA,NA,NA,NA,NA,NA,NA,NA,NA,NA,NA,NA,NA,NA,NA,NA,NA,NA,NA,NA,NA,NA
"524","stim/objects/Instruments/oboe3.png",250,11,243,0.9,"stim/22.jpeg",2,2,3,2,"Instruments",1,4,"left","left",0.56400013,1,1,1,0,NA,NA,NA,NA,NA,NA,NA,NA,NA,NA,NA,NA,NA,NA,NA,NA,NA,NA,NA,NA,NA,NA,NA,NA
"256","stim/objects/HouseObjects/blender3.png",251,11,244,0.5,"stim/42.jpeg",4,2,1,2,"HouseObjects",2,4,"right","right",0.537000179,1,1,1,0,NA,NA,NA,NA,NA,NA,NA,NA,NA,NA,NA,NA,NA,NA,NA,NA,NA,NA,NA,NA,NA,NA,NA,NA
"287","stim/objects/HouseObjects/key3.png",252,11,245,0.7,"stim/51.jpeg",5,1,2,2,"HouseObjects",2,1,"right","right",0.521000147,1,1,1,0,NA,NA,NA,NA,NA,NA,NA,NA,NA,NA,NA,NA,NA,NA,NA,NA,NA,NA,NA,NA,NA,NA,NA,NA
"489","stim/objects/Instruments/metronome4.png",253,11,246,0.1,"stim/12.jpeg",1,2,3,1,"Instruments",1,4,"left","right",0.630000114,0,0,1,0,180,11,1,0.1,1,"stim/12.jpeg",1,2,"stim/12.jpeg",4,"right",0.930999994,2,4,1.217000008,1,0.773999929,180,0,0,NA,0,NA,1
"384","stim/objects/HouseObjects/safetypin3.png",254,11,247,0.5,"stim/32.jpeg",3,2,1,1,"HouseObjects",2,4,"right","left",0.626000166,0,0,1,0,187,11,1,0.5,1,"stim/32.jpeg",3,2,"stim/32.jpeg",4,"left",2.773999929,3,3,0.842999935,1,1.51699996,187,1,0,0,0,0,1
"507","stim/objects/Instruments/musicstand3.png",255,11,248,0.9,"stim/21.jpeg",2,1,3,2,"Instruments",1,4,"left","left",0.524000168,1,1,1,0,NA,NA,NA,NA,NA,NA,NA,NA,NA,NA,NA,NA,NA,NA,NA,NA,NA,NA,NA,NA,NA,NA,NA,NA
"282","stim/objects/HouseObjects/iron4.png",256,11,249,0.3,"stim/61.jpeg",6,1,2,1,"HouseObjects",2,4,"right","left",0.579000235,0,0,1,0,155,11,1,0.3,2,"stim/61.jpeg",6,1,"stim/61.jpeg",4,"right",1.447999954,4,3,1.319000006,1,0.57799983,155,0,0,NA,0,NA,1
"491","stim/objects/Instruments/musicsheet3.png",257,11,250,0.9,"stim/23.jpeg",2,3,3,2,"Instruments",1,3,"left","left",0.546000242,1,1,1,0,NA,NA,NA,NA,NA,NA,NA,NA,NA,NA,NA,NA,NA,NA,NA,NA,NA,NA,NA,NA,NA,NA,NA,NA
"508","stim/objects/Instruments/musicstand3.png",258,11,251,0.9,"stim/22.jpeg",2,2,3,2,"Instruments",1,4,"left","left",0.573000193,1,1,1,0,NA,NA,NA,NA,NA,NA,NA,NA,NA,NA,NA,NA,NA,NA,NA,NA,NA,NA,NA,NA,NA,NA,NA,NA
"328","stim/objects/HouseObjects/match3.png",259,11,252,0.9,"stim/13.jpeg",1,3,3,2,"HouseObjects",2,2,"right","right",0.605000019,1,1,1,0,NA,NA,NA,NA,NA,NA,NA,NA,NA,NA,NA,NA,NA,NA,NA,NA,NA,NA,NA,NA,NA,NA,NA,NA
"473","stim/objects/Instruments/metronome3.png",260,11,253,0.9,"stim/21.jpeg",2,1,3,2,"Instruments",1,3,"left","left",0.634000063,1,1,1,0,NA,NA,NA,NA,NA,NA,NA,NA,NA,NA,NA,NA,NA,NA,NA,NA,NA,NA,NA,NA,NA,NA,NA,NA
"342","stim/objects/HouseObjects/pan3.png",261,11,254,0.9,"stim/13.jpeg",1,3,3,2,"HouseObjects",2,2,"right","right",0.504000187,1,1,1,0,NA,NA,NA,NA,NA,NA,NA,NA,NA,NA,NA,NA,NA,NA,NA,NA,NA,NA,NA,NA,NA,NA,NA,NA
"440","stim/objects/Instruments/doublebass3.png",262,11,255,0.7,"stim/62.jpeg",6,2,2,2,"Instruments",1,1,"left","left",0.563000202,1,1,1,0,NA,NA,NA,NA,NA,NA,NA,NA,NA,NA,NA,NA,NA,NA,NA,NA,NA,NA,NA,NA,NA,NA,NA,NA
"439","stim/objects/Instruments/cymbal4.png",263,11,256,0.7,"stim/61.jpeg",6,1,2,1,"Instruments",1,3,"left","left",0.661000013,1,1,1,0,167,11,1,0.7,1,"stim/61.jpeg",6,1,"stim/61.jpeg",3,"right",1.345000029,3,3,0.688999891,1,0.454999924,167,0,0,NA,0,NA,1
"510","stim/objects/Instruments/musicstand3.png",264,11,257,0.9,"stim/24.jpeg",2,4,3,2,"Instruments",1,2,"left","left",0.560000181,1,1,1,0,NA,NA,NA,NA,NA,NA,NA,NA,NA,NA,NA,NA,NA,NA,NA,NA,NA,NA,NA,NA,NA,NA,NA,NA
"456","stim/objects/Instruments/marimba3.png",265,11,258,0.9,"stim/23.jpeg",2,3,3,2,"Instruments",1,4,"left","left",0.539000034,1,1,1,0,NA,NA,NA,NA,NA,NA,NA,NA,NA,NA,NA,NA,NA,NA,NA,NA,NA,NA,NA,NA,NA,NA,NA,NA
"398","stim/objects/HouseObjects/thread3.png",266,11,259,0.7,"stim/53.jpeg",5,3,2,1,"HouseObjects",2,4,"right","right",0.546000004,1,1,1,0,97,11,1,0.7,2,"stim/53.jpeg",5,3,"stim/53.jpeg",4,"right",1.446999788,3,2,2.371999979,2,1.23300004,97,0,0,NA,0,NA,1
"554","stim/objects/Instruments/tambourine4.png",267,11,260,0.9,"stim/22.jpeg",2,2,3,1,"Instruments",1,2,"left","left",0.565000296,1,1,1,0,31,11,1,0.9,1,"stim/22.jpeg",2,2,"stim/22.jpeg",2,"left",1.394999981,3,3,5.788999796,2,0.832000017,31,1,0,0,1,1,1
"329","stim/objects/HouseObjects/match3.png",268,11,261,0.9,"stim/14.jpeg",1,4,3,2,"HouseObjects",2,3,"right","right",0.579000235,1,1,1,0,NA,NA,NA,NA,NA,NA,NA,NA,NA,NA,NA,NA,NA,NA,NA,NA,NA,NA,NA,NA,NA,NA,NA,NA
"458","stim/objects/Instruments/marimba3.png",269,11,262,0.9,"stim/22.jpeg",2,2,3,2,"Instruments",1,3,"left","left",0.527000189,1,1,1,0,NA,NA,NA,NA,NA,NA,NA,NA,NA,NA,NA,NA,NA,NA,NA,NA,NA,NA,NA,NA,NA,NA,NA,NA
"511","stim/objects/Instruments/musicstand3.png",270,11,263,0.9,"stim/21.jpeg",2,1,3,2,"Instruments",1,1,"left","left",0.56400013,1,1,1,0,NA,NA,NA,NA,NA,NA,NA,NA,NA,NA,NA,NA,NA,NA,NA,NA,NA,NA,NA,NA,NA,NA,NA,NA
"475","stim/objects/Instruments/metronome3.png",271,11,264,0.9,"stim/23.jpeg",2,3,3,2,"Instruments",1,4,"left","",NA,0,0,1,0,NA,NA,NA,NA,NA,NA,NA,NA,NA,NA,NA,NA,NA,NA,NA,NA,NA,NA,NA,NA,NA,NA,NA,NA
"412","stim/objects/Instruments/balalaika3.png",272,11,265,0.5,"stim/34.jpeg",3,4,1,2,"Instruments",1,4,"left","left",0.625000238,1,1,1,0,NA,NA,NA,NA,NA,NA,NA,NA,NA,NA,NA,NA,NA,NA,NA,NA,NA,NA,NA,NA,NA,NA,NA,NA
"261","stim/objects/HouseObjects/bottle4.png",273,11,266,0.3,"stim/63.jpeg",6,3,2,1,"HouseObjects",2,4,"right","left",0.563000202,0,0,1,0,181,11,1,0.3,2,"stim/63.jpeg",6,3,"stim/63.jpeg",4,"left",1.372999907,4,1,1.2099998,3,1.282999992,181,1,0,0,0,0,1
"512","stim/objects/Instruments/musicstand3.png",274,11,267,0.9,"stim/21.jpeg",2,1,3,2,"Instruments",1,2,"left","left",0.528000116,1,1,1,0,NA,NA,NA,NA,NA,NA,NA,NA,NA,NA,NA,NA,NA,NA,NA,NA,NA,NA,NA,NA,NA,NA,NA,NA
"308","stim/objects/HouseObjects/lintroller3.png",275,11,268,0.9,"stim/12.jpeg",1,2,3,2,"HouseObjects",2,3,"right","right",0.5400002,1,1,1,0,NA,NA,NA,NA,NA,NA,NA,NA,NA,NA,NA,NA,NA,NA,NA,NA,NA,NA,NA,NA,NA,NA,NA,NA
"565","stim/objects/Instruments/violin3.png",276,11,269,0.3,"stim/53.jpeg",5,3,2,1,"Instruments",1,3,"left","right",0.516000271,0,0,1,0,15,11,1,0.3,1,"stim/53.jpeg",5,3,"stim/53.jpeg",3,"right",2.924999952,2,2,1.791999817,4,1.412999868,15,0,0,NA,0,NA,1
"550","stim/objects/Instruments/saxophone4.png",277,11,270,0.1,"stim/12.jpeg",1,2,3,1,"Instruments",1,4,"left","right",0.589000225,0,0,1,0,156,11,1,0.1,1,"stim/12.jpeg",1,2,"stim/12.jpeg",4,"right",1.107999802,4,3,0.88499999,1,0.618000031,156,0,0,NA,0,NA,1
"492","stim/objects/Instruments/musicsheet3.png",278,11,271,0.9,"stim/23.jpeg",2,3,3,2,"Instruments",1,4,"left","left",0.550000191,1,1,1,0,NA,NA,NA,NA,NA,NA,NA,NA,NA,NA,NA,NA,NA,NA,NA,NA,NA,NA,NA,NA,NA,NA,NA,NA
"569","stim/objects/Instruments/xylophone3.png",279,11,272,0.3,"stim/51.jpeg",5,1,2,1,"Instruments",1,4,"left","right",0.53000021,0,0,1,0,151,11,1,0.3,1,"stim/51.jpeg",5,1,"stim/51.jpeg",4,"right",0.703000069,4,3,1.244999886,1,1.073999882,151,0,0,NA,0,NA,1
"513","stim/objects/Instruments/musicstand3.png",280,11,273,0.9,"stim/22.jpeg",2,2,3,2,"Instruments",1,2,"left","left",0.536000013,1,1,1,0,NA,NA,NA,NA,NA,NA,NA,NA,NA,NA,NA,NA,NA,NA,NA,NA,NA,NA,NA,NA,NA,NA,NA,NA
"343","stim/objects/HouseObjects/pan3.png",281,11,274,0.9,"stim/14.jpeg",1,4,3,2,"HouseObjects",2,1,"right","right",0.539000273,1,1,1,0,NA,NA,NA,NA,NA,NA,NA,NA,NA,NA,NA,NA,NA,NA,NA,NA,NA,NA,NA,NA,NA,NA,NA,NA
"292","stim/objects/HouseObjects/knife3.png",282,11,275,0.9,"stim/12.jpeg",1,2,3,2,"HouseObjects",2,2,"right","right",0.718000174,1,1,1,0,NA,NA,NA,NA,NA,NA,NA,NA,NA,NA,NA,NA,NA,NA,NA,NA,NA,NA,NA,NA,NA,NA,NA,NA
"383","stim/objects/HouseObjects/rug4.png",283,11,276,0.9,"stim/13.jpeg",1,3,3,1,"HouseObjects",2,1,"right","right",0.607000351,1,1,1,0,38,11,1,0.9,2,"stim/13.jpeg",1,3,"stim/13.jpeg",1,"right",0.822999954,3,2,2.259999752,4,2.43599987,38,0,0,NA,0,NA,1
"309","stim/objects/HouseObjects/lintroller3.png",284,11,277,0.9,"stim/11.jpeg",1,1,3,2,"HouseObjects",2,3,"right","right",0.565999985,1,1,1,0,NA,NA,NA,NA,NA,NA,NA,NA,NA,NA,NA,NA,NA,NA,NA,NA,NA,NA,NA,NA,NA,NA,NA,NA
"526","stim/objects/Instruments/oboe3.png",285,11,278,0.9,"stim/24.jpeg",2,4,3,2,"Instruments",1,2,"left","left",0.548000336,1,1,1,0,NA,NA,NA,NA,NA,NA,NA,NA,NA,NA,NA,NA,NA,NA,NA,NA,NA,NA,NA,NA,NA,NA,NA,NA
"344","stim/objects/HouseObjects/pan3.png",286,11,279,0.9,"stim/14.jpeg",1,4,3,2,"HouseObjects",2,2,"right","right",0.551000118,1,1,1,0,NA,NA,NA,NA,NA,NA,NA,NA,NA,NA,NA,NA,NA,NA,NA,NA,NA,NA,NA,NA,NA,NA,NA,NA
"380","stim/objects/HouseObjects/rubbergloves3.png",287,11,280,0.5,"stim/34.jpeg",3,4,1,1,"HouseObjects",2,2,"right","left",0.59800005,0,0,1,0,171,11,1,0.5,1,"stim/34.jpeg",3,4,"stim/34.jpeg",2,"right",1.042999983,3,3,0.758999825,3,1.210000038,171,0,0,NA,0,NA,1
"420","stim/objects/Instruments/bassdrum4.png",288,11,281,0.3,"stim/52.jpeg",5,2,2,1,"Instruments",1,4,"left","right",0.539000034,0,0,1,0,184,11,1,0.3,1,"stim/52.jpeg",5,2,"stim/52.jpeg",4,"right",0.888999939,3,3,0.749000072,3,0.874000072,184,0,0,NA,0,NA,1
"293","stim/objects/HouseObjects/knife3.png",289,11,282,0.9,"stim/14.jpeg",1,4,3,2,"HouseObjects",2,2,"right","right",0.581000328,1,1,1,0,NA,NA,NA,NA,NA,NA,NA,NA,NA,NA,NA,NA,NA,NA,NA,NA,NA,NA,NA,NA,NA,NA,NA,NA
"359","stim/objects/HouseObjects/pitcher3.png",290,11,283,0.9,"stim/14.jpeg",1,4,3,2,"HouseObjects",2,3,"right","right",0.629000187,1,1,1,0,NA,NA,NA,NA,NA,NA,NA,NA,NA,NA,NA,NA,NA,NA,NA,NA,NA,NA,NA,NA,NA,NA,NA,NA
"418","stim/objects/Instruments/bassdrum3.png",291,11,284,0.5,"stim/32.jpeg",3,2,1,2,"Instruments",1,2,"left","left",0.591000319,1,1,1,0,NA,NA,NA,NA,NA,NA,NA,NA,NA,NA,NA,NA,NA,NA,NA,NA,NA,NA,NA,NA,NA,NA,NA,NA
"241","stim/objects/HouseObjects/ashtray3.png",292,11,285,0.5,"stim/34.jpeg",3,4,1,2,"HouseObjects",2,3,"right","left",0.504000187,0,0,1,0,NA,NA,NA,NA,NA,NA,NA,NA,NA,NA,NA,NA,NA,NA,NA,NA,NA,NA,NA,NA,NA,NA,NA,NA
"424","stim/objects/Instruments/cello3.png",293,11,286,0.5,"stim/41.jpeg",4,1,1,2,"Instruments",1,3,"left","right",0.538000107,0,0,1,0,NA,NA,NA,NA,NA,NA,NA,NA,NA,NA,NA,NA,NA,NA,NA,NA,NA,NA,NA,NA,NA,NA,NA,NA
"294","stim/objects/HouseObjects/knife3.png",294,11,287,0.9,"stim/11.jpeg",1,1,3,2,"HouseObjects",2,2,"right","right",0.684000254,1,1,1,0,NA,NA,NA,NA,NA,NA,NA,NA,NA,NA,NA,NA,NA,NA,NA,NA,NA,NA,NA,NA,NA,NA,NA,NA
"360","stim/objects/HouseObjects/pitcher3.png",295,11,288,0.9,"stim/14.jpeg",1,4,3,2,"HouseObjects",2,1,"right","right",0.535000086,1,1,1,0,NA,NA,NA,NA,NA,NA,NA,NA,NA,NA,NA,NA,NA,NA,NA,NA,NA,NA,NA,NA,NA,NA,NA,NA
"460","stim/objects/Instruments/marimba3.png",296,11,289,0.9,"stim/22.jpeg",2,2,3,2,"Instruments",1,1,"left","left",0.546000242,1,1,1,0,NA,NA,NA,NA,NA,NA,NA,NA,NA,NA,NA,NA,NA,NA,NA,NA,NA,NA,NA,NA,NA,NA,NA,NA
"310","stim/objects/HouseObjects/lintroller3.png",297,11,290,0.9,"stim/12.jpeg",1,2,3,2,"HouseObjects",2,1,"right","right",0.704000235,1,1,1,0,NA,NA,NA,NA,NA,NA,NA,NA,NA,NA,NA,NA,NA,NA,NA,NA,NA,NA,NA,NA,NA,NA,NA,NA
"311","stim/objects/HouseObjects/lintroller3.png",298,11,291,0.9,"stim/11.jpeg",1,1,3,2,"HouseObjects",2,1,"right","right",0.555999994,1,1,1,0,NA,NA,NA,NA,NA,NA,NA,NA,NA,NA,NA,NA,NA,NA,NA,NA,NA,NA,NA,NA,NA,NA,NA,NA
"286","stim/objects/HouseObjects/ironingboard4.png",299,11,292,0.3,"stim/62.jpeg",6,2,2,1,"HouseObjects",2,2,"right","left",0.600000143,0,0,1,0,69,11,1,0.3,2,"stim/62.jpeg",6,2,"stim/62.jpeg",2,"right",0.755999804,4,1,2.682999849,2,2.002000093,69,0,0,NA,1,NA,1
"514","stim/objects/Instruments/musicstand3.png",300,11,293,0.9,"stim/22.jpeg",2,2,3,2,"Instruments",1,1,"left","left",0.60400033,1,1,1,0,NA,NA,NA,NA,NA,NA,NA,NA,NA,NA,NA,NA,NA,NA,NA,NA,NA,NA,NA,NA,NA,NA,NA,NA
"494","stim/objects/Instruments/musicsheet3.png",301,11,294,0.9,"stim/24.jpeg",2,4,3,2,"Instruments",1,1,"left","left",0.471000195,1,1,1,0,NA,NA,NA,NA,NA,NA,NA,NA,NA,NA,NA,NA,NA,NA,NA,NA,NA,NA,NA,NA,NA,NA,NA,NA
"448","stim/objects/Instruments/laud3.png",302,11,295,0.7,"stim/64.jpeg",6,4,2,2,"Instruments",1,1,"left","left",0.590000153,1,1,1,0,NA,NA,NA,NA,NA,NA,NA,NA,NA,NA,NA,NA,NA,NA,NA,NA,NA,NA,NA,NA,NA,NA,NA,NA
"447","stim/objects/Instruments/keyboard4.png",303,11,296,0.7,"stim/63.jpeg",6,3,2,1,"Instruments",1,2,"left","left",0.550000191,1,1,1,0,106,11,1,0.7,1,"stim/63.jpeg",6,3,"stim/63.jpeg",2,"right",0.691999912,2,1,1.610999823,3,1.505999804,106,0,0,NA,0,NA,1
"312","stim/objects/HouseObjects/lintroller3.png",304,11,297,0.9,"stim/12.jpeg",1,2,3,2,"HouseObjects",2,4,"right","right",0.520000219,1,1,1,0,NA,NA,NA,NA,NA,NA,NA,NA,NA,NA,NA,NA,NA,NA,NA,NA,NA,NA,NA,NA,NA,NA,NA,NA
"378","stim/objects/HouseObjects/remote3.png",305,11,298,0.5,"stim/33.jpeg",3,3,1,1,"HouseObjects",2,1,"right","left",0.569000244,0,0,1,0,28,11,1,0.5,1,"stim/33.jpeg",3,3,"stim/33.jpeg",1,"left",1.003000021,4,4,3.847999811,1,0.388000011,28,1,0,0,1,1,1
"361","stim/objects/HouseObjects/pitcher3.png",306,11,299,0.9,"stim/12.jpeg",1,2,3,2,"HouseObjects",2,2,"right","right",0.585999966,1,1,1,0,NA,NA,NA,NA,NA,NA,NA,NA,NA,NA,NA,NA,NA,NA,NA,NA,NA,NA,NA,NA,NA,NA,NA,NA
"474","stim/objects/Instruments/metronome3.png",307,11,300,0.9,"stim/24.jpeg",2,4,3,2,"Instruments",1,3,"left","left",0.531000137,1,1,1,0,NA,NA,NA,NA,NA,NA,NA,NA,NA,NA,NA,NA,NA,NA,NA,NA,NA,NA,NA,NA,NA,NA,NA,NA
"461","stim/objects/Instruments/marimba3.png",308,11,301,0.9,"stim/22.jpeg",2,2,3,2,"Instruments",1,3,"left","left",0.510000229,1,1,1,0,NA,NA,NA,NA,NA,NA,NA,NA,NA,NA,NA,NA,NA,NA,NA,NA,NA,NA,NA,NA,NA,NA,NA,NA
"388","stim/objects/HouseObjects/scale3.png",309,11,302,0.5,"stim/41.jpeg",4,1,1,1,"HouseObjects",2,3,"right","left",0.65500021,0,0,1,0,48,11,1,0.5,2,"stim/41.jpeg",4,1,"stim/41.jpeg",3,"left",1.562999964,4,1,3.001999855,3,1.157999992,48,1,1,1,1,1,1
"362","stim/objects/HouseObjects/pitcher3.png",310,11,303,0.9,"stim/13.jpeg",1,3,3,2,"HouseObjects",2,2,"right","right",0.429000139,1,1,1,0,NA,NA,NA,NA,NA,NA,NA,NA,NA,NA,NA,NA,NA,NA,NA,NA,NA,NA,NA,NA,NA,NA,NA,NA
"397","stim/objects/HouseObjects/thermometer4.png",311,11,304,0.1,"stim/24.jpeg",2,4,3,1,"HouseObjects",2,3,"right","left",0.489000082,0,0,1,0,54,11,1,0.1,2,"stim/24.jpeg",2,4,"stim/24.jpeg",3,"left",2.698999882,2,3,0.891999722,2,1.243000031,54,1,0,0,0,0,1
"462","stim/objects/Instruments/marimba3.png",312,11,305,0.9,"stim/24.jpeg",2,4,3,2,"Instruments",1,4,"left","right",0.433000088,0,0,1,0,NA,NA,NA,NA,NA,NA,NA,NA,NA,NA,NA,NA,NA,NA,NA,NA,NA,NA,NA,NA,NA,NA,NA,NA
"463","stim/objects/Instruments/marimba3.png",313,11,306,0.9,"stim/24.jpeg",2,4,3,2,"Instruments",1,1,"left","left",0.577000141,1,1,1,0,NA,NA,NA,NA,NA,NA,NA,NA,NA,NA,NA,NA,NA,NA,NA,NA,NA,NA,NA,NA,NA,NA,NA,NA
"391","stim/objects/HouseObjects/sponge4.png",314,11,307,0.1,"stim/21.jpeg",2,1,3,1,"HouseObjects",2,1,"right","left",0.504000187,0,0,1,0,100,11,1,0.1,2,"stim/21.jpeg",2,1,"stim/21.jpeg",1,"right",1.764999866,3,1,0.710000038,3,0.671999931,100,0,1,NA,0,NA,1
"477","stim/objects/Instruments/metronome3.png",315,11,308,0.9,"stim/22.jpeg",2,2,3,2,"Instruments",1,3,"left","left",0.644000053,1,1,1,0,NA,NA,NA,NA,NA,NA,NA,NA,NA,NA,NA,NA,NA,NA,NA,NA,NA,NA,NA,NA,NA,NA,NA,NA
"258","stim/objects/HouseObjects/blender4.png",316,11,309,0.3,"stim/62.jpeg",6,2,2,1,"HouseObjects",2,4,"right","left",0.59800005,0,0,1,0,99,11,1,0.3,2,"stim/62.jpeg",6,2,"stim/62.jpeg",4,"right",0.836999893,3,3,1.006999969,2,0.705999851,99,0,0,NA,0,NA,1
"363","stim/objects/HouseObjects/pitcher3.png",317,11,310,0.9,"stim/12.jpeg",1,2,3,2,"HouseObjects",2,4,"right","right",0.669000149,1,1,1,0,NA,NA,NA,NA,NA,NA,NA,NA,NA,NA,NA,NA,NA,NA,NA,NA,NA,NA,NA,NA,NA,NA,NA,NA
"279","stim/objects/HouseObjects/iron3.png",318,11,311,0.7,"stim/52.jpeg",5,2,2,2,"HouseObjects",2,4,"right","right",0.622000217,1,1,1,0,NA,NA,NA,NA,NA,NA,NA,NA,NA,NA,NA,NA,NA,NA,NA,NA,NA,NA,NA,NA,NA,NA,NA,NA
"278","stim/objects/HouseObjects/clothespin4.png",319,11,312,0.3,"stim/64.jpeg",6,4,2,1,"HouseObjects",2,2,"right","left",0.497000217,0,0,1,0,145,11,1,0.3,2,"stim/64.jpeg",6,4,"stim/64.jpeg",2,"left",2.819000006,2,3,1.32799983,2,1.275000095,145,1,0,0,1,1,1
"376","stim/objects/HouseObjects/recyclingbin3.png",320,11,313,0.5,"stim/32.jpeg",3,2,1,1,"HouseObjects",2,3,"right","left",0.465000153,0,0,1,0,185,11,1,0.5,1,"stim/32.jpeg",3,2,"stim/32.jpeg",3,"right",0.750999928,4,4,0.707000017,1,1.415999889,185,0,0,NA,0,NA,1
"464","stim/objects/Instruments/marimba3.png",321,11,314,0.9,"stim/21.jpeg",2,1,3,2,"Instruments",1,2,"left","left",0.503000259,1,1,1,0,NA,NA,NA,NA,NA,NA,NA,NA,NA,NA,NA,NA,NA,NA,NA,NA,NA,NA,NA,NA,NA,NA,NA,NA
"332","stim/objects/HouseObjects/match3.png",322,11,315,0.9,"stim/11.jpeg",1,1,3,2,"HouseObjects",2,2,"right","left",0.491000175,0,0,1,0,NA,NA,NA,NA,NA,NA,NA,NA,NA,NA,NA,NA,NA,NA,NA,NA,NA,NA,NA,NA,NA,NA,NA,NA
"515","stim/objects/Instruments/musicstand3.png",323,11,316,0.9,"stim/24.jpeg",2,4,3,2,"Instruments",1,4,"left","left",0.586000204,1,1,1,0,NA,NA,NA,NA,NA,NA,NA,NA,NA,NA,NA,NA,NA,NA,NA,NA,NA,NA,NA,NA,NA,NA,NA,NA
"452","stim/objects/Instruments/maraca3.png",324,11,317,0.7,"stim/62.jpeg",6,2,2,2,"Instruments",1,2,"left","left",0.586000204,1,1,1,0,NA,NA,NA,NA,NA,NA,NA,NA,NA,NA,NA,NA,NA,NA,NA,NA,NA,NA,NA,NA,NA,NA,NA,NA
"403","stim/objects/HouseObjects/vacuumcleaner4.png",325,11,318,0.1,"stim/23.jpeg",2,3,3,1,"HouseObjects",2,2,"right","left",0.532000065,0,0,1,0,119,11,1,0.1,2,"stim/23.jpeg",2,3,"stim/23.jpeg",2,"right",1.082999945,3,3,0.713999987,4,0.790999889,119,0,1,NA,0,NA,1
"333","stim/objects/HouseObjects/match3.png",326,11,319,0.9,"stim/13.jpeg",1,3,3,2,"HouseObjects",2,4,"right","right",0.555000067,1,1,1,0,NA,NA,NA,NA,NA,NA,NA,NA,NA,NA,NA,NA,NA,NA,NA,NA,NA,NA,NA,NA,NA,NA,NA,NA
"496","stim/objects/Instruments/musicsheet3.png",327,11,320,0.9,"stim/22.jpeg",2,2,3,2,"Instruments",1,2,"left","left",0.522000074,1,1,1,0,NA,NA,NA,NA,NA,NA,NA,NA,NA,NA,NA,NA,NA,NA,NA,NA,NA,NA,NA,NA,NA,NA,NA,NA
"267","stim/objects/HouseObjects/bucket4.png",328,11,321,0.3,"stim/61.jpeg",6,1,2,1,"HouseObjects",2,3,"right","left",0.561000109,0,0,1,0,12,11,1,0.3,2,"stim/61.jpeg",6,1,"stim/61.jpeg",3,"right",1.188999891,3,1,3.107999802,1,1.115999937,12,0,1,NA,0,NA,1
"314","stim/objects/HouseObjects/lintroller3.png",329,11,322,0.9,"stim/14.jpeg",1,4,3,2,"HouseObjects",2,3,"right","",NA,0,0,1,0,NA,NA,NA,NA,NA,NA,NA,NA,NA,NA,NA,NA,NA,NA,NA,NA,NA,NA,NA,NA,NA,NA,NA,NA
"455","stim/objects/Instruments/maraca4.png",330,11,323,0.7,"stim/61.jpeg",6,1,2,1,"Instruments",1,2,"left","left",0.570000172,1,1,1,0,68,11,1,0.7,1,"stim/61.jpeg",6,1,"stim/61.jpeg",2,"left",2.019999981,3,2,2.362999916,3,1.635999918,68,1,0,0,0,0,1
"364","stim/objects/HouseObjects/pitcher3.png",331,11,324,0.9,"stim/13.jpeg",1,3,3,2,"HouseObjects",2,1,"right","right",0.440000057,1,1,1,0,NA,NA,NA,NA,NA,NA,NA,NA,NA,NA,NA,NA,NA,NA,NA,NA,NA,NA,NA,NA,NA,NA,NA,NA
"425","stim/objects/Instruments/cello3.png",332,11,325,0.5,"stim/44.jpeg",4,4,1,2,"Instruments",1,1,"left","left",0.717000008,1,1,1,0,NA,NA,NA,NA,NA,NA,NA,NA,NA,NA,NA,NA,NA,NA,NA,NA,NA,NA,NA,NA,NA,NA,NA,NA
"544","stim/objects/Instruments/pipepiano4.png",333,11,326,0.1,"stim/13.jpeg",1,3,3,1,"Instruments",1,4,"left","right",0.52300024,0,0,1,0,23,11,1,0.1,1,"stim/13.jpeg",1,3,"stim/13.jpeg",4,"left",0.844000101,4,2,6.664000034,1,6.541999817,23,1,0,0,0,0,1
"389","stim/objects/HouseObjects/scale4.png",334,11,327,0.1,"stim/24.jpeg",2,4,3,1,"HouseObjects",2,1,"right","left",0.545000076,0,0,1,0,188,11,1,0.1,2,"stim/24.jpeg",2,4,"stim/24.jpeg",1,"right",0.737999916,4,4,0.760999918,4,0.690000057,188,0,1,NA,0,NA,1
"250","stim/objects/HouseObjects/basket3.png",335,11,328,0.5,"stim/34.jpeg",3,4,1,2,"HouseObjects",2,3,"right","left",0.550000191,0,0,1,0,NA,NA,NA,NA,NA,NA,NA,NA,NA,NA,NA,NA,NA,NA,NA,NA,NA,NA,NA,NA,NA,NA,NA,NA
"529","stim/objects/Instruments/oboe3.png",336,11,329,0.9,"stim/22.jpeg",2,2,3,2,"Instruments",1,1,"left","left",0.515000343,1,1,1,0,NA,NA,NA,NA,NA,NA,NA,NA,NA,NA,NA,NA,NA,NA,NA,NA,NA,NA,NA,NA,NA,NA,NA,NA
"297","stim/objects/HouseObjects/knife3.png",337,11,330,0.9,"stim/14.jpeg",1,4,3,2,"HouseObjects",2,2,"right","right",0.674000263,1,1,1,0,NA,NA,NA,NA,NA,NA,NA,NA,NA,NA,NA,NA,NA,NA,NA,NA,NA,NA,NA,NA,NA,NA,NA,NA
"341","stim/objects/HouseObjects/match4.png",338,11,331,0.9,"stim/11.jpeg",1,1,3,1,"HouseObjects",2,4,"right","right",0.443000078,1,1,1,0,154,11,1,0.9,2,"stim/11.jpeg",1,1,"stim/11.jpeg",4,"right",0.991999865,4,4,1.16899991,1,0.739999771,154,0,0,NA,0,NA,1
"395","stim/objects/HouseObjects/teapot4.png",339,11,332,0.1,"stim/23.jpeg",2,3,3,1,"HouseObjects",2,2,"right","left",0.483000278,0,0,1,0,87,11,1,0.1,2,"stim/23.jpeg",2,3,"stim/23.jpeg",2,"right",0.661000013,4,2,1.534999847,4,1.432999849,87,0,0,NA,0,NA,1
"427","stim/objects/Instruments/chime3.png",340,11,333,0.5,"stim/42.jpeg",4,2,1,2,"Instruments",1,2,"left","right",0.527000189,0,0,1,0,NA,NA,NA,NA,NA,NA,NA,NA,NA,NA,NA,NA,NA,NA,NA,NA,NA,NA,NA,NA,NA,NA,NA,NA
"419","stim/objects/Instruments/bassdrum3.png",341,11,334,0.5,"stim/31.jpeg",3,1,1,2,"Instruments",1,1,"left","left",0.619000196,1,1,1,0,NA,NA,NA,NA,NA,NA,NA,NA,NA,NA,NA,NA,NA,NA,NA,NA,NA,NA,NA,NA,NA,NA,NA,NA
"244","stim/objects/HouseObjects/ballofstring3.png",342,11,335,0.5,"stim/31.jpeg",3,1,1,2,"HouseObjects",2,2,"right","left",0.662000179,0,0,1,0,NA,NA,NA,NA,NA,NA,NA,NA,NA,NA,NA,NA,NA,NA,NA,NA,NA,NA,NA,NA,NA,NA,NA,NA
"365","stim/objects/HouseObjects/pitcher3.png",343,11,336,0.9,"stim/11.jpeg",1,1,3,2,"HouseObjects",2,1,"right","right",0.584000111,1,1,1,0,NA,NA,NA,NA,NA,NA,NA,NA,NA,NA,NA,NA,NA,NA,NA,NA,NA,NA,NA,NA,NA,NA,NA,NA
"288","stim/objects/HouseObjects/key3.png",344,11,337,0.7,"stim/53.jpeg",5,3,2,2,"HouseObjects",2,1,"right","right",0.559000254,1,1,1,0,NA,NA,NA,NA,NA,NA,NA,NA,NA,NA,NA,NA,NA,NA,NA,NA,NA,NA,NA,NA,NA,NA,NA,NA
"280","stim/objects/HouseObjects/iron3.png",345,11,338,0.7,"stim/53.jpeg",5,3,2,2,"HouseObjects",2,4,"right","right",0.491000175,1,1,1,0,NA,NA,NA,NA,NA,NA,NA,NA,NA,NA,NA,NA,NA,NA,NA,NA,NA,NA,NA,NA,NA,NA,NA,NA
"298","stim/objects/HouseObjects/knife3.png",346,11,339,0.9,"stim/14.jpeg",1,4,3,2,"HouseObjects",2,2,"right","right",0.60400033,1,1,1,0,NA,NA,NA,NA,NA,NA,NA,NA,NA,NA,NA,NA,NA,NA,NA,NA,NA,NA,NA,NA,NA,NA,NA,NA
"265","stim/objects/HouseObjects/bucket3.png",347,11,340,0.5,"stim/41.jpeg",4,1,1,2,"HouseObjects",2,3,"right","right",0.478000164,1,1,1,0,NA,NA,NA,NA,NA,NA,NA,NA,NA,NA,NA,NA,NA,NA,NA,NA,NA,NA,NA,NA,NA,NA,NA,NA
"497","stim/objects/Instruments/musicsheet3.png",348,11,341,0.9,"stim/21.jpeg",2,1,3,2,"Instruments",1,4,"left","left",0.626000166,1,1,1,0,NA,NA,NA,NA,NA,NA,NA,NA,NA,NA,NA,NA,NA,NA,NA,NA,NA,NA,NA,NA,NA,NA,NA,NA
"404","stim/objects/HouseObjects/wateringcan3.png",349,11,342,0.7,"stim/52.jpeg",5,2,2,1,"HouseObjects",2,4,"right","right",0.476000309,1,1,1,0,14,11,1,0.7,2,"stim/52.jpeg",5,2,"stim/52.jpeg",4,"right",0.890999794,3,3,2.525999784,4,1.034999847,14,0,0,NA,1,NA,1
"498","stim/objects/Instruments/musicsheet3.png",350,11,343,0.9,"stim/23.jpeg",2,3,3,2,"Instruments",1,1,"left","left",0.559000015,1,1,1,0,NA,NA,NA,NA,NA,NA,NA,NA,NA,NA,NA,NA,NA,NA,NA,NA,NA,NA,NA,NA,NA,NA,NA,NA
"390","stim/objects/HouseObjects/sponge3.png",351,11,344,0.5,"stim/42.jpeg",4,2,1,1,"HouseObjects",2,1,"right","right",0.53000021,1,1,1,0,93,11,1,0.5,2,"stim/42.jpeg",4,2,"stim/42.jpeg",1,"right",1.204999924,3,3,1.475999832,1,2.559999704,93,0,0,NA,1,NA,1
"453","stim/objects/Instruments/maraca3.png",352,11,345,0.7,"stim/61.jpeg",6,1,2,2,"Instruments",1,2,"left","left",0.528000355,1,1,1,0,NA,NA,NA,NA,NA,NA,NA,NA,NA,NA,NA,NA,NA,NA,NA,NA,NA,NA,NA,NA,NA,NA,NA,NA
"367","stim/objects/HouseObjects/pitcher3.png",353,11,346,0.9,"stim/12.jpeg",1,2,3,2,"HouseObjects",2,3,"right","right",0.496999979,1,1,1,0,NA,NA,NA,NA,NA,NA,NA,NA,NA,NA,NA,NA,NA,NA,NA,NA,NA,NA,NA,NA,NA,NA,NA,NA
"346","stim/objects/HouseObjects/pan3.png",354,11,347,0.9,"stim/12.jpeg",1,2,3,2,"HouseObjects",2,2,"right","right",0.632000208,1,1,1,0,NA,NA,NA,NA,NA,NA,NA,NA,NA,NA,NA,NA,NA,NA,NA,NA,NA,NA,NA,NA,NA,NA,NA,NA
"315","stim/objects/HouseObjects/lintroller3.png",355,11,348,0.9,"stim/14.jpeg",1,4,3,2,"HouseObjects",2,1,"right","right",0.624000072,1,1,1,0,NA,NA,NA,NA,NA,NA,NA,NA,NA,NA,NA,NA,NA,NA,NA,NA,NA,NA,NA,NA,NA,NA,NA,NA
"479","stim/objects/Instruments/metronome3.png",356,11,349,0.9,"stim/24.jpeg",2,4,3,2,"Instruments",1,3,"left","left",0.556000233,1,1,1,0,NA,NA,NA,NA,NA,NA,NA,NA,NA,NA,NA,NA,NA,NA,NA,NA,NA,NA,NA,NA,NA,NA,NA,NA
"335","stim/objects/HouseObjects/match3.png",357,11,350,0.9,"stim/12.jpeg",1,2,3,2,"HouseObjects",2,4,"right","right",0.550000191,1,1,1,0,NA,NA,NA,NA,NA,NA,NA,NA,NA,NA,NA,NA,NA,NA,NA,NA,NA,NA,NA,NA,NA,NA,NA,NA
"523","stim/objects/Instruments/musicstand4.png",358,11,351,0.1,"stim/14.jpeg",1,4,3,1,"Instruments",1,4,"left","right",0.503000259,0,0,1,0,200,11,1,0.1,1,"stim/14.jpeg",1,4,"stim/14.jpeg",4,"right",0.678999901,4,3,1.337999821,1,1.015999794,200,0,0,NA,0,NA,1
"396","stim/objects/HouseObjects/thermometer3.png",359,11,352,0.7,"stim/52.jpeg",5,2,2,1,"HouseObjects",2,3,"right","right",0.572000265,1,1,1,0,130,11,1,0.7,2,"stim/52.jpeg",5,2,"stim/52.jpeg",3,"right",0.769999981,4,4,0.890000105,1,1.018999815,130,0,0,NA,0,NA,1
"369","stim/objects/HouseObjects/pitcher3.png",360,11,353,0.9,"stim/13.jpeg",1,3,3,2,"HouseObjects",2,1,"right","right",0.526000023,1,1,1,0,NA,NA,NA,NA,NA,NA,NA,NA,NA,NA,NA,NA,NA,NA,NA,NA,NA,NA,NA,NA,NA,NA,NA,NA
"347","stim/objects/HouseObjects/pan3.png",361,11,354,0.9,"stim/11.jpeg",1,1,3,2,"HouseObjects",2,3,"right","right",0.516000271,1,1,1,0,NA,NA,NA,NA,NA,NA,NA,NA,NA,NA,NA,NA,NA,NA,NA,NA,NA,NA,NA,NA,NA,NA,NA,NA
"300","stim/objects/HouseObjects/knife3.png",362,11,355,0.9,"stim/13.jpeg",1,3,3,2,"HouseObjects",2,1,"right","right",0.408000231,1,1,1,0,NA,NA,NA,NA,NA,NA,NA,NA,NA,NA,NA,NA,NA,NA,NA,NA,NA,NA,NA,NA,NA,NA,NA,NA
"560","stim/objects/Instruments/trombone4.png",363,11,356,0.9,"stim/21.jpeg",2,1,3,1,"Instruments",1,2,"left","left",0.519000053,1,1,1,0,44,11,1,0.9,1,"stim/21.jpeg",2,1,"stim/21.jpeg",2,"right",0.927999973,3,3,1.708999872,2,1.524999857,44,0,0,NA,1,NA,1
"415","stim/objects/Instruments/banjo3.png",364,11,357,0.5,"stim/34.jpeg",3,4,1,2,"Instruments",1,4,"left","left",0.664000273,1,1,1,0,NA,NA,NA,NA,NA,NA,NA,NA,NA,NA,NA,NA,NA,NA,NA,NA,NA,NA,NA,NA,NA,NA,NA,NA
"273","stim/objects/HouseObjects/clothesdryingrack3.png",365,11,358,0.7,"stim/53.jpeg",5,3,2,2,"HouseObjects",2,1,"right","right",0.684000254,1,1,1,0,NA,NA,NA,NA,NA,NA,NA,NA,NA,NA,NA,NA,NA,NA,NA,NA,NA,NA,NA,NA,NA,NA,NA,NA
"562","stim/objects/Instruments/trumpet4.png",366,11,359,0.9,"stim/22.jpeg",2,2,3,1,"Instruments",1,1,"left","left",0.572999954,1,1,1,0,84,11,1,0.9,1,"stim/22.jpeg",2,2,"stim/22.jpeg",1,"right",0.707999706,4,1,1.549000025,2,1.102999926,84,0,0,NA,0,NA,1
"545","stim/objects/Instruments/record_player3.png",367,11,360,0.5,"stim/32.jpeg",3,2,1,1,"Instruments",1,3,"left","left",0.558000326,1,1,1,0,41,11,1,0.5,1,"stim/32.jpeg",3,2,"stim/32.jpeg",3,"right",1.216999769,3,2,1.421999931,3,0.707999945,41,0,1,NA,1,NA,1
"444","stim/objects/Instruments/keyboard3.png",368,11,361,0.7,"stim/63.jpeg",6,3,2,2,"Instruments",1,3,"left","left",0.555000067,1,1,1,0,NA,NA,NA,NA,NA,NA,NA,NA,NA,NA,NA,NA,NA,NA,NA,NA,NA,NA,NA,NA,NA,NA,NA,NA
"421","stim/objects/Instruments/bassguitar3.png",369,11,362,0.5,"stim/43.jpeg",4,3,1,2,"Instruments",1,1,"left","right",0.504000187,0,0,1,0,NA,NA,NA,NA,NA,NA,NA,NA,NA,NA,NA,NA,NA,NA,NA,NA,NA,NA,NA,NA,NA,NA,NA,NA
"454","stim/objects/Instruments/maraca3.png",370,11,363,0.7,"stim/63.jpeg",6,3,2,2,"Instruments",1,3,"left","left",0.517000198,1,1,1,0,NA,NA,NA,NA,NA,NA,NA,NA,NA,NA,NA,NA,NA,NA,NA,NA,NA,NA,NA,NA,NA,NA,NA,NA
"259","stim/objects/HouseObjects/bottle3.png",371,11,364,0.5,"stim/44.jpeg",4,4,1,2,"HouseObjects",2,1,"right","left",0.63499999,0,0,1,0,NA,NA,NA,NA,NA,NA,NA,NA,NA,NA,NA,NA,NA,NA,NA,NA,NA,NA,NA,NA,NA,NA,NA,NA
"387","stim/objects/HouseObjects/saw4.png",372,11,365,0.1,"stim/23.jpeg",2,3,3,1,"HouseObjects",2,3,"right","left",0.499000072,0,0,1,0,186,11,1,0.1,2,"stim/23.jpeg",2,3,"stim/23.jpeg",3,"right",0.941999912,4,2,1.22699976,3,1.003999949,186,0,0,NA,1,NA,1
"451","stim/objects/Instruments/laud4.png",373,11,366,0.7,"stim/64.jpeg",6,4,2,1,"Instruments",1,2,"left","left",0.58100009,1,1,1,0,72,11,1,0.7,1,"stim/64.jpeg",6,4,"stim/64.jpeg",2,"right",1.099999905,3,3,1.215999842,2,0.909999847,72,0,0,NA,1,NA,1
"326","stim/objects/HouseObjects/match3.png",374,11,367,0.9,"stim/11.jpeg",1,1,3,2,"HouseObjects",2,1,"right","right",0.500000238,1,1,1,0,NA,NA,NA,NA,NA,NA,NA,NA,NA,NA,NA,NA,NA,NA,NA,NA,NA,NA,NA,NA,NA,NA,NA,NA
"291","stim/objects/HouseObjects/knife3.png",375,11,368,0.9,"stim/13.jpeg",1,3,3,2,"HouseObjects",2,4,"right","right",0.462000132,1,1,1,0,NA,NA,NA,NA,NA,NA,NA,NA,NA,NA,NA,NA,NA,NA,NA,NA,NA,NA,NA,NA,NA,NA,NA,NA
"381","stim/objects/HouseObjects/rubbergloves4.png",376,11,369,0.9,"stim/12.jpeg",1,2,3,1,"HouseObjects",2,3,"right","right",0.582000017,1,1,1,0,117,11,1,0.9,2,"stim/12.jpeg",1,2,"stim/12.jpeg",3,"right",0.684999943,2,2,1.262000084,3,1.004999876,117,0,1,NA,1,NA,1
"327","stim/objects/HouseObjects/match3.png",377,11,370,0.9,"stim/13.jpeg",1,3,3,2,"HouseObjects",2,3,"right","right",0.54700017,1,1,1,0,NA,NA,NA,NA,NA,NA,NA,NA,NA,NA,NA,NA,NA,NA,NA,NA,NA,NA,NA,NA,NA,NA,NA,NA
"334","stim/objects/HouseObjects/match3.png",378,11,371,0.9,"stim/12.jpeg",1,2,3,2,"HouseObjects",2,4,"right","right",0.583000183,1,1,1,0,NA,NA,NA,NA,NA,NA,NA,NA,NA,NA,NA,NA,NA,NA,NA,NA,NA,NA,NA,NA,NA,NA,NA,NA
"430","stim/objects/Instruments/clarinet3.png",379,11,372,0.5,"stim/42.jpeg",4,2,1,2,"Instruments",1,4,"left","right",0.523000002,0,0,1,0,NA,NA,NA,NA,NA,NA,NA,NA,NA,NA,NA,NA,NA,NA,NA,NA,NA,NA,NA,NA,NA,NA,NA,NA
"532","stim/objects/Instruments/oboe3.png",380,11,373,0.9,"stim/21.jpeg",2,1,3,2,"Instruments",1,2,"left","left",0.601000071,1,1,1,0,NA,NA,NA,NA,NA,NA,NA,NA,NA,NA,NA,NA,NA,NA,NA,NA,NA,NA,NA,NA,NA,NA,NA,NA
"348","stim/objects/HouseObjects/pan3.png",381,11,374,0.9,"stim/12.jpeg",1,2,3,2,"HouseObjects",2,3,"right","right",0.554000139,1,1,1,0,NA,NA,NA,NA,NA,NA,NA,NA,NA,NA,NA,NA,NA,NA,NA,NA,NA,NA,NA,NA,NA,NA,NA,NA
"408","stim/objects/Instruments/accordion4.png",382,11,375,0.3,"stim/52.jpeg",5,2,2,1,"Instruments",1,1,"left","right",0.543000221,0,0,1,0,2,11,1,0.3,1,"stim/52.jpeg",5,2,"stim/52.jpeg",1,"left",1.110999823,4,3,5.256000042,1,2.161999941,2,1,0,0,1,1,1
"290","stim/objects/HouseObjects/key4.png",383,11,376,0.3,"stim/63.jpeg",6,3,2,1,"HouseObjects",2,4,"right","left",0.562000275,0,0,1,0,190,11,1,0.3,2,"stim/63.jpeg",6,3,"stim/63.jpeg",4,"left",3.06099987,3,2,0.750999928,1,1.378999949,190,1,0,0,0,0,1
"570","stim/objects/Instruments/xylophone4.png",384,11,377,0.9,"stim/22.jpeg",2,2,3,1,"Instruments",1,4,"left","left",0.548000097,1,1,1,0,115,11,1,0.9,1,"stim/22.jpeg",2,2,"stim/22.jpeg",4,"right",0.93599987,4,1,0.769000053,1,1.087999821,115,0,0,NA,0,NA,1
"533","stim/objects/Instruments/oboe3.png",385,11,378,0.9,"stim/24.jpeg",2,4,3,2,"Instruments",1,2,"left","left",0.524000168,1,1,1,0,NA,NA,NA,NA,NA,NA,NA,NA,NA,NA,NA,NA,NA,NA,NA,NA,NA,NA,NA,NA,NA,NA,NA,NA
"466","stim/objects/Instruments/marimba3.png",386,11,379,0.9,"stim/22.jpeg",2,2,3,2,"Instruments",1,4,"left","right",0.502000093,0,0,1,0,NA,NA,NA,NA,NA,NA,NA,NA,NA,NA,NA,NA,NA,NA,NA,NA,NA,NA,NA,NA,NA,NA,NA,NA
"457","stim/objects/Instruments/marimba3.png",387,11,380,0.9,"stim/21.jpeg",2,1,3,2,"Instruments",1,2,"left","left",0.548000336,1,1,1,0,NA,NA,NA,NA,NA,NA,NA,NA,NA,NA,NA,NA,NA,NA,NA,NA,NA,NA,NA,NA,NA,NA,NA,NA
"252","stim/objects/HouseObjects/basket4.png",388,11,381,0.7,"stim/52.jpeg",5,2,2,1,"HouseObjects",2,2,"right","right",0.5400002,1,1,1,0,113,11,1,0.7,2,"stim/52.jpeg",5,2,"stim/52.jpeg",2,"left",0.953999996,4,4,2.277999878,2,1.676999807,113,1,0,0,1,1,1
"443","stim/objects/Instruments/doublebass4.png",389,11,382,0.7,"stim/62.jpeg",6,2,2,1,"Instruments",1,3,"left","left",0.502000332,1,1,1,0,89,11,1,0.7,1,"stim/62.jpeg",6,2,"stim/62.jpeg",3,"left",1.36500001,3,3,4.569999933,3,1.250999928,89,1,0,0,1,1,1
"534","stim/objects/Instruments/oboe3.png",390,11,383,0.9,"stim/23.jpeg",2,3,3,2,"Instruments",1,4,"left","left",0.567000151,1,1,1,0,NA,NA,NA,NA,NA,NA,NA,NA,NA,NA,NA,NA,NA,NA,NA,NA,NA,NA,NA,NA,NA,NA,NA,NA
"307","stim/objects/HouseObjects/knife4.png",391,11,384,0.9,"stim/13.jpeg",1,3,3,1,"HouseObjects",2,1,"right","right",0.612000227,1,1,1,0,134,11,1,0.9,2,"stim/13.jpeg",1,3,"stim/13.jpeg",1,"left",1.207999945,4,3,2.256999969,3,1.66899991,134,1,1,1,0,0,1
"358","stim/objects/HouseObjects/pan4.png",392,11,385,0.9,"stim/12.jpeg",1,2,3,1,"HouseObjects",2,4,"right","right",0.608000278,1,1,1,0,64,11,1,0.9,2,"stim/12.jpeg",1,2,"stim/12.jpeg",4,"right",0.868999958,3,3,1.190999985,4,1.405999899,64,0,0,NA,1,NA,1
"535","stim/objects/Instruments/oboe3.png",393,11,386,0.9,"stim/24.jpeg",2,4,3,2,"Instruments",1,3,"left","left",0.534000158,1,1,1,0,NA,NA,NA,NA,NA,NA,NA,NA,NA,NA,NA,NA,NA,NA,NA,NA,NA,NA,NA,NA,NA,NA,NA,NA
"436","stim/objects/Instruments/cymbal3.png",394,11,387,0.7,"stim/62.jpeg",6,2,2,2,"Instruments",1,1,"left","left",0.587000132,1,1,1,0,NA,NA,NA,NA,NA,NA,NA,NA,NA,NA,NA,NA,NA,NA,NA,NA,NA,NA,NA,NA,NA,NA,NA,NA
"414","stim/objects/Instruments/balalaika4.png",395,11,388,0.3,"stim/54.jpeg",5,4,2,1,"Instruments",1,1,"left","right",0.523000002,0,0,1,0,43,11,1,0.3,1,"stim/54.jpeg",5,4,"stim/54.jpeg",1,"left",1.397000074,2,3,1.654999733,3,3.116999865,43,1,0,0,0,0,1
"557","stim/objects/Instruments/triangle3.png",396,11,389,0.5,"stim/44.jpeg",4,4,1,1,"Instruments",1,3,"left","left",0.695000172,1,1,1,0,53,11,1,0.5,2,"stim/44.jpeg",4,4,"stim/44.jpeg",3,"right",1.861000061,3,3,1.078999996,2,1.201999903,53,0,0,NA,0,NA,1
"459","stim/objects/Instruments/marimba3.png",397,11,390,0.9,"stim/23.jpeg",2,3,3,2,"Instruments",1,4,"left","left",0.553000212,1,1,1,0,NA,NA,NA,NA,NA,NA,NA,NA,NA,NA,NA,NA,NA,NA,NA,NA,NA,NA,NA,NA,NA,NA,NA,NA
"525","stim/objects/Instruments/oboe3.png",398,11,391,0.9,"stim/23.jpeg",2,3,3,2,"Instruments",1,4,"left","left",0.613000154,1,1,1,0,NA,NA,NA,NA,NA,NA,NA,NA,NA,NA,NA,NA,NA,NA,NA,NA,NA,NA,NA,NA,NA,NA,NA,NA
"411","stim/objects/Instruments/acousticguitar4.png",399,11,392,0.3,"stim/53.jpeg",5,3,2,1,"Instruments",1,2,"left","right",0.563000202,0,0,1,0,128,11,1,0.3,1,"stim/53.jpeg",5,3,"stim/53.jpeg",2,"right",0.805999994,3,2,1.14199996,3,1.052000046,128,0,0,NA,0,NA,1
"271","stim/objects/HouseObjects/clothesdryingrack3.png",400,11,393,0.7,"stim/54.jpeg",5,4,2,2,"HouseObjects",2,3,"right","right",0.561000109,1,1,1,0,NA,NA,NA,NA,NA,NA,NA,NA,NA,NA,NA,NA,NA,NA,NA,NA,NA,NA,NA,NA,NA,NA,NA,NA
"541","stim/objects/Instruments/panflute3.png",401,11,394,0.5,"stim/33.jpeg",3,3,1,1,"Instruments",1,2,"left","left",0.569000244,1,1,1,0,4,11,1,0.5,1,"stim/33.jpeg",3,3,"stim/33.jpeg",2,"right",1.215999842,3,4,5.868999958,2,2.250999928,4,0,0,NA,1,NA,1
"540","stim/objects/Instruments/oboe4.png",402,11,395,0.1,"stim/11.jpeg",1,1,3,1,"Instruments",1,3,"left","right",0.555000067,0,0,1,0,98,11,1,0.1,1,"stim/11.jpeg",1,1,"stim/11.jpeg",3,"right",0.950999975,3,3,1.233999729,2,1.54399991,98,0,0,NA,0,NA,1
"351","stim/objects/HouseObjects/pan3.png",403,11,396,0.9,"stim/14.jpeg",1,4,3,2,"HouseObjects",2,4,"right","right",0.620000124,1,1,1,0,NA,NA,NA,NA,NA,NA,NA,NA,NA,NA,NA,NA,NA,NA,NA,NA,NA,NA,NA,NA,NA,NA,NA,NA
"493","stim/objects/Instruments/musicsheet3.png",404,11,397,0.9,"stim/22.jpeg",2,2,3,2,"Instruments",1,2,"left","left",0.511000156,1,1,1,0,NA,NA,NA,NA,NA,NA,NA,NA,NA,NA,NA,NA,NA,NA,NA,NA,NA,NA,NA,NA,NA,NA,NA,NA
"305","stim/objects/HouseObjects/knife3.png",405,11,398,0.9,"stim/12.jpeg",1,2,3,2,"HouseObjects",2,3,"right","right",0.49000001,1,1,1,0,NA,NA,NA,NA,NA,NA,NA,NA,NA,NA,NA,NA,NA,NA,NA,NA,NA,NA,NA,NA,NA,NA,NA,NA
"499","stim/objects/Instruments/musicsheet3.png",406,11,399,0.9,"stim/23.jpeg",2,3,3,2,"Instruments",1,4,"left","left",0.533000231,1,1,1,0,NA,NA,NA,NA,NA,NA,NA,NA,NA,NA,NA,NA,NA,NA,NA,NA,NA,NA,NA,NA,NA,NA,NA,NA
"542","stim/objects/Instruments/panflute4.png",407,11,400,0.1,"stim/12.jpeg",1,2,3,1,"Instruments",1,1,"left","right",0.546000242,0,0,1,0,49,11,1,0.1,1,"stim/12.jpeg",1,2,"stim/12.jpeg",1,"right",0.955999851,4,3,1.539000034,2,1.91899991,49,0,0,NA,0,NA,1
"272","stim/objects/HouseObjects/clothesdryingrack3.png",408,11,401,0.7,"stim/51.jpeg",5,1,2,2,"HouseObjects",2,1,"right","right",0.583000183,1,1,1,0,NA,NA,NA,NA,NA,NA,NA,NA,NA,NA,NA,NA,NA,NA,NA,NA,NA,NA,NA,NA,NA,NA,NA,NA
"476","stim/objects/Instruments/metronome3.png",409,11,402,0.9,"stim/23.jpeg",2,3,3,2,"Instruments",1,2,"left","left",0.572000027,1,1,1,0,NA,NA,NA,NA,NA,NA,NA,NA,NA,NA,NA,NA,NA,NA,NA,NA,NA,NA,NA,NA,NA,NA,NA,NA
"434","stim/objects/Instruments/cornet3.png",410,11,403,0.5,"stim/43.jpeg",4,3,1,2,"Instruments",1,1,"left","left",0.676000118,1,1,1,0,NA,NA,NA,NA,NA,NA,NA,NA,NA,NA,NA,NA,NA,NA,NA,NA,NA,NA,NA,NA,NA,NA,NA,NA
"370","stim/objects/HouseObjects/pitcher3.png",411,11,404,0.9,"stim/13.jpeg",1,3,3,2,"HouseObjects",2,4,"right","right",0.424999952,1,1,1,0,NA,NA,NA,NA,NA,NA,NA,NA,NA,NA,NA,NA,NA,NA,NA,NA,NA,NA,NA,NA,NA,NA,NA,NA
"371","stim/objects/HouseObjects/pitcher3.png",412,11,405,0.9,"stim/12.jpeg",1,2,3,2,"HouseObjects",2,3,"right","right",0.521000147,1,1,1,0,NA,NA,NA,NA,NA,NA,NA,NA,NA,NA,NA,NA,NA,NA,NA,NA,NA,NA,NA,NA,NA,NA,NA,NA
"257","stim/objects/HouseObjects/blender3.png",413,11,406,0.5,"stim/43.jpeg",4,3,1,2,"HouseObjects",2,4,"right","right",0.475000143,1,1,1,0,NA,NA,NA,NA,NA,NA,NA,NA,NA,NA,NA,NA,NA,NA,NA,NA,NA,NA,NA,NA,NA,NA,NA,NA
"317","stim/objects/HouseObjects/lintroller3.png",414,11,407,0.9,"stim/11.jpeg",1,1,3,2,"HouseObjects",2,1,"right","right",0.545000315,1,1,1,0,NA,NA,NA,NA,NA,NA,NA,NA,NA,NA,NA,NA,NA,NA,NA,NA,NA,NA,NA,NA,NA,NA,NA,NA
"567","stim/objects/Instruments/vuvuzela3.png",415,11,408,0.3,"stim/54.jpeg",5,4,2,1,"Instruments",1,4,"left","right",0.487000227,0,0,1,0,76,11,1,0.3,1,"stim/54.jpeg",5,4,"stim/54.jpeg",4,"left",1.909999847,4,4,3.766000032,4,1.214999914,76,1,1,1,1,1,1
"553","stim/objects/Instruments/tambourine3.png",416,11,409,0.5,"stim/42.jpeg",4,2,1,1,"Instruments",1,3,"left","left",0.690000057,1,1,1,0,161,11,1,0.5,2,"stim/42.jpeg",4,2,"stim/42.jpeg",3,"right",0.875999928,3,4,0.967999935,1,0.707000017,161,0,0,NA,0,NA,1
"484","stim/objects/Instruments/metronome3.png",417,11,410,0.9,"stim/21.jpeg",2,1,3,2,"Instruments",1,1,"left","left",0.569000244,1,1,1,0,NA,NA,NA,NA,NA,NA,NA,NA,NA,NA,NA,NA,NA,NA,NA,NA,NA,NA,NA,NA,NA,NA,NA,NA
"530","stim/objects/Instruments/oboe3.png",418,11,411,0.9,"stim/21.jpeg",2,1,3,2,"Instruments",1,3,"left","left",0.537000179,1,1,1,0,NA,NA,NA,NA,NA,NA,NA,NA,NA,NA,NA,NA,NA,NA,NA,NA,NA,NA,NA,NA,NA,NA,NA,NA
"568","stim/objects/Instruments/vuvuzela4.png",419,11,412,0.9,"stim/21.jpeg",2,1,3,1,"Instruments",1,1,"left","left",0.488000154,1,1,1,0,40,11,1,0.9,1,"stim/21.jpeg",2,1,"stim/21.jpeg",1,"left",1.309000015,4,1,2.697000027,1,0.488999844,40,1,1,1,1,1,1
"551","stim/objects/Instruments/speaker3.png",420,11,413,0.5,"stim/41.jpeg",4,1,1,1,"Instruments",1,4,"left","right",0.471000195,0,0,1,0,157,11,1,0.5,2,"stim/41.jpeg",4,1,"stim/41.jpeg",4,"right",0.819000006,4,4,0.963999987,2,1.117000103,157,0,0,NA,0,NA,1
"501","stim/objects/Instruments/musicsheet3.png",421,11,414,0.9,"stim/24.jpeg",2,4,3,2,"Instruments",1,2,"left","left",0.452000141,1,1,1,0,NA,NA,NA,NA,NA,NA,NA,NA,NA,NA,NA,NA,NA,NA,NA,NA,NA,NA,NA,NA,NA,NA,NA,NA
"246","stim/objects/HouseObjects/ballofstring4.png",422,11,415,0.7,"stim/54.jpeg",5,4,2,1,"HouseObjects",2,3,"right","right",0.522000074,1,1,1,0,160,11,1,0.7,2,"stim/54.jpeg",5,4,"stim/54.jpeg",3,"left",1.31099987,3,4,3.298999786,1,0.526000023,160,1,1,1,0,0,1
"281","stim/objects/HouseObjects/iron3.png",423,11,416,0.7,"stim/51.jpeg",5,1,2,2,"HouseObjects",2,1,"right","right",0.465000153,1,1,1,0,NA,NA,NA,NA,NA,NA,NA,NA,NA,NA,NA,NA,NA,NA,NA,NA,NA,NA,NA,NA,NA,NA,NA,NA
"345","stim/objects/HouseObjects/pan3.png",424,11,417,0.9,"stim/13.jpeg",1,3,3,2,"HouseObjects",2,4,"right","right",0.495000124,1,1,1,0,NA,NA,NA,NA,NA,NA,NA,NA,NA,NA,NA,NA,NA,NA,NA,NA,NA,NA,NA,NA,NA,NA,NA,NA
"355","stim/objects/HouseObjects/pan3.png",425,11,418,0.9,"stim/13.jpeg",1,3,3,2,"HouseObjects",2,1,"right","right",0.565000296,1,1,1,0,NA,NA,NA,NA,NA,NA,NA,NA,NA,NA,NA,NA,NA,NA,NA,NA,NA,NA,NA,NA,NA,NA,NA,NA
"392","stim/objects/HouseObjects/spraybottle3.png",426,11,419,0.5,"stim/43.jpeg",4,3,1,1,"HouseObjects",2,4,"right","right",0.529000282,1,1,1,0,182,11,1,0.5,2,"stim/43.jpeg",4,3,"stim/43.jpeg",4,"right",0.944000006,2,3,1.155999899,3,0.909999847,182,0,1,NA,0,NA,1
"409","stim/objects/Instruments/acousticguitar3.png",427,11,420,0.5,"stim/32.jpeg",3,2,1,2,"Instruments",1,3,"left","left",0.549000263,1,1,1,0,NA,NA,NA,NA,NA,NA,NA,NA,NA,NA,NA,NA,NA,NA,NA,NA,NA,NA,NA,NA,NA,NA,NA,NA
"472","stim/objects/Instruments/marimba4.png",428,11,421,0.1,"stim/11.jpeg",1,1,3,1,"Instruments",1,4,"left","right",0.439000368,0,0,1,0,56,11,1,0.1,1,"stim/11.jpeg",1,1,"stim/11.jpeg",4,"right",1.096999884,3,3,0.749000072,2,0.782999992,56,0,0,NA,0,NA,1
"435","stim/objects/Instruments/cornet4.png",429,11,422,0.7,"stim/64.jpeg",6,4,2,1,"Instruments",1,3,"left","left",0.561000109,1,1,1,0,146,11,1,0.7,1,"stim/64.jpeg",6,4,"stim/64.jpeg",3,"right",0.893999815,4,4,1.022000074,1,1.96999979,146,0,1,NA,0,NA,1
"313","stim/objects/HouseObjects/lintroller3.png",430,11,423,0.9,"stim/12.jpeg",1,2,3,2,"HouseObjects",2,4,"right","right",0.522000313,1,1,1,0,NA,NA,NA,NA,NA,NA,NA,NA,NA,NA,NA,NA,NA,NA,NA,NA,NA,NA,NA,NA,NA,NA,NA,NA
"559","stim/objects/Instruments/trombone3.png",431,11,424,0.5,"stim/41.jpeg",4,1,1,1,"Instruments",1,1,"left","left",0.667000294,1,1,1,0,45,11,1,0.5,2,"stim/41.jpeg",4,1,"stim/41.jpeg",1,"right",2.157999754,3,3,1.503000021,1,1.579999924,45,0,0,NA,1,NA,1
"296","stim/objects/HouseObjects/knife3.png",432,11,425,0.9,"stim/11.jpeg",1,1,3,2,"HouseObjects",2,1,"right","right",0.520000219,1,1,1,0,NA,NA,NA,NA,NA,NA,NA,NA,NA,NA,NA,NA,NA,NA,NA,NA,NA,NA,NA,NA,NA,NA,NA,NA
"426","stim/objects/Instruments/cello4.png",433,11,426,0.7,"stim/61.jpeg",6,1,2,1,"Instruments",1,4,"left","right",0.440999985,0,0,1,0,10,11,1,0.7,1,"stim/61.jpeg",6,1,"stim/61.jpeg",4,"left",0.957999945,4,3,6.814999819,4,0.997999907,10,1,0,0,1,1,1
"470","stim/objects/Instruments/marimba3.png",434,11,427,0.9,"stim/24.jpeg",2,4,3,2,"Instruments",1,4,"left","left",0.600000143,1,1,1,0,NA,NA,NA,NA,NA,NA,NA,NA,NA,NA,NA,NA,NA,NA,NA,NA,NA,NA,NA,NA,NA,NA,NA,NA
"330","stim/objects/HouseObjects/match3.png",435,11,428,0.9,"stim/14.jpeg",1,4,3,2,"HouseObjects",2,3,"right","right",0.49600029,1,1,1,0,NA,NA,NA,NA,NA,NA,NA,NA,NA,NA,NA,NA,NA,NA,NA,NA,NA,NA,NA,NA,NA,NA,NA,NA
"503","stim/objects/Instruments/musicsheet3.png",436,11,429,0.9,"stim/22.jpeg",2,2,3,2,"Instruments",1,4,"left","left",0.619000196,1,1,1,0,NA,NA,NA,NA,NA,NA,NA,NA,NA,NA,NA,NA,NA,NA,NA,NA,NA,NA,NA,NA,NA,NA,NA,NA
"548","stim/objects/Instruments/record4.png",437,11,430,0.1,"stim/14.jpeg",1,4,3,1,"Instruments",1,1,"left","right",0.537000179,0,0,1,0,196,11,1,0.1,1,"stim/14.jpeg",1,4,"stim/14.jpeg",1,"right",1.400999784,2,3,0.756999731,1,0.614000082,196,0,0,NA,1,NA,1
"382","stim/objects/HouseObjects/rug3.png",438,11,431,0.5,"stim/31.jpeg",3,1,1,1,"HouseObjects",2,4,"right","left",0.637000084,0,0,1,0,60,11,1,0.5,1,"stim/31.jpeg",3,1,"stim/31.jpeg",4,"right",0.917000055,3,2,1.483999968,2,1.15199995,60,0,0,NA,0,NA,1
"320","stim/objects/HouseObjects/lintroller3.png",439,11,432,0.9,"stim/13.jpeg",1,3,3,2,"HouseObjects",2,2,"right","right",0.618000269,1,1,1,0,NA,NA,NA,NA,NA,NA,NA,NA,NA,NA,NA,NA,NA,NA,NA,NA,NA,NA,NA,NA,NA,NA,NA,NA
"558","stim/objects/Instruments/triangle4.png",440,11,433,0.9,"stim/24.jpeg",2,4,3,1,"Instruments",1,3,"left","left",0.501000166,1,1,1,0,149,11,1,0.9,1,"stim/24.jpeg",2,4,"stim/24.jpeg",3,"left",1.187000036,4,1,3.60800004,1,2.588999987,149,1,0,0,0,0,1
"478","stim/objects/Instruments/metronome3.png",441,11,434,0.9,"stim/22.jpeg",2,2,3,2,"Instruments",1,2,"left","left",0.497000217,1,1,1,0,NA,NA,NA,NA,NA,NA,NA,NA,NA,NA,NA,NA,NA,NA,NA,NA,NA,NA,NA,NA,NA,NA,NA,NA
"482","stim/objects/Instruments/metronome3.png",442,11,435,0.9,"stim/21.jpeg",2,1,3,2,"Instruments",1,3,"left","left",0.487000227,1,1,1,0,NA,NA,NA,NA,NA,NA,NA,NA,NA,NA,NA,NA,NA,NA,NA,NA,NA,NA,NA,NA,NA,NA,NA,NA
"337","stim/objects/HouseObjects/match3.png",443,11,436,0.9,"stim/12.jpeg",1,2,3,2,"HouseObjects",2,4,"right","right",0.63499999,1,1,1,0,NA,NA,NA,NA,NA,NA,NA,NA,NA,NA,NA,NA,NA,NA,NA,NA,NA,NA,NA,NA,NA,NA,NA,NA
"276","stim/objects/HouseObjects/clothespin3.png",444,11,437,0.7,"stim/51.jpeg",5,1,2,2,"HouseObjects",2,2,"right","right",0.51300025,1,1,1,0,NA,NA,NA,NA,NA,NA,NA,NA,NA,NA,NA,NA,NA,NA,NA,NA,NA,NA,NA,NA,NA,NA,NA,NA
"469","stim/objects/Instruments/marimba3.png",445,11,438,0.9,"stim/21.jpeg",2,1,3,2,"Instruments",1,3,"left","left",0.559000254,1,1,1,0,NA,NA,NA,NA,NA,NA,NA,NA,NA,NA,NA,NA,NA,NA,NA,NA,NA,NA,NA,NA,NA,NA,NA,NA
"247","stim/objects/HouseObjects/barbecuelighter3.png",446,11,439,0.5,"stim/32.jpeg",3,2,1,2,"HouseObjects",2,2,"right","left",0.663000107,0,0,1,0,NA,NA,NA,NA,NA,NA,NA,NA,NA,NA,NA,NA,NA,NA,NA,NA,NA,NA,NA,NA,NA,NA,NA,NA
"277","stim/objects/HouseObjects/clothespin3.png",447,11,440,0.7,"stim/52.jpeg",5,2,2,2,"HouseObjects",2,3,"right","right",0.567000151,1,1,1,0,NA,NA,NA,NA,NA,NA,NA,NA,NA,NA,NA,NA,NA,NA,NA,NA,NA,NA,NA,NA,NA,NA,NA,NA
"322","stim/objects/HouseObjects/lintroller3.png",448,11,441,0.9,"stim/14.jpeg",1,4,3,2,"HouseObjects",2,3,"right","right",0.511000156,1,1,1,0,NA,NA,NA,NA,NA,NA,NA,NA,NA,NA,NA,NA,NA,NA,NA,NA,NA,NA,NA,NA,NA,NA,NA,NA
"563","stim/objects/Instruments/tuba3.png",449,11,442,0.3,"stim/52.jpeg",5,2,2,1,"Instruments",1,1,"left","right",0.801000118,0,0,1,0,129,11,1,0.3,1,"stim/52.jpeg",5,2,"stim/52.jpeg",1,"right",1.671000004,3,2,0.836999893,3,0.553999901,129,0,1,NA,0,NA,1
"275","stim/objects/HouseObjects/clothespin3.png",450,11,443,0.7,"stim/54.jpeg",5,4,2,2,"HouseObjects",2,2,"right","right",0.620000124,1,1,1,0,NA,NA,NA,NA,NA,NA,NA,NA,NA,NA,NA,NA,NA,NA,NA,NA,NA,NA,NA,NA,NA,NA,NA,NA
"417","stim/objects/Instruments/banjo4.png",451,11,444,0.3,"stim/51.jpeg",5,1,2,1,"Instruments",1,1,"left","right",0.525000095,0,0,1,0,75,11,1,0.3,1,"stim/51.jpeg",5,1,"stim/51.jpeg",1,"right",0.845999956,3,3,0.780999899,1,1.428999901,75,0,0,NA,1,NA,1
"372","stim/objects/HouseObjects/pitcher3.png",452,11,445,0.9,"stim/11.jpeg",1,1,3,2,"HouseObjects",2,4,"right","right",0.660000324,1,1,1,0,NA,NA,NA,NA,NA,NA,NA,NA,NA,NA,NA,NA,NA,NA,NA,NA,NA,NA,NA,NA,NA,NA,NA,NA
"432","stim/objects/Instruments/clarinet4.png",453,11,446,0.7,"stim/63.jpeg",6,3,2,1,"Instruments",1,3,"left","left",0.614000082,1,1,1,0,66,11,1,0.7,1,"stim/63.jpeg",6,3,"stim/63.jpeg",3,"left",1.034999847,3,2,1.289999962,3,1.14199996,66,1,0,0,1,1,1
"413","stim/objects/Instruments/balalaika3.png",454,11,447,0.5,"stim/33.jpeg",3,3,1,2,"Instruments",1,2,"left","left",0.549000025,1,1,1,0,NA,NA,NA,NA,NA,NA,NA,NA,NA,NA,NA,NA,NA,NA,NA,NA,NA,NA,NA,NA,NA,NA,NA,NA
"283","stim/objects/HouseObjects/ironingboard3.png",455,11,448,0.7,"stim/53.jpeg",5,3,2,2,"HouseObjects",2,1,"right","right",0.576000214,1,1,1,0,NA,NA,NA,NA,NA,NA,NA,NA,NA,NA,NA,NA,NA,NA,NA,NA,NA,NA,NA,NA,NA,NA,NA,NA
"521","stim/objects/Instruments/musicstand3.png",456,11,449,0.9,"stim/22.jpeg",2,2,3,2,"Instruments",1,3,"left","left",0.552000284,1,1,1,0,NA,NA,NA,NA,NA,NA,NA,NA,NA,NA,NA,NA,NA,NA,NA,NA,NA,NA,NA,NA,NA,NA,NA,NA
"254","stim/objects/HouseObjects/bleachbottle3.png",457,11,450,0.5,"stim/34.jpeg",3,4,1,2,"HouseObjects",2,1,"right","left",0.70600009,0,0,1,0,NA,NA,NA,NA,NA,NA,NA,NA,NA,NA,NA,NA,NA,NA,NA,NA,NA,NA,NA,NA,NA,NA,NA,NA
"319","stim/objects/HouseObjects/lintroller3.png",458,11,451,0.9,"stim/13.jpeg",1,3,3,2,"HouseObjects",2,4,"right","right",0.538000345,1,1,1,0,NA,NA,NA,NA,NA,NA,NA,NA,NA,NA,NA,NA,NA,NA,NA,NA,NA,NA,NA,NA,NA,NA,NA,NA
"401","stim/objects/HouseObjects/towel4.png",459,11,452,0.1,"stim/22.jpeg",2,2,3,1,"HouseObjects",2,3,"right","left",0.436000347,0,0,1,0,150,11,1,0.1,2,"stim/22.jpeg",2,2,"stim/22.jpeg",3,"right",1.028999805,2,3,1.064999819,2,0.674999952,150,0,0,NA,0,NA,1
"527","stim/objects/Instruments/oboe3.png",460,11,453,0.9,"stim/23.jpeg",2,3,3,2,"Instruments",1,2,"left","left",0.571000099,1,1,1,0,NA,NA,NA,NA,NA,NA,NA,NA,NA,NA,NA,NA,NA,NA,NA,NA,NA,NA,NA,NA,NA,NA,NA,NA
"556","stim/objects/Instruments/timbal4.png",461,11,454,0.9,"stim/23.jpeg",2,3,3,1,"Instruments",1,2,"left","left",0.459000111,1,1,1,0,137,11,1,0.9,1,"stim/23.jpeg",2,3,"stim/23.jpeg",2,"right",0.572999954,4,2,2.306999922,2,0.999000072,137,0,0,NA,1,NA,1
"336","stim/objects/HouseObjects/match3.png",462,11,455,0.9,"stim/11.jpeg",1,1,3,2,"HouseObjects",2,2,"right","right",0.629000187,1,1,1,0,NA,NA,NA,NA,NA,NA,NA,NA,NA,NA,NA,NA,NA,NA,NA,NA,NA,NA,NA,NA,NA,NA,NA,NA
"431","stim/objects/Instruments/clarinet3.png",463,11,456,0.5,"stim/43.jpeg",4,3,1,2,"Instruments",1,4,"left","left",0.674000025,1,1,1,0,NA,NA,NA,NA,NA,NA,NA,NA,NA,NA,NA,NA,NA,NA,NA,NA,NA,NA,NA,NA,NA,NA,NA,NA
"354","stim/objects/HouseObjects/pan3.png",464,11,457,0.9,"stim/11.jpeg",1,1,3,2,"HouseObjects",2,1,"right","right",0.588000298,1,1,1,0,NA,NA,NA,NA,NA,NA,NA,NA,NA,NA,NA,NA,NA,NA,NA,NA,NA,NA,NA,NA,NA,NA,NA,NA
"539","stim/objects/Instruments/oboe3.png",465,11,458,0.9,"stim/24.jpeg",2,4,3,2,"Instruments",1,3,"left","left",0.479000092,1,1,1,0,NA,NA,NA,NA,NA,NA,NA,NA,NA,NA,NA,NA,NA,NA,NA,NA,NA,NA,NA,NA,NA,NA,NA,NA
