"","obj_file","X.x","participant.x","trialN.x","trial_cond","scn_file.x","scn_cat","scn_inst","scn_condition","fillers","obj_cat","obj_cat_num","quadrant","corr_ans","key_resp_trial.keys","key_resp_trial.rt","trial_acc","trial_acc_manual","group.x","practice","X.y","participant.y","OvsN","PE_level","object_cat","scn_file.y","corr_scn_cat","corr_scn_inst","scn_file.1","corr_loc","key_resp_id.keys","key_resp_id.rt","key_resp_conf.keys","key_resp_assoc.keys","key_resp_assoc.rt","key_resp_loc.keys","key_resp_loc.rt","trialN.y","id_acc","assoc.acc","cond_assoc","loc.acc","cond_loc","group.y"
"52","stim/objects/HouseObjects/flyswatter2.png",1,51,1,0.9,"stim/12.jpeg",1,2,3,NA,"HouseObjects",2,2,"right","",NA,0,0,0,1,NA,NA,NA,NA,NA,NA,NA,NA,NA,NA,NA,NA,NA,NA,NA,NA,NA,NA,NA,NA,NA,NA,NA,NA
"80","stim/objects/HouseObjects/glass2.png",2,51,2,0.9,"stim/14.jpeg",1,4,3,NA,"HouseObjects",2,2,"right","right",0.687999964,1,1,0,1,NA,NA,NA,NA,NA,NA,NA,NA,NA,NA,NA,NA,NA,NA,NA,NA,NA,NA,NA,NA,NA,NA,NA,NA
"97","stim/objects/HouseObjects/hairdryer.png",3,51,3,0.7,"stim/52.jpeg",5,2,2,NA,"HouseObjects",2,2,"right","",NA,0,0,0,1,NA,NA,NA,NA,NA,NA,NA,NA,NA,NA,NA,NA,NA,NA,NA,NA,NA,NA,NA,NA,NA,NA,NA,NA
"9","stim/objects/HouseObjects/cushion.png",4,51,4,0.5,"stim/32.jpeg",3,2,1,NA,"HouseObjects",2,1,"right","right",0.770999908,1,1,0,1,NA,NA,NA,NA,NA,NA,NA,NA,NA,NA,NA,NA,NA,NA,NA,NA,NA,NA,NA,NA,NA,NA,NA,NA
"208","stim/objects/Instruments/harmonica2.png",5,51,5,0.9,"stim/22.jpeg",2,2,3,NA,"Instruments",1,4,"left","left",0.733999968,1,1,0,1,NA,NA,NA,NA,NA,NA,NA,NA,NA,NA,NA,NA,NA,NA,NA,NA,NA,NA,NA,NA,NA,NA,NA,NA
"81","stim/objects/HouseObjects/glass2.png",6,51,6,0.9,"stim/14.jpeg",1,4,3,NA,"HouseObjects",2,4,"right","right",0.669999838,1,1,0,1,NA,NA,NA,NA,NA,NA,NA,NA,NA,NA,NA,NA,NA,NA,NA,NA,NA,NA,NA,NA,NA,NA,NA,NA
"66","stim/objects/HouseObjects/garbagebin2.png",7,51,7,0.9,"stim/13.jpeg",1,3,3,NA,"HouseObjects",2,1,"right","right",0.632999897,1,1,0,1,NA,NA,NA,NA,NA,NA,NA,NA,NA,NA,NA,NA,NA,NA,NA,NA,NA,NA,NA,NA,NA,NA,NA,NA
"157","stim/objects/Instruments/flute.png",8,51,8,0.5,"stim/34.jpeg",3,4,1,NA,"Instruments",1,3,"left","",NA,0,0,0,1,NA,NA,NA,NA,NA,NA,NA,NA,NA,NA,NA,NA,NA,NA,NA,NA,NA,NA,NA,NA,NA,NA,NA,NA
"1","stim/objects/HouseObjects/coffee.png",9,51,9,0.5,"stim/31.jpeg",3,1,1,NA,"HouseObjects",2,4,"right","right",0.617000103,1,1,0,1,NA,NA,NA,NA,NA,NA,NA,NA,NA,NA,NA,NA,NA,NA,NA,NA,NA,NA,NA,NA,NA,NA,NA,NA
"82","stim/objects/HouseObjects/glass2.png",10,51,10,0.9,"stim/14.jpeg",1,4,3,NA,"HouseObjects",2,1,"right","right",0.579999924,1,1,0,1,NA,NA,NA,NA,NA,NA,NA,NA,NA,NA,NA,NA,NA,NA,NA,NA,NA,NA,NA,NA,NA,NA,NA,NA
"205","stim/objects/Instruments/harmonica.png",11,51,11,0.3,"stim/52.jpeg",5,2,2,NA,"Instruments",1,1,"left","right",0.907999992,0,0,0,1,NA,NA,NA,NA,NA,NA,NA,NA,NA,NA,NA,NA,NA,NA,NA,NA,NA,NA,NA,NA,NA,NA,NA,NA
"2","stim/objects/HouseObjects/coffee.png",12,51,12,0.5,"stim/31.jpeg",3,1,1,NA,"HouseObjects",2,3,"right","right",0.677999735,1,1,0,1,NA,NA,NA,NA,NA,NA,NA,NA,NA,NA,NA,NA,NA,NA,NA,NA,NA,NA,NA,NA,NA,NA,NA,NA
"121","stim/objects/Instruments/drums.png",13,51,13,0.5,"stim/31.jpeg",3,1,1,NA,"Instruments",1,2,"left","left",0.784999847,1,1,0,1,NA,NA,NA,NA,NA,NA,NA,NA,NA,NA,NA,NA,NA,NA,NA,NA,NA,NA,NA,NA,NA,NA,NA,NA
"209","stim/objects/Instruments/harmonica2.png",14,51,14,0.9,"stim/22.jpeg",2,2,3,NA,"Instruments",1,3,"left","left",0.619999886,1,1,0,1,NA,NA,NA,NA,NA,NA,NA,NA,NA,NA,NA,NA,NA,NA,NA,NA,NA,NA,NA,NA,NA,NA,NA,NA
"220","stim/objects/Instruments/harp2.png",15,51,15,0.9,"stim/23.jpeg",2,3,3,NA,"Instruments",1,1,"left","left",0.797999859,1,1,0,1,NA,NA,NA,NA,NA,NA,NA,NA,NA,NA,NA,NA,NA,NA,NA,NA,NA,NA,NA,NA,NA,NA,NA,NA
"61","stim/objects/HouseObjects/garbagebin.png",16,51,16,0.5,"stim/43.jpeg",4,3,1,NA,"HouseObjects",2,4,"right","right",0.799000025,1,1,0,1,NA,NA,NA,NA,NA,NA,NA,NA,NA,NA,NA,NA,NA,NA,NA,NA,NA,NA,NA,NA,NA,NA,NA,NA
"89","stim/objects/HouseObjects/glassmop.png",17,51,17,0.7,"stim/51.jpeg",5,1,2,NA,"HouseObjects",2,2,"right","right",0.735000134,1,1,0,1,NA,NA,NA,NA,NA,NA,NA,NA,NA,NA,NA,NA,NA,NA,NA,NA,NA,NA,NA,NA,NA,NA,NA,NA
"175","stim/objects/Instruments/frenchhorn.png",18,51,18,0.5,"stim/42.jpeg",4,2,1,NA,"Instruments",1,4,"left","right",0.902999878,0,0,0,1,NA,NA,NA,NA,NA,NA,NA,NA,NA,NA,NA,NA,NA,NA,NA,NA,NA,NA,NA,NA,NA,NA,NA,NA
"10","stim/objects/HouseObjects/cushion.png",19,51,19,0.5,"stim/32.jpeg",3,2,1,NA,"HouseObjects",2,1,"right","right",0.750999928,1,1,0,1,NA,NA,NA,NA,NA,NA,NA,NA,NA,NA,NA,NA,NA,NA,NA,NA,NA,NA,NA,NA,NA,NA,NA,NA
"176","stim/objects/Instruments/frenchhorn.png",20,51,20,0.5,"stim/42.jpeg",4,2,1,NA,"Instruments",1,3,"left","left",0.710999966,1,1,0,1,NA,NA,NA,NA,NA,NA,NA,NA,NA,NA,NA,NA,NA,NA,NA,NA,NA,NA,NA,NA,NA,NA,NA,NA
"22","stim/objects/HouseObjects/dishsoap2.png",21,51,21,0.3,"stim/63.jpeg",6,3,2,NA,"HouseObjects",2,2,"right","left",0.73300004,0,0,0,1,NA,NA,NA,NA,NA,NA,NA,NA,NA,NA,NA,NA,NA,NA,NA,NA,NA,NA,NA,NA,NA,NA,NA,NA
"187","stim/objects/Instruments/grandpiano.png",22,51,22,0.5,"stim/44.jpeg",4,4,1,NA,"Instruments",1,2,"left","left",0.80099988,1,1,0,1,NA,NA,NA,NA,NA,NA,NA,NA,NA,NA,NA,NA,NA,NA,NA,NA,NA,NA,NA,NA,NA,NA,NA,NA
"210","stim/objects/Instruments/harmonica2.png",23,51,23,0.9,"stim/22.jpeg",2,2,3,NA,"Instruments",1,3,"left","left",0.617999792,1,1,0,1,NA,NA,NA,NA,NA,NA,NA,NA,NA,NA,NA,NA,NA,NA,NA,NA,NA,NA,NA,NA,NA,NA,NA,NA
"62","stim/objects/HouseObjects/garbagebin.png",24,51,24,0.5,"stim/43.jpeg",4,3,1,NA,"HouseObjects",2,1,"right","right",0.690999985,1,1,0,1,NA,NA,NA,NA,NA,NA,NA,NA,NA,NA,NA,NA,NA,NA,NA,NA,NA,NA,NA,NA,NA,NA,NA,NA
"67","stim/objects/HouseObjects/garbagebin2.png",25,51,25,0.9,"stim/13.jpeg",1,3,3,NA,"HouseObjects",2,1,"right","right",0.619999886,1,1,0,1,NA,NA,NA,NA,NA,NA,NA,NA,NA,NA,NA,NA,NA,NA,NA,NA,NA,NA,NA,NA,NA,NA,NA,NA
"105","stim/objects/HouseObjects/handbrush.png",26,51,26,0.7,"stim/53.jpeg",5,3,2,NA,"HouseObjects",2,3,"right","",NA,0,0,0,1,NA,NA,NA,NA,NA,NA,NA,NA,NA,NA,NA,NA,NA,NA,NA,NA,NA,NA,NA,NA,NA,NA,NA,NA
"232","stim/objects/Instruments/hihat2.png",27,51,27,0.9,"stim/24.jpeg",2,4,3,NA,"Instruments",1,4,"left","left",0.55099988,1,1,0,1,NA,NA,NA,NA,NA,NA,NA,NA,NA,NA,NA,NA,NA,NA,NA,NA,NA,NA,NA,NA,NA,NA,NA,NA
"233","stim/objects/Instruments/hihat2.png",28,51,28,0.9,"stim/24.jpeg",2,4,3,NA,"Instruments",1,1,"left","left",0.493000031,1,1,0,1,NA,NA,NA,NA,NA,NA,NA,NA,NA,NA,NA,NA,NA,NA,NA,NA,NA,NA,NA,NA,NA,NA,NA,NA
"188","stim/objects/Instruments/grandpiano.png",29,51,29,0.5,"stim/44.jpeg",4,4,1,NA,"Instruments",1,4,"left","right",0.657000065,0,0,0,1,NA,NA,NA,NA,NA,NA,NA,NA,NA,NA,NA,NA,NA,NA,NA,NA,NA,NA,NA,NA,NA,NA,NA,NA
"234","stim/objects/Instruments/hihat2.png",30,51,30,0.9,"stim/24.jpeg",2,4,3,NA,"Instruments",1,4,"left","left",0.601999998,1,1,0,1,NA,NA,NA,NA,NA,NA,NA,NA,NA,NA,NA,NA,NA,NA,NA,NA,NA,NA,NA,NA,NA,NA,NA,NA
"162","stim/objects/Instruments/flute2.png",31,51,31,0.7,"stim/64.jpeg",6,4,2,NA,"Instruments",1,3,"left","right",0.678999901,0,0,0,1,NA,NA,NA,NA,NA,NA,NA,NA,NA,NA,NA,NA,NA,NA,NA,NA,NA,NA,NA,NA,NA,NA,NA,NA
"158","stim/objects/Instruments/flute.png",32,51,32,0.5,"stim/34.jpeg",3,4,1,NA,"Instruments",1,2,"left","right",0.770999908,0,0,0,1,NA,NA,NA,NA,NA,NA,NA,NA,NA,NA,NA,NA,NA,NA,NA,NA,NA,NA,NA,NA,NA,NA,NA,NA
"169","stim/objects/Instruments/flutetrans.png",33,51,33,0.5,"stim/41.jpeg",4,1,1,NA,"Instruments",1,4,"left","right",0.761999846,0,0,0,1,NA,NA,NA,NA,NA,NA,NA,NA,NA,NA,NA,NA,NA,NA,NA,NA,NA,NA,NA,NA,NA,NA,NA,NA
"211","stim/objects/Instruments/harmonica2.png",34,51,34,0.9,"stim/22.jpeg",2,2,3,NA,"Instruments",1,2,"left","left",0.677999973,1,1,0,1,NA,NA,NA,NA,NA,NA,NA,NA,NA,NA,NA,NA,NA,NA,NA,NA,NA,NA,NA,NA,NA,NA,NA,NA
"53","stim/objects/HouseObjects/flyswatter2.png",35,51,35,0.9,"stim/12.jpeg",1,2,3,NA,"HouseObjects",2,3,"right","right",0.562999964,1,1,0,1,NA,NA,NA,NA,NA,NA,NA,NA,NA,NA,NA,NA,NA,NA,NA,NA,NA,NA,NA,NA,NA,NA,NA,NA
"229","stim/objects/Instruments/hihat.png",36,51,36,0.3,"stim/54.jpeg",5,4,2,NA,"Instruments",1,2,"left","right",0.789000034,0,0,0,1,NA,NA,NA,NA,NA,NA,NA,NA,NA,NA,NA,NA,NA,NA,NA,NA,NA,NA,NA,NA,NA,NA,NA,NA
"17","stim/objects/HouseObjects/dishsoap.png",37,51,37,0.5,"stim/33.jpeg",3,3,1,NA,"HouseObjects",2,2,"right","right",0.646999836,1,1,0,1,NA,NA,NA,NA,NA,NA,NA,NA,NA,NA,NA,NA,NA,NA,NA,NA,NA,NA,NA,NA,NA,NA,NA,NA
"163","stim/objects/Instruments/flute2.png",38,51,38,0.7,"stim/64.jpeg",6,4,2,NA,"Instruments",1,2,"left","right",0.602999926,0,0,0,1,NA,NA,NA,NA,NA,NA,NA,NA,NA,NA,NA,NA,NA,NA,NA,NA,NA,NA,NA,NA,NA,NA,NA,NA
"47","stim/objects/HouseObjects/flyswatter.png",39,51,39,0.5,"stim/42.jpeg",4,2,1,NA,"HouseObjects",2,2,"right","right",0.612999916,1,1,0,1,NA,NA,NA,NA,NA,NA,NA,NA,NA,NA,NA,NA,NA,NA,NA,NA,NA,NA,NA,NA,NA,NA,NA,NA
"83","stim/objects/HouseObjects/glass2.png",40,51,40,0.9,"stim/14.jpeg",1,4,3,NA,"HouseObjects",2,3,"right","right",0.723999977,1,1,0,1,NA,NA,NA,NA,NA,NA,NA,NA,NA,NA,NA,NA,NA,NA,NA,NA,NA,NA,NA,NA,NA,NA,NA,NA
"217","stim/objects/Instruments/harp.png",41,51,41,0.3,"stim/53.jpeg",5,3,2,NA,"Instruments",1,1,"left","right",0.652999878,0,0,0,1,NA,NA,NA,NA,NA,NA,NA,NA,NA,NA,NA,NA,NA,NA,NA,NA,NA,NA,NA,NA,NA,NA,NA,NA
"98","stim/objects/HouseObjects/hairdryer.png",42,51,42,0.7,"stim/52.jpeg",5,2,2,NA,"HouseObjects",2,3,"right","right",0.643000126,1,1,0,1,NA,NA,NA,NA,NA,NA,NA,NA,NA,NA,NA,NA,NA,NA,NA,NA,NA,NA,NA,NA,NA,NA,NA,NA
"150","stim/objects/Instruments/electricguitar2.png",43,51,43,0.7,"stim/63.jpeg",6,3,2,NA,"Instruments",1,2,"left","left",0.906999826,1,1,0,1,NA,NA,NA,NA,NA,NA,NA,NA,NA,NA,NA,NA,NA,NA,NA,NA,NA,NA,NA,NA,NA,NA,NA,NA
"48","stim/objects/HouseObjects/flyswatter.png",44,51,44,0.5,"stim/42.jpeg",4,2,1,NA,"HouseObjects",2,2,"right","right",0.756000042,1,1,0,1,NA,NA,NA,NA,NA,NA,NA,NA,NA,NA,NA,NA,NA,NA,NA,NA,NA,NA,NA,NA,NA,NA,NA,NA
"164","stim/objects/Instruments/flute2.png",45,51,45,0.7,"stim/64.jpeg",6,4,2,NA,"Instruments",1,1,"left","left",0.819999933,1,1,0,1,NA,NA,NA,NA,NA,NA,NA,NA,NA,NA,NA,NA,NA,NA,NA,NA,NA,NA,NA,NA,NA,NA,NA,NA
"49","stim/objects/HouseObjects/flyswatter.png",46,51,46,0.5,"stim/42.jpeg",4,2,1,NA,"HouseObjects",2,4,"right","right",0.739000082,1,1,0,1,NA,NA,NA,NA,NA,NA,NA,NA,NA,NA,NA,NA,NA,NA,NA,NA,NA,NA,NA,NA,NA,NA,NA,NA
"133","stim/objects/Instruments/electricdrumset.png",47,51,47,0.5,"stim/32.jpeg",3,2,1,NA,"Instruments",1,4,"left","right",0.671999931,0,0,0,1,NA,NA,NA,NA,NA,NA,NA,NA,NA,NA,NA,NA,NA,NA,NA,NA,NA,NA,NA,NA,NA,NA,NA,NA
"68","stim/objects/HouseObjects/garbagebin2.png",48,51,48,0.9,"stim/13.jpeg",1,3,3,NA,"HouseObjects",2,3,"right","right",0.592000008,1,1,0,1,NA,NA,NA,NA,NA,NA,NA,NA,NA,NA,NA,NA,NA,NA,NA,NA,NA,NA,NA,NA,NA,NA,NA,NA
"63","stim/objects/HouseObjects/garbagebin.png",49,51,49,0.5,"stim/43.jpeg",4,3,1,NA,"HouseObjects",2,3,"right","right",0.786000013,1,1,0,1,NA,NA,NA,NA,NA,NA,NA,NA,NA,NA,NA,NA,NA,NA,NA,NA,NA,NA,NA,NA,NA,NA,NA,NA
"165","stim/objects/Instruments/flute2.png",50,51,50,0.7,"stim/64.jpeg",6,4,2,NA,"Instruments",1,4,"left","left",0.694999695,1,1,0,1,NA,NA,NA,NA,NA,NA,NA,NA,NA,NA,NA,NA,NA,NA,NA,NA,NA,NA,NA,NA,NA,NA,NA,NA
"196","stim/objects/Instruments/guitarcase2.png",51,51,51,0.9,"stim/21.jpeg",2,1,3,NA,"Instruments",1,1,"left","left",0.605999947,1,1,0,1,NA,NA,NA,NA,NA,NA,NA,NA,NA,NA,NA,NA,NA,NA,NA,NA,NA,NA,NA,NA,NA,NA,NA,NA
"126","stim/objects/Instruments/drums2.png",52,51,52,0.7,"stim/61.jpeg",6,1,2,NA,"Instruments",1,1,"left","left",0.76699996,1,1,0,1,NA,NA,NA,NA,NA,NA,NA,NA,NA,NA,NA,NA,NA,NA,NA,NA,NA,NA,NA,NA,NA,NA,NA,NA
"106","stim/objects/HouseObjects/handbrush.png",53,51,53,0.7,"stim/53.jpeg",5,3,2,NA,"HouseObjects",2,1,"right","right",0.892999887,1,1,0,1,NA,NA,NA,NA,NA,NA,NA,NA,NA,NA,NA,NA,NA,NA,NA,NA,NA,NA,NA,NA,NA,NA,NA,NA
"107","stim/objects/HouseObjects/handbrush.png",54,51,54,0.7,"stim/53.jpeg",5,3,2,NA,"HouseObjects",2,2,"right","right",0.608999968,1,1,0,1,NA,NA,NA,NA,NA,NA,NA,NA,NA,NA,NA,NA,NA,NA,NA,NA,NA,NA,NA,NA,NA,NA,NA,NA
"180","stim/objects/Instruments/frenchhorn2.png",55,51,55,0.1,"stim/12.jpeg",1,2,3,NA,"Instruments",1,3,"left","right",0.601999998,0,0,0,1,NA,NA,NA,NA,NA,NA,NA,NA,NA,NA,NA,NA,NA,NA,NA,NA,NA,NA,NA,NA,NA,NA,NA,NA
"75","stim/objects/HouseObjects/glass.png",56,51,56,0.5,"stim/44.jpeg",4,4,1,NA,"HouseObjects",2,4,"right","left",0.753000021,0,0,0,1,NA,NA,NA,NA,NA,NA,NA,NA,NA,NA,NA,NA,NA,NA,NA,NA,NA,NA,NA,NA,NA,NA,NA,NA
"134","stim/objects/Instruments/electricdrumset.png",57,51,57,0.5,"stim/32.jpeg",3,2,1,NA,"Instruments",1,2,"left","right",0.838999987,0,0,0,1,NA,NA,NA,NA,NA,NA,NA,NA,NA,NA,NA,NA,NA,NA,NA,NA,NA,NA,NA,NA,NA,NA,NA,NA
"25","stim/objects/HouseObjects/doormat.png",58,51,58,0.5,"stim/34.jpeg",3,4,1,NA,"HouseObjects",2,3,"right","",NA,0,0,0,1,NA,NA,NA,NA,NA,NA,NA,NA,NA,NA,NA,NA,NA,NA,NA,NA,NA,NA,NA,NA,NA,NA,NA,NA
"6","stim/objects/HouseObjects/coffee2.png",59,51,59,0.3,"stim/61.jpeg",6,1,2,NA,"HouseObjects",2,2,"right","left",0.684999943,0,0,0,1,NA,NA,NA,NA,NA,NA,NA,NA,NA,NA,NA,NA,NA,NA,NA,NA,NA,NA,NA,NA,NA,NA,NA,NA
"76","stim/objects/HouseObjects/glass.png",60,51,60,0.5,"stim/44.jpeg",4,4,1,NA,"HouseObjects",2,2,"right","left",0.736000061,0,0,0,1,NA,NA,NA,NA,NA,NA,NA,NA,NA,NA,NA,NA,NA,NA,NA,NA,NA,NA,NA,NA,NA,NA,NA,NA
"18","stim/objects/HouseObjects/dishsoap.png",61,51,61,0.5,"stim/33.jpeg",3,3,1,NA,"HouseObjects",2,3,"right","left",0.836999893,0,0,0,1,NA,NA,NA,NA,NA,NA,NA,NA,NA,NA,NA,NA,NA,NA,NA,NA,NA,NA,NA,NA,NA,NA,NA,NA
"151","stim/objects/Instruments/electricguitar2.png",62,51,62,0.7,"stim/63.jpeg",6,3,2,NA,"Instruments",1,1,"left","left",0.752000093,1,1,0,1,NA,NA,NA,NA,NA,NA,NA,NA,NA,NA,NA,NA,NA,NA,NA,NA,NA,NA,NA,NA,NA,NA,NA,NA
"38","stim/objects/HouseObjects/dustpan2.png",63,51,63,0.9,"stim/11.jpeg",1,1,3,NA,"HouseObjects",2,2,"right","right",0.682999849,1,1,0,1,NA,NA,NA,NA,NA,NA,NA,NA,NA,NA,NA,NA,NA,NA,NA,NA,NA,NA,NA,NA,NA,NA,NA,NA
"33","stim/objects/HouseObjects/dustpan.png",64,51,64,0.5,"stim/41.jpeg",4,1,1,NA,"HouseObjects",2,4,"right","right",0.636999846,1,1,0,1,NA,NA,NA,NA,NA,NA,NA,NA,NA,NA,NA,NA,NA,NA,NA,NA,NA,NA,NA,NA,NA,NA,NA,NA
"197","stim/objects/Instruments/guitarcase2.png",65,51,65,0.9,"stim/21.jpeg",2,1,3,NA,"Instruments",1,1,"left","left",0.532999992,1,1,0,1,NA,NA,NA,NA,NA,NA,NA,NA,NA,NA,NA,NA,NA,NA,NA,NA,NA,NA,NA,NA,NA,NA,NA,NA
"170","stim/objects/Instruments/flutetrans.png",66,51,66,0.5,"stim/41.jpeg",4,1,1,NA,"Instruments",1,1,"left","right",0.645999908,0,0,0,1,NA,NA,NA,NA,NA,NA,NA,NA,NA,NA,NA,NA,NA,NA,NA,NA,NA,NA,NA,NA,NA,NA,NA,NA
"221","stim/objects/Instruments/harp2.png",67,51,67,0.9,"stim/23.jpeg",2,3,3,NA,"Instruments",1,3,"left","left",0.642999887,1,1,0,1,NA,NA,NA,NA,NA,NA,NA,NA,NA,NA,NA,NA,NA,NA,NA,NA,NA,NA,NA,NA,NA,NA,NA,NA
"64","stim/objects/HouseObjects/garbagebin.png",68,51,68,0.5,"stim/43.jpeg",4,3,1,NA,"HouseObjects",2,1,"right","right",0.597999811,1,1,0,1,NA,NA,NA,NA,NA,NA,NA,NA,NA,NA,NA,NA,NA,NA,NA,NA,NA,NA,NA,NA,NA,NA,NA,NA
"104","stim/objects/HouseObjects/hairdryer2.png",69,51,69,0.1,"stim/22.jpeg",2,2,3,NA,"HouseObjects",2,2,"right","left",0.661999941,0,0,0,1,NA,NA,NA,NA,NA,NA,NA,NA,NA,NA,NA,NA,NA,NA,NA,NA,NA,NA,NA,NA,NA,NA,NA,NA
"113","stim/objects/HouseObjects/handvacuum.png",70,51,70,0.7,"stim/54.jpeg",5,4,2,NA,"HouseObjects",2,4,"right","right",0.664000034,1,1,0,1,NA,NA,NA,NA,NA,NA,NA,NA,NA,NA,NA,NA,NA,NA,NA,NA,NA,NA,NA,NA,NA,NA,NA,NA
"99","stim/objects/HouseObjects/hairdryer.png",71,51,71,0.7,"stim/52.jpeg",5,2,2,NA,"HouseObjects",2,4,"right","right",0.622999907,1,1,0,1,NA,NA,NA,NA,NA,NA,NA,NA,NA,NA,NA,NA,NA,NA,NA,NA,NA,NA,NA,NA,NA,NA,NA,NA
"3","stim/objects/HouseObjects/coffee.png",72,51,72,0.5,"stim/31.jpeg",3,1,1,NA,"HouseObjects",2,2,"right","right",0.589999914,1,1,0,1,NA,NA,NA,NA,NA,NA,NA,NA,NA,NA,NA,NA,NA,NA,NA,NA,NA,NA,NA,NA,NA,NA,NA,NA
"166","stim/objects/Instruments/flute2.png",73,51,73,0.7,"stim/64.jpeg",6,4,2,NA,"Instruments",1,4,"left","left",0.720000029,1,1,0,1,NA,NA,NA,NA,NA,NA,NA,NA,NA,NA,NA,NA,NA,NA,NA,NA,NA,NA,NA,NA,NA,NA,NA,NA
"152","stim/objects/Instruments/electricguitar2.png",74,51,74,0.7,"stim/63.jpeg",6,3,2,NA,"Instruments",1,2,"left","left",0.635999918,1,1,0,1,NA,NA,NA,NA,NA,NA,NA,NA,NA,NA,NA,NA,NA,NA,NA,NA,NA,NA,NA,NA,NA,NA,NA,NA
"181","stim/objects/Instruments/gong.png",75,51,75,0.5,"stim/43.jpeg",4,3,1,NA,"Instruments",1,1,"left","right",0.572000027,0,0,0,1,NA,NA,NA,NA,NA,NA,NA,NA,NA,NA,NA,NA,NA,NA,NA,NA,NA,NA,NA,NA,NA,NA,NA,NA
"34","stim/objects/HouseObjects/dustpan.png",76,51,76,0.5,"stim/41.jpeg",4,1,1,NA,"HouseObjects",2,4,"right","right",0.684000015,1,1,0,1,NA,NA,NA,NA,NA,NA,NA,NA,NA,NA,NA,NA,NA,NA,NA,NA,NA,NA,NA,NA,NA,NA,NA,NA
"19","stim/objects/HouseObjects/dishsoap.png",77,51,77,0.5,"stim/33.jpeg",3,3,1,NA,"HouseObjects",2,3,"right","left",0.792999983,0,0,0,1,NA,NA,NA,NA,NA,NA,NA,NA,NA,NA,NA,NA,NA,NA,NA,NA,NA,NA,NA,NA,NA,NA,NA,NA
"222","stim/objects/Instruments/harp2.png",78,51,78,0.9,"stim/23.jpeg",2,3,3,NA,"Instruments",1,1,"left","left",0.67599988,1,1,0,1,NA,NA,NA,NA,NA,NA,NA,NA,NA,NA,NA,NA,NA,NA,NA,NA,NA,NA,NA,NA,NA,NA,NA,NA
"212","stim/objects/Instruments/harmonica2.png",79,51,79,0.9,"stim/22.jpeg",2,2,3,NA,"Instruments",1,2,"left","left",0.680000067,1,1,0,1,NA,NA,NA,NA,NA,NA,NA,NA,NA,NA,NA,NA,NA,NA,NA,NA,NA,NA,NA,NA,NA,NA,NA,NA
"198","stim/objects/Instruments/guitarcase2.png",80,51,80,0.9,"stim/21.jpeg",2,1,3,NA,"Instruments",1,2,"left","left",0.787999868,1,1,0,1,NA,NA,NA,NA,NA,NA,NA,NA,NA,NA,NA,NA,NA,NA,NA,NA,NA,NA,NA,NA,NA,NA,NA,NA
"35","stim/objects/HouseObjects/dustpan.png",81,51,81,0.5,"stim/41.jpeg",4,1,1,NA,"HouseObjects",2,1,"right","left",0.786000013,0,0,0,1,NA,NA,NA,NA,NA,NA,NA,NA,NA,NA,NA,NA,NA,NA,NA,NA,NA,NA,NA,NA,NA,NA,NA,NA
"90","stim/objects/HouseObjects/glassmop.png",82,51,82,0.7,"stim/51.jpeg",5,1,2,NA,"HouseObjects",2,4,"right","right",0.665999889,1,1,0,1,NA,NA,NA,NA,NA,NA,NA,NA,NA,NA,NA,NA,NA,NA,NA,NA,NA,NA,NA,NA,NA,NA,NA,NA
"218","stim/objects/Instruments/harp.png",83,51,83,0.3,"stim/53.jpeg",5,3,2,NA,"Instruments",1,1,"left","right",0.703000069,0,0,0,1,NA,NA,NA,NA,NA,NA,NA,NA,NA,NA,NA,NA,NA,NA,NA,NA,NA,NA,NA,NA,NA,NA,NA,NA
"26","stim/objects/HouseObjects/doormat.png",84,51,84,0.5,"stim/34.jpeg",3,4,1,NA,"HouseObjects",2,3,"right","left",0.756000042,0,0,0,1,NA,NA,NA,NA,NA,NA,NA,NA,NA,NA,NA,NA,NA,NA,NA,NA,NA,NA,NA,NA,NA,NA,NA,NA
"145","stim/objects/Instruments/electricguitar.png",85,51,85,0.5,"stim/33.jpeg",3,3,1,NA,"Instruments",1,4,"left","right",0.924999952,0,0,0,1,NA,NA,NA,NA,NA,NA,NA,NA,NA,NA,NA,NA,NA,NA,NA,NA,NA,NA,NA,NA,NA,NA,NA,NA
"189","stim/objects/Instruments/grandpiano.png",86,51,86,0.5,"stim/44.jpeg",4,4,1,NA,"Instruments",1,2,"left","right",0.688999891,0,0,0,1,NA,NA,NA,NA,NA,NA,NA,NA,NA,NA,NA,NA,NA,NA,NA,NA,NA,NA,NA,NA,NA,NA,NA,NA
"230","stim/objects/Instruments/hihat.png",87,51,87,0.3,"stim/54.jpeg",5,4,2,NA,"Instruments",1,1,"left","right",0.941999912,0,0,0,1,NA,NA,NA,NA,NA,NA,NA,NA,NA,NA,NA,NA,NA,NA,NA,NA,NA,NA,NA,NA,NA,NA,NA,NA
"182","stim/objects/Instruments/gong.png",88,51,88,0.5,"stim/43.jpeg",4,3,1,NA,"Instruments",1,2,"left","right",0.67599988,0,0,0,1,NA,NA,NA,NA,NA,NA,NA,NA,NA,NA,NA,NA,NA,NA,NA,NA,NA,NA,NA,NA,NA,NA,NA,NA
"114","stim/objects/HouseObjects/handvacuum.png",89,51,89,0.7,"stim/54.jpeg",5,4,2,NA,"HouseObjects",2,2,"right","right",0.806999922,1,1,0,1,NA,NA,NA,NA,NA,NA,NA,NA,NA,NA,NA,NA,NA,NA,NA,NA,NA,NA,NA,NA,NA,NA,NA,NA
"69","stim/objects/HouseObjects/garbagebin2.png",90,51,90,0.9,"stim/13.jpeg",1,3,3,NA,"HouseObjects",2,1,"right","right",0.628000021,1,1,0,1,NA,NA,NA,NA,NA,NA,NA,NA,NA,NA,NA,NA,NA,NA,NA,NA,NA,NA,NA,NA,NA,NA,NA,NA
"213","stim/objects/Instruments/harmonica2.png",91,51,91,0.9,"stim/22.jpeg",2,2,3,NA,"Instruments",1,4,"left","right",0.657000065,0,0,0,1,NA,NA,NA,NA,NA,NA,NA,NA,NA,NA,NA,NA,NA,NA,NA,NA,NA,NA,NA,NA,NA,NA,NA,NA
"138","stim/objects/Instruments/electricdrumset2.png",92,51,92,0.7,"stim/62.jpeg",6,2,2,NA,"Instruments",1,2,"left","right",0.799999952,0,0,0,1,NA,NA,NA,NA,NA,NA,NA,NA,NA,NA,NA,NA,NA,NA,NA,NA,NA,NA,NA,NA,NA,NA,NA,NA
"23","stim/objects/HouseObjects/dishsoap2.png",93,51,93,0.3,"stim/63.jpeg",6,3,2,NA,"HouseObjects",2,4,"right","left",0.85199976,0,0,0,1,NA,NA,NA,NA,NA,NA,NA,NA,NA,NA,NA,NA,NA,NA,NA,NA,NA,NA,NA,NA,NA,NA,NA,NA
"235","stim/objects/Instruments/hihat2.png",94,51,94,0.9,"stim/24.jpeg",2,4,3,NA,"Instruments",1,1,"left","right",0.911000013,0,0,0,1,NA,NA,NA,NA,NA,NA,NA,NA,NA,NA,NA,NA,NA,NA,NA,NA,NA,NA,NA,NA,NA,NA,NA,NA
"122","stim/objects/Instruments/drums.png",95,51,95,0.5,"stim/31.jpeg",3,1,1,NA,"Instruments",1,2,"left","right",0.720999956,0,0,0,1,NA,NA,NA,NA,NA,NA,NA,NA,NA,NA,NA,NA,NA,NA,NA,NA,NA,NA,NA,NA,NA,NA,NA,NA
"100","stim/objects/HouseObjects/hairdryer.png",96,51,96,0.7,"stim/52.jpeg",5,2,2,NA,"HouseObjects",2,2,"right","right",0.853999853,1,1,0,1,NA,NA,NA,NA,NA,NA,NA,NA,NA,NA,NA,NA,NA,NA,NA,NA,NA,NA,NA,NA,NA,NA,NA,NA
"65","stim/objects/HouseObjects/garbagebin.png",97,51,97,0.5,"stim/43.jpeg",4,3,1,NA,"HouseObjects",2,3,"right","right",0.713999987,1,1,0,1,NA,NA,NA,NA,NA,NA,NA,NA,NA,NA,NA,NA,NA,NA,NA,NA,NA,NA,NA,NA,NA,NA,NA,NA
"14","stim/objects/HouseObjects/cushion2.png",98,51,98,0.3,"stim/62.jpeg",6,2,2,NA,"HouseObjects",2,2,"right","left",0.652999878,0,0,0,1,NA,NA,NA,NA,NA,NA,NA,NA,NA,NA,NA,NA,NA,NA,NA,NA,NA,NA,NA,NA,NA,NA,NA,NA
"223","stim/objects/Instruments/harp2.png",99,51,99,0.9,"stim/23.jpeg",2,3,3,NA,"Instruments",1,4,"left","left",0.696000099,1,1,0,1,NA,NA,NA,NA,NA,NA,NA,NA,NA,NA,NA,NA,NA,NA,NA,NA,NA,NA,NA,NA,NA,NA,NA,NA
"91","stim/objects/HouseObjects/glassmop.png",100,51,100,0.7,"stim/51.jpeg",5,1,2,NA,"HouseObjects",2,3,"right","right",0.753999949,1,1,0,1,NA,NA,NA,NA,NA,NA,NA,NA,NA,NA,NA,NA,NA,NA,NA,NA,NA,NA,NA,NA,NA,NA,NA,NA
"236","stim/objects/Instruments/hihat2.png",101,51,101,0.9,"stim/24.jpeg",2,4,3,NA,"Instruments",1,3,"left","left",0.655999899,1,1,0,1,NA,NA,NA,NA,NA,NA,NA,NA,NA,NA,NA,NA,NA,NA,NA,NA,NA,NA,NA,NA,NA,NA,NA,NA
"36","stim/objects/HouseObjects/dustpan.png",102,51,102,0.5,"stim/41.jpeg",4,1,1,NA,"HouseObjects",2,4,"right","right",0.687000036,1,1,0,1,NA,NA,NA,NA,NA,NA,NA,NA,NA,NA,NA,NA,NA,NA,NA,NA,NA,NA,NA,NA,NA,NA,NA,NA
"54","stim/objects/HouseObjects/flyswatter2.png",103,51,103,0.9,"stim/12.jpeg",1,2,3,NA,"HouseObjects",2,4,"right","right",0.598999977,1,1,0,1,NA,NA,NA,NA,NA,NA,NA,NA,NA,NA,NA,NA,NA,NA,NA,NA,NA,NA,NA,NA,NA,NA,NA,NA
"135","stim/objects/Instruments/electricdrumset.png",104,51,104,0.5,"stim/32.jpeg",3,2,1,NA,"Instruments",1,4,"left","right",0.637000084,0,0,0,1,NA,NA,NA,NA,NA,NA,NA,NA,NA,NA,NA,NA,NA,NA,NA,NA,NA,NA,NA,NA,NA,NA,NA,NA
"167","stim/objects/Instruments/flute2.png",105,51,105,0.7,"stim/64.jpeg",6,4,2,NA,"Instruments",1,4,"left","left",0.720999956,1,1,0,1,NA,NA,NA,NA,NA,NA,NA,NA,NA,NA,NA,NA,NA,NA,NA,NA,NA,NA,NA,NA,NA,NA,NA,NA
"120","stim/objects/HouseObjects/handvacuum2.png",106,51,106,0.1,"stim/24.jpeg",2,4,3,NA,"HouseObjects",2,3,"right","left",0.555999994,0,0,0,1,NA,NA,NA,NA,NA,NA,NA,NA,NA,NA,NA,NA,NA,NA,NA,NA,NA,NA,NA,NA,NA,NA,NA,NA
"136","stim/objects/Instruments/electricdrumset.png",107,51,107,0.5,"stim/32.jpeg",3,2,1,NA,"Instruments",1,3,"left","right",0.917000055,0,0,0,1,NA,NA,NA,NA,NA,NA,NA,NA,NA,NA,NA,NA,NA,NA,NA,NA,NA,NA,NA,NA,NA,NA,NA,NA
"30","stim/objects/HouseObjects/doormat2.png",108,51,108,0.3,"stim/64.jpeg",6,4,2,NA,"HouseObjects",2,4,"right","left",0.592999935,0,0,0,1,NA,NA,NA,NA,NA,NA,NA,NA,NA,NA,NA,NA,NA,NA,NA,NA,NA,NA,NA,NA,NA,NA,NA,NA
"84","stim/objects/HouseObjects/glass2.png",109,51,109,0.9,"stim/14.jpeg",1,4,3,NA,"HouseObjects",2,3,"right","right",0.805999756,1,1,0,1,NA,NA,NA,NA,NA,NA,NA,NA,NA,NA,NA,NA,NA,NA,NA,NA,NA,NA,NA,NA,NA,NA,NA,NA
"50","stim/objects/HouseObjects/flyswatter.png",110,51,110,0.5,"stim/42.jpeg",4,2,1,NA,"HouseObjects",2,3,"right","left",0.753999949,0,0,0,1,NA,NA,NA,NA,NA,NA,NA,NA,NA,NA,NA,NA,NA,NA,NA,NA,NA,NA,NA,NA,NA,NA,NA,NA
"7","stim/objects/HouseObjects/coffee2.png",111,51,111,0.3,"stim/61.jpeg",6,1,2,NA,"HouseObjects",2,3,"right","right",0.684999943,1,1,0,1,NA,NA,NA,NA,NA,NA,NA,NA,NA,NA,NA,NA,NA,NA,NA,NA,NA,NA,NA,NA,NA,NA,NA,NA
"139","stim/objects/Instruments/electricdrumset2.png",112,51,112,0.7,"stim/62.jpeg",6,2,2,NA,"Instruments",1,4,"left","left",0.673999786,1,1,0,1,NA,NA,NA,NA,NA,NA,NA,NA,NA,NA,NA,NA,NA,NA,NA,NA,NA,NA,NA,NA,NA,NA,NA,NA
"183","stim/objects/Instruments/gong.png",113,51,113,0.5,"stim/43.jpeg",4,3,1,NA,"Instruments",1,4,"left","right",0.631000042,0,0,0,1,NA,NA,NA,NA,NA,NA,NA,NA,NA,NA,NA,NA,NA,NA,NA,NA,NA,NA,NA,NA,NA,NA,NA,NA
"112","stim/objects/HouseObjects/handbrush2.png",114,51,114,0.1,"stim/23.jpeg",2,3,3,NA,"HouseObjects",2,4,"right","left",0.697000027,0,0,0,1,NA,NA,NA,NA,NA,NA,NA,NA,NA,NA,NA,NA,NA,NA,NA,NA,NA,NA,NA,NA,NA,NA,NA,NA
"146","stim/objects/Instruments/electricguitar.png",115,51,115,0.5,"stim/33.jpeg",3,3,1,NA,"Instruments",1,1,"left","",NA,0,0,0,1,NA,NA,NA,NA,NA,NA,NA,NA,NA,NA,NA,NA,NA,NA,NA,NA,NA,NA,NA,NA,NA,NA,NA,NA
"39","stim/objects/HouseObjects/dustpan2.png",116,51,116,0.9,"stim/11.jpeg",1,1,3,NA,"HouseObjects",2,4,"right","right",0.620999813,1,1,0,1,NA,NA,NA,NA,NA,NA,NA,NA,NA,NA,NA,NA,NA,NA,NA,NA,NA,NA,NA,NA,NA,NA,NA,NA
"24","stim/objects/HouseObjects/dishsoap2.png",117,51,117,0.3,"stim/63.jpeg",6,3,2,NA,"HouseObjects",2,4,"right","left",0.592000008,0,0,0,1,NA,NA,NA,NA,NA,NA,NA,NA,NA,NA,NA,NA,NA,NA,NA,NA,NA,NA,NA,NA,NA,NA,NA,NA
"123","stim/objects/Instruments/drums.png",118,51,118,0.5,"stim/31.jpeg",3,1,1,NA,"Instruments",1,1,"left","left",0.586999893,1,1,0,1,NA,NA,NA,NA,NA,NA,NA,NA,NA,NA,NA,NA,NA,NA,NA,NA,NA,NA,NA,NA,NA,NA,NA,NA
"224","stim/objects/Instruments/harp2.png",119,51,119,0.9,"stim/23.jpeg",2,3,3,NA,"Instruments",1,1,"left","left",0.684999943,1,1,0,1,NA,NA,NA,NA,NA,NA,NA,NA,NA,NA,NA,NA,NA,NA,NA,NA,NA,NA,NA,NA,NA,NA,NA,NA
"27","stim/objects/HouseObjects/doormat.png",120,51,120,0.5,"stim/34.jpeg",3,4,1,NA,"HouseObjects",2,1,"right","left",0.519999981,0,0,0,1,NA,NA,NA,NA,NA,NA,NA,NA,NA,NA,NA,NA,NA,NA,NA,NA,NA,NA,NA,NA,NA,NA,NA,NA
"127","stim/objects/Instruments/drums2.png",121,51,121,0.7,"stim/61.jpeg",6,1,2,NA,"Instruments",1,4,"left","left",0.754999876,1,1,0,1,NA,NA,NA,NA,NA,NA,NA,NA,NA,NA,NA,NA,NA,NA,NA,NA,NA,NA,NA,NA,NA,NA,NA,NA
"55","stim/objects/HouseObjects/flyswatter2.png",122,51,122,0.9,"stim/12.jpeg",1,2,3,NA,"HouseObjects",2,4,"right","right",0.58100009,1,1,0,1,NA,NA,NA,NA,NA,NA,NA,NA,NA,NA,NA,NA,NA,NA,NA,NA,NA,NA,NA,NA,NA,NA,NA,NA
"115","stim/objects/HouseObjects/handvacuum.png",123,51,123,0.7,"stim/54.jpeg",5,4,2,NA,"HouseObjects",2,4,"right","right",0.670999765,1,1,0,1,NA,NA,NA,NA,NA,NA,NA,NA,NA,NA,NA,NA,NA,NA,NA,NA,NA,NA,NA,NA,NA,NA,NA,NA
"159","stim/objects/Instruments/flute.png",124,51,124,0.5,"stim/34.jpeg",3,4,1,NA,"Instruments",1,2,"left","right",0.836999893,0,0,0,1,NA,NA,NA,NA,NA,NA,NA,NA,NA,NA,NA,NA,NA,NA,NA,NA,NA,NA,NA,NA,NA,NA,NA,NA
"56","stim/objects/HouseObjects/flyswatter2.png",125,51,125,0.9,"stim/12.jpeg",1,2,3,NA,"HouseObjects",2,4,"right","right",0.602999926,1,1,0,1,NA,NA,NA,NA,NA,NA,NA,NA,NA,NA,NA,NA,NA,NA,NA,NA,NA,NA,NA,NA,NA,NA,NA,NA
"116","stim/objects/HouseObjects/handvacuum.png",126,51,126,0.7,"stim/54.jpeg",5,4,2,NA,"HouseObjects",2,1,"right","right",0.595999956,1,1,0,1,NA,NA,NA,NA,NA,NA,NA,NA,NA,NA,NA,NA,NA,NA,NA,NA,NA,NA,NA,NA,NA,NA,NA,NA
"117","stim/objects/HouseObjects/handvacuum.png",127,51,127,0.7,"stim/54.jpeg",5,4,2,NA,"HouseObjects",2,1,"right","left",0.696000099,0,0,0,1,NA,NA,NA,NA,NA,NA,NA,NA,NA,NA,NA,NA,NA,NA,NA,NA,NA,NA,NA,NA,NA,NA,NA,NA
"225","stim/objects/Instruments/harp2.png",128,51,128,0.9,"stim/23.jpeg",2,3,3,NA,"Instruments",1,4,"left","left",0.642999887,1,1,0,1,NA,NA,NA,NA,NA,NA,NA,NA,NA,NA,NA,NA,NA,NA,NA,NA,NA,NA,NA,NA,NA,NA,NA,NA
"177","stim/objects/Instruments/frenchhorn.png",129,51,129,0.5,"stim/42.jpeg",4,2,1,NA,"Instruments",1,2,"left","right",0.602999926,0,0,0,1,NA,NA,NA,NA,NA,NA,NA,NA,NA,NA,NA,NA,NA,NA,NA,NA,NA,NA,NA,NA,NA,NA,NA,NA
"101","stim/objects/HouseObjects/hairdryer.png",130,51,130,0.7,"stim/52.jpeg",5,2,2,NA,"HouseObjects",2,3,"right","right",0.595000029,1,1,0,1,NA,NA,NA,NA,NA,NA,NA,NA,NA,NA,NA,NA,NA,NA,NA,NA,NA,NA,NA,NA,NA,NA,NA,NA
"171","stim/objects/Instruments/flutetrans.png",131,51,131,0.5,"stim/41.jpeg",4,1,1,NA,"Instruments",1,2,"left","right",0.638000011,0,0,0,1,NA,NA,NA,NA,NA,NA,NA,NA,NA,NA,NA,NA,NA,NA,NA,NA,NA,NA,NA,NA,NA,NA,NA,NA
"11","stim/objects/HouseObjects/cushion.png",132,51,132,0.5,"stim/32.jpeg",3,2,1,NA,"HouseObjects",2,3,"right","right",0.84100008,1,1,0,1,NA,NA,NA,NA,NA,NA,NA,NA,NA,NA,NA,NA,NA,NA,NA,NA,NA,NA,NA,NA,NA,NA,NA,NA
"153","stim/objects/Instruments/electricguitar2.png",133,51,133,0.7,"stim/63.jpeg",6,3,2,NA,"Instruments",1,2,"left","left",0.834000111,1,1,0,1,NA,NA,NA,NA,NA,NA,NA,NA,NA,NA,NA,NA,NA,NA,NA,NA,NA,NA,NA,NA,NA,NA,NA,NA
"190","stim/objects/Instruments/grandpiano.png",134,51,134,0.5,"stim/44.jpeg",4,4,1,NA,"Instruments",1,3,"left","right",0.853999853,0,0,0,1,NA,NA,NA,NA,NA,NA,NA,NA,NA,NA,NA,NA,NA,NA,NA,NA,NA,NA,NA,NA,NA,NA,NA,NA
"231","stim/objects/Instruments/hihat.png",135,51,135,0.3,"stim/54.jpeg",5,4,2,NA,"Instruments",1,2,"left","right",0.65199995,0,0,0,1,NA,NA,NA,NA,NA,NA,NA,NA,NA,NA,NA,NA,NA,NA,NA,NA,NA,NA,NA,NA,NA,NA,NA,NA
"31","stim/objects/HouseObjects/doormat2.png",136,51,136,0.3,"stim/64.jpeg",6,4,2,NA,"HouseObjects",2,1,"right","left",0.586999893,0,0,0,1,NA,NA,NA,NA,NA,NA,NA,NA,NA,NA,NA,NA,NA,NA,NA,NA,NA,NA,NA,NA,NA,NA,NA,NA
"4","stim/objects/HouseObjects/coffee.png",137,51,137,0.5,"stim/31.jpeg",3,1,1,NA,"HouseObjects",2,1,"right","left",0.695999861,0,0,0,1,NA,NA,NA,NA,NA,NA,NA,NA,NA,NA,NA,NA,NA,NA,NA,NA,NA,NA,NA,NA,NA,NA,NA,NA
"226","stim/objects/Instruments/harp2.png",138,51,138,0.9,"stim/23.jpeg",2,3,3,NA,"Instruments",1,2,"left","left",0.610999823,1,1,0,1,NA,NA,NA,NA,NA,NA,NA,NA,NA,NA,NA,NA,NA,NA,NA,NA,NA,NA,NA,NA,NA,NA,NA,NA
"15","stim/objects/HouseObjects/cushion2.png",139,51,139,0.3,"stim/62.jpeg",6,2,2,NA,"HouseObjects",2,4,"right","left",0.672999859,0,0,0,1,NA,NA,NA,NA,NA,NA,NA,NA,NA,NA,NA,NA,NA,NA,NA,NA,NA,NA,NA,NA,NA,NA,NA,NA
"137","stim/objects/Instruments/electricdrumset.png",140,51,140,0.5,"stim/32.jpeg",3,2,1,NA,"Instruments",1,4,"left","left",0.903999805,1,1,0,1,NA,NA,NA,NA,NA,NA,NA,NA,NA,NA,NA,NA,NA,NA,NA,NA,NA,NA,NA,NA,NA,NA,NA,NA
"85","stim/objects/HouseObjects/glass2.png",141,51,141,0.9,"stim/14.jpeg",1,4,3,NA,"HouseObjects",2,2,"right","right",0.694000006,1,1,0,1,NA,NA,NA,NA,NA,NA,NA,NA,NA,NA,NA,NA,NA,NA,NA,NA,NA,NA,NA,NA,NA,NA,NA,NA
"28","stim/objects/HouseObjects/doormat.png",142,51,142,0.5,"stim/34.jpeg",3,4,1,NA,"HouseObjects",2,1,"right","right",0.904000044,1,1,0,1,NA,NA,NA,NA,NA,NA,NA,NA,NA,NA,NA,NA,NA,NA,NA,NA,NA,NA,NA,NA,NA,NA,NA,NA
"70","stim/objects/HouseObjects/garbagebin2.png",143,51,143,0.9,"stim/13.jpeg",1,3,3,NA,"HouseObjects",2,3,"right","right",0.588000059,1,1,0,1,NA,NA,NA,NA,NA,NA,NA,NA,NA,NA,NA,NA,NA,NA,NA,NA,NA,NA,NA,NA,NA,NA,NA,NA
"227","stim/objects/Instruments/harp2.png",144,51,144,0.9,"stim/23.jpeg",2,3,3,NA,"Instruments",1,4,"left","right",0.637999773,0,0,0,1,NA,NA,NA,NA,NA,NA,NA,NA,NA,NA,NA,NA,NA,NA,NA,NA,NA,NA,NA,NA,NA,NA,NA,NA
"5","stim/objects/HouseObjects/coffee.png",145,51,145,0.5,"stim/31.jpeg",3,1,1,NA,"HouseObjects",2,1,"right","right",0.655999899,1,1,0,1,NA,NA,NA,NA,NA,NA,NA,NA,NA,NA,NA,NA,NA,NA,NA,NA,NA,NA,NA,NA,NA,NA,NA,NA
"193","stim/objects/Instruments/guitarcase.png",146,51,146,0.3,"stim/51.jpeg",5,1,2,NA,"Instruments",1,1,"left","right",0.944000006,0,0,0,1,NA,NA,NA,NA,NA,NA,NA,NA,NA,NA,NA,NA,NA,NA,NA,NA,NA,NA,NA,NA,NA,NA,NA,NA
"57","stim/objects/HouseObjects/flyswatter2.png",147,51,147,0.9,"stim/12.jpeg",1,2,3,NA,"HouseObjects",2,1,"right","right",0.558999777,1,1,0,1,NA,NA,NA,NA,NA,NA,NA,NA,NA,NA,NA,NA,NA,NA,NA,NA,NA,NA,NA,NA,NA,NA,NA,NA
"92","stim/objects/HouseObjects/glassmop.png",148,51,148,0.7,"stim/51.jpeg",5,1,2,NA,"HouseObjects",2,1,"right","left",0.571000099,0,0,0,1,NA,NA,NA,NA,NA,NA,NA,NA,NA,NA,NA,NA,NA,NA,NA,NA,NA,NA,NA,NA,NA,NA,NA,NA
"214","stim/objects/Instruments/harmonica2.png",149,51,149,0.9,"stim/22.jpeg",2,2,3,NA,"Instruments",1,3,"left","left",0.677999973,1,1,0,1,NA,NA,NA,NA,NA,NA,NA,NA,NA,NA,NA,NA,NA,NA,NA,NA,NA,NA,NA,NA,NA,NA,NA,NA
"77","stim/objects/HouseObjects/glass.png",150,51,150,0.5,"stim/44.jpeg",4,4,1,NA,"HouseObjects",2,1,"right","left",0.740999937,0,0,0,1,NA,NA,NA,NA,NA,NA,NA,NA,NA,NA,NA,NA,NA,NA,NA,NA,NA,NA,NA,NA,NA,NA,NA,NA
"20","stim/objects/HouseObjects/dishsoap.png",151,51,151,0.5,"stim/33.jpeg",3,3,1,NA,"HouseObjects",2,4,"right","right",0.802999973,1,1,0,1,NA,NA,NA,NA,NA,NA,NA,NA,NA,NA,NA,NA,NA,NA,NA,NA,NA,NA,NA,NA,NA,NA,NA,NA
"140","stim/objects/Instruments/electricdrumset2.png",152,51,152,0.7,"stim/62.jpeg",6,2,2,NA,"Instruments",1,3,"left","left",0.71999979,1,1,0,1,NA,NA,NA,NA,NA,NA,NA,NA,NA,NA,NA,NA,NA,NA,NA,NA,NA,NA,NA,NA,NA,NA,NA,NA
"58","stim/objects/HouseObjects/flyswatter2.png",153,51,153,0.9,"stim/12.jpeg",1,2,3,NA,"HouseObjects",2,2,"right","right",0.570999861,1,1,0,1,NA,NA,NA,NA,NA,NA,NA,NA,NA,NA,NA,NA,NA,NA,NA,NA,NA,NA,NA,NA,NA,NA,NA,NA
"128","stim/objects/Instruments/drums2.png",154,51,154,0.7,"stim/61.jpeg",6,1,2,NA,"Instruments",1,1,"left","left",0.686999798,1,1,0,1,NA,NA,NA,NA,NA,NA,NA,NA,NA,NA,NA,NA,NA,NA,NA,NA,NA,NA,NA,NA,NA,NA,NA,NA
"16","stim/objects/HouseObjects/cushion2.png",155,51,155,0.3,"stim/62.jpeg",6,2,2,NA,"HouseObjects",2,1,"right","left",0.754999876,0,0,0,1,NA,NA,NA,NA,NA,NA,NA,NA,NA,NA,NA,NA,NA,NA,NA,NA,NA,NA,NA,NA,NA,NA,NA,NA
"194","stim/objects/Instruments/guitarcase.png",156,51,156,0.3,"stim/51.jpeg",5,1,2,NA,"Instruments",1,1,"left","left",0.610999823,1,1,0,1,NA,NA,NA,NA,NA,NA,NA,NA,NA,NA,NA,NA,NA,NA,NA,NA,NA,NA,NA,NA,NA,NA,NA,NA
"154","stim/objects/Instruments/electricguitar2.png",157,51,157,0.7,"stim/63.jpeg",6,3,2,NA,"Instruments",1,3,"left","",NA,0,0,0,1,NA,NA,NA,NA,NA,NA,NA,NA,NA,NA,NA,NA,NA,NA,NA,NA,NA,NA,NA,NA,NA,NA,NA,NA
"86","stim/objects/HouseObjects/glass2.png",158,51,158,0.9,"stim/14.jpeg",1,4,3,NA,"HouseObjects",2,3,"right","right",0.637999773,1,1,0,1,NA,NA,NA,NA,NA,NA,NA,NA,NA,NA,NA,NA,NA,NA,NA,NA,NA,NA,NA,NA,NA,NA,NA,NA
"147","stim/objects/Instruments/electricguitar.png",159,51,159,0.5,"stim/33.jpeg",3,3,1,NA,"Instruments",1,4,"left","left",0.768999815,1,1,0,1,NA,NA,NA,NA,NA,NA,NA,NA,NA,NA,NA,NA,NA,NA,NA,NA,NA,NA,NA,NA,NA,NA,NA,NA
"78","stim/objects/HouseObjects/glass.png",160,51,160,0.5,"stim/44.jpeg",4,4,1,NA,"HouseObjects",2,3,"right","left",0.623999834,0,0,0,1,NA,NA,NA,NA,NA,NA,NA,NA,NA,NA,NA,NA,NA,NA,NA,NA,NA,NA,NA,NA,NA,NA,NA,NA
"32","stim/objects/HouseObjects/doormat2.png",161,51,161,0.3,"stim/64.jpeg",6,4,2,NA,"HouseObjects",2,2,"right","left",0.751999855,0,0,0,1,NA,NA,NA,NA,NA,NA,NA,NA,NA,NA,NA,NA,NA,NA,NA,NA,NA,NA,NA,NA,NA,NA,NA,NA
"21","stim/objects/HouseObjects/dishsoap.png",162,51,162,0.5,"stim/33.jpeg",3,3,1,NA,"HouseObjects",2,3,"right","left",0.704999924,0,0,0,1,NA,NA,NA,NA,NA,NA,NA,NA,NA,NA,NA,NA,NA,NA,NA,NA,NA,NA,NA,NA,NA,NA,NA,NA
"228","stim/objects/Instruments/harp2.png",163,51,163,0.9,"stim/23.jpeg",2,3,3,NA,"Instruments",1,3,"left","left",0.603999853,1,1,0,1,NA,NA,NA,NA,NA,NA,NA,NA,NA,NA,NA,NA,NA,NA,NA,NA,NA,NA,NA,NA,NA,NA,NA,NA
"118","stim/objects/HouseObjects/handvacuum.png",164,51,164,0.7,"stim/54.jpeg",5,4,2,NA,"HouseObjects",2,3,"right","left",0.870999813,0,0,0,1,NA,NA,NA,NA,NA,NA,NA,NA,NA,NA,NA,NA,NA,NA,NA,NA,NA,NA,NA,NA,NA,NA,NA,NA
"12","stim/objects/HouseObjects/cushion.png",165,51,165,0.5,"stim/32.jpeg",3,2,1,NA,"HouseObjects",2,1,"right","right",0.687999964,1,1,0,1,NA,NA,NA,NA,NA,NA,NA,NA,NA,NA,NA,NA,NA,NA,NA,NA,NA,NA,NA,NA,NA,NA,NA,NA
"29","stim/objects/HouseObjects/doormat.png",166,51,166,0.5,"stim/34.jpeg",3,4,1,NA,"HouseObjects",2,1,"right","right",0.852999926,1,1,0,1,NA,NA,NA,NA,NA,NA,NA,NA,NA,NA,NA,NA,NA,NA,NA,NA,NA,NA,NA,NA,NA,NA,NA,NA
"102","stim/objects/HouseObjects/hairdryer.png",167,51,167,0.7,"stim/52.jpeg",5,2,2,NA,"HouseObjects",2,3,"right","right",0.747999907,1,1,0,1,NA,NA,NA,NA,NA,NA,NA,NA,NA,NA,NA,NA,NA,NA,NA,NA,NA,NA,NA,NA,NA,NA,NA,NA
"219","stim/objects/Instruments/harp.png",168,51,168,0.3,"stim/53.jpeg",5,3,2,NA,"Instruments",1,4,"left","right",0.727999926,0,0,0,1,NA,NA,NA,NA,NA,NA,NA,NA,NA,NA,NA,NA,NA,NA,NA,NA,NA,NA,NA,NA,NA,NA,NA,NA
"79","stim/objects/HouseObjects/glass.png",169,51,169,0.5,"stim/44.jpeg",4,4,1,NA,"HouseObjects",2,3,"right","left",0.663999796,0,0,0,1,NA,NA,NA,NA,NA,NA,NA,NA,NA,NA,NA,NA,NA,NA,NA,NA,NA,NA,NA,NA,NA,NA,NA,NA
"40","stim/objects/HouseObjects/dustpan2.png",170,51,170,0.9,"stim/11.jpeg",1,1,3,NA,"HouseObjects",2,1,"right","right",0.738000154,1,1,0,1,NA,NA,NA,NA,NA,NA,NA,NA,NA,NA,NA,NA,NA,NA,NA,NA,NA,NA,NA,NA,NA,NA,NA,NA
"41","stim/objects/HouseObjects/dustpan2.png",171,51,171,0.9,"stim/11.jpeg",1,1,3,NA,"HouseObjects",2,3,"right","left",0.801999807,0,0,0,1,NA,NA,NA,NA,NA,NA,NA,NA,NA,NA,NA,NA,NA,NA,NA,NA,NA,NA,NA,NA,NA,NA,NA,NA
"42","stim/objects/HouseObjects/dustpan2.png",172,51,172,0.9,"stim/11.jpeg",1,1,3,NA,"HouseObjects",2,4,"right","right",0.569999933,1,1,0,1,NA,NA,NA,NA,NA,NA,NA,NA,NA,NA,NA,NA,NA,NA,NA,NA,NA,NA,NA,NA,NA,NA,NA,NA
"160","stim/objects/Instruments/flute.png",173,51,173,0.5,"stim/34.jpeg",3,4,1,NA,"Instruments",1,3,"left","left",0.755999804,1,1,0,1,NA,NA,NA,NA,NA,NA,NA,NA,NA,NA,NA,NA,NA,NA,NA,NA,NA,NA,NA,NA,NA,NA,NA,NA
"59","stim/objects/HouseObjects/flyswatter2.png",174,51,174,0.9,"stim/12.jpeg",1,2,3,NA,"HouseObjects",2,2,"right","right",0.571999788,1,1,0,1,NA,NA,NA,NA,NA,NA,NA,NA,NA,NA,NA,NA,NA,NA,NA,NA,NA,NA,NA,NA,NA,NA,NA,NA
"129","stim/objects/Instruments/drums2.png",175,51,175,0.7,"stim/61.jpeg",6,1,2,NA,"Instruments",1,1,"left","left",0.609999895,1,1,0,1,NA,NA,NA,NA,NA,NA,NA,NA,NA,NA,NA,NA,NA,NA,NA,NA,NA,NA,NA,NA,NA,NA,NA,NA
"178","stim/objects/Instruments/frenchhorn.png",176,51,176,0.5,"stim/42.jpeg",4,2,1,NA,"Instruments",1,3,"left","left",0.645999908,1,1,0,1,NA,NA,NA,NA,NA,NA,NA,NA,NA,NA,NA,NA,NA,NA,NA,NA,NA,NA,NA,NA,NA,NA,NA,NA
"148","stim/objects/Instruments/electricguitar.png",177,51,177,0.5,"stim/33.jpeg",3,3,1,NA,"Instruments",1,1,"left","left",0.618999958,1,1,0,1,NA,NA,NA,NA,NA,NA,NA,NA,NA,NA,NA,NA,NA,NA,NA,NA,NA,NA,NA,NA,NA,NA,NA,NA
"206","stim/objects/Instruments/harmonica.png",178,51,178,0.3,"stim/52.jpeg",5,2,2,NA,"Instruments",1,1,"left","left",0.654999733,1,1,0,1,NA,NA,NA,NA,NA,NA,NA,NA,NA,NA,NA,NA,NA,NA,NA,NA,NA,NA,NA,NA,NA,NA,NA,NA
"93","stim/objects/HouseObjects/glassmop.png",179,51,179,0.7,"stim/51.jpeg",5,1,2,NA,"HouseObjects",2,3,"right","left",0.638999939,0,0,0,1,NA,NA,NA,NA,NA,NA,NA,NA,NA,NA,NA,NA,NA,NA,NA,NA,NA,NA,NA,NA,NA,NA,NA,NA
"71","stim/objects/HouseObjects/garbagebin2.png",180,51,180,0.9,"stim/13.jpeg",1,3,3,NA,"HouseObjects",2,2,"right","right",0.484999895,1,1,0,1,NA,NA,NA,NA,NA,NA,NA,NA,NA,NA,NA,NA,NA,NA,NA,NA,NA,NA,NA,NA,NA,NA,NA,NA
"215","stim/objects/Instruments/harmonica2.png",181,51,181,0.9,"stim/22.jpeg",2,2,3,NA,"Instruments",1,4,"left","left",0.771000147,1,1,0,1,NA,NA,NA,NA,NA,NA,NA,NA,NA,NA,NA,NA,NA,NA,NA,NA,NA,NA,NA,NA,NA,NA,NA,NA
"149","stim/objects/Instruments/electricguitar.png",182,51,182,0.5,"stim/33.jpeg",3,3,1,NA,"Instruments",1,3,"left","right",0.912999868,0,0,0,1,NA,NA,NA,NA,NA,NA,NA,NA,NA,NA,NA,NA,NA,NA,NA,NA,NA,NA,NA,NA,NA,NA,NA,NA
"172","stim/objects/Instruments/flutetrans.png",183,51,183,0.5,"stim/41.jpeg",4,1,1,NA,"Instruments",1,2,"left","left",0.821000099,1,1,0,1,NA,NA,NA,NA,NA,NA,NA,NA,NA,NA,NA,NA,NA,NA,NA,NA,NA,NA,NA,NA,NA,NA,NA,NA
"174","stim/objects/Instruments/flutetrans2.png",184,51,184,0.1,"stim/11.jpeg",1,1,3,NA,"Instruments",1,3,"left","right",0.598999977,0,0,0,1,NA,NA,NA,NA,NA,NA,NA,NA,NA,NA,NA,NA,NA,NA,NA,NA,NA,NA,NA,NA,NA,NA,NA,NA
"199","stim/objects/Instruments/guitarcase2.png",185,51,185,0.9,"stim/21.jpeg",2,1,3,NA,"Instruments",1,4,"left","",NA,0,0,0,1,NA,NA,NA,NA,NA,NA,NA,NA,NA,NA,NA,NA,NA,NA,NA,NA,NA,NA,NA,NA,NA,NA,NA,NA
"141","stim/objects/Instruments/electricdrumset2.png",186,51,186,0.7,"stim/62.jpeg",6,2,2,NA,"Instruments",1,3,"left","right",0.820999861,0,0,0,1,NA,NA,NA,NA,NA,NA,NA,NA,NA,NA,NA,NA,NA,NA,NA,NA,NA,NA,NA,NA,NA,NA,NA,NA
"168","stim/objects/Instruments/flute2.png",187,51,187,0.7,"stim/64.jpeg",6,4,2,NA,"Instruments",1,2,"left","left",0.928999901,1,1,0,1,NA,NA,NA,NA,NA,NA,NA,NA,NA,NA,NA,NA,NA,NA,NA,NA,NA,NA,NA,NA,NA,NA,NA,NA
"124","stim/objects/Instruments/drums.png",188,51,188,0.5,"stim/31.jpeg",3,1,1,NA,"Instruments",1,2,"left","right",0.767999887,0,0,0,1,NA,NA,NA,NA,NA,NA,NA,NA,NA,NA,NA,NA,NA,NA,NA,NA,NA,NA,NA,NA,NA,NA,NA,NA
"37","stim/objects/HouseObjects/dustpan.png",189,51,189,0.5,"stim/41.jpeg",4,1,1,NA,"HouseObjects",2,1,"right","left",0.91899991,0,0,0,1,NA,NA,NA,NA,NA,NA,NA,NA,NA,NA,NA,NA,NA,NA,NA,NA,NA,NA,NA,NA,NA,NA,NA,NA
"72","stim/objects/HouseObjects/garbagebin2.png",190,51,190,0.9,"stim/13.jpeg",1,3,3,NA,"HouseObjects",2,4,"right","right",0.707999945,1,1,0,1,NA,NA,NA,NA,NA,NA,NA,NA,NA,NA,NA,NA,NA,NA,NA,NA,NA,NA,NA,NA,NA,NA,NA,NA
"155","stim/objects/Instruments/electricguitar2.png",191,51,191,0.7,"stim/63.jpeg",6,3,2,NA,"Instruments",1,3,"left","",NA,0,0,0,1,NA,NA,NA,NA,NA,NA,NA,NA,NA,NA,NA,NA,NA,NA,NA,NA,NA,NA,NA,NA,NA,NA,NA,NA
"43","stim/objects/HouseObjects/dustpan2.png",192,51,192,0.9,"stim/11.jpeg",1,1,3,NA,"HouseObjects",2,2,"right","right",0.536000013,1,1,0,1,NA,NA,NA,NA,NA,NA,NA,NA,NA,NA,NA,NA,NA,NA,NA,NA,NA,NA,NA,NA,NA,NA,NA,NA
"108","stim/objects/HouseObjects/handbrush.png",193,51,193,0.7,"stim/53.jpeg",5,3,2,NA,"HouseObjects",2,2,"right","right",0.821999788,1,1,0,1,NA,NA,NA,NA,NA,NA,NA,NA,NA,NA,NA,NA,NA,NA,NA,NA,NA,NA,NA,NA,NA,NA,NA,NA
"237","stim/objects/Instruments/hihat2.png",194,51,194,0.9,"stim/24.jpeg",2,4,3,NA,"Instruments",1,4,"left","right",0.556999922,0,0,0,1,NA,NA,NA,NA,NA,NA,NA,NA,NA,NA,NA,NA,NA,NA,NA,NA,NA,NA,NA,NA,NA,NA,NA,NA
"51","stim/objects/HouseObjects/flyswatter.png",195,51,195,0.5,"stim/42.jpeg",4,2,1,NA,"HouseObjects",2,2,"right","right",0.65899992,1,1,0,1,NA,NA,NA,NA,NA,NA,NA,NA,NA,NA,NA,NA,NA,NA,NA,NA,NA,NA,NA,NA,NA,NA,NA,NA
"109","stim/objects/HouseObjects/handbrush.png",196,51,196,0.7,"stim/53.jpeg",5,3,2,NA,"HouseObjects",2,3,"right","left",0.854000092,0,0,0,1,NA,NA,NA,NA,NA,NA,NA,NA,NA,NA,NA,NA,NA,NA,NA,NA,NA,NA,NA,NA,NA,NA,NA,NA
"110","stim/objects/HouseObjects/handbrush.png",197,51,197,0.7,"stim/53.jpeg",5,3,2,NA,"HouseObjects",2,3,"right","right",0.688999891,1,1,0,1,NA,NA,NA,NA,NA,NA,NA,NA,NA,NA,NA,NA,NA,NA,NA,NA,NA,NA,NA,NA,NA,NA,NA,NA
"191","stim/objects/Instruments/grandpiano.png",198,51,198,0.5,"stim/44.jpeg",4,4,1,NA,"Instruments",1,3,"left","",NA,0,0,0,1,NA,NA,NA,NA,NA,NA,NA,NA,NA,NA,NA,NA,NA,NA,NA,NA,NA,NA,NA,NA,NA,NA,NA,NA
"103","stim/objects/HouseObjects/hairdryer.png",199,51,199,0.7,"stim/52.jpeg",5,2,2,NA,"HouseObjects",2,1,"right","left",0.77699995,0,0,0,1,NA,NA,NA,NA,NA,NA,NA,NA,NA,NA,NA,NA,NA,NA,NA,NA,NA,NA,NA,NA,NA,NA,NA,NA
"173","stim/objects/Instruments/flutetrans.png",200,51,200,0.5,"stim/41.jpeg",4,1,1,NA,"Instruments",1,2,"left","right",0.503000021,0,0,0,1,NA,NA,NA,NA,NA,NA,NA,NA,NA,NA,NA,NA,NA,NA,NA,NA,NA,NA,NA,NA,NA,NA,NA,NA
"142","stim/objects/Instruments/electricdrumset2.png",201,51,201,0.7,"stim/62.jpeg",6,2,2,NA,"Instruments",1,3,"left","left",0.654999971,1,1,0,1,NA,NA,NA,NA,NA,NA,NA,NA,NA,NA,NA,NA,NA,NA,NA,NA,NA,NA,NA,NA,NA,NA,NA,NA
"119","stim/objects/HouseObjects/handvacuum.png",202,51,202,0.7,"stim/54.jpeg",5,4,2,NA,"HouseObjects",2,4,"right","right",0.623000145,1,1,0,1,NA,NA,NA,NA,NA,NA,NA,NA,NA,NA,NA,NA,NA,NA,NA,NA,NA,NA,NA,NA,NA,NA,NA,NA
"8","stim/objects/HouseObjects/coffee2.png",203,51,203,0.3,"stim/61.jpeg",6,1,2,NA,"HouseObjects",2,3,"right","left",0.610999823,0,0,0,1,NA,NA,NA,NA,NA,NA,NA,NA,NA,NA,NA,NA,NA,NA,NA,NA,NA,NA,NA,NA,NA,NA,NA,NA
"96","stim/objects/HouseObjects/glassmop2.png",204,51,204,0.1,"stim/21.jpeg",2,1,3,NA,"HouseObjects",2,3,"right","left",0.559000015,0,0,0,1,NA,NA,NA,NA,NA,NA,NA,NA,NA,NA,NA,NA,NA,NA,NA,NA,NA,NA,NA,NA,NA,NA,NA,NA
"87","stim/objects/HouseObjects/glass2.png",205,51,205,0.9,"stim/14.jpeg",1,4,3,NA,"HouseObjects",2,1,"right","right",0.714999914,1,1,0,1,NA,NA,NA,NA,NA,NA,NA,NA,NA,NA,NA,NA,NA,NA,NA,NA,NA,NA,NA,NA,NA,NA,NA,NA
"73","stim/objects/HouseObjects/garbagebin2.png",206,51,206,0.9,"stim/13.jpeg",1,3,3,NA,"HouseObjects",2,2,"right","right",0.636999846,1,1,0,1,NA,NA,NA,NA,NA,NA,NA,NA,NA,NA,NA,NA,NA,NA,NA,NA,NA,NA,NA,NA,NA,NA,NA,NA
"130","stim/objects/Instruments/drums2.png",207,51,207,0.7,"stim/61.jpeg",6,1,2,NA,"Instruments",1,4,"left","right",0.672999859,0,0,0,1,NA,NA,NA,NA,NA,NA,NA,NA,NA,NA,NA,NA,NA,NA,NA,NA,NA,NA,NA,NA,NA,NA,NA,NA
"94","stim/objects/HouseObjects/glassmop.png",208,51,208,0.7,"stim/51.jpeg",5,1,2,NA,"HouseObjects",2,4,"right","right",0.768000126,1,1,0,1,NA,NA,NA,NA,NA,NA,NA,NA,NA,NA,NA,NA,NA,NA,NA,NA,NA,NA,NA,NA,NA,NA,NA,NA
"44","stim/objects/HouseObjects/dustpan2.png",209,51,209,0.9,"stim/11.jpeg",1,1,3,NA,"HouseObjects",2,4,"right","right",0.540999889,1,1,0,1,NA,NA,NA,NA,NA,NA,NA,NA,NA,NA,NA,NA,NA,NA,NA,NA,NA,NA,NA,NA,NA,NA,NA,NA
"125","stim/objects/Instruments/drums.png",210,51,210,0.5,"stim/31.jpeg",3,1,1,NA,"Instruments",1,1,"left","left",0.672999859,1,1,0,1,NA,NA,NA,NA,NA,NA,NA,NA,NA,NA,NA,NA,NA,NA,NA,NA,NA,NA,NA,NA,NA,NA,NA,NA
"13","stim/objects/HouseObjects/cushion.png",211,51,211,0.5,"stim/32.jpeg",3,2,1,NA,"HouseObjects",2,4,"right","right",0.787999868,1,1,0,1,NA,NA,NA,NA,NA,NA,NA,NA,NA,NA,NA,NA,NA,NA,NA,NA,NA,NA,NA,NA,NA,NA,NA,NA
"238","stim/objects/Instruments/hihat2.png",212,51,212,0.9,"stim/24.jpeg",2,4,3,NA,"Instruments",1,3,"left","left",0.605000019,1,1,0,1,NA,NA,NA,NA,NA,NA,NA,NA,NA,NA,NA,NA,NA,NA,NA,NA,NA,NA,NA,NA,NA,NA,NA,NA
"200","stim/objects/Instruments/guitarcase2.png",213,51,213,0.9,"stim/21.jpeg",2,1,3,NA,"Instruments",1,2,"left","left",0.589999914,1,1,0,1,NA,NA,NA,NA,NA,NA,NA,NA,NA,NA,NA,NA,NA,NA,NA,NA,NA,NA,NA,NA,NA,NA,NA,NA
"201","stim/objects/Instruments/guitarcase2.png",214,51,214,0.9,"stim/21.jpeg",2,1,3,NA,"Instruments",1,1,"left","left",0.657999992,1,1,0,1,NA,NA,NA,NA,NA,NA,NA,NA,NA,NA,NA,NA,NA,NA,NA,NA,NA,NA,NA,NA,NA,NA,NA,NA
"60","stim/objects/HouseObjects/flyswatter2.png",215,51,215,0.9,"stim/12.jpeg",1,2,3,NA,"HouseObjects",2,1,"right","right",0.612999916,1,1,0,1,NA,NA,NA,NA,NA,NA,NA,NA,NA,NA,NA,NA,NA,NA,NA,NA,NA,NA,NA,NA,NA,NA,NA,NA
"202","stim/objects/Instruments/guitarcase2.png",216,51,216,0.9,"stim/21.jpeg",2,1,3,NA,"Instruments",1,1,"left","left",0.539000034,1,1,0,1,NA,NA,NA,NA,NA,NA,NA,NA,NA,NA,NA,NA,NA,NA,NA,NA,NA,NA,NA,NA,NA,NA,NA,NA
"161","stim/objects/Instruments/flute.png",217,51,217,0.5,"stim/34.jpeg",3,4,1,NA,"Instruments",1,1,"left","right",0.771999836,0,0,0,1,NA,NA,NA,NA,NA,NA,NA,NA,NA,NA,NA,NA,NA,NA,NA,NA,NA,NA,NA,NA,NA,NA,NA,NA
"131","stim/objects/Instruments/drums2.png",218,51,218,0.7,"stim/61.jpeg",6,1,2,NA,"Instruments",1,3,"left","left",0.768000126,1,1,0,1,NA,NA,NA,NA,NA,NA,NA,NA,NA,NA,NA,NA,NA,NA,NA,NA,NA,NA,NA,NA,NA,NA,NA,NA
"192","stim/objects/Instruments/grandpiano2.png",219,51,219,0.1,"stim/14.jpeg",1,4,3,NA,"Instruments",1,2,"left","right",0.608999968,0,0,0,1,NA,NA,NA,NA,NA,NA,NA,NA,NA,NA,NA,NA,NA,NA,NA,NA,NA,NA,NA,NA,NA,NA,NA,NA
"111","stim/objects/HouseObjects/handbrush.png",220,51,220,0.7,"stim/53.jpeg",5,3,2,NA,"HouseObjects",2,3,"right","right",0.833999872,1,1,0,1,NA,NA,NA,NA,NA,NA,NA,NA,NA,NA,NA,NA,NA,NA,NA,NA,NA,NA,NA,NA,NA,NA,NA,NA
"179","stim/objects/Instruments/frenchhorn.png",221,51,221,0.5,"stim/42.jpeg",4,2,1,NA,"Instruments",1,4,"left","right",0.650999784,0,0,0,1,NA,NA,NA,NA,NA,NA,NA,NA,NA,NA,NA,NA,NA,NA,NA,NA,NA,NA,NA,NA,NA,NA,NA,NA
"45","stim/objects/HouseObjects/dustpan2.png",222,51,222,0.9,"stim/11.jpeg",1,1,3,NA,"HouseObjects",2,3,"right","right",0.586999893,1,1,0,1,NA,NA,NA,NA,NA,NA,NA,NA,NA,NA,NA,NA,NA,NA,NA,NA,NA,NA,NA,NA,NA,NA,NA,NA
"195","stim/objects/Instruments/guitarcase.png",223,51,223,0.3,"stim/51.jpeg",5,1,2,NA,"Instruments",1,3,"left","left",0.737999916,1,1,0,1,NA,NA,NA,NA,NA,NA,NA,NA,NA,NA,NA,NA,NA,NA,NA,NA,NA,NA,NA,NA,NA,NA,NA,NA
"143","stim/objects/Instruments/electricdrumset2.png",224,51,224,0.7,"stim/62.jpeg",6,2,2,NA,"Instruments",1,4,"left","right",0.892999887,0,0,0,1,NA,NA,NA,NA,NA,NA,NA,NA,NA,NA,NA,NA,NA,NA,NA,NA,NA,NA,NA,NA,NA,NA,NA,NA
"184","stim/objects/Instruments/gong.png",225,51,225,0.5,"stim/43.jpeg",4,3,1,NA,"Instruments",1,2,"left","right",0.742000103,0,0,0,1,NA,NA,NA,NA,NA,NA,NA,NA,NA,NA,NA,NA,NA,NA,NA,NA,NA,NA,NA,NA,NA,NA,NA,NA
"239","stim/objects/Instruments/hihat2.png",226,51,226,0.9,"stim/24.jpeg",2,4,3,NA,"Instruments",1,1,"left","left",0.579999924,1,1,0,1,NA,NA,NA,NA,NA,NA,NA,NA,NA,NA,NA,NA,NA,NA,NA,NA,NA,NA,NA,NA,NA,NA,NA,NA
"46","stim/objects/HouseObjects/dustpan2.png",227,51,227,0.9,"stim/11.jpeg",1,1,3,NA,"HouseObjects",2,1,"right","right",0.857000113,1,1,0,1,NA,NA,NA,NA,NA,NA,NA,NA,NA,NA,NA,NA,NA,NA,NA,NA,NA,NA,NA,NA,NA,NA,NA,NA
"207","stim/objects/Instruments/harmonica.png",228,51,228,0.3,"stim/52.jpeg",5,2,2,NA,"Instruments",1,2,"left","right",0.727999926,0,0,0,1,NA,NA,NA,NA,NA,NA,NA,NA,NA,NA,NA,NA,NA,NA,NA,NA,NA,NA,NA,NA,NA,NA,NA,NA
"203","stim/objects/Instruments/guitarcase2.png",229,51,229,0.9,"stim/21.jpeg",2,1,3,NA,"Instruments",1,2,"left","left",0.55099988,1,1,0,1,NA,NA,NA,NA,NA,NA,NA,NA,NA,NA,NA,NA,NA,NA,NA,NA,NA,NA,NA,NA,NA,NA,NA,NA
"185","stim/objects/Instruments/gong.png",230,51,230,0.5,"stim/43.jpeg",4,3,1,NA,"Instruments",1,4,"left","right",0.670000076,0,0,0,1,NA,NA,NA,NA,NA,NA,NA,NA,NA,NA,NA,NA,NA,NA,NA,NA,NA,NA,NA,NA,NA,NA,NA,NA
"88","stim/objects/HouseObjects/glass2.png",231,51,231,0.9,"stim/14.jpeg",1,4,3,NA,"HouseObjects",2,4,"right","right",0.506000042,1,1,0,1,NA,NA,NA,NA,NA,NA,NA,NA,NA,NA,NA,NA,NA,NA,NA,NA,NA,NA,NA,NA,NA,NA,NA,NA
"156","stim/objects/Instruments/electricguitar2.png",232,51,232,0.7,"stim/63.jpeg",6,3,2,NA,"Instruments",1,4,"left","",NA,0,0,0,1,NA,NA,NA,NA,NA,NA,NA,NA,NA,NA,NA,NA,NA,NA,NA,NA,NA,NA,NA,NA,NA,NA,NA,NA
"204","stim/objects/Instruments/guitarcase2.png",233,51,233,0.9,"stim/21.jpeg",2,1,3,NA,"Instruments",1,2,"left","left",0.530999899,1,1,0,1,NA,NA,NA,NA,NA,NA,NA,NA,NA,NA,NA,NA,NA,NA,NA,NA,NA,NA,NA,NA,NA,NA,NA,NA
"144","stim/objects/Instruments/electricdrumset2.png",234,51,234,0.7,"stim/62.jpeg",6,2,2,NA,"Instruments",1,1,"left","left",0.738999844,1,1,0,1,NA,NA,NA,NA,NA,NA,NA,NA,NA,NA,NA,NA,NA,NA,NA,NA,NA,NA,NA,NA,NA,NA,NA,NA
"216","stim/objects/Instruments/harmonica2.png",235,51,235,0.9,"stim/22.jpeg",2,2,3,NA,"Instruments",1,1,"left","left",0.534999847,1,1,0,1,NA,NA,NA,NA,NA,NA,NA,NA,NA,NA,NA,NA,NA,NA,NA,NA,NA,NA,NA,NA,NA,NA,NA,NA
"186","stim/objects/Instruments/gong2.png",236,51,236,0.1,"stim/13.jpeg",1,3,3,NA,"Instruments",1,2,"left","right",0.572000027,0,0,0,1,NA,NA,NA,NA,NA,NA,NA,NA,NA,NA,NA,NA,NA,NA,NA,NA,NA,NA,NA,NA,NA,NA,NA,NA
"95","stim/objects/HouseObjects/glassmop.png",237,51,237,0.7,"stim/51.jpeg",5,1,2,NA,"HouseObjects",2,4,"right","right",0.72300005,1,1,0,1,NA,NA,NA,NA,NA,NA,NA,NA,NA,NA,NA,NA,NA,NA,NA,NA,NA,NA,NA,NA,NA,NA,NA,NA
"74","stim/objects/HouseObjects/garbagebin2.png",238,51,238,0.9,"stim/13.jpeg",1,3,3,NA,"HouseObjects",2,3,"right","right",0.779999971,1,1,0,1,NA,NA,NA,NA,NA,NA,NA,NA,NA,NA,NA,NA,NA,NA,NA,NA,NA,NA,NA,NA,NA,NA,NA,NA
"132","stim/objects/Instruments/drums2.png",239,51,239,0.7,"stim/61.jpeg",6,1,2,NA,"Instruments",1,2,"left","right",0.648999929,0,0,0,1,NA,NA,NA,NA,NA,NA,NA,NA,NA,NA,NA,NA,NA,NA,NA,NA,NA,NA,NA,NA,NA,NA,NA,NA
"240","stim/objects/Instruments/hihat2.png",240,51,240,0.9,"stim/24.jpeg",2,4,3,NA,"Instruments",1,2,"left","left",0.669999838,1,1,0,1,NA,NA,NA,NA,NA,NA,NA,NA,NA,NA,NA,NA,NA,NA,NA,NA,NA,NA,NA,NA,NA,NA,NA,NA
"261","stim/objects/HouseObjects/bottle4.png",248,51,241,0.3,"stim/63.jpeg",6,3,2,1,"HouseObjects",2,2,"right","",NA,0,0,1,0,134,51,1,0.3,2,"stim/63.jpeg",6,3,"stim/63.jpeg",2,"left",1.118000031,4,1,3.376000166,1,1.539999962,134,1,0,0,0,0,0
"524","stim/objects/Instruments/oboe3.png",249,51,242,0.9,"stim/21.jpeg",2,1,3,2,"Instruments",1,1,"left","left",0.601999998,1,1,1,0,NA,NA,NA,NA,NA,NA,NA,NA,NA,NA,NA,NA,NA,NA,NA,NA,NA,NA,NA,NA,NA,NA,NA,NA
"386","stim/objects/HouseObjects/saw3.png",250,51,243,0.5,"stim/44.jpeg",4,4,1,1,"HouseObjects",2,2,"right","left",0.741999865,0,0,1,0,145,51,1,0.5,2,"stim/44.jpeg",4,4,"stim/44.jpeg",2,"left",1.389000177,4,3,2.427000046,1,2.174999952,145,1,0,0,0,0,0
"291","stim/objects/HouseObjects/knife3.png",251,51,244,0.9,"stim/12.jpeg",1,2,3,2,"HouseObjects",2,2,"right","right",0.671999931,1,1,1,0,NA,NA,NA,NA,NA,NA,NA,NA,NA,NA,NA,NA,NA,NA,NA,NA,NA,NA,NA,NA,NA,NA,NA,NA
"473","stim/objects/Instruments/metronome3.png",252,51,245,0.9,"stim/21.jpeg",2,1,3,2,"Instruments",1,2,"left","left",0.513000011,1,1,1,0,NA,NA,NA,NA,NA,NA,NA,NA,NA,NA,NA,NA,NA,NA,NA,NA,NA,NA,NA,NA,NA,NA,NA,NA
"474","stim/objects/Instruments/metronome3.png",253,51,246,0.9,"stim/21.jpeg",2,1,3,2,"Instruments",1,1,"left","left",0.520999908,1,1,1,0,NA,NA,NA,NA,NA,NA,NA,NA,NA,NA,NA,NA,NA,NA,NA,NA,NA,NA,NA,NA,NA,NA,NA,NA
"262","stim/objects/HouseObjects/broom3.png",254,51,247,0.5,"stim/41.jpeg",4,1,1,2,"HouseObjects",2,4,"right","right",0.654999971,1,1,1,0,NA,NA,NA,NA,NA,NA,NA,NA,NA,NA,NA,NA,NA,NA,NA,NA,NA,NA,NA,NA,NA,NA,NA,NA
"525","stim/objects/Instruments/oboe3.png",255,51,248,0.9,"stim/24.jpeg",2,4,3,2,"Instruments",1,4,"left","left",0.553999901,1,1,1,0,NA,NA,NA,NA,NA,NA,NA,NA,NA,NA,NA,NA,NA,NA,NA,NA,NA,NA,NA,NA,NA,NA,NA,NA
"411","stim/objects/Instruments/acousticguitar4.png",256,51,249,0.3,"stim/53.jpeg",5,3,2,1,"Instruments",1,3,"left","right",0.832999945,0,0,1,0,92,51,1,0.3,1,"stim/53.jpeg",5,3,"stim/53.jpeg",3,"right",3.137000084,1,4,2.46600008,1,2.60800004,92,0,0,NA,0,NA,0
"491","stim/objects/Instruments/musicsheet3.png",257,51,250,0.9,"stim/24.jpeg",2,4,3,2,"Instruments",1,2,"left","left",0.57799983,1,1,1,0,NA,NA,NA,NA,NA,NA,NA,NA,NA,NA,NA,NA,NA,NA,NA,NA,NA,NA,NA,NA,NA,NA,NA,NA
"440","stim/objects/Instruments/doublebass3.png",258,51,251,0.7,"stim/64.jpeg",6,4,2,2,"Instruments",1,3,"left","left",0.842000008,1,1,1,0,NA,NA,NA,NA,NA,NA,NA,NA,NA,NA,NA,NA,NA,NA,NA,NA,NA,NA,NA,NA,NA,NA,NA,NA
"380","stim/objects/HouseObjects/rubbergloves3.png",259,51,252,0.5,"stim/34.jpeg",3,4,1,1,"HouseObjects",2,3,"right","left",0.805999994,0,0,1,0,137,51,1,0.5,1,"stim/34.jpeg",3,4,"stim/34.jpeg",3,"right",1.75999999,1,3,2.003000021,2,1.150000095,137,0,0,NA,0,NA,0
"492","stim/objects/Instruments/musicsheet3.png",260,51,253,0.9,"stim/23.jpeg",2,3,3,2,"Instruments",1,4,"left","left",0.674000025,1,1,1,0,NA,NA,NA,NA,NA,NA,NA,NA,NA,NA,NA,NA,NA,NA,NA,NA,NA,NA,NA,NA,NA,NA,NA,NA
"526","stim/objects/Instruments/oboe3.png",261,51,254,0.9,"stim/23.jpeg",2,3,3,2,"Instruments",1,3,"left","left",0.576999903,1,1,1,0,NA,NA,NA,NA,NA,NA,NA,NA,NA,NA,NA,NA,NA,NA,NA,NA,NA,NA,NA,NA,NA,NA,NA,NA
"561","stim/objects/Instruments/trumpet3.png",262,51,255,0.3,"stim/51.jpeg",5,1,2,1,"Instruments",1,2,"left","right",0.785999775,0,0,1,0,159,51,1,0.3,1,"stim/51.jpeg",5,1,"stim/51.jpeg",2,"left",2.190000057,1,1,1.774999857,2,2.55099988,159,1,1,1,1,1,0
"523","stim/objects/Instruments/musicstand4.png",263,51,256,0.1,"stim/14.jpeg",1,4,3,1,"Instruments",1,2,"left","right",0.588999748,0,0,1,0,28,51,1,0.1,1,"stim/14.jpeg",1,4,"stim/14.jpeg",2,"left",1.853999853,4,4,5.882999897,3,8.024999857,28,1,1,1,0,0,0
"275","stim/objects/HouseObjects/clothespin3.png",264,51,257,0.7,"stim/54.jpeg",5,4,2,2,"HouseObjects",2,4,"right","right",0.721999884,1,1,1,0,NA,NA,NA,NA,NA,NA,NA,NA,NA,NA,NA,NA,NA,NA,NA,NA,NA,NA,NA,NA,NA,NA,NA,NA
"293","stim/objects/HouseObjects/knife3.png",265,51,258,0.9,"stim/14.jpeg",1,4,3,2,"HouseObjects",2,1,"right","right",0.599999905,1,1,1,0,NA,NA,NA,NA,NA,NA,NA,NA,NA,NA,NA,NA,NA,NA,NA,NA,NA,NA,NA,NA,NA,NA,NA,NA
"276","stim/objects/HouseObjects/clothespin3.png",266,51,259,0.7,"stim/52.jpeg",5,2,2,2,"HouseObjects",2,1,"right","left",0.803999901,0,0,1,0,NA,NA,NA,NA,NA,NA,NA,NA,NA,NA,NA,NA,NA,NA,NA,NA,NA,NA,NA,NA,NA,NA,NA,NA
"427","stim/objects/Instruments/chime3.png",267,51,260,0.5,"stim/41.jpeg",4,1,1,2,"Instruments",1,2,"left","left",0.773999929,1,1,1,0,NA,NA,NA,NA,NA,NA,NA,NA,NA,NA,NA,NA,NA,NA,NA,NA,NA,NA,NA,NA,NA,NA,NA,NA
"528","stim/objects/Instruments/oboe3.png",268,51,261,0.9,"stim/24.jpeg",2,4,3,2,"Instruments",1,4,"left","left",0.679999828,1,1,1,0,NA,NA,NA,NA,NA,NA,NA,NA,NA,NA,NA,NA,NA,NA,NA,NA,NA,NA,NA,NA,NA,NA,NA,NA
"388","stim/objects/HouseObjects/scale3.png",269,51,262,0.5,"stim/41.jpeg",4,1,1,1,"HouseObjects",2,1,"right","left",0.839999914,0,0,1,0,90,51,1,0.5,2,"stim/41.jpeg",4,1,"stim/41.jpeg",1,"left",2.584000111,2,1,5.549999952,1,0.525000095,90,1,1,1,1,1,0
"325","stim/objects/HouseObjects/match3.png",270,51,263,0.9,"stim/14.jpeg",1,4,3,2,"HouseObjects",2,3,"right","right",0.635999918,1,1,1,0,NA,NA,NA,NA,NA,NA,NA,NA,NA,NA,NA,NA,NA,NA,NA,NA,NA,NA,NA,NA,NA,NA,NA,NA
"545","stim/objects/Instruments/record_player3.png",271,51,264,0.5,"stim/32.jpeg",3,2,1,1,"Instruments",1,1,"left","right",0.743000031,0,0,1,0,131,51,1,0.5,1,"stim/32.jpeg",3,2,"stim/32.jpeg",1,"right",2.51699996,1,3,1.323000193,2,1.983999968,131,0,0,NA,0,NA,0
"494","stim/objects/Instruments/musicsheet3.png",272,51,265,0.9,"stim/22.jpeg",2,2,3,2,"Instruments",1,4,"left","left",0.795000076,1,1,1,0,NA,NA,NA,NA,NA,NA,NA,NA,NA,NA,NA,NA,NA,NA,NA,NA,NA,NA,NA,NA,NA,NA,NA,NA
"566","stim/objects/Instruments/violin4.png",273,51,266,0.9,"stim/24.jpeg",2,4,3,1,"Instruments",1,3,"left","left",0.582999945,1,1,1,0,45,51,1,0.9,1,"stim/24.jpeg",2,4,"stim/24.jpeg",3,"right",2.950000048,1,4,5.484999895,2,2.470000029,45,0,1,NA,0,NA,0
"249","stim/objects/HouseObjects/barbecuelighter4.png",274,51,267,0.7,"stim/51.jpeg",5,1,2,1,"HouseObjects",2,4,"right","right",0.670999765,1,1,1,0,140,51,1,0.7,2,"stim/51.jpeg",5,1,"stim/51.jpeg",4,"left",1.470000029,3,2,3.450000048,2,1.467000008,140,1,0,0,0,0,0
"529","stim/objects/Instruments/oboe3.png",275,51,268,0.9,"stim/22.jpeg",2,2,3,2,"Instruments",1,4,"left","left",0.602999926,1,1,1,0,NA,NA,NA,NA,NA,NA,NA,NA,NA,NA,NA,NA,NA,NA,NA,NA,NA,NA,NA,NA,NA,NA,NA,NA
"294","stim/objects/HouseObjects/knife3.png",276,51,269,0.9,"stim/14.jpeg",1,4,3,2,"HouseObjects",2,2,"right","right",0.592000008,1,1,1,0,NA,NA,NA,NA,NA,NA,NA,NA,NA,NA,NA,NA,NA,NA,NA,NA,NA,NA,NA,NA,NA,NA,NA,NA
"271","stim/objects/HouseObjects/clothesdryingrack3.png",277,51,270,0.7,"stim/54.jpeg",5,4,2,2,"HouseObjects",2,1,"right","right",0.791000128,1,1,1,0,NA,NA,NA,NA,NA,NA,NA,NA,NA,NA,NA,NA,NA,NA,NA,NA,NA,NA,NA,NA,NA,NA,NA,NA
"423","stim/objects/Instruments/bassguitar4.png",278,51,271,0.7,"stim/64.jpeg",6,4,2,1,"Instruments",1,1,"left","left",0.775999784,1,1,1,0,147,51,1,0.7,1,"stim/64.jpeg",6,4,"stim/64.jpeg",1,"right",1.101000071,1,4,2.461999893,2,2.967000008,147,0,1,NA,0,NA,0
"495","stim/objects/Instruments/musicsheet3.png",279,51,272,0.9,"stim/23.jpeg",2,3,3,2,"Instruments",1,1,"left","left",0.575999975,1,1,1,0,NA,NA,NA,NA,NA,NA,NA,NA,NA,NA,NA,NA,NA,NA,NA,NA,NA,NA,NA,NA,NA,NA,NA,NA
"326","stim/objects/HouseObjects/match3.png",280,51,273,0.9,"stim/14.jpeg",1,4,3,2,"HouseObjects",2,3,"right","right",0.620999813,1,1,1,0,NA,NA,NA,NA,NA,NA,NA,NA,NA,NA,NA,NA,NA,NA,NA,NA,NA,NA,NA,NA,NA,NA,NA,NA
"258","stim/objects/HouseObjects/blender4.png",281,51,274,0.3,"stim/62.jpeg",6,2,2,1,"HouseObjects",2,1,"right","left",0.61899972,0,0,1,0,180,51,1,0.3,2,"stim/62.jpeg",6,2,"stim/62.jpeg",1,"right",2.92599988,1,4,2.178000212,3,2.21999979,180,0,0,NA,0,NA,0
"496","stim/objects/Instruments/musicsheet3.png",282,51,275,0.9,"stim/22.jpeg",2,2,3,2,"Instruments",1,3,"left","left",0.722999811,1,1,1,0,NA,NA,NA,NA,NA,NA,NA,NA,NA,NA,NA,NA,NA,NA,NA,NA,NA,NA,NA,NA,NA,NA,NA,NA
"241","stim/objects/HouseObjects/ashtray3.png",283,51,276,0.5,"stim/34.jpeg",3,4,1,2,"HouseObjects",2,2,"right","right",0.693999767,1,1,1,0,NA,NA,NA,NA,NA,NA,NA,NA,NA,NA,NA,NA,NA,NA,NA,NA,NA,NA,NA,NA,NA,NA,NA,NA
"424","stim/objects/Instruments/cello3.png",284,51,277,0.5,"stim/41.jpeg",4,1,1,2,"Instruments",1,4,"left","right",0.634000063,0,0,1,0,NA,NA,NA,NA,NA,NA,NA,NA,NA,NA,NA,NA,NA,NA,NA,NA,NA,NA,NA,NA,NA,NA,NA,NA
"497","stim/objects/Instruments/musicsheet3.png",285,51,278,0.9,"stim/24.jpeg",2,4,3,2,"Instruments",1,2,"left","left",0.587000132,1,1,1,0,NA,NA,NA,NA,NA,NA,NA,NA,NA,NA,NA,NA,NA,NA,NA,NA,NA,NA,NA,NA,NA,NA,NA,NA
"327","stim/objects/HouseObjects/match3.png",286,51,279,0.9,"stim/12.jpeg",1,2,3,2,"HouseObjects",2,1,"right","right",0.553999901,1,1,1,0,NA,NA,NA,NA,NA,NA,NA,NA,NA,NA,NA,NA,NA,NA,NA,NA,NA,NA,NA,NA,NA,NA,NA,NA
"244","stim/objects/HouseObjects/ballofstring3.png",287,51,280,0.5,"stim/32.jpeg",3,2,1,2,"HouseObjects",2,3,"right","right",0.822999954,1,1,1,0,NA,NA,NA,NA,NA,NA,NA,NA,NA,NA,NA,NA,NA,NA,NA,NA,NA,NA,NA,NA,NA,NA,NA,NA
"490","stim/objects/Instruments/musicsheet3.png",288,51,281,0.9,"stim/21.jpeg",2,1,3,2,"Instruments",1,3,"left","left",0.589999914,1,1,1,0,NA,NA,NA,NA,NA,NA,NA,NA,NA,NA,NA,NA,NA,NA,NA,NA,NA,NA,NA,NA,NA,NA,NA,NA
"295","stim/objects/HouseObjects/knife3.png",289,51,282,0.9,"stim/14.jpeg",1,4,3,2,"HouseObjects",2,4,"right","right",0.569000006,1,1,1,0,NA,NA,NA,NA,NA,NA,NA,NA,NA,NA,NA,NA,NA,NA,NA,NA,NA,NA,NA,NA,NA,NA,NA,NA
"555","stim/objects/Instruments/timbal3.png",290,51,283,0.5,"stim/43.jpeg",4,3,1,1,"Instruments",1,1,"left","right",0.792999983,0,0,1,0,18,51,1,0.5,2,"stim/43.jpeg",4,3,"stim/43.jpeg",1,"left",1.378000021,4,3,8.496000051,1,4.923000097,18,1,1,1,1,1,0
"395","stim/objects/HouseObjects/teapot4.png",291,51,284,0.1,"stim/23.jpeg",2,3,3,1,"HouseObjects",2,2,"right","left",0.726000071,0,0,1,0,130,51,1,0.1,2,"stim/23.jpeg",2,3,"stim/23.jpeg",2,"left",1.353999853,2,2,3.309999943,2,2.838999987,130,1,0,0,1,1,0
"309","stim/objects/HouseObjects/lintroller3.png",292,51,285,0.9,"stim/14.jpeg",1,4,3,2,"HouseObjects",2,1,"right","right",0.621000051,1,1,1,0,NA,NA,NA,NA,NA,NA,NA,NA,NA,NA,NA,NA,NA,NA,NA,NA,NA,NA,NA,NA,NA,NA,NA,NA
"425","stim/objects/Instruments/cello3.png",293,51,286,0.5,"stim/44.jpeg",4,4,1,2,"Instruments",1,3,"left","left",0.690999985,1,1,1,0,NA,NA,NA,NA,NA,NA,NA,NA,NA,NA,NA,NA,NA,NA,NA,NA,NA,NA,NA,NA,NA,NA,NA,NA
"499","stim/objects/Instruments/musicsheet3.png",294,51,287,0.9,"stim/21.jpeg",2,1,3,2,"Instruments",1,4,"left","left",0.780999899,1,1,1,0,NA,NA,NA,NA,NA,NA,NA,NA,NA,NA,NA,NA,NA,NA,NA,NA,NA,NA,NA,NA,NA,NA,NA,NA
"345","stim/objects/HouseObjects/pan3.png",295,51,288,0.9,"stim/11.jpeg",1,1,3,2,"HouseObjects",2,4,"right","right",0.736999989,1,1,1,0,NA,NA,NA,NA,NA,NA,NA,NA,NA,NA,NA,NA,NA,NA,NA,NA,NA,NA,NA,NA,NA,NA,NA,NA
"310","stim/objects/HouseObjects/lintroller3.png",296,51,289,0.9,"stim/13.jpeg",1,3,3,2,"HouseObjects",2,3,"right","right",0.786999702,1,1,1,0,NA,NA,NA,NA,NA,NA,NA,NA,NA,NA,NA,NA,NA,NA,NA,NA,NA,NA,NA,NA,NA,NA,NA,NA
"311","stim/objects/HouseObjects/lintroller3.png",297,51,290,0.9,"stim/12.jpeg",1,2,3,2,"HouseObjects",2,1,"right","right",0.59499979,1,1,1,0,NA,NA,NA,NA,NA,NA,NA,NA,NA,NA,NA,NA,NA,NA,NA,NA,NA,NA,NA,NA,NA,NA,NA,NA
"439","stim/objects/Instruments/cymbal4.png",298,51,291,0.7,"stim/61.jpeg",6,1,2,1,"Instruments",1,1,"left","left",0.539999962,1,1,1,0,127,51,1,0.7,1,"stim/61.jpeg",6,1,"stim/61.jpeg",1,"right",1.733999968,1,1,1.601999998,2,2.03399992,127,0,1,NA,0,NA,0
"324","stim/objects/HouseObjects/lintroller4.png",299,51,292,0.9,"stim/14.jpeg",1,4,3,1,"HouseObjects",2,4,"right","right",0.545000076,1,1,1,0,106,51,1,0.9,2,"stim/14.jpeg",1,4,"stim/14.jpeg",4,"right",1.725999832,1,1,3.068000078,2,1.01699996,106,0,0,NA,0,NA,0
"287","stim/objects/HouseObjects/key3.png",300,51,293,0.7,"stim/53.jpeg",5,3,2,2,"HouseObjects",2,2,"right","right",0.709000111,1,1,1,0,NA,NA,NA,NA,NA,NA,NA,NA,NA,NA,NA,NA,NA,NA,NA,NA,NA,NA,NA,NA,NA,NA,NA,NA
"456","stim/objects/Instruments/marimba3.png",301,51,294,0.9,"stim/23.jpeg",2,3,3,2,"Instruments",1,4,"left","left",0.718999863,1,1,1,0,NA,NA,NA,NA,NA,NA,NA,NA,NA,NA,NA,NA,NA,NA,NA,NA,NA,NA,NA,NA,NA,NA,NA,NA
"243","stim/objects/HouseObjects/ashtray4.png",302,51,295,0.7,"stim/53.jpeg",5,3,2,1,"HouseObjects",2,3,"right","left",0.758999825,0,0,1,0,29,51,1,0.7,2,"stim/53.jpeg",5,3,"stim/53.jpeg",3,"left",1.369000196,4,1,4.527999878,3,5.592000008,29,1,0,0,1,1,0
"507","stim/objects/Instruments/musicstand3.png",303,51,296,0.9,"stim/23.jpeg",2,3,3,2,"Instruments",1,4,"left","left",0.644999981,1,1,1,0,NA,NA,NA,NA,NA,NA,NA,NA,NA,NA,NA,NA,NA,NA,NA,NA,NA,NA,NA,NA,NA,NA,NA,NA
"567","stim/objects/Instruments/vuvuzela3.png",304,51,297,0.3,"stim/54.jpeg",5,4,2,1,"Instruments",1,4,"left","right",0.592999935,0,0,1,0,55,51,1,0.3,1,"stim/54.jpeg",5,4,"stim/54.jpeg",4,"left",1.437999964,4,4,4.99000001,4,2.342000008,55,1,1,1,1,1,0
"391","stim/objects/HouseObjects/sponge4.png",305,51,298,0.1,"stim/21.jpeg",2,1,3,1,"HouseObjects",2,3,"right","left",0.65199995,0,0,1,0,77,51,1,0.1,2,"stim/21.jpeg",2,1,"stim/21.jpeg",3,"left",1.233999968,3,1,1.607000113,1,2.360000134,77,1,1,1,0,0,0
"550","stim/objects/Instruments/saxophone4.png",306,51,299,0.1,"stim/12.jpeg",1,2,3,1,"Instruments",1,4,"left","right",0.588000059,0,0,1,0,69,51,1,0.1,1,"stim/12.jpeg",1,2,"stim/12.jpeg",4,"left",1.627000093,2,1,3.200000048,3,1.953999996,69,1,0,0,0,0,0
"296","stim/objects/HouseObjects/knife3.png",307,51,300,0.9,"stim/11.jpeg",1,1,3,2,"HouseObjects",2,4,"right","right",0.578999996,1,1,1,0,NA,NA,NA,NA,NA,NA,NA,NA,NA,NA,NA,NA,NA,NA,NA,NA,NA,NA,NA,NA,NA,NA,NA,NA
"453","stim/objects/Instruments/maraca3.png",308,51,301,0.7,"stim/63.jpeg",6,3,2,2,"Instruments",1,3,"left","left",0.674999952,1,1,1,0,NA,NA,NA,NA,NA,NA,NA,NA,NA,NA,NA,NA,NA,NA,NA,NA,NA,NA,NA,NA,NA,NA,NA,NA
"346","stim/objects/HouseObjects/pan3.png",309,51,302,0.9,"stim/11.jpeg",1,1,3,2,"HouseObjects",2,1,"right","right",0.759999752,1,1,1,0,NA,NA,NA,NA,NA,NA,NA,NA,NA,NA,NA,NA,NA,NA,NA,NA,NA,NA,NA,NA,NA,NA,NA,NA
"457","stim/objects/Instruments/marimba3.png",310,51,303,0.9,"stim/22.jpeg",2,2,3,2,"Instruments",1,3,"left","left",0.571999788,1,1,1,0,NA,NA,NA,NA,NA,NA,NA,NA,NA,NA,NA,NA,NA,NA,NA,NA,NA,NA,NA,NA,NA,NA,NA,NA
"347","stim/objects/HouseObjects/pan3.png",311,51,304,0.9,"stim/14.jpeg",1,4,3,2,"HouseObjects",2,3,"right","right",0.791999817,1,1,1,0,NA,NA,NA,NA,NA,NA,NA,NA,NA,NA,NA,NA,NA,NA,NA,NA,NA,NA,NA,NA,NA,NA,NA,NA
"406","stim/objects/Instruments/accordion3.png",312,51,305,0.5,"stim/31.jpeg",3,1,1,2,"Instruments",1,1,"left","right",0.717000008,0,0,1,0,NA,NA,NA,NA,NA,NA,NA,NA,NA,NA,NA,NA,NA,NA,NA,NA,NA,NA,NA,NA,NA,NA,NA,NA
"557","stim/objects/Instruments/triangle3.png",313,51,306,0.5,"stim/44.jpeg",4,4,1,1,"Instruments",1,1,"left","left",0.65199995,1,1,1,0,68,51,1,0.5,2,"stim/44.jpeg",4,4,"stim/44.jpeg",1,"left",2.319000006,3,4,5.90899992,1,2.549999952,68,1,1,1,1,1,0
"313","stim/objects/HouseObjects/lintroller3.png",314,51,307,0.9,"stim/11.jpeg",1,1,3,2,"HouseObjects",2,3,"right","right",0.564999819,1,1,1,0,NA,NA,NA,NA,NA,NA,NA,NA,NA,NA,NA,NA,NA,NA,NA,NA,NA,NA,NA,NA,NA,NA,NA,NA
"551","stim/objects/Instruments/speaker3.png",315,51,308,0.5,"stim/41.jpeg",4,1,1,1,"Instruments",1,4,"left","right",0.736000061,0,0,1,0,42,51,1,0.5,2,"stim/41.jpeg",4,1,"stim/41.jpeg",4,"right",1.100999832,2,4,4.800000191,2,5.200000048,42,0,0,NA,0,NA,0
"414","stim/objects/Instruments/balalaika4.png",316,51,309,0.3,"stim/54.jpeg",5,4,2,1,"Instruments",1,4,"left","right",0.823999882,0,0,1,0,141,51,1,0.3,1,"stim/54.jpeg",5,4,"stim/54.jpeg",4,"left",1.367000103,4,1,0.934999943,2,4.26699996,141,1,0,0,0,0,0
"451","stim/objects/Instruments/laud4.png",317,51,310,0.7,"stim/64.jpeg",6,4,2,1,"Instruments",1,2,"left","left",0.717999935,1,1,1,0,191,51,1,0.7,1,"stim/64.jpeg",6,4,"stim/64.jpeg",2,"left",1.365999937,1,1,1.640000105,4,1.666999817,191,1,0,0,0,0,0
"362","stim/objects/HouseObjects/pitcher3.png",318,51,311,0.9,"stim/14.jpeg",1,4,3,2,"HouseObjects",2,4,"right","right",0.535000086,1,1,1,0,NA,NA,NA,NA,NA,NA,NA,NA,NA,NA,NA,NA,NA,NA,NA,NA,NA,NA,NA,NA,NA,NA,NA,NA
"508","stim/objects/Instruments/musicstand3.png",319,51,312,0.9,"stim/21.jpeg",2,1,3,2,"Instruments",1,2,"left","left",0.588999748,1,1,1,0,NA,NA,NA,NA,NA,NA,NA,NA,NA,NA,NA,NA,NA,NA,NA,NA,NA,NA,NA,NA,NA,NA,NA,NA
"447","stim/objects/Instruments/keyboard4.png",320,51,313,0.7,"stim/63.jpeg",6,3,2,1,"Instruments",1,2,"left","left",0.688999891,1,1,1,0,26,51,1,0.7,1,"stim/63.jpeg",6,3,"stim/63.jpeg",2,"left",1.26699996,4,4,7.484999895,2,5.098999977,26,1,0,0,1,1,0
"531","stim/objects/Instruments/oboe3.png",321,51,314,0.9,"stim/21.jpeg",2,1,3,2,"Instruments",1,2,"left","left",0.539999962,1,1,1,0,NA,NA,NA,NA,NA,NA,NA,NA,NA,NA,NA,NA,NA,NA,NA,NA,NA,NA,NA,NA,NA,NA,NA,NA
"396","stim/objects/HouseObjects/thermometer3.png",322,51,315,0.7,"stim/52.jpeg",5,2,2,1,"HouseObjects",2,2,"right","right",0.755999804,1,1,1,0,109,51,1,0.7,2,"stim/52.jpeg",5,2,"stim/52.jpeg",2,"right",1.691999912,1,1,1.688999891,1,3.40199995,109,0,0,NA,0,NA,0
"433","stim/objects/Instruments/cornet3.png",323,51,316,0.5,"stim/44.jpeg",4,4,1,2,"Instruments",1,4,"left","left",0.729999781,1,1,1,0,NA,NA,NA,NA,NA,NA,NA,NA,NA,NA,NA,NA,NA,NA,NA,NA,NA,NA,NA,NA,NA,NA,NA,NA
"441","stim/objects/Instruments/doublebass3.png",324,51,317,0.7,"stim/62.jpeg",6,2,2,2,"Instruments",1,3,"left","left",0.566999912,1,1,1,0,NA,NA,NA,NA,NA,NA,NA,NA,NA,NA,NA,NA,NA,NA,NA,NA,NA,NA,NA,NA,NA,NA,NA,NA
"563","stim/objects/Instruments/tuba3.png",325,51,318,0.3,"stim/52.jpeg",5,2,2,1,"Instruments",1,4,"left","right",0.59100008,0,0,1,0,50,51,1,0.3,1,"stim/52.jpeg",5,2,"stim/52.jpeg",4,"left",1.101999998,3,4,5.467000008,2,4.542000055,50,1,0,0,0,0,0
"476","stim/objects/Instruments/metronome3.png",326,51,319,0.9,"stim/23.jpeg",2,3,3,2,"Instruments",1,2,"left","left",0.601999998,1,1,1,0,NA,NA,NA,NA,NA,NA,NA,NA,NA,NA,NA,NA,NA,NA,NA,NA,NA,NA,NA,NA,NA,NA,NA,NA
"255","stim/objects/HouseObjects/bleachbottle4.png",327,51,320,0.7,"stim/53.jpeg",5,3,2,1,"HouseObjects",2,1,"right","left",0.688999891,0,0,1,0,163,51,1,0.7,2,"stim/53.jpeg",5,3,"stim/53.jpeg",1,"left",1.183999777,3,1,1.334000111,2,2.960999966,163,1,0,0,0,0,0
"341","stim/objects/HouseObjects/match4.png",328,51,321,0.9,"stim/11.jpeg",1,1,3,1,"HouseObjects",2,2,"right","right",0.52699995,1,1,1,0,81,51,1,0.9,2,"stim/11.jpeg",1,1,"stim/11.jpeg",2,"left",1.282999992,4,3,5.400000095,1,1.339999914,81,1,0,0,0,0,0
"564","stim/objects/Instruments/tuba4.png",329,51,322,0.9,"stim/23.jpeg",2,3,3,1,"Instruments",1,3,"left","left",0.667000055,1,1,1,0,52,51,1,0.9,1,"stim/23.jpeg",2,3,"stim/23.jpeg",3,"right",1.983999968,1,2,4.120000124,3,0.983999968,52,0,0,NA,1,NA,0
"530","stim/objects/Instruments/oboe3.png",330,51,323,0.9,"stim/23.jpeg",2,3,3,2,"Instruments",1,3,"left","left",0.544999838,1,1,1,0,NA,NA,NA,NA,NA,NA,NA,NA,NA,NA,NA,NA,NA,NA,NA,NA,NA,NA,NA,NA,NA,NA,NA,NA
"298","stim/objects/HouseObjects/knife3.png",331,51,324,0.9,"stim/14.jpeg",1,4,3,2,"HouseObjects",2,3,"right","right",0.718999863,1,1,1,0,NA,NA,NA,NA,NA,NA,NA,NA,NA,NA,NA,NA,NA,NA,NA,NA,NA,NA,NA,NA,NA,NA,NA,NA
"257","stim/objects/HouseObjects/blender3.png",332,51,325,0.5,"stim/42.jpeg",4,2,1,2,"HouseObjects",2,1,"right","left",0.829999924,0,0,1,0,NA,NA,NA,NA,NA,NA,NA,NA,NA,NA,NA,NA,NA,NA,NA,NA,NA,NA,NA,NA,NA,NA,NA,NA
"364","stim/objects/HouseObjects/pitcher3.png",333,51,326,0.9,"stim/11.jpeg",1,1,3,2,"HouseObjects",2,4,"right","right",0.553999901,1,1,1,0,NA,NA,NA,NA,NA,NA,NA,NA,NA,NA,NA,NA,NA,NA,NA,NA,NA,NA,NA,NA,NA,NA,NA,NA
"472","stim/objects/Instruments/marimba4.png",334,51,327,0.1,"stim/11.jpeg",1,1,3,1,"Instruments",1,4,"left","right",0.510999918,0,0,1,0,34,51,1,0.1,1,"stim/11.jpeg",1,1,"stim/11.jpeg",4,"left",4.24000001,2,1,3.667000055,3,4.569999933,34,1,1,1,0,0,0
"413","stim/objects/Instruments/balalaika3.png",335,51,328,0.5,"stim/33.jpeg",3,3,1,2,"Instruments",1,2,"left","right",0.805999756,0,0,1,0,NA,NA,NA,NA,NA,NA,NA,NA,NA,NA,NA,NA,NA,NA,NA,NA,NA,NA,NA,NA,NA,NA,NA,NA
"477","stim/objects/Instruments/metronome3.png",336,51,329,0.9,"stim/22.jpeg",2,2,3,2,"Instruments",1,1,"left","left",0.582999945,1,1,1,0,NA,NA,NA,NA,NA,NA,NA,NA,NA,NA,NA,NA,NA,NA,NA,NA,NA,NA,NA,NA,NA,NA,NA,NA
"458","stim/objects/Instruments/marimba3.png",337,51,330,0.9,"stim/21.jpeg",2,1,3,2,"Instruments",1,2,"left","left",0.571000099,1,1,1,0,NA,NA,NA,NA,NA,NA,NA,NA,NA,NA,NA,NA,NA,NA,NA,NA,NA,NA,NA,NA,NA,NA,NA,NA
"454","stim/objects/Instruments/maraca3.png",338,51,331,0.7,"stim/62.jpeg",6,2,2,2,"Instruments",1,1,"left","left",0.823999882,1,1,1,0,NA,NA,NA,NA,NA,NA,NA,NA,NA,NA,NA,NA,NA,NA,NA,NA,NA,NA,NA,NA,NA,NA,NA,NA
"349","stim/objects/HouseObjects/pan3.png",339,51,332,0.9,"stim/14.jpeg",1,4,3,2,"HouseObjects",2,3,"right","right",0.644999981,1,1,1,0,NA,NA,NA,NA,NA,NA,NA,NA,NA,NA,NA,NA,NA,NA,NA,NA,NA,NA,NA,NA,NA,NA,NA,NA
"314","stim/objects/HouseObjects/lintroller3.png",340,51,333,0.9,"stim/12.jpeg",1,2,3,2,"HouseObjects",2,4,"right","right",0.54399991,1,1,1,0,NA,NA,NA,NA,NA,NA,NA,NA,NA,NA,NA,NA,NA,NA,NA,NA,NA,NA,NA,NA,NA,NA,NA,NA
"459","stim/objects/Instruments/marimba3.png",341,51,334,0.9,"stim/22.jpeg",2,2,3,2,"Instruments",1,2,"left","left",0.571000099,1,1,1,0,NA,NA,NA,NA,NA,NA,NA,NA,NA,NA,NA,NA,NA,NA,NA,NA,NA,NA,NA,NA,NA,NA,NA,NA
"436","stim/objects/Instruments/cymbal3.png",342,51,335,0.7,"stim/62.jpeg",6,2,2,2,"Instruments",1,4,"left","right",0.74399972,0,0,1,0,NA,NA,NA,NA,NA,NA,NA,NA,NA,NA,NA,NA,NA,NA,NA,NA,NA,NA,NA,NA,NA,NA,NA,NA
"546","stim/objects/Instruments/record_player4.png",343,51,336,0.1,"stim/11.jpeg",1,1,3,1,"Instruments",1,1,"left","right",0.723999977,0,0,1,0,27,51,1,0.1,1,"stim/11.jpeg",1,1,"stim/11.jpeg",1,"right",7.467000008,1,1,7.085000038,1,1.049999952,27,0,1,NA,1,NA,0
"365","stim/objects/HouseObjects/pitcher3.png",344,51,337,0.9,"stim/13.jpeg",1,3,3,2,"HouseObjects",2,4,"right","right",0.879999876,1,1,1,0,NA,NA,NA,NA,NA,NA,NA,NA,NA,NA,NA,NA,NA,NA,NA,NA,NA,NA,NA,NA,NA,NA,NA,NA
"366","stim/objects/HouseObjects/pitcher3.png",345,51,338,0.9,"stim/14.jpeg",1,4,3,2,"HouseObjects",2,1,"right","left",0.496000051,0,0,1,0,NA,NA,NA,NA,NA,NA,NA,NA,NA,NA,NA,NA,NA,NA,NA,NA,NA,NA,NA,NA,NA,NA,NA,NA
"478","stim/objects/Instruments/metronome3.png",346,51,339,0.9,"stim/21.jpeg",2,1,3,2,"Instruments",1,4,"left","left",0.691999912,1,1,1,0,NA,NA,NA,NA,NA,NA,NA,NA,NA,NA,NA,NA,NA,NA,NA,NA,NA,NA,NA,NA,NA,NA,NA,NA
"315","stim/objects/HouseObjects/lintroller3.png",347,51,340,0.9,"stim/11.jpeg",1,1,3,2,"HouseObjects",2,4,"right","right",0.524999857,1,1,1,0,NA,NA,NA,NA,NA,NA,NA,NA,NA,NA,NA,NA,NA,NA,NA,NA,NA,NA,NA,NA,NA,NA,NA,NA
"367","stim/objects/HouseObjects/pitcher3.png",348,51,341,0.9,"stim/11.jpeg",1,1,3,2,"HouseObjects",2,2,"right","right",0.651999712,1,1,1,0,NA,NA,NA,NA,NA,NA,NA,NA,NA,NA,NA,NA,NA,NA,NA,NA,NA,NA,NA,NA,NA,NA,NA,NA
"510","stim/objects/Instruments/musicstand3.png",349,51,342,0.9,"stim/22.jpeg",2,2,3,2,"Instruments",1,1,"left","left",0.59100008,1,1,1,0,NA,NA,NA,NA,NA,NA,NA,NA,NA,NA,NA,NA,NA,NA,NA,NA,NA,NA,NA,NA,NA,NA,NA,NA
"368","stim/objects/HouseObjects/pitcher3.png",350,51,343,0.9,"stim/14.jpeg",1,4,3,2,"HouseObjects",2,2,"right","right",0.758999825,1,1,1,0,NA,NA,NA,NA,NA,NA,NA,NA,NA,NA,NA,NA,NA,NA,NA,NA,NA,NA,NA,NA,NA,NA,NA,NA
"247","stim/objects/HouseObjects/barbecuelighter3.png",351,51,344,0.5,"stim/32.jpeg",3,2,1,2,"HouseObjects",2,3,"right","left",0.710000038,0,0,1,0,NA,NA,NA,NA,NA,NA,NA,NA,NA,NA,NA,NA,NA,NA,NA,NA,NA,NA,NA,NA,NA,NA,NA,NA
"460","stim/objects/Instruments/marimba3.png",352,51,345,0.9,"stim/23.jpeg",2,3,3,2,"Instruments",1,2,"left","left",0.640000105,1,1,1,0,NA,NA,NA,NA,NA,NA,NA,NA,NA,NA,NA,NA,NA,NA,NA,NA,NA,NA,NA,NA,NA,NA,NA,NA
"290","stim/objects/HouseObjects/key4.png",353,51,346,0.3,"stim/63.jpeg",6,3,2,1,"HouseObjects",2,1,"right","left",0.670000076,0,0,1,0,17,51,1,0.3,2,"stim/63.jpeg",6,3,"stim/63.jpeg",1,"left",1.866000175,4,2,10.15499997,3,4.096999884,17,1,0,0,0,0,0
"560","stim/objects/Instruments/trombone4.png",354,51,347,0.9,"stim/21.jpeg",2,1,3,1,"Instruments",1,2,"left","left",0.608999968,1,1,1,0,175,51,1,0.9,1,"stim/21.jpeg",2,1,"stim/21.jpeg",2,"right",1.391000032,1,1,0.904999971,1,0.819000006,175,0,1,NA,0,NA,0
"369","stim/objects/HouseObjects/pitcher3.png",355,51,348,0.9,"stim/13.jpeg",1,3,3,2,"HouseObjects",2,3,"right","right",0.639999866,1,1,1,0,NA,NA,NA,NA,NA,NA,NA,NA,NA,NA,NA,NA,NA,NA,NA,NA,NA,NA,NA,NA,NA,NA,NA,NA
"256","stim/objects/HouseObjects/blender3.png",356,51,349,0.5,"stim/43.jpeg",4,3,1,2,"HouseObjects",2,2,"right","right",0.811999798,1,1,1,0,NA,NA,NA,NA,NA,NA,NA,NA,NA,NA,NA,NA,NA,NA,NA,NA,NA,NA,NA,NA,NA,NA,NA,NA
"426","stim/objects/Instruments/cello4.png",357,51,350,0.7,"stim/61.jpeg",6,1,2,1,"Instruments",1,4,"left","right",0.510999918,0,0,1,0,165,51,1,0.7,1,"stim/61.jpeg",6,1,"stim/61.jpeg",4,"left",1.133000135,3,4,2.883999825,1,2.768000126,165,1,0,0,0,0,0
"307","stim/objects/HouseObjects/knife4.png",358,51,351,0.9,"stim/13.jpeg",1,3,3,1,"HouseObjects",2,2,"right","right",0.555999994,1,1,1,0,174,51,1,0.9,2,"stim/13.jpeg",1,3,"stim/13.jpeg",2,"left",1.782999992,3,1,0.990999937,3,1.484999895,174,1,0,0,0,0,0
"480","stim/objects/Instruments/metronome3.png",359,51,352,0.9,"stim/24.jpeg",2,4,3,2,"Instruments",1,1,"left","right",0.773999929,0,0,1,0,NA,NA,NA,NA,NA,NA,NA,NA,NA,NA,NA,NA,NA,NA,NA,NA,NA,NA,NA,NA,NA,NA,NA,NA
"437","stim/objects/Instruments/cymbal3.png",360,51,353,0.7,"stim/61.jpeg",6,1,2,2,"Instruments",1,4,"left","right",0.806999922,0,0,1,0,NA,NA,NA,NA,NA,NA,NA,NA,NA,NA,NA,NA,NA,NA,NA,NA,NA,NA,NA,NA,NA,NA,NA,NA
"377","stim/objects/HouseObjects/recyclingbin4.png",361,51,354,0.9,"stim/14.jpeg",1,4,3,1,"HouseObjects",2,3,"right","right",0.735999823,1,1,1,0,115,51,1,0.9,2,"stim/14.jpeg",1,4,"stim/14.jpeg",3,"left",1.688999891,4,1,1.570000172,1,1.437000036,115,1,0,0,0,0,0
"253","stim/objects/HouseObjects/bleachbottle3.png",362,51,355,0.5,"stim/31.jpeg",3,1,1,2,"HouseObjects",2,4,"right","",NA,0,0,1,0,NA,NA,NA,NA,NA,NA,NA,NA,NA,NA,NA,NA,NA,NA,NA,NA,NA,NA,NA,NA,NA,NA,NA,NA
"442","stim/objects/Instruments/doublebass3.png",363,51,356,0.7,"stim/63.jpeg",6,3,2,2,"Instruments",1,2,"left","right",0.593999863,0,0,1,0,NA,NA,NA,NA,NA,NA,NA,NA,NA,NA,NA,NA,NA,NA,NA,NA,NA,NA,NA,NA,NA,NA,NA,NA
"559","stim/objects/Instruments/trombone3.png",364,51,357,0.5,"stim/41.jpeg",4,1,1,1,"Instruments",1,3,"left","left",0.845000029,1,1,1,0,33,51,1,0.5,2,"stim/41.jpeg",4,1,"stim/41.jpeg",3,"right",2.404000044,1,1,7.065999985,1,4.566999912,33,0,1,NA,0,NA,0
"279","stim/objects/HouseObjects/iron3.png",365,51,358,0.7,"stim/52.jpeg",5,2,2,2,"HouseObjects",2,4,"right","right",0.569999933,1,1,1,0,NA,NA,NA,NA,NA,NA,NA,NA,NA,NA,NA,NA,NA,NA,NA,NA,NA,NA,NA,NA,NA,NA,NA,NA
"300","stim/objects/HouseObjects/knife3.png",366,51,359,0.9,"stim/13.jpeg",1,3,3,2,"HouseObjects",2,1,"right","right",0.572000027,1,1,1,0,NA,NA,NA,NA,NA,NA,NA,NA,NA,NA,NA,NA,NA,NA,NA,NA,NA,NA,NA,NA,NA,NA,NA,NA
"482","stim/objects/Instruments/metronome3.png",367,51,360,0.9,"stim/23.jpeg",2,3,3,2,"Instruments",1,4,"left","left",0.649999857,1,1,1,0,NA,NA,NA,NA,NA,NA,NA,NA,NA,NA,NA,NA,NA,NA,NA,NA,NA,NA,NA,NA,NA,NA,NA,NA
"363","stim/objects/HouseObjects/pitcher3.png",368,51,361,0.9,"stim/12.jpeg",1,2,3,2,"HouseObjects",2,2,"right","right",0.556999922,1,1,1,0,NA,NA,NA,NA,NA,NA,NA,NA,NA,NA,NA,NA,NA,NA,NA,NA,NA,NA,NA,NA,NA,NA,NA,NA
"549","stim/objects/Instruments/saxophone3.png",369,51,362,0.5,"stim/33.jpeg",3,3,1,1,"Instruments",1,3,"left","left",0.624000072,1,1,1,0,194,51,1,0.5,1,"stim/33.jpeg",3,3,"stim/33.jpeg",3,"right",1.624000072,1,2,1.976999998,1,0.867000103,194,0,0,NA,0,NA,0
"297","stim/objects/HouseObjects/knife3.png",370,51,363,0.9,"stim/11.jpeg",1,1,3,2,"HouseObjects",2,4,"right","right",0.518999815,1,1,1,0,NA,NA,NA,NA,NA,NA,NA,NA,NA,NA,NA,NA,NA,NA,NA,NA,NA,NA,NA,NA,NA,NA,NA,NA
"417","stim/objects/Instruments/banjo4.png",371,51,364,0.3,"stim/51.jpeg",5,1,2,1,"Instruments",1,3,"left","left",0.713000059,1,1,1,0,162,51,1,0.3,1,"stim/51.jpeg",5,1,"stim/51.jpeg",3,"left",1.825999975,2,2,4.384000063,2,1.633000135,162,1,0,0,0,0,0
"379","stim/objects/HouseObjects/remote4.png",372,51,365,0.9,"stim/11.jpeg",1,1,3,1,"HouseObjects",2,1,"right","right",0.564999819,1,1,1,0,153,51,1,0.9,2,"stim/11.jpeg",1,1,"stim/11.jpeg",1,"right",1.492000103,1,3,4.5,1,0.926000118,153,0,0,NA,1,NA,0
"370","stim/objects/HouseObjects/pitcher3.png",373,51,366,0.9,"stim/14.jpeg",1,4,3,2,"HouseObjects",2,1,"right","right",0.54399991,1,1,1,0,NA,NA,NA,NA,NA,NA,NA,NA,NA,NA,NA,NA,NA,NA,NA,NA,NA,NA,NA,NA,NA,NA,NA,NA
"331","stim/objects/HouseObjects/match3.png",374,51,367,0.9,"stim/13.jpeg",1,3,3,2,"HouseObjects",2,4,"right","right",0.500999928,1,1,1,0,NA,NA,NA,NA,NA,NA,NA,NA,NA,NA,NA,NA,NA,NA,NA,NA,NA,NA,NA,NA,NA,NA,NA,NA
"332","stim/objects/HouseObjects/match3.png",375,51,368,0.9,"stim/14.jpeg",1,4,3,2,"HouseObjects",2,2,"right","right",0.569999933,1,1,1,0,NA,NA,NA,NA,NA,NA,NA,NA,NA,NA,NA,NA,NA,NA,NA,NA,NA,NA,NA,NA,NA,NA,NA,NA
"301","stim/objects/HouseObjects/knife3.png",376,51,369,0.9,"stim/13.jpeg",1,3,3,2,"HouseObjects",2,4,"right","right",0.519999981,1,1,1,0,NA,NA,NA,NA,NA,NA,NA,NA,NA,NA,NA,NA,NA,NA,NA,NA,NA,NA,NA,NA,NA,NA,NA,NA
"547","stim/objects/Instruments/record3.png",377,51,370,0.5,"stim/31.jpeg",3,1,1,1,"Instruments",1,4,"left","left",0.706999779,1,1,1,0,99,51,1,0.5,1,"stim/31.jpeg",3,1,"stim/31.jpeg",4,"right",1.200999975,1,2,3.555999994,2,2.085999966,99,0,0,NA,0,NA,0
"570","stim/objects/Instruments/xylophone4.png",378,51,371,0.9,"stim/22.jpeg",2,2,3,1,"Instruments",1,4,"left","right",0.664999723,0,0,1,0,114,51,1,0.9,1,"stim/22.jpeg",2,2,"stim/22.jpeg",4,"right",1.167000055,1,2,1.717000008,1,0.906000137,114,0,1,NA,0,NA,0
"250","stim/objects/HouseObjects/basket3.png",379,51,372,0.5,"stim/33.jpeg",3,3,1,2,"HouseObjects",2,4,"right","right",0.677999973,1,1,1,0,NA,NA,NA,NA,NA,NA,NA,NA,NA,NA,NA,NA,NA,NA,NA,NA,NA,NA,NA,NA,NA,NA,NA,NA
"292","stim/objects/HouseObjects/knife3.png",380,51,373,0.9,"stim/12.jpeg",1,2,3,2,"HouseObjects",2,3,"right","right",0.637999773,1,1,1,0,NA,NA,NA,NA,NA,NA,NA,NA,NA,NA,NA,NA,NA,NA,NA,NA,NA,NA,NA,NA,NA,NA,NA,NA
"350","stim/objects/HouseObjects/pan3.png",381,51,374,0.9,"stim/13.jpeg",1,3,3,2,"HouseObjects",2,1,"right","right",0.705999851,1,1,1,0,NA,NA,NA,NA,NA,NA,NA,NA,NA,NA,NA,NA,NA,NA,NA,NA,NA,NA,NA,NA,NA,NA,NA,NA
"514","stim/objects/Instruments/musicstand3.png",382,51,375,0.9,"stim/21.jpeg",2,1,3,2,"Instruments",1,3,"left","left",0.547999859,1,1,1,0,NA,NA,NA,NA,NA,NA,NA,NA,NA,NA,NA,NA,NA,NA,NA,NA,NA,NA,NA,NA,NA,NA,NA,NA
"527","stim/objects/Instruments/oboe3.png",383,51,376,0.9,"stim/24.jpeg",2,4,3,2,"Instruments",1,1,"left","left",0.549999952,1,1,1,0,NA,NA,NA,NA,NA,NA,NA,NA,NA,NA,NA,NA,NA,NA,NA,NA,NA,NA,NA,NA,NA,NA,NA,NA
"412","stim/objects/Instruments/balalaika3.png",384,51,377,0.5,"stim/34.jpeg",3,4,1,2,"Instruments",1,4,"left","right",0.854999781,0,0,1,0,NA,NA,NA,NA,NA,NA,NA,NA,NA,NA,NA,NA,NA,NA,NA,NA,NA,NA,NA,NA,NA,NA,NA,NA
"242","stim/objects/HouseObjects/ashtray3.png",385,51,378,0.5,"stim/31.jpeg",3,1,1,2,"HouseObjects",2,4,"right","right",0.757999897,1,1,1,0,NA,NA,NA,NA,NA,NA,NA,NA,NA,NA,NA,NA,NA,NA,NA,NA,NA,NA,NA,NA,NA,NA,NA,NA
"265","stim/objects/HouseObjects/bucket3.png",386,51,379,0.5,"stim/41.jpeg",4,1,1,2,"HouseObjects",2,2,"right","left",0.713999987,0,0,1,0,NA,NA,NA,NA,NA,NA,NA,NA,NA,NA,NA,NA,NA,NA,NA,NA,NA,NA,NA,NA,NA,NA,NA,NA
"302","stim/objects/HouseObjects/knife3.png",387,51,380,0.9,"stim/11.jpeg",1,1,3,2,"HouseObjects",2,3,"right","right",0.730999947,1,1,1,0,NA,NA,NA,NA,NA,NA,NA,NA,NA,NA,NA,NA,NA,NA,NA,NA,NA,NA,NA,NA,NA,NA,NA,NA
"303","stim/objects/HouseObjects/knife3.png",388,51,381,0.9,"stim/13.jpeg",1,3,3,2,"HouseObjects",2,2,"right","right",0.622999907,1,1,1,0,NA,NA,NA,NA,NA,NA,NA,NA,NA,NA,NA,NA,NA,NA,NA,NA,NA,NA,NA,NA,NA,NA,NA,NA
"428","stim/objects/Instruments/chime3.png",389,51,382,0.5,"stim/42.jpeg",4,2,1,2,"Instruments",1,4,"left","right",0.686999798,0,0,1,0,NA,NA,NA,NA,NA,NA,NA,NA,NA,NA,NA,NA,NA,NA,NA,NA,NA,NA,NA,NA,NA,NA,NA,NA
"343","stim/objects/HouseObjects/pan3.png",390,51,383,0.9,"stim/12.jpeg",1,2,3,2,"HouseObjects",2,4,"right","right",0.554999828,1,1,1,0,NA,NA,NA,NA,NA,NA,NA,NA,NA,NA,NA,NA,NA,NA,NA,NA,NA,NA,NA,NA,NA,NA,NA,NA
"273","stim/objects/HouseObjects/clothesdryingrack3.png",391,51,384,0.7,"stim/53.jpeg",5,3,2,2,"HouseObjects",2,3,"right","right",0.773000002,1,1,1,0,NA,NA,NA,NA,NA,NA,NA,NA,NA,NA,NA,NA,NA,NA,NA,NA,NA,NA,NA,NA,NA,NA,NA,NA
"493","stim/objects/Instruments/musicsheet3.png",392,51,385,0.9,"stim/22.jpeg",2,2,3,2,"Instruments",1,2,"left","left",0.753999949,1,1,1,0,NA,NA,NA,NA,NA,NA,NA,NA,NA,NA,NA,NA,NA,NA,NA,NA,NA,NA,NA,NA,NA,NA,NA,NA
"533","stim/objects/Instruments/oboe3.png",393,51,386,0.9,"stim/22.jpeg",2,2,3,2,"Instruments",1,4,"left","left",0.739000082,1,1,1,0,NA,NA,NA,NA,NA,NA,NA,NA,NA,NA,NA,NA,NA,NA,NA,NA,NA,NA,NA,NA,NA,NA,NA,NA
"344","stim/objects/HouseObjects/pan3.png",394,51,387,0.9,"stim/14.jpeg",1,4,3,2,"HouseObjects",2,3,"right","right",0.703000069,1,1,1,0,NA,NA,NA,NA,NA,NA,NA,NA,NA,NA,NA,NA,NA,NA,NA,NA,NA,NA,NA,NA,NA,NA,NA,NA
"418","stim/objects/Instruments/bassdrum3.png",395,51,388,0.5,"stim/31.jpeg",3,1,1,2,"Instruments",1,3,"left","left",0.745000124,1,1,1,0,NA,NA,NA,NA,NA,NA,NA,NA,NA,NA,NA,NA,NA,NA,NA,NA,NA,NA,NA,NA,NA,NA,NA,NA
"511","stim/objects/Instruments/musicstand3.png",396,51,389,0.9,"stim/22.jpeg",2,2,3,2,"Instruments",1,1,"left","left",0.571999788,1,1,1,0,NA,NA,NA,NA,NA,NA,NA,NA,NA,NA,NA,NA,NA,NA,NA,NA,NA,NA,NA,NA,NA,NA,NA,NA
"479","stim/objects/Instruments/metronome3.png",397,51,390,0.9,"stim/24.jpeg",2,4,3,2,"Instruments",1,1,"left","left",0.581999779,1,1,1,0,NA,NA,NA,NA,NA,NA,NA,NA,NA,NA,NA,NA,NA,NA,NA,NA,NA,NA,NA,NA,NA,NA,NA,NA
"372","stim/objects/HouseObjects/pitcher3.png",398,51,391,0.9,"stim/11.jpeg",1,1,3,2,"HouseObjects",2,1,"right","right",0.664999962,1,1,1,0,NA,NA,NA,NA,NA,NA,NA,NA,NA,NA,NA,NA,NA,NA,NA,NA,NA,NA,NA,NA,NA,NA,NA,NA
"475","stim/objects/Instruments/metronome3.png",399,51,392,0.9,"stim/22.jpeg",2,2,3,2,"Instruments",1,1,"left","left",0.779000044,1,1,1,0,NA,NA,NA,NA,NA,NA,NA,NA,NA,NA,NA,NA,NA,NA,NA,NA,NA,NA,NA,NA,NA,NA,NA,NA
"552","stim/objects/Instruments/speaker4.png",400,51,393,0.9,"stim/21.jpeg",2,1,3,1,"Instruments",1,2,"left","left",0.63499999,1,1,1,0,138,51,1,0.9,1,"stim/21.jpeg",2,1,"stim/21.jpeg",2,"right",1.869999886,1,2,2.85800004,3,2.006000042,138,0,0,NA,0,NA,0
"288","stim/objects/HouseObjects/key3.png",401,51,394,0.7,"stim/54.jpeg",5,4,2,2,"HouseObjects",2,2,"right","right",0.656999826,1,1,1,0,NA,NA,NA,NA,NA,NA,NA,NA,NA,NA,NA,NA,NA,NA,NA,NA,NA,NA,NA,NA,NA,NA,NA,NA
"259","stim/objects/HouseObjects/bottle3.png",402,51,395,0.5,"stim/43.jpeg",4,3,1,2,"HouseObjects",2,4,"right","right",0.502000093,1,1,1,0,NA,NA,NA,NA,NA,NA,NA,NA,NA,NA,NA,NA,NA,NA,NA,NA,NA,NA,NA,NA,NA,NA,NA,NA
"270","stim/objects/HouseObjects/clock4.png",403,51,396,0.3,"stim/62.jpeg",6,2,2,1,"HouseObjects",2,2,"right","left",0.825999975,0,0,1,0,119,51,1,0.3,2,"stim/62.jpeg",6,2,"stim/62.jpeg",2,"right",1.535000086,1,3,3.250999928,1,0.549999952,119,0,0,NA,0,NA,0
"536","stim/objects/Instruments/oboe3.png",404,51,397,0.9,"stim/21.jpeg",2,1,3,2,"Instruments",1,4,"left","left",0.842999935,1,1,1,0,NA,NA,NA,NA,NA,NA,NA,NA,NA,NA,NA,NA,NA,NA,NA,NA,NA,NA,NA,NA,NA,NA,NA,NA
"334","stim/objects/HouseObjects/match3.png",405,51,398,0.9,"stim/13.jpeg",1,3,3,2,"HouseObjects",2,4,"right","right",0.532999754,1,1,1,0,NA,NA,NA,NA,NA,NA,NA,NA,NA,NA,NA,NA,NA,NA,NA,NA,NA,NA,NA,NA,NA,NA,NA,NA
"409","stim/objects/Instruments/acousticguitar3.png",406,51,399,0.5,"stim/32.jpeg",3,2,1,2,"Instruments",1,2,"left","right",0.605999947,0,0,1,0,NA,NA,NA,NA,NA,NA,NA,NA,NA,NA,NA,NA,NA,NA,NA,NA,NA,NA,NA,NA,NA,NA,NA,NA
"351","stim/objects/HouseObjects/pan3.png",407,51,400,0.9,"stim/13.jpeg",1,3,3,2,"HouseObjects",2,3,"right","right",0.711999893,1,1,1,0,NA,NA,NA,NA,NA,NA,NA,NA,NA,NA,NA,NA,NA,NA,NA,NA,NA,NA,NA,NA,NA,NA,NA,NA
"403","stim/objects/HouseObjects/vacuumcleaner4.png",408,51,401,0.1,"stim/23.jpeg",2,3,3,1,"HouseObjects",2,4,"right","right",0.72300005,1,1,1,0,182,51,1,0.1,2,"stim/23.jpeg",2,3,"stim/23.jpeg",4,"right",1.065999985,1,1,1.399999857,3,1.171999931,182,0,0,NA,0,NA,0
"400","stim/objects/HouseObjects/towel3.png",409,51,402,0.7,"stim/54.jpeg",5,4,2,1,"HouseObjects",2,2,"right","right",0.634000063,1,1,1,0,132,51,1,0.7,2,"stim/54.jpeg",5,4,"stim/54.jpeg",2,"right",0.98300004,1,2,3.654999971,2,2.916999817,132,0,0,NA,1,NA,0
"512","stim/objects/Instruments/musicstand3.png",410,51,403,0.9,"stim/23.jpeg",2,3,3,2,"Instruments",1,3,"left","left",0.564999819,1,1,1,0,NA,NA,NA,NA,NA,NA,NA,NA,NA,NA,NA,NA,NA,NA,NA,NA,NA,NA,NA,NA,NA,NA,NA,NA
"308","stim/objects/HouseObjects/lintroller3.png",411,51,404,0.9,"stim/13.jpeg",1,3,3,2,"HouseObjects",2,2,"right","right",0.559000015,1,1,1,0,NA,NA,NA,NA,NA,NA,NA,NA,NA,NA,NA,NA,NA,NA,NA,NA,NA,NA,NA,NA,NA,NA,NA,NA
"429","stim/objects/Instruments/chime4.png",412,51,405,0.7,"stim/62.jpeg",6,2,2,1,"Instruments",1,4,"left","right",0.644999981,0,0,1,0,105,51,1,0.7,1,"stim/62.jpeg",6,2,"stim/62.jpeg",4,"right",1.118999958,1,4,6.448999882,2,2.217000008,105,0,0,NA,0,NA,0
"352","stim/objects/HouseObjects/pan3.png",413,51,406,0.9,"stim/14.jpeg",1,4,3,2,"HouseObjects",2,4,"right","",NA,0,0,1,0,NA,NA,NA,NA,NA,NA,NA,NA,NA,NA,NA,NA,NA,NA,NA,NA,NA,NA,NA,NA,NA,NA,NA,NA
"538","stim/objects/Instruments/oboe3.png",414,51,407,0.9,"stim/21.jpeg",2,1,3,2,"Instruments",1,1,"left","left",0.557999849,1,1,1,0,NA,NA,NA,NA,NA,NA,NA,NA,NA,NA,NA,NA,NA,NA,NA,NA,NA,NA,NA,NA,NA,NA,NA,NA
"264","stim/objects/HouseObjects/broom4.png",415,51,408,0.3,"stim/64.jpeg",6,4,2,1,"HouseObjects",2,4,"right","left",0.671000004,0,0,1,0,49,51,1,0.3,2,"stim/64.jpeg",6,4,"stim/64.jpeg",4,"left",1.186999798,4,3,8.21600008,3,3.549999952,49,1,0,0,0,0,0
"407","stim/objects/Instruments/accordion3.png",416,51,409,0.5,"stim/32.jpeg",3,2,1,2,"Instruments",1,1,"left","right",0.686000109,0,0,1,0,NA,NA,NA,NA,NA,NA,NA,NA,NA,NA,NA,NA,NA,NA,NA,NA,NA,NA,NA,NA,NA,NA,NA,NA
"513","stim/objects/Instruments/musicstand3.png",417,51,410,0.9,"stim/24.jpeg",2,4,3,2,"Instruments",1,3,"left","left",0.510999918,1,1,1,0,NA,NA,NA,NA,NA,NA,NA,NA,NA,NA,NA,NA,NA,NA,NA,NA,NA,NA,NA,NA,NA,NA,NA,NA
"398","stim/objects/HouseObjects/thread3.png",418,51,411,0.7,"stim/53.jpeg",5,3,2,1,"HouseObjects",2,1,"right","left",0.687999964,0,0,1,0,193,51,1,0.7,2,"stim/53.jpeg",5,3,"stim/53.jpeg",1,"right",1.433000088,1,1,1.223999977,1,1.377999783,193,0,0,NA,1,NA,0
"272","stim/objects/HouseObjects/clothesdryingrack3.png",419,51,412,0.7,"stim/51.jpeg",5,1,2,2,"HouseObjects",2,2,"right","right",0.792999744,1,1,1,0,NA,NA,NA,NA,NA,NA,NA,NA,NA,NA,NA,NA,NA,NA,NA,NA,NA,NA,NA,NA,NA,NA,NA,NA
"312","stim/objects/HouseObjects/lintroller3.png",420,51,413,0.9,"stim/11.jpeg",1,1,3,2,"HouseObjects",2,1,"right","right",0.552999973,1,1,1,0,NA,NA,NA,NA,NA,NA,NA,NA,NA,NA,NA,NA,NA,NA,NA,NA,NA,NA,NA,NA,NA,NA,NA,NA
"502","stim/objects/Instruments/musicsheet3.png",421,51,414,0.9,"stim/23.jpeg",2,3,3,2,"Instruments",1,1,"left","left",0.555999756,1,1,1,0,NA,NA,NA,NA,NA,NA,NA,NA,NA,NA,NA,NA,NA,NA,NA,NA,NA,NA,NA,NA,NA,NA,NA,NA
"516","stim/objects/Instruments/musicstand3.png",422,51,415,0.9,"stim/24.jpeg",2,4,3,2,"Instruments",1,3,"left","left",0.57799983,1,1,1,0,NA,NA,NA,NA,NA,NA,NA,NA,NA,NA,NA,NA,NA,NA,NA,NA,NA,NA,NA,NA,NA,NA,NA,NA
"415","stim/objects/Instruments/banjo3.png",423,51,416,0.5,"stim/34.jpeg",3,4,1,2,"Instruments",1,3,"left","right",0.856999874,0,0,1,0,NA,NA,NA,NA,NA,NA,NA,NA,NA,NA,NA,NA,NA,NA,NA,NA,NA,NA,NA,NA,NA,NA,NA,NA
"539","stim/objects/Instruments/oboe3.png",424,51,417,0.9,"stim/22.jpeg",2,2,3,2,"Instruments",1,2,"left","left",0.770999908,1,1,1,0,NA,NA,NA,NA,NA,NA,NA,NA,NA,NA,NA,NA,NA,NA,NA,NA,NA,NA,NA,NA,NA,NA,NA,NA
"283","stim/objects/HouseObjects/ironingboard3.png",425,51,418,0.7,"stim/54.jpeg",5,4,2,2,"HouseObjects",2,4,"right","right",0.650999784,1,1,1,0,NA,NA,NA,NA,NA,NA,NA,NA,NA,NA,NA,NA,NA,NA,NA,NA,NA,NA,NA,NA,NA,NA,NA,NA
"360","stim/objects/HouseObjects/pitcher3.png",426,51,419,0.9,"stim/12.jpeg",1,2,3,2,"HouseObjects",2,1,"right","left",0.78399992,0,0,1,0,NA,NA,NA,NA,NA,NA,NA,NA,NA,NA,NA,NA,NA,NA,NA,NA,NA,NA,NA,NA,NA,NA,NA,NA
"381","stim/objects/HouseObjects/rubbergloves4.png",427,51,420,0.9,"stim/12.jpeg",1,2,3,1,"HouseObjects",2,2,"right","right",0.524999857,1,1,1,0,135,51,1,0.9,2,"stim/12.jpeg",1,2,"stim/12.jpeg",2,"left",2.933000088,3,3,3.684999943,2,2.026000023,135,1,0,0,1,1,0
"556","stim/objects/Instruments/timbal4.png",428,51,421,0.9,"stim/23.jpeg",2,3,3,1,"Instruments",1,1,"left","left",0.555000067,1,1,1,0,196,51,1,0.9,1,"stim/23.jpeg",2,3,"stim/23.jpeg",1,"left",4.232000113,3,3,2.426000118,2,1.450000048,196,1,1,1,0,0,0
"486","stim/objects/Instruments/metronome3.png",429,51,422,0.9,"stim/24.jpeg",2,4,3,2,"Instruments",1,3,"left","left",0.5849998,1,1,1,0,NA,NA,NA,NA,NA,NA,NA,NA,NA,NA,NA,NA,NA,NA,NA,NA,NA,NA,NA,NA,NA,NA,NA,NA
"375","stim/objects/HouseObjects/pitcher4.png",430,51,423,0.9,"stim/13.jpeg",1,3,3,1,"HouseObjects",2,3,"right","right",0.623999834,1,1,1,0,25,51,1,0.9,2,"stim/13.jpeg",1,3,"stim/13.jpeg",3,"left",1.49000001,2,3,8.122999907,2,3.657999992,25,1,1,1,0,0,0
"285","stim/objects/HouseObjects/ironingboard3.png",431,51,424,0.7,"stim/53.jpeg",5,3,2,2,"HouseObjects",2,2,"right","right",0.788000107,1,1,1,0,NA,NA,NA,NA,NA,NA,NA,NA,NA,NA,NA,NA,NA,NA,NA,NA,NA,NA,NA,NA,NA,NA,NA,NA
"484","stim/objects/Instruments/metronome3.png",432,51,425,0.9,"stim/23.jpeg",2,3,3,2,"Instruments",1,4,"left","left",0.723999977,1,1,1,0,NA,NA,NA,NA,NA,NA,NA,NA,NA,NA,NA,NA,NA,NA,NA,NA,NA,NA,NA,NA,NA,NA,NA,NA
"378","stim/objects/HouseObjects/remote3.png",433,51,426,0.5,"stim/33.jpeg",3,3,1,1,"HouseObjects",2,2,"right","right",0.777999878,1,1,1,0,167,51,1,0.5,1,"stim/33.jpeg",3,3,"stim/33.jpeg",2,"right",6.949999809,1,1,1.582999945,1,1.125,167,0,0,NA,0,NA,0
"435","stim/objects/Instruments/cornet4.png",434,51,427,0.7,"stim/64.jpeg",6,4,2,1,"Instruments",1,1,"left","left",0.624999762,1,1,1,0,102,51,1,0.7,1,"stim/64.jpeg",6,4,"stim/64.jpeg",1,"right",1.427000046,1,1,3.625999928,2,2.382999897,102,0,0,NA,0,NA,0
"520","stim/objects/Instruments/musicstand3.png",435,51,428,0.9,"stim/22.jpeg",2,2,3,2,"Instruments",1,4,"left","left",0.892999887,1,1,1,0,NA,NA,NA,NA,NA,NA,NA,NA,NA,NA,NA,NA,NA,NA,NA,NA,NA,NA,NA,NA,NA,NA,NA,NA
"361","stim/objects/HouseObjects/pitcher3.png",436,51,429,0.9,"stim/13.jpeg",1,3,3,2,"HouseObjects",2,4,"right","right",0.552999973,1,1,1,0,NA,NA,NA,NA,NA,NA,NA,NA,NA,NA,NA,NA,NA,NA,NA,NA,NA,NA,NA,NA,NA,NA,NA,NA
"402","stim/objects/HouseObjects/vacuumcleaner3.png",437,51,430,0.7,"stim/51.jpeg",5,1,2,1,"HouseObjects",2,1,"right","right",0.655999899,1,1,1,0,111,51,1,0.7,2,"stim/51.jpeg",5,1,"stim/51.jpeg",1,"left",1.957000017,3,1,2.407999992,3,1.849999905,111,1,1,1,0,0,0
"277","stim/objects/HouseObjects/clothespin3.png",438,51,431,0.7,"stim/51.jpeg",5,1,2,2,"HouseObjects",2,2,"right","right",0.773999929,1,1,1,0,NA,NA,NA,NA,NA,NA,NA,NA,NA,NA,NA,NA,NA,NA,NA,NA,NA,NA,NA,NA,NA,NA,NA,NA
"444","stim/objects/Instruments/keyboard3.png",439,51,432,0.7,"stim/63.jpeg",6,3,2,2,"Instruments",1,2,"left","left",0.663999796,1,1,1,0,NA,NA,NA,NA,NA,NA,NA,NA,NA,NA,NA,NA,NA,NA,NA,NA,NA,NA,NA,NA,NA,NA,NA,NA
"430","stim/objects/Instruments/clarinet3.png",440,51,433,0.5,"stim/42.jpeg",4,2,1,2,"Instruments",1,2,"left","right",0.602999926,0,0,1,0,NA,NA,NA,NA,NA,NA,NA,NA,NA,NA,NA,NA,NA,NA,NA,NA,NA,NA,NA,NA,NA,NA,NA,NA
"328","stim/objects/HouseObjects/match3.png",441,51,434,0.9,"stim/11.jpeg",1,1,3,2,"HouseObjects",2,1,"right","right",0.540999889,1,1,1,0,NA,NA,NA,NA,NA,NA,NA,NA,NA,NA,NA,NA,NA,NA,NA,NA,NA,NA,NA,NA,NA,NA,NA,NA
"544","stim/objects/Instruments/pipepiano4.png",442,51,435,0.1,"stim/13.jpeg",1,3,3,1,"Instruments",1,3,"left","right",0.593999863,0,0,1,0,158,51,1,0.1,1,"stim/13.jpeg",1,3,"stim/13.jpeg",3,"right",2.794000149,1,1,1.756999969,2,4.618999958,158,0,0,NA,0,NA,0
"329","stim/objects/HouseObjects/match3.png",443,51,436,0.9,"stim/12.jpeg",1,2,3,2,"HouseObjects",2,3,"right","right",0.572000027,1,1,1,0,NA,NA,NA,NA,NA,NA,NA,NA,NA,NA,NA,NA,NA,NA,NA,NA,NA,NA,NA,NA,NA,NA,NA,NA
"408","stim/objects/Instruments/accordion4.png",444,51,437,0.3,"stim/52.jpeg",5,2,2,1,"Instruments",1,1,"left","right",0.686999798,0,0,1,0,146,51,1,0.3,1,"stim/52.jpeg",5,2,"stim/52.jpeg",1,"right",1.338999987,1,1,1.51699996,1,1.650000095,146,0,0,NA,1,NA,0
"467","stim/objects/Instruments/marimba3.png",445,51,438,0.9,"stim/21.jpeg",2,1,3,2,"Instruments",1,3,"left","left",0.568999767,1,1,1,0,NA,NA,NA,NA,NA,NA,NA,NA,NA,NA,NA,NA,NA,NA,NA,NA,NA,NA,NA,NA,NA,NA,NA,NA
"509","stim/objects/Instruments/musicstand3.png",446,51,439,0.9,"stim/24.jpeg",2,4,3,2,"Instruments",1,2,"left","left",0.703999996,1,1,1,0,NA,NA,NA,NA,NA,NA,NA,NA,NA,NA,NA,NA,NA,NA,NA,NA,NA,NA,NA,NA,NA,NA,NA,NA
"397","stim/objects/HouseObjects/thermometer4.png",447,51,440,0.1,"stim/24.jpeg",2,4,3,1,"HouseObjects",2,1,"right","left",0.523999929,0,0,1,0,110,51,1,0.1,2,"stim/24.jpeg",2,4,"stim/24.jpeg",1,"right",2.30700016,1,4,3.467000008,1,0.583000183,110,0,1,NA,1,NA,0
"348","stim/objects/HouseObjects/pan3.png",448,51,441,0.9,"stim/13.jpeg",1,3,3,2,"HouseObjects",2,3,"right","right",0.737999916,1,1,1,0,NA,NA,NA,NA,NA,NA,NA,NA,NA,NA,NA,NA,NA,NA,NA,NA,NA,NA,NA,NA,NA,NA,NA,NA
"278","stim/objects/HouseObjects/clothespin4.png",449,51,442,0.3,"stim/64.jpeg",6,4,2,1,"HouseObjects",2,1,"right","left",0.597999811,0,0,1,0,62,51,1,0.3,2,"stim/64.jpeg",6,4,"stim/64.jpeg",1,"right",2.049999952,2,1,4.708999872,3,6.492000103,62,0,0,NA,0,NA,0
"263","stim/objects/HouseObjects/broom3.png",450,51,443,0.5,"stim/44.jpeg",4,4,1,2,"HouseObjects",2,4,"right","left",0.638000011,0,0,1,0,NA,NA,NA,NA,NA,NA,NA,NA,NA,NA,NA,NA,NA,NA,NA,NA,NA,NA,NA,NA,NA,NA,NA,NA
"373","stim/objects/HouseObjects/pitcher3.png",451,51,444,0.9,"stim/12.jpeg",1,2,3,2,"HouseObjects",2,2,"right","right",0.546999931,1,1,1,0,NA,NA,NA,NA,NA,NA,NA,NA,NA,NA,NA,NA,NA,NA,NA,NA,NA,NA,NA,NA,NA,NA,NA,NA
"541","stim/objects/Instruments/panflute3.png",452,51,445,0.5,"stim/33.jpeg",3,3,1,1,"Instruments",1,2,"left","right",0.605999947,0,0,1,0,148,51,1,0.5,1,"stim/33.jpeg",3,3,"stim/33.jpeg",2,"left",1.858999968,3,4,3.51699996,2,1.333999872,148,1,0,0,1,1,0
"543","stim/objects/Instruments/pipepiano3.png",453,51,446,0.5,"stim/34.jpeg",3,4,1,1,"Instruments",1,2,"left","right",0.696000099,0,0,1,0,112,51,1,0.5,1,"stim/34.jpeg",3,4,"stim/34.jpeg",2,"left",2.934000015,3,1,2.116999865,3,1.088999987,112,1,0,0,0,0,0
"562","stim/objects/Instruments/trumpet4.png",454,51,447,0.9,"stim/22.jpeg",2,2,3,1,"Instruments",1,4,"left","left",0.652999878,1,1,1,0,136,51,1,0.9,1,"stim/22.jpeg",2,2,"stim/22.jpeg",4,"right",1.316999912,1,3,2.590999842,2,1.266000032,136,0,0,NA,0,NA,0
"284","stim/objects/HouseObjects/ironingboard3.png",455,51,448,0.7,"stim/52.jpeg",5,2,2,2,"HouseObjects",2,3,"right","right",0.638999939,1,1,1,0,NA,NA,NA,NA,NA,NA,NA,NA,NA,NA,NA,NA,NA,NA,NA,NA,NA,NA,NA,NA,NA,NA,NA,NA
"339","stim/objects/HouseObjects/match3.png",456,51,449,0.9,"stim/12.jpeg",1,2,3,2,"HouseObjects",2,2,"right","right",0.54399991,1,1,1,0,NA,NA,NA,NA,NA,NA,NA,NA,NA,NA,NA,NA,NA,NA,NA,NA,NA,NA,NA,NA,NA,NA,NA,NA
"410","stim/objects/Instruments/acousticguitar3.png",457,51,450,0.5,"stim/33.jpeg",3,3,1,2,"Instruments",1,1,"left","left",0.789999962,1,1,1,0,NA,NA,NA,NA,NA,NA,NA,NA,NA,NA,NA,NA,NA,NA,NA,NA,NA,NA,NA,NA,NA,NA,NA,NA
"318","stim/objects/HouseObjects/lintroller3.png",458,51,451,0.9,"stim/13.jpeg",1,3,3,2,"HouseObjects",2,4,"right","right",0.641000032,1,1,1,0,NA,NA,NA,NA,NA,NA,NA,NA,NA,NA,NA,NA,NA,NA,NA,NA,NA,NA,NA,NA,NA,NA,NA,NA
"445","stim/objects/Instruments/keyboard3.png",459,51,452,0.7,"stim/61.jpeg",6,1,2,2,"Instruments",1,1,"left","left",0.654999971,1,1,1,0,NA,NA,NA,NA,NA,NA,NA,NA,NA,NA,NA,NA,NA,NA,NA,NA,NA,NA,NA,NA,NA,NA,NA,NA
"289","stim/objects/HouseObjects/key3.png",460,51,453,0.7,"stim/51.jpeg",5,1,2,2,"HouseObjects",2,3,"right","right",0.753000021,1,1,1,0,NA,NA,NA,NA,NA,NA,NA,NA,NA,NA,NA,NA,NA,NA,NA,NA,NA,NA,NA,NA,NA,NA,NA,NA
"323","stim/objects/HouseObjects/lintroller3.png",461,51,454,0.9,"stim/14.jpeg",1,4,3,2,"HouseObjects",2,2,"right","right",0.592000008,1,1,1,0,NA,NA,NA,NA,NA,NA,NA,NA,NA,NA,NA,NA,NA,NA,NA,NA,NA,NA,NA,NA,NA,NA,NA,NA
"267","stim/objects/HouseObjects/bucket4.png",462,51,455,0.3,"stim/61.jpeg",6,1,2,1,"HouseObjects",2,3,"right","left",0.69299984,0,0,1,0,179,51,1,0.3,2,"stim/61.jpeg",6,1,"stim/61.jpeg",3,"right",1.173000097,1,1,1.103000164,3,1.226000071,179,0,1,NA,1,NA,0
"336","stim/objects/HouseObjects/match3.png",463,51,456,0.9,"stim/14.jpeg",1,4,3,2,"HouseObjects",2,2,"right","right",0.513999939,1,1,1,0,NA,NA,NA,NA,NA,NA,NA,NA,NA,NA,NA,NA,NA,NA,NA,NA,NA,NA,NA,NA,NA,NA,NA,NA
"393","stim/objects/HouseObjects/spraybottle4.png",464,51,457,0.1,"stim/22.jpeg",2,2,3,1,"HouseObjects",2,1,"right","right",0.706999779,1,1,1,0,78,51,1,0.1,2,"stim/22.jpeg",2,2,"stim/22.jpeg",1,"left",1.937999964,2,1,1.750999928,1,2.850000143,78,1,0,0,1,1,0
"260","stim/objects/HouseObjects/bottle3.png",465,51,458,0.5,"stim/44.jpeg",4,4,1,2,"HouseObjects",2,2,"right","left",0.707000017,0,0,1,0,NA,NA,NA,NA,NA,NA,NA,NA,NA,NA,NA,NA,NA,NA,NA,NA,NA,NA,NA,NA,NA,NA,NA,NA
"517","stim/objects/Instruments/musicstand3.png",466,51,459,0.9,"stim/21.jpeg",2,1,3,2,"Instruments",1,2,"left","left",0.663999796,1,1,1,0,NA,NA,NA,NA,NA,NA,NA,NA,NA,NA,NA,NA,NA,NA,NA,NA,NA,NA,NA,NA,NA,NA,NA,NA
