"","obj_file","X.x","participant.x","trialN.x","trial_cond","scn_file.x","scn_cat","scn_inst","scn_condition","fillers","obj_cat","obj_cat_num","quadrant","corr_ans","key_resp_trial.keys","key_resp_trial.rt","trial_acc","trial_acc_manual","group.x","practice","X.y","participant.y","OvsN","PE_level","object_cat","scn_file.y","corr_scn_cat","corr_scn_inst","scn_file.1","corr_loc","key_resp_id.keys","key_resp_id.rt","key_resp_conf.keys","key_resp_assoc.keys","key_resp_assoc.rt","key_resp_loc.keys","key_resp_loc.rt","trialN.y","id_acc","assoc.acc","cond_assoc","loc.acc","cond_loc","group.y"
"38","stim/objects/HouseObjects/safetypin2.png",1,23,1,0.9,"stim/51.jpeg",5,1,3,NA,"HouseObjects",2,2,"right","",NA,0,0,1,1,NA,NA,NA,NA,NA,NA,NA,NA,NA,NA,NA,NA,NA,NA,NA,NA,NA,NA,NA,NA,NA,NA,NA,NA
"113","stim/objects/HouseObjects/thread.png",2,23,2,0.7,"stim/34.jpeg",3,4,2,NA,"HouseObjects",2,3,"right","right",0.633000135,1,1,1,1,NA,NA,NA,NA,NA,NA,NA,NA,NA,NA,NA,NA,NA,NA,NA,NA,NA,NA,NA,NA,NA,NA,NA,NA
"52","stim/objects/HouseObjects/saw2.png",3,23,3,0.9,"stim/52.jpeg",5,2,3,NA,"HouseObjects",2,2,"right","right",0.484000206,1,1,1,1,NA,NA,NA,NA,NA,NA,NA,NA,NA,NA,NA,NA,NA,NA,NA,NA,NA,NA,NA,NA,NA,NA,NA,NA
"205","stim/objects/Instruments/trombone.png",4,23,4,0.3,"stim/32.jpeg",3,2,2,NA,"Instruments",1,2,"left","right",0.837000132,0,0,1,1,NA,NA,NA,NA,NA,NA,NA,NA,NA,NA,NA,NA,NA,NA,NA,NA,NA,NA,NA,NA,NA,NA,NA,NA
"138","stim/objects/Instruments/pipepiano2.png",5,23,5,0.7,"stim/42.jpeg",4,2,2,NA,"Instruments",1,4,"left","left",0.723999977,1,1,1,1,NA,NA,NA,NA,NA,NA,NA,NA,NA,NA,NA,NA,NA,NA,NA,NA,NA,NA,NA,NA,NA,NA,NA,NA
"53","stim/objects/HouseObjects/saw2.png",6,23,6,0.9,"stim/52.jpeg",5,2,3,NA,"HouseObjects",2,4,"right","right",0.652000189,1,1,1,1,NA,NA,NA,NA,NA,NA,NA,NA,NA,NA,NA,NA,NA,NA,NA,NA,NA,NA,NA,NA,NA,NA,NA,NA
"220","stim/objects/Instruments/trumpet2.png",7,23,7,0.9,"stim/63.jpeg",6,3,3,NA,"Instruments",1,4,"left","left",0.59700036,1,1,1,1,NA,NA,NA,NA,NA,NA,NA,NA,NA,NA,NA,NA,NA,NA,NA,NA,NA,NA,NA,NA,NA,NA,NA,NA
"121","stim/objects/Instruments/panflute.png",8,23,8,0.5,"stim/11.jpeg",1,1,1,NA,"Instruments",1,1,"left","left",0.577000141,1,1,1,1,NA,NA,NA,NA,NA,NA,NA,NA,NA,NA,NA,NA,NA,NA,NA,NA,NA,NA,NA,NA,NA,NA,NA,NA
"232","stim/objects/Instruments/tuba2.png",9,23,9,0.9,"stim/64.jpeg",6,4,3,NA,"Instruments",1,2,"left","left",0.579000235,1,1,1,1,NA,NA,NA,NA,NA,NA,NA,NA,NA,NA,NA,NA,NA,NA,NA,NA,NA,NA,NA,NA,NA,NA,NA,NA
"139","stim/objects/Instruments/pipepiano2.png",10,23,10,0.7,"stim/42.jpeg",4,2,2,NA,"Instruments",1,3,"left","left",0.56400013,1,1,1,1,NA,NA,NA,NA,NA,NA,NA,NA,NA,NA,NA,NA,NA,NA,NA,NA,NA,NA,NA,NA,NA,NA,NA,NA
"61","stim/objects/HouseObjects/scale.png",11,23,11,0.5,"stim/23.jpeg",2,3,1,NA,"HouseObjects",2,4,"right","right",0.507000208,1,1,1,1,NA,NA,NA,NA,NA,NA,NA,NA,NA,NA,NA,NA,NA,NA,NA,NA,NA,NA,NA,NA,NA,NA,NA,NA
"25","stim/objects/HouseObjects/rug.png",12,23,12,0.5,"stim/14.jpeg",1,4,1,NA,"HouseObjects",2,2,"right","right",0.609000206,1,1,1,1,NA,NA,NA,NA,NA,NA,NA,NA,NA,NA,NA,NA,NA,NA,NA,NA,NA,NA,NA,NA,NA,NA,NA,NA
"233","stim/objects/Instruments/tuba2.png",13,23,13,0.9,"stim/64.jpeg",6,4,3,NA,"Instruments",1,3,"left","left",0.510000229,1,1,1,1,NA,NA,NA,NA,NA,NA,NA,NA,NA,NA,NA,NA,NA,NA,NA,NA,NA,NA,NA,NA,NA,NA,NA,NA
"112","stim/objects/HouseObjects/thermometer2.png",14,23,14,0.1,"stim/63.jpeg",6,3,3,NA,"HouseObjects",2,4,"right","left",0.583000183,0,0,1,1,NA,NA,NA,NA,NA,NA,NA,NA,NA,NA,NA,NA,NA,NA,NA,NA,NA,NA,NA,NA,NA,NA,NA,NA
"39","stim/objects/HouseObjects/safetypin2.png",15,23,15,0.9,"stim/51.jpeg",5,1,3,NA,"HouseObjects",2,3,"right","right",0.671000004,1,1,1,1,NA,NA,NA,NA,NA,NA,NA,NA,NA,NA,NA,NA,NA,NA,NA,NA,NA,NA,NA,NA,NA,NA,NA,NA
"22","stim/objects/HouseObjects/rubbergloves2.png",16,23,16,0.3,"stim/43.jpeg",4,3,2,NA,"HouseObjects",2,4,"right","left",0.660000324,0,0,1,1,NA,NA,NA,NA,NA,NA,NA,NA,NA,NA,NA,NA,NA,NA,NA,NA,NA,NA,NA,NA,NA,NA,NA,NA
"175","stim/objects/Instruments/speaker.png",17,23,17,0.5,"stim/22.jpeg",2,2,1,NA,"Instruments",1,4,"left","left",0.671000242,1,1,1,1,NA,NA,NA,NA,NA,NA,NA,NA,NA,NA,NA,NA,NA,NA,NA,NA,NA,NA,NA,NA,NA,NA,NA,NA
"47","stim/objects/HouseObjects/saw.png",18,23,18,0.5,"stim/22.jpeg",2,2,1,NA,"HouseObjects",2,3,"right","left",0.480000019,0,0,1,1,NA,NA,NA,NA,NA,NA,NA,NA,NA,NA,NA,NA,NA,NA,NA,NA,NA,NA,NA,NA,NA,NA,NA,NA
"187","stim/objects/Instruments/timbal.png",19,23,19,0.5,"stim/24.jpeg",2,4,1,NA,"Instruments",1,1,"left","right",0.676000118,0,0,1,1,NA,NA,NA,NA,NA,NA,NA,NA,NA,NA,NA,NA,NA,NA,NA,NA,NA,NA,NA,NA,NA,NA,NA,NA
"126","stim/objects/Instruments/panflute2.png",20,23,20,0.7,"stim/41.jpeg",4,1,2,NA,"Instruments",1,2,"left","left",0.674000263,1,1,1,1,NA,NA,NA,NA,NA,NA,NA,NA,NA,NA,NA,NA,NA,NA,NA,NA,NA,NA,NA,NA,NA,NA,NA,NA
"193","stim/objects/Instruments/triangle.png",21,23,21,0.3,"stim/31.jpeg",3,1,2,NA,"Instruments",1,3,"left","left",0.554000139,1,1,1,1,NA,NA,NA,NA,NA,NA,NA,NA,NA,NA,NA,NA,NA,NA,NA,NA,NA,NA,NA,NA,NA,NA,NA,NA
"30","stim/objects/HouseObjects/rug2.png",22,23,22,0.3,"stim/44.jpeg",4,4,2,NA,"HouseObjects",2,4,"right","left",0.675000191,0,0,1,1,NA,NA,NA,NA,NA,NA,NA,NA,NA,NA,NA,NA,NA,NA,NA,NA,NA,NA,NA,NA,NA,NA,NA,NA
"181","stim/objects/Instruments/tambourine.png",23,23,23,0.5,"stim/23.jpeg",2,3,1,NA,"Instruments",1,4,"left","",NA,0,0,1,1,NA,NA,NA,NA,NA,NA,NA,NA,NA,NA,NA,NA,NA,NA,NA,NA,NA,NA,NA,NA,NA,NA,NA,NA
"66","stim/objects/HouseObjects/scale2.png",24,23,24,0.9,"stim/53.jpeg",5,3,3,NA,"HouseObjects",2,2,"right","right",0.414000034,1,1,1,1,NA,NA,NA,NA,NA,NA,NA,NA,NA,NA,NA,NA,NA,NA,NA,NA,NA,NA,NA,NA,NA,NA,NA,NA
"162","stim/objects/Instruments/record2.png",25,23,25,0.7,"stim/43.jpeg",4,3,2,NA,"Instruments",1,1,"left","left",0.542000055,1,1,1,1,NA,NA,NA,NA,NA,NA,NA,NA,NA,NA,NA,NA,NA,NA,NA,NA,NA,NA,NA,NA,NA,NA,NA,NA
"169","stim/objects/Instruments/saxophone.png",26,23,26,0.5,"stim/21.jpeg",2,1,1,NA,"Instruments",1,3,"left","left",0.419000149,1,1,1,1,NA,NA,NA,NA,NA,NA,NA,NA,NA,NA,NA,NA,NA,NA,NA,NA,NA,NA,NA,NA,NA,NA,NA,NA
"196","stim/objects/Instruments/triangle2.png",27,23,27,0.9,"stim/61.jpeg",6,1,3,NA,"Instruments",1,4,"left","left",0.567000151,1,1,1,1,NA,NA,NA,NA,NA,NA,NA,NA,NA,NA,NA,NA,NA,NA,NA,NA,NA,NA,NA,NA,NA,NA,NA,NA
"6","stim/objects/HouseObjects/recyclingbin2.png",28,23,28,0.3,"stim/41.jpeg",4,1,2,NA,"HouseObjects",2,3,"right","left",0.486000061,0,0,1,1,NA,NA,NA,NA,NA,NA,NA,NA,NA,NA,NA,NA,NA,NA,NA,NA,NA,NA,NA,NA,NA,NA,NA,NA
"105","stim/objects/HouseObjects/thermometer.png",29,23,29,0.7,"stim/33.jpeg",3,3,2,NA,"HouseObjects",2,4,"right","left",0.60800004,0,0,1,1,NA,NA,NA,NA,NA,NA,NA,NA,NA,NA,NA,NA,NA,NA,NA,NA,NA,NA,NA,NA,NA,NA,NA,NA
"1","stim/objects/HouseObjects/recyclingbin.png",30,23,30,0.5,"stim/11.jpeg",1,1,1,NA,"HouseObjects",2,1,"right","right",0.576000214,1,1,1,1,NA,NA,NA,NA,NA,NA,NA,NA,NA,NA,NA,NA,NA,NA,NA,NA,NA,NA,NA,NA,NA,NA,NA,NA
"89","stim/objects/HouseObjects/spraybottle.png",31,23,31,0.7,"stim/31.jpeg",3,1,2,NA,"HouseObjects",2,3,"right","left",0.664999962,0,0,1,1,NA,NA,NA,NA,NA,NA,NA,NA,NA,NA,NA,NA,NA,NA,NA,NA,NA,NA,NA,NA,NA,NA,NA,NA
"182","stim/objects/Instruments/tambourine.png",32,23,32,0.5,"stim/23.jpeg",2,3,1,NA,"Instruments",1,4,"left","left",0.563000202,1,1,1,1,NA,NA,NA,NA,NA,NA,NA,NA,NA,NA,NA,NA,NA,NA,NA,NA,NA,NA,NA,NA,NA,NA,NA,NA
"9","stim/objects/HouseObjects/remote.png",33,23,33,0.5,"stim/12.jpeg",1,2,1,NA,"HouseObjects",2,2,"right","right",0.532999992,1,1,1,1,NA,NA,NA,NA,NA,NA,NA,NA,NA,NA,NA,NA,NA,NA,NA,NA,NA,NA,NA,NA,NA,NA,NA,NA
"67","stim/objects/HouseObjects/scale2.png",34,23,34,0.9,"stim/53.jpeg",5,3,3,NA,"HouseObjects",2,2,"right","right",0.521000147,1,1,1,1,NA,NA,NA,NA,NA,NA,NA,NA,NA,NA,NA,NA,NA,NA,NA,NA,NA,NA,NA,NA,NA,NA,NA,NA
"133","stim/objects/Instruments/pipepiano.png",35,23,35,0.5,"stim/12.jpeg",1,2,1,NA,"Instruments",1,4,"left","right",0.460000277,0,0,1,1,NA,NA,NA,NA,NA,NA,NA,NA,NA,NA,NA,NA,NA,NA,NA,NA,NA,NA,NA,NA,NA,NA,NA,NA
"140","stim/objects/Instruments/pipepiano2.png",36,23,36,0.7,"stim/42.jpeg",4,2,2,NA,"Instruments",1,1,"left","left",0.562000036,1,1,1,1,NA,NA,NA,NA,NA,NA,NA,NA,NA,NA,NA,NA,NA,NA,NA,NA,NA,NA,NA,NA,NA,NA,NA,NA
"134","stim/objects/Instruments/pipepiano.png",37,23,37,0.5,"stim/12.jpeg",1,2,1,NA,"Instruments",1,1,"left","left",0.472000122,1,1,1,1,NA,NA,NA,NA,NA,NA,NA,NA,NA,NA,NA,NA,NA,NA,NA,NA,NA,NA,NA,NA,NA,NA,NA,NA
"157","stim/objects/Instruments/record.png",38,23,38,0.5,"stim/13.jpeg",1,3,1,NA,"Instruments",1,2,"left","right",0.620000124,0,0,1,1,NA,NA,NA,NA,NA,NA,NA,NA,NA,NA,NA,NA,NA,NA,NA,NA,NA,NA,NA,NA,NA,NA,NA,NA
"206","stim/objects/Instruments/trombone.png",39,23,39,0.3,"stim/32.jpeg",3,2,2,NA,"Instruments",1,3,"left","left",0.558000088,1,1,1,1,NA,NA,NA,NA,NA,NA,NA,NA,NA,NA,NA,NA,NA,NA,NA,NA,NA,NA,NA,NA,NA,NA,NA,NA
"221","stim/objects/Instruments/trumpet2.png",40,23,40,0.9,"stim/63.jpeg",6,3,3,NA,"Instruments",1,4,"left","left",0.583000183,1,1,1,1,NA,NA,NA,NA,NA,NA,NA,NA,NA,NA,NA,NA,NA,NA,NA,NA,NA,NA,NA,NA,NA,NA,NA,NA
"207","stim/objects/Instruments/trombone.png",41,23,41,0.3,"stim/32.jpeg",3,2,2,NA,"Instruments",1,2,"left","left",0.457000256,1,1,1,1,NA,NA,NA,NA,NA,NA,NA,NA,NA,NA,NA,NA,NA,NA,NA,NA,NA,NA,NA,NA,NA,NA,NA,NA
"122","stim/objects/Instruments/panflute.png",42,23,42,0.5,"stim/11.jpeg",1,1,1,NA,"Instruments",1,1,"left","right",0.408000231,0,0,1,1,NA,NA,NA,NA,NA,NA,NA,NA,NA,NA,NA,NA,NA,NA,NA,NA,NA,NA,NA,NA,NA,NA,NA,NA
"186","stim/objects/Instruments/tambourine2.png",43,23,43,0.1,"stim/53.jpeg",5,3,3,NA,"Instruments",1,4,"left","right",0.421000242,0,0,1,1,NA,NA,NA,NA,NA,NA,NA,NA,NA,NA,NA,NA,NA,NA,NA,NA,NA,NA,NA,NA,NA,NA,NA,NA
"54","stim/objects/HouseObjects/saw2.png",44,23,44,0.9,"stim/52.jpeg",5,2,3,NA,"HouseObjects",2,4,"right","left",0.550000191,0,0,1,1,NA,NA,NA,NA,NA,NA,NA,NA,NA,NA,NA,NA,NA,NA,NA,NA,NA,NA,NA,NA,NA,NA,NA,NA
"40","stim/objects/HouseObjects/safetypin2.png",45,23,45,0.9,"stim/51.jpeg",5,1,3,NA,"HouseObjects",2,1,"right","left",0.761000156,0,0,1,1,NA,NA,NA,NA,NA,NA,NA,NA,NA,NA,NA,NA,NA,NA,NA,NA,NA,NA,NA,NA,NA,NA,NA,NA
"97","stim/objects/HouseObjects/teapot.png",46,23,46,0.7,"stim/32.jpeg",3,2,2,NA,"HouseObjects",2,4,"right","left",0.562000275,0,0,1,1,NA,NA,NA,NA,NA,NA,NA,NA,NA,NA,NA,NA,NA,NA,NA,NA,NA,NA,NA,NA,NA,NA,NA,NA
"208","stim/objects/Instruments/trombone2.png",47,23,47,0.9,"stim/62.jpeg",6,2,3,NA,"Instruments",1,1,"left","left",0.529999971,1,1,1,1,NA,NA,NA,NA,NA,NA,NA,NA,NA,NA,NA,NA,NA,NA,NA,NA,NA,NA,NA,NA,NA,NA,NA,NA
"234","stim/objects/Instruments/tuba2.png",48,23,48,0.9,"stim/64.jpeg",6,4,3,NA,"Instruments",1,1,"left","left",0.503000021,1,1,1,1,NA,NA,NA,NA,NA,NA,NA,NA,NA,NA,NA,NA,NA,NA,NA,NA,NA,NA,NA,NA,NA,NA,NA,NA
"123","stim/objects/Instruments/panflute.png",49,23,49,0.5,"stim/11.jpeg",1,1,1,NA,"Instruments",1,2,"left","left",0.725000381,1,1,1,1,NA,NA,NA,NA,NA,NA,NA,NA,NA,NA,NA,NA,NA,NA,NA,NA,NA,NA,NA,NA,NA,NA,NA,NA
"33","stim/objects/HouseObjects/safetypin.png",50,23,50,0.5,"stim/21.jpeg",2,1,1,NA,"HouseObjects",2,3,"right","left",0.518000364,0,0,1,1,NA,NA,NA,NA,NA,NA,NA,NA,NA,NA,NA,NA,NA,NA,NA,NA,NA,NA,NA,NA,NA,NA,NA,NA
"17","stim/objects/HouseObjects/rubbergloves.png",51,23,51,0.5,"stim/13.jpeg",1,3,1,NA,"HouseObjects",2,1,"right","right",0.555000067,1,1,1,1,NA,NA,NA,NA,NA,NA,NA,NA,NA,NA,NA,NA,NA,NA,NA,NA,NA,NA,NA,NA,NA,NA,NA,NA
"80","stim/objects/HouseObjects/sponge2.png",52,23,52,0.9,"stim/54.jpeg",5,4,3,NA,"HouseObjects",2,3,"right","right",0.693000317,1,1,1,1,NA,NA,NA,NA,NA,NA,NA,NA,NA,NA,NA,NA,NA,NA,NA,NA,NA,NA,NA,NA,NA,NA,NA,NA
"81","stim/objects/HouseObjects/sponge2.png",53,23,53,0.9,"stim/54.jpeg",5,4,3,NA,"HouseObjects",2,1,"right","right",0.50600028,1,1,1,1,NA,NA,NA,NA,NA,NA,NA,NA,NA,NA,NA,NA,NA,NA,NA,NA,NA,NA,NA,NA,NA,NA,NA,NA
"188","stim/objects/Instruments/timbal.png",54,23,54,0.5,"stim/24.jpeg",2,4,1,NA,"Instruments",1,3,"left","left",0.667000055,1,1,1,1,NA,NA,NA,NA,NA,NA,NA,NA,NA,NA,NA,NA,NA,NA,NA,NA,NA,NA,NA,NA,NA,NA,NA,NA
"68","stim/objects/HouseObjects/scale2.png",55,23,55,0.9,"stim/53.jpeg",5,3,3,NA,"HouseObjects",2,2,"right","right",0.613000154,1,1,1,1,NA,NA,NA,NA,NA,NA,NA,NA,NA,NA,NA,NA,NA,NA,NA,NA,NA,NA,NA,NA,NA,NA,NA,NA
"114","stim/objects/HouseObjects/thread.png",56,23,56,0.7,"stim/34.jpeg",3,4,2,NA,"HouseObjects",2,2,"right","left",0.570000172,0,0,1,1,NA,NA,NA,NA,NA,NA,NA,NA,NA,NA,NA,NA,NA,NA,NA,NA,NA,NA,NA,NA,NA,NA,NA,NA
"48","stim/objects/HouseObjects/saw.png",57,23,57,0.5,"stim/22.jpeg",2,2,1,NA,"HouseObjects",2,1,"right","left",0.687000036,0,0,1,1,NA,NA,NA,NA,NA,NA,NA,NA,NA,NA,NA,NA,NA,NA,NA,NA,NA,NA,NA,NA,NA,NA,NA,NA
"106","stim/objects/HouseObjects/thermometer.png",58,23,58,0.7,"stim/33.jpeg",3,3,2,NA,"HouseObjects",2,4,"right","right",0.857000113,1,1,1,1,NA,NA,NA,NA,NA,NA,NA,NA,NA,NA,NA,NA,NA,NA,NA,NA,NA,NA,NA,NA,NA,NA,NA,NA
"183","stim/objects/Instruments/tambourine.png",59,23,59,0.5,"stim/23.jpeg",2,3,1,NA,"Instruments",1,3,"left","left",0.690000296,1,1,1,1,NA,NA,NA,NA,NA,NA,NA,NA,NA,NA,NA,NA,NA,NA,NA,NA,NA,NA,NA,NA,NA,NA,NA,NA
"176","stim/objects/Instruments/speaker.png",60,23,60,0.5,"stim/22.jpeg",2,2,1,NA,"Instruments",1,1,"left","left",0.472000122,1,1,1,1,NA,NA,NA,NA,NA,NA,NA,NA,NA,NA,NA,NA,NA,NA,NA,NA,NA,NA,NA,NA,NA,NA,NA,NA
"69","stim/objects/HouseObjects/scale2.png",61,23,61,0.9,"stim/53.jpeg",5,3,3,NA,"HouseObjects",2,1,"right","right",0.463000059,1,1,1,1,NA,NA,NA,NA,NA,NA,NA,NA,NA,NA,NA,NA,NA,NA,NA,NA,NA,NA,NA,NA,NA,NA,NA,NA
"163","stim/objects/Instruments/record2.png",62,23,62,0.7,"stim/43.jpeg",4,3,2,NA,"Instruments",1,2,"left","left",0.611000061,1,1,1,1,NA,NA,NA,NA,NA,NA,NA,NA,NA,NA,NA,NA,NA,NA,NA,NA,NA,NA,NA,NA,NA,NA,NA,NA
"2","stim/objects/HouseObjects/recyclingbin.png",63,23,63,0.5,"stim/11.jpeg",1,1,1,NA,"HouseObjects",2,3,"right","right",0.615000248,1,1,1,1,NA,NA,NA,NA,NA,NA,NA,NA,NA,NA,NA,NA,NA,NA,NA,NA,NA,NA,NA,NA,NA,NA,NA,NA
"41","stim/objects/HouseObjects/safetypin2.png",64,23,64,0.9,"stim/51.jpeg",5,1,3,NA,"HouseObjects",2,3,"right","left",0.803000212,0,0,1,1,NA,NA,NA,NA,NA,NA,NA,NA,NA,NA,NA,NA,NA,NA,NA,NA,NA,NA,NA,NA,NA,NA,NA,NA
"62","stim/objects/HouseObjects/scale.png",65,23,65,0.5,"stim/23.jpeg",2,3,1,NA,"HouseObjects",2,3,"right","left",0.534000158,0,0,1,1,NA,NA,NA,NA,NA,NA,NA,NA,NA,NA,NA,NA,NA,NA,NA,NA,NA,NA,NA,NA,NA,NA,NA,NA
"164","stim/objects/Instruments/record2.png",66,23,66,0.7,"stim/43.jpeg",4,3,2,NA,"Instruments",1,4,"left","left",0.617000103,1,1,1,1,NA,NA,NA,NA,NA,NA,NA,NA,NA,NA,NA,NA,NA,NA,NA,NA,NA,NA,NA,NA,NA,NA,NA,NA
"165","stim/objects/Instruments/record2.png",67,23,67,0.7,"stim/43.jpeg",4,3,2,NA,"Instruments",1,3,"left","left",0.457000256,1,1,1,1,NA,NA,NA,NA,NA,NA,NA,NA,NA,NA,NA,NA,NA,NA,NA,NA,NA,NA,NA,NA,NA,NA,NA,NA
"31","stim/objects/HouseObjects/rug2.png",68,23,68,0.3,"stim/44.jpeg",4,4,2,NA,"HouseObjects",2,1,"right","",NA,0,0,1,1,NA,NA,NA,NA,NA,NA,NA,NA,NA,NA,NA,NA,NA,NA,NA,NA,NA,NA,NA,NA,NA,NA,NA,NA
"49","stim/objects/HouseObjects/saw.png",69,23,69,0.5,"stim/22.jpeg",2,2,1,NA,"HouseObjects",2,1,"right","left",0.795000076,0,0,1,1,NA,NA,NA,NA,NA,NA,NA,NA,NA,NA,NA,NA,NA,NA,NA,NA,NA,NA,NA,NA,NA,NA,NA,NA
"127","stim/objects/Instruments/panflute2.png",70,23,70,0.7,"stim/41.jpeg",4,1,2,NA,"Instruments",1,1,"left","left",0.688000202,1,1,1,1,NA,NA,NA,NA,NA,NA,NA,NA,NA,NA,NA,NA,NA,NA,NA,NA,NA,NA,NA,NA,NA,NA,NA,NA
"145","stim/objects/Instruments/record_player.png",71,23,71,0.5,"stim/14.jpeg",1,4,1,NA,"Instruments",1,4,"left","right",0.417000294,0,0,1,1,NA,NA,NA,NA,NA,NA,NA,NA,NA,NA,NA,NA,NA,NA,NA,NA,NA,NA,NA,NA,NA,NA,NA,NA
"42","stim/objects/HouseObjects/safetypin2.png",72,23,72,0.9,"stim/51.jpeg",5,1,3,NA,"HouseObjects",2,4,"right","right",0.54700017,1,1,1,1,NA,NA,NA,NA,NA,NA,NA,NA,NA,NA,NA,NA,NA,NA,NA,NA,NA,NA,NA,NA,NA,NA,NA,NA
"82","stim/objects/HouseObjects/sponge2.png",73,23,73,0.9,"stim/54.jpeg",5,4,3,NA,"HouseObjects",2,1,"right","left",0.683000326,0,0,1,1,NA,NA,NA,NA,NA,NA,NA,NA,NA,NA,NA,NA,NA,NA,NA,NA,NA,NA,NA,NA,NA,NA,NA,NA
"115","stim/objects/HouseObjects/thread.png",74,23,74,0.7,"stim/34.jpeg",3,4,2,NA,"HouseObjects",2,4,"right","right",0.686000347,1,1,1,1,NA,NA,NA,NA,NA,NA,NA,NA,NA,NA,NA,NA,NA,NA,NA,NA,NA,NA,NA,NA,NA,NA,NA,NA
"18","stim/objects/HouseObjects/rubbergloves.png",75,23,75,0.5,"stim/13.jpeg",1,3,1,NA,"HouseObjects",2,4,"right","right",0.712000132,1,1,1,1,NA,NA,NA,NA,NA,NA,NA,NA,NA,NA,NA,NA,NA,NA,NA,NA,NA,NA,NA,NA,NA,NA,NA,NA
"98","stim/objects/HouseObjects/teapot.png",76,23,76,0.7,"stim/32.jpeg",3,2,2,NA,"HouseObjects",2,1,"right","right",0.583000183,1,1,1,1,NA,NA,NA,NA,NA,NA,NA,NA,NA,NA,NA,NA,NA,NA,NA,NA,NA,NA,NA,NA,NA,NA,NA,NA
"128","stim/objects/Instruments/panflute2.png",77,23,77,0.7,"stim/41.jpeg",4,1,2,NA,"Instruments",1,2,"left","left",0.522000074,1,1,1,1,NA,NA,NA,NA,NA,NA,NA,NA,NA,NA,NA,NA,NA,NA,NA,NA,NA,NA,NA,NA,NA,NA,NA,NA
"174","stim/objects/Instruments/saxophone2.png",78,23,78,0.1,"stim/51.jpeg",5,1,3,NA,"Instruments",1,4,"left","right",0.423000097,0,0,1,1,NA,NA,NA,NA,NA,NA,NA,NA,NA,NA,NA,NA,NA,NA,NA,NA,NA,NA,NA,NA,NA,NA,NA,NA
"26","stim/objects/HouseObjects/rug.png",79,23,79,0.5,"stim/14.jpeg",1,4,1,NA,"HouseObjects",2,4,"right","right",0.44900012,1,1,1,1,NA,NA,NA,NA,NA,NA,NA,NA,NA,NA,NA,NA,NA,NA,NA,NA,NA,NA,NA,NA,NA,NA,NA,NA
"217","stim/objects/Instruments/trumpet.png",80,23,80,0.3,"stim/33.jpeg",3,3,2,NA,"Instruments",1,3,"left","right",0.585000277,0,0,1,1,NA,NA,NA,NA,NA,NA,NA,NA,NA,NA,NA,NA,NA,NA,NA,NA,NA,NA,NA,NA,NA,NA,NA,NA
"158","stim/objects/Instruments/record.png",81,23,81,0.5,"stim/13.jpeg",1,3,1,NA,"Instruments",1,1,"left","right",0.562999964,0,0,1,1,NA,NA,NA,NA,NA,NA,NA,NA,NA,NA,NA,NA,NA,NA,NA,NA,NA,NA,NA,NA,NA,NA,NA,NA
"70","stim/objects/HouseObjects/scale2.png",82,23,82,0.9,"stim/53.jpeg",5,3,3,NA,"HouseObjects",2,1,"right","right",0.568000078,1,1,1,1,NA,NA,NA,NA,NA,NA,NA,NA,NA,NA,NA,NA,NA,NA,NA,NA,NA,NA,NA,NA,NA,NA,NA,NA
"218","stim/objects/Instruments/trumpet.png",83,23,83,0.3,"stim/33.jpeg",3,3,2,NA,"Instruments",1,1,"left","right",0.391000032,0,0,1,1,NA,NA,NA,NA,NA,NA,NA,NA,NA,NA,NA,NA,NA,NA,NA,NA,NA,NA,NA,NA,NA,NA,NA,NA
"189","stim/objects/Instruments/timbal.png",84,23,84,0.5,"stim/24.jpeg",2,4,1,NA,"Instruments",1,2,"left","right",0.4150002,0,0,1,1,NA,NA,NA,NA,NA,NA,NA,NA,NA,NA,NA,NA,NA,NA,NA,NA,NA,NA,NA,NA,NA,NA,NA,NA
"159","stim/objects/Instruments/record.png",85,23,85,0.5,"stim/13.jpeg",1,3,1,NA,"Instruments",1,3,"left","right",0.527000189,0,0,1,1,NA,NA,NA,NA,NA,NA,NA,NA,NA,NA,NA,NA,NA,NA,NA,NA,NA,NA,NA,NA,NA,NA,NA,NA
"235","stim/objects/Instruments/tuba2.png",86,23,86,0.9,"stim/64.jpeg",6,4,3,NA,"Instruments",1,2,"left","left",0.554000139,1,1,1,1,NA,NA,NA,NA,NA,NA,NA,NA,NA,NA,NA,NA,NA,NA,NA,NA,NA,NA,NA,NA,NA,NA,NA,NA
"63","stim/objects/HouseObjects/scale.png",87,23,87,0.5,"stim/23.jpeg",2,3,1,NA,"HouseObjects",2,1,"right","right",0.518000364,1,1,1,1,NA,NA,NA,NA,NA,NA,NA,NA,NA,NA,NA,NA,NA,NA,NA,NA,NA,NA,NA,NA,NA,NA,NA,NA
"141","stim/objects/Instruments/pipepiano2.png",88,23,88,0.7,"stim/42.jpeg",4,2,2,NA,"Instruments",1,4,"left","left",0.576000214,1,1,1,1,NA,NA,NA,NA,NA,NA,NA,NA,NA,NA,NA,NA,NA,NA,NA,NA,NA,NA,NA,NA,NA,NA,NA,NA
"222","stim/objects/Instruments/trumpet2.png",89,23,89,0.9,"stim/63.jpeg",6,3,3,NA,"Instruments",1,3,"left","left",0.610000134,1,1,1,1,NA,NA,NA,NA,NA,NA,NA,NA,NA,NA,NA,NA,NA,NA,NA,NA,NA,NA,NA,NA,NA,NA,NA,NA
"83","stim/objects/HouseObjects/sponge2.png",90,23,90,0.9,"stim/54.jpeg",5,4,3,NA,"HouseObjects",2,1,"right","left",0.513000011,0,0,1,1,NA,NA,NA,NA,NA,NA,NA,NA,NA,NA,NA,NA,NA,NA,NA,NA,NA,NA,NA,NA,NA,NA,NA,NA
"71","stim/objects/HouseObjects/scale2.png",91,23,91,0.9,"stim/53.jpeg",5,3,3,NA,"HouseObjects",2,3,"right","right",0.482000113,1,1,1,1,NA,NA,NA,NA,NA,NA,NA,NA,NA,NA,NA,NA,NA,NA,NA,NA,NA,NA,NA,NA,NA,NA,NA,NA
"197","stim/objects/Instruments/triangle2.png",92,23,92,0.9,"stim/61.jpeg",6,1,3,NA,"Instruments",1,3,"left","left",0.536000252,1,1,1,1,NA,NA,NA,NA,NA,NA,NA,NA,NA,NA,NA,NA,NA,NA,NA,NA,NA,NA,NA,NA,NA,NA,NA,NA
"209","stim/objects/Instruments/trombone2.png",93,23,93,0.9,"stim/62.jpeg",6,2,3,NA,"Instruments",1,4,"left","left",0.543000221,1,1,1,1,NA,NA,NA,NA,NA,NA,NA,NA,NA,NA,NA,NA,NA,NA,NA,NA,NA,NA,NA,NA,NA,NA,NA,NA
"55","stim/objects/HouseObjects/saw2.png",94,23,94,0.9,"stim/52.jpeg",5,2,3,NA,"HouseObjects",2,3,"right","right",0.555000067,1,1,1,1,NA,NA,NA,NA,NA,NA,NA,NA,NA,NA,NA,NA,NA,NA,NA,NA,NA,NA,NA,NA,NA,NA,NA,NA
"72","stim/objects/HouseObjects/scale2.png",95,23,95,0.9,"stim/53.jpeg",5,3,3,NA,"HouseObjects",2,1,"right","right",0.693000078,1,1,1,1,NA,NA,NA,NA,NA,NA,NA,NA,NA,NA,NA,NA,NA,NA,NA,NA,NA,NA,NA,NA,NA,NA,NA,NA
"116","stim/objects/HouseObjects/thread.png",96,23,96,0.7,"stim/34.jpeg",3,4,2,NA,"HouseObjects",2,2,"right","left",0.634000301,0,0,1,1,NA,NA,NA,NA,NA,NA,NA,NA,NA,NA,NA,NA,NA,NA,NA,NA,NA,NA,NA,NA,NA,NA,NA,NA
"43","stim/objects/HouseObjects/safetypin2.png",97,23,97,0.9,"stim/51.jpeg",5,1,3,NA,"HouseObjects",2,2,"right","right",0.575000048,1,1,1,1,NA,NA,NA,NA,NA,NA,NA,NA,NA,NA,NA,NA,NA,NA,NA,NA,NA,NA,NA,NA,NA,NA,NA,NA
"210","stim/objects/Instruments/trombone2.png",98,23,98,0.9,"stim/62.jpeg",6,2,3,NA,"Instruments",1,1,"left","left",0.576000214,1,1,1,1,NA,NA,NA,NA,NA,NA,NA,NA,NA,NA,NA,NA,NA,NA,NA,NA,NA,NA,NA,NA,NA,NA,NA,NA
"104","stim/objects/HouseObjects/teapot2.png",99,23,99,0.1,"stim/62.jpeg",6,2,3,NA,"HouseObjects",2,1,"right","left",0.430000305,0,0,1,1,NA,NA,NA,NA,NA,NA,NA,NA,NA,NA,NA,NA,NA,NA,NA,NA,NA,NA,NA,NA,NA,NA,NA,NA
"184","stim/objects/Instruments/tambourine.png",100,23,100,0.5,"stim/23.jpeg",2,3,1,NA,"Instruments",1,4,"left","left",0.53000021,1,1,1,1,NA,NA,NA,NA,NA,NA,NA,NA,NA,NA,NA,NA,NA,NA,NA,NA,NA,NA,NA,NA,NA,NA,NA,NA
"236","stim/objects/Instruments/tuba2.png",101,23,101,0.9,"stim/64.jpeg",6,4,3,NA,"Instruments",1,2,"left","left",0.463000059,1,1,1,1,NA,NA,NA,NA,NA,NA,NA,NA,NA,NA,NA,NA,NA,NA,NA,NA,NA,NA,NA,NA,NA,NA,NA,NA
"50","stim/objects/HouseObjects/saw.png",102,23,102,0.5,"stim/22.jpeg",2,2,1,NA,"HouseObjects",2,2,"right","left",0.529000044,0,0,1,1,NA,NA,NA,NA,NA,NA,NA,NA,NA,NA,NA,NA,NA,NA,NA,NA,NA,NA,NA,NA,NA,NA,NA,NA
"56","stim/objects/HouseObjects/saw2.png",103,23,103,0.9,"stim/52.jpeg",5,2,3,NA,"HouseObjects",2,1,"right","right",0.553000212,1,1,1,1,NA,NA,NA,NA,NA,NA,NA,NA,NA,NA,NA,NA,NA,NA,NA,NA,NA,NA,NA,NA,NA,NA,NA,NA
"34","stim/objects/HouseObjects/safetypin.png",104,23,104,0.5,"stim/21.jpeg",2,1,1,NA,"HouseObjects",2,4,"right","left",0.557000399,0,0,1,1,NA,NA,NA,NA,NA,NA,NA,NA,NA,NA,NA,NA,NA,NA,NA,NA,NA,NA,NA,NA,NA,NA,NA,NA
"27","stim/objects/HouseObjects/rug.png",105,23,105,0.5,"stim/14.jpeg",1,4,1,NA,"HouseObjects",2,1,"right","right",0.634000301,1,1,1,1,NA,NA,NA,NA,NA,NA,NA,NA,NA,NA,NA,NA,NA,NA,NA,NA,NA,NA,NA,NA,NA,NA,NA,NA
"223","stim/objects/Instruments/trumpet2.png",106,23,106,0.9,"stim/63.jpeg",6,3,3,NA,"Instruments",1,3,"left","left",0.52300024,1,1,1,1,NA,NA,NA,NA,NA,NA,NA,NA,NA,NA,NA,NA,NA,NA,NA,NA,NA,NA,NA,NA,NA,NA,NA,NA
"142","stim/objects/Instruments/pipepiano2.png",107,23,107,0.7,"stim/42.jpeg",4,2,2,NA,"Instruments",1,3,"left","left",0.821000338,1,1,1,1,NA,NA,NA,NA,NA,NA,NA,NA,NA,NA,NA,NA,NA,NA,NA,NA,NA,NA,NA,NA,NA,NA,NA,NA
"35","stim/objects/HouseObjects/safetypin.png",108,23,108,0.5,"stim/21.jpeg",2,1,1,NA,"HouseObjects",2,4,"right","left",0.466000319,0,0,1,1,NA,NA,NA,NA,NA,NA,NA,NA,NA,NA,NA,NA,NA,NA,NA,NA,NA,NA,NA,NA,NA,NA,NA,NA
"23","stim/objects/HouseObjects/rubbergloves2.png",109,23,109,0.3,"stim/43.jpeg",4,3,2,NA,"HouseObjects",2,3,"right","left",0.483000278,0,0,1,1,NA,NA,NA,NA,NA,NA,NA,NA,NA,NA,NA,NA,NA,NA,NA,NA,NA,NA,NA,NA,NA,NA,NA,NA
"3","stim/objects/HouseObjects/recyclingbin.png",110,23,110,0.5,"stim/11.jpeg",1,1,1,NA,"HouseObjects",2,2,"right","left",0.630000114,0,0,1,1,NA,NA,NA,NA,NA,NA,NA,NA,NA,NA,NA,NA,NA,NA,NA,NA,NA,NA,NA,NA,NA,NA,NA,NA
"36","stim/objects/HouseObjects/safetypin.png",111,23,111,0.5,"stim/21.jpeg",2,1,1,NA,"HouseObjects",2,3,"right","left",0.559000015,0,0,1,1,NA,NA,NA,NA,NA,NA,NA,NA,NA,NA,NA,NA,NA,NA,NA,NA,NA,NA,NA,NA,NA,NA,NA,NA
"190","stim/objects/Instruments/timbal.png",112,23,112,0.5,"stim/24.jpeg",2,4,1,NA,"Instruments",1,3,"left","left",0.532000303,1,1,1,1,NA,NA,NA,NA,NA,NA,NA,NA,NA,NA,NA,NA,NA,NA,NA,NA,NA,NA,NA,NA,NA,NA,NA,NA
"19","stim/objects/HouseObjects/rubbergloves.png",113,23,113,0.5,"stim/13.jpeg",1,3,1,NA,"HouseObjects",2,3,"right","right",0.59100008,1,1,1,1,NA,NA,NA,NA,NA,NA,NA,NA,NA,NA,NA,NA,NA,NA,NA,NA,NA,NA,NA,NA,NA,NA,NA,NA
"146","stim/objects/Instruments/record_player.png",114,23,114,0.5,"stim/14.jpeg",1,4,1,NA,"Instruments",1,4,"left","right",0.533000231,0,0,1,1,NA,NA,NA,NA,NA,NA,NA,NA,NA,NA,NA,NA,NA,NA,NA,NA,NA,NA,NA,NA,NA,NA,NA,NA
"237","stim/objects/Instruments/tuba2.png",115,23,115,0.9,"stim/64.jpeg",6,4,3,NA,"Instruments",1,3,"left","left",0.525000095,1,1,1,1,NA,NA,NA,NA,NA,NA,NA,NA,NA,NA,NA,NA,NA,NA,NA,NA,NA,NA,NA,NA,NA,NA,NA,NA
"4","stim/objects/HouseObjects/recyclingbin.png",116,23,116,0.5,"stim/11.jpeg",1,1,1,NA,"HouseObjects",2,2,"right","",NA,0,0,1,1,NA,NA,NA,NA,NA,NA,NA,NA,NA,NA,NA,NA,NA,NA,NA,NA,NA,NA,NA,NA,NA,NA,NA,NA
"99","stim/objects/HouseObjects/teapot.png",117,23,117,0.7,"stim/32.jpeg",3,2,2,NA,"HouseObjects",2,1,"right","left",0.424999952,0,0,1,1,NA,NA,NA,NA,NA,NA,NA,NA,NA,NA,NA,NA,NA,NA,NA,NA,NA,NA,NA,NA,NA,NA,NA,NA
"24","stim/objects/HouseObjects/rubbergloves2.png",118,23,118,0.3,"stim/43.jpeg",4,3,2,NA,"HouseObjects",2,4,"right","left",0.555000067,0,0,1,1,NA,NA,NA,NA,NA,NA,NA,NA,NA,NA,NA,NA,NA,NA,NA,NA,NA,NA,NA,NA,NA,NA,NA,NA
"147","stim/objects/Instruments/record_player.png",119,23,119,0.5,"stim/14.jpeg",1,4,1,NA,"Instruments",1,4,"left","left",0.463000059,1,1,1,1,NA,NA,NA,NA,NA,NA,NA,NA,NA,NA,NA,NA,NA,NA,NA,NA,NA,NA,NA,NA,NA,NA,NA,NA
"7","stim/objects/HouseObjects/recyclingbin2.png",120,23,120,0.3,"stim/41.jpeg",4,1,2,NA,"HouseObjects",2,4,"right","left",0.508000374,0,0,1,1,NA,NA,NA,NA,NA,NA,NA,NA,NA,NA,NA,NA,NA,NA,NA,NA,NA,NA,NA,NA,NA,NA,NA,NA
"229","stim/objects/Instruments/tuba.png",121,23,121,0.3,"stim/34.jpeg",3,4,2,NA,"Instruments",1,2,"left","left",0.434000015,1,1,1,1,NA,NA,NA,NA,NA,NA,NA,NA,NA,NA,NA,NA,NA,NA,NA,NA,NA,NA,NA,NA,NA,NA,NA,NA
"107","stim/objects/HouseObjects/thermometer.png",122,23,122,0.7,"stim/33.jpeg",3,3,2,NA,"HouseObjects",2,1,"right","",NA,0,0,1,1,NA,NA,NA,NA,NA,NA,NA,NA,NA,NA,NA,NA,NA,NA,NA,NA,NA,NA,NA,NA,NA,NA,NA,NA
"75","stim/objects/HouseObjects/sponge.png",123,23,123,0.5,"stim/24.jpeg",2,4,1,NA,"HouseObjects",2,1,"right","right",0.395000219,1,1,1,1,NA,NA,NA,NA,NA,NA,NA,NA,NA,NA,NA,NA,NA,NA,NA,NA,NA,NA,NA,NA,NA,NA,NA,NA
"108","stim/objects/HouseObjects/thermometer.png",124,23,124,0.7,"stim/33.jpeg",3,3,2,NA,"HouseObjects",2,2,"right","right",0.644000053,1,1,1,1,NA,NA,NA,NA,NA,NA,NA,NA,NA,NA,NA,NA,NA,NA,NA,NA,NA,NA,NA,NA,NA,NA,NA,NA
"64","stim/objects/HouseObjects/scale.png",125,23,125,0.5,"stim/23.jpeg",2,3,1,NA,"HouseObjects",2,4,"right","left",0.587000132,0,0,1,1,NA,NA,NA,NA,NA,NA,NA,NA,NA,NA,NA,NA,NA,NA,NA,NA,NA,NA,NA,NA,NA,NA,NA,NA
"238","stim/objects/Instruments/tuba2.png",126,23,126,0.9,"stim/64.jpeg",6,4,3,NA,"Instruments",1,4,"left","left",0.464000225,1,1,1,1,NA,NA,NA,NA,NA,NA,NA,NA,NA,NA,NA,NA,NA,NA,NA,NA,NA,NA,NA,NA,NA,NA,NA,NA
"90","stim/objects/HouseObjects/spraybottle.png",127,23,127,0.7,"stim/31.jpeg",3,1,2,NA,"HouseObjects",2,3,"right","left",0.793000221,0,0,1,1,NA,NA,NA,NA,NA,NA,NA,NA,NA,NA,NA,NA,NA,NA,NA,NA,NA,NA,NA,NA,NA,NA,NA,NA
"180","stim/objects/Instruments/speaker2.png",128,23,128,0.1,"stim/52.jpeg",5,2,3,NA,"Instruments",1,3,"left","left",0.537000179,1,1,1,1,NA,NA,NA,NA,NA,NA,NA,NA,NA,NA,NA,NA,NA,NA,NA,NA,NA,NA,NA,NA,NA,NA,NA,NA
"96","stim/objects/HouseObjects/spraybottle2.png",129,23,129,0.1,"stim/61.jpeg",6,1,3,NA,"HouseObjects",2,2,"right","left",0.444000244,0,0,1,1,NA,NA,NA,NA,NA,NA,NA,NA,NA,NA,NA,NA,NA,NA,NA,NA,NA,NA,NA,NA,NA,NA,NA,NA
"191","stim/objects/Instruments/timbal.png",130,23,130,0.5,"stim/24.jpeg",2,4,1,NA,"Instruments",1,4,"left","left",0.38800025,1,1,1,1,NA,NA,NA,NA,NA,NA,NA,NA,NA,NA,NA,NA,NA,NA,NA,NA,NA,NA,NA,NA,NA,NA,NA,NA
"166","stim/objects/Instruments/record2.png",131,23,131,0.7,"stim/43.jpeg",4,3,2,NA,"Instruments",1,3,"left","left",0.779000282,1,1,1,1,NA,NA,NA,NA,NA,NA,NA,NA,NA,NA,NA,NA,NA,NA,NA,NA,NA,NA,NA,NA,NA,NA,NA,NA
"211","stim/objects/Instruments/trombone2.png",132,23,132,0.9,"stim/62.jpeg",6,2,3,NA,"Instruments",1,4,"left","left",0.526000023,1,1,1,1,NA,NA,NA,NA,NA,NA,NA,NA,NA,NA,NA,NA,NA,NA,NA,NA,NA,NA,NA,NA,NA,NA,NA,NA
"212","stim/objects/Instruments/trombone2.png",133,23,133,0.9,"stim/62.jpeg",6,2,3,NA,"Instruments",1,1,"left","left",0.390000105,1,1,1,1,NA,NA,NA,NA,NA,NA,NA,NA,NA,NA,NA,NA,NA,NA,NA,NA,NA,NA,NA,NA,NA,NA,NA,NA
"129","stim/objects/Instruments/panflute2.png",134,23,134,0.7,"stim/41.jpeg",4,1,2,NA,"Instruments",1,3,"left","left",0.529000282,1,1,1,1,NA,NA,NA,NA,NA,NA,NA,NA,NA,NA,NA,NA,NA,NA,NA,NA,NA,NA,NA,NA,NA,NA,NA,NA
"10","stim/objects/HouseObjects/remote.png",135,23,135,0.5,"stim/12.jpeg",1,2,1,NA,"HouseObjects",2,3,"right","left",0.410000086,0,0,1,1,NA,NA,NA,NA,NA,NA,NA,NA,NA,NA,NA,NA,NA,NA,NA,NA,NA,NA,NA,NA,NA,NA,NA,NA
"11","stim/objects/HouseObjects/remote.png",136,23,136,0.5,"stim/12.jpeg",1,2,1,NA,"HouseObjects",2,2,"right","left",0.508000135,0,0,1,1,NA,NA,NA,NA,NA,NA,NA,NA,NA,NA,NA,NA,NA,NA,NA,NA,NA,NA,NA,NA,NA,NA,NA,NA
"91","stim/objects/HouseObjects/spraybottle.png",137,23,137,0.7,"stim/31.jpeg",3,1,2,NA,"HouseObjects",2,4,"right","left",0.668000221,0,0,1,1,NA,NA,NA,NA,NA,NA,NA,NA,NA,NA,NA,NA,NA,NA,NA,NA,NA,NA,NA,NA,NA,NA,NA,NA
"92","stim/objects/HouseObjects/spraybottle.png",138,23,138,0.7,"stim/31.jpeg",3,1,2,NA,"HouseObjects",2,4,"right","right",0.627000332,1,1,1,1,NA,NA,NA,NA,NA,NA,NA,NA,NA,NA,NA,NA,NA,NA,NA,NA,NA,NA,NA,NA,NA,NA,NA,NA
"57","stim/objects/HouseObjects/saw2.png",139,23,139,0.9,"stim/52.jpeg",5,2,3,NA,"HouseObjects",2,2,"right","right",0.587000132,1,1,1,1,NA,NA,NA,NA,NA,NA,NA,NA,NA,NA,NA,NA,NA,NA,NA,NA,NA,NA,NA,NA,NA,NA,NA,NA
"148","stim/objects/Instruments/record_player.png",140,23,140,0.5,"stim/14.jpeg",1,4,1,NA,"Instruments",1,1,"left","right",0.726000071,0,0,1,1,NA,NA,NA,NA,NA,NA,NA,NA,NA,NA,NA,NA,NA,NA,NA,NA,NA,NA,NA,NA,NA,NA,NA,NA
"192","stim/objects/Instruments/timbal2.png",141,23,141,0.1,"stim/54.jpeg",5,4,3,NA,"Instruments",1,1,"left","right",0.604000092,0,0,1,1,NA,NA,NA,NA,NA,NA,NA,NA,NA,NA,NA,NA,NA,NA,NA,NA,NA,NA,NA,NA,NA,NA,NA,NA
"177","stim/objects/Instruments/speaker.png",142,23,142,0.5,"stim/22.jpeg",2,2,1,NA,"Instruments",1,3,"left","left",0.525000095,1,1,1,1,NA,NA,NA,NA,NA,NA,NA,NA,NA,NA,NA,NA,NA,NA,NA,NA,NA,NA,NA,NA,NA,NA,NA,NA
"32","stim/objects/HouseObjects/rug2.png",143,23,143,0.3,"stim/44.jpeg",4,4,2,NA,"HouseObjects",2,2,"right","left",0.643000126,0,0,1,1,NA,NA,NA,NA,NA,NA,NA,NA,NA,NA,NA,NA,NA,NA,NA,NA,NA,NA,NA,NA,NA,NA,NA,NA
"167","stim/objects/Instruments/record2.png",144,23,144,0.7,"stim/43.jpeg",4,3,2,NA,"Instruments",1,1,"left","left",0.471000195,1,1,1,1,NA,NA,NA,NA,NA,NA,NA,NA,NA,NA,NA,NA,NA,NA,NA,NA,NA,NA,NA,NA,NA,NA,NA,NA
"170","stim/objects/Instruments/saxophone.png",145,23,145,0.5,"stim/21.jpeg",2,1,1,NA,"Instruments",1,3,"left","left",0.583000183,1,1,1,1,NA,NA,NA,NA,NA,NA,NA,NA,NA,NA,NA,NA,NA,NA,NA,NA,NA,NA,NA,NA,NA,NA,NA,NA
"76","stim/objects/HouseObjects/sponge.png",146,23,146,0.5,"stim/24.jpeg",2,4,1,NA,"HouseObjects",2,2,"right","left",0.583000183,0,0,1,1,NA,NA,NA,NA,NA,NA,NA,NA,NA,NA,NA,NA,NA,NA,NA,NA,NA,NA,NA,NA,NA,NA,NA,NA
"12","stim/objects/HouseObjects/remote.png",147,23,147,0.5,"stim/12.jpeg",1,2,1,NA,"HouseObjects",2,1,"right","left",0.617000103,0,0,1,1,NA,NA,NA,NA,NA,NA,NA,NA,NA,NA,NA,NA,NA,NA,NA,NA,NA,NA,NA,NA,NA,NA,NA,NA
"20","stim/objects/HouseObjects/rubbergloves.png",148,23,148,0.5,"stim/13.jpeg",1,3,1,NA,"HouseObjects",2,2,"right","right",0.368000269,1,1,1,1,NA,NA,NA,NA,NA,NA,NA,NA,NA,NA,NA,NA,NA,NA,NA,NA,NA,NA,NA,NA,NA,NA,NA,NA
"65","stim/objects/HouseObjects/scale.png",149,23,149,0.5,"stim/23.jpeg",2,3,1,NA,"HouseObjects",2,2,"right","left",0.509000301,0,0,1,1,NA,NA,NA,NA,NA,NA,NA,NA,NA,NA,NA,NA,NA,NA,NA,NA,NA,NA,NA,NA,NA,NA,NA,NA
"14","stim/objects/HouseObjects/remote2.png",150,23,150,0.3,"stim/42.jpeg",4,2,2,NA,"HouseObjects",2,2,"right","left",0.777000189,0,0,1,1,NA,NA,NA,NA,NA,NA,NA,NA,NA,NA,NA,NA,NA,NA,NA,NA,NA,NA,NA,NA,NA,NA,NA,NA
"77","stim/objects/HouseObjects/sponge.png",151,23,151,0.5,"stim/24.jpeg",2,4,1,NA,"HouseObjects",2,2,"right","left",0.417000294,0,0,1,1,NA,NA,NA,NA,NA,NA,NA,NA,NA,NA,NA,NA,NA,NA,NA,NA,NA,NA,NA,NA,NA,NA,NA,NA
"44","stim/objects/HouseObjects/safetypin2.png",152,23,152,0.9,"stim/51.jpeg",5,1,3,NA,"HouseObjects",2,4,"right","left",0.445000172,0,0,1,1,NA,NA,NA,NA,NA,NA,NA,NA,NA,NA,NA,NA,NA,NA,NA,NA,NA,NA,NA,NA,NA,NA,NA,NA
"213","stim/objects/Instruments/trombone2.png",153,23,153,0.9,"stim/62.jpeg",6,2,3,NA,"Instruments",1,1,"left","left",0.533000231,1,1,1,1,NA,NA,NA,NA,NA,NA,NA,NA,NA,NA,NA,NA,NA,NA,NA,NA,NA,NA,NA,NA,NA,NA,NA,NA
"120","stim/objects/HouseObjects/thread2.png",154,23,154,0.1,"stim/64.jpeg",6,4,3,NA,"HouseObjects",2,4,"right","left",0.544000149,0,0,1,1,NA,NA,NA,NA,NA,NA,NA,NA,NA,NA,NA,NA,NA,NA,NA,NA,NA,NA,NA,NA,NA,NA,NA,NA
"194","stim/objects/Instruments/triangle.png",155,23,155,0.3,"stim/31.jpeg",3,1,2,NA,"Instruments",1,2,"left","left",0.417000055,1,1,1,1,NA,NA,NA,NA,NA,NA,NA,NA,NA,NA,NA,NA,NA,NA,NA,NA,NA,NA,NA,NA,NA,NA,NA,NA
"100","stim/objects/HouseObjects/teapot.png",156,23,156,0.7,"stim/32.jpeg",3,2,2,NA,"HouseObjects",2,3,"right","left",0.504000187,0,0,1,1,NA,NA,NA,NA,NA,NA,NA,NA,NA,NA,NA,NA,NA,NA,NA,NA,NA,NA,NA,NA,NA,NA,NA,NA
"45","stim/objects/HouseObjects/safetypin2.png",157,23,157,0.9,"stim/51.jpeg",5,1,3,NA,"HouseObjects",2,1,"right","right",0.569000244,1,1,1,1,NA,NA,NA,NA,NA,NA,NA,NA,NA,NA,NA,NA,NA,NA,NA,NA,NA,NA,NA,NA,NA,NA,NA,NA
"101","stim/objects/HouseObjects/teapot.png",158,23,158,0.7,"stim/32.jpeg",3,2,2,NA,"HouseObjects",2,4,"right","left",0.587000132,0,0,1,1,NA,NA,NA,NA,NA,NA,NA,NA,NA,NA,NA,NA,NA,NA,NA,NA,NA,NA,NA,NA,NA,NA,NA,NA
"84","stim/objects/HouseObjects/sponge2.png",159,23,159,0.9,"stim/54.jpeg",5,4,3,NA,"HouseObjects",2,4,"right","right",0.486000061,1,1,1,1,NA,NA,NA,NA,NA,NA,NA,NA,NA,NA,NA,NA,NA,NA,NA,NA,NA,NA,NA,NA,NA,NA,NA,NA
"117","stim/objects/HouseObjects/thread.png",160,23,160,0.7,"stim/34.jpeg",3,4,2,NA,"HouseObjects",2,4,"right","right",0.366000175,1,1,1,1,NA,NA,NA,NA,NA,NA,NA,NA,NA,NA,NA,NA,NA,NA,NA,NA,NA,NA,NA,NA,NA,NA,NA,NA
"239","stim/objects/Instruments/tuba2.png",161,23,161,0.9,"stim/64.jpeg",6,4,3,NA,"Instruments",1,3,"left","left",0.525000095,1,1,1,1,NA,NA,NA,NA,NA,NA,NA,NA,NA,NA,NA,NA,NA,NA,NA,NA,NA,NA,NA,NA,NA,NA,NA,NA
"230","stim/objects/Instruments/tuba.png",162,23,162,0.3,"stim/34.jpeg",3,4,2,NA,"Instruments",1,3,"left","left",0.425000191,1,1,1,1,NA,NA,NA,NA,NA,NA,NA,NA,NA,NA,NA,NA,NA,NA,NA,NA,NA,NA,NA,NA,NA,NA,NA,NA
"15","stim/objects/HouseObjects/remote2.png",163,23,163,0.3,"stim/42.jpeg",4,2,2,NA,"HouseObjects",2,3,"right","right",0.519000292,1,1,1,1,NA,NA,NA,NA,NA,NA,NA,NA,NA,NA,NA,NA,NA,NA,NA,NA,NA,NA,NA,NA,NA,NA,NA,NA
"168","stim/objects/Instruments/record2.png",164,23,164,0.7,"stim/43.jpeg",4,3,2,NA,"Instruments",1,1,"left","left",0.413000107,1,1,1,1,NA,NA,NA,NA,NA,NA,NA,NA,NA,NA,NA,NA,NA,NA,NA,NA,NA,NA,NA,NA,NA,NA,NA,NA
"118","stim/objects/HouseObjects/thread.png",165,23,165,0.7,"stim/34.jpeg",3,4,2,NA,"HouseObjects",2,4,"right","right",0.448000193,1,1,1,1,NA,NA,NA,NA,NA,NA,NA,NA,NA,NA,NA,NA,NA,NA,NA,NA,NA,NA,NA,NA,NA,NA,NA,NA
"93","stim/objects/HouseObjects/spraybottle.png",166,23,166,0.7,"stim/31.jpeg",3,1,2,NA,"HouseObjects",2,1,"right","right",0.519000292,1,1,1,1,NA,NA,NA,NA,NA,NA,NA,NA,NA,NA,NA,NA,NA,NA,NA,NA,NA,NA,NA,NA,NA,NA,NA,NA
"198","stim/objects/Instruments/triangle2.png",167,23,167,0.9,"stim/61.jpeg",6,1,3,NA,"Instruments",1,3,"left","left",0.419000149,1,1,1,1,NA,NA,NA,NA,NA,NA,NA,NA,NA,NA,NA,NA,NA,NA,NA,NA,NA,NA,NA,NA,NA,NA,NA,NA
"21","stim/objects/HouseObjects/rubbergloves.png",168,23,168,0.5,"stim/13.jpeg",1,3,1,NA,"HouseObjects",2,3,"right","left",0.688000202,0,0,1,1,NA,NA,NA,NA,NA,NA,NA,NA,NA,NA,NA,NA,NA,NA,NA,NA,NA,NA,NA,NA,NA,NA,NA,NA
"119","stim/objects/HouseObjects/thread.png",169,23,169,0.7,"stim/34.jpeg",3,4,2,NA,"HouseObjects",2,3,"right","right",0.696000099,1,1,1,1,NA,NA,NA,NA,NA,NA,NA,NA,NA,NA,NA,NA,NA,NA,NA,NA,NA,NA,NA,NA,NA,NA,NA,NA
"78","stim/objects/HouseObjects/sponge.png",170,23,170,0.5,"stim/24.jpeg",2,4,1,NA,"HouseObjects",2,2,"right","left",0.633000135,0,0,1,1,NA,NA,NA,NA,NA,NA,NA,NA,NA,NA,NA,NA,NA,NA,NA,NA,NA,NA,NA,NA,NA,NA,NA,NA
"46","stim/objects/HouseObjects/safetypin2.png",171,23,171,0.9,"stim/51.jpeg",5,1,3,NA,"HouseObjects",2,4,"right","right",0.512000322,1,1,1,1,NA,NA,NA,NA,NA,NA,NA,NA,NA,NA,NA,NA,NA,NA,NA,NA,NA,NA,NA,NA,NA,NA,NA,NA
"130","stim/objects/Instruments/panflute2.png",172,23,172,0.7,"stim/41.jpeg",4,1,2,NA,"Instruments",1,1,"left","left",0.514000177,1,1,1,1,NA,NA,NA,NA,NA,NA,NA,NA,NA,NA,NA,NA,NA,NA,NA,NA,NA,NA,NA,NA,NA,NA,NA,NA
"102","stim/objects/HouseObjects/teapot.png",173,23,173,0.7,"stim/32.jpeg",3,2,2,NA,"HouseObjects",2,3,"right","right",0.671000242,1,1,1,1,NA,NA,NA,NA,NA,NA,NA,NA,NA,NA,NA,NA,NA,NA,NA,NA,NA,NA,NA,NA,NA,NA,NA,NA
"58","stim/objects/HouseObjects/saw2.png",174,23,174,0.9,"stim/52.jpeg",5,2,3,NA,"HouseObjects",2,2,"right","right",0.550000191,1,1,1,1,NA,NA,NA,NA,NA,NA,NA,NA,NA,NA,NA,NA,NA,NA,NA,NA,NA,NA,NA,NA,NA,NA,NA,NA
"178","stim/objects/Instruments/speaker.png",175,23,175,0.5,"stim/22.jpeg",2,2,1,NA,"Instruments",1,1,"left","left",0.570000172,1,1,1,1,NA,NA,NA,NA,NA,NA,NA,NA,NA,NA,NA,NA,NA,NA,NA,NA,NA,NA,NA,NA,NA,NA,NA,NA
"195","stim/objects/Instruments/triangle.png",176,23,176,0.3,"stim/31.jpeg",3,1,2,NA,"Instruments",1,2,"left","right",0.492000103,0,0,1,1,NA,NA,NA,NA,NA,NA,NA,NA,NA,NA,NA,NA,NA,NA,NA,NA,NA,NA,NA,NA,NA,NA,NA,NA
"185","stim/objects/Instruments/tambourine.png",177,23,177,0.5,"stim/23.jpeg",2,3,1,NA,"Instruments",1,1,"left","",NA,0,0,1,1,NA,NA,NA,NA,NA,NA,NA,NA,NA,NA,NA,NA,NA,NA,NA,NA,NA,NA,NA,NA,NA,NA,NA,NA
"28","stim/objects/HouseObjects/rug.png",178,23,178,0.5,"stim/14.jpeg",1,4,1,NA,"HouseObjects",2,3,"right","",NA,0,0,1,1,NA,NA,NA,NA,NA,NA,NA,NA,NA,NA,NA,NA,NA,NA,NA,NA,NA,NA,NA,NA,NA,NA,NA,NA
"171","stim/objects/Instruments/saxophone.png",179,23,179,0.5,"stim/21.jpeg",2,1,1,NA,"Instruments",1,2,"left","left",0.58700037,1,1,1,1,NA,NA,NA,NA,NA,NA,NA,NA,NA,NA,NA,NA,NA,NA,NA,NA,NA,NA,NA,NA,NA,NA,NA,NA
"150","stim/objects/Instruments/record_player2.png",180,23,180,0.7,"stim/44.jpeg",4,4,2,NA,"Instruments",1,1,"left","left",0.561000109,1,1,1,1,NA,NA,NA,NA,NA,NA,NA,NA,NA,NA,NA,NA,NA,NA,NA,NA,NA,NA,NA,NA,NA,NA,NA,NA
"124","stim/objects/Instruments/panflute.png",181,23,181,0.5,"stim/11.jpeg",1,1,1,NA,"Instruments",1,4,"left","left",0.690000296,1,1,1,1,NA,NA,NA,NA,NA,NA,NA,NA,NA,NA,NA,NA,NA,NA,NA,NA,NA,NA,NA,NA,NA,NA,NA,NA
"125","stim/objects/Instruments/panflute.png",182,23,182,0.5,"stim/11.jpeg",1,1,1,NA,"Instruments",1,2,"left","left",0.478000164,1,1,1,1,NA,NA,NA,NA,NA,NA,NA,NA,NA,NA,NA,NA,NA,NA,NA,NA,NA,NA,NA,NA,NA,NA,NA,NA
"29","stim/objects/HouseObjects/rug.png",183,23,183,0.5,"stim/14.jpeg",1,4,1,NA,"HouseObjects",2,1,"right","left",0.420000315,0,0,1,1,NA,NA,NA,NA,NA,NA,NA,NA,NA,NA,NA,NA,NA,NA,NA,NA,NA,NA,NA,NA,NA,NA,NA,NA
"13","stim/objects/HouseObjects/remote.png",184,23,184,0.5,"stim/12.jpeg",1,2,1,NA,"HouseObjects",2,2,"right","right",0.728000164,1,1,1,1,NA,NA,NA,NA,NA,NA,NA,NA,NA,NA,NA,NA,NA,NA,NA,NA,NA,NA,NA,NA,NA,NA,NA,NA
"135","stim/objects/Instruments/pipepiano.png",185,23,185,0.5,"stim/12.jpeg",1,2,1,NA,"Instruments",1,2,"left","left",0.635000229,1,1,1,1,NA,NA,NA,NA,NA,NA,NA,NA,NA,NA,NA,NA,NA,NA,NA,NA,NA,NA,NA,NA,NA,NA,NA,NA
"85","stim/objects/HouseObjects/sponge2.png",186,23,186,0.9,"stim/54.jpeg",5,4,3,NA,"HouseObjects",2,2,"right","right",0.657999992,1,1,1,1,NA,NA,NA,NA,NA,NA,NA,NA,NA,NA,NA,NA,NA,NA,NA,NA,NA,NA,NA,NA,NA,NA,NA,NA
"199","stim/objects/Instruments/triangle2.png",187,23,187,0.9,"stim/61.jpeg",6,1,3,NA,"Instruments",1,2,"left","left",0.518000126,1,1,1,1,NA,NA,NA,NA,NA,NA,NA,NA,NA,NA,NA,NA,NA,NA,NA,NA,NA,NA,NA,NA,NA,NA,NA,NA
"151","stim/objects/Instruments/record_player2.png",188,23,188,0.7,"stim/44.jpeg",4,4,2,NA,"Instruments",1,1,"left","left",0.561000109,1,1,1,1,NA,NA,NA,NA,NA,NA,NA,NA,NA,NA,NA,NA,NA,NA,NA,NA,NA,NA,NA,NA,NA,NA,NA,NA
"172","stim/objects/Instruments/saxophone.png",189,23,189,0.5,"stim/21.jpeg",2,1,1,NA,"Instruments",1,4,"left","left",0.550000191,1,1,1,1,NA,NA,NA,NA,NA,NA,NA,NA,NA,NA,NA,NA,NA,NA,NA,NA,NA,NA,NA,NA,NA,NA,NA,NA
"136","stim/objects/Instruments/pipepiano.png",190,23,190,0.5,"stim/12.jpeg",1,2,1,NA,"Instruments",1,3,"left","right",0.635000229,0,0,1,1,NA,NA,NA,NA,NA,NA,NA,NA,NA,NA,NA,NA,NA,NA,NA,NA,NA,NA,NA,NA,NA,NA,NA,NA
"51","stim/objects/HouseObjects/saw.png",191,23,191,0.5,"stim/22.jpeg",2,2,1,NA,"HouseObjects",2,1,"right","left",0.542000294,0,0,1,1,NA,NA,NA,NA,NA,NA,NA,NA,NA,NA,NA,NA,NA,NA,NA,NA,NA,NA,NA,NA,NA,NA,NA,NA
"152","stim/objects/Instruments/record_player2.png",192,23,192,0.7,"stim/44.jpeg",4,4,2,NA,"Instruments",1,1,"left","left",0.445000172,1,1,1,1,NA,NA,NA,NA,NA,NA,NA,NA,NA,NA,NA,NA,NA,NA,NA,NA,NA,NA,NA,NA,NA,NA,NA,NA
"131","stim/objects/Instruments/panflute2.png",193,23,193,0.7,"stim/41.jpeg",4,1,2,NA,"Instruments",1,2,"left","left",0.729000092,1,1,1,1,NA,NA,NA,NA,NA,NA,NA,NA,NA,NA,NA,NA,NA,NA,NA,NA,NA,NA,NA,NA,NA,NA,NA,NA
"231","stim/objects/Instruments/tuba.png",194,23,194,0.3,"stim/34.jpeg",3,4,2,NA,"Instruments",1,3,"left","right",0.669000149,0,0,1,1,NA,NA,NA,NA,NA,NA,NA,NA,NA,NA,NA,NA,NA,NA,NA,NA,NA,NA,NA,NA,NA,NA,NA,NA
"94","stim/objects/HouseObjects/spraybottle.png",195,23,195,0.7,"stim/31.jpeg",3,1,2,NA,"HouseObjects",2,2,"right","right",0.548000097,1,1,1,1,NA,NA,NA,NA,NA,NA,NA,NA,NA,NA,NA,NA,NA,NA,NA,NA,NA,NA,NA,NA,NA,NA,NA,NA
"224","stim/objects/Instruments/trumpet2.png",196,23,196,0.9,"stim/63.jpeg",6,3,3,NA,"Instruments",1,1,"left","left",0.597000122,1,1,1,1,NA,NA,NA,NA,NA,NA,NA,NA,NA,NA,NA,NA,NA,NA,NA,NA,NA,NA,NA,NA,NA,NA,NA,NA
"214","stim/objects/Instruments/trombone2.png",197,23,197,0.9,"stim/62.jpeg",6,2,3,NA,"Instruments",1,1,"left","left",0.505000353,1,1,1,1,NA,NA,NA,NA,NA,NA,NA,NA,NA,NA,NA,NA,NA,NA,NA,NA,NA,NA,NA,NA,NA,NA,NA,NA
"153","stim/objects/Instruments/record_player2.png",198,23,198,0.7,"stim/44.jpeg",4,4,2,NA,"Instruments",1,4,"left","left",0.592000008,1,1,1,1,NA,NA,NA,NA,NA,NA,NA,NA,NA,NA,NA,NA,NA,NA,NA,NA,NA,NA,NA,NA,NA,NA,NA,NA
"73","stim/objects/HouseObjects/scale2.png",199,23,199,0.9,"stim/53.jpeg",5,3,3,NA,"HouseObjects",2,2,"right","right",0.59100008,1,1,1,1,NA,NA,NA,NA,NA,NA,NA,NA,NA,NA,NA,NA,NA,NA,NA,NA,NA,NA,NA,NA,NA,NA,NA,NA
"103","stim/objects/HouseObjects/teapot.png",200,23,200,0.7,"stim/32.jpeg",3,2,2,NA,"HouseObjects",2,1,"right","left",0.430000305,0,0,1,1,NA,NA,NA,NA,NA,NA,NA,NA,NA,NA,NA,NA,NA,NA,NA,NA,NA,NA,NA,NA,NA,NA,NA,NA
"154","stim/objects/Instruments/record_player2.png",201,23,201,0.7,"stim/44.jpeg",4,4,2,NA,"Instruments",1,2,"left","right",0.454000235,0,0,1,1,NA,NA,NA,NA,NA,NA,NA,NA,NA,NA,NA,NA,NA,NA,NA,NA,NA,NA,NA,NA,NA,NA,NA,NA
"5","stim/objects/HouseObjects/recyclingbin.png",202,23,202,0.5,"stim/11.jpeg",1,1,1,NA,"HouseObjects",2,2,"right","right",0.636000156,1,1,1,1,NA,NA,NA,NA,NA,NA,NA,NA,NA,NA,NA,NA,NA,NA,NA,NA,NA,NA,NA,NA,NA,NA,NA,NA
"109","stim/objects/HouseObjects/thermometer.png",203,23,203,0.7,"stim/33.jpeg",3,3,2,NA,"HouseObjects",2,4,"right","left",0.509000063,0,0,1,1,NA,NA,NA,NA,NA,NA,NA,NA,NA,NA,NA,NA,NA,NA,NA,NA,NA,NA,NA,NA,NA,NA,NA,NA
"179","stim/objects/Instruments/speaker.png",204,23,204,0.5,"stim/22.jpeg",2,2,1,NA,"Instruments",1,4,"left","left",0.759000063,1,1,1,1,NA,NA,NA,NA,NA,NA,NA,NA,NA,NA,NA,NA,NA,NA,NA,NA,NA,NA,NA,NA,NA,NA,NA,NA
"37","stim/objects/HouseObjects/safetypin.png",205,23,205,0.5,"stim/21.jpeg",2,1,1,NA,"HouseObjects",2,3,"right","left",0.56400013,0,0,1,1,NA,NA,NA,NA,NA,NA,NA,NA,NA,NA,NA,NA,NA,NA,NA,NA,NA,NA,NA,NA,NA,NA,NA,NA
"160","stim/objects/Instruments/record.png",206,23,206,0.5,"stim/13.jpeg",1,3,1,NA,"Instruments",1,3,"left","right",0.63800025,0,0,1,1,NA,NA,NA,NA,NA,NA,NA,NA,NA,NA,NA,NA,NA,NA,NA,NA,NA,NA,NA,NA,NA,NA,NA,NA
"59","stim/objects/HouseObjects/saw2.png",207,23,207,0.9,"stim/52.jpeg",5,2,3,NA,"HouseObjects",2,3,"right","right",0.524000168,1,1,1,1,NA,NA,NA,NA,NA,NA,NA,NA,NA,NA,NA,NA,NA,NA,NA,NA,NA,NA,NA,NA,NA,NA,NA,NA
"79","stim/objects/HouseObjects/sponge.png",208,23,208,0.5,"stim/24.jpeg",2,4,1,NA,"HouseObjects",2,2,"right","left",0.562999964,0,0,1,1,NA,NA,NA,NA,NA,NA,NA,NA,NA,NA,NA,NA,NA,NA,NA,NA,NA,NA,NA,NA,NA,NA,NA,NA
"200","stim/objects/Instruments/triangle2.png",209,23,209,0.9,"stim/61.jpeg",6,1,3,NA,"Instruments",1,2,"left","left",0.487000227,1,1,1,1,NA,NA,NA,NA,NA,NA,NA,NA,NA,NA,NA,NA,NA,NA,NA,NA,NA,NA,NA,NA,NA,NA,NA,NA
"240","stim/objects/Instruments/tuba2.png",210,23,210,0.9,"stim/64.jpeg",6,4,3,NA,"Instruments",1,3,"left","left",0.486000299,1,1,1,1,NA,NA,NA,NA,NA,NA,NA,NA,NA,NA,NA,NA,NA,NA,NA,NA,NA,NA,NA,NA,NA,NA,NA,NA
"110","stim/objects/HouseObjects/thermometer.png",211,23,211,0.7,"stim/33.jpeg",3,3,2,NA,"HouseObjects",2,1,"right","left",0.509000301,0,0,1,1,NA,NA,NA,NA,NA,NA,NA,NA,NA,NA,NA,NA,NA,NA,NA,NA,NA,NA,NA,NA,NA,NA,NA,NA
"215","stim/objects/Instruments/trombone2.png",212,23,212,0.9,"stim/62.jpeg",6,2,3,NA,"Instruments",1,1,"left","left",0.465000153,1,1,1,1,NA,NA,NA,NA,NA,NA,NA,NA,NA,NA,NA,NA,NA,NA,NA,NA,NA,NA,NA,NA,NA,NA,NA,NA
"86","stim/objects/HouseObjects/sponge2.png",213,23,213,0.9,"stim/54.jpeg",5,4,3,NA,"HouseObjects",2,2,"right","right",0.455000162,1,1,1,1,NA,NA,NA,NA,NA,NA,NA,NA,NA,NA,NA,NA,NA,NA,NA,NA,NA,NA,NA,NA,NA,NA,NA,NA
"173","stim/objects/Instruments/saxophone.png",214,23,214,0.5,"stim/21.jpeg",2,1,1,NA,"Instruments",1,4,"left","right",0.408000231,0,0,1,1,NA,NA,NA,NA,NA,NA,NA,NA,NA,NA,NA,NA,NA,NA,NA,NA,NA,NA,NA,NA,NA,NA,NA,NA
"132","stim/objects/Instruments/panflute2.png",215,23,215,0.7,"stim/41.jpeg",4,1,2,NA,"Instruments",1,1,"left","left",0.697000265,1,1,1,1,NA,NA,NA,NA,NA,NA,NA,NA,NA,NA,NA,NA,NA,NA,NA,NA,NA,NA,NA,NA,NA,NA,NA,NA
"111","stim/objects/HouseObjects/thermometer.png",216,23,216,0.7,"stim/33.jpeg",3,3,2,NA,"HouseObjects",2,2,"right","",NA,0,0,1,1,NA,NA,NA,NA,NA,NA,NA,NA,NA,NA,NA,NA,NA,NA,NA,NA,NA,NA,NA,NA,NA,NA,NA,NA
"219","stim/objects/Instruments/trumpet.png",217,23,217,0.3,"stim/33.jpeg",3,3,2,NA,"Instruments",1,4,"left","right",0.379000187,0,0,1,1,NA,NA,NA,NA,NA,NA,NA,NA,NA,NA,NA,NA,NA,NA,NA,NA,NA,NA,NA,NA,NA,NA,NA,NA
"155","stim/objects/Instruments/record_player2.png",218,23,218,0.7,"stim/44.jpeg",4,4,2,NA,"Instruments",1,1,"left","left",0.47900033,1,1,1,1,NA,NA,NA,NA,NA,NA,NA,NA,NA,NA,NA,NA,NA,NA,NA,NA,NA,NA,NA,NA,NA,NA,NA,NA
"156","stim/objects/Instruments/record_player2.png",219,23,219,0.7,"stim/44.jpeg",4,4,2,NA,"Instruments",1,3,"left","left",0.543000221,1,1,1,1,NA,NA,NA,NA,NA,NA,NA,NA,NA,NA,NA,NA,NA,NA,NA,NA,NA,NA,NA,NA,NA,NA,NA,NA
"225","stim/objects/Instruments/trumpet2.png",220,23,220,0.9,"stim/63.jpeg",6,3,3,NA,"Instruments",1,2,"left","left",0.480000019,1,1,1,1,NA,NA,NA,NA,NA,NA,NA,NA,NA,NA,NA,NA,NA,NA,NA,NA,NA,NA,NA,NA,NA,NA,NA,NA
"201","stim/objects/Instruments/triangle2.png",221,23,221,0.9,"stim/61.jpeg",6,1,3,NA,"Instruments",1,4,"left","left",0.528000116,1,1,1,1,NA,NA,NA,NA,NA,NA,NA,NA,NA,NA,NA,NA,NA,NA,NA,NA,NA,NA,NA,NA,NA,NA,NA,NA
"95","stim/objects/HouseObjects/spraybottle.png",222,23,222,0.7,"stim/31.jpeg",3,1,2,NA,"HouseObjects",2,2,"right","left",0.462000132,0,0,1,1,NA,NA,NA,NA,NA,NA,NA,NA,NA,NA,NA,NA,NA,NA,NA,NA,NA,NA,NA,NA,NA,NA,NA,NA
"226","stim/objects/Instruments/trumpet2.png",223,23,223,0.9,"stim/63.jpeg",6,3,3,NA,"Instruments",1,3,"left","left",0.424000025,1,1,1,1,NA,NA,NA,NA,NA,NA,NA,NA,NA,NA,NA,NA,NA,NA,NA,NA,NA,NA,NA,NA,NA,NA,NA,NA
"202","stim/objects/Instruments/triangle2.png",224,23,224,0.9,"stim/61.jpeg",6,1,3,NA,"Instruments",1,4,"left","left",0.816000223,1,1,1,1,NA,NA,NA,NA,NA,NA,NA,NA,NA,NA,NA,NA,NA,NA,NA,NA,NA,NA,NA,NA,NA,NA,NA,NA
"161","stim/objects/Instruments/record.png",225,23,225,0.5,"stim/13.jpeg",1,3,1,NA,"Instruments",1,1,"left","",NA,0,0,1,1,NA,NA,NA,NA,NA,NA,NA,NA,NA,NA,NA,NA,NA,NA,NA,NA,NA,NA,NA,NA,NA,NA,NA,NA
"227","stim/objects/Instruments/trumpet2.png",226,23,226,0.9,"stim/63.jpeg",6,3,3,NA,"Instruments",1,2,"left","right",0.492000341,0,0,1,1,NA,NA,NA,NA,NA,NA,NA,NA,NA,NA,NA,NA,NA,NA,NA,NA,NA,NA,NA,NA,NA,NA,NA,NA
"203","stim/objects/Instruments/triangle2.png",227,23,227,0.9,"stim/61.jpeg",6,1,3,NA,"Instruments",1,3,"left","left",0.396000147,1,1,1,1,NA,NA,NA,NA,NA,NA,NA,NA,NA,NA,NA,NA,NA,NA,NA,NA,NA,NA,NA,NA,NA,NA,NA,NA
"216","stim/objects/Instruments/trombone2.png",228,23,228,0.9,"stim/62.jpeg",6,2,3,NA,"Instruments",1,4,"left","left",0.575999975,1,1,1,1,NA,NA,NA,NA,NA,NA,NA,NA,NA,NA,NA,NA,NA,NA,NA,NA,NA,NA,NA,NA,NA,NA,NA,NA
"143","stim/objects/Instruments/pipepiano2.png",229,23,229,0.7,"stim/42.jpeg",4,2,2,NA,"Instruments",1,2,"left","left",0.498000145,1,1,1,1,NA,NA,NA,NA,NA,NA,NA,NA,NA,NA,NA,NA,NA,NA,NA,NA,NA,NA,NA,NA,NA,NA,NA,NA
"144","stim/objects/Instruments/pipepiano2.png",230,23,230,0.7,"stim/42.jpeg",4,2,2,NA,"Instruments",1,1,"left","left",0.663000107,1,1,1,1,NA,NA,NA,NA,NA,NA,NA,NA,NA,NA,NA,NA,NA,NA,NA,NA,NA,NA,NA,NA,NA,NA,NA,NA
"16","stim/objects/HouseObjects/remote2.png",231,23,231,0.3,"stim/42.jpeg",4,2,2,NA,"HouseObjects",2,2,"right","left",0.439000368,0,0,1,1,NA,NA,NA,NA,NA,NA,NA,NA,NA,NA,NA,NA,NA,NA,NA,NA,NA,NA,NA,NA,NA,NA,NA,NA
"87","stim/objects/HouseObjects/sponge2.png",232,23,232,0.9,"stim/54.jpeg",5,4,3,NA,"HouseObjects",2,3,"right","right",0.635000229,1,1,1,1,NA,NA,NA,NA,NA,NA,NA,NA,NA,NA,NA,NA,NA,NA,NA,NA,NA,NA,NA,NA,NA,NA,NA,NA
"228","stim/objects/Instruments/trumpet2.png",233,23,233,0.9,"stim/63.jpeg",6,3,3,NA,"Instruments",1,3,"left","left",0.516000271,1,1,1,1,NA,NA,NA,NA,NA,NA,NA,NA,NA,NA,NA,NA,NA,NA,NA,NA,NA,NA,NA,NA,NA,NA,NA,NA
"88","stim/objects/HouseObjects/sponge2.png",234,23,234,0.9,"stim/54.jpeg",5,4,3,NA,"HouseObjects",2,4,"right","right",0.433000088,1,1,1,1,NA,NA,NA,NA,NA,NA,NA,NA,NA,NA,NA,NA,NA,NA,NA,NA,NA,NA,NA,NA,NA,NA,NA,NA
"204","stim/objects/Instruments/triangle2.png",235,23,235,0.9,"stim/61.jpeg",6,1,3,NA,"Instruments",1,2,"left","left",0.54700017,1,1,1,1,NA,NA,NA,NA,NA,NA,NA,NA,NA,NA,NA,NA,NA,NA,NA,NA,NA,NA,NA,NA,NA,NA,NA,NA
"137","stim/objects/Instruments/pipepiano.png",236,23,236,0.5,"stim/12.jpeg",1,2,1,NA,"Instruments",1,4,"left","right",0.69900012,0,0,1,1,NA,NA,NA,NA,NA,NA,NA,NA,NA,NA,NA,NA,NA,NA,NA,NA,NA,NA,NA,NA,NA,NA,NA,NA
"8","stim/objects/HouseObjects/recyclingbin2.png",237,23,237,0.3,"stim/41.jpeg",4,1,2,NA,"HouseObjects",2,4,"right","left",0.59400034,0,0,1,1,NA,NA,NA,NA,NA,NA,NA,NA,NA,NA,NA,NA,NA,NA,NA,NA,NA,NA,NA,NA,NA,NA,NA,NA
"60","stim/objects/HouseObjects/saw2.png",238,23,238,0.9,"stim/52.jpeg",5,2,3,NA,"HouseObjects",2,3,"right","left",0.418000221,0,0,1,1,NA,NA,NA,NA,NA,NA,NA,NA,NA,NA,NA,NA,NA,NA,NA,NA,NA,NA,NA,NA,NA,NA,NA,NA
"74","stim/objects/HouseObjects/scale2.png",239,23,239,0.9,"stim/53.jpeg",5,3,3,NA,"HouseObjects",2,1,"right","right",0.571000099,1,1,1,1,NA,NA,NA,NA,NA,NA,NA,NA,NA,NA,NA,NA,NA,NA,NA,NA,NA,NA,NA,NA,NA,NA,NA,NA
"149","stim/objects/Instruments/record_player.png",240,23,240,0.5,"stim/14.jpeg",1,4,1,NA,"Instruments",1,3,"left","left",0.661000252,1,1,1,1,NA,NA,NA,NA,NA,NA,NA,NA,NA,NA,NA,NA,NA,NA,NA,NA,NA,NA,NA,NA,NA,NA,NA,NA
"566","stim/objects/Instruments/violin4.png",248,23,241,0.9,"stim/64.jpeg",6,4,3,1,"Instruments",1,3,"left","left",0.584000111,1,1,1,0,3,23,1,0.9,1,"stim/64.jpeg",6,4,"stim/64.jpeg",3,"left",2.872999907,2,4,2.878999949,2,1.953000069,3,1,1,1,0,0,1
"359","stim/objects/HouseObjects/glass3.png",249,23,242,0.9,"stim/54.jpeg",5,4,3,2,"HouseObjects",2,1,"right","right",0.59800005,1,1,1,0,NA,NA,NA,NA,NA,NA,NA,NA,NA,NA,NA,NA,NA,NA,NA,NA,NA,NA,NA,NA,NA,NA,NA,NA
"507","stim/objects/Instruments/gong3.png",250,23,243,0.9,"stim/64.jpeg",6,4,3,2,"Instruments",1,1,"left","left",0.57400012,1,1,1,0,NA,NA,NA,NA,NA,NA,NA,NA,NA,NA,NA,NA,NA,NA,NA,NA,NA,NA,NA,NA,NA,NA,NA,NA
"259","stim/objects/HouseObjects/bottle3.png",251,23,244,0.5,"stim/23.jpeg",2,3,1,2,"HouseObjects",2,3,"right","left",0.451000214,0,0,1,0,NA,NA,NA,NA,NA,NA,NA,NA,NA,NA,NA,NA,NA,NA,NA,NA,NA,NA,NA,NA,NA,NA,NA,NA
"360","stim/objects/HouseObjects/glass3.png",252,23,245,0.9,"stim/51.jpeg",5,1,3,2,"HouseObjects",2,1,"right","right",0.580000162,1,1,1,0,NA,NA,NA,NA,NA,NA,NA,NA,NA,NA,NA,NA,NA,NA,NA,NA,NA,NA,NA,NA,NA,NA,NA,NA
"430","stim/objects/Instruments/clarinet3.png",253,23,246,0.5,"stim/23.jpeg",2,3,1,2,"Instruments",1,1,"left","left",0.578000069,1,1,1,0,NA,NA,NA,NA,NA,NA,NA,NA,NA,NA,NA,NA,NA,NA,NA,NA,NA,NA,NA,NA,NA,NA,NA,NA
"342","stim/objects/HouseObjects/garbagebin3.png",254,23,247,0.9,"stim/54.jpeg",5,4,3,2,"HouseObjects",2,2,"right","right",0.509000301,1,1,1,0,NA,NA,NA,NA,NA,NA,NA,NA,NA,NA,NA,NA,NA,NA,NA,NA,NA,NA,NA,NA,NA,NA,NA,NA
"508","stim/objects/Instruments/gong3.png",255,23,248,0.9,"stim/64.jpeg",6,4,3,2,"Instruments",1,2,"left","right",0.418000221,0,0,1,0,NA,NA,NA,NA,NA,NA,NA,NA,NA,NA,NA,NA,NA,NA,NA,NA,NA,NA,NA,NA,NA,NA,NA,NA
"270","stim/objects/HouseObjects/clock4.png",256,23,249,0.3,"stim/42.jpeg",4,2,2,1,"HouseObjects",2,2,"right","left",0.474000216,0,0,1,0,15,23,1,0.3,2,"stim/42.jpeg",4,2,"stim/42.jpeg",2,"right",0.881000042,3,4,1.105000019,4,0.733999968,15,0,0,NA,0,NA,1
"343","stim/objects/HouseObjects/garbagebin3.png",257,23,250,0.9,"stim/52.jpeg",5,2,3,2,"HouseObjects",2,4,"right","right",0.413000107,1,1,1,0,NA,NA,NA,NA,NA,NA,NA,NA,NA,NA,NA,NA,NA,NA,NA,NA,NA,NA,NA,NA,NA,NA,NA,NA
"307","stim/objects/HouseObjects/doormat4.png",258,23,251,0.9,"stim/53.jpeg",5,3,3,1,"HouseObjects",2,1,"right","left",0.367000103,0,0,1,0,89,23,1,0.9,2,"stim/53.jpeg",5,3,"stim/53.jpeg",1,"left",1.539999962,2,3,0.546000004,1,0.5,89,1,1,1,1,1,1
"456","stim/objects/Instruments/flute3.png",259,23,252,0.9,"stim/63.jpeg",6,3,3,2,"Instruments",1,2,"left","right",0.424999952,0,0,1,0,NA,NA,NA,NA,NA,NA,NA,NA,NA,NA,NA,NA,NA,NA,NA,NA,NA,NA,NA,NA,NA,NA,NA,NA
"475","stim/objects/Instruments/flutetrans3.png",260,23,253,0.9,"stim/63.jpeg",6,3,3,2,"Instruments",1,4,"left","left",0.584000349,1,1,1,0,NA,NA,NA,NA,NA,NA,NA,NA,NA,NA,NA,NA,NA,NA,NA,NA,NA,NA,NA,NA,NA,NA,NA,NA
"409","stim/objects/Instruments/acousticguitar3.png",261,23,254,0.5,"stim/13.jpeg",1,3,1,2,"Instruments",1,3,"left","right",0.586000204,0,0,1,0,NA,NA,NA,NA,NA,NA,NA,NA,NA,NA,NA,NA,NA,NA,NA,NA,NA,NA,NA,NA,NA,NA,NA,NA
"545","stim/objects/Instruments/harp3.png",262,23,255,0.5,"stim/11.jpeg",1,1,1,1,"Instruments",1,2,"left","right",0.480000257,0,0,1,0,74,23,1,0.5,1,"stim/11.jpeg",1,1,"stim/11.jpeg",2,"left",0.850000143,3,2,1.733999968,4,1.257999897,74,1,0,0,0,0,1
"308","stim/objects/HouseObjects/dustpan3.png",263,23,256,0.9,"stim/53.jpeg",5,3,3,2,"HouseObjects",2,4,"right","right",0.421000242,1,1,1,0,NA,NA,NA,NA,NA,NA,NA,NA,NA,NA,NA,NA,NA,NA,NA,NA,NA,NA,NA,NA,NA,NA,NA,NA
"291","stim/objects/HouseObjects/doormat3.png",264,23,257,0.9,"stim/54.jpeg",5,4,3,2,"HouseObjects",2,4,"right","right",0.610000134,1,1,1,0,NA,NA,NA,NA,NA,NA,NA,NA,NA,NA,NA,NA,NA,NA,NA,NA,NA,NA,NA,NA,NA,NA,NA,NA
"283","stim/objects/HouseObjects/cushion3.png",265,23,258,0.7,"stim/33.jpeg",3,3,2,2,"HouseObjects",2,1,"right","left",0.553000212,0,0,1,0,NA,NA,NA,NA,NA,NA,NA,NA,NA,NA,NA,NA,NA,NA,NA,NA,NA,NA,NA,NA,NA,NA,NA,NA
"397","stim/objects/HouseObjects/pan4.png",266,23,259,0.1,"stim/64.jpeg",6,4,3,1,"HouseObjects",2,2,"right","left",0.53000021,0,0,1,0,159,23,1,0.1,2,"stim/64.jpeg",6,4,"stim/64.jpeg",2,"right",2.592000008,3,2,0.322999954,1,0.256000042,159,0,0,NA,0,NA,1
"380","stim/objects/HouseObjects/handbrush3.png",267,23,260,0.5,"stim/14.jpeg",1,4,1,1,"HouseObjects",2,2,"right","right",0.532000303,1,1,1,0,158,23,1,0.5,1,"stim/14.jpeg",1,4,"stim/14.jpeg",2,"right",0.562999964,2,2,0.273000002,2,0.232000113,158,0,0,NA,1,NA,1
"400","stim/objects/HouseObjects/towel3.png",268,23,261,0.7,"stim/34.jpeg",3,4,2,1,"HouseObjects",2,2,"right","right",0.620000362,1,1,1,0,153,23,1,0.7,2,"stim/34.jpeg",3,4,"stim/34.jpeg",2,"left",1.764000177,4,3,8.302999973,2,1.898000002,153,1,0,0,1,1,1
"361","stim/objects/HouseObjects/glass3.png",269,23,262,0.9,"stim/53.jpeg",5,3,3,2,"HouseObjects",2,2,"right","right",0.505000114,1,1,1,0,NA,NA,NA,NA,NA,NA,NA,NA,NA,NA,NA,NA,NA,NA,NA,NA,NA,NA,NA,NA,NA,NA,NA,NA
"509","stim/objects/Instruments/gong3.png",270,23,263,0.9,"stim/62.jpeg",6,2,3,2,"Instruments",1,2,"left","left",0.558000088,1,1,1,0,NA,NA,NA,NA,NA,NA,NA,NA,NA,NA,NA,NA,NA,NA,NA,NA,NA,NA,NA,NA,NA,NA,NA,NA
"476","stim/objects/Instruments/flutetrans3.png",271,23,264,0.9,"stim/62.jpeg",6,2,3,2,"Instruments",1,3,"left","left",0.539000273,1,1,1,0,NA,NA,NA,NA,NA,NA,NA,NA,NA,NA,NA,NA,NA,NA,NA,NA,NA,NA,NA,NA,NA,NA,NA,NA
"491","stim/objects/Instruments/frenchhorn3.png",272,23,265,0.9,"stim/62.jpeg",6,2,3,2,"Instruments",1,4,"left","left",0.505000114,1,1,1,0,NA,NA,NA,NA,NA,NA,NA,NA,NA,NA,NA,NA,NA,NA,NA,NA,NA,NA,NA,NA,NA,NA,NA,NA
"477","stim/objects/Instruments/flutetrans3.png",273,23,266,0.9,"stim/63.jpeg",6,3,3,2,"Instruments",1,1,"left","left",0.627000093,1,1,1,0,NA,NA,NA,NA,NA,NA,NA,NA,NA,NA,NA,NA,NA,NA,NA,NA,NA,NA,NA,NA,NA,NA,NA,NA
"253","stim/objects/HouseObjects/bleachbottle3.png",274,23,267,0.5,"stim/11.jpeg",1,1,1,2,"HouseObjects",2,1,"right","right",0.516000032,1,1,1,0,NA,NA,NA,NA,NA,NA,NA,NA,NA,NA,NA,NA,NA,NA,NA,NA,NA,NA,NA,NA,NA,NA,NA,NA
"271","stim/objects/HouseObjects/clothesdryingrack3.png",275,23,268,0.7,"stim/34.jpeg",3,4,2,2,"HouseObjects",2,3,"right","right",0.419000149,1,1,1,0,NA,NA,NA,NA,NA,NA,NA,NA,NA,NA,NA,NA,NA,NA,NA,NA,NA,NA,NA,NA,NA,NA,NA,NA
"272","stim/objects/HouseObjects/clothesdryingrack3.png",276,23,269,0.7,"stim/31.jpeg",3,1,2,2,"HouseObjects",2,1,"right","right",0.59800005,1,1,1,0,NA,NA,NA,NA,NA,NA,NA,NA,NA,NA,NA,NA,NA,NA,NA,NA,NA,NA,NA,NA,NA,NA,NA,NA
"431","stim/objects/Instruments/clarinet3.png",277,23,270,0.5,"stim/22.jpeg",2,2,1,2,"Instruments",1,1,"left","right",0.438000202,0,0,1,0,NA,NA,NA,NA,NA,NA,NA,NA,NA,NA,NA,NA,NA,NA,NA,NA,NA,NA,NA,NA,NA,NA,NA,NA
"452","stim/objects/Instruments/electricguitar3.png",278,23,271,0.7,"stim/42.jpeg",4,2,2,2,"Instruments",1,1,"left","left",0.520000219,1,1,1,0,NA,NA,NA,NA,NA,NA,NA,NA,NA,NA,NA,NA,NA,NA,NA,NA,NA,NA,NA,NA,NA,NA,NA,NA
"433","stim/objects/Instruments/cornet3.png",279,23,272,0.5,"stim/23.jpeg",2,3,1,2,"Instruments",1,3,"left","left",0.572000027,1,1,1,0,NA,NA,NA,NA,NA,NA,NA,NA,NA,NA,NA,NA,NA,NA,NA,NA,NA,NA,NA,NA,NA,NA,NA,NA
"293","stim/objects/HouseObjects/doormat3.png",280,23,273,0.9,"stim/53.jpeg",5,3,3,2,"HouseObjects",2,2,"right","right",0.494000196,1,1,1,0,NA,NA,NA,NA,NA,NA,NA,NA,NA,NA,NA,NA,NA,NA,NA,NA,NA,NA,NA,NA,NA,NA,NA,NA
"548","stim/objects/Instruments/hihat4.png",281,23,274,0.1,"stim/51.jpeg",5,1,3,1,"Instruments",1,2,"left","right",0.773000002,0,0,1,0,8,23,1,0.1,1,"stim/51.jpeg",5,1,"stim/51.jpeg",2,"left",2.575000048,4,1,17.10800004,4,7.759000063,8,1,1,1,0,0,1
"394","stim/objects/HouseObjects/match3.png",282,23,275,0.5,"stim/24.jpeg",2,4,1,1,"HouseObjects",2,3,"right","left",0.782000303,0,0,1,0,64,23,1,0.5,2,"stim/24.jpeg",2,4,"stim/24.jpeg",3,"left",1.163000107,3,1,2.976000071,4,2.039999962,64,1,0,0,0,0,1
"325","stim/objects/HouseObjects/flyswatter3.png",283,23,276,0.9,"stim/51.jpeg",5,1,3,2,"HouseObjects",2,3,"right","right",0.674000263,1,1,1,0,NA,NA,NA,NA,NA,NA,NA,NA,NA,NA,NA,NA,NA,NA,NA,NA,NA,NA,NA,NA,NA,NA,NA,NA
"309","stim/objects/HouseObjects/dustpan3.png",284,23,277,0.9,"stim/53.jpeg",5,3,3,2,"HouseObjects",2,4,"right","right",0.68900013,1,1,1,0,NA,NA,NA,NA,NA,NA,NA,NA,NA,NA,NA,NA,NA,NA,NA,NA,NA,NA,NA,NA,NA,NA,NA,NA
"310","stim/objects/HouseObjects/dustpan3.png",285,23,278,0.9,"stim/52.jpeg",5,2,3,2,"HouseObjects",2,4,"right","left",0.630000114,0,0,1,0,NA,NA,NA,NA,NA,NA,NA,NA,NA,NA,NA,NA,NA,NA,NA,NA,NA,NA,NA,NA,NA,NA,NA,NA
"311","stim/objects/HouseObjects/dustpan3.png",286,23,279,0.9,"stim/52.jpeg",5,2,3,2,"HouseObjects",2,4,"right","left",0.525000095,0,0,1,0,NA,NA,NA,NA,NA,NA,NA,NA,NA,NA,NA,NA,NA,NA,NA,NA,NA,NA,NA,NA,NA,NA,NA,NA
"263","stim/objects/HouseObjects/broom3.png",287,23,280,0.5,"stim/24.jpeg",2,4,1,2,"HouseObjects",2,4,"right","left",0.819000006,0,0,1,0,NA,NA,NA,NA,NA,NA,NA,NA,NA,NA,NA,NA,NA,NA,NA,NA,NA,NA,NA,NA,NA,NA,NA,NA
"565","stim/objects/Instruments/violin3.png",288,23,281,0.3,"stim/33.jpeg",3,3,2,1,"Instruments",1,1,"left","left",0.613000154,1,1,1,0,183,23,1,0.3,1,"stim/33.jpeg",3,3,"stim/33.jpeg",1,"right",1.016000032,1,2,0.569000006,4,0.335000038,183,0,0,NA,0,NA,1
"312","stim/objects/HouseObjects/dustpan3.png",289,23,282,0.9,"stim/51.jpeg",5,1,3,2,"HouseObjects",2,2,"right","right",0.493999958,1,1,1,0,NA,NA,NA,NA,NA,NA,NA,NA,NA,NA,NA,NA,NA,NA,NA,NA,NA,NA,NA,NA,NA,NA,NA,NA
"284","stim/objects/HouseObjects/cushion3.png",290,23,283,0.7,"stim/34.jpeg",3,4,2,2,"HouseObjects",2,1,"right","right",0.59100008,1,1,1,0,NA,NA,NA,NA,NA,NA,NA,NA,NA,NA,NA,NA,NA,NA,NA,NA,NA,NA,NA,NA,NA,NA,NA,NA
"275","stim/objects/HouseObjects/clothespin3.png",291,23,284,0.7,"stim/32.jpeg",3,2,2,2,"HouseObjects",2,1,"right","right",0.585000277,1,1,1,0,NA,NA,NA,NA,NA,NA,NA,NA,NA,NA,NA,NA,NA,NA,NA,NA,NA,NA,NA,NA,NA,NA,NA,NA
"525","stim/objects/Instruments/grandpiano3.png",292,23,285,0.9,"stim/62.jpeg",6,2,3,2,"Instruments",1,2,"left","left",0.532999992,1,1,1,0,NA,NA,NA,NA,NA,NA,NA,NA,NA,NA,NA,NA,NA,NA,NA,NA,NA,NA,NA,NA,NA,NA,NA,NA
"492","stim/objects/Instruments/frenchhorn3.png",293,23,286,0.9,"stim/64.jpeg",6,4,3,2,"Instruments",1,1,"left","left",0.474000216,1,1,1,0,NA,NA,NA,NA,NA,NA,NA,NA,NA,NA,NA,NA,NA,NA,NA,NA,NA,NA,NA,NA,NA,NA,NA,NA
"426","stim/objects/Instruments/cello4.png",294,23,287,0.7,"stim/41.jpeg",4,1,2,1,"Instruments",1,1,"left","left",0.670000076,1,1,1,0,79,23,1,0.7,1,"stim/41.jpeg",4,1,"stim/41.jpeg",1,"left",2.190000057,1,2,0.934000015,2,0.372999907,79,1,0,0,0,0,1
"391","stim/objects/HouseObjects/knife4.png",295,23,288,0.1,"stim/61.jpeg",6,1,3,1,"HouseObjects",2,3,"right","left",0.478000164,0,0,1,0,169,23,1,0.1,2,"stim/61.jpeg",6,1,"stim/61.jpeg",3,"right",0.960999966,1,2,1.200000048,3,0.222000122,169,0,0,NA,1,NA,1
"451","stim/objects/Instruments/electricdrumset4.png",296,23,289,0.7,"stim/44.jpeg",4,4,2,1,"Instruments",1,3,"left","left",0.480000257,1,1,1,0,88,23,1,0.7,1,"stim/44.jpeg",4,4,"stim/44.jpeg",3,"left",0.907999992,2,2,0.678999901,2,0.292999983,88,1,0,0,0,0,1
"457","stim/objects/Instruments/flute3.png",297,23,290,0.9,"stim/63.jpeg",6,3,3,2,"Instruments",1,1,"left","left",0.475000143,1,1,1,0,NA,NA,NA,NA,NA,NA,NA,NA,NA,NA,NA,NA,NA,NA,NA,NA,NA,NA,NA,NA,NA,NA,NA,NA
"415","stim/objects/Instruments/banjo3.png",298,23,291,0.5,"stim/14.jpeg",1,4,1,2,"Instruments",1,4,"left","left",0.483000278,1,1,1,0,NA,NA,NA,NA,NA,NA,NA,NA,NA,NA,NA,NA,NA,NA,NA,NA,NA,NA,NA,NA,NA,NA,NA,NA
"362","stim/objects/HouseObjects/glass3.png",299,23,292,0.9,"stim/52.jpeg",5,2,3,2,"HouseObjects",2,4,"right","right",0.522000074,1,1,1,0,NA,NA,NA,NA,NA,NA,NA,NA,NA,NA,NA,NA,NA,NA,NA,NA,NA,NA,NA,NA,NA,NA,NA,NA
"425","stim/objects/Instruments/cello3.png",300,23,293,0.5,"stim/21.jpeg",2,1,1,2,"Instruments",1,4,"left","right",0.468000174,0,0,1,0,NA,NA,NA,NA,NA,NA,NA,NA,NA,NA,NA,NA,NA,NA,NA,NA,NA,NA,NA,NA,NA,NA,NA,NA
"511","stim/objects/Instruments/gong3.png",301,23,294,0.9,"stim/61.jpeg",6,1,3,2,"Instruments",1,4,"left","left",0.450000048,1,1,1,0,NA,NA,NA,NA,NA,NA,NA,NA,NA,NA,NA,NA,NA,NA,NA,NA,NA,NA,NA,NA,NA,NA,NA,NA
"313","stim/objects/HouseObjects/dustpan3.png",302,23,295,0.9,"stim/54.jpeg",5,4,3,2,"HouseObjects",2,1,"right","left",0.701000214,0,0,1,0,NA,NA,NA,NA,NA,NA,NA,NA,NA,NA,NA,NA,NA,NA,NA,NA,NA,NA,NA,NA,NA,NA,NA,NA
"562","stim/objects/Instruments/musicstand4.png",303,23,296,0.9,"stim/62.jpeg",6,2,3,1,"Instruments",1,2,"left","left",0.56400013,1,1,1,0,137,23,1,0.9,1,"stim/62.jpeg",6,2,"stim/62.jpeg",2,"right",0.922999859,2,3,0.345999956,4,0.207000017,137,0,0,NA,0,NA,1
"478","stim/objects/Instruments/flutetrans3.png",304,23,297,0.9,"stim/64.jpeg",6,4,3,2,"Instruments",1,3,"left","left",0.641000032,1,1,1,0,NA,NA,NA,NA,NA,NA,NA,NA,NA,NA,NA,NA,NA,NA,NA,NA,NA,NA,NA,NA,NA,NA,NA,NA
"279","stim/objects/HouseObjects/coffee3.png",305,23,298,0.7,"stim/31.jpeg",3,1,2,2,"HouseObjects",2,4,"right","right",0.618000269,1,1,1,0,NA,NA,NA,NA,NA,NA,NA,NA,NA,NA,NA,NA,NA,NA,NA,NA,NA,NA,NA,NA,NA,NA,NA,NA
"526","stim/objects/Instruments/grandpiano3.png",306,23,299,0.9,"stim/63.jpeg",6,3,3,2,"Instruments",1,1,"left","left",0.493000269,1,1,1,0,NA,NA,NA,NA,NA,NA,NA,NA,NA,NA,NA,NA,NA,NA,NA,NA,NA,NA,NA,NA,NA,NA,NA,NA
"327","stim/objects/HouseObjects/flyswatter3.png",307,23,300,0.9,"stim/51.jpeg",5,1,3,2,"HouseObjects",2,4,"right","right",0.466000319,1,1,1,0,NA,NA,NA,NA,NA,NA,NA,NA,NA,NA,NA,NA,NA,NA,NA,NA,NA,NA,NA,NA,NA,NA,NA,NA
"395","stim/objects/HouseObjects/match4.png",308,23,301,0.1,"stim/63.jpeg",6,3,3,1,"HouseObjects",2,2,"right","left",0.565999985,0,0,1,0,156,23,1,0.1,2,"stim/63.jpeg",6,3,"stim/63.jpeg",2,"right",1.184000015,2,2,0.858999968,2,0.289000034,156,0,0,NA,1,NA,1
"244","stim/objects/HouseObjects/ballofstring3.png",309,23,302,0.5,"stim/12.jpeg",1,2,1,2,"HouseObjects",2,4,"right","right",0.606000185,1,1,1,0,NA,NA,NA,NA,NA,NA,NA,NA,NA,NA,NA,NA,NA,NA,NA,NA,NA,NA,NA,NA,NA,NA,NA,NA
"344","stim/objects/HouseObjects/garbagebin3.png",310,23,303,0.9,"stim/53.jpeg",5,3,3,2,"HouseObjects",2,3,"right","right",0.474000216,1,1,1,0,NA,NA,NA,NA,NA,NA,NA,NA,NA,NA,NA,NA,NA,NA,NA,NA,NA,NA,NA,NA,NA,NA,NA,NA
"314","stim/objects/HouseObjects/dustpan3.png",311,23,304,0.9,"stim/51.jpeg",5,1,3,2,"HouseObjects",2,2,"right","right",0.534000158,1,1,1,0,NA,NA,NA,NA,NA,NA,NA,NA,NA,NA,NA,NA,NA,NA,NA,NA,NA,NA,NA,NA,NA,NA,NA,NA
"494","stim/objects/Instruments/frenchhorn3.png",312,23,305,0.9,"stim/63.jpeg",6,3,3,2,"Instruments",1,4,"left","left",0.596000195,1,1,1,0,NA,NA,NA,NA,NA,NA,NA,NA,NA,NA,NA,NA,NA,NA,NA,NA,NA,NA,NA,NA,NA,NA,NA,NA
"550","stim/objects/Instruments/keyboard4.png",313,23,306,0.1,"stim/52.jpeg",5,2,3,1,"Instruments",1,4,"left","right",0.588000059,0,0,1,0,133,23,1,0.1,1,"stim/52.jpeg",5,2,"stim/52.jpeg",4,"right",0.628000021,2,3,0.170000076,4,0.210999966,133,0,0,NA,1,NA,1
"341","stim/objects/HouseObjects/flyswatter4.png",314,23,307,0.9,"stim/51.jpeg",5,1,3,1,"HouseObjects",2,1,"right","right",0.687000036,1,1,1,0,109,23,1,0.9,2,"stim/51.jpeg",5,1,"stim/51.jpeg",1,"right",0.996999979,2,4,0.895999908,3,0.505000114,109,0,0,NA,0,NA,1
"294","stim/objects/HouseObjects/doormat3.png",315,23,308,0.9,"stim/54.jpeg",5,4,3,2,"HouseObjects",2,2,"right","right",0.416000128,1,1,1,0,NA,NA,NA,NA,NA,NA,NA,NA,NA,NA,NA,NA,NA,NA,NA,NA,NA,NA,NA,NA,NA,NA,NA,NA
"286","stim/objects/HouseObjects/cushion4.png",316,23,309,0.3,"stim/42.jpeg",4,2,2,1,"HouseObjects",2,2,"right","left",0.59800005,0,0,1,0,41,23,1,0.3,2,"stim/42.jpeg",4,2,"stim/42.jpeg",2,"right",1.116000175,2,2,0.789999962,1,1.336999893,41,0,1,NA,0,NA,1
"328","stim/objects/HouseObjects/flyswatter3.png",317,23,310,0.9,"stim/53.jpeg",5,3,3,2,"HouseObjects",2,3,"right","right",0.531000137,1,1,1,0,NA,NA,NA,NA,NA,NA,NA,NA,NA,NA,NA,NA,NA,NA,NA,NA,NA,NA,NA,NA,NA,NA,NA,NA
"295","stim/objects/HouseObjects/doormat3.png",318,23,311,0.9,"stim/53.jpeg",5,3,3,2,"HouseObjects",2,2,"right","right",0.441000223,1,1,1,0,NA,NA,NA,NA,NA,NA,NA,NA,NA,NA,NA,NA,NA,NA,NA,NA,NA,NA,NA,NA,NA,NA,NA,NA
"527","stim/objects/Instruments/grandpiano3.png",319,23,312,0.9,"stim/63.jpeg",6,3,3,2,"Instruments",1,3,"left","left",0.453000069,1,1,1,0,NA,NA,NA,NA,NA,NA,NA,NA,NA,NA,NA,NA,NA,NA,NA,NA,NA,NA,NA,NA,NA,NA,NA,NA
"363","stim/objects/HouseObjects/glass3.png",320,23,313,0.9,"stim/53.jpeg",5,3,3,2,"HouseObjects",2,3,"right","right",0.596000195,1,1,1,0,NA,NA,NA,NA,NA,NA,NA,NA,NA,NA,NA,NA,NA,NA,NA,NA,NA,NA,NA,NA,NA,NA,NA,NA
"460","stim/objects/Instruments/flute3.png",321,23,314,0.9,"stim/64.jpeg",6,4,3,2,"Instruments",1,4,"left","left",0.494000196,1,1,1,0,NA,NA,NA,NA,NA,NA,NA,NA,NA,NA,NA,NA,NA,NA,NA,NA,NA,NA,NA,NA,NA,NA,NA,NA
"382","stim/objects/HouseObjects/handvacuum3.png",322,23,315,0.5,"stim/11.jpeg",1,1,1,1,"HouseObjects",2,4,"right","right",0.666000128,1,1,1,0,181,23,1,0.5,1,"stim/11.jpeg",1,1,"stim/11.jpeg",4,"right",0.57400012,1,4,0.990999937,3,0.167999983,181,0,0,NA,0,NA,1
"280","stim/objects/HouseObjects/coffee3.png",323,23,316,0.7,"stim/32.jpeg",3,2,2,2,"HouseObjects",2,2,"right","right",0.4150002,1,1,1,0,NA,NA,NA,NA,NA,NA,NA,NA,NA,NA,NA,NA,NA,NA,NA,NA,NA,NA,NA,NA,NA,NA,NA,NA
"479","stim/objects/Instruments/flutetrans3.png",324,23,317,0.9,"stim/64.jpeg",6,4,3,2,"Instruments",1,2,"left","left",0.573000193,1,1,1,0,NA,NA,NA,NA,NA,NA,NA,NA,NA,NA,NA,NA,NA,NA,NA,NA,NA,NA,NA,NA,NA,NA,NA,NA
"364","stim/objects/HouseObjects/glass3.png",325,23,318,0.9,"stim/53.jpeg",5,3,3,2,"HouseObjects",2,2,"right","right",0.485000372,1,1,1,0,NA,NA,NA,NA,NA,NA,NA,NA,NA,NA,NA,NA,NA,NA,NA,NA,NA,NA,NA,NA,NA,NA,NA,NA
"568","stim/objects/Instruments/vuvuzela4.png",326,23,319,0.9,"stim/61.jpeg",6,1,3,1,"Instruments",1,4,"left","left",0.468000174,1,1,1,0,184,23,1,0.9,1,"stim/61.jpeg",6,1,"stim/61.jpeg",4,"right",0.638999939,1,2,0.534999847,3,0.222999811,184,0,0,NA,0,NA,1
"365","stim/objects/HouseObjects/glass3.png",327,23,320,0.9,"stim/54.jpeg",5,4,3,2,"HouseObjects",2,3,"right","right",0.609000206,1,1,1,0,NA,NA,NA,NA,NA,NA,NA,NA,NA,NA,NA,NA,NA,NA,NA,NA,NA,NA,NA,NA,NA,NA,NA,NA
"541","stim/objects/Instruments/guitarcase3.png",328,23,321,0.5,"stim/13.jpeg",1,3,1,1,"Instruments",1,1,"left","right",0.554000378,0,0,1,0,9,23,1,0.5,1,"stim/13.jpeg",1,3,"stim/13.jpeg",1,"right",22.5250001,2,1,1.481999874,4,4.795000076,9,0,0,NA,0,NA,1
"405","stim/objects/HouseObjects/wateringcan4.png",329,23,322,0.1,"stim/64.jpeg",6,4,3,1,"HouseObjects",2,2,"right","left",0.582000256,0,0,1,0,33,23,1,0.1,2,"stim/64.jpeg",6,4,"stim/64.jpeg",2,"left",8.770999908,2,4,2.708000183,2,1.367000103,33,1,1,1,1,1,1
"553","stim/objects/Instruments/maraca3.png",330,23,323,0.5,"stim/22.jpeg",2,2,1,1,"Instruments",1,3,"left","left",0.820000172,1,1,1,0,76,23,1,0.5,2,"stim/22.jpeg",2,2,"stim/22.jpeg",3,"left",1.441000223,4,4,1.34100008,4,0.827000141,76,1,0,0,0,0,1
"512","stim/objects/Instruments/gong3.png",331,23,324,0.9,"stim/62.jpeg",6,2,3,2,"Instruments",1,1,"left","left",0.525000095,1,1,1,0,NA,NA,NA,NA,NA,NA,NA,NA,NA,NA,NA,NA,NA,NA,NA,NA,NA,NA,NA,NA,NA,NA,NA,NA
"274","stim/objects/HouseObjects/clothesdryingrack4.png",332,23,325,0.3,"stim/43.jpeg",4,3,2,1,"HouseObjects",2,2,"right","right",0.430000067,1,1,1,0,90,23,1,0.3,2,"stim/43.jpeg",4,3,"stim/43.jpeg",2,"left",1.421999931,4,3,1.947000027,2,0.034999847,90,1,1,1,1,1,1
"513","stim/objects/Instruments/gong3.png",333,23,326,0.9,"stim/63.jpeg",6,3,3,2,"Instruments",1,4,"left","left",0.537000179,1,1,1,0,NA,NA,NA,NA,NA,NA,NA,NA,NA,NA,NA,NA,NA,NA,NA,NA,NA,NA,NA,NA,NA,NA,NA,NA
"421","stim/objects/Instruments/bassguitar3.png",334,23,327,0.5,"stim/23.jpeg",2,3,1,2,"Instruments",1,4,"left","left",0.565000057,1,1,1,0,NA,NA,NA,NA,NA,NA,NA,NA,NA,NA,NA,NA,NA,NA,NA,NA,NA,NA,NA,NA,NA,NA,NA,NA
"249","stim/objects/HouseObjects/barbecuelighter4.png",335,23,328,0.7,"stim/31.jpeg",3,1,2,1,"HouseObjects",2,1,"right","left",0.752000093,0,0,1,0,28,23,1,0.7,2,"stim/31.jpeg",3,1,"stim/31.jpeg",1,"left",2.861999989,4,2,1.790999889,1,2.181999922,28,1,0,0,1,1,1
"570","stim/objects/Instruments/xylophone4.png",336,23,329,0.9,"stim/62.jpeg",6,2,3,1,"Instruments",1,4,"left","left",0.47900033,1,1,1,0,108,23,1,0.9,1,"stim/62.jpeg",6,2,"stim/62.jpeg",4,"right",1.542000055,2,3,0.711999893,3,0.460000038,108,0,0,NA,0,NA,1
"462","stim/objects/Instruments/flute3.png",337,23,330,0.9,"stim/64.jpeg",6,4,3,2,"Instruments",1,3,"left","right",0.368000031,0,0,1,0,NA,NA,NA,NA,NA,NA,NA,NA,NA,NA,NA,NA,NA,NA,NA,NA,NA,NA,NA,NA,NA,NA,NA,NA
"330","stim/objects/HouseObjects/flyswatter3.png",338,23,331,0.9,"stim/54.jpeg",5,4,3,2,"HouseObjects",2,2,"right","left",0.437000036,0,0,1,0,NA,NA,NA,NA,NA,NA,NA,NA,NA,NA,NA,NA,NA,NA,NA,NA,NA,NA,NA,NA,NA,NA,NA,NA
"345","stim/objects/HouseObjects/garbagebin3.png",339,23,332,0.9,"stim/51.jpeg",5,1,3,2,"HouseObjects",2,4,"right","right",0.397000074,1,1,1,0,NA,NA,NA,NA,NA,NA,NA,NA,NA,NA,NA,NA,NA,NA,NA,NA,NA,NA,NA,NA,NA,NA,NA,NA
"285","stim/objects/HouseObjects/cushion3.png",340,23,333,0.7,"stim/32.jpeg",3,2,2,2,"HouseObjects",2,1,"right","right",0.481000185,1,1,1,0,NA,NA,NA,NA,NA,NA,NA,NA,NA,NA,NA,NA,NA,NA,NA,NA,NA,NA,NA,NA,NA,NA,NA,NA
"390","stim/objects/HouseObjects/knife3.png",341,23,334,0.5,"stim/22.jpeg",2,2,1,1,"HouseObjects",2,2,"right","left",0.632000208,0,0,1,0,36,23,1,0.5,2,"stim/22.jpeg",2,2,"stim/22.jpeg",2,"left",1.07400012,3,3,1.093999863,2,1.794999838,36,1,0,0,1,1,1
"434","stim/objects/Instruments/cornet3.png",342,23,335,0.5,"stim/24.jpeg",2,4,1,2,"Instruments",1,3,"left","left",0.525000095,1,1,1,0,NA,NA,NA,NA,NA,NA,NA,NA,NA,NA,NA,NA,NA,NA,NA,NA,NA,NA,NA,NA,NA,NA,NA,NA
"296","stim/objects/HouseObjects/doormat3.png",343,23,336,0.9,"stim/52.jpeg",5,2,3,2,"HouseObjects",2,3,"right","right",0.563000202,1,1,1,0,NA,NA,NA,NA,NA,NA,NA,NA,NA,NA,NA,NA,NA,NA,NA,NA,NA,NA,NA,NA,NA,NA,NA,NA
"297","stim/objects/HouseObjects/doormat3.png",344,23,337,0.9,"stim/51.jpeg",5,1,3,2,"HouseObjects",2,2,"right","right",0.634000063,1,1,1,0,NA,NA,NA,NA,NA,NA,NA,NA,NA,NA,NA,NA,NA,NA,NA,NA,NA,NA,NA,NA,NA,NA,NA,NA
"298","stim/objects/HouseObjects/doormat3.png",345,23,338,0.9,"stim/52.jpeg",5,2,3,2,"HouseObjects",2,1,"right","right",0.788000345,1,1,1,0,NA,NA,NA,NA,NA,NA,NA,NA,NA,NA,NA,NA,NA,NA,NA,NA,NA,NA,NA,NA,NA,NA,NA,NA
"554","stim/objects/Instruments/maraca4.png",346,23,339,0.9,"stim/62.jpeg",6,2,3,1,"Instruments",1,4,"left","left",0.599000216,1,1,1,0,174,23,1,0.9,1,"stim/62.jpeg",6,2,"stim/62.jpeg",4,"right",0.789000034,1,4,1.646999836,3,0.057999849,174,0,0,NA,0,NA,1
"387","stim/objects/HouseObjects/ironingboard4.png",347,23,340,0.1,"stim/63.jpeg",6,3,3,1,"HouseObjects",2,4,"right","left",0.447000027,0,0,1,0,20,23,1,0.1,2,"stim/63.jpeg",6,3,"stim/63.jpeg",4,"right",0.977999926,2,1,1.351000071,1,1.344000101,20,0,0,NA,0,NA,1
"347","stim/objects/HouseObjects/garbagebin3.png",348,23,341,0.9,"stim/51.jpeg",5,1,3,2,"HouseObjects",2,4,"right","",NA,0,0,1,0,NA,NA,NA,NA,NA,NA,NA,NA,NA,NA,NA,NA,NA,NA,NA,NA,NA,NA,NA,NA,NA,NA,NA,NA
"273","stim/objects/HouseObjects/clothesdryingrack3.png",349,23,342,0.7,"stim/33.jpeg",3,3,2,2,"HouseObjects",2,4,"right","right",0.578999996,1,1,1,0,NA,NA,NA,NA,NA,NA,NA,NA,NA,NA,NA,NA,NA,NA,NA,NA,NA,NA,NA,NA,NA,NA,NA,NA
"261","stim/objects/HouseObjects/bottle4.png",350,23,343,0.3,"stim/43.jpeg",4,3,2,1,"HouseObjects",2,3,"right","right",0.829000235,1,1,1,0,138,23,1,0.3,2,"stim/43.jpeg",4,3,"stim/43.jpeg",3,"left",1.851999998,2,3,0.268000126,4,0.146000147,138,1,1,1,0,0,1
"375","stim/objects/HouseObjects/glass4.png",351,23,344,0.9,"stim/53.jpeg",5,3,3,1,"HouseObjects",2,4,"right","",NA,0,0,1,0,155,23,1,0.9,2,"stim/53.jpeg",5,3,"stim/53.jpeg",4,"left",2.252000093,2,4,2.317000151,4,1.517999887,155,1,0,0,1,1,1
"250","stim/objects/HouseObjects/basket3.png",352,23,345,0.5,"stim/14.jpeg",1,4,1,2,"HouseObjects",2,1,"right","",NA,0,0,1,0,NA,NA,NA,NA,NA,NA,NA,NA,NA,NA,NA,NA,NA,NA,NA,NA,NA,NA,NA,NA,NA,NA,NA,NA
"464","stim/objects/Instruments/flute3.png",353,23,346,0.9,"stim/61.jpeg",6,1,3,2,"Instruments",1,2,"left","left",0.544000149,1,1,1,0,NA,NA,NA,NA,NA,NA,NA,NA,NA,NA,NA,NA,NA,NA,NA,NA,NA,NA,NA,NA,NA,NA,NA,NA
"459","stim/objects/Instruments/flute3.png",354,23,347,0.9,"stim/61.jpeg",6,1,3,2,"Instruments",1,1,"left","left",0.446000338,1,1,1,0,NA,NA,NA,NA,NA,NA,NA,NA,NA,NA,NA,NA,NA,NA,NA,NA,NA,NA,NA,NA,NA,NA,NA,NA
"530","stim/objects/Instruments/grandpiano3.png",355,23,348,0.9,"stim/62.jpeg",6,2,3,2,"Instruments",1,3,"left","right",0.582999945,0,0,1,0,NA,NA,NA,NA,NA,NA,NA,NA,NA,NA,NA,NA,NA,NA,NA,NA,NA,NA,NA,NA,NA,NA,NA,NA
"348","stim/objects/HouseObjects/garbagebin3.png",356,23,349,0.9,"stim/51.jpeg",5,1,3,2,"HouseObjects",2,1,"right","right",0.643000364,1,1,1,0,NA,NA,NA,NA,NA,NA,NA,NA,NA,NA,NA,NA,NA,NA,NA,NA,NA,NA,NA,NA,NA,NA,NA,NA
"514","stim/objects/Instruments/gong3.png",357,23,350,0.9,"stim/63.jpeg",6,3,3,2,"Instruments",1,3,"left","left",0.543000221,1,1,1,0,NA,NA,NA,NA,NA,NA,NA,NA,NA,NA,NA,NA,NA,NA,NA,NA,NA,NA,NA,NA,NA,NA,NA,NA
"420","stim/objects/Instruments/bassdrum4.png",358,23,351,0.3,"stim/32.jpeg",3,2,2,1,"Instruments",1,3,"left","left",0.67200017,1,1,1,0,168,23,1,0.3,1,"stim/32.jpeg",3,2,"stim/32.jpeg",3,"right",1.19299984,3,1,0.523000002,2,0.246999979,168,0,0,NA,0,NA,1
"549","stim/objects/Instruments/keyboard3.png",359,23,352,0.5,"stim/13.jpeg",1,3,1,1,"Instruments",1,2,"left","right",0.37100029,0,0,1,0,171,23,1,0.5,1,"stim/13.jpeg",1,3,"stim/13.jpeg",2,"right",1.847000122,3,2,0.231000185,1,0.465999842,171,0,0,NA,0,NA,1
"406","stim/objects/Instruments/accordion3.png",360,23,353,0.5,"stim/11.jpeg",1,1,1,2,"Instruments",1,4,"left","right",0.31400013,0,0,1,0,NA,NA,NA,NA,NA,NA,NA,NA,NA,NA,NA,NA,NA,NA,NA,NA,NA,NA,NA,NA,NA,NA,NA,NA
"278","stim/objects/HouseObjects/clothespin4.png",361,23,354,0.3,"stim/44.jpeg",4,4,2,1,"HouseObjects",2,4,"right","right",0.674000263,1,1,1,0,55,23,1,0.3,2,"stim/44.jpeg",4,4,"stim/44.jpeg",4,"right",2.970999956,2,2,0.802000046,2,1.337000132,55,0,0,NA,0,NA,1
"482","stim/objects/Instruments/flutetrans3.png",362,23,355,0.9,"stim/63.jpeg",6,3,3,2,"Instruments",1,3,"left","left",0.585000038,1,1,1,0,NA,NA,NA,NA,NA,NA,NA,NA,NA,NA,NA,NA,NA,NA,NA,NA,NA,NA,NA,NA,NA,NA,NA,NA
"332","stim/objects/HouseObjects/flyswatter3.png",363,23,356,0.9,"stim/52.jpeg",5,2,3,2,"HouseObjects",2,1,"right","right",0.385000229,1,1,1,0,NA,NA,NA,NA,NA,NA,NA,NA,NA,NA,NA,NA,NA,NA,NA,NA,NA,NA,NA,NA,NA,NA,NA,NA
"432","stim/objects/Instruments/clarinet4.png",364,23,357,0.7,"stim/43.jpeg",4,3,2,1,"Instruments",1,3,"left","right",0.394000053,0,0,1,0,32,23,1,0.7,1,"stim/43.jpeg",4,3,"stim/43.jpeg",3,"left",0.881999969,3,3,0.987999916,3,0.851999998,32,1,1,1,1,1,1
"557","stim/objects/Instruments/metronome3.png",365,23,358,0.5,"stim/24.jpeg",2,4,1,1,"Instruments",1,2,"left","left",0.609000206,1,1,1,0,134,23,1,0.5,2,"stim/24.jpeg",2,4,"stim/24.jpeg",2,"right",0.856999874,3,2,0.35800004,2,0.19299984,134,0,0,NA,1,NA,1
"402","stim/objects/HouseObjects/vacuumcleaner3.png",366,23,359,0.7,"stim/31.jpeg",3,1,2,1,"HouseObjects",2,3,"right","right",0.629000187,1,1,1,0,185,23,1,0.7,2,"stim/31.jpeg",3,1,"stim/31.jpeg",3,"right",1.272000074,1,2,0.333999872,3,0.715999842,185,0,0,NA,1,NA,1
"483","stim/objects/Instruments/flutetrans3.png",367,23,360,0.9,"stim/61.jpeg",6,1,3,2,"Instruments",1,3,"left","left",0.75999999,1,1,1,0,NA,NA,NA,NA,NA,NA,NA,NA,NA,NA,NA,NA,NA,NA,NA,NA,NA,NA,NA,NA,NA,NA,NA,NA
"316","stim/objects/HouseObjects/dustpan3.png",368,23,361,0.9,"stim/52.jpeg",5,2,3,2,"HouseObjects",2,3,"right","right",0.57400012,1,1,1,0,NA,NA,NA,NA,NA,NA,NA,NA,NA,NA,NA,NA,NA,NA,NA,NA,NA,NA,NA,NA,NA,NA,NA,NA
"473","stim/objects/Instruments/flutetrans3.png",369,23,362,0.9,"stim/61.jpeg",6,1,3,2,"Instruments",1,3,"left","left",0.559000015,1,1,1,0,NA,NA,NA,NA,NA,NA,NA,NA,NA,NA,NA,NA,NA,NA,NA,NA,NA,NA,NA,NA,NA,NA,NA,NA
"448","stim/objects/Instruments/electricdrumset3.png",370,23,363,0.7,"stim/42.jpeg",4,2,2,2,"Instruments",1,3,"left","",NA,0,0,1,0,NA,NA,NA,NA,NA,NA,NA,NA,NA,NA,NA,NA,NA,NA,NA,NA,NA,NA,NA,NA,NA,NA,NA,NA
"484","stim/objects/Instruments/flutetrans3.png",371,23,364,0.9,"stim/62.jpeg",6,2,3,2,"Instruments",1,4,"left","left",0.520000219,1,1,1,0,NA,NA,NA,NA,NA,NA,NA,NA,NA,NA,NA,NA,NA,NA,NA,NA,NA,NA,NA,NA,NA,NA,NA,NA
"422","stim/objects/Instruments/bassguitar3.png",372,23,365,0.5,"stim/24.jpeg",2,4,1,2,"Instruments",1,2,"left","left",0.535000086,1,1,1,0,NA,NA,NA,NA,NA,NA,NA,NA,NA,NA,NA,NA,NA,NA,NA,NA,NA,NA,NA,NA,NA,NA,NA,NA
"516","stim/objects/Instruments/gong3.png",373,23,366,0.9,"stim/64.jpeg",6,4,3,2,"Instruments",1,1,"left","left",0.465000153,1,1,1,0,NA,NA,NA,NA,NA,NA,NA,NA,NA,NA,NA,NA,NA,NA,NA,NA,NA,NA,NA,NA,NA,NA,NA,NA
"485","stim/objects/Instruments/flutetrans3.png",374,23,367,0.9,"stim/64.jpeg",6,4,3,2,"Instruments",1,1,"left","left",0.552000046,1,1,1,0,NA,NA,NA,NA,NA,NA,NA,NA,NA,NA,NA,NA,NA,NA,NA,NA,NA,NA,NA,NA,NA,NA,NA,NA
"367","stim/objects/HouseObjects/glass3.png",375,23,368,0.9,"stim/51.jpeg",5,1,3,2,"HouseObjects",2,3,"right","right",0.567000151,1,1,1,0,NA,NA,NA,NA,NA,NA,NA,NA,NA,NA,NA,NA,NA,NA,NA,NA,NA,NA,NA,NA,NA,NA,NA,NA
"287","stim/objects/HouseObjects/dishsoap3.png",376,23,369,0.7,"stim/34.jpeg",3,4,2,2,"HouseObjects",2,4,"right","right",0.440000296,1,1,1,0,NA,NA,NA,NA,NA,NA,NA,NA,NA,NA,NA,NA,NA,NA,NA,NA,NA,NA,NA,NA,NA,NA,NA,NA
"474","stim/objects/Instruments/flutetrans3.png",377,23,370,0.9,"stim/62.jpeg",6,2,3,2,"Instruments",1,2,"left","left",0.687000036,1,1,1,0,NA,NA,NA,NA,NA,NA,NA,NA,NA,NA,NA,NA,NA,NA,NA,NA,NA,NA,NA,NA,NA,NA,NA,NA
"444","stim/objects/Instruments/drums3.png",378,23,371,0.7,"stim/41.jpeg",4,1,2,2,"Instruments",1,3,"left","left",0.427000046,1,1,1,0,NA,NA,NA,NA,NA,NA,NA,NA,NA,NA,NA,NA,NA,NA,NA,NA,NA,NA,NA,NA,NA,NA,NA,NA
"243","stim/objects/HouseObjects/ashtray4.png",379,23,372,0.7,"stim/33.jpeg",3,3,2,1,"HouseObjects",2,1,"right","left",0.725000143,0,0,1,0,178,23,1,0.7,2,"stim/33.jpeg",3,3,"stim/33.jpeg",1,"left",1.196000099,3,3,2.763999939,3,0.848999977,178,1,1,1,0,0,1
"436","stim/objects/Instruments/cymbal3.png",380,23,373,0.7,"stim/41.jpeg",4,1,2,2,"Instruments",1,3,"left","left",0.635000229,1,1,1,0,NA,NA,NA,NA,NA,NA,NA,NA,NA,NA,NA,NA,NA,NA,NA,NA,NA,NA,NA,NA,NA,NA,NA,NA
"506","stim/objects/Instruments/frenchhorn4.png",381,23,374,0.1,"stim/53.jpeg",5,3,3,1,"Instruments",1,4,"left","left",0.438000202,1,1,1,0,144,23,1,0.1,1,"stim/53.jpeg",5,3,"stim/53.jpeg",4,"left",1.128999949,3,1,0.97300005,3,0.476000071,144,1,0,0,0,0,1
"563","stim/objects/Instruments/oboe3.png",382,23,375,0.3,"stim/32.jpeg",3,2,2,1,"Instruments",1,4,"left","right",0.412000179,0,0,1,0,139,23,1,0.3,1,"stim/32.jpeg",3,2,"stim/32.jpeg",4,"right",1.563999891,3,2,0.440999985,1,0.271999836,139,0,1,NA,0,NA,1
"247","stim/objects/HouseObjects/barbecuelighter3.png",383,23,376,0.5,"stim/13.jpeg",1,3,1,2,"HouseObjects",2,3,"right","left",0.394999981,0,0,1,0,NA,NA,NA,NA,NA,NA,NA,NA,NA,NA,NA,NA,NA,NA,NA,NA,NA,NA,NA,NA,NA,NA,NA,NA
"561","stim/objects/Instruments/musicstand3.png",384,23,377,0.3,"stim/31.jpeg",3,1,2,1,"Instruments",1,2,"left","right",0.376000166,0,0,1,0,56,23,1,0.3,1,"stim/31.jpeg",3,1,"stim/31.jpeg",2,"right",2.08100009,1,1,1.414000034,1,0.766000032,56,0,1,NA,0,NA,1
"384","stim/objects/HouseObjects/iron3.png",385,23,378,0.5,"stim/12.jpeg",1,2,1,1,"HouseObjects",2,2,"right","right",0.409000158,1,1,1,0,31,23,1,0.5,1,"stim/12.jpeg",1,2,"stim/12.jpeg",2,"left",0.888999939,3,3,1.26699996,3,0.737999916,31,1,0,0,0,0,1
"300","stim/objects/HouseObjects/doormat3.png",386,23,379,0.9,"stim/54.jpeg",5,4,3,2,"HouseObjects",2,2,"right","right",0.390000343,1,1,1,0,NA,NA,NA,NA,NA,NA,NA,NA,NA,NA,NA,NA,NA,NA,NA,NA,NA,NA,NA,NA,NA,NA,NA,NA
"418","stim/objects/Instruments/bassdrum3.png",387,23,380,0.5,"stim/11.jpeg",1,1,1,2,"Instruments",1,3,"left","left",0.611000299,1,1,1,0,NA,NA,NA,NA,NA,NA,NA,NA,NA,NA,NA,NA,NA,NA,NA,NA,NA,NA,NA,NA,NA,NA,NA,NA
"490","stim/objects/Instruments/frenchhorn3.png",388,23,381,0.9,"stim/61.jpeg",6,1,3,2,"Instruments",1,1,"left","left",0.554000139,1,1,1,0,NA,NA,NA,NA,NA,NA,NA,NA,NA,NA,NA,NA,NA,NA,NA,NA,NA,NA,NA,NA,NA,NA,NA,NA
"292","stim/objects/HouseObjects/doormat3.png",389,23,382,0.9,"stim/51.jpeg",5,1,3,2,"HouseObjects",2,1,"right","right",0.620000124,1,1,1,0,NA,NA,NA,NA,NA,NA,NA,NA,NA,NA,NA,NA,NA,NA,NA,NA,NA,NA,NA,NA,NA,NA,NA,NA
"465","stim/objects/Instruments/flute3.png",390,23,383,0.9,"stim/62.jpeg",6,2,3,2,"Instruments",1,3,"left","left",0.635000229,1,1,1,0,NA,NA,NA,NA,NA,NA,NA,NA,NA,NA,NA,NA,NA,NA,NA,NA,NA,NA,NA,NA,NA,NA,NA,NA
"535","stim/objects/Instruments/grandpiano3.png",391,23,384,0.9,"stim/63.jpeg",6,3,3,2,"Instruments",1,3,"left","left",0.447000265,1,1,1,0,NA,NA,NA,NA,NA,NA,NA,NA,NA,NA,NA,NA,NA,NA,NA,NA,NA,NA,NA,NA,NA,NA,NA,NA
"437","stim/objects/Instruments/cymbal3.png",392,23,385,0.7,"stim/42.jpeg",4,2,2,2,"Instruments",1,4,"left","right",0.476000071,0,0,1,0,NA,NA,NA,NA,NA,NA,NA,NA,NA,NA,NA,NA,NA,NA,NA,NA,NA,NA,NA,NA,NA,NA,NA,NA
"435","stim/objects/Instruments/cornet4.png",393,23,386,0.7,"stim/44.jpeg",4,4,2,1,"Instruments",1,4,"left","left",0.664000273,1,1,1,0,78,23,1,0.7,1,"stim/44.jpeg",4,4,"stim/44.jpeg",4,"left",0.88499999,4,1,0.93900013,2,1.992000103,78,1,0,0,0,0,1
"529","stim/objects/Instruments/grandpiano3.png",394,23,387,0.9,"stim/64.jpeg",6,4,3,2,"Instruments",1,1,"left","left",0.502000332,1,1,1,0,NA,NA,NA,NA,NA,NA,NA,NA,NA,NA,NA,NA,NA,NA,NA,NA,NA,NA,NA,NA,NA,NA,NA,NA
"412","stim/objects/Instruments/balalaika3.png",395,23,388,0.5,"stim/13.jpeg",1,3,1,2,"Instruments",1,1,"left","left",0.787000179,1,1,1,0,NA,NA,NA,NA,NA,NA,NA,NA,NA,NA,NA,NA,NA,NA,NA,NA,NA,NA,NA,NA,NA,NA,NA,NA
"252","stim/objects/HouseObjects/basket4.png",396,23,389,0.7,"stim/32.jpeg",3,2,2,1,"HouseObjects",2,2,"right","right",0.424000025,1,1,1,0,200,23,1,0.7,2,"stim/32.jpeg",3,2,"stim/32.jpeg",2,"left",1.065000057,2,4,0.631999969,3,0.089999914,200,1,0,0,0,0,1
"349","stim/objects/HouseObjects/garbagebin3.png",397,23,390,0.9,"stim/53.jpeg",5,3,3,2,"HouseObjects",2,4,"right","right",0.50999999,1,1,1,0,NA,NA,NA,NA,NA,NA,NA,NA,NA,NA,NA,NA,NA,NA,NA,NA,NA,NA,NA,NA,NA,NA,NA,NA
"366","stim/objects/HouseObjects/glass3.png",398,23,391,0.9,"stim/51.jpeg",5,1,3,2,"HouseObjects",2,3,"right","right",0.543000221,1,1,1,0,NA,NA,NA,NA,NA,NA,NA,NA,NA,NA,NA,NA,NA,NA,NA,NA,NA,NA,NA,NA,NA,NA,NA,NA
"481","stim/objects/Instruments/flutetrans3.png",399,23,392,0.9,"stim/61.jpeg",6,1,3,2,"Instruments",1,2,"left","left",0.572999954,1,1,1,0,NA,NA,NA,NA,NA,NA,NA,NA,NA,NA,NA,NA,NA,NA,NA,NA,NA,NA,NA,NA,NA,NA,NA,NA
"393","stim/objects/HouseObjects/lintroller4.png",400,23,393,0.1,"stim/62.jpeg",6,2,3,1,"HouseObjects",2,4,"right","left",0.654000044,0,0,1,0,101,23,1,0.1,2,"stim/62.jpeg",6,2,"stim/62.jpeg",4,"left",1.964999914,2,3,0.491000175,4,0.138000011,101,1,0,0,1,1,1
"403","stim/objects/HouseObjects/vacuumcleaner4.png",401,23,394,0.1,"stim/63.jpeg",6,3,3,1,"HouseObjects",2,4,"right","left",0.417000055,0,0,1,0,191,23,1,0.1,2,"stim/63.jpeg",6,3,"stim/63.jpeg",4,"right",0.790999889,2,4,1.09800005,3,0.127000093,191,0,0,NA,0,NA,1
"388","stim/objects/HouseObjects/key3.png",402,23,395,0.5,"stim/21.jpeg",2,1,1,1,"HouseObjects",2,4,"right","left",0.676000118,0,0,1,0,58,23,1,0.5,2,"stim/21.jpeg",2,1,"stim/21.jpeg",4,"left",1.078999996,3,2,2.037999868,3,1.538000107,58,1,0,0,0,0,1
"429","stim/objects/Instruments/chime4.png",403,23,396,0.7,"stim/42.jpeg",4,2,2,1,"Instruments",1,4,"left","left",0.522000074,1,1,1,0,195,23,1,0.7,1,"stim/42.jpeg",4,2,"stim/42.jpeg",4,"left",1.540999889,4,3,0.802000046,2,0.187000036,195,1,0,0,0,0,1
"333","stim/objects/HouseObjects/flyswatter3.png",404,23,397,0.9,"stim/53.jpeg",5,3,3,2,"HouseObjects",2,3,"right","right",0.577000141,1,1,1,0,NA,NA,NA,NA,NA,NA,NA,NA,NA,NA,NA,NA,NA,NA,NA,NA,NA,NA,NA,NA,NA,NA,NA,NA
"487","stim/objects/Instruments/flutetrans3.png",405,23,398,0.9,"stim/61.jpeg",6,1,3,2,"Instruments",1,1,"left","left",0.578000069,1,1,1,0,NA,NA,NA,NA,NA,NA,NA,NA,NA,NA,NA,NA,NA,NA,NA,NA,NA,NA,NA,NA,NA,NA,NA,NA
"547","stim/objects/Instruments/hihat3.png",406,23,399,0.5,"stim/12.jpeg",1,2,1,1,"Instruments",1,3,"left","left",0.546000242,1,1,1,0,40,23,1,0.5,1,"stim/12.jpeg",1,2,"stim/12.jpeg",3,"right",1.144999981,4,4,5.220999956,4,1.034999847,40,0,0,NA,0,NA,1
"324","stim/objects/HouseObjects/dustpan4.png",407,23,400,0.9,"stim/54.jpeg",5,4,3,1,"HouseObjects",2,2,"right","",NA,0,0,1,0,149,23,1,0.9,2,"stim/54.jpeg",5,4,"stim/54.jpeg",2,"right",0.721999884,2,4,0.572999954,1,0.582000017,149,0,1,NA,0,NA,1
"276","stim/objects/HouseObjects/clothespin3.png",408,23,401,0.7,"stim/34.jpeg",3,4,2,2,"HouseObjects",2,4,"right","right",0.450000048,1,1,1,0,NA,NA,NA,NA,NA,NA,NA,NA,NA,NA,NA,NA,NA,NA,NA,NA,NA,NA,NA,NA,NA,NA,NA,NA
"443","stim/objects/Instruments/doublebass4.png",409,23,402,0.7,"stim/42.jpeg",4,2,2,1,"Instruments",1,4,"left","right",0.510000229,0,0,1,0,27,23,1,0.7,1,"stim/42.jpeg",4,2,"stim/42.jpeg",4,"left",0.954999924,3,2,0.961999893,2,0.720000029,27,1,1,1,0,0,1
"498","stim/objects/Instruments/frenchhorn3.png",410,23,403,0.9,"stim/61.jpeg",6,1,3,2,"Instruments",1,1,"left","left",0.74600029,1,1,1,0,NA,NA,NA,NA,NA,NA,NA,NA,NA,NA,NA,NA,NA,NA,NA,NA,NA,NA,NA,NA,NA,NA,NA,NA
"376","stim/objects/HouseObjects/glassmop3.png",411,23,404,0.5,"stim/12.jpeg",1,2,1,1,"HouseObjects",2,4,"right","right",0.5400002,1,1,1,0,99,23,1,0.5,1,"stim/12.jpeg",1,2,"stim/12.jpeg",4,"right",0.92599988,3,1,1.329999924,1,1.09100008,99,0,0,NA,0,NA,1
"302","stim/objects/HouseObjects/doormat3.png",412,23,405,0.9,"stim/52.jpeg",5,2,3,2,"HouseObjects",2,4,"right","right",0.542999983,1,1,1,0,NA,NA,NA,NA,NA,NA,NA,NA,NA,NA,NA,NA,NA,NA,NA,NA,NA,NA,NA,NA,NA,NA,NA,NA
"411","stim/objects/Instruments/acousticguitar4.png",413,23,406,0.3,"stim/33.jpeg",3,3,2,1,"Instruments",1,3,"left","right",0.730000257,0,0,1,0,146,23,1,0.3,1,"stim/33.jpeg",3,3,"stim/33.jpeg",3,"right",0.779999971,3,2,3.316000223,2,0.796000004,146,0,0,NA,0,NA,1
"303","stim/objects/HouseObjects/doormat3.png",414,23,407,0.9,"stim/53.jpeg",5,3,3,2,"HouseObjects",2,3,"right","right",0.572000265,1,1,1,0,NA,NA,NA,NA,NA,NA,NA,NA,NA,NA,NA,NA,NA,NA,NA,NA,NA,NA,NA,NA,NA,NA,NA,NA
"260","stim/objects/HouseObjects/bottle3.png",415,23,408,0.5,"stim/24.jpeg",2,4,1,2,"HouseObjects",2,1,"right","left",0.483000278,0,0,1,0,NA,NA,NA,NA,NA,NA,NA,NA,NA,NA,NA,NA,NA,NA,NA,NA,NA,NA,NA,NA,NA,NA,NA,NA
"510","stim/objects/Instruments/gong3.png",416,23,409,0.9,"stim/61.jpeg",6,1,3,2,"Instruments",1,1,"left","left",0.462000132,1,1,1,0,NA,NA,NA,NA,NA,NA,NA,NA,NA,NA,NA,NA,NA,NA,NA,NA,NA,NA,NA,NA,NA,NA,NA,NA
"326","stim/objects/HouseObjects/flyswatter3.png",417,23,410,0.9,"stim/53.jpeg",5,3,3,2,"HouseObjects",2,2,"right","right",0.408000231,1,1,1,0,NA,NA,NA,NA,NA,NA,NA,NA,NA,NA,NA,NA,NA,NA,NA,NA,NA,NA,NA,NA,NA,NA,NA,NA
"251","stim/objects/HouseObjects/basket3.png",418,23,411,0.5,"stim/13.jpeg",1,3,1,2,"HouseObjects",2,3,"right","right",0.486000299,1,1,1,0,NA,NA,NA,NA,NA,NA,NA,NA,NA,NA,NA,NA,NA,NA,NA,NA,NA,NA,NA,NA,NA,NA,NA,NA
"558","stim/objects/Instruments/metronome4.png",419,23,412,0.9,"stim/64.jpeg",6,4,3,1,"Instruments",1,2,"left","right",0.40500021,0,0,1,0,100,23,1,0.9,1,"stim/64.jpeg",6,4,"stim/64.jpeg",2,"left",1.55700016,1,2,1.026000023,3,0.404999971,100,1,0,0,0,0,1
"269","stim/objects/HouseObjects/clock3.png",420,23,413,0.5,"stim/22.jpeg",2,2,1,2,"HouseObjects",2,2,"right","left",0.382000208,0,0,1,0,NA,NA,NA,NA,NA,NA,NA,NA,NA,NA,NA,NA,NA,NA,NA,NA,NA,NA,NA,NA,NA,NA,NA,NA
"449","stim/objects/Instruments/electricdrumset3.png",421,23,414,0.7,"stim/41.jpeg",4,1,2,2,"Instruments",1,1,"left","left",0.51300025,1,1,1,0,NA,NA,NA,NA,NA,NA,NA,NA,NA,NA,NA,NA,NA,NA,NA,NA,NA,NA,NA,NA,NA,NA,NA,NA
"428","stim/objects/Instruments/chime3.png",422,23,415,0.5,"stim/21.jpeg",2,1,1,2,"Instruments",1,2,"left","right",0.355000257,0,0,1,0,NA,NA,NA,NA,NA,NA,NA,NA,NA,NA,NA,NA,NA,NA,NA,NA,NA,NA,NA,NA,NA,NA,NA,NA
"267","stim/objects/HouseObjects/bucket4.png",423,23,416,0.3,"stim/41.jpeg",4,1,2,1,"HouseObjects",2,1,"right","left",0.47900033,0,0,1,0,107,23,1,0.3,2,"stim/41.jpeg",4,1,"stim/41.jpeg",1,"right",4.284999847,4,2,0.726000071,2,0.190999985,107,0,0,NA,0,NA,1
"458","stim/objects/Instruments/flute3.png",424,23,417,0.9,"stim/63.jpeg",6,3,3,2,"Instruments",1,3,"left","left",0.434000254,1,1,1,0,NA,NA,NA,NA,NA,NA,NA,NA,NA,NA,NA,NA,NA,NA,NA,NA,NA,NA,NA,NA,NA,NA,NA,NA
"245","stim/objects/HouseObjects/ballofstring3.png",425,23,418,0.5,"stim/11.jpeg",1,1,1,2,"HouseObjects",2,2,"right","left",0.434000015,0,0,1,0,NA,NA,NA,NA,NA,NA,NA,NA,NA,NA,NA,NA,NA,NA,NA,NA,NA,NA,NA,NA,NA,NA,NA,NA
"446","stim/objects/Instruments/drums3.png",426,23,419,0.7,"stim/43.jpeg",4,3,2,2,"Instruments",1,3,"left","left",0.395000219,1,1,1,0,NA,NA,NA,NA,NA,NA,NA,NA,NA,NA,NA,NA,NA,NA,NA,NA,NA,NA,NA,NA,NA,NA,NA,NA
"368","stim/objects/HouseObjects/glass3.png",427,23,420,0.9,"stim/54.jpeg",5,4,3,2,"HouseObjects",2,2,"right","left",0.387000084,0,0,1,0,NA,NA,NA,NA,NA,NA,NA,NA,NA,NA,NA,NA,NA,NA,NA,NA,NA,NA,NA,NA,NA,NA,NA,NA
"358","stim/objects/HouseObjects/garbagebin4.png",428,23,421,0.9,"stim/52.jpeg",5,2,3,1,"HouseObjects",2,1,"right","right",0.573000193,1,1,1,0,50,23,1,0.9,2,"stim/52.jpeg",5,2,"stim/52.jpeg",1,"right",0.840000153,3,1,1.243000031,1,0.90899992,50,0,0,NA,1,NA,1
"493","stim/objects/Instruments/frenchhorn3.png",429,23,422,0.9,"stim/64.jpeg",6,4,3,2,"Instruments",1,3,"left","right",0.08100009,0,0,1,0,NA,NA,NA,NA,NA,NA,NA,NA,NA,NA,NA,NA,NA,NA,NA,NA,NA,NA,NA,NA,NA,NA,NA,NA
"499","stim/objects/Instruments/frenchhorn3.png",430,23,423,0.9,"stim/61.jpeg",6,1,3,2,"Instruments",1,4,"left","left",0.453000307,1,1,1,0,NA,NA,NA,NA,NA,NA,NA,NA,NA,NA,NA,NA,NA,NA,NA,NA,NA,NA,NA,NA,NA,NA,NA,NA
"537","stim/objects/Instruments/grandpiano3.png",431,23,424,0.9,"stim/62.jpeg",6,2,3,2,"Instruments",1,2,"left","left",0.441000223,1,1,1,0,NA,NA,NA,NA,NA,NA,NA,NA,NA,NA,NA,NA,NA,NA,NA,NA,NA,NA,NA,NA,NA,NA,NA,NA
"352","stim/objects/HouseObjects/garbagebin3.png",432,23,425,0.9,"stim/54.jpeg",5,4,3,2,"HouseObjects",2,3,"right","left",0.493000269,0,0,1,0,NA,NA,NA,NA,NA,NA,NA,NA,NA,NA,NA,NA,NA,NA,NA,NA,NA,NA,NA,NA,NA,NA,NA,NA
"319","stim/objects/HouseObjects/dustpan3.png",433,23,426,0.9,"stim/51.jpeg",5,1,3,2,"HouseObjects",2,4,"right","right",0.517000198,1,1,1,0,NA,NA,NA,NA,NA,NA,NA,NA,NA,NA,NA,NA,NA,NA,NA,NA,NA,NA,NA,NA,NA,NA,NA,NA
"315","stim/objects/HouseObjects/dustpan3.png",434,23,427,0.9,"stim/52.jpeg",5,2,3,2,"HouseObjects",2,1,"right","right",0.491000175,1,1,1,0,NA,NA,NA,NA,NA,NA,NA,NA,NA,NA,NA,NA,NA,NA,NA,NA,NA,NA,NA,NA,NA,NA,NA,NA
"555","stim/objects/Instruments/marimba3.png",435,23,428,0.5,"stim/23.jpeg",2,3,1,1,"Instruments",1,2,"left","right",0.38100028,0,0,1,0,68,23,1,0.5,2,"stim/23.jpeg",2,3,"stim/23.jpeg",2,"right",5.260999918,3,2,0.84100008,2,0.674999952,68,0,0,NA,1,NA,1
"538","stim/objects/Instruments/grandpiano3.png",436,23,429,0.9,"stim/64.jpeg",6,4,3,2,"Instruments",1,4,"left","left",0.45600009,1,1,1,0,NA,NA,NA,NA,NA,NA,NA,NA,NA,NA,NA,NA,NA,NA,NA,NA,NA,NA,NA,NA,NA,NA,NA,NA
"254","stim/objects/HouseObjects/bleachbottle3.png",437,23,430,0.5,"stim/14.jpeg",1,4,1,2,"HouseObjects",2,3,"right","left",0.433000088,0,0,1,0,NA,NA,NA,NA,NA,NA,NA,NA,NA,NA,NA,NA,NA,NA,NA,NA,NA,NA,NA,NA,NA,NA,NA,NA
"320","stim/objects/HouseObjects/dustpan3.png",438,23,431,0.9,"stim/53.jpeg",5,3,3,2,"HouseObjects",2,1,"right","right",0.48900032,1,1,1,0,NA,NA,NA,NA,NA,NA,NA,NA,NA,NA,NA,NA,NA,NA,NA,NA,NA,NA,NA,NA,NA,NA,NA,NA
"445","stim/objects/Instruments/drums3.png",439,23,432,0.7,"stim/44.jpeg",4,4,2,2,"Instruments",1,4,"left","left",0.525000095,1,1,1,0,NA,NA,NA,NA,NA,NA,NA,NA,NA,NA,NA,NA,NA,NA,NA,NA,NA,NA,NA,NA,NA,NA,NA,NA
"301","stim/objects/HouseObjects/doormat3.png",440,23,433,0.9,"stim/54.jpeg",5,4,3,2,"HouseObjects",2,3,"right","right",0.437999964,1,1,1,0,NA,NA,NA,NA,NA,NA,NA,NA,NA,NA,NA,NA,NA,NA,NA,NA,NA,NA,NA,NA,NA,NA,NA,NA
"441","stim/objects/Instruments/doublebass3.png",441,23,434,0.7,"stim/44.jpeg",4,4,2,2,"Instruments",1,2,"left","left",0.487000227,1,1,1,0,NA,NA,NA,NA,NA,NA,NA,NA,NA,NA,NA,NA,NA,NA,NA,NA,NA,NA,NA,NA,NA,NA,NA,NA
"288","stim/objects/HouseObjects/dishsoap3.png",442,23,435,0.7,"stim/31.jpeg",3,1,2,2,"HouseObjects",2,1,"right","right",0.401000023,1,1,1,0,NA,NA,NA,NA,NA,NA,NA,NA,NA,NA,NA,NA,NA,NA,NA,NA,NA,NA,NA,NA,NA,NA,NA,NA
"329","stim/objects/HouseObjects/flyswatter3.png",443,23,436,0.9,"stim/51.jpeg",5,1,3,2,"HouseObjects",2,4,"right","left",0.624000072,0,0,1,0,NA,NA,NA,NA,NA,NA,NA,NA,NA,NA,NA,NA,NA,NA,NA,NA,NA,NA,NA,NA,NA,NA,NA,NA
"381","stim/objects/HouseObjects/handbrush4.png",444,23,437,0.9,"stim/52.jpeg",5,2,3,1,"HouseObjects",2,1,"right","right",0.493000269,1,1,1,0,12,23,1,0.9,2,"stim/52.jpeg",5,2,"stim/52.jpeg",1,"right",1.404000044,3,2,1.210999966,2,0.838999987,12,0,1,NA,0,NA,1
"372","stim/objects/HouseObjects/glass3.png",445,23,438,0.9,"stim/51.jpeg",5,1,3,2,"HouseObjects",2,4,"right","right",0.569000244,1,1,1,0,NA,NA,NA,NA,NA,NA,NA,NA,NA,NA,NA,NA,NA,NA,NA,NA,NA,NA,NA,NA,NA,NA,NA,NA
"369","stim/objects/HouseObjects/glass3.png",446,23,439,0.9,"stim/52.jpeg",5,2,3,2,"HouseObjects",2,2,"right","right",0.447000027,1,1,1,0,NA,NA,NA,NA,NA,NA,NA,NA,NA,NA,NA,NA,NA,NA,NA,NA,NA,NA,NA,NA,NA,NA,NA,NA
"480","stim/objects/Instruments/flutetrans3.png",447,23,440,0.9,"stim/64.jpeg",6,4,3,2,"Instruments",1,1,"left","right",0.494000196,0,0,1,0,NA,NA,NA,NA,NA,NA,NA,NA,NA,NA,NA,NA,NA,NA,NA,NA,NA,NA,NA,NA,NA,NA,NA,NA
"543","stim/objects/Instruments/harmonica3.png",448,23,441,0.5,"stim/14.jpeg",1,4,1,1,"Instruments",1,3,"left","left",0.438000202,1,1,1,0,80,23,1,0.5,1,"stim/14.jpeg",1,4,"stim/14.jpeg",3,"right",1.771999836,3,4,1.35800004,2,0.15199995,80,0,1,NA,0,NA,1
"455","stim/objects/Instruments/electricguitar4.png",449,23,442,0.7,"stim/41.jpeg",4,1,2,1,"Instruments",1,3,"left","left",0.543000221,1,1,1,0,61,23,1,0.7,1,"stim/41.jpeg",4,1,"stim/41.jpeg",3,"right",1.375,2,2,0.763000011,2,0.747000217,61,0,0,NA,0,NA,1
"392","stim/objects/HouseObjects/lintroller3.png",450,23,443,0.5,"stim/23.jpeg",2,3,1,1,"HouseObjects",2,3,"right","left",0.45600009,0,0,1,0,44,23,1,0.5,2,"stim/23.jpeg",2,3,"stim/23.jpeg",3,"left",1.257999897,3,2,2.460999966,4,2.089999914,44,1,0,0,0,0,1
"461","stim/objects/Instruments/flute3.png",451,23,444,0.9,"stim/62.jpeg",6,2,3,2,"Instruments",1,1,"left","left",0.624000072,1,1,1,0,NA,NA,NA,NA,NA,NA,NA,NA,NA,NA,NA,NA,NA,NA,NA,NA,NA,NA,NA,NA,NA,NA,NA,NA
"468","stim/objects/Instruments/flute3.png",452,23,445,0.9,"stim/61.jpeg",6,1,3,2,"Instruments",1,1,"left","left",0.462000132,1,1,1,0,NA,NA,NA,NA,NA,NA,NA,NA,NA,NA,NA,NA,NA,NA,NA,NA,NA,NA,NA,NA,NA,NA,NA,NA
"389","stim/objects/HouseObjects/key4.png",453,23,446,0.1,"stim/64.jpeg",6,4,3,1,"HouseObjects",2,4,"right","left",0.518000126,0,0,1,0,67,23,1,0.1,2,"stim/64.jpeg",6,4,"stim/64.jpeg",4,"right",0.899000168,2,2,1.759000063,1,1.152999878,67,0,0,NA,0,NA,1
"241","stim/objects/HouseObjects/ashtray3.png",454,23,447,0.5,"stim/11.jpeg",1,1,1,2,"HouseObjects",2,4,"right","left",0.499000072,0,0,1,0,NA,NA,NA,NA,NA,NA,NA,NA,NA,NA,NA,NA,NA,NA,NA,NA,NA,NA,NA,NA,NA,NA,NA,NA
"407","stim/objects/Instruments/accordion3.png",455,23,448,0.5,"stim/12.jpeg",1,2,1,2,"Instruments",1,4,"left","left",0.400000095,1,1,1,0,NA,NA,NA,NA,NA,NA,NA,NA,NA,NA,NA,NA,NA,NA,NA,NA,NA,NA,NA,NA,NA,NA,NA,NA
"528","stim/objects/Instruments/grandpiano3.png",456,23,449,0.9,"stim/63.jpeg",6,3,3,2,"Instruments",1,3,"left","left",0.545000076,1,1,1,0,NA,NA,NA,NA,NA,NA,NA,NA,NA,NA,NA,NA,NA,NA,NA,NA,NA,NA,NA,NA,NA,NA,NA,NA
"318","stim/objects/HouseObjects/dustpan3.png",457,23,450,0.9,"stim/54.jpeg",5,4,3,2,"HouseObjects",2,1,"right","left",0.460000038,0,0,1,0,NA,NA,NA,NA,NA,NA,NA,NA,NA,NA,NA,NA,NA,NA,NA,NA,NA,NA,NA,NA,NA,NA,NA,NA
"539","stim/objects/Instruments/grandpiano3.png",458,23,451,0.9,"stim/61.jpeg",6,1,3,2,"Instruments",1,1,"left","left",0.474000216,1,1,1,0,NA,NA,NA,NA,NA,NA,NA,NA,NA,NA,NA,NA,NA,NA,NA,NA,NA,NA,NA,NA,NA,NA,NA,NA
"533","stim/objects/Instruments/grandpiano3.png",459,23,452,0.9,"stim/64.jpeg",6,4,3,2,"Instruments",1,3,"left","left",0.457000256,1,1,1,0,NA,NA,NA,NA,NA,NA,NA,NA,NA,NA,NA,NA,NA,NA,NA,NA,NA,NA,NA,NA,NA,NA,NA,NA
"355","stim/objects/HouseObjects/garbagebin3.png",460,23,453,0.9,"stim/51.jpeg",5,1,3,2,"HouseObjects",2,1,"right","right",0.592000008,1,1,1,0,NA,NA,NA,NA,NA,NA,NA,NA,NA,NA,NA,NA,NA,NA,NA,NA,NA,NA,NA,NA,NA,NA,NA,NA
"306","stim/objects/HouseObjects/doormat3.png",461,23,454,0.9,"stim/53.jpeg",5,3,3,2,"HouseObjects",2,4,"right","right",0.496000051,1,1,1,0,NA,NA,NA,NA,NA,NA,NA,NA,NA,NA,NA,NA,NA,NA,NA,NA,NA,NA,NA,NA,NA,NA,NA,NA
"463","stim/objects/Instruments/flute3.png",462,23,455,0.9,"stim/61.jpeg",6,1,3,2,"Instruments",1,1,"left","left",0.59100008,1,1,1,0,NA,NA,NA,NA,NA,NA,NA,NA,NA,NA,NA,NA,NA,NA,NA,NA,NA,NA,NA,NA,NA,NA,NA,NA
"322","stim/objects/HouseObjects/dustpan3.png",463,23,456,0.9,"stim/53.jpeg",5,3,3,2,"HouseObjects",2,1,"right","right",0.493000269,1,1,1,0,NA,NA,NA,NA,NA,NA,NA,NA,NA,NA,NA,NA,NA,NA,NA,NA,NA,NA,NA,NA,NA,NA,NA,NA
"339","stim/objects/HouseObjects/flyswatter3.png",464,23,457,0.9,"stim/52.jpeg",5,2,3,2,"HouseObjects",2,1,"right","right",0.457000256,1,1,1,0,NA,NA,NA,NA,NA,NA,NA,NA,NA,NA,NA,NA,NA,NA,NA,NA,NA,NA,NA,NA,NA,NA,NA,NA
"408","stim/objects/Instruments/accordion4.png",465,23,458,0.3,"stim/32.jpeg",3,2,2,1,"Instruments",1,4,"left","right",0.546000242,0,0,1,0,1,23,1,0.3,1,"stim/32.jpeg",3,2,"stim/32.jpeg",4,"right",2.943000078,2,3,7.299000025,3,3.687000036,1,0,0,NA,0,NA,1
"419","stim/objects/Instruments/bassdrum3.png",466,23,459,0.5,"stim/12.jpeg",1,2,1,2,"Instruments",1,4,"left","right",0.474000216,0,0,1,0,NA,NA,NA,NA,NA,NA,NA,NA,NA,NA,NA,NA,NA,NA,NA,NA,NA,NA,NA,NA,NA,NA,NA,NA
"346","stim/objects/HouseObjects/garbagebin3.png",467,23,460,0.9,"stim/52.jpeg",5,2,3,2,"HouseObjects",2,1,"right","right",0.565999985,1,1,1,0,NA,NA,NA,NA,NA,NA,NA,NA,NA,NA,NA,NA,NA,NA,NA,NA,NA,NA,NA,NA,NA,NA,NA,NA
