"","participant","OvsN","PE_level","object_cat","obj_file","scn_file","corr_scn_cat","corr_scn_inst","scn_file.1","corr_loc","key_resp_id.keys","key_resp_id.rt","key_resp_conf.keys","key_resp_assoc.keys","key_resp_assoc.rt","key_resp_loc.keys","key_resp_loc.rt","trialN","id_acc","assoc.acc","cond_assoc","loc.acc","cond_loc","group"
"1",25,2,0,1,"stim/objects/HouseObjects/dishsoap3.png","",0,0,"",0,"right",1.187999964,NA,NA,NA,NA,NA,1,1,NA,NA,NA,NA,1
"2",25,2,0,2,"stim/objects/Instruments/record3.png","",0,0,"",0,"right",1.142999887,NA,NA,NA,NA,NA,2,1,NA,NA,NA,NA,1
"3",25,2,0,1,"stim/objects/HouseObjects/hairdryer4.png","",0,0,"",0,"left",1.384000063,NA,NA,NA,NA,NA,3,0,NA,NA,NA,NA,1
"4",25,1,0.7,2,"stim/objects/Instruments/electricguitar2.png","stim/31.jpeg",3,1,"stim/31.jpeg",1,"right",1.191999912,2,2,3.122999907,2,1.42599988,4,0,0,NA,0,NA,1
"5",25,1,0.5,1,"stim/objects/HouseObjects/safetypin.png","stim/13.jpeg",1,3,"stim/13.jpeg",1,"left",1.710999727,4,4,4.82799983,1,0.661999941,5,1,0,0,1,1,1
"6",25,2,0,2,"stim/objects/Instruments/vuvuzela3.png","",0,0,"",0,"right",2.378000021,NA,NA,NA,NA,NA,6,1,NA,NA,NA,NA,1
"7",25,1,0.3,2,"stim/objects/Instruments/guitarcase2.png","stim/41.jpeg",4,1,"stim/41.jpeg",4,"right",1.822999954,2,2,3.532999992,3,1.230000019,7,0,0,NA,0,NA,1
"8",25,2,0,1,"stim/objects/HouseObjects/handvacuum3.png","",0,0,"",0,"right",1.536999941,NA,NA,NA,NA,NA,8,1,NA,NA,NA,NA,1
"9",25,2,0,2,"stim/objects/Instruments/frenchhorn4.png","",0,0,"",0,"left",1.014999866,NA,NA,NA,NA,NA,9,0,NA,NA,NA,NA,1
"10",25,1,0.9,1,"stim/objects/HouseObjects/saw2.png","stim/61.jpeg",6,1,"stim/61.jpeg",1,"left",1.194000006,2,3,2.171999931,2,1.157000065,10,1,0,0,0,0,1
"11",25,2,0,1,"stim/objects/HouseObjects/recyclingbin3.png","",0,0,"",0,"right",1.296999931,NA,NA,NA,NA,NA,11,1,NA,NA,NA,NA,1
"12",25,1,0.5,2,"stim/objects/Instruments/tambourine.png","stim/21.jpeg",2,1,"stim/21.jpeg",2,"left",1.002000093,3,4,2.389999866,2,1.212999821,12,1,0,0,1,1,1
"13",25,1,0.5,2,"stim/objects/Instruments/speaker.png","stim/24.jpeg",2,4,"stim/24.jpeg",1,"left",1.360999823,3,1,1.028999805,3,1.648999929,13,1,0,0,0,0,1
"14",25,2,0,1,"stim/objects/HouseObjects/doormat3.png","",0,0,"",0,"right",2.487999916,NA,NA,NA,NA,NA,14,1,NA,NA,NA,NA,1
"15",25,1,0.7,2,"stim/objects/Instruments/drums2.png","stim/33.jpeg",3,3,"stim/33.jpeg",1,"left",0.756999969,4,3,5.638999939,1,0.888999939,15,1,1,1,1,1,1
"16",25,1,0.9,2,"stim/objects/Instruments/saxophone2.png","stim/54.jpeg",5,4,"stim/54.jpeg",1,"left",2.663000107,3,4,3.805999994,4,0.91899991,16,1,1,1,0,0,1
"17",25,2,0,2,"stim/objects/Instruments/metronome3.png","",0,0,"",0,"right",1.082000017,NA,NA,NA,NA,NA,17,1,NA,NA,NA,NA,1
"18",25,2,0,1,"stim/objects/HouseObjects/sponge3.png","",0,0,"",0,"left",1.013000011,NA,NA,NA,NA,NA,18,0,NA,NA,NA,NA,1
"19",25,1,0.3,2,"stim/objects/Instruments/harmonica2.png","stim/42.jpeg",4,2,"stim/42.jpeg",2,"left",0.948999882,4,2,5.243000031,4,0.556999922,19,1,1,1,0,0,1
"20",25,1,0.5,1,"stim/objects/Instruments/record.png","stim/14.jpeg",1,4,"stim/14.jpeg",1,"left",1.008999825,2,1,1.501999855,1,1.467999935,20,1,0,0,1,1,1
"21",25,1,0.7,1,"stim/objects/HouseObjects/hairdryer2.png","stim/44.jpeg",4,4,"stim/44.jpeg",3,"left",1.069999933,4,4,1.677999973,2,1.046999931,21,1,1,1,0,0,1
"22",25,2,0,1,"stim/objects/HouseObjects/thread3.png","",0,0,"",0,"right",0.823999882,NA,NA,NA,NA,NA,22,1,NA,NA,NA,NA,1
"23",25,1,0.3,2,"stim/objects/Instruments/keyboard2.png","stim/41.jpeg",4,1,"stim/41.jpeg",4,"left",0.95600009,4,4,3.979000092,2,0.976000071,23,1,0,0,0,0,1
"24",25,1,0.9,2,"stim/objects/Instruments/musicstand2.png","stim/52.jpeg",5,2,"stim/52.jpeg",4,"left",0.84499979,4,2,1.564999819,3,1.271999836,24,1,1,1,0,0,1
"25",25,1,0.7,1,"stim/objects/HouseObjects/ironingboard2.png","stim/44.jpeg",4,4,"stim/44.jpeg",1,"left",0.963999987,3,4,1.671000004,2,1.145999908,25,1,1,1,0,0,1
"26",25,1,0.1,2,"stim/objects/Instruments/trombone2.png","stim/63.jpeg",6,3,"stim/63.jpeg",4,"right",1.311999798,2,1,2.359999895,3,1.910999775,26,0,0,NA,0,NA,1
"27",25,2,0,1,"stim/objects/HouseObjects/flyswatter4.png","",0,0,"",0,"left",1.605999947,NA,NA,NA,NA,NA,27,0,NA,NA,NA,NA,1
"28",25,1,0.3,1,"stim/objects/HouseObjects/thermometer.png","stim/31.jpeg",3,1,"stim/31.jpeg",1,"left",1.06799984,2,1,2.561999798,1,0.471999884,28,1,1,1,1,1,1
"29",25,2,0,1,"stim/objects/HouseObjects/glass3.png","",0,0,"",0,"right",1.15199995,NA,NA,NA,NA,NA,29,1,NA,NA,NA,NA,1
"30",25,2,0,1,"stim/objects/HouseObjects/garbagebin4.png","",0,0,"",0,"right",0.855999947,NA,NA,NA,NA,NA,30,1,NA,NA,NA,NA,1
"31",25,1,0.9,1,"stim/objects/HouseObjects/teapot2.png","stim/61.jpeg",6,1,"stim/61.jpeg",1,"left",0.914999962,4,2,3.641000032,2,2.106999874,31,1,0,0,0,0,1
"32",25,2,0,1,"stim/objects/HouseObjects/glassmop4.png","",0,0,"",0,"right",0.977999926,NA,NA,NA,NA,NA,32,1,NA,NA,NA,NA,1
"33",25,2,0,2,"stim/objects/Instruments/electricguitar4.png","",0,0,"",0,"right",0.888999939,NA,NA,NA,NA,NA,33,1,NA,NA,NA,NA,1
"34",25,1,0.7,1,"stim/objects/HouseObjects/glassmop2.png","stim/43.jpeg",4,3,"stim/43.jpeg",3,"left",0.804999828,4,3,3.850999832,2,1.931999922,34,1,1,1,0,0,1
"35",25,2,0,2,"stim/objects/Instruments/maraca3.png","",0,0,"",0,"left",1.138999939,NA,NA,NA,NA,NA,35,0,NA,NA,NA,NA,1
"36",25,2,0,1,"stim/objects/HouseObjects/handbrush3.png","",0,0,"",0,"right",1.029000044,NA,NA,NA,NA,NA,36,1,NA,NA,NA,NA,1
"37",25,2,0,2,"stim/objects/Instruments/laud3.png","",0,0,"",0,"left",0.818999767,NA,NA,NA,NA,NA,37,0,NA,NA,NA,NA,1
"38",25,1,0.9,2,"stim/objects/Instruments/musicsheet2.png","stim/51.jpeg",5,1,"stim/51.jpeg",3,"left",0.776000023,4,1,5.592999935,3,1.819000006,38,1,1,1,1,1,1
"39",25,2,0,1,"stim/objects/HouseObjects/handbrush4.png","",0,0,"",0,"right",1.110999823,NA,NA,NA,NA,NA,39,1,NA,NA,NA,NA,1
"40",25,2,0,1,"stim/objects/HouseObjects/knife3.png","",0,0,"",0,"right",1.213999987,NA,NA,NA,NA,NA,40,1,NA,NA,NA,NA,1
"41",25,1,0.3,2,"stim/objects/Instruments/frenchhorn2.png","stim/42.jpeg",4,2,"stim/42.jpeg",1,"left",0.781999826,3,2,1.279999971,2,1.041000128,41,1,1,1,0,0,1
"42",25,1,0.9,2,"stim/objects/Instruments/record_player2.png","stim/53.jpeg",5,3,"stim/53.jpeg",2,"left",0.951999903,2,3,1.03399992,3,1.129999876,42,1,1,1,0,0,1
"43",25,2,0,1,"stim/objects/HouseObjects/iron4.png","",0,0,"",0,"right",1.128999949,NA,NA,NA,NA,NA,43,1,NA,NA,NA,NA,1
"44",25,1,0.5,1,"stim/objects/Instruments/pipepiano.png","stim/13.jpeg",1,3,"stim/13.jpeg",2,"left",0.855999947,4,4,6.993999958,2,0.885999918,44,1,0,0,1,1,1
"45",25,1,0.5,1,"stim/objects/HouseObjects/rug.png","stim/12.jpeg",1,2,"stim/12.jpeg",2,"left",1.062999725,2,3,0.838999987,2,0.85800004,45,1,0,0,1,1,1
"46",25,2,0,2,"stim/objects/Instruments/flutetrans4.png","",0,0,"",0,"right",0.954999924,NA,NA,NA,NA,NA,46,1,NA,NA,NA,NA,1
"47",25,2,0,1,"stim/objects/HouseObjects/glassmop3.png","",0,0,"",0,"right",0.676000118,NA,NA,NA,NA,NA,47,1,NA,NA,NA,NA,1
"48",25,1,0.3,1,"stim/objects/HouseObjects/wateringcan.png","stim/31.jpeg",3,1,"stim/31.jpeg",1,"left",0.622999907,3,2,1.264999866,3,1.180999756,48,1,0,0,0,0,1
"49",25,1,0.3,1,"stim/objects/HouseObjects/vacuumcleaner.png","stim/34.jpeg",3,4,"stim/34.jpeg",3,"right",0.894999981,1,1,0.676000118,3,1.476999998,49,0,0,NA,1,NA,1
"50",25,1,0.3,2,"stim/objects/Instruments/harp2.png","stim/43.jpeg",4,3,"stim/43.jpeg",4,"left",1.068000078,4,4,3.069999933,2,0.926999807,50,1,0,0,0,0,1
"51",25,2,0,2,"stim/objects/Instruments/triangle3.png","",0,0,"",0,"left",1.118999958,NA,NA,NA,NA,NA,51,0,NA,NA,NA,NA,1
"52",25,2,0,1,"stim/objects/HouseObjects/saw3.png","",0,0,"",0,"right",0.750999928,NA,NA,NA,NA,NA,52,1,NA,NA,NA,NA,1
"53",25,2,0,2,"stim/objects/Instruments/tuba3.png","",0,0,"",0,"left",0.614999771,NA,NA,NA,NA,NA,53,0,NA,NA,NA,NA,1
"54",25,1,0.1,2,"stim/objects/Instruments/vuvuzela2.png","stim/63.jpeg",6,3,"stim/63.jpeg",2,"left",0.799999952,3,4,3.476999998,3,0.926000118,54,1,0,0,0,0,1
"55",25,2,0,1,"stim/objects/HouseObjects/match3.png","",0,0,"",0,"left",1.073999882,NA,NA,NA,NA,NA,55,0,NA,NA,NA,NA,1
"56",25,1,0.9,1,"stim/objects/HouseObjects/wateringcan2.png","stim/62.jpeg",6,2,"stim/62.jpeg",4,"right",0.707999945,2,4,1.503000021,2,1.14199996,56,0,0,NA,0,NA,1
"57",25,2,0,2,"stim/objects/Instruments/xylophone3.png","",0,0,"",0,"right",0.964999914,NA,NA,NA,NA,NA,57,1,NA,NA,NA,NA,1
"58",25,2,0,1,"stim/objects/HouseObjects/rug3.png","",0,0,"",0,"right",0.715999842,NA,NA,NA,NA,NA,58,1,NA,NA,NA,NA,1
"59",25,1,0.5,2,"stim/objects/Instruments/triangle.png","stim/23.jpeg",2,3,"stim/23.jpeg",2,"left",0.687999964,4,4,4.042999983,2,4.875,59,1,0,0,1,1,1
"60",25,1,0.7,2,"stim/objects/Instruments/trumpet.png","stim/32.jpeg",3,2,"stim/32.jpeg",2,"left",0.971999884,4,1,3.304999828,4,0.853999853,60,1,0,0,0,0,1
"61",25,2,0,2,"stim/objects/Instruments/pipepiano3.png","",0,0,"",0,"right",0.934999943,NA,NA,NA,NA,NA,61,1,NA,NA,NA,NA,1
"62",25,1,0.1,1,"stim/objects/HouseObjects/recyclingbin2.png","stim/52.jpeg",5,2,"stim/52.jpeg",3,"left",0.947000027,4,4,4.088999987,1,0.887000084,62,1,0,0,0,0,1
"63",25,2,0,2,"stim/objects/Instruments/panflute3.png","",0,0,"",0,"right",0.898000002,NA,NA,NA,NA,NA,63,1,NA,NA,NA,NA,1
"64",25,1,0.7,1,"stim/objects/HouseObjects/key2.png","stim/41.jpeg",4,1,"stim/41.jpeg",1,"left",0.882999897,4,2,2.051999807,1,0.969000101,64,1,0,0,1,1,1
"65",25,2,0,2,"stim/objects/Instruments/electricguitar3.png","",0,0,"",0,"right",1.177999973,NA,NA,NA,NA,NA,65,1,NA,NA,NA,NA,1
"66",25,2,0,1,"stim/objects/HouseObjects/dishsoap4.png","",0,0,"",0,"right",0.872999907,NA,NA,NA,NA,NA,66,1,NA,NA,NA,NA,1
"67",25,1,0.7,1,"stim/objects/HouseObjects/handbrush2.png","stim/41.jpeg",4,1,"stim/41.jpeg",1,"right",0.732999802,2,3,1.045000076,1,0.691999912,67,0,0,NA,1,NA,1
"68",25,2,0,1,"stim/objects/HouseObjects/pitcher3.png","",0,0,"",0,"right",0.680999994,NA,NA,NA,NA,NA,68,1,NA,NA,NA,NA,1
"69",25,2,0,1,"stim/objects/HouseObjects/rubbergloves3.png","",0,0,"",0,"right",0.67599988,NA,NA,NA,NA,NA,69,1,NA,NA,NA,NA,1
"70",25,1,0.3,1,"stim/objects/HouseObjects/dishsoap2.png","stim/34.jpeg",3,4,"stim/34.jpeg",1,"left",0.888999939,3,4,2.079999924,2,2.393999815,70,1,1,1,0,0,1
"71",25,2,0,2,"stim/objects/Instruments/flute4.png","",0,0,"",0,"right",1.052999973,NA,NA,NA,NA,NA,71,1,NA,NA,NA,NA,1
"72",25,1,0.5,1,"stim/objects/Instruments/saxophone.png","stim/12.jpeg",1,2,"stim/12.jpeg",3,"left",0.808000088,3,3,1.429999828,2,0.690999985,72,1,0,0,0,0,1
"73",25,2,0,2,"stim/objects/Instruments/hihat4.png","",0,0,"",0,"left",2.986000061,NA,NA,NA,NA,NA,73,0,NA,NA,NA,NA,1
"74",25,1,0.9,2,"stim/objects/Instruments/panflute2.png","stim/54.jpeg",5,4,"stim/54.jpeg",3,"left",0.968999863,2,3,1.433999777,2,1.260999918,74,1,0,0,0,0,1
"75",25,2,0,2,"stim/objects/Instruments/harp4.png","",0,0,"",0,"right",1.316999912,NA,NA,NA,NA,NA,75,1,NA,NA,NA,NA,1
"76",25,2,0,2,"stim/objects/Instruments/harp3.png","",0,0,"",0,"left",0.822999954,NA,NA,NA,NA,NA,76,0,NA,NA,NA,NA,1
"77",25,2,0,2,"stim/objects/Instruments/grandpiano3.png","",0,0,"",0,"right",0.869999886,NA,NA,NA,NA,NA,77,1,NA,NA,NA,NA,1
"78",25,1,0.7,2,"stim/objects/Instruments/vuvuzela.png","stim/31.jpeg",3,1,"stim/31.jpeg",3,"left",0.786999941,4,4,4.59800005,3,1.09499979,78,1,0,0,1,1,1
"79",25,1,0.5,1,"stim/objects/Instruments/panflute.png","stim/12.jpeg",1,2,"stim/12.jpeg",1,"left",2.921999931,4,3,1.751999855,3,1.913999796,79,1,0,0,0,0,1
"80",25,1,0.3,2,"stim/objects/Instruments/hihat2.png","stim/44.jpeg",4,4,"stim/44.jpeg",2,"left",1.14199996,4,3,2.736999989,4,0.89199996,80,1,0,0,0,0,1
"81",25,2,0,1,"stim/objects/HouseObjects/wateringcan3.png","",0,0,"",0,"right",0.9599998,NA,NA,NA,NA,NA,81,1,NA,NA,NA,NA,1
"82",25,2,0,1,"stim/objects/HouseObjects/coffee4.png","",0,0,"",0,"right",0.967000008,NA,NA,NA,NA,NA,82,1,NA,NA,NA,NA,1
"83",25,1,0.7,1,"stim/objects/HouseObjects/garbagebin2.png","stim/41.jpeg",4,1,"stim/41.jpeg",1,"left",1.087999821,2,2,0.822000027,2,0.995999813,83,1,0,0,0,0,1
"84",25,1,0.3,2,"stim/objects/Instruments/laud2.png","stim/42.jpeg",4,2,"stim/42.jpeg",3,"left",1.051999807,3,4,1.371999741,2,0.996999979,84,1,0,0,0,0,1
"85",25,2,0,2,"stim/objects/Instruments/gong4.png","",0,0,"",0,"right",0.916999817,NA,NA,NA,NA,NA,85,1,NA,NA,NA,NA,1
"86",25,1,0.9,1,"stim/objects/HouseObjects/sponge2.png","stim/63.jpeg",6,3,"stim/63.jpeg",4,"left",0.774999857,4,3,2.635999918,3,1.105999947,86,1,1,1,0,0,1
"87",25,2,0,2,"stim/objects/Instruments/trumpet3.png","",0,0,"",0,"left",1.198999882,NA,NA,NA,NA,NA,87,0,NA,NA,NA,NA,1
"88",25,1,0.1,2,"stim/objects/Instruments/violin2.png","stim/62.jpeg",6,2,"stim/62.jpeg",4,"left",0.811999798,2,2,0.766000032,2,0.819999933,88,1,1,1,0,0,1
"89",25,1,0.1,2,"stim/objects/Instruments/triangle2.png","stim/62.jpeg",6,2,"stim/62.jpeg",2,"left",3.039000034,3,2,0.75999999,1,0.822999954,89,1,1,1,0,0,1
"90",25,2,0,1,"stim/objects/HouseObjects/glass4.png","",0,0,"",0,"right",1.157999992,NA,NA,NA,NA,NA,90,1,NA,NA,NA,NA,1
"91",25,2,0,2,"stim/objects/Instruments/laud4.png","",0,0,"",0,"left",0.750999928,NA,NA,NA,NA,NA,91,0,NA,NA,NA,NA,1
"92",25,2,0,1,"stim/objects/HouseObjects/handvacuum4.png","",0,0,"",0,"left",1.471999884,NA,NA,NA,NA,NA,92,0,NA,NA,NA,NA,1
"93",25,2,0,1,"stim/objects/HouseObjects/safetypin3.png","",0,0,"",0,"right",1.586999893,NA,NA,NA,NA,NA,93,1,NA,NA,NA,NA,1
"94",25,1,0.1,2,"stim/objects/Instruments/timbal2.png","stim/61.jpeg",6,1,"stim/61.jpeg",2,"left",0.890999794,3,4,1.991999865,2,0.904999971,94,1,0,0,1,1,1
"95",25,2,0,2,"stim/objects/Instruments/saxophone3.png","",0,0,"",0,"left",0.859999895,NA,NA,NA,NA,NA,95,0,NA,NA,NA,NA,1
"96",25,2,0,1,"stim/objects/HouseObjects/coffee3.png","",0,0,"",0,"right",0.911999941,NA,NA,NA,NA,NA,96,1,NA,NA,NA,NA,1
"97",25,2,0,2,"stim/objects/Instruments/harmonica3.png","",0,0,"",0,"right",1.088999987,NA,NA,NA,NA,NA,97,1,NA,NA,NA,NA,1
"98",25,1,0.1,1,"stim/objects/HouseObjects/lintroller2.png","stim/52.jpeg",5,2,"stim/52.jpeg",3,"right",1.366999865,2,4,1.153000116,4,1.179999828,98,0,0,NA,0,NA,1
"99",25,2,0,1,"stim/objects/HouseObjects/ironingboard3.png","",0,0,"",0,"left",1.078999758,NA,NA,NA,NA,NA,99,0,NA,NA,NA,NA,1
"100",25,2,0,1,"stim/objects/HouseObjects/towel3.png","",0,0,"",0,"left",0.940999985,NA,NA,NA,NA,NA,100,0,NA,NA,NA,NA,1
"101",25,1,0.7,2,"stim/objects/Instruments/tuba.png","stim/33.jpeg",3,3,"stim/33.jpeg",4,"left",1.296000004,1,1,0.86899972,4,2.344000101,101,1,0,0,1,1,1
"102",25,1,0.1,2,"stim/objects/Instruments/tuba2.png","stim/61.jpeg",6,1,"stim/61.jpeg",2,"left",1.008999825,2,4,0.9599998,3,1.136999846,102,1,0,0,0,0,1
"103",25,1,0.3,2,"stim/objects/Instruments/gong2.png","stim/43.jpeg",4,3,"stim/43.jpeg",4,"left",0.867000103,4,4,1.956999779,2,0.78399992,103,1,0,0,0,0,1
"104",25,2,0,1,"stim/objects/HouseObjects/lintroller3.png","",0,0,"",0,"left",0.86500001,NA,NA,NA,NA,NA,104,0,NA,NA,NA,NA,1
"105",25,1,0.5,1,"stim/objects/HouseObjects/recyclingbin.png","stim/13.jpeg",1,3,"stim/13.jpeg",4,"left",0.96999979,2,1,0.742999792,1,0.727999926,105,1,0,0,0,0,1
"106",25,1,0.5,2,"stim/objects/HouseObjects/saw.png","stim/21.jpeg",2,1,"stim/21.jpeg",1,"left",0.79399991,4,2,1.153999805,1,2.771999836,106,1,0,0,1,1,1
"107",25,1,0.7,2,"stim/objects/Instruments/xylophone.png","stim/32.jpeg",3,2,"stim/32.jpeg",2,"right",1.022999763,1,4,2.94299984,2,0.654000044,107,0,0,NA,1,NA,1
"108",25,1,0.1,2,"stim/objects/Instruments/trumpet2.png","stim/64.jpeg",6,4,"stim/64.jpeg",4,"left",0.876999855,2,3,1.162999868,2,0.846999884,108,1,0,0,0,0,1
"109",25,2,0,2,"stim/objects/Instruments/drums3.png","",0,0,"",0,"right",1.264999866,NA,NA,NA,NA,NA,109,1,NA,NA,NA,NA,1
"110",25,2,0,1,"stim/objects/HouseObjects/cushion4.png","",0,0,"",0,"right",0.851999998,NA,NA,NA,NA,NA,110,1,NA,NA,NA,NA,1
"111",25,1,0.1,1,"stim/objects/HouseObjects/safetypin2.png","stim/52.jpeg",5,2,"stim/52.jpeg",4,"left",1.186999798,2,2,1.370999813,3,0.931999922,111,1,1,1,0,0,1
"112",25,2,0,1,"stim/objects/HouseObjects/cushion3.png","",0,0,"",0,"right",1.203999996,NA,NA,NA,NA,NA,112,1,NA,NA,NA,NA,1
"113",25,2,0,2,"stim/objects/Instruments/keyboard4.png","",0,0,"",0,"right",1.40199995,NA,NA,NA,NA,NA,113,1,NA,NA,NA,NA,1
"114",25,1,0.7,1,"stim/objects/HouseObjects/glass2.png","stim/42.jpeg",4,2,"stim/42.jpeg",2,"left",0.773000002,4,2,4.921999931,3,0.853999853,114,1,1,1,0,0,1
"115",25,1,0.3,1,"stim/objects/HouseObjects/doormat2.png","stim/31.jpeg",3,1,"stim/31.jpeg",3,"left",1.098999977,4,3,2.366999865,4,0.816999912,115,1,0,0,0,0,1
"116",25,2,0,1,"stim/objects/HouseObjects/dustpan4.png","",0,0,"",0,"right",3.648999929,NA,NA,NA,NA,NA,116,1,NA,NA,NA,NA,1
"117",25,1,0.9,1,"stim/objects/HouseObjects/thread2.png","stim/63.jpeg",6,3,"stim/63.jpeg",3,"right",0.690999985,2,2,1.323999882,1,1.008999825,117,0,0,NA,0,NA,1
"118",25,2,0,1,"stim/objects/HouseObjects/key4.png","",0,0,"",0,"right",1.053999901,NA,NA,NA,NA,NA,118,1,NA,NA,NA,NA,1
"119",25,1,0.9,2,"stim/objects/Instruments/record2.png","stim/52.jpeg",5,2,"stim/52.jpeg",2,"left",1.161999941,3,3,3.463999748,1,0.398000002,119,1,0,0,0,0,1
"120",25,2,0,2,"stim/objects/Instruments/musicsheet3.png","",0,0,"",0,"right",2.029000044,NA,NA,NA,NA,NA,120,1,NA,NA,NA,NA,1
"121",25,2,0,2,"stim/objects/Instruments/electricdrumset3.png","",0,0,"",0,"left",0.944999933,NA,NA,NA,NA,NA,121,0,NA,NA,NA,NA,1
"122",25,2,0,2,"stim/objects/Instruments/trombone3.png","",0,0,"",0,"left",0.739000082,NA,NA,NA,NA,NA,122,0,NA,NA,NA,NA,1
"123",25,2,0,2,"stim/objects/Instruments/record_player3.png","",0,0,"",0,"right",0.638000011,NA,NA,NA,NA,NA,123,1,NA,NA,NA,NA,1
"124",25,2,0,1,"stim/objects/HouseObjects/teapot3.png","",0,0,"",0,"right",0.780999899,NA,NA,NA,NA,NA,124,1,NA,NA,NA,NA,1
"125",25,1,0.1,1,"stim/objects/HouseObjects/knife2.png","stim/51.jpeg",5,1,"stim/51.jpeg",3,"right",0.638000011,1,2,1.92599988,1,0.55700016,125,0,0,NA,0,NA,1
"126",25,1,0.1,2,"stim/objects/Instruments/tambourine2.png","stim/64.jpeg",6,4,"stim/64.jpeg",4,"left",1.199999809,2,4,2.04399991,2,1.269000053,126,1,1,1,0,0,1
"127",25,1,0.5,2,"stim/objects/HouseObjects/sponge.png","stim/23.jpeg",2,3,"stim/23.jpeg",3,"right",0.92599988,1,1,1.51699996,1,0.222000122,127,0,0,NA,0,NA,1
"128",25,1,0.7,1,"stim/objects/HouseObjects/iron2.png","stim/43.jpeg",4,3,"stim/43.jpeg",2,"right",2.542999744,2,1,0.607000113,1,3.400000095,128,0,0,NA,0,NA,1
"129",25,1,0.3,1,"stim/objects/HouseObjects/dustpan2.png","stim/32.jpeg",3,2,"stim/32.jpeg",3,"right",1.053999901,1,3,1.154999733,2,0.604000092,129,0,0,NA,0,NA,1
"130",25,1,0.1,1,"stim/objects/HouseObjects/rug2.png","stim/51.jpeg",5,1,"stim/51.jpeg",2,"left",0.904999971,2,3,0.92599988,2,0.976000071,130,1,0,0,1,1,1
"131",25,2,0,2,"stim/objects/Instruments/grandpiano4.png","",0,0,"",0,"left",1.074999809,NA,NA,NA,NA,NA,131,0,NA,NA,NA,NA,1
"132",25,1,0.5,1,"stim/objects/Instruments/record_player.png","stim/11.jpeg",1,1,"stim/11.jpeg",3,"left",1.228999853,2,3,1.217000008,4,1.43599987,132,1,0,0,0,0,1
"133",25,1,0.1,2,"stim/objects/Instruments/speaker2.png","stim/63.jpeg",6,3,"stim/63.jpeg",2,"right",0.927999973,3,2,0.701999903,2,1.055999756,133,0,0,NA,1,NA,1
"134",25,2,0,2,"stim/objects/Instruments/musicstand3.png","",0,0,"",0,"left",1.016000032,NA,NA,NA,NA,NA,134,0,NA,NA,NA,NA,1
"135",25,2,0,1,"stim/objects/HouseObjects/hairdryer3.png","",0,0,"",0,"right",0.786999941,NA,NA,NA,NA,NA,135,1,NA,NA,NA,NA,1
"136",25,1,0.1,1,"stim/objects/HouseObjects/pan2.png","stim/54.jpeg",5,4,"stim/54.jpeg",3,"left",1.125999928,3,3,1.024999857,1,1.629999876,136,1,0,0,0,0,1
"137",25,1,0.3,1,"stim/objects/HouseObjects/coffee2.png","stim/32.jpeg",3,2,"stim/32.jpeg",2,"right",0.947999716,2,2,0.842999935,4,1.440000057,137,0,1,NA,0,NA,1
"138",25,2,0,2,"stim/objects/Instruments/tambourine3.png","",0,0,"",0,"right",0.974999905,NA,NA,NA,NA,NA,138,1,NA,NA,NA,NA,1
"139",25,1,0.3,1,"stim/objects/HouseObjects/thread.png","stim/32.jpeg",3,2,"stim/32.jpeg",1,"right",0.764999866,1,4,0.915999889,4,0.743999958,139,0,0,NA,0,NA,1
"140",25,1,0.3,1,"stim/objects/HouseObjects/towel.png","stim/33.jpeg",3,3,"stim/33.jpeg",4,"left",1.207999945,3,1,1.266000032,1,0.701999903,140,1,0,0,0,0,1
"141",25,1,0.7,1,"stim/objects/HouseObjects/handvacuum2.png","stim/42.jpeg",4,2,"stim/42.jpeg",4,"left",0.728999853,3,3,1.417999744,2,0.712999821,141,1,0,0,0,0,1
"142",25,2,0,2,"stim/objects/Instruments/maraca4.png","",0,0,"",0,"right",0.75,NA,NA,NA,NA,NA,142,1,NA,NA,NA,NA,1
"143",25,1,0.9,1,"stim/objects/HouseObjects/towel2.png","stim/64.jpeg",6,4,"stim/64.jpeg",2,"right",0.946999788,1,2,0.843999863,3,0.970999956,143,0,0,NA,0,NA,1
"144",25,2,0,1,"stim/objects/HouseObjects/remote3.png","",0,0,"",0,"right",0.819999933,NA,NA,NA,NA,NA,144,1,NA,NA,NA,NA,1
"145",25,1,0.3,2,"stim/objects/Instruments/grandpiano2.png","stim/44.jpeg",4,4,"stim/44.jpeg",4,"right",3.055000067,2,4,1.450000048,1,1.376999855,145,0,1,NA,0,NA,1
"146",25,1,0.7,1,"stim/objects/HouseObjects/flyswatter2.png","stim/44.jpeg",4,4,"stim/44.jpeg",1,"left",1.047999859,4,4,2.105999947,1,0.517999887,146,1,1,1,1,1,1
"147",25,1,0.1,1,"stim/objects/HouseObjects/remote2.png","stim/53.jpeg",5,3,"stim/53.jpeg",1,"left",1.120000124,2,1,0.809000015,1,0.827000141,147,1,0,0,1,1,1
"148",25,1,0.9,1,"stim/objects/HouseObjects/vacuumcleaner2.png","stim/61.jpeg",6,1,"stim/61.jpeg",1,"right",2.799000025,3,2,1.907999754,2,0.471999884,148,0,0,NA,0,NA,1
"149",25,2,0,1,"stim/objects/HouseObjects/iron3.png","",0,0,"",0,"right",1.194999933,NA,NA,NA,NA,NA,149,1,NA,NA,NA,NA,1
"150",25,2,0,2,"stim/objects/Instruments/gong3.png","",0,0,"",0,"left",0.904999971,NA,NA,NA,NA,NA,150,0,NA,NA,NA,NA,1
"151",25,1,0.5,2,"stim/objects/HouseObjects/spraybottle.png","stim/24.jpeg",2,4,"stim/24.jpeg",3,"right",0.910999775,1,1,0.926999807,1,0.230999947,151,0,0,NA,0,NA,1
"152",25,1,0.7,2,"stim/objects/Instruments/flute2.png","stim/32.jpeg",3,2,"stim/32.jpeg",2,"left",2.056999922,3,4,1.864000082,2,0.748999834,152,1,0,0,1,1,1
"153",25,1,0.5,2,"stim/objects/HouseObjects/scale.png","stim/22.jpeg",2,2,"stim/22.jpeg",2,"left",1.439999819,4,1,4.589999914,2,1.065000057,153,1,0,0,1,1,1
"154",25,2,0,2,"stim/objects/Instruments/electricdrumset4.png","",0,0,"",0,"left",0.934999943,NA,NA,NA,NA,NA,154,0,NA,NA,NA,NA,1
"155",25,2,0,1,"stim/objects/HouseObjects/vacuumcleaner3.png","",0,0,"",0,"right",0.762999773,NA,NA,NA,NA,NA,155,1,NA,NA,NA,NA,1
"156",25,2,0,1,"stim/objects/HouseObjects/doormat4.png","",0,0,"",0,"left",0.865999699,NA,NA,NA,NA,NA,156,0,NA,NA,NA,NA,1
"157",25,2,0,1,"stim/objects/HouseObjects/scale3.png","",0,0,"",0,"right",0.833999872,NA,NA,NA,NA,NA,157,1,NA,NA,NA,NA,1
"158",25,1,0.3,2,"stim/objects/Instruments/maraca2.png","stim/43.jpeg",4,3,"stim/43.jpeg",2,"left",1.189999819,3,3,3.88499999,2,0.913000107,158,1,1,1,1,1,1
"159",25,1,0.5,2,"stim/objects/HouseObjects/teapot.png","stim/21.jpeg",2,1,"stim/21.jpeg",4,"right",0.916999817,2,4,1.133999825,2,0.832999945,159,0,0,NA,0,NA,1
"160",25,2,0,2,"stim/objects/Instruments/guitarcase4.png","",0,0,"",0,"right",0.943999767,NA,NA,NA,NA,NA,160,1,NA,NA,NA,NA,1
"161",25,2,0,1,"stim/objects/HouseObjects/garbagebin3.png","",0,0,"",0,"right",0.76699996,NA,NA,NA,NA,NA,161,1,NA,NA,NA,NA,1
"162",25,2,0,2,"stim/objects/Instruments/frenchhorn3.png","",0,0,"",0,"left",1.381999731,NA,NA,NA,NA,NA,162,0,NA,NA,NA,NA,1
"163",25,1,0.7,2,"stim/objects/Instruments/flutetrans2.png","stim/33.jpeg",3,3,"stim/33.jpeg",1,"right",0.919999838,1,4,2.034999847,2,0.585999727,163,0,0,NA,0,NA,1
"164",25,1,0.5,1,"stim/objects/HouseObjects/remote.png","stim/14.jpeg",1,4,"stim/14.jpeg",1,"right",0.905999899,2,2,0.686999798,2,3.368999958,164,0,0,NA,0,NA,1
"165",25,1,0.5,2,"stim/objects/Instruments/timbal.png","stim/22.jpeg",2,2,"stim/22.jpeg",2,"left",0.877999783,3,1,2.479999781,4,0.842000008,165,1,0,0,0,0,1
"166",25,2,0,2,"stim/objects/Instruments/guitarcase3.png","",0,0,"",0,"right",1.018999815,NA,NA,NA,NA,NA,166,1,NA,NA,NA,NA,1
"167",25,2,0,2,"stim/objects/Instruments/oboe3.png","",0,0,"",0,"right",0.842000008,NA,NA,NA,NA,NA,167,1,NA,NA,NA,NA,1
"168",25,1,0.9,2,"stim/objects/Instruments/metronome2.png","stim/54.jpeg",5,4,"stim/54.jpeg",3,"right",0.997999907,1,1,0.678999901,2,2.06099987,168,0,0,NA,0,NA,1
"169",25,2,0,2,"stim/objects/Instruments/timbal3.png","",0,0,"",0,"right",0.763000011,NA,NA,NA,NA,NA,169,1,NA,NA,NA,NA,1
"170",25,1,0.5,1,"stim/objects/HouseObjects/rubbergloves.png","stim/11.jpeg",1,1,"stim/11.jpeg",4,"right",1.135999918,2,4,1.142999887,3,1.341999769,170,0,0,NA,0,NA,1
"171",25,1,0.1,2,"stim/objects/Instruments/xylophone2.png","stim/64.jpeg",6,4,"stim/64.jpeg",4,"left",0.961999893,4,4,2.36500001,3,1.013999701,171,1,1,1,0,0,1
"172",25,1,0.1,1,"stim/objects/HouseObjects/match2.png","stim/53.jpeg",5,3,"stim/53.jpeg",3,"left",1.461999893,3,2,1.529000044,3,0.961999893,172,1,0,0,1,1,1
"173",25,2,0,2,"stim/objects/Instruments/speaker3.png","",0,0,"",0,"right",0.779999971,NA,NA,NA,NA,NA,173,1,NA,NA,NA,NA,1
"174",25,1,0.7,2,"stim/objects/Instruments/violin.png","stim/34.jpeg",3,4,"stim/34.jpeg",4,"left",4.19299984,3,2,8.932999849,2,1.085999966,174,1,0,0,0,0,1
"175",25,1,0.7,2,"stim/objects/Instruments/electricdrumset2.png","stim/34.jpeg",3,4,"stim/34.jpeg",1,"left",0.915999889,3,1,0.789999962,1,0.943999767,175,1,0,0,1,1,1
"176",25,2,0,2,"stim/objects/Instruments/violin3.png","",0,0,"",0,"right",1.456999779,NA,NA,NA,NA,NA,176,1,NA,NA,NA,NA,1
"177",25,2,0,2,"stim/objects/Instruments/flutetrans3.png","",0,0,"",0,"right",0.90199995,NA,NA,NA,NA,NA,177,1,NA,NA,NA,NA,1
"178",25,2,0,2,"stim/objects/Instruments/drums4.png","",0,0,"",0,"right",0.736000061,NA,NA,NA,NA,NA,178,1,NA,NA,NA,NA,1
"179",25,2,0,1,"stim/objects/HouseObjects/key3.png","",0,0,"",0,"right",0.785999775,NA,NA,NA,NA,NA,179,1,NA,NA,NA,NA,1
"180",25,2,0,2,"stim/objects/Instruments/harmonica4.png","",0,0,"",0,"right",0.77699995,NA,NA,NA,NA,NA,180,1,NA,NA,NA,NA,1
"181",25,2,0,2,"stim/objects/Instruments/keyboard3.png","",0,0,"",0,"right",0.595999956,NA,NA,NA,NA,NA,181,1,NA,NA,NA,NA,1
"182",25,2,0,2,"stim/objects/Instruments/hihat3.png","",0,0,"",0,"right",2.072999954,NA,NA,NA,NA,NA,182,1,NA,NA,NA,NA,1
"183",25,1,0.1,1,"stim/objects/HouseObjects/pitcher2.png","stim/51.jpeg",5,1,"stim/51.jpeg",1,"right",1.389999866,1,1,0.493999958,1,0.434000015,183,0,1,NA,1,NA,1
"184",25,1,0.9,2,"stim/objects/Instruments/pipepiano2.png","stim/51.jpeg",5,1,"stim/51.jpeg",1,"right",1.188999891,3,2,0.871999979,1,1.212999821,184,0,0,NA,1,NA,1
"185",25,1,0.9,2,"stim/objects/Instruments/oboe2.png","stim/53.jpeg",5,3,"stim/53.jpeg",4,"left",1.878000021,3,4,3.388999939,4,0.796000004,185,1,0,0,1,1,1
"186",25,2,0,2,"stim/objects/Instruments/marimba3.png","",0,0,"",0,"right",0.835000038,NA,NA,NA,NA,NA,186,1,NA,NA,NA,NA,1
"187",25,2,0,1,"stim/objects/HouseObjects/ironingboard4.png","",0,0,"",0,"right",1.207000017,NA,NA,NA,NA,NA,187,1,NA,NA,NA,NA,1
"188",25,1,0.5,2,"stim/objects/Instruments/trombone.png","stim/24.jpeg",2,4,"stim/24.jpeg",1,"right",0.902999878,2,2,0.88499999,2,0.809999943,188,0,0,NA,0,NA,1
"189",25,2,0,1,"stim/objects/HouseObjects/thermometer3.png","",0,0,"",0,"right",0.833999872,NA,NA,NA,NA,NA,189,1,NA,NA,NA,NA,1
"190",25,1,0.9,1,"stim/objects/HouseObjects/scale2.png","stim/62.jpeg",6,2,"stim/62.jpeg",3,"right",0.59800005,1,1,0.56099987,1,0.393999815,190,0,0,NA,0,NA,1
"191",25,2,0,1,"stim/objects/HouseObjects/dustpan3.png","",0,0,"",0,"right",1.09499979,NA,NA,NA,NA,NA,191,1,NA,NA,NA,NA,1
"192",25,1,0.3,1,"stim/objects/HouseObjects/cushion2.png","stim/33.jpeg",3,3,"stim/33.jpeg",4,"left",0.911000013,2,3,0.835999966,2,0.943999767,192,1,1,1,0,0,1
"193",25,2,0,1,"stim/objects/HouseObjects/flyswatter3.png","",0,0,"",0,"left",1.04399991,NA,NA,NA,NA,NA,193,0,NA,NA,NA,NA,1
"194",25,2,0,2,"stim/objects/Instruments/flute3.png","",0,0,"",0,"right",1.109999895,NA,NA,NA,NA,NA,194,1,NA,NA,NA,NA,1
"195",25,1,0.9,1,"stim/objects/HouseObjects/thermometer2.png","stim/62.jpeg",6,2,"stim/62.jpeg",2,"right",0.961999893,2,2,0.428999901,1,1.051999807,195,0,1,NA,0,NA,1
"196",25,1,0.9,1,"stim/objects/HouseObjects/spraybottle2.png","stim/64.jpeg",6,4,"stim/64.jpeg",4,"right",0.928999901,2,2,0.243999958,2,0.520999908,196,0,0,NA,0,NA,1
"197",25,2,0,1,"stim/objects/HouseObjects/spraybottle3.png","",0,0,"",0,"right",0.950999975,NA,NA,NA,NA,NA,197,1,NA,NA,NA,NA,1
"198",25,1,0.9,2,"stim/objects/Instruments/marimba2.png","stim/53.jpeg",5,3,"stim/53.jpeg",1,"right",1.371000051,1,4,0.953999758,1,1.052000046,198,0,0,NA,1,NA,1
"199",25,2,0,1,"stim/objects/HouseObjects/pan3.png","",0,0,"",0,"left",1.041000128,NA,NA,NA,NA,NA,199,0,NA,NA,NA,NA,1
"200",25,1,0.1,1,"stim/objects/HouseObjects/rubbergloves2.png","stim/54.jpeg",5,4,"stim/54.jpeg",1,"right",1.052000046,2,4,0.944000006,2,0.779999971,200,0,1,NA,0,NA,1
