"","obj_file","X.x","participant.x","trialN.x","trial_cond","scn_file.x","scn_cat","scn_inst","scn_condition","fillers","obj_cat","obj_cat_num","quadrant","corr_ans","key_resp_trial.keys","key_resp_trial.rt","trial_acc","trial_acc_manual","group.x","practice","X.y","participant.y","OvsN","PE_level","object_cat","scn_file.y","corr_scn_cat","corr_scn_inst","scn_file.1","corr_loc","key_resp_id.keys","key_resp_id.rt","key_resp_conf.keys","key_resp_assoc.keys","key_resp_assoc.rt","key_resp_loc.keys","key_resp_loc.rt","trialN.y","id_acc","assoc.acc","cond_assoc","loc.acc","cond_loc","group.y"
"60","stim/objects/HouseObjects/blender2.png",1,25,1,0.1,"stim/52.jpeg",5,2,3,NA,"HouseObjects",1,3,"left","",NA,0,0,1,1,NA,NA,NA,NA,NA,NA,NA,NA,NA,NA,NA,NA,NA,NA,NA,NA,NA,NA,NA,NA,NA,NA,NA,NA
"158","stim/objects/Instruments/bassdrum2.png",2,25,2,0.9,"stim/51.jpeg",5,1,3,NA,"Instruments",2,1,"right","right",0.715000153,1,1,1,1,NA,NA,NA,NA,NA,NA,NA,NA,NA,NA,NA,NA,NA,NA,NA,NA,NA,NA,NA,NA,NA,NA,NA,NA
"18","stim/objects/HouseObjects/ballofstring2.png",3,25,3,0.7,"stim/42.jpeg",4,2,2,NA,"HouseObjects",1,4,"left","left",0.860999823,1,1,1,1,NA,NA,NA,NA,NA,NA,NA,NA,NA,NA,NA,NA,NA,NA,NA,NA,NA,NA,NA,NA,NA,NA,NA,NA
"172","stim/objects/Instruments/bassguitar2.png",4,25,4,0.9,"stim/52.jpeg",5,2,3,NA,"Instruments",2,3,"right","right",0.625999928,1,1,1,1,NA,NA,NA,NA,NA,NA,NA,NA,NA,NA,NA,NA,NA,NA,NA,NA,NA,NA,NA,NA,NA,NA,NA,NA
"173","stim/objects/Instruments/bassguitar2.png",5,25,5,0.9,"stim/52.jpeg",5,2,3,NA,"Instruments",2,3,"right","right",0.556999922,1,1,1,1,NA,NA,NA,NA,NA,NA,NA,NA,NA,NA,NA,NA,NA,NA,NA,NA,NA,NA,NA,NA,NA,NA,NA,NA
"134","stim/objects/Instruments/acousticguitar2.png",6,25,6,0.3,"stim/42.jpeg",4,2,2,NA,"Instruments",2,4,"right","left",0.886000156,0,0,1,1,NA,NA,NA,NA,NA,NA,NA,NA,NA,NA,NA,NA,NA,NA,NA,NA,NA,NA,NA,NA,NA,NA,NA,NA
"129","stim/objects/Instruments/acousticguitar.png",7,25,7,0.5,"stim/12.jpeg",1,2,1,NA,"Instruments",2,2,"right","left",0.703000069,0,0,1,1,NA,NA,NA,NA,NA,NA,NA,NA,NA,NA,NA,NA,NA,NA,NA,NA,NA,NA,NA,NA,NA,NA,NA,NA
"130","stim/objects/Instruments/acousticguitar.png",8,25,8,0.5,"stim/12.jpeg",1,2,1,NA,"Instruments",2,3,"right","left",0.663000107,0,0,1,1,NA,NA,NA,NA,NA,NA,NA,NA,NA,NA,NA,NA,NA,NA,NA,NA,NA,NA,NA,NA,NA,NA,NA,NA
"112","stim/objects/HouseObjects/clothespin2.png",9,25,9,0.9,"stim/64.jpeg",6,4,3,NA,"HouseObjects",1,1,"left","left",0.68599987,1,1,1,1,NA,NA,NA,NA,NA,NA,NA,NA,NA,NA,NA,NA,NA,NA,NA,NA,NA,NA,NA,NA,NA,NA,NA,NA
"61","stim/objects/HouseObjects/bottle.png",10,25,10,0.5,"stim/23.jpeg",2,3,1,NA,"HouseObjects",1,2,"left","left",0.848999977,1,1,1,1,NA,NA,NA,NA,NA,NA,NA,NA,NA,NA,NA,NA,NA,NA,NA,NA,NA,NA,NA,NA,NA,NA,NA,NA
"25","stim/objects/HouseObjects/barbecuelighter.png",11,25,11,0.5,"stim/13.jpeg",1,3,1,NA,"HouseObjects",1,1,"left","",NA,0,0,1,1,NA,NA,NA,NA,NA,NA,NA,NA,NA,NA,NA,NA,NA,NA,NA,NA,NA,NA,NA,NA,NA,NA,NA,NA
"131","stim/objects/Instruments/acousticguitar.png",12,25,12,0.5,"stim/12.jpeg",1,2,1,NA,"Instruments",2,3,"right","left",0.43200016,0,0,1,1,NA,NA,NA,NA,NA,NA,NA,NA,NA,NA,NA,NA,NA,NA,NA,NA,NA,NA,NA,NA,NA,NA,NA,NA
"145","stim/objects/Instruments/banjo.png",13,25,13,0.5,"stim/14.jpeg",1,4,1,NA,"Instruments",2,2,"right","",NA,0,0,1,1,NA,NA,NA,NA,NA,NA,NA,NA,NA,NA,NA,NA,NA,NA,NA,NA,NA,NA,NA,NA,NA,NA,NA,NA
"142","stim/objects/Instruments/balalaika2.png",14,25,14,0.3,"stim/43.jpeg",4,3,2,NA,"Instruments",2,1,"right","left",0.702000141,0,0,1,1,NA,NA,NA,NA,NA,NA,NA,NA,NA,NA,NA,NA,NA,NA,NA,NA,NA,NA,NA,NA,NA,NA,NA,NA
"186","stim/objects/Instruments/cello2.png",15,25,15,0.9,"stim/53.jpeg",5,3,3,NA,"Instruments",2,2,"right","right",0.694000006,1,1,1,1,NA,NA,NA,NA,NA,NA,NA,NA,NA,NA,NA,NA,NA,NA,NA,NA,NA,NA,NA,NA,NA,NA,NA,NA
"6","stim/objects/HouseObjects/ashtray2.png",16,25,16,0.7,"stim/41.jpeg",4,1,2,NA,"HouseObjects",1,2,"left","left",0.680999994,1,1,1,1,NA,NA,NA,NA,NA,NA,NA,NA,NA,NA,NA,NA,NA,NA,NA,NA,NA,NA,NA,NA,NA,NA,NA,NA
"42","stim/objects/HouseObjects/basket2.png",17,25,17,0.7,"stim/44.jpeg",4,4,2,NA,"HouseObjects",1,1,"left","left",0.499000072,1,1,1,1,NA,NA,NA,NA,NA,NA,NA,NA,NA,NA,NA,NA,NA,NA,NA,NA,NA,NA,NA,NA,NA,NA,NA,NA
"126","stim/objects/Instruments/accordion2.png",18,25,18,0.3,"stim/41.jpeg",4,1,2,NA,"Instruments",2,1,"right","left",0.609000206,0,0,1,1,NA,NA,NA,NA,NA,NA,NA,NA,NA,NA,NA,NA,NA,NA,NA,NA,NA,NA,NA,NA,NA,NA,NA,NA
"159","stim/objects/Instruments/bassdrum2.png",19,25,19,0.9,"stim/51.jpeg",5,1,3,NA,"Instruments",2,3,"right","right",0.683000088,1,1,1,1,NA,NA,NA,NA,NA,NA,NA,NA,NA,NA,NA,NA,NA,NA,NA,NA,NA,NA,NA,NA,NA,NA,NA,NA
"195","stim/objects/Instruments/chime.png",20,25,20,0.5,"stim/24.jpeg",2,4,1,NA,"Instruments",2,4,"right","left",0.571000099,0,0,1,1,NA,NA,NA,NA,NA,NA,NA,NA,NA,NA,NA,NA,NA,NA,NA,NA,NA,NA,NA,NA,NA,NA,NA,NA
"146","stim/objects/Instruments/banjo.png",21,25,21,0.5,"stim/14.jpeg",1,4,1,NA,"Instruments",2,3,"right","left",0.724999905,0,0,1,1,NA,NA,NA,NA,NA,NA,NA,NA,NA,NA,NA,NA,NA,NA,NA,NA,NA,NA,NA,NA,NA,NA,NA,NA
"76","stim/objects/HouseObjects/bucket2.png",22,25,22,0.9,"stim/61.jpeg",6,1,3,NA,"HouseObjects",1,3,"left","left",0.596999884,1,1,1,1,NA,NA,NA,NA,NA,NA,NA,NA,NA,NA,NA,NA,NA,NA,NA,NA,NA,NA,NA,NA,NA,NA,NA,NA
"77","stim/objects/HouseObjects/bucket2.png",23,25,23,0.9,"stim/61.jpeg",6,1,3,NA,"HouseObjects",1,2,"left","left",0.493999958,1,1,1,1,NA,NA,NA,NA,NA,NA,NA,NA,NA,NA,NA,NA,NA,NA,NA,NA,NA,NA,NA,NA,NA,NA,NA,NA
"88","stim/objects/HouseObjects/clock2.png",24,25,24,0.9,"stim/62.jpeg",6,2,3,NA,"HouseObjects",1,1,"left","left",0.48300004,1,1,1,1,NA,NA,NA,NA,NA,NA,NA,NA,NA,NA,NA,NA,NA,NA,NA,NA,NA,NA,NA,NA,NA,NA,NA,NA
"30","stim/objects/HouseObjects/barbecuelighter2.png",25,25,25,0.7,"stim/43.jpeg",4,3,2,NA,"HouseObjects",1,2,"left","right",0.817000151,0,0,1,1,NA,NA,NA,NA,NA,NA,NA,NA,NA,NA,NA,NA,NA,NA,NA,NA,NA,NA,NA,NA,NA,NA,NA,NA
"100","stim/objects/HouseObjects/clothesdryingrack2.png",26,25,26,0.9,"stim/63.jpeg",6,3,3,NA,"HouseObjects",1,4,"left","left",0.56799984,1,1,1,1,NA,NA,NA,NA,NA,NA,NA,NA,NA,NA,NA,NA,NA,NA,NA,NA,NA,NA,NA,NA,NA,NA,NA,NA
"62","stim/objects/HouseObjects/bottle.png",27,25,27,0.5,"stim/23.jpeg",2,3,1,NA,"HouseObjects",1,1,"left","left",0.613999844,1,1,1,1,NA,NA,NA,NA,NA,NA,NA,NA,NA,NA,NA,NA,NA,NA,NA,NA,NA,NA,NA,NA,NA,NA,NA,NA
"97","stim/objects/HouseObjects/clothesdryingrack.png",28,25,28,0.3,"stim/33.jpeg",3,3,2,NA,"HouseObjects",1,4,"left","right",0.570000172,0,0,1,1,NA,NA,NA,NA,NA,NA,NA,NA,NA,NA,NA,NA,NA,NA,NA,NA,NA,NA,NA,NA,NA,NA,NA,NA
"78","stim/objects/HouseObjects/bucket2.png",29,25,29,0.9,"stim/61.jpeg",6,1,3,NA,"HouseObjects",1,2,"left","left",0.519000053,1,1,1,1,NA,NA,NA,NA,NA,NA,NA,NA,NA,NA,NA,NA,NA,NA,NA,NA,NA,NA,NA,NA,NA,NA,NA,NA
"160","stim/objects/Instruments/bassdrum2.png",30,25,30,0.9,"stim/51.jpeg",5,1,3,NA,"Instruments",2,1,"right","right",0.69900012,1,1,1,1,NA,NA,NA,NA,NA,NA,NA,NA,NA,NA,NA,NA,NA,NA,NA,NA,NA,NA,NA,NA,NA,NA,NA,NA
"181","stim/objects/Instruments/cello.png",31,25,31,0.5,"stim/23.jpeg",2,3,1,NA,"Instruments",2,2,"right","left",0.54700017,0,0,1,1,NA,NA,NA,NA,NA,NA,NA,NA,NA,NA,NA,NA,NA,NA,NA,NA,NA,NA,NA,NA,NA,NA,NA,NA
"1","stim/objects/HouseObjects/ashtray.png",32,25,32,0.5,"stim/11.jpeg",1,1,1,NA,"HouseObjects",1,4,"left","left",0.651000023,1,1,1,1,NA,NA,NA,NA,NA,NA,NA,NA,NA,NA,NA,NA,NA,NA,NA,NA,NA,NA,NA,NA,NA,NA,NA,NA
"187","stim/objects/Instruments/cello2.png",33,25,33,0.9,"stim/53.jpeg",5,3,3,NA,"Instruments",2,4,"right","right",0.677000046,1,1,1,1,NA,NA,NA,NA,NA,NA,NA,NA,NA,NA,NA,NA,NA,NA,NA,NA,NA,NA,NA,NA,NA,NA,NA,NA
"67","stim/objects/HouseObjects/broom.png",34,25,34,0.5,"stim/24.jpeg",2,4,1,NA,"HouseObjects",1,4,"left","left",0.523000002,1,1,1,1,NA,NA,NA,NA,NA,NA,NA,NA,NA,NA,NA,NA,NA,NA,NA,NA,NA,NA,NA,NA,NA,NA,NA,NA
"68","stim/objects/HouseObjects/broom.png",35,25,35,0.5,"stim/24.jpeg",2,4,1,NA,"HouseObjects",1,4,"left","left",0.572000027,1,1,1,1,NA,NA,NA,NA,NA,NA,NA,NA,NA,NA,NA,NA,NA,NA,NA,NA,NA,NA,NA,NA,NA,NA,NA,NA
"167","stim/objects/Instruments/bassguitar.png",36,25,36,0.5,"stim/22.jpeg",2,2,1,NA,"Instruments",2,1,"right","left",0.48300004,0,0,1,1,NA,NA,NA,NA,NA,NA,NA,NA,NA,NA,NA,NA,NA,NA,NA,NA,NA,NA,NA,NA,NA,NA,NA,NA
"98","stim/objects/HouseObjects/clothesdryingrack.png",37,25,37,0.3,"stim/33.jpeg",3,3,2,NA,"HouseObjects",1,3,"left","right",0.585999966,0,0,1,1,NA,NA,NA,NA,NA,NA,NA,NA,NA,NA,NA,NA,NA,NA,NA,NA,NA,NA,NA,NA,NA,NA,NA,NA
"217","stim/objects/Instruments/cornet.png",38,25,38,0.7,"stim/32.jpeg",3,2,2,NA,"Instruments",2,1,"right","right",0.758000135,1,1,1,1,NA,NA,NA,NA,NA,NA,NA,NA,NA,NA,NA,NA,NA,NA,NA,NA,NA,NA,NA,NA,NA,NA,NA,NA
"89","stim/objects/HouseObjects/clock2.png",39,25,39,0.9,"stim/62.jpeg",6,2,3,NA,"HouseObjects",1,1,"left","left",0.697999954,1,1,1,1,NA,NA,NA,NA,NA,NA,NA,NA,NA,NA,NA,NA,NA,NA,NA,NA,NA,NA,NA,NA,NA,NA,NA,NA
"218","stim/objects/Instruments/cornet.png",40,25,40,0.7,"stim/32.jpeg",3,2,2,NA,"Instruments",2,4,"right","right",0.720999956,1,1,1,1,NA,NA,NA,NA,NA,NA,NA,NA,NA,NA,NA,NA,NA,NA,NA,NA,NA,NA,NA,NA,NA,NA,NA,NA
"200","stim/objects/Instruments/chime2.png",41,25,41,0.9,"stim/54.jpeg",5,4,3,NA,"Instruments",2,2,"right","right",0.582999945,1,1,1,1,NA,NA,NA,NA,NA,NA,NA,NA,NA,NA,NA,NA,NA,NA,NA,NA,NA,NA,NA,NA,NA,NA,NA,NA
"90","stim/objects/HouseObjects/clock2.png",42,25,42,0.9,"stim/62.jpeg",6,2,3,NA,"HouseObjects",1,2,"left","left",0.588999987,1,1,1,1,NA,NA,NA,NA,NA,NA,NA,NA,NA,NA,NA,NA,NA,NA,NA,NA,NA,NA,NA,NA,NA,NA,NA,NA
"153","stim/objects/Instruments/bassdrum.png",43,25,43,0.5,"stim/21.jpeg",2,1,1,NA,"Instruments",2,1,"right","left",0.734999895,0,0,1,1,NA,NA,NA,NA,NA,NA,NA,NA,NA,NA,NA,NA,NA,NA,NA,NA,NA,NA,NA,NA,NA,NA,NA,NA
"182","stim/objects/Instruments/cello.png",44,25,44,0.5,"stim/23.jpeg",2,3,1,NA,"Instruments",2,4,"right","right",0.482000113,1,1,1,1,NA,NA,NA,NA,NA,NA,NA,NA,NA,NA,NA,NA,NA,NA,NA,NA,NA,NA,NA,NA,NA,NA,NA,NA
"109","stim/objects/HouseObjects/clothespin.png",45,25,45,0.3,"stim/34.jpeg",3,4,2,NA,"HouseObjects",1,4,"left","right",0.881999969,0,0,1,1,NA,NA,NA,NA,NA,NA,NA,NA,NA,NA,NA,NA,NA,NA,NA,NA,NA,NA,NA,NA,NA,NA,NA,NA
"72","stim/objects/HouseObjects/broom2.png",46,25,46,0.1,"stim/54.jpeg",5,4,3,NA,"HouseObjects",1,4,"left","right",0.546000004,0,0,1,1,NA,NA,NA,NA,NA,NA,NA,NA,NA,NA,NA,NA,NA,NA,NA,NA,NA,NA,NA,NA,NA,NA,NA,NA
"150","stim/objects/Instruments/banjo2.png",47,25,47,0.3,"stim/44.jpeg",4,4,2,NA,"Instruments",2,3,"right","left",0.463000059,0,0,1,1,NA,NA,NA,NA,NA,NA,NA,NA,NA,NA,NA,NA,NA,NA,NA,NA,NA,NA,NA,NA,NA,NA,NA,NA
"188","stim/objects/Instruments/cello2.png",48,25,48,0.9,"stim/53.jpeg",5,3,3,NA,"Instruments",2,1,"right","right",0.605000019,1,1,1,1,NA,NA,NA,NA,NA,NA,NA,NA,NA,NA,NA,NA,NA,NA,NA,NA,NA,NA,NA,NA,NA,NA,NA,NA
"2","stim/objects/HouseObjects/ashtray.png",49,25,49,0.5,"stim/11.jpeg",1,1,1,NA,"HouseObjects",1,4,"left","left",0.763999939,1,1,1,1,NA,NA,NA,NA,NA,NA,NA,NA,NA,NA,NA,NA,NA,NA,NA,NA,NA,NA,NA,NA,NA,NA,NA,NA
"31","stim/objects/HouseObjects/barbecuelighter2.png",50,25,50,0.7,"stim/43.jpeg",4,3,2,NA,"HouseObjects",1,1,"left","left",0.678999901,1,1,1,1,NA,NA,NA,NA,NA,NA,NA,NA,NA,NA,NA,NA,NA,NA,NA,NA,NA,NA,NA,NA,NA,NA,NA,NA
"91","stim/objects/HouseObjects/clock2.png",51,25,51,0.9,"stim/62.jpeg",6,2,3,NA,"HouseObjects",1,4,"left","left",0.646999836,1,1,1,1,NA,NA,NA,NA,NA,NA,NA,NA,NA,NA,NA,NA,NA,NA,NA,NA,NA,NA,NA,NA,NA,NA,NA,NA
"183","stim/objects/Instruments/cello.png",52,25,52,0.5,"stim/23.jpeg",2,3,1,NA,"Instruments",2,4,"right","",NA,0,0,1,1,NA,NA,NA,NA,NA,NA,NA,NA,NA,NA,NA,NA,NA,NA,NA,NA,NA,NA,NA,NA,NA,NA,NA,NA
"219","stim/objects/Instruments/cornet.png",53,25,53,0.7,"stim/32.jpeg",3,2,2,NA,"Instruments",2,1,"right","",NA,0,0,1,1,NA,NA,NA,NA,NA,NA,NA,NA,NA,NA,NA,NA,NA,NA,NA,NA,NA,NA,NA,NA,NA,NA,NA,NA
"121","stim/objects/Instruments/accordion.png",54,25,54,0.5,"stim/11.jpeg",1,1,1,NA,"Instruments",2,3,"right","left",0.565999985,0,0,1,1,NA,NA,NA,NA,NA,NA,NA,NA,NA,NA,NA,NA,NA,NA,NA,NA,NA,NA,NA,NA,NA,NA,NA,NA
"32","stim/objects/HouseObjects/barbecuelighter2.png",55,25,55,0.7,"stim/43.jpeg",4,3,2,NA,"HouseObjects",1,4,"left","right",0.546999931,0,0,1,1,NA,NA,NA,NA,NA,NA,NA,NA,NA,NA,NA,NA,NA,NA,NA,NA,NA,NA,NA,NA,NA,NA,NA,NA
"161","stim/objects/Instruments/bassdrum2.png",56,25,56,0.9,"stim/51.jpeg",5,1,3,NA,"Instruments",2,1,"right","right",0.59800005,1,1,1,1,NA,NA,NA,NA,NA,NA,NA,NA,NA,NA,NA,NA,NA,NA,NA,NA,NA,NA,NA,NA,NA,NA,NA,NA
"7","stim/objects/HouseObjects/ashtray2.png",57,25,57,0.7,"stim/41.jpeg",4,1,2,NA,"HouseObjects",1,2,"left","left",0.759000063,1,1,1,1,NA,NA,NA,NA,NA,NA,NA,NA,NA,NA,NA,NA,NA,NA,NA,NA,NA,NA,NA,NA,NA,NA,NA,NA
"113","stim/objects/HouseObjects/clothespin2.png",58,25,58,0.9,"stim/64.jpeg",6,4,3,NA,"HouseObjects",1,4,"left","left",0.61500001,1,1,1,1,NA,NA,NA,NA,NA,NA,NA,NA,NA,NA,NA,NA,NA,NA,NA,NA,NA,NA,NA,NA,NA,NA,NA,NA
"37","stim/objects/HouseObjects/basket.png",59,25,59,0.5,"stim/14.jpeg",1,4,1,NA,"HouseObjects",1,3,"left","left",0.530999899,1,1,1,1,NA,NA,NA,NA,NA,NA,NA,NA,NA,NA,NA,NA,NA,NA,NA,NA,NA,NA,NA,NA,NA,NA,NA,NA
"174","stim/objects/Instruments/bassguitar2.png",60,25,60,0.9,"stim/52.jpeg",5,2,3,NA,"Instruments",2,2,"right","right",0.579999924,1,1,1,1,NA,NA,NA,NA,NA,NA,NA,NA,NA,NA,NA,NA,NA,NA,NA,NA,NA,NA,NA,NA,NA,NA,NA,NA
"101","stim/objects/HouseObjects/clothesdryingrack2.png",61,25,61,0.9,"stim/63.jpeg",6,3,3,NA,"HouseObjects",1,2,"left","left",0.55700016,1,1,1,1,NA,NA,NA,NA,NA,NA,NA,NA,NA,NA,NA,NA,NA,NA,NA,NA,NA,NA,NA,NA,NA,NA,NA,NA
"143","stim/objects/Instruments/balalaika2.png",62,25,62,0.3,"stim/43.jpeg",4,3,2,NA,"Instruments",2,3,"right","left",0.689999819,0,0,1,1,NA,NA,NA,NA,NA,NA,NA,NA,NA,NA,NA,NA,NA,NA,NA,NA,NA,NA,NA,NA,NA,NA,NA,NA
"43","stim/objects/HouseObjects/basket2.png",63,25,63,0.7,"stim/44.jpeg",4,4,2,NA,"HouseObjects",1,4,"left","right",0.899999857,0,0,1,1,NA,NA,NA,NA,NA,NA,NA,NA,NA,NA,NA,NA,NA,NA,NA,NA,NA,NA,NA,NA,NA,NA,NA,NA
"3","stim/objects/HouseObjects/ashtray.png",64,25,64,0.5,"stim/11.jpeg",1,1,1,NA,"HouseObjects",1,2,"left","left",0.644999981,1,1,1,1,NA,NA,NA,NA,NA,NA,NA,NA,NA,NA,NA,NA,NA,NA,NA,NA,NA,NA,NA,NA,NA,NA,NA,NA
"19","stim/objects/HouseObjects/ballofstring2.png",65,25,65,0.7,"stim/42.jpeg",4,2,2,NA,"HouseObjects",1,3,"left","left",0.898000002,1,1,1,1,NA,NA,NA,NA,NA,NA,NA,NA,NA,NA,NA,NA,NA,NA,NA,NA,NA,NA,NA,NA,NA,NA,NA,NA
"209","stim/objects/Instruments/clarinet.png",66,25,66,0.7,"stim/31.jpeg",3,1,2,NA,"Instruments",2,4,"right","right",0.565999985,1,1,1,1,NA,NA,NA,NA,NA,NA,NA,NA,NA,NA,NA,NA,NA,NA,NA,NA,NA,NA,NA,NA,NA,NA,NA,NA
"73","stim/objects/HouseObjects/bucket.png",67,25,67,0.3,"stim/31.jpeg",3,1,2,NA,"HouseObjects",1,2,"left","right",0.522000074,0,0,1,1,NA,NA,NA,NA,NA,NA,NA,NA,NA,NA,NA,NA,NA,NA,NA,NA,NA,NA,NA,NA,NA,NA,NA,NA
"13","stim/objects/HouseObjects/ballofstring.png",68,25,68,0.5,"stim/12.jpeg",1,2,1,NA,"HouseObjects",1,2,"left","left",0.836999893,1,1,1,1,NA,NA,NA,NA,NA,NA,NA,NA,NA,NA,NA,NA,NA,NA,NA,NA,NA,NA,NA,NA,NA,NA,NA,NA
"196","stim/objects/Instruments/chime.png",69,25,69,0.5,"stim/24.jpeg",2,4,1,NA,"Instruments",2,1,"right","left",0.703000069,0,0,1,1,NA,NA,NA,NA,NA,NA,NA,NA,NA,NA,NA,NA,NA,NA,NA,NA,NA,NA,NA,NA,NA,NA,NA,NA
"110","stim/objects/HouseObjects/clothespin.png",70,25,70,0.3,"stim/34.jpeg",3,4,2,NA,"HouseObjects",1,1,"left","right",0.769000053,0,0,1,1,NA,NA,NA,NA,NA,NA,NA,NA,NA,NA,NA,NA,NA,NA,NA,NA,NA,NA,NA,NA,NA,NA,NA,NA
"232","stim/objects/Instruments/cymbal2.png",71,25,71,0.1,"stim/63.jpeg",6,3,3,NA,"Instruments",2,4,"right","left",0.660000086,0,0,1,1,NA,NA,NA,NA,NA,NA,NA,NA,NA,NA,NA,NA,NA,NA,NA,NA,NA,NA,NA,NA,NA,NA,NA,NA
"224","stim/objects/Instruments/cornet2.png",72,25,72,0.1,"stim/62.jpeg",6,2,3,NA,"Instruments",2,1,"right","left",0.538000107,0,0,1,1,NA,NA,NA,NA,NA,NA,NA,NA,NA,NA,NA,NA,NA,NA,NA,NA,NA,NA,NA,NA,NA,NA,NA,NA
"225","stim/objects/Instruments/cymbal.png",73,25,73,0.7,"stim/33.jpeg",3,3,2,NA,"Instruments",2,1,"right","left",0.715999842,0,0,1,1,NA,NA,NA,NA,NA,NA,NA,NA,NA,NA,NA,NA,NA,NA,NA,NA,NA,NA,NA,NA,NA,NA,NA,NA
"4","stim/objects/HouseObjects/ashtray.png",74,25,74,0.5,"stim/11.jpeg",1,1,1,NA,"HouseObjects",1,2,"left","left",0.680000067,1,1,1,1,NA,NA,NA,NA,NA,NA,NA,NA,NA,NA,NA,NA,NA,NA,NA,NA,NA,NA,NA,NA,NA,NA,NA,NA
"127","stim/objects/Instruments/accordion2.png",75,25,75,0.3,"stim/41.jpeg",4,1,2,NA,"Instruments",2,3,"right","right",0.687999964,1,1,1,1,NA,NA,NA,NA,NA,NA,NA,NA,NA,NA,NA,NA,NA,NA,NA,NA,NA,NA,NA,NA,NA,NA,NA,NA
"33","stim/objects/HouseObjects/barbecuelighter2.png",76,25,76,0.7,"stim/43.jpeg",4,3,2,NA,"HouseObjects",1,2,"left","left",0.859999895,1,1,1,1,NA,NA,NA,NA,NA,NA,NA,NA,NA,NA,NA,NA,NA,NA,NA,NA,NA,NA,NA,NA,NA,NA,NA,NA
"184","stim/objects/Instruments/cello.png",77,25,77,0.5,"stim/23.jpeg",2,3,1,NA,"Instruments",2,3,"right","left",0.886999846,0,0,1,1,NA,NA,NA,NA,NA,NA,NA,NA,NA,NA,NA,NA,NA,NA,NA,NA,NA,NA,NA,NA,NA,NA,NA,NA
"114","stim/objects/HouseObjects/clothespin2.png",78,25,78,0.9,"stim/64.jpeg",6,4,3,NA,"HouseObjects",1,1,"left","left",0.575000048,1,1,1,1,NA,NA,NA,NA,NA,NA,NA,NA,NA,NA,NA,NA,NA,NA,NA,NA,NA,NA,NA,NA,NA,NA,NA,NA
"189","stim/objects/Instruments/cello2.png",79,25,79,0.9,"stim/53.jpeg",5,3,3,NA,"Instruments",2,2,"right","right",0.625999928,1,1,1,1,NA,NA,NA,NA,NA,NA,NA,NA,NA,NA,NA,NA,NA,NA,NA,NA,NA,NA,NA,NA,NA,NA,NA,NA
"115","stim/objects/HouseObjects/clothespin2.png",80,25,80,0.9,"stim/64.jpeg",6,4,3,NA,"HouseObjects",1,3,"left","left",0.570999861,1,1,1,1,NA,NA,NA,NA,NA,NA,NA,NA,NA,NA,NA,NA,NA,NA,NA,NA,NA,NA,NA,NA,NA,NA,NA,NA
"79","stim/objects/HouseObjects/bucket2.png",81,25,81,0.9,"stim/61.jpeg",6,1,3,NA,"HouseObjects",1,1,"left","left",0.540999889,1,1,1,1,NA,NA,NA,NA,NA,NA,NA,NA,NA,NA,NA,NA,NA,NA,NA,NA,NA,NA,NA,NA,NA,NA,NA,NA
"201","stim/objects/Instruments/chime2.png",82,25,82,0.9,"stim/54.jpeg",5,4,3,NA,"Instruments",2,2,"right","right",0.630000114,1,1,1,1,NA,NA,NA,NA,NA,NA,NA,NA,NA,NA,NA,NA,NA,NA,NA,NA,NA,NA,NA,NA,NA,NA,NA,NA
"210","stim/objects/Instruments/clarinet.png",83,25,83,0.7,"stim/31.jpeg",3,1,2,NA,"Instruments",2,1,"right","left",0.81099987,0,0,1,1,NA,NA,NA,NA,NA,NA,NA,NA,NA,NA,NA,NA,NA,NA,NA,NA,NA,NA,NA,NA,NA,NA,NA,NA
"49","stim/objects/HouseObjects/bleachbottle.png",84,25,84,0.5,"stim/21.jpeg",2,1,1,NA,"HouseObjects",1,1,"left","left",0.72300005,1,1,1,1,NA,NA,NA,NA,NA,NA,NA,NA,NA,NA,NA,NA,NA,NA,NA,NA,NA,NA,NA,NA,NA,NA,NA,NA
"44","stim/objects/HouseObjects/basket2.png",85,25,85,0.7,"stim/44.jpeg",4,4,2,NA,"HouseObjects",1,3,"left","",NA,0,0,1,1,NA,NA,NA,NA,NA,NA,NA,NA,NA,NA,NA,NA,NA,NA,NA,NA,NA,NA,NA,NA,NA,NA,NA,NA
"226","stim/objects/Instruments/cymbal.png",86,25,86,0.7,"stim/33.jpeg",3,3,2,NA,"Instruments",2,3,"right","right",0.638999939,1,1,1,1,NA,NA,NA,NA,NA,NA,NA,NA,NA,NA,NA,NA,NA,NA,NA,NA,NA,NA,NA,NA,NA,NA,NA,NA
"34","stim/objects/HouseObjects/barbecuelighter2.png",87,25,87,0.7,"stim/43.jpeg",4,3,2,NA,"HouseObjects",1,2,"left","right",0.748999834,0,0,1,1,NA,NA,NA,NA,NA,NA,NA,NA,NA,NA,NA,NA,NA,NA,NA,NA,NA,NA,NA,NA,NA,NA,NA,NA
"116","stim/objects/HouseObjects/clothespin2.png",88,25,88,0.9,"stim/64.jpeg",6,4,3,NA,"HouseObjects",1,1,"left","left",0.790999889,1,1,1,1,NA,NA,NA,NA,NA,NA,NA,NA,NA,NA,NA,NA,NA,NA,NA,NA,NA,NA,NA,NA,NA,NA,NA,NA
"233","stim/objects/Instruments/doublebass.png",89,25,89,0.7,"stim/34.jpeg",3,4,2,NA,"Instruments",2,4,"right","right",0.627999783,1,1,1,1,NA,NA,NA,NA,NA,NA,NA,NA,NA,NA,NA,NA,NA,NA,NA,NA,NA,NA,NA,NA,NA,NA,NA,NA
"54","stim/objects/HouseObjects/bleachbottle2.png",90,25,90,0.1,"stim/51.jpeg",5,1,3,NA,"HouseObjects",1,1,"left","right",0.518000126,0,0,1,1,NA,NA,NA,NA,NA,NA,NA,NA,NA,NA,NA,NA,NA,NA,NA,NA,NA,NA,NA,NA,NA,NA,NA,NA
"175","stim/objects/Instruments/bassguitar2.png",91,25,91,0.9,"stim/52.jpeg",5,2,3,NA,"Instruments",2,1,"right","right",0.572000027,1,1,1,1,NA,NA,NA,NA,NA,NA,NA,NA,NA,NA,NA,NA,NA,NA,NA,NA,NA,NA,NA,NA,NA,NA,NA,NA
"162","stim/objects/Instruments/bassdrum2.png",92,25,92,0.9,"stim/51.jpeg",5,1,3,NA,"Instruments",2,1,"right","right",0.571000099,1,1,1,1,NA,NA,NA,NA,NA,NA,NA,NA,NA,NA,NA,NA,NA,NA,NA,NA,NA,NA,NA,NA,NA,NA,NA,NA
"38","stim/objects/HouseObjects/basket.png",93,25,93,0.5,"stim/14.jpeg",1,4,1,NA,"HouseObjects",1,3,"left","left",0.684999943,1,1,1,1,NA,NA,NA,NA,NA,NA,NA,NA,NA,NA,NA,NA,NA,NA,NA,NA,NA,NA,NA,NA,NA,NA,NA,NA
"69","stim/objects/HouseObjects/broom.png",94,25,94,0.5,"stim/24.jpeg",2,4,1,NA,"HouseObjects",1,4,"left","left",0.676999807,1,1,1,1,NA,NA,NA,NA,NA,NA,NA,NA,NA,NA,NA,NA,NA,NA,NA,NA,NA,NA,NA,NA,NA,NA,NA,NA
"154","stim/objects/Instruments/bassdrum.png",95,25,95,0.5,"stim/21.jpeg",2,1,1,NA,"Instruments",2,1,"right","left",0.598999977,0,0,1,1,NA,NA,NA,NA,NA,NA,NA,NA,NA,NA,NA,NA,NA,NA,NA,NA,NA,NA,NA,NA,NA,NA,NA,NA
"50","stim/objects/HouseObjects/bleachbottle.png",96,25,96,0.5,"stim/21.jpeg",2,1,1,NA,"HouseObjects",1,3,"left","left",0.607000113,1,1,1,1,NA,NA,NA,NA,NA,NA,NA,NA,NA,NA,NA,NA,NA,NA,NA,NA,NA,NA,NA,NA,NA,NA,NA,NA
"102","stim/objects/HouseObjects/clothesdryingrack2.png",97,25,97,0.9,"stim/63.jpeg",6,3,3,NA,"HouseObjects",1,4,"left","left",0.746000051,1,1,1,1,NA,NA,NA,NA,NA,NA,NA,NA,NA,NA,NA,NA,NA,NA,NA,NA,NA,NA,NA,NA,NA,NA,NA,NA
"103","stim/objects/HouseObjects/clothesdryingrack2.png",98,25,98,0.9,"stim/63.jpeg",6,3,3,NA,"HouseObjects",1,4,"left","left",0.525000095,1,1,1,1,NA,NA,NA,NA,NA,NA,NA,NA,NA,NA,NA,NA,NA,NA,NA,NA,NA,NA,NA,NA,NA,NA,NA,NA
"211","stim/objects/Instruments/clarinet.png",99,25,99,0.7,"stim/31.jpeg",3,1,2,NA,"Instruments",2,4,"right","right",0.631000042,1,1,1,1,NA,NA,NA,NA,NA,NA,NA,NA,NA,NA,NA,NA,NA,NA,NA,NA,NA,NA,NA,NA,NA,NA,NA,NA
"144","stim/objects/Instruments/balalaika2.png",100,25,100,0.3,"stim/43.jpeg",4,3,2,NA,"Instruments",2,2,"right","left",0.727999926,0,0,1,1,NA,NA,NA,NA,NA,NA,NA,NA,NA,NA,NA,NA,NA,NA,NA,NA,NA,NA,NA,NA,NA,NA,NA,NA
"202","stim/objects/Instruments/chime2.png",101,25,101,0.9,"stim/54.jpeg",5,4,3,NA,"Instruments",2,2,"right","right",0.746000051,1,1,1,1,NA,NA,NA,NA,NA,NA,NA,NA,NA,NA,NA,NA,NA,NA,NA,NA,NA,NA,NA,NA,NA,NA,NA,NA
"14","stim/objects/HouseObjects/ballofstring.png",102,25,102,0.5,"stim/12.jpeg",1,2,1,NA,"HouseObjects",1,1,"left","left",0.653000116,1,1,1,1,NA,NA,NA,NA,NA,NA,NA,NA,NA,NA,NA,NA,NA,NA,NA,NA,NA,NA,NA,NA,NA,NA,NA,NA
"85","stim/objects/HouseObjects/clock.png",103,25,103,0.3,"stim/32.jpeg",3,2,2,NA,"HouseObjects",1,4,"left","right",0.573000193,0,0,1,1,NA,NA,NA,NA,NA,NA,NA,NA,NA,NA,NA,NA,NA,NA,NA,NA,NA,NA,NA,NA,NA,NA,NA,NA
"66","stim/objects/HouseObjects/bottle2.png",104,25,104,0.1,"stim/53.jpeg",5,3,3,NA,"HouseObjects",1,2,"left","right",0.617000103,0,0,1,1,NA,NA,NA,NA,NA,NA,NA,NA,NA,NA,NA,NA,NA,NA,NA,NA,NA,NA,NA,NA,NA,NA,NA,NA
"197","stim/objects/Instruments/chime.png",105,25,105,0.5,"stim/24.jpeg",2,4,1,NA,"Instruments",2,3,"right","left",0.802999973,0,0,1,1,NA,NA,NA,NA,NA,NA,NA,NA,NA,NA,NA,NA,NA,NA,NA,NA,NA,NA,NA,NA,NA,NA,NA,NA
"128","stim/objects/Instruments/accordion2.png",106,25,106,0.3,"stim/41.jpeg",4,1,2,NA,"Instruments",2,2,"right","left",0.709000111,0,0,1,1,NA,NA,NA,NA,NA,NA,NA,NA,NA,NA,NA,NA,NA,NA,NA,NA,NA,NA,NA,NA,NA,NA,NA,NA
"15","stim/objects/HouseObjects/ballofstring.png",107,25,107,0.5,"stim/12.jpeg",1,2,1,NA,"HouseObjects",1,4,"left","left",0.603999853,1,1,1,1,NA,NA,NA,NA,NA,NA,NA,NA,NA,NA,NA,NA,NA,NA,NA,NA,NA,NA,NA,NA,NA,NA,NA,NA
"132","stim/objects/Instruments/acousticguitar.png",108,25,108,0.5,"stim/12.jpeg",1,2,1,NA,"Instruments",2,2,"right","left",0.57400012,0,0,1,1,NA,NA,NA,NA,NA,NA,NA,NA,NA,NA,NA,NA,NA,NA,NA,NA,NA,NA,NA,NA,NA,NA,NA,NA
"176","stim/objects/Instruments/bassguitar2.png",109,25,109,0.9,"stim/52.jpeg",5,2,3,NA,"Instruments",2,3,"right","right",0.846999884,1,1,1,1,NA,NA,NA,NA,NA,NA,NA,NA,NA,NA,NA,NA,NA,NA,NA,NA,NA,NA,NA,NA,NA,NA,NA,NA
"163","stim/objects/Instruments/bassdrum2.png",110,25,110,0.9,"stim/51.jpeg",5,1,3,NA,"Instruments",2,3,"right","right",0.569000006,1,1,1,1,NA,NA,NA,NA,NA,NA,NA,NA,NA,NA,NA,NA,NA,NA,NA,NA,NA,NA,NA,NA,NA,NA,NA,NA
"20","stim/objects/HouseObjects/ballofstring2.png",111,25,111,0.7,"stim/42.jpeg",4,2,2,NA,"HouseObjects",1,2,"left","left",0.844000101,1,1,1,1,NA,NA,NA,NA,NA,NA,NA,NA,NA,NA,NA,NA,NA,NA,NA,NA,NA,NA,NA,NA,NA,NA,NA,NA
"104","stim/objects/HouseObjects/clothesdryingrack2.png",112,25,112,0.9,"stim/63.jpeg",6,3,3,NA,"HouseObjects",1,1,"left","left",0.684000015,1,1,1,1,NA,NA,NA,NA,NA,NA,NA,NA,NA,NA,NA,NA,NA,NA,NA,NA,NA,NA,NA,NA,NA,NA,NA,NA
"8","stim/objects/HouseObjects/ashtray2.png",113,25,113,0.7,"stim/41.jpeg",4,1,2,NA,"HouseObjects",1,2,"left","",NA,0,0,1,1,NA,NA,NA,NA,NA,NA,NA,NA,NA,NA,NA,NA,NA,NA,NA,NA,NA,NA,NA,NA,NA,NA,NA,NA
"168","stim/objects/Instruments/bassguitar.png",114,25,114,0.5,"stim/22.jpeg",2,2,1,NA,"Instruments",2,1,"right","left",0.631000042,0,0,1,1,NA,NA,NA,NA,NA,NA,NA,NA,NA,NA,NA,NA,NA,NA,NA,NA,NA,NA,NA,NA,NA,NA,NA,NA
"117","stim/objects/HouseObjects/clothespin2.png",115,25,115,0.9,"stim/64.jpeg",6,4,3,NA,"HouseObjects",1,3,"left","left",0.559999943,1,1,1,1,NA,NA,NA,NA,NA,NA,NA,NA,NA,NA,NA,NA,NA,NA,NA,NA,NA,NA,NA,NA,NA,NA,NA,NA
"74","stim/objects/HouseObjects/bucket.png",116,25,116,0.3,"stim/31.jpeg",3,1,2,NA,"HouseObjects",1,1,"left","right",0.609999895,0,0,1,1,NA,NA,NA,NA,NA,NA,NA,NA,NA,NA,NA,NA,NA,NA,NA,NA,NA,NA,NA,NA,NA,NA,NA,NA
"45","stim/objects/HouseObjects/basket2.png",117,25,117,0.7,"stim/44.jpeg",4,4,2,NA,"HouseObjects",1,1,"left","left",0.748999834,1,1,1,1,NA,NA,NA,NA,NA,NA,NA,NA,NA,NA,NA,NA,NA,NA,NA,NA,NA,NA,NA,NA,NA,NA,NA,NA
"51","stim/objects/HouseObjects/bleachbottle.png",118,25,118,0.5,"stim/21.jpeg",2,1,1,NA,"HouseObjects",1,4,"left","left",0.764999866,1,1,1,1,NA,NA,NA,NA,NA,NA,NA,NA,NA,NA,NA,NA,NA,NA,NA,NA,NA,NA,NA,NA,NA,NA,NA,NA
"137","stim/objects/Instruments/balalaika.png",119,25,119,0.5,"stim/13.jpeg",1,3,1,NA,"Instruments",2,3,"right","left",0.508000135,0,0,1,1,NA,NA,NA,NA,NA,NA,NA,NA,NA,NA,NA,NA,NA,NA,NA,NA,NA,NA,NA,NA,NA,NA,NA,NA
"147","stim/objects/Instruments/banjo.png",120,25,120,0.5,"stim/14.jpeg",1,4,1,NA,"Instruments",2,1,"right","left",0.650000095,0,0,1,1,NA,NA,NA,NA,NA,NA,NA,NA,NA,NA,NA,NA,NA,NA,NA,NA,NA,NA,NA,NA,NA,NA,NA,NA
"92","stim/objects/HouseObjects/clock2.png",121,25,121,0.9,"stim/62.jpeg",6,2,3,NA,"HouseObjects",1,4,"left","left",0.68599987,1,1,1,1,NA,NA,NA,NA,NA,NA,NA,NA,NA,NA,NA,NA,NA,NA,NA,NA,NA,NA,NA,NA,NA,NA,NA,NA
"155","stim/objects/Instruments/bassdrum.png",122,25,122,0.5,"stim/21.jpeg",2,1,1,NA,"Instruments",2,2,"right","right",0.749000072,1,1,1,1,NA,NA,NA,NA,NA,NA,NA,NA,NA,NA,NA,NA,NA,NA,NA,NA,NA,NA,NA,NA,NA,NA,NA,NA
"105","stim/objects/HouseObjects/clothesdryingrack2.png",123,25,123,0.9,"stim/63.jpeg",6,3,3,NA,"HouseObjects",1,3,"left","left",0.503999949,1,1,1,1,NA,NA,NA,NA,NA,NA,NA,NA,NA,NA,NA,NA,NA,NA,NA,NA,NA,NA,NA,NA,NA,NA,NA,NA
"93","stim/objects/HouseObjects/clock2.png",124,25,124,0.9,"stim/62.jpeg",6,2,3,NA,"HouseObjects",1,4,"left","left",0.516000032,1,1,1,1,NA,NA,NA,NA,NA,NA,NA,NA,NA,NA,NA,NA,NA,NA,NA,NA,NA,NA,NA,NA,NA,NA,NA,NA
"164","stim/objects/Instruments/bassdrum2.png",125,25,125,0.9,"stim/51.jpeg",5,1,3,NA,"Instruments",2,4,"right","right",0.66899991,1,1,1,1,NA,NA,NA,NA,NA,NA,NA,NA,NA,NA,NA,NA,NA,NA,NA,NA,NA,NA,NA,NA,NA,NA,NA,NA
"190","stim/objects/Instruments/cello2.png",126,25,126,0.9,"stim/53.jpeg",5,3,3,NA,"Instruments",2,3,"right","right",0.652999878,1,1,1,1,NA,NA,NA,NA,NA,NA,NA,NA,NA,NA,NA,NA,NA,NA,NA,NA,NA,NA,NA,NA,NA,NA,NA,NA
"106","stim/objects/HouseObjects/clothesdryingrack2.png",127,25,127,0.9,"stim/63.jpeg",6,3,3,NA,"HouseObjects",1,2,"left","left",0.611000061,1,1,1,1,NA,NA,NA,NA,NA,NA,NA,NA,NA,NA,NA,NA,NA,NA,NA,NA,NA,NA,NA,NA,NA,NA,NA,NA
"203","stim/objects/Instruments/chime2.png",128,25,128,0.9,"stim/54.jpeg",5,4,3,NA,"Instruments",2,3,"right","right",0.575999975,1,1,1,1,NA,NA,NA,NA,NA,NA,NA,NA,NA,NA,NA,NA,NA,NA,NA,NA,NA,NA,NA,NA,NA,NA,NA,NA
"46","stim/objects/HouseObjects/basket2.png",129,25,129,0.7,"stim/44.jpeg",4,4,2,NA,"HouseObjects",1,3,"left","left",0.769999981,1,1,1,1,NA,NA,NA,NA,NA,NA,NA,NA,NA,NA,NA,NA,NA,NA,NA,NA,NA,NA,NA,NA,NA,NA,NA,NA
"5","stim/objects/HouseObjects/ashtray.png",130,25,130,0.5,"stim/11.jpeg",1,1,1,NA,"HouseObjects",1,2,"left","right",0.771000147,0,0,1,1,NA,NA,NA,NA,NA,NA,NA,NA,NA,NA,NA,NA,NA,NA,NA,NA,NA,NA,NA,NA,NA,NA,NA,NA
"107","stim/objects/HouseObjects/clothesdryingrack2.png",131,25,131,0.9,"stim/63.jpeg",6,3,3,NA,"HouseObjects",1,4,"left","left",0.605999947,1,1,1,1,NA,NA,NA,NA,NA,NA,NA,NA,NA,NA,NA,NA,NA,NA,NA,NA,NA,NA,NA,NA,NA,NA,NA,NA
"63","stim/objects/HouseObjects/bottle.png",132,25,132,0.5,"stim/23.jpeg",2,3,1,NA,"HouseObjects",1,3,"left","left",0.766000032,1,1,1,1,NA,NA,NA,NA,NA,NA,NA,NA,NA,NA,NA,NA,NA,NA,NA,NA,NA,NA,NA,NA,NA,NA,NA,NA
"80","stim/objects/HouseObjects/bucket2.png",133,25,133,0.9,"stim/61.jpeg",6,1,3,NA,"HouseObjects",1,3,"left","left",0.560000181,1,1,1,1,NA,NA,NA,NA,NA,NA,NA,NA,NA,NA,NA,NA,NA,NA,NA,NA,NA,NA,NA,NA,NA,NA,NA,NA
"55","stim/objects/HouseObjects/blender.png",134,25,134,0.5,"stim/22.jpeg",2,2,1,NA,"HouseObjects",1,2,"left","right",0.714999914,0,0,1,1,NA,NA,NA,NA,NA,NA,NA,NA,NA,NA,NA,NA,NA,NA,NA,NA,NA,NA,NA,NA,NA,NA,NA,NA
"81","stim/objects/HouseObjects/bucket2.png",135,25,135,0.9,"stim/61.jpeg",6,1,3,NA,"HouseObjects",1,2,"left","left",0.576000214,1,1,1,1,NA,NA,NA,NA,NA,NA,NA,NA,NA,NA,NA,NA,NA,NA,NA,NA,NA,NA,NA,NA,NA,NA,NA,NA
"177","stim/objects/Instruments/bassguitar2.png",136,25,136,0.9,"stim/52.jpeg",5,2,3,NA,"Instruments",2,1,"right","right",0.613000154,1,1,1,1,NA,NA,NA,NA,NA,NA,NA,NA,NA,NA,NA,NA,NA,NA,NA,NA,NA,NA,NA,NA,NA,NA,NA,NA
"94","stim/objects/HouseObjects/clock2.png",137,25,137,0.9,"stim/62.jpeg",6,2,3,NA,"HouseObjects",1,3,"left","left",0.453000069,1,1,1,1,NA,NA,NA,NA,NA,NA,NA,NA,NA,NA,NA,NA,NA,NA,NA,NA,NA,NA,NA,NA,NA,NA,NA,NA
"234","stim/objects/Instruments/doublebass.png",138,25,138,0.7,"stim/34.jpeg",3,4,2,NA,"Instruments",2,4,"right","right",0.587999821,1,1,1,1,NA,NA,NA,NA,NA,NA,NA,NA,NA,NA,NA,NA,NA,NA,NA,NA,NA,NA,NA,NA,NA,NA,NA,NA
"204","stim/objects/Instruments/chime2.png",139,25,139,0.9,"stim/54.jpeg",5,4,3,NA,"Instruments",2,4,"right","right",0.717000008,1,1,1,1,NA,NA,NA,NA,NA,NA,NA,NA,NA,NA,NA,NA,NA,NA,NA,NA,NA,NA,NA,NA,NA,NA,NA,NA
"148","stim/objects/Instruments/banjo.png",140,25,140,0.5,"stim/14.jpeg",1,4,1,NA,"Instruments",2,3,"right","left",0.632000208,0,0,1,1,NA,NA,NA,NA,NA,NA,NA,NA,NA,NA,NA,NA,NA,NA,NA,NA,NA,NA,NA,NA,NA,NA,NA,NA
"135","stim/objects/Instruments/acousticguitar2.png",141,25,141,0.3,"stim/42.jpeg",4,2,2,NA,"Instruments",2,2,"right","left",0.86500001,0,0,1,1,NA,NA,NA,NA,NA,NA,NA,NA,NA,NA,NA,NA,NA,NA,NA,NA,NA,NA,NA,NA,NA,NA,NA,NA
"64","stim/objects/HouseObjects/bottle.png",142,25,142,0.5,"stim/23.jpeg",2,3,1,NA,"HouseObjects",1,1,"left","left",0.683999777,1,1,1,1,NA,NA,NA,NA,NA,NA,NA,NA,NA,NA,NA,NA,NA,NA,NA,NA,NA,NA,NA,NA,NA,NA,NA,NA
"16","stim/objects/HouseObjects/ballofstring.png",143,25,143,0.5,"stim/12.jpeg",1,2,1,NA,"HouseObjects",1,2,"left","left",0.617000103,1,1,1,1,NA,NA,NA,NA,NA,NA,NA,NA,NA,NA,NA,NA,NA,NA,NA,NA,NA,NA,NA,NA,NA,NA,NA,NA
"220","stim/objects/Instruments/cornet.png",144,25,144,0.7,"stim/32.jpeg",3,2,2,NA,"Instruments",2,2,"right","right",0.760999918,1,1,1,1,NA,NA,NA,NA,NA,NA,NA,NA,NA,NA,NA,NA,NA,NA,NA,NA,NA,NA,NA,NA,NA,NA,NA,NA
"227","stim/objects/Instruments/cymbal.png",145,25,145,0.7,"stim/33.jpeg",3,3,2,NA,"Instruments",2,3,"right","left",0.546000004,0,0,1,1,NA,NA,NA,NA,NA,NA,NA,NA,NA,NA,NA,NA,NA,NA,NA,NA,NA,NA,NA,NA,NA,NA,NA,NA
"82","stim/objects/HouseObjects/bucket2.png",146,25,146,0.9,"stim/61.jpeg",6,1,3,NA,"HouseObjects",1,2,"left","left",0.700999975,1,1,1,1,NA,NA,NA,NA,NA,NA,NA,NA,NA,NA,NA,NA,NA,NA,NA,NA,NA,NA,NA,NA,NA,NA,NA,NA
"191","stim/objects/Instruments/cello2.png",147,25,147,0.9,"stim/53.jpeg",5,3,3,NA,"Instruments",2,2,"right","right",0.56400013,1,1,1,1,NA,NA,NA,NA,NA,NA,NA,NA,NA,NA,NA,NA,NA,NA,NA,NA,NA,NA,NA,NA,NA,NA,NA,NA
"235","stim/objects/Instruments/doublebass.png",148,25,148,0.7,"stim/34.jpeg",3,4,2,NA,"Instruments",2,3,"right","right",0.612999916,1,1,1,1,NA,NA,NA,NA,NA,NA,NA,NA,NA,NA,NA,NA,NA,NA,NA,NA,NA,NA,NA,NA,NA,NA,NA,NA
"26","stim/objects/HouseObjects/barbecuelighter.png",149,25,149,0.5,"stim/13.jpeg",1,3,1,NA,"HouseObjects",1,3,"left","left",0.606000185,1,1,1,1,NA,NA,NA,NA,NA,NA,NA,NA,NA,NA,NA,NA,NA,NA,NA,NA,NA,NA,NA,NA,NA,NA,NA,NA
"198","stim/objects/Instruments/chime.png",150,25,150,0.5,"stim/24.jpeg",2,4,1,NA,"Instruments",2,1,"right","left",0.842999935,0,0,1,1,NA,NA,NA,NA,NA,NA,NA,NA,NA,NA,NA,NA,NA,NA,NA,NA,NA,NA,NA,NA,NA,NA,NA,NA
"221","stim/objects/Instruments/cornet.png",151,25,151,0.7,"stim/32.jpeg",3,2,2,NA,"Instruments",2,2,"right","left",0.526000023,0,0,1,1,NA,NA,NA,NA,NA,NA,NA,NA,NA,NA,NA,NA,NA,NA,NA,NA,NA,NA,NA,NA,NA,NA,NA,NA
"35","stim/objects/HouseObjects/barbecuelighter2.png",152,25,152,0.7,"stim/43.jpeg",4,3,2,NA,"HouseObjects",1,4,"left","left",0.599000216,1,1,1,1,NA,NA,NA,NA,NA,NA,NA,NA,NA,NA,NA,NA,NA,NA,NA,NA,NA,NA,NA,NA,NA,NA,NA,NA
"192","stim/objects/Instruments/cello2.png",153,25,153,0.9,"stim/53.jpeg",5,3,3,NA,"Instruments",2,2,"right","right",0.519999981,1,1,1,1,NA,NA,NA,NA,NA,NA,NA,NA,NA,NA,NA,NA,NA,NA,NA,NA,NA,NA,NA,NA,NA,NA,NA,NA
"178","stim/objects/Instruments/bassguitar2.png",154,25,154,0.9,"stim/52.jpeg",5,2,3,NA,"Instruments",2,4,"right","left",0.579999924,0,0,1,1,NA,NA,NA,NA,NA,NA,NA,NA,NA,NA,NA,NA,NA,NA,NA,NA,NA,NA,NA,NA,NA,NA,NA,NA
"95","stim/objects/HouseObjects/clock2.png",155,25,155,0.9,"stim/62.jpeg",6,2,3,NA,"HouseObjects",1,3,"left","left",0.524999857,1,1,1,1,NA,NA,NA,NA,NA,NA,NA,NA,NA,NA,NA,NA,NA,NA,NA,NA,NA,NA,NA,NA,NA,NA,NA,NA
"39","stim/objects/HouseObjects/basket.png",156,25,156,0.5,"stim/14.jpeg",1,4,1,NA,"HouseObjects",1,2,"left","right",0.758000135,0,0,1,1,NA,NA,NA,NA,NA,NA,NA,NA,NA,NA,NA,NA,NA,NA,NA,NA,NA,NA,NA,NA,NA,NA,NA,NA
"169","stim/objects/Instruments/bassguitar.png",157,25,157,0.5,"stim/22.jpeg",2,2,1,NA,"Instruments",2,1,"right","left",0.608999968,0,0,1,1,NA,NA,NA,NA,NA,NA,NA,NA,NA,NA,NA,NA,NA,NA,NA,NA,NA,NA,NA,NA,NA,NA,NA,NA
"193","stim/objects/Instruments/cello2.png",158,25,158,0.9,"stim/53.jpeg",5,3,3,NA,"Instruments",2,1,"right","right",0.587000132,1,1,1,1,NA,NA,NA,NA,NA,NA,NA,NA,NA,NA,NA,NA,NA,NA,NA,NA,NA,NA,NA,NA,NA,NA,NA,NA
"86","stim/objects/HouseObjects/clock.png",159,25,159,0.3,"stim/32.jpeg",3,2,2,NA,"HouseObjects",1,2,"left","right",0.74000001,0,0,1,1,NA,NA,NA,NA,NA,NA,NA,NA,NA,NA,NA,NA,NA,NA,NA,NA,NA,NA,NA,NA,NA,NA,NA,NA
"170","stim/objects/Instruments/bassguitar.png",160,25,160,0.5,"stim/22.jpeg",2,2,1,NA,"Instruments",2,2,"right","left",0.625999928,0,0,1,1,NA,NA,NA,NA,NA,NA,NA,NA,NA,NA,NA,NA,NA,NA,NA,NA,NA,NA,NA,NA,NA,NA,NA,NA
"65","stim/objects/HouseObjects/bottle.png",161,25,161,0.5,"stim/23.jpeg",2,3,1,NA,"HouseObjects",1,1,"left","right",0.880999804,0,0,1,1,NA,NA,NA,NA,NA,NA,NA,NA,NA,NA,NA,NA,NA,NA,NA,NA,NA,NA,NA,NA,NA,NA,NA,NA
"165","stim/objects/Instruments/bassdrum2.png",162,25,162,0.9,"stim/51.jpeg",5,1,3,NA,"Instruments",2,2,"right","right",0.621999979,1,1,1,1,NA,NA,NA,NA,NA,NA,NA,NA,NA,NA,NA,NA,NA,NA,NA,NA,NA,NA,NA,NA,NA,NA,NA,NA
"118","stim/objects/HouseObjects/clothespin2.png",163,25,163,0.9,"stim/64.jpeg",6,4,3,NA,"HouseObjects",1,2,"left","left",0.508000135,1,1,1,1,NA,NA,NA,NA,NA,NA,NA,NA,NA,NA,NA,NA,NA,NA,NA,NA,NA,NA,NA,NA,NA,NA,NA,NA
"179","stim/objects/Instruments/bassguitar2.png",164,25,164,0.9,"stim/52.jpeg",5,2,3,NA,"Instruments",2,1,"right","right",0.61500001,1,1,1,1,NA,NA,NA,NA,NA,NA,NA,NA,NA,NA,NA,NA,NA,NA,NA,NA,NA,NA,NA,NA,NA,NA,NA,NA
"138","stim/objects/Instruments/balalaika.png",165,25,165,0.5,"stim/13.jpeg",1,3,1,NA,"Instruments",2,2,"right","left",0.792000055,0,0,1,1,NA,NA,NA,NA,NA,NA,NA,NA,NA,NA,NA,NA,NA,NA,NA,NA,NA,NA,NA,NA,NA,NA,NA,NA
"139","stim/objects/Instruments/balalaika.png",166,25,166,0.5,"stim/13.jpeg",1,3,1,NA,"Instruments",2,4,"right","left",0.723999977,0,0,1,1,NA,NA,NA,NA,NA,NA,NA,NA,NA,NA,NA,NA,NA,NA,NA,NA,NA,NA,NA,NA,NA,NA,NA,NA
"75","stim/objects/HouseObjects/bucket.png",167,25,167,0.3,"stim/31.jpeg",3,1,2,NA,"HouseObjects",1,3,"left","right",0.595999956,0,0,1,1,NA,NA,NA,NA,NA,NA,NA,NA,NA,NA,NA,NA,NA,NA,NA,NA,NA,NA,NA,NA,NA,NA,NA,NA
"70","stim/objects/HouseObjects/broom.png",168,25,168,0.5,"stim/24.jpeg",2,4,1,NA,"HouseObjects",1,2,"left","",NA,0,0,1,1,NA,NA,NA,NA,NA,NA,NA,NA,NA,NA,NA,NA,NA,NA,NA,NA,NA,NA,NA,NA,NA,NA,NA,NA
"228","stim/objects/Instruments/cymbal.png",169,25,169,0.7,"stim/33.jpeg",3,3,2,NA,"Instruments",2,1,"right","left",0.510999918,0,0,1,1,NA,NA,NA,NA,NA,NA,NA,NA,NA,NA,NA,NA,NA,NA,NA,NA,NA,NA,NA,NA,NA,NA,NA,NA
"17","stim/objects/HouseObjects/ballofstring.png",170,25,170,0.5,"stim/12.jpeg",1,2,1,NA,"HouseObjects",1,3,"left","left",0.834000111,1,1,1,1,NA,NA,NA,NA,NA,NA,NA,NA,NA,NA,NA,NA,NA,NA,NA,NA,NA,NA,NA,NA,NA,NA,NA,NA
"205","stim/objects/Instruments/chime2.png",171,25,171,0.9,"stim/54.jpeg",5,4,3,NA,"Instruments",2,4,"right","right",0.63499999,1,1,1,1,NA,NA,NA,NA,NA,NA,NA,NA,NA,NA,NA,NA,NA,NA,NA,NA,NA,NA,NA,NA,NA,NA,NA,NA
"236","stim/objects/Instruments/doublebass.png",172,25,172,0.7,"stim/34.jpeg",3,4,2,NA,"Instruments",2,1,"right","right",0.576999903,1,1,1,1,NA,NA,NA,NA,NA,NA,NA,NA,NA,NA,NA,NA,NA,NA,NA,NA,NA,NA,NA,NA,NA,NA,NA,NA
"122","stim/objects/Instruments/accordion.png",173,25,173,0.5,"stim/11.jpeg",1,1,1,NA,"Instruments",2,3,"right","left",0.590000153,0,0,1,1,NA,NA,NA,NA,NA,NA,NA,NA,NA,NA,NA,NA,NA,NA,NA,NA,NA,NA,NA,NA,NA,NA,NA,NA
"133","stim/objects/Instruments/acousticguitar.png",174,25,174,0.5,"stim/12.jpeg",1,2,1,NA,"Instruments",2,4,"right","right",0.759000063,1,1,1,1,NA,NA,NA,NA,NA,NA,NA,NA,NA,NA,NA,NA,NA,NA,NA,NA,NA,NA,NA,NA,NA,NA,NA,NA
"180","stim/objects/Instruments/bassguitar2.png",175,25,175,0.9,"stim/52.jpeg",5,2,3,NA,"Instruments",2,3,"right","right",0.628000021,1,1,1,1,NA,NA,NA,NA,NA,NA,NA,NA,NA,NA,NA,NA,NA,NA,NA,NA,NA,NA,NA,NA,NA,NA,NA,NA
"237","stim/objects/Instruments/doublebass.png",176,25,176,0.7,"stim/34.jpeg",3,4,2,NA,"Instruments",2,3,"right","right",0.73300004,1,1,1,1,NA,NA,NA,NA,NA,NA,NA,NA,NA,NA,NA,NA,NA,NA,NA,NA,NA,NA,NA,NA,NA,NA,NA,NA
"206","stim/objects/Instruments/chime2.png",177,25,177,0.9,"stim/54.jpeg",5,4,3,NA,"Instruments",2,4,"right","right",0.50999999,1,1,1,1,NA,NA,NA,NA,NA,NA,NA,NA,NA,NA,NA,NA,NA,NA,NA,NA,NA,NA,NA,NA,NA,NA,NA,NA
"207","stim/objects/Instruments/chime2.png",178,25,178,0.9,"stim/54.jpeg",5,4,3,NA,"Instruments",2,1,"right","right",0.592000008,1,1,1,1,NA,NA,NA,NA,NA,NA,NA,NA,NA,NA,NA,NA,NA,NA,NA,NA,NA,NA,NA,NA,NA,NA,NA,NA
"140","stim/objects/Instruments/balalaika.png",179,25,179,0.5,"stim/13.jpeg",1,3,1,NA,"Instruments",2,2,"right","right",0.645999908,1,1,1,1,NA,NA,NA,NA,NA,NA,NA,NA,NA,NA,NA,NA,NA,NA,NA,NA,NA,NA,NA,NA,NA,NA,NA,NA
"52","stim/objects/HouseObjects/bleachbottle.png",180,25,180,0.5,"stim/21.jpeg",2,1,1,NA,"HouseObjects",1,1,"left","right",0.507999897,0,0,1,1,NA,NA,NA,NA,NA,NA,NA,NA,NA,NA,NA,NA,NA,NA,NA,NA,NA,NA,NA,NA,NA,NA,NA,NA
"185","stim/objects/Instruments/cello.png",181,25,181,0.5,"stim/23.jpeg",2,3,1,NA,"Instruments",2,4,"right","right",0.584000111,1,1,1,1,NA,NA,NA,NA,NA,NA,NA,NA,NA,NA,NA,NA,NA,NA,NA,NA,NA,NA,NA,NA,NA,NA,NA,NA
"99","stim/objects/HouseObjects/clothesdryingrack.png",182,25,182,0.3,"stim/33.jpeg",3,3,2,NA,"HouseObjects",1,1,"left","right",0.566999912,0,0,1,1,NA,NA,NA,NA,NA,NA,NA,NA,NA,NA,NA,NA,NA,NA,NA,NA,NA,NA,NA,NA,NA,NA,NA,NA
"212","stim/objects/Instruments/clarinet.png",183,25,183,0.7,"stim/31.jpeg",3,1,2,NA,"Instruments",2,1,"right","right",0.84800005,1,1,1,1,NA,NA,NA,NA,NA,NA,NA,NA,NA,NA,NA,NA,NA,NA,NA,NA,NA,NA,NA,NA,NA,NA,NA,NA
"229","stim/objects/Instruments/cymbal.png",184,25,184,0.7,"stim/33.jpeg",3,3,2,NA,"Instruments",2,2,"right","right",0.667000055,1,1,1,1,NA,NA,NA,NA,NA,NA,NA,NA,NA,NA,NA,NA,NA,NA,NA,NA,NA,NA,NA,NA,NA,NA,NA,NA
"151","stim/objects/Instruments/banjo2.png",185,25,185,0.3,"stim/44.jpeg",4,4,2,NA,"Instruments",2,1,"right","left",0.730000019,0,0,1,1,NA,NA,NA,NA,NA,NA,NA,NA,NA,NA,NA,NA,NA,NA,NA,NA,NA,NA,NA,NA,NA,NA,NA,NA
"199","stim/objects/Instruments/chime.png",186,25,186,0.5,"stim/24.jpeg",2,4,1,NA,"Instruments",2,1,"right","right",0.832000017,1,1,1,1,NA,NA,NA,NA,NA,NA,NA,NA,NA,NA,NA,NA,NA,NA,NA,NA,NA,NA,NA,NA,NA,NA,NA,NA
"40","stim/objects/HouseObjects/basket.png",187,25,187,0.5,"stim/14.jpeg",1,4,1,NA,"HouseObjects",1,4,"left","left",0.805999994,1,1,1,1,NA,NA,NA,NA,NA,NA,NA,NA,NA,NA,NA,NA,NA,NA,NA,NA,NA,NA,NA,NA,NA,NA,NA,NA
"222","stim/objects/Instruments/cornet.png",188,25,188,0.7,"stim/32.jpeg",3,2,2,NA,"Instruments",2,1,"right","right",0.618999958,1,1,1,1,NA,NA,NA,NA,NA,NA,NA,NA,NA,NA,NA,NA,NA,NA,NA,NA,NA,NA,NA,NA,NA,NA,NA,NA
"27","stim/objects/HouseObjects/barbecuelighter.png",189,25,189,0.5,"stim/13.jpeg",1,3,1,NA,"HouseObjects",1,1,"left","left",0.693000078,1,1,1,1,NA,NA,NA,NA,NA,NA,NA,NA,NA,NA,NA,NA,NA,NA,NA,NA,NA,NA,NA,NA,NA,NA,NA,NA
"136","stim/objects/Instruments/acousticguitar2.png",190,25,190,0.3,"stim/42.jpeg",4,2,2,NA,"Instruments",2,3,"right","left",0.865999937,0,0,1,1,NA,NA,NA,NA,NA,NA,NA,NA,NA,NA,NA,NA,NA,NA,NA,NA,NA,NA,NA,NA,NA,NA,NA,NA
"238","stim/objects/Instruments/doublebass.png",191,25,191,0.7,"stim/34.jpeg",3,4,2,NA,"Instruments",2,4,"right","right",0.618000031,1,1,1,1,NA,NA,NA,NA,NA,NA,NA,NA,NA,NA,NA,NA,NA,NA,NA,NA,NA,NA,NA,NA,NA,NA,NA,NA
"208","stim/objects/Instruments/chime2.png",192,25,192,0.9,"stim/54.jpeg",5,4,3,NA,"Instruments",2,3,"right","right",0.620000124,1,1,1,1,NA,NA,NA,NA,NA,NA,NA,NA,NA,NA,NA,NA,NA,NA,NA,NA,NA,NA,NA,NA,NA,NA,NA,NA
"47","stim/objects/HouseObjects/basket2.png",193,25,193,0.7,"stim/44.jpeg",4,4,2,NA,"HouseObjects",1,2,"left","left",0.685000181,1,1,1,1,NA,NA,NA,NA,NA,NA,NA,NA,NA,NA,NA,NA,NA,NA,NA,NA,NA,NA,NA,NA,NA,NA,NA,NA
"240","stim/objects/Instruments/doublebass2.png",194,25,194,0.1,"stim/64.jpeg",6,4,3,NA,"Instruments",2,3,"right","left",0.615999937,0,0,1,1,NA,NA,NA,NA,NA,NA,NA,NA,NA,NA,NA,NA,NA,NA,NA,NA,NA,NA,NA,NA,NA,NA,NA,NA
"123","stim/objects/Instruments/accordion.png",195,25,195,0.5,"stim/11.jpeg",1,1,1,NA,"Instruments",2,4,"right","left",0.631999969,0,0,1,1,NA,NA,NA,NA,NA,NA,NA,NA,NA,NA,NA,NA,NA,NA,NA,NA,NA,NA,NA,NA,NA,NA,NA,NA
"28","stim/objects/HouseObjects/barbecuelighter.png",196,25,196,0.5,"stim/13.jpeg",1,3,1,NA,"HouseObjects",1,4,"left","left",0.622999907,1,1,1,1,NA,NA,NA,NA,NA,NA,NA,NA,NA,NA,NA,NA,NA,NA,NA,NA,NA,NA,NA,NA,NA,NA,NA,NA
"29","stim/objects/HouseObjects/barbecuelighter.png",197,25,197,0.5,"stim/13.jpeg",1,3,1,NA,"HouseObjects",1,3,"left","left",0.611999989,1,1,1,1,NA,NA,NA,NA,NA,NA,NA,NA,NA,NA,NA,NA,NA,NA,NA,NA,NA,NA,NA,NA,NA,NA,NA,NA
"213","stim/objects/Instruments/clarinet.png",198,25,198,0.7,"stim/31.jpeg",3,1,2,NA,"Instruments",2,3,"right","right",0.774000168,1,1,1,1,NA,NA,NA,NA,NA,NA,NA,NA,NA,NA,NA,NA,NA,NA,NA,NA,NA,NA,NA,NA,NA,NA,NA,NA
"53","stim/objects/HouseObjects/bleachbottle.png",199,25,199,0.5,"stim/21.jpeg",2,1,1,NA,"HouseObjects",1,1,"left","left",0.710000038,1,1,1,1,NA,NA,NA,NA,NA,NA,NA,NA,NA,NA,NA,NA,NA,NA,NA,NA,NA,NA,NA,NA,NA,NA,NA,NA
"9","stim/objects/HouseObjects/ashtray2.png",200,25,200,0.7,"stim/41.jpeg",4,1,2,NA,"HouseObjects",1,2,"left","left",0.667000055,1,1,1,1,NA,NA,NA,NA,NA,NA,NA,NA,NA,NA,NA,NA,NA,NA,NA,NA,NA,NA,NA,NA,NA,NA,NA,NA
"56","stim/objects/HouseObjects/blender.png",201,25,201,0.5,"stim/22.jpeg",2,2,1,NA,"HouseObjects",1,3,"left","right",0.663000107,0,0,1,1,NA,NA,NA,NA,NA,NA,NA,NA,NA,NA,NA,NA,NA,NA,NA,NA,NA,NA,NA,NA,NA,NA,NA,NA
"141","stim/objects/Instruments/balalaika.png",202,25,202,0.5,"stim/13.jpeg",1,3,1,NA,"Instruments",2,4,"right","right",0.815000057,1,1,1,1,NA,NA,NA,NA,NA,NA,NA,NA,NA,NA,NA,NA,NA,NA,NA,NA,NA,NA,NA,NA,NA,NA,NA,NA
"124","stim/objects/Instruments/accordion.png",203,25,203,0.5,"stim/11.jpeg",1,1,1,NA,"Instruments",2,3,"right","left",0.63499999,0,0,1,1,NA,NA,NA,NA,NA,NA,NA,NA,NA,NA,NA,NA,NA,NA,NA,NA,NA,NA,NA,NA,NA,NA,NA,NA
"125","stim/objects/Instruments/accordion.png",204,25,204,0.5,"stim/11.jpeg",1,1,1,NA,"Instruments",2,2,"right","left",0.601999998,0,0,1,1,NA,NA,NA,NA,NA,NA,NA,NA,NA,NA,NA,NA,NA,NA,NA,NA,NA,NA,NA,NA,NA,NA,NA,NA
"216","stim/objects/Instruments/clarinet2.png",205,25,205,0.1,"stim/61.jpeg",6,1,3,NA,"Instruments",2,4,"right","left",0.643000126,0,0,1,1,NA,NA,NA,NA,NA,NA,NA,NA,NA,NA,NA,NA,NA,NA,NA,NA,NA,NA,NA,NA,NA,NA,NA,NA
"41","stim/objects/HouseObjects/basket.png",206,25,206,0.5,"stim/14.jpeg",1,4,1,NA,"HouseObjects",1,4,"left","left",0.702000141,1,1,1,1,NA,NA,NA,NA,NA,NA,NA,NA,NA,NA,NA,NA,NA,NA,NA,NA,NA,NA,NA,NA,NA,NA,NA,NA
"156","stim/objects/Instruments/bassdrum.png",207,25,207,0.5,"stim/21.jpeg",2,1,1,NA,"Instruments",2,4,"right","right",0.791000128,1,1,1,1,NA,NA,NA,NA,NA,NA,NA,NA,NA,NA,NA,NA,NA,NA,NA,NA,NA,NA,NA,NA,NA,NA,NA,NA
"214","stim/objects/Instruments/clarinet.png",208,25,208,0.7,"stim/31.jpeg",3,1,2,NA,"Instruments",2,3,"right","left",0.557999849,0,0,1,1,NA,NA,NA,NA,NA,NA,NA,NA,NA,NA,NA,NA,NA,NA,NA,NA,NA,NA,NA,NA,NA,NA,NA,NA
"36","stim/objects/HouseObjects/barbecuelighter2.png",209,25,209,0.7,"stim/43.jpeg",4,3,2,NA,"HouseObjects",1,4,"left","left",0.71600008,1,1,1,1,NA,NA,NA,NA,NA,NA,NA,NA,NA,NA,NA,NA,NA,NA,NA,NA,NA,NA,NA,NA,NA,NA,NA,NA
"71","stim/objects/HouseObjects/broom.png",210,25,210,0.5,"stim/24.jpeg",2,4,1,NA,"HouseObjects",1,3,"left","right",0.644999981,0,0,1,1,NA,NA,NA,NA,NA,NA,NA,NA,NA,NA,NA,NA,NA,NA,NA,NA,NA,NA,NA,NA,NA,NA,NA,NA
"223","stim/objects/Instruments/cornet.png",211,25,211,0.7,"stim/32.jpeg",3,2,2,NA,"Instruments",2,3,"right","right",0.568000078,1,1,1,1,NA,NA,NA,NA,NA,NA,NA,NA,NA,NA,NA,NA,NA,NA,NA,NA,NA,NA,NA,NA,NA,NA,NA,NA
"48","stim/objects/HouseObjects/basket2.png",212,25,212,0.7,"stim/44.jpeg",4,4,2,NA,"HouseObjects",1,3,"left","left",0.586000204,1,1,1,1,NA,NA,NA,NA,NA,NA,NA,NA,NA,NA,NA,NA,NA,NA,NA,NA,NA,NA,NA,NA,NA,NA,NA,NA
"57","stim/objects/HouseObjects/blender.png",213,25,213,0.5,"stim/22.jpeg",2,2,1,NA,"HouseObjects",1,2,"left","left",0.721999884,1,1,1,1,NA,NA,NA,NA,NA,NA,NA,NA,NA,NA,NA,NA,NA,NA,NA,NA,NA,NA,NA,NA,NA,NA,NA,NA
"21","stim/objects/HouseObjects/ballofstring2.png",214,25,214,0.7,"stim/42.jpeg",4,2,2,NA,"HouseObjects",1,2,"left","left",0.56799984,1,1,1,1,NA,NA,NA,NA,NA,NA,NA,NA,NA,NA,NA,NA,NA,NA,NA,NA,NA,NA,NA,NA,NA,NA,NA,NA
"96","stim/objects/HouseObjects/clock2.png",215,25,215,0.9,"stim/62.jpeg",6,2,3,NA,"HouseObjects",1,3,"left","left",0.601999998,1,1,1,1,NA,NA,NA,NA,NA,NA,NA,NA,NA,NA,NA,NA,NA,NA,NA,NA,NA,NA,NA,NA,NA,NA,NA,NA
"58","stim/objects/HouseObjects/blender.png",216,25,216,0.5,"stim/22.jpeg",2,2,1,NA,"HouseObjects",1,4,"left","right",0.65500021,0,0,1,1,NA,NA,NA,NA,NA,NA,NA,NA,NA,NA,NA,NA,NA,NA,NA,NA,NA,NA,NA,NA,NA,NA,NA,NA
"10","stim/objects/HouseObjects/ashtray2.png",217,25,217,0.7,"stim/41.jpeg",4,1,2,NA,"HouseObjects",1,4,"left","left",0.554000139,1,1,1,1,NA,NA,NA,NA,NA,NA,NA,NA,NA,NA,NA,NA,NA,NA,NA,NA,NA,NA,NA,NA,NA,NA,NA,NA
"22","stim/objects/HouseObjects/ballofstring2.png",218,25,218,0.7,"stim/42.jpeg",4,2,2,NA,"HouseObjects",1,3,"left","left",0.421999931,1,1,1,1,NA,NA,NA,NA,NA,NA,NA,NA,NA,NA,NA,NA,NA,NA,NA,NA,NA,NA,NA,NA,NA,NA,NA,NA
"149","stim/objects/Instruments/banjo.png",219,25,219,0.5,"stim/14.jpeg",1,4,1,NA,"Instruments",2,1,"right","left",0.486999989,0,0,1,1,NA,NA,NA,NA,NA,NA,NA,NA,NA,NA,NA,NA,NA,NA,NA,NA,NA,NA,NA,NA,NA,NA,NA,NA
"83","stim/objects/HouseObjects/bucket2.png",220,25,220,0.9,"stim/61.jpeg",6,1,3,NA,"HouseObjects",1,4,"left","left",0.592000008,1,1,1,1,NA,NA,NA,NA,NA,NA,NA,NA,NA,NA,NA,NA,NA,NA,NA,NA,NA,NA,NA,NA,NA,NA,NA,NA
"152","stim/objects/Instruments/banjo2.png",221,25,221,0.3,"stim/44.jpeg",4,4,2,NA,"Instruments",2,4,"right","left",0.527999878,0,0,1,1,NA,NA,NA,NA,NA,NA,NA,NA,NA,NA,NA,NA,NA,NA,NA,NA,NA,NA,NA,NA,NA,NA,NA,NA
"59","stim/objects/HouseObjects/blender.png",222,25,222,0.5,"stim/22.jpeg",2,2,1,NA,"HouseObjects",1,3,"left","right",0.687000036,0,0,1,1,NA,NA,NA,NA,NA,NA,NA,NA,NA,NA,NA,NA,NA,NA,NA,NA,NA,NA,NA,NA,NA,NA,NA,NA
"215","stim/objects/Instruments/clarinet.png",223,25,223,0.7,"stim/31.jpeg",3,1,2,NA,"Instruments",2,1,"right","right",0.768000126,1,1,1,1,NA,NA,NA,NA,NA,NA,NA,NA,NA,NA,NA,NA,NA,NA,NA,NA,NA,NA,NA,NA,NA,NA,NA,NA
"230","stim/objects/Instruments/cymbal.png",224,25,224,0.7,"stim/33.jpeg",3,3,2,NA,"Instruments",2,2,"right","right",0.678999901,1,1,1,1,NA,NA,NA,NA,NA,NA,NA,NA,NA,NA,NA,NA,NA,NA,NA,NA,NA,NA,NA,NA,NA,NA,NA,NA
"108","stim/objects/HouseObjects/clothesdryingrack2.png",225,25,225,0.9,"stim/63.jpeg",6,3,3,NA,"HouseObjects",1,2,"left","left",0.563999891,1,1,1,1,NA,NA,NA,NA,NA,NA,NA,NA,NA,NA,NA,NA,NA,NA,NA,NA,NA,NA,NA,NA,NA,NA,NA,NA
"119","stim/objects/HouseObjects/clothespin2.png",226,25,226,0.9,"stim/64.jpeg",6,4,3,NA,"HouseObjects",1,4,"left","left",0.549000025,1,1,1,1,NA,NA,NA,NA,NA,NA,NA,NA,NA,NA,NA,NA,NA,NA,NA,NA,NA,NA,NA,NA,NA,NA,NA,NA
"11","stim/objects/HouseObjects/ashtray2.png",227,25,227,0.7,"stim/41.jpeg",4,1,2,NA,"HouseObjects",1,4,"left","left",0.605000019,1,1,1,1,NA,NA,NA,NA,NA,NA,NA,NA,NA,NA,NA,NA,NA,NA,NA,NA,NA,NA,NA,NA,NA,NA,NA,NA
"12","stim/objects/HouseObjects/ashtray2.png",228,25,228,0.7,"stim/41.jpeg",4,1,2,NA,"HouseObjects",1,4,"left","left",0.496999979,1,1,1,1,NA,NA,NA,NA,NA,NA,NA,NA,NA,NA,NA,NA,NA,NA,NA,NA,NA,NA,NA,NA,NA,NA,NA,NA
"120","stim/objects/HouseObjects/clothespin2.png",229,25,229,0.9,"stim/64.jpeg",6,4,3,NA,"HouseObjects",1,3,"left","left",0.601000071,1,1,1,1,NA,NA,NA,NA,NA,NA,NA,NA,NA,NA,NA,NA,NA,NA,NA,NA,NA,NA,NA,NA,NA,NA,NA,NA
"166","stim/objects/Instruments/bassdrum2.png",230,25,230,0.9,"stim/51.jpeg",5,1,3,NA,"Instruments",2,4,"right","right",0.616000175,1,1,1,1,NA,NA,NA,NA,NA,NA,NA,NA,NA,NA,NA,NA,NA,NA,NA,NA,NA,NA,NA,NA,NA,NA,NA,NA
"87","stim/objects/HouseObjects/clock.png",231,25,231,0.3,"stim/32.jpeg",3,2,2,NA,"HouseObjects",1,3,"left","left",0.724000216,1,1,1,1,NA,NA,NA,NA,NA,NA,NA,NA,NA,NA,NA,NA,NA,NA,NA,NA,NA,NA,NA,NA,NA,NA,NA,NA
"157","stim/objects/Instruments/bassdrum.png",232,25,232,0.5,"stim/21.jpeg",2,1,1,NA,"Instruments",2,2,"right","left",0.700000048,0,0,1,1,NA,NA,NA,NA,NA,NA,NA,NA,NA,NA,NA,NA,NA,NA,NA,NA,NA,NA,NA,NA,NA,NA,NA,NA
"111","stim/objects/HouseObjects/clothespin.png",233,25,233,0.3,"stim/34.jpeg",3,4,2,NA,"HouseObjects",1,1,"left","right",0.678999901,0,0,1,1,NA,NA,NA,NA,NA,NA,NA,NA,NA,NA,NA,NA,NA,NA,NA,NA,NA,NA,NA,NA,NA,NA,NA,NA
"239","stim/objects/Instruments/doublebass.png",234,25,234,0.7,"stim/34.jpeg",3,4,2,NA,"Instruments",2,3,"right","left",0.924000025,0,0,1,1,NA,NA,NA,NA,NA,NA,NA,NA,NA,NA,NA,NA,NA,NA,NA,NA,NA,NA,NA,NA,NA,NA,NA,NA
"23","stim/objects/HouseObjects/ballofstring2.png",235,25,235,0.7,"stim/42.jpeg",4,2,2,NA,"HouseObjects",1,4,"left","left",0.819999933,1,1,1,1,NA,NA,NA,NA,NA,NA,NA,NA,NA,NA,NA,NA,NA,NA,NA,NA,NA,NA,NA,NA,NA,NA,NA,NA
"231","stim/objects/Instruments/cymbal.png",236,25,236,0.7,"stim/33.jpeg",3,3,2,NA,"Instruments",2,1,"right","right",0.647000074,1,1,1,1,NA,NA,NA,NA,NA,NA,NA,NA,NA,NA,NA,NA,NA,NA,NA,NA,NA,NA,NA,NA,NA,NA,NA,NA
"84","stim/objects/HouseObjects/bucket2.png",237,25,237,0.9,"stim/61.jpeg",6,1,3,NA,"HouseObjects",1,2,"left","left",0.537999868,1,1,1,1,NA,NA,NA,NA,NA,NA,NA,NA,NA,NA,NA,NA,NA,NA,NA,NA,NA,NA,NA,NA,NA,NA,NA,NA
"24","stim/objects/HouseObjects/ballofstring2.png",238,25,238,0.7,"stim/42.jpeg",4,2,2,NA,"HouseObjects",1,2,"left","left",0.569999933,1,1,1,1,NA,NA,NA,NA,NA,NA,NA,NA,NA,NA,NA,NA,NA,NA,NA,NA,NA,NA,NA,NA,NA,NA,NA,NA
"194","stim/objects/Instruments/cello2.png",239,25,239,0.9,"stim/53.jpeg",5,3,3,NA,"Instruments",2,1,"right","left",0.395999908,0,0,1,1,NA,NA,NA,NA,NA,NA,NA,NA,NA,NA,NA,NA,NA,NA,NA,NA,NA,NA,NA,NA,NA,NA,NA,NA
"171","stim/objects/Instruments/bassguitar.png",240,25,240,0.5,"stim/22.jpeg",2,2,1,NA,"Instruments",2,1,"right","right",0.769999981,1,1,1,1,NA,NA,NA,NA,NA,NA,NA,NA,NA,NA,NA,NA,NA,NA,NA,NA,NA,NA,NA,NA,NA,NA,NA,NA
"415","stim/objects/Instruments/flute.png",248,25,241,0.5,"stim/13.jpeg",1,3,1,2,"Instruments",2,2,"right","left",0.768999815,0,0,1,0,NA,NA,NA,NA,NA,NA,NA,NA,NA,NA,NA,NA,NA,NA,NA,NA,NA,NA,NA,NA,NA,NA,NA,NA
"568","stim/objects/Instruments/vuvuzela2.png",249,25,242,0.1,"stim/63.jpeg",6,3,3,1,"Instruments",2,2,"right","left",0.710000038,0,0,1,0,54,25,1,0.1,2,"stim/63.jpeg",6,3,"stim/63.jpeg",2,"left",0.799999952,3,4,3.476999998,3,0.926000118,54,1,0,0,0,0,1
"401","stim/objects/HouseObjects/towel2.png",250,25,243,0.9,"stim/64.jpeg",6,4,3,1,"HouseObjects",1,2,"left","left",0.595000029,1,1,1,0,143,25,1,0.9,1,"stim/64.jpeg",6,4,"stim/64.jpeg",2,"right",0.946999788,1,2,0.843999863,3,0.970999956,143,0,0,NA,0,NA,1
"473","stim/objects/Instruments/metronome.png",251,25,244,0.9,"stim/53.jpeg",5,3,3,2,"Instruments",2,2,"right","right",0.677999973,1,1,1,0,NA,NA,NA,NA,NA,NA,NA,NA,NA,NA,NA,NA,NA,NA,NA,NA,NA,NA,NA,NA,NA,NA,NA,NA
"406","stim/objects/Instruments/drums.png",252,25,245,0.5,"stim/14.jpeg",1,4,1,2,"Instruments",2,2,"right","left",0.640000105,0,0,1,0,NA,NA,NA,NA,NA,NA,NA,NA,NA,NA,NA,NA,NA,NA,NA,NA,NA,NA,NA,NA,NA,NA,NA,NA
"525","stim/objects/Instruments/oboe.png",253,25,246,0.9,"stim/53.jpeg",5,3,3,2,"Instruments",2,1,"right","right",0.710000038,1,1,1,0,NA,NA,NA,NA,NA,NA,NA,NA,NA,NA,NA,NA,NA,NA,NA,NA,NA,NA,NA,NA,NA,NA,NA,NA
"359","stim/objects/HouseObjects/pitcher.png",254,25,247,0.9,"stim/64.jpeg",6,4,3,2,"HouseObjects",1,3,"left","left",0.572999954,1,1,1,0,NA,NA,NA,NA,NA,NA,NA,NA,NA,NA,NA,NA,NA,NA,NA,NA,NA,NA,NA,NA,NA,NA,NA,NA
"325","stim/objects/HouseObjects/match.png",255,25,248,0.9,"stim/64.jpeg",6,4,3,2,"HouseObjects",1,3,"left","left",0.663000107,1,1,1,0,NA,NA,NA,NA,NA,NA,NA,NA,NA,NA,NA,NA,NA,NA,NA,NA,NA,NA,NA,NA,NA,NA,NA,NA
"342","stim/objects/HouseObjects/pan.png",256,25,249,0.9,"stim/63.jpeg",6,3,3,2,"HouseObjects",1,1,"left","left",0.55099988,1,1,1,0,NA,NA,NA,NA,NA,NA,NA,NA,NA,NA,NA,NA,NA,NA,NA,NA,NA,NA,NA,NA,NA,NA,NA,NA
"456","stim/objects/Instruments/marimba.png",257,25,250,0.9,"stim/54.jpeg",5,4,3,2,"Instruments",2,4,"right","right",0.60800004,1,1,1,0,NA,NA,NA,NA,NA,NA,NA,NA,NA,NA,NA,NA,NA,NA,NA,NA,NA,NA,NA,NA,NA,NA,NA,NA
"474","stim/objects/Instruments/metronome.png",258,25,251,0.9,"stim/51.jpeg",5,1,3,2,"Instruments",2,4,"right","right",0.653000116,1,1,1,0,NA,NA,NA,NA,NA,NA,NA,NA,NA,NA,NA,NA,NA,NA,NA,NA,NA,NA,NA,NA,NA,NA,NA,NA
"455","stim/objects/Instruments/maraca2.png",259,25,252,0.3,"stim/43.jpeg",4,3,2,1,"Instruments",2,2,"right","left",0.757999897,0,0,1,0,158,25,1,0.3,2,"stim/43.jpeg",4,3,"stim/43.jpeg",2,"left",1.189999819,3,3,3.88499999,2,0.913000107,158,1,1,1,1,1,1
"308","stim/objects/HouseObjects/lintroller.png",260,25,253,0.9,"stim/61.jpeg",6,1,3,2,"HouseObjects",1,3,"left","left",0.744000196,1,1,1,0,NA,NA,NA,NA,NA,NA,NA,NA,NA,NA,NA,NA,NA,NA,NA,NA,NA,NA,NA,NA,NA,NA,NA,NA
"526","stim/objects/Instruments/oboe.png",261,25,254,0.9,"stim/51.jpeg",5,1,3,2,"Instruments",2,3,"right","right",0.552999973,1,1,1,0,NA,NA,NA,NA,NA,NA,NA,NA,NA,NA,NA,NA,NA,NA,NA,NA,NA,NA,NA,NA,NA,NA,NA,NA
"491","stim/objects/Instruments/musicsheet.png",262,25,255,0.9,"stim/51.jpeg",5,1,3,2,"Instruments",2,2,"right","right",0.555000067,1,1,1,0,NA,NA,NA,NA,NA,NA,NA,NA,NA,NA,NA,NA,NA,NA,NA,NA,NA,NA,NA,NA,NA,NA,NA,NA
"475","stim/objects/Instruments/metronome.png",263,25,256,0.9,"stim/52.jpeg",5,2,3,2,"Instruments",2,4,"right","right",0.834000111,1,1,1,0,NA,NA,NA,NA,NA,NA,NA,NA,NA,NA,NA,NA,NA,NA,NA,NA,NA,NA,NA,NA,NA,NA,NA,NA
"261","stim/objects/HouseObjects/garbagebin2.png",264,25,257,0.7,"stim/41.jpeg",4,1,2,1,"HouseObjects",1,1,"left","",NA,0,0,1,0,83,25,1,0.7,1,"stim/41.jpeg",4,1,"stim/41.jpeg",1,"left",1.087999821,2,2,0.822000027,2,0.995999813,83,1,0,0,0,0,1
"343","stim/objects/HouseObjects/pan.png",265,25,258,0.9,"stim/61.jpeg",6,1,3,2,"HouseObjects",1,4,"left","left",0.776000023,1,1,1,0,NA,NA,NA,NA,NA,NA,NA,NA,NA,NA,NA,NA,NA,NA,NA,NA,NA,NA,NA,NA,NA,NA,NA,NA
"457","stim/objects/Instruments/marimba.png",266,25,259,0.9,"stim/54.jpeg",5,4,3,2,"Instruments",2,3,"right","right",0.52699995,1,1,1,0,NA,NA,NA,NA,NA,NA,NA,NA,NA,NA,NA,NA,NA,NA,NA,NA,NA,NA,NA,NA,NA,NA,NA,NA
"476","stim/objects/Instruments/metronome.png",267,25,260,0.9,"stim/53.jpeg",5,3,3,2,"Instruments",2,1,"right","right",0.707999945,1,1,1,0,NA,NA,NA,NA,NA,NA,NA,NA,NA,NA,NA,NA,NA,NA,NA,NA,NA,NA,NA,NA,NA,NA,NA,NA
"241","stim/objects/HouseObjects/coffee.png",268,25,261,0.5,"stim/12.jpeg",1,2,1,2,"HouseObjects",1,3,"left","right",0.781000137,0,0,1,0,NA,NA,NA,NA,NA,NA,NA,NA,NA,NA,NA,NA,NA,NA,NA,NA,NA,NA,NA,NA,NA,NA,NA,NA
"427","stim/objects/Instruments/grandpiano.png",269,25,262,0.5,"stim/24.jpeg",2,4,1,2,"Instruments",2,1,"right","right",0.694999933,1,1,1,0,NA,NA,NA,NA,NA,NA,NA,NA,NA,NA,NA,NA,NA,NA,NA,NA,NA,NA,NA,NA,NA,NA,NA,NA
"309","stim/objects/HouseObjects/lintroller.png",270,25,263,0.9,"stim/62.jpeg",6,2,3,2,"HouseObjects",1,3,"left","left",0.464999914,1,1,1,0,NA,NA,NA,NA,NA,NA,NA,NA,NA,NA,NA,NA,NA,NA,NA,NA,NA,NA,NA,NA,NA,NA,NA,NA
"492","stim/objects/Instruments/musicsheet.png",271,25,264,0.9,"stim/51.jpeg",5,1,3,2,"Instruments",2,4,"right","right",0.569000006,1,1,1,0,NA,NA,NA,NA,NA,NA,NA,NA,NA,NA,NA,NA,NA,NA,NA,NA,NA,NA,NA,NA,NA,NA,NA,NA
"555","stim/objects/Instruments/timbal.png",272,25,265,0.5,"stim/22.jpeg",2,2,1,1,"Instruments",2,2,"right","right",0.755999804,1,1,1,0,165,25,1,0.5,2,"stim/22.jpeg",2,2,"stim/22.jpeg",2,"left",0.877999783,3,1,2.479999781,4,0.842000008,165,1,0,0,0,0,1
"385","stim/objects/HouseObjects/safetypin2.png",273,25,266,0.1,"stim/52.jpeg",5,2,3,1,"HouseObjects",1,4,"left","right",0.57799983,0,0,1,0,111,25,1,0.1,1,"stim/52.jpeg",5,2,"stim/52.jpeg",4,"left",1.186999798,2,2,1.370999813,3,0.931999922,111,1,1,1,0,0,1
"563","stim/objects/Instruments/tuba.png",274,25,267,0.7,"stim/33.jpeg",3,3,2,1,"Instruments",2,4,"right","right",0.789999962,1,1,1,0,101,25,1,0.7,2,"stim/33.jpeg",3,3,"stim/33.jpeg",4,"left",1.296000004,1,1,0.86899972,4,2.344000101,101,1,0,0,1,1,1
"441","stim/objects/Instruments/hihat.png",275,25,268,0.7,"stim/34.jpeg",3,4,2,2,"Instruments",2,4,"right","right",0.579999924,1,1,1,0,NA,NA,NA,NA,NA,NA,NA,NA,NA,NA,NA,NA,NA,NA,NA,NA,NA,NA,NA,NA,NA,NA,NA,NA
"360","stim/objects/HouseObjects/pitcher.png",276,25,269,0.9,"stim/61.jpeg",6,1,3,2,"HouseObjects",1,2,"left","left",0.614000082,1,1,1,0,NA,NA,NA,NA,NA,NA,NA,NA,NA,NA,NA,NA,NA,NA,NA,NA,NA,NA,NA,NA,NA,NA,NA,NA
"527","stim/objects/Instruments/oboe.png",277,25,270,0.9,"stim/54.jpeg",5,4,3,2,"Instruments",2,2,"right","right",0.636999846,1,1,1,0,NA,NA,NA,NA,NA,NA,NA,NA,NA,NA,NA,NA,NA,NA,NA,NA,NA,NA,NA,NA,NA,NA,NA,NA
"361","stim/objects/HouseObjects/pitcher.png",278,25,271,0.9,"stim/63.jpeg",6,3,3,2,"HouseObjects",1,4,"left","left",0.575999975,1,1,1,0,NA,NA,NA,NA,NA,NA,NA,NA,NA,NA,NA,NA,NA,NA,NA,NA,NA,NA,NA,NA,NA,NA,NA,NA
"543","stim/objects/Instruments/pipepiano.png",279,25,272,0.5,"stim/13.jpeg",1,3,1,1,"Instruments",2,2,"right","right",0.782999992,1,1,1,0,44,25,1,0.5,1,"stim/13.jpeg",1,3,"stim/13.jpeg",2,"left",0.855999947,4,4,6.993999958,2,0.885999918,44,1,0,0,1,1,1
"416","stim/objects/Instruments/flute.png",280,25,273,0.5,"stim/14.jpeg",1,4,1,2,"Instruments",2,3,"right","left",0.491000175,0,0,1,0,NA,NA,NA,NA,NA,NA,NA,NA,NA,NA,NA,NA,NA,NA,NA,NA,NA,NA,NA,NA,NA,NA,NA,NA
"287","stim/objects/HouseObjects/key.png",281,25,274,0.7,"stim/41.jpeg",4,1,2,2,"HouseObjects",1,3,"left","left",0.728000164,1,1,1,0,NA,NA,NA,NA,NA,NA,NA,NA,NA,NA,NA,NA,NA,NA,NA,NA,NA,NA,NA,NA,NA,NA,NA,NA
"310","stim/objects/HouseObjects/lintroller.png",282,25,275,0.9,"stim/62.jpeg",6,2,3,2,"HouseObjects",1,2,"left","left",0.568000078,1,1,1,0,NA,NA,NA,NA,NA,NA,NA,NA,NA,NA,NA,NA,NA,NA,NA,NA,NA,NA,NA,NA,NA,NA,NA,NA
"326","stim/objects/HouseObjects/match.png",283,25,276,0.9,"stim/61.jpeg",6,1,3,2,"HouseObjects",1,2,"left","left",0.578000069,1,1,1,0,NA,NA,NA,NA,NA,NA,NA,NA,NA,NA,NA,NA,NA,NA,NA,NA,NA,NA,NA,NA,NA,NA,NA,NA
"424","stim/objects/Instruments/gong.png",284,25,277,0.5,"stim/24.jpeg",2,4,1,2,"Instruments",2,2,"right","right",0.700000048,1,1,1,0,NA,NA,NA,NA,NA,NA,NA,NA,NA,NA,NA,NA,NA,NA,NA,NA,NA,NA,NA,NA,NA,NA,NA,NA
"291","stim/objects/HouseObjects/knife.png",285,25,278,0.9,"stim/64.jpeg",6,4,3,2,"HouseObjects",1,4,"left","left",0.589999914,1,1,1,0,NA,NA,NA,NA,NA,NA,NA,NA,NA,NA,NA,NA,NA,NA,NA,NA,NA,NA,NA,NA,NA,NA,NA,NA
"570","stim/objects/Instruments/xylophone2.png",286,25,279,0.1,"stim/64.jpeg",6,4,3,1,"Instruments",2,4,"right","left",0.544000149,0,0,1,0,171,25,1,0.1,2,"stim/64.jpeg",6,4,"stim/64.jpeg",4,"left",0.961999893,4,4,2.36500001,3,1.013999701,171,1,1,1,0,0,1
"436","stim/objects/Instruments/harp.png",287,25,280,0.7,"stim/33.jpeg",3,3,2,2,"Instruments",2,2,"right","right",0.850000143,1,1,1,0,NA,NA,NA,NA,NA,NA,NA,NA,NA,NA,NA,NA,NA,NA,NA,NA,NA,NA,NA,NA,NA,NA,NA,NA
"405","stim/objects/HouseObjects/wateringcan2.png",288,25,281,0.9,"stim/62.jpeg",6,2,3,1,"HouseObjects",1,4,"left","left",0.544999838,1,1,1,0,56,25,1,0.9,1,"stim/62.jpeg",6,2,"stim/62.jpeg",4,"right",0.707999945,2,4,1.503000021,2,1.14199996,56,0,0,NA,0,NA,1
"252","stim/objects/HouseObjects/doormat2.png",289,25,282,0.3,"stim/31.jpeg",3,1,2,1,"HouseObjects",1,3,"left","right",0.719000101,0,0,1,0,115,25,1,0.3,1,"stim/31.jpeg",3,1,"stim/31.jpeg",3,"left",1.098999977,4,3,2.366999865,4,0.816999912,115,1,0,0,0,0,1
"477","stim/objects/Instruments/metronome.png",290,25,283,0.9,"stim/51.jpeg",5,1,3,2,"Instruments",2,3,"right","right",0.638999939,1,1,1,0,NA,NA,NA,NA,NA,NA,NA,NA,NA,NA,NA,NA,NA,NA,NA,NA,NA,NA,NA,NA,NA,NA,NA,NA
"528","stim/objects/Instruments/oboe.png",291,25,284,0.9,"stim/51.jpeg",5,1,3,2,"Instruments",2,3,"right","right",0.592000008,1,1,1,0,NA,NA,NA,NA,NA,NA,NA,NA,NA,NA,NA,NA,NA,NA,NA,NA,NA,NA,NA,NA,NA,NA,NA,NA
"380","stim/objects/HouseObjects/rubbergloves.png",292,25,285,0.5,"stim/11.jpeg",1,1,1,1,"HouseObjects",1,4,"left","left",0.605999947,1,1,1,0,170,25,1,0.5,1,"stim/11.jpeg",1,1,"stim/11.jpeg",4,"right",1.135999918,2,4,1.142999887,3,1.341999769,170,0,0,NA,0,NA,1
"430","stim/objects/Instruments/guitarcase.png",293,25,286,0.5,"stim/22.jpeg",2,2,1,2,"Instruments",2,2,"right","right",0.755000114,1,1,1,0,NA,NA,NA,NA,NA,NA,NA,NA,NA,NA,NA,NA,NA,NA,NA,NA,NA,NA,NA,NA,NA,NA,NA,NA
"507","stim/objects/Instruments/musicstand.png",294,25,287,0.9,"stim/53.jpeg",5,3,3,2,"Instruments",2,1,"right","right",0.586999893,1,1,1,0,NA,NA,NA,NA,NA,NA,NA,NA,NA,NA,NA,NA,NA,NA,NA,NA,NA,NA,NA,NA,NA,NA,NA,NA
"561","stim/objects/Instruments/trumpet.png",295,25,288,0.7,"stim/32.jpeg",3,2,2,1,"Instruments",2,2,"right","right",0.648000002,1,1,1,0,60,25,1,0.7,2,"stim/32.jpeg",3,2,"stim/32.jpeg",2,"left",0.971999884,4,1,3.304999828,4,0.853999853,60,1,0,0,0,0,1
"387","stim/objects/HouseObjects/saw2.png",296,25,289,0.9,"stim/61.jpeg",6,1,3,1,"HouseObjects",1,1,"left","left",0.504000187,1,1,1,0,10,25,1,0.9,1,"stim/61.jpeg",6,1,"stim/61.jpeg",1,"left",1.194000006,2,3,2.171999931,2,1.157000065,10,1,0,0,0,0,1
"345","stim/objects/HouseObjects/pan.png",297,25,290,0.9,"stim/62.jpeg",6,2,3,2,"HouseObjects",1,4,"left","left",0.690999985,1,1,1,0,NA,NA,NA,NA,NA,NA,NA,NA,NA,NA,NA,NA,NA,NA,NA,NA,NA,NA,NA,NA,NA,NA,NA,NA
"311","stim/objects/HouseObjects/lintroller.png",298,25,291,0.9,"stim/64.jpeg",6,4,3,2,"HouseObjects",1,3,"left","left",0.549000025,1,1,1,0,NA,NA,NA,NA,NA,NA,NA,NA,NA,NA,NA,NA,NA,NA,NA,NA,NA,NA,NA,NA,NA,NA,NA,NA
"279","stim/objects/HouseObjects/iron.png",299,25,292,0.7,"stim/41.jpeg",4,1,2,2,"HouseObjects",1,4,"left","left",0.672999859,1,1,1,0,NA,NA,NA,NA,NA,NA,NA,NA,NA,NA,NA,NA,NA,NA,NA,NA,NA,NA,NA,NA,NA,NA,NA,NA
"292","stim/objects/HouseObjects/knife.png",300,25,293,0.9,"stim/62.jpeg",6,2,3,2,"HouseObjects",1,4,"left","left",0.641000032,1,1,1,0,NA,NA,NA,NA,NA,NA,NA,NA,NA,NA,NA,NA,NA,NA,NA,NA,NA,NA,NA,NA,NA,NA,NA,NA
"393","stim/objects/HouseObjects/spraybottle2.png",301,25,294,0.9,"stim/64.jpeg",6,4,3,1,"HouseObjects",1,4,"left","left",0.635999918,1,1,1,0,196,25,1,0.9,1,"stim/64.jpeg",6,4,"stim/64.jpeg",4,"right",0.928999901,2,2,0.243999958,2,0.520999908,196,0,0,NA,0,NA,1
"364","stim/objects/HouseObjects/pitcher.png",302,25,295,0.9,"stim/64.jpeg",6,4,3,2,"HouseObjects",1,4,"left","left",0.555000067,1,1,1,0,NA,NA,NA,NA,NA,NA,NA,NA,NA,NA,NA,NA,NA,NA,NA,NA,NA,NA,NA,NA,NA,NA,NA,NA
"312","stim/objects/HouseObjects/lintroller.png",303,25,296,0.9,"stim/63.jpeg",6,3,3,2,"HouseObjects",1,2,"left","left",0.527999878,1,1,1,0,NA,NA,NA,NA,NA,NA,NA,NA,NA,NA,NA,NA,NA,NA,NA,NA,NA,NA,NA,NA,NA,NA,NA,NA
"313","stim/objects/HouseObjects/lintroller.png",304,25,297,0.9,"stim/63.jpeg",6,3,3,2,"HouseObjects",1,1,"left","left",0.570999861,1,1,1,0,NA,NA,NA,NA,NA,NA,NA,NA,NA,NA,NA,NA,NA,NA,NA,NA,NA,NA,NA,NA,NA,NA,NA,NA
"271","stim/objects/HouseObjects/handbrush.png",305,25,298,0.7,"stim/41.jpeg",4,1,2,2,"HouseObjects",1,2,"left","left",0.628000021,1,1,1,0,NA,NA,NA,NA,NA,NA,NA,NA,NA,NA,NA,NA,NA,NA,NA,NA,NA,NA,NA,NA,NA,NA,NA,NA
"314","stim/objects/HouseObjects/lintroller.png",306,25,299,0.9,"stim/64.jpeg",6,4,3,2,"HouseObjects",1,2,"left","left",0.607999802,1,1,1,0,NA,NA,NA,NA,NA,NA,NA,NA,NA,NA,NA,NA,NA,NA,NA,NA,NA,NA,NA,NA,NA,NA,NA,NA
"426","stim/objects/Instruments/gong2.png",307,25,300,0.3,"stim/43.jpeg",4,3,2,1,"Instruments",2,4,"right","left",0.616000175,0,0,1,0,103,25,1,0.3,2,"stim/43.jpeg",4,3,"stim/43.jpeg",4,"left",0.867000103,4,4,1.956999779,2,0.78399992,103,1,0,0,0,0,1
"397","stim/objects/HouseObjects/thermometer2.png",308,25,301,0.9,"stim/62.jpeg",6,2,3,1,"HouseObjects",1,2,"left","left",0.504999876,1,1,1,0,195,25,1,0.9,1,"stim/62.jpeg",6,2,"stim/62.jpeg",2,"right",0.961999893,2,2,0.428999901,1,1.051999807,195,0,1,NA,0,NA,1
"365","stim/objects/HouseObjects/pitcher.png",309,25,302,0.9,"stim/62.jpeg",6,2,3,2,"HouseObjects",1,3,"left","left",0.462000132,1,1,1,0,NA,NA,NA,NA,NA,NA,NA,NA,NA,NA,NA,NA,NA,NA,NA,NA,NA,NA,NA,NA,NA,NA,NA,NA
"412","stim/objects/Instruments/electricguitar.png",310,25,303,0.5,"stim/13.jpeg",1,3,1,2,"Instruments",2,3,"right","right",0.719000101,1,1,1,0,NA,NA,NA,NA,NA,NA,NA,NA,NA,NA,NA,NA,NA,NA,NA,NA,NA,NA,NA,NA,NA,NA,NA,NA
"479","stim/objects/Instruments/metronome.png",311,25,304,0.9,"stim/52.jpeg",5,2,3,2,"Instruments",2,1,"right","right",0.678999901,1,1,1,0,NA,NA,NA,NA,NA,NA,NA,NA,NA,NA,NA,NA,NA,NA,NA,NA,NA,NA,NA,NA,NA,NA,NA,NA
"480","stim/objects/Instruments/metronome.png",312,25,305,0.9,"stim/53.jpeg",5,3,3,2,"Instruments",2,2,"right","right",0.546000004,1,1,1,0,NA,NA,NA,NA,NA,NA,NA,NA,NA,NA,NA,NA,NA,NA,NA,NA,NA,NA,NA,NA,NA,NA,NA,NA
"394","stim/objects/HouseObjects/teapot.png",313,25,306,0.5,"stim/21.jpeg",2,1,1,1,"HouseObjects",1,4,"left","left",0.753999949,1,1,1,0,159,25,1,0.5,2,"stim/21.jpeg",2,1,"stim/21.jpeg",4,"right",0.916999817,2,4,1.133999825,2,0.832999945,159,0,0,NA,0,NA,1
"481","stim/objects/Instruments/metronome.png",314,25,307,0.9,"stim/51.jpeg",5,1,3,2,"Instruments",2,1,"right","right",0.556999922,1,1,1,0,NA,NA,NA,NA,NA,NA,NA,NA,NA,NA,NA,NA,NA,NA,NA,NA,NA,NA,NA,NA,NA,NA,NA,NA
"443","stim/objects/Instruments/hihat2.png",315,25,308,0.3,"stim/44.jpeg",4,4,2,1,"Instruments",2,2,"right","left",0.620999813,0,0,1,0,80,25,1,0.3,2,"stim/44.jpeg",4,4,"stim/44.jpeg",2,"left",1.14199996,4,3,2.736999989,4,0.89199996,80,1,0,0,0,0,1
"250","stim/objects/HouseObjects/doormat.png",316,25,309,0.5,"stim/14.jpeg",1,4,1,2,"HouseObjects",1,4,"left","right",0.688000202,0,0,1,0,NA,NA,NA,NA,NA,NA,NA,NA,NA,NA,NA,NA,NA,NA,NA,NA,NA,NA,NA,NA,NA,NA,NA,NA
"509","stim/objects/Instruments/musicstand.png",317,25,310,0.9,"stim/52.jpeg",5,2,3,2,"Instruments",2,3,"right","left",0.460000038,0,0,1,0,NA,NA,NA,NA,NA,NA,NA,NA,NA,NA,NA,NA,NA,NA,NA,NA,NA,NA,NA,NA,NA,NA,NA,NA
"376","stim/objects/HouseObjects/recyclingbin.png",318,25,311,0.5,"stim/13.jpeg",1,3,1,1,"HouseObjects",1,4,"left","right",0.659000158,0,0,1,0,105,25,1,0.5,1,"stim/13.jpeg",1,3,"stim/13.jpeg",4,"left",0.96999979,2,1,0.742999792,1,0.727999926,105,1,0,0,0,0,1
"495","stim/objects/Instruments/musicsheet.png",319,25,312,0.9,"stim/52.jpeg",5,2,3,2,"Instruments",2,2,"right","right",0.57400012,1,1,1,0,NA,NA,NA,NA,NA,NA,NA,NA,NA,NA,NA,NA,NA,NA,NA,NA,NA,NA,NA,NA,NA,NA,NA,NA
"386","stim/objects/HouseObjects/saw.png",320,25,313,0.5,"stim/21.jpeg",2,1,1,1,"HouseObjects",1,1,"left","right",0.605000019,0,0,1,0,106,25,1,0.5,2,"stim/21.jpeg",2,1,"stim/21.jpeg",1,"left",0.79399991,4,2,1.153999805,1,2.771999836,106,1,0,0,1,1,1
"366","stim/objects/HouseObjects/pitcher.png",321,25,314,0.9,"stim/63.jpeg",6,3,3,2,"HouseObjects",1,3,"left","left",0.579000235,1,1,1,0,NA,NA,NA,NA,NA,NA,NA,NA,NA,NA,NA,NA,NA,NA,NA,NA,NA,NA,NA,NA,NA,NA,NA,NA
"482","stim/objects/Instruments/metronome.png",322,25,315,0.9,"stim/54.jpeg",5,4,3,2,"Instruments",2,1,"right","right",0.611999989,1,1,1,0,NA,NA,NA,NA,NA,NA,NA,NA,NA,NA,NA,NA,NA,NA,NA,NA,NA,NA,NA,NA,NA,NA,NA,NA
"256","stim/objects/HouseObjects/flyswatter.png",323,25,316,0.5,"stim/24.jpeg",2,4,1,2,"HouseObjects",1,2,"left","left",0.703999996,1,1,1,0,NA,NA,NA,NA,NA,NA,NA,NA,NA,NA,NA,NA,NA,NA,NA,NA,NA,NA,NA,NA,NA,NA,NA,NA
"530","stim/objects/Instruments/oboe.png",324,25,317,0.9,"stim/52.jpeg",5,2,3,2,"Instruments",2,1,"right","right",0.575000048,1,1,1,0,NA,NA,NA,NA,NA,NA,NA,NA,NA,NA,NA,NA,NA,NA,NA,NA,NA,NA,NA,NA,NA,NA,NA,NA
"288","stim/objects/HouseObjects/key.png",325,25,318,0.7,"stim/43.jpeg",4,3,2,2,"HouseObjects",1,3,"left","left",0.681999922,1,1,1,0,NA,NA,NA,NA,NA,NA,NA,NA,NA,NA,NA,NA,NA,NA,NA,NA,NA,NA,NA,NA,NA,NA,NA,NA
"551","stim/objects/Instruments/speaker.png",326,25,319,0.5,"stim/24.jpeg",2,4,1,1,"Instruments",2,1,"right","left",0.705000162,0,0,1,0,13,25,1,0.5,2,"stim/24.jpeg",2,4,"stim/24.jpeg",1,"left",1.360999823,3,1,1.028999805,3,1.648999929,13,1,0,0,0,0,1
"293","stim/objects/HouseObjects/knife.png",327,25,320,0.9,"stim/63.jpeg",6,3,3,2,"HouseObjects",1,4,"left","left",0.489000082,1,1,1,0,NA,NA,NA,NA,NA,NA,NA,NA,NA,NA,NA,NA,NA,NA,NA,NA,NA,NA,NA,NA,NA,NA,NA,NA
"398","stim/objects/HouseObjects/thread.png",328,25,321,0.3,"stim/32.jpeg",3,2,2,1,"HouseObjects",1,1,"left","right",0.614000082,0,0,1,0,139,25,1,0.3,1,"stim/32.jpeg",3,2,"stim/32.jpeg",1,"right",0.764999866,1,4,0.915999889,4,0.743999958,139,0,0,NA,0,NA,1
"367","stim/objects/HouseObjects/pitcher.png",329,25,322,0.9,"stim/63.jpeg",6,3,3,2,"HouseObjects",1,3,"left","left",0.513000011,1,1,1,0,NA,NA,NA,NA,NA,NA,NA,NA,NA,NA,NA,NA,NA,NA,NA,NA,NA,NA,NA,NA,NA,NA,NA,NA
"496","stim/objects/Instruments/musicsheet.png",330,25,323,0.9,"stim/53.jpeg",5,3,3,2,"Instruments",2,1,"right","right",0.611000061,1,1,1,0,NA,NA,NA,NA,NA,NA,NA,NA,NA,NA,NA,NA,NA,NA,NA,NA,NA,NA,NA,NA,NA,NA,NA,NA
"294","stim/objects/HouseObjects/knife.png",331,25,324,0.9,"stim/61.jpeg",6,1,3,2,"HouseObjects",1,1,"left","left",0.526000023,1,1,1,0,NA,NA,NA,NA,NA,NA,NA,NA,NA,NA,NA,NA,NA,NA,NA,NA,NA,NA,NA,NA,NA,NA,NA,NA
"390","stim/objects/HouseObjects/sponge.png",332,25,325,0.5,"stim/23.jpeg",2,3,1,1,"HouseObjects",1,3,"left","left",0.703000069,1,1,1,0,127,25,1,0.5,2,"stim/23.jpeg",2,3,"stim/23.jpeg",3,"right",0.92599988,1,1,1.51699996,1,0.222000122,127,0,0,NA,0,NA,1
"368","stim/objects/HouseObjects/pitcher.png",333,25,326,0.9,"stim/61.jpeg",6,1,3,2,"HouseObjects",1,3,"left","left",0.448999882,1,1,1,0,NA,NA,NA,NA,NA,NA,NA,NA,NA,NA,NA,NA,NA,NA,NA,NA,NA,NA,NA,NA,NA,NA,NA,NA
"458","stim/objects/Instruments/marimba.png",334,25,327,0.9,"stim/53.jpeg",5,3,3,2,"Instruments",2,2,"right","right",0.520999908,1,1,1,0,NA,NA,NA,NA,NA,NA,NA,NA,NA,NA,NA,NA,NA,NA,NA,NA,NA,NA,NA,NA,NA,NA,NA,NA
"566","stim/objects/Instruments/violin2.png",335,25,328,0.1,"stim/62.jpeg",6,2,3,1,"Instruments",2,4,"right","left",0.572999954,0,0,1,0,88,25,1,0.1,2,"stim/62.jpeg",6,2,"stim/62.jpeg",4,"left",0.811999798,2,2,0.766000032,2,0.819999933,88,1,1,1,0,0,1
"329","stim/objects/HouseObjects/match.png",336,25,329,0.9,"stim/63.jpeg",6,3,3,2,"HouseObjects",1,2,"left","left",0.607000113,1,1,1,0,NA,NA,NA,NA,NA,NA,NA,NA,NA,NA,NA,NA,NA,NA,NA,NA,NA,NA,NA,NA,NA,NA,NA,NA
"295","stim/objects/HouseObjects/knife.png",337,25,330,0.9,"stim/63.jpeg",6,3,3,2,"HouseObjects",1,2,"left","left",0.461999893,1,1,1,0,NA,NA,NA,NA,NA,NA,NA,NA,NA,NA,NA,NA,NA,NA,NA,NA,NA,NA,NA,NA,NA,NA,NA,NA
"510","stim/objects/Instruments/musicstand.png",338,25,331,0.9,"stim/54.jpeg",5,4,3,2,"Instruments",2,3,"right","right",0.715999842,1,1,1,0,NA,NA,NA,NA,NA,NA,NA,NA,NA,NA,NA,NA,NA,NA,NA,NA,NA,NA,NA,NA,NA,NA,NA,NA
"346","stim/objects/HouseObjects/pan.png",339,25,332,0.9,"stim/62.jpeg",6,2,3,2,"HouseObjects",1,3,"left","left",0.525000095,1,1,1,0,NA,NA,NA,NA,NA,NA,NA,NA,NA,NA,NA,NA,NA,NA,NA,NA,NA,NA,NA,NA,NA,NA,NA,NA
"330","stim/objects/HouseObjects/match.png",340,25,333,0.9,"stim/61.jpeg",6,1,3,2,"HouseObjects",1,4,"left","left",0.49000001,1,1,1,0,NA,NA,NA,NA,NA,NA,NA,NA,NA,NA,NA,NA,NA,NA,NA,NA,NA,NA,NA,NA,NA,NA,NA,NA
"421","stim/objects/Instruments/frenchhorn.png",341,25,334,0.5,"stim/23.jpeg",2,3,1,2,"Instruments",2,4,"right","left",0.864000082,0,0,1,0,NA,NA,NA,NA,NA,NA,NA,NA,NA,NA,NA,NA,NA,NA,NA,NA,NA,NA,NA,NA,NA,NA,NA,NA
"307","stim/objects/HouseObjects/knife2.png",342,25,335,0.1,"stim/51.jpeg",5,1,3,1,"HouseObjects",1,3,"left","right",0.608999968,0,0,1,0,125,25,1,0.1,1,"stim/51.jpeg",5,1,"stim/51.jpeg",3,"right",0.638000011,1,2,1.92599988,1,0.55700016,125,0,0,NA,0,NA,1
"247","stim/objects/HouseObjects/dishsoap.png",343,25,336,0.5,"stim/13.jpeg",1,3,1,2,"HouseObjects",1,4,"left","left",0.710000038,1,1,1,0,NA,NA,NA,NA,NA,NA,NA,NA,NA,NA,NA,NA,NA,NA,NA,NA,NA,NA,NA,NA,NA,NA,NA,NA
"296","stim/objects/HouseObjects/knife.png",344,25,337,0.9,"stim/61.jpeg",6,1,3,2,"HouseObjects",1,2,"left","left",0.521999836,1,1,1,0,NA,NA,NA,NA,NA,NA,NA,NA,NA,NA,NA,NA,NA,NA,NA,NA,NA,NA,NA,NA,NA,NA,NA,NA
"511","stim/objects/Instruments/musicstand.png",345,25,338,0.9,"stim/53.jpeg",5,3,3,2,"Instruments",2,3,"right","right",0.560000181,1,1,1,0,NA,NA,NA,NA,NA,NA,NA,NA,NA,NA,NA,NA,NA,NA,NA,NA,NA,NA,NA,NA,NA,NA,NA,NA
"437","stim/objects/Instruments/harp.png",346,25,339,0.7,"stim/34.jpeg",3,4,2,2,"Instruments",2,2,"right","left",0.665999889,0,0,1,0,NA,NA,NA,NA,NA,NA,NA,NA,NA,NA,NA,NA,NA,NA,NA,NA,NA,NA,NA,NA,NA,NA,NA,NA
"265","stim/objects/HouseObjects/glassmop.png",347,25,340,0.5,"stim/23.jpeg",2,3,1,2,"HouseObjects",1,3,"left","right",0.717000008,0,0,1,0,NA,NA,NA,NA,NA,NA,NA,NA,NA,NA,NA,NA,NA,NA,NA,NA,NA,NA,NA,NA,NA,NA,NA,NA
"332","stim/objects/HouseObjects/match.png",348,25,341,0.9,"stim/64.jpeg",6,4,3,2,"HouseObjects",1,4,"left","left",0.598999977,1,1,1,0,NA,NA,NA,NA,NA,NA,NA,NA,NA,NA,NA,NA,NA,NA,NA,NA,NA,NA,NA,NA,NA,NA,NA,NA
"448","stim/objects/Instruments/laud.png",349,25,342,0.7,"stim/33.jpeg",3,3,2,2,"Instruments",2,3,"right","right",0.571000099,1,1,1,0,NA,NA,NA,NA,NA,NA,NA,NA,NA,NA,NA,NA,NA,NA,NA,NA,NA,NA,NA,NA,NA,NA,NA,NA
"531","stim/objects/Instruments/oboe.png",350,25,343,0.9,"stim/54.jpeg",5,4,3,2,"Instruments",2,1,"right","right",0.588000059,1,1,1,0,NA,NA,NA,NA,NA,NA,NA,NA,NA,NA,NA,NA,NA,NA,NA,NA,NA,NA,NA,NA,NA,NA,NA,NA
"347","stim/objects/HouseObjects/pan.png",351,25,344,0.9,"stim/64.jpeg",6,4,3,2,"HouseObjects",1,1,"left","left",0.5849998,1,1,1,0,NA,NA,NA,NA,NA,NA,NA,NA,NA,NA,NA,NA,NA,NA,NA,NA,NA,NA,NA,NA,NA,NA,NA,NA
"284","stim/objects/HouseObjects/ironingboard.png",352,25,345,0.7,"stim/41.jpeg",4,1,2,2,"HouseObjects",1,4,"left","left",0.606999874,1,1,1,0,NA,NA,NA,NA,NA,NA,NA,NA,NA,NA,NA,NA,NA,NA,NA,NA,NA,NA,NA,NA,NA,NA,NA,NA
"532","stim/objects/Instruments/oboe.png",353,25,346,0.9,"stim/52.jpeg",5,2,3,2,"Instruments",2,4,"right","right",0.630999804,1,1,1,0,NA,NA,NA,NA,NA,NA,NA,NA,NA,NA,NA,NA,NA,NA,NA,NA,NA,NA,NA,NA,NA,NA,NA,NA
"297","stim/objects/HouseObjects/knife.png",354,25,347,0.9,"stim/64.jpeg",6,4,3,2,"HouseObjects",1,2,"left","left",0.537000179,1,1,1,0,NA,NA,NA,NA,NA,NA,NA,NA,NA,NA,NA,NA,NA,NA,NA,NA,NA,NA,NA,NA,NA,NA,NA,NA
"418","stim/objects/Instruments/flutetrans.png",355,25,348,0.5,"stim/14.jpeg",1,4,1,2,"Instruments",2,4,"right","left",0.562999964,0,0,1,0,NA,NA,NA,NA,NA,NA,NA,NA,NA,NA,NA,NA,NA,NA,NA,NA,NA,NA,NA,NA,NA,NA,NA,NA
"420","stim/objects/Instruments/flutetrans2.png",356,25,349,0.7,"stim/33.jpeg",3,3,2,1,"Instruments",2,1,"right","right",0.605999947,1,1,1,0,163,25,1,0.7,2,"stim/33.jpeg",3,3,"stim/33.jpeg",1,"right",0.919999838,1,4,2.034999847,2,0.585999727,163,0,0,NA,0,NA,1
"460","stim/objects/Instruments/marimba.png",357,25,350,0.9,"stim/51.jpeg",5,1,3,2,"Instruments",2,3,"right","right",0.57400012,1,1,1,0,NA,NA,NA,NA,NA,NA,NA,NA,NA,NA,NA,NA,NA,NA,NA,NA,NA,NA,NA,NA,NA,NA,NA,NA
"552","stim/objects/Instruments/speaker2.png",358,25,351,0.1,"stim/63.jpeg",6,3,3,1,"Instruments",2,2,"right","left",0.592000008,0,0,1,0,133,25,1,0.1,2,"stim/63.jpeg",6,3,"stim/63.jpeg",2,"right",0.927999973,3,2,0.701999903,2,1.055999756,133,0,0,NA,1,NA,1
"549","stim/objects/Instruments/saxophone.png",359,25,352,0.5,"stim/12.jpeg",1,2,1,1,"Instruments",2,3,"right","left",0.796999931,0,0,1,0,72,25,1,0.5,1,"stim/12.jpeg",1,2,"stim/12.jpeg",3,"left",0.808000088,3,3,1.429999828,2,0.690999985,72,1,0,0,0,0,1
"317","stim/objects/HouseObjects/lintroller.png",360,25,353,0.9,"stim/61.jpeg",6,1,3,2,"HouseObjects",1,4,"left","left",0.549999952,1,1,1,0,NA,NA,NA,NA,NA,NA,NA,NA,NA,NA,NA,NA,NA,NA,NA,NA,NA,NA,NA,NA,NA,NA,NA,NA
"318","stim/objects/HouseObjects/lintroller.png",361,25,354,0.9,"stim/64.jpeg",6,4,3,2,"HouseObjects",1,4,"left","left",0.549999952,1,1,1,0,NA,NA,NA,NA,NA,NA,NA,NA,NA,NA,NA,NA,NA,NA,NA,NA,NA,NA,NA,NA,NA,NA,NA,NA
"462","stim/objects/Instruments/marimba.png",362,25,355,0.9,"stim/52.jpeg",5,2,3,2,"Instruments",2,3,"right","right",0.612999916,1,1,1,0,NA,NA,NA,NA,NA,NA,NA,NA,NA,NA,NA,NA,NA,NA,NA,NA,NA,NA,NA,NA,NA,NA,NA,NA
"333","stim/objects/HouseObjects/match.png",363,25,356,0.9,"stim/63.jpeg",6,3,3,2,"HouseObjects",1,2,"left","left",0.538000107,1,1,1,0,NA,NA,NA,NA,NA,NA,NA,NA,NA,NA,NA,NA,NA,NA,NA,NA,NA,NA,NA,NA,NA,NA,NA,NA
"349","stim/objects/HouseObjects/pan.png",364,25,357,0.9,"stim/64.jpeg",6,4,3,2,"HouseObjects",1,1,"left","left",0.388999939,1,1,1,0,NA,NA,NA,NA,NA,NA,NA,NA,NA,NA,NA,NA,NA,NA,NA,NA,NA,NA,NA,NA,NA,NA,NA,NA
"298","stim/objects/HouseObjects/knife.png",365,25,358,0.9,"stim/64.jpeg",6,4,3,2,"HouseObjects",1,2,"left","left",0.496000051,1,1,1,0,NA,NA,NA,NA,NA,NA,NA,NA,NA,NA,NA,NA,NA,NA,NA,NA,NA,NA,NA,NA,NA,NA,NA,NA
"272","stim/objects/HouseObjects/handbrush.png",366,25,359,0.7,"stim/43.jpeg",4,3,2,2,"HouseObjects",1,2,"left","left",0.552000046,1,1,1,0,NA,NA,NA,NA,NA,NA,NA,NA,NA,NA,NA,NA,NA,NA,NA,NA,NA,NA,NA,NA,NA,NA,NA,NA
"454","stim/objects/Instruments/maraca.png",367,25,360,0.7,"stim/33.jpeg",3,3,2,2,"Instruments",2,4,"right","right",0.677999973,1,1,1,0,NA,NA,NA,NA,NA,NA,NA,NA,NA,NA,NA,NA,NA,NA,NA,NA,NA,NA,NA,NA,NA,NA,NA,NA
"399","stim/objects/HouseObjects/thread2.png",368,25,361,0.9,"stim/63.jpeg",6,3,3,1,"HouseObjects",1,3,"left","left",0.573999882,1,1,1,0,117,25,1,0.9,1,"stim/63.jpeg",6,3,"stim/63.jpeg",3,"right",0.690999985,2,2,1.323999882,1,1.008999825,117,0,0,NA,0,NA,1
"391","stim/objects/HouseObjects/sponge2.png",369,25,362,0.9,"stim/63.jpeg",6,3,3,1,"HouseObjects",1,4,"left","left",0.584000111,1,1,1,0,86,25,1,0.9,1,"stim/63.jpeg",6,3,"stim/63.jpeg",4,"left",0.774999857,4,3,2.635999918,3,1.105999947,86,1,1,1,0,0,1
"490","stim/objects/Instruments/musicsheet.png",370,25,363,0.9,"stim/53.jpeg",5,3,3,2,"Instruments",2,3,"right","right",0.593000174,1,1,1,0,NA,NA,NA,NA,NA,NA,NA,NA,NA,NA,NA,NA,NA,NA,NA,NA,NA,NA,NA,NA,NA,NA,NA,NA
"524","stim/objects/Instruments/oboe.png",371,25,364,0.9,"stim/52.jpeg",5,2,3,2,"Instruments",2,2,"right","right",0.732000113,1,1,1,0,NA,NA,NA,NA,NA,NA,NA,NA,NA,NA,NA,NA,NA,NA,NA,NA,NA,NA,NA,NA,NA,NA,NA,NA
"259","stim/objects/HouseObjects/garbagebin.png",372,25,365,0.5,"stim/21.jpeg",2,1,1,2,"HouseObjects",1,4,"left","left",0.670000076,1,1,1,0,NA,NA,NA,NA,NA,NA,NA,NA,NA,NA,NA,NA,NA,NA,NA,NA,NA,NA,NA,NA,NA,NA,NA,NA
"498","stim/objects/Instruments/musicsheet.png",373,25,366,0.9,"stim/54.jpeg",5,4,3,2,"Instruments",2,2,"right","right",0.638000011,1,1,1,0,NA,NA,NA,NA,NA,NA,NA,NA,NA,NA,NA,NA,NA,NA,NA,NA,NA,NA,NA,NA,NA,NA,NA,NA
"499","stim/objects/Instruments/musicsheet.png",374,25,367,0.9,"stim/52.jpeg",5,2,3,2,"Instruments",2,4,"right","right",0.607000113,1,1,1,0,NA,NA,NA,NA,NA,NA,NA,NA,NA,NA,NA,NA,NA,NA,NA,NA,NA,NA,NA,NA,NA,NA,NA,NA
"500","stim/objects/Instruments/musicsheet.png",375,25,368,0.9,"stim/51.jpeg",5,1,3,2,"Instruments",2,4,"right","right",0.683000088,1,1,1,0,NA,NA,NA,NA,NA,NA,NA,NA,NA,NA,NA,NA,NA,NA,NA,NA,NA,NA,NA,NA,NA,NA,NA,NA
"533","stim/objects/Instruments/oboe.png",376,25,369,0.9,"stim/53.jpeg",5,3,3,2,"Instruments",2,2,"right","right",0.579999924,1,1,1,0,NA,NA,NA,NA,NA,NA,NA,NA,NA,NA,NA,NA,NA,NA,NA,NA,NA,NA,NA,NA,NA,NA,NA,NA
"379","stim/objects/HouseObjects/remote2.png",377,25,370,0.1,"stim/53.jpeg",5,3,3,1,"HouseObjects",1,1,"left","right",0.574999809,0,0,1,0,147,25,1,0.1,1,"stim/53.jpeg",5,3,"stim/53.jpeg",1,"left",1.120000124,2,1,0.809000015,1,0.827000141,147,1,0,0,1,1,1
"334","stim/objects/HouseObjects/match.png",378,25,371,0.9,"stim/62.jpeg",6,2,3,2,"HouseObjects",1,3,"left","left",0.628000021,1,1,1,0,NA,NA,NA,NA,NA,NA,NA,NA,NA,NA,NA,NA,NA,NA,NA,NA,NA,NA,NA,NA,NA,NA,NA,NA
"301","stim/objects/HouseObjects/knife.png",379,25,372,0.9,"stim/63.jpeg",6,3,3,2,"HouseObjects",1,1,"left","left",0.471999884,1,1,1,0,NA,NA,NA,NA,NA,NA,NA,NA,NA,NA,NA,NA,NA,NA,NA,NA,NA,NA,NA,NA,NA,NA,NA,NA
"452","stim/objects/Instruments/maraca.png",380,25,373,0.7,"stim/31.jpeg",3,1,2,2,"Instruments",2,1,"right","left",0.421000004,0,0,1,0,NA,NA,NA,NA,NA,NA,NA,NA,NA,NA,NA,NA,NA,NA,NA,NA,NA,NA,NA,NA,NA,NA,NA,NA
"513","stim/objects/Instruments/musicstand.png",381,25,374,0.9,"stim/51.jpeg",5,1,3,2,"Instruments",2,3,"right","right",0.628999949,1,1,1,0,NA,NA,NA,NA,NA,NA,NA,NA,NA,NA,NA,NA,NA,NA,NA,NA,NA,NA,NA,NA,NA,NA,NA,NA
"444","stim/objects/Instruments/keyboard.png",382,25,375,0.7,"stim/31.jpeg",3,1,2,2,"Instruments",2,3,"right","right",0.630000114,1,1,1,0,NA,NA,NA,NA,NA,NA,NA,NA,NA,NA,NA,NA,NA,NA,NA,NA,NA,NA,NA,NA,NA,NA,NA,NA
"392","stim/objects/HouseObjects/spraybottle.png",383,25,376,0.5,"stim/24.jpeg",2,4,1,1,"HouseObjects",1,3,"left","left",0.625999928,1,1,1,0,151,25,1,0.5,2,"stim/24.jpeg",2,4,"stim/24.jpeg",3,"right",0.910999775,1,1,0.926999807,1,0.230999947,151,0,0,NA,0,NA,1
"350","stim/objects/HouseObjects/pan.png",384,25,377,0.9,"stim/64.jpeg",6,4,3,2,"HouseObjects",1,4,"left","left",0.634000063,1,1,1,0,NA,NA,NA,NA,NA,NA,NA,NA,NA,NA,NA,NA,NA,NA,NA,NA,NA,NA,NA,NA,NA,NA,NA,NA
"407","stim/objects/Instruments/drums.png",385,25,378,0.5,"stim/11.jpeg",1,1,1,2,"Instruments",2,3,"right","left",0.670000076,0,0,1,0,NA,NA,NA,NA,NA,NA,NA,NA,NA,NA,NA,NA,NA,NA,NA,NA,NA,NA,NA,NA,NA,NA,NA,NA
"370","stim/objects/HouseObjects/pitcher.png",386,25,379,0.9,"stim/62.jpeg",6,2,3,2,"HouseObjects",1,4,"left","left",0.552999973,1,1,1,0,NA,NA,NA,NA,NA,NA,NA,NA,NA,NA,NA,NA,NA,NA,NA,NA,NA,NA,NA,NA,NA,NA,NA,NA
"302","stim/objects/HouseObjects/knife.png",387,25,380,0.9,"stim/61.jpeg",6,1,3,2,"HouseObjects",1,2,"left","left",0.516000032,1,1,1,0,NA,NA,NA,NA,NA,NA,NA,NA,NA,NA,NA,NA,NA,NA,NA,NA,NA,NA,NA,NA,NA,NA,NA,NA
"303","stim/objects/HouseObjects/knife.png",388,25,381,0.9,"stim/63.jpeg",6,3,3,2,"HouseObjects",1,1,"left","left",0.529999971,1,1,1,0,NA,NA,NA,NA,NA,NA,NA,NA,NA,NA,NA,NA,NA,NA,NA,NA,NA,NA,NA,NA,NA,NA,NA,NA
"534","stim/objects/Instruments/oboe.png",389,25,382,0.9,"stim/53.jpeg",5,3,3,2,"Instruments",2,4,"right","right",0.756000042,1,1,1,0,NA,NA,NA,NA,NA,NA,NA,NA,NA,NA,NA,NA,NA,NA,NA,NA,NA,NA,NA,NA,NA,NA,NA,NA
"260","stim/objects/HouseObjects/garbagebin.png",390,25,383,0.5,"stim/24.jpeg",2,4,1,2,"HouseObjects",1,4,"left","left",0.661000013,1,1,1,0,NA,NA,NA,NA,NA,NA,NA,NA,NA,NA,NA,NA,NA,NA,NA,NA,NA,NA,NA,NA,NA,NA,NA,NA
"358","stim/objects/HouseObjects/pan2.png",391,25,384,0.1,"stim/54.jpeg",5,4,3,1,"HouseObjects",1,3,"left","right",0.736000061,0,0,1,0,136,25,1,0.1,1,"stim/54.jpeg",5,4,"stim/54.jpeg",3,"left",1.125999928,3,3,1.024999857,1,1.629999876,136,1,0,0,0,0,1
"431","stim/objects/Instruments/guitarcase.png",392,25,385,0.5,"stim/21.jpeg",2,1,1,2,"Instruments",2,1,"right","left",0.705000162,0,0,1,0,NA,NA,NA,NA,NA,NA,NA,NA,NA,NA,NA,NA,NA,NA,NA,NA,NA,NA,NA,NA,NA,NA,NA,NA
"453","stim/objects/Instruments/maraca.png",393,25,386,0.7,"stim/34.jpeg",3,4,2,2,"Instruments",2,2,"right","right",0.660000086,1,1,1,0,NA,NA,NA,NA,NA,NA,NA,NA,NA,NA,NA,NA,NA,NA,NA,NA,NA,NA,NA,NA,NA,NA,NA,NA
"395","stim/objects/HouseObjects/teapot2.png",394,25,387,0.9,"stim/61.jpeg",6,1,3,1,"HouseObjects",1,1,"left","left",0.664000034,1,1,1,0,31,25,1,0.9,1,"stim/61.jpeg",6,1,"stim/61.jpeg",1,"left",0.914999962,4,2,3.641000032,2,2.106999874,31,1,0,0,0,0,1
"440","stim/objects/Instruments/hihat.png",395,25,388,0.7,"stim/32.jpeg",3,2,2,2,"Instruments",2,2,"right","right",0.613000154,1,1,1,0,NA,NA,NA,NA,NA,NA,NA,NA,NA,NA,NA,NA,NA,NA,NA,NA,NA,NA,NA,NA,NA,NA,NA,NA
"403","stim/objects/HouseObjects/vacuumcleaner2.png",396,25,389,0.9,"stim/61.jpeg",6,1,3,1,"HouseObjects",1,1,"left","left",0.618999958,1,1,1,0,148,25,1,0.9,1,"stim/61.jpeg",6,1,"stim/61.jpeg",1,"right",2.799000025,3,2,1.907999754,2,0.471999884,148,0,0,NA,0,NA,1
"264","stim/objects/HouseObjects/glass2.png",397,25,390,0.7,"stim/42.jpeg",4,2,2,1,"HouseObjects",1,2,"left","left",0.590000153,1,1,1,0,114,25,1,0.7,1,"stim/42.jpeg",4,2,"stim/42.jpeg",2,"left",0.773000002,4,2,4.921999931,3,0.853999853,114,1,1,1,0,0,1
"351","stim/objects/HouseObjects/pan.png",398,25,391,0.9,"stim/62.jpeg",6,2,3,2,"HouseObjects",1,2,"left","left",0.555999994,1,1,1,0,NA,NA,NA,NA,NA,NA,NA,NA,NA,NA,NA,NA,NA,NA,NA,NA,NA,NA,NA,NA,NA,NA,NA,NA
"276","stim/objects/HouseObjects/handvacuum.png",399,25,392,0.7,"stim/44.jpeg",4,4,2,2,"HouseObjects",1,2,"left","left",0.66899991,1,1,1,0,NA,NA,NA,NA,NA,NA,NA,NA,NA,NA,NA,NA,NA,NA,NA,NA,NA,NA,NA,NA,NA,NA,NA,NA
"283","stim/objects/HouseObjects/ironingboard.png",400,25,393,0.7,"stim/44.jpeg",4,4,2,2,"HouseObjects",1,2,"left","left",0.512000084,1,1,1,0,NA,NA,NA,NA,NA,NA,NA,NA,NA,NA,NA,NA,NA,NA,NA,NA,NA,NA,NA,NA,NA,NA,NA,NA
"242","stim/objects/HouseObjects/coffee.png",401,25,394,0.5,"stim/11.jpeg",1,1,1,2,"HouseObjects",1,2,"left","left",0.921000004,1,1,1,0,NA,NA,NA,NA,NA,NA,NA,NA,NA,NA,NA,NA,NA,NA,NA,NA,NA,NA,NA,NA,NA,NA,NA,NA
"432","stim/objects/Instruments/guitarcase2.png",402,25,395,0.3,"stim/41.jpeg",4,1,2,1,"Instruments",2,4,"right","left",0.532000065,0,0,1,0,7,25,1,0.3,2,"stim/41.jpeg",4,1,"stim/41.jpeg",4,"right",1.822999954,2,2,3.532999992,3,1.230000019,7,0,0,NA,0,NA,1
"556","stim/objects/Instruments/timbal2.png",403,25,396,0.1,"stim/61.jpeg",6,1,3,1,"Instruments",2,2,"right","left",0.542000055,0,0,1,0,94,25,1,0.1,2,"stim/61.jpeg",6,1,"stim/61.jpeg",2,"left",0.890999794,3,4,1.991999865,2,0.904999971,94,1,0,0,1,1,1
"280","stim/objects/HouseObjects/iron.png",404,25,397,0.7,"stim/44.jpeg",4,4,2,2,"HouseObjects",1,3,"left","left",0.743999958,1,1,1,0,NA,NA,NA,NA,NA,NA,NA,NA,NA,NA,NA,NA,NA,NA,NA,NA,NA,NA,NA,NA,NA,NA,NA,NA
"433","stim/objects/Instruments/harmonica.png",405,25,398,0.5,"stim/23.jpeg",2,3,1,2,"Instruments",2,1,"right","right",0.732000113,1,1,1,0,NA,NA,NA,NA,NA,NA,NA,NA,NA,NA,NA,NA,NA,NA,NA,NA,NA,NA,NA,NA,NA,NA,NA,NA
"515","stim/objects/Instruments/musicstand.png",406,25,399,0.9,"stim/51.jpeg",5,1,3,2,"Instruments",2,4,"right","right",0.654000044,1,1,1,0,NA,NA,NA,NA,NA,NA,NA,NA,NA,NA,NA,NA,NA,NA,NA,NA,NA,NA,NA,NA,NA,NA,NA,NA
"341","stim/objects/HouseObjects/match2.png",407,25,400,0.1,"stim/53.jpeg",5,3,3,1,"HouseObjects",1,3,"left","right",0.555000067,0,0,1,0,172,25,1,0.1,1,"stim/53.jpeg",5,3,"stim/53.jpeg",3,"left",1.461999893,3,2,1.529000044,3,0.961999893,172,1,0,0,1,1,1
"451","stim/objects/Instruments/laud2.png",408,25,401,0.3,"stim/42.jpeg",4,2,2,1,"Instruments",2,3,"right","left",0.592999935,0,0,1,0,84,25,1,0.3,2,"stim/42.jpeg",4,2,"stim/42.jpeg",3,"left",1.051999807,3,4,1.371999741,2,0.996999979,84,1,0,0,0,0,1
"362","stim/objects/HouseObjects/pitcher.png",409,25,402,0.9,"stim/64.jpeg",6,4,3,2,"HouseObjects",1,2,"left","left",0.532999992,1,1,1,0,NA,NA,NA,NA,NA,NA,NA,NA,NA,NA,NA,NA,NA,NA,NA,NA,NA,NA,NA,NA,NA,NA,NA,NA
"494","stim/objects/Instruments/musicsheet.png",410,25,403,0.9,"stim/53.jpeg",5,3,3,2,"Instruments",2,1,"right","right",0.59100008,1,1,1,0,NA,NA,NA,NA,NA,NA,NA,NA,NA,NA,NA,NA,NA,NA,NA,NA,NA,NA,NA,NA,NA,NA,NA,NA
"383","stim/objects/HouseObjects/rug2.png",411,25,404,0.1,"stim/51.jpeg",5,1,3,1,"HouseObjects",1,2,"left","right",0.565999985,0,0,1,0,130,25,1,0.1,1,"stim/51.jpeg",5,1,"stim/51.jpeg",2,"left",0.904999971,2,3,0.92599988,2,0.976000071,130,1,0,0,1,1,1
"248","stim/objects/HouseObjects/dishsoap.png",412,25,405,0.5,"stim/14.jpeg",1,4,1,2,"HouseObjects",1,1,"left","left",0.610999823,1,1,1,0,NA,NA,NA,NA,NA,NA,NA,NA,NA,NA,NA,NA,NA,NA,NA,NA,NA,NA,NA,NA,NA,NA,NA,NA
"377","stim/objects/HouseObjects/recyclingbin2.png",413,25,406,0.1,"stim/52.jpeg",5,2,3,1,"HouseObjects",1,3,"left","right",0.701999903,0,0,1,0,62,25,1,0.1,1,"stim/52.jpeg",5,2,"stim/52.jpeg",3,"left",0.947000027,4,4,4.088999987,1,0.887000084,62,1,0,0,0,0,1
"354","stim/objects/HouseObjects/pan.png",414,25,407,0.9,"stim/61.jpeg",6,1,3,2,"HouseObjects",1,1,"left","left",0.572000027,1,1,1,0,NA,NA,NA,NA,NA,NA,NA,NA,NA,NA,NA,NA,NA,NA,NA,NA,NA,NA,NA,NA,NA,NA,NA,NA
"542","stim/objects/Instruments/panflute2.png",415,25,408,0.9,"stim/54.jpeg",5,4,3,1,"Instruments",2,3,"right","right",0.597000122,1,1,1,0,74,25,1,0.9,2,"stim/54.jpeg",5,4,"stim/54.jpeg",3,"left",0.968999863,2,3,1.433999777,2,1.260999918,74,1,0,0,0,0,1
"258","stim/objects/HouseObjects/flyswatter2.png",416,25,409,0.7,"stim/44.jpeg",4,4,2,1,"HouseObjects",1,1,"left","left",0.513000011,1,1,1,0,146,25,1,0.7,1,"stim/44.jpeg",4,4,"stim/44.jpeg",1,"left",1.047999859,4,4,2.105999947,1,0.517999887,146,1,1,1,1,1,1
"286","stim/objects/HouseObjects/ironingboard2.png",417,25,410,0.7,"stim/44.jpeg",4,4,2,1,"HouseObjects",1,1,"left","left",0.659000158,1,1,1,0,25,25,1,0.7,1,"stim/44.jpeg",4,4,"stim/44.jpeg",1,"left",0.963999987,3,4,1.671000004,2,1.145999908,25,1,1,1,0,0,1
"281","stim/objects/HouseObjects/iron.png",418,25,411,0.7,"stim/43.jpeg",4,3,2,2,"HouseObjects",1,3,"left","left",0.478999853,1,1,1,0,NA,NA,NA,NA,NA,NA,NA,NA,NA,NA,NA,NA,NA,NA,NA,NA,NA,NA,NA,NA,NA,NA,NA,NA
"535","stim/objects/Instruments/oboe.png",419,25,412,0.9,"stim/54.jpeg",5,4,3,2,"Instruments",2,3,"right","right",0.68599987,1,1,1,0,NA,NA,NA,NA,NA,NA,NA,NA,NA,NA,NA,NA,NA,NA,NA,NA,NA,NA,NA,NA,NA,NA,NA,NA
"512","stim/objects/Instruments/musicstand.png",420,25,413,0.9,"stim/52.jpeg",5,2,3,2,"Instruments",2,2,"right","right",0.639000177,1,1,1,0,NA,NA,NA,NA,NA,NA,NA,NA,NA,NA,NA,NA,NA,NA,NA,NA,NA,NA,NA,NA,NA,NA,NA,NA
"353","stim/objects/HouseObjects/pan.png",421,25,414,0.9,"stim/61.jpeg",6,1,3,2,"HouseObjects",1,1,"left","left",0.510999918,1,1,1,0,NA,NA,NA,NA,NA,NA,NA,NA,NA,NA,NA,NA,NA,NA,NA,NA,NA,NA,NA,NA,NA,NA,NA,NA
"478","stim/objects/Instruments/metronome.png",422,25,415,0.9,"stim/51.jpeg",5,1,3,2,"Instruments",2,1,"right","left",0.545000076,0,0,1,0,NA,NA,NA,NA,NA,NA,NA,NA,NA,NA,NA,NA,NA,NA,NA,NA,NA,NA,NA,NA,NA,NA,NA,NA
"506","stim/objects/Instruments/musicsheet2.png",423,25,416,0.9,"stim/51.jpeg",5,1,3,1,"Instruments",2,3,"right","right",0.676999807,1,1,1,0,38,25,1,0.9,2,"stim/51.jpeg",5,1,"stim/51.jpeg",3,"left",0.776000023,4,1,5.592999935,3,1.819000006,38,1,1,1,1,1,1
"463","stim/objects/Instruments/marimba.png",424,25,417,0.9,"stim/54.jpeg",5,4,3,2,"Instruments",2,2,"right","right",0.76699996,1,1,1,0,NA,NA,NA,NA,NA,NA,NA,NA,NA,NA,NA,NA,NA,NA,NA,NA,NA,NA,NA,NA,NA,NA,NA,NA
"413","stim/objects/Instruments/electricguitar.png",425,25,418,0.5,"stim/12.jpeg",1,2,1,2,"Instruments",2,2,"right","left",0.738999844,0,0,1,0,NA,NA,NA,NA,NA,NA,NA,NA,NA,NA,NA,NA,NA,NA,NA,NA,NA,NA,NA,NA,NA,NA,NA,NA
"339","stim/objects/HouseObjects/match.png",426,25,419,0.9,"stim/61.jpeg",6,1,3,2,"HouseObjects",1,3,"left","left",0.562000036,1,1,1,0,NA,NA,NA,NA,NA,NA,NA,NA,NA,NA,NA,NA,NA,NA,NA,NA,NA,NA,NA,NA,NA,NA,NA,NA
"429","stim/objects/Instruments/grandpiano2.png",427,25,420,0.3,"stim/44.jpeg",4,4,2,1,"Instruments",2,4,"right","right",0.838999987,1,1,1,0,145,25,1,0.3,2,"stim/44.jpeg",4,4,"stim/44.jpeg",4,"right",3.055000067,2,4,1.450000048,1,1.376999855,145,0,1,NA,0,NA,1
"425","stim/objects/Instruments/gong.png",428,25,421,0.5,"stim/23.jpeg",2,3,1,2,"Instruments",2,2,"right","left",0.648000002,0,0,1,0,NA,NA,NA,NA,NA,NA,NA,NA,NA,NA,NA,NA,NA,NA,NA,NA,NA,NA,NA,NA,NA,NA,NA,NA
"409","stim/objects/Instruments/electricdrumset.png",429,25,422,0.5,"stim/12.jpeg",1,2,1,2,"Instruments",2,1,"right","left",0.694999933,0,0,1,0,NA,NA,NA,NA,NA,NA,NA,NA,NA,NA,NA,NA,NA,NA,NA,NA,NA,NA,NA,NA,NA,NA,NA,NA
"502","stim/objects/Instruments/musicsheet.png",430,25,423,0.9,"stim/54.jpeg",5,4,3,2,"Instruments",2,1,"right","right",0.669000149,1,1,1,0,NA,NA,NA,NA,NA,NA,NA,NA,NA,NA,NA,NA,NA,NA,NA,NA,NA,NA,NA,NA,NA,NA,NA,NA
"559","stim/objects/Instruments/trombone.png",431,25,424,0.5,"stim/24.jpeg",2,4,1,1,"Instruments",2,1,"right","right",0.588999987,1,1,1,0,188,25,1,0.5,2,"stim/24.jpeg",2,4,"stim/24.jpeg",1,"right",0.902999878,2,2,0.88499999,2,0.809999943,188,0,0,NA,0,NA,1
"466","stim/objects/Instruments/marimba.png",432,25,425,0.9,"stim/53.jpeg",5,3,3,2,"Instruments",2,4,"right","right",0.701999903,1,1,1,0,NA,NA,NA,NA,NA,NA,NA,NA,NA,NA,NA,NA,NA,NA,NA,NA,NA,NA,NA,NA,NA,NA,NA,NA
"263","stim/objects/HouseObjects/glass.png",433,25,426,0.5,"stim/21.jpeg",2,1,1,2,"HouseObjects",1,3,"left","right",0.60800004,0,0,1,0,NA,NA,NA,NA,NA,NA,NA,NA,NA,NA,NA,NA,NA,NA,NA,NA,NA,NA,NA,NA,NA,NA,NA,NA
"508","stim/objects/Instruments/musicstand.png",434,25,427,0.9,"stim/52.jpeg",5,2,3,2,"Instruments",2,4,"right","right",0.566999912,1,1,1,0,NA,NA,NA,NA,NA,NA,NA,NA,NA,NA,NA,NA,NA,NA,NA,NA,NA,NA,NA,NA,NA,NA,NA,NA
"316","stim/objects/HouseObjects/lintroller.png",435,25,428,0.9,"stim/61.jpeg",6,1,3,2,"HouseObjects",1,2,"left","left",0.587000132,1,1,1,0,NA,NA,NA,NA,NA,NA,NA,NA,NA,NA,NA,NA,NA,NA,NA,NA,NA,NA,NA,NA,NA,NA,NA,NA
"569","stim/objects/Instruments/xylophone.png",436,25,429,0.7,"stim/32.jpeg",3,2,2,1,"Instruments",2,2,"right","left",0.660999775,0,0,1,0,107,25,1,0.7,2,"stim/32.jpeg",3,2,"stim/32.jpeg",2,"right",1.022999763,1,4,2.94299984,2,0.654000044,107,0,0,NA,1,NA,1
"372","stim/objects/HouseObjects/pitcher.png",437,25,430,0.9,"stim/63.jpeg",6,3,3,2,"HouseObjects",1,2,"left","left",0.546000004,1,1,1,0,NA,NA,NA,NA,NA,NA,NA,NA,NA,NA,NA,NA,NA,NA,NA,NA,NA,NA,NA,NA,NA,NA,NA,NA
"428","stim/objects/Instruments/grandpiano.png",438,25,431,0.5,"stim/21.jpeg",2,1,1,2,"Instruments",2,3,"right","right",0.60800004,1,1,1,0,NA,NA,NA,NA,NA,NA,NA,NA,NA,NA,NA,NA,NA,NA,NA,NA,NA,NA,NA,NA,NA,NA,NA,NA
"558","stim/objects/Instruments/triangle2.png",439,25,432,0.1,"stim/62.jpeg",6,2,3,1,"Instruments",2,2,"right","left",0.54700017,0,0,1,0,89,25,1,0.1,2,"stim/62.jpeg",6,2,"stim/62.jpeg",2,"left",3.039000034,3,2,0.75999999,1,0.822999954,89,1,1,1,0,0,1
"562","stim/objects/Instruments/trumpet2.png",440,25,433,0.1,"stim/64.jpeg",6,4,3,1,"Instruments",2,4,"right","left",0.559000015,0,0,1,0,108,25,1,0.1,2,"stim/64.jpeg",6,4,"stim/64.jpeg",4,"left",0.876999855,2,3,1.162999868,2,0.846999884,108,1,0,0,0,0,1
"328","stim/objects/HouseObjects/match.png",441,25,434,0.9,"stim/64.jpeg",6,4,3,2,"HouseObjects",1,1,"left","left",0.705999851,1,1,1,0,NA,NA,NA,NA,NA,NA,NA,NA,NA,NA,NA,NA,NA,NA,NA,NA,NA,NA,NA,NA,NA,NA,NA,NA
"465","stim/objects/Instruments/marimba.png",442,25,435,0.9,"stim/52.jpeg",5,2,3,2,"Instruments",2,2,"right","right",0.638000011,1,1,1,0,NA,NA,NA,NA,NA,NA,NA,NA,NA,NA,NA,NA,NA,NA,NA,NA,NA,NA,NA,NA,NA,NA,NA,NA
"352","stim/objects/HouseObjects/pan.png",443,25,436,0.9,"stim/61.jpeg",6,1,3,2,"HouseObjects",1,1,"left","left",0.54700017,1,1,1,0,NA,NA,NA,NA,NA,NA,NA,NA,NA,NA,NA,NA,NA,NA,NA,NA,NA,NA,NA,NA,NA,NA,NA,NA
"485","stim/objects/Instruments/metronome.png",444,25,437,0.9,"stim/52.jpeg",5,2,3,2,"Instruments",2,3,"right","right",0.674999952,1,1,1,0,NA,NA,NA,NA,NA,NA,NA,NA,NA,NA,NA,NA,NA,NA,NA,NA,NA,NA,NA,NA,NA,NA,NA,NA
"520","stim/objects/Instruments/musicstand.png",445,25,438,0.9,"stim/53.jpeg",5,3,3,2,"Instruments",2,2,"right","right",0.692000151,1,1,1,0,NA,NA,NA,NA,NA,NA,NA,NA,NA,NA,NA,NA,NA,NA,NA,NA,NA,NA,NA,NA,NA,NA,NA,NA
"449","stim/objects/Instruments/laud.png",446,25,439,0.7,"stim/32.jpeg",3,2,2,2,"Instruments",2,2,"right","right",0.665999889,1,1,1,0,NA,NA,NA,NA,NA,NA,NA,NA,NA,NA,NA,NA,NA,NA,NA,NA,NA,NA,NA,NA,NA,NA,NA,NA
"254","stim/objects/HouseObjects/dustpan.png",447,25,440,0.5,"stim/12.jpeg",1,2,1,2,"HouseObjects",1,3,"left","right",0.936000109,0,0,1,0,NA,NA,NA,NA,NA,NA,NA,NA,NA,NA,NA,NA,NA,NA,NA,NA,NA,NA,NA,NA,NA,NA,NA,NA
"435","stim/objects/Instruments/harmonica2.png",448,25,441,0.3,"stim/42.jpeg",4,2,2,1,"Instruments",2,2,"right","left",0.894999981,0,0,1,0,19,25,1,0.3,2,"stim/42.jpeg",4,2,"stim/42.jpeg",2,"left",0.948999882,4,2,5.243000031,4,0.556999922,19,1,1,1,0,0,1
"315","stim/objects/HouseObjects/lintroller.png",449,25,442,0.9,"stim/62.jpeg",6,2,3,2,"HouseObjects",1,3,"left","left",0.519999981,1,1,1,0,NA,NA,NA,NA,NA,NA,NA,NA,NA,NA,NA,NA,NA,NA,NA,NA,NA,NA,NA,NA,NA,NA,NA,NA
"245","stim/objects/HouseObjects/cushion.png",450,25,443,0.5,"stim/13.jpeg",1,3,1,2,"HouseObjects",1,3,"left","left",0.729000092,1,1,1,0,NA,NA,NA,NA,NA,NA,NA,NA,NA,NA,NA,NA,NA,NA,NA,NA,NA,NA,NA,NA,NA,NA,NA,NA
"419","stim/objects/Instruments/flutetrans.png",451,25,444,0.5,"stim/11.jpeg",1,1,1,2,"Instruments",2,3,"right","left",0.9150002,0,0,1,0,NA,NA,NA,NA,NA,NA,NA,NA,NA,NA,NA,NA,NA,NA,NA,NA,NA,NA,NA,NA,NA,NA,NA,NA
"439","stim/objects/Instruments/harp2.png",452,25,445,0.3,"stim/43.jpeg",4,3,2,1,"Instruments",2,4,"right","left",0.611999989,0,0,1,0,50,25,1,0.3,2,"stim/43.jpeg",4,3,"stim/43.jpeg",4,"left",1.068000078,4,4,3.069999933,2,0.926999807,50,1,0,0,0,0,1
"275","stim/objects/HouseObjects/handvacuum.png",453,25,446,0.7,"stim/43.jpeg",4,3,2,2,"HouseObjects",1,4,"left","right",0.59800005,0,0,1,0,NA,NA,NA,NA,NA,NA,NA,NA,NA,NA,NA,NA,NA,NA,NA,NA,NA,NA,NA,NA,NA,NA,NA,NA
"446","stim/objects/Instruments/keyboard.png",454,25,447,0.7,"stim/32.jpeg",3,2,2,2,"Instruments",2,3,"right","right",0.624000072,1,1,1,0,NA,NA,NA,NA,NA,NA,NA,NA,NA,NA,NA,NA,NA,NA,NA,NA,NA,NA,NA,NA,NA,NA,NA,NA
"503","stim/objects/Instruments/musicsheet.png",455,25,448,0.9,"stim/54.jpeg",5,4,3,2,"Instruments",2,3,"right","right",0.578999996,1,1,1,0,NA,NA,NA,NA,NA,NA,NA,NA,NA,NA,NA,NA,NA,NA,NA,NA,NA,NA,NA,NA,NA,NA,NA,NA
"257","stim/objects/HouseObjects/flyswatter.png",456,25,449,0.5,"stim/23.jpeg",2,3,1,2,"HouseObjects",1,4,"left","right",0.836000204,0,0,1,0,NA,NA,NA,NA,NA,NA,NA,NA,NA,NA,NA,NA,NA,NA,NA,NA,NA,NA,NA,NA,NA,NA,NA,NA
"269","stim/objects/HouseObjects/hairdryer.png",457,25,450,0.5,"stim/23.jpeg",2,3,1,2,"HouseObjects",1,4,"left","left",0.573999882,1,1,1,0,NA,NA,NA,NA,NA,NA,NA,NA,NA,NA,NA,NA,NA,NA,NA,NA,NA,NA,NA,NA,NA,NA,NA,NA
"289","stim/objects/HouseObjects/key.png",458,25,451,0.7,"stim/42.jpeg",4,2,2,2,"HouseObjects",1,1,"left","left",0.679000139,1,1,1,0,NA,NA,NA,NA,NA,NA,NA,NA,NA,NA,NA,NA,NA,NA,NA,NA,NA,NA,NA,NA,NA,NA,NA,NA
"538","stim/objects/Instruments/oboe.png",459,25,452,0.9,"stim/51.jpeg",5,1,3,2,"Instruments",2,1,"right","right",0.636999846,1,1,1,0,NA,NA,NA,NA,NA,NA,NA,NA,NA,NA,NA,NA,NA,NA,NA,NA,NA,NA,NA,NA,NA,NA,NA,NA
"411","stim/objects/Instruments/electricdrumset2.png",460,25,453,0.7,"stim/34.jpeg",3,4,2,1,"Instruments",2,1,"right","right",0.683000088,1,1,1,0,175,25,1,0.7,2,"stim/34.jpeg",3,4,"stim/34.jpeg",1,"left",0.915999889,3,1,0.789999962,1,0.943999767,175,1,0,0,1,1,1
"523","stim/objects/Instruments/musicstand2.png",461,25,454,0.9,"stim/52.jpeg",5,2,3,1,"Instruments",2,4,"right","right",0.618999958,1,1,1,0,24,25,1,0.9,2,"stim/52.jpeg",5,2,"stim/52.jpeg",4,"left",0.84499979,4,2,1.564999819,3,1.271999836,24,1,1,1,0,0,1
"373","stim/objects/HouseObjects/pitcher.png",462,25,455,0.9,"stim/61.jpeg",6,1,3,2,"HouseObjects",1,1,"left","right",0.496000051,0,0,1,0,NA,NA,NA,NA,NA,NA,NA,NA,NA,NA,NA,NA,NA,NA,NA,NA,NA,NA,NA,NA,NA,NA,NA,NA
"331","stim/objects/HouseObjects/match.png",463,25,456,0.9,"stim/63.jpeg",6,3,3,2,"HouseObjects",1,1,"left","left",0.616999865,1,1,1,0,NA,NA,NA,NA,NA,NA,NA,NA,NA,NA,NA,NA,NA,NA,NA,NA,NA,NA,NA,NA,NA,NA,NA,NA
"396","stim/objects/HouseObjects/thermometer.png",464,25,457,0.3,"stim/31.jpeg",3,1,2,1,"HouseObjects",1,1,"left","left",0.796000004,1,1,1,0,28,25,1,0.3,1,"stim/31.jpeg",3,1,"stim/31.jpeg",1,"left",1.06799984,2,1,2.561999798,1,0.471999884,28,1,1,1,1,1,1
"464","stim/objects/Instruments/marimba.png",465,25,458,0.9,"stim/52.jpeg",5,2,3,2,"Instruments",2,2,"right","right",0.600999832,1,1,1,0,NA,NA,NA,NA,NA,NA,NA,NA,NA,NA,NA,NA,NA,NA,NA,NA,NA,NA,NA,NA,NA,NA,NA,NA
"468","stim/objects/Instruments/marimba.png",466,25,459,0.9,"stim/52.jpeg",5,2,3,2,"Instruments",2,3,"right","right",0.636000156,1,1,1,0,NA,NA,NA,NA,NA,NA,NA,NA,NA,NA,NA,NA,NA,NA,NA,NA,NA,NA,NA,NA,NA,NA,NA,NA
"565","stim/objects/Instruments/violin.png",467,25,460,0.7,"stim/34.jpeg",3,4,2,1,"Instruments",2,4,"right","right",0.624000072,1,1,1,0,174,25,1,0.7,2,"stim/34.jpeg",3,4,"stim/34.jpeg",4,"left",4.19299984,3,2,8.932999849,2,1.085999966,174,1,0,0,0,0,1
"374","stim/objects/HouseObjects/pitcher.png",468,25,461,0.9,"stim/61.jpeg",6,1,3,2,"HouseObjects",1,3,"left","left",0.610000134,1,1,1,0,NA,NA,NA,NA,NA,NA,NA,NA,NA,NA,NA,NA,NA,NA,NA,NA,NA,NA,NA,NA,NA,NA,NA,NA
