"","participant","trialN","trial_cond","scn_file","scn_cat","scn_inst","scn_condition","fillers","obj_cat","obj_cat_num","obj_file","quadrant","corr_ans","key_resp_trial.keys","key_resp_trial.rt","trial_acc","trial_acc_manual","group"
"248",25,241,0.5,"stim/13.jpeg",1,3,1,2,"Instruments",2,"stim/objects/Instruments/flute.png",2,"right","left",0.768999815,0,0,1
"249",25,242,0.1,"stim/63.jpeg",6,3,3,1,"Instruments",2,"stim/objects/Instruments/vuvuzela2.png",2,"right","left",0.710000038,0,0,1
"250",25,243,0.9,"stim/64.jpeg",6,4,3,1,"HouseObjects",1,"stim/objects/HouseObjects/towel2.png",2,"left","left",0.595000029,1,1,1
"251",25,244,0.9,"stim/53.jpeg",5,3,3,2,"Instruments",2,"stim/objects/Instruments/metronome.png",2,"right","right",0.677999973,1,1,1
"252",25,245,0.5,"stim/14.jpeg",1,4,1,2,"Instruments",2,"stim/objects/Instruments/drums.png",2,"right","left",0.640000105,0,0,1
"253",25,246,0.9,"stim/53.jpeg",5,3,3,2,"Instruments",2,"stim/objects/Instruments/oboe.png",1,"right","right",0.710000038,1,1,1
"254",25,247,0.9,"stim/64.jpeg",6,4,3,2,"HouseObjects",1,"stim/objects/HouseObjects/pitcher.png",3,"left","left",0.572999954,1,1,1
"255",25,248,0.9,"stim/64.jpeg",6,4,3,2,"HouseObjects",1,"stim/objects/HouseObjects/match.png",3,"left","left",0.663000107,1,1,1
"256",25,249,0.9,"stim/63.jpeg",6,3,3,2,"HouseObjects",1,"stim/objects/HouseObjects/pan.png",1,"left","left",0.55099988,1,1,1
"257",25,250,0.9,"stim/54.jpeg",5,4,3,2,"Instruments",2,"stim/objects/Instruments/marimba.png",4,"right","right",0.60800004,1,1,1
"258",25,251,0.9,"stim/51.jpeg",5,1,3,2,"Instruments",2,"stim/objects/Instruments/metronome.png",4,"right","right",0.653000116,1,1,1
"259",25,252,0.3,"stim/43.jpeg",4,3,2,1,"Instruments",2,"stim/objects/Instruments/maraca2.png",2,"right","left",0.757999897,0,0,1
"260",25,253,0.9,"stim/61.jpeg",6,1,3,2,"HouseObjects",1,"stim/objects/HouseObjects/lintroller.png",3,"left","left",0.744000196,1,1,1
"261",25,254,0.9,"stim/51.jpeg",5,1,3,2,"Instruments",2,"stim/objects/Instruments/oboe.png",3,"right","right",0.552999973,1,1,1
"262",25,255,0.9,"stim/51.jpeg",5,1,3,2,"Instruments",2,"stim/objects/Instruments/musicsheet.png",2,"right","right",0.555000067,1,1,1
"263",25,256,0.9,"stim/52.jpeg",5,2,3,2,"Instruments",2,"stim/objects/Instruments/metronome.png",4,"right","right",0.834000111,1,1,1
"264",25,257,0.7,"stim/41.jpeg",4,1,2,1,"HouseObjects",1,"stim/objects/HouseObjects/garbagebin2.png",1,"left","",NA,0,0,1
"265",25,258,0.9,"stim/61.jpeg",6,1,3,2,"HouseObjects",1,"stim/objects/HouseObjects/pan.png",4,"left","left",0.776000023,1,1,1
"266",25,259,0.9,"stim/54.jpeg",5,4,3,2,"Instruments",2,"stim/objects/Instruments/marimba.png",3,"right","right",0.52699995,1,1,1
"267",25,260,0.9,"stim/53.jpeg",5,3,3,2,"Instruments",2,"stim/objects/Instruments/metronome.png",1,"right","right",0.707999945,1,1,1
"268",25,261,0.5,"stim/12.jpeg",1,2,1,2,"HouseObjects",1,"stim/objects/HouseObjects/coffee.png",3,"left","right",0.781000137,0,0,1
"269",25,262,0.5,"stim/24.jpeg",2,4,1,2,"Instruments",2,"stim/objects/Instruments/grandpiano.png",1,"right","right",0.694999933,1,1,1
"270",25,263,0.9,"stim/62.jpeg",6,2,3,2,"HouseObjects",1,"stim/objects/HouseObjects/lintroller.png",3,"left","left",0.464999914,1,1,1
"271",25,264,0.9,"stim/51.jpeg",5,1,3,2,"Instruments",2,"stim/objects/Instruments/musicsheet.png",4,"right","right",0.569000006,1,1,1
"272",25,265,0.5,"stim/22.jpeg",2,2,1,1,"Instruments",2,"stim/objects/Instruments/timbal.png",2,"right","right",0.755999804,1,1,1
"273",25,266,0.1,"stim/52.jpeg",5,2,3,1,"HouseObjects",1,"stim/objects/HouseObjects/safetypin2.png",4,"left","right",0.57799983,0,0,1
"274",25,267,0.7,"stim/33.jpeg",3,3,2,1,"Instruments",2,"stim/objects/Instruments/tuba.png",4,"right","right",0.789999962,1,1,1
"275",25,268,0.7,"stim/34.jpeg",3,4,2,2,"Instruments",2,"stim/objects/Instruments/hihat.png",4,"right","right",0.579999924,1,1,1
"276",25,269,0.9,"stim/61.jpeg",6,1,3,2,"HouseObjects",1,"stim/objects/HouseObjects/pitcher.png",2,"left","left",0.614000082,1,1,1
"277",25,270,0.9,"stim/54.jpeg",5,4,3,2,"Instruments",2,"stim/objects/Instruments/oboe.png",2,"right","right",0.636999846,1,1,1
"278",25,271,0.9,"stim/63.jpeg",6,3,3,2,"HouseObjects",1,"stim/objects/HouseObjects/pitcher.png",4,"left","left",0.575999975,1,1,1
"279",25,272,0.5,"stim/13.jpeg",1,3,1,1,"Instruments",2,"stim/objects/Instruments/pipepiano.png",2,"right","right",0.782999992,1,1,1
"280",25,273,0.5,"stim/14.jpeg",1,4,1,2,"Instruments",2,"stim/objects/Instruments/flute.png",3,"right","left",0.491000175,0,0,1
"281",25,274,0.7,"stim/41.jpeg",4,1,2,2,"HouseObjects",1,"stim/objects/HouseObjects/key.png",3,"left","left",0.728000164,1,1,1
"282",25,275,0.9,"stim/62.jpeg",6,2,3,2,"HouseObjects",1,"stim/objects/HouseObjects/lintroller.png",2,"left","left",0.568000078,1,1,1
"283",25,276,0.9,"stim/61.jpeg",6,1,3,2,"HouseObjects",1,"stim/objects/HouseObjects/match.png",2,"left","left",0.578000069,1,1,1
"284",25,277,0.5,"stim/24.jpeg",2,4,1,2,"Instruments",2,"stim/objects/Instruments/gong.png",2,"right","right",0.700000048,1,1,1
"285",25,278,0.9,"stim/64.jpeg",6,4,3,2,"HouseObjects",1,"stim/objects/HouseObjects/knife.png",4,"left","left",0.589999914,1,1,1
"286",25,279,0.1,"stim/64.jpeg",6,4,3,1,"Instruments",2,"stim/objects/Instruments/xylophone2.png",4,"right","left",0.544000149,0,0,1
"287",25,280,0.7,"stim/33.jpeg",3,3,2,2,"Instruments",2,"stim/objects/Instruments/harp.png",2,"right","right",0.850000143,1,1,1
"288",25,281,0.9,"stim/62.jpeg",6,2,3,1,"HouseObjects",1,"stim/objects/HouseObjects/wateringcan2.png",4,"left","left",0.544999838,1,1,1
"289",25,282,0.3,"stim/31.jpeg",3,1,2,1,"HouseObjects",1,"stim/objects/HouseObjects/doormat2.png",3,"left","right",0.719000101,0,0,1
"290",25,283,0.9,"stim/51.jpeg",5,1,3,2,"Instruments",2,"stim/objects/Instruments/metronome.png",3,"right","right",0.638999939,1,1,1
"291",25,284,0.9,"stim/51.jpeg",5,1,3,2,"Instruments",2,"stim/objects/Instruments/oboe.png",3,"right","right",0.592000008,1,1,1
"292",25,285,0.5,"stim/11.jpeg",1,1,1,1,"HouseObjects",1,"stim/objects/HouseObjects/rubbergloves.png",4,"left","left",0.605999947,1,1,1
"293",25,286,0.5,"stim/22.jpeg",2,2,1,2,"Instruments",2,"stim/objects/Instruments/guitarcase.png",2,"right","right",0.755000114,1,1,1
"294",25,287,0.9,"stim/53.jpeg",5,3,3,2,"Instruments",2,"stim/objects/Instruments/musicstand.png",1,"right","right",0.586999893,1,1,1
"295",25,288,0.7,"stim/32.jpeg",3,2,2,1,"Instruments",2,"stim/objects/Instruments/trumpet.png",2,"right","right",0.648000002,1,1,1
"296",25,289,0.9,"stim/61.jpeg",6,1,3,1,"HouseObjects",1,"stim/objects/HouseObjects/saw2.png",1,"left","left",0.504000187,1,1,1
"297",25,290,0.9,"stim/62.jpeg",6,2,3,2,"HouseObjects",1,"stim/objects/HouseObjects/pan.png",4,"left","left",0.690999985,1,1,1
"298",25,291,0.9,"stim/64.jpeg",6,4,3,2,"HouseObjects",1,"stim/objects/HouseObjects/lintroller.png",3,"left","left",0.549000025,1,1,1
"299",25,292,0.7,"stim/41.jpeg",4,1,2,2,"HouseObjects",1,"stim/objects/HouseObjects/iron.png",4,"left","left",0.672999859,1,1,1
"300",25,293,0.9,"stim/62.jpeg",6,2,3,2,"HouseObjects",1,"stim/objects/HouseObjects/knife.png",4,"left","left",0.641000032,1,1,1
"301",25,294,0.9,"stim/64.jpeg",6,4,3,1,"HouseObjects",1,"stim/objects/HouseObjects/spraybottle2.png",4,"left","left",0.635999918,1,1,1
"302",25,295,0.9,"stim/64.jpeg",6,4,3,2,"HouseObjects",1,"stim/objects/HouseObjects/pitcher.png",4,"left","left",0.555000067,1,1,1
"303",25,296,0.9,"stim/63.jpeg",6,3,3,2,"HouseObjects",1,"stim/objects/HouseObjects/lintroller.png",2,"left","left",0.527999878,1,1,1
"304",25,297,0.9,"stim/63.jpeg",6,3,3,2,"HouseObjects",1,"stim/objects/HouseObjects/lintroller.png",1,"left","left",0.570999861,1,1,1
"305",25,298,0.7,"stim/41.jpeg",4,1,2,2,"HouseObjects",1,"stim/objects/HouseObjects/handbrush.png",2,"left","left",0.628000021,1,1,1
"306",25,299,0.9,"stim/64.jpeg",6,4,3,2,"HouseObjects",1,"stim/objects/HouseObjects/lintroller.png",2,"left","left",0.607999802,1,1,1
"307",25,300,0.3,"stim/43.jpeg",4,3,2,1,"Instruments",2,"stim/objects/Instruments/gong2.png",4,"right","left",0.616000175,0,0,1
"308",25,301,0.9,"stim/62.jpeg",6,2,3,1,"HouseObjects",1,"stim/objects/HouseObjects/thermometer2.png",2,"left","left",0.504999876,1,1,1
"309",25,302,0.9,"stim/62.jpeg",6,2,3,2,"HouseObjects",1,"stim/objects/HouseObjects/pitcher.png",3,"left","left",0.462000132,1,1,1
"310",25,303,0.5,"stim/13.jpeg",1,3,1,2,"Instruments",2,"stim/objects/Instruments/electricguitar.png",3,"right","right",0.719000101,1,1,1
"311",25,304,0.9,"stim/52.jpeg",5,2,3,2,"Instruments",2,"stim/objects/Instruments/metronome.png",1,"right","right",0.678999901,1,1,1
"312",25,305,0.9,"stim/53.jpeg",5,3,3,2,"Instruments",2,"stim/objects/Instruments/metronome.png",2,"right","right",0.546000004,1,1,1
"313",25,306,0.5,"stim/21.jpeg",2,1,1,1,"HouseObjects",1,"stim/objects/HouseObjects/teapot.png",4,"left","left",0.753999949,1,1,1
"314",25,307,0.9,"stim/51.jpeg",5,1,3,2,"Instruments",2,"stim/objects/Instruments/metronome.png",1,"right","right",0.556999922,1,1,1
"315",25,308,0.3,"stim/44.jpeg",4,4,2,1,"Instruments",2,"stim/objects/Instruments/hihat2.png",2,"right","left",0.620999813,0,0,1
"316",25,309,0.5,"stim/14.jpeg",1,4,1,2,"HouseObjects",1,"stim/objects/HouseObjects/doormat.png",4,"left","right",0.688000202,0,0,1
"317",25,310,0.9,"stim/52.jpeg",5,2,3,2,"Instruments",2,"stim/objects/Instruments/musicstand.png",3,"right","left",0.460000038,0,0,1
"318",25,311,0.5,"stim/13.jpeg",1,3,1,1,"HouseObjects",1,"stim/objects/HouseObjects/recyclingbin.png",4,"left","right",0.659000158,0,0,1
"319",25,312,0.9,"stim/52.jpeg",5,2,3,2,"Instruments",2,"stim/objects/Instruments/musicsheet.png",2,"right","right",0.57400012,1,1,1
"320",25,313,0.5,"stim/21.jpeg",2,1,1,1,"HouseObjects",1,"stim/objects/HouseObjects/saw.png",1,"left","right",0.605000019,0,0,1
"321",25,314,0.9,"stim/63.jpeg",6,3,3,2,"HouseObjects",1,"stim/objects/HouseObjects/pitcher.png",3,"left","left",0.579000235,1,1,1
"322",25,315,0.9,"stim/54.jpeg",5,4,3,2,"Instruments",2,"stim/objects/Instruments/metronome.png",1,"right","right",0.611999989,1,1,1
"323",25,316,0.5,"stim/24.jpeg",2,4,1,2,"HouseObjects",1,"stim/objects/HouseObjects/flyswatter.png",2,"left","left",0.703999996,1,1,1
"324",25,317,0.9,"stim/52.jpeg",5,2,3,2,"Instruments",2,"stim/objects/Instruments/oboe.png",1,"right","right",0.575000048,1,1,1
"325",25,318,0.7,"stim/43.jpeg",4,3,2,2,"HouseObjects",1,"stim/objects/HouseObjects/key.png",3,"left","left",0.681999922,1,1,1
"326",25,319,0.5,"stim/24.jpeg",2,4,1,1,"Instruments",2,"stim/objects/Instruments/speaker.png",1,"right","left",0.705000162,0,0,1
"327",25,320,0.9,"stim/63.jpeg",6,3,3,2,"HouseObjects",1,"stim/objects/HouseObjects/knife.png",4,"left","left",0.489000082,1,1,1
"328",25,321,0.3,"stim/32.jpeg",3,2,2,1,"HouseObjects",1,"stim/objects/HouseObjects/thread.png",1,"left","right",0.614000082,0,0,1
"329",25,322,0.9,"stim/63.jpeg",6,3,3,2,"HouseObjects",1,"stim/objects/HouseObjects/pitcher.png",3,"left","left",0.513000011,1,1,1
"330",25,323,0.9,"stim/53.jpeg",5,3,3,2,"Instruments",2,"stim/objects/Instruments/musicsheet.png",1,"right","right",0.611000061,1,1,1
"331",25,324,0.9,"stim/61.jpeg",6,1,3,2,"HouseObjects",1,"stim/objects/HouseObjects/knife.png",1,"left","left",0.526000023,1,1,1
"332",25,325,0.5,"stim/23.jpeg",2,3,1,1,"HouseObjects",1,"stim/objects/HouseObjects/sponge.png",3,"left","left",0.703000069,1,1,1
"333",25,326,0.9,"stim/61.jpeg",6,1,3,2,"HouseObjects",1,"stim/objects/HouseObjects/pitcher.png",3,"left","left",0.448999882,1,1,1
"334",25,327,0.9,"stim/53.jpeg",5,3,3,2,"Instruments",2,"stim/objects/Instruments/marimba.png",2,"right","right",0.520999908,1,1,1
"335",25,328,0.1,"stim/62.jpeg",6,2,3,1,"Instruments",2,"stim/objects/Instruments/violin2.png",4,"right","left",0.572999954,0,0,1
"336",25,329,0.9,"stim/63.jpeg",6,3,3,2,"HouseObjects",1,"stim/objects/HouseObjects/match.png",2,"left","left",0.607000113,1,1,1
"337",25,330,0.9,"stim/63.jpeg",6,3,3,2,"HouseObjects",1,"stim/objects/HouseObjects/knife.png",2,"left","left",0.461999893,1,1,1
"338",25,331,0.9,"stim/54.jpeg",5,4,3,2,"Instruments",2,"stim/objects/Instruments/musicstand.png",3,"right","right",0.715999842,1,1,1
"339",25,332,0.9,"stim/62.jpeg",6,2,3,2,"HouseObjects",1,"stim/objects/HouseObjects/pan.png",3,"left","left",0.525000095,1,1,1
"340",25,333,0.9,"stim/61.jpeg",6,1,3,2,"HouseObjects",1,"stim/objects/HouseObjects/match.png",4,"left","left",0.49000001,1,1,1
"341",25,334,0.5,"stim/23.jpeg",2,3,1,2,"Instruments",2,"stim/objects/Instruments/frenchhorn.png",4,"right","left",0.864000082,0,0,1
"342",25,335,0.1,"stim/51.jpeg",5,1,3,1,"HouseObjects",1,"stim/objects/HouseObjects/knife2.png",3,"left","right",0.608999968,0,0,1
"343",25,336,0.5,"stim/13.jpeg",1,3,1,2,"HouseObjects",1,"stim/objects/HouseObjects/dishsoap.png",4,"left","left",0.710000038,1,1,1
"344",25,337,0.9,"stim/61.jpeg",6,1,3,2,"HouseObjects",1,"stim/objects/HouseObjects/knife.png",2,"left","left",0.521999836,1,1,1
"345",25,338,0.9,"stim/53.jpeg",5,3,3,2,"Instruments",2,"stim/objects/Instruments/musicstand.png",3,"right","right",0.560000181,1,1,1
"346",25,339,0.7,"stim/34.jpeg",3,4,2,2,"Instruments",2,"stim/objects/Instruments/harp.png",2,"right","left",0.665999889,0,0,1
"347",25,340,0.5,"stim/23.jpeg",2,3,1,2,"HouseObjects",1,"stim/objects/HouseObjects/glassmop.png",3,"left","right",0.717000008,0,0,1
"348",25,341,0.9,"stim/64.jpeg",6,4,3,2,"HouseObjects",1,"stim/objects/HouseObjects/match.png",4,"left","left",0.598999977,1,1,1
"349",25,342,0.7,"stim/33.jpeg",3,3,2,2,"Instruments",2,"stim/objects/Instruments/laud.png",3,"right","right",0.571000099,1,1,1
"350",25,343,0.9,"stim/54.jpeg",5,4,3,2,"Instruments",2,"stim/objects/Instruments/oboe.png",1,"right","right",0.588000059,1,1,1
"351",25,344,0.9,"stim/64.jpeg",6,4,3,2,"HouseObjects",1,"stim/objects/HouseObjects/pan.png",1,"left","left",0.5849998,1,1,1
"352",25,345,0.7,"stim/41.jpeg",4,1,2,2,"HouseObjects",1,"stim/objects/HouseObjects/ironingboard.png",4,"left","left",0.606999874,1,1,1
"353",25,346,0.9,"stim/52.jpeg",5,2,3,2,"Instruments",2,"stim/objects/Instruments/oboe.png",4,"right","right",0.630999804,1,1,1
"354",25,347,0.9,"stim/64.jpeg",6,4,3,2,"HouseObjects",1,"stim/objects/HouseObjects/knife.png",2,"left","left",0.537000179,1,1,1
"355",25,348,0.5,"stim/14.jpeg",1,4,1,2,"Instruments",2,"stim/objects/Instruments/flutetrans.png",4,"right","left",0.562999964,0,0,1
"356",25,349,0.7,"stim/33.jpeg",3,3,2,1,"Instruments",2,"stim/objects/Instruments/flutetrans2.png",1,"right","right",0.605999947,1,1,1
"357",25,350,0.9,"stim/51.jpeg",5,1,3,2,"Instruments",2,"stim/objects/Instruments/marimba.png",3,"right","right",0.57400012,1,1,1
"358",25,351,0.1,"stim/63.jpeg",6,3,3,1,"Instruments",2,"stim/objects/Instruments/speaker2.png",2,"right","left",0.592000008,0,0,1
"359",25,352,0.5,"stim/12.jpeg",1,2,1,1,"Instruments",2,"stim/objects/Instruments/saxophone.png",3,"right","left",0.796999931,0,0,1
"360",25,353,0.9,"stim/61.jpeg",6,1,3,2,"HouseObjects",1,"stim/objects/HouseObjects/lintroller.png",4,"left","left",0.549999952,1,1,1
"361",25,354,0.9,"stim/64.jpeg",6,4,3,2,"HouseObjects",1,"stim/objects/HouseObjects/lintroller.png",4,"left","left",0.549999952,1,1,1
"362",25,355,0.9,"stim/52.jpeg",5,2,3,2,"Instruments",2,"stim/objects/Instruments/marimba.png",3,"right","right",0.612999916,1,1,1
"363",25,356,0.9,"stim/63.jpeg",6,3,3,2,"HouseObjects",1,"stim/objects/HouseObjects/match.png",2,"left","left",0.538000107,1,1,1
"364",25,357,0.9,"stim/64.jpeg",6,4,3,2,"HouseObjects",1,"stim/objects/HouseObjects/pan.png",1,"left","left",0.388999939,1,1,1
"365",25,358,0.9,"stim/64.jpeg",6,4,3,2,"HouseObjects",1,"stim/objects/HouseObjects/knife.png",2,"left","left",0.496000051,1,1,1
"366",25,359,0.7,"stim/43.jpeg",4,3,2,2,"HouseObjects",1,"stim/objects/HouseObjects/handbrush.png",2,"left","left",0.552000046,1,1,1
"367",25,360,0.7,"stim/33.jpeg",3,3,2,2,"Instruments",2,"stim/objects/Instruments/maraca.png",4,"right","right",0.677999973,1,1,1
"368",25,361,0.9,"stim/63.jpeg",6,3,3,1,"HouseObjects",1,"stim/objects/HouseObjects/thread2.png",3,"left","left",0.573999882,1,1,1
"369",25,362,0.9,"stim/63.jpeg",6,3,3,1,"HouseObjects",1,"stim/objects/HouseObjects/sponge2.png",4,"left","left",0.584000111,1,1,1
"370",25,363,0.9,"stim/53.jpeg",5,3,3,2,"Instruments",2,"stim/objects/Instruments/musicsheet.png",3,"right","right",0.593000174,1,1,1
"371",25,364,0.9,"stim/52.jpeg",5,2,3,2,"Instruments",2,"stim/objects/Instruments/oboe.png",2,"right","right",0.732000113,1,1,1
"372",25,365,0.5,"stim/21.jpeg",2,1,1,2,"HouseObjects",1,"stim/objects/HouseObjects/garbagebin.png",4,"left","left",0.670000076,1,1,1
"373",25,366,0.9,"stim/54.jpeg",5,4,3,2,"Instruments",2,"stim/objects/Instruments/musicsheet.png",2,"right","right",0.638000011,1,1,1
"374",25,367,0.9,"stim/52.jpeg",5,2,3,2,"Instruments",2,"stim/objects/Instruments/musicsheet.png",4,"right","right",0.607000113,1,1,1
"375",25,368,0.9,"stim/51.jpeg",5,1,3,2,"Instruments",2,"stim/objects/Instruments/musicsheet.png",4,"right","right",0.683000088,1,1,1
"376",25,369,0.9,"stim/53.jpeg",5,3,3,2,"Instruments",2,"stim/objects/Instruments/oboe.png",2,"right","right",0.579999924,1,1,1
"377",25,370,0.1,"stim/53.jpeg",5,3,3,1,"HouseObjects",1,"stim/objects/HouseObjects/remote2.png",1,"left","right",0.574999809,0,0,1
"378",25,371,0.9,"stim/62.jpeg",6,2,3,2,"HouseObjects",1,"stim/objects/HouseObjects/match.png",3,"left","left",0.628000021,1,1,1
"379",25,372,0.9,"stim/63.jpeg",6,3,3,2,"HouseObjects",1,"stim/objects/HouseObjects/knife.png",1,"left","left",0.471999884,1,1,1
"380",25,373,0.7,"stim/31.jpeg",3,1,2,2,"Instruments",2,"stim/objects/Instruments/maraca.png",1,"right","left",0.421000004,0,0,1
"381",25,374,0.9,"stim/51.jpeg",5,1,3,2,"Instruments",2,"stim/objects/Instruments/musicstand.png",3,"right","right",0.628999949,1,1,1
"382",25,375,0.7,"stim/31.jpeg",3,1,2,2,"Instruments",2,"stim/objects/Instruments/keyboard.png",3,"right","right",0.630000114,1,1,1
"383",25,376,0.5,"stim/24.jpeg",2,4,1,1,"HouseObjects",1,"stim/objects/HouseObjects/spraybottle.png",3,"left","left",0.625999928,1,1,1
"384",25,377,0.9,"stim/64.jpeg",6,4,3,2,"HouseObjects",1,"stim/objects/HouseObjects/pan.png",4,"left","left",0.634000063,1,1,1
"385",25,378,0.5,"stim/11.jpeg",1,1,1,2,"Instruments",2,"stim/objects/Instruments/drums.png",3,"right","left",0.670000076,0,0,1
"386",25,379,0.9,"stim/62.jpeg",6,2,3,2,"HouseObjects",1,"stim/objects/HouseObjects/pitcher.png",4,"left","left",0.552999973,1,1,1
"387",25,380,0.9,"stim/61.jpeg",6,1,3,2,"HouseObjects",1,"stim/objects/HouseObjects/knife.png",2,"left","left",0.516000032,1,1,1
"388",25,381,0.9,"stim/63.jpeg",6,3,3,2,"HouseObjects",1,"stim/objects/HouseObjects/knife.png",1,"left","left",0.529999971,1,1,1
"389",25,382,0.9,"stim/53.jpeg",5,3,3,2,"Instruments",2,"stim/objects/Instruments/oboe.png",4,"right","right",0.756000042,1,1,1
"390",25,383,0.5,"stim/24.jpeg",2,4,1,2,"HouseObjects",1,"stim/objects/HouseObjects/garbagebin.png",4,"left","left",0.661000013,1,1,1
"391",25,384,0.1,"stim/54.jpeg",5,4,3,1,"HouseObjects",1,"stim/objects/HouseObjects/pan2.png",3,"left","right",0.736000061,0,0,1
"392",25,385,0.5,"stim/21.jpeg",2,1,1,2,"Instruments",2,"stim/objects/Instruments/guitarcase.png",1,"right","left",0.705000162,0,0,1
"393",25,386,0.7,"stim/34.jpeg",3,4,2,2,"Instruments",2,"stim/objects/Instruments/maraca.png",2,"right","right",0.660000086,1,1,1
"394",25,387,0.9,"stim/61.jpeg",6,1,3,1,"HouseObjects",1,"stim/objects/HouseObjects/teapot2.png",1,"left","left",0.664000034,1,1,1
"395",25,388,0.7,"stim/32.jpeg",3,2,2,2,"Instruments",2,"stim/objects/Instruments/hihat.png",2,"right","right",0.613000154,1,1,1
"396",25,389,0.9,"stim/61.jpeg",6,1,3,1,"HouseObjects",1,"stim/objects/HouseObjects/vacuumcleaner2.png",1,"left","left",0.618999958,1,1,1
"397",25,390,0.7,"stim/42.jpeg",4,2,2,1,"HouseObjects",1,"stim/objects/HouseObjects/glass2.png",2,"left","left",0.590000153,1,1,1
"398",25,391,0.9,"stim/62.jpeg",6,2,3,2,"HouseObjects",1,"stim/objects/HouseObjects/pan.png",2,"left","left",0.555999994,1,1,1
"399",25,392,0.7,"stim/44.jpeg",4,4,2,2,"HouseObjects",1,"stim/objects/HouseObjects/handvacuum.png",2,"left","left",0.66899991,1,1,1
"400",25,393,0.7,"stim/44.jpeg",4,4,2,2,"HouseObjects",1,"stim/objects/HouseObjects/ironingboard.png",2,"left","left",0.512000084,1,1,1
"401",25,394,0.5,"stim/11.jpeg",1,1,1,2,"HouseObjects",1,"stim/objects/HouseObjects/coffee.png",2,"left","left",0.921000004,1,1,1
"402",25,395,0.3,"stim/41.jpeg",4,1,2,1,"Instruments",2,"stim/objects/Instruments/guitarcase2.png",4,"right","left",0.532000065,0,0,1
"403",25,396,0.1,"stim/61.jpeg",6,1,3,1,"Instruments",2,"stim/objects/Instruments/timbal2.png",2,"right","left",0.542000055,0,0,1
"404",25,397,0.7,"stim/44.jpeg",4,4,2,2,"HouseObjects",1,"stim/objects/HouseObjects/iron.png",3,"left","left",0.743999958,1,1,1
"405",25,398,0.5,"stim/23.jpeg",2,3,1,2,"Instruments",2,"stim/objects/Instruments/harmonica.png",1,"right","right",0.732000113,1,1,1
"406",25,399,0.9,"stim/51.jpeg",5,1,3,2,"Instruments",2,"stim/objects/Instruments/musicstand.png",4,"right","right",0.654000044,1,1,1
"407",25,400,0.1,"stim/53.jpeg",5,3,3,1,"HouseObjects",1,"stim/objects/HouseObjects/match2.png",3,"left","right",0.555000067,0,0,1
"408",25,401,0.3,"stim/42.jpeg",4,2,2,1,"Instruments",2,"stim/objects/Instruments/laud2.png",3,"right","left",0.592999935,0,0,1
"409",25,402,0.9,"stim/64.jpeg",6,4,3,2,"HouseObjects",1,"stim/objects/HouseObjects/pitcher.png",2,"left","left",0.532999992,1,1,1
"410",25,403,0.9,"stim/53.jpeg",5,3,3,2,"Instruments",2,"stim/objects/Instruments/musicsheet.png",1,"right","right",0.59100008,1,1,1
"411",25,404,0.1,"stim/51.jpeg",5,1,3,1,"HouseObjects",1,"stim/objects/HouseObjects/rug2.png",2,"left","right",0.565999985,0,0,1
"412",25,405,0.5,"stim/14.jpeg",1,4,1,2,"HouseObjects",1,"stim/objects/HouseObjects/dishsoap.png",1,"left","left",0.610999823,1,1,1
"413",25,406,0.1,"stim/52.jpeg",5,2,3,1,"HouseObjects",1,"stim/objects/HouseObjects/recyclingbin2.png",3,"left","right",0.701999903,0,0,1
"414",25,407,0.9,"stim/61.jpeg",6,1,3,2,"HouseObjects",1,"stim/objects/HouseObjects/pan.png",1,"left","left",0.572000027,1,1,1
"415",25,408,0.9,"stim/54.jpeg",5,4,3,1,"Instruments",2,"stim/objects/Instruments/panflute2.png",3,"right","right",0.597000122,1,1,1
"416",25,409,0.7,"stim/44.jpeg",4,4,2,1,"HouseObjects",1,"stim/objects/HouseObjects/flyswatter2.png",1,"left","left",0.513000011,1,1,1
"417",25,410,0.7,"stim/44.jpeg",4,4,2,1,"HouseObjects",1,"stim/objects/HouseObjects/ironingboard2.png",1,"left","left",0.659000158,1,1,1
"418",25,411,0.7,"stim/43.jpeg",4,3,2,2,"HouseObjects",1,"stim/objects/HouseObjects/iron.png",3,"left","left",0.478999853,1,1,1
"419",25,412,0.9,"stim/54.jpeg",5,4,3,2,"Instruments",2,"stim/objects/Instruments/oboe.png",3,"right","right",0.68599987,1,1,1
"420",25,413,0.9,"stim/52.jpeg",5,2,3,2,"Instruments",2,"stim/objects/Instruments/musicstand.png",2,"right","right",0.639000177,1,1,1
"421",25,414,0.9,"stim/61.jpeg",6,1,3,2,"HouseObjects",1,"stim/objects/HouseObjects/pan.png",1,"left","left",0.510999918,1,1,1
"422",25,415,0.9,"stim/51.jpeg",5,1,3,2,"Instruments",2,"stim/objects/Instruments/metronome.png",1,"right","left",0.545000076,0,0,1
"423",25,416,0.9,"stim/51.jpeg",5,1,3,1,"Instruments",2,"stim/objects/Instruments/musicsheet2.png",3,"right","right",0.676999807,1,1,1
"424",25,417,0.9,"stim/54.jpeg",5,4,3,2,"Instruments",2,"stim/objects/Instruments/marimba.png",2,"right","right",0.76699996,1,1,1
"425",25,418,0.5,"stim/12.jpeg",1,2,1,2,"Instruments",2,"stim/objects/Instruments/electricguitar.png",2,"right","left",0.738999844,0,0,1
"426",25,419,0.9,"stim/61.jpeg",6,1,3,2,"HouseObjects",1,"stim/objects/HouseObjects/match.png",3,"left","left",0.562000036,1,1,1
"427",25,420,0.3,"stim/44.jpeg",4,4,2,1,"Instruments",2,"stim/objects/Instruments/grandpiano2.png",4,"right","right",0.838999987,1,1,1
"428",25,421,0.5,"stim/23.jpeg",2,3,1,2,"Instruments",2,"stim/objects/Instruments/gong.png",2,"right","left",0.648000002,0,0,1
"429",25,422,0.5,"stim/12.jpeg",1,2,1,2,"Instruments",2,"stim/objects/Instruments/electricdrumset.png",1,"right","left",0.694999933,0,0,1
"430",25,423,0.9,"stim/54.jpeg",5,4,3,2,"Instruments",2,"stim/objects/Instruments/musicsheet.png",1,"right","right",0.669000149,1,1,1
"431",25,424,0.5,"stim/24.jpeg",2,4,1,1,"Instruments",2,"stim/objects/Instruments/trombone.png",1,"right","right",0.588999987,1,1,1
"432",25,425,0.9,"stim/53.jpeg",5,3,3,2,"Instruments",2,"stim/objects/Instruments/marimba.png",4,"right","right",0.701999903,1,1,1
"433",25,426,0.5,"stim/21.jpeg",2,1,1,2,"HouseObjects",1,"stim/objects/HouseObjects/glass.png",3,"left","right",0.60800004,0,0,1
"434",25,427,0.9,"stim/52.jpeg",5,2,3,2,"Instruments",2,"stim/objects/Instruments/musicstand.png",4,"right","right",0.566999912,1,1,1
"435",25,428,0.9,"stim/61.jpeg",6,1,3,2,"HouseObjects",1,"stim/objects/HouseObjects/lintroller.png",2,"left","left",0.587000132,1,1,1
"436",25,429,0.7,"stim/32.jpeg",3,2,2,1,"Instruments",2,"stim/objects/Instruments/xylophone.png",2,"right","left",0.660999775,0,0,1
"437",25,430,0.9,"stim/63.jpeg",6,3,3,2,"HouseObjects",1,"stim/objects/HouseObjects/pitcher.png",2,"left","left",0.546000004,1,1,1
"438",25,431,0.5,"stim/21.jpeg",2,1,1,2,"Instruments",2,"stim/objects/Instruments/grandpiano.png",3,"right","right",0.60800004,1,1,1
"439",25,432,0.1,"stim/62.jpeg",6,2,3,1,"Instruments",2,"stim/objects/Instruments/triangle2.png",2,"right","left",0.54700017,0,0,1
"440",25,433,0.1,"stim/64.jpeg",6,4,3,1,"Instruments",2,"stim/objects/Instruments/trumpet2.png",4,"right","left",0.559000015,0,0,1
"441",25,434,0.9,"stim/64.jpeg",6,4,3,2,"HouseObjects",1,"stim/objects/HouseObjects/match.png",1,"left","left",0.705999851,1,1,1
"442",25,435,0.9,"stim/52.jpeg",5,2,3,2,"Instruments",2,"stim/objects/Instruments/marimba.png",2,"right","right",0.638000011,1,1,1
"443",25,436,0.9,"stim/61.jpeg",6,1,3,2,"HouseObjects",1,"stim/objects/HouseObjects/pan.png",1,"left","left",0.54700017,1,1,1
"444",25,437,0.9,"stim/52.jpeg",5,2,3,2,"Instruments",2,"stim/objects/Instruments/metronome.png",3,"right","right",0.674999952,1,1,1
"445",25,438,0.9,"stim/53.jpeg",5,3,3,2,"Instruments",2,"stim/objects/Instruments/musicstand.png",2,"right","right",0.692000151,1,1,1
"446",25,439,0.7,"stim/32.jpeg",3,2,2,2,"Instruments",2,"stim/objects/Instruments/laud.png",2,"right","right",0.665999889,1,1,1
"447",25,440,0.5,"stim/12.jpeg",1,2,1,2,"HouseObjects",1,"stim/objects/HouseObjects/dustpan.png",3,"left","right",0.936000109,0,0,1
"448",25,441,0.3,"stim/42.jpeg",4,2,2,1,"Instruments",2,"stim/objects/Instruments/harmonica2.png",2,"right","left",0.894999981,0,0,1
"449",25,442,0.9,"stim/62.jpeg",6,2,3,2,"HouseObjects",1,"stim/objects/HouseObjects/lintroller.png",3,"left","left",0.519999981,1,1,1
"450",25,443,0.5,"stim/13.jpeg",1,3,1,2,"HouseObjects",1,"stim/objects/HouseObjects/cushion.png",3,"left","left",0.729000092,1,1,1
"451",25,444,0.5,"stim/11.jpeg",1,1,1,2,"Instruments",2,"stim/objects/Instruments/flutetrans.png",3,"right","left",0.9150002,0,0,1
"452",25,445,0.3,"stim/43.jpeg",4,3,2,1,"Instruments",2,"stim/objects/Instruments/harp2.png",4,"right","left",0.611999989,0,0,1
"453",25,446,0.7,"stim/43.jpeg",4,3,2,2,"HouseObjects",1,"stim/objects/HouseObjects/handvacuum.png",4,"left","right",0.59800005,0,0,1
"454",25,447,0.7,"stim/32.jpeg",3,2,2,2,"Instruments",2,"stim/objects/Instruments/keyboard.png",3,"right","right",0.624000072,1,1,1
"455",25,448,0.9,"stim/54.jpeg",5,4,3,2,"Instruments",2,"stim/objects/Instruments/musicsheet.png",3,"right","right",0.578999996,1,1,1
"456",25,449,0.5,"stim/23.jpeg",2,3,1,2,"HouseObjects",1,"stim/objects/HouseObjects/flyswatter.png",4,"left","right",0.836000204,0,0,1
"457",25,450,0.5,"stim/23.jpeg",2,3,1,2,"HouseObjects",1,"stim/objects/HouseObjects/hairdryer.png",4,"left","left",0.573999882,1,1,1
"458",25,451,0.7,"stim/42.jpeg",4,2,2,2,"HouseObjects",1,"stim/objects/HouseObjects/key.png",1,"left","left",0.679000139,1,1,1
"459",25,452,0.9,"stim/51.jpeg",5,1,3,2,"Instruments",2,"stim/objects/Instruments/oboe.png",1,"right","right",0.636999846,1,1,1
"460",25,453,0.7,"stim/34.jpeg",3,4,2,1,"Instruments",2,"stim/objects/Instruments/electricdrumset2.png",1,"right","right",0.683000088,1,1,1
"461",25,454,0.9,"stim/52.jpeg",5,2,3,1,"Instruments",2,"stim/objects/Instruments/musicstand2.png",4,"right","right",0.618999958,1,1,1
"462",25,455,0.9,"stim/61.jpeg",6,1,3,2,"HouseObjects",1,"stim/objects/HouseObjects/pitcher.png",1,"left","right",0.496000051,0,0,1
"463",25,456,0.9,"stim/63.jpeg",6,3,3,2,"HouseObjects",1,"stim/objects/HouseObjects/match.png",1,"left","left",0.616999865,1,1,1
"464",25,457,0.3,"stim/31.jpeg",3,1,2,1,"HouseObjects",1,"stim/objects/HouseObjects/thermometer.png",1,"left","left",0.796000004,1,1,1
"465",25,458,0.9,"stim/52.jpeg",5,2,3,2,"Instruments",2,"stim/objects/Instruments/marimba.png",2,"right","right",0.600999832,1,1,1
"466",25,459,0.9,"stim/52.jpeg",5,2,3,2,"Instruments",2,"stim/objects/Instruments/marimba.png",3,"right","right",0.636000156,1,1,1
"467",25,460,0.7,"stim/34.jpeg",3,4,2,1,"Instruments",2,"stim/objects/Instruments/violin.png",4,"right","right",0.624000072,1,1,1
"468",25,461,0.9,"stim/61.jpeg",6,1,3,2,"HouseObjects",1,"stim/objects/HouseObjects/pitcher.png",3,"left","left",0.610000134,1,1,1
"469",25,462,0.7,"stim/41.jpeg",4,1,2,1,"HouseObjects",1,"stim/objects/HouseObjects/key2.png",1,"left","left",0.707999945,1,1,1
"470",25,463,0.3,"stim/34.jpeg",3,4,2,1,"HouseObjects",1,"stim/objects/HouseObjects/vacuumcleaner.png",3,"left","",NA,0,0,1
"471",25,464,0.9,"stim/51.jpeg",5,1,3,2,"Instruments",2,"stim/objects/Instruments/marimba.png",3,"right","right",0.565999985,1,1,1
"472",25,465,0.5,"stim/12.jpeg",1,2,1,1,"HouseObjects",1,"stim/objects/HouseObjects/rug.png",2,"left","left",0.719000101,1,1,1
"473",25,466,0.3,"stim/41.jpeg",4,1,2,1,"Instruments",2,"stim/objects/Instruments/keyboard2.png",4,"right","left",0.587000132,0,0,1
"474",25,467,0.5,"stim/11.jpeg",1,1,1,1,"Instruments",2,"stim/objects/Instruments/record_player.png",3,"right","left",0.649999857,0,0,1
"475",25,468,0.3,"stim/31.jpeg",3,1,2,1,"HouseObjects",1,"stim/objects/HouseObjects/wateringcan.png",1,"left","right",0.684999943,0,0,1
"476",25,469,0.9,"stim/64.jpeg",6,4,3,2,"HouseObjects",1,"stim/objects/HouseObjects/lintroller.png",2,"left","left",0.579999924,1,1,1
"477",25,470,0.9,"stim/51.jpeg",5,1,3,2,"Instruments",2,"stim/objects/Instruments/marimba.png",3,"right","right",0.610999823,1,1,1
"478",25,471,0.9,"stim/52.jpeg",5,2,3,2,"Instruments",2,"stim/objects/Instruments/musicsheet.png",4,"right","right",0.704999924,1,1,1
"479",25,472,0.9,"stim/51.jpeg",5,1,3,2,"Instruments",2,"stim/objects/Instruments/marimba.png",4,"right","right",0.59800005,1,1,1
"480",25,473,0.9,"stim/63.jpeg",6,3,3,2,"HouseObjects",1,"stim/objects/HouseObjects/pan.png",1,"left","left",0.59800005,1,1,1
"481",25,474,0.9,"stim/63.jpeg",6,3,3,2,"HouseObjects",1,"stim/objects/HouseObjects/pan.png",1,"left","left",0.546999931,1,1,1
"482",25,475,0.1,"stim/51.jpeg",5,1,3,1,"HouseObjects",1,"stim/objects/HouseObjects/pitcher2.png",1,"left","right",0.576999903,0,0,1
"483",25,476,0.9,"stim/52.jpeg",5,2,3,2,"Instruments",2,"stim/objects/Instruments/metronome.png",3,"right","right",0.670000076,1,1,1
"484",25,477,0.7,"stim/34.jpeg",3,4,2,2,"Instruments",2,"stim/objects/Instruments/laud.png",3,"right","right",0.661000013,1,1,1
"485",25,478,0.9,"stim/53.jpeg",5,3,3,2,"Instruments",2,"stim/objects/Instruments/metronome.png",3,"right","right",0.536000013,1,1,1
"486",25,479,0.9,"stim/53.jpeg",5,3,3,2,"Instruments",2,"stim/objects/Instruments/marimba.png",1,"right","right",0.686000109,1,1,1
"487",25,480,0.7,"stim/43.jpeg",4,3,2,1,"HouseObjects",1,"stim/objects/HouseObjects/iron2.png",2,"left","left",0.690000057,1,1,1
"488",25,481,0.9,"stim/64.jpeg",6,4,3,2,"HouseObjects",1,"stim/objects/HouseObjects/knife.png",2,"left","left",0.587999821,1,1,1
"489",25,482,0.1,"stim/64.jpeg",6,4,3,1,"Instruments",2,"stim/objects/Instruments/tambourine2.png",4,"right","left",0.750999928,0,0,1
"490",25,483,0.9,"stim/53.jpeg",5,3,3,2,"Instruments",2,"stim/objects/Instruments/musicsheet.png",1,"right","right",0.606000185,1,1,1
"491",25,484,0.9,"stim/61.jpeg",6,1,3,2,"HouseObjects",1,"stim/objects/HouseObjects/knife.png",3,"left","left",0.65199995,1,1,1
"492",25,485,0.9,"stim/54.jpeg",5,4,3,2,"Instruments",2,"stim/objects/Instruments/metronome.png",1,"right","right",0.75,1,1,1
"493",25,486,0.5,"stim/12.jpeg",1,2,1,2,"HouseObjects",1,"stim/objects/HouseObjects/cushion.png",4,"left","left",0.78399992,1,1,1
"494",25,487,0.5,"stim/23.jpeg",2,3,1,1,"Instruments",2,"stim/objects/Instruments/triangle.png",2,"right","left",0.896999836,0,0,1
"495",25,488,0.9,"stim/62.jpeg",6,2,3,2,"HouseObjects",1,"stim/objects/HouseObjects/match.png",1,"left","left",0.927999973,1,1,1
"496",25,489,0.5,"stim/12.jpeg",1,2,1,1,"Instruments",2,"stim/objects/Instruments/panflute.png",1,"right","left",0.739000082,0,0,1
"497",25,490,0.9,"stim/51.jpeg",5,1,3,2,"Instruments",2,"stim/objects/Instruments/musicstand.png",3,"right","right",0.694999933,1,1,1
"498",25,491,0.9,"stim/62.jpeg",6,2,3,2,"HouseObjects",1,"stim/objects/HouseObjects/knife.png",3,"left","left",0.711999893,1,1,1
"499",25,492,0.9,"stim/53.jpeg",5,3,3,2,"Instruments",2,"stim/objects/Instruments/oboe.png",3,"right","right",0.602999926,1,1,1
"500",25,493,0.9,"stim/54.jpeg",5,4,3,2,"Instruments",2,"stim/objects/Instruments/musicstand.png",3,"right","right",0.608999968,1,1,1
"501",25,494,0.3,"stim/42.jpeg",4,2,2,1,"Instruments",2,"stim/objects/Instruments/frenchhorn2.png",1,"right","left",0.620000124,0,0,1
"502",25,495,0.7,"stim/31.jpeg",3,1,2,1,"Instruments",2,"stim/objects/Instruments/vuvuzela.png",3,"right","right",0.745999813,1,1,1
"503",25,496,0.7,"stim/31.jpeg",3,1,2,1,"Instruments",2,"stim/objects/Instruments/electricguitar2.png",1,"right","right",0.575999975,1,1,1
"504",25,497,0.9,"stim/51.jpeg",5,1,3,2,"Instruments",2,"stim/objects/Instruments/musicstand.png",4,"right","left",0.559000015,0,0,1
"505",25,498,0.5,"stim/13.jpeg",1,3,1,1,"HouseObjects",1,"stim/objects/HouseObjects/safetypin.png",1,"left","right",0.858999968,0,0,1
"506",25,499,0.5,"stim/14.jpeg",1,4,1,1,"Instruments",2,"stim/objects/Instruments/record.png",1,"right","",NA,0,0,1
"507",25,500,0.9,"stim/64.jpeg",6,4,3,2,"HouseObjects",1,"stim/objects/HouseObjects/pitcher.png",4,"left","left",0.573999882,1,1,1
"508",25,501,0.9,"stim/53.jpeg",5,3,3,2,"Instruments",2,"stim/objects/Instruments/musicstand.png",4,"right","right",0.476000071,1,1,1
"509",25,502,0.9,"stim/62.jpeg",6,2,3,2,"HouseObjects",1,"stim/objects/HouseObjects/match.png",4,"left","left",0.611000061,1,1,1
"510",25,503,0.7,"stim/42.jpeg",4,2,2,2,"HouseObjects",1,"stim/objects/HouseObjects/ironingboard.png",1,"left","left",0.588000059,1,1,1
"511",25,504,0.5,"stim/22.jpeg",2,2,1,1,"HouseObjects",1,"stim/objects/HouseObjects/scale.png",2,"left","right",0.59800005,0,0,1
"512",25,505,0.9,"stim/62.jpeg",6,2,3,2,"HouseObjects",1,"stim/objects/HouseObjects/match.png",3,"left","left",0.445999861,1,1,1
"513",25,506,0.9,"stim/53.jpeg",5,3,3,1,"Instruments",2,"stim/objects/Instruments/oboe2.png",4,"right","right",0.619999886,1,1,1
"514",25,507,0.5,"stim/11.jpeg",1,1,1,2,"HouseObjects",1,"stim/objects/HouseObjects/doormat.png",1,"left","left",0.523000002,1,1,1
"515",25,508,0.9,"stim/51.jpeg",5,1,3,2,"Instruments",2,"stim/objects/Instruments/musicsheet.png",2,"right","right",0.539999962,1,1,1
"516",25,509,0.3,"stim/32.jpeg",3,2,2,1,"HouseObjects",1,"stim/objects/HouseObjects/dustpan2.png",3,"left","left",0.787000179,1,1,1
"517",25,510,0.7,"stim/33.jpeg",3,3,2,2,"Instruments",2,"stim/objects/Instruments/keyboard.png",4,"right","right",0.638999939,1,1,1
"518",25,511,0.5,"stim/11.jpeg",1,1,1,2,"Instruments",2,"stim/objects/Instruments/electricdrumset.png",1,"right","left",0.611999989,0,0,1
"519",25,512,0.7,"stim/31.jpeg",3,1,2,2,"Instruments",2,"stim/objects/Instruments/hihat.png",4,"right","right",0.686000109,1,1,1
"520",25,513,0.7,"stim/31.jpeg",3,1,2,2,"Instruments",2,"stim/objects/Instruments/harp.png",3,"right","right",0.600000143,1,1,1
"521",25,514,0.1,"stim/63.jpeg",6,3,3,1,"Instruments",2,"stim/objects/Instruments/trombone2.png",4,"right","left",0.552000046,0,0,1
"522",25,515,0.5,"stim/22.jpeg",2,2,1,2,"HouseObjects",1,"stim/objects/HouseObjects/glassmop.png",1,"left","right",0.654999971,0,0,1
"523",25,516,0.5,"stim/24.jpeg",2,4,1,2,"HouseObjects",1,"stim/objects/HouseObjects/hairdryer.png",2,"left","left",0.661000013,1,1,1
"524",25,517,0.9,"stim/51.jpeg",5,1,3,1,"Instruments",2,"stim/objects/Instruments/pipepiano2.png",1,"right","right",0.590000153,1,1,1
"525",25,518,0.1,"stim/61.jpeg",6,1,3,1,"Instruments",2,"stim/objects/Instruments/tuba2.png",2,"right","left",0.552999973,0,0,1
"526",25,519,0.3,"stim/34.jpeg",3,4,2,1,"HouseObjects",1,"stim/objects/HouseObjects/dishsoap2.png",1,"left","right",0.667999983,0,0,1
"527",25,520,0.9,"stim/54.jpeg",5,4,3,2,"Instruments",2,"stim/objects/Instruments/musicsheet.png",2,"right","right",0.660000086,1,1,1
"528",25,521,0.5,"stim/11.jpeg",1,1,1,2,"HouseObjects",1,"stim/objects/HouseObjects/dustpan.png",4,"left","left",0.60800004,1,1,1
"529",25,522,0.9,"stim/62.jpeg",6,2,3,2,"HouseObjects",1,"stim/objects/HouseObjects/pitcher.png",1,"left","left",0.640000105,1,1,1
"530",25,523,0.7,"stim/42.jpeg",4,2,2,2,"HouseObjects",1,"stim/objects/HouseObjects/handbrush.png",4,"left","right",0.644000053,0,0,1
"531",25,524,0.9,"stim/54.jpeg",5,4,3,2,"Instruments",2,"stim/objects/Instruments/musicstand.png",4,"right","right",0.652999878,1,1,1
"532",25,525,0.9,"stim/63.jpeg",6,3,3,2,"HouseObjects",1,"stim/objects/HouseObjects/match.png",1,"left","left",0.572999954,1,1,1
"533",25,526,0.5,"stim/21.jpeg",2,1,1,1,"Instruments",2,"stim/objects/Instruments/tambourine.png",2,"right","left",0.654999971,0,0,1
"534",25,527,0.9,"stim/62.jpeg",6,2,3,2,"HouseObjects",1,"stim/objects/HouseObjects/pan.png",4,"left","left",0.554000139,1,1,1
"535",25,528,0.9,"stim/62.jpeg",6,2,3,1,"HouseObjects",1,"stim/objects/HouseObjects/scale2.png",3,"left","left",0.489999771,1,1,1
"536",25,529,0.7,"stim/42.jpeg",4,2,2,2,"HouseObjects",1,"stim/objects/HouseObjects/handvacuum.png",1,"left","left",0.517999887,1,1,1
"537",25,530,0.9,"stim/62.jpeg",6,2,3,2,"HouseObjects",1,"stim/objects/HouseObjects/pitcher.png",4,"left","left",0.523000002,1,1,1
"538",25,531,0.9,"stim/64.jpeg",6,4,3,2,"HouseObjects",1,"stim/objects/HouseObjects/match.png",1,"left","left",0.529999971,1,1,1
"539",25,532,0.7,"stim/44.jpeg",4,4,2,1,"HouseObjects",1,"stim/objects/HouseObjects/hairdryer2.png",3,"left","left",0.427999973,1,1,1
"540",25,533,0.9,"stim/63.jpeg",6,3,3,2,"HouseObjects",1,"stim/objects/HouseObjects/lintroller.png",1,"left","left",0.536999941,1,1,1
"541",25,534,0.9,"stim/52.jpeg",5,2,3,2,"Instruments",2,"stim/objects/Instruments/oboe.png",2,"right","left",0.667000055,0,0,1
"542",25,535,0.9,"stim/53.jpeg",5,3,3,1,"Instruments",2,"stim/objects/Instruments/record_player2.png",2,"right","right",0.710999966,1,1,1
"543",25,536,0.9,"stim/63.jpeg",6,3,3,2,"HouseObjects",1,"stim/objects/HouseObjects/pan.png",4,"left","left",0.576000214,1,1,1
"544",25,537,0.1,"stim/52.jpeg",5,2,3,1,"HouseObjects",1,"stim/objects/HouseObjects/lintroller2.png",3,"left","right",0.723999977,0,0,1
"545",25,538,0.9,"stim/52.jpeg",5,2,3,1,"Instruments",2,"stim/objects/Instruments/record2.png",2,"right","right",0.645999908,1,1,1
"546",25,539,0.3,"stim/33.jpeg",3,3,2,1,"HouseObjects",1,"stim/objects/HouseObjects/cushion2.png",4,"left","right",0.745000124,0,0,1
"547",25,540,0.9,"stim/54.jpeg",5,4,3,2,"Instruments",2,"stim/objects/Instruments/marimba.png",3,"right","right",0.602999926,1,1,1
"548",25,541,0.9,"stim/53.jpeg",5,3,3,1,"Instruments",2,"stim/objects/Instruments/marimba2.png",1,"right","right",0.580000162,1,1,1
"549",25,542,0.5,"stim/22.jpeg",2,2,1,2,"HouseObjects",1,"stim/objects/HouseObjects/glass.png",4,"left","left",0.710999966,1,1,1
"550",25,543,0.7,"stim/42.jpeg",4,2,2,1,"HouseObjects",1,"stim/objects/HouseObjects/handvacuum2.png",4,"left","left",0.678999901,1,1,1
"551",25,544,0.9,"stim/62.jpeg",6,2,3,2,"HouseObjects",1,"stim/objects/HouseObjects/knife.png",4,"left","left",0.625,1,1,1
"552",25,545,0.9,"stim/62.jpeg",6,2,3,2,"HouseObjects",1,"stim/objects/HouseObjects/knife.png",1,"left","left",0.562999964,1,1,1
"553",25,546,0.9,"stim/54.jpeg",5,4,3,2,"Instruments",2,"stim/objects/Instruments/oboe.png",2,"right","right",0.653000116,1,1,1
"554",25,547,0.9,"stim/61.jpeg",6,1,3,2,"HouseObjects",1,"stim/objects/HouseObjects/lintroller.png",1,"left","left",0.50999999,1,1,1
"555",25,548,0.7,"stim/41.jpeg",4,1,2,1,"HouseObjects",1,"stim/objects/HouseObjects/handbrush2.png",1,"left","left",0.853000164,1,1,1
"556",25,549,0.5,"stim/14.jpeg",1,4,1,1,"HouseObjects",1,"stim/objects/HouseObjects/remote.png",1,"left","left",0.552000046,1,1,1
"557",25,550,0.7,"stim/32.jpeg",3,2,2,1,"Instruments",2,"stim/objects/Instruments/flute2.png",2,"right","right",0.776000023,1,1,1
"558",25,551,0.9,"stim/54.jpeg",5,4,3,2,"Instruments",2,"stim/objects/Instruments/metronome.png",2,"right","right",0.660999775,1,1,1
"559",25,552,0.9,"stim/54.jpeg",5,4,3,2,"Instruments",2,"stim/objects/Instruments/metronome.png",1,"right","",NA,0,0,1
"560",25,553,0.9,"stim/51.jpeg",5,1,3,2,"Instruments",2,"stim/objects/Instruments/oboe.png",4,"right","right",0.657999992,1,1,1
"561",25,554,0.9,"stim/61.jpeg",6,1,3,2,"HouseObjects",1,"stim/objects/HouseObjects/match.png",1,"left","left",0.914000034,1,1,1
"562",25,555,0.9,"stim/54.jpeg",5,4,3,1,"Instruments",2,"stim/objects/Instruments/metronome2.png",3,"right","right",0.637000084,1,1,1
"563",25,556,0.9,"stim/64.jpeg",6,4,3,2,"HouseObjects",1,"stim/objects/HouseObjects/pan.png",2,"left","right",0.71600008,0,0,1
"564",25,557,0.9,"stim/63.jpeg",6,3,3,2,"HouseObjects",1,"stim/objects/HouseObjects/lintroller.png",4,"left","left",0.936000109,1,1,1
"565",25,558,0.7,"stim/33.jpeg",3,3,2,1,"Instruments",2,"stim/objects/Instruments/drums2.png",1,"right","right",0.629999876,1,1,1
"566",25,559,0.5,"stim/22.jpeg",2,2,1,2,"Instruments",2,"stim/objects/Instruments/harmonica.png",3,"right","left",0.611000061,0,0,1
"567",25,560,0.5,"stim/22.jpeg",2,2,1,2,"Instruments",2,"stim/objects/Instruments/frenchhorn.png",4,"right","left",0.717999935,0,0,1
"568",25,561,0.9,"stim/52.jpeg",5,2,3,2,"Instruments",2,"stim/objects/Instruments/musicstand.png",3,"right","right",0.628999949,1,1,1
"569",25,562,0.3,"stim/33.jpeg",3,3,2,1,"HouseObjects",1,"stim/objects/HouseObjects/towel.png",4,"left","right",0.650000095,0,0,1
"570",25,563,0.9,"stim/54.jpeg",5,4,3,2,"Instruments",2,"stim/objects/Instruments/musicstand.png",4,"right","right",0.640999794,1,1,1
"571",25,564,0.3,"stim/32.jpeg",3,2,2,1,"HouseObjects",1,"stim/objects/HouseObjects/coffee2.png",2,"left","right",0.670000076,0,0,1
"572",25,565,0.9,"stim/62.jpeg",6,2,3,2,"HouseObjects",1,"stim/objects/HouseObjects/lintroller.png",1,"left","left",0.592000008,1,1,1
"573",25,566,0.9,"stim/53.jpeg",5,3,3,2,"Instruments",2,"stim/objects/Instruments/marimba.png",3,"right","right",0.743000031,1,1,1
"574",25,567,0.7,"stim/43.jpeg",4,3,2,1,"HouseObjects",1,"stim/objects/HouseObjects/glassmop2.png",3,"left","left",0.64199996,1,1,1
"575",25,568,0.9,"stim/52.jpeg",5,2,3,2,"Instruments",2,"stim/objects/Instruments/musicsheet.png",2,"right","",NA,0,0,1
"576",25,569,0.9,"stim/54.jpeg",5,4,3,1,"Instruments",2,"stim/objects/Instruments/saxophone2.png",1,"right","right",0.546999931,1,1,1
"577",25,570,0.1,"stim/54.jpeg",5,4,3,1,"HouseObjects",1,"stim/objects/HouseObjects/rubbergloves2.png",1,"left","right",0.651000023,0,0,1
