"","participant","OvsN","PE_level","object_cat","obj_file","scn_file","corr_scn_cat","corr_scn_inst","scn_file.1","corr_loc","key_resp_id.keys","key_resp_id.rt","key_resp_conf.keys","key_resp_assoc.keys","key_resp_assoc.rt","key_resp_loc.keys","key_resp_loc.rt","trialN","id_acc","assoc.acc","cond_assoc","loc.acc","cond_loc","group"
"1",40,1,0.5,2,"stim/objects/HouseObjects/saw.png","stim/21.jpeg",2,1,"stim/21.jpeg",1,"left",1.287000179,1,1,6.104000092,2,5.792000055,1,1,1,1,0,0,1
"2",40,1,0.3,1,"stim/objects/HouseObjects/coffee2.png","stim/32.jpeg",3,2,"stim/32.jpeg",2,"left",1.607000113,1,2,6.379999876,3,0.01699996,2,1,1,1,0,0,1
"3",40,2,0,2,"stim/objects/Instruments/flutetrans3.png","",0,0,"",0,"left",3.259000063,NA,NA,NA,NA,NA,3,0,NA,NA,NA,NA,1
"4",40,1,0.5,1,"stim/objects/Instruments/pipepiano.png","stim/13.jpeg",1,3,"stim/13.jpeg",2,"left",2.010999918,1,3,3.323000193,1,2.230000019,4,1,1,1,0,0,1
"5",40,2,0,2,"stim/objects/Instruments/musicsheet3.png","",0,0,"",0,"right",3.007999897,NA,NA,NA,NA,NA,5,1,NA,NA,NA,NA,1
"6",40,2,0,1,"stim/objects/HouseObjects/rubbergloves3.png","",0,0,"",0,"left",1.999000072,NA,NA,NA,NA,NA,6,0,NA,NA,NA,NA,1
"7",40,2,0,1,"stim/objects/HouseObjects/flyswatter3.png","",0,0,"",0,"left",2.854000092,NA,NA,NA,NA,NA,7,0,NA,NA,NA,NA,1
"8",40,2,0,2,"stim/objects/Instruments/harp4.png","",0,0,"",0,"right",0.953999996,NA,NA,NA,NA,NA,8,1,NA,NA,NA,NA,1
"9",40,1,0.1,2,"stim/objects/Instruments/tambourine2.png","stim/64.jpeg",6,4,"stim/64.jpeg",4,"left",1.660000086,1,4,4.338000059,2,1.486999989,9,1,1,1,0,0,1
"10",40,2,0,2,"stim/objects/Instruments/tuba3.png","",0,0,"",0,"left",1.270999908,NA,NA,NA,NA,NA,10,0,NA,NA,NA,NA,1
"11",40,2,0,1,"stim/objects/HouseObjects/hairdryer4.png","",0,0,"",0,"right",0.951999903,NA,NA,NA,NA,NA,11,1,NA,NA,NA,NA,1
"12",40,1,0.3,1,"stim/objects/HouseObjects/dishsoap2.png","stim/34.jpeg",3,4,"stim/34.jpeg",1,"left",1.026000023,1,2,1.991999865,1,2.329999924,12,1,0,0,1,1,1
"13",40,1,0.7,1,"stim/objects/HouseObjects/glassmop2.png","stim/43.jpeg",4,3,"stim/43.jpeg",3,"left",0.787999868,1,3,5.325000048,2,1.434999943,13,1,1,1,0,0,1
"14",40,2,0,2,"stim/objects/Instruments/guitarcase3.png","",0,0,"",0,"right",0.969000101,NA,NA,NA,NA,NA,14,1,NA,NA,NA,NA,1
"15",40,1,0.9,2,"stim/objects/Instruments/musicstand2.png","stim/52.jpeg",5,2,"stim/52.jpeg",4,"left",0.825000048,4,1,2.268999815,1,1.712999821,15,1,0,0,0,0,1
"16",40,1,0.3,1,"stim/objects/HouseObjects/cushion2.png","stim/33.jpeg",3,3,"stim/33.jpeg",4,"left",1.48300004,4,2,3.166000128,1,1.842000008,16,1,0,0,0,0,1
"17",40,1,0.7,1,"stim/objects/HouseObjects/iron2.png","stim/43.jpeg",4,3,"stim/43.jpeg",2,"left",2.602999926,3,4,2.703999996,2,1.845000029,17,1,0,0,1,1,1
"18",40,2,0,1,"stim/objects/HouseObjects/saw3.png","",0,0,"",0,"right",0.924000025,NA,NA,NA,NA,NA,18,1,NA,NA,NA,NA,1
"19",40,1,0.9,1,"stim/objects/HouseObjects/thread2.png","stim/63.jpeg",6,3,"stim/63.jpeg",3,"left",0.846999884,4,3,4.976999998,1,0.849999905,19,1,1,1,0,0,1
"20",40,1,0.7,2,"stim/objects/Instruments/trumpet.png","stim/32.jpeg",3,2,"stim/32.jpeg",2,"left",1.088000059,4,3,2.217000008,1,1.178999901,20,1,0,0,0,0,1
"21",40,2,0,1,"stim/objects/HouseObjects/iron4.png","",0,0,"",0,"right",0.86500001,NA,NA,NA,NA,NA,21,1,NA,NA,NA,NA,1
"22",40,2,0,2,"stim/objects/Instruments/flute3.png","",0,0,"",0,"right",0.712000132,NA,NA,NA,NA,NA,22,1,NA,NA,NA,NA,1
"23",40,1,0.3,2,"stim/objects/Instruments/harmonica2.png","stim/42.jpeg",4,2,"stim/42.jpeg",2,"left",0.893000126,4,4,1.704999924,2,1.092999935,23,1,0,0,1,1,1
"24",40,1,0.7,1,"stim/objects/HouseObjects/garbagebin2.png","stim/41.jpeg",4,1,"stim/41.jpeg",1,"left",1.680999994,2,2,1.465000153,2,1.106999874,24,1,0,0,0,0,1
"25",40,2,0,1,"stim/objects/HouseObjects/coffee3.png","",0,0,"",0,"right",1.051999807,NA,NA,NA,NA,NA,25,1,NA,NA,NA,NA,1
"26",40,1,0.9,1,"stim/objects/HouseObjects/vacuumcleaner2.png","stim/61.jpeg",6,1,"stim/61.jpeg",1,"left",1.912999868,2,4,2.496999979,2,1.305999994,26,1,0,0,0,0,1
"27",40,2,0,2,"stim/objects/Instruments/guitarcase4.png","",0,0,"",0,"right",1.905999899,NA,NA,NA,NA,NA,27,1,NA,NA,NA,NA,1
"28",40,1,0.5,1,"stim/objects/Instruments/record_player.png","stim/11.jpeg",1,1,"stim/11.jpeg",3,"left",3.04399991,2,3,1.877000093,2,0.950999975,28,1,0,0,0,0,1
"29",40,1,0.5,1,"stim/objects/Instruments/record.png","stim/14.jpeg",1,4,"stim/14.jpeg",1,"left",1.31099987,4,1,1.544000149,2,0.795000076,29,1,0,0,0,0,1
"30",40,1,0.5,1,"stim/objects/Instruments/saxophone.png","stim/12.jpeg",1,2,"stim/12.jpeg",3,"left",1.242000103,4,3,3.07799983,2,1.986000061,30,1,0,0,0,0,1
"31",40,2,0,1,"stim/objects/HouseObjects/match3.png","",0,0,"",0,"right",0.991999865,NA,NA,NA,NA,NA,31,1,NA,NA,NA,NA,1
"32",40,2,0,2,"stim/objects/Instruments/triangle3.png","",0,0,"",0,"left",1.799000025,NA,NA,NA,NA,NA,32,0,NA,NA,NA,NA,1
"33",40,2,0,1,"stim/objects/HouseObjects/iron3.png","",0,0,"",0,"right",1.030999899,NA,NA,NA,NA,NA,33,1,NA,NA,NA,NA,1
"34",40,2,0,1,"stim/objects/HouseObjects/hairdryer3.png","",0,0,"",0,"right",0.65199995,NA,NA,NA,NA,NA,34,1,NA,NA,NA,NA,1
"35",40,2,0,2,"stim/objects/Instruments/harmonica4.png","",0,0,"",0,"right",1.079999924,NA,NA,NA,NA,NA,35,1,NA,NA,NA,NA,1
"36",40,1,0.9,2,"stim/objects/Instruments/record_player2.png","stim/53.jpeg",5,3,"stim/53.jpeg",2,"left",1.906999826,3,2,1.674999952,2,1.625999928,36,1,0,0,1,1,1
"37",40,1,0.1,1,"stim/objects/HouseObjects/recyclingbin2.png","stim/52.jpeg",5,2,"stim/52.jpeg",3,"right",0.690000057,1,1,1.852999926,1,0.947999954,37,0,0,NA,0,NA,1
"38",40,2,0,1,"stim/objects/HouseObjects/dustpan3.png","",0,0,"",0,"right",1.280999899,NA,NA,NA,NA,NA,38,1,NA,NA,NA,NA,1
"39",40,2,0,1,"stim/objects/HouseObjects/glass3.png","",0,0,"",0,"left",2.210000038,NA,NA,NA,NA,NA,39,0,NA,NA,NA,NA,1
"40",40,1,0.1,2,"stim/objects/Instruments/violin2.png","stim/62.jpeg",6,2,"stim/62.jpeg",4,"right",2.011000156,1,2,0.803999901,2,0.96600008,40,0,1,NA,0,NA,1
"41",40,1,0.5,1,"stim/objects/HouseObjects/rug.png","stim/12.jpeg",1,2,"stim/12.jpeg",2,"right",1.073000193,1,1,1.855999947,2,1.121999979,41,0,0,NA,1,NA,1
"42",40,2,0,1,"stim/objects/HouseObjects/key3.png","",0,0,"",0,"right",1.179000139,NA,NA,NA,NA,NA,42,1,NA,NA,NA,NA,1
"43",40,1,0.3,2,"stim/objects/Instruments/frenchhorn2.png","stim/42.jpeg",4,2,"stim/42.jpeg",1,"right",0.712000132,2,3,1.562000036,2,0.72300005,43,0,0,NA,0,NA,1
"44",40,2,0,2,"stim/objects/Instruments/electricdrumset3.png","",0,0,"",0,"right",1.056999922,NA,NA,NA,NA,NA,44,1,NA,NA,NA,NA,1
"45",40,1,0.3,2,"stim/objects/Instruments/harp2.png","stim/43.jpeg",4,3,"stim/43.jpeg",4,"left",1.197999954,3,2,1.558000088,2,0.822000027,45,1,0,0,0,0,1
"46",40,2,0,1,"stim/objects/HouseObjects/cushion3.png","",0,0,"",0,"right",0.762000084,NA,NA,NA,NA,NA,46,1,NA,NA,NA,NA,1
"47",40,2,0,1,"stim/objects/HouseObjects/spraybottle3.png","",0,0,"",0,"right",1.049999952,NA,NA,NA,NA,NA,47,1,NA,NA,NA,NA,1
"48",40,2,0,2,"stim/objects/Instruments/frenchhorn4.png","",0,0,"",0,"left",1.114000082,NA,NA,NA,NA,NA,48,0,NA,NA,NA,NA,1
"49",40,2,0,2,"stim/objects/Instruments/oboe3.png","",0,0,"",0,"right",1.319000006,NA,NA,NA,NA,NA,49,1,NA,NA,NA,NA,1
"50",40,2,0,1,"stim/objects/HouseObjects/handbrush3.png","",0,0,"",0,"right",0.90899992,NA,NA,NA,NA,NA,50,1,NA,NA,NA,NA,1
"51",40,1,0.9,2,"stim/objects/Instruments/oboe2.png","stim/53.jpeg",5,3,"stim/53.jpeg",4,"left",1.212000132,3,3,2.284000158,2,0.797999859,51,1,1,1,0,0,1
"52",40,2,0,2,"stim/objects/Instruments/hihat4.png","",0,0,"",0,"left",1.226999998,NA,NA,NA,NA,NA,52,0,NA,NA,NA,NA,1
"53",40,2,0,1,"stim/objects/HouseObjects/glassmop3.png","",0,0,"",0,"right",1.234999895,NA,NA,NA,NA,NA,53,1,NA,NA,NA,NA,1
"54",40,2,0,2,"stim/objects/Instruments/marimba3.png","",0,0,"",0,"right",0.603999853,NA,NA,NA,NA,NA,54,1,NA,NA,NA,NA,1
"55",40,1,0.7,1,"stim/objects/HouseObjects/flyswatter2.png","stim/44.jpeg",4,4,"stim/44.jpeg",1,"left",0.779000044,4,3,1.467000008,2,0.737999916,55,1,0,0,0,0,1
"56",40,1,0.1,2,"stim/objects/Instruments/speaker2.png","stim/63.jpeg",6,3,"stim/63.jpeg",2,"right",0.687999964,3,2,1.467000008,4,1.813999891,56,0,0,NA,0,NA,1
"57",40,1,0.5,1,"stim/objects/HouseObjects/rubbergloves.png","stim/11.jpeg",1,1,"stim/11.jpeg",4,"left",1.005999804,4,4,2.651000023,2,0.784000158,57,1,0,0,0,0,1
"58",40,1,0.3,2,"stim/objects/Instruments/gong2.png","stim/43.jpeg",4,3,"stim/43.jpeg",4,"right",0.877000093,3,1,1.463000059,3,1.098999977,58,0,0,NA,0,NA,1
"59",40,2,0,2,"stim/objects/Instruments/laud4.png","",0,0,"",0,"right",1.596999884,NA,NA,NA,NA,NA,59,1,NA,NA,NA,NA,1
"60",40,1,0.7,1,"stim/objects/HouseObjects/handvacuum2.png","stim/42.jpeg",4,2,"stim/42.jpeg",4,"left",0.766000032,4,3,0.994999886,3,3.128000021,60,1,0,0,0,0,1
"61",40,2,0,1,"stim/objects/HouseObjects/doormat3.png","",0,0,"",0,"right",0.835000038,NA,NA,NA,NA,NA,61,1,NA,NA,NA,NA,1
"62",40,1,0.9,1,"stim/objects/HouseObjects/thermometer2.png","stim/62.jpeg",6,2,"stim/62.jpeg",2,"right",0.595000029,3,2,1.126999855,1,1.389999866,62,0,1,NA,0,NA,1
"63",40,2,0,2,"stim/objects/Instruments/flutetrans4.png","",0,0,"",0,"left",1.062000036,NA,NA,NA,NA,NA,63,0,NA,NA,NA,NA,1
"64",40,1,0.9,1,"stim/objects/HouseObjects/saw2.png","stim/61.jpeg",6,1,"stim/61.jpeg",1,"right",2.00999999,4,3,0.694000006,2,0.546000004,64,0,0,NA,0,NA,1
"65",40,1,0.1,1,"stim/objects/HouseObjects/pitcher2.png","stim/51.jpeg",5,1,"stim/51.jpeg",1,"right",1.263999939,1,1,1.05700016,2,0.661000013,65,0,1,NA,0,NA,1
"66",40,1,0.7,1,"stim/objects/HouseObjects/hairdryer2.png","stim/44.jpeg",4,4,"stim/44.jpeg",3,"right",0.935000181,3,4,0.820000172,3,0.609999895,66,0,1,NA,1,NA,1
"67",40,2,0,1,"stim/objects/HouseObjects/handbrush4.png","",0,0,"",0,"right",0.803999901,NA,NA,NA,NA,NA,67,1,NA,NA,NA,NA,1
"68",40,1,0.3,2,"stim/objects/Instruments/maraca2.png","stim/43.jpeg",4,3,"stim/43.jpeg",2,"left",0.822999954,4,1,1.792000055,2,2.02699995,68,1,0,0,1,1,1
"69",40,1,0.1,1,"stim/objects/HouseObjects/rug2.png","stim/51.jpeg",5,1,"stim/51.jpeg",2,"left",1.631999969,4,3,1.404999971,1,1.580999851,69,1,0,0,0,0,1
"70",40,1,0.7,2,"stim/objects/Instruments/violin.png","stim/34.jpeg",3,4,"stim/34.jpeg",4,"left",1.374000072,4,2,2.853999853,4,1.288000107,70,1,0,0,1,1,1
"71",40,1,0.5,1,"stim/objects/Instruments/panflute.png","stim/12.jpeg",1,2,"stim/12.jpeg",1,"left",1.441000223,4,2,3.022000074,4,1.400999784,71,1,1,1,0,0,1
"72",40,2,0,2,"stim/objects/Instruments/maraca4.png","",0,0,"",0,"right",1.066999912,NA,NA,NA,NA,NA,72,1,NA,NA,NA,NA,1
"73",40,2,0,1,"stim/objects/HouseObjects/doormat4.png","",0,0,"",0,"right",0.736999989,NA,NA,NA,NA,NA,73,1,NA,NA,NA,NA,1
"74",40,1,0.7,2,"stim/objects/Instruments/flute2.png","stim/32.jpeg",3,2,"stim/32.jpeg",2,"right",0.749000072,4,1,1.298000097,1,1.135999918,74,0,0,NA,0,NA,1
"75",40,1,0.3,1,"stim/objects/HouseObjects/dustpan2.png","stim/32.jpeg",3,2,"stim/32.jpeg",3,"right",1.075000048,4,2,0.991999865,2,1.192000151,75,0,1,NA,0,NA,1
"76",40,1,0.9,1,"stim/objects/HouseObjects/teapot2.png","stim/61.jpeg",6,1,"stim/61.jpeg",1,"left",0.753999949,4,3,2.957999945,2,1.069000006,76,1,0,0,0,0,1
"77",40,1,0.7,2,"stim/objects/Instruments/tuba.png","stim/33.jpeg",3,3,"stim/33.jpeg",4,"left",2.0849998,4,2,2.088999987,1,0.769999981,77,1,0,0,0,0,1
"78",40,2,0,1,"stim/objects/HouseObjects/thermometer3.png","",0,0,"",0,"right",0.74000001,NA,NA,NA,NA,NA,78,1,NA,NA,NA,NA,1
"79",40,2,0,1,"stim/objects/HouseObjects/dishsoap4.png","",0,0,"",0,"right",0.631999969,NA,NA,NA,NA,NA,79,1,NA,NA,NA,NA,1
"80",40,2,0,1,"stim/objects/HouseObjects/handvacuum3.png","",0,0,"",0,"left",0.896999836,NA,NA,NA,NA,NA,80,0,NA,NA,NA,NA,1
"81",40,2,0,1,"stim/objects/HouseObjects/sponge3.png","",0,0,"",0,"left",1.155999899,NA,NA,NA,NA,NA,81,0,NA,NA,NA,NA,1
"82",40,1,0.9,2,"stim/objects/Instruments/metronome2.png","stim/54.jpeg",5,4,"stim/54.jpeg",3,"left",1.022000074,4,2,2.025000095,3,2.065999985,82,1,0,0,1,1,1
"83",40,2,0,2,"stim/objects/Instruments/musicstand3.png","",0,0,"",0,"left",0.778000116,NA,NA,NA,NA,NA,83,0,NA,NA,NA,NA,1
"84",40,1,0.7,2,"stim/objects/Instruments/drums2.png","stim/33.jpeg",3,3,"stim/33.jpeg",1,"left",0.904000044,4,4,1.47300005,2,3.085000038,84,1,0,0,0,0,1
"85",40,1,0.1,2,"stim/objects/Instruments/vuvuzela2.png","stim/63.jpeg",6,3,"stim/63.jpeg",2,"left",0.816999912,4,4,2.476000071,3,0.768000126,85,1,0,0,0,0,1
"86",40,1,0.7,2,"stim/objects/Instruments/vuvuzela.png","stim/31.jpeg",3,1,"stim/31.jpeg",3,"left",0.904000044,4,1,1.703000069,2,0.782999992,86,1,1,1,0,0,1
"87",40,2,0,1,"stim/objects/HouseObjects/ironingboard4.png","",0,0,"",0,"right",0.904000044,NA,NA,NA,NA,NA,87,1,NA,NA,NA,NA,1
"88",40,1,0.9,1,"stim/objects/HouseObjects/towel2.png","stim/64.jpeg",6,4,"stim/64.jpeg",2,"right",0.575999975,4,4,1.775000095,1,1.758000135,88,0,1,NA,0,NA,1
"89",40,1,0.7,1,"stim/objects/HouseObjects/glass2.png","stim/42.jpeg",4,2,"stim/42.jpeg",2,"left",0.904000044,4,1,1.536000013,2,0.638999939,89,1,0,0,1,1,1
"90",40,2,0,1,"stim/objects/HouseObjects/pitcher3.png","",0,0,"",0,"left",0.878999949,NA,NA,NA,NA,NA,90,0,NA,NA,NA,NA,1
"91",40,1,0.9,2,"stim/objects/Instruments/record2.png","stim/52.jpeg",5,2,"stim/52.jpeg",2,"left",0.901000023,4,3,0.931999922,2,2.911999941,91,1,0,0,1,1,1
"92",40,2,0,2,"stim/objects/Instruments/record_player3.png","",0,0,"",0,"right",0.904999971,NA,NA,NA,NA,NA,92,1,NA,NA,NA,NA,1
"93",40,1,0.3,2,"stim/objects/Instruments/keyboard2.png","stim/41.jpeg",4,1,"stim/41.jpeg",4,"right",0.607999802,4,3,1.14199996,2,0.703000069,93,0,0,NA,0,NA,1
"94",40,2,0,1,"stim/objects/HouseObjects/wateringcan3.png","",0,0,"",0,"left",1.436000109,NA,NA,NA,NA,NA,94,0,NA,NA,NA,NA,1
"95",40,1,0.9,2,"stim/objects/Instruments/pipepiano2.png","stim/51.jpeg",5,1,"stim/51.jpeg",1,"left",0.775000095,4,2,2.245000124,1,0.817000151,95,1,0,0,1,1,1
"96",40,2,0,2,"stim/objects/Instruments/gong4.png","",0,0,"",0,"right",0.868999958,NA,NA,NA,NA,NA,96,1,NA,NA,NA,NA,1
"97",40,2,0,1,"stim/objects/HouseObjects/pan3.png","",0,0,"",0,"left",0.843999863,NA,NA,NA,NA,NA,97,0,NA,NA,NA,NA,1
"98",40,1,0.1,2,"stim/objects/Instruments/tuba2.png","stim/61.jpeg",6,1,"stim/61.jpeg",2,"left",1.377000093,4,4,3.446999788,2,0.789000034,98,1,0,0,1,1,1
"99",40,2,0,2,"stim/objects/Instruments/tambourine3.png","",0,0,"",0,"right",0.710000038,NA,NA,NA,NA,NA,99,1,NA,NA,NA,NA,1
"100",40,2,0,1,"stim/objects/HouseObjects/dishsoap3.png","",0,0,"",0,"right",0.542999983,NA,NA,NA,NA,NA,100,1,NA,NA,NA,NA,1
"101",40,1,0.1,1,"stim/objects/HouseObjects/match2.png","stim/53.jpeg",5,3,"stim/53.jpeg",3,"right",0.555000067,4,1,1.375999928,2,0.593000174,101,0,0,NA,0,NA,1
"102",40,2,0,2,"stim/objects/Instruments/frenchhorn3.png","",0,0,"",0,"left",1.509000063,NA,NA,NA,NA,NA,102,0,NA,NA,NA,NA,1
"103",40,2,0,1,"stim/objects/HouseObjects/thread3.png","",0,0,"",0,"right",1.01699996,NA,NA,NA,NA,NA,103,1,NA,NA,NA,NA,1
"104",40,1,0.5,1,"stim/objects/HouseObjects/remote.png","stim/14.jpeg",1,4,"stim/14.jpeg",1,"left",0.830000162,4,1,1.4599998,2,0.608999968,104,1,0,0,0,0,1
"105",40,2,0,1,"stim/objects/HouseObjects/rug3.png","",0,0,"",0,"right",0.769999981,NA,NA,NA,NA,NA,105,1,NA,NA,NA,NA,1
"106",40,2,0,1,"stim/objects/HouseObjects/teapot3.png","",0,0,"",0,"right",0.746999979,NA,NA,NA,NA,NA,106,1,NA,NA,NA,NA,1
"107",40,1,0.1,1,"stim/objects/HouseObjects/knife2.png","stim/51.jpeg",5,1,"stim/51.jpeg",3,"right",0.51699996,4,4,2.269999981,1,1.187000036,107,0,0,NA,0,NA,1
"108",40,1,0.3,2,"stim/objects/Instruments/hihat2.png","stim/44.jpeg",4,4,"stim/44.jpeg",2,"left",1.746000051,4,4,3.355000019,2,0.657999992,108,1,1,1,1,1,1
"109",40,2,0,2,"stim/objects/Instruments/harmonica3.png","",0,0,"",0,"left",0.868000031,NA,NA,NA,NA,NA,109,0,NA,NA,NA,NA,1
"110",40,2,0,1,"stim/objects/HouseObjects/vacuumcleaner3.png","",0,0,"",0,"right",1.114000082,NA,NA,NA,NA,NA,110,1,NA,NA,NA,NA,1
"111",40,2,0,1,"stim/objects/HouseObjects/ironingboard3.png","",0,0,"",0,"right",0.733999968,NA,NA,NA,NA,NA,111,1,NA,NA,NA,NA,1
"112",40,1,0.7,1,"stim/objects/HouseObjects/handbrush2.png","stim/41.jpeg",4,1,"stim/41.jpeg",1,"left",0.730000019,4,1,0.901000023,2,0.649999857,112,1,1,1,0,0,1
"113",40,2,0,2,"stim/objects/Instruments/electricguitar3.png","",0,0,"",0,"right",0.688999891,NA,NA,NA,NA,NA,113,1,NA,NA,NA,NA,1
"114",40,2,0,1,"stim/objects/HouseObjects/scale3.png","",0,0,"",0,"right",0.529999971,NA,NA,NA,NA,NA,114,1,NA,NA,NA,NA,1
"115",40,1,0.1,2,"stim/objects/Instruments/triangle2.png","stim/62.jpeg",6,2,"stim/62.jpeg",2,"left",0.708000183,4,4,1.25,2,1.602000237,115,1,0,0,1,1,1
"116",40,1,0.5,2,"stim/objects/Instruments/trombone.png","stim/24.jpeg",2,4,"stim/24.jpeg",1,"right",1.458999872,4,2,1.522000074,2,1.036999941,116,0,0,NA,0,NA,1
"117",40,2,0,2,"stim/objects/Instruments/vuvuzela3.png","",0,0,"",0,"right",1.082000017,NA,NA,NA,NA,NA,117,1,NA,NA,NA,NA,1
"118",40,1,0.1,1,"stim/objects/HouseObjects/lintroller2.png","stim/52.jpeg",5,2,"stim/52.jpeg",3,"left",1.056999922,4,4,1.652000189,1,1.289999962,118,1,0,0,0,0,1
"119",40,1,0.5,2,"stim/objects/Instruments/speaker.png","stim/24.jpeg",2,4,"stim/24.jpeg",1,"left",1.182999849,4,2,3.415999889,2,1.233999968,119,1,0,0,0,0,1
"120",40,1,0.9,1,"stim/objects/HouseObjects/spraybottle2.png","stim/64.jpeg",6,4,"stim/64.jpeg",4,"right",0.573999882,4,4,1.828000069,2,0.718000174,120,0,1,NA,0,NA,1
"121",40,1,0.3,1,"stim/objects/HouseObjects/doormat2.png","stim/31.jpeg",3,1,"stim/31.jpeg",3,"left",1.336999893,3,2,1.132000208,1,1.042000055,121,1,0,0,0,0,1
"122",40,1,0.9,2,"stim/objects/Instruments/musicsheet2.png","stim/51.jpeg",5,1,"stim/51.jpeg",3,"left",0.912999868,4,4,1.68900013,2,1.899000168,122,1,0,0,0,0,1
"123",40,1,0.7,1,"stim/objects/HouseObjects/key2.png","stim/41.jpeg",4,1,"stim/41.jpeg",1,"left",1.066999912,4,1,1.725000143,2,0.792999983,123,1,1,1,0,0,1
"124",40,2,0,2,"stim/objects/Instruments/trumpet3.png","",0,0,"",0,"left",0.931999922,NA,NA,NA,NA,NA,124,0,NA,NA,NA,NA,1
"125",40,1,0.9,1,"stim/objects/HouseObjects/sponge2.png","stim/63.jpeg",6,3,"stim/63.jpeg",4,"left",0.620000124,4,3,1.236999989,2,1.076999903,125,1,1,1,0,0,1
"126",40,2,0,2,"stim/objects/Instruments/xylophone3.png","",0,0,"",0,"right",0.684000015,NA,NA,NA,NA,NA,126,1,NA,NA,NA,NA,1
"127",40,1,0.5,1,"stim/objects/HouseObjects/recyclingbin.png","stim/13.jpeg",1,3,"stim/13.jpeg",4,"left",1.06400013,4,1,1.253000021,3,0.617000103,127,1,0,0,0,0,1
"128",40,1,0.7,2,"stim/objects/Instruments/xylophone.png","stim/32.jpeg",3,2,"stim/32.jpeg",2,"right",0.901000023,2,3,1.286000013,2,2.073999882,128,0,0,NA,1,NA,1
"129",40,1,0.1,1,"stim/objects/HouseObjects/pan2.png","stim/54.jpeg",5,4,"stim/54.jpeg",3,"right",0.944999933,1,1,1.220000029,1,0.714999914,129,0,0,NA,0,NA,1
"130",40,2,0,2,"stim/objects/Instruments/record3.png","",0,0,"",0,"right",1.444999933,NA,NA,NA,NA,NA,130,1,NA,NA,NA,NA,1
"131",40,2,0,2,"stim/objects/Instruments/harp3.png","",0,0,"",0,"left",1.371999979,NA,NA,NA,NA,NA,131,0,NA,NA,NA,NA,1
"132",40,2,0,2,"stim/objects/Instruments/panflute3.png","",0,0,"",0,"right",1.098999977,NA,NA,NA,NA,NA,132,1,NA,NA,NA,NA,1
"133",40,1,0.5,1,"stim/objects/HouseObjects/safetypin.png","stim/13.jpeg",1,3,"stim/13.jpeg",1,"left",0.733999968,4,2,1.436000109,1,0.751000166,133,1,0,0,1,1,1
"134",40,2,0,2,"stim/objects/Instruments/hihat3.png","",0,0,"",0,"right",0.952000141,NA,NA,NA,NA,NA,134,1,NA,NA,NA,NA,1
"135",40,2,0,2,"stim/objects/Instruments/flute4.png","",0,0,"",0,"right",1.242999792,NA,NA,NA,NA,NA,135,1,NA,NA,NA,NA,1
"136",40,1,0.1,1,"stim/objects/HouseObjects/safetypin2.png","stim/52.jpeg",5,2,"stim/52.jpeg",4,"left",1.835999966,4,1,1.618999958,1,0.74000001,136,1,0,0,0,0,1
"137",40,2,0,2,"stim/objects/Instruments/violin3.png","",0,0,"",0,"right",2.188999891,NA,NA,NA,NA,NA,137,1,NA,NA,NA,NA,1
"138",40,1,0.1,2,"stim/objects/Instruments/timbal2.png","stim/61.jpeg",6,1,"stim/61.jpeg",2,"left",0.786000013,4,4,1.085000038,2,0.763000011,138,1,0,0,1,1,1
"139",40,1,0.5,2,"stim/objects/Instruments/tambourine.png","stim/21.jpeg",2,1,"stim/21.jpeg",2,"left",0.773000002,4,3,1.992000103,2,1.371999979,139,1,0,0,1,1,1
"140",40,2,0,2,"stim/objects/Instruments/grandpiano4.png","",0,0,"",0,"right",0.796000004,NA,NA,NA,NA,NA,140,1,NA,NA,NA,NA,1
"141",40,2,0,2,"stim/objects/Instruments/laud3.png","",0,0,"",0,"right",0.524999857,NA,NA,NA,NA,NA,141,1,NA,NA,NA,NA,1
"142",40,1,0.9,1,"stim/objects/HouseObjects/wateringcan2.png","stim/62.jpeg",6,2,"stim/62.jpeg",4,"left",0.835000038,4,4,2.585000038,2,1.736000061,142,1,0,0,0,0,1
"143",40,1,0.3,1,"stim/objects/HouseObjects/vacuumcleaner.png","stim/34.jpeg",3,4,"stim/34.jpeg",3,"right",0.836999893,4,1,0.938999891,1,1.187999964,143,0,0,NA,0,NA,1
"144",40,1,0.7,2,"stim/objects/Instruments/electricdrumset2.png","stim/34.jpeg",3,4,"stim/34.jpeg",1,"left",0.878999949,4,4,0.84100008,2,0.781999826,144,1,1,1,0,0,1
"145",40,1,0.1,1,"stim/objects/HouseObjects/remote2.png","stim/53.jpeg",5,3,"stim/53.jpeg",1,"left",0.851000071,4,4,1.173000097,2,0.755000114,145,1,0,0,0,0,1
"146",40,1,0.5,2,"stim/objects/Instruments/timbal.png","stim/22.jpeg",2,2,"stim/22.jpeg",2,"left",0.904000044,4,4,1.250999928,2,0.760999918,146,1,0,0,1,1,1
"147",40,2,0,2,"stim/objects/Instruments/keyboard3.png","",0,0,"",0,"right",0.884000063,NA,NA,NA,NA,NA,147,1,NA,NA,NA,NA,1
"148",40,2,0,1,"stim/objects/HouseObjects/recyclingbin3.png","",0,0,"",0,"right",1.051999807,NA,NA,NA,NA,NA,148,1,NA,NA,NA,NA,1
"149",40,2,0,2,"stim/objects/Instruments/speaker3.png","",0,0,"",0,"left",0.845000029,NA,NA,NA,NA,NA,149,0,NA,NA,NA,NA,1
"150",40,1,0.5,2,"stim/objects/HouseObjects/teapot.png","stim/21.jpeg",2,1,"stim/21.jpeg",4,"left",0.818000078,4,4,3.378999949,1,1.211999893,150,1,0,0,0,0,1
"151",40,2,0,2,"stim/objects/Instruments/maraca3.png","",0,0,"",0,"left",0.863000154,NA,NA,NA,NA,NA,151,0,NA,NA,NA,NA,1
"152",40,1,0.3,1,"stim/objects/HouseObjects/thermometer.png","stim/31.jpeg",3,1,"stim/31.jpeg",1,"right",1.401000023,1,1,0.900000095,3,0.888000011,152,0,1,NA,0,NA,1
"153",40,1,0.1,2,"stim/objects/Instruments/xylophone2.png","stim/64.jpeg",6,4,"stim/64.jpeg",4,"right",0.93200016,4,4,0.798000097,2,0.683000088,153,0,1,NA,0,NA,1
"154",40,2,0,1,"stim/objects/HouseObjects/knife3.png","",0,0,"",0,"right",1.100999832,NA,NA,NA,NA,NA,154,1,NA,NA,NA,NA,1
"155",40,2,0,2,"stim/objects/Instruments/pipepiano3.png","",0,0,"",0,"left",1.079999924,NA,NA,NA,NA,NA,155,0,NA,NA,NA,NA,1
"156",40,1,0.9,2,"stim/objects/Instruments/marimba2.png","stim/53.jpeg",5,3,"stim/53.jpeg",1,"left",0.805999994,4,4,1.875,3,1.138000011,156,1,0,0,0,0,1
"157",40,1,0.9,1,"stim/objects/HouseObjects/scale2.png","stim/62.jpeg",6,2,"stim/62.jpeg",3,"left",0.89199996,4,2,2.710999966,4,2.963000059,157,1,1,1,0,0,1
"158",40,2,0,2,"stim/objects/Instruments/trombone3.png","",0,0,"",0,"left",0.687000036,NA,NA,NA,NA,NA,158,0,NA,NA,NA,NA,1
"159",40,2,0,1,"stim/objects/HouseObjects/glass4.png","",0,0,"",0,"left",0.852999926,NA,NA,NA,NA,NA,159,0,NA,NA,NA,NA,1
"160",40,1,0.3,1,"stim/objects/HouseObjects/wateringcan.png","stim/31.jpeg",3,1,"stim/31.jpeg",1,"right",0.898999929,4,4,0.791000128,2,1.717999935,160,0,0,NA,0,NA,1
"161",40,2,0,1,"stim/objects/HouseObjects/garbagebin4.png","",0,0,"",0,"right",0.825999975,NA,NA,NA,NA,NA,161,1,NA,NA,NA,NA,1
"162",40,1,0.3,2,"stim/objects/Instruments/guitarcase2.png","stim/41.jpeg",4,1,"stim/41.jpeg",4,"left",0.715000153,4,4,1.253000021,4,0.842000008,162,1,0,0,1,1,1
"163",40,1,0.1,2,"stim/objects/Instruments/trombone2.png","stim/63.jpeg",6,3,"stim/63.jpeg",4,"right",1.204999924,1,3,0.915999889,1,0.907000065,163,0,1,NA,0,NA,1
"164",40,2,0,1,"stim/objects/HouseObjects/safetypin3.png","",0,0,"",0,"right",0.874000072,NA,NA,NA,NA,NA,164,1,NA,NA,NA,NA,1
"165",40,1,0.1,2,"stim/objects/Instruments/trumpet2.png","stim/64.jpeg",6,4,"stim/64.jpeg",4,"left",0.79399991,3,3,0.924999952,2,1.825999975,165,1,0,0,0,0,1
"166",40,2,0,2,"stim/objects/Instruments/timbal3.png","",0,0,"",0,"right",1.048000097,NA,NA,NA,NA,NA,166,1,NA,NA,NA,NA,1
"167",40,1,0.3,1,"stim/objects/HouseObjects/thread.png","stim/32.jpeg",3,2,"stim/32.jpeg",1,"left",0.684000015,3,2,1.019999981,1,0.549000025,167,1,1,1,1,1,1
"168",40,1,0.9,2,"stim/objects/Instruments/saxophone2.png","stim/54.jpeg",5,4,"stim/54.jpeg",1,"right",1.262000084,3,1,0.751000166,2,0.686999798,168,0,0,NA,0,NA,1
"169",40,2,0,2,"stim/objects/Instruments/drums3.png","",0,0,"",0,"right",0.947999954,NA,NA,NA,NA,NA,169,1,NA,NA,NA,NA,1
"170",40,2,0,1,"stim/objects/HouseObjects/dustpan4.png","",0,0,"",0,"right",0.778000116,NA,NA,NA,NA,NA,170,1,NA,NA,NA,NA,1
"171",40,1,0.9,2,"stim/objects/Instruments/panflute2.png","stim/54.jpeg",5,4,"stim/54.jpeg",3,"left",1.020999908,3,3,0.75,2,0.818000078,171,1,0,0,0,0,1
"172",40,1,0.3,2,"stim/objects/Instruments/laud2.png","stim/42.jpeg",4,2,"stim/42.jpeg",3,"right",0.84800005,1,1,0.704999924,1,0.730000019,172,0,0,NA,0,NA,1
"173",40,2,0,1,"stim/objects/HouseObjects/coffee4.png","",0,0,"",0,"right",1.312000036,NA,NA,NA,NA,NA,173,1,NA,NA,NA,NA,1
"174",40,2,0,1,"stim/objects/HouseObjects/flyswatter4.png","",0,0,"",0,"right",0.625,NA,NA,NA,NA,NA,174,1,NA,NA,NA,NA,1
"175",40,2,0,2,"stim/objects/Instruments/grandpiano3.png","",0,0,"",0,"right",0.603000164,NA,NA,NA,NA,NA,175,1,NA,NA,NA,NA,1
"176",40,1,0.5,2,"stim/objects/HouseObjects/spraybottle.png","stim/24.jpeg",2,4,"stim/24.jpeg",3,"right",0.589999914,2,2,0.565000057,4,0.576999903,176,0,0,NA,0,NA,1
"177",40,2,0,1,"stim/objects/HouseObjects/remote3.png","",0,0,"",0,"right",1.219000101,NA,NA,NA,NA,NA,177,1,NA,NA,NA,NA,1
"178",40,2,0,1,"stim/objects/HouseObjects/garbagebin3.png","",0,0,"",0,"right",0.579999924,NA,NA,NA,NA,NA,178,1,NA,NA,NA,NA,1
"179",40,2,0,2,"stim/objects/Instruments/electricguitar4.png","",0,0,"",0,"right",0.578000069,NA,NA,NA,NA,NA,179,1,NA,NA,NA,NA,1
"180",40,1,0.7,2,"stim/objects/Instruments/electricguitar2.png","stim/31.jpeg",3,1,"stim/31.jpeg",1,"right",0.799999952,2,2,0.61500001,1,0.705000162,180,0,0,NA,1,NA,1
"181",40,2,0,1,"stim/objects/HouseObjects/cushion4.png","",0,0,"",0,"right",0.825000048,NA,NA,NA,NA,NA,181,1,NA,NA,NA,NA,1
"182",40,1,0.1,1,"stim/objects/HouseObjects/rubbergloves2.png","stim/54.jpeg",5,4,"stim/54.jpeg",1,"left",0.69299984,3,3,0.986999989,4,0.527999878,182,1,0,0,0,0,1
"183",40,2,0,2,"stim/objects/Instruments/gong3.png","",0,0,"",0,"right",0.986999989,NA,NA,NA,NA,NA,183,1,NA,NA,NA,NA,1
"184",40,1,0.3,1,"stim/objects/HouseObjects/towel.png","stim/33.jpeg",3,3,"stim/33.jpeg",4,"left",0.658000231,3,2,1.289000034,2,0.688999891,184,1,0,0,0,0,1
"185",40,1,0.5,2,"stim/objects/HouseObjects/sponge.png","stim/23.jpeg",2,3,"stim/23.jpeg",3,"left",1.863000154,2,2,0.911999941,1,1.623000145,185,1,0,0,0,0,1
"186",40,1,0.3,2,"stim/objects/Instruments/grandpiano2.png","stim/44.jpeg",4,4,"stim/44.jpeg",4,"right",0.987000227,1,1,0.665999889,1,0.565000057,186,0,0,NA,0,NA,1
"187",40,2,0,1,"stim/objects/HouseObjects/lintroller3.png","",0,0,"",0,"left",1.095999956,NA,NA,NA,NA,NA,187,0,NA,NA,NA,NA,1
"188",40,2,0,1,"stim/objects/HouseObjects/glassmop4.png","",0,0,"",0,"left",0.815999985,NA,NA,NA,NA,NA,188,0,NA,NA,NA,NA,1
"189",40,1,0.5,2,"stim/objects/Instruments/triangle.png","stim/23.jpeg",2,3,"stim/23.jpeg",2,"left",0.633000135,3,3,0.770999908,2,0.937000036,189,1,1,1,1,1,1
"190",40,2,0,1,"stim/objects/HouseObjects/towel3.png","",0,0,"",0,"right",1.140999794,NA,NA,NA,NA,NA,190,1,NA,NA,NA,NA,1
"191",40,2,0,2,"stim/objects/Instruments/saxophone3.png","",0,0,"",0,"right",0.538000107,NA,NA,NA,NA,NA,191,1,NA,NA,NA,NA,1
"192",40,2,0,2,"stim/objects/Instruments/metronome3.png","",0,0,"",0,"left",0.835000038,NA,NA,NA,NA,NA,192,0,NA,NA,NA,NA,1
"193",40,1,0.5,2,"stim/objects/HouseObjects/scale.png","stim/22.jpeg",2,2,"stim/22.jpeg",2,"right",0.750999928,2,1,0.950999975,1,0.377000093,193,0,0,NA,0,NA,1
"194",40,2,0,1,"stim/objects/HouseObjects/key4.png","",0,0,"",0,"left",1.049000025,NA,NA,NA,NA,NA,194,0,NA,NA,NA,NA,1
"195",40,2,0,2,"stim/objects/Instruments/drums4.png","",0,0,"",0,"right",0.661000013,NA,NA,NA,NA,NA,195,1,NA,NA,NA,NA,1
"196",40,2,0,2,"stim/objects/Instruments/electricdrumset4.png","",0,0,"",0,"left",0.601000071,NA,NA,NA,NA,NA,196,0,NA,NA,NA,NA,1
"197",40,2,0,1,"stim/objects/HouseObjects/handvacuum4.png","",0,0,"",0,"left",0.806999922,NA,NA,NA,NA,NA,197,0,NA,NA,NA,NA,1
"198",40,1,0.7,2,"stim/objects/Instruments/flutetrans2.png","stim/33.jpeg",3,3,"stim/33.jpeg",1,"right",0.970000029,1,1,0.532000065,1,0.45600009,198,0,0,NA,1,NA,1
"199",40,2,0,2,"stim/objects/Instruments/keyboard4.png","",0,0,"",0,"right",0.872999907,NA,NA,NA,NA,NA,199,1,NA,NA,NA,NA,1
"200",40,1,0.7,1,"stim/objects/HouseObjects/ironingboard2.png","stim/44.jpeg",4,4,"stim/44.jpeg",1,"right",0.570999861,1,1,0.554000139,1,0.61500001,200,0,0,NA,1,NA,1
