"","obj_file","X.x","participant.x","trialN.x","trial_cond","scn_file.x","scn_cat","scn_inst","scn_condition","fillers","obj_cat","obj_cat_num","quadrant","corr_ans","key_resp_trial.keys","key_resp_trial.rt","trial_acc","trial_acc_manual","group.x","practice","X.y","participant.y","OvsN","PE_level","object_cat","scn_file.y","corr_scn_cat","corr_scn_inst","scn_file.1","corr_loc","key_resp_id.keys","key_resp_id.rt","key_resp_conf.keys","key_resp_assoc.keys","key_resp_assoc.rt","key_resp_loc.keys","key_resp_loc.rt","trialN.y","id_acc","assoc.acc","cond_assoc","loc.acc","cond_loc","group.y"
"88","stim/objects/HouseObjects/clock2.png",1,40,1,0.9,"stim/62.jpeg",6,2,3,NA,"HouseObjects",1,4,"left","",NA,0,0,1,1,NA,NA,NA,NA,NA,NA,NA,NA,NA,NA,NA,NA,NA,NA,NA,NA,NA,NA,NA,NA,NA,NA,NA,NA
"42","stim/objects/HouseObjects/basket2.png",2,40,2,0.7,"stim/44.jpeg",4,4,2,NA,"HouseObjects",1,1,"left","right",0.799999952,0,0,1,1,NA,NA,NA,NA,NA,NA,NA,NA,NA,NA,NA,NA,NA,NA,NA,NA,NA,NA,NA,NA,NA,NA,NA,NA
"121","stim/objects/Instruments/accordion.png",3,40,3,0.5,"stim/11.jpeg",1,1,1,NA,"Instruments",2,4,"right","left",0.585999966,0,0,1,1,NA,NA,NA,NA,NA,NA,NA,NA,NA,NA,NA,NA,NA,NA,NA,NA,NA,NA,NA,NA,NA,NA,NA,NA
"233","stim/objects/Instruments/doublebass.png",4,40,4,0.7,"stim/34.jpeg",3,4,2,NA,"Instruments",2,4,"right","left",0.578999996,0,0,1,1,NA,NA,NA,NA,NA,NA,NA,NA,NA,NA,NA,NA,NA,NA,NA,NA,NA,NA,NA,NA,NA,NA,NA,NA
"55","stim/objects/HouseObjects/blender.png",5,40,5,0.5,"stim/22.jpeg",2,2,1,NA,"HouseObjects",1,2,"left","left",0.55099988,1,1,1,1,NA,NA,NA,NA,NA,NA,NA,NA,NA,NA,NA,NA,NA,NA,NA,NA,NA,NA,NA,NA,NA,NA,NA,NA
"97","stim/objects/HouseObjects/clothesdryingrack.png",6,40,6,0.3,"stim/33.jpeg",3,3,2,NA,"HouseObjects",1,4,"left","left",0.578999996,1,1,1,1,NA,NA,NA,NA,NA,NA,NA,NA,NA,NA,NA,NA,NA,NA,NA,NA,NA,NA,NA,NA,NA,NA,NA,NA
"217","stim/objects/Instruments/cornet.png",7,40,7,0.7,"stim/32.jpeg",3,2,2,NA,"Instruments",2,1,"right","right",0.599999905,1,1,1,1,NA,NA,NA,NA,NA,NA,NA,NA,NA,NA,NA,NA,NA,NA,NA,NA,NA,NA,NA,NA,NA,NA,NA,NA
"186","stim/objects/Instruments/cello2.png",8,40,8,0.9,"stim/53.jpeg",5,3,3,NA,"Instruments",2,3,"right","right",0.666000128,1,1,1,1,NA,NA,NA,NA,NA,NA,NA,NA,NA,NA,NA,NA,NA,NA,NA,NA,NA,NA,NA,NA,NA,NA,NA,NA
"129","stim/objects/Instruments/acousticguitar.png",9,40,9,0.5,"stim/12.jpeg",1,2,1,NA,"Instruments",2,2,"right","left",0.494999886,0,0,1,1,NA,NA,NA,NA,NA,NA,NA,NA,NA,NA,NA,NA,NA,NA,NA,NA,NA,NA,NA,NA,NA,NA,NA,NA
"216","stim/objects/Instruments/clarinet2.png",10,40,10,0.1,"stim/61.jpeg",6,1,3,NA,"Instruments",2,4,"right","left",0.537999868,0,0,1,1,NA,NA,NA,NA,NA,NA,NA,NA,NA,NA,NA,NA,NA,NA,NA,NA,NA,NA,NA,NA,NA,NA,NA,NA
"112","stim/objects/HouseObjects/clothespin2.png",11,40,11,0.9,"stim/64.jpeg",6,4,3,NA,"HouseObjects",1,4,"left","left",0.519999981,1,1,1,1,NA,NA,NA,NA,NA,NA,NA,NA,NA,NA,NA,NA,NA,NA,NA,NA,NA,NA,NA,NA,NA,NA,NA,NA
"195","stim/objects/Instruments/chime.png",12,40,12,0.5,"stim/24.jpeg",2,4,1,NA,"Instruments",2,1,"right","right",0.578999996,1,1,1,1,NA,NA,NA,NA,NA,NA,NA,NA,NA,NA,NA,NA,NA,NA,NA,NA,NA,NA,NA,NA,NA,NA,NA,NA
"167","stim/objects/Instruments/bassguitar.png",13,40,13,0.5,"stim/22.jpeg",2,2,1,NA,"Instruments",2,1,"right","left",0.506999969,0,0,1,1,NA,NA,NA,NA,NA,NA,NA,NA,NA,NA,NA,NA,NA,NA,NA,NA,NA,NA,NA,NA,NA,NA,NA,NA
"100","stim/objects/HouseObjects/clothesdryingrack2.png",14,40,14,0.9,"stim/63.jpeg",6,3,3,NA,"HouseObjects",1,4,"left","left",0.648000002,1,1,1,1,NA,NA,NA,NA,NA,NA,NA,NA,NA,NA,NA,NA,NA,NA,NA,NA,NA,NA,NA,NA,NA,NA,NA,NA
"49","stim/objects/HouseObjects/bleachbottle.png",15,40,15,0.5,"stim/21.jpeg",2,1,1,NA,"HouseObjects",1,1,"left","right",0.596999884,0,0,1,1,NA,NA,NA,NA,NA,NA,NA,NA,NA,NA,NA,NA,NA,NA,NA,NA,NA,NA,NA,NA,NA,NA,NA,NA
"61","stim/objects/HouseObjects/bottle.png",16,40,16,0.5,"stim/23.jpeg",2,3,1,NA,"HouseObjects",1,1,"left","left",0.580999851,1,1,1,1,NA,NA,NA,NA,NA,NA,NA,NA,NA,NA,NA,NA,NA,NA,NA,NA,NA,NA,NA,NA,NA,NA,NA,NA
"25","stim/objects/HouseObjects/barbecuelighter.png",17,40,17,0.5,"stim/13.jpeg",1,3,1,NA,"HouseObjects",1,3,"left","right",0.649999857,0,0,1,1,NA,NA,NA,NA,NA,NA,NA,NA,NA,NA,NA,NA,NA,NA,NA,NA,NA,NA,NA,NA,NA,NA,NA,NA
"30","stim/objects/HouseObjects/barbecuelighter2.png",18,40,18,0.7,"stim/43.jpeg",4,3,2,NA,"HouseObjects",1,4,"left","left",0.580999851,1,1,1,1,NA,NA,NA,NA,NA,NA,NA,NA,NA,NA,NA,NA,NA,NA,NA,NA,NA,NA,NA,NA,NA,NA,NA,NA
"225","stim/objects/Instruments/cymbal.png",19,40,19,0.7,"stim/33.jpeg",3,3,2,NA,"Instruments",2,1,"right","right",0.66899991,1,1,1,1,NA,NA,NA,NA,NA,NA,NA,NA,NA,NA,NA,NA,NA,NA,NA,NA,NA,NA,NA,NA,NA,NA,NA,NA
"113","stim/objects/HouseObjects/clothespin2.png",20,40,20,0.9,"stim/64.jpeg",6,4,3,NA,"HouseObjects",1,3,"left","left",0.635999918,1,1,1,1,NA,NA,NA,NA,NA,NA,NA,NA,NA,NA,NA,NA,NA,NA,NA,NA,NA,NA,NA,NA,NA,NA,NA,NA
"172","stim/objects/Instruments/bassguitar2.png",21,40,21,0.9,"stim/52.jpeg",5,2,3,NA,"Instruments",2,3,"right","right",0.622999907,1,1,1,1,NA,NA,NA,NA,NA,NA,NA,NA,NA,NA,NA,NA,NA,NA,NA,NA,NA,NA,NA,NA,NA,NA,NA,NA
"218","stim/objects/Instruments/cornet.png",22,40,22,0.7,"stim/32.jpeg",3,2,2,NA,"Instruments",2,3,"right","left",0.740999937,0,0,1,1,NA,NA,NA,NA,NA,NA,NA,NA,NA,NA,NA,NA,NA,NA,NA,NA,NA,NA,NA,NA,NA,NA,NA,NA
"37","stim/objects/HouseObjects/basket.png",23,40,23,0.5,"stim/14.jpeg",1,4,1,NA,"HouseObjects",1,3,"left","left",0.649999857,1,1,1,1,NA,NA,NA,NA,NA,NA,NA,NA,NA,NA,NA,NA,NA,NA,NA,NA,NA,NA,NA,NA,NA,NA,NA,NA
"26","stim/objects/HouseObjects/barbecuelighter.png",24,40,24,0.5,"stim/13.jpeg",1,3,1,NA,"HouseObjects",1,4,"left","left",0.568000078,1,1,1,1,NA,NA,NA,NA,NA,NA,NA,NA,NA,NA,NA,NA,NA,NA,NA,NA,NA,NA,NA,NA,NA,NA,NA,NA
"43","stim/objects/HouseObjects/basket2.png",25,40,25,0.7,"stim/44.jpeg",4,4,2,NA,"HouseObjects",1,3,"left","right",0.60800004,0,0,1,1,NA,NA,NA,NA,NA,NA,NA,NA,NA,NA,NA,NA,NA,NA,NA,NA,NA,NA,NA,NA,NA,NA,NA,NA
"89","stim/objects/HouseObjects/clock2.png",26,40,26,0.9,"stim/62.jpeg",6,2,3,NA,"HouseObjects",1,1,"left","left",0.542000055,1,1,1,1,NA,NA,NA,NA,NA,NA,NA,NA,NA,NA,NA,NA,NA,NA,NA,NA,NA,NA,NA,NA,NA,NA,NA,NA
"130","stim/objects/Instruments/acousticguitar.png",27,40,27,0.5,"stim/12.jpeg",1,2,1,NA,"Instruments",2,2,"right","left",0.635999918,0,0,1,1,NA,NA,NA,NA,NA,NA,NA,NA,NA,NA,NA,NA,NA,NA,NA,NA,NA,NA,NA,NA,NA,NA,NA,NA
"13","stim/objects/HouseObjects/ballofstring.png",28,40,28,0.5,"stim/12.jpeg",1,2,1,NA,"HouseObjects",1,4,"left","left",0.525999784,1,1,1,1,NA,NA,NA,NA,NA,NA,NA,NA,NA,NA,NA,NA,NA,NA,NA,NA,NA,NA,NA,NA,NA,NA,NA,NA
"173","stim/objects/Instruments/bassguitar2.png",29,40,29,0.9,"stim/52.jpeg",5,2,3,NA,"Instruments",2,1,"right","right",0.628999949,1,1,1,1,NA,NA,NA,NA,NA,NA,NA,NA,NA,NA,NA,NA,NA,NA,NA,NA,NA,NA,NA,NA,NA,NA,NA,NA
"200","stim/objects/Instruments/chime2.png",30,40,30,0.9,"stim/54.jpeg",5,4,3,NA,"Instruments",2,4,"right","left",0.565999985,0,0,1,1,NA,NA,NA,NA,NA,NA,NA,NA,NA,NA,NA,NA,NA,NA,NA,NA,NA,NA,NA,NA,NA,NA,NA,NA
"174","stim/objects/Instruments/bassguitar2.png",31,40,31,0.9,"stim/52.jpeg",5,2,3,NA,"Instruments",2,3,"right","right",0.546999931,1,1,1,1,NA,NA,NA,NA,NA,NA,NA,NA,NA,NA,NA,NA,NA,NA,NA,NA,NA,NA,NA,NA,NA,NA,NA,NA
"181","stim/objects/Instruments/cello.png",32,40,32,0.5,"stim/23.jpeg",2,3,1,NA,"Instruments",2,4,"right","left",0.619999886,0,0,1,1,NA,NA,NA,NA,NA,NA,NA,NA,NA,NA,NA,NA,NA,NA,NA,NA,NA,NA,NA,NA,NA,NA,NA,NA
"168","stim/objects/Instruments/bassguitar.png",33,40,33,0.5,"stim/22.jpeg",2,2,1,NA,"Instruments",2,1,"right","left",0.907000065,0,0,1,1,NA,NA,NA,NA,NA,NA,NA,NA,NA,NA,NA,NA,NA,NA,NA,NA,NA,NA,NA,NA,NA,NA,NA,NA
"54","stim/objects/HouseObjects/bleachbottle2.png",34,40,34,0.1,"stim/51.jpeg",5,1,3,NA,"HouseObjects",1,1,"left","right",0.479999781,0,0,1,1,NA,NA,NA,NA,NA,NA,NA,NA,NA,NA,NA,NA,NA,NA,NA,NA,NA,NA,NA,NA,NA,NA,NA,NA
"137","stim/objects/Instruments/balalaika.png",35,40,35,0.5,"stim/13.jpeg",1,3,1,NA,"Instruments",2,2,"right","left",0.585999966,0,0,1,1,NA,NA,NA,NA,NA,NA,NA,NA,NA,NA,NA,NA,NA,NA,NA,NA,NA,NA,NA,NA,NA,NA,NA,NA
"1","stim/objects/HouseObjects/ashtray.png",36,40,36,0.5,"stim/11.jpeg",1,1,1,NA,"HouseObjects",1,2,"left","left",0.572999954,1,1,1,1,NA,NA,NA,NA,NA,NA,NA,NA,NA,NA,NA,NA,NA,NA,NA,NA,NA,NA,NA,NA,NA,NA,NA,NA
"44","stim/objects/HouseObjects/basket2.png",37,40,37,0.7,"stim/44.jpeg",4,4,2,NA,"HouseObjects",1,2,"left","right",0.865999937,0,0,1,1,NA,NA,NA,NA,NA,NA,NA,NA,NA,NA,NA,NA,NA,NA,NA,NA,NA,NA,NA,NA,NA,NA,NA,NA
"145","stim/objects/Instruments/banjo.png",38,40,38,0.5,"stim/14.jpeg",1,4,1,NA,"Instruments",2,2,"right","left",0.562000036,0,0,1,1,NA,NA,NA,NA,NA,NA,NA,NA,NA,NA,NA,NA,NA,NA,NA,NA,NA,NA,NA,NA,NA,NA,NA,NA
"31","stim/objects/HouseObjects/barbecuelighter2.png",39,40,39,0.7,"stim/43.jpeg",4,3,2,NA,"HouseObjects",1,2,"left","left",0.601000071,1,1,1,1,NA,NA,NA,NA,NA,NA,NA,NA,NA,NA,NA,NA,NA,NA,NA,NA,NA,NA,NA,NA,NA,NA,NA,NA
"142","stim/objects/Instruments/balalaika2.png",40,40,40,0.3,"stim/43.jpeg",4,3,2,NA,"Instruments",2,2,"right","left",0.501999855,0,0,1,1,NA,NA,NA,NA,NA,NA,NA,NA,NA,NA,NA,NA,NA,NA,NA,NA,NA,NA,NA,NA,NA,NA,NA,NA
"196","stim/objects/Instruments/chime.png",41,40,41,0.5,"stim/24.jpeg",2,4,1,NA,"Instruments",2,1,"right","right",0.814999819,1,1,1,1,NA,NA,NA,NA,NA,NA,NA,NA,NA,NA,NA,NA,NA,NA,NA,NA,NA,NA,NA,NA,NA,NA,NA,NA
"201","stim/objects/Instruments/chime2.png",42,40,42,0.9,"stim/54.jpeg",5,4,3,NA,"Instruments",2,4,"right","right",0.796999931,1,1,1,1,NA,NA,NA,NA,NA,NA,NA,NA,NA,NA,NA,NA,NA,NA,NA,NA,NA,NA,NA,NA,NA,NA,NA,NA
"98","stim/objects/HouseObjects/clothesdryingrack.png",43,40,43,0.3,"stim/33.jpeg",3,3,2,NA,"HouseObjects",1,3,"left","right",0.804999828,0,0,1,1,NA,NA,NA,NA,NA,NA,NA,NA,NA,NA,NA,NA,NA,NA,NA,NA,NA,NA,NA,NA,NA,NA,NA,NA
"138","stim/objects/Instruments/balalaika.png",44,40,44,0.5,"stim/13.jpeg",1,3,1,NA,"Instruments",2,4,"right","",NA,0,0,1,1,NA,NA,NA,NA,NA,NA,NA,NA,NA,NA,NA,NA,NA,NA,NA,NA,NA,NA,NA,NA,NA,NA,NA,NA
"143","stim/objects/Instruments/balalaika2.png",45,40,45,0.3,"stim/43.jpeg",4,3,2,NA,"Instruments",2,3,"right","left",0.536999941,0,0,1,1,NA,NA,NA,NA,NA,NA,NA,NA,NA,NA,NA,NA,NA,NA,NA,NA,NA,NA,NA,NA,NA,NA,NA,NA
"209","stim/objects/Instruments/clarinet.png",46,40,46,0.7,"stim/31.jpeg",3,1,2,NA,"Instruments",2,1,"right","right",0.789999962,1,1,1,1,NA,NA,NA,NA,NA,NA,NA,NA,NA,NA,NA,NA,NA,NA,NA,NA,NA,NA,NA,NA,NA,NA,NA,NA
"126","stim/objects/Instruments/accordion2.png",47,40,47,0.3,"stim/41.jpeg",4,1,2,NA,"Instruments",2,3,"right","right",0.565999985,1,1,1,1,NA,NA,NA,NA,NA,NA,NA,NA,NA,NA,NA,NA,NA,NA,NA,NA,NA,NA,NA,NA,NA,NA,NA,NA
"210","stim/objects/Instruments/clarinet.png",48,40,48,0.7,"stim/31.jpeg",3,1,2,NA,"Instruments",2,4,"right","left",0.654999733,0,0,1,1,NA,NA,NA,NA,NA,NA,NA,NA,NA,NA,NA,NA,NA,NA,NA,NA,NA,NA,NA,NA,NA,NA,NA,NA
"90","stim/objects/HouseObjects/clock2.png",49,40,49,0.9,"stim/62.jpeg",6,2,3,NA,"HouseObjects",1,4,"left","left",0.539999962,1,1,1,1,NA,NA,NA,NA,NA,NA,NA,NA,NA,NA,NA,NA,NA,NA,NA,NA,NA,NA,NA,NA,NA,NA,NA,NA
"169","stim/objects/Instruments/bassguitar.png",50,40,50,0.5,"stim/22.jpeg",2,2,1,NA,"Instruments",2,2,"right","left",0.650000095,0,0,1,1,NA,NA,NA,NA,NA,NA,NA,NA,NA,NA,NA,NA,NA,NA,NA,NA,NA,NA,NA,NA,NA,NA,NA,NA
"182","stim/objects/Instruments/cello.png",51,40,51,0.5,"stim/23.jpeg",2,3,1,NA,"Instruments",2,2,"right","left",0.590000153,0,0,1,1,NA,NA,NA,NA,NA,NA,NA,NA,NA,NA,NA,NA,NA,NA,NA,NA,NA,NA,NA,NA,NA,NA,NA,NA
"187","stim/objects/Instruments/cello2.png",52,40,52,0.9,"stim/53.jpeg",5,3,3,NA,"Instruments",2,1,"right","right",0.503999949,1,1,1,1,NA,NA,NA,NA,NA,NA,NA,NA,NA,NA,NA,NA,NA,NA,NA,NA,NA,NA,NA,NA,NA,NA,NA,NA
"27","stim/objects/HouseObjects/barbecuelighter.png",53,40,53,0.5,"stim/13.jpeg",1,3,1,NA,"HouseObjects",1,1,"left","left",0.532000065,1,1,1,1,NA,NA,NA,NA,NA,NA,NA,NA,NA,NA,NA,NA,NA,NA,NA,NA,NA,NA,NA,NA,NA,NA,NA,NA
"2","stim/objects/HouseObjects/ashtray.png",54,40,54,0.5,"stim/11.jpeg",1,1,1,NA,"HouseObjects",1,2,"left","right",0.591999769,0,0,1,1,NA,NA,NA,NA,NA,NA,NA,NA,NA,NA,NA,NA,NA,NA,NA,NA,NA,NA,NA,NA,NA,NA,NA,NA
"153","stim/objects/Instruments/bassdrum.png",55,40,55,0.5,"stim/21.jpeg",2,1,1,NA,"Instruments",2,1,"right","right",0.502000093,1,1,1,1,NA,NA,NA,NA,NA,NA,NA,NA,NA,NA,NA,NA,NA,NA,NA,NA,NA,NA,NA,NA,NA,NA,NA,NA
"131","stim/objects/Instruments/acousticguitar.png",56,40,56,0.5,"stim/12.jpeg",1,2,1,NA,"Instruments",2,3,"right","right",0.858999968,1,1,1,1,NA,NA,NA,NA,NA,NA,NA,NA,NA,NA,NA,NA,NA,NA,NA,NA,NA,NA,NA,NA,NA,NA,NA,NA
"114","stim/objects/HouseObjects/clothespin2.png",57,40,57,0.9,"stim/64.jpeg",6,4,3,NA,"HouseObjects",1,1,"left","left",0.495999813,1,1,1,1,NA,NA,NA,NA,NA,NA,NA,NA,NA,NA,NA,NA,NA,NA,NA,NA,NA,NA,NA,NA,NA,NA,NA,NA
"144","stim/objects/Instruments/balalaika2.png",58,40,58,0.3,"stim/43.jpeg",4,3,2,NA,"Instruments",2,1,"right","left",0.772999763,0,0,1,1,NA,NA,NA,NA,NA,NA,NA,NA,NA,NA,NA,NA,NA,NA,NA,NA,NA,NA,NA,NA,NA,NA,NA,NA
"109","stim/objects/HouseObjects/clothespin.png",59,40,59,0.3,"stim/34.jpeg",3,4,2,NA,"HouseObjects",1,4,"left","left",0.64199996,1,1,1,1,NA,NA,NA,NA,NA,NA,NA,NA,NA,NA,NA,NA,NA,NA,NA,NA,NA,NA,NA,NA,NA,NA,NA,NA
"202","stim/objects/Instruments/chime2.png",60,40,60,0.9,"stim/54.jpeg",5,4,3,NA,"Instruments",2,2,"right","right",0.555999994,1,1,1,1,NA,NA,NA,NA,NA,NA,NA,NA,NA,NA,NA,NA,NA,NA,NA,NA,NA,NA,NA,NA,NA,NA,NA,NA
"132","stim/objects/Instruments/acousticguitar.png",61,40,61,0.5,"stim/12.jpeg",1,2,1,NA,"Instruments",2,4,"right","",NA,0,0,1,1,NA,NA,NA,NA,NA,NA,NA,NA,NA,NA,NA,NA,NA,NA,NA,NA,NA,NA,NA,NA,NA,NA,NA,NA
"175","stim/objects/Instruments/bassguitar2.png",62,40,62,0.9,"stim/52.jpeg",5,2,3,NA,"Instruments",2,3,"right","left",0.465999842,0,0,1,1,NA,NA,NA,NA,NA,NA,NA,NA,NA,NA,NA,NA,NA,NA,NA,NA,NA,NA,NA,NA,NA,NA,NA,NA
"170","stim/objects/Instruments/bassguitar.png",63,40,63,0.5,"stim/22.jpeg",2,2,1,NA,"Instruments",2,1,"right","right",0.534999847,1,1,1,1,NA,NA,NA,NA,NA,NA,NA,NA,NA,NA,NA,NA,NA,NA,NA,NA,NA,NA,NA,NA,NA,NA,NA,NA
"150","stim/objects/Instruments/banjo2.png",64,40,64,0.3,"stim/44.jpeg",4,4,2,NA,"Instruments",2,3,"right","left",0.580000162,0,0,1,1,NA,NA,NA,NA,NA,NA,NA,NA,NA,NA,NA,NA,NA,NA,NA,NA,NA,NA,NA,NA,NA,NA,NA,NA
"66","stim/objects/HouseObjects/bottle2.png",65,40,65,0.1,"stim/53.jpeg",5,3,3,NA,"HouseObjects",1,2,"left","right",0.578999996,0,0,1,1,NA,NA,NA,NA,NA,NA,NA,NA,NA,NA,NA,NA,NA,NA,NA,NA,NA,NA,NA,NA,NA,NA,NA,NA
"6","stim/objects/HouseObjects/ashtray2.png",66,40,66,0.7,"stim/41.jpeg",4,1,2,NA,"HouseObjects",1,2,"left","left",0.488999844,1,1,1,1,NA,NA,NA,NA,NA,NA,NA,NA,NA,NA,NA,NA,NA,NA,NA,NA,NA,NA,NA,NA,NA,NA,NA,NA
"133","stim/objects/Instruments/acousticguitar.png",67,40,67,0.5,"stim/12.jpeg",1,2,1,NA,"Instruments",2,3,"right","left",0.730999947,0,0,1,1,NA,NA,NA,NA,NA,NA,NA,NA,NA,NA,NA,NA,NA,NA,NA,NA,NA,NA,NA,NA,NA,NA,NA,NA
"91","stim/objects/HouseObjects/clock2.png",68,40,68,0.9,"stim/62.jpeg",6,2,3,NA,"HouseObjects",1,1,"left","left",0.480999708,1,1,1,1,NA,NA,NA,NA,NA,NA,NA,NA,NA,NA,NA,NA,NA,NA,NA,NA,NA,NA,NA,NA,NA,NA,NA,NA
"226","stim/objects/Instruments/cymbal.png",69,40,69,0.7,"stim/33.jpeg",3,3,2,NA,"Instruments",2,1,"right","right",0.513000011,1,1,1,1,NA,NA,NA,NA,NA,NA,NA,NA,NA,NA,NA,NA,NA,NA,NA,NA,NA,NA,NA,NA,NA,NA,NA,NA
"101","stim/objects/HouseObjects/clothesdryingrack2.png",70,40,70,0.9,"stim/63.jpeg",6,3,3,NA,"HouseObjects",1,2,"left","left",0.467999935,1,1,1,1,NA,NA,NA,NA,NA,NA,NA,NA,NA,NA,NA,NA,NA,NA,NA,NA,NA,NA,NA,NA,NA,NA,NA,NA
"45","stim/objects/HouseObjects/basket2.png",71,40,71,0.7,"stim/44.jpeg",4,4,2,NA,"HouseObjects",1,4,"left","right",0.829999924,0,0,1,1,NA,NA,NA,NA,NA,NA,NA,NA,NA,NA,NA,NA,NA,NA,NA,NA,NA,NA,NA,NA,NA,NA,NA,NA
"211","stim/objects/Instruments/clarinet.png",72,40,72,0.7,"stim/31.jpeg",3,1,2,NA,"Instruments",2,1,"right","right",0.485999823,1,1,1,1,NA,NA,NA,NA,NA,NA,NA,NA,NA,NA,NA,NA,NA,NA,NA,NA,NA,NA,NA,NA,NA,NA,NA,NA
"18","stim/objects/HouseObjects/ballofstring2.png",73,40,73,0.7,"stim/42.jpeg",4,2,2,NA,"HouseObjects",1,3,"left","right",0.669999838,0,0,1,1,NA,NA,NA,NA,NA,NA,NA,NA,NA,NA,NA,NA,NA,NA,NA,NA,NA,NA,NA,NA,NA,NA,NA,NA
"110","stim/objects/HouseObjects/clothespin.png",74,40,74,0.3,"stim/34.jpeg",3,4,2,NA,"HouseObjects",1,1,"left","right",0.549999714,0,0,1,1,NA,NA,NA,NA,NA,NA,NA,NA,NA,NA,NA,NA,NA,NA,NA,NA,NA,NA,NA,NA,NA,NA,NA,NA
"115","stim/objects/HouseObjects/clothespin2.png",75,40,75,0.9,"stim/64.jpeg",6,4,3,NA,"HouseObjects",1,1,"left","left",0.514999866,1,1,1,1,NA,NA,NA,NA,NA,NA,NA,NA,NA,NA,NA,NA,NA,NA,NA,NA,NA,NA,NA,NA,NA,NA,NA,NA
"67","stim/objects/HouseObjects/broom.png",76,40,76,0.5,"stim/24.jpeg",2,4,1,NA,"HouseObjects",1,2,"left","left",0.639999866,1,1,1,1,NA,NA,NA,NA,NA,NA,NA,NA,NA,NA,NA,NA,NA,NA,NA,NA,NA,NA,NA,NA,NA,NA,NA,NA
"234","stim/objects/Instruments/doublebass.png",77,40,77,0.7,"stim/34.jpeg",3,4,2,NA,"Instruments",2,4,"right","right",0.856999874,1,1,1,1,NA,NA,NA,NA,NA,NA,NA,NA,NA,NA,NA,NA,NA,NA,NA,NA,NA,NA,NA,NA,NA,NA,NA,NA
"3","stim/objects/HouseObjects/ashtray.png",78,40,78,0.5,"stim/11.jpeg",1,1,1,NA,"HouseObjects",1,2,"left","left",0.797999859,1,1,1,1,NA,NA,NA,NA,NA,NA,NA,NA,NA,NA,NA,NA,NA,NA,NA,NA,NA,NA,NA,NA,NA,NA,NA,NA
"73","stim/objects/HouseObjects/bucket.png",79,40,79,0.3,"stim/31.jpeg",3,1,2,NA,"HouseObjects",1,3,"left","right",0.859999895,0,0,1,1,NA,NA,NA,NA,NA,NA,NA,NA,NA,NA,NA,NA,NA,NA,NA,NA,NA,NA,NA,NA,NA,NA,NA,NA
"219","stim/objects/Instruments/cornet.png",80,40,80,0.7,"stim/32.jpeg",3,2,2,NA,"Instruments",2,2,"right","left",0.691999912,0,0,1,1,NA,NA,NA,NA,NA,NA,NA,NA,NA,NA,NA,NA,NA,NA,NA,NA,NA,NA,NA,NA,NA,NA,NA,NA
"220","stim/objects/Instruments/cornet.png",81,40,81,0.7,"stim/32.jpeg",3,2,2,NA,"Instruments",2,1,"right","left",0.461999893,0,0,1,1,NA,NA,NA,NA,NA,NA,NA,NA,NA,NA,NA,NA,NA,NA,NA,NA,NA,NA,NA,NA,NA,NA,NA,NA
"158","stim/objects/Instruments/bassdrum2.png",82,40,82,0.9,"stim/51.jpeg",5,1,3,NA,"Instruments",2,1,"right","right",0.513999939,1,1,1,1,NA,NA,NA,NA,NA,NA,NA,NA,NA,NA,NA,NA,NA,NA,NA,NA,NA,NA,NA,NA,NA,NA,NA,NA
"122","stim/objects/Instruments/accordion.png",83,40,83,0.5,"stim/11.jpeg",1,1,1,NA,"Instruments",2,2,"right","left",0.755999804,0,0,1,1,NA,NA,NA,NA,NA,NA,NA,NA,NA,NA,NA,NA,NA,NA,NA,NA,NA,NA,NA,NA,NA,NA,NA,NA
"46","stim/objects/HouseObjects/basket2.png",84,40,84,0.7,"stim/44.jpeg",4,4,2,NA,"HouseObjects",1,1,"left","left",0.723999977,1,1,1,1,NA,NA,NA,NA,NA,NA,NA,NA,NA,NA,NA,NA,NA,NA,NA,NA,NA,NA,NA,NA,NA,NA,NA,NA
"235","stim/objects/Instruments/doublebass.png",85,40,85,0.7,"stim/34.jpeg",3,4,2,NA,"Instruments",2,4,"right","right",0.682999849,1,1,1,1,NA,NA,NA,NA,NA,NA,NA,NA,NA,NA,NA,NA,NA,NA,NA,NA,NA,NA,NA,NA,NA,NA,NA,NA
"38","stim/objects/HouseObjects/basket.png",86,40,86,0.5,"stim/14.jpeg",1,4,1,NA,"HouseObjects",1,4,"left","left",0.71600008,1,1,1,1,NA,NA,NA,NA,NA,NA,NA,NA,NA,NA,NA,NA,NA,NA,NA,NA,NA,NA,NA,NA,NA,NA,NA,NA
"146","stim/objects/Instruments/banjo.png",87,40,87,0.5,"stim/14.jpeg",1,4,1,NA,"Instruments",2,1,"right","left",0.78399992,0,0,1,1,NA,NA,NA,NA,NA,NA,NA,NA,NA,NA,NA,NA,NA,NA,NA,NA,NA,NA,NA,NA,NA,NA,NA,NA
"236","stim/objects/Instruments/doublebass.png",88,40,88,0.7,"stim/34.jpeg",3,4,2,NA,"Instruments",2,3,"right","left",0.802999735,0,0,1,1,NA,NA,NA,NA,NA,NA,NA,NA,NA,NA,NA,NA,NA,NA,NA,NA,NA,NA,NA,NA,NA,NA,NA,NA
"151","stim/objects/Instruments/banjo2.png",89,40,89,0.3,"stim/44.jpeg",4,4,2,NA,"Instruments",2,4,"right","left",0.612999916,0,0,1,1,NA,NA,NA,NA,NA,NA,NA,NA,NA,NA,NA,NA,NA,NA,NA,NA,NA,NA,NA,NA,NA,NA,NA,NA
"76","stim/objects/HouseObjects/bucket2.png",90,40,90,0.9,"stim/61.jpeg",6,1,3,NA,"HouseObjects",1,1,"left","left",0.687000036,1,1,1,1,NA,NA,NA,NA,NA,NA,NA,NA,NA,NA,NA,NA,NA,NA,NA,NA,NA,NA,NA,NA,NA,NA,NA,NA
"139","stim/objects/Instruments/balalaika.png",91,40,91,0.5,"stim/13.jpeg",1,3,1,NA,"Instruments",2,4,"right","right",0.721999884,1,1,1,1,NA,NA,NA,NA,NA,NA,NA,NA,NA,NA,NA,NA,NA,NA,NA,NA,NA,NA,NA,NA,NA,NA,NA,NA
"197","stim/objects/Instruments/chime.png",92,40,92,0.5,"stim/24.jpeg",2,4,1,NA,"Instruments",2,1,"right","right",0.619999886,1,1,1,1,NA,NA,NA,NA,NA,NA,NA,NA,NA,NA,NA,NA,NA,NA,NA,NA,NA,NA,NA,NA,NA,NA,NA,NA
"92","stim/objects/HouseObjects/clock2.png",93,40,93,0.9,"stim/62.jpeg",6,2,3,NA,"HouseObjects",1,3,"left","left",0.55099988,1,1,1,1,NA,NA,NA,NA,NA,NA,NA,NA,NA,NA,NA,NA,NA,NA,NA,NA,NA,NA,NA,NA,NA,NA,NA,NA
"77","stim/objects/HouseObjects/bucket2.png",94,40,94,0.9,"stim/61.jpeg",6,1,3,NA,"HouseObjects",1,2,"left","left",0.470999956,1,1,1,1,NA,NA,NA,NA,NA,NA,NA,NA,NA,NA,NA,NA,NA,NA,NA,NA,NA,NA,NA,NA,NA,NA,NA,NA
"159","stim/objects/Instruments/bassdrum2.png",95,40,95,0.9,"stim/51.jpeg",5,1,3,NA,"Instruments",2,2,"right","right",0.552999735,1,1,1,1,NA,NA,NA,NA,NA,NA,NA,NA,NA,NA,NA,NA,NA,NA,NA,NA,NA,NA,NA,NA,NA,NA,NA,NA
"72","stim/objects/HouseObjects/broom2.png",96,40,96,0.1,"stim/54.jpeg",5,4,3,NA,"HouseObjects",1,4,"left","right",0.799999714,0,0,1,1,NA,NA,NA,NA,NA,NA,NA,NA,NA,NA,NA,NA,NA,NA,NA,NA,NA,NA,NA,NA,NA,NA,NA,NA
"4","stim/objects/HouseObjects/ashtray.png",97,40,97,0.5,"stim/11.jpeg",1,1,1,NA,"HouseObjects",1,4,"left","left",0.753000021,1,1,1,1,NA,NA,NA,NA,NA,NA,NA,NA,NA,NA,NA,NA,NA,NA,NA,NA,NA,NA,NA,NA,NA,NA,NA,NA
"171","stim/objects/Instruments/bassguitar.png",98,40,98,0.5,"stim/22.jpeg",2,2,1,NA,"Instruments",2,1,"right","right",0.607999802,1,1,1,1,NA,NA,NA,NA,NA,NA,NA,NA,NA,NA,NA,NA,NA,NA,NA,NA,NA,NA,NA,NA,NA,NA,NA,NA
"14","stim/objects/HouseObjects/ballofstring.png",99,40,99,0.5,"stim/12.jpeg",1,2,1,NA,"HouseObjects",1,2,"left","",NA,0,0,1,1,NA,NA,NA,NA,NA,NA,NA,NA,NA,NA,NA,NA,NA,NA,NA,NA,NA,NA,NA,NA,NA,NA,NA,NA
"15","stim/objects/HouseObjects/ballofstring.png",100,40,100,0.5,"stim/12.jpeg",1,2,1,NA,"HouseObjects",1,1,"left","left",0.531999826,1,1,1,1,NA,NA,NA,NA,NA,NA,NA,NA,NA,NA,NA,NA,NA,NA,NA,NA,NA,NA,NA,NA,NA,NA,NA,NA
"62","stim/objects/HouseObjects/bottle.png",101,40,101,0.5,"stim/23.jpeg",2,3,1,NA,"HouseObjects",1,1,"left","right",0.55099988,0,0,1,1,NA,NA,NA,NA,NA,NA,NA,NA,NA,NA,NA,NA,NA,NA,NA,NA,NA,NA,NA,NA,NA,NA,NA,NA
"188","stim/objects/Instruments/cello2.png",102,40,102,0.9,"stim/53.jpeg",5,3,3,NA,"Instruments",2,2,"right","right",0.65199995,1,1,1,1,NA,NA,NA,NA,NA,NA,NA,NA,NA,NA,NA,NA,NA,NA,NA,NA,NA,NA,NA,NA,NA,NA,NA,NA
"134","stim/objects/Instruments/acousticguitar2.png",103,40,103,0.3,"stim/42.jpeg",4,2,2,NA,"Instruments",2,2,"right","left",0.493999958,0,0,1,1,NA,NA,NA,NA,NA,NA,NA,NA,NA,NA,NA,NA,NA,NA,NA,NA,NA,NA,NA,NA,NA,NA,NA,NA
"28","stim/objects/HouseObjects/barbecuelighter.png",104,40,104,0.5,"stim/13.jpeg",1,3,1,NA,"HouseObjects",1,1,"left","right",0.603999853,0,0,1,1,NA,NA,NA,NA,NA,NA,NA,NA,NA,NA,NA,NA,NA,NA,NA,NA,NA,NA,NA,NA,NA,NA,NA,NA
"68","stim/objects/HouseObjects/broom.png",105,40,105,0.5,"stim/24.jpeg",2,4,1,NA,"HouseObjects",1,4,"left","left",0.822000027,1,1,1,1,NA,NA,NA,NA,NA,NA,NA,NA,NA,NA,NA,NA,NA,NA,NA,NA,NA,NA,NA,NA,NA,NA,NA,NA
"212","stim/objects/Instruments/clarinet.png",106,40,106,0.7,"stim/31.jpeg",3,1,2,NA,"Instruments",2,3,"right","right",0.592999935,1,1,1,1,NA,NA,NA,NA,NA,NA,NA,NA,NA,NA,NA,NA,NA,NA,NA,NA,NA,NA,NA,NA,NA,NA,NA,NA
"93","stim/objects/HouseObjects/clock2.png",107,40,107,0.9,"stim/62.jpeg",6,2,3,NA,"HouseObjects",1,2,"left","left",0.480999947,1,1,1,1,NA,NA,NA,NA,NA,NA,NA,NA,NA,NA,NA,NA,NA,NA,NA,NA,NA,NA,NA,NA,NA,NA,NA,NA
"78","stim/objects/HouseObjects/bucket2.png",108,40,108,0.9,"stim/61.jpeg",6,1,3,NA,"HouseObjects",1,3,"left","left",0.573999882,1,1,1,1,NA,NA,NA,NA,NA,NA,NA,NA,NA,NA,NA,NA,NA,NA,NA,NA,NA,NA,NA,NA,NA,NA,NA,NA
"240","stim/objects/Instruments/doublebass2.png",109,40,109,0.1,"stim/64.jpeg",6,4,3,NA,"Instruments",2,3,"right","left",0.483999968,0,0,1,1,NA,NA,NA,NA,NA,NA,NA,NA,NA,NA,NA,NA,NA,NA,NA,NA,NA,NA,NA,NA,NA,NA,NA,NA
"63","stim/objects/HouseObjects/bottle.png",110,40,110,0.5,"stim/23.jpeg",2,3,1,NA,"HouseObjects",1,2,"left","left",0.563999891,1,1,1,1,NA,NA,NA,NA,NA,NA,NA,NA,NA,NA,NA,NA,NA,NA,NA,NA,NA,NA,NA,NA,NA,NA,NA,NA
"147","stim/objects/Instruments/banjo.png",111,40,111,0.5,"stim/14.jpeg",1,4,1,NA,"Instruments",2,3,"right","right",0.526000023,1,1,1,1,NA,NA,NA,NA,NA,NA,NA,NA,NA,NA,NA,NA,NA,NA,NA,NA,NA,NA,NA,NA,NA,NA,NA,NA
"154","stim/objects/Instruments/bassdrum.png",112,40,112,0.5,"stim/21.jpeg",2,1,1,NA,"Instruments",2,2,"right","left",0.568999767,0,0,1,1,NA,NA,NA,NA,NA,NA,NA,NA,NA,NA,NA,NA,NA,NA,NA,NA,NA,NA,NA,NA,NA,NA,NA,NA
"160","stim/objects/Instruments/bassdrum2.png",113,40,113,0.9,"stim/51.jpeg",5,1,3,NA,"Instruments",2,1,"right","right",0.512999773,1,1,1,1,NA,NA,NA,NA,NA,NA,NA,NA,NA,NA,NA,NA,NA,NA,NA,NA,NA,NA,NA,NA,NA,NA,NA,NA
"189","stim/objects/Instruments/cello2.png",114,40,114,0.9,"stim/53.jpeg",5,3,3,NA,"Instruments",2,2,"right","right",0.631999969,1,1,1,1,NA,NA,NA,NA,NA,NA,NA,NA,NA,NA,NA,NA,NA,NA,NA,NA,NA,NA,NA,NA,NA,NA,NA,NA
"116","stim/objects/HouseObjects/clothespin2.png",115,40,115,0.9,"stim/64.jpeg",6,4,3,NA,"HouseObjects",1,3,"left","left",0.446999788,1,1,1,1,NA,NA,NA,NA,NA,NA,NA,NA,NA,NA,NA,NA,NA,NA,NA,NA,NA,NA,NA,NA,NA,NA,NA,NA
"79","stim/objects/HouseObjects/bucket2.png",116,40,116,0.9,"stim/61.jpeg",6,1,3,NA,"HouseObjects",1,4,"left","left",0.404999733,1,1,1,1,NA,NA,NA,NA,NA,NA,NA,NA,NA,NA,NA,NA,NA,NA,NA,NA,NA,NA,NA,NA,NA,NA,NA,NA
"19","stim/objects/HouseObjects/ballofstring2.png",117,40,117,0.7,"stim/42.jpeg",4,2,2,NA,"HouseObjects",1,2,"left","",NA,0,0,1,1,NA,NA,NA,NA,NA,NA,NA,NA,NA,NA,NA,NA,NA,NA,NA,NA,NA,NA,NA,NA,NA,NA,NA,NA
"183","stim/objects/Instruments/cello.png",118,40,118,0.5,"stim/23.jpeg",2,3,1,NA,"Instruments",2,4,"right","left",0.429999828,0,0,1,1,NA,NA,NA,NA,NA,NA,NA,NA,NA,NA,NA,NA,NA,NA,NA,NA,NA,NA,NA,NA,NA,NA,NA,NA
"237","stim/objects/Instruments/doublebass.png",119,40,119,0.7,"stim/34.jpeg",3,4,2,NA,"Instruments",2,1,"right","right",0.606999874,1,1,1,1,NA,NA,NA,NA,NA,NA,NA,NA,NA,NA,NA,NA,NA,NA,NA,NA,NA,NA,NA,NA,NA,NA,NA,NA
"155","stim/objects/Instruments/bassdrum.png",120,40,120,0.5,"stim/21.jpeg",2,1,1,NA,"Instruments",2,1,"right","left",0.549000025,0,0,1,1,NA,NA,NA,NA,NA,NA,NA,NA,NA,NA,NA,NA,NA,NA,NA,NA,NA,NA,NA,NA,NA,NA,NA,NA
"123","stim/objects/Instruments/accordion.png",121,40,121,0.5,"stim/11.jpeg",1,1,1,NA,"Instruments",2,3,"right","right",0.835000038,1,1,1,1,NA,NA,NA,NA,NA,NA,NA,NA,NA,NA,NA,NA,NA,NA,NA,NA,NA,NA,NA,NA,NA,NA,NA,NA
"227","stim/objects/Instruments/cymbal.png",122,40,122,0.7,"stim/33.jpeg",3,3,2,NA,"Instruments",2,3,"right","left",0.608999968,0,0,1,1,NA,NA,NA,NA,NA,NA,NA,NA,NA,NA,NA,NA,NA,NA,NA,NA,NA,NA,NA,NA,NA,NA,NA,NA
"117","stim/objects/HouseObjects/clothespin2.png",123,40,123,0.9,"stim/64.jpeg",6,4,3,NA,"HouseObjects",1,2,"left","left",0.427999973,1,1,1,1,NA,NA,NA,NA,NA,NA,NA,NA,NA,NA,NA,NA,NA,NA,NA,NA,NA,NA,NA,NA,NA,NA,NA,NA
"140","stim/objects/Instruments/balalaika.png",124,40,124,0.5,"stim/13.jpeg",1,3,1,NA,"Instruments",2,3,"right","right",0.572999716,1,1,1,1,NA,NA,NA,NA,NA,NA,NA,NA,NA,NA,NA,NA,NA,NA,NA,NA,NA,NA,NA,NA,NA,NA,NA,NA
"135","stim/objects/Instruments/acousticguitar2.png",125,40,125,0.3,"stim/42.jpeg",4,2,2,NA,"Instruments",2,3,"right","left",0.572999954,0,0,1,1,NA,NA,NA,NA,NA,NA,NA,NA,NA,NA,NA,NA,NA,NA,NA,NA,NA,NA,NA,NA,NA,NA,NA,NA
"56","stim/objects/HouseObjects/blender.png",126,40,126,0.5,"stim/22.jpeg",2,2,1,NA,"HouseObjects",1,2,"left","left",0.671999931,1,1,1,1,NA,NA,NA,NA,NA,NA,NA,NA,NA,NA,NA,NA,NA,NA,NA,NA,NA,NA,NA,NA,NA,NA,NA,NA
"102","stim/objects/HouseObjects/clothesdryingrack2.png",127,40,127,0.9,"stim/63.jpeg",6,3,3,NA,"HouseObjects",1,2,"left","left",0.489999771,1,1,1,1,NA,NA,NA,NA,NA,NA,NA,NA,NA,NA,NA,NA,NA,NA,NA,NA,NA,NA,NA,NA,NA,NA,NA,NA
"190","stim/objects/Instruments/cello2.png",128,40,128,0.9,"stim/53.jpeg",5,3,3,NA,"Instruments",2,2,"right","right",0.446999788,1,1,1,1,NA,NA,NA,NA,NA,NA,NA,NA,NA,NA,NA,NA,NA,NA,NA,NA,NA,NA,NA,NA,NA,NA,NA,NA
"221","stim/objects/Instruments/cornet.png",129,40,129,0.7,"stim/32.jpeg",3,2,2,NA,"Instruments",2,1,"right","right",0.536000013,1,1,1,1,NA,NA,NA,NA,NA,NA,NA,NA,NA,NA,NA,NA,NA,NA,NA,NA,NA,NA,NA,NA,NA,NA,NA,NA
"224","stim/objects/Instruments/cornet2.png",130,40,130,0.1,"stim/62.jpeg",6,2,3,NA,"Instruments",2,1,"right","left",0.4599998,0,0,1,1,NA,NA,NA,NA,NA,NA,NA,NA,NA,NA,NA,NA,NA,NA,NA,NA,NA,NA,NA,NA,NA,NA,NA,NA
"7","stim/objects/HouseObjects/ashtray2.png",131,40,131,0.7,"stim/41.jpeg",4,1,2,NA,"HouseObjects",1,2,"left","left",0.741999865,1,1,1,1,NA,NA,NA,NA,NA,NA,NA,NA,NA,NA,NA,NA,NA,NA,NA,NA,NA,NA,NA,NA,NA,NA,NA,NA
"118","stim/objects/HouseObjects/clothespin2.png",132,40,132,0.9,"stim/64.jpeg",6,4,3,NA,"HouseObjects",1,1,"left","right",0.325000048,0,0,1,1,NA,NA,NA,NA,NA,NA,NA,NA,NA,NA,NA,NA,NA,NA,NA,NA,NA,NA,NA,NA,NA,NA,NA,NA
"50","stim/objects/HouseObjects/bleachbottle.png",133,40,133,0.5,"stim/21.jpeg",2,1,1,NA,"HouseObjects",1,1,"left","left",0.510999918,1,1,1,1,NA,NA,NA,NA,NA,NA,NA,NA,NA,NA,NA,NA,NA,NA,NA,NA,NA,NA,NA,NA,NA,NA,NA,NA
"222","stim/objects/Instruments/cornet.png",134,40,134,0.7,"stim/32.jpeg",3,2,2,NA,"Instruments",2,4,"right","right",0.731999874,1,1,1,1,NA,NA,NA,NA,NA,NA,NA,NA,NA,NA,NA,NA,NA,NA,NA,NA,NA,NA,NA,NA,NA,NA,NA,NA
"80","stim/objects/HouseObjects/bucket2.png",135,40,135,0.9,"stim/61.jpeg",6,1,3,NA,"HouseObjects",1,3,"left","left",0.465000153,1,1,1,1,NA,NA,NA,NA,NA,NA,NA,NA,NA,NA,NA,NA,NA,NA,NA,NA,NA,NA,NA,NA,NA,NA,NA,NA
"161","stim/objects/Instruments/bassdrum2.png",136,40,136,0.9,"stim/51.jpeg",5,1,3,NA,"Instruments",2,1,"right","right",0.411999941,1,1,1,1,NA,NA,NA,NA,NA,NA,NA,NA,NA,NA,NA,NA,NA,NA,NA,NA,NA,NA,NA,NA,NA,NA,NA,NA
"228","stim/objects/Instruments/cymbal.png",137,40,137,0.7,"stim/33.jpeg",3,3,2,NA,"Instruments",2,1,"right","right",0.643999815,1,1,1,1,NA,NA,NA,NA,NA,NA,NA,NA,NA,NA,NA,NA,NA,NA,NA,NA,NA,NA,NA,NA,NA,NA,NA,NA
"223","stim/objects/Instruments/cornet.png",138,40,138,0.7,"stim/32.jpeg",3,2,2,NA,"Instruments",2,2,"right","right",0.644999981,1,1,1,1,NA,NA,NA,NA,NA,NA,NA,NA,NA,NA,NA,NA,NA,NA,NA,NA,NA,NA,NA,NA,NA,NA,NA,NA
"85","stim/objects/HouseObjects/clock.png",139,40,139,0.3,"stim/32.jpeg",3,2,2,NA,"HouseObjects",1,4,"left","right",0.698999882,0,0,1,1,NA,NA,NA,NA,NA,NA,NA,NA,NA,NA,NA,NA,NA,NA,NA,NA,NA,NA,NA,NA,NA,NA,NA,NA
"86","stim/objects/HouseObjects/clock.png",140,40,140,0.3,"stim/32.jpeg",3,2,2,NA,"HouseObjects",1,2,"left","left",0.734999895,1,1,1,1,NA,NA,NA,NA,NA,NA,NA,NA,NA,NA,NA,NA,NA,NA,NA,NA,NA,NA,NA,NA,NA,NA,NA,NA
"51","stim/objects/HouseObjects/bleachbottle.png",141,40,141,0.5,"stim/21.jpeg",2,1,1,NA,"HouseObjects",1,3,"left","right",0.75,0,0,1,1,NA,NA,NA,NA,NA,NA,NA,NA,NA,NA,NA,NA,NA,NA,NA,NA,NA,NA,NA,NA,NA,NA,NA,NA
"64","stim/objects/HouseObjects/bottle.png",142,40,142,0.5,"stim/23.jpeg",2,3,1,NA,"HouseObjects",1,1,"left","left",0.713999987,1,1,1,1,NA,NA,NA,NA,NA,NA,NA,NA,NA,NA,NA,NA,NA,NA,NA,NA,NA,NA,NA,NA,NA,NA,NA,NA
"232","stim/objects/Instruments/cymbal2.png",143,40,143,0.1,"stim/63.jpeg",6,3,3,NA,"Instruments",2,4,"right","left",0.555000067,0,0,1,1,NA,NA,NA,NA,NA,NA,NA,NA,NA,NA,NA,NA,NA,NA,NA,NA,NA,NA,NA,NA,NA,NA,NA,NA
"176","stim/objects/Instruments/bassguitar2.png",144,40,144,0.9,"stim/52.jpeg",5,2,3,NA,"Instruments",2,1,"right","right",0.641999722,1,1,1,1,NA,NA,NA,NA,NA,NA,NA,NA,NA,NA,NA,NA,NA,NA,NA,NA,NA,NA,NA,NA,NA,NA,NA,NA
"94","stim/objects/HouseObjects/clock2.png",145,40,145,0.9,"stim/62.jpeg",6,2,3,NA,"HouseObjects",1,3,"left","left",0.618999958,1,1,1,1,NA,NA,NA,NA,NA,NA,NA,NA,NA,NA,NA,NA,NA,NA,NA,NA,NA,NA,NA,NA,NA,NA,NA,NA
"124","stim/objects/Instruments/accordion.png",146,40,146,0.5,"stim/11.jpeg",1,1,1,NA,"Instruments",2,3,"right","right",0.59499979,1,1,1,1,NA,NA,NA,NA,NA,NA,NA,NA,NA,NA,NA,NA,NA,NA,NA,NA,NA,NA,NA,NA,NA,NA,NA,NA
"203","stim/objects/Instruments/chime2.png",147,40,147,0.9,"stim/54.jpeg",5,4,3,NA,"Instruments",2,3,"right","right",0.653999805,1,1,1,1,NA,NA,NA,NA,NA,NA,NA,NA,NA,NA,NA,NA,NA,NA,NA,NA,NA,NA,NA,NA,NA,NA,NA,NA
"69","stim/objects/HouseObjects/broom.png",148,40,148,0.5,"stim/24.jpeg",2,4,1,NA,"HouseObjects",1,4,"left","left",0.736999989,1,1,1,1,NA,NA,NA,NA,NA,NA,NA,NA,NA,NA,NA,NA,NA,NA,NA,NA,NA,NA,NA,NA,NA,NA,NA,NA
"47","stim/objects/HouseObjects/basket2.png",149,40,149,0.7,"stim/44.jpeg",4,4,2,NA,"HouseObjects",1,3,"left","right",0.531999826,0,0,1,1,NA,NA,NA,NA,NA,NA,NA,NA,NA,NA,NA,NA,NA,NA,NA,NA,NA,NA,NA,NA,NA,NA,NA,NA
"57","stim/objects/HouseObjects/blender.png",150,40,150,0.5,"stim/22.jpeg",2,2,1,NA,"HouseObjects",1,4,"left","left",0.615999937,1,1,1,1,NA,NA,NA,NA,NA,NA,NA,NA,NA,NA,NA,NA,NA,NA,NA,NA,NA,NA,NA,NA,NA,NA,NA,NA
"184","stim/objects/Instruments/cello.png",151,40,151,0.5,"stim/23.jpeg",2,3,1,NA,"Instruments",2,3,"right","left",0.519999981,0,0,1,1,NA,NA,NA,NA,NA,NA,NA,NA,NA,NA,NA,NA,NA,NA,NA,NA,NA,NA,NA,NA,NA,NA,NA,NA
"32","stim/objects/HouseObjects/barbecuelighter2.png",152,40,152,0.7,"stim/43.jpeg",4,3,2,NA,"HouseObjects",1,2,"left","left",0.536999941,1,1,1,1,NA,NA,NA,NA,NA,NA,NA,NA,NA,NA,NA,NA,NA,NA,NA,NA,NA,NA,NA,NA,NA,NA,NA,NA
"60","stim/objects/HouseObjects/blender2.png",153,40,153,0.1,"stim/52.jpeg",5,2,3,NA,"HouseObjects",1,3,"left","right",0.539999962,0,0,1,1,NA,NA,NA,NA,NA,NA,NA,NA,NA,NA,NA,NA,NA,NA,NA,NA,NA,NA,NA,NA,NA,NA,NA,NA
"204","stim/objects/Instruments/chime2.png",154,40,154,0.9,"stim/54.jpeg",5,4,3,NA,"Instruments",2,3,"right","right",0.600999832,1,1,1,1,NA,NA,NA,NA,NA,NA,NA,NA,NA,NA,NA,NA,NA,NA,NA,NA,NA,NA,NA,NA,NA,NA,NA,NA
"127","stim/objects/Instruments/accordion2.png",155,40,155,0.3,"stim/41.jpeg",4,1,2,NA,"Instruments",2,2,"right","left",0.485999823,0,0,1,1,NA,NA,NA,NA,NA,NA,NA,NA,NA,NA,NA,NA,NA,NA,NA,NA,NA,NA,NA,NA,NA,NA,NA,NA
"95","stim/objects/HouseObjects/clock2.png",156,40,156,0.9,"stim/62.jpeg",6,2,3,NA,"HouseObjects",1,3,"left","left",0.581999779,1,1,1,1,NA,NA,NA,NA,NA,NA,NA,NA,NA,NA,NA,NA,NA,NA,NA,NA,NA,NA,NA,NA,NA,NA,NA,NA
"5","stim/objects/HouseObjects/ashtray.png",157,40,157,0.5,"stim/11.jpeg",1,1,1,NA,"HouseObjects",1,4,"left","right",0.71999979,0,0,1,1,NA,NA,NA,NA,NA,NA,NA,NA,NA,NA,NA,NA,NA,NA,NA,NA,NA,NA,NA,NA,NA,NA,NA,NA
"20","stim/objects/HouseObjects/ballofstring2.png",158,40,158,0.7,"stim/42.jpeg",4,2,2,NA,"HouseObjects",1,2,"left","left",0.64199996,1,1,1,1,NA,NA,NA,NA,NA,NA,NA,NA,NA,NA,NA,NA,NA,NA,NA,NA,NA,NA,NA,NA,NA,NA,NA,NA
"33","stim/objects/HouseObjects/barbecuelighter2.png",159,40,159,0.7,"stim/43.jpeg",4,3,2,NA,"HouseObjects",1,2,"left","left",0.546000004,1,1,1,1,NA,NA,NA,NA,NA,NA,NA,NA,NA,NA,NA,NA,NA,NA,NA,NA,NA,NA,NA,NA,NA,NA,NA,NA
"205","stim/objects/Instruments/chime2.png",160,40,160,0.9,"stim/54.jpeg",5,4,3,NA,"Instruments",2,1,"right","right",0.53399992,1,1,1,1,NA,NA,NA,NA,NA,NA,NA,NA,NA,NA,NA,NA,NA,NA,NA,NA,NA,NA,NA,NA,NA,NA,NA,NA
"238","stim/objects/Instruments/doublebass.png",161,40,161,0.7,"stim/34.jpeg",3,4,2,NA,"Instruments",2,3,"right","right",0.579999924,1,1,1,1,NA,NA,NA,NA,NA,NA,NA,NA,NA,NA,NA,NA,NA,NA,NA,NA,NA,NA,NA,NA,NA,NA,NA,NA
"191","stim/objects/Instruments/cello2.png",162,40,162,0.9,"stim/53.jpeg",5,3,3,NA,"Instruments",2,4,"right","right",0.779000044,1,1,1,1,NA,NA,NA,NA,NA,NA,NA,NA,NA,NA,NA,NA,NA,NA,NA,NA,NA,NA,NA,NA,NA,NA,NA,NA
"119","stim/objects/HouseObjects/clothespin2.png",163,40,163,0.9,"stim/64.jpeg",6,4,3,NA,"HouseObjects",1,3,"left","left",0.672999859,1,1,1,1,NA,NA,NA,NA,NA,NA,NA,NA,NA,NA,NA,NA,NA,NA,NA,NA,NA,NA,NA,NA,NA,NA,NA,NA
"16","stim/objects/HouseObjects/ballofstring.png",164,40,164,0.5,"stim/12.jpeg",1,2,1,NA,"HouseObjects",1,3,"left","right",0.47300005,0,0,1,1,NA,NA,NA,NA,NA,NA,NA,NA,NA,NA,NA,NA,NA,NA,NA,NA,NA,NA,NA,NA,NA,NA,NA,NA
"162","stim/objects/Instruments/bassdrum2.png",165,40,165,0.9,"stim/51.jpeg",5,1,3,NA,"Instruments",2,4,"right","right",0.536999941,1,1,1,1,NA,NA,NA,NA,NA,NA,NA,NA,NA,NA,NA,NA,NA,NA,NA,NA,NA,NA,NA,NA,NA,NA,NA,NA
"29","stim/objects/HouseObjects/barbecuelighter.png",166,40,166,0.5,"stim/13.jpeg",1,3,1,NA,"HouseObjects",1,3,"left","right",0.510999918,0,0,1,1,NA,NA,NA,NA,NA,NA,NA,NA,NA,NA,NA,NA,NA,NA,NA,NA,NA,NA,NA,NA,NA,NA,NA,NA
"81","stim/objects/HouseObjects/bucket2.png",167,40,167,0.9,"stim/61.jpeg",6,1,3,NA,"HouseObjects",1,2,"left","left",0.49399972,1,1,1,1,NA,NA,NA,NA,NA,NA,NA,NA,NA,NA,NA,NA,NA,NA,NA,NA,NA,NA,NA,NA,NA,NA,NA,NA
"52","stim/objects/HouseObjects/bleachbottle.png",168,40,168,0.5,"stim/21.jpeg",2,1,1,NA,"HouseObjects",1,1,"left","",NA,0,0,1,1,NA,NA,NA,NA,NA,NA,NA,NA,NA,NA,NA,NA,NA,NA,NA,NA,NA,NA,NA,NA,NA,NA,NA,NA
"156","stim/objects/Instruments/bassdrum.png",169,40,169,0.5,"stim/21.jpeg",2,1,1,NA,"Instruments",2,4,"right","left",0.480999947,0,0,1,1,NA,NA,NA,NA,NA,NA,NA,NA,NA,NA,NA,NA,NA,NA,NA,NA,NA,NA,NA,NA,NA,NA,NA,NA
"213","stim/objects/Instruments/clarinet.png",170,40,170,0.7,"stim/31.jpeg",3,1,2,NA,"Instruments",2,1,"right","left",0.495999813,0,0,1,1,NA,NA,NA,NA,NA,NA,NA,NA,NA,NA,NA,NA,NA,NA,NA,NA,NA,NA,NA,NA,NA,NA,NA,NA
"70","stim/objects/HouseObjects/broom.png",171,40,171,0.5,"stim/24.jpeg",2,4,1,NA,"HouseObjects",1,3,"left","right",0.403000116,0,0,1,1,NA,NA,NA,NA,NA,NA,NA,NA,NA,NA,NA,NA,NA,NA,NA,NA,NA,NA,NA,NA,NA,NA,NA,NA
"229","stim/objects/Instruments/cymbal.png",172,40,172,0.7,"stim/33.jpeg",3,3,2,NA,"Instruments",2,3,"right","right",0.510999918,1,1,1,1,NA,NA,NA,NA,NA,NA,NA,NA,NA,NA,NA,NA,NA,NA,NA,NA,NA,NA,NA,NA,NA,NA,NA,NA
"192","stim/objects/Instruments/cello2.png",173,40,173,0.9,"stim/53.jpeg",5,3,3,NA,"Instruments",2,1,"right","right",0.559000015,1,1,1,1,NA,NA,NA,NA,NA,NA,NA,NA,NA,NA,NA,NA,NA,NA,NA,NA,NA,NA,NA,NA,NA,NA,NA,NA
"128","stim/objects/Instruments/accordion2.png",174,40,174,0.3,"stim/41.jpeg",4,1,2,NA,"Instruments",2,1,"right","left",0.611000061,0,0,1,1,NA,NA,NA,NA,NA,NA,NA,NA,NA,NA,NA,NA,NA,NA,NA,NA,NA,NA,NA,NA,NA,NA,NA,NA
"103","stim/objects/HouseObjects/clothesdryingrack2.png",175,40,175,0.9,"stim/63.jpeg",6,3,3,NA,"HouseObjects",1,2,"left","left",0.499000072,1,1,1,1,NA,NA,NA,NA,NA,NA,NA,NA,NA,NA,NA,NA,NA,NA,NA,NA,NA,NA,NA,NA,NA,NA,NA,NA
"21","stim/objects/HouseObjects/ballofstring2.png",176,40,176,0.7,"stim/42.jpeg",4,2,2,NA,"HouseObjects",1,3,"left","right",0.746999979,0,0,1,1,NA,NA,NA,NA,NA,NA,NA,NA,NA,NA,NA,NA,NA,NA,NA,NA,NA,NA,NA,NA,NA,NA,NA,NA
"157","stim/objects/Instruments/bassdrum.png",177,40,177,0.5,"stim/21.jpeg",2,1,1,NA,"Instruments",2,2,"right","left",0.563999891,0,0,1,1,NA,NA,NA,NA,NA,NA,NA,NA,NA,NA,NA,NA,NA,NA,NA,NA,NA,NA,NA,NA,NA,NA,NA,NA
"230","stim/objects/Instruments/cymbal.png",178,40,178,0.7,"stim/33.jpeg",3,3,2,NA,"Instruments",2,2,"right","left",0.403999805,0,0,1,1,NA,NA,NA,NA,NA,NA,NA,NA,NA,NA,NA,NA,NA,NA,NA,NA,NA,NA,NA,NA,NA,NA,NA,NA
"74","stim/objects/HouseObjects/bucket.png",179,40,179,0.3,"stim/31.jpeg",3,1,2,NA,"HouseObjects",1,1,"left","right",0.578000069,0,0,1,1,NA,NA,NA,NA,NA,NA,NA,NA,NA,NA,NA,NA,NA,NA,NA,NA,NA,NA,NA,NA,NA,NA,NA,NA
"206","stim/objects/Instruments/chime2.png",180,40,180,0.9,"stim/54.jpeg",5,4,3,NA,"Instruments",2,4,"right","left",0.529000044,0,0,1,1,NA,NA,NA,NA,NA,NA,NA,NA,NA,NA,NA,NA,NA,NA,NA,NA,NA,NA,NA,NA,NA,NA,NA,NA
"185","stim/objects/Instruments/cello.png",181,40,181,0.5,"stim/23.jpeg",2,3,1,NA,"Instruments",2,4,"right","left",0.667000055,0,0,1,1,NA,NA,NA,NA,NA,NA,NA,NA,NA,NA,NA,NA,NA,NA,NA,NA,NA,NA,NA,NA,NA,NA,NA,NA
"239","stim/objects/Instruments/doublebass.png",182,40,182,0.7,"stim/34.jpeg",3,4,2,NA,"Instruments",2,3,"right","right",0.649999857,1,1,1,1,NA,NA,NA,NA,NA,NA,NA,NA,NA,NA,NA,NA,NA,NA,NA,NA,NA,NA,NA,NA,NA,NA,NA,NA
"39","stim/objects/HouseObjects/basket.png",183,40,183,0.5,"stim/14.jpeg",1,4,1,NA,"HouseObjects",1,3,"left","right",0.681999922,0,0,1,1,NA,NA,NA,NA,NA,NA,NA,NA,NA,NA,NA,NA,NA,NA,NA,NA,NA,NA,NA,NA,NA,NA,NA,NA
"34","stim/objects/HouseObjects/barbecuelighter2.png",184,40,184,0.7,"stim/43.jpeg",4,3,2,NA,"HouseObjects",1,1,"left","left",0.49000001,1,1,1,1,NA,NA,NA,NA,NA,NA,NA,NA,NA,NA,NA,NA,NA,NA,NA,NA,NA,NA,NA,NA,NA,NA,NA,NA
"22","stim/objects/HouseObjects/ballofstring2.png",185,40,185,0.7,"stim/42.jpeg",4,2,2,NA,"HouseObjects",1,4,"left","left",0.462000132,1,1,1,1,NA,NA,NA,NA,NA,NA,NA,NA,NA,NA,NA,NA,NA,NA,NA,NA,NA,NA,NA,NA,NA,NA,NA,NA
"23","stim/objects/HouseObjects/ballofstring2.png",186,40,186,0.7,"stim/42.jpeg",4,2,2,NA,"HouseObjects",1,2,"left","left",0.486999989,1,1,1,1,NA,NA,NA,NA,NA,NA,NA,NA,NA,NA,NA,NA,NA,NA,NA,NA,NA,NA,NA,NA,NA,NA,NA,NA
"75","stim/objects/HouseObjects/bucket.png",187,40,187,0.3,"stim/31.jpeg",3,1,2,NA,"HouseObjects",1,2,"left","right",0.684999943,0,0,1,1,NA,NA,NA,NA,NA,NA,NA,NA,NA,NA,NA,NA,NA,NA,NA,NA,NA,NA,NA,NA,NA,NA,NA,NA
"207","stim/objects/Instruments/chime2.png",188,40,188,0.9,"stim/54.jpeg",5,4,3,NA,"Instruments",2,2,"right","right",0.539999962,1,1,1,1,NA,NA,NA,NA,NA,NA,NA,NA,NA,NA,NA,NA,NA,NA,NA,NA,NA,NA,NA,NA,NA,NA,NA,NA
"148","stim/objects/Instruments/banjo.png",189,40,189,0.5,"stim/14.jpeg",1,4,1,NA,"Instruments",2,3,"right","right",0.611999989,1,1,1,1,NA,NA,NA,NA,NA,NA,NA,NA,NA,NA,NA,NA,NA,NA,NA,NA,NA,NA,NA,NA,NA,NA,NA,NA
"163","stim/objects/Instruments/bassdrum2.png",190,40,190,0.9,"stim/51.jpeg",5,1,3,NA,"Instruments",2,3,"right","right",0.573999882,1,1,1,1,NA,NA,NA,NA,NA,NA,NA,NA,NA,NA,NA,NA,NA,NA,NA,NA,NA,NA,NA,NA,NA,NA,NA,NA
"177","stim/objects/Instruments/bassguitar2.png",191,40,191,0.9,"stim/52.jpeg",5,2,3,NA,"Instruments",2,2,"right","right",0.509000063,1,1,1,1,NA,NA,NA,NA,NA,NA,NA,NA,NA,NA,NA,NA,NA,NA,NA,NA,NA,NA,NA,NA,NA,NA,NA,NA
"104","stim/objects/HouseObjects/clothesdryingrack2.png",192,40,192,0.9,"stim/63.jpeg",6,3,3,NA,"HouseObjects",1,1,"left","left",0.444000006,1,1,1,1,NA,NA,NA,NA,NA,NA,NA,NA,NA,NA,NA,NA,NA,NA,NA,NA,NA,NA,NA,NA,NA,NA,NA,NA
"8","stim/objects/HouseObjects/ashtray2.png",193,40,193,0.7,"stim/41.jpeg",4,1,2,NA,"HouseObjects",1,2,"left","left",0.522999763,1,1,1,1,NA,NA,NA,NA,NA,NA,NA,NA,NA,NA,NA,NA,NA,NA,NA,NA,NA,NA,NA,NA,NA,NA,NA,NA
"141","stim/objects/Instruments/balalaika.png",194,40,194,0.5,"stim/13.jpeg",1,3,1,NA,"Instruments",2,2,"right","right",0.624999762,1,1,1,1,NA,NA,NA,NA,NA,NA,NA,NA,NA,NA,NA,NA,NA,NA,NA,NA,NA,NA,NA,NA,NA,NA,NA,NA
"82","stim/objects/HouseObjects/bucket2.png",195,40,195,0.9,"stim/61.jpeg",6,1,3,NA,"HouseObjects",1,2,"left","left",0.451999903,1,1,1,1,NA,NA,NA,NA,NA,NA,NA,NA,NA,NA,NA,NA,NA,NA,NA,NA,NA,NA,NA,NA,NA,NA,NA,NA
"105","stim/objects/HouseObjects/clothesdryingrack2.png",196,40,196,0.9,"stim/63.jpeg",6,3,3,NA,"HouseObjects",1,4,"left","left",0.607999802,1,1,1,1,NA,NA,NA,NA,NA,NA,NA,NA,NA,NA,NA,NA,NA,NA,NA,NA,NA,NA,NA,NA,NA,NA,NA,NA
"9","stim/objects/HouseObjects/ashtray2.png",197,40,197,0.7,"stim/41.jpeg",4,1,2,NA,"HouseObjects",1,4,"left","right",0.588000059,0,0,1,1,NA,NA,NA,NA,NA,NA,NA,NA,NA,NA,NA,NA,NA,NA,NA,NA,NA,NA,NA,NA,NA,NA,NA,NA
"149","stim/objects/Instruments/banjo.png",198,40,198,0.5,"stim/14.jpeg",1,4,1,NA,"Instruments",2,1,"right","right",0.579999924,1,1,1,1,NA,NA,NA,NA,NA,NA,NA,NA,NA,NA,NA,NA,NA,NA,NA,NA,NA,NA,NA,NA,NA,NA,NA,NA
"24","stim/objects/HouseObjects/ballofstring2.png",199,40,199,0.7,"stim/42.jpeg",4,2,2,NA,"HouseObjects",1,4,"left","left",0.623999834,1,1,1,1,NA,NA,NA,NA,NA,NA,NA,NA,NA,NA,NA,NA,NA,NA,NA,NA,NA,NA,NA,NA,NA,NA,NA,NA
"120","stim/objects/HouseObjects/clothespin2.png",200,40,200,0.9,"stim/64.jpeg",6,4,3,NA,"HouseObjects",1,4,"left","left",0.585000038,1,1,1,1,NA,NA,NA,NA,NA,NA,NA,NA,NA,NA,NA,NA,NA,NA,NA,NA,NA,NA,NA,NA,NA,NA,NA,NA
"136","stim/objects/Instruments/acousticguitar2.png",201,40,201,0.3,"stim/42.jpeg",4,2,2,NA,"Instruments",2,4,"right","left",0.846999884,0,0,1,1,NA,NA,NA,NA,NA,NA,NA,NA,NA,NA,NA,NA,NA,NA,NA,NA,NA,NA,NA,NA,NA,NA,NA,NA
"83","stim/objects/HouseObjects/bucket2.png",202,40,202,0.9,"stim/61.jpeg",6,1,3,NA,"HouseObjects",1,2,"left","left",0.449999809,1,1,1,1,NA,NA,NA,NA,NA,NA,NA,NA,NA,NA,NA,NA,NA,NA,NA,NA,NA,NA,NA,NA,NA,NA,NA,NA
"214","stim/objects/Instruments/clarinet.png",203,40,203,0.7,"stim/31.jpeg",3,1,2,NA,"Instruments",2,4,"right","right",0.619999886,1,1,1,1,NA,NA,NA,NA,NA,NA,NA,NA,NA,NA,NA,NA,NA,NA,NA,NA,NA,NA,NA,NA,NA,NA,NA,NA
"152","stim/objects/Instruments/banjo2.png",204,40,204,0.3,"stim/44.jpeg",4,4,2,NA,"Instruments",2,1,"right","left",0.674999952,0,0,1,1,NA,NA,NA,NA,NA,NA,NA,NA,NA,NA,NA,NA,NA,NA,NA,NA,NA,NA,NA,NA,NA,NA,NA,NA
"231","stim/objects/Instruments/cymbal.png",205,40,205,0.7,"stim/33.jpeg",3,3,2,NA,"Instruments",2,2,"right","right",0.539999962,1,1,1,1,NA,NA,NA,NA,NA,NA,NA,NA,NA,NA,NA,NA,NA,NA,NA,NA,NA,NA,NA,NA,NA,NA,NA,NA
"178","stim/objects/Instruments/bassguitar2.png",206,40,206,0.9,"stim/52.jpeg",5,2,3,NA,"Instruments",2,3,"right","left",0.648999929,0,0,1,1,NA,NA,NA,NA,NA,NA,NA,NA,NA,NA,NA,NA,NA,NA,NA,NA,NA,NA,NA,NA,NA,NA,NA,NA
"40","stim/objects/HouseObjects/basket.png",207,40,207,0.5,"stim/14.jpeg",1,4,1,NA,"HouseObjects",1,4,"left","left",0.571000099,1,1,1,1,NA,NA,NA,NA,NA,NA,NA,NA,NA,NA,NA,NA,NA,NA,NA,NA,NA,NA,NA,NA,NA,NA,NA,NA
"215","stim/objects/Instruments/clarinet.png",208,40,208,0.7,"stim/31.jpeg",3,1,2,NA,"Instruments",2,3,"right","right",0.562999964,1,1,1,1,NA,NA,NA,NA,NA,NA,NA,NA,NA,NA,NA,NA,NA,NA,NA,NA,NA,NA,NA,NA,NA,NA,NA,NA
"179","stim/objects/Instruments/bassguitar2.png",209,40,209,0.9,"stim/52.jpeg",5,2,3,NA,"Instruments",2,1,"right","right",0.426999807,1,1,1,1,NA,NA,NA,NA,NA,NA,NA,NA,NA,NA,NA,NA,NA,NA,NA,NA,NA,NA,NA,NA,NA,NA,NA,NA
"58","stim/objects/HouseObjects/blender.png",210,40,210,0.5,"stim/22.jpeg",2,2,1,NA,"HouseObjects",1,3,"left","left",0.763999939,1,1,1,1,NA,NA,NA,NA,NA,NA,NA,NA,NA,NA,NA,NA,NA,NA,NA,NA,NA,NA,NA,NA,NA,NA,NA,NA
"164","stim/objects/Instruments/bassdrum2.png",211,40,211,0.9,"stim/51.jpeg",5,1,3,NA,"Instruments",2,3,"right","right",0.508000135,1,1,1,1,NA,NA,NA,NA,NA,NA,NA,NA,NA,NA,NA,NA,NA,NA,NA,NA,NA,NA,NA,NA,NA,NA,NA,NA
"17","stim/objects/HouseObjects/ballofstring.png",212,40,212,0.5,"stim/12.jpeg",1,2,1,NA,"HouseObjects",1,2,"left","left",0.593999863,1,1,1,1,NA,NA,NA,NA,NA,NA,NA,NA,NA,NA,NA,NA,NA,NA,NA,NA,NA,NA,NA,NA,NA,NA,NA,NA
"165","stim/objects/Instruments/bassdrum2.png",213,40,213,0.9,"stim/51.jpeg",5,1,3,NA,"Instruments",2,4,"right","right",0.600999832,1,1,1,1,NA,NA,NA,NA,NA,NA,NA,NA,NA,NA,NA,NA,NA,NA,NA,NA,NA,NA,NA,NA,NA,NA,NA,NA
"193","stim/objects/Instruments/cello2.png",214,40,214,0.9,"stim/53.jpeg",5,3,3,NA,"Instruments",2,2,"right","right",0.490999937,1,1,1,1,NA,NA,NA,NA,NA,NA,NA,NA,NA,NA,NA,NA,NA,NA,NA,NA,NA,NA,NA,NA,NA,NA,NA,NA
"125","stim/objects/Instruments/accordion.png",215,40,215,0.5,"stim/11.jpeg",1,1,1,NA,"Instruments",2,3,"right","left",0.723999977,0,0,1,1,NA,NA,NA,NA,NA,NA,NA,NA,NA,NA,NA,NA,NA,NA,NA,NA,NA,NA,NA,NA,NA,NA,NA,NA
"87","stim/objects/HouseObjects/clock.png",216,40,216,0.3,"stim/32.jpeg",3,2,2,NA,"HouseObjects",1,3,"left","right",0.460999966,0,0,1,1,NA,NA,NA,NA,NA,NA,NA,NA,NA,NA,NA,NA,NA,NA,NA,NA,NA,NA,NA,NA,NA,NA,NA,NA
"180","stim/objects/Instruments/bassguitar2.png",217,40,217,0.9,"stim/52.jpeg",5,2,3,NA,"Instruments",2,4,"right","right",0.472000122,1,1,1,1,NA,NA,NA,NA,NA,NA,NA,NA,NA,NA,NA,NA,NA,NA,NA,NA,NA,NA,NA,NA,NA,NA,NA,NA
"48","stim/objects/HouseObjects/basket2.png",218,40,218,0.7,"stim/44.jpeg",4,4,2,NA,"HouseObjects",1,3,"left","left",0.495999813,1,1,1,1,NA,NA,NA,NA,NA,NA,NA,NA,NA,NA,NA,NA,NA,NA,NA,NA,NA,NA,NA,NA,NA,NA,NA,NA
"106","stim/objects/HouseObjects/clothesdryingrack2.png",219,40,219,0.9,"stim/63.jpeg",6,3,3,NA,"HouseObjects",1,3,"left","left",0.498999834,1,1,1,1,NA,NA,NA,NA,NA,NA,NA,NA,NA,NA,NA,NA,NA,NA,NA,NA,NA,NA,NA,NA,NA,NA,NA,NA
"71","stim/objects/HouseObjects/broom.png",220,40,220,0.5,"stim/24.jpeg",2,4,1,NA,"HouseObjects",1,4,"left","left",0.586999893,1,1,1,1,NA,NA,NA,NA,NA,NA,NA,NA,NA,NA,NA,NA,NA,NA,NA,NA,NA,NA,NA,NA,NA,NA,NA,NA
"198","stim/objects/Instruments/chime.png",221,40,221,0.5,"stim/24.jpeg",2,4,1,NA,"Instruments",2,4,"right","left",0.391000032,0,0,1,1,NA,NA,NA,NA,NA,NA,NA,NA,NA,NA,NA,NA,NA,NA,NA,NA,NA,NA,NA,NA,NA,NA,NA,NA
"10","stim/objects/HouseObjects/ashtray2.png",222,40,222,0.7,"stim/41.jpeg",4,1,2,NA,"HouseObjects",1,4,"left","left",0.605999947,1,1,1,1,NA,NA,NA,NA,NA,NA,NA,NA,NA,NA,NA,NA,NA,NA,NA,NA,NA,NA,NA,NA,NA,NA,NA,NA
"59","stim/objects/HouseObjects/blender.png",223,40,223,0.5,"stim/22.jpeg",2,2,1,NA,"HouseObjects",1,3,"left","right",0.667999983,0,0,1,1,NA,NA,NA,NA,NA,NA,NA,NA,NA,NA,NA,NA,NA,NA,NA,NA,NA,NA,NA,NA,NA,NA,NA,NA
"166","stim/objects/Instruments/bassdrum2.png",224,40,224,0.9,"stim/51.jpeg",5,1,3,NA,"Instruments",2,1,"right","right",0.373999834,1,1,1,1,NA,NA,NA,NA,NA,NA,NA,NA,NA,NA,NA,NA,NA,NA,NA,NA,NA,NA,NA,NA,NA,NA,NA,NA
"194","stim/objects/Instruments/cello2.png",225,40,225,0.9,"stim/53.jpeg",5,3,3,NA,"Instruments",2,1,"right","right",0.503000021,1,1,1,1,NA,NA,NA,NA,NA,NA,NA,NA,NA,NA,NA,NA,NA,NA,NA,NA,NA,NA,NA,NA,NA,NA,NA,NA
"65","stim/objects/HouseObjects/bottle.png",226,40,226,0.5,"stim/23.jpeg",2,3,1,NA,"HouseObjects",1,3,"left","left",0.603999853,1,1,1,1,NA,NA,NA,NA,NA,NA,NA,NA,NA,NA,NA,NA,NA,NA,NA,NA,NA,NA,NA,NA,NA,NA,NA,NA
"35","stim/objects/HouseObjects/barbecuelighter2.png",227,40,227,0.7,"stim/43.jpeg",4,3,2,NA,"HouseObjects",1,4,"left","left",0.53399992,1,1,1,1,NA,NA,NA,NA,NA,NA,NA,NA,NA,NA,NA,NA,NA,NA,NA,NA,NA,NA,NA,NA,NA,NA,NA,NA
"107","stim/objects/HouseObjects/clothesdryingrack2.png",228,40,228,0.9,"stim/63.jpeg",6,3,3,NA,"HouseObjects",1,4,"left","left",0.444000006,1,1,1,1,NA,NA,NA,NA,NA,NA,NA,NA,NA,NA,NA,NA,NA,NA,NA,NA,NA,NA,NA,NA,NA,NA,NA,NA
"208","stim/objects/Instruments/chime2.png",229,40,229,0.9,"stim/54.jpeg",5,4,3,NA,"Instruments",2,2,"right","right",0.448999882,1,1,1,1,NA,NA,NA,NA,NA,NA,NA,NA,NA,NA,NA,NA,NA,NA,NA,NA,NA,NA,NA,NA,NA,NA,NA,NA
"11","stim/objects/HouseObjects/ashtray2.png",230,40,230,0.7,"stim/41.jpeg",4,1,2,NA,"HouseObjects",1,4,"left","left",0.615999937,1,1,1,1,NA,NA,NA,NA,NA,NA,NA,NA,NA,NA,NA,NA,NA,NA,NA,NA,NA,NA,NA,NA,NA,NA,NA,NA
"53","stim/objects/HouseObjects/bleachbottle.png",231,40,231,0.5,"stim/21.jpeg",2,1,1,NA,"HouseObjects",1,4,"left","left",0.861999989,1,1,1,1,NA,NA,NA,NA,NA,NA,NA,NA,NA,NA,NA,NA,NA,NA,NA,NA,NA,NA,NA,NA,NA,NA,NA,NA
"96","stim/objects/HouseObjects/clock2.png",232,40,232,0.9,"stim/62.jpeg",6,2,3,NA,"HouseObjects",1,4,"left","left",0.476999998,1,1,1,1,NA,NA,NA,NA,NA,NA,NA,NA,NA,NA,NA,NA,NA,NA,NA,NA,NA,NA,NA,NA,NA,NA,NA,NA
"36","stim/objects/HouseObjects/barbecuelighter2.png",233,40,233,0.7,"stim/43.jpeg",4,3,2,NA,"HouseObjects",1,4,"left","left",0.588000059,1,1,1,1,NA,NA,NA,NA,NA,NA,NA,NA,NA,NA,NA,NA,NA,NA,NA,NA,NA,NA,NA,NA,NA,NA,NA,NA
"41","stim/objects/HouseObjects/basket.png",234,40,234,0.5,"stim/14.jpeg",1,4,1,NA,"HouseObjects",1,2,"left","right",0.74000001,0,0,1,1,NA,NA,NA,NA,NA,NA,NA,NA,NA,NA,NA,NA,NA,NA,NA,NA,NA,NA,NA,NA,NA,NA,NA,NA
"84","stim/objects/HouseObjects/bucket2.png",235,40,235,0.9,"stim/61.jpeg",6,1,3,NA,"HouseObjects",1,2,"left","left",0.43599987,1,1,1,1,NA,NA,NA,NA,NA,NA,NA,NA,NA,NA,NA,NA,NA,NA,NA,NA,NA,NA,NA,NA,NA,NA,NA,NA
"199","stim/objects/Instruments/chime.png",236,40,236,0.5,"stim/24.jpeg",2,4,1,NA,"Instruments",2,3,"right","left",0.68599987,0,0,1,1,NA,NA,NA,NA,NA,NA,NA,NA,NA,NA,NA,NA,NA,NA,NA,NA,NA,NA,NA,NA,NA,NA,NA,NA
"12","stim/objects/HouseObjects/ashtray2.png",237,40,237,0.7,"stim/41.jpeg",4,1,2,NA,"HouseObjects",1,2,"left","left",0.587999821,1,1,1,1,NA,NA,NA,NA,NA,NA,NA,NA,NA,NA,NA,NA,NA,NA,NA,NA,NA,NA,NA,NA,NA,NA,NA,NA
"108","stim/objects/HouseObjects/clothesdryingrack2.png",238,40,238,0.9,"stim/63.jpeg",6,3,3,NA,"HouseObjects",1,4,"left","left",0.571000099,1,1,1,1,NA,NA,NA,NA,NA,NA,NA,NA,NA,NA,NA,NA,NA,NA,NA,NA,NA,NA,NA,NA,NA,NA,NA,NA
"99","stim/objects/HouseObjects/clothesdryingrack.png",239,40,239,0.3,"stim/33.jpeg",3,3,2,NA,"HouseObjects",1,1,"left","right",0.460999966,0,0,1,1,NA,NA,NA,NA,NA,NA,NA,NA,NA,NA,NA,NA,NA,NA,NA,NA,NA,NA,NA,NA,NA,NA,NA,NA
"111","stim/objects/HouseObjects/clothespin.png",240,40,240,0.3,"stim/34.jpeg",3,4,2,NA,"HouseObjects",1,1,"left","right",0.565999985,0,0,1,1,NA,NA,NA,NA,NA,NA,NA,NA,NA,NA,NA,NA,NA,NA,NA,NA,NA,NA,NA,NA,NA,NA,NA,NA
"557","stim/objects/Instruments/triangle.png",248,40,241,0.5,"stim/23.jpeg",2,3,1,1,"Instruments",2,2,"right","left",0.884000063,0,0,1,0,189,40,1,0.5,2,"stim/23.jpeg",2,3,"stim/23.jpeg",2,"left",0.633000135,3,3,0.770999908,2,0.937000036,189,1,1,1,1,1,1
"291","stim/objects/HouseObjects/knife.png",249,40,242,0.9,"stim/64.jpeg",6,4,3,2,"HouseObjects",1,2,"left","left",0.676999807,1,1,1,0,NA,NA,NA,NA,NA,NA,NA,NA,NA,NA,NA,NA,NA,NA,NA,NA,NA,NA,NA,NA,NA,NA,NA,NA
"388","stim/objects/HouseObjects/scale.png",250,40,243,0.5,"stim/22.jpeg",2,2,1,1,"HouseObjects",1,2,"left","",NA,0,0,1,0,193,40,1,0.5,2,"stim/22.jpeg",2,2,"stim/22.jpeg",2,"right",0.750999928,2,1,0.950999975,1,0.377000093,193,0,0,NA,0,NA,1
"569","stim/objects/Instruments/xylophone.png",251,40,244,0.7,"stim/32.jpeg",3,2,2,1,"Instruments",2,2,"right","left",0.712999821,0,0,1,0,128,40,1,0.7,2,"stim/32.jpeg",3,2,"stim/32.jpeg",2,"right",0.901000023,2,3,1.286000013,2,2.073999882,128,0,0,NA,1,NA,1
"433","stim/objects/Instruments/harmonica.png",252,40,245,0.5,"stim/23.jpeg",2,3,1,2,"Instruments",2,1,"right","left",0.924999952,0,0,1,0,NA,NA,NA,NA,NA,NA,NA,NA,NA,NA,NA,NA,NA,NA,NA,NA,NA,NA,NA,NA,NA,NA,NA,NA
"384","stim/objects/HouseObjects/safetypin.png",253,40,246,0.5,"stim/13.jpeg",1,3,1,1,"HouseObjects",1,1,"left","right",0.83100009,0,0,1,0,133,40,1,0.5,1,"stim/13.jpeg",1,3,"stim/13.jpeg",1,"left",0.733999968,4,2,1.436000109,1,0.751000166,133,1,0,0,1,1,1
"473","stim/objects/Instruments/metronome.png",254,40,247,0.9,"stim/52.jpeg",5,2,3,2,"Instruments",2,3,"right","right",0.726999998,1,1,1,0,NA,NA,NA,NA,NA,NA,NA,NA,NA,NA,NA,NA,NA,NA,NA,NA,NA,NA,NA,NA,NA,NA,NA,NA
"286","stim/objects/HouseObjects/ironingboard2.png",255,40,248,0.7,"stim/44.jpeg",4,4,2,1,"HouseObjects",1,1,"left","left",0.822999954,1,1,1,0,200,40,1,0.7,1,"stim/44.jpeg",4,4,"stim/44.jpeg",1,"right",0.570999861,1,1,0.554000139,1,0.61500001,200,0,0,NA,1,NA,1
"548","stim/objects/Instruments/record2.png",256,40,249,0.9,"stim/52.jpeg",5,2,3,1,"Instruments",2,2,"right","right",0.655999899,1,1,1,0,91,40,1,0.9,2,"stim/52.jpeg",5,2,"stim/52.jpeg",2,"left",0.901000023,4,3,0.931999922,2,2.911999941,91,1,0,0,1,1,1
"434","stim/objects/Instruments/harmonica.png",257,40,250,0.5,"stim/22.jpeg",2,2,1,2,"Instruments",2,3,"right","left",0.497999907,0,0,1,0,NA,NA,NA,NA,NA,NA,NA,NA,NA,NA,NA,NA,NA,NA,NA,NA,NA,NA,NA,NA,NA,NA,NA,NA
"399","stim/objects/HouseObjects/thread2.png",258,40,251,0.9,"stim/63.jpeg",6,3,3,1,"HouseObjects",1,3,"left","left",0.608999968,1,1,1,0,19,40,1,0.9,1,"stim/63.jpeg",6,3,"stim/63.jpeg",3,"left",0.846999884,4,3,4.976999998,1,0.849999905,19,1,1,1,0,0,1
"448","stim/objects/Instruments/laud.png",259,40,252,0.7,"stim/33.jpeg",3,3,2,2,"Instruments",2,3,"right","right",0.70600009,1,1,1,0,NA,NA,NA,NA,NA,NA,NA,NA,NA,NA,NA,NA,NA,NA,NA,NA,NA,NA,NA,NA,NA,NA,NA,NA
"294","stim/objects/HouseObjects/knife.png",260,40,253,0.9,"stim/63.jpeg",6,3,3,2,"HouseObjects",1,1,"left","left",0.513000011,1,1,1,0,NA,NA,NA,NA,NA,NA,NA,NA,NA,NA,NA,NA,NA,NA,NA,NA,NA,NA,NA,NA,NA,NA,NA,NA
"403","stim/objects/HouseObjects/vacuumcleaner2.png",261,40,254,0.9,"stim/61.jpeg",6,1,3,1,"HouseObjects",1,1,"left","left",0.593999863,1,1,1,0,26,40,1,0.9,1,"stim/61.jpeg",6,1,"stim/61.jpeg",1,"left",1.912999868,2,4,2.496999979,2,1.305999994,26,1,0,0,0,0,1
"524","stim/objects/Instruments/oboe.png",262,40,255,0.9,"stim/53.jpeg",5,3,3,2,"Instruments",2,1,"right","right",0.621999979,1,1,1,0,NA,NA,NA,NA,NA,NA,NA,NA,NA,NA,NA,NA,NA,NA,NA,NA,NA,NA,NA,NA,NA,NA,NA,NA
"381","stim/objects/HouseObjects/rubbergloves2.png",263,40,256,0.1,"stim/54.jpeg",5,4,3,1,"HouseObjects",1,1,"left","right",0.493000031,0,0,1,0,182,40,1,0.1,1,"stim/54.jpeg",5,4,"stim/54.jpeg",1,"left",0.69299984,3,3,0.986999989,4,0.527999878,182,1,0,0,0,0,1
"405","stim/objects/HouseObjects/wateringcan2.png",264,40,257,0.9,"stim/62.jpeg",6,2,3,1,"HouseObjects",1,4,"left","left",0.514999866,1,1,1,0,142,40,1,0.9,1,"stim/62.jpeg",6,2,"stim/62.jpeg",4,"left",0.835000038,4,4,2.585000038,2,1.736000061,142,1,0,0,0,0,1
"439","stim/objects/Instruments/harp2.png",265,40,258,0.3,"stim/43.jpeg",4,3,2,1,"Instruments",2,4,"right","left",0.55099988,0,0,1,0,45,40,1,0.3,2,"stim/43.jpeg",4,3,"stim/43.jpeg",4,"left",1.197999954,3,2,1.558000088,2,0.822000027,45,1,0,0,0,0,1
"282","stim/objects/HouseObjects/iron2.png",266,40,259,0.7,"stim/43.jpeg",4,3,2,1,"HouseObjects",1,2,"left","right",0.857999802,0,0,1,0,17,40,1,0.7,1,"stim/43.jpeg",4,3,"stim/43.jpeg",2,"left",2.602999926,3,4,2.703999996,2,1.845000029,17,1,0,0,1,1,1
"271","stim/objects/HouseObjects/handbrush.png",267,40,260,0.7,"stim/41.jpeg",4,1,2,2,"HouseObjects",1,2,"left","left",0.480999947,1,1,1,0,NA,NA,NA,NA,NA,NA,NA,NA,NA,NA,NA,NA,NA,NA,NA,NA,NA,NA,NA,NA,NA,NA,NA,NA
"287","stim/objects/HouseObjects/key.png",268,40,261,0.7,"stim/41.jpeg",4,1,2,2,"HouseObjects",1,3,"left","left",0.430999756,1,1,1,0,NA,NA,NA,NA,NA,NA,NA,NA,NA,NA,NA,NA,NA,NA,NA,NA,NA,NA,NA,NA,NA,NA,NA,NA
"491","stim/objects/Instruments/musicsheet.png",269,40,262,0.9,"stim/54.jpeg",5,4,3,2,"Instruments",2,1,"right","right",0.576999903,1,1,1,0,NA,NA,NA,NA,NA,NA,NA,NA,NA,NA,NA,NA,NA,NA,NA,NA,NA,NA,NA,NA,NA,NA,NA,NA
"474","stim/objects/Instruments/metronome.png",270,40,263,0.9,"stim/52.jpeg",5,2,3,2,"Instruments",2,3,"right","left",0.412999868,0,0,1,0,NA,NA,NA,NA,NA,NA,NA,NA,NA,NA,NA,NA,NA,NA,NA,NA,NA,NA,NA,NA,NA,NA,NA,NA
"265","stim/objects/HouseObjects/glassmop.png",271,40,264,0.5,"stim/22.jpeg",2,2,1,2,"HouseObjects",1,1,"left","right",0.381000042,0,0,1,0,NA,NA,NA,NA,NA,NA,NA,NA,NA,NA,NA,NA,NA,NA,NA,NA,NA,NA,NA,NA,NA,NA,NA,NA
"262","stim/objects/HouseObjects/glass.png",272,40,265,0.5,"stim/21.jpeg",2,1,1,2,"HouseObjects",1,3,"left","left",0.497999907,1,1,1,0,NA,NA,NA,NA,NA,NA,NA,NA,NA,NA,NA,NA,NA,NA,NA,NA,NA,NA,NA,NA,NA,NA,NA,NA
"274","stim/objects/HouseObjects/handbrush2.png",273,40,266,0.7,"stim/41.jpeg",4,1,2,1,"HouseObjects",1,1,"left","left",0.391000032,1,1,1,0,112,40,1,0.7,1,"stim/41.jpeg",4,1,"stim/41.jpeg",1,"left",0.730000019,4,1,0.901000023,2,0.649999857,112,1,1,1,0,0,1
"325","stim/objects/HouseObjects/match.png",274,40,267,0.9,"stim/61.jpeg",6,1,3,2,"HouseObjects",1,2,"left","left",0.542999744,1,1,1,0,NA,NA,NA,NA,NA,NA,NA,NA,NA,NA,NA,NA,NA,NA,NA,NA,NA,NA,NA,NA,NA,NA,NA,NA
"390","stim/objects/HouseObjects/sponge.png",275,40,268,0.5,"stim/23.jpeg",2,3,1,1,"HouseObjects",1,3,"left","right",0.726999998,0,0,1,0,185,40,1,0.5,2,"stim/23.jpeg",2,3,"stim/23.jpeg",3,"left",1.863000154,2,2,0.911999941,1,1.623000145,185,1,0,0,0,0,1
"475","stim/objects/Instruments/metronome.png",276,40,269,0.9,"stim/51.jpeg",5,1,3,2,"Instruments",2,3,"right","right",0.610999823,1,1,1,0,NA,NA,NA,NA,NA,NA,NA,NA,NA,NA,NA,NA,NA,NA,NA,NA,NA,NA,NA,NA,NA,NA,NA,NA
"492","stim/objects/Instruments/musicsheet.png",277,40,270,0.9,"stim/51.jpeg",5,1,3,2,"Instruments",2,2,"right","left",0.746999979,0,0,1,0,NA,NA,NA,NA,NA,NA,NA,NA,NA,NA,NA,NA,NA,NA,NA,NA,NA,NA,NA,NA,NA,NA,NA,NA
"425","stim/objects/Instruments/gong.png",278,40,271,0.5,"stim/23.jpeg",2,3,1,2,"Instruments",2,2,"right","left",0.679000139,0,0,1,0,NA,NA,NA,NA,NA,NA,NA,NA,NA,NA,NA,NA,NA,NA,NA,NA,NA,NA,NA,NA,NA,NA,NA,NA
"525","stim/objects/Instruments/oboe.png",279,40,272,0.9,"stim/54.jpeg",5,4,3,2,"Instruments",2,2,"right","right",0.546000004,1,1,1,0,NA,NA,NA,NA,NA,NA,NA,NA,NA,NA,NA,NA,NA,NA,NA,NA,NA,NA,NA,NA,NA,NA,NA,NA
"457","stim/objects/Instruments/marimba.png",280,40,273,0.9,"stim/51.jpeg",5,1,3,2,"Instruments",2,3,"right","right",0.732999802,1,1,1,0,NA,NA,NA,NA,NA,NA,NA,NA,NA,NA,NA,NA,NA,NA,NA,NA,NA,NA,NA,NA,NA,NA,NA,NA
"296","stim/objects/HouseObjects/knife.png",281,40,274,0.9,"stim/64.jpeg",6,4,3,2,"HouseObjects",1,2,"left","left",0.546999931,1,1,1,0,NA,NA,NA,NA,NA,NA,NA,NA,NA,NA,NA,NA,NA,NA,NA,NA,NA,NA,NA,NA,NA,NA,NA,NA
"326","stim/objects/HouseObjects/match.png",282,40,275,0.9,"stim/63.jpeg",6,3,3,2,"HouseObjects",1,1,"left","left",0.506999731,1,1,1,0,NA,NA,NA,NA,NA,NA,NA,NA,NA,NA,NA,NA,NA,NA,NA,NA,NA,NA,NA,NA,NA,NA,NA,NA
"361","stim/objects/HouseObjects/pitcher.png",283,40,276,0.9,"stim/64.jpeg",6,4,3,2,"HouseObjects",1,4,"left","left",0.525999784,1,1,1,0,NA,NA,NA,NA,NA,NA,NA,NA,NA,NA,NA,NA,NA,NA,NA,NA,NA,NA,NA,NA,NA,NA,NA,NA
"508","stim/objects/Instruments/musicstand.png",284,40,277,0.9,"stim/53.jpeg",5,3,3,2,"Instruments",2,2,"right","right",0.700000048,1,1,1,0,NA,NA,NA,NA,NA,NA,NA,NA,NA,NA,NA,NA,NA,NA,NA,NA,NA,NA,NA,NA,NA,NA,NA,NA
"415","stim/objects/Instruments/flute.png",285,40,278,0.5,"stim/13.jpeg",1,3,1,2,"Instruments",2,2,"right","left",0.598999739,0,0,1,0,NA,NA,NA,NA,NA,NA,NA,NA,NA,NA,NA,NA,NA,NA,NA,NA,NA,NA,NA,NA,NA,NA,NA,NA
"561","stim/objects/Instruments/trumpet.png",286,40,279,0.7,"stim/32.jpeg",3,2,2,1,"Instruments",2,2,"right","right",0.663000107,1,1,1,0,20,40,1,0.7,2,"stim/32.jpeg",3,2,"stim/32.jpeg",2,"left",1.088000059,4,3,2.217000008,1,1.178999901,20,1,0,0,0,0,1
"509","stim/objects/Instruments/musicstand.png",287,40,280,0.9,"stim/51.jpeg",5,1,3,2,"Instruments",2,3,"right","right",0.581999779,1,1,1,0,NA,NA,NA,NA,NA,NA,NA,NA,NA,NA,NA,NA,NA,NA,NA,NA,NA,NA,NA,NA,NA,NA,NA,NA
"555","stim/objects/Instruments/timbal.png",288,40,281,0.5,"stim/22.jpeg",2,2,1,1,"Instruments",2,2,"right","left",0.492999792,0,0,1,0,146,40,1,0.5,2,"stim/22.jpeg",2,2,"stim/22.jpeg",2,"left",0.904000044,4,4,1.250999928,2,0.760999918,146,1,0,0,1,1,1
"527","stim/objects/Instruments/oboe.png",289,40,282,0.9,"stim/51.jpeg",5,1,3,2,"Instruments",2,3,"right","right",0.562999964,1,1,1,0,NA,NA,NA,NA,NA,NA,NA,NA,NA,NA,NA,NA,NA,NA,NA,NA,NA,NA,NA,NA,NA,NA,NA,NA
"377","stim/objects/HouseObjects/recyclingbin2.png",290,40,283,0.1,"stim/52.jpeg",5,2,3,1,"HouseObjects",1,3,"left","right",0.592999935,0,0,1,0,37,40,1,0.1,1,"stim/52.jpeg",5,2,"stim/52.jpeg",3,"right",0.690000057,1,1,1.852999926,1,0.947999954,37,0,0,NA,0,NA,1
"476","stim/objects/Instruments/metronome.png",291,40,284,0.9,"stim/53.jpeg",5,3,3,2,"Instruments",2,2,"right","right",0.618000031,1,1,1,0,NA,NA,NA,NA,NA,NA,NA,NA,NA,NA,NA,NA,NA,NA,NA,NA,NA,NA,NA,NA,NA,NA,NA,NA
"445","stim/objects/Instruments/keyboard.png",292,40,285,0.7,"stim/32.jpeg",3,2,2,2,"Instruments",2,3,"right","right",0.681999922,1,1,1,0,NA,NA,NA,NA,NA,NA,NA,NA,NA,NA,NA,NA,NA,NA,NA,NA,NA,NA,NA,NA,NA,NA,NA,NA
"297","stim/objects/HouseObjects/knife.png",293,40,286,0.9,"stim/64.jpeg",6,4,3,2,"HouseObjects",1,4,"left","left",0.493000031,1,1,1,0,NA,NA,NA,NA,NA,NA,NA,NA,NA,NA,NA,NA,NA,NA,NA,NA,NA,NA,NA,NA,NA,NA,NA,NA
"493","stim/objects/Instruments/musicsheet.png",294,40,287,0.9,"stim/51.jpeg",5,1,3,2,"Instruments",2,2,"right","left",0.789999723,0,0,1,0,NA,NA,NA,NA,NA,NA,NA,NA,NA,NA,NA,NA,NA,NA,NA,NA,NA,NA,NA,NA,NA,NA,NA,NA
"459","stim/objects/Instruments/marimba.png",295,40,288,0.9,"stim/51.jpeg",5,1,3,2,"Instruments",2,4,"right","right",0.711999893,1,1,1,0,NA,NA,NA,NA,NA,NA,NA,NA,NA,NA,NA,NA,NA,NA,NA,NA,NA,NA,NA,NA,NA,NA,NA,NA
"308","stim/objects/HouseObjects/lintroller.png",296,40,289,0.9,"stim/62.jpeg",6,2,3,2,"HouseObjects",1,2,"left","left",0.453000069,1,1,1,0,NA,NA,NA,NA,NA,NA,NA,NA,NA,NA,NA,NA,NA,NA,NA,NA,NA,NA,NA,NA,NA,NA,NA,NA
"436","stim/objects/Instruments/harp.png",297,40,290,0.7,"stim/34.jpeg",3,4,2,2,"Instruments",2,2,"right","right",0.532000065,1,1,1,0,NA,NA,NA,NA,NA,NA,NA,NA,NA,NA,NA,NA,NA,NA,NA,NA,NA,NA,NA,NA,NA,NA,NA,NA
"389","stim/objects/HouseObjects/scale2.png",298,40,291,0.9,"stim/62.jpeg",6,2,3,1,"HouseObjects",1,3,"left","left",0.545999765,1,1,1,0,157,40,1,0.9,1,"stim/62.jpeg",6,2,"stim/62.jpeg",3,"left",0.89199996,4,2,2.710999966,4,2.963000059,157,1,1,1,0,0,1
"510","stim/objects/Instruments/musicstand.png",299,40,292,0.9,"stim/54.jpeg",5,4,3,2,"Instruments",2,4,"right","right",0.771999836,1,1,1,0,NA,NA,NA,NA,NA,NA,NA,NA,NA,NA,NA,NA,NA,NA,NA,NA,NA,NA,NA,NA,NA,NA,NA,NA
"495","stim/objects/Instruments/musicsheet.png",300,40,293,0.9,"stim/53.jpeg",5,3,3,2,"Instruments",2,3,"right","right",0.552000046,1,1,1,0,NA,NA,NA,NA,NA,NA,NA,NA,NA,NA,NA,NA,NA,NA,NA,NA,NA,NA,NA,NA,NA,NA,NA,NA
"429","stim/objects/Instruments/grandpiano2.png",301,40,294,0.3,"stim/44.jpeg",4,4,2,1,"Instruments",2,4,"right","left",0.644000053,0,0,1,0,186,40,1,0.3,2,"stim/44.jpeg",4,4,"stim/44.jpeg",4,"right",0.987000227,1,1,0.665999889,1,0.565000057,186,0,0,NA,0,NA,1
"342","stim/objects/HouseObjects/pan.png",302,40,295,0.9,"stim/63.jpeg",6,3,3,2,"HouseObjects",1,1,"left","right",0.433000088,0,0,1,0,NA,NA,NA,NA,NA,NA,NA,NA,NA,NA,NA,NA,NA,NA,NA,NA,NA,NA,NA,NA,NA,NA,NA,NA
"496","stim/objects/Instruments/musicsheet.png",303,40,296,0.9,"stim/54.jpeg",5,4,3,2,"Instruments",2,2,"right","right",0.681999922,1,1,1,0,NA,NA,NA,NA,NA,NA,NA,NA,NA,NA,NA,NA,NA,NA,NA,NA,NA,NA,NA,NA,NA,NA,NA,NA
"343","stim/objects/HouseObjects/pan.png",304,40,297,0.9,"stim/64.jpeg",6,4,3,2,"HouseObjects",1,1,"left","left",0.552999973,1,1,1,0,NA,NA,NA,NA,NA,NA,NA,NA,NA,NA,NA,NA,NA,NA,NA,NA,NA,NA,NA,NA,NA,NA,NA,NA
"478","stim/objects/Instruments/metronome.png",305,40,298,0.9,"stim/51.jpeg",5,1,3,2,"Instruments",2,1,"right","right",0.524999857,1,1,1,0,NA,NA,NA,NA,NA,NA,NA,NA,NA,NA,NA,NA,NA,NA,NA,NA,NA,NA,NA,NA,NA,NA,NA,NA
"324","stim/objects/HouseObjects/lintroller2.png",306,40,299,0.1,"stim/52.jpeg",5,2,3,1,"HouseObjects",1,3,"left","left",0.666000128,1,1,1,0,118,40,1,0.1,1,"stim/52.jpeg",5,2,"stim/52.jpeg",3,"left",1.056999922,4,4,1.652000189,1,1.289999962,118,1,0,0,0,0,1
"414","stim/objects/Instruments/electricguitar2.png",307,40,300,0.7,"stim/31.jpeg",3,1,2,1,"Instruments",2,1,"right","left",0.813999891,0,0,1,0,180,40,1,0.7,2,"stim/31.jpeg",3,1,"stim/31.jpeg",1,"right",0.799999952,2,2,0.61500001,1,0.705000162,180,0,0,NA,1,NA,1
"344","stim/objects/HouseObjects/pan.png",308,40,301,0.9,"stim/61.jpeg",6,1,3,2,"HouseObjects",1,1,"left","right",0.427000046,0,0,1,0,NA,NA,NA,NA,NA,NA,NA,NA,NA,NA,NA,NA,NA,NA,NA,NA,NA,NA,NA,NA,NA,NA,NA,NA
"479","stim/objects/Instruments/metronome.png",309,40,302,0.9,"stim/52.jpeg",5,2,3,2,"Instruments",2,4,"right","left",0.660999775,0,0,1,0,NA,NA,NA,NA,NA,NA,NA,NA,NA,NA,NA,NA,NA,NA,NA,NA,NA,NA,NA,NA,NA,NA,NA,NA
"263","stim/objects/HouseObjects/glass.png",310,40,303,0.5,"stim/22.jpeg",2,2,1,2,"HouseObjects",1,4,"left","left",0.746999979,1,1,1,0,NA,NA,NA,NA,NA,NA,NA,NA,NA,NA,NA,NA,NA,NA,NA,NA,NA,NA,NA,NA,NA,NA,NA,NA
"256","stim/objects/HouseObjects/flyswatter.png",311,40,304,0.5,"stim/23.jpeg",2,3,1,2,"HouseObjects",1,4,"left","left",0.662999868,1,1,1,0,NA,NA,NA,NA,NA,NA,NA,NA,NA,NA,NA,NA,NA,NA,NA,NA,NA,NA,NA,NA,NA,NA,NA,NA
"421","stim/objects/Instruments/frenchhorn.png",312,40,305,0.5,"stim/22.jpeg",2,2,1,2,"Instruments",2,4,"right","left",0.440999985,0,0,1,0,NA,NA,NA,NA,NA,NA,NA,NA,NA,NA,NA,NA,NA,NA,NA,NA,NA,NA,NA,NA,NA,NA,NA,NA
"424","stim/objects/Instruments/gong.png",313,40,306,0.5,"stim/24.jpeg",2,4,1,2,"Instruments",2,2,"right","right",0.463999748,1,1,1,0,NA,NA,NA,NA,NA,NA,NA,NA,NA,NA,NA,NA,NA,NA,NA,NA,NA,NA,NA,NA,NA,NA,NA,NA
"528","stim/objects/Instruments/oboe.png",314,40,307,0.9,"stim/52.jpeg",5,2,3,2,"Instruments",2,2,"right","right",0.625,1,1,1,0,NA,NA,NA,NA,NA,NA,NA,NA,NA,NA,NA,NA,NA,NA,NA,NA,NA,NA,NA,NA,NA,NA,NA,NA
"529","stim/objects/Instruments/oboe.png",315,40,308,0.9,"stim/51.jpeg",5,1,3,2,"Instruments",2,4,"right","right",0.631999731,1,1,1,0,NA,NA,NA,NA,NA,NA,NA,NA,NA,NA,NA,NA,NA,NA,NA,NA,NA,NA,NA,NA,NA,NA,NA,NA
"542","stim/objects/Instruments/panflute2.png",316,40,309,0.9,"stim/54.jpeg",5,4,3,1,"Instruments",2,3,"right","right",0.538999796,1,1,1,0,171,40,1,0.9,2,"stim/54.jpeg",5,4,"stim/54.jpeg",3,"left",1.020999908,3,3,0.75,2,0.818000078,171,1,0,0,0,0,1
"511","stim/objects/Instruments/musicstand.png",317,40,310,0.9,"stim/51.jpeg",5,1,3,2,"Instruments",2,3,"right","right",0.525999784,1,1,1,0,NA,NA,NA,NA,NA,NA,NA,NA,NA,NA,NA,NA,NA,NA,NA,NA,NA,NA,NA,NA,NA,NA,NA,NA
"512","stim/objects/Instruments/musicstand.png",318,40,311,0.9,"stim/53.jpeg",5,3,3,2,"Instruments",2,3,"right","right",0.590999842,1,1,1,0,NA,NA,NA,NA,NA,NA,NA,NA,NA,NA,NA,NA,NA,NA,NA,NA,NA,NA,NA,NA,NA,NA,NA,NA
"272","stim/objects/HouseObjects/handbrush.png",319,40,312,0.7,"stim/43.jpeg",4,3,2,2,"HouseObjects",1,2,"left","left",0.57799983,1,1,1,0,NA,NA,NA,NA,NA,NA,NA,NA,NA,NA,NA,NA,NA,NA,NA,NA,NA,NA,NA,NA,NA,NA,NA,NA
"362","stim/objects/HouseObjects/pitcher.png",320,40,313,0.9,"stim/61.jpeg",6,1,3,2,"HouseObjects",1,2,"left","left",0.520999908,1,1,1,0,NA,NA,NA,NA,NA,NA,NA,NA,NA,NA,NA,NA,NA,NA,NA,NA,NA,NA,NA,NA,NA,NA,NA,NA
"455","stim/objects/Instruments/maraca2.png",321,40,314,0.3,"stim/43.jpeg",4,3,2,1,"Instruments",2,2,"right","left",0.478999853,0,0,1,0,68,40,1,0.3,2,"stim/43.jpeg",4,3,"stim/43.jpeg",2,"left",0.822999954,4,1,1.792000055,2,2.02699995,68,1,0,0,1,1,1
"330","stim/objects/HouseObjects/match.png",322,40,315,0.9,"stim/61.jpeg",6,1,3,2,"HouseObjects",1,3,"left","left",0.585999966,1,1,1,0,NA,NA,NA,NA,NA,NA,NA,NA,NA,NA,NA,NA,NA,NA,NA,NA,NA,NA,NA,NA,NA,NA,NA,NA
"497","stim/objects/Instruments/musicsheet.png",323,40,316,0.9,"stim/54.jpeg",5,4,3,2,"Instruments",2,3,"right","right",0.549999952,1,1,1,0,NA,NA,NA,NA,NA,NA,NA,NA,NA,NA,NA,NA,NA,NA,NA,NA,NA,NA,NA,NA,NA,NA,NA,NA
"513","stim/objects/Instruments/musicstand.png",324,40,317,0.9,"stim/52.jpeg",5,2,3,2,"Instruments",2,3,"right","right",0.481999874,1,1,1,0,NA,NA,NA,NA,NA,NA,NA,NA,NA,NA,NA,NA,NA,NA,NA,NA,NA,NA,NA,NA,NA,NA,NA,NA
"283","stim/objects/HouseObjects/ironingboard.png",325,40,318,0.7,"stim/44.jpeg",4,4,2,2,"HouseObjects",1,2,"left","right",0.722999811,0,0,1,0,NA,NA,NA,NA,NA,NA,NA,NA,NA,NA,NA,NA,NA,NA,NA,NA,NA,NA,NA,NA,NA,NA,NA,NA
"558","stim/objects/Instruments/triangle2.png",326,40,319,0.1,"stim/62.jpeg",6,2,3,1,"Instruments",2,2,"right","left",0.450000048,0,0,1,0,115,40,1,0.1,2,"stim/62.jpeg",6,2,"stim/62.jpeg",2,"left",0.708000183,4,4,1.25,2,1.602000237,115,1,0,0,1,1,1
"363","stim/objects/HouseObjects/pitcher.png",327,40,320,0.9,"stim/63.jpeg",6,3,3,2,"HouseObjects",1,4,"left","right",0.726000071,0,0,1,0,NA,NA,NA,NA,NA,NA,NA,NA,NA,NA,NA,NA,NA,NA,NA,NA,NA,NA,NA,NA,NA,NA,NA,NA
"364","stim/objects/HouseObjects/pitcher.png",328,40,321,0.9,"stim/63.jpeg",6,3,3,2,"HouseObjects",1,2,"left","left",0.479999781,1,1,1,0,NA,NA,NA,NA,NA,NA,NA,NA,NA,NA,NA,NA,NA,NA,NA,NA,NA,NA,NA,NA,NA,NA,NA,NA
"446","stim/objects/Instruments/keyboard.png",329,40,322,0.7,"stim/33.jpeg",3,3,2,2,"Instruments",2,4,"right","left",0.569000006,0,0,1,0,NA,NA,NA,NA,NA,NA,NA,NA,NA,NA,NA,NA,NA,NA,NA,NA,NA,NA,NA,NA,NA,NA,NA,NA
"365","stim/objects/HouseObjects/pitcher.png",330,40,323,0.9,"stim/62.jpeg",6,2,3,2,"HouseObjects",1,3,"left","left",0.591999769,1,1,1,0,NA,NA,NA,NA,NA,NA,NA,NA,NA,NA,NA,NA,NA,NA,NA,NA,NA,NA,NA,NA,NA,NA,NA,NA
"366","stim/objects/HouseObjects/pitcher.png",331,40,324,0.9,"stim/64.jpeg",6,4,3,2,"HouseObjects",1,2,"left","left",0.525999784,1,1,1,0,NA,NA,NA,NA,NA,NA,NA,NA,NA,NA,NA,NA,NA,NA,NA,NA,NA,NA,NA,NA,NA,NA,NA,NA
"310","stim/objects/HouseObjects/lintroller.png",332,40,325,0.9,"stim/62.jpeg",6,2,3,2,"HouseObjects",1,3,"left","left",0.491999865,1,1,1,0,NA,NA,NA,NA,NA,NA,NA,NA,NA,NA,NA,NA,NA,NA,NA,NA,NA,NA,NA,NA,NA,NA,NA,NA
"460","stim/objects/Instruments/marimba.png",333,40,326,0.9,"stim/52.jpeg",5,2,3,2,"Instruments",2,3,"right","right",0.563999891,1,1,1,0,NA,NA,NA,NA,NA,NA,NA,NA,NA,NA,NA,NA,NA,NA,NA,NA,NA,NA,NA,NA,NA,NA,NA,NA
"311","stim/objects/HouseObjects/lintroller.png",334,40,327,0.9,"stim/62.jpeg",6,2,3,2,"HouseObjects",1,1,"left","left",0.451999903,1,1,1,0,NA,NA,NA,NA,NA,NA,NA,NA,NA,NA,NA,NA,NA,NA,NA,NA,NA,NA,NA,NA,NA,NA,NA,NA
"514","stim/objects/Instruments/musicstand.png",335,40,328,0.9,"stim/54.jpeg",5,4,3,2,"Instruments",2,3,"right","right",0.607999802,1,1,1,0,NA,NA,NA,NA,NA,NA,NA,NA,NA,NA,NA,NA,NA,NA,NA,NA,NA,NA,NA,NA,NA,NA,NA,NA
"552","stim/objects/Instruments/speaker2.png",336,40,329,0.1,"stim/63.jpeg",6,3,3,1,"Instruments",2,2,"right","left",0.457999945,0,0,1,0,56,40,1,0.1,2,"stim/63.jpeg",6,3,"stim/63.jpeg",2,"right",0.687999964,3,2,1.467000008,4,1.813999891,56,0,0,NA,0,NA,1
"531","stim/objects/Instruments/oboe.png",337,40,330,0.9,"stim/51.jpeg",5,1,3,2,"Instruments",2,3,"right","right",0.57799983,1,1,1,0,NA,NA,NA,NA,NA,NA,NA,NA,NA,NA,NA,NA,NA,NA,NA,NA,NA,NA,NA,NA,NA,NA,NA,NA
"312","stim/objects/HouseObjects/lintroller.png",338,40,331,0.9,"stim/63.jpeg",6,3,3,2,"HouseObjects",1,2,"left","left",0.629999876,1,1,1,0,NA,NA,NA,NA,NA,NA,NA,NA,NA,NA,NA,NA,NA,NA,NA,NA,NA,NA,NA,NA,NA,NA,NA,NA
"461","stim/objects/Instruments/marimba.png",339,40,332,0.9,"stim/52.jpeg",5,2,3,2,"Instruments",2,2,"right","left",0.623999834,0,0,1,0,NA,NA,NA,NA,NA,NA,NA,NA,NA,NA,NA,NA,NA,NA,NA,NA,NA,NA,NA,NA,NA,NA,NA,NA
"480","stim/objects/Instruments/metronome.png",340,40,333,0.9,"stim/51.jpeg",5,1,3,2,"Instruments",2,1,"right","right",0.446000099,1,1,1,0,NA,NA,NA,NA,NA,NA,NA,NA,NA,NA,NA,NA,NA,NA,NA,NA,NA,NA,NA,NA,NA,NA,NA,NA
"462","stim/objects/Instruments/marimba.png",341,40,334,0.9,"stim/53.jpeg",5,3,3,2,"Instruments",2,3,"right","left",0.695999861,0,0,1,0,NA,NA,NA,NA,NA,NA,NA,NA,NA,NA,NA,NA,NA,NA,NA,NA,NA,NA,NA,NA,NA,NA,NA,NA
"395","stim/objects/HouseObjects/teapot2.png",342,40,335,0.9,"stim/61.jpeg",6,1,3,1,"HouseObjects",1,1,"left","left",0.515999794,1,1,1,0,76,40,1,0.9,1,"stim/61.jpeg",6,1,"stim/61.jpeg",1,"left",0.753999949,4,3,2.957999945,2,1.069000006,76,1,0,0,0,0,1
"396","stim/objects/HouseObjects/thermometer.png",343,40,336,0.3,"stim/31.jpeg",3,1,2,1,"HouseObjects",1,1,"left","right",0.445999861,0,0,1,0,152,40,1,0.3,1,"stim/31.jpeg",3,1,"stim/31.jpeg",1,"right",1.401000023,1,1,0.900000095,3,0.888000011,152,0,1,NA,0,NA,1
"278","stim/objects/HouseObjects/handvacuum2.png",344,40,337,0.7,"stim/42.jpeg",4,2,2,1,"HouseObjects",1,4,"left","left",0.48699975,1,1,1,0,60,40,1,0.7,1,"stim/42.jpeg",4,2,"stim/42.jpeg",4,"left",0.766000032,4,3,0.994999886,3,3.128000021,60,1,0,0,0,0,1
"515","stim/objects/Instruments/musicstand.png",345,40,338,0.9,"stim/52.jpeg",5,2,3,2,"Instruments",2,3,"right","right",0.690000057,1,1,1,0,NA,NA,NA,NA,NA,NA,NA,NA,NA,NA,NA,NA,NA,NA,NA,NA,NA,NA,NA,NA,NA,NA,NA,NA
"358","stim/objects/HouseObjects/pan2.png",346,40,339,0.1,"stim/54.jpeg",5,4,3,1,"HouseObjects",1,3,"left","right",0.487999916,0,0,1,0,129,40,1,0.1,1,"stim/54.jpeg",5,4,"stim/54.jpeg",3,"right",0.944999933,1,1,1.220000029,1,0.714999914,129,0,0,NA,0,NA,1
"482","stim/objects/Instruments/metronome.png",347,40,340,0.9,"stim/52.jpeg",5,2,3,2,"Instruments",2,1,"right","right",0.622999907,1,1,1,0,NA,NA,NA,NA,NA,NA,NA,NA,NA,NA,NA,NA,NA,NA,NA,NA,NA,NA,NA,NA,NA,NA,NA,NA
"249","stim/objects/HouseObjects/dishsoap2.png",348,40,341,0.3,"stim/34.jpeg",3,4,2,1,"HouseObjects",1,1,"left","right",0.845000029,0,0,1,0,12,40,1,0.3,1,"stim/34.jpeg",3,4,"stim/34.jpeg",1,"left",1.026000023,1,2,1.991999865,1,2.329999924,12,1,0,0,1,1,1
"250","stim/objects/HouseObjects/doormat.png",349,40,342,0.5,"stim/11.jpeg",1,1,1,2,"HouseObjects",1,1,"left","left",0.872999907,1,1,1,0,NA,NA,NA,NA,NA,NA,NA,NA,NA,NA,NA,NA,NA,NA,NA,NA,NA,NA,NA,NA,NA,NA,NA,NA
"284","stim/objects/HouseObjects/ironingboard.png",350,40,343,0.7,"stim/41.jpeg",4,1,2,2,"HouseObjects",1,4,"left","left",0.698999882,1,1,1,0,NA,NA,NA,NA,NA,NA,NA,NA,NA,NA,NA,NA,NA,NA,NA,NA,NA,NA,NA,NA,NA,NA,NA,NA
"400","stim/objects/HouseObjects/towel.png",351,40,344,0.3,"stim/33.jpeg",3,3,2,1,"HouseObjects",1,4,"left","left",0.586999893,1,1,1,0,184,40,1,0.3,1,"stim/33.jpeg",3,3,"stim/33.jpeg",4,"left",0.658000231,3,2,1.289000034,2,0.688999891,184,1,0,0,0,0,1
"430","stim/objects/Instruments/guitarcase.png",352,40,345,0.5,"stim/22.jpeg",2,2,1,2,"Instruments",2,2,"right","right",0.613999844,1,1,1,0,NA,NA,NA,NA,NA,NA,NA,NA,NA,NA,NA,NA,NA,NA,NA,NA,NA,NA,NA,NA,NA,NA,NA,NA
"275","stim/objects/HouseObjects/handvacuum.png",353,40,346,0.7,"stim/44.jpeg",4,4,2,2,"HouseObjects",1,2,"left","left",0.650000095,1,1,1,0,NA,NA,NA,NA,NA,NA,NA,NA,NA,NA,NA,NA,NA,NA,NA,NA,NA,NA,NA,NA,NA,NA,NA,NA
"549","stim/objects/Instruments/saxophone.png",354,40,347,0.5,"stim/12.jpeg",1,2,1,1,"Instruments",2,3,"right","right",0.500999928,1,1,1,0,30,40,1,0.5,1,"stim/12.jpeg",1,2,"stim/12.jpeg",3,"left",1.242000103,4,3,3.07799983,2,1.986000061,30,1,0,0,0,0,1
"270","stim/objects/HouseObjects/hairdryer2.png",355,40,348,0.7,"stim/44.jpeg",4,4,2,1,"HouseObjects",1,3,"left","right",0.589999914,0,0,1,0,66,40,1,0.7,1,"stim/44.jpeg",4,4,"stim/44.jpeg",3,"right",0.935000181,3,4,0.820000172,3,0.609999895,66,0,1,NA,1,NA,1
"516","stim/objects/Instruments/musicstand.png",356,40,349,0.9,"stim/51.jpeg",5,1,3,2,"Instruments",2,4,"right","right",0.539999962,1,1,1,0,NA,NA,NA,NA,NA,NA,NA,NA,NA,NA,NA,NA,NA,NA,NA,NA,NA,NA,NA,NA,NA,NA,NA,NA
"298","stim/objects/HouseObjects/knife.png",357,40,350,0.9,"stim/62.jpeg",6,2,3,2,"HouseObjects",1,4,"left","left",0.687000036,1,1,1,0,NA,NA,NA,NA,NA,NA,NA,NA,NA,NA,NA,NA,NA,NA,NA,NA,NA,NA,NA,NA,NA,NA,NA,NA
"517","stim/objects/Instruments/musicstand.png",358,40,351,0.9,"stim/54.jpeg",5,4,3,2,"Instruments",2,3,"right","right",0.49399972,1,1,1,0,NA,NA,NA,NA,NA,NA,NA,NA,NA,NA,NA,NA,NA,NA,NA,NA,NA,NA,NA,NA,NA,NA,NA,NA
"333","stim/objects/HouseObjects/match.png",359,40,352,0.9,"stim/64.jpeg",6,4,3,2,"HouseObjects",1,1,"left","left",0.43599987,1,1,1,0,NA,NA,NA,NA,NA,NA,NA,NA,NA,NA,NA,NA,NA,NA,NA,NA,NA,NA,NA,NA,NA,NA,NA,NA
"566","stim/objects/Instruments/violin2.png",360,40,353,0.1,"stim/62.jpeg",6,2,3,1,"Instruments",2,4,"right","left",0.523999929,0,0,1,0,40,40,1,0.1,2,"stim/62.jpeg",6,2,"stim/62.jpeg",4,"right",2.011000156,1,2,0.803999901,2,0.96600008,40,0,1,NA,0,NA,1
"259","stim/objects/HouseObjects/garbagebin.png",361,40,354,0.5,"stim/21.jpeg",2,1,1,2,"HouseObjects",1,4,"left","left",0.508999825,1,1,1,0,NA,NA,NA,NA,NA,NA,NA,NA,NA,NA,NA,NA,NA,NA,NA,NA,NA,NA,NA,NA,NA,NA,NA,NA
"498","stim/objects/Instruments/musicsheet.png",362,40,355,0.9,"stim/51.jpeg",5,1,3,2,"Instruments",2,4,"right","right",0.464999914,1,1,1,0,NA,NA,NA,NA,NA,NA,NA,NA,NA,NA,NA,NA,NA,NA,NA,NA,NA,NA,NA,NA,NA,NA,NA,NA
"518","stim/objects/Instruments/musicstand.png",363,40,356,0.9,"stim/51.jpeg",5,1,3,2,"Instruments",2,4,"right","right",0.410999775,1,1,1,0,NA,NA,NA,NA,NA,NA,NA,NA,NA,NA,NA,NA,NA,NA,NA,NA,NA,NA,NA,NA,NA,NA,NA,NA
"367","stim/objects/HouseObjects/pitcher.png",364,40,357,0.9,"stim/63.jpeg",6,3,3,2,"HouseObjects",1,3,"left","right",0.451999903,0,0,1,0,NA,NA,NA,NA,NA,NA,NA,NA,NA,NA,NA,NA,NA,NA,NA,NA,NA,NA,NA,NA,NA,NA,NA,NA
"464","stim/objects/Instruments/marimba.png",365,40,358,0.9,"stim/51.jpeg",5,1,3,2,"Instruments",2,3,"right","left",0.380999804,0,0,1,0,NA,NA,NA,NA,NA,NA,NA,NA,NA,NA,NA,NA,NA,NA,NA,NA,NA,NA,NA,NA,NA,NA,NA,NA
"499","stim/objects/Instruments/musicsheet.png",366,40,359,0.9,"stim/52.jpeg",5,2,3,2,"Instruments",2,4,"right","right",0.904999971,1,1,1,0,NA,NA,NA,NA,NA,NA,NA,NA,NA,NA,NA,NA,NA,NA,NA,NA,NA,NA,NA,NA,NA,NA,NA,NA
"398","stim/objects/HouseObjects/thread.png",367,40,360,0.3,"stim/32.jpeg",3,2,2,1,"HouseObjects",1,1,"left","left",0.657999992,1,1,1,0,167,40,1,0.3,1,"stim/32.jpeg",3,2,"stim/32.jpeg",1,"left",0.684000015,3,2,1.019999981,1,0.549000025,167,1,1,1,1,1,1
"452","stim/objects/Instruments/maraca.png",368,40,361,0.7,"stim/34.jpeg",3,4,2,2,"Instruments",2,2,"right","left",0.463000059,0,0,1,0,NA,NA,NA,NA,NA,NA,NA,NA,NA,NA,NA,NA,NA,NA,NA,NA,NA,NA,NA,NA,NA,NA,NA,NA
"253","stim/objects/HouseObjects/dustpan.png",369,40,362,0.5,"stim/12.jpeg",1,2,1,2,"HouseObjects",1,3,"left","right",0.375999928,0,0,1,0,NA,NA,NA,NA,NA,NA,NA,NA,NA,NA,NA,NA,NA,NA,NA,NA,NA,NA,NA,NA,NA,NA,NA,NA
"483","stim/objects/Instruments/metronome.png",370,40,363,0.9,"stim/53.jpeg",5,3,3,2,"Instruments",2,3,"right","right",0.755000114,1,1,1,0,NA,NA,NA,NA,NA,NA,NA,NA,NA,NA,NA,NA,NA,NA,NA,NA,NA,NA,NA,NA,NA,NA,NA,NA
"472","stim/objects/Instruments/marimba2.png",371,40,364,0.9,"stim/53.jpeg",5,3,3,1,"Instruments",2,1,"right","right",0.48300004,1,1,1,0,156,40,1,0.9,2,"stim/53.jpeg",5,3,"stim/53.jpeg",1,"left",0.805999994,4,4,1.875,3,1.138000011,156,1,0,0,0,0,1
"440","stim/objects/Instruments/hihat.png",372,40,365,0.7,"stim/34.jpeg",3,4,2,2,"Instruments",2,4,"right","left",0.654000044,0,0,1,0,NA,NA,NA,NA,NA,NA,NA,NA,NA,NA,NA,NA,NA,NA,NA,NA,NA,NA,NA,NA,NA,NA,NA,NA
"288","stim/objects/HouseObjects/key.png",373,40,366,0.7,"stim/43.jpeg",4,3,2,2,"HouseObjects",1,3,"left","left",0.679999828,1,1,1,0,NA,NA,NA,NA,NA,NA,NA,NA,NA,NA,NA,NA,NA,NA,NA,NA,NA,NA,NA,NA,NA,NA,NA,NA
"359","stim/objects/HouseObjects/pitcher.png",374,40,367,0.9,"stim/64.jpeg",6,4,3,2,"HouseObjects",1,3,"left","left",0.639999866,1,1,1,0,NA,NA,NA,NA,NA,NA,NA,NA,NA,NA,NA,NA,NA,NA,NA,NA,NA,NA,NA,NA,NA,NA,NA,NA
"465","stim/objects/Instruments/marimba.png",375,40,368,0.9,"stim/52.jpeg",5,2,3,2,"Instruments",2,2,"right","right",0.559999943,1,1,1,0,NA,NA,NA,NA,NA,NA,NA,NA,NA,NA,NA,NA,NA,NA,NA,NA,NA,NA,NA,NA,NA,NA,NA,NA
"490","stim/objects/Instruments/musicsheet.png",376,40,369,0.9,"stim/52.jpeg",5,2,3,2,"Instruments",2,2,"right","right",0.589999914,1,1,1,0,NA,NA,NA,NA,NA,NA,NA,NA,NA,NA,NA,NA,NA,NA,NA,NA,NA,NA,NA,NA,NA,NA,NA,NA
"292","stim/objects/HouseObjects/knife.png",377,40,370,0.9,"stim/61.jpeg",6,1,3,2,"HouseObjects",1,1,"left","left",0.510999918,1,1,1,0,NA,NA,NA,NA,NA,NA,NA,NA,NA,NA,NA,NA,NA,NA,NA,NA,NA,NA,NA,NA,NA,NA,NA,NA
"427","stim/objects/Instruments/grandpiano.png",378,40,371,0.5,"stim/21.jpeg",2,1,1,2,"Instruments",2,3,"right","right",0.602999926,1,1,1,0,NA,NA,NA,NA,NA,NA,NA,NA,NA,NA,NA,NA,NA,NA,NA,NA,NA,NA,NA,NA,NA,NA,NA,NA
"293","stim/objects/HouseObjects/knife.png",379,40,372,0.9,"stim/63.jpeg",6,3,3,2,"HouseObjects",1,4,"left","left",0.507999897,1,1,1,0,NA,NA,NA,NA,NA,NA,NA,NA,NA,NA,NA,NA,NA,NA,NA,NA,NA,NA,NA,NA,NA,NA,NA,NA
"559","stim/objects/Instruments/trombone.png",380,40,373,0.5,"stim/24.jpeg",2,4,1,1,"Instruments",2,1,"right","right",0.396999836,1,1,1,0,116,40,1,0.5,2,"stim/24.jpeg",2,4,"stim/24.jpeg",1,"right",1.458999872,4,2,1.522000074,2,1.036999941,116,0,0,NA,0,NA,1
"423","stim/objects/Instruments/frenchhorn2.png",381,40,374,0.3,"stim/42.jpeg",4,2,2,1,"Instruments",2,1,"right","left",0.585000038,0,0,1,0,43,40,1,0.3,2,"stim/42.jpeg",4,2,"stim/42.jpeg",1,"right",0.712000132,2,3,1.562000036,2,0.72300005,43,0,0,NA,0,NA,1
"241","stim/objects/HouseObjects/coffee.png",382,40,375,0.5,"stim/11.jpeg",1,1,1,2,"HouseObjects",1,2,"left","left",0.481999874,1,1,1,0,NA,NA,NA,NA,NA,NA,NA,NA,NA,NA,NA,NA,NA,NA,NA,NA,NA,NA,NA,NA,NA,NA,NA,NA
"258","stim/objects/HouseObjects/flyswatter2.png",383,40,376,0.7,"stim/44.jpeg",4,4,2,1,"HouseObjects",1,1,"left","right",0.63499999,0,0,1,0,55,40,1,0.7,1,"stim/44.jpeg",4,4,"stim/44.jpeg",1,"left",0.779000044,4,3,1.467000008,2,0.737999916,55,1,0,0,0,0,1
"360","stim/objects/HouseObjects/pitcher.png",384,40,377,0.9,"stim/64.jpeg",6,4,3,2,"HouseObjects",1,4,"left","left",0.431999922,1,1,1,0,NA,NA,NA,NA,NA,NA,NA,NA,NA,NA,NA,NA,NA,NA,NA,NA,NA,NA,NA,NA,NA,NA,NA,NA
"456","stim/objects/Instruments/marimba.png",385,40,378,0.9,"stim/51.jpeg",5,1,3,2,"Instruments",2,3,"right","right",0.553999901,1,1,1,0,NA,NA,NA,NA,NA,NA,NA,NA,NA,NA,NA,NA,NA,NA,NA,NA,NA,NA,NA,NA,NA,NA,NA,NA
"295","stim/objects/HouseObjects/knife.png",386,40,379,0.9,"stim/62.jpeg",6,2,3,2,"HouseObjects",1,1,"left","left",0.46600008,1,1,1,0,NA,NA,NA,NA,NA,NA,NA,NA,NA,NA,NA,NA,NA,NA,NA,NA,NA,NA,NA,NA,NA,NA,NA,NA
"247","stim/objects/HouseObjects/dishsoap.png",387,40,380,0.5,"stim/14.jpeg",1,4,1,2,"HouseObjects",1,1,"left","right",0.649999857,0,0,1,0,NA,NA,NA,NA,NA,NA,NA,NA,NA,NA,NA,NA,NA,NA,NA,NA,NA,NA,NA,NA,NA,NA,NA,NA
"300","stim/objects/HouseObjects/knife.png",388,40,381,0.9,"stim/61.jpeg",6,1,3,2,"HouseObjects",1,3,"left","left",0.447000027,1,1,1,0,NA,NA,NA,NA,NA,NA,NA,NA,NA,NA,NA,NA,NA,NA,NA,NA,NA,NA,NA,NA,NA,NA,NA,NA
"412","stim/objects/Instruments/electricguitar.png",389,40,382,0.5,"stim/13.jpeg",1,3,1,2,"Instruments",2,3,"right","right",0.704999924,1,1,1,0,NA,NA,NA,NA,NA,NA,NA,NA,NA,NA,NA,NA,NA,NA,NA,NA,NA,NA,NA,NA,NA,NA,NA,NA
"563","stim/objects/Instruments/tuba.png",390,40,383,0.7,"stim/33.jpeg",3,3,2,1,"Instruments",2,4,"right","left",0.850999832,0,0,1,0,77,40,1,0.7,2,"stim/33.jpeg",3,3,"stim/33.jpeg",4,"left",2.0849998,4,2,2.088999987,1,0.769999981,77,1,0,0,0,0,1
"251","stim/objects/HouseObjects/doormat.png",391,40,384,0.5,"stim/14.jpeg",1,4,1,2,"HouseObjects",1,4,"left","left",0.838000059,1,1,1,0,NA,NA,NA,NA,NA,NA,NA,NA,NA,NA,NA,NA,NA,NA,NA,NA,NA,NA,NA,NA,NA,NA,NA,NA
"467","stim/objects/Instruments/marimba.png",392,40,385,0.9,"stim/54.jpeg",5,4,3,2,"Instruments",2,3,"right","right",0.638000011,1,1,1,0,NA,NA,NA,NA,NA,NA,NA,NA,NA,NA,NA,NA,NA,NA,NA,NA,NA,NA,NA,NA,NA,NA,NA,NA
"392","stim/objects/HouseObjects/spraybottle.png",393,40,386,0.5,"stim/24.jpeg",2,4,1,1,"HouseObjects",1,3,"left","left",0.679999828,1,1,1,0,176,40,1,0.5,2,"stim/24.jpeg",2,4,"stim/24.jpeg",3,"right",0.589999914,2,2,0.565000057,4,0.576999903,176,0,0,NA,0,NA,1
"451","stim/objects/Instruments/laud2.png",394,40,387,0.3,"stim/42.jpeg",4,2,2,1,"Instruments",2,3,"right","right",0.519999981,1,1,1,0,172,40,1,0.3,2,"stim/42.jpeg",4,2,"stim/42.jpeg",3,"right",0.84800005,1,1,0.704999924,1,0.730000019,172,0,0,NA,0,NA,1
"334","stim/objects/HouseObjects/match.png",395,40,388,0.9,"stim/64.jpeg",6,4,3,2,"HouseObjects",1,4,"left","left",0.453999996,1,1,1,0,NA,NA,NA,NA,NA,NA,NA,NA,NA,NA,NA,NA,NA,NA,NA,NA,NA,NA,NA,NA,NA,NA,NA,NA
"444","stim/objects/Instruments/keyboard.png",396,40,389,0.7,"stim/31.jpeg",3,1,2,2,"Instruments",2,3,"right","right",0.638000011,1,1,1,0,NA,NA,NA,NA,NA,NA,NA,NA,NA,NA,NA,NA,NA,NA,NA,NA,NA,NA,NA,NA,NA,NA,NA,NA
"484","stim/objects/Instruments/metronome.png",397,40,390,0.9,"stim/54.jpeg",5,4,3,2,"Instruments",2,1,"right","right",0.710999966,1,1,1,0,NA,NA,NA,NA,NA,NA,NA,NA,NA,NA,NA,NA,NA,NA,NA,NA,NA,NA,NA,NA,NA,NA,NA,NA
"243","stim/objects/HouseObjects/coffee2.png",398,40,391,0.3,"stim/32.jpeg",3,2,2,1,"HouseObjects",1,2,"left","left",0.523000002,1,1,1,0,2,40,1,0.3,1,"stim/32.jpeg",3,2,"stim/32.jpeg",2,"left",1.607000113,1,2,6.379999876,3,0.01699996,2,1,1,1,0,0,1
"544","stim/objects/Instruments/pipepiano2.png",399,40,392,0.9,"stim/51.jpeg",5,1,3,1,"Instruments",2,1,"right","right",0.429999828,1,1,1,0,95,40,1,0.9,2,"stim/51.jpeg",5,1,"stim/51.jpeg",1,"left",0.775000095,4,2,2.245000124,1,0.817000151,95,1,0,0,1,1,1
"432","stim/objects/Instruments/guitarcase2.png",400,40,393,0.3,"stim/41.jpeg",4,1,2,1,"Instruments",2,4,"right","left",0.555999994,0,0,1,0,162,40,1,0.3,2,"stim/41.jpeg",4,1,"stim/41.jpeg",4,"left",0.715000153,4,4,1.253000021,4,0.842000008,162,1,0,0,1,1,1
"244","stim/objects/HouseObjects/cushion.png",401,40,394,0.5,"stim/13.jpeg",1,3,1,2,"HouseObjects",1,3,"left","left",0.618000031,1,1,1,0,NA,NA,NA,NA,NA,NA,NA,NA,NA,NA,NA,NA,NA,NA,NA,NA,NA,NA,NA,NA,NA,NA,NA,NA
"453","stim/objects/Instruments/maraca.png",402,40,395,0.7,"stim/31.jpeg",3,1,2,2,"Instruments",2,1,"right","right",0.61500001,1,1,1,0,NA,NA,NA,NA,NA,NA,NA,NA,NA,NA,NA,NA,NA,NA,NA,NA,NA,NA,NA,NA,NA,NA,NA,NA
"349","stim/objects/HouseObjects/pan.png",403,40,396,0.9,"stim/61.jpeg",6,1,3,2,"HouseObjects",1,1,"left","right",0.805999994,0,0,1,0,NA,NA,NA,NA,NA,NA,NA,NA,NA,NA,NA,NA,NA,NA,NA,NA,NA,NA,NA,NA,NA,NA,NA,NA
"570","stim/objects/Instruments/xylophone2.png",404,40,397,0.1,"stim/64.jpeg",6,4,3,1,"Instruments",2,4,"right","left",0.513999939,0,0,1,0,153,40,1,0.1,2,"stim/64.jpeg",6,4,"stim/64.jpeg",4,"right",0.93200016,4,4,0.798000097,2,0.683000088,153,0,1,NA,0,NA,1
"543","stim/objects/Instruments/pipepiano.png",405,40,398,0.5,"stim/13.jpeg",1,3,1,1,"Instruments",2,2,"right","right",0.888999939,1,1,1,0,4,40,1,0.5,1,"stim/13.jpeg",1,3,"stim/13.jpeg",2,"left",2.010999918,1,3,3.323000193,1,2.230000019,4,1,1,1,0,0,1
"302","stim/objects/HouseObjects/knife.png",406,40,399,0.9,"stim/62.jpeg",6,2,3,2,"HouseObjects",1,3,"left","left",0.562999964,1,1,1,0,NA,NA,NA,NA,NA,NA,NA,NA,NA,NA,NA,NA,NA,NA,NA,NA,NA,NA,NA,NA,NA,NA,NA,NA
"489","stim/objects/Instruments/metronome2.png",407,40,400,0.9,"stim/54.jpeg",5,4,3,1,"Instruments",2,3,"right","right",0.447999954,1,1,1,0,82,40,1,0.9,2,"stim/54.jpeg",5,4,"stim/54.jpeg",3,"left",1.022000074,4,2,2.025000095,3,2.065999985,82,1,0,0,1,1,1
"391","stim/objects/HouseObjects/sponge2.png",408,40,401,0.9,"stim/63.jpeg",6,3,3,1,"HouseObjects",1,4,"left","left",0.538000107,1,1,1,0,125,40,1,0.9,1,"stim/63.jpeg",6,3,"stim/63.jpeg",4,"left",0.620000124,4,3,1.236999989,2,1.076999903,125,1,1,1,0,0,1
"327","stim/objects/HouseObjects/match.png",409,40,402,0.9,"stim/64.jpeg",6,4,3,2,"HouseObjects",1,3,"left","left",0.605999947,1,1,1,0,NA,NA,NA,NA,NA,NA,NA,NA,NA,NA,NA,NA,NA,NA,NA,NA,NA,NA,NA,NA,NA,NA,NA,NA
"383","stim/objects/HouseObjects/rug2.png",410,40,403,0.1,"stim/51.jpeg",5,1,3,1,"HouseObjects",1,2,"left","right",0.634000063,0,0,1,0,69,40,1,0.1,1,"stim/51.jpeg",5,1,"stim/51.jpeg",2,"left",1.631999969,4,3,1.404999971,1,1.580999851,69,1,0,0,0,0,1
"458","stim/objects/Instruments/marimba.png",411,40,404,0.9,"stim/54.jpeg",5,4,3,2,"Instruments",2,4,"right","right",0.66899991,1,1,1,0,NA,NA,NA,NA,NA,NA,NA,NA,NA,NA,NA,NA,NA,NA,NA,NA,NA,NA,NA,NA,NA,NA,NA,NA
"290","stim/objects/HouseObjects/key2.png",412,40,405,0.7,"stim/41.jpeg",4,1,2,1,"HouseObjects",1,1,"left","left",0.513999939,1,1,1,0,123,40,1,0.7,1,"stim/41.jpeg",4,1,"stim/41.jpeg",1,"left",1.066999912,4,1,1.725000143,2,0.792999983,123,1,1,1,0,0,1
"301","stim/objects/HouseObjects/knife.png",413,40,406,0.9,"stim/61.jpeg",6,1,3,2,"HouseObjects",1,2,"left","",NA,0,0,1,0,NA,NA,NA,NA,NA,NA,NA,NA,NA,NA,NA,NA,NA,NA,NA,NA,NA,NA,NA,NA,NA,NA,NA,NA
"502","stim/objects/Instruments/musicsheet.png",414,40,407,0.9,"stim/54.jpeg",5,4,3,2,"Instruments",2,2,"right","right",0.572999954,1,1,1,0,NA,NA,NA,NA,NA,NA,NA,NA,NA,NA,NA,NA,NA,NA,NA,NA,NA,NA,NA,NA,NA,NA,NA,NA
"351","stim/objects/HouseObjects/pan.png",415,40,408,0.9,"stim/61.jpeg",6,1,3,2,"HouseObjects",1,1,"left","left",0.635999918,1,1,1,0,NA,NA,NA,NA,NA,NA,NA,NA,NA,NA,NA,NA,NA,NA,NA,NA,NA,NA,NA,NA,NA,NA,NA,NA
"519","stim/objects/Instruments/musicstand.png",416,40,409,0.9,"stim/53.jpeg",5,3,3,2,"Instruments",2,4,"right","right",0.53399992,1,1,1,0,NA,NA,NA,NA,NA,NA,NA,NA,NA,NA,NA,NA,NA,NA,NA,NA,NA,NA,NA,NA,NA,NA,NA,NA
"454","stim/objects/Instruments/maraca.png",417,40,410,0.7,"stim/33.jpeg",3,3,2,2,"Instruments",2,4,"right","left",0.542999983,0,0,1,0,NA,NA,NA,NA,NA,NA,NA,NA,NA,NA,NA,NA,NA,NA,NA,NA,NA,NA,NA,NA,NA,NA,NA,NA
"469","stim/objects/Instruments/marimba.png",418,40,411,0.9,"stim/52.jpeg",5,2,3,2,"Instruments",2,3,"right","left",0.730000019,0,0,1,0,NA,NA,NA,NA,NA,NA,NA,NA,NA,NA,NA,NA,NA,NA,NA,NA,NA,NA,NA,NA,NA,NA,NA,NA
"494","stim/objects/Instruments/musicsheet.png",419,40,412,0.9,"stim/52.jpeg",5,2,3,2,"Instruments",2,4,"right","right",0.405999899,1,1,1,0,NA,NA,NA,NA,NA,NA,NA,NA,NA,NA,NA,NA,NA,NA,NA,NA,NA,NA,NA,NA,NA,NA,NA,NA
"523","stim/objects/Instruments/musicstand2.png",420,40,413,0.9,"stim/52.jpeg",5,2,3,1,"Instruments",2,4,"right","right",0.449999809,1,1,1,0,15,40,1,0.9,2,"stim/52.jpeg",5,2,"stim/52.jpeg",4,"left",0.825000048,4,1,2.268999815,1,1.712999821,15,1,0,0,0,0,1
"353","stim/objects/HouseObjects/pan.png",421,40,414,0.9,"stim/62.jpeg",6,2,3,2,"HouseObjects",1,4,"left","left",0.479999781,1,1,1,0,NA,NA,NA,NA,NA,NA,NA,NA,NA,NA,NA,NA,NA,NA,NA,NA,NA,NA,NA,NA,NA,NA,NA,NA
"477","stim/objects/Instruments/metronome.png",422,40,415,0.9,"stim/54.jpeg",5,4,3,2,"Instruments",2,1,"right","right",0.434000015,1,1,1,0,NA,NA,NA,NA,NA,NA,NA,NA,NA,NA,NA,NA,NA,NA,NA,NA,NA,NA,NA,NA,NA,NA,NA,NA
"409","stim/objects/Instruments/electricdrumset.png",423,40,416,0.5,"stim/11.jpeg",1,1,1,2,"Instruments",2,1,"right","right",0.507999897,1,1,1,0,NA,NA,NA,NA,NA,NA,NA,NA,NA,NA,NA,NA,NA,NA,NA,NA,NA,NA,NA,NA,NA,NA,NA,NA
"337","stim/objects/HouseObjects/match.png",424,40,417,0.9,"stim/62.jpeg",6,2,3,2,"HouseObjects",1,3,"left","left",0.586999893,1,1,1,0,NA,NA,NA,NA,NA,NA,NA,NA,NA,NA,NA,NA,NA,NA,NA,NA,NA,NA,NA,NA,NA,NA,NA,NA
"426","stim/objects/Instruments/gong2.png",425,40,418,0.3,"stim/43.jpeg",4,3,2,1,"Instruments",2,4,"right","left",0.717000008,0,0,1,0,58,40,1,0.3,2,"stim/43.jpeg",4,3,"stim/43.jpeg",4,"right",0.877000093,3,1,1.463000059,3,1.098999977,58,0,0,NA,0,NA,1
"378","stim/objects/HouseObjects/remote.png",426,40,419,0.5,"stim/14.jpeg",1,4,1,1,"HouseObjects",1,1,"left","right",0.476999998,0,0,1,0,104,40,1,0.5,1,"stim/14.jpeg",1,4,"stim/14.jpeg",1,"left",0.830000162,4,1,1.4599998,2,0.608999968,104,1,0,0,0,0,1
"546","stim/objects/Instruments/record_player2.png",427,40,420,0.9,"stim/53.jpeg",5,3,3,1,"Instruments",2,2,"right","right",0.513000011,1,1,1,0,36,40,1,0.9,2,"stim/53.jpeg",5,3,"stim/53.jpeg",2,"left",1.906999826,3,2,1.674999952,2,1.625999928,36,1,0,0,1,1,1
"551","stim/objects/Instruments/speaker.png",428,40,421,0.5,"stim/24.jpeg",2,4,1,1,"Instruments",2,1,"right","left",0.553999901,0,0,1,0,119,40,1,0.5,2,"stim/24.jpeg",2,4,"stim/24.jpeg",1,"left",1.182999849,4,2,3.415999889,2,1.233999968,119,1,0,0,0,0,1
"369","stim/objects/HouseObjects/pitcher.png",429,40,422,0.9,"stim/61.jpeg",6,1,3,2,"HouseObjects",1,3,"left","right",0.43900013,0,0,1,0,NA,NA,NA,NA,NA,NA,NA,NA,NA,NA,NA,NA,NA,NA,NA,NA,NA,NA,NA,NA,NA,NA,NA,NA
"562","stim/objects/Instruments/trumpet2.png",430,40,423,0.1,"stim/64.jpeg",6,4,3,1,"Instruments",2,4,"right","left",0.591999769,0,0,1,0,165,40,1,0.1,2,"stim/64.jpeg",6,4,"stim/64.jpeg",4,"left",0.79399991,3,3,0.924999952,2,1.825999975,165,1,0,0,0,0,1
"485","stim/objects/Instruments/metronome.png",431,40,424,0.9,"stim/54.jpeg",5,4,3,2,"Instruments",2,1,"right","right",0.410999775,1,1,1,0,NA,NA,NA,NA,NA,NA,NA,NA,NA,NA,NA,NA,NA,NA,NA,NA,NA,NA,NA,NA,NA,NA,NA,NA
"304","stim/objects/HouseObjects/knife.png",432,40,425,0.9,"stim/64.jpeg",6,4,3,2,"HouseObjects",1,2,"left","left",0.414000034,1,1,1,0,NA,NA,NA,NA,NA,NA,NA,NA,NA,NA,NA,NA,NA,NA,NA,NA,NA,NA,NA,NA,NA,NA,NA,NA
"385","stim/objects/HouseObjects/safetypin2.png",433,40,426,0.1,"stim/52.jpeg",5,2,3,1,"HouseObjects",1,4,"left","left",0.522999763,1,1,1,0,136,40,1,0.1,1,"stim/52.jpeg",5,2,"stim/52.jpeg",4,"left",1.835999966,4,1,1.618999958,1,0.74000001,136,1,0,0,0,0,1
"545","stim/objects/Instruments/record_player.png",434,40,427,0.5,"stim/11.jpeg",1,1,1,1,"Instruments",2,3,"right","right",0.649999857,1,1,1,0,28,40,1,0.5,1,"stim/11.jpeg",1,1,"stim/11.jpeg",3,"left",3.04399991,2,3,1.877000093,2,0.950999975,28,1,0,0,0,0,1
"321","stim/objects/HouseObjects/lintroller.png",435,40,428,0.9,"stim/62.jpeg",6,2,3,2,"HouseObjects",1,3,"left","left",0.487999916,1,1,1,0,NA,NA,NA,NA,NA,NA,NA,NA,NA,NA,NA,NA,NA,NA,NA,NA,NA,NA,NA,NA,NA,NA,NA,NA
"245","stim/objects/HouseObjects/cushion.png",436,40,429,0.5,"stim/12.jpeg",1,2,1,2,"HouseObjects",1,4,"left","right",0.67599988,0,0,1,0,NA,NA,NA,NA,NA,NA,NA,NA,NA,NA,NA,NA,NA,NA,NA,NA,NA,NA,NA,NA,NA,NA,NA,NA
"530","stim/objects/Instruments/oboe.png",437,40,430,0.9,"stim/54.jpeg",5,4,3,2,"Instruments",2,1,"right","right",0.529000044,1,1,1,0,NA,NA,NA,NA,NA,NA,NA,NA,NA,NA,NA,NA,NA,NA,NA,NA,NA,NA,NA,NA,NA,NA,NA,NA
"305","stim/objects/HouseObjects/knife.png",438,40,431,0.9,"stim/61.jpeg",6,1,3,2,"HouseObjects",1,2,"left","left",0.477999926,1,1,1,0,NA,NA,NA,NA,NA,NA,NA,NA,NA,NA,NA,NA,NA,NA,NA,NA,NA,NA,NA,NA,NA,NA,NA,NA
"368","stim/objects/HouseObjects/pitcher.png",439,40,432,0.9,"stim/62.jpeg",6,2,3,2,"HouseObjects",1,4,"left","left",0.487999916,1,1,1,0,NA,NA,NA,NA,NA,NA,NA,NA,NA,NA,NA,NA,NA,NA,NA,NA,NA,NA,NA,NA,NA,NA,NA,NA
"393","stim/objects/HouseObjects/spraybottle2.png",440,40,433,0.9,"stim/64.jpeg",6,4,3,1,"HouseObjects",1,4,"left","left",0.5,1,1,1,0,120,40,1,0.9,1,"stim/64.jpeg",6,4,"stim/64.jpeg",4,"right",0.573999882,4,4,1.828000069,2,0.718000174,120,0,1,NA,0,NA,1
"335","stim/objects/HouseObjects/match.png",441,40,434,0.9,"stim/63.jpeg",6,3,3,2,"HouseObjects",1,2,"left","right",0.593999863,0,0,1,0,NA,NA,NA,NA,NA,NA,NA,NA,NA,NA,NA,NA,NA,NA,NA,NA,NA,NA,NA,NA,NA,NA,NA,NA
"564","stim/objects/Instruments/tuba2.png",442,40,435,0.1,"stim/61.jpeg",6,1,3,1,"Instruments",2,2,"right","left",0.558000088,0,0,1,0,98,40,1,0.1,2,"stim/61.jpeg",6,1,"stim/61.jpeg",2,"left",1.377000093,4,4,3.446999788,2,0.789000034,98,1,0,0,1,1,1
"554","stim/objects/Instruments/tambourine2.png",443,40,436,0.1,"stim/64.jpeg",6,4,3,1,"Instruments",2,4,"right","left",0.440999985,0,0,1,0,9,40,1,0.1,2,"stim/64.jpeg",6,4,"stim/64.jpeg",4,"left",1.660000086,1,4,4.338000059,2,1.486999989,9,1,1,1,0,0,1
"322","stim/objects/HouseObjects/lintroller.png",444,40,437,0.9,"stim/61.jpeg",6,1,3,2,"HouseObjects",1,4,"left","left",0.595999956,1,1,1,0,NA,NA,NA,NA,NA,NA,NA,NA,NA,NA,NA,NA,NA,NA,NA,NA,NA,NA,NA,NA,NA,NA,NA,NA
"486","stim/objects/Instruments/metronome.png",445,40,438,0.9,"stim/54.jpeg",5,4,3,2,"Instruments",2,2,"right","right",0.497999907,1,1,1,0,NA,NA,NA,NA,NA,NA,NA,NA,NA,NA,NA,NA,NA,NA,NA,NA,NA,NA,NA,NA,NA,NA,NA,NA
"431","stim/objects/Instruments/guitarcase.png",446,40,439,0.5,"stim/21.jpeg",2,1,1,2,"Instruments",2,1,"right","left",0.691999912,0,0,1,0,NA,NA,NA,NA,NA,NA,NA,NA,NA,NA,NA,NA,NA,NA,NA,NA,NA,NA,NA,NA,NA,NA,NA,NA
"309","stim/objects/HouseObjects/lintroller.png",447,40,440,0.9,"stim/63.jpeg",6,3,3,2,"HouseObjects",1,1,"left","left",0.684999943,1,1,1,0,NA,NA,NA,NA,NA,NA,NA,NA,NA,NA,NA,NA,NA,NA,NA,NA,NA,NA,NA,NA,NA,NA,NA,NA
"410","stim/objects/Instruments/electricdrumset.png",448,40,441,0.5,"stim/12.jpeg",1,2,1,2,"Instruments",2,1,"right","right",0.548999786,1,1,1,0,NA,NA,NA,NA,NA,NA,NA,NA,NA,NA,NA,NA,NA,NA,NA,NA,NA,NA,NA,NA,NA,NA,NA,NA
"533","stim/objects/Instruments/oboe.png",449,40,442,0.9,"stim/52.jpeg",5,2,3,2,"Instruments",2,1,"right","right",0.729999781,1,1,1,0,NA,NA,NA,NA,NA,NA,NA,NA,NA,NA,NA,NA,NA,NA,NA,NA,NA,NA,NA,NA,NA,NA,NA,NA
"402","stim/objects/HouseObjects/vacuumcleaner.png",450,40,443,0.3,"stim/34.jpeg",3,4,2,1,"HouseObjects",1,3,"left","left",0.758999825,1,1,1,0,143,40,1,0.3,1,"stim/34.jpeg",3,4,"stim/34.jpeg",3,"right",0.836999893,4,1,0.938999891,1,1.187999964,143,0,0,NA,0,NA,1
"506","stim/objects/Instruments/musicsheet2.png",451,40,444,0.9,"stim/51.jpeg",5,1,3,1,"Instruments",2,3,"right","right",0.536000013,1,1,1,0,122,40,1,0.9,2,"stim/51.jpeg",5,1,"stim/51.jpeg",3,"left",0.912999868,4,4,1.68900013,2,1.899000168,122,1,0,0,0,0,1
"277","stim/objects/HouseObjects/handvacuum.png",452,40,445,0.7,"stim/42.jpeg",4,2,2,2,"HouseObjects",1,1,"left","left",0.536999941,1,1,1,0,NA,NA,NA,NA,NA,NA,NA,NA,NA,NA,NA,NA,NA,NA,NA,NA,NA,NA,NA,NA,NA,NA,NA,NA
"470","stim/objects/Instruments/marimba.png",453,40,446,0.9,"stim/53.jpeg",5,3,3,2,"Instruments",2,1,"right","right",0.588999987,1,1,1,0,NA,NA,NA,NA,NA,NA,NA,NA,NA,NA,NA,NA,NA,NA,NA,NA,NA,NA,NA,NA,NA,NA,NA,NA
"289","stim/objects/HouseObjects/key.png",454,40,447,0.7,"stim/42.jpeg",4,2,2,2,"HouseObjects",1,1,"left","left",0.600000143,1,1,1,0,NA,NA,NA,NA,NA,NA,NA,NA,NA,NA,NA,NA,NA,NA,NA,NA,NA,NA,NA,NA,NA,NA,NA,NA
"450","stim/objects/Instruments/laud.png",455,40,448,0.7,"stim/34.jpeg",3,4,2,2,"Instruments",2,3,"right","right",0.640999794,1,1,1,0,NA,NA,NA,NA,NA,NA,NA,NA,NA,NA,NA,NA,NA,NA,NA,NA,NA,NA,NA,NA,NA,NA,NA,NA
"417","stim/objects/Instruments/flute2.png",456,40,449,0.7,"stim/32.jpeg",3,2,2,1,"Instruments",2,2,"right","left",0.739000082,0,0,1,0,74,40,1,0.7,2,"stim/32.jpeg",3,2,"stim/32.jpeg",2,"right",0.749000072,4,1,1.298000097,1,1.135999918,74,0,0,NA,0,NA,1
"406","stim/objects/Instruments/drums.png",457,40,450,0.5,"stim/11.jpeg",1,1,1,2,"Instruments",2,3,"right","right",0.539000034,1,1,1,0,NA,NA,NA,NA,NA,NA,NA,NA,NA,NA,NA,NA,NA,NA,NA,NA,NA,NA,NA,NA,NA,NA,NA,NA
"382","stim/objects/HouseObjects/rug.png",458,40,451,0.5,"stim/12.jpeg",1,2,1,1,"HouseObjects",1,2,"left","left",0.811999798,1,1,1,0,41,40,1,0.5,1,"stim/12.jpeg",1,2,"stim/12.jpeg",2,"right",1.073000193,1,1,1.855999947,2,1.121999979,41,0,0,NA,1,NA,1
"437","stim/objects/Instruments/harp.png",459,40,452,0.7,"stim/33.jpeg",3,3,2,2,"Instruments",2,2,"right","left",0.494999886,0,0,1,0,NA,NA,NA,NA,NA,NA,NA,NA,NA,NA,NA,NA,NA,NA,NA,NA,NA,NA,NA,NA,NA,NA,NA,NA
"416","stim/objects/Instruments/flute.png",460,40,453,0.5,"stim/14.jpeg",1,4,1,2,"Instruments",2,3,"right","right",0.63499999,1,1,1,0,NA,NA,NA,NA,NA,NA,NA,NA,NA,NA,NA,NA,NA,NA,NA,NA,NA,NA,NA,NA,NA,NA,NA,NA
"487","stim/objects/Instruments/metronome.png",461,40,454,0.9,"stim/53.jpeg",5,3,3,2,"Instruments",2,2,"right","left",0.424999952,0,0,1,0,NA,NA,NA,NA,NA,NA,NA,NA,NA,NA,NA,NA,NA,NA,NA,NA,NA,NA,NA,NA,NA,NA,NA,NA
"441","stim/objects/Instruments/hihat.png",462,40,455,0.7,"stim/31.jpeg",3,1,2,2,"Instruments",2,4,"right","right",0.691999912,1,1,1,0,NA,NA,NA,NA,NA,NA,NA,NA,NA,NA,NA,NA,NA,NA,NA,NA,NA,NA,NA,NA,NA,NA,NA,NA
"481","stim/objects/Instruments/metronome.png",463,40,456,0.9,"stim/53.jpeg",5,3,3,2,"Instruments",2,1,"right","right",0.47699976,1,1,1,0,NA,NA,NA,NA,NA,NA,NA,NA,NA,NA,NA,NA,NA,NA,NA,NA,NA,NA,NA,NA,NA,NA,NA,NA
"345","stim/objects/HouseObjects/pan.png",464,40,457,0.9,"stim/62.jpeg",6,2,3,2,"HouseObjects",1,4,"left","left",0.624999762,1,1,1,0,NA,NA,NA,NA,NA,NA,NA,NA,NA,NA,NA,NA,NA,NA,NA,NA,NA,NA,NA,NA,NA,NA,NA,NA
"331","stim/objects/HouseObjects/match.png",465,40,458,0.9,"stim/61.jpeg",6,1,3,2,"HouseObjects",1,1,"left","left",0.495999813,1,1,1,0,NA,NA,NA,NA,NA,NA,NA,NA,NA,NA,NA,NA,NA,NA,NA,NA,NA,NA,NA,NA,NA,NA,NA,NA
"556","stim/objects/Instruments/timbal2.png",466,40,459,0.1,"stim/61.jpeg",6,1,3,1,"Instruments",2,2,"right","left",0.445999861,0,0,1,0,138,40,1,0.1,2,"stim/61.jpeg",6,1,"stim/61.jpeg",2,"left",0.786000013,4,4,1.085000038,2,0.763000011,138,1,0,0,1,1,1
