"","obj_file","X.x","participant.x","trialN.x","trial_cond","scn_file.x","scn_cat","scn_inst","scn_condition","fillers","obj_cat","obj_cat_num","quadrant","corr_ans","key_resp_trial.keys","key_resp_trial.rt","trial_acc","trial_acc_manual","group.x","practice","X.y","participant.y","OvsN","PE_level","object_cat","scn_file.y","corr_scn_cat","corr_scn_inst","scn_file.1","corr_loc","key_resp_id.keys","key_resp_id.rt","key_resp_conf.keys","key_resp_assoc.keys","key_resp_assoc.rt","key_resp_loc.keys","key_resp_loc.rt","trialN.y","id_acc","assoc.acc","cond_assoc","loc.acc","cond_loc","group.y"
"25","stim/objects/HouseObjects/barbecuelighter.png",1,75,1,0.5,"stim/13.jpeg",1,3,1,NA,"HouseObjects",1,4,"left","",NA,0,0,0,1,NA,NA,NA,NA,NA,NA,NA,NA,NA,NA,NA,NA,NA,NA,NA,NA,NA,NA,NA,NA,NA,NA,NA,NA
"30","stim/objects/HouseObjects/barbecuelighter2.png",2,75,2,0.7,"stim/43.jpeg",4,3,2,NA,"HouseObjects",1,4,"left","right",0.771999836,0,0,0,1,NA,NA,NA,NA,NA,NA,NA,NA,NA,NA,NA,NA,NA,NA,NA,NA,NA,NA,NA,NA,NA,NA,NA,NA
"55","stim/objects/HouseObjects/blender.png",3,75,3,0.5,"stim/22.jpeg",2,2,1,NA,"HouseObjects",1,4,"left","left",0.73300004,1,1,0,1,NA,NA,NA,NA,NA,NA,NA,NA,NA,NA,NA,NA,NA,NA,NA,NA,NA,NA,NA,NA,NA,NA,NA,NA
"60","stim/objects/HouseObjects/blender2.png",4,75,4,0.1,"stim/52.jpeg",5,2,3,NA,"HouseObjects",1,3,"left","",NA,0,0,0,1,NA,NA,NA,NA,NA,NA,NA,NA,NA,NA,NA,NA,NA,NA,NA,NA,NA,NA,NA,NA,NA,NA,NA,NA
"216","stim/objects/Instruments/clarinet2.png",5,75,5,0.1,"stim/61.jpeg",6,1,3,NA,"Instruments",2,4,"right","",NA,0,0,0,1,NA,NA,NA,NA,NA,NA,NA,NA,NA,NA,NA,NA,NA,NA,NA,NA,NA,NA,NA,NA,NA,NA,NA,NA
"100","stim/objects/HouseObjects/clothesdryingrack2.png",6,75,6,0.9,"stim/63.jpeg",6,3,3,NA,"HouseObjects",1,3,"left","left",0.711999893,1,1,0,1,NA,NA,NA,NA,NA,NA,NA,NA,NA,NA,NA,NA,NA,NA,NA,NA,NA,NA,NA,NA,NA,NA,NA,NA
"233","stim/objects/Instruments/doublebass.png",7,75,7,0.7,"stim/34.jpeg",3,4,2,NA,"Instruments",2,3,"right","",NA,0,0,0,1,NA,NA,NA,NA,NA,NA,NA,NA,NA,NA,NA,NA,NA,NA,NA,NA,NA,NA,NA,NA,NA,NA,NA,NA
"1","stim/objects/HouseObjects/ashtray.png",8,75,8,0.5,"stim/11.jpeg",1,1,1,NA,"HouseObjects",1,2,"left","",NA,0,0,0,1,NA,NA,NA,NA,NA,NA,NA,NA,NA,NA,NA,NA,NA,NA,NA,NA,NA,NA,NA,NA,NA,NA,NA,NA
"217","stim/objects/Instruments/cornet.png",9,75,9,0.7,"stim/32.jpeg",3,2,2,NA,"Instruments",2,1,"right","left",0.648000002,0,0,0,1,NA,NA,NA,NA,NA,NA,NA,NA,NA,NA,NA,NA,NA,NA,NA,NA,NA,NA,NA,NA,NA,NA,NA,NA
"88","stim/objects/HouseObjects/clock2.png",10,75,10,0.9,"stim/62.jpeg",6,2,3,NA,"HouseObjects",1,3,"left","left",0.66899991,1,1,0,1,NA,NA,NA,NA,NA,NA,NA,NA,NA,NA,NA,NA,NA,NA,NA,NA,NA,NA,NA,NA,NA,NA,NA,NA
"121","stim/objects/Instruments/accordion.png",11,75,11,0.5,"stim/11.jpeg",1,1,1,NA,"Instruments",2,2,"right","left",0.747999907,0,0,0,1,NA,NA,NA,NA,NA,NA,NA,NA,NA,NA,NA,NA,NA,NA,NA,NA,NA,NA,NA,NA,NA,NA,NA,NA
"56","stim/objects/HouseObjects/blender.png",12,75,12,0.5,"stim/22.jpeg",2,2,1,NA,"HouseObjects",1,3,"left","left",0.756999969,1,1,0,1,NA,NA,NA,NA,NA,NA,NA,NA,NA,NA,NA,NA,NA,NA,NA,NA,NA,NA,NA,NA,NA,NA,NA,NA
"18","stim/objects/HouseObjects/ballofstring2.png",13,75,13,0.7,"stim/42.jpeg",4,2,2,NA,"HouseObjects",1,4,"left","",NA,0,0,0,1,NA,NA,NA,NA,NA,NA,NA,NA,NA,NA,NA,NA,NA,NA,NA,NA,NA,NA,NA,NA,NA,NA,NA,NA
"42","stim/objects/HouseObjects/basket2.png",14,75,14,0.7,"stim/44.jpeg",4,4,2,NA,"HouseObjects",1,1,"left","",NA,0,0,0,1,NA,NA,NA,NA,NA,NA,NA,NA,NA,NA,NA,NA,NA,NA,NA,NA,NA,NA,NA,NA,NA,NA,NA,NA
"26","stim/objects/HouseObjects/barbecuelighter.png",15,75,15,0.5,"stim/13.jpeg",1,3,1,NA,"HouseObjects",1,3,"left","left",0.770999908,1,1,0,1,NA,NA,NA,NA,NA,NA,NA,NA,NA,NA,NA,NA,NA,NA,NA,NA,NA,NA,NA,NA,NA,NA,NA,NA
"19","stim/objects/HouseObjects/ballofstring2.png",16,75,16,0.7,"stim/42.jpeg",4,2,2,NA,"HouseObjects",1,2,"left","",NA,0,0,0,1,NA,NA,NA,NA,NA,NA,NA,NA,NA,NA,NA,NA,NA,NA,NA,NA,NA,NA,NA,NA,NA,NA,NA,NA
"101","stim/objects/HouseObjects/clothesdryingrack2.png",17,75,17,0.9,"stim/63.jpeg",6,3,3,NA,"HouseObjects",1,2,"left","left",0.598999977,1,1,0,1,NA,NA,NA,NA,NA,NA,NA,NA,NA,NA,NA,NA,NA,NA,NA,NA,NA,NA,NA,NA,NA,NA,NA,NA
"186","stim/objects/Instruments/cello2.png",18,75,18,0.9,"stim/53.jpeg",5,3,3,NA,"Instruments",2,1,"right","right",0.736999989,1,1,0,1,NA,NA,NA,NA,NA,NA,NA,NA,NA,NA,NA,NA,NA,NA,NA,NA,NA,NA,NA,NA,NA,NA,NA,NA
"129","stim/objects/Instruments/acousticguitar.png",19,75,19,0.5,"stim/12.jpeg",1,2,1,NA,"Instruments",2,3,"right","",NA,0,0,0,1,NA,NA,NA,NA,NA,NA,NA,NA,NA,NA,NA,NA,NA,NA,NA,NA,NA,NA,NA,NA,NA,NA,NA,NA
"102","stim/objects/HouseObjects/clothesdryingrack2.png",20,75,20,0.9,"stim/63.jpeg",6,3,3,NA,"HouseObjects",1,4,"left","left",0.564999819,1,1,0,1,NA,NA,NA,NA,NA,NA,NA,NA,NA,NA,NA,NA,NA,NA,NA,NA,NA,NA,NA,NA,NA,NA,NA,NA
"137","stim/objects/Instruments/balalaika.png",21,75,21,0.5,"stim/13.jpeg",1,3,1,NA,"Instruments",2,4,"right","left",0.774999857,0,0,0,1,NA,NA,NA,NA,NA,NA,NA,NA,NA,NA,NA,NA,NA,NA,NA,NA,NA,NA,NA,NA,NA,NA,NA,NA
"67","stim/objects/HouseObjects/broom.png",22,75,22,0.5,"stim/24.jpeg",2,4,1,NA,"HouseObjects",1,4,"left","",NA,0,0,0,1,NA,NA,NA,NA,NA,NA,NA,NA,NA,NA,NA,NA,NA,NA,NA,NA,NA,NA,NA,NA,NA,NA,NA,NA
"150","stim/objects/Instruments/banjo2.png",23,75,23,0.3,"stim/44.jpeg",4,4,2,NA,"Instruments",2,4,"right","",NA,0,0,0,1,NA,NA,NA,NA,NA,NA,NA,NA,NA,NA,NA,NA,NA,NA,NA,NA,NA,NA,NA,NA,NA,NA,NA,NA
"200","stim/objects/Instruments/chime2.png",24,75,24,0.9,"stim/54.jpeg",5,4,3,NA,"Instruments",2,4,"right","right",0.826999903,1,1,0,1,NA,NA,NA,NA,NA,NA,NA,NA,NA,NA,NA,NA,NA,NA,NA,NA,NA,NA,NA,NA,NA,NA,NA,NA
"112","stim/objects/HouseObjects/clothespin2.png",25,75,25,0.9,"stim/64.jpeg",6,4,3,NA,"HouseObjects",1,4,"left","left",0.811000109,1,1,0,1,NA,NA,NA,NA,NA,NA,NA,NA,NA,NA,NA,NA,NA,NA,NA,NA,NA,NA,NA,NA,NA,NA,NA,NA
"153","stim/objects/Instruments/bassdrum.png",26,75,26,0.5,"stim/21.jpeg",2,1,1,NA,"Instruments",2,4,"right","",NA,0,0,0,1,NA,NA,NA,NA,NA,NA,NA,NA,NA,NA,NA,NA,NA,NA,NA,NA,NA,NA,NA,NA,NA,NA,NA,NA
"20","stim/objects/HouseObjects/ballofstring2.png",27,75,27,0.7,"stim/42.jpeg",4,2,2,NA,"HouseObjects",1,2,"left","",NA,0,0,0,1,NA,NA,NA,NA,NA,NA,NA,NA,NA,NA,NA,NA,NA,NA,NA,NA,NA,NA,NA,NA,NA,NA,NA,NA
"2","stim/objects/HouseObjects/ashtray.png",28,75,28,0.5,"stim/11.jpeg",1,1,1,NA,"HouseObjects",1,2,"left","",NA,0,0,0,1,NA,NA,NA,NA,NA,NA,NA,NA,NA,NA,NA,NA,NA,NA,NA,NA,NA,NA,NA,NA,NA,NA,NA,NA
"167","stim/objects/Instruments/bassguitar.png",29,75,29,0.5,"stim/22.jpeg",2,2,1,NA,"Instruments",2,1,"right","left",0.66899991,0,0,0,1,NA,NA,NA,NA,NA,NA,NA,NA,NA,NA,NA,NA,NA,NA,NA,NA,NA,NA,NA,NA,NA,NA,NA,NA
"172","stim/objects/Instruments/bassguitar2.png",30,75,30,0.9,"stim/52.jpeg",5,2,3,NA,"Instruments",2,1,"right","right",0.820999861,1,1,0,1,NA,NA,NA,NA,NA,NA,NA,NA,NA,NA,NA,NA,NA,NA,NA,NA,NA,NA,NA,NA,NA,NA,NA,NA
"76","stim/objects/HouseObjects/bucket2.png",31,75,31,0.9,"stim/61.jpeg",6,1,3,NA,"HouseObjects",1,2,"left","right",0.787999868,0,0,0,1,NA,NA,NA,NA,NA,NA,NA,NA,NA,NA,NA,NA,NA,NA,NA,NA,NA,NA,NA,NA,NA,NA,NA,NA
"168","stim/objects/Instruments/bassguitar.png",32,75,32,0.5,"stim/22.jpeg",2,2,1,NA,"Instruments",2,1,"right","right",0.845999718,1,1,0,1,NA,NA,NA,NA,NA,NA,NA,NA,NA,NA,NA,NA,NA,NA,NA,NA,NA,NA,NA,NA,NA,NA,NA,NA
"126","stim/objects/Instruments/accordion2.png",33,75,33,0.3,"stim/41.jpeg",4,1,2,NA,"Instruments",2,2,"right","",NA,0,0,0,1,NA,NA,NA,NA,NA,NA,NA,NA,NA,NA,NA,NA,NA,NA,NA,NA,NA,NA,NA,NA,NA,NA,NA,NA
"218","stim/objects/Instruments/cornet.png",34,75,34,0.7,"stim/32.jpeg",3,2,2,NA,"Instruments",2,1,"right","right",0.822000027,1,1,0,1,NA,NA,NA,NA,NA,NA,NA,NA,NA,NA,NA,NA,NA,NA,NA,NA,NA,NA,NA,NA,NA,NA,NA,NA
"154","stim/objects/Instruments/bassdrum.png",35,75,35,0.5,"stim/21.jpeg",2,1,1,NA,"Instruments",2,2,"right","",NA,0,0,0,1,NA,NA,NA,NA,NA,NA,NA,NA,NA,NA,NA,NA,NA,NA,NA,NA,NA,NA,NA,NA,NA,NA,NA,NA
"37","stim/objects/HouseObjects/basket.png",36,75,36,0.5,"stim/14.jpeg",1,4,1,NA,"HouseObjects",1,2,"left","",NA,0,0,0,1,NA,NA,NA,NA,NA,NA,NA,NA,NA,NA,NA,NA,NA,NA,NA,NA,NA,NA,NA,NA,NA,NA,NA,NA
"173","stim/objects/Instruments/bassguitar2.png",37,75,37,0.9,"stim/52.jpeg",5,2,3,NA,"Instruments",2,2,"right","right",0.73300004,1,1,0,1,NA,NA,NA,NA,NA,NA,NA,NA,NA,NA,NA,NA,NA,NA,NA,NA,NA,NA,NA,NA,NA,NA,NA,NA
"77","stim/objects/HouseObjects/bucket2.png",38,75,38,0.9,"stim/61.jpeg",6,1,3,NA,"HouseObjects",1,3,"left","right",0.784999847,0,0,0,1,NA,NA,NA,NA,NA,NA,NA,NA,NA,NA,NA,NA,NA,NA,NA,NA,NA,NA,NA,NA,NA,NA,NA,NA
"113","stim/objects/HouseObjects/clothespin2.png",39,75,39,0.9,"stim/64.jpeg",6,4,3,NA,"HouseObjects",1,3,"left","",NA,0,0,0,1,NA,NA,NA,NA,NA,NA,NA,NA,NA,NA,NA,NA,NA,NA,NA,NA,NA,NA,NA,NA,NA,NA,NA,NA
"66","stim/objects/HouseObjects/bottle2.png",40,75,40,0.1,"stim/53.jpeg",5,3,3,NA,"HouseObjects",1,2,"left","left",0.833999872,1,1,0,1,NA,NA,NA,NA,NA,NA,NA,NA,NA,NA,NA,NA,NA,NA,NA,NA,NA,NA,NA,NA,NA,NA,NA,NA
"3","stim/objects/HouseObjects/ashtray.png",41,75,41,0.5,"stim/11.jpeg",1,1,1,NA,"HouseObjects",1,4,"left","left",0.642999887,1,1,0,1,NA,NA,NA,NA,NA,NA,NA,NA,NA,NA,NA,NA,NA,NA,NA,NA,NA,NA,NA,NA,NA,NA,NA,NA
"89","stim/objects/HouseObjects/clock2.png",42,75,42,0.9,"stim/62.jpeg",6,2,3,NA,"HouseObjects",1,3,"left","left",0.646000147,1,1,0,1,NA,NA,NA,NA,NA,NA,NA,NA,NA,NA,NA,NA,NA,NA,NA,NA,NA,NA,NA,NA,NA,NA,NA,NA
"142","stim/objects/Instruments/balalaika2.png",43,75,43,0.3,"stim/43.jpeg",4,3,2,NA,"Instruments",2,1,"right","",NA,0,0,0,1,NA,NA,NA,NA,NA,NA,NA,NA,NA,NA,NA,NA,NA,NA,NA,NA,NA,NA,NA,NA,NA,NA,NA,NA
"4","stim/objects/HouseObjects/ashtray.png",44,75,44,0.5,"stim/11.jpeg",1,1,1,NA,"HouseObjects",1,2,"left","left",0.620999813,1,1,0,1,NA,NA,NA,NA,NA,NA,NA,NA,NA,NA,NA,NA,NA,NA,NA,NA,NA,NA,NA,NA,NA,NA,NA,NA
"31","stim/objects/HouseObjects/barbecuelighter2.png",45,75,45,0.7,"stim/43.jpeg",4,3,2,NA,"HouseObjects",1,1,"left","left",0.830999851,1,1,0,1,NA,NA,NA,NA,NA,NA,NA,NA,NA,NA,NA,NA,NA,NA,NA,NA,NA,NA,NA,NA,NA,NA,NA,NA
"145","stim/objects/Instruments/banjo.png",46,75,46,0.5,"stim/14.jpeg",1,4,1,NA,"Instruments",2,2,"right","left",0.769000053,0,0,0,1,NA,NA,NA,NA,NA,NA,NA,NA,NA,NA,NA,NA,NA,NA,NA,NA,NA,NA,NA,NA,NA,NA,NA,NA
"61","stim/objects/HouseObjects/bottle.png",47,75,47,0.5,"stim/23.jpeg",2,3,1,NA,"HouseObjects",1,1,"left","",NA,0,0,0,1,NA,NA,NA,NA,NA,NA,NA,NA,NA,NA,NA,NA,NA,NA,NA,NA,NA,NA,NA,NA,NA,NA,NA,NA
"6","stim/objects/HouseObjects/ashtray2.png",48,75,48,0.7,"stim/41.jpeg",4,1,2,NA,"HouseObjects",1,2,"left","left",0.689999819,1,1,0,1,NA,NA,NA,NA,NA,NA,NA,NA,NA,NA,NA,NA,NA,NA,NA,NA,NA,NA,NA,NA,NA,NA,NA,NA
"201","stim/objects/Instruments/chime2.png",49,75,49,0.9,"stim/54.jpeg",5,4,3,NA,"Instruments",2,3,"right","left",0.69299984,0,0,0,1,NA,NA,NA,NA,NA,NA,NA,NA,NA,NA,NA,NA,NA,NA,NA,NA,NA,NA,NA,NA,NA,NA,NA,NA
"232","stim/objects/Instruments/cymbal2.png",50,75,50,0.1,"stim/63.jpeg",6,3,3,NA,"Instruments",2,4,"right","left",0.53399992,0,0,0,1,NA,NA,NA,NA,NA,NA,NA,NA,NA,NA,NA,NA,NA,NA,NA,NA,NA,NA,NA,NA,NA,NA,NA,NA
"130","stim/objects/Instruments/acousticguitar.png",51,75,51,0.5,"stim/12.jpeg",1,2,1,NA,"Instruments",2,4,"right","",NA,0,0,0,1,NA,NA,NA,NA,NA,NA,NA,NA,NA,NA,NA,NA,NA,NA,NA,NA,NA,NA,NA,NA,NA,NA,NA,NA
"7","stim/objects/HouseObjects/ashtray2.png",52,75,52,0.7,"stim/41.jpeg",4,1,2,NA,"HouseObjects",1,2,"left","right",0.80099988,0,0,0,1,NA,NA,NA,NA,NA,NA,NA,NA,NA,NA,NA,NA,NA,NA,NA,NA,NA,NA,NA,NA,NA,NA,NA,NA
"225","stim/objects/Instruments/cymbal.png",53,75,53,0.7,"stim/33.jpeg",3,3,2,NA,"Instruments",2,2,"right","",NA,0,0,0,1,NA,NA,NA,NA,NA,NA,NA,NA,NA,NA,NA,NA,NA,NA,NA,NA,NA,NA,NA,NA,NA,NA,NA,NA
"8","stim/objects/HouseObjects/ashtray2.png",54,75,54,0.7,"stim/41.jpeg",4,1,2,NA,"HouseObjects",1,2,"left","",NA,0,0,0,1,NA,NA,NA,NA,NA,NA,NA,NA,NA,NA,NA,NA,NA,NA,NA,NA,NA,NA,NA,NA,NA,NA,NA,NA
"54","stim/objects/HouseObjects/bleachbottle2.png",55,75,55,0.1,"stim/51.jpeg",5,1,3,NA,"HouseObjects",1,1,"left","left",0.749000072,1,1,0,1,NA,NA,NA,NA,NA,NA,NA,NA,NA,NA,NA,NA,NA,NA,NA,NA,NA,NA,NA,NA,NA,NA,NA,NA
"134","stim/objects/Instruments/acousticguitar2.png",56,75,56,0.3,"stim/42.jpeg",4,2,2,NA,"Instruments",2,4,"right","left",0.814999819,0,0,0,1,NA,NA,NA,NA,NA,NA,NA,NA,NA,NA,NA,NA,NA,NA,NA,NA,NA,NA,NA,NA,NA,NA,NA,NA
"174","stim/objects/Instruments/bassguitar2.png",57,75,57,0.9,"stim/52.jpeg",5,2,3,NA,"Instruments",2,3,"right","left",0.838000059,0,0,0,1,NA,NA,NA,NA,NA,NA,NA,NA,NA,NA,NA,NA,NA,NA,NA,NA,NA,NA,NA,NA,NA,NA,NA,NA
"219","stim/objects/Instruments/cornet.png",58,75,58,0.7,"stim/32.jpeg",3,2,2,NA,"Instruments",2,2,"right","",NA,0,0,0,1,NA,NA,NA,NA,NA,NA,NA,NA,NA,NA,NA,NA,NA,NA,NA,NA,NA,NA,NA,NA,NA,NA,NA,NA
"90","stim/objects/HouseObjects/clock2.png",59,75,59,0.9,"stim/62.jpeg",6,2,3,NA,"HouseObjects",1,2,"left","left",0.631999969,1,1,0,1,NA,NA,NA,NA,NA,NA,NA,NA,NA,NA,NA,NA,NA,NA,NA,NA,NA,NA,NA,NA,NA,NA,NA,NA
"209","stim/objects/Instruments/clarinet.png",60,75,60,0.7,"stim/31.jpeg",3,1,2,NA,"Instruments",2,4,"right","",NA,0,0,0,1,NA,NA,NA,NA,NA,NA,NA,NA,NA,NA,NA,NA,NA,NA,NA,NA,NA,NA,NA,NA,NA,NA,NA,NA
"103","stim/objects/HouseObjects/clothesdryingrack2.png",61,75,61,0.9,"stim/63.jpeg",6,3,3,NA,"HouseObjects",1,4,"left","left",0.511999846,1,1,0,1,NA,NA,NA,NA,NA,NA,NA,NA,NA,NA,NA,NA,NA,NA,NA,NA,NA,NA,NA,NA,NA,NA,NA,NA
"21","stim/objects/HouseObjects/ballofstring2.png",62,75,62,0.7,"stim/42.jpeg",4,2,2,NA,"HouseObjects",1,4,"left","left",0.579999924,1,1,0,1,NA,NA,NA,NA,NA,NA,NA,NA,NA,NA,NA,NA,NA,NA,NA,NA,NA,NA,NA,NA,NA,NA,NA,NA
"210","stim/objects/Instruments/clarinet.png",63,75,63,0.7,"stim/31.jpeg",3,1,2,NA,"Instruments",2,3,"right","right",0.640000105,1,1,0,1,NA,NA,NA,NA,NA,NA,NA,NA,NA,NA,NA,NA,NA,NA,NA,NA,NA,NA,NA,NA,NA,NA,NA,NA
"13","stim/objects/HouseObjects/ballofstring.png",64,75,64,0.5,"stim/12.jpeg",1,2,1,NA,"HouseObjects",1,4,"left","",NA,0,0,0,1,NA,NA,NA,NA,NA,NA,NA,NA,NA,NA,NA,NA,NA,NA,NA,NA,NA,NA,NA,NA,NA,NA,NA,NA
"138","stim/objects/Instruments/balalaika.png",65,75,65,0.5,"stim/13.jpeg",1,3,1,NA,"Instruments",2,2,"right","",NA,0,0,0,1,NA,NA,NA,NA,NA,NA,NA,NA,NA,NA,NA,NA,NA,NA,NA,NA,NA,NA,NA,NA,NA,NA,NA,NA
"151","stim/objects/Instruments/banjo2.png",66,75,66,0.3,"stim/44.jpeg",4,4,2,NA,"Instruments",2,1,"right","left",0.845999956,0,0,0,1,NA,NA,NA,NA,NA,NA,NA,NA,NA,NA,NA,NA,NA,NA,NA,NA,NA,NA,NA,NA,NA,NA,NA,NA
"211","stim/objects/Instruments/clarinet.png",67,75,67,0.7,"stim/31.jpeg",3,1,2,NA,"Instruments",2,1,"right","right",0.624999762,1,1,0,1,NA,NA,NA,NA,NA,NA,NA,NA,NA,NA,NA,NA,NA,NA,NA,NA,NA,NA,NA,NA,NA,NA,NA,NA
"158","stim/objects/Instruments/bassdrum2.png",68,75,68,0.9,"stim/51.jpeg",5,1,3,NA,"Instruments",2,4,"right","right",0.677999973,1,1,0,1,NA,NA,NA,NA,NA,NA,NA,NA,NA,NA,NA,NA,NA,NA,NA,NA,NA,NA,NA,NA,NA,NA,NA,NA
"143","stim/objects/Instruments/balalaika2.png",69,75,69,0.3,"stim/43.jpeg",4,3,2,NA,"Instruments",2,3,"right","left",0.718999863,0,0,0,1,NA,NA,NA,NA,NA,NA,NA,NA,NA,NA,NA,NA,NA,NA,NA,NA,NA,NA,NA,NA,NA,NA,NA,NA
"127","stim/objects/Instruments/accordion2.png",70,75,70,0.3,"stim/41.jpeg",4,1,2,NA,"Instruments",2,3,"right","right",0.825000048,1,1,0,1,NA,NA,NA,NA,NA,NA,NA,NA,NA,NA,NA,NA,NA,NA,NA,NA,NA,NA,NA,NA,NA,NA,NA,NA
"187","stim/objects/Instruments/cello2.png",71,75,71,0.9,"stim/53.jpeg",5,3,3,NA,"Instruments",2,1,"right","right",0.585999966,1,1,0,1,NA,NA,NA,NA,NA,NA,NA,NA,NA,NA,NA,NA,NA,NA,NA,NA,NA,NA,NA,NA,NA,NA,NA,NA
"9","stim/objects/HouseObjects/ashtray2.png",72,75,72,0.7,"stim/41.jpeg",4,1,2,NA,"HouseObjects",1,4,"left","right",0.760999918,0,0,0,1,NA,NA,NA,NA,NA,NA,NA,NA,NA,NA,NA,NA,NA,NA,NA,NA,NA,NA,NA,NA,NA,NA,NA,NA
"234","stim/objects/Instruments/doublebass.png",73,75,73,0.7,"stim/34.jpeg",3,4,2,NA,"Instruments",2,4,"right","right",0.768999815,1,1,0,1,NA,NA,NA,NA,NA,NA,NA,NA,NA,NA,NA,NA,NA,NA,NA,NA,NA,NA,NA,NA,NA,NA,NA,NA
"122","stim/objects/Instruments/accordion.png",74,75,74,0.5,"stim/11.jpeg",1,1,1,NA,"Instruments",2,3,"right","right",0.830000162,1,1,0,1,NA,NA,NA,NA,NA,NA,NA,NA,NA,NA,NA,NA,NA,NA,NA,NA,NA,NA,NA,NA,NA,NA,NA,NA
"104","stim/objects/HouseObjects/clothesdryingrack2.png",75,75,75,0.9,"stim/63.jpeg",6,3,3,NA,"HouseObjects",1,2,"left","left",0.585999966,1,1,0,1,NA,NA,NA,NA,NA,NA,NA,NA,NA,NA,NA,NA,NA,NA,NA,NA,NA,NA,NA,NA,NA,NA,NA,NA
"91","stim/objects/HouseObjects/clock2.png",76,75,76,0.9,"stim/62.jpeg",6,2,3,NA,"HouseObjects",1,1,"left","left",0.578999758,1,1,0,1,NA,NA,NA,NA,NA,NA,NA,NA,NA,NA,NA,NA,NA,NA,NA,NA,NA,NA,NA,NA,NA,NA,NA,NA
"49","stim/objects/HouseObjects/bleachbottle.png",77,75,77,0.5,"stim/21.jpeg",2,1,1,NA,"HouseObjects",1,1,"left","right",0.770999908,0,0,0,1,NA,NA,NA,NA,NA,NA,NA,NA,NA,NA,NA,NA,NA,NA,NA,NA,NA,NA,NA,NA,NA,NA,NA,NA
"57","stim/objects/HouseObjects/blender.png",78,75,78,0.5,"stim/22.jpeg",2,2,1,NA,"HouseObjects",1,2,"left","",NA,0,0,0,1,NA,NA,NA,NA,NA,NA,NA,NA,NA,NA,NA,NA,NA,NA,NA,NA,NA,NA,NA,NA,NA,NA,NA,NA
"92","stim/objects/HouseObjects/clock2.png",79,75,79,0.9,"stim/62.jpeg",6,2,3,NA,"HouseObjects",1,3,"left","left",0.549999952,1,1,0,1,NA,NA,NA,NA,NA,NA,NA,NA,NA,NA,NA,NA,NA,NA,NA,NA,NA,NA,NA,NA,NA,NA,NA,NA
"202","stim/objects/Instruments/chime2.png",80,75,80,0.9,"stim/54.jpeg",5,4,3,NA,"Instruments",2,3,"right","",NA,0,0,0,1,NA,NA,NA,NA,NA,NA,NA,NA,NA,NA,NA,NA,NA,NA,NA,NA,NA,NA,NA,NA,NA,NA,NA,NA
"58","stim/objects/HouseObjects/blender.png",81,75,81,0.5,"stim/22.jpeg",2,2,1,NA,"HouseObjects",1,2,"left","left",0.754999876,1,1,0,1,NA,NA,NA,NA,NA,NA,NA,NA,NA,NA,NA,NA,NA,NA,NA,NA,NA,NA,NA,NA,NA,NA,NA,NA
"78","stim/objects/HouseObjects/bucket2.png",82,75,82,0.9,"stim/61.jpeg",6,1,3,NA,"HouseObjects",1,4,"left","",NA,0,0,0,1,NA,NA,NA,NA,NA,NA,NA,NA,NA,NA,NA,NA,NA,NA,NA,NA,NA,NA,NA,NA,NA,NA,NA,NA
"220","stim/objects/Instruments/cornet.png",83,75,83,0.7,"stim/32.jpeg",3,2,2,NA,"Instruments",2,3,"right","right",0.868999958,1,1,0,1,NA,NA,NA,NA,NA,NA,NA,NA,NA,NA,NA,NA,NA,NA,NA,NA,NA,NA,NA,NA,NA,NA,NA,NA
"73","stim/objects/HouseObjects/bucket.png",84,75,84,0.3,"stim/31.jpeg",3,1,2,NA,"HouseObjects",1,1,"left","right",0.786999941,0,0,0,1,NA,NA,NA,NA,NA,NA,NA,NA,NA,NA,NA,NA,NA,NA,NA,NA,NA,NA,NA,NA,NA,NA,NA,NA
"93","stim/objects/HouseObjects/clock2.png",85,75,85,0.9,"stim/62.jpeg",6,2,3,NA,"HouseObjects",1,1,"left","left",0.539999962,1,1,0,1,NA,NA,NA,NA,NA,NA,NA,NA,NA,NA,NA,NA,NA,NA,NA,NA,NA,NA,NA,NA,NA,NA,NA,NA
"114","stim/objects/HouseObjects/clothespin2.png",86,75,86,0.9,"stim/64.jpeg",6,4,3,NA,"HouseObjects",1,3,"left","left",0.789000034,1,1,0,1,NA,NA,NA,NA,NA,NA,NA,NA,NA,NA,NA,NA,NA,NA,NA,NA,NA,NA,NA,NA,NA,NA,NA,NA
"181","stim/objects/Instruments/cello.png",87,75,87,0.5,"stim/23.jpeg",2,3,1,NA,"Instruments",2,2,"right","",NA,0,0,0,1,NA,NA,NA,NA,NA,NA,NA,NA,NA,NA,NA,NA,NA,NA,NA,NA,NA,NA,NA,NA,NA,NA,NA,NA
"94","stim/objects/HouseObjects/clock2.png",88,75,88,0.9,"stim/62.jpeg",6,2,3,NA,"HouseObjects",1,4,"left","left",0.511999846,1,1,0,1,NA,NA,NA,NA,NA,NA,NA,NA,NA,NA,NA,NA,NA,NA,NA,NA,NA,NA,NA,NA,NA,NA,NA,NA
"235","stim/objects/Instruments/doublebass.png",89,75,89,0.7,"stim/34.jpeg",3,4,2,NA,"Instruments",2,1,"right","right",0.773000002,1,1,0,1,NA,NA,NA,NA,NA,NA,NA,NA,NA,NA,NA,NA,NA,NA,NA,NA,NA,NA,NA,NA,NA,NA,NA,NA
"85","stim/objects/HouseObjects/clock.png",90,75,90,0.3,"stim/32.jpeg",3,2,2,NA,"HouseObjects",1,2,"left","",NA,0,0,0,1,NA,NA,NA,NA,NA,NA,NA,NA,NA,NA,NA,NA,NA,NA,NA,NA,NA,NA,NA,NA,NA,NA,NA,NA
"109","stim/objects/HouseObjects/clothespin.png",91,75,91,0.3,"stim/34.jpeg",3,4,2,NA,"HouseObjects",1,1,"left","left",0.79399991,1,1,0,1,NA,NA,NA,NA,NA,NA,NA,NA,NA,NA,NA,NA,NA,NA,NA,NA,NA,NA,NA,NA,NA,NA,NA,NA
"212","stim/objects/Instruments/clarinet.png",92,75,92,0.7,"stim/31.jpeg",3,1,2,NA,"Instruments",2,1,"right","left",0.421999931,0,0,0,1,NA,NA,NA,NA,NA,NA,NA,NA,NA,NA,NA,NA,NA,NA,NA,NA,NA,NA,NA,NA,NA,NA,NA,NA
"188","stim/objects/Instruments/cello2.png",93,75,93,0.9,"stim/53.jpeg",5,3,3,NA,"Instruments",2,2,"right","right",0.612999916,1,1,0,1,NA,NA,NA,NA,NA,NA,NA,NA,NA,NA,NA,NA,NA,NA,NA,NA,NA,NA,NA,NA,NA,NA,NA,NA
"50","stim/objects/HouseObjects/bleachbottle.png",94,75,94,0.5,"stim/21.jpeg",2,1,1,NA,"HouseObjects",1,4,"left","left",0.806999922,1,1,0,1,NA,NA,NA,NA,NA,NA,NA,NA,NA,NA,NA,NA,NA,NA,NA,NA,NA,NA,NA,NA,NA,NA,NA,NA
"38","stim/objects/HouseObjects/basket.png",95,75,95,0.5,"stim/14.jpeg",1,4,1,NA,"HouseObjects",1,3,"left","",NA,0,0,0,1,NA,NA,NA,NA,NA,NA,NA,NA,NA,NA,NA,NA,NA,NA,NA,NA,NA,NA,NA,NA,NA,NA,NA,NA
"14","stim/objects/HouseObjects/ballofstring.png",96,75,96,0.5,"stim/12.jpeg",1,2,1,NA,"HouseObjects",1,2,"left","left",0.645999908,1,1,0,1,NA,NA,NA,NA,NA,NA,NA,NA,NA,NA,NA,NA,NA,NA,NA,NA,NA,NA,NA,NA,NA,NA,NA,NA
"159","stim/objects/Instruments/bassdrum2.png",97,75,97,0.9,"stim/51.jpeg",5,1,3,NA,"Instruments",2,1,"right","right",0.664000034,1,1,0,1,NA,NA,NA,NA,NA,NA,NA,NA,NA,NA,NA,NA,NA,NA,NA,NA,NA,NA,NA,NA,NA,NA,NA,NA
"95","stim/objects/HouseObjects/clock2.png",98,75,98,0.9,"stim/62.jpeg",6,2,3,NA,"HouseObjects",1,4,"left","left",0.559999943,1,1,0,1,NA,NA,NA,NA,NA,NA,NA,NA,NA,NA,NA,NA,NA,NA,NA,NA,NA,NA,NA,NA,NA,NA,NA,NA
"110","stim/objects/HouseObjects/clothespin.png",99,75,99,0.3,"stim/34.jpeg",3,4,2,NA,"HouseObjects",1,1,"left","right",0.868000031,0,0,0,1,NA,NA,NA,NA,NA,NA,NA,NA,NA,NA,NA,NA,NA,NA,NA,NA,NA,NA,NA,NA,NA,NA,NA,NA
"43","stim/objects/HouseObjects/basket2.png",100,75,100,0.7,"stim/44.jpeg",4,4,2,NA,"HouseObjects",1,3,"left","left",0.5849998,1,1,0,1,NA,NA,NA,NA,NA,NA,NA,NA,NA,NA,NA,NA,NA,NA,NA,NA,NA,NA,NA,NA,NA,NA,NA,NA
"182","stim/objects/Instruments/cello.png",101,75,101,0.5,"stim/23.jpeg",2,3,1,NA,"Instruments",2,4,"right","left",0.769999981,0,0,0,1,NA,NA,NA,NA,NA,NA,NA,NA,NA,NA,NA,NA,NA,NA,NA,NA,NA,NA,NA,NA,NA,NA,NA,NA
"39","stim/objects/HouseObjects/basket.png",102,75,102,0.5,"stim/14.jpeg",1,4,1,NA,"HouseObjects",1,4,"left","left",0.632999897,1,1,0,1,NA,NA,NA,NA,NA,NA,NA,NA,NA,NA,NA,NA,NA,NA,NA,NA,NA,NA,NA,NA,NA,NA,NA,NA
"195","stim/objects/Instruments/chime.png",103,75,103,0.5,"stim/24.jpeg",2,4,1,NA,"Instruments",2,1,"right","right",0.749999762,1,1,0,1,NA,NA,NA,NA,NA,NA,NA,NA,NA,NA,NA,NA,NA,NA,NA,NA,NA,NA,NA,NA,NA,NA,NA,NA
"196","stim/objects/Instruments/chime.png",104,75,104,0.5,"stim/24.jpeg",2,4,1,NA,"Instruments",2,1,"right","right",0.595999956,1,1,0,1,NA,NA,NA,NA,NA,NA,NA,NA,NA,NA,NA,NA,NA,NA,NA,NA,NA,NA,NA,NA,NA,NA,NA,NA
"160","stim/objects/Instruments/bassdrum2.png",105,75,105,0.9,"stim/51.jpeg",5,1,3,NA,"Instruments",2,2,"right","",NA,0,0,0,1,NA,NA,NA,NA,NA,NA,NA,NA,NA,NA,NA,NA,NA,NA,NA,NA,NA,NA,NA,NA,NA,NA,NA,NA
"51","stim/objects/HouseObjects/bleachbottle.png",106,75,106,0.5,"stim/21.jpeg",2,1,1,NA,"HouseObjects",1,1,"left","left",0.740999937,1,1,0,1,NA,NA,NA,NA,NA,NA,NA,NA,NA,NA,NA,NA,NA,NA,NA,NA,NA,NA,NA,NA,NA,NA,NA,NA
"203","stim/objects/Instruments/chime2.png",107,75,107,0.9,"stim/54.jpeg",5,4,3,NA,"Instruments",2,2,"right","right",0.618999958,1,1,0,1,NA,NA,NA,NA,NA,NA,NA,NA,NA,NA,NA,NA,NA,NA,NA,NA,NA,NA,NA,NA,NA,NA,NA,NA
"97","stim/objects/HouseObjects/clothesdryingrack.png",108,75,108,0.3,"stim/33.jpeg",3,3,2,NA,"HouseObjects",1,4,"left","left",0.657999992,1,1,0,1,NA,NA,NA,NA,NA,NA,NA,NA,NA,NA,NA,NA,NA,NA,NA,NA,NA,NA,NA,NA,NA,NA,NA,NA
"79","stim/objects/HouseObjects/bucket2.png",109,75,109,0.9,"stim/61.jpeg",6,1,3,NA,"HouseObjects",1,2,"left","left",0.552999973,1,1,0,1,NA,NA,NA,NA,NA,NA,NA,NA,NA,NA,NA,NA,NA,NA,NA,NA,NA,NA,NA,NA,NA,NA,NA,NA
"115","stim/objects/HouseObjects/clothespin2.png",110,75,110,0.9,"stim/64.jpeg",6,4,3,NA,"HouseObjects",1,1,"left","left",0.666999817,1,1,0,1,NA,NA,NA,NA,NA,NA,NA,NA,NA,NA,NA,NA,NA,NA,NA,NA,NA,NA,NA,NA,NA,NA,NA,NA
"74","stim/objects/HouseObjects/bucket.png",111,75,111,0.3,"stim/31.jpeg",3,1,2,NA,"HouseObjects",1,3,"left","right",0.64199996,0,0,0,1,NA,NA,NA,NA,NA,NA,NA,NA,NA,NA,NA,NA,NA,NA,NA,NA,NA,NA,NA,NA,NA,NA,NA,NA
"161","stim/objects/Instruments/bassdrum2.png",112,75,112,0.9,"stim/51.jpeg",5,1,3,NA,"Instruments",2,3,"right","right",0.69299984,1,1,0,1,NA,NA,NA,NA,NA,NA,NA,NA,NA,NA,NA,NA,NA,NA,NA,NA,NA,NA,NA,NA,NA,NA,NA,NA
"52","stim/objects/HouseObjects/bleachbottle.png",113,75,113,0.5,"stim/21.jpeg",2,1,1,NA,"HouseObjects",1,3,"left","left",0.708999872,1,1,0,1,NA,NA,NA,NA,NA,NA,NA,NA,NA,NA,NA,NA,NA,NA,NA,NA,NA,NA,NA,NA,NA,NA,NA,NA
"152","stim/objects/Instruments/banjo2.png",114,75,114,0.3,"stim/44.jpeg",4,4,2,NA,"Instruments",2,3,"right","left",0.74000001,0,0,0,1,NA,NA,NA,NA,NA,NA,NA,NA,NA,NA,NA,NA,NA,NA,NA,NA,NA,NA,NA,NA,NA,NA,NA,NA
"175","stim/objects/Instruments/bassguitar2.png",115,75,115,0.9,"stim/52.jpeg",5,2,3,NA,"Instruments",2,1,"right","right",0.792000055,1,1,0,1,NA,NA,NA,NA,NA,NA,NA,NA,NA,NA,NA,NA,NA,NA,NA,NA,NA,NA,NA,NA,NA,NA,NA,NA
"226","stim/objects/Instruments/cymbal.png",116,75,116,0.7,"stim/33.jpeg",3,3,2,NA,"Instruments",2,2,"right","",NA,0,0,0,1,NA,NA,NA,NA,NA,NA,NA,NA,NA,NA,NA,NA,NA,NA,NA,NA,NA,NA,NA,NA,NA,NA,NA,NA
"227","stim/objects/Instruments/cymbal.png",117,75,117,0.7,"stim/33.jpeg",3,3,2,NA,"Instruments",2,1,"right","left",0.642999887,0,0,0,1,NA,NA,NA,NA,NA,NA,NA,NA,NA,NA,NA,NA,NA,NA,NA,NA,NA,NA,NA,NA,NA,NA,NA,NA
"162","stim/objects/Instruments/bassdrum2.png",118,75,118,0.9,"stim/51.jpeg",5,1,3,NA,"Instruments",2,3,"right","right",0.815000057,1,1,0,1,NA,NA,NA,NA,NA,NA,NA,NA,NA,NA,NA,NA,NA,NA,NA,NA,NA,NA,NA,NA,NA,NA,NA,NA
"197","stim/objects/Instruments/chime.png",119,75,119,0.5,"stim/24.jpeg",2,4,1,NA,"Instruments",2,3,"right","",NA,0,0,0,1,NA,NA,NA,NA,NA,NA,NA,NA,NA,NA,NA,NA,NA,NA,NA,NA,NA,NA,NA,NA,NA,NA,NA,NA
"163","stim/objects/Instruments/bassdrum2.png",120,75,120,0.9,"stim/51.jpeg",5,1,3,NA,"Instruments",2,4,"right","",NA,0,0,0,1,NA,NA,NA,NA,NA,NA,NA,NA,NA,NA,NA,NA,NA,NA,NA,NA,NA,NA,NA,NA,NA,NA,NA,NA
"116","stim/objects/HouseObjects/clothespin2.png",121,75,121,0.9,"stim/64.jpeg",6,4,3,NA,"HouseObjects",1,4,"left","left",0.694999933,1,1,0,1,NA,NA,NA,NA,NA,NA,NA,NA,NA,NA,NA,NA,NA,NA,NA,NA,NA,NA,NA,NA,NA,NA,NA,NA
"240","stim/objects/Instruments/doublebass2.png",122,75,122,0.1,"stim/64.jpeg",6,4,3,NA,"Instruments",2,3,"right","left",0.544999838,0,0,0,1,NA,NA,NA,NA,NA,NA,NA,NA,NA,NA,NA,NA,NA,NA,NA,NA,NA,NA,NA,NA,NA,NA,NA,NA
"146","stim/objects/Instruments/banjo.png",123,75,123,0.5,"stim/14.jpeg",1,4,1,NA,"Instruments",2,1,"right","left",0.659999847,0,0,0,1,NA,NA,NA,NA,NA,NA,NA,NA,NA,NA,NA,NA,NA,NA,NA,NA,NA,NA,NA,NA,NA,NA,NA,NA
"111","stim/objects/HouseObjects/clothespin.png",124,75,124,0.3,"stim/34.jpeg",3,4,2,NA,"HouseObjects",1,4,"left","right",0.835000038,0,0,0,1,NA,NA,NA,NA,NA,NA,NA,NA,NA,NA,NA,NA,NA,NA,NA,NA,NA,NA,NA,NA,NA,NA,NA,NA
"155","stim/objects/Instruments/bassdrum.png",125,75,125,0.5,"stim/21.jpeg",2,1,1,NA,"Instruments",2,1,"right","left",0.704999924,0,0,0,1,NA,NA,NA,NA,NA,NA,NA,NA,NA,NA,NA,NA,NA,NA,NA,NA,NA,NA,NA,NA,NA,NA,NA,NA
"117","stim/objects/HouseObjects/clothespin2.png",126,75,126,0.9,"stim/64.jpeg",6,4,3,NA,"HouseObjects",1,3,"left","left",0.487999916,1,1,0,1,NA,NA,NA,NA,NA,NA,NA,NA,NA,NA,NA,NA,NA,NA,NA,NA,NA,NA,NA,NA,NA,NA,NA,NA
"176","stim/objects/Instruments/bassguitar2.png",127,75,127,0.9,"stim/52.jpeg",5,2,3,NA,"Instruments",2,1,"right","right",0.65199995,1,1,0,1,NA,NA,NA,NA,NA,NA,NA,NA,NA,NA,NA,NA,NA,NA,NA,NA,NA,NA,NA,NA,NA,NA,NA,NA
"72","stim/objects/HouseObjects/broom2.png",128,75,128,0.1,"stim/54.jpeg",5,4,3,NA,"HouseObjects",1,4,"left","right",0.832000017,0,0,0,1,NA,NA,NA,NA,NA,NA,NA,NA,NA,NA,NA,NA,NA,NA,NA,NA,NA,NA,NA,NA,NA,NA,NA,NA
"221","stim/objects/Instruments/cornet.png",129,75,129,0.7,"stim/32.jpeg",3,2,2,NA,"Instruments",2,2,"right","left",0.789999962,0,0,0,1,NA,NA,NA,NA,NA,NA,NA,NA,NA,NA,NA,NA,NA,NA,NA,NA,NA,NA,NA,NA,NA,NA,NA,NA
"105","stim/objects/HouseObjects/clothesdryingrack2.png",130,75,130,0.9,"stim/63.jpeg",6,3,3,NA,"HouseObjects",1,2,"left","left",0.616999865,1,1,0,1,NA,NA,NA,NA,NA,NA,NA,NA,NA,NA,NA,NA,NA,NA,NA,NA,NA,NA,NA,NA,NA,NA,NA,NA
"139","stim/objects/Instruments/balalaika.png",131,75,131,0.5,"stim/13.jpeg",1,3,1,NA,"Instruments",2,2,"right","right",0.840999842,1,1,0,1,NA,NA,NA,NA,NA,NA,NA,NA,NA,NA,NA,NA,NA,NA,NA,NA,NA,NA,NA,NA,NA,NA,NA,NA
"236","stim/objects/Instruments/doublebass.png",132,75,132,0.7,"stim/34.jpeg",3,4,2,NA,"Instruments",2,3,"right","",NA,0,0,0,1,NA,NA,NA,NA,NA,NA,NA,NA,NA,NA,NA,NA,NA,NA,NA,NA,NA,NA,NA,NA,NA,NA,NA,NA
"86","stim/objects/HouseObjects/clock.png",133,75,133,0.3,"stim/32.jpeg",3,2,2,NA,"HouseObjects",1,4,"left","left",0.707000017,1,1,0,1,NA,NA,NA,NA,NA,NA,NA,NA,NA,NA,NA,NA,NA,NA,NA,NA,NA,NA,NA,NA,NA,NA,NA,NA
"27","stim/objects/HouseObjects/barbecuelighter.png",134,75,134,0.5,"stim/13.jpeg",1,3,1,NA,"HouseObjects",1,3,"left","",NA,0,0,0,1,NA,NA,NA,NA,NA,NA,NA,NA,NA,NA,NA,NA,NA,NA,NA,NA,NA,NA,NA,NA,NA,NA,NA,NA
"224","stim/objects/Instruments/cornet2.png",135,75,135,0.1,"stim/62.jpeg",6,2,3,NA,"Instruments",2,1,"right","left",0.574999809,0,0,0,1,NA,NA,NA,NA,NA,NA,NA,NA,NA,NA,NA,NA,NA,NA,NA,NA,NA,NA,NA,NA,NA,NA,NA,NA
"147","stim/objects/Instruments/banjo.png",136,75,136,0.5,"stim/14.jpeg",1,4,1,NA,"Instruments",2,1,"right","left",0.723999977,0,0,0,1,NA,NA,NA,NA,NA,NA,NA,NA,NA,NA,NA,NA,NA,NA,NA,NA,NA,NA,NA,NA,NA,NA,NA,NA
"228","stim/objects/Instruments/cymbal.png",137,75,137,0.7,"stim/33.jpeg",3,3,2,NA,"Instruments",2,1,"right","right",0.65199995,1,1,0,1,NA,NA,NA,NA,NA,NA,NA,NA,NA,NA,NA,NA,NA,NA,NA,NA,NA,NA,NA,NA,NA,NA,NA,NA
"204","stim/objects/Instruments/chime2.png",138,75,138,0.9,"stim/54.jpeg",5,4,3,NA,"Instruments",2,2,"right","right",0.726999998,1,1,0,1,NA,NA,NA,NA,NA,NA,NA,NA,NA,NA,NA,NA,NA,NA,NA,NA,NA,NA,NA,NA,NA,NA,NA,NA
"198","stim/objects/Instruments/chime.png",139,75,139,0.5,"stim/24.jpeg",2,4,1,NA,"Instruments",2,1,"right","right",0.859999895,1,1,0,1,NA,NA,NA,NA,NA,NA,NA,NA,NA,NA,NA,NA,NA,NA,NA,NA,NA,NA,NA,NA,NA,NA,NA,NA
"177","stim/objects/Instruments/bassguitar2.png",140,75,140,0.9,"stim/52.jpeg",5,2,3,NA,"Instruments",2,3,"right","right",0.686999798,1,1,0,1,NA,NA,NA,NA,NA,NA,NA,NA,NA,NA,NA,NA,NA,NA,NA,NA,NA,NA,NA,NA,NA,NA,NA,NA
"62","stim/objects/HouseObjects/bottle.png",141,75,141,0.5,"stim/23.jpeg",2,3,1,NA,"HouseObjects",1,1,"left","",NA,0,0,0,1,NA,NA,NA,NA,NA,NA,NA,NA,NA,NA,NA,NA,NA,NA,NA,NA,NA,NA,NA,NA,NA,NA,NA,NA
"63","stim/objects/HouseObjects/bottle.png",142,75,142,0.5,"stim/23.jpeg",2,3,1,NA,"HouseObjects",1,2,"left","left",0.695999861,1,1,0,1,NA,NA,NA,NA,NA,NA,NA,NA,NA,NA,NA,NA,NA,NA,NA,NA,NA,NA,NA,NA,NA,NA,NA,NA
"183","stim/objects/Instruments/cello.png",143,75,143,0.5,"stim/23.jpeg",2,3,1,NA,"Instruments",2,4,"right","left",0.422999859,0,0,0,1,NA,NA,NA,NA,NA,NA,NA,NA,NA,NA,NA,NA,NA,NA,NA,NA,NA,NA,NA,NA,NA,NA,NA,NA
"32","stim/objects/HouseObjects/barbecuelighter2.png",144,75,144,0.7,"stim/43.jpeg",4,3,2,NA,"HouseObjects",1,2,"left","",NA,0,0,0,1,NA,NA,NA,NA,NA,NA,NA,NA,NA,NA,NA,NA,NA,NA,NA,NA,NA,NA,NA,NA,NA,NA,NA,NA
"205","stim/objects/Instruments/chime2.png",145,75,145,0.9,"stim/54.jpeg",5,4,3,NA,"Instruments",2,2,"right","right",0.572000027,1,1,0,1,NA,NA,NA,NA,NA,NA,NA,NA,NA,NA,NA,NA,NA,NA,NA,NA,NA,NA,NA,NA,NA,NA,NA,NA
"164","stim/objects/Instruments/bassdrum2.png",146,75,146,0.9,"stim/51.jpeg",5,1,3,NA,"Instruments",2,1,"right","right",0.592999935,1,1,0,1,NA,NA,NA,NA,NA,NA,NA,NA,NA,NA,NA,NA,NA,NA,NA,NA,NA,NA,NA,NA,NA,NA,NA,NA
"22","stim/objects/HouseObjects/ballofstring2.png",147,75,147,0.7,"stim/42.jpeg",4,2,2,NA,"HouseObjects",1,2,"left","left",0.721999884,1,1,0,1,NA,NA,NA,NA,NA,NA,NA,NA,NA,NA,NA,NA,NA,NA,NA,NA,NA,NA,NA,NA,NA,NA,NA,NA
"33","stim/objects/HouseObjects/barbecuelighter2.png",148,75,148,0.7,"stim/43.jpeg",4,3,2,NA,"HouseObjects",1,2,"left","left",0.422999859,1,1,0,1,NA,NA,NA,NA,NA,NA,NA,NA,NA,NA,NA,NA,NA,NA,NA,NA,NA,NA,NA,NA,NA,NA,NA,NA
"44","stim/objects/HouseObjects/basket2.png",149,75,149,0.7,"stim/44.jpeg",4,4,2,NA,"HouseObjects",1,2,"left","left",0.44299984,1,1,0,1,NA,NA,NA,NA,NA,NA,NA,NA,NA,NA,NA,NA,NA,NA,NA,NA,NA,NA,NA,NA,NA,NA,NA,NA
"80","stim/objects/HouseObjects/bucket2.png",150,75,150,0.9,"stim/61.jpeg",6,1,3,NA,"HouseObjects",1,2,"left","left",0.56099987,1,1,0,1,NA,NA,NA,NA,NA,NA,NA,NA,NA,NA,NA,NA,NA,NA,NA,NA,NA,NA,NA,NA,NA,NA,NA,NA
"118","stim/objects/HouseObjects/clothespin2.png",151,75,151,0.9,"stim/64.jpeg",6,4,3,NA,"HouseObjects",1,1,"left","left",0.491999865,1,1,0,1,NA,NA,NA,NA,NA,NA,NA,NA,NA,NA,NA,NA,NA,NA,NA,NA,NA,NA,NA,NA,NA,NA,NA,NA
"135","stim/objects/Instruments/acousticguitar2.png",152,75,152,0.3,"stim/42.jpeg",4,2,2,NA,"Instruments",2,2,"right","left",0.587000132,0,0,0,1,NA,NA,NA,NA,NA,NA,NA,NA,NA,NA,NA,NA,NA,NA,NA,NA,NA,NA,NA,NA,NA,NA,NA,NA
"128","stim/objects/Instruments/accordion2.png",153,75,153,0.3,"stim/41.jpeg",4,1,2,NA,"Instruments",2,1,"right","left",0.802000046,0,0,0,1,NA,NA,NA,NA,NA,NA,NA,NA,NA,NA,NA,NA,NA,NA,NA,NA,NA,NA,NA,NA,NA,NA,NA,NA
"81","stim/objects/HouseObjects/bucket2.png",154,75,154,0.9,"stim/61.jpeg",6,1,3,NA,"HouseObjects",1,1,"left","left",0.559000015,1,1,0,1,NA,NA,NA,NA,NA,NA,NA,NA,NA,NA,NA,NA,NA,NA,NA,NA,NA,NA,NA,NA,NA,NA,NA,NA
"96","stim/objects/HouseObjects/clock2.png",155,75,155,0.9,"stim/62.jpeg",6,2,3,NA,"HouseObjects",1,4,"left","left",0.498999834,1,1,0,1,NA,NA,NA,NA,NA,NA,NA,NA,NA,NA,NA,NA,NA,NA,NA,NA,NA,NA,NA,NA,NA,NA,NA,NA
"123","stim/objects/Instruments/accordion.png",156,75,156,0.5,"stim/11.jpeg",1,1,1,NA,"Instruments",2,4,"right","left",0.753000021,0,0,0,1,NA,NA,NA,NA,NA,NA,NA,NA,NA,NA,NA,NA,NA,NA,NA,NA,NA,NA,NA,NA,NA,NA,NA,NA
"213","stim/objects/Instruments/clarinet.png",157,75,157,0.7,"stim/31.jpeg",3,1,2,NA,"Instruments",2,4,"right","left",0.638999939,0,0,0,1,NA,NA,NA,NA,NA,NA,NA,NA,NA,NA,NA,NA,NA,NA,NA,NA,NA,NA,NA,NA,NA,NA,NA,NA
"23","stim/objects/HouseObjects/ballofstring2.png",158,75,158,0.7,"stim/42.jpeg",4,2,2,NA,"HouseObjects",1,3,"left","left",0.712000132,1,1,0,1,NA,NA,NA,NA,NA,NA,NA,NA,NA,NA,NA,NA,NA,NA,NA,NA,NA,NA,NA,NA,NA,NA,NA,NA
"15","stim/objects/HouseObjects/ballofstring.png",159,75,159,0.5,"stim/12.jpeg",1,2,1,NA,"HouseObjects",1,3,"left","",NA,0,0,0,1,NA,NA,NA,NA,NA,NA,NA,NA,NA,NA,NA,NA,NA,NA,NA,NA,NA,NA,NA,NA,NA,NA,NA,NA
"169","stim/objects/Instruments/bassguitar.png",160,75,160,0.5,"stim/22.jpeg",2,2,1,NA,"Instruments",2,1,"right","left",0.737999916,0,0,0,1,NA,NA,NA,NA,NA,NA,NA,NA,NA,NA,NA,NA,NA,NA,NA,NA,NA,NA,NA,NA,NA,NA,NA,NA
"119","stim/objects/HouseObjects/clothespin2.png",161,75,161,0.9,"stim/64.jpeg",6,4,3,NA,"HouseObjects",1,1,"left","left",0.615999937,1,1,0,1,NA,NA,NA,NA,NA,NA,NA,NA,NA,NA,NA,NA,NA,NA,NA,NA,NA,NA,NA,NA,NA,NA,NA,NA
"53","stim/objects/HouseObjects/bleachbottle.png",162,75,162,0.5,"stim/21.jpeg",2,1,1,NA,"HouseObjects",1,1,"left","",NA,0,0,0,1,NA,NA,NA,NA,NA,NA,NA,NA,NA,NA,NA,NA,NA,NA,NA,NA,NA,NA,NA,NA,NA,NA,NA,NA
"10","stim/objects/HouseObjects/ashtray2.png",163,75,163,0.7,"stim/41.jpeg",4,1,2,NA,"HouseObjects",1,4,"left","left",0.629999876,1,1,0,1,NA,NA,NA,NA,NA,NA,NA,NA,NA,NA,NA,NA,NA,NA,NA,NA,NA,NA,NA,NA,NA,NA,NA,NA
"16","stim/objects/HouseObjects/ballofstring.png",164,75,164,0.5,"stim/12.jpeg",1,2,1,NA,"HouseObjects",1,1,"left","left",0.677999735,1,1,0,1,NA,NA,NA,NA,NA,NA,NA,NA,NA,NA,NA,NA,NA,NA,NA,NA,NA,NA,NA,NA,NA,NA,NA,NA
"140","stim/objects/Instruments/balalaika.png",165,75,165,0.5,"stim/13.jpeg",1,3,1,NA,"Instruments",2,4,"right","",NA,0,0,0,1,NA,NA,NA,NA,NA,NA,NA,NA,NA,NA,NA,NA,NA,NA,NA,NA,NA,NA,NA,NA,NA,NA,NA,NA
"178","stim/objects/Instruments/bassguitar2.png",166,75,166,0.9,"stim/52.jpeg",5,2,3,NA,"Instruments",2,3,"right","right",0.694000006,1,1,0,1,NA,NA,NA,NA,NA,NA,NA,NA,NA,NA,NA,NA,NA,NA,NA,NA,NA,NA,NA,NA,NA,NA,NA,NA
"98","stim/objects/HouseObjects/clothesdryingrack.png",167,75,167,0.3,"stim/33.jpeg",3,3,2,NA,"HouseObjects",1,3,"left","left",0.710999966,1,1,0,1,NA,NA,NA,NA,NA,NA,NA,NA,NA,NA,NA,NA,NA,NA,NA,NA,NA,NA,NA,NA,NA,NA,NA,NA
"124","stim/objects/Instruments/accordion.png",168,75,168,0.5,"stim/11.jpeg",1,1,1,NA,"Instruments",2,3,"right","left",0.546999931,0,0,0,1,NA,NA,NA,NA,NA,NA,NA,NA,NA,NA,NA,NA,NA,NA,NA,NA,NA,NA,NA,NA,NA,NA,NA,NA
"179","stim/objects/Instruments/bassguitar2.png",169,75,169,0.9,"stim/52.jpeg",5,2,3,NA,"Instruments",2,3,"right","",NA,0,0,0,1,NA,NA,NA,NA,NA,NA,NA,NA,NA,NA,NA,NA,NA,NA,NA,NA,NA,NA,NA,NA,NA,NA,NA,NA
"237","stim/objects/Instruments/doublebass.png",170,75,170,0.7,"stim/34.jpeg",3,4,2,NA,"Instruments",2,4,"right","",NA,0,0,0,1,NA,NA,NA,NA,NA,NA,NA,NA,NA,NA,NA,NA,NA,NA,NA,NA,NA,NA,NA,NA,NA,NA,NA,NA
"184","stim/objects/Instruments/cello.png",171,75,171,0.5,"stim/23.jpeg",2,3,1,NA,"Instruments",2,3,"right","right",0.849999905,1,1,0,1,NA,NA,NA,NA,NA,NA,NA,NA,NA,NA,NA,NA,NA,NA,NA,NA,NA,NA,NA,NA,NA,NA,NA,NA
"238","stim/objects/Instruments/doublebass.png",172,75,172,0.7,"stim/34.jpeg",3,4,2,NA,"Instruments",2,3,"right","right",0.78399992,1,1,0,1,NA,NA,NA,NA,NA,NA,NA,NA,NA,NA,NA,NA,NA,NA,NA,NA,NA,NA,NA,NA,NA,NA,NA,NA
"5","stim/objects/HouseObjects/ashtray.png",173,75,173,0.5,"stim/11.jpeg",1,1,1,NA,"HouseObjects",1,4,"left","",NA,0,0,0,1,NA,NA,NA,NA,NA,NA,NA,NA,NA,NA,NA,NA,NA,NA,NA,NA,NA,NA,NA,NA,NA,NA,NA,NA
"141","stim/objects/Instruments/balalaika.png",174,75,174,0.5,"stim/13.jpeg",1,3,1,NA,"Instruments",2,3,"right","left",0.86899972,0,0,0,1,NA,NA,NA,NA,NA,NA,NA,NA,NA,NA,NA,NA,NA,NA,NA,NA,NA,NA,NA,NA,NA,NA,NA,NA
"45","stim/objects/HouseObjects/basket2.png",175,75,175,0.7,"stim/44.jpeg",4,4,2,NA,"HouseObjects",1,1,"left","left",0.722000122,1,1,0,1,NA,NA,NA,NA,NA,NA,NA,NA,NA,NA,NA,NA,NA,NA,NA,NA,NA,NA,NA,NA,NA,NA,NA,NA
"106","stim/objects/HouseObjects/clothesdryingrack2.png",176,75,176,0.9,"stim/63.jpeg",6,3,3,NA,"HouseObjects",1,1,"left","left",0.561999798,1,1,0,1,NA,NA,NA,NA,NA,NA,NA,NA,NA,NA,NA,NA,NA,NA,NA,NA,NA,NA,NA,NA,NA,NA,NA,NA
"24","stim/objects/HouseObjects/ballofstring2.png",177,75,177,0.7,"stim/42.jpeg",4,2,2,NA,"HouseObjects",1,3,"left","left",0.70299983,1,1,0,1,NA,NA,NA,NA,NA,NA,NA,NA,NA,NA,NA,NA,NA,NA,NA,NA,NA,NA,NA,NA,NA,NA,NA,NA
"131","stim/objects/Instruments/acousticguitar.png",178,75,178,0.5,"stim/12.jpeg",1,2,1,NA,"Instruments",2,3,"right","left",0.785000086,0,0,0,1,NA,NA,NA,NA,NA,NA,NA,NA,NA,NA,NA,NA,NA,NA,NA,NA,NA,NA,NA,NA,NA,NA,NA,NA
"34","stim/objects/HouseObjects/barbecuelighter2.png",179,75,179,0.7,"stim/43.jpeg",4,3,2,NA,"HouseObjects",1,2,"left","left",0.732000113,1,1,0,1,NA,NA,NA,NA,NA,NA,NA,NA,NA,NA,NA,NA,NA,NA,NA,NA,NA,NA,NA,NA,NA,NA,NA,NA
"132","stim/objects/Instruments/acousticguitar.png",180,75,180,0.5,"stim/12.jpeg",1,2,1,NA,"Instruments",2,2,"right","right",0.750999928,1,1,0,1,NA,NA,NA,NA,NA,NA,NA,NA,NA,NA,NA,NA,NA,NA,NA,NA,NA,NA,NA,NA,NA,NA,NA,NA
"68","stim/objects/HouseObjects/broom.png",181,75,181,0.5,"stim/24.jpeg",2,4,1,NA,"HouseObjects",1,4,"left","right",0.713999748,0,0,0,1,NA,NA,NA,NA,NA,NA,NA,NA,NA,NA,NA,NA,NA,NA,NA,NA,NA,NA,NA,NA,NA,NA,NA,NA
"11","stim/objects/HouseObjects/ashtray2.png",182,75,182,0.7,"stim/41.jpeg",4,1,2,NA,"HouseObjects",1,4,"left","left",0.691999912,1,1,0,1,NA,NA,NA,NA,NA,NA,NA,NA,NA,NA,NA,NA,NA,NA,NA,NA,NA,NA,NA,NA,NA,NA,NA,NA
"156","stim/objects/Instruments/bassdrum.png",183,75,183,0.5,"stim/21.jpeg",2,1,1,NA,"Instruments",2,2,"right","right",0.707999945,1,1,0,1,NA,NA,NA,NA,NA,NA,NA,NA,NA,NA,NA,NA,NA,NA,NA,NA,NA,NA,NA,NA,NA,NA,NA,NA
"46","stim/objects/HouseObjects/basket2.png",184,75,184,0.7,"stim/44.jpeg",4,4,2,NA,"HouseObjects",1,4,"left","left",0.57799983,1,1,0,1,NA,NA,NA,NA,NA,NA,NA,NA,NA,NA,NA,NA,NA,NA,NA,NA,NA,NA,NA,NA,NA,NA,NA,NA
"28","stim/objects/HouseObjects/barbecuelighter.png",185,75,185,0.5,"stim/13.jpeg",1,3,1,NA,"HouseObjects",1,1,"left","left",0.712999821,1,1,0,1,NA,NA,NA,NA,NA,NA,NA,NA,NA,NA,NA,NA,NA,NA,NA,NA,NA,NA,NA,NA,NA,NA,NA,NA
"189","stim/objects/Instruments/cello2.png",186,75,186,0.9,"stim/53.jpeg",5,3,3,NA,"Instruments",2,3,"right","right",0.713999987,1,1,0,1,NA,NA,NA,NA,NA,NA,NA,NA,NA,NA,NA,NA,NA,NA,NA,NA,NA,NA,NA,NA,NA,NA,NA,NA
"69","stim/objects/HouseObjects/broom.png",187,75,187,0.5,"stim/24.jpeg",2,4,1,NA,"HouseObjects",1,3,"left","right",0.722999811,0,0,0,1,NA,NA,NA,NA,NA,NA,NA,NA,NA,NA,NA,NA,NA,NA,NA,NA,NA,NA,NA,NA,NA,NA,NA,NA
"12","stim/objects/HouseObjects/ashtray2.png",188,75,188,0.7,"stim/41.jpeg",4,1,2,NA,"HouseObjects",1,2,"left","left",0.710000038,1,1,0,1,NA,NA,NA,NA,NA,NA,NA,NA,NA,NA,NA,NA,NA,NA,NA,NA,NA,NA,NA,NA,NA,NA,NA,NA
"214","stim/objects/Instruments/clarinet.png",189,75,189,0.7,"stim/31.jpeg",3,1,2,NA,"Instruments",2,3,"right","right",0.691999912,1,1,0,1,NA,NA,NA,NA,NA,NA,NA,NA,NA,NA,NA,NA,NA,NA,NA,NA,NA,NA,NA,NA,NA,NA,NA,NA
"165","stim/objects/Instruments/bassdrum2.png",190,75,190,0.9,"stim/51.jpeg",5,1,3,NA,"Instruments",2,1,"right","right",0.556999922,1,1,0,1,NA,NA,NA,NA,NA,NA,NA,NA,NA,NA,NA,NA,NA,NA,NA,NA,NA,NA,NA,NA,NA,NA,NA,NA
"64","stim/objects/HouseObjects/bottle.png",191,75,191,0.5,"stim/23.jpeg",2,3,1,NA,"HouseObjects",1,3,"left","left",0.773999929,1,1,0,1,NA,NA,NA,NA,NA,NA,NA,NA,NA,NA,NA,NA,NA,NA,NA,NA,NA,NA,NA,NA,NA,NA,NA,NA
"180","stim/objects/Instruments/bassguitar2.png",192,75,192,0.9,"stim/52.jpeg",5,2,3,NA,"Instruments",2,4,"right","right",0.75,1,1,0,1,NA,NA,NA,NA,NA,NA,NA,NA,NA,NA,NA,NA,NA,NA,NA,NA,NA,NA,NA,NA,NA,NA,NA,NA
"222","stim/objects/Instruments/cornet.png",193,75,193,0.7,"stim/32.jpeg",3,2,2,NA,"Instruments",2,1,"right","",NA,0,0,0,1,NA,NA,NA,NA,NA,NA,NA,NA,NA,NA,NA,NA,NA,NA,NA,NA,NA,NA,NA,NA,NA,NA,NA,NA
"229","stim/objects/Instruments/cymbal.png",194,75,194,0.7,"stim/33.jpeg",3,3,2,NA,"Instruments",2,3,"right","",NA,0,0,0,1,NA,NA,NA,NA,NA,NA,NA,NA,NA,NA,NA,NA,NA,NA,NA,NA,NA,NA,NA,NA,NA,NA,NA,NA
"185","stim/objects/Instruments/cello.png",195,75,195,0.5,"stim/23.jpeg",2,3,1,NA,"Instruments",2,4,"right","right",0.749999762,1,1,0,1,NA,NA,NA,NA,NA,NA,NA,NA,NA,NA,NA,NA,NA,NA,NA,NA,NA,NA,NA,NA,NA,NA,NA,NA
"70","stim/objects/HouseObjects/broom.png",196,75,196,0.5,"stim/24.jpeg",2,4,1,NA,"HouseObjects",1,4,"left","left",0.674999952,1,1,0,1,NA,NA,NA,NA,NA,NA,NA,NA,NA,NA,NA,NA,NA,NA,NA,NA,NA,NA,NA,NA,NA,NA,NA,NA
"82","stim/objects/HouseObjects/bucket2.png",197,75,197,0.9,"stim/61.jpeg",6,1,3,NA,"HouseObjects",1,3,"left","left",0.555999994,1,1,0,1,NA,NA,NA,NA,NA,NA,NA,NA,NA,NA,NA,NA,NA,NA,NA,NA,NA,NA,NA,NA,NA,NA,NA,NA
"206","stim/objects/Instruments/chime2.png",198,75,198,0.9,"stim/54.jpeg",5,4,3,NA,"Instruments",2,1,"right","left",0.683000088,0,0,0,1,NA,NA,NA,NA,NA,NA,NA,NA,NA,NA,NA,NA,NA,NA,NA,NA,NA,NA,NA,NA,NA,NA,NA,NA
"71","stim/objects/HouseObjects/broom.png",199,75,199,0.5,"stim/24.jpeg",2,4,1,NA,"HouseObjects",1,2,"left","left",0.649999857,1,1,0,1,NA,NA,NA,NA,NA,NA,NA,NA,NA,NA,NA,NA,NA,NA,NA,NA,NA,NA,NA,NA,NA,NA,NA,NA
"190","stim/objects/Instruments/cello2.png",200,75,200,0.9,"stim/53.jpeg",5,3,3,NA,"Instruments",2,2,"right","right",0.684000015,1,1,0,1,NA,NA,NA,NA,NA,NA,NA,NA,NA,NA,NA,NA,NA,NA,NA,NA,NA,NA,NA,NA,NA,NA,NA,NA
"35","stim/objects/HouseObjects/barbecuelighter2.png",201,75,201,0.7,"stim/43.jpeg",4,3,2,NA,"HouseObjects",1,4,"left","left",0.61500001,1,1,0,1,NA,NA,NA,NA,NA,NA,NA,NA,NA,NA,NA,NA,NA,NA,NA,NA,NA,NA,NA,NA,NA,NA,NA,NA
"107","stim/objects/HouseObjects/clothesdryingrack2.png",202,75,202,0.9,"stim/63.jpeg",6,3,3,NA,"HouseObjects",1,4,"left","left",0.60800004,1,1,0,1,NA,NA,NA,NA,NA,NA,NA,NA,NA,NA,NA,NA,NA,NA,NA,NA,NA,NA,NA,NA,NA,NA,NA,NA
"191","stim/objects/Instruments/cello2.png",203,75,203,0.9,"stim/53.jpeg",5,3,3,NA,"Instruments",2,2,"right","right",0.559999943,1,1,0,1,NA,NA,NA,NA,NA,NA,NA,NA,NA,NA,NA,NA,NA,NA,NA,NA,NA,NA,NA,NA,NA,NA,NA,NA
"192","stim/objects/Instruments/cello2.png",204,75,204,0.9,"stim/53.jpeg",5,3,3,NA,"Instruments",2,1,"right","right",0.470999956,1,1,0,1,NA,NA,NA,NA,NA,NA,NA,NA,NA,NA,NA,NA,NA,NA,NA,NA,NA,NA,NA,NA,NA,NA,NA,NA
"223","stim/objects/Instruments/cornet.png",205,75,205,0.7,"stim/32.jpeg",3,2,2,NA,"Instruments",2,4,"right","left",0.746999979,0,0,0,1,NA,NA,NA,NA,NA,NA,NA,NA,NA,NA,NA,NA,NA,NA,NA,NA,NA,NA,NA,NA,NA,NA,NA,NA
"99","stim/objects/HouseObjects/clothesdryingrack.png",206,75,206,0.3,"stim/33.jpeg",3,3,2,NA,"HouseObjects",1,1,"left","right",0.785000086,0,0,0,1,NA,NA,NA,NA,NA,NA,NA,NA,NA,NA,NA,NA,NA,NA,NA,NA,NA,NA,NA,NA,NA,NA,NA,NA
"215","stim/objects/Instruments/clarinet.png",207,75,207,0.7,"stim/31.jpeg",3,1,2,NA,"Instruments",2,1,"right","right",0.715999842,1,1,0,1,NA,NA,NA,NA,NA,NA,NA,NA,NA,NA,NA,NA,NA,NA,NA,NA,NA,NA,NA,NA,NA,NA,NA,NA
"83","stim/objects/HouseObjects/bucket2.png",208,75,208,0.9,"stim/61.jpeg",6,1,3,NA,"HouseObjects",1,2,"left","left",0.542999983,1,1,0,1,NA,NA,NA,NA,NA,NA,NA,NA,NA,NA,NA,NA,NA,NA,NA,NA,NA,NA,NA,NA,NA,NA,NA,NA
"166","stim/objects/Instruments/bassdrum2.png",209,75,209,0.9,"stim/51.jpeg",5,1,3,NA,"Instruments",2,1,"right","right",0.713999748,1,1,0,1,NA,NA,NA,NA,NA,NA,NA,NA,NA,NA,NA,NA,NA,NA,NA,NA,NA,NA,NA,NA,NA,NA,NA,NA
"199","stim/objects/Instruments/chime.png",210,75,210,0.5,"stim/24.jpeg",2,4,1,NA,"Instruments",2,4,"right","left",0.526000023,0,0,0,1,NA,NA,NA,NA,NA,NA,NA,NA,NA,NA,NA,NA,NA,NA,NA,NA,NA,NA,NA,NA,NA,NA,NA,NA
"29","stim/objects/HouseObjects/barbecuelighter.png",211,75,211,0.5,"stim/13.jpeg",1,3,1,NA,"HouseObjects",1,1,"left","left",0.656000137,1,1,0,1,NA,NA,NA,NA,NA,NA,NA,NA,NA,NA,NA,NA,NA,NA,NA,NA,NA,NA,NA,NA,NA,NA,NA,NA
"40","stim/objects/HouseObjects/basket.png",212,75,212,0.5,"stim/14.jpeg",1,4,1,NA,"HouseObjects",1,3,"left","left",0.740999937,1,1,0,1,NA,NA,NA,NA,NA,NA,NA,NA,NA,NA,NA,NA,NA,NA,NA,NA,NA,NA,NA,NA,NA,NA,NA,NA
"136","stim/objects/Instruments/acousticguitar2.png",213,75,213,0.3,"stim/42.jpeg",4,2,2,NA,"Instruments",2,3,"right","left",0.656000137,0,0,0,1,NA,NA,NA,NA,NA,NA,NA,NA,NA,NA,NA,NA,NA,NA,NA,NA,NA,NA,NA,NA,NA,NA,NA,NA
"207","stim/objects/Instruments/chime2.png",214,75,214,0.9,"stim/54.jpeg",5,4,3,NA,"Instruments",2,4,"right","right",0.784999847,1,1,0,1,NA,NA,NA,NA,NA,NA,NA,NA,NA,NA,NA,NA,NA,NA,NA,NA,NA,NA,NA,NA,NA,NA,NA,NA
"170","stim/objects/Instruments/bassguitar.png",215,75,215,0.5,"stim/22.jpeg",2,2,1,NA,"Instruments",2,1,"right","left",0.815000057,0,0,0,1,NA,NA,NA,NA,NA,NA,NA,NA,NA,NA,NA,NA,NA,NA,NA,NA,NA,NA,NA,NA,NA,NA,NA,NA
"75","stim/objects/HouseObjects/bucket.png",216,75,216,0.3,"stim/31.jpeg",3,1,2,NA,"HouseObjects",1,2,"left","right",0.790999889,0,0,0,1,NA,NA,NA,NA,NA,NA,NA,NA,NA,NA,NA,NA,NA,NA,NA,NA,NA,NA,NA,NA,NA,NA,NA,NA
"144","stim/objects/Instruments/balalaika2.png",217,75,217,0.3,"stim/43.jpeg",4,3,2,NA,"Instruments",2,2,"right","left",0.648999929,0,0,0,1,NA,NA,NA,NA,NA,NA,NA,NA,NA,NA,NA,NA,NA,NA,NA,NA,NA,NA,NA,NA,NA,NA,NA,NA
"148","stim/objects/Instruments/banjo.png",218,75,218,0.5,"stim/14.jpeg",1,4,1,NA,"Instruments",2,3,"right","left",0.684999943,0,0,0,1,NA,NA,NA,NA,NA,NA,NA,NA,NA,NA,NA,NA,NA,NA,NA,NA,NA,NA,NA,NA,NA,NA,NA,NA
"208","stim/objects/Instruments/chime2.png",219,75,219,0.9,"stim/54.jpeg",5,4,3,NA,"Instruments",2,4,"right","right",0.641000032,1,1,0,1,NA,NA,NA,NA,NA,NA,NA,NA,NA,NA,NA,NA,NA,NA,NA,NA,NA,NA,NA,NA,NA,NA,NA,NA
"193","stim/objects/Instruments/cello2.png",220,75,220,0.9,"stim/53.jpeg",5,3,3,NA,"Instruments",2,4,"right","right",0.669999838,1,1,0,1,NA,NA,NA,NA,NA,NA,NA,NA,NA,NA,NA,NA,NA,NA,NA,NA,NA,NA,NA,NA,NA,NA,NA,NA
"84","stim/objects/HouseObjects/bucket2.png",221,75,221,0.9,"stim/61.jpeg",6,1,3,NA,"HouseObjects",1,2,"left","left",0.649999857,1,1,0,1,NA,NA,NA,NA,NA,NA,NA,NA,NA,NA,NA,NA,NA,NA,NA,NA,NA,NA,NA,NA,NA,NA,NA,NA
"171","stim/objects/Instruments/bassguitar.png",222,75,222,0.5,"stim/22.jpeg",2,2,1,NA,"Instruments",2,2,"right","left",0.648999929,0,0,0,1,NA,NA,NA,NA,NA,NA,NA,NA,NA,NA,NA,NA,NA,NA,NA,NA,NA,NA,NA,NA,NA,NA,NA,NA
"125","stim/objects/Instruments/accordion.png",223,75,223,0.5,"stim/11.jpeg",1,1,1,NA,"Instruments",2,3,"right","left",0.746000051,0,0,0,1,NA,NA,NA,NA,NA,NA,NA,NA,NA,NA,NA,NA,NA,NA,NA,NA,NA,NA,NA,NA,NA,NA,NA,NA
"65","stim/objects/HouseObjects/bottle.png",224,75,224,0.5,"stim/23.jpeg",2,3,1,NA,"HouseObjects",1,1,"left","right",0.845000029,0,0,0,1,NA,NA,NA,NA,NA,NA,NA,NA,NA,NA,NA,NA,NA,NA,NA,NA,NA,NA,NA,NA,NA,NA,NA,NA
"230","stim/objects/Instruments/cymbal.png",225,75,225,0.7,"stim/33.jpeg",3,3,2,NA,"Instruments",2,3,"right","",NA,0,0,0,1,NA,NA,NA,NA,NA,NA,NA,NA,NA,NA,NA,NA,NA,NA,NA,NA,NA,NA,NA,NA,NA,NA,NA,NA
"47","stim/objects/HouseObjects/basket2.png",226,75,226,0.7,"stim/44.jpeg",4,4,2,NA,"HouseObjects",1,3,"left","left",0.674999714,1,1,0,1,NA,NA,NA,NA,NA,NA,NA,NA,NA,NA,NA,NA,NA,NA,NA,NA,NA,NA,NA,NA,NA,NA,NA,NA
"194","stim/objects/Instruments/cello2.png",227,75,227,0.9,"stim/53.jpeg",5,3,3,NA,"Instruments",2,2,"right","right",0.589999914,1,1,0,1,NA,NA,NA,NA,NA,NA,NA,NA,NA,NA,NA,NA,NA,NA,NA,NA,NA,NA,NA,NA,NA,NA,NA,NA
"108","stim/objects/HouseObjects/clothesdryingrack2.png",228,75,228,0.9,"stim/63.jpeg",6,3,3,NA,"HouseObjects",1,4,"left","left",0.524999857,1,1,0,1,NA,NA,NA,NA,NA,NA,NA,NA,NA,NA,NA,NA,NA,NA,NA,NA,NA,NA,NA,NA,NA,NA,NA,NA
"59","stim/objects/HouseObjects/blender.png",229,75,229,0.5,"stim/22.jpeg",2,2,1,NA,"HouseObjects",1,3,"left","left",0.758999825,1,1,0,1,NA,NA,NA,NA,NA,NA,NA,NA,NA,NA,NA,NA,NA,NA,NA,NA,NA,NA,NA,NA,NA,NA,NA,NA
"231","stim/objects/Instruments/cymbal.png",230,75,230,0.7,"stim/33.jpeg",3,3,2,NA,"Instruments",2,1,"right","right",0.861000061,1,1,0,1,NA,NA,NA,NA,NA,NA,NA,NA,NA,NA,NA,NA,NA,NA,NA,NA,NA,NA,NA,NA,NA,NA,NA,NA
"87","stim/objects/HouseObjects/clock.png",231,75,231,0.3,"stim/32.jpeg",3,2,2,NA,"HouseObjects",1,3,"left","left",0.775999784,1,1,0,1,NA,NA,NA,NA,NA,NA,NA,NA,NA,NA,NA,NA,NA,NA,NA,NA,NA,NA,NA,NA,NA,NA,NA,NA
"120","stim/objects/HouseObjects/clothespin2.png",232,75,232,0.9,"stim/64.jpeg",6,4,3,NA,"HouseObjects",1,2,"left","left",0.626999855,1,1,0,1,NA,NA,NA,NA,NA,NA,NA,NA,NA,NA,NA,NA,NA,NA,NA,NA,NA,NA,NA,NA,NA,NA,NA,NA
"48","stim/objects/HouseObjects/basket2.png",233,75,233,0.7,"stim/44.jpeg",4,4,2,NA,"HouseObjects",1,3,"left","left",0.625,1,1,0,1,NA,NA,NA,NA,NA,NA,NA,NA,NA,NA,NA,NA,NA,NA,NA,NA,NA,NA,NA,NA,NA,NA,NA,NA
"17","stim/objects/HouseObjects/ballofstring.png",234,75,234,0.5,"stim/12.jpeg",1,2,1,NA,"HouseObjects",1,2,"left","",NA,0,0,0,1,NA,NA,NA,NA,NA,NA,NA,NA,NA,NA,NA,NA,NA,NA,NA,NA,NA,NA,NA,NA,NA,NA,NA,NA
"149","stim/objects/Instruments/banjo.png",235,75,235,0.5,"stim/14.jpeg",1,4,1,NA,"Instruments",2,3,"right","left",0.835000038,0,0,0,1,NA,NA,NA,NA,NA,NA,NA,NA,NA,NA,NA,NA,NA,NA,NA,NA,NA,NA,NA,NA,NA,NA,NA,NA
"41","stim/objects/HouseObjects/basket.png",236,75,236,0.5,"stim/14.jpeg",1,4,1,NA,"HouseObjects",1,4,"left","left",0.506999969,1,1,0,1,NA,NA,NA,NA,NA,NA,NA,NA,NA,NA,NA,NA,NA,NA,NA,NA,NA,NA,NA,NA,NA,NA,NA,NA
"157","stim/objects/Instruments/bassdrum.png",237,75,237,0.5,"stim/21.jpeg",2,1,1,NA,"Instruments",2,1,"right","right",0.775999784,1,1,0,1,NA,NA,NA,NA,NA,NA,NA,NA,NA,NA,NA,NA,NA,NA,NA,NA,NA,NA,NA,NA,NA,NA,NA,NA
"239","stim/objects/Instruments/doublebass.png",238,75,238,0.7,"stim/34.jpeg",3,4,2,NA,"Instruments",2,4,"right","left",0.861999989,0,0,0,1,NA,NA,NA,NA,NA,NA,NA,NA,NA,NA,NA,NA,NA,NA,NA,NA,NA,NA,NA,NA,NA,NA,NA,NA
"36","stim/objects/HouseObjects/barbecuelighter2.png",239,75,239,0.7,"stim/43.jpeg",4,3,2,NA,"HouseObjects",1,4,"left","left",0.603999853,1,1,0,1,NA,NA,NA,NA,NA,NA,NA,NA,NA,NA,NA,NA,NA,NA,NA,NA,NA,NA,NA,NA,NA,NA,NA,NA
"133","stim/objects/Instruments/acousticguitar.png",240,75,240,0.5,"stim/12.jpeg",1,2,1,NA,"Instruments",2,2,"right","",NA,0,0,0,1,NA,NA,NA,NA,NA,NA,NA,NA,NA,NA,NA,NA,NA,NA,NA,NA,NA,NA,NA,NA,NA,NA,NA,NA
"359","stim/objects/HouseObjects/pitcher.png",248,75,241,0.9,"stim/64.jpeg",6,4,3,2,"HouseObjects",1,4,"left","",NA,0,0,1,0,NA,NA,NA,NA,NA,NA,NA,NA,NA,NA,NA,NA,NA,NA,NA,NA,NA,NA,NA,NA,NA,NA,NA,NA
"490","stim/objects/Instruments/musicsheet.png",249,75,242,0.9,"stim/54.jpeg",5,4,3,2,"Instruments",2,1,"right","right",0.657000065,1,1,1,0,NA,NA,NA,NA,NA,NA,NA,NA,NA,NA,NA,NA,NA,NA,NA,NA,NA,NA,NA,NA,NA,NA,NA,NA
"547","stim/objects/Instruments/record.png",250,75,243,0.5,"stim/14.jpeg",1,4,1,1,"Instruments",2,1,"right","",NA,0,0,1,0,187,75,1,0.5,1,"stim/14.jpeg",1,4,"stim/14.jpeg",1,"left",2.535000086,2,2,3.060000181,2,3.326000214,187,1,0,0,0,0,0
"570","stim/objects/Instruments/xylophone2.png",251,75,244,0.1,"stim/64.jpeg",6,4,3,1,"Instruments",2,4,"right","left",0.576999903,0,0,1,0,144,75,1,0.1,2,"stim/64.jpeg",6,4,"stim/64.jpeg",4,"right",0.593000174,4,4,11.38000035,2,3.35800004,144,0,1,NA,0,NA,0
"256","stim/objects/HouseObjects/flyswatter.png",252,75,245,0.5,"stim/23.jpeg",2,3,1,2,"HouseObjects",1,4,"left","right",0.774999857,0,0,1,0,NA,NA,NA,NA,NA,NA,NA,NA,NA,NA,NA,NA,NA,NA,NA,NA,NA,NA,NA,NA,NA,NA,NA,NA
"400","stim/objects/HouseObjects/towel.png",253,75,246,0.3,"stim/33.jpeg",3,3,2,1,"HouseObjects",1,4,"left","left",0.801999807,1,1,1,0,200,75,1,0.3,1,"stim/33.jpeg",3,3,"stim/33.jpeg",4,"left",1.345000029,3,1,4.964000225,1,3.470000029,200,1,0,0,0,0,0
"394","stim/objects/HouseObjects/teapot.png",254,75,247,0.5,"stim/21.jpeg",2,1,1,1,"HouseObjects",1,4,"left","left",0.869999886,1,1,1,0,101,75,1,0.5,2,"stim/21.jpeg",2,1,"stim/21.jpeg",4,"right",0.892000198,3,4,3.877000093,1,2.602000237,101,0,0,NA,0,NA,0
"554","stim/objects/Instruments/tambourine2.png",255,75,248,0.1,"stim/64.jpeg",6,4,3,1,"Instruments",2,4,"right","left",0.637999773,0,0,1,0,128,75,1,0.1,2,"stim/64.jpeg",6,4,"stim/64.jpeg",4,"left",1.53000021,3,4,5.667999983,4,2.066000223,128,1,1,1,1,1,0
"325","stim/objects/HouseObjects/match.png",256,75,249,0.9,"stim/62.jpeg",6,2,3,2,"HouseObjects",1,1,"left","right",0.842000008,0,0,1,0,NA,NA,NA,NA,NA,NA,NA,NA,NA,NA,NA,NA,NA,NA,NA,NA,NA,NA,NA,NA,NA,NA,NA,NA
"524","stim/objects/Instruments/oboe.png",257,75,250,0.9,"stim/54.jpeg",5,4,3,2,"Instruments",2,2,"right","right",0.686999798,1,1,1,0,NA,NA,NA,NA,NA,NA,NA,NA,NA,NA,NA,NA,NA,NA,NA,NA,NA,NA,NA,NA,NA,NA,NA,NA
"393","stim/objects/HouseObjects/spraybottle2.png",258,75,251,0.9,"stim/64.jpeg",6,4,3,1,"HouseObjects",1,4,"left","right",0.786999941,0,0,1,0,90,75,1,0.9,1,"stim/64.jpeg",6,4,"stim/64.jpeg",4,"left",1.099000216,3,1,4.056000233,2,2.235000134,90,1,0,0,0,0,0
"427","stim/objects/Instruments/grandpiano.png",259,75,252,0.5,"stim/24.jpeg",2,4,1,2,"Instruments",2,1,"right","right",0.769000053,1,1,1,0,NA,NA,NA,NA,NA,NA,NA,NA,NA,NA,NA,NA,NA,NA,NA,NA,NA,NA,NA,NA,NA,NA,NA,NA
"342","stim/objects/HouseObjects/pan.png",260,75,253,0.9,"stim/61.jpeg",6,1,3,2,"HouseObjects",1,1,"left","",NA,0,0,1,0,NA,NA,NA,NA,NA,NA,NA,NA,NA,NA,NA,NA,NA,NA,NA,NA,NA,NA,NA,NA,NA,NA,NA,NA
"343","stim/objects/HouseObjects/pan.png",261,75,254,0.9,"stim/62.jpeg",6,2,3,2,"HouseObjects",1,2,"left","right",0.666000128,0,0,1,0,NA,NA,NA,NA,NA,NA,NA,NA,NA,NA,NA,NA,NA,NA,NA,NA,NA,NA,NA,NA,NA,NA,NA,NA
"396","stim/objects/HouseObjects/thermometer.png",262,75,255,0.3,"stim/31.jpeg",3,1,2,1,"HouseObjects",1,1,"left","left",0.763000011,1,1,1,0,184,75,1,0.3,1,"stim/31.jpeg",3,1,"stim/31.jpeg",1,"right",1.178000212,2,1,4.096000195,2,0.930000305,184,0,1,NA,0,NA,0
"456","stim/objects/Instruments/marimba.png",263,75,256,0.9,"stim/54.jpeg",5,4,3,2,"Instruments",2,4,"right","right",0.732000113,1,1,1,0,NA,NA,NA,NA,NA,NA,NA,NA,NA,NA,NA,NA,NA,NA,NA,NA,NA,NA,NA,NA,NA,NA,NA,NA
"391","stim/objects/HouseObjects/sponge2.png",264,75,257,0.9,"stim/63.jpeg",6,3,3,1,"HouseObjects",1,4,"left","left",0.78399992,1,1,1,0,91,75,1,0.9,1,"stim/63.jpeg",6,3,"stim/63.jpeg",4,"left",1.00600028,4,3,3.658000231,3,4.027000189,91,1,1,1,0,0,0
"395","stim/objects/HouseObjects/teapot2.png",265,75,258,0.9,"stim/61.jpeg",6,1,3,1,"HouseObjects",1,1,"left","right",0.853999853,0,0,1,0,34,75,1,0.9,1,"stim/61.jpeg",6,1,"stim/61.jpeg",1,"right",0.943000078,4,1,5.132000208,3,6.022000074,34,0,1,NA,0,NA,0
"551","stim/objects/Instruments/speaker.png",266,75,259,0.5,"stim/24.jpeg",2,4,1,1,"Instruments",2,1,"right","left",0.649999857,0,0,1,0,85,75,1,0.5,2,"stim/24.jpeg",2,4,"stim/24.jpeg",1,"left",2.394000053,3,1,5.918000221,4,2.514000177,85,1,0,0,0,0,0
"262","stim/objects/HouseObjects/glass.png",267,75,260,0.5,"stim/22.jpeg",2,2,1,2,"HouseObjects",1,4,"left","left",0.730000019,1,1,1,0,NA,NA,NA,NA,NA,NA,NA,NA,NA,NA,NA,NA,NA,NA,NA,NA,NA,NA,NA,NA,NA,NA,NA,NA
"508","stim/objects/Instruments/musicstand.png",268,75,261,0.9,"stim/54.jpeg",5,4,3,2,"Instruments",2,4,"right","",NA,0,0,1,0,NA,NA,NA,NA,NA,NA,NA,NA,NA,NA,NA,NA,NA,NA,NA,NA,NA,NA,NA,NA,NA,NA,NA,NA
"292","stim/objects/HouseObjects/knife.png",269,75,262,0.9,"stim/62.jpeg",6,2,3,2,"HouseObjects",1,1,"left","left",0.622999907,1,1,1,0,NA,NA,NA,NA,NA,NA,NA,NA,NA,NA,NA,NA,NA,NA,NA,NA,NA,NA,NA,NA,NA,NA,NA,NA
"457","stim/objects/Instruments/marimba.png",270,75,263,0.9,"stim/53.jpeg",5,3,3,2,"Instruments",2,3,"right","right",0.526000023,1,1,1,0,NA,NA,NA,NA,NA,NA,NA,NA,NA,NA,NA,NA,NA,NA,NA,NA,NA,NA,NA,NA,NA,NA,NA,NA
"436","stim/objects/Instruments/harp.png",271,75,264,0.7,"stim/34.jpeg",3,4,2,2,"Instruments",2,2,"right","right",0.730000019,1,1,1,0,NA,NA,NA,NA,NA,NA,NA,NA,NA,NA,NA,NA,NA,NA,NA,NA,NA,NA,NA,NA,NA,NA,NA,NA
"293","stim/objects/HouseObjects/knife.png",272,75,265,0.9,"stim/63.jpeg",6,3,3,2,"HouseObjects",1,1,"left","left",0.509000063,1,1,1,0,NA,NA,NA,NA,NA,NA,NA,NA,NA,NA,NA,NA,NA,NA,NA,NA,NA,NA,NA,NA,NA,NA,NA,NA
"360","stim/objects/HouseObjects/pitcher.png",273,75,266,0.9,"stim/64.jpeg",6,4,3,2,"HouseObjects",1,2,"left","left",0.595999956,1,1,1,0,NA,NA,NA,NA,NA,NA,NA,NA,NA,NA,NA,NA,NA,NA,NA,NA,NA,NA,NA,NA,NA,NA,NA,NA
"475","stim/objects/Instruments/metronome.png",274,75,267,0.9,"stim/51.jpeg",5,1,3,2,"Instruments",2,1,"right","right",0.714999914,1,1,1,0,NA,NA,NA,NA,NA,NA,NA,NA,NA,NA,NA,NA,NA,NA,NA,NA,NA,NA,NA,NA,NA,NA,NA,NA
"392","stim/objects/HouseObjects/spraybottle.png",275,75,268,0.5,"stim/24.jpeg",2,4,1,1,"HouseObjects",1,3,"left","left",0.681999922,1,1,1,0,33,75,1,0.5,2,"stim/24.jpeg",2,4,"stim/24.jpeg",3,"right",2.798000097,2,4,4.368000269,2,3.142000198,33,0,1,NA,0,NA,0
"309","stim/objects/HouseObjects/lintroller.png",276,75,269,0.9,"stim/61.jpeg",6,1,3,2,"HouseObjects",1,2,"left","left",0.517999887,1,1,1,0,NA,NA,NA,NA,NA,NA,NA,NA,NA,NA,NA,NA,NA,NA,NA,NA,NA,NA,NA,NA,NA,NA,NA,NA
"509","stim/objects/Instruments/musicstand.png",277,75,270,0.9,"stim/53.jpeg",5,3,3,2,"Instruments",2,1,"right","right",0.664999962,1,1,1,0,NA,NA,NA,NA,NA,NA,NA,NA,NA,NA,NA,NA,NA,NA,NA,NA,NA,NA,NA,NA,NA,NA,NA,NA
"472","stim/objects/Instruments/marimba2.png",278,75,271,0.9,"stim/53.jpeg",5,3,3,1,"Instruments",2,1,"right","right",0.49000001,1,1,1,0,20,75,1,0.9,2,"stim/53.jpeg",5,3,"stim/53.jpeg",1,"right",0.818000078,3,4,6.511000156,3,3.209000111,20,0,0,NA,0,NA,0
"412","stim/objects/Instruments/electricguitar.png",279,75,272,0.5,"stim/12.jpeg",1,2,1,2,"Instruments",2,2,"right","left",0.806999922,0,0,1,0,NA,NA,NA,NA,NA,NA,NA,NA,NA,NA,NA,NA,NA,NA,NA,NA,NA,NA,NA,NA,NA,NA,NA,NA
"326","stim/objects/HouseObjects/match.png",280,75,273,0.9,"stim/64.jpeg",6,4,3,2,"HouseObjects",1,1,"left","left",0.523000002,1,1,1,0,NA,NA,NA,NA,NA,NA,NA,NA,NA,NA,NA,NA,NA,NA,NA,NA,NA,NA,NA,NA,NA,NA,NA,NA
"476","stim/objects/Instruments/metronome.png",281,75,274,0.9,"stim/54.jpeg",5,4,3,2,"Instruments",2,1,"right","right",0.624999762,1,1,1,0,NA,NA,NA,NA,NA,NA,NA,NA,NA,NA,NA,NA,NA,NA,NA,NA,NA,NA,NA,NA,NA,NA,NA,NA
"510","stim/objects/Instruments/musicstand.png",282,75,275,0.9,"stim/53.jpeg",5,3,3,2,"Instruments",2,4,"right","right",0.649999857,1,1,1,0,NA,NA,NA,NA,NA,NA,NA,NA,NA,NA,NA,NA,NA,NA,NA,NA,NA,NA,NA,NA,NA,NA,NA,NA
"295","stim/objects/HouseObjects/knife.png",283,75,276,0.9,"stim/63.jpeg",6,3,3,2,"HouseObjects",1,4,"left","left",0.529999971,1,1,1,0,NA,NA,NA,NA,NA,NA,NA,NA,NA,NA,NA,NA,NA,NA,NA,NA,NA,NA,NA,NA,NA,NA,NA,NA
"385","stim/objects/HouseObjects/safetypin2.png",284,75,277,0.1,"stim/52.jpeg",5,2,3,1,"HouseObjects",1,4,"left","right",0.620000124,0,0,1,0,23,75,1,0.1,1,"stim/52.jpeg",5,2,"stim/52.jpeg",4,"left",2.927000284,2,2,8.213000059,3,4.062000036,23,1,1,1,0,0,0
"477","stim/objects/Instruments/metronome.png",285,75,278,0.9,"stim/53.jpeg",5,3,3,2,"Instruments",2,3,"right","right",0.808000088,1,1,1,0,NA,NA,NA,NA,NA,NA,NA,NA,NA,NA,NA,NA,NA,NA,NA,NA,NA,NA,NA,NA,NA,NA,NA,NA
"494","stim/objects/Instruments/musicsheet.png",286,75,279,0.9,"stim/53.jpeg",5,3,3,2,"Instruments",2,1,"right","right",0.436000109,1,1,1,0,NA,NA,NA,NA,NA,NA,NA,NA,NA,NA,NA,NA,NA,NA,NA,NA,NA,NA,NA,NA,NA,NA,NA,NA
"478","stim/objects/Instruments/metronome.png",287,75,280,0.9,"stim/51.jpeg",5,1,3,2,"Instruments",2,3,"right","right",0.660000086,1,1,1,0,NA,NA,NA,NA,NA,NA,NA,NA,NA,NA,NA,NA,NA,NA,NA,NA,NA,NA,NA,NA,NA,NA,NA,NA
"525","stim/objects/Instruments/oboe.png",288,75,281,0.9,"stim/51.jpeg",5,1,3,2,"Instruments",2,4,"right","right",0.41899991,1,1,1,0,NA,NA,NA,NA,NA,NA,NA,NA,NA,NA,NA,NA,NA,NA,NA,NA,NA,NA,NA,NA,NA,NA,NA,NA
"287","stim/objects/HouseObjects/key.png",289,75,282,0.7,"stim/41.jpeg",4,1,2,2,"HouseObjects",1,3,"left","left",0.754999876,1,1,1,0,NA,NA,NA,NA,NA,NA,NA,NA,NA,NA,NA,NA,NA,NA,NA,NA,NA,NA,NA,NA,NA,NA,NA,NA
"310","stim/objects/HouseObjects/lintroller.png",290,75,283,0.9,"stim/62.jpeg",6,2,3,2,"HouseObjects",1,2,"left","left",0.568000078,1,1,1,0,NA,NA,NA,NA,NA,NA,NA,NA,NA,NA,NA,NA,NA,NA,NA,NA,NA,NA,NA,NA,NA,NA,NA,NA
"264","stim/objects/HouseObjects/glass2.png",291,75,284,0.7,"stim/42.jpeg",4,2,2,1,"HouseObjects",1,2,"left","left",0.661000013,1,1,1,0,195,75,1,0.7,1,"stim/42.jpeg",4,2,"stim/42.jpeg",2,"right",3.546000242,1,1,3.286000252,3,2.729000092,195,0,0,NA,0,NA,0
"288","stim/objects/HouseObjects/key.png",292,75,285,0.7,"stim/43.jpeg",4,3,2,2,"HouseObjects",1,3,"left","left",0.619999886,1,1,1,0,NA,NA,NA,NA,NA,NA,NA,NA,NA,NA,NA,NA,NA,NA,NA,NA,NA,NA,NA,NA,NA,NA,NA,NA
"258","stim/objects/HouseObjects/flyswatter2.png",293,75,286,0.7,"stim/44.jpeg",4,4,2,1,"HouseObjects",1,1,"left","left",0.619999886,1,1,1,0,188,75,1,0.7,1,"stim/44.jpeg",4,4,"stim/44.jpeg",1,"right",0.795000076,4,1,3.599000216,1,1.742000103,188,0,0,NA,1,NA,0
"479","stim/objects/Instruments/metronome.png",294,75,287,0.9,"stim/52.jpeg",5,2,3,2,"Instruments",2,4,"right","right",0.780999899,1,1,1,0,NA,NA,NA,NA,NA,NA,NA,NA,NA,NA,NA,NA,NA,NA,NA,NA,NA,NA,NA,NA,NA,NA,NA,NA
"259","stim/objects/HouseObjects/garbagebin.png",295,75,288,0.5,"stim/21.jpeg",2,1,1,2,"HouseObjects",1,4,"left","left",0.721999884,1,1,1,0,NA,NA,NA,NA,NA,NA,NA,NA,NA,NA,NA,NA,NA,NA,NA,NA,NA,NA,NA,NA,NA,NA,NA,NA
"447","stim/objects/Instruments/keyboard2.png",296,75,289,0.3,"stim/41.jpeg",4,1,2,1,"Instruments",2,4,"right","left",0.678999901,0,0,1,0,145,75,1,0.3,2,"stim/41.jpeg",4,1,"stim/41.jpeg",4,"right",0.918000221,3,1,3.265000105,2,1.959000111,145,0,1,NA,0,NA,0
"250","stim/objects/HouseObjects/doormat.png",297,75,290,0.5,"stim/14.jpeg",1,4,1,2,"HouseObjects",1,4,"left","right",0.832000017,0,0,1,0,NA,NA,NA,NA,NA,NA,NA,NA,NA,NA,NA,NA,NA,NA,NA,NA,NA,NA,NA,NA,NA,NA,NA,NA
"244","stim/objects/HouseObjects/cushion.png",298,75,291,0.5,"stim/12.jpeg",1,2,1,2,"HouseObjects",1,4,"left","right",0.809000015,0,0,1,0,NA,NA,NA,NA,NA,NA,NA,NA,NA,NA,NA,NA,NA,NA,NA,NA,NA,NA,NA,NA,NA,NA,NA,NA
"311","stim/objects/HouseObjects/lintroller.png",299,75,292,0.9,"stim/63.jpeg",6,3,3,2,"HouseObjects",1,1,"left","left",0.561999798,1,1,1,0,NA,NA,NA,NA,NA,NA,NA,NA,NA,NA,NA,NA,NA,NA,NA,NA,NA,NA,NA,NA,NA,NA,NA,NA
"345","stim/objects/HouseObjects/pan.png",300,75,293,0.9,"stim/63.jpeg",6,3,3,2,"HouseObjects",1,1,"left","left",0.473999739,1,1,1,0,NA,NA,NA,NA,NA,NA,NA,NA,NA,NA,NA,NA,NA,NA,NA,NA,NA,NA,NA,NA,NA,NA,NA,NA
"271","stim/objects/HouseObjects/handbrush.png",301,75,294,0.7,"stim/41.jpeg",4,1,2,2,"HouseObjects",1,2,"left","right",0.726999998,0,0,1,0,NA,NA,NA,NA,NA,NA,NA,NA,NA,NA,NA,NA,NA,NA,NA,NA,NA,NA,NA,NA,NA,NA,NA,NA
"307","stim/objects/HouseObjects/knife2.png",302,75,295,0.1,"stim/51.jpeg",5,1,3,1,"HouseObjects",1,3,"left","right",0.650999784,0,0,1,0,168,75,1,0.1,1,"stim/51.jpeg",5,1,"stim/51.jpeg",3,"left",1.308000088,4,2,3.163000107,2,2.161000013,168,1,0,0,0,0,0
"279","stim/objects/HouseObjects/iron.png",303,75,296,0.7,"stim/44.jpeg",4,4,2,2,"HouseObjects",1,3,"left","left",0.721999884,1,1,1,0,NA,NA,NA,NA,NA,NA,NA,NA,NA,NA,NA,NA,NA,NA,NA,NA,NA,NA,NA,NA,NA,NA,NA,NA
"474","stim/objects/Instruments/metronome.png",304,75,297,0.9,"stim/54.jpeg",5,4,3,2,"Instruments",2,2,"right","right",0.657999992,1,1,1,0,NA,NA,NA,NA,NA,NA,NA,NA,NA,NA,NA,NA,NA,NA,NA,NA,NA,NA,NA,NA,NA,NA,NA,NA
"362","stim/objects/HouseObjects/pitcher.png",305,75,298,0.9,"stim/61.jpeg",6,1,3,2,"HouseObjects",1,1,"left","left",0.724999905,1,1,1,0,NA,NA,NA,NA,NA,NA,NA,NA,NA,NA,NA,NA,NA,NA,NA,NA,NA,NA,NA,NA,NA,NA,NA,NA
"489","stim/objects/Instruments/metronome2.png",306,75,299,0.9,"stim/54.jpeg",5,4,3,1,"Instruments",2,3,"right","left",0.581999779,0,0,1,0,173,75,1,0.9,2,"stim/54.jpeg",5,4,"stim/54.jpeg",3,"left",1.947000265,2,4,8.652000189,4,4.448000193,173,1,1,1,0,0,0
"363","stim/objects/HouseObjects/pitcher.png",307,75,300,0.9,"stim/62.jpeg",6,2,3,2,"HouseObjects",1,4,"left","left",0.551000118,1,1,1,0,NA,NA,NA,NA,NA,NA,NA,NA,NA,NA,NA,NA,NA,NA,NA,NA,NA,NA,NA,NA,NA,NA,NA,NA
"458","stim/objects/Instruments/marimba.png",308,75,301,0.9,"stim/54.jpeg",5,4,3,2,"Instruments",2,3,"right","right",0.656999826,1,1,1,0,NA,NA,NA,NA,NA,NA,NA,NA,NA,NA,NA,NA,NA,NA,NA,NA,NA,NA,NA,NA,NA,NA,NA,NA
"560","stim/objects/Instruments/trombone2.png",309,75,302,0.1,"stim/63.jpeg",6,3,3,1,"Instruments",2,4,"right","left",0.50999999,0,0,1,0,68,75,1,0.1,2,"stim/63.jpeg",6,3,"stim/63.jpeg",4,"right",0.677000284,4,3,3.98900032,2,6.139000177,68,0,1,NA,0,NA,0
"564","stim/objects/Instruments/tuba2.png",310,75,303,0.1,"stim/61.jpeg",6,1,3,1,"Instruments",2,2,"right","left",0.687999964,0,0,1,0,78,75,1,0.1,2,"stim/61.jpeg",6,1,"stim/61.jpeg",2,"right",0.669000387,3,4,6.981000185,2,4.34100008,78,0,0,NA,1,NA,0
"511","stim/objects/Instruments/musicstand.png",311,75,304,0.9,"stim/51.jpeg",5,1,3,2,"Instruments",2,3,"right","right",0.552999973,1,1,1,0,NA,NA,NA,NA,NA,NA,NA,NA,NA,NA,NA,NA,NA,NA,NA,NA,NA,NA,NA,NA,NA,NA,NA,NA
"459","stim/objects/Instruments/marimba.png",312,75,305,0.9,"stim/52.jpeg",5,2,3,2,"Instruments",2,3,"right","right",0.451999903,1,1,1,0,NA,NA,NA,NA,NA,NA,NA,NA,NA,NA,NA,NA,NA,NA,NA,NA,NA,NA,NA,NA,NA,NA,NA,NA
"298","stim/objects/HouseObjects/knife.png",313,75,306,0.9,"stim/61.jpeg",6,1,3,2,"HouseObjects",1,2,"left","left",0.563999891,1,1,1,0,NA,NA,NA,NA,NA,NA,NA,NA,NA,NA,NA,NA,NA,NA,NA,NA,NA,NA,NA,NA,NA,NA,NA,NA
"495","stim/objects/Instruments/musicsheet.png",314,75,307,0.9,"stim/52.jpeg",5,2,3,2,"Instruments",2,2,"right","right",0.538999796,1,1,1,0,NA,NA,NA,NA,NA,NA,NA,NA,NA,NA,NA,NA,NA,NA,NA,NA,NA,NA,NA,NA,NA,NA,NA,NA
"527","stim/objects/Instruments/oboe.png",315,75,308,0.9,"stim/54.jpeg",5,4,3,2,"Instruments",2,2,"right","",NA,0,0,1,0,NA,NA,NA,NA,NA,NA,NA,NA,NA,NA,NA,NA,NA,NA,NA,NA,NA,NA,NA,NA,NA,NA,NA,NA
"430","stim/objects/Instruments/guitarcase.png",316,75,309,0.5,"stim/21.jpeg",2,1,1,2,"Instruments",2,1,"right","left",0.740999937,0,0,1,0,NA,NA,NA,NA,NA,NA,NA,NA,NA,NA,NA,NA,NA,NA,NA,NA,NA,NA,NA,NA,NA,NA,NA,NA
"282","stim/objects/HouseObjects/iron2.png",317,75,310,0.7,"stim/43.jpeg",4,3,2,1,"HouseObjects",1,2,"left","left",0.694000006,1,1,1,0,116,75,1,0.7,1,"stim/43.jpeg",4,3,"stim/43.jpeg",2,"left",1.577000141,3,4,4.732000113,3,2.59100008,116,1,0,0,0,0,0
"312","stim/objects/HouseObjects/lintroller.png",318,75,311,0.9,"stim/62.jpeg",6,2,3,2,"HouseObjects",1,1,"left","left",0.61199975,1,1,1,0,NA,NA,NA,NA,NA,NA,NA,NA,NA,NA,NA,NA,NA,NA,NA,NA,NA,NA,NA,NA,NA,NA,NA,NA
"429","stim/objects/Instruments/grandpiano2.png",319,75,312,0.3,"stim/44.jpeg",4,4,2,1,"Instruments",2,4,"right","left",0.669999838,0,0,1,0,36,75,1,0.3,2,"stim/44.jpeg",4,4,"stim/44.jpeg",4,"right",0.926000118,4,1,5.896000147,3,3.376000166,36,0,0,NA,0,NA,0
"267","stim/objects/HouseObjects/glassmop2.png",320,75,313,0.7,"stim/43.jpeg",4,3,2,1,"HouseObjects",1,3,"left","left",0.417999983,1,1,1,0,98,75,1,0.7,1,"stim/43.jpeg",4,3,"stim/43.jpeg",3,"right",0.659000397,4,3,5.53000021,4,2.81400013,98,0,1,NA,0,NA,0
"440","stim/objects/Instruments/hihat.png",321,75,314,0.7,"stim/32.jpeg",3,2,2,2,"Instruments",2,2,"right","right",0.814999819,1,1,1,0,NA,NA,NA,NA,NA,NA,NA,NA,NA,NA,NA,NA,NA,NA,NA,NA,NA,NA,NA,NA,NA,NA,NA,NA
"272","stim/objects/HouseObjects/handbrush.png",322,75,315,0.7,"stim/42.jpeg",4,2,2,2,"HouseObjects",1,4,"left","left",0.60800004,1,1,1,0,NA,NA,NA,NA,NA,NA,NA,NA,NA,NA,NA,NA,NA,NA,NA,NA,NA,NA,NA,NA,NA,NA,NA,NA
"460","stim/objects/Instruments/marimba.png",323,75,316,0.9,"stim/52.jpeg",5,2,3,2,"Instruments",2,2,"right","right",0.659999847,1,1,1,0,NA,NA,NA,NA,NA,NA,NA,NA,NA,NA,NA,NA,NA,NA,NA,NA,NA,NA,NA,NA,NA,NA,NA,NA
"324","stim/objects/HouseObjects/lintroller2.png",324,75,317,0.1,"stim/52.jpeg",5,2,3,1,"HouseObjects",1,3,"left","",NA,0,0,1,0,123,75,1,0.1,1,"stim/52.jpeg",5,2,"stim/52.jpeg",3,"left",0.963000059,3,2,5.34100008,4,7.376000166,123,1,1,1,0,0,0
"328","stim/objects/HouseObjects/match.png",325,75,318,0.9,"stim/62.jpeg",6,2,3,2,"HouseObjects",1,3,"left","left",0.651999712,1,1,1,0,NA,NA,NA,NA,NA,NA,NA,NA,NA,NA,NA,NA,NA,NA,NA,NA,NA,NA,NA,NA,NA,NA,NA,NA
"433","stim/objects/Instruments/harmonica.png",326,75,319,0.5,"stim/22.jpeg",2,2,1,2,"Instruments",2,3,"right","left",0.632999897,0,0,1,0,NA,NA,NA,NA,NA,NA,NA,NA,NA,NA,NA,NA,NA,NA,NA,NA,NA,NA,NA,NA,NA,NA,NA,NA
"496","stim/objects/Instruments/musicsheet.png",327,75,320,0.9,"stim/51.jpeg",5,1,3,2,"Instruments",2,2,"right","right",0.694999933,1,1,1,0,NA,NA,NA,NA,NA,NA,NA,NA,NA,NA,NA,NA,NA,NA,NA,NA,NA,NA,NA,NA,NA,NA,NA,NA
"403","stim/objects/HouseObjects/vacuumcleaner2.png",328,75,321,0.9,"stim/61.jpeg",6,1,3,1,"HouseObjects",1,1,"left","left",0.619999886,1,1,1,0,175,75,1,0.9,1,"stim/61.jpeg",6,1,"stim/61.jpeg",1,"left",1.137000084,3,1,6.394000053,3,5.771000147,175,1,1,1,0,0,0
"411","stim/objects/Instruments/electricdrumset2.png",329,75,322,0.7,"stim/34.jpeg",3,4,2,1,"Instruments",2,1,"right","right",0.763999939,1,1,1,0,99,75,1,0.7,2,"stim/34.jpeg",3,4,"stim/34.jpeg",1,"right",0.913000107,3,1,1.596000195,3,1.865000248,99,0,0,NA,0,NA,0
"248","stim/objects/HouseObjects/dishsoap.png",330,75,323,0.5,"stim/13.jpeg",1,3,1,2,"HouseObjects",1,4,"left","left",0.59499979,1,1,1,0,NA,NA,NA,NA,NA,NA,NA,NA,NA,NA,NA,NA,NA,NA,NA,NA,NA,NA,NA,NA,NA,NA,NA,NA
"344","stim/objects/HouseObjects/pan.png",331,75,324,0.9,"stim/63.jpeg",6,3,3,2,"HouseObjects",1,1,"left","left",0.580999851,1,1,1,0,NA,NA,NA,NA,NA,NA,NA,NA,NA,NA,NA,NA,NA,NA,NA,NA,NA,NA,NA,NA,NA,NA,NA,NA
"461","stim/objects/Instruments/marimba.png",332,75,325,0.9,"stim/52.jpeg",5,2,3,2,"Instruments",2,3,"right","right",0.629999876,1,1,1,0,NA,NA,NA,NA,NA,NA,NA,NA,NA,NA,NA,NA,NA,NA,NA,NA,NA,NA,NA,NA,NA,NA,NA,NA
"329","stim/objects/HouseObjects/match.png",333,75,326,0.9,"stim/63.jpeg",6,3,3,2,"HouseObjects",1,2,"left","left",0.540999889,1,1,1,0,NA,NA,NA,NA,NA,NA,NA,NA,NA,NA,NA,NA,NA,NA,NA,NA,NA,NA,NA,NA,NA,NA,NA,NA
"449","stim/objects/Instruments/laud.png",334,75,327,0.7,"stim/32.jpeg",3,2,2,2,"Instruments",2,2,"right","right",0.816999912,1,1,1,0,NA,NA,NA,NA,NA,NA,NA,NA,NA,NA,NA,NA,NA,NA,NA,NA,NA,NA,NA,NA,NA,NA,NA,NA
"558","stim/objects/Instruments/triangle2.png",335,75,328,0.1,"stim/62.jpeg",6,2,3,1,"Instruments",2,2,"right","left",0.539999962,0,0,1,0,29,75,1,0.1,2,"stim/62.jpeg",6,2,"stim/62.jpeg",2,"right",0.726999998,4,1,10.21400023,4,2.988000154,29,0,0,NA,0,NA,0
"347","stim/objects/HouseObjects/pan.png",336,75,329,0.9,"stim/61.jpeg",6,1,3,2,"HouseObjects",1,1,"left","left",0.625999928,1,1,1,0,NA,NA,NA,NA,NA,NA,NA,NA,NA,NA,NA,NA,NA,NA,NA,NA,NA,NA,NA,NA,NA,NA,NA,NA
"407","stim/objects/Instruments/drums.png",337,75,330,0.5,"stim/11.jpeg",1,1,1,2,"Instruments",2,3,"right","left",0.811999798,0,0,1,0,NA,NA,NA,NA,NA,NA,NA,NA,NA,NA,NA,NA,NA,NA,NA,NA,NA,NA,NA,NA,NA,NA,NA,NA
"566","stim/objects/Instruments/violin2.png",338,75,331,0.1,"stim/62.jpeg",6,2,3,1,"Instruments",2,4,"right","",NA,0,0,1,0,55,75,1,0.1,2,"stim/62.jpeg",6,2,"stim/62.jpeg",4,"right",1.531000137,2,1,6.626000166,2,2.738000154,55,0,0,NA,0,NA,0
"300","stim/objects/HouseObjects/knife.png",339,75,332,0.9,"stim/64.jpeg",6,4,3,2,"HouseObjects",1,2,"left","left",0.52699995,1,1,1,0,NA,NA,NA,NA,NA,NA,NA,NA,NA,NA,NA,NA,NA,NA,NA,NA,NA,NA,NA,NA,NA,NA,NA,NA
"546","stim/objects/Instruments/record_player2.png",340,75,333,0.9,"stim/53.jpeg",5,3,3,1,"Instruments",2,2,"right","left",0.750999928,0,0,1,0,159,75,1,0.9,2,"stim/53.jpeg",5,3,"stim/53.jpeg",2,"right",1.484000206,3,4,2.874000072,4,2.103000164,159,0,0,NA,0,NA,0
"418","stim/objects/Instruments/flutetrans.png",341,75,334,0.5,"stim/14.jpeg",1,4,1,2,"Instruments",2,4,"right","",NA,0,0,1,0,NA,NA,NA,NA,NA,NA,NA,NA,NA,NA,NA,NA,NA,NA,NA,NA,NA,NA,NA,NA,NA,NA,NA,NA
"450","stim/objects/Instruments/laud.png",342,75,335,0.7,"stim/34.jpeg",3,4,2,2,"Instruments",2,3,"right","right",0.625999928,1,1,1,0,NA,NA,NA,NA,NA,NA,NA,NA,NA,NA,NA,NA,NA,NA,NA,NA,NA,NA,NA,NA,NA,NA,NA,NA
"330","stim/objects/HouseObjects/match.png",343,75,336,0.9,"stim/63.jpeg",6,3,3,2,"HouseObjects",1,1,"left","left",0.51699996,1,1,1,0,NA,NA,NA,NA,NA,NA,NA,NA,NA,NA,NA,NA,NA,NA,NA,NA,NA,NA,NA,NA,NA,NA,NA,NA
"297","stim/objects/HouseObjects/knife.png",344,75,337,0.9,"stim/62.jpeg",6,2,3,2,"HouseObjects",1,4,"left","left",0.542999744,1,1,1,0,NA,NA,NA,NA,NA,NA,NA,NA,NA,NA,NA,NA,NA,NA,NA,NA,NA,NA,NA,NA,NA,NA,NA,NA
"280","stim/objects/HouseObjects/iron.png",345,75,338,0.7,"stim/43.jpeg",4,3,2,2,"HouseObjects",1,3,"left","left",0.582999945,1,1,1,0,NA,NA,NA,NA,NA,NA,NA,NA,NA,NA,NA,NA,NA,NA,NA,NA,NA,NA,NA,NA,NA,NA,NA,NA
"481","stim/objects/Instruments/metronome.png",346,75,339,0.9,"stim/51.jpeg",5,1,3,2,"Instruments",2,1,"right","right",0.621999741,1,1,1,0,NA,NA,NA,NA,NA,NA,NA,NA,NA,NA,NA,NA,NA,NA,NA,NA,NA,NA,NA,NA,NA,NA,NA,NA
"513","stim/objects/Instruments/musicstand.png",347,75,340,0.9,"stim/51.jpeg",5,1,3,2,"Instruments",2,4,"right","right",0.521999836,1,1,1,0,NA,NA,NA,NA,NA,NA,NA,NA,NA,NA,NA,NA,NA,NA,NA,NA,NA,NA,NA,NA,NA,NA,NA,NA
"441","stim/objects/Instruments/hihat.png",348,75,341,0.7,"stim/34.jpeg",3,4,2,2,"Instruments",2,4,"right","right",0.601999998,1,1,1,0,NA,NA,NA,NA,NA,NA,NA,NA,NA,NA,NA,NA,NA,NA,NA,NA,NA,NA,NA,NA,NA,NA,NA,NA
"366","stim/objects/HouseObjects/pitcher.png",349,75,342,0.9,"stim/64.jpeg",6,4,3,2,"HouseObjects",1,4,"left","left",0.56799984,1,1,1,0,NA,NA,NA,NA,NA,NA,NA,NA,NA,NA,NA,NA,NA,NA,NA,NA,NA,NA,NA,NA,NA,NA,NA,NA
"348","stim/objects/HouseObjects/pan.png",350,75,343,0.9,"stim/64.jpeg",6,4,3,2,"HouseObjects",1,4,"left","left",0.411999941,1,1,1,0,NA,NA,NA,NA,NA,NA,NA,NA,NA,NA,NA,NA,NA,NA,NA,NA,NA,NA,NA,NA,NA,NA,NA,NA
"379","stim/objects/HouseObjects/remote2.png",351,75,344,0.1,"stim/53.jpeg",5,3,3,1,"HouseObjects",1,1,"left","right",0.576999903,0,0,1,0,50,75,1,0.1,1,"stim/53.jpeg",5,3,"stim/53.jpeg",1,"right",1.029000044,3,1,5.739000082,3,2.52300024,50,0,0,NA,0,NA,0
"553","stim/objects/Instruments/tambourine.png",352,75,345,0.5,"stim/21.jpeg",2,1,1,1,"Instruments",2,2,"right","left",0.785000086,0,0,1,0,4,75,1,0.5,2,"stim/21.jpeg",2,1,"stim/21.jpeg",2,"left",1.276000261,4,4,6.984000206,3,8.658000231,4,1,0,0,0,0,0
"544","stim/objects/Instruments/pipepiano2.png",353,75,346,0.9,"stim/51.jpeg",5,1,3,1,"Instruments",2,1,"right","right",0.602999926,1,1,1,0,83,75,1,0.9,2,"stim/51.jpeg",5,1,"stim/51.jpeg",1,"right",2.003000259,2,3,8.277000189,2,4.494000196,83,0,0,NA,0,NA,0
"367","stim/objects/HouseObjects/pitcher.png",354,75,347,0.9,"stim/61.jpeg",6,1,3,2,"HouseObjects",1,3,"left","left",0.733999968,1,1,1,0,NA,NA,NA,NA,NA,NA,NA,NA,NA,NA,NA,NA,NA,NA,NA,NA,NA,NA,NA,NA,NA,NA,NA,NA
"253","stim/objects/HouseObjects/dustpan.png",355,75,348,0.5,"stim/11.jpeg",1,1,1,2,"HouseObjects",1,4,"left","left",0.845000029,1,1,1,0,NA,NA,NA,NA,NA,NA,NA,NA,NA,NA,NA,NA,NA,NA,NA,NA,NA,NA,NA,NA,NA,NA,NA,NA
"402","stim/objects/HouseObjects/vacuumcleaner.png",356,75,349,0.3,"stim/34.jpeg",3,4,2,1,"HouseObjects",1,3,"left","right",0.743999958,0,0,1,0,115,75,1,0.3,1,"stim/34.jpeg",3,4,"stim/34.jpeg",3,"right",1.012000322,2,1,3.798000097,3,2.393000126,115,0,0,NA,1,NA,0
"251","stim/objects/HouseObjects/doormat.png",357,75,350,0.5,"stim/11.jpeg",1,1,1,2,"HouseObjects",1,1,"left","left",0.717999935,1,1,1,0,NA,NA,NA,NA,NA,NA,NA,NA,NA,NA,NA,NA,NA,NA,NA,NA,NA,NA,NA,NA,NA,NA,NA,NA
"530","stim/objects/Instruments/oboe.png",358,75,351,0.9,"stim/52.jpeg",5,2,3,2,"Instruments",2,2,"right","right",0.574999809,1,1,1,0,NA,NA,NA,NA,NA,NA,NA,NA,NA,NA,NA,NA,NA,NA,NA,NA,NA,NA,NA,NA,NA,NA,NA,NA
"241","stim/objects/HouseObjects/coffee.png",359,75,352,0.5,"stim/11.jpeg",1,1,1,2,"HouseObjects",1,2,"left","left",0.586999893,1,1,1,0,NA,NA,NA,NA,NA,NA,NA,NA,NA,NA,NA,NA,NA,NA,NA,NA,NA,NA,NA,NA,NA,NA,NA,NA
"286","stim/objects/HouseObjects/ironingboard2.png",360,75,353,0.7,"stim/44.jpeg",4,4,2,1,"HouseObjects",1,1,"left","left",0.628000021,1,1,1,0,190,75,1,0.7,1,"stim/44.jpeg",4,4,"stim/44.jpeg",1,"right",0.864000082,2,1,2.414000034,1,1.917000055,190,0,0,NA,1,NA,0
"331","stim/objects/HouseObjects/match.png",361,75,354,0.9,"stim/61.jpeg",6,1,3,2,"HouseObjects",1,2,"left","left",0.523000002,1,1,1,0,NA,NA,NA,NA,NA,NA,NA,NA,NA,NA,NA,NA,NA,NA,NA,NA,NA,NA,NA,NA,NA,NA,NA,NA
"404","stim/objects/HouseObjects/wateringcan.png",362,75,355,0.3,"stim/31.jpeg",3,1,2,1,"HouseObjects",1,1,"left","",NA,0,0,1,0,89,75,1,0.3,1,"stim/31.jpeg",3,1,"stim/31.jpeg",1,"right",3.444000244,3,1,6.796000242,2,2.475000143,89,0,1,NA,0,NA,0
"263","stim/objects/HouseObjects/glass.png",363,75,356,0.5,"stim/21.jpeg",2,1,1,2,"HouseObjects",1,3,"left","left",0.664999723,1,1,1,0,NA,NA,NA,NA,NA,NA,NA,NA,NA,NA,NA,NA,NA,NA,NA,NA,NA,NA,NA,NA,NA,NA,NA,NA
"514","stim/objects/Instruments/musicstand.png",364,75,357,0.9,"stim/51.jpeg",5,1,3,2,"Instruments",2,4,"right","right",0.568000078,1,1,1,0,NA,NA,NA,NA,NA,NA,NA,NA,NA,NA,NA,NA,NA,NA,NA,NA,NA,NA,NA,NA,NA,NA,NA,NA
"515","stim/objects/Instruments/musicstand.png",365,75,358,0.9,"stim/53.jpeg",5,3,3,2,"Instruments",2,2,"right","right",0.487999916,1,1,1,0,NA,NA,NA,NA,NA,NA,NA,NA,NA,NA,NA,NA,NA,NA,NA,NA,NA,NA,NA,NA,NA,NA,NA,NA
"497","stim/objects/Instruments/musicsheet.png",366,75,359,0.9,"stim/52.jpeg",5,2,3,2,"Instruments",2,4,"right","right",0.746999979,1,1,1,0,NA,NA,NA,NA,NA,NA,NA,NA,NA,NA,NA,NA,NA,NA,NA,NA,NA,NA,NA,NA,NA,NA,NA,NA
"463","stim/objects/Instruments/marimba.png",367,75,360,0.9,"stim/51.jpeg",5,1,3,2,"Instruments",2,4,"right","right",0.430999994,1,1,1,0,NA,NA,NA,NA,NA,NA,NA,NA,NA,NA,NA,NA,NA,NA,NA,NA,NA,NA,NA,NA,NA,NA,NA,NA
"464","stim/objects/Instruments/marimba.png",368,75,361,0.9,"stim/54.jpeg",5,4,3,2,"Instruments",2,3,"right","right",0.559999943,1,1,1,0,NA,NA,NA,NA,NA,NA,NA,NA,NA,NA,NA,NA,NA,NA,NA,NA,NA,NA,NA,NA,NA,NA,NA,NA
"332","stim/objects/HouseObjects/match.png",369,75,362,0.9,"stim/63.jpeg",6,3,3,2,"HouseObjects",1,2,"left","left",0.53399992,1,1,1,0,NA,NA,NA,NA,NA,NA,NA,NA,NA,NA,NA,NA,NA,NA,NA,NA,NA,NA,NA,NA,NA,NA,NA,NA
"465","stim/objects/Instruments/marimba.png",370,75,363,0.9,"stim/53.jpeg",5,3,3,2,"Instruments",2,2,"right","right",0.536999941,1,1,1,0,NA,NA,NA,NA,NA,NA,NA,NA,NA,NA,NA,NA,NA,NA,NA,NA,NA,NA,NA,NA,NA,NA,NA,NA
"409","stim/objects/Instruments/electricdrumset.png",371,75,364,0.5,"stim/11.jpeg",1,1,1,2,"Instruments",2,1,"right","right",0.552999973,1,1,1,0,NA,NA,NA,NA,NA,NA,NA,NA,NA,NA,NA,NA,NA,NA,NA,NA,NA,NA,NA,NA,NA,NA,NA,NA
"491","stim/objects/Instruments/musicsheet.png",372,75,365,0.9,"stim/54.jpeg",5,4,3,2,"Instruments",2,3,"right","right",0.710999966,1,1,1,0,NA,NA,NA,NA,NA,NA,NA,NA,NA,NA,NA,NA,NA,NA,NA,NA,NA,NA,NA,NA,NA,NA,NA,NA
"517","stim/objects/Instruments/musicstand.png",373,75,366,0.9,"stim/54.jpeg",5,4,3,2,"Instruments",2,3,"right","right",0.545000076,1,1,1,0,NA,NA,NA,NA,NA,NA,NA,NA,NA,NA,NA,NA,NA,NA,NA,NA,NA,NA,NA,NA,NA,NA,NA,NA
"507","stim/objects/Instruments/musicstand.png",374,75,367,0.9,"stim/54.jpeg",5,4,3,2,"Instruments",2,4,"right","right",0.552999735,1,1,1,0,NA,NA,NA,NA,NA,NA,NA,NA,NA,NA,NA,NA,NA,NA,NA,NA,NA,NA,NA,NA,NA,NA,NA,NA
"444","stim/objects/Instruments/keyboard.png",375,75,368,0.7,"stim/31.jpeg",3,1,2,2,"Instruments",2,3,"right","left",0.853999853,0,0,1,0,NA,NA,NA,NA,NA,NA,NA,NA,NA,NA,NA,NA,NA,NA,NA,NA,NA,NA,NA,NA,NA,NA,NA,NA
"291","stim/objects/HouseObjects/knife.png",376,75,369,0.9,"stim/61.jpeg",6,1,3,2,"HouseObjects",1,3,"left","left",0.605000019,1,1,1,0,NA,NA,NA,NA,NA,NA,NA,NA,NA,NA,NA,NA,NA,NA,NA,NA,NA,NA,NA,NA,NA,NA,NA,NA
"283","stim/objects/HouseObjects/ironingboard.png",377,75,370,0.7,"stim/44.jpeg",4,4,2,2,"HouseObjects",1,2,"left","left",0.837000132,1,1,1,0,NA,NA,NA,NA,NA,NA,NA,NA,NA,NA,NA,NA,NA,NA,NA,NA,NA,NA,NA,NA,NA,NA,NA,NA
"302","stim/objects/HouseObjects/knife.png",378,75,371,0.9,"stim/61.jpeg",6,1,3,2,"HouseObjects",1,1,"left","left",0.772000074,1,1,1,0,NA,NA,NA,NA,NA,NA,NA,NA,NA,NA,NA,NA,NA,NA,NA,NA,NA,NA,NA,NA,NA,NA,NA,NA
"265","stim/objects/HouseObjects/glassmop.png",379,75,372,0.5,"stim/23.jpeg",2,3,1,2,"HouseObjects",1,3,"left","left",0.762999773,1,1,1,0,NA,NA,NA,NA,NA,NA,NA,NA,NA,NA,NA,NA,NA,NA,NA,NA,NA,NA,NA,NA,NA,NA,NA,NA
"314","stim/objects/HouseObjects/lintroller.png",380,75,373,0.9,"stim/64.jpeg",6,4,3,2,"HouseObjects",1,2,"left","left",0.566999912,1,1,1,0,NA,NA,NA,NA,NA,NA,NA,NA,NA,NA,NA,NA,NA,NA,NA,NA,NA,NA,NA,NA,NA,NA,NA,NA
"483","stim/objects/Instruments/metronome.png",381,75,374,0.9,"stim/51.jpeg",5,1,3,2,"Instruments",2,4,"right","",NA,0,0,1,0,NA,NA,NA,NA,NA,NA,NA,NA,NA,NA,NA,NA,NA,NA,NA,NA,NA,NA,NA,NA,NA,NA,NA,NA
"518","stim/objects/Instruments/musicstand.png",382,75,375,0.9,"stim/52.jpeg",5,2,3,2,"Instruments",2,3,"right","right",0.703999996,1,1,1,0,NA,NA,NA,NA,NA,NA,NA,NA,NA,NA,NA,NA,NA,NA,NA,NA,NA,NA,NA,NA,NA,NA,NA,NA
"473","stim/objects/Instruments/metronome.png",383,75,376,0.9,"stim/52.jpeg",5,2,3,2,"Instruments",2,3,"right","right",0.562999964,1,1,1,0,NA,NA,NA,NA,NA,NA,NA,NA,NA,NA,NA,NA,NA,NA,NA,NA,NA,NA,NA,NA,NA,NA,NA,NA
"541","stim/objects/Instruments/panflute.png",384,75,377,0.5,"stim/12.jpeg",1,2,1,1,"Instruments",2,1,"right","left",0.718999863,0,0,1,0,150,75,1,0.5,1,"stim/12.jpeg",1,2,"stim/12.jpeg",1,"right",0.84800005,3,4,6.561000109,2,1.889000177,150,0,0,NA,0,NA,0
"274","stim/objects/HouseObjects/handbrush2.png",385,75,378,0.7,"stim/41.jpeg",4,1,2,1,"HouseObjects",1,1,"left","left",0.786999941,1,1,1,0,38,75,1,0.7,1,"stim/41.jpeg",4,1,"stim/41.jpeg",1,"left",1.211000204,4,2,3.245000124,2,2.711000204,38,1,0,0,0,0,0
"492","stim/objects/Instruments/musicsheet.png",386,75,379,0.9,"stim/53.jpeg",5,3,3,2,"Instruments",2,1,"right","",NA,0,0,1,0,NA,NA,NA,NA,NA,NA,NA,NA,NA,NA,NA,NA,NA,NA,NA,NA,NA,NA,NA,NA,NA,NA,NA,NA
"493","stim/objects/Instruments/musicsheet.png",387,75,380,0.9,"stim/52.jpeg",5,2,3,2,"Instruments",2,4,"right","right",0.477999926,1,1,1,0,NA,NA,NA,NA,NA,NA,NA,NA,NA,NA,NA,NA,NA,NA,NA,NA,NA,NA,NA,NA,NA,NA,NA,NA
"260","stim/objects/HouseObjects/garbagebin.png",388,75,381,0.5,"stim/24.jpeg",2,4,1,2,"HouseObjects",1,4,"left","left",0.726000071,1,1,1,0,NA,NA,NA,NA,NA,NA,NA,NA,NA,NA,NA,NA,NA,NA,NA,NA,NA,NA,NA,NA,NA,NA,NA,NA
"334","stim/objects/HouseObjects/match.png",389,75,382,0.9,"stim/61.jpeg",6,1,3,2,"HouseObjects",1,4,"left","left",0.576999903,1,1,1,0,NA,NA,NA,NA,NA,NA,NA,NA,NA,NA,NA,NA,NA,NA,NA,NA,NA,NA,NA,NA,NA,NA,NA,NA
"422","stim/objects/Instruments/frenchhorn.png",390,75,383,0.5,"stim/23.jpeg",2,3,1,2,"Instruments",2,4,"right","left",0.713999987,0,0,1,0,NA,NA,NA,NA,NA,NA,NA,NA,NA,NA,NA,NA,NA,NA,NA,NA,NA,NA,NA,NA,NA,NA,NA,NA
"482","stim/objects/Instruments/metronome.png",391,75,384,0.9,"stim/52.jpeg",5,2,3,2,"Instruments",2,3,"right","right",0.78399992,1,1,1,0,NA,NA,NA,NA,NA,NA,NA,NA,NA,NA,NA,NA,NA,NA,NA,NA,NA,NA,NA,NA,NA,NA,NA,NA
"303","stim/objects/HouseObjects/knife.png",392,75,385,0.9,"stim/61.jpeg",6,1,3,2,"HouseObjects",1,2,"left","left",0.604999781,1,1,1,0,NA,NA,NA,NA,NA,NA,NA,NA,NA,NA,NA,NA,NA,NA,NA,NA,NA,NA,NA,NA,NA,NA,NA,NA
"534","stim/objects/Instruments/oboe.png",393,75,386,0.9,"stim/51.jpeg",5,1,3,2,"Instruments",2,3,"right","right",0.855000019,1,1,1,0,NA,NA,NA,NA,NA,NA,NA,NA,NA,NA,NA,NA,NA,NA,NA,NA,NA,NA,NA,NA,NA,NA,NA,NA
"519","stim/objects/Instruments/musicstand.png",394,75,387,0.9,"stim/52.jpeg",5,2,3,2,"Instruments",2,4,"right","right",0.828000069,1,1,1,0,NA,NA,NA,NA,NA,NA,NA,NA,NA,NA,NA,NA,NA,NA,NA,NA,NA,NA,NA,NA,NA,NA,NA,NA
"442","stim/objects/Instruments/hihat.png",395,75,388,0.7,"stim/31.jpeg",3,1,2,2,"Instruments",2,4,"right","right",0.615999937,1,1,1,0,NA,NA,NA,NA,NA,NA,NA,NA,NA,NA,NA,NA,NA,NA,NA,NA,NA,NA,NA,NA,NA,NA,NA,NA
"290","stim/objects/HouseObjects/key2.png",396,75,389,0.7,"stim/41.jpeg",4,1,2,1,"HouseObjects",1,1,"left","left",0.699999809,1,1,1,0,167,75,1,0.7,1,"stim/41.jpeg",4,1,"stim/41.jpeg",1,"right",0.68200016,3,1,4.385000229,2,1.428000212,167,0,1,NA,0,NA,0
"387","stim/objects/HouseObjects/saw2.png",397,75,390,0.9,"stim/61.jpeg",6,1,3,1,"HouseObjects",1,1,"left","",NA,0,0,1,0,181,75,1,0.9,1,"stim/61.jpeg",6,1,"stim/61.jpeg",1,"right",1.24600029,2,1,15.33300018,2,1.882000208,181,0,1,NA,0,NA,0
"335","stim/objects/HouseObjects/match.png",398,75,391,0.9,"stim/63.jpeg",6,3,3,2,"HouseObjects",1,1,"left","left",0.581999779,1,1,1,0,NA,NA,NA,NA,NA,NA,NA,NA,NA,NA,NA,NA,NA,NA,NA,NA,NA,NA,NA,NA,NA,NA,NA,NA
"294","stim/objects/HouseObjects/knife.png",399,75,392,0.9,"stim/62.jpeg",6,2,3,2,"HouseObjects",1,3,"left","left",0.528999805,1,1,1,0,NA,NA,NA,NA,NA,NA,NA,NA,NA,NA,NA,NA,NA,NA,NA,NA,NA,NA,NA,NA,NA,NA,NA,NA
"562","stim/objects/Instruments/trumpet2.png",400,75,393,0.1,"stim/64.jpeg",6,4,3,1,"Instruments",2,4,"right","left",0.578000069,0,0,1,0,154,75,1,0.1,2,"stim/64.jpeg",6,4,"stim/64.jpeg",4,"right",0.930000305,3,3,1.942000151,2,4.18900013,154,0,0,NA,0,NA,0
"388","stim/objects/HouseObjects/scale.png",401,75,394,0.5,"stim/22.jpeg",2,2,1,1,"HouseObjects",1,2,"left","left",0.640999794,1,1,1,0,117,75,1,0.5,2,"stim/22.jpeg",2,2,"stim/22.jpeg",2,"left",2.476000071,3,2,3.066000223,3,2.671000242,117,1,1,1,0,0,0
"368","stim/objects/HouseObjects/pitcher.png",402,75,395,0.9,"stim/63.jpeg",6,3,3,2,"HouseObjects",1,3,"left","left",0.538000107,1,1,1,0,NA,NA,NA,NA,NA,NA,NA,NA,NA,NA,NA,NA,NA,NA,NA,NA,NA,NA,NA,NA,NA,NA,NA,NA
"535","stim/objects/Instruments/oboe.png",403,75,396,0.9,"stim/54.jpeg",5,4,3,2,"Instruments",2,1,"right","",NA,0,0,1,0,NA,NA,NA,NA,NA,NA,NA,NA,NA,NA,NA,NA,NA,NA,NA,NA,NA,NA,NA,NA,NA,NA,NA,NA
"451","stim/objects/Instruments/laud2.png",404,75,397,0.3,"stim/42.jpeg",4,2,2,1,"Instruments",2,3,"right","left",0.676999807,0,0,1,0,2,75,1,0.3,2,"stim/42.jpeg",4,2,"stim/42.jpeg",3,"left",2.920000315,2,4,11.7900002,4,5.930999994,2,1,0,0,0,0,0
"247","stim/objects/HouseObjects/dishsoap.png",405,75,398,0.5,"stim/14.jpeg",1,4,1,2,"HouseObjects",1,1,"left","right",0.754999876,0,0,1,0,NA,NA,NA,NA,NA,NA,NA,NA,NA,NA,NA,NA,NA,NA,NA,NA,NA,NA,NA,NA,NA,NA,NA,NA
"438","stim/objects/Instruments/harp.png",406,75,399,0.7,"stim/31.jpeg",3,1,2,2,"Instruments",2,3,"right","right",0.770999908,1,1,1,0,NA,NA,NA,NA,NA,NA,NA,NA,NA,NA,NA,NA,NA,NA,NA,NA,NA,NA,NA,NA,NA,NA,NA,NA
"371","stim/objects/HouseObjects/pitcher.png",407,75,400,0.9,"stim/63.jpeg",6,3,3,2,"HouseObjects",1,4,"left","left",0.519999981,1,1,1,0,NA,NA,NA,NA,NA,NA,NA,NA,NA,NA,NA,NA,NA,NA,NA,NA,NA,NA,NA,NA,NA,NA,NA,NA
"281","stim/objects/HouseObjects/iron.png",408,75,401,0.7,"stim/41.jpeg",4,1,2,2,"HouseObjects",1,4,"left","left",0.612999916,1,1,1,0,NA,NA,NA,NA,NA,NA,NA,NA,NA,NA,NA,NA,NA,NA,NA,NA,NA,NA,NA,NA,NA,NA,NA,NA
"336","stim/objects/HouseObjects/match.png",409,75,402,0.9,"stim/62.jpeg",6,2,3,2,"HouseObjects",1,4,"left","left",0.470000029,1,1,1,0,NA,NA,NA,NA,NA,NA,NA,NA,NA,NA,NA,NA,NA,NA,NA,NA,NA,NA,NA,NA,NA,NA,NA,NA
"289","stim/objects/HouseObjects/key.png",410,75,403,0.7,"stim/42.jpeg",4,2,2,2,"HouseObjects",1,1,"left","left",0.587999821,1,1,1,0,NA,NA,NA,NA,NA,NA,NA,NA,NA,NA,NA,NA,NA,NA,NA,NA,NA,NA,NA,NA,NA,NA,NA,NA
"516","stim/objects/Instruments/musicstand.png",411,75,404,0.9,"stim/51.jpeg",5,1,3,2,"Instruments",2,3,"right","right",0.70299983,1,1,1,0,NA,NA,NA,NA,NA,NA,NA,NA,NA,NA,NA,NA,NA,NA,NA,NA,NA,NA,NA,NA,NA,NA,NA,NA
"557","stim/objects/Instruments/triangle.png",412,75,405,0.5,"stim/23.jpeg",2,3,1,1,"Instruments",2,2,"right","right",0.70600009,1,1,1,0,113,75,1,0.5,2,"stim/23.jpeg",2,3,"stim/23.jpeg",2,"right",1.181000233,3,4,4.083000183,1,3.59400034,113,0,0,NA,0,NA,0
"284","stim/objects/HouseObjects/ironingboard.png",413,75,406,0.7,"stim/42.jpeg",4,2,2,2,"HouseObjects",1,1,"left","left",0.649999857,1,1,1,0,NA,NA,NA,NA,NA,NA,NA,NA,NA,NA,NA,NA,NA,NA,NA,NA,NA,NA,NA,NA,NA,NA,NA,NA
"526","stim/objects/Instruments/oboe.png",414,75,407,0.9,"stim/51.jpeg",5,1,3,2,"Instruments",2,1,"right","right",0.566999912,1,1,1,0,NA,NA,NA,NA,NA,NA,NA,NA,NA,NA,NA,NA,NA,NA,NA,NA,NA,NA,NA,NA,NA,NA,NA,NA
"532","stim/objects/Instruments/oboe.png",415,75,408,0.9,"stim/53.jpeg",5,3,3,2,"Instruments",2,4,"right","right",0.595000029,1,1,1,0,NA,NA,NA,NA,NA,NA,NA,NA,NA,NA,NA,NA,NA,NA,NA,NA,NA,NA,NA,NA,NA,NA,NA,NA
"305","stim/objects/HouseObjects/knife.png",416,75,409,0.9,"stim/63.jpeg",6,3,3,2,"HouseObjects",1,2,"left","left",0.532999992,1,1,1,0,NA,NA,NA,NA,NA,NA,NA,NA,NA,NA,NA,NA,NA,NA,NA,NA,NA,NA,NA,NA,NA,NA,NA,NA
"296","stim/objects/HouseObjects/knife.png",417,75,410,0.9,"stim/64.jpeg",6,4,3,2,"HouseObjects",1,2,"left","left",0.528000116,1,1,1,0,NA,NA,NA,NA,NA,NA,NA,NA,NA,NA,NA,NA,NA,NA,NA,NA,NA,NA,NA,NA,NA,NA,NA,NA
"452","stim/objects/Instruments/maraca.png",418,75,411,0.7,"stim/34.jpeg",3,4,2,2,"Instruments",2,2,"right","right",0.717000008,1,1,1,0,NA,NA,NA,NA,NA,NA,NA,NA,NA,NA,NA,NA,NA,NA,NA,NA,NA,NA,NA,NA,NA,NA,NA,NA
"306","stim/objects/HouseObjects/knife.png",419,75,412,0.9,"stim/62.jpeg",6,2,3,2,"HouseObjects",1,4,"left","left",0.513000011,1,1,1,0,NA,NA,NA,NA,NA,NA,NA,NA,NA,NA,NA,NA,NA,NA,NA,NA,NA,NA,NA,NA,NA,NA,NA,NA
"420","stim/objects/Instruments/flutetrans2.png",420,75,413,0.7,"stim/33.jpeg",3,3,2,1,"Instruments",2,1,"right","right",0.622999907,1,1,1,0,146,75,1,0.7,2,"stim/33.jpeg",3,3,"stim/33.jpeg",1,"right",2.901000261,4,4,3.327000141,2,3.127000093,146,0,0,NA,0,NA,0
"269","stim/objects/HouseObjects/hairdryer.png",421,75,414,0.5,"stim/23.jpeg",2,3,1,2,"HouseObjects",1,4,"left","left",0.626999855,1,1,1,0,NA,NA,NA,NA,NA,NA,NA,NA,NA,NA,NA,NA,NA,NA,NA,NA,NA,NA,NA,NA,NA,NA,NA,NA
"397","stim/objects/HouseObjects/thermometer2.png",422,75,415,0.9,"stim/62.jpeg",6,2,3,1,"HouseObjects",1,2,"left","left",0.531000137,1,1,1,0,39,75,1,0.9,1,"stim/62.jpeg",6,2,"stim/62.jpeg",2,"left",1.667000055,4,4,11.69500017,2,3.231000185,39,1,0,0,1,1,0
"361","stim/objects/HouseObjects/pitcher.png",423,75,416,0.9,"stim/61.jpeg",6,1,3,2,"HouseObjects",1,3,"left","left",0.575999975,1,1,1,0,NA,NA,NA,NA,NA,NA,NA,NA,NA,NA,NA,NA,NA,NA,NA,NA,NA,NA,NA,NA,NA,NA,NA,NA
"301","stim/objects/HouseObjects/knife.png",424,75,417,0.9,"stim/64.jpeg",6,4,3,2,"HouseObjects",1,2,"left","left",0.625,1,1,1,0,NA,NA,NA,NA,NA,NA,NA,NA,NA,NA,NA,NA,NA,NA,NA,NA,NA,NA,NA,NA,NA,NA,NA,NA
"333","stim/objects/HouseObjects/match.png",425,75,418,0.9,"stim/61.jpeg",6,1,3,2,"HouseObjects",1,3,"left","left",0.724999905,1,1,1,0,NA,NA,NA,NA,NA,NA,NA,NA,NA,NA,NA,NA,NA,NA,NA,NA,NA,NA,NA,NA,NA,NA,NA,NA
"252","stim/objects/HouseObjects/doormat2.png",426,75,419,0.3,"stim/31.jpeg",3,1,2,1,"HouseObjects",1,3,"left","left",0.492000103,1,1,1,0,106,75,1,0.3,1,"stim/31.jpeg",3,1,"stim/31.jpeg",3,"left",2.042000055,2,4,4.097000122,4,2.692000151,106,1,0,0,0,0,0
"448","stim/objects/Instruments/laud.png",427,75,420,0.7,"stim/33.jpeg",3,3,2,2,"Instruments",2,3,"right","left",0.471999884,0,0,1,0,NA,NA,NA,NA,NA,NA,NA,NA,NA,NA,NA,NA,NA,NA,NA,NA,NA,NA,NA,NA,NA,NA,NA,NA
"467","stim/objects/Instruments/marimba.png",428,75,421,0.9,"stim/52.jpeg",5,2,3,2,"Instruments",2,2,"right","right",0.546000004,1,1,1,0,NA,NA,NA,NA,NA,NA,NA,NA,NA,NA,NA,NA,NA,NA,NA,NA,NA,NA,NA,NA,NA,NA,NA,NA
"352","stim/objects/HouseObjects/pan.png",429,75,422,0.9,"stim/64.jpeg",6,4,3,2,"HouseObjects",1,1,"left","left",0.587999821,1,1,1,0,NA,NA,NA,NA,NA,NA,NA,NA,NA,NA,NA,NA,NA,NA,NA,NA,NA,NA,NA,NA,NA,NA,NA,NA
"378","stim/objects/HouseObjects/remote.png",430,75,423,0.5,"stim/14.jpeg",1,4,1,1,"HouseObjects",1,1,"left","",NA,0,0,1,0,110,75,1,0.5,1,"stim/14.jpeg",1,4,"stim/14.jpeg",1,"right",1.505000114,3,4,2.81400013,4,3.859000206,110,0,1,NA,0,NA,0
"548","stim/objects/Instruments/record2.png",431,75,424,0.9,"stim/52.jpeg",5,2,3,1,"Instruments",2,2,"right","right",0.589999914,1,1,1,0,74,75,1,0.9,2,"stim/52.jpeg",5,2,"stim/52.jpeg",2,"left",1.433000088,4,1,5.584000111,3,2.519000292,74,1,0,0,0,0,0
"285","stim/objects/HouseObjects/ironingboard.png",432,75,425,0.7,"stim/41.jpeg",4,1,2,2,"HouseObjects",1,4,"left","left",0.674999952,1,1,1,0,NA,NA,NA,NA,NA,NA,NA,NA,NA,NA,NA,NA,NA,NA,NA,NA,NA,NA,NA,NA,NA,NA,NA,NA
"317","stim/objects/HouseObjects/lintroller.png",433,75,426,0.9,"stim/62.jpeg",6,2,3,2,"HouseObjects",1,3,"left","left",0.667999744,1,1,1,0,NA,NA,NA,NA,NA,NA,NA,NA,NA,NA,NA,NA,NA,NA,NA,NA,NA,NA,NA,NA,NA,NA,NA,NA
"487","stim/objects/Instruments/metronome.png",434,75,427,0.9,"stim/53.jpeg",5,3,3,2,"Instruments",2,1,"right","left",0.786000013,0,0,1,0,NA,NA,NA,NA,NA,NA,NA,NA,NA,NA,NA,NA,NA,NA,NA,NA,NA,NA,NA,NA,NA,NA,NA,NA
"354","stim/objects/HouseObjects/pan.png",435,75,428,0.9,"stim/64.jpeg",6,4,3,2,"HouseObjects",1,2,"left","left",0.520999908,1,1,1,0,NA,NA,NA,NA,NA,NA,NA,NA,NA,NA,NA,NA,NA,NA,NA,NA,NA,NA,NA,NA,NA,NA,NA,NA
"550","stim/objects/Instruments/saxophone2.png",436,75,429,0.9,"stim/54.jpeg",5,4,3,1,"Instruments",2,1,"right","right",0.517999887,1,1,1,0,46,75,1,0.9,2,"stim/54.jpeg",5,4,"stim/54.jpeg",1,"right",1.315000296,4,4,3.864000082,1,6.234000206,46,0,1,NA,1,NA,0
"498","stim/objects/Instruments/musicsheet.png",437,75,430,0.9,"stim/54.jpeg",5,4,3,2,"Instruments",2,2,"right","right",0.384000063,1,1,1,0,NA,NA,NA,NA,NA,NA,NA,NA,NA,NA,NA,NA,NA,NA,NA,NA,NA,NA,NA,NA,NA,NA,NA,NA
"512","stim/objects/Instruments/musicstand.png",438,75,431,0.9,"stim/52.jpeg",5,2,3,2,"Instruments",2,3,"right","right",0.63499999,1,1,1,0,NA,NA,NA,NA,NA,NA,NA,NA,NA,NA,NA,NA,NA,NA,NA,NA,NA,NA,NA,NA,NA,NA,NA,NA
"454","stim/objects/Instruments/maraca.png",439,75,432,0.7,"stim/33.jpeg",3,3,2,2,"Instruments",2,4,"right","right",0.842999935,1,1,1,0,NA,NA,NA,NA,NA,NA,NA,NA,NA,NA,NA,NA,NA,NA,NA,NA,NA,NA,NA,NA,NA,NA,NA,NA
"421","stim/objects/Instruments/frenchhorn.png",440,75,433,0.5,"stim/22.jpeg",2,2,1,2,"Instruments",2,4,"right","left",0.706999779,0,0,1,0,NA,NA,NA,NA,NA,NA,NA,NA,NA,NA,NA,NA,NA,NA,NA,NA,NA,NA,NA,NA,NA,NA,NA,NA
"406","stim/objects/Instruments/drums.png",441,75,434,0.5,"stim/14.jpeg",1,4,1,2,"Instruments",2,2,"right","",NA,0,0,1,0,NA,NA,NA,NA,NA,NA,NA,NA,NA,NA,NA,NA,NA,NA,NA,NA,NA,NA,NA,NA,NA,NA,NA,NA
"416","stim/objects/Instruments/flute.png",442,75,435,0.5,"stim/13.jpeg",1,3,1,2,"Instruments",2,2,"right","left",0.71999979,0,0,1,0,NA,NA,NA,NA,NA,NA,NA,NA,NA,NA,NA,NA,NA,NA,NA,NA,NA,NA,NA,NA,NA,NA,NA,NA
"503","stim/objects/Instruments/musicsheet.png",443,75,436,0.9,"stim/53.jpeg",5,3,3,2,"Instruments",2,1,"right","right",0.619999886,1,1,1,0,NA,NA,NA,NA,NA,NA,NA,NA,NA,NA,NA,NA,NA,NA,NA,NA,NA,NA,NA,NA,NA,NA,NA,NA
"270","stim/objects/HouseObjects/hairdryer2.png",444,75,437,0.7,"stim/44.jpeg",4,4,2,1,"HouseObjects",1,3,"left","left",0.625,1,1,1,0,172,75,1,0.7,1,"stim/44.jpeg",4,4,"stim/44.jpeg",3,"right",1.902000189,2,1,7.386000156,4,9.13800025,172,0,0,NA,0,NA,0
"567","stim/objects/Instruments/vuvuzela.png",445,75,438,0.7,"stim/31.jpeg",3,1,2,1,"Instruments",2,3,"right","right",0.761999846,1,1,1,0,138,75,1,0.7,2,"stim/31.jpeg",3,1,"stim/31.jpeg",3,"right",0.761000156,4,4,11.16200018,2,5.490000248,138,0,0,NA,0,NA,0
"374","stim/objects/HouseObjects/pitcher.png",446,75,439,0.9,"stim/62.jpeg",6,2,3,2,"HouseObjects",1,1,"left","left",0.580999851,1,1,1,0,NA,NA,NA,NA,NA,NA,NA,NA,NA,NA,NA,NA,NA,NA,NA,NA,NA,NA,NA,NA,NA,NA,NA,NA
"341","stim/objects/HouseObjects/match2.png",447,75,440,0.1,"stim/53.jpeg",5,3,3,1,"HouseObjects",1,3,"left","right",0.606999874,0,0,1,0,69,75,1,0.1,1,"stim/53.jpeg",5,3,"stim/53.jpeg",3,"right",1.008000135,4,2,3.473000288,4,2.84700036,69,0,0,NA,0,NA,0
"520","stim/objects/Instruments/musicstand.png",448,75,441,0.9,"stim/52.jpeg",5,2,3,2,"Instruments",2,2,"right","",NA,0,0,1,0,NA,NA,NA,NA,NA,NA,NA,NA,NA,NA,NA,NA,NA,NA,NA,NA,NA,NA,NA,NA,NA,NA,NA,NA
"439","stim/objects/Instruments/harp2.png",449,75,442,0.3,"stim/43.jpeg",4,3,2,1,"Instruments",2,4,"right","left",0.552000046,0,0,1,0,119,75,1,0.3,2,"stim/43.jpeg",4,3,"stim/43.jpeg",4,"right",1.424000025,3,1,4.766000271,1,6.285000086,119,0,0,NA,0,NA,0
"424","stim/objects/Instruments/gong.png",450,75,443,0.5,"stim/24.jpeg",2,4,1,2,"Instruments",2,2,"right","left",0.744999886,0,0,1,0,NA,NA,NA,NA,NA,NA,NA,NA,NA,NA,NA,NA,NA,NA,NA,NA,NA,NA,NA,NA,NA,NA,NA,NA
"350","stim/objects/HouseObjects/pan.png",451,75,444,0.9,"stim/64.jpeg",6,4,3,2,"HouseObjects",1,1,"left","left",0.777999878,1,1,1,0,NA,NA,NA,NA,NA,NA,NA,NA,NA,NA,NA,NA,NA,NA,NA,NA,NA,NA,NA,NA,NA,NA,NA,NA
"278","stim/objects/HouseObjects/handvacuum2.png",452,75,445,0.7,"stim/42.jpeg",4,2,2,1,"HouseObjects",1,4,"left","left",0.733999968,1,1,1,0,79,75,1,0.7,1,"stim/42.jpeg",4,2,"stim/42.jpeg",4,"left",2.584000111,3,3,3.829000235,4,3.1650002,79,1,0,0,1,1,0
"254","stim/objects/HouseObjects/dustpan.png",453,75,446,0.5,"stim/12.jpeg",1,2,1,2,"HouseObjects",1,3,"left","right",0.799999952,0,0,1,0,NA,NA,NA,NA,NA,NA,NA,NA,NA,NA,NA,NA,NA,NA,NA,NA,NA,NA,NA,NA,NA,NA,NA,NA
"485","stim/objects/Instruments/metronome.png",454,75,447,0.9,"stim/54.jpeg",5,4,3,2,"Instruments",2,1,"right","right",0.767999887,1,1,1,0,NA,NA,NA,NA,NA,NA,NA,NA,NA,NA,NA,NA,NA,NA,NA,NA,NA,NA,NA,NA,NA,NA,NA,NA
"466","stim/objects/Instruments/marimba.png",455,75,448,0.9,"stim/51.jpeg",5,1,3,2,"Instruments",2,3,"right","right",0.575999737,1,1,1,0,NA,NA,NA,NA,NA,NA,NA,NA,NA,NA,NA,NA,NA,NA,NA,NA,NA,NA,NA,NA,NA,NA,NA,NA
"462","stim/objects/Instruments/marimba.png",456,75,449,0.9,"stim/53.jpeg",5,3,3,2,"Instruments",2,1,"right","right",0.625,1,1,1,0,NA,NA,NA,NA,NA,NA,NA,NA,NA,NA,NA,NA,NA,NA,NA,NA,NA,NA,NA,NA,NA,NA,NA,NA
"537","stim/objects/Instruments/oboe.png",457,75,450,0.9,"stim/52.jpeg",5,2,3,2,"Instruments",2,4,"right","right",0.636999846,1,1,1,0,NA,NA,NA,NA,NA,NA,NA,NA,NA,NA,NA,NA,NA,NA,NA,NA,NA,NA,NA,NA,NA,NA,NA,NA
"318","stim/objects/HouseObjects/lintroller.png",458,75,451,0.9,"stim/63.jpeg",6,3,3,2,"HouseObjects",1,1,"left","left",0.637000084,1,1,1,0,NA,NA,NA,NA,NA,NA,NA,NA,NA,NA,NA,NA,NA,NA,NA,NA,NA,NA,NA,NA,NA,NA,NA,NA
"299","stim/objects/HouseObjects/knife.png",459,75,452,0.9,"stim/63.jpeg",6,3,3,2,"HouseObjects",1,1,"left","left",0.477999926,1,1,1,0,NA,NA,NA,NA,NA,NA,NA,NA,NA,NA,NA,NA,NA,NA,NA,NA,NA,NA,NA,NA,NA,NA,NA,NA
"381","stim/objects/HouseObjects/rubbergloves2.png",460,75,453,0.1,"stim/54.jpeg",5,4,3,1,"HouseObjects",1,1,"left","right",0.650999784,0,0,1,0,196,75,1,0.1,1,"stim/54.jpeg",5,4,"stim/54.jpeg",1,"right",1.039000273,4,1,3.459000349,4,2.480000019,196,0,0,NA,0,NA,0
"365","stim/objects/HouseObjects/pitcher.png",461,75,454,0.9,"stim/62.jpeg",6,2,3,2,"HouseObjects",1,3,"left","left",0.704999924,1,1,1,0,NA,NA,NA,NA,NA,NA,NA,NA,NA,NA,NA,NA,NA,NA,NA,NA,NA,NA,NA,NA,NA,NA,NA,NA
"453","stim/objects/Instruments/maraca.png",462,75,455,0.7,"stim/31.jpeg",3,1,2,2,"Instruments",2,1,"right","right",0.674999952,1,1,1,0,NA,NA,NA,NA,NA,NA,NA,NA,NA,NA,NA,NA,NA,NA,NA,NA,NA,NA,NA,NA,NA,NA,NA,NA
"398","stim/objects/HouseObjects/thread.png",463,75,456,0.3,"stim/32.jpeg",3,2,2,1,"HouseObjects",1,1,"left","",NA,0,0,1,0,40,75,1,0.3,1,"stim/32.jpeg",3,2,"stim/32.jpeg",1,"right",1.21600008,3,1,9.853000164,1,2.823000193,40,0,0,NA,1,NA,0
"533","stim/objects/Instruments/oboe.png",464,75,457,0.9,"stim/54.jpeg",5,4,3,2,"Instruments",2,3,"right","right",0.639999866,1,1,1,0,NA,NA,NA,NA,NA,NA,NA,NA,NA,NA,NA,NA,NA,NA,NA,NA,NA,NA,NA,NA,NA,NA,NA,NA
"399","stim/objects/HouseObjects/thread2.png",465,75,458,0.9,"stim/63.jpeg",6,3,3,1,"HouseObjects",1,3,"left","left",0.529999971,1,1,1,0,59,75,1,0.9,1,"stim/63.jpeg",6,3,"stim/63.jpeg",3,"right",0.983999968,4,1,4.796000242,1,3.626000166,59,0,0,NA,0,NA,0
"257","stim/objects/HouseObjects/flyswatter.png",466,75,459,0.5,"stim/24.jpeg",2,4,1,2,"HouseObjects",1,2,"left","left",0.669999838,1,1,1,0,NA,NA,NA,NA,NA,NA,NA,NA,NA,NA,NA,NA,NA,NA,NA,NA,NA,NA,NA,NA,NA,NA,NA,NA
"435","stim/objects/Instruments/harmonica2.png",467,75,460,0.3,"stim/42.jpeg",4,2,2,1,"Instruments",2,2,"right","left",0.691999912,0,0,1,0,16,75,1,0.3,2,"stim/42.jpeg",4,2,"stim/42.jpeg",2,"right",0.940999985,4,3,8.519000292,2,4.62100029,16,0,0,NA,1,NA,0
"468","stim/objects/Instruments/marimba.png",468,75,461,0.9,"stim/51.jpeg",5,1,3,2,"Instruments",2,3,"right","right",0.60800004,1,1,1,0,NA,NA,NA,NA,NA,NA,NA,NA,NA,NA,NA,NA,NA,NA,NA,NA,NA,NA,NA,NA,NA,NA,NA,NA
"552","stim/objects/Instruments/speaker2.png",469,75,462,0.1,"stim/63.jpeg",6,3,3,1,"Instruments",2,2,"right","left",0.539999962,0,0,1,0,199,75,1,0.1,2,"stim/63.jpeg",6,3,"stim/63.jpeg",2,"right",0.952000141,4,1,4.60800004,2,2.232000113,199,0,0,NA,1,NA,0
"353","stim/objects/HouseObjects/pan.png",470,75,463,0.9,"stim/63.jpeg",6,3,3,2,"HouseObjects",1,1,"left","left",0.494999886,1,1,1,0,NA,NA,NA,NA,NA,NA,NA,NA,NA,NA,NA,NA,NA,NA,NA,NA,NA,NA,NA,NA,NA,NA,NA,NA
"349","stim/objects/HouseObjects/pan.png",471,75,464,0.9,"stim/62.jpeg",6,2,3,2,"HouseObjects",1,4,"left","left",0.514999866,1,1,1,0,NA,NA,NA,NA,NA,NA,NA,NA,NA,NA,NA,NA,NA,NA,NA,NA,NA,NA,NA,NA,NA,NA,NA,NA
"414","stim/objects/Instruments/electricguitar2.png",472,75,465,0.7,"stim/31.jpeg",3,1,2,1,"Instruments",2,1,"right","right",0.601000071,1,1,1,0,17,75,1,0.7,2,"stim/31.jpeg",3,1,"stim/31.jpeg",1,"right",1.565000057,2,4,5.909000158,4,2.843000174,17,0,0,NA,0,NA,0
