"","participant","OvsN","PE_level","object_cat","obj_file","scn_file","corr_scn_cat","corr_scn_inst","scn_file.1","corr_loc","key_resp_id.keys","key_resp_id.rt","key_resp_conf.keys","key_resp_assoc.keys","key_resp_assoc.rt","key_resp_loc.keys","key_resp_loc.rt","trialN","id_acc","assoc.acc","cond_assoc","loc.acc","cond_loc","group"
"1",5,2,0,2,"stim/objects/Instruments/pipepiano3.png","",0,0,"",0,"right",3.215999842,NA,NA,NA,NA,NA,1,1,NA,NA,NA,NA,1
"2",5,1,0.9,1,"stim/objects/HouseObjects/sponge2.png","stim/63.jpeg",6,3,"stim/63.jpeg",4,"left",0.884000063,4,3,10.75199986,3,1.953999758,2,1,1,1,0,0,1
"3",5,1,0.1,2,"stim/objects/Instruments/violin2.png","stim/62.jpeg",6,2,"stim/62.jpeg",4,"left",4.120000124,4,3,3.265999794,4,5.389999866,3,1,0,0,1,1,1
"4",5,1,0.3,1,"stim/objects/HouseObjects/thermometer.png","stim/31.jpeg",3,1,"stim/31.jpeg",1,"left",3.737999916,4,1,5.068999767,2,4.730999947,4,1,1,1,0,0,1
"5",5,1,0.9,2,"stim/objects/Instruments/record_player2.png","stim/53.jpeg",5,3,"stim/53.jpeg",2,"left",2.798999786,4,2,9.284999847,3,1.963000059,5,1,0,0,0,0,1
"6",5,2,0,2,"stim/objects/Instruments/trombone3.png","",0,0,"",0,"left",4.695999861,NA,NA,NA,NA,NA,6,0,NA,NA,NA,NA,1
"7",5,1,0.3,2,"stim/objects/Instruments/harmonica2.png","stim/42.jpeg",4,2,"stim/42.jpeg",2,"left",3.164999962,4,2,3.487999916,2,1.285000086,7,1,1,1,1,1,1
"8",5,2,0,2,"stim/objects/Instruments/marimba3.png","",0,0,"",0,"right",1.501999855,NA,NA,NA,NA,NA,8,1,NA,NA,NA,NA,1
"9",5,2,0,2,"stim/objects/Instruments/electricdrumset3.png","",0,0,"",0,"right",1.118999958,NA,NA,NA,NA,NA,9,1,NA,NA,NA,NA,1
"10",5,1,0.9,1,"stim/objects/HouseObjects/saw2.png","stim/61.jpeg",6,1,"stim/61.jpeg",1,"left",1.0849998,3,3,5.721999884,2,2.736999989,10,1,0,0,0,0,1
"11",5,2,0,2,"stim/objects/Instruments/harmonica4.png","",0,0,"",0,"right",1.514999866,NA,NA,NA,NA,NA,11,1,NA,NA,NA,NA,1
"12",5,2,0,1,"stim/objects/HouseObjects/lintroller3.png","",0,0,"",0,"left",1.251999855,NA,NA,NA,NA,NA,12,0,NA,NA,NA,NA,1
"13",5,1,0.1,2,"stim/objects/Instruments/trombone2.png","stim/63.jpeg",6,3,"stim/63.jpeg",4,"right",2.382999897,4,1,6.546000004,1,0.839999914,13,0,0,NA,0,NA,1
"14",5,1,0.9,2,"stim/objects/Instruments/record2.png","stim/52.jpeg",5,2,"stim/52.jpeg",2,"left",1.516000032,4,2,2.000999928,3,1.75,14,1,1,1,0,0,1
"15",5,1,0.9,2,"stim/objects/Instruments/oboe2.png","stim/53.jpeg",5,3,"stim/53.jpeg",4,"left",1.41899991,4,2,4.335000038,4,3.437999964,15,1,0,0,1,1,1
"16",5,1,0.5,1,"stim/objects/Instruments/record_player.png","stim/11.jpeg",1,1,"stim/11.jpeg",3,"right",5.751999855,2,2,3.083999872,2,6.23300004,16,0,0,NA,0,NA,1
"17",5,2,0,2,"stim/objects/Instruments/musicsheet3.png","",0,0,"",0,"right",28.35299993,NA,NA,NA,NA,NA,17,1,NA,NA,NA,NA,1
"18",5,1,0.9,2,"stim/objects/Instruments/saxophone2.png","stim/54.jpeg",5,4,"stim/54.jpeg",1,"right",4.534999847,4,3,5.062999964,3,1.597999811,18,0,0,NA,0,NA,1
"19",5,2,0,2,"stim/objects/Instruments/flute3.png","",0,0,"",0,"right",1.973999977,NA,NA,NA,NA,NA,19,1,NA,NA,NA,NA,1
"20",5,2,0,2,"stim/objects/Instruments/laud4.png","",0,0,"",0,"right",1.480999947,NA,NA,NA,NA,NA,20,1,NA,NA,NA,NA,1
"21",5,1,0.9,1,"stim/objects/HouseObjects/towel2.png","stim/64.jpeg",6,4,"stim/64.jpeg",2,"left",2.382999897,3,1,2.201999903,1,2.092999935,21,1,0,0,0,0,1
"22",5,2,0,2,"stim/objects/Instruments/trumpet3.png","",0,0,"",0,"left",2.148999929,NA,NA,NA,NA,NA,22,0,NA,NA,NA,NA,1
"23",5,1,0.1,1,"stim/objects/HouseObjects/pitcher2.png","stim/51.jpeg",5,1,"stim/51.jpeg",1,"left",2.701999903,3,3,2.819999933,4,2.119999886,23,1,0,0,0,0,1
"24",5,2,0,2,"stim/objects/Instruments/saxophone3.png","",0,0,"",0,"right",1.835999966,NA,NA,NA,NA,NA,24,1,NA,NA,NA,NA,1
"25",5,2,0,2,"stim/objects/Instruments/speaker3.png","",0,0,"",0,"right",1.188999891,NA,NA,NA,NA,NA,25,1,NA,NA,NA,NA,1
"26",5,2,0,2,"stim/objects/Instruments/triangle3.png","",0,0,"",0,"right",1.269999981,NA,NA,NA,NA,NA,26,1,NA,NA,NA,NA,1
"27",5,2,0,1,"stim/objects/HouseObjects/handvacuum3.png","",0,0,"",0,"left",1.347999811,NA,NA,NA,NA,NA,27,0,NA,NA,NA,NA,1
"28",5,1,0.3,2,"stim/objects/Instruments/laud2.png","stim/42.jpeg",4,2,"stim/42.jpeg",3,"left",3.882999897,1,2,1.215999842,1,1.757999897,28,1,1,1,0,0,1
"29",5,1,0.9,1,"stim/objects/HouseObjects/scale2.png","stim/62.jpeg",6,2,"stim/62.jpeg",3,"left",1.500999928,4,1,4.869999886,2,7.65199995,29,1,0,0,0,0,1
"30",5,2,0,2,"stim/objects/Instruments/keyboard3.png","",0,0,"",0,"right",1.585999966,NA,NA,NA,NA,NA,30,1,NA,NA,NA,NA,1
"31",5,2,0,2,"stim/objects/Instruments/flutetrans4.png","",0,0,"",0,"left",2.403999805,NA,NA,NA,NA,NA,31,0,NA,NA,NA,NA,1
"32",5,2,0,2,"stim/objects/Instruments/metronome3.png","",0,0,"",0,"right",1.285999775,NA,NA,NA,NA,NA,32,1,NA,NA,NA,NA,1
"33",5,2,0,2,"stim/objects/Instruments/xylophone3.png","",0,0,"",0,"right",1.001999855,NA,NA,NA,NA,NA,33,1,NA,NA,NA,NA,1
"34",5,1,0.3,1,"stim/objects/HouseObjects/coffee2.png","stim/32.jpeg",3,2,"stim/32.jpeg",2,"right",1.085999966,4,2,1.181999922,2,1.452000141,34,0,1,NA,1,NA,1
"35",5,2,0,1,"stim/objects/HouseObjects/hairdryer4.png","",0,0,"",0,"right",1.467000008,NA,NA,NA,NA,NA,35,1,NA,NA,NA,NA,1
"36",5,2,0,1,"stim/objects/HouseObjects/iron3.png","",0,0,"",0,"right",1.016000032,NA,NA,NA,NA,NA,36,1,NA,NA,NA,NA,1
"37",5,2,0,1,"stim/objects/HouseObjects/match3.png","",0,0,"",0,"right",0.96600008,NA,NA,NA,NA,NA,37,1,NA,NA,NA,NA,1
"38",5,1,0.3,2,"stim/objects/Instruments/harp2.png","stim/43.jpeg",4,3,"stim/43.jpeg",4,"right",0.967000008,4,2,1.715999842,3,2.603999853,38,0,0,NA,0,NA,1
"39",5,2,0,1,"stim/objects/HouseObjects/handbrush4.png","",0,0,"",0,"right",1.070999861,NA,NA,NA,NA,NA,39,1,NA,NA,NA,NA,1
"40",5,2,0,2,"stim/objects/Instruments/electricguitar4.png","",0,0,"",0,"right",1.20299983,NA,NA,NA,NA,NA,40,1,NA,NA,NA,NA,1
"41",5,1,0.9,2,"stim/objects/Instruments/panflute2.png","stim/54.jpeg",5,4,"stim/54.jpeg",3,"right",2.694999933,1,2,2.453000069,3,1.093999863,41,0,0,NA,1,NA,1
"42",5,1,0.7,1,"stim/objects/HouseObjects/garbagebin2.png","stim/41.jpeg",4,1,"stim/41.jpeg",1,"right",2.514999866,2,4,1.333999872,3,1.59499979,42,0,0,NA,0,NA,1
"43",5,1,0.7,1,"stim/objects/HouseObjects/glassmop2.png","stim/43.jpeg",4,3,"stim/43.jpeg",3,"right",1.181999922,1,2,1.91899991,2,1.850000143,43,0,0,NA,0,NA,1
"44",5,1,0.1,2,"stim/objects/Instruments/tambourine2.png","stim/64.jpeg",6,4,"stim/64.jpeg",4,"left",2.071000099,3,4,1.417999744,1,1.734999895,44,1,1,1,0,0,1
"45",5,1,0.3,1,"stim/objects/HouseObjects/dishsoap2.png","stim/34.jpeg",3,4,"stim/34.jpeg",1,"right",1.479999781,1,2,0.751999855,2,1.701999903,45,0,0,NA,0,NA,1
"46",5,2,0,1,"stim/objects/HouseObjects/glassmop3.png","",0,0,"",0,"right",1.182999849,NA,NA,NA,NA,NA,46,1,NA,NA,NA,NA,1
"47",5,2,0,1,"stim/objects/HouseObjects/key3.png","",0,0,"",0,"right",1.099999905,NA,NA,NA,NA,NA,47,1,NA,NA,NA,NA,1
"48",5,1,0.3,1,"stim/objects/HouseObjects/dustpan2.png","stim/32.jpeg",3,2,"stim/32.jpeg",3,"right",0.967000008,3,2,1.486999989,3,2.381999969,48,0,1,NA,1,NA,1
"49",5,1,0.3,1,"stim/objects/HouseObjects/vacuumcleaner.png","stim/34.jpeg",3,4,"stim/34.jpeg",3,"right",1.204999924,2,4,1.381999969,2,1.904000044,49,0,1,NA,0,NA,1
"50",5,1,0.9,1,"stim/objects/HouseObjects/teapot2.png","stim/61.jpeg",6,1,"stim/61.jpeg",1,"left",3.73699975,3,4,2.048999786,1,2.0849998,50,1,0,0,1,1,1
"51",5,1,0.3,1,"stim/objects/HouseObjects/cushion2.png","stim/33.jpeg",3,3,"stim/33.jpeg",4,"right",1.217999935,4,2,0.917999983,2,1.153999805,51,0,0,NA,0,NA,1
"52",5,2,0,2,"stim/objects/Instruments/drums3.png","",0,0,"",0,"right",1.182999849,NA,NA,NA,NA,NA,52,1,NA,NA,NA,NA,1
"53",5,1,0.5,2,"stim/objects/HouseObjects/saw.png","stim/21.jpeg",2,1,"stim/21.jpeg",1,"left",1.285999775,2,3,1.251999855,4,2.16899991,53,1,0,0,0,0,1
"54",5,2,0,1,"stim/objects/HouseObjects/coffee3.png","",0,0,"",0,"left",2.023000002,NA,NA,NA,NA,NA,54,0,NA,NA,NA,NA,1
"55",5,2,0,1,"stim/objects/HouseObjects/cushion4.png","",0,0,"",0,"right",1.16899991,NA,NA,NA,NA,NA,55,1,NA,NA,NA,NA,1
"56",5,2,0,2,"stim/objects/Instruments/frenchhorn3.png","",0,0,"",0,"left",1.029999733,NA,NA,NA,NA,NA,56,0,NA,NA,NA,NA,1
"57",5,2,0,1,"stim/objects/HouseObjects/rubbergloves3.png","",0,0,"",0,"right",1.133999825,NA,NA,NA,NA,NA,57,1,NA,NA,NA,NA,1
"58",5,1,0.7,2,"stim/objects/Instruments/trumpet.png","stim/32.jpeg",3,2,"stim/32.jpeg",2,"left",1.019999981,3,4,1.403999805,4,2.487999916,58,1,0,0,0,0,1
"59",5,2,0,2,"stim/objects/Instruments/laud3.png","",0,0,"",0,"left",2.051000118,NA,NA,NA,NA,NA,59,0,NA,NA,NA,NA,1
"60",5,1,0.1,1,"stim/objects/HouseObjects/lintroller2.png","stim/52.jpeg",5,2,"stim/52.jpeg",3,"right",1.099999905,3,2,0.947000027,3,0.683999777,60,0,1,NA,1,NA,1
"61",5,2,0,2,"stim/objects/Instruments/oboe3.png","",0,0,"",0,"right",0.842000008,NA,NA,NA,NA,NA,61,1,NA,NA,NA,NA,1
"62",5,2,0,1,"stim/objects/HouseObjects/dishsoap3.png","",0,0,"",0,"right",0.723999977,NA,NA,NA,NA,NA,62,1,NA,NA,NA,NA,1
"63",5,2,0,2,"stim/objects/Instruments/grandpiano3.png","",0,0,"",0,"right",1.389999866,NA,NA,NA,NA,NA,63,1,NA,NA,NA,NA,1
"64",5,1,0.7,2,"stim/objects/Instruments/xylophone.png","stim/32.jpeg",3,2,"stim/32.jpeg",2,"left",1.437000036,2,3,0.703999758,4,0.95299983,64,1,0,0,0,0,1
"65",5,2,0,1,"stim/objects/HouseObjects/dustpan4.png","",0,0,"",0,"right",0.786999941,NA,NA,NA,NA,NA,65,1,NA,NA,NA,NA,1
"66",5,1,0.7,1,"stim/objects/HouseObjects/ironingboard2.png","stim/44.jpeg",4,4,"stim/44.jpeg",1,"left",1.237999916,3,2,2.583999872,1,0.790999889,66,1,0,0,1,1,1
"67",5,1,0.1,2,"stim/objects/Instruments/tuba2.png","stim/61.jpeg",6,1,"stim/61.jpeg",2,"right",1.703999996,2,3,0.785999775,3,1.101000071,67,0,0,NA,0,NA,1
"68",5,2,0,1,"stim/objects/HouseObjects/garbagebin3.png","",0,0,"",0,"right",1.417999744,NA,NA,NA,NA,NA,68,1,NA,NA,NA,NA,1
"69",5,2,0,1,"stim/objects/HouseObjects/doormat3.png","",0,0,"",0,"right",1.480999947,NA,NA,NA,NA,NA,69,1,NA,NA,NA,NA,1
"70",5,1,0.1,2,"stim/objects/Instruments/vuvuzela2.png","stim/63.jpeg",6,3,"stim/63.jpeg",2,"left",0.949999809,3,3,3.215999842,3,1.750999928,70,1,1,1,0,0,1
"71",5,1,0.9,2,"stim/objects/Instruments/marimba2.png","stim/53.jpeg",5,3,"stim/53.jpeg",1,"right",1.174999952,4,4,0.945999861,3,0.667999983,71,0,0,NA,0,NA,1
"72",5,2,0,1,"stim/objects/HouseObjects/ironingboard4.png","",0,0,"",0,"right",0.820999861,NA,NA,NA,NA,NA,72,1,NA,NA,NA,NA,1
"73",5,1,0.5,2,"stim/objects/HouseObjects/sponge.png","stim/23.jpeg",2,3,"stim/23.jpeg",3,"left",1.890000105,3,2,1.647999763,3,1.368999958,73,1,0,0,1,1,1
"74",5,2,0,1,"stim/objects/HouseObjects/thermometer3.png","",0,0,"",0,"right",1.750999928,NA,NA,NA,NA,NA,74,1,NA,NA,NA,NA,1
"75",5,2,0,2,"stim/objects/Instruments/vuvuzela3.png","",0,0,"",0,"right",0.917999983,NA,NA,NA,NA,NA,75,1,NA,NA,NA,NA,1
"76",5,1,0.3,2,"stim/objects/Instruments/frenchhorn2.png","stim/42.jpeg",4,2,"stim/42.jpeg",1,"left",2.066999912,2,3,1.486999989,2,1.583999872,76,1,0,0,0,0,1
"77",5,1,0.9,2,"stim/objects/Instruments/musicsheet2.png","stim/51.jpeg",5,1,"stim/51.jpeg",3,"left",2.250999928,4,3,5.014999866,3,2.270999908,77,1,0,0,1,1,1
"78",5,2,0,2,"stim/objects/Instruments/harp4.png","",0,0,"",0,"right",1.848999977,NA,NA,NA,NA,NA,78,1,NA,NA,NA,NA,1
"79",5,2,0,1,"stim/objects/HouseObjects/knife3.png","",0,0,"",0,"right",1.036999941,NA,NA,NA,NA,NA,79,1,NA,NA,NA,NA,1
"80",5,1,0.7,1,"stim/objects/HouseObjects/iron2.png","stim/43.jpeg",4,3,"stim/43.jpeg",2,"right",0.938999891,4,3,0.772999763,2,0.536999941,80,0,1,NA,1,NA,1
"81",5,2,0,1,"stim/objects/HouseObjects/garbagebin4.png","",0,0,"",0,"right",0.785000086,NA,NA,NA,NA,NA,81,1,NA,NA,NA,NA,1
"82",5,2,0,2,"stim/objects/Instruments/drums4.png","",0,0,"",0,"right",0.634000063,NA,NA,NA,NA,NA,82,1,NA,NA,NA,NA,1
"83",5,2,0,2,"stim/objects/Instruments/maraca4.png","",0,0,"",0,"right",0.599999905,NA,NA,NA,NA,NA,83,1,NA,NA,NA,NA,1
"84",5,2,0,2,"stim/objects/Instruments/harp3.png","",0,0,"",0,"right",1.133999825,NA,NA,NA,NA,NA,84,1,NA,NA,NA,NA,1
"85",5,2,0,2,"stim/objects/Instruments/musicstand3.png","",0,0,"",0,"right",0.833999872,NA,NA,NA,NA,NA,85,1,NA,NA,NA,NA,1
"86",5,1,0.1,2,"stim/objects/Instruments/timbal2.png","stim/61.jpeg",6,1,"stim/61.jpeg",2,"right",1.464999914,2,3,1.404999971,4,1.397000074,86,0,0,NA,0,NA,1
"87",5,2,0,2,"stim/objects/Instruments/harmonica3.png","",0,0,"",0,"left",2.251999855,NA,NA,NA,NA,NA,87,0,NA,NA,NA,NA,1
"88",5,1,0.5,2,"stim/objects/HouseObjects/spraybottle.png","stim/24.jpeg",2,4,"stim/24.jpeg",3,"right",1.336999893,2,3,0.55099988,4,0.417999983,88,0,0,NA,0,NA,1
"89",5,1,0.3,1,"stim/objects/HouseObjects/thread.png","stim/32.jpeg",3,2,"stim/32.jpeg",1,"right",1.236999989,2,4,1.493999958,3,1.189999819,89,0,0,NA,0,NA,1
"90",5,2,0,2,"stim/objects/Instruments/timbal3.png","",0,0,"",0,"right",0.987999916,NA,NA,NA,NA,NA,90,1,NA,NA,NA,NA,1
"91",5,1,0.7,2,"stim/objects/Instruments/violin.png","stim/34.jpeg",3,4,"stim/34.jpeg",4,"left",1.667999983,3,3,1.148000002,4,1.320999861,91,1,0,0,1,1,1
"92",5,1,0.7,1,"stim/objects/HouseObjects/flyswatter2.png","stim/44.jpeg",4,4,"stim/44.jpeg",1,"left",2.16899991,4,3,1.453999996,2,2.520999908,92,1,0,0,0,0,1
"93",5,2,0,1,"stim/objects/HouseObjects/glassmop4.png","",0,0,"",0,"right",1.065999985,NA,NA,NA,NA,NA,93,1,NA,NA,NA,NA,1
"94",5,2,0,1,"stim/objects/HouseObjects/flyswatter3.png","",0,0,"",0,"right",0.751999855,NA,NA,NA,NA,NA,94,1,NA,NA,NA,NA,1
"95",5,1,0.5,2,"stim/objects/HouseObjects/scale.png","stim/22.jpeg",2,2,"stim/22.jpeg",2,"right",0.750999928,4,3,0.70299983,2,0.466999769,95,0,0,NA,1,NA,1
"96",5,1,0.1,2,"stim/objects/Instruments/trumpet2.png","stim/64.jpeg",6,4,"stim/64.jpeg",4,"left",1.904999733,3,2,0.953999758,1,0.869999886,96,1,0,0,0,0,1
"97",5,2,0,1,"stim/objects/HouseObjects/flyswatter4.png","",0,0,"",0,"right",0.917999744,NA,NA,NA,NA,NA,97,1,NA,NA,NA,NA,1
"98",5,1,0.1,1,"stim/objects/HouseObjects/pan2.png","stim/54.jpeg",5,4,"stim/54.jpeg",3,"right",0.633999825,2,1,3.048999786,2,0.882999897,98,0,0,NA,0,NA,1
"99",5,1,0.9,2,"stim/objects/Instruments/musicstand2.png","stim/52.jpeg",5,2,"stim/52.jpeg",4,"right",1.335000038,3,2,0.633000135,3,0.632999897,99,0,1,NA,0,NA,1
"100",5,1,0.5,1,"stim/objects/Instruments/saxophone.png","stim/12.jpeg",1,2,"stim/12.jpeg",3,"right",0.821000099,4,4,1.516999722,2,2.270999908,100,0,0,NA,0,NA,1
"101",5,2,0,1,"stim/objects/HouseObjects/handbrush3.png","",0,0,"",0,"right",1.453000069,NA,NA,NA,NA,NA,101,1,NA,NA,NA,NA,1
"102",5,1,0.3,2,"stim/objects/Instruments/grandpiano2.png","stim/44.jpeg",4,4,"stim/44.jpeg",4,"left",1.514999866,3,3,3.061999798,2,2.415999889,102,1,0,0,0,0,1
"103",5,2,0,1,"stim/objects/HouseObjects/ironingboard3.png","",0,0,"",0,"right",0.888999939,NA,NA,NA,NA,NA,103,1,NA,NA,NA,NA,1
"104",5,2,0,1,"stim/objects/HouseObjects/doormat4.png","",0,0,"",0,"right",1.0849998,NA,NA,NA,NA,NA,104,1,NA,NA,NA,NA,1
"105",5,2,0,1,"stim/objects/HouseObjects/glass4.png","",0,0,"",0,"right",0.688999891,NA,NA,NA,NA,NA,105,1,NA,NA,NA,NA,1
"106",5,2,0,1,"stim/objects/HouseObjects/safetypin3.png","",0,0,"",0,"right",0.682999849,NA,NA,NA,NA,NA,106,1,NA,NA,NA,NA,1
"107",5,1,0.3,2,"stim/objects/Instruments/hihat2.png","stim/44.jpeg",4,4,"stim/44.jpeg",2,"right",2.619999886,2,2,1.036000013,3,0.348999977,107,0,0,NA,0,NA,1
"108",5,1,0.1,1,"stim/objects/HouseObjects/knife2.png","stim/51.jpeg",5,1,"stim/51.jpeg",3,"right",0.786999941,3,2,0.438999891,3,0.335000038,108,0,0,NA,1,NA,1
"109",5,2,0,1,"stim/objects/HouseObjects/wateringcan3.png","",0,0,"",0,"left",1.308000088,NA,NA,NA,NA,NA,109,0,NA,NA,NA,NA,1
"110",5,1,0.1,1,"stim/objects/HouseObjects/rug2.png","stim/51.jpeg",5,1,"stim/51.jpeg",2,"right",0.001999855,2,3,1.014999866,1,2.031999826,110,0,0,NA,0,NA,1
"111",5,2,0,1,"stim/objects/HouseObjects/towel3.png","",0,0,"",0,"right",2.832999945,NA,NA,NA,NA,NA,111,1,NA,NA,NA,NA,1
"112",5,1,0.9,2,"stim/objects/Instruments/pipepiano2.png","stim/51.jpeg",5,1,"stim/51.jpeg",1,"left",1.181999922,4,3,3.820999861,2,4.284999847,112,1,0,0,0,0,1
"113",5,2,0,2,"stim/objects/Instruments/flute4.png","",0,0,"",0,"right",1.112999916,NA,NA,NA,NA,NA,113,1,NA,NA,NA,NA,1
"114",5,2,0,1,"stim/objects/HouseObjects/sponge3.png","",0,0,"",0,"right",0.950999975,NA,NA,NA,NA,NA,114,1,NA,NA,NA,NA,1
"115",5,1,0.5,2,"stim/objects/Instruments/triangle.png","stim/23.jpeg",2,3,"stim/23.jpeg",2,"left",1.000999928,4,2,3.34800005,3,3.335000038,115,1,0,0,0,0,1
"116",5,2,0,1,"stim/objects/HouseObjects/thread3.png","",0,0,"",0,"right",1.100000143,NA,NA,NA,NA,NA,116,1,NA,NA,NA,NA,1
"117",5,2,0,2,"stim/objects/Instruments/grandpiano4.png","",0,0,"",0,"right",0.769999981,NA,NA,NA,NA,NA,117,1,NA,NA,NA,NA,1
"118",5,2,0,2,"stim/objects/Instruments/gong3.png","",0,0,"",0,"right",0.772000074,NA,NA,NA,NA,NA,118,1,NA,NA,NA,NA,1
"119",5,2,0,1,"stim/objects/HouseObjects/dustpan3.png","",0,0,"",0,"right",0.835000038,NA,NA,NA,NA,NA,119,1,NA,NA,NA,NA,1
"120",5,1,0.7,1,"stim/objects/HouseObjects/hairdryer2.png","stim/44.jpeg",4,4,"stim/44.jpeg",3,"right",0.799999952,4,3,0.917999983,2,1.953000069,120,0,0,NA,0,NA,1
"121",5,2,0,2,"stim/objects/Instruments/electricguitar3.png","",0,0,"",0,"right",1.090999842,NA,NA,NA,NA,NA,121,1,NA,NA,NA,NA,1
"122",5,2,0,2,"stim/objects/Instruments/guitarcase4.png","",0,0,"",0,"right",0.890999794,NA,NA,NA,NA,NA,122,1,NA,NA,NA,NA,1
"123",5,1,0.1,1,"stim/objects/HouseObjects/remote2.png","stim/53.jpeg",5,3,"stim/53.jpeg",1,"left",1.953000069,4,3,5.769999981,1,2.500999928,123,1,1,1,1,1,1
"124",5,1,0.9,1,"stim/objects/HouseObjects/thread2.png","stim/63.jpeg",6,3,"stim/63.jpeg",3,"right",0.987999916,3,2,1.965999842,2,2.585000038,124,0,0,NA,0,NA,1
"125",5,1,0.9,1,"stim/objects/HouseObjects/vacuumcleaner2.png","stim/61.jpeg",6,1,"stim/61.jpeg",1,"right",0.842000008,1,2,0.584000111,3,0.354000092,125,0,0,NA,0,NA,1
"126",5,2,0,1,"stim/objects/HouseObjects/vacuumcleaner3.png","",0,0,"",0,"right",0.967999935,NA,NA,NA,NA,NA,126,1,NA,NA,NA,NA,1
"127",5,1,0.7,1,"stim/objects/HouseObjects/handbrush2.png","stim/41.jpeg",4,1,"stim/41.jpeg",1,"left",1.882999897,3,4,1.848999977,3,1.669000149,127,1,0,0,0,0,1
"128",5,1,0.5,1,"stim/objects/HouseObjects/remote.png","stim/14.jpeg",1,4,"stim/14.jpeg",1,"right",0.965999842,4,4,1.221999884,3,0.644999981,128,0,1,NA,0,NA,1
"129",5,2,0,2,"stim/objects/Instruments/flutetrans3.png","",0,0,"",0,"right",0.882999897,NA,NA,NA,NA,NA,129,1,NA,NA,NA,NA,1
"130",5,2,0,1,"stim/objects/HouseObjects/pan3.png","",0,0,"",0,"right",0.965999842,NA,NA,NA,NA,NA,130,1,NA,NA,NA,NA,1
"131",5,1,0.5,2,"stim/objects/Instruments/timbal.png","stim/22.jpeg",2,2,"stim/22.jpeg",2,"left",1.631999969,4,2,2.430000067,2,2.029999971,131,1,1,1,1,1,1
"132",5,1,0.1,1,"stim/objects/HouseObjects/rubbergloves2.png","stim/54.jpeg",5,4,"stim/54.jpeg",1,"right",0.819999933,1,2,0.41899991,1,0.250999928,132,0,0,NA,1,NA,1
"133",5,2,0,2,"stim/objects/Instruments/tambourine3.png","",0,0,"",0,"right",1.451999903,NA,NA,NA,NA,NA,133,1,NA,NA,NA,NA,1
"134",5,2,0,2,"stim/objects/Instruments/record3.png","",0,0,"",0,"right",0.8349998,NA,NA,NA,NA,NA,134,1,NA,NA,NA,NA,1
"135",5,2,0,1,"stim/objects/HouseObjects/cushion3.png","",0,0,"",0,"right",0.67599988,NA,NA,NA,NA,NA,135,1,NA,NA,NA,NA,1
"136",5,2,0,1,"stim/objects/HouseObjects/remote3.png","",0,0,"",0,"right",0.772999763,NA,NA,NA,NA,NA,136,1,NA,NA,NA,NA,1
"137",5,1,0.3,2,"stim/objects/Instruments/maraca2.png","stim/43.jpeg",4,3,"stim/43.jpeg",2,"right",1.36199975,1,2,0.450999737,3,0.351000071,137,0,0,NA,0,NA,1
"138",5,1,0.3,1,"stim/objects/HouseObjects/wateringcan.png","stim/31.jpeg",3,1,"stim/31.jpeg",1,"right",0.614999771,1,2,0.551000118,3,0.548000097,138,0,0,NA,0,NA,1
"139",5,1,0.9,1,"stim/objects/HouseObjects/wateringcan2.png","stim/62.jpeg",6,2,"stim/62.jpeg",4,"right",0.953999996,1,2,0.501999855,3,0.467999935,139,0,1,NA,0,NA,1
"140",5,2,0,1,"stim/objects/HouseObjects/spraybottle3.png","",0,0,"",0,"right",0.371000051,NA,NA,NA,NA,NA,140,1,NA,NA,NA,NA,1
"141",5,1,0.3,2,"stim/objects/Instruments/gong2.png","stim/43.jpeg",4,3,"stim/43.jpeg",4,"right",0.717000008,1,2,0.46600008,3,0.285000086,141,0,0,NA,0,NA,1
"142",5,1,0.7,2,"stim/objects/Instruments/vuvuzela.png","stim/31.jpeg",3,1,"stim/31.jpeg",3,"right",0.786000013,3,2,2.632999897,2,1.132999897,142,0,0,NA,0,NA,1
"143",5,2,0,2,"stim/objects/Instruments/electricdrumset4.png","",0,0,"",0,"right",1.085999966,NA,NA,NA,NA,NA,143,1,NA,NA,NA,NA,1
"144",5,2,0,1,"stim/objects/HouseObjects/coffee4.png","",0,0,"",0,"right",0.730999947,NA,NA,NA,NA,NA,144,1,NA,NA,NA,NA,1
"145",5,2,0,1,"stim/objects/HouseObjects/pitcher3.png","",0,0,"",0,"right",0.737999916,NA,NA,NA,NA,NA,145,1,NA,NA,NA,NA,1
"146",5,2,0,2,"stim/objects/Instruments/hihat4.png","",0,0,"",0,"left",1.859999895,NA,NA,NA,NA,NA,146,0,NA,NA,NA,NA,1
"147",5,2,0,1,"stim/objects/HouseObjects/hairdryer3.png","",0,0,"",0,"right",1.481999874,NA,NA,NA,NA,NA,147,1,NA,NA,NA,NA,1
"148",5,1,0.7,2,"stim/objects/Instruments/flutetrans2.png","stim/33.jpeg",3,3,"stim/33.jpeg",1,"right",0.903999805,1,2,0.437000036,4,0.480999947,148,0,0,NA,0,NA,1
"149",5,2,0,1,"stim/objects/HouseObjects/handvacuum4.png","",0,0,"",0,"right",0.704999924,NA,NA,NA,NA,NA,149,1,NA,NA,NA,NA,1
"150",5,1,0.9,2,"stim/objects/Instruments/metronome2.png","stim/54.jpeg",5,4,"stim/54.jpeg",3,"right",1.05099988,2,3,0.604999781,4,0.500999928,150,0,0,NA,0,NA,1
"151",5,1,0.1,1,"stim/objects/HouseObjects/safetypin2.png","stim/52.jpeg",5,2,"stim/52.jpeg",4,"right",1.024999857,2,3,0.536999941,4,0.321999788,151,0,0,NA,1,NA,1
"152",5,1,0.7,1,"stim/objects/HouseObjects/key2.png","stim/41.jpeg",4,1,"stim/41.jpeg",1,"right",0.834000111,3,2,0.348999739,3,0.45299983,152,0,0,NA,0,NA,1
"153",5,1,0.1,1,"stim/objects/HouseObjects/match2.png","stim/53.jpeg",5,3,"stim/53.jpeg",3,"right",0.3349998,4,3,1.133000135,1,2.231999874,153,0,1,NA,0,NA,1
"154",5,1,0.5,1,"stim/objects/Instruments/panflute.png","stim/12.jpeg",1,2,"stim/12.jpeg",1,"right",1.585999727,3,3,2.513999939,2,1.404000044,154,0,0,NA,0,NA,1
"155",5,1,0.7,2,"stim/objects/Instruments/tuba.png","stim/33.jpeg",3,3,"stim/33.jpeg",4,"left",29.14199996,1,2,2.701999903,3,1.611999989,155,1,0,0,0,0,1
"156",5,2,0,2,"stim/objects/Instruments/gong4.png","",0,0,"",0,"right",7.681999922,NA,NA,NA,NA,NA,156,1,NA,NA,NA,NA,1
"157",5,1,0.5,2,"stim/objects/Instruments/trombone.png","stim/24.jpeg",2,4,"stim/24.jpeg",1,"left",1.773000002,3,3,2.230999947,4,1.166999817,157,1,0,0,0,0,1
"158",5,2,0,2,"stim/objects/Instruments/guitarcase3.png","",0,0,"",0,"right",1.835000038,NA,NA,NA,NA,NA,158,1,NA,NA,NA,NA,1
"159",5,1,0.1,1,"stim/objects/HouseObjects/recyclingbin2.png","stim/52.jpeg",5,2,"stim/52.jpeg",3,"left",1.09800005,4,4,1.11899972,3,0.674999952,159,1,0,0,1,1,1
"160",5,1,0.9,1,"stim/objects/HouseObjects/thermometer2.png","stim/62.jpeg",6,2,"stim/62.jpeg",2,"right",0.857000113,1,2,0.695999861,3,0.585999727,160,0,1,NA,0,NA,1
"161",5,1,0.7,1,"stim/objects/HouseObjects/glass2.png","stim/42.jpeg",4,2,"stim/42.jpeg",2,"right",0.786999941,2,3,0.118000031,3,0.516000032,161,0,0,NA,0,NA,1
"162",5,2,0,1,"stim/objects/HouseObjects/saw3.png","",0,0,"",0,"right",0.737999916,NA,NA,NA,NA,NA,162,1,NA,NA,NA,NA,1
"163",5,2,0,2,"stim/objects/Instruments/panflute3.png","",0,0,"",0,"right",0.703999758,NA,NA,NA,NA,NA,163,1,NA,NA,NA,NA,1
"164",5,1,0.5,1,"stim/objects/Instruments/record.png","stim/14.jpeg",1,4,"stim/14.jpeg",1,"right",1.154999971,3,2,0.522000074,3,0.520999908,164,0,0,NA,0,NA,1
"165",5,1,0.5,2,"stim/objects/Instruments/speaker.png","stim/24.jpeg",2,4,"stim/24.jpeg",1,"right",0.648999929,3,2,0.270999908,3,0.562999725,165,0,0,NA,0,NA,1
"166",5,2,0,1,"stim/objects/HouseObjects/teapot3.png","",0,0,"",0,"right",0.822000027,NA,NA,NA,NA,NA,166,1,NA,NA,NA,NA,1
"167",5,1,0.5,1,"stim/objects/HouseObjects/rug.png","stim/12.jpeg",1,2,"stim/12.jpeg",2,"right",0.667999983,3,2,0.188999891,3,0.486000061,167,0,1,NA,0,NA,1
"168",5,1,0.5,2,"stim/objects/HouseObjects/teapot.png","stim/21.jpeg",2,1,"stim/21.jpeg",4,"right",0.835999727,4,3,0.951999903,2,0.835999966,168,0,0,NA,0,NA,1
"169",5,1,0.3,1,"stim/objects/HouseObjects/doormat2.png","stim/31.jpeg",3,1,"stim/31.jpeg",3,"right",1.950999975,1,2,0.237999916,3,0.232000113,169,0,0,NA,1,NA,1
"170",5,2,0,2,"stim/objects/Instruments/maraca3.png","",0,0,"",0,"left",1.737999916,NA,NA,NA,NA,NA,170,0,NA,NA,NA,NA,1
"171",5,1,0.5,2,"stim/objects/Instruments/tambourine.png","stim/21.jpeg",2,1,"stim/21.jpeg",2,"left",1.474999905,3,2,0.447000027,1,0.785999775,171,1,0,0,0,0,1
"172",5,1,0.7,1,"stim/objects/HouseObjects/handvacuum2.png","stim/42.jpeg",4,2,"stim/42.jpeg",4,"left",1.439999819,4,3,0.835999727,2,0.953000069,172,1,0,0,0,0,1
"173",5,1,0.1,2,"stim/objects/Instruments/xylophone2.png","stim/64.jpeg",6,4,"stim/64.jpeg",4,"right",0.848999977,1,1,0.930999994,2,0.63499999,173,0,0,NA,0,NA,1
"174",5,1,0.5,1,"stim/objects/HouseObjects/recyclingbin.png","stim/13.jpeg",1,3,"stim/13.jpeg",4,"right",1.153999805,2,3,0.45299983,4,0.644999981,174,0,1,NA,1,NA,1
"175",5,2,0,2,"stim/objects/Instruments/violin3.png","",0,0,"",0,"left",1.341999769,NA,NA,NA,NA,NA,175,0,NA,NA,NA,NA,1
"176",5,1,0.1,2,"stim/objects/Instruments/triangle2.png","stim/62.jpeg",6,2,"stim/62.jpeg",2,"right",1.252999783,1,2,0.34800005,3,0.286000013,176,0,1,NA,0,NA,1
"177",5,1,0.5,1,"stim/objects/Instruments/pipepiano.png","stim/13.jpeg",1,3,"stim/13.jpeg",2,"left",1.5849998,4,3,0.814999819,2,1.819999933,177,1,1,1,1,1,1
"178",5,2,0,1,"stim/objects/HouseObjects/dishsoap4.png","",0,0,"",0,"right",0.849999905,NA,NA,NA,NA,NA,178,1,NA,NA,NA,NA,1
"179",5,1,0.7,2,"stim/objects/Instruments/flute2.png","stim/32.jpeg",3,2,"stim/32.jpeg",2,"right",0.731999874,4,3,0.654999971,2,1.702000141,179,0,0,NA,1,NA,1
"180",5,2,0,2,"stim/objects/Instruments/record_player3.png","",0,0,"",0,"right",0.966999769,NA,NA,NA,NA,NA,180,1,NA,NA,NA,NA,1
"181",5,2,0,2,"stim/objects/Instruments/frenchhorn4.png","",0,0,"",0,"left",1.3349998,NA,NA,NA,NA,NA,181,0,NA,NA,NA,NA,1
"182",5,2,0,2,"stim/objects/Instruments/hihat3.png","",0,0,"",0,"left",1.084000111,NA,NA,NA,NA,NA,182,0,NA,NA,NA,NA,1
"183",5,1,0.7,2,"stim/objects/Instruments/electricdrumset2.png","stim/34.jpeg",3,4,"stim/34.jpeg",1,"left",0.980000019,4,3,2.084000111,2,1.417999983,183,1,0,0,0,0,1
"184",5,2,0,1,"stim/objects/HouseObjects/glass3.png","",0,0,"",0,"right",1.308999777,NA,NA,NA,NA,NA,184,1,NA,NA,NA,NA,1
"185",5,1,0.7,2,"stim/objects/Instruments/electricguitar2.png","stim/31.jpeg",3,1,"stim/31.jpeg",1,"left",0.938999891,4,2,1.715999842,1,1.869999886,185,1,0,0,1,1,1
"186",5,1,0.5,1,"stim/objects/HouseObjects/rubbergloves.png","stim/11.jpeg",1,1,"stim/11.jpeg",4,"right",0.932999849,1,1,0.201999903,2,0.482000113,186,0,1,NA,0,NA,1
"187",5,2,0,1,"stim/objects/HouseObjects/key4.png","",0,0,"",0,"right",1.16899991,NA,NA,NA,NA,NA,187,1,NA,NA,NA,NA,1
"188",5,2,0,1,"stim/objects/HouseObjects/scale3.png","",0,0,"",0,"right",0.786999941,NA,NA,NA,NA,NA,188,1,NA,NA,NA,NA,1
"189",5,1,0.3,2,"stim/objects/Instruments/guitarcase2.png","stim/41.jpeg",4,1,"stim/41.jpeg",4,"left",1.438999891,3,4,2.014999866,2,2.181999922,189,1,0,0,0,0,1
"190",5,1,0.3,1,"stim/objects/HouseObjects/towel.png","stim/33.jpeg",3,3,"stim/33.jpeg",4,"right",1.20299983,1,1,0.222999811,1,0.214999914,190,0,0,NA,0,NA,1
"191",5,2,0,1,"stim/objects/HouseObjects/iron4.png","",0,0,"",0,"right",0.967000008,NA,NA,NA,NA,NA,191,1,NA,NA,NA,NA,1
"192",5,1,0.5,1,"stim/objects/HouseObjects/safetypin.png","stim/13.jpeg",1,3,"stim/13.jpeg",1,"right",0.951999903,2,3,0.431999922,2,0.383999825,192,0,1,NA,0,NA,1
"193",5,2,0,1,"stim/objects/HouseObjects/recyclingbin3.png","",0,0,"",0,"right",0.648000002,NA,NA,NA,NA,NA,193,1,NA,NA,NA,NA,1
"194",5,1,0.3,2,"stim/objects/Instruments/keyboard2.png","stim/41.jpeg",4,1,"stim/41.jpeg",4,"left",1.250999928,4,2,1.286000013,2,2.032000065,194,1,0,0,0,0,1
"195",5,2,0,1,"stim/objects/HouseObjects/rug3.png","",0,0,"",0,"right",1.203999758,NA,NA,NA,NA,NA,195,1,NA,NA,NA,NA,1
"196",5,1,0.1,2,"stim/objects/Instruments/speaker2.png","stim/63.jpeg",6,3,"stim/63.jpeg",2,"right",1.404000044,3,3,0.583999872,3,0.197999954,196,0,1,NA,0,NA,1
"197",5,1,0.7,2,"stim/objects/Instruments/drums2.png","stim/33.jpeg",3,3,"stim/33.jpeg",1,"right",1.485000134,1,2,0.388999701,3,0.22300005,197,0,0,NA,0,NA,1
"198",5,2,0,2,"stim/objects/Instruments/tuba3.png","",0,0,"",0,"right",1.391000032,NA,NA,NA,NA,NA,198,1,NA,NA,NA,NA,1
"199",5,2,0,2,"stim/objects/Instruments/keyboard4.png","",0,0,"",0,"right",0.870000124,NA,NA,NA,NA,NA,199,1,NA,NA,NA,NA,1
"200",5,1,0.9,1,"stim/objects/HouseObjects/spraybottle2.png","stim/64.jpeg",6,4,"stim/64.jpeg",4,"right",0.681999922,1,1,0.3349998,2,0.404999971,200,0,0,NA,0,NA,1
