"","obj_file","X.x","participant.x","trialN.x","trial_cond","scn_file.x","scn_cat","scn_inst","scn_condition","fillers","obj_cat","obj_cat_num","quadrant","corr_ans","key_resp_trial.keys","key_resp_trial.rt","trial_acc","trial_acc_manual","group.x","practice","X.y","participant.y","OvsN","PE_level","object_cat","scn_file.y","corr_scn_cat","corr_scn_inst","scn_file.1","corr_loc","key_resp_id.keys","key_resp_id.rt","key_resp_conf.keys","key_resp_assoc.keys","key_resp_assoc.rt","key_resp_loc.keys","key_resp_loc.rt","trialN.y","id_acc","assoc.acc","cond_assoc","loc.acc","cond_loc","group.y"
"112","stim/objects/HouseObjects/clothespin2.png",1,5,1,0.9,"stim/64.jpeg",6,4,3,NA,"HouseObjects",1,1,"left","",NA,0,0,1,1,NA,NA,NA,NA,NA,NA,NA,NA,NA,NA,NA,NA,NA,NA,NA,NA,NA,NA,NA,NA,NA,NA,NA,NA
"73","stim/objects/HouseObjects/bucket.png",2,5,2,0.3,"stim/31.jpeg",3,1,2,NA,"HouseObjects",1,1,"left","right",0.720999956,0,0,1,1,NA,NA,NA,NA,NA,NA,NA,NA,NA,NA,NA,NA,NA,NA,NA,NA,NA,NA,NA,NA,NA,NA,NA,NA
"167","stim/objects/Instruments/bassguitar.png",3,5,3,0.5,"stim/22.jpeg",2,2,1,NA,"Instruments",2,1,"right","",NA,0,0,1,1,NA,NA,NA,NA,NA,NA,NA,NA,NA,NA,NA,NA,NA,NA,NA,NA,NA,NA,NA,NA,NA,NA,NA,NA
"209","stim/objects/Instruments/clarinet.png",4,5,4,0.7,"stim/31.jpeg",3,1,2,NA,"Instruments",2,3,"right","right",0.687999725,1,1,1,1,NA,NA,NA,NA,NA,NA,NA,NA,NA,NA,NA,NA,NA,NA,NA,NA,NA,NA,NA,NA,NA,NA,NA,NA
"217","stim/objects/Instruments/cornet.png",5,5,5,0.7,"stim/32.jpeg",3,2,2,NA,"Instruments",2,2,"right","right",0.728999853,1,1,1,1,NA,NA,NA,NA,NA,NA,NA,NA,NA,NA,NA,NA,NA,NA,NA,NA,NA,NA,NA,NA,NA,NA,NA,NA
"145","stim/objects/Instruments/banjo.png",6,5,6,0.5,"stim/14.jpeg",1,4,1,NA,"Instruments",2,2,"right","",NA,0,0,1,1,NA,NA,NA,NA,NA,NA,NA,NA,NA,NA,NA,NA,NA,NA,NA,NA,NA,NA,NA,NA,NA,NA,NA,NA
"61","stim/objects/HouseObjects/bottle.png",7,5,7,0.5,"stim/23.jpeg",2,3,1,NA,"HouseObjects",1,1,"left","",NA,0,0,1,1,NA,NA,NA,NA,NA,NA,NA,NA,NA,NA,NA,NA,NA,NA,NA,NA,NA,NA,NA,NA,NA,NA,NA,NA
"186","stim/objects/Instruments/cello2.png",8,5,8,0.9,"stim/53.jpeg",5,3,3,NA,"Instruments",2,3,"right","",NA,0,0,1,1,NA,NA,NA,NA,NA,NA,NA,NA,NA,NA,NA,NA,NA,NA,NA,NA,NA,NA,NA,NA,NA,NA,NA,NA
"129","stim/objects/Instruments/acousticguitar.png",9,5,9,0.5,"stim/12.jpeg",1,2,1,NA,"Instruments",2,2,"right","right",0.443000078,1,1,1,1,NA,NA,NA,NA,NA,NA,NA,NA,NA,NA,NA,NA,NA,NA,NA,NA,NA,NA,NA,NA,NA,NA,NA,NA
"195","stim/objects/Instruments/chime.png",10,5,10,0.5,"stim/24.jpeg",2,4,1,NA,"Instruments",2,1,"right","left",0.711999893,0,0,1,1,NA,NA,NA,NA,NA,NA,NA,NA,NA,NA,NA,NA,NA,NA,NA,NA,NA,NA,NA,NA,NA,NA,NA,NA
"62","stim/objects/HouseObjects/bottle.png",11,5,11,0.5,"stim/23.jpeg",2,3,1,NA,"HouseObjects",1,1,"left","",NA,0,0,1,1,NA,NA,NA,NA,NA,NA,NA,NA,NA,NA,NA,NA,NA,NA,NA,NA,NA,NA,NA,NA,NA,NA,NA,NA
"137","stim/objects/Instruments/balalaika.png",12,5,12,0.5,"stim/13.jpeg",1,3,1,NA,"Instruments",2,4,"right","right",0.605999708,1,1,1,1,NA,NA,NA,NA,NA,NA,NA,NA,NA,NA,NA,NA,NA,NA,NA,NA,NA,NA,NA,NA,NA,NA,NA,NA
"1","stim/objects/HouseObjects/ashtray.png",13,5,13,0.5,"stim/11.jpeg",1,1,1,NA,"HouseObjects",1,4,"left","right",0.503000021,0,0,1,1,NA,NA,NA,NA,NA,NA,NA,NA,NA,NA,NA,NA,NA,NA,NA,NA,NA,NA,NA,NA,NA,NA,NA,NA
"100","stim/objects/HouseObjects/clothesdryingrack2.png",14,5,14,0.9,"stim/63.jpeg",6,3,3,NA,"HouseObjects",1,2,"left","left",0.730999947,1,1,1,1,NA,NA,NA,NA,NA,NA,NA,NA,NA,NA,NA,NA,NA,NA,NA,NA,NA,NA,NA,NA,NA,NA,NA,NA
"200","stim/objects/Instruments/chime2.png",15,5,15,0.9,"stim/54.jpeg",5,4,3,NA,"Instruments",2,4,"right","right",0.644000053,1,1,1,1,NA,NA,NA,NA,NA,NA,NA,NA,NA,NA,NA,NA,NA,NA,NA,NA,NA,NA,NA,NA,NA,NA,NA,NA
"6","stim/objects/HouseObjects/ashtray2.png",16,5,16,0.7,"stim/41.jpeg",4,1,2,NA,"HouseObjects",1,2,"left","left",0.707999945,1,1,1,1,NA,NA,NA,NA,NA,NA,NA,NA,NA,NA,NA,NA,NA,NA,NA,NA,NA,NA,NA,NA,NA,NA,NA,NA
"126","stim/objects/Instruments/accordion2.png",17,5,17,0.3,"stim/41.jpeg",4,1,2,NA,"Instruments",2,1,"right","left",0.643999815,0,0,1,1,NA,NA,NA,NA,NA,NA,NA,NA,NA,NA,NA,NA,NA,NA,NA,NA,NA,NA,NA,NA,NA,NA,NA,NA
"37","stim/objects/HouseObjects/basket.png",18,5,18,0.5,"stim/14.jpeg",1,4,1,NA,"HouseObjects",1,4,"left","right",0.635999918,0,0,1,1,NA,NA,NA,NA,NA,NA,NA,NA,NA,NA,NA,NA,NA,NA,NA,NA,NA,NA,NA,NA,NA,NA,NA,NA
"7","stim/objects/HouseObjects/ashtray2.png",19,5,19,0.7,"stim/41.jpeg",4,1,2,NA,"HouseObjects",1,2,"left","left",0.678999901,1,1,1,1,NA,NA,NA,NA,NA,NA,NA,NA,NA,NA,NA,NA,NA,NA,NA,NA,NA,NA,NA,NA,NA,NA,NA,NA
"49","stim/objects/HouseObjects/bleachbottle.png",20,5,20,0.5,"stim/21.jpeg",2,1,1,NA,"HouseObjects",1,1,"left","",NA,0,0,1,1,NA,NA,NA,NA,NA,NA,NA,NA,NA,NA,NA,NA,NA,NA,NA,NA,NA,NA,NA,NA,NA,NA,NA,NA
"50","stim/objects/HouseObjects/bleachbottle.png",21,5,21,0.5,"stim/21.jpeg",2,1,1,NA,"HouseObjects",1,1,"left","left",0.661999941,1,1,1,1,NA,NA,NA,NA,NA,NA,NA,NA,NA,NA,NA,NA,NA,NA,NA,NA,NA,NA,NA,NA,NA,NA,NA,NA
"8","stim/objects/HouseObjects/ashtray2.png",22,5,22,0.7,"stim/41.jpeg",4,1,2,NA,"HouseObjects",1,4,"left","left",0.694999933,1,1,1,1,NA,NA,NA,NA,NA,NA,NA,NA,NA,NA,NA,NA,NA,NA,NA,NA,NA,NA,NA,NA,NA,NA,NA,NA
"201","stim/objects/Instruments/chime2.png",23,5,23,0.9,"stim/54.jpeg",5,4,3,NA,"Instruments",2,3,"right","right",0.690999985,1,1,1,1,NA,NA,NA,NA,NA,NA,NA,NA,NA,NA,NA,NA,NA,NA,NA,NA,NA,NA,NA,NA,NA,NA,NA,NA
"233","stim/objects/Instruments/doublebass.png",24,5,24,0.7,"stim/34.jpeg",3,4,2,NA,"Instruments",2,3,"right","",NA,0,0,1,1,NA,NA,NA,NA,NA,NA,NA,NA,NA,NA,NA,NA,NA,NA,NA,NA,NA,NA,NA,NA,NA,NA,NA,NA
"181","stim/objects/Instruments/cello.png",25,5,25,0.5,"stim/23.jpeg",2,3,1,NA,"Instruments",2,4,"right","right",0.588999987,1,1,1,1,NA,NA,NA,NA,NA,NA,NA,NA,NA,NA,NA,NA,NA,NA,NA,NA,NA,NA,NA,NA,NA,NA,NA,NA
"63","stim/objects/HouseObjects/bottle.png",26,5,26,0.5,"stim/23.jpeg",2,3,1,NA,"HouseObjects",1,1,"left","right",0.704999924,0,0,1,1,NA,NA,NA,NA,NA,NA,NA,NA,NA,NA,NA,NA,NA,NA,NA,NA,NA,NA,NA,NA,NA,NA,NA,NA
"234","stim/objects/Instruments/doublebass.png",27,5,27,0.7,"stim/34.jpeg",3,4,2,NA,"Instruments",2,3,"right","right",0.65199995,1,1,1,1,NA,NA,NA,NA,NA,NA,NA,NA,NA,NA,NA,NA,NA,NA,NA,NA,NA,NA,NA,NA,NA,NA,NA,NA
"235","stim/objects/Instruments/doublebass.png",28,5,28,0.7,"stim/34.jpeg",3,4,2,NA,"Instruments",2,4,"right","right",0.539999962,1,1,1,1,NA,NA,NA,NA,NA,NA,NA,NA,NA,NA,NA,NA,NA,NA,NA,NA,NA,NA,NA,NA,NA,NA,NA,NA
"121","stim/objects/Instruments/accordion.png",29,5,29,0.5,"stim/11.jpeg",1,1,1,NA,"Instruments",2,3,"right","left",0.849999905,0,0,1,1,NA,NA,NA,NA,NA,NA,NA,NA,NA,NA,NA,NA,NA,NA,NA,NA,NA,NA,NA,NA,NA,NA,NA,NA
"122","stim/objects/Instruments/accordion.png",30,5,30,0.5,"stim/11.jpeg",1,1,1,NA,"Instruments",2,2,"right","right",0.617000103,1,1,1,1,NA,NA,NA,NA,NA,NA,NA,NA,NA,NA,NA,NA,NA,NA,NA,NA,NA,NA,NA,NA,NA,NA,NA,NA
"202","stim/objects/Instruments/chime2.png",31,5,31,0.9,"stim/54.jpeg",5,4,3,NA,"Instruments",2,4,"right","right",0.609999895,1,1,1,1,NA,NA,NA,NA,NA,NA,NA,NA,NA,NA,NA,NA,NA,NA,NA,NA,NA,NA,NA,NA,NA,NA,NA,NA
"101","stim/objects/HouseObjects/clothesdryingrack2.png",32,5,32,0.9,"stim/63.jpeg",6,3,3,NA,"HouseObjects",1,4,"left","left",0.648999929,1,1,1,1,NA,NA,NA,NA,NA,NA,NA,NA,NA,NA,NA,NA,NA,NA,NA,NA,NA,NA,NA,NA,NA,NA,NA,NA
"134","stim/objects/Instruments/acousticguitar2.png",33,5,33,0.3,"stim/42.jpeg",4,2,2,NA,"Instruments",2,3,"right","left",0.584000111,0,0,1,1,NA,NA,NA,NA,NA,NA,NA,NA,NA,NA,NA,NA,NA,NA,NA,NA,NA,NA,NA,NA,NA,NA,NA,NA
"172","stim/objects/Instruments/bassguitar2.png",34,5,34,0.9,"stim/52.jpeg",5,2,3,NA,"Instruments",2,3,"right","right",0.704999924,1,1,1,1,NA,NA,NA,NA,NA,NA,NA,NA,NA,NA,NA,NA,NA,NA,NA,NA,NA,NA,NA,NA,NA,NA,NA,NA
"64","stim/objects/HouseObjects/bottle.png",35,5,35,0.5,"stim/23.jpeg",2,3,1,NA,"HouseObjects",1,2,"left","",NA,0,0,1,1,NA,NA,NA,NA,NA,NA,NA,NA,NA,NA,NA,NA,NA,NA,NA,NA,NA,NA,NA,NA,NA,NA,NA,NA
"113","stim/objects/HouseObjects/clothespin2.png",36,5,36,0.9,"stim/64.jpeg",6,4,3,NA,"HouseObjects",1,2,"left","right",0.453999758,0,0,1,1,NA,NA,NA,NA,NA,NA,NA,NA,NA,NA,NA,NA,NA,NA,NA,NA,NA,NA,NA,NA,NA,NA,NA,NA
"38","stim/objects/HouseObjects/basket.png",37,5,37,0.5,"stim/14.jpeg",1,4,1,NA,"HouseObjects",1,4,"left","right",0.781999826,0,0,1,1,NA,NA,NA,NA,NA,NA,NA,NA,NA,NA,NA,NA,NA,NA,NA,NA,NA,NA,NA,NA,NA,NA,NA,NA
"88","stim/objects/HouseObjects/clock2.png",38,5,38,0.9,"stim/62.jpeg",6,2,3,NA,"HouseObjects",1,1,"left","left",0.618999958,1,1,1,1,NA,NA,NA,NA,NA,NA,NA,NA,NA,NA,NA,NA,NA,NA,NA,NA,NA,NA,NA,NA,NA,NA,NA,NA
"146","stim/objects/Instruments/banjo.png",39,5,39,0.5,"stim/14.jpeg",1,4,1,NA,"Instruments",2,3,"right","",NA,0,0,1,1,NA,NA,NA,NA,NA,NA,NA,NA,NA,NA,NA,NA,NA,NA,NA,NA,NA,NA,NA,NA,NA,NA,NA,NA
"85","stim/objects/HouseObjects/clock.png",40,5,40,0.3,"stim/32.jpeg",3,2,2,NA,"HouseObjects",1,3,"left","right",0.654999733,0,0,1,1,NA,NA,NA,NA,NA,NA,NA,NA,NA,NA,NA,NA,NA,NA,NA,NA,NA,NA,NA,NA,NA,NA,NA,NA
"13","stim/objects/HouseObjects/ballofstring.png",41,5,41,0.5,"stim/12.jpeg",1,2,1,NA,"HouseObjects",1,4,"left","right",0.749999762,0,0,1,1,NA,NA,NA,NA,NA,NA,NA,NA,NA,NA,NA,NA,NA,NA,NA,NA,NA,NA,NA,NA,NA,NA,NA,NA
"55","stim/objects/HouseObjects/blender.png",42,5,42,0.5,"stim/22.jpeg",2,2,1,NA,"HouseObjects",1,3,"left","right",0.723999977,0,0,1,1,NA,NA,NA,NA,NA,NA,NA,NA,NA,NA,NA,NA,NA,NA,NA,NA,NA,NA,NA,NA,NA,NA,NA,NA
"240","stim/objects/Instruments/doublebass2.png",43,5,43,0.1,"stim/64.jpeg",6,4,3,NA,"Instruments",2,3,"right","left",0.546999931,0,0,1,1,NA,NA,NA,NA,NA,NA,NA,NA,NA,NA,NA,NA,NA,NA,NA,NA,NA,NA,NA,NA,NA,NA,NA,NA
"25","stim/objects/HouseObjects/barbecuelighter.png",44,5,44,0.5,"stim/13.jpeg",1,3,1,NA,"HouseObjects",1,3,"left","right",0.741999865,0,0,1,1,NA,NA,NA,NA,NA,NA,NA,NA,NA,NA,NA,NA,NA,NA,NA,NA,NA,NA,NA,NA,NA,NA,NA,NA
"147","stim/objects/Instruments/banjo.png",45,5,45,0.5,"stim/14.jpeg",1,4,1,NA,"Instruments",2,1,"right","right",0.662999868,1,1,1,1,NA,NA,NA,NA,NA,NA,NA,NA,NA,NA,NA,NA,NA,NA,NA,NA,NA,NA,NA,NA,NA,NA,NA,NA
"102","stim/objects/HouseObjects/clothesdryingrack2.png",46,5,46,0.9,"stim/63.jpeg",6,3,3,NA,"HouseObjects",1,4,"left","left",0.611000061,1,1,1,1,NA,NA,NA,NA,NA,NA,NA,NA,NA,NA,NA,NA,NA,NA,NA,NA,NA,NA,NA,NA,NA,NA,NA,NA
"76","stim/objects/HouseObjects/bucket2.png",47,5,47,0.9,"stim/61.jpeg",6,1,3,NA,"HouseObjects",1,3,"left","left",0.505999804,1,1,1,1,NA,NA,NA,NA,NA,NA,NA,NA,NA,NA,NA,NA,NA,NA,NA,NA,NA,NA,NA,NA,NA,NA,NA,NA
"225","stim/objects/Instruments/cymbal.png",48,5,48,0.7,"stim/33.jpeg",3,3,2,NA,"Instruments",2,3,"right","right",0.697000027,1,1,1,1,NA,NA,NA,NA,NA,NA,NA,NA,NA,NA,NA,NA,NA,NA,NA,NA,NA,NA,NA,NA,NA,NA,NA,NA
"42","stim/objects/HouseObjects/basket2.png",49,5,49,0.7,"stim/44.jpeg",4,4,2,NA,"HouseObjects",1,1,"left","left",0.605999947,1,1,1,1,NA,NA,NA,NA,NA,NA,NA,NA,NA,NA,NA,NA,NA,NA,NA,NA,NA,NA,NA,NA,NA,NA,NA,NA
"77","stim/objects/HouseObjects/bucket2.png",50,5,50,0.9,"stim/61.jpeg",6,1,3,NA,"HouseObjects",1,1,"left","",NA,0,0,1,1,NA,NA,NA,NA,NA,NA,NA,NA,NA,NA,NA,NA,NA,NA,NA,NA,NA,NA,NA,NA,NA,NA,NA,NA
"78","stim/objects/HouseObjects/bucket2.png",51,5,51,0.9,"stim/61.jpeg",6,1,3,NA,"HouseObjects",1,4,"left","left",0.753999949,1,1,1,1,NA,NA,NA,NA,NA,NA,NA,NA,NA,NA,NA,NA,NA,NA,NA,NA,NA,NA,NA,NA,NA,NA,NA,NA
"114","stim/objects/HouseObjects/clothespin2.png",52,5,52,0.9,"stim/64.jpeg",6,4,3,NA,"HouseObjects",1,4,"left","left",0.53399992,1,1,1,1,NA,NA,NA,NA,NA,NA,NA,NA,NA,NA,NA,NA,NA,NA,NA,NA,NA,NA,NA,NA,NA,NA,NA,NA
"218","stim/objects/Instruments/cornet.png",53,5,53,0.7,"stim/32.jpeg",3,2,2,NA,"Instruments",2,4,"right","right",0.786999941,1,1,1,1,NA,NA,NA,NA,NA,NA,NA,NA,NA,NA,NA,NA,NA,NA,NA,NA,NA,NA,NA,NA,NA,NA,NA,NA
"67","stim/objects/HouseObjects/broom.png",54,5,54,0.5,"stim/24.jpeg",2,4,1,NA,"HouseObjects",1,3,"left","",NA,0,0,1,1,NA,NA,NA,NA,NA,NA,NA,NA,NA,NA,NA,NA,NA,NA,NA,NA,NA,NA,NA,NA,NA,NA,NA,NA
"115","stim/objects/HouseObjects/clothespin2.png",55,5,55,0.9,"stim/64.jpeg",6,4,3,NA,"HouseObjects",1,4,"left","right",0.495999813,0,0,1,1,NA,NA,NA,NA,NA,NA,NA,NA,NA,NA,NA,NA,NA,NA,NA,NA,NA,NA,NA,NA,NA,NA,NA,NA
"2","stim/objects/HouseObjects/ashtray.png",56,5,56,0.5,"stim/11.jpeg",1,1,1,NA,"HouseObjects",1,4,"left","left",0.738999844,1,1,1,1,NA,NA,NA,NA,NA,NA,NA,NA,NA,NA,NA,NA,NA,NA,NA,NA,NA,NA,NA,NA,NA,NA,NA,NA
"123","stim/objects/Instruments/accordion.png",57,5,57,0.5,"stim/11.jpeg",1,1,1,NA,"Instruments",2,3,"right","left",0.714999914,0,0,1,1,NA,NA,NA,NA,NA,NA,NA,NA,NA,NA,NA,NA,NA,NA,NA,NA,NA,NA,NA,NA,NA,NA,NA,NA
"116","stim/objects/HouseObjects/clothespin2.png",58,5,58,0.9,"stim/64.jpeg",6,4,3,NA,"HouseObjects",1,3,"left","left",0.610999823,1,1,1,1,NA,NA,NA,NA,NA,NA,NA,NA,NA,NA,NA,NA,NA,NA,NA,NA,NA,NA,NA,NA,NA,NA,NA,NA
"68","stim/objects/HouseObjects/broom.png",59,5,59,0.5,"stim/24.jpeg",2,4,1,NA,"HouseObjects",1,4,"left","left",0.872999907,1,1,1,1,NA,NA,NA,NA,NA,NA,NA,NA,NA,NA,NA,NA,NA,NA,NA,NA,NA,NA,NA,NA,NA,NA,NA,NA
"203","stim/objects/Instruments/chime2.png",60,5,60,0.9,"stim/54.jpeg",5,4,3,NA,"Instruments",2,2,"right","right",0.628000021,1,1,1,1,NA,NA,NA,NA,NA,NA,NA,NA,NA,NA,NA,NA,NA,NA,NA,NA,NA,NA,NA,NA,NA,NA,NA,NA
"187","stim/objects/Instruments/cello2.png",61,5,61,0.9,"stim/53.jpeg",5,3,3,NA,"Instruments",2,2,"right","left",0.546000004,0,0,1,1,NA,NA,NA,NA,NA,NA,NA,NA,NA,NA,NA,NA,NA,NA,NA,NA,NA,NA,NA,NA,NA,NA,NA,NA
"158","stim/objects/Instruments/bassdrum2.png",62,5,62,0.9,"stim/51.jpeg",5,1,3,NA,"Instruments",2,4,"right","right",0.598999977,1,1,1,1,NA,NA,NA,NA,NA,NA,NA,NA,NA,NA,NA,NA,NA,NA,NA,NA,NA,NA,NA,NA,NA,NA,NA,NA
"130","stim/objects/Instruments/acousticguitar.png",63,5,63,0.5,"stim/12.jpeg",1,2,1,NA,"Instruments",2,3,"right","",NA,0,0,1,1,NA,NA,NA,NA,NA,NA,NA,NA,NA,NA,NA,NA,NA,NA,NA,NA,NA,NA,NA,NA,NA,NA,NA,NA
"43","stim/objects/HouseObjects/basket2.png",64,5,64,0.7,"stim/44.jpeg",4,4,2,NA,"HouseObjects",1,3,"left","left",0.763000011,1,1,1,1,NA,NA,NA,NA,NA,NA,NA,NA,NA,NA,NA,NA,NA,NA,NA,NA,NA,NA,NA,NA,NA,NA,NA,NA
"14","stim/objects/HouseObjects/ballofstring.png",65,5,65,0.5,"stim/12.jpeg",1,2,1,NA,"HouseObjects",1,3,"left","right",0.829999924,0,0,1,1,NA,NA,NA,NA,NA,NA,NA,NA,NA,NA,NA,NA,NA,NA,NA,NA,NA,NA,NA,NA,NA,NA,NA,NA
"138","stim/objects/Instruments/balalaika.png",66,5,66,0.5,"stim/13.jpeg",1,3,1,NA,"Instruments",2,2,"right","",NA,0,0,1,1,NA,NA,NA,NA,NA,NA,NA,NA,NA,NA,NA,NA,NA,NA,NA,NA,NA,NA,NA,NA,NA,NA,NA,NA
"86","stim/objects/HouseObjects/clock.png",67,5,67,0.3,"stim/32.jpeg",3,2,2,NA,"HouseObjects",1,2,"left","left",0.626999855,1,1,1,1,NA,NA,NA,NA,NA,NA,NA,NA,NA,NA,NA,NA,NA,NA,NA,NA,NA,NA,NA,NA,NA,NA,NA,NA
"44","stim/objects/HouseObjects/basket2.png",68,5,68,0.7,"stim/44.jpeg",4,4,2,NA,"HouseObjects",1,4,"left","left",0.59800005,1,1,1,1,NA,NA,NA,NA,NA,NA,NA,NA,NA,NA,NA,NA,NA,NA,NA,NA,NA,NA,NA,NA,NA,NA,NA,NA
"153","stim/objects/Instruments/bassdrum.png",69,5,69,0.5,"stim/21.jpeg",2,1,1,NA,"Instruments",2,2,"right","right",0.723999977,1,1,1,1,NA,NA,NA,NA,NA,NA,NA,NA,NA,NA,NA,NA,NA,NA,NA,NA,NA,NA,NA,NA,NA,NA,NA,NA
"188","stim/objects/Instruments/cello2.png",70,5,70,0.9,"stim/53.jpeg",5,3,3,NA,"Instruments",2,1,"right","right",0.799000025,1,1,1,1,NA,NA,NA,NA,NA,NA,NA,NA,NA,NA,NA,NA,NA,NA,NA,NA,NA,NA,NA,NA,NA,NA,NA,NA
"131","stim/objects/Instruments/acousticguitar.png",71,5,71,0.5,"stim/12.jpeg",1,2,1,NA,"Instruments",2,3,"right","left",0.495000124,0,0,1,1,NA,NA,NA,NA,NA,NA,NA,NA,NA,NA,NA,NA,NA,NA,NA,NA,NA,NA,NA,NA,NA,NA,NA,NA
"182","stim/objects/Instruments/cello.png",72,5,72,0.5,"stim/23.jpeg",2,3,1,NA,"Instruments",2,4,"right","",NA,0,0,1,1,NA,NA,NA,NA,NA,NA,NA,NA,NA,NA,NA,NA,NA,NA,NA,NA,NA,NA,NA,NA,NA,NA,NA,NA
"15","stim/objects/HouseObjects/ballofstring.png",73,5,73,0.5,"stim/12.jpeg",1,2,1,NA,"HouseObjects",1,2,"left","right",0.546999931,0,0,1,1,NA,NA,NA,NA,NA,NA,NA,NA,NA,NA,NA,NA,NA,NA,NA,NA,NA,NA,NA,NA,NA,NA,NA,NA
"219","stim/objects/Instruments/cornet.png",74,5,74,0.7,"stim/32.jpeg",3,2,2,NA,"Instruments",2,3,"right","left",0.415999889,0,0,1,1,NA,NA,NA,NA,NA,NA,NA,NA,NA,NA,NA,NA,NA,NA,NA,NA,NA,NA,NA,NA,NA,NA,NA,NA
"189","stim/objects/Instruments/cello2.png",75,5,75,0.9,"stim/53.jpeg",5,3,3,NA,"Instruments",2,4,"right","right",0.674000025,1,1,1,1,NA,NA,NA,NA,NA,NA,NA,NA,NA,NA,NA,NA,NA,NA,NA,NA,NA,NA,NA,NA,NA,NA,NA,NA
"9","stim/objects/HouseObjects/ashtray2.png",76,5,76,0.7,"stim/41.jpeg",4,1,2,NA,"HouseObjects",1,2,"left","left",0.768999815,1,1,1,1,NA,NA,NA,NA,NA,NA,NA,NA,NA,NA,NA,NA,NA,NA,NA,NA,NA,NA,NA,NA,NA,NA,NA,NA
"159","stim/objects/Instruments/bassdrum2.png",77,5,77,0.9,"stim/51.jpeg",5,1,3,NA,"Instruments",2,3,"right","right",0.664999962,1,1,1,1,NA,NA,NA,NA,NA,NA,NA,NA,NA,NA,NA,NA,NA,NA,NA,NA,NA,NA,NA,NA,NA,NA,NA,NA
"160","stim/objects/Instruments/bassdrum2.png",78,5,78,0.9,"stim/51.jpeg",5,1,3,NA,"Instruments",2,2,"right","right",0.660000086,1,1,1,1,NA,NA,NA,NA,NA,NA,NA,NA,NA,NA,NA,NA,NA,NA,NA,NA,NA,NA,NA,NA,NA,NA,NA,NA
"79","stim/objects/HouseObjects/bucket2.png",79,5,79,0.9,"stim/61.jpeg",6,1,3,NA,"HouseObjects",1,2,"left","left",0.611000061,1,1,1,1,NA,NA,NA,NA,NA,NA,NA,NA,NA,NA,NA,NA,NA,NA,NA,NA,NA,NA,NA,NA,NA,NA,NA,NA
"103","stim/objects/HouseObjects/clothesdryingrack2.png",80,5,80,0.9,"stim/63.jpeg",6,3,3,NA,"HouseObjects",1,1,"left","left",0.555999756,1,1,1,1,NA,NA,NA,NA,NA,NA,NA,NA,NA,NA,NA,NA,NA,NA,NA,NA,NA,NA,NA,NA,NA,NA,NA,NA
"190","stim/objects/Instruments/cello2.png",81,5,81,0.9,"stim/53.jpeg",5,3,3,NA,"Instruments",2,1,"right","right",0.559999943,1,1,1,1,NA,NA,NA,NA,NA,NA,NA,NA,NA,NA,NA,NA,NA,NA,NA,NA,NA,NA,NA,NA,NA,NA,NA,NA
"173","stim/objects/Instruments/bassguitar2.png",82,5,82,0.9,"stim/52.jpeg",5,2,3,NA,"Instruments",2,3,"right","right",0.682999849,1,1,1,1,NA,NA,NA,NA,NA,NA,NA,NA,NA,NA,NA,NA,NA,NA,NA,NA,NA,NA,NA,NA,NA,NA,NA,NA
"97","stim/objects/HouseObjects/clothesdryingrack.png",83,5,83,0.3,"stim/33.jpeg",3,3,2,NA,"HouseObjects",1,3,"left","right",0.683000088,0,0,1,1,NA,NA,NA,NA,NA,NA,NA,NA,NA,NA,NA,NA,NA,NA,NA,NA,NA,NA,NA,NA,NA,NA,NA,NA
"18","stim/objects/HouseObjects/ballofstring2.png",84,5,84,0.7,"stim/42.jpeg",4,2,2,NA,"HouseObjects",1,2,"left","left",0.594000101,1,1,1,1,NA,NA,NA,NA,NA,NA,NA,NA,NA,NA,NA,NA,NA,NA,NA,NA,NA,NA,NA,NA,NA,NA,NA,NA
"196","stim/objects/Instruments/chime.png",85,5,85,0.5,"stim/24.jpeg",2,4,1,NA,"Instruments",2,1,"right","",NA,0,0,1,1,NA,NA,NA,NA,NA,NA,NA,NA,NA,NA,NA,NA,NA,NA,NA,NA,NA,NA,NA,NA,NA,NA,NA,NA
"89","stim/objects/HouseObjects/clock2.png",86,5,86,0.9,"stim/62.jpeg",6,2,3,NA,"HouseObjects",1,4,"left","left",0.605999947,1,1,1,1,NA,NA,NA,NA,NA,NA,NA,NA,NA,NA,NA,NA,NA,NA,NA,NA,NA,NA,NA,NA,NA,NA,NA,NA
"142","stim/objects/Instruments/balalaika2.png",87,5,87,0.3,"stim/43.jpeg",4,3,2,NA,"Instruments",2,1,"right","left",0.768999815,0,0,1,1,NA,NA,NA,NA,NA,NA,NA,NA,NA,NA,NA,NA,NA,NA,NA,NA,NA,NA,NA,NA,NA,NA,NA,NA
"224","stim/objects/Instruments/cornet2.png",88,5,88,0.1,"stim/62.jpeg",6,2,3,NA,"Instruments",2,1,"right","left",0.565999985,0,0,1,1,NA,NA,NA,NA,NA,NA,NA,NA,NA,NA,NA,NA,NA,NA,NA,NA,NA,NA,NA,NA,NA,NA,NA,NA
"90","stim/objects/HouseObjects/clock2.png",89,5,89,0.9,"stim/62.jpeg",6,2,3,NA,"HouseObjects",1,1,"left","left",0.71999979,1,1,1,1,NA,NA,NA,NA,NA,NA,NA,NA,NA,NA,NA,NA,NA,NA,NA,NA,NA,NA,NA,NA,NA,NA,NA,NA
"174","stim/objects/Instruments/bassguitar2.png",90,5,90,0.9,"stim/52.jpeg",5,2,3,NA,"Instruments",2,2,"right","right",0.625999928,1,1,1,1,NA,NA,NA,NA,NA,NA,NA,NA,NA,NA,NA,NA,NA,NA,NA,NA,NA,NA,NA,NA,NA,NA,NA,NA
"10","stim/objects/HouseObjects/ashtray2.png",91,5,91,0.7,"stim/41.jpeg",4,1,2,NA,"HouseObjects",1,4,"left","left",0.648999929,1,1,1,1,NA,NA,NA,NA,NA,NA,NA,NA,NA,NA,NA,NA,NA,NA,NA,NA,NA,NA,NA,NA,NA,NA,NA,NA
"30","stim/objects/HouseObjects/barbecuelighter2.png",92,5,92,0.7,"stim/43.jpeg",4,3,2,NA,"HouseObjects",1,1,"left","right",0.820999861,0,0,1,1,NA,NA,NA,NA,NA,NA,NA,NA,NA,NA,NA,NA,NA,NA,NA,NA,NA,NA,NA,NA,NA,NA,NA,NA
"204","stim/objects/Instruments/chime2.png",93,5,93,0.9,"stim/54.jpeg",5,4,3,NA,"Instruments",2,2,"right","right",0.616999865,1,1,1,1,NA,NA,NA,NA,NA,NA,NA,NA,NA,NA,NA,NA,NA,NA,NA,NA,NA,NA,NA,NA,NA,NA,NA,NA
"54","stim/objects/HouseObjects/bleachbottle2.png",94,5,94,0.1,"stim/51.jpeg",5,1,3,NA,"HouseObjects",1,1,"left","right",0.670000076,0,0,1,1,NA,NA,NA,NA,NA,NA,NA,NA,NA,NA,NA,NA,NA,NA,NA,NA,NA,NA,NA,NA,NA,NA,NA,NA
"39","stim/objects/HouseObjects/basket.png",95,5,95,0.5,"stim/14.jpeg",1,4,1,NA,"HouseObjects",1,3,"left","left",0.676000118,1,1,1,1,NA,NA,NA,NA,NA,NA,NA,NA,NA,NA,NA,NA,NA,NA,NA,NA,NA,NA,NA,NA,NA,NA,NA,NA
"148","stim/objects/Instruments/banjo.png",96,5,96,0.5,"stim/14.jpeg",1,4,1,NA,"Instruments",2,1,"right","",NA,0,0,1,1,NA,NA,NA,NA,NA,NA,NA,NA,NA,NA,NA,NA,NA,NA,NA,NA,NA,NA,NA,NA,NA,NA,NA,NA
"117","stim/objects/HouseObjects/clothespin2.png",97,5,97,0.9,"stim/64.jpeg",6,4,3,NA,"HouseObjects",1,1,"left","left",0.499000072,1,1,1,1,NA,NA,NA,NA,NA,NA,NA,NA,NA,NA,NA,NA,NA,NA,NA,NA,NA,NA,NA,NA,NA,NA,NA,NA
"226","stim/objects/Instruments/cymbal.png",98,5,98,0.7,"stim/33.jpeg",3,3,2,NA,"Instruments",2,1,"right","left",0.604000092,0,0,1,1,NA,NA,NA,NA,NA,NA,NA,NA,NA,NA,NA,NA,NA,NA,NA,NA,NA,NA,NA,NA,NA,NA,NA,NA
"91","stim/objects/HouseObjects/clock2.png",99,5,99,0.9,"stim/62.jpeg",6,2,3,NA,"HouseObjects",1,4,"left","left",0.666999817,1,1,1,1,NA,NA,NA,NA,NA,NA,NA,NA,NA,NA,NA,NA,NA,NA,NA,NA,NA,NA,NA,NA,NA,NA,NA,NA
"56","stim/objects/HouseObjects/blender.png",100,5,100,0.5,"stim/22.jpeg",2,2,1,NA,"HouseObjects",1,3,"left","right",0.802999973,0,0,1,1,NA,NA,NA,NA,NA,NA,NA,NA,NA,NA,NA,NA,NA,NA,NA,NA,NA,NA,NA,NA,NA,NA,NA,NA
"104","stim/objects/HouseObjects/clothesdryingrack2.png",101,5,101,0.9,"stim/63.jpeg",6,3,3,NA,"HouseObjects",1,3,"left","left",0.529999971,1,1,1,1,NA,NA,NA,NA,NA,NA,NA,NA,NA,NA,NA,NA,NA,NA,NA,NA,NA,NA,NA,NA,NA,NA,NA,NA
"127","stim/objects/Instruments/accordion2.png",102,5,102,0.3,"stim/41.jpeg",4,1,2,NA,"Instruments",2,3,"right","",NA,0,0,1,1,NA,NA,NA,NA,NA,NA,NA,NA,NA,NA,NA,NA,NA,NA,NA,NA,NA,NA,NA,NA,NA,NA,NA,NA
"57","stim/objects/HouseObjects/blender.png",103,5,103,0.5,"stim/22.jpeg",2,2,1,NA,"HouseObjects",1,2,"left","right",0.599999905,0,0,1,1,NA,NA,NA,NA,NA,NA,NA,NA,NA,NA,NA,NA,NA,NA,NA,NA,NA,NA,NA,NA,NA,NA,NA,NA
"175","stim/objects/Instruments/bassguitar2.png",104,5,104,0.9,"stim/52.jpeg",5,2,3,NA,"Instruments",2,4,"right","right",0.736999989,1,1,1,1,NA,NA,NA,NA,NA,NA,NA,NA,NA,NA,NA,NA,NA,NA,NA,NA,NA,NA,NA,NA,NA,NA,NA,NA
"220","stim/objects/Instruments/cornet.png",105,5,105,0.7,"stim/32.jpeg",3,2,2,NA,"Instruments",2,1,"right","left",0.745999813,0,0,1,1,NA,NA,NA,NA,NA,NA,NA,NA,NA,NA,NA,NA,NA,NA,NA,NA,NA,NA,NA,NA,NA,NA,NA,NA
"19","stim/objects/HouseObjects/ballofstring2.png",106,5,106,0.7,"stim/42.jpeg",4,2,2,NA,"HouseObjects",1,3,"left","",NA,0,0,1,1,NA,NA,NA,NA,NA,NA,NA,NA,NA,NA,NA,NA,NA,NA,NA,NA,NA,NA,NA,NA,NA,NA,NA,NA
"105","stim/objects/HouseObjects/clothesdryingrack2.png",107,5,107,0.9,"stim/63.jpeg",6,3,3,NA,"HouseObjects",1,2,"left","left",0.557999849,1,1,1,1,NA,NA,NA,NA,NA,NA,NA,NA,NA,NA,NA,NA,NA,NA,NA,NA,NA,NA,NA,NA,NA,NA,NA,NA
"31","stim/objects/HouseObjects/barbecuelighter2.png",108,5,108,0.7,"stim/43.jpeg",4,3,2,NA,"HouseObjects",1,4,"left","left",0.773999929,1,1,1,1,NA,NA,NA,NA,NA,NA,NA,NA,NA,NA,NA,NA,NA,NA,NA,NA,NA,NA,NA,NA,NA,NA,NA,NA
"66","stim/objects/HouseObjects/bottle2.png",109,5,109,0.1,"stim/53.jpeg",5,3,3,NA,"HouseObjects",1,2,"left","right",0.654000044,0,0,1,1,NA,NA,NA,NA,NA,NA,NA,NA,NA,NA,NA,NA,NA,NA,NA,NA,NA,NA,NA,NA,NA,NA,NA,NA
"197","stim/objects/Instruments/chime.png",110,5,110,0.5,"stim/24.jpeg",2,4,1,NA,"Instruments",2,1,"right","left",0.703000069,0,0,1,1,NA,NA,NA,NA,NA,NA,NA,NA,NA,NA,NA,NA,NA,NA,NA,NA,NA,NA,NA,NA,NA,NA,NA,NA
"26","stim/objects/HouseObjects/barbecuelighter.png",111,5,111,0.5,"stim/13.jpeg",1,3,1,NA,"HouseObjects",1,3,"left","left",0.784999847,1,1,1,1,NA,NA,NA,NA,NA,NA,NA,NA,NA,NA,NA,NA,NA,NA,NA,NA,NA,NA,NA,NA,NA,NA,NA,NA
"154","stim/objects/Instruments/bassdrum.png",112,5,112,0.5,"stim/21.jpeg",2,1,1,NA,"Instruments",2,4,"right","",NA,0,0,1,1,NA,NA,NA,NA,NA,NA,NA,NA,NA,NA,NA,NA,NA,NA,NA,NA,NA,NA,NA,NA,NA,NA,NA,NA
"20","stim/objects/HouseObjects/ballofstring2.png",113,5,113,0.7,"stim/42.jpeg",4,2,2,NA,"HouseObjects",1,3,"left","left",0.725999832,1,1,1,1,NA,NA,NA,NA,NA,NA,NA,NA,NA,NA,NA,NA,NA,NA,NA,NA,NA,NA,NA,NA,NA,NA,NA,NA
"51","stim/objects/HouseObjects/bleachbottle.png",114,5,114,0.5,"stim/21.jpeg",2,1,1,NA,"HouseObjects",1,3,"left","right",0.717999935,0,0,1,1,NA,NA,NA,NA,NA,NA,NA,NA,NA,NA,NA,NA,NA,NA,NA,NA,NA,NA,NA,NA,NA,NA,NA,NA
"227","stim/objects/Instruments/cymbal.png",115,5,115,0.7,"stim/33.jpeg",3,3,2,NA,"Instruments",2,3,"right","left",0.646999836,0,0,1,1,NA,NA,NA,NA,NA,NA,NA,NA,NA,NA,NA,NA,NA,NA,NA,NA,NA,NA,NA,NA,NA,NA,NA,NA
"92","stim/objects/HouseObjects/clock2.png",116,5,116,0.9,"stim/62.jpeg",6,2,3,NA,"HouseObjects",1,3,"left","left",0.667000055,1,1,1,1,NA,NA,NA,NA,NA,NA,NA,NA,NA,NA,NA,NA,NA,NA,NA,NA,NA,NA,NA,NA,NA,NA,NA,NA
"221","stim/objects/Instruments/cornet.png",117,5,117,0.7,"stim/32.jpeg",3,2,2,NA,"Instruments",2,1,"right","right",0.728999853,1,1,1,1,NA,NA,NA,NA,NA,NA,NA,NA,NA,NA,NA,NA,NA,NA,NA,NA,NA,NA,NA,NA,NA,NA,NA,NA
"21","stim/objects/HouseObjects/ballofstring2.png",118,5,118,0.7,"stim/42.jpeg",4,2,2,NA,"HouseObjects",1,2,"left","left",0.655999899,1,1,1,1,NA,NA,NA,NA,NA,NA,NA,NA,NA,NA,NA,NA,NA,NA,NA,NA,NA,NA,NA,NA,NA,NA,NA,NA
"65","stim/objects/HouseObjects/bottle.png",119,5,119,0.5,"stim/23.jpeg",2,3,1,NA,"HouseObjects",1,3,"left","left",0.718999863,1,1,1,1,NA,NA,NA,NA,NA,NA,NA,NA,NA,NA,NA,NA,NA,NA,NA,NA,NA,NA,NA,NA,NA,NA,NA,NA
"32","stim/objects/HouseObjects/barbecuelighter2.png",120,5,120,0.7,"stim/43.jpeg",4,3,2,NA,"HouseObjects",1,2,"left","left",0.664999962,1,1,1,1,NA,NA,NA,NA,NA,NA,NA,NA,NA,NA,NA,NA,NA,NA,NA,NA,NA,NA,NA,NA,NA,NA,NA,NA
"161","stim/objects/Instruments/bassdrum2.png",121,5,121,0.9,"stim/51.jpeg",5,1,3,NA,"Instruments",2,1,"right","right",0.63499999,1,1,1,1,NA,NA,NA,NA,NA,NA,NA,NA,NA,NA,NA,NA,NA,NA,NA,NA,NA,NA,NA,NA,NA,NA,NA,NA
"210","stim/objects/Instruments/clarinet.png",122,5,122,0.7,"stim/31.jpeg",3,1,2,NA,"Instruments",2,3,"right","right",0.819999933,1,1,1,1,NA,NA,NA,NA,NA,NA,NA,NA,NA,NA,NA,NA,NA,NA,NA,NA,NA,NA,NA,NA,NA,NA,NA,NA
"211","stim/objects/Instruments/clarinet.png",123,5,123,0.7,"stim/31.jpeg",3,1,2,NA,"Instruments",2,1,"right","right",0.697999954,1,1,1,1,NA,NA,NA,NA,NA,NA,NA,NA,NA,NA,NA,NA,NA,NA,NA,NA,NA,NA,NA,NA,NA,NA,NA,NA
"228","stim/objects/Instruments/cymbal.png",124,5,124,0.7,"stim/33.jpeg",3,3,2,NA,"Instruments",2,1,"right","",NA,0,0,1,1,NA,NA,NA,NA,NA,NA,NA,NA,NA,NA,NA,NA,NA,NA,NA,NA,NA,NA,NA,NA,NA,NA,NA,NA
"236","stim/objects/Instruments/doublebass.png",125,5,125,0.7,"stim/34.jpeg",3,4,2,NA,"Instruments",2,4,"right","right",0.647000074,1,1,1,1,NA,NA,NA,NA,NA,NA,NA,NA,NA,NA,NA,NA,NA,NA,NA,NA,NA,NA,NA,NA,NA,NA,NA,NA
"69","stim/objects/HouseObjects/broom.png",126,5,126,0.5,"stim/24.jpeg",2,4,1,NA,"HouseObjects",1,4,"left","left",0.717000008,1,1,1,1,NA,NA,NA,NA,NA,NA,NA,NA,NA,NA,NA,NA,NA,NA,NA,NA,NA,NA,NA,NA,NA,NA,NA,NA
"135","stim/objects/Instruments/acousticguitar2.png",127,5,127,0.3,"stim/42.jpeg",4,2,2,NA,"Instruments",2,4,"right","left",0.618000031,0,0,1,1,NA,NA,NA,NA,NA,NA,NA,NA,NA,NA,NA,NA,NA,NA,NA,NA,NA,NA,NA,NA,NA,NA,NA,NA
"237","stim/objects/Instruments/doublebass.png",128,5,128,0.7,"stim/34.jpeg",3,4,2,NA,"Instruments",2,1,"right","right",0.858999968,1,1,1,1,NA,NA,NA,NA,NA,NA,NA,NA,NA,NA,NA,NA,NA,NA,NA,NA,NA,NA,NA,NA,NA,NA,NA,NA
"33","stim/objects/HouseObjects/barbecuelighter2.png",129,5,129,0.7,"stim/43.jpeg",4,3,2,NA,"HouseObjects",1,2,"left","left",0.75,1,1,1,1,NA,NA,NA,NA,NA,NA,NA,NA,NA,NA,NA,NA,NA,NA,NA,NA,NA,NA,NA,NA,NA,NA,NA,NA
"34","stim/objects/HouseObjects/barbecuelighter2.png",130,5,130,0.7,"stim/43.jpeg",4,3,2,NA,"HouseObjects",1,4,"left","left",0.747999907,1,1,1,1,NA,NA,NA,NA,NA,NA,NA,NA,NA,NA,NA,NA,NA,NA,NA,NA,NA,NA,NA,NA,NA,NA,NA,NA
"222","stim/objects/Instruments/cornet.png",131,5,131,0.7,"stim/32.jpeg",3,2,2,NA,"Instruments",2,2,"right","right",0.583999872,1,1,1,1,NA,NA,NA,NA,NA,NA,NA,NA,NA,NA,NA,NA,NA,NA,NA,NA,NA,NA,NA,NA,NA,NA,NA,NA
"139","stim/objects/Instruments/balalaika.png",132,5,132,0.5,"stim/13.jpeg",1,3,1,NA,"Instruments",2,4,"right","left",0.872999907,0,0,1,1,NA,NA,NA,NA,NA,NA,NA,NA,NA,NA,NA,NA,NA,NA,NA,NA,NA,NA,NA,NA,NA,NA,NA,NA
"216","stim/objects/Instruments/clarinet2.png",133,5,133,0.1,"stim/61.jpeg",6,1,3,NA,"Instruments",2,4,"right","left",0.838999987,0,0,1,1,NA,NA,NA,NA,NA,NA,NA,NA,NA,NA,NA,NA,NA,NA,NA,NA,NA,NA,NA,NA,NA,NA,NA,NA
"98","stim/objects/HouseObjects/clothesdryingrack.png",134,5,134,0.3,"stim/33.jpeg",3,3,2,NA,"HouseObjects",1,1,"left","left",0.825999975,1,1,1,1,NA,NA,NA,NA,NA,NA,NA,NA,NA,NA,NA,NA,NA,NA,NA,NA,NA,NA,NA,NA,NA,NA,NA,NA
"106","stim/objects/HouseObjects/clothesdryingrack2.png",135,5,135,0.9,"stim/63.jpeg",6,3,3,NA,"HouseObjects",1,4,"left","",NA,0,0,1,1,NA,NA,NA,NA,NA,NA,NA,NA,NA,NA,NA,NA,NA,NA,NA,NA,NA,NA,NA,NA,NA,NA,NA,NA
"93","stim/objects/HouseObjects/clock2.png",136,5,136,0.9,"stim/62.jpeg",6,2,3,NA,"HouseObjects",1,4,"left","left",0.598999977,1,1,1,1,NA,NA,NA,NA,NA,NA,NA,NA,NA,NA,NA,NA,NA,NA,NA,NA,NA,NA,NA,NA,NA,NA,NA,NA
"72","stim/objects/HouseObjects/broom2.png",137,5,137,0.1,"stim/54.jpeg",5,4,3,NA,"HouseObjects",1,4,"left","right",0.829999924,0,0,1,1,NA,NA,NA,NA,NA,NA,NA,NA,NA,NA,NA,NA,NA,NA,NA,NA,NA,NA,NA,NA,NA,NA,NA,NA
"132","stim/objects/Instruments/acousticguitar.png",138,5,138,0.5,"stim/12.jpeg",1,2,1,NA,"Instruments",2,4,"right","",NA,0,0,1,1,NA,NA,NA,NA,NA,NA,NA,NA,NA,NA,NA,NA,NA,NA,NA,NA,NA,NA,NA,NA,NA,NA,NA,NA
"136","stim/objects/Instruments/acousticguitar2.png",139,5,139,0.3,"stim/42.jpeg",4,2,2,NA,"Instruments",2,2,"right","left",0.421000004,0,0,1,1,NA,NA,NA,NA,NA,NA,NA,NA,NA,NA,NA,NA,NA,NA,NA,NA,NA,NA,NA,NA,NA,NA,NA,NA
"80","stim/objects/HouseObjects/bucket2.png",140,5,140,0.9,"stim/61.jpeg",6,1,3,NA,"HouseObjects",1,2,"left","left",0.676999807,1,1,1,1,NA,NA,NA,NA,NA,NA,NA,NA,NA,NA,NA,NA,NA,NA,NA,NA,NA,NA,NA,NA,NA,NA,NA,NA
"99","stim/objects/HouseObjects/clothesdryingrack.png",141,5,141,0.3,"stim/33.jpeg",3,3,2,NA,"HouseObjects",1,4,"left","left",0.596999884,1,1,1,1,NA,NA,NA,NA,NA,NA,NA,NA,NA,NA,NA,NA,NA,NA,NA,NA,NA,NA,NA,NA,NA,NA,NA,NA
"107","stim/objects/HouseObjects/clothesdryingrack2.png",142,5,142,0.9,"stim/63.jpeg",6,3,3,NA,"HouseObjects",1,2,"left","left",0.684999943,1,1,1,1,NA,NA,NA,NA,NA,NA,NA,NA,NA,NA,NA,NA,NA,NA,NA,NA,NA,NA,NA,NA,NA,NA,NA,NA
"94","stim/objects/HouseObjects/clock2.png",143,5,143,0.9,"stim/62.jpeg",6,2,3,NA,"HouseObjects",1,2,"left","left",0.722999811,1,1,1,1,NA,NA,NA,NA,NA,NA,NA,NA,NA,NA,NA,NA,NA,NA,NA,NA,NA,NA,NA,NA,NA,NA,NA,NA
"205","stim/objects/Instruments/chime2.png",144,5,144,0.9,"stim/54.jpeg",5,4,3,NA,"Instruments",2,1,"right","right",0.5849998,1,1,1,1,NA,NA,NA,NA,NA,NA,NA,NA,NA,NA,NA,NA,NA,NA,NA,NA,NA,NA,NA,NA,NA,NA,NA,NA
"3","stim/objects/HouseObjects/ashtray.png",145,5,145,0.5,"stim/11.jpeg",1,1,1,NA,"HouseObjects",1,2,"left","",NA,0,0,1,1,NA,NA,NA,NA,NA,NA,NA,NA,NA,NA,NA,NA,NA,NA,NA,NA,NA,NA,NA,NA,NA,NA,NA,NA
"191","stim/objects/Instruments/cello2.png",146,5,146,0.9,"stim/53.jpeg",5,3,3,NA,"Instruments",2,2,"right","left",0.519000053,0,0,1,1,NA,NA,NA,NA,NA,NA,NA,NA,NA,NA,NA,NA,NA,NA,NA,NA,NA,NA,NA,NA,NA,NA,NA,NA
"206","stim/objects/Instruments/chime2.png",147,5,147,0.9,"stim/54.jpeg",5,4,3,NA,"Instruments",2,4,"right","right",0.677999735,1,1,1,1,NA,NA,NA,NA,NA,NA,NA,NA,NA,NA,NA,NA,NA,NA,NA,NA,NA,NA,NA,NA,NA,NA,NA,NA
"150","stim/objects/Instruments/banjo2.png",148,5,148,0.3,"stim/44.jpeg",4,4,2,NA,"Instruments",2,1,"right","left",0.757999897,0,0,1,1,NA,NA,NA,NA,NA,NA,NA,NA,NA,NA,NA,NA,NA,NA,NA,NA,NA,NA,NA,NA,NA,NA,NA,NA
"81","stim/objects/HouseObjects/bucket2.png",149,5,149,0.9,"stim/61.jpeg",6,1,3,NA,"HouseObjects",1,3,"left","left",0.832999945,1,1,1,1,NA,NA,NA,NA,NA,NA,NA,NA,NA,NA,NA,NA,NA,NA,NA,NA,NA,NA,NA,NA,NA,NA,NA,NA
"162","stim/objects/Instruments/bassdrum2.png",150,5,150,0.9,"stim/51.jpeg",5,1,3,NA,"Instruments",2,1,"right","right",0.676999807,1,1,1,1,NA,NA,NA,NA,NA,NA,NA,NA,NA,NA,NA,NA,NA,NA,NA,NA,NA,NA,NA,NA,NA,NA,NA,NA
"140","stim/objects/Instruments/balalaika.png",151,5,151,0.5,"stim/13.jpeg",1,3,1,NA,"Instruments",2,2,"right","left",0.667999983,0,0,1,1,NA,NA,NA,NA,NA,NA,NA,NA,NA,NA,NA,NA,NA,NA,NA,NA,NA,NA,NA,NA,NA,NA,NA,NA
"151","stim/objects/Instruments/banjo2.png",152,5,152,0.3,"stim/44.jpeg",4,4,2,NA,"Instruments",2,4,"right","left",0.734999895,0,0,1,1,NA,NA,NA,NA,NA,NA,NA,NA,NA,NA,NA,NA,NA,NA,NA,NA,NA,NA,NA,NA,NA,NA,NA,NA
"27","stim/objects/HouseObjects/barbecuelighter.png",153,5,153,0.5,"stim/13.jpeg",1,3,1,NA,"HouseObjects",1,4,"left","",NA,0,0,1,1,NA,NA,NA,NA,NA,NA,NA,NA,NA,NA,NA,NA,NA,NA,NA,NA,NA,NA,NA,NA,NA,NA,NA,NA
"124","stim/objects/Instruments/accordion.png",154,5,154,0.5,"stim/11.jpeg",1,1,1,NA,"Instruments",2,3,"right","right",0.74000001,1,1,1,1,NA,NA,NA,NA,NA,NA,NA,NA,NA,NA,NA,NA,NA,NA,NA,NA,NA,NA,NA,NA,NA,NA,NA,NA
"212","stim/objects/Instruments/clarinet.png",155,5,155,0.7,"stim/31.jpeg",3,1,2,NA,"Instruments",2,1,"right","left",0.494999886,0,0,1,1,NA,NA,NA,NA,NA,NA,NA,NA,NA,NA,NA,NA,NA,NA,NA,NA,NA,NA,NA,NA,NA,NA,NA,NA
"155","stim/objects/Instruments/bassdrum.png",156,5,156,0.5,"stim/21.jpeg",2,1,1,NA,"Instruments",2,1,"right","",NA,0,0,1,1,NA,NA,NA,NA,NA,NA,NA,NA,NA,NA,NA,NA,NA,NA,NA,NA,NA,NA,NA,NA,NA,NA,NA,NA
"125","stim/objects/Instruments/accordion.png",157,5,157,0.5,"stim/11.jpeg",1,1,1,NA,"Instruments",2,4,"right","right",0.578000069,1,1,1,1,NA,NA,NA,NA,NA,NA,NA,NA,NA,NA,NA,NA,NA,NA,NA,NA,NA,NA,NA,NA,NA,NA,NA,NA
"163","stim/objects/Instruments/bassdrum2.png",158,5,158,0.9,"stim/51.jpeg",5,1,3,NA,"Instruments",2,3,"right","right",0.682999849,1,1,1,1,NA,NA,NA,NA,NA,NA,NA,NA,NA,NA,NA,NA,NA,NA,NA,NA,NA,NA,NA,NA,NA,NA,NA,NA
"108","stim/objects/HouseObjects/clothesdryingrack2.png",159,5,159,0.9,"stim/63.jpeg",6,3,3,NA,"HouseObjects",1,4,"left","left",0.664000034,1,1,1,1,NA,NA,NA,NA,NA,NA,NA,NA,NA,NA,NA,NA,NA,NA,NA,NA,NA,NA,NA,NA,NA,NA,NA,NA
"238","stim/objects/Instruments/doublebass.png",160,5,160,0.7,"stim/34.jpeg",3,4,2,NA,"Instruments",2,4,"right","",NA,0,0,1,1,NA,NA,NA,NA,NA,NA,NA,NA,NA,NA,NA,NA,NA,NA,NA,NA,NA,NA,NA,NA,NA,NA,NA,NA
"70","stim/objects/HouseObjects/broom.png",161,5,161,0.5,"stim/24.jpeg",2,4,1,NA,"HouseObjects",1,4,"left","left",0.601999998,1,1,1,1,NA,NA,NA,NA,NA,NA,NA,NA,NA,NA,NA,NA,NA,NA,NA,NA,NA,NA,NA,NA,NA,NA,NA,NA
"176","stim/objects/Instruments/bassguitar2.png",162,5,162,0.9,"stim/52.jpeg",5,2,3,NA,"Instruments",2,1,"right","right",0.552000046,1,1,1,1,NA,NA,NA,NA,NA,NA,NA,NA,NA,NA,NA,NA,NA,NA,NA,NA,NA,NA,NA,NA,NA,NA,NA,NA
"168","stim/objects/Instruments/bassguitar.png",163,5,163,0.5,"stim/22.jpeg",2,2,1,NA,"Instruments",2,1,"right","left",0.559000015,0,0,1,1,NA,NA,NA,NA,NA,NA,NA,NA,NA,NA,NA,NA,NA,NA,NA,NA,NA,NA,NA,NA,NA,NA,NA,NA
"177","stim/objects/Instruments/bassguitar2.png",164,5,164,0.9,"stim/52.jpeg",5,2,3,NA,"Instruments",2,3,"right","right",0.575999975,1,1,1,1,NA,NA,NA,NA,NA,NA,NA,NA,NA,NA,NA,NA,NA,NA,NA,NA,NA,NA,NA,NA,NA,NA,NA,NA
"95","stim/objects/HouseObjects/clock2.png",165,5,165,0.9,"stim/62.jpeg",6,2,3,NA,"HouseObjects",1,3,"left","left",0.650000095,1,1,1,1,NA,NA,NA,NA,NA,NA,NA,NA,NA,NA,NA,NA,NA,NA,NA,NA,NA,NA,NA,NA,NA,NA,NA,NA
"52","stim/objects/HouseObjects/bleachbottle.png",166,5,166,0.5,"stim/21.jpeg",2,1,1,NA,"HouseObjects",1,1,"left","right",0.711999893,0,0,1,1,NA,NA,NA,NA,NA,NA,NA,NA,NA,NA,NA,NA,NA,NA,NA,NA,NA,NA,NA,NA,NA,NA,NA,NA
"45","stim/objects/HouseObjects/basket2.png",167,5,167,0.7,"stim/44.jpeg",4,4,2,NA,"HouseObjects",1,1,"left","",NA,0,0,1,1,NA,NA,NA,NA,NA,NA,NA,NA,NA,NA,NA,NA,NA,NA,NA,NA,NA,NA,NA,NA,NA,NA,NA,NA
"22","stim/objects/HouseObjects/ballofstring2.png",168,5,168,0.7,"stim/42.jpeg",4,2,2,NA,"HouseObjects",1,4,"left","",NA,0,0,1,1,NA,NA,NA,NA,NA,NA,NA,NA,NA,NA,NA,NA,NA,NA,NA,NA,NA,NA,NA,NA,NA,NA,NA,NA
"178","stim/objects/Instruments/bassguitar2.png",169,5,169,0.9,"stim/52.jpeg",5,2,3,NA,"Instruments",2,1,"right","left",0.422999859,0,0,1,1,NA,NA,NA,NA,NA,NA,NA,NA,NA,NA,NA,NA,NA,NA,NA,NA,NA,NA,NA,NA,NA,NA,NA,NA
"16","stim/objects/HouseObjects/ballofstring.png",170,5,170,0.5,"stim/12.jpeg",1,2,1,NA,"HouseObjects",1,2,"left","",NA,0,0,1,1,NA,NA,NA,NA,NA,NA,NA,NA,NA,NA,NA,NA,NA,NA,NA,NA,NA,NA,NA,NA,NA,NA,NA,NA
"169","stim/objects/Instruments/bassguitar.png",171,5,171,0.5,"stim/22.jpeg",2,2,1,NA,"Instruments",2,2,"right","left",0.439999819,0,0,1,1,NA,NA,NA,NA,NA,NA,NA,NA,NA,NA,NA,NA,NA,NA,NA,NA,NA,NA,NA,NA,NA,NA,NA,NA
"170","stim/objects/Instruments/bassguitar.png",172,5,172,0.5,"stim/22.jpeg",2,2,1,NA,"Instruments",2,1,"right","left",0.776000023,0,0,1,1,NA,NA,NA,NA,NA,NA,NA,NA,NA,NA,NA,NA,NA,NA,NA,NA,NA,NA,NA,NA,NA,NA,NA,NA
"156","stim/objects/Instruments/bassdrum.png",173,5,173,0.5,"stim/21.jpeg",2,1,1,NA,"Instruments",2,2,"right","",NA,0,0,1,1,NA,NA,NA,NA,NA,NA,NA,NA,NA,NA,NA,NA,NA,NA,NA,NA,NA,NA,NA,NA,NA,NA,NA,NA
"82","stim/objects/HouseObjects/bucket2.png",174,5,174,0.9,"stim/61.jpeg",6,1,3,NA,"HouseObjects",1,2,"left","left",0.553999901,1,1,1,1,NA,NA,NA,NA,NA,NA,NA,NA,NA,NA,NA,NA,NA,NA,NA,NA,NA,NA,NA,NA,NA,NA,NA,NA
"192","stim/objects/Instruments/cello2.png",175,5,175,0.9,"stim/53.jpeg",5,3,3,NA,"Instruments",2,2,"right","right",0.576999903,1,1,1,1,NA,NA,NA,NA,NA,NA,NA,NA,NA,NA,NA,NA,NA,NA,NA,NA,NA,NA,NA,NA,NA,NA,NA,NA
"28","stim/objects/HouseObjects/barbecuelighter.png",176,5,176,0.5,"stim/13.jpeg",1,3,1,NA,"HouseObjects",1,1,"left","left",0.463999987,1,1,1,1,NA,NA,NA,NA,NA,NA,NA,NA,NA,NA,NA,NA,NA,NA,NA,NA,NA,NA,NA,NA,NA,NA,NA,NA
"232","stim/objects/Instruments/cymbal2.png",177,5,177,0.1,"stim/63.jpeg",6,3,3,NA,"Instruments",2,4,"right","left",0.620000124,0,0,1,1,NA,NA,NA,NA,NA,NA,NA,NA,NA,NA,NA,NA,NA,NA,NA,NA,NA,NA,NA,NA,NA,NA,NA,NA
"164","stim/objects/Instruments/bassdrum2.png",178,5,178,0.9,"stim/51.jpeg",5,1,3,NA,"Instruments",2,1,"right","right",0.637999773,1,1,1,1,NA,NA,NA,NA,NA,NA,NA,NA,NA,NA,NA,NA,NA,NA,NA,NA,NA,NA,NA,NA,NA,NA,NA,NA
"157","stim/objects/Instruments/bassdrum.png",179,5,179,0.5,"stim/21.jpeg",2,1,1,NA,"Instruments",2,1,"right","right",0.815999985,1,1,1,1,NA,NA,NA,NA,NA,NA,NA,NA,NA,NA,NA,NA,NA,NA,NA,NA,NA,NA,NA,NA,NA,NA,NA,NA
"60","stim/objects/HouseObjects/blender2.png",180,5,180,0.1,"stim/52.jpeg",5,2,3,NA,"HouseObjects",1,3,"left","",NA,0,0,1,1,NA,NA,NA,NA,NA,NA,NA,NA,NA,NA,NA,NA,NA,NA,NA,NA,NA,NA,NA,NA,NA,NA,NA,NA
"165","stim/objects/Instruments/bassdrum2.png",181,5,181,0.9,"stim/51.jpeg",5,1,3,NA,"Instruments",2,1,"right","right",0.622999907,1,1,1,1,NA,NA,NA,NA,NA,NA,NA,NA,NA,NA,NA,NA,NA,NA,NA,NA,NA,NA,NA,NA,NA,NA,NA,NA
"96","stim/objects/HouseObjects/clock2.png",182,5,182,0.9,"stim/62.jpeg",6,2,3,NA,"HouseObjects",1,3,"left","left",0.697000027,1,1,1,1,NA,NA,NA,NA,NA,NA,NA,NA,NA,NA,NA,NA,NA,NA,NA,NA,NA,NA,NA,NA,NA,NA,NA,NA
"179","stim/objects/Instruments/bassguitar2.png",183,5,183,0.9,"stim/52.jpeg",5,2,3,NA,"Instruments",2,3,"right","right",0.755999804,1,1,1,1,NA,NA,NA,NA,NA,NA,NA,NA,NA,NA,NA,NA,NA,NA,NA,NA,NA,NA,NA,NA,NA,NA,NA,NA
"17","stim/objects/HouseObjects/ballofstring.png",184,5,184,0.5,"stim/12.jpeg",1,2,1,NA,"HouseObjects",1,1,"left","left",0.776000023,1,1,1,1,NA,NA,NA,NA,NA,NA,NA,NA,NA,NA,NA,NA,NA,NA,NA,NA,NA,NA,NA,NA,NA,NA,NA,NA
"58","stim/objects/HouseObjects/blender.png",185,5,185,0.5,"stim/22.jpeg",2,2,1,NA,"HouseObjects",1,2,"left","",NA,0,0,1,1,NA,NA,NA,NA,NA,NA,NA,NA,NA,NA,NA,NA,NA,NA,NA,NA,NA,NA,NA,NA,NA,NA,NA,NA
"46","stim/objects/HouseObjects/basket2.png",186,5,186,0.7,"stim/44.jpeg",4,4,2,NA,"HouseObjects",1,3,"left","left",0.697000027,1,1,1,1,NA,NA,NA,NA,NA,NA,NA,NA,NA,NA,NA,NA,NA,NA,NA,NA,NA,NA,NA,NA,NA,NA,NA,NA
"35","stim/objects/HouseObjects/barbecuelighter2.png",187,5,187,0.7,"stim/43.jpeg",4,3,2,NA,"HouseObjects",1,4,"left","right",0.855000019,0,0,1,1,NA,NA,NA,NA,NA,NA,NA,NA,NA,NA,NA,NA,NA,NA,NA,NA,NA,NA,NA,NA,NA,NA,NA,NA
"193","stim/objects/Instruments/cello2.png",188,5,188,0.9,"stim/53.jpeg",5,3,3,NA,"Instruments",2,1,"right","right",0.657999992,1,1,1,1,NA,NA,NA,NA,NA,NA,NA,NA,NA,NA,NA,NA,NA,NA,NA,NA,NA,NA,NA,NA,NA,NA,NA,NA
"87","stim/objects/HouseObjects/clock.png",189,5,189,0.3,"stim/32.jpeg",3,2,2,NA,"HouseObjects",1,4,"left","",NA,0,0,1,1,NA,NA,NA,NA,NA,NA,NA,NA,NA,NA,NA,NA,NA,NA,NA,NA,NA,NA,NA,NA,NA,NA,NA,NA
"207","stim/objects/Instruments/chime2.png",190,5,190,0.9,"stim/54.jpeg",5,4,3,NA,"Instruments",2,3,"right","",NA,0,0,1,1,NA,NA,NA,NA,NA,NA,NA,NA,NA,NA,NA,NA,NA,NA,NA,NA,NA,NA,NA,NA,NA,NA,NA,NA
"23","stim/objects/HouseObjects/ballofstring2.png",191,5,191,0.7,"stim/42.jpeg",4,2,2,NA,"HouseObjects",1,2,"left","left",0.796999931,1,1,1,1,NA,NA,NA,NA,NA,NA,NA,NA,NA,NA,NA,NA,NA,NA,NA,NA,NA,NA,NA,NA,NA,NA,NA,NA
"183","stim/objects/Instruments/cello.png",192,5,192,0.5,"stim/23.jpeg",2,3,1,NA,"Instruments",2,2,"right","",NA,0,0,1,1,NA,NA,NA,NA,NA,NA,NA,NA,NA,NA,NA,NA,NA,NA,NA,NA,NA,NA,NA,NA,NA,NA,NA,NA
"83","stim/objects/HouseObjects/bucket2.png",193,5,193,0.9,"stim/61.jpeg",6,1,3,NA,"HouseObjects",1,2,"left","left",0.579999924,1,1,1,1,NA,NA,NA,NA,NA,NA,NA,NA,NA,NA,NA,NA,NA,NA,NA,NA,NA,NA,NA,NA,NA,NA,NA,NA
"128","stim/objects/Instruments/accordion2.png",194,5,194,0.3,"stim/41.jpeg",4,1,2,NA,"Instruments",2,2,"right","left",0.647999763,0,0,1,1,NA,NA,NA,NA,NA,NA,NA,NA,NA,NA,NA,NA,NA,NA,NA,NA,NA,NA,NA,NA,NA,NA,NA,NA
"198","stim/objects/Instruments/chime.png",195,5,195,0.5,"stim/24.jpeg",2,4,1,NA,"Instruments",2,4,"right","",NA,0,0,1,1,NA,NA,NA,NA,NA,NA,NA,NA,NA,NA,NA,NA,NA,NA,NA,NA,NA,NA,NA,NA,NA,NA,NA,NA
"213","stim/objects/Instruments/clarinet.png",196,5,196,0.7,"stim/31.jpeg",3,1,2,NA,"Instruments",2,4,"right","left",0.381000042,0,0,1,1,NA,NA,NA,NA,NA,NA,NA,NA,NA,NA,NA,NA,NA,NA,NA,NA,NA,NA,NA,NA,NA,NA,NA,NA
"24","stim/objects/HouseObjects/ballofstring2.png",197,5,197,0.7,"stim/42.jpeg",4,2,2,NA,"HouseObjects",1,4,"left","right",0.513000011,0,0,1,1,NA,NA,NA,NA,NA,NA,NA,NA,NA,NA,NA,NA,NA,NA,NA,NA,NA,NA,NA,NA,NA,NA,NA,NA
"118","stim/objects/HouseObjects/clothespin2.png",198,5,198,0.9,"stim/64.jpeg",6,4,3,NA,"HouseObjects",1,3,"left","left",0.605999947,1,1,1,1,NA,NA,NA,NA,NA,NA,NA,NA,NA,NA,NA,NA,NA,NA,NA,NA,NA,NA,NA,NA,NA,NA,NA,NA
"53","stim/objects/HouseObjects/bleachbottle.png",199,5,199,0.5,"stim/21.jpeg",2,1,1,NA,"HouseObjects",1,4,"left","left",0.730000019,1,1,1,1,NA,NA,NA,NA,NA,NA,NA,NA,NA,NA,NA,NA,NA,NA,NA,NA,NA,NA,NA,NA,NA,NA,NA,NA
"208","stim/objects/Instruments/chime2.png",200,5,200,0.9,"stim/54.jpeg",5,4,3,NA,"Instruments",2,2,"right","",NA,0,0,1,1,NA,NA,NA,NA,NA,NA,NA,NA,NA,NA,NA,NA,NA,NA,NA,NA,NA,NA,NA,NA,NA,NA,NA,NA
"119","stim/objects/HouseObjects/clothespin2.png",201,5,201,0.9,"stim/64.jpeg",6,4,3,NA,"HouseObjects",1,3,"left","left",0.506999969,1,1,1,1,NA,NA,NA,NA,NA,NA,NA,NA,NA,NA,NA,NA,NA,NA,NA,NA,NA,NA,NA,NA,NA,NA,NA,NA
"47","stim/objects/HouseObjects/basket2.png",202,5,202,0.7,"stim/44.jpeg",4,4,2,NA,"HouseObjects",1,3,"left","left",0.527999878,1,1,1,1,NA,NA,NA,NA,NA,NA,NA,NA,NA,NA,NA,NA,NA,NA,NA,NA,NA,NA,NA,NA,NA,NA,NA,NA
"40","stim/objects/HouseObjects/basket.png",203,5,203,0.5,"stim/14.jpeg",1,4,1,NA,"HouseObjects",1,2,"left","left",0.818000078,1,1,1,1,NA,NA,NA,NA,NA,NA,NA,NA,NA,NA,NA,NA,NA,NA,NA,NA,NA,NA,NA,NA,NA,NA,NA,NA
"180","stim/objects/Instruments/bassguitar2.png",204,5,204,0.9,"stim/52.jpeg",5,2,3,NA,"Instruments",2,1,"right","right",0.839999914,1,1,1,1,NA,NA,NA,NA,NA,NA,NA,NA,NA,NA,NA,NA,NA,NA,NA,NA,NA,NA,NA,NA,NA,NA,NA,NA
"171","stim/objects/Instruments/bassguitar.png",205,5,205,0.5,"stim/22.jpeg",2,2,1,NA,"Instruments",2,1,"right","left",0.565999985,0,0,1,1,NA,NA,NA,NA,NA,NA,NA,NA,NA,NA,NA,NA,NA,NA,NA,NA,NA,NA,NA,NA,NA,NA,NA,NA
"4","stim/objects/HouseObjects/ashtray.png",206,5,206,0.5,"stim/11.jpeg",1,1,1,NA,"HouseObjects",1,2,"left","",NA,0,0,1,1,NA,NA,NA,NA,NA,NA,NA,NA,NA,NA,NA,NA,NA,NA,NA,NA,NA,NA,NA,NA,NA,NA,NA,NA
"143","stim/objects/Instruments/balalaika2.png",207,5,207,0.3,"stim/43.jpeg",4,3,2,NA,"Instruments",2,2,"right","right",0.746000051,1,1,1,1,NA,NA,NA,NA,NA,NA,NA,NA,NA,NA,NA,NA,NA,NA,NA,NA,NA,NA,NA,NA,NA,NA,NA,NA
"194","stim/objects/Instruments/cello2.png",208,5,208,0.9,"stim/53.jpeg",5,3,3,NA,"Instruments",2,2,"right","right",0.602999926,1,1,1,1,NA,NA,NA,NA,NA,NA,NA,NA,NA,NA,NA,NA,NA,NA,NA,NA,NA,NA,NA,NA,NA,NA,NA,NA
"59","stim/objects/HouseObjects/blender.png",209,5,209,0.5,"stim/22.jpeg",2,2,1,NA,"HouseObjects",1,4,"left","left",0.305000067,1,1,1,1,NA,NA,NA,NA,NA,NA,NA,NA,NA,NA,NA,NA,NA,NA,NA,NA,NA,NA,NA,NA,NA,NA,NA,NA
"11","stim/objects/HouseObjects/ashtray2.png",210,5,210,0.7,"stim/41.jpeg",4,1,2,NA,"HouseObjects",1,2,"left","left",0.735999823,1,1,1,1,NA,NA,NA,NA,NA,NA,NA,NA,NA,NA,NA,NA,NA,NA,NA,NA,NA,NA,NA,NA,NA,NA,NA,NA
"5","stim/objects/HouseObjects/ashtray.png",211,5,211,0.5,"stim/11.jpeg",1,1,1,NA,"HouseObjects",1,2,"left","right",0.781000137,0,0,1,1,NA,NA,NA,NA,NA,NA,NA,NA,NA,NA,NA,NA,NA,NA,NA,NA,NA,NA,NA,NA,NA,NA,NA,NA
"229","stim/objects/Instruments/cymbal.png",212,5,212,0.7,"stim/33.jpeg",3,3,2,NA,"Instruments",2,2,"right","left",0.506999969,0,0,1,1,NA,NA,NA,NA,NA,NA,NA,NA,NA,NA,NA,NA,NA,NA,NA,NA,NA,NA,NA,NA,NA,NA,NA,NA
"41","stim/objects/HouseObjects/basket.png",213,5,213,0.5,"stim/14.jpeg",1,4,1,NA,"HouseObjects",1,3,"left","right",0.776000023,0,0,1,1,NA,NA,NA,NA,NA,NA,NA,NA,NA,NA,NA,NA,NA,NA,NA,NA,NA,NA,NA,NA,NA,NA,NA,NA
"109","stim/objects/HouseObjects/clothespin.png",214,5,214,0.3,"stim/34.jpeg",3,4,2,NA,"HouseObjects",1,4,"left","right",0.747999907,0,0,1,1,NA,NA,NA,NA,NA,NA,NA,NA,NA,NA,NA,NA,NA,NA,NA,NA,NA,NA,NA,NA,NA,NA,NA,NA
"71","stim/objects/HouseObjects/broom.png",215,5,215,0.5,"stim/24.jpeg",2,4,1,NA,"HouseObjects",1,2,"left","right",0.836999893,0,0,1,1,NA,NA,NA,NA,NA,NA,NA,NA,NA,NA,NA,NA,NA,NA,NA,NA,NA,NA,NA,NA,NA,NA,NA,NA
"144","stim/objects/Instruments/balalaika2.png",216,5,216,0.3,"stim/43.jpeg",4,3,2,NA,"Instruments",2,3,"right","left",0.692000151,0,0,1,1,NA,NA,NA,NA,NA,NA,NA,NA,NA,NA,NA,NA,NA,NA,NA,NA,NA,NA,NA,NA,NA,NA,NA,NA
"141","stim/objects/Instruments/balalaika.png",217,5,217,0.5,"stim/13.jpeg",1,3,1,NA,"Instruments",2,3,"right","",NA,0,0,1,1,NA,NA,NA,NA,NA,NA,NA,NA,NA,NA,NA,NA,NA,NA,NA,NA,NA,NA,NA,NA,NA,NA,NA,NA
"184","stim/objects/Instruments/cello.png",218,5,218,0.5,"stim/23.jpeg",2,3,1,NA,"Instruments",2,3,"right","",NA,0,0,1,1,NA,NA,NA,NA,NA,NA,NA,NA,NA,NA,NA,NA,NA,NA,NA,NA,NA,NA,NA,NA,NA,NA,NA,NA
"120","stim/objects/HouseObjects/clothespin2.png",219,5,219,0.9,"stim/64.jpeg",6,4,3,NA,"HouseObjects",1,1,"left","left",0.580999851,1,1,1,1,NA,NA,NA,NA,NA,NA,NA,NA,NA,NA,NA,NA,NA,NA,NA,NA,NA,NA,NA,NA,NA,NA,NA,NA
"36","stim/objects/HouseObjects/barbecuelighter2.png",220,5,220,0.7,"stim/43.jpeg",4,3,2,NA,"HouseObjects",1,2,"left","left",0.61199975,1,1,1,1,NA,NA,NA,NA,NA,NA,NA,NA,NA,NA,NA,NA,NA,NA,NA,NA,NA,NA,NA,NA,NA,NA,NA,NA
"223","stim/objects/Instruments/cornet.png",221,5,221,0.7,"stim/32.jpeg",3,2,2,NA,"Instruments",2,1,"right","left",0.866999865,0,0,1,1,NA,NA,NA,NA,NA,NA,NA,NA,NA,NA,NA,NA,NA,NA,NA,NA,NA,NA,NA,NA,NA,NA,NA,NA
"214","stim/objects/Instruments/clarinet.png",222,5,222,0.7,"stim/31.jpeg",3,1,2,NA,"Instruments",2,4,"right","",NA,0,0,1,1,NA,NA,NA,NA,NA,NA,NA,NA,NA,NA,NA,NA,NA,NA,NA,NA,NA,NA,NA,NA,NA,NA,NA,NA
"74","stim/objects/HouseObjects/bucket.png",223,5,223,0.3,"stim/31.jpeg",3,1,2,NA,"HouseObjects",1,3,"left","right",0.730000019,0,0,1,1,NA,NA,NA,NA,NA,NA,NA,NA,NA,NA,NA,NA,NA,NA,NA,NA,NA,NA,NA,NA,NA,NA,NA,NA
"152","stim/objects/Instruments/banjo2.png",224,5,224,0.3,"stim/44.jpeg",4,4,2,NA,"Instruments",2,3,"right","left",0.681999922,0,0,1,1,NA,NA,NA,NA,NA,NA,NA,NA,NA,NA,NA,NA,NA,NA,NA,NA,NA,NA,NA,NA,NA,NA,NA,NA
"230","stim/objects/Instruments/cymbal.png",225,5,225,0.7,"stim/33.jpeg",3,3,2,NA,"Instruments",2,1,"right","right",0.611000061,1,1,1,1,NA,NA,NA,NA,NA,NA,NA,NA,NA,NA,NA,NA,NA,NA,NA,NA,NA,NA,NA,NA,NA,NA,NA,NA
"239","stim/objects/Instruments/doublebass.png",226,5,226,0.7,"stim/34.jpeg",3,4,2,NA,"Instruments",2,3,"right","",NA,0,0,1,1,NA,NA,NA,NA,NA,NA,NA,NA,NA,NA,NA,NA,NA,NA,NA,NA,NA,NA,NA,NA,NA,NA,NA,NA
"29","stim/objects/HouseObjects/barbecuelighter.png",227,5,227,0.5,"stim/13.jpeg",1,3,1,NA,"HouseObjects",1,1,"left","left",0.746000051,1,1,1,1,NA,NA,NA,NA,NA,NA,NA,NA,NA,NA,NA,NA,NA,NA,NA,NA,NA,NA,NA,NA,NA,NA,NA,NA
"84","stim/objects/HouseObjects/bucket2.png",228,5,228,0.9,"stim/61.jpeg",6,1,3,NA,"HouseObjects",1,2,"left","left",0.616999865,1,1,1,1,NA,NA,NA,NA,NA,NA,NA,NA,NA,NA,NA,NA,NA,NA,NA,NA,NA,NA,NA,NA,NA,NA,NA,NA
"75","stim/objects/HouseObjects/bucket.png",229,5,229,0.3,"stim/31.jpeg",3,1,2,NA,"HouseObjects",1,2,"left","right",0.779999971,0,0,1,1,NA,NA,NA,NA,NA,NA,NA,NA,NA,NA,NA,NA,NA,NA,NA,NA,NA,NA,NA,NA,NA,NA,NA,NA
"215","stim/objects/Instruments/clarinet.png",230,5,230,0.7,"stim/31.jpeg",3,1,2,NA,"Instruments",2,1,"right","right",0.635999918,1,1,1,1,NA,NA,NA,NA,NA,NA,NA,NA,NA,NA,NA,NA,NA,NA,NA,NA,NA,NA,NA,NA,NA,NA,NA,NA
"110","stim/objects/HouseObjects/clothespin.png",231,5,231,0.3,"stim/34.jpeg",3,4,2,NA,"HouseObjects",1,1,"left","right",0.690999985,0,0,1,1,NA,NA,NA,NA,NA,NA,NA,NA,NA,NA,NA,NA,NA,NA,NA,NA,NA,NA,NA,NA,NA,NA,NA,NA
"185","stim/objects/Instruments/cello.png",232,5,232,0.5,"stim/23.jpeg",2,3,1,NA,"Instruments",2,4,"right","",NA,0,0,1,1,NA,NA,NA,NA,NA,NA,NA,NA,NA,NA,NA,NA,NA,NA,NA,NA,NA,NA,NA,NA,NA,NA,NA,NA
"111","stim/objects/HouseObjects/clothespin.png",233,5,233,0.3,"stim/34.jpeg",3,4,2,NA,"HouseObjects",1,1,"left","right",0.686000109,0,0,1,1,NA,NA,NA,NA,NA,NA,NA,NA,NA,NA,NA,NA,NA,NA,NA,NA,NA,NA,NA,NA,NA,NA,NA,NA
"231","stim/objects/Instruments/cymbal.png",234,5,234,0.7,"stim/33.jpeg",3,3,2,NA,"Instruments",2,2,"right","right",0.645999908,1,1,1,1,NA,NA,NA,NA,NA,NA,NA,NA,NA,NA,NA,NA,NA,NA,NA,NA,NA,NA,NA,NA,NA,NA,NA,NA
"199","stim/objects/Instruments/chime.png",235,5,235,0.5,"stim/24.jpeg",2,4,1,NA,"Instruments",2,3,"right","",NA,0,0,1,1,NA,NA,NA,NA,NA,NA,NA,NA,NA,NA,NA,NA,NA,NA,NA,NA,NA,NA,NA,NA,NA,NA,NA,NA
"133","stim/objects/Instruments/acousticguitar.png",236,5,236,0.5,"stim/12.jpeg",1,2,1,NA,"Instruments",2,2,"right","right",0.485999823,1,1,1,1,NA,NA,NA,NA,NA,NA,NA,NA,NA,NA,NA,NA,NA,NA,NA,NA,NA,NA,NA,NA,NA,NA,NA,NA
"48","stim/objects/HouseObjects/basket2.png",237,5,237,0.7,"stim/44.jpeg",4,4,2,NA,"HouseObjects",1,2,"left","left",0.649999857,1,1,1,1,NA,NA,NA,NA,NA,NA,NA,NA,NA,NA,NA,NA,NA,NA,NA,NA,NA,NA,NA,NA,NA,NA,NA,NA
"149","stim/objects/Instruments/banjo.png",238,5,238,0.5,"stim/14.jpeg",1,4,1,NA,"Instruments",2,3,"right","right",0.686000109,1,1,1,1,NA,NA,NA,NA,NA,NA,NA,NA,NA,NA,NA,NA,NA,NA,NA,NA,NA,NA,NA,NA,NA,NA,NA,NA
"166","stim/objects/Instruments/bassdrum2.png",239,5,239,0.9,"stim/51.jpeg",5,1,3,NA,"Instruments",2,4,"right","right",0.667999983,1,1,1,1,NA,NA,NA,NA,NA,NA,NA,NA,NA,NA,NA,NA,NA,NA,NA,NA,NA,NA,NA,NA,NA,NA,NA,NA
"12","stim/objects/HouseObjects/ashtray2.png",240,5,240,0.7,"stim/41.jpeg",4,1,2,NA,"HouseObjects",1,4,"left","",NA,0,0,1,1,NA,NA,NA,NA,NA,NA,NA,NA,NA,NA,NA,NA,NA,NA,NA,NA,NA,NA,NA,NA,NA,NA,NA,NA
"429","stim/objects/Instruments/grandpiano2.png",248,5,241,0.3,"stim/44.jpeg",4,4,2,1,"Instruments",2,4,"right","",NA,0,0,1,0,102,5,1,0.3,2,"stim/44.jpeg",4,4,"stim/44.jpeg",4,"left",1.514999866,3,3,3.061999798,2,2.415999889,102,1,0,0,0,0,1
"244","stim/objects/HouseObjects/cushion.png",249,5,242,0.5,"stim/12.jpeg",1,2,1,2,"HouseObjects",1,4,"left","",NA,0,0,1,0,NA,NA,NA,NA,NA,NA,NA,NA,NA,NA,NA,NA,NA,NA,NA,NA,NA,NA,NA,NA,NA,NA,NA,NA
"452","stim/objects/Instruments/maraca.png",250,5,243,0.7,"stim/33.jpeg",3,3,2,2,"Instruments",2,4,"right","left",0.517999887,0,0,1,0,NA,NA,NA,NA,NA,NA,NA,NA,NA,NA,NA,NA,NA,NA,NA,NA,NA,NA,NA,NA,NA,NA,NA,NA
"444","stim/objects/Instruments/keyboard.png",251,5,244,0.7,"stim/33.jpeg",3,3,2,2,"Instruments",2,4,"right","right",0.733999729,1,1,1,0,NA,NA,NA,NA,NA,NA,NA,NA,NA,NA,NA,NA,NA,NA,NA,NA,NA,NA,NA,NA,NA,NA,NA,NA
"436","stim/objects/Instruments/harp.png",252,5,245,0.7,"stim/31.jpeg",3,1,2,2,"Instruments",2,3,"right","right",0.704999924,1,1,1,0,NA,NA,NA,NA,NA,NA,NA,NA,NA,NA,NA,NA,NA,NA,NA,NA,NA,NA,NA,NA,NA,NA,NA,NA
"423","stim/objects/Instruments/frenchhorn2.png",253,5,246,0.3,"stim/42.jpeg",4,2,2,1,"Instruments",2,1,"right","left",0.721999884,0,0,1,0,76,5,1,0.3,2,"stim/42.jpeg",4,2,"stim/42.jpeg",1,"left",2.066999912,2,3,1.486999989,2,1.583999872,76,1,0,0,0,0,1
"490","stim/objects/Instruments/musicsheet.png",254,5,247,0.9,"stim/51.jpeg",5,1,3,2,"Instruments",2,4,"right","right",0.539999962,1,1,1,0,NA,NA,NA,NA,NA,NA,NA,NA,NA,NA,NA,NA,NA,NA,NA,NA,NA,NA,NA,NA,NA,NA,NA,NA
"507","stim/objects/Instruments/musicstand.png",255,5,248,0.9,"stim/53.jpeg",5,3,3,2,"Instruments",2,2,"right","right",0.597999811,1,1,1,0,NA,NA,NA,NA,NA,NA,NA,NA,NA,NA,NA,NA,NA,NA,NA,NA,NA,NA,NA,NA,NA,NA,NA,NA
"308","stim/objects/HouseObjects/lintroller.png",256,5,249,0.9,"stim/62.jpeg",6,2,3,2,"HouseObjects",1,3,"left","left",0.666999817,1,1,1,0,NA,NA,NA,NA,NA,NA,NA,NA,NA,NA,NA,NA,NA,NA,NA,NA,NA,NA,NA,NA,NA,NA,NA,NA
"555","stim/objects/Instruments/timbal.png",257,5,250,0.5,"stim/22.jpeg",2,2,1,1,"Instruments",2,2,"right","right",0.754999876,1,1,1,0,131,5,1,0.5,2,"stim/22.jpeg",2,2,"stim/22.jpeg",2,"left",1.631999969,4,2,2.430000067,2,2.029999971,131,1,1,1,1,1,1
"524","stim/objects/Instruments/oboe.png",258,5,251,0.9,"stim/52.jpeg",5,2,3,2,"Instruments",2,4,"right","",NA,0,0,1,0,NA,NA,NA,NA,NA,NA,NA,NA,NA,NA,NA,NA,NA,NA,NA,NA,NA,NA,NA,NA,NA,NA,NA,NA
"508","stim/objects/Instruments/musicstand.png",259,5,252,0.9,"stim/53.jpeg",5,3,3,2,"Instruments",2,3,"right","right",0.536999941,1,1,1,0,NA,NA,NA,NA,NA,NA,NA,NA,NA,NA,NA,NA,NA,NA,NA,NA,NA,NA,NA,NA,NA,NA,NA,NA
"359","stim/objects/HouseObjects/pitcher.png",260,5,253,0.9,"stim/64.jpeg",6,4,3,2,"HouseObjects",1,3,"left","left",0.256999969,1,1,1,0,NA,NA,NA,NA,NA,NA,NA,NA,NA,NA,NA,NA,NA,NA,NA,NA,NA,NA,NA,NA,NA,NA,NA,NA
"525","stim/objects/Instruments/oboe.png",261,5,254,0.9,"stim/52.jpeg",5,2,3,2,"Instruments",2,2,"right","right",0.518999815,1,1,1,0,NA,NA,NA,NA,NA,NA,NA,NA,NA,NA,NA,NA,NA,NA,NA,NA,NA,NA,NA,NA,NA,NA,NA,NA
"408","stim/objects/Instruments/drums2.png",262,5,255,0.7,"stim/33.jpeg",3,3,2,1,"Instruments",2,1,"right","left",0.490999937,0,0,1,0,197,5,1,0.7,2,"stim/33.jpeg",3,3,"stim/33.jpeg",1,"right",1.485000134,1,2,0.388999701,3,0.22300005,197,0,0,NA,0,NA,1
"509","stim/objects/Instruments/musicstand.png",263,5,256,0.9,"stim/53.jpeg",5,3,3,2,"Instruments",2,1,"right","right",0.598999977,1,1,1,0,NA,NA,NA,NA,NA,NA,NA,NA,NA,NA,NA,NA,NA,NA,NA,NA,NA,NA,NA,NA,NA,NA,NA,NA
"474","stim/objects/Instruments/metronome.png",264,5,257,0.9,"stim/51.jpeg",5,1,3,2,"Instruments",2,4,"right","right",0.529999971,1,1,1,0,NA,NA,NA,NA,NA,NA,NA,NA,NA,NA,NA,NA,NA,NA,NA,NA,NA,NA,NA,NA,NA,NA,NA,NA
"398","stim/objects/HouseObjects/thread.png",265,5,258,0.3,"stim/32.jpeg",3,2,2,1,"HouseObjects",1,1,"left","",NA,0,0,1,0,89,5,1,0.3,1,"stim/32.jpeg",3,2,"stim/32.jpeg",1,"right",1.236999989,2,4,1.493999958,3,1.189999819,89,0,0,NA,0,NA,1
"360","stim/objects/HouseObjects/pitcher.png",266,5,259,0.9,"stim/64.jpeg",6,4,3,2,"HouseObjects",1,4,"left","left",0.721999884,1,1,1,0,NA,NA,NA,NA,NA,NA,NA,NA,NA,NA,NA,NA,NA,NA,NA,NA,NA,NA,NA,NA,NA,NA,NA,NA
"261","stim/objects/HouseObjects/garbagebin2.png",267,5,260,0.7,"stim/41.jpeg",4,1,2,1,"HouseObjects",1,1,"left","",NA,0,0,1,0,42,5,1,0.7,1,"stim/41.jpeg",4,1,"stim/41.jpeg",1,"right",2.514999866,2,4,1.333999872,3,1.59499979,42,0,0,NA,0,NA,1
"388","stim/objects/HouseObjects/scale.png",268,5,261,0.5,"stim/22.jpeg",2,2,1,1,"HouseObjects",1,2,"left","",NA,0,0,1,0,95,5,1,0.5,2,"stim/22.jpeg",2,2,"stim/22.jpeg",2,"right",0.750999928,4,3,0.70299983,2,0.466999769,95,0,0,NA,1,NA,1
"286","stim/objects/HouseObjects/ironingboard2.png",269,5,262,0.7,"stim/44.jpeg",4,4,2,1,"HouseObjects",1,1,"left","left",0.57799983,1,1,1,0,66,5,1,0.7,1,"stim/44.jpeg",4,4,"stim/44.jpeg",1,"left",1.237999916,3,2,2.583999872,1,0.790999889,66,1,0,0,1,1,1
"241","stim/objects/HouseObjects/coffee.png",270,5,263,0.5,"stim/11.jpeg",1,1,1,2,"HouseObjects",1,2,"left","right",0.518000126,0,0,1,0,NA,NA,NA,NA,NA,NA,NA,NA,NA,NA,NA,NA,NA,NA,NA,NA,NA,NA,NA,NA,NA,NA,NA,NA
"433","stim/objects/Instruments/harmonica.png",271,5,264,0.5,"stim/22.jpeg",2,2,1,2,"Instruments",2,3,"right","left",0.753000021,0,0,1,0,NA,NA,NA,NA,NA,NA,NA,NA,NA,NA,NA,NA,NA,NA,NA,NA,NA,NA,NA,NA,NA,NA,NA,NA
"492","stim/objects/Instruments/musicsheet.png",272,5,265,0.9,"stim/53.jpeg",5,3,3,2,"Instruments",2,1,"right","right",0.552999735,1,1,1,0,NA,NA,NA,NA,NA,NA,NA,NA,NA,NA,NA,NA,NA,NA,NA,NA,NA,NA,NA,NA,NA,NA,NA,NA
"271","stim/objects/HouseObjects/handbrush.png",273,5,266,0.7,"stim/42.jpeg",4,2,2,2,"HouseObjects",1,4,"left","left",0.676999807,1,1,1,0,NA,NA,NA,NA,NA,NA,NA,NA,NA,NA,NA,NA,NA,NA,NA,NA,NA,NA,NA,NA,NA,NA,NA,NA
"568","stim/objects/Instruments/vuvuzela2.png",274,5,267,0.1,"stim/63.jpeg",6,3,3,1,"Instruments",2,2,"right","left",0.683999777,0,0,1,0,70,5,1,0.1,2,"stim/63.jpeg",6,3,"stim/63.jpeg",2,"left",0.949999809,3,3,3.215999842,3,1.750999928,70,1,1,1,0,0,1
"358","stim/objects/HouseObjects/pan2.png",275,5,268,0.1,"stim/54.jpeg",5,4,3,1,"HouseObjects",1,3,"left","right",0.739999771,0,0,1,0,98,5,1,0.1,1,"stim/54.jpeg",5,4,"stim/54.jpeg",3,"right",0.633999825,2,1,3.048999786,2,0.882999897,98,0,0,NA,0,NA,1
"309","stim/objects/HouseObjects/lintroller.png",276,5,269,0.9,"stim/63.jpeg",6,3,3,2,"HouseObjects",1,2,"left","left",0.593999863,1,1,1,0,NA,NA,NA,NA,NA,NA,NA,NA,NA,NA,NA,NA,NA,NA,NA,NA,NA,NA,NA,NA,NA,NA,NA,NA
"287","stim/objects/HouseObjects/key.png",277,5,270,0.7,"stim/42.jpeg",4,2,2,2,"HouseObjects",1,1,"left","left",0.731999874,1,1,1,0,NA,NA,NA,NA,NA,NA,NA,NA,NA,NA,NA,NA,NA,NA,NA,NA,NA,NA,NA,NA,NA,NA,NA,NA
"268","stim/objects/HouseObjects/hairdryer.png",278,5,271,0.5,"stim/24.jpeg",2,4,1,2,"HouseObjects",1,2,"left","left",0.791999817,1,1,1,0,NA,NA,NA,NA,NA,NA,NA,NA,NA,NA,NA,NA,NA,NA,NA,NA,NA,NA,NA,NA,NA,NA,NA,NA
"510","stim/objects/Instruments/musicstand.png",279,5,272,0.9,"stim/51.jpeg",5,1,3,2,"Instruments",2,4,"right","right",0.651000023,1,1,1,0,NA,NA,NA,NA,NA,NA,NA,NA,NA,NA,NA,NA,NA,NA,NA,NA,NA,NA,NA,NA,NA,NA,NA,NA
"412","stim/objects/Instruments/electricguitar.png",280,5,273,0.5,"stim/13.jpeg",1,3,1,2,"Instruments",2,3,"right","right",0.470999718,1,1,1,0,NA,NA,NA,NA,NA,NA,NA,NA,NA,NA,NA,NA,NA,NA,NA,NA,NA,NA,NA,NA,NA,NA,NA,NA
"556","stim/objects/Instruments/timbal2.png",281,5,274,0.1,"stim/61.jpeg",6,1,3,1,"Instruments",2,2,"right","left",0.575000048,0,0,1,0,86,5,1,0.1,2,"stim/61.jpeg",6,1,"stim/61.jpeg",2,"right",1.464999914,2,3,1.404999971,4,1.397000074,86,0,0,NA,0,NA,1
"456","stim/objects/Instruments/marimba.png",282,5,275,0.9,"stim/53.jpeg",5,3,3,2,"Instruments",2,2,"right","right",0.76699996,1,1,1,0,NA,NA,NA,NA,NA,NA,NA,NA,NA,NA,NA,NA,NA,NA,NA,NA,NA,NA,NA,NA,NA,NA,NA,NA
"361","stim/objects/HouseObjects/pitcher.png",283,5,276,0.9,"stim/63.jpeg",6,3,3,2,"HouseObjects",1,4,"left","left",0.746000051,1,1,1,0,NA,NA,NA,NA,NA,NA,NA,NA,NA,NA,NA,NA,NA,NA,NA,NA,NA,NA,NA,NA,NA,NA,NA,NA
"262","stim/objects/HouseObjects/glass.png",284,5,277,0.5,"stim/22.jpeg",2,2,1,2,"HouseObjects",1,4,"left","right",0.625,0,0,1,0,NA,NA,NA,NA,NA,NA,NA,NA,NA,NA,NA,NA,NA,NA,NA,NA,NA,NA,NA,NA,NA,NA,NA,NA
"494","stim/objects/Instruments/musicsheet.png",285,5,278,0.9,"stim/52.jpeg",5,2,3,2,"Instruments",2,2,"right","right",0.616999865,1,1,1,0,NA,NA,NA,NA,NA,NA,NA,NA,NA,NA,NA,NA,NA,NA,NA,NA,NA,NA,NA,NA,NA,NA,NA,NA
"558","stim/objects/Instruments/triangle2.png",286,5,279,0.1,"stim/62.jpeg",6,2,3,1,"Instruments",2,2,"right","left",0.654999971,0,0,1,0,176,5,1,0.1,2,"stim/62.jpeg",6,2,"stim/62.jpeg",2,"right",1.252999783,1,2,0.34800005,3,0.286000013,176,0,1,NA,0,NA,1
"527","stim/objects/Instruments/oboe.png",287,5,280,0.9,"stim/53.jpeg",5,3,3,2,"Instruments",2,3,"right","right",0.561999798,1,1,1,0,NA,NA,NA,NA,NA,NA,NA,NA,NA,NA,NA,NA,NA,NA,NA,NA,NA,NA,NA,NA,NA,NA,NA,NA
"473","stim/objects/Instruments/metronome.png",288,5,281,0.9,"stim/52.jpeg",5,2,3,2,"Instruments",2,3,"right","",NA,0,0,1,0,NA,NA,NA,NA,NA,NA,NA,NA,NA,NA,NA,NA,NA,NA,NA,NA,NA,NA,NA,NA,NA,NA,NA,NA
"291","stim/objects/HouseObjects/knife.png",289,5,282,0.9,"stim/62.jpeg",6,2,3,2,"HouseObjects",1,4,"left","left",0.617000103,1,1,1,0,NA,NA,NA,NA,NA,NA,NA,NA,NA,NA,NA,NA,NA,NA,NA,NA,NA,NA,NA,NA,NA,NA,NA,NA
"258","stim/objects/HouseObjects/flyswatter2.png",290,5,283,0.7,"stim/44.jpeg",4,4,2,1,"HouseObjects",1,1,"left","left",0.694999933,1,1,1,0,92,5,1,0.7,1,"stim/44.jpeg",4,4,"stim/44.jpeg",1,"left",2.16899991,4,3,1.453999996,2,2.520999908,92,1,0,0,0,0,1
"392","stim/objects/HouseObjects/spraybottle.png",291,5,284,0.5,"stim/24.jpeg",2,4,1,1,"HouseObjects",1,3,"left","right",0.862999916,0,0,1,0,88,5,1,0.5,2,"stim/24.jpeg",2,4,"stim/24.jpeg",3,"right",1.336999893,2,3,0.55099988,4,0.417999983,88,0,0,NA,0,NA,1
"447","stim/objects/Instruments/keyboard2.png",292,5,285,0.3,"stim/41.jpeg",4,1,2,1,"Instruments",2,4,"right","left",0.863999844,0,0,1,0,194,5,1,0.3,2,"stim/41.jpeg",4,1,"stim/41.jpeg",4,"left",1.250999928,4,2,1.286000013,2,2.032000065,194,1,0,0,0,0,1
"477","stim/objects/Instruments/metronome.png",293,5,286,0.9,"stim/54.jpeg",5,4,3,2,"Instruments",2,1,"right","right",0.600999832,1,1,1,0,NA,NA,NA,NA,NA,NA,NA,NA,NA,NA,NA,NA,NA,NA,NA,NA,NA,NA,NA,NA,NA,NA,NA,NA
"256","stim/objects/HouseObjects/flyswatter.png",294,5,287,0.5,"stim/24.jpeg",2,4,1,2,"HouseObjects",1,2,"left","right",0.581999779,0,0,1,0,NA,NA,NA,NA,NA,NA,NA,NA,NA,NA,NA,NA,NA,NA,NA,NA,NA,NA,NA,NA,NA,NA,NA,NA
"478","stim/objects/Instruments/metronome.png",295,5,288,0.9,"stim/54.jpeg",5,4,3,2,"Instruments",2,1,"right","right",0.673999786,1,1,1,0,NA,NA,NA,NA,NA,NA,NA,NA,NA,NA,NA,NA,NA,NA,NA,NA,NA,NA,NA,NA,NA,NA,NA,NA
"310","stim/objects/HouseObjects/lintroller.png",296,5,289,0.9,"stim/64.jpeg",6,4,3,2,"HouseObjects",1,3,"left","left",0.636999846,1,1,1,0,NA,NA,NA,NA,NA,NA,NA,NA,NA,NA,NA,NA,NA,NA,NA,NA,NA,NA,NA,NA,NA,NA,NA,NA
"564","stim/objects/Instruments/tuba2.png",297,5,290,0.1,"stim/61.jpeg",6,1,3,1,"Instruments",2,2,"right","left",0.532000065,0,0,1,0,67,5,1,0.1,2,"stim/61.jpeg",6,1,"stim/61.jpeg",2,"right",1.703999996,2,3,0.785999775,3,1.101000071,67,0,0,NA,0,NA,1
"495","stim/objects/Instruments/musicsheet.png",298,5,291,0.9,"stim/51.jpeg",5,1,3,2,"Instruments",2,2,"right","right",0.667000055,1,1,1,0,NA,NA,NA,NA,NA,NA,NA,NA,NA,NA,NA,NA,NA,NA,NA,NA,NA,NA,NA,NA,NA,NA,NA,NA
"496","stim/objects/Instruments/musicsheet.png",299,5,292,0.9,"stim/52.jpeg",5,2,3,2,"Instruments",2,4,"right","right",0.631999969,1,1,1,0,NA,NA,NA,NA,NA,NA,NA,NA,NA,NA,NA,NA,NA,NA,NA,NA,NA,NA,NA,NA,NA,NA,NA,NA
"311","stim/objects/HouseObjects/lintroller.png",300,5,293,0.9,"stim/63.jpeg",6,3,3,2,"HouseObjects",1,1,"left","left",0.707999945,1,1,1,0,NA,NA,NA,NA,NA,NA,NA,NA,NA,NA,NA,NA,NA,NA,NA,NA,NA,NA,NA,NA,NA,NA,NA,NA
"346","stim/objects/HouseObjects/pan.png",301,5,294,0.9,"stim/62.jpeg",6,2,3,2,"HouseObjects",1,4,"left","left",0.667999983,1,1,1,0,NA,NA,NA,NA,NA,NA,NA,NA,NA,NA,NA,NA,NA,NA,NA,NA,NA,NA,NA,NA,NA,NA,NA,NA
"445","stim/objects/Instruments/keyboard.png",302,5,295,0.7,"stim/32.jpeg",3,2,2,2,"Instruments",2,3,"right","right",0.765999794,1,1,1,0,NA,NA,NA,NA,NA,NA,NA,NA,NA,NA,NA,NA,NA,NA,NA,NA,NA,NA,NA,NA,NA,NA,NA,NA
"292","stim/objects/HouseObjects/knife.png",303,5,296,0.9,"stim/64.jpeg",6,4,3,2,"HouseObjects",1,2,"left","left",0.578999996,1,1,1,0,NA,NA,NA,NA,NA,NA,NA,NA,NA,NA,NA,NA,NA,NA,NA,NA,NA,NA,NA,NA,NA,NA,NA,NA
"479","stim/objects/Instruments/metronome.png",304,5,297,0.9,"stim/54.jpeg",5,4,3,2,"Instruments",2,1,"right","right",0.618000031,1,1,1,0,NA,NA,NA,NA,NA,NA,NA,NA,NA,NA,NA,NA,NA,NA,NA,NA,NA,NA,NA,NA,NA,NA,NA,NA
"293","stim/objects/HouseObjects/knife.png",305,5,298,0.9,"stim/63.jpeg",6,3,3,2,"HouseObjects",1,1,"left","left",0.56099987,1,1,1,0,NA,NA,NA,NA,NA,NA,NA,NA,NA,NA,NA,NA,NA,NA,NA,NA,NA,NA,NA,NA,NA,NA,NA,NA
"440","stim/objects/Instruments/hihat.png",306,5,299,0.7,"stim/32.jpeg",3,2,2,2,"Instruments",2,2,"right","right",0.63499999,1,1,1,0,NA,NA,NA,NA,NA,NA,NA,NA,NA,NA,NA,NA,NA,NA,NA,NA,NA,NA,NA,NA,NA,NA,NA,NA
"390","stim/objects/HouseObjects/sponge.png",307,5,300,0.5,"stim/23.jpeg",2,3,1,1,"HouseObjects",1,3,"left","left",0.782000065,1,1,1,0,73,5,1,0.5,2,"stim/23.jpeg",2,3,"stim/23.jpeg",3,"left",1.890000105,3,2,1.647999763,3,1.368999958,73,1,0,0,1,1,1
"279","stim/objects/HouseObjects/iron.png",308,5,301,0.7,"stim/43.jpeg",4,3,2,2,"HouseObjects",1,3,"left","",NA,0,0,1,0,NA,NA,NA,NA,NA,NA,NA,NA,NA,NA,NA,NA,NA,NA,NA,NA,NA,NA,NA,NA,NA,NA,NA,NA
"497","stim/objects/Instruments/musicsheet.png",309,5,302,0.9,"stim/54.jpeg",5,4,3,2,"Instruments",2,3,"right","right",0.458999872,1,1,1,0,NA,NA,NA,NA,NA,NA,NA,NA,NA,NA,NA,NA,NA,NA,NA,NA,NA,NA,NA,NA,NA,NA,NA,NA
"326","stim/objects/HouseObjects/match.png",310,5,303,0.9,"stim/64.jpeg",6,4,3,2,"HouseObjects",1,1,"left","left",0.694000006,1,1,1,0,NA,NA,NA,NA,NA,NA,NA,NA,NA,NA,NA,NA,NA,NA,NA,NA,NA,NA,NA,NA,NA,NA,NA,NA
"554","stim/objects/Instruments/tambourine2.png",311,5,304,0.1,"stim/64.jpeg",6,4,3,1,"Instruments",2,4,"right","right",0.665999889,1,1,1,0,44,5,1,0.1,2,"stim/64.jpeg",6,4,"stim/64.jpeg",4,"left",2.071000099,3,4,1.417999744,1,1.734999895,44,1,1,1,0,0,1
"511","stim/objects/Instruments/musicstand.png",312,5,305,0.9,"stim/51.jpeg",5,1,3,2,"Instruments",2,3,"right","right",0.616999865,1,1,1,0,NA,NA,NA,NA,NA,NA,NA,NA,NA,NA,NA,NA,NA,NA,NA,NA,NA,NA,NA,NA,NA,NA,NA,NA
"404","stim/objects/HouseObjects/wateringcan.png",313,5,306,0.3,"stim/31.jpeg",3,1,2,1,"HouseObjects",1,1,"left","left",0.700000048,1,1,1,0,138,5,1,0.3,1,"stim/31.jpeg",3,1,"stim/31.jpeg",1,"right",0.614999771,1,2,0.551000118,3,0.548000097,138,0,0,NA,0,NA,1
"493","stim/objects/Instruments/musicsheet.png",314,5,307,0.9,"stim/51.jpeg",5,1,3,2,"Instruments",2,4,"right","right",0.715999842,1,1,1,0,NA,NA,NA,NA,NA,NA,NA,NA,NA,NA,NA,NA,NA,NA,NA,NA,NA,NA,NA,NA,NA,NA,NA,NA
"313","stim/objects/HouseObjects/lintroller.png",315,5,308,0.9,"stim/61.jpeg",6,1,3,2,"HouseObjects",1,4,"left","",NA,0,0,1,0,NA,NA,NA,NA,NA,NA,NA,NA,NA,NA,NA,NA,NA,NA,NA,NA,NA,NA,NA,NA,NA,NA,NA,NA
"542","stim/objects/Instruments/panflute2.png",316,5,309,0.9,"stim/54.jpeg",5,4,3,1,"Instruments",2,3,"right","left",0.856999874,0,0,1,0,41,5,1,0.9,2,"stim/54.jpeg",5,4,"stim/54.jpeg",3,"right",2.694999933,1,2,2.453000069,3,1.093999863,41,0,0,NA,1,NA,1
"435","stim/objects/Instruments/harmonica2.png",317,5,310,0.3,"stim/42.jpeg",4,2,2,1,"Instruments",2,2,"right","right",0.529999971,1,1,1,0,7,5,1,0.3,2,"stim/42.jpeg",4,2,"stim/42.jpeg",2,"left",3.164999962,4,2,3.487999916,2,1.285000086,7,1,1,1,1,1,1
"529","stim/objects/Instruments/oboe.png",318,5,311,0.9,"stim/54.jpeg",5,4,3,2,"Instruments",2,2,"right","",NA,0,0,1,0,NA,NA,NA,NA,NA,NA,NA,NA,NA,NA,NA,NA,NA,NA,NA,NA,NA,NA,NA,NA,NA,NA,NA,NA
"383","stim/objects/HouseObjects/rug2.png",319,5,312,0.1,"stim/51.jpeg",5,1,3,1,"HouseObjects",1,2,"left","right",0.644999743,0,0,1,0,110,5,1,0.1,1,"stim/51.jpeg",5,1,"stim/51.jpeg",2,"right",0.001999855,2,3,1.014999866,1,2.031999826,110,0,0,NA,0,NA,1
"375","stim/objects/HouseObjects/pitcher2.png",320,5,313,0.1,"stim/51.jpeg",5,1,3,1,"HouseObjects",1,1,"left","right",0.667999983,0,0,1,0,23,5,1,0.1,1,"stim/51.jpeg",5,1,"stim/51.jpeg",1,"left",2.701999903,3,3,2.819999933,4,2.119999886,23,1,0,0,0,0,1
"498","stim/objects/Instruments/musicsheet.png",321,5,314,0.9,"stim/53.jpeg",5,3,3,2,"Instruments",2,1,"right","",NA,0,0,1,0,NA,NA,NA,NA,NA,NA,NA,NA,NA,NA,NA,NA,NA,NA,NA,NA,NA,NA,NA,NA,NA,NA,NA,NA
"409","stim/objects/Instruments/electricdrumset.png",322,5,315,0.5,"stim/11.jpeg",1,1,1,2,"Instruments",2,1,"right","left",0.592999935,0,0,1,0,NA,NA,NA,NA,NA,NA,NA,NA,NA,NA,NA,NA,NA,NA,NA,NA,NA,NA,NA,NA,NA,NA,NA,NA
"399","stim/objects/HouseObjects/thread2.png",323,5,316,0.9,"stim/63.jpeg",6,3,3,1,"HouseObjects",1,3,"left","left",0.694000006,1,1,1,0,124,5,1,0.9,1,"stim/63.jpeg",6,3,"stim/63.jpeg",3,"right",0.987999916,3,2,1.965999842,2,2.585000038,124,0,0,NA,0,NA,1
"250","stim/objects/HouseObjects/doormat.png",324,5,317,0.5,"stim/14.jpeg",1,4,1,2,"HouseObjects",1,4,"left","left",0.68599987,1,1,1,0,NA,NA,NA,NA,NA,NA,NA,NA,NA,NA,NA,NA,NA,NA,NA,NA,NA,NA,NA,NA,NA,NA,NA,NA
"362","stim/objects/HouseObjects/pitcher.png",325,5,318,0.9,"stim/63.jpeg",6,3,3,2,"HouseObjects",1,3,"left","left",0.815999985,1,1,1,0,NA,NA,NA,NA,NA,NA,NA,NA,NA,NA,NA,NA,NA,NA,NA,NA,NA,NA,NA,NA,NA,NA,NA,NA
"550","stim/objects/Instruments/saxophone2.png",326,5,319,0.9,"stim/54.jpeg",5,4,3,1,"Instruments",2,1,"right","right",0.753999949,1,1,1,0,18,5,1,0.9,2,"stim/54.jpeg",5,4,"stim/54.jpeg",1,"right",4.534999847,4,3,5.062999964,3,1.597999811,18,0,0,NA,0,NA,1
"363","stim/objects/HouseObjects/pitcher.png",327,5,320,0.9,"stim/62.jpeg",6,2,3,2,"HouseObjects",1,4,"left","left",0.555000067,1,1,1,0,NA,NA,NA,NA,NA,NA,NA,NA,NA,NA,NA,NA,NA,NA,NA,NA,NA,NA,NA,NA,NA,NA,NA,NA
"528","stim/objects/Instruments/oboe.png",328,5,321,0.9,"stim/52.jpeg",5,2,3,2,"Instruments",2,1,"right","right",0.576999903,1,1,1,0,NA,NA,NA,NA,NA,NA,NA,NA,NA,NA,NA,NA,NA,NA,NA,NA,NA,NA,NA,NA,NA,NA,NA,NA
"513","stim/objects/Instruments/musicstand.png",329,5,322,0.9,"stim/54.jpeg",5,4,3,2,"Instruments",2,3,"right","right",0.613999844,1,1,1,0,NA,NA,NA,NA,NA,NA,NA,NA,NA,NA,NA,NA,NA,NA,NA,NA,NA,NA,NA,NA,NA,NA,NA,NA
"514","stim/objects/Instruments/musicstand.png",330,5,323,0.9,"stim/54.jpeg",5,4,3,2,"Instruments",2,4,"right","right",0.634999752,1,1,1,0,NA,NA,NA,NA,NA,NA,NA,NA,NA,NA,NA,NA,NA,NA,NA,NA,NA,NA,NA,NA,NA,NA,NA,NA
"394","stim/objects/HouseObjects/teapot.png",331,5,324,0.5,"stim/21.jpeg",2,1,1,1,"HouseObjects",1,4,"left","left",0.84499979,1,1,1,0,168,5,1,0.5,2,"stim/21.jpeg",2,1,"stim/21.jpeg",4,"right",0.835999727,4,3,0.951999903,2,0.835999966,168,0,0,NA,0,NA,1
"349","stim/objects/HouseObjects/pan.png",332,5,325,0.9,"stim/63.jpeg",6,3,3,2,"HouseObjects",1,1,"left","left",0.749999762,1,1,1,0,NA,NA,NA,NA,NA,NA,NA,NA,NA,NA,NA,NA,NA,NA,NA,NA,NA,NA,NA,NA,NA,NA,NA,NA
"264","stim/objects/HouseObjects/glass2.png",333,5,326,0.7,"stim/42.jpeg",4,2,2,1,"HouseObjects",1,2,"left","",NA,0,0,1,0,161,5,1,0.7,1,"stim/42.jpeg",4,2,"stim/42.jpeg",2,"right",0.786999941,2,3,0.118000031,3,0.516000032,161,0,0,NA,0,NA,1
"417","stim/objects/Instruments/flute2.png",334,5,327,0.7,"stim/32.jpeg",3,2,2,1,"Instruments",2,2,"right","right",0.680999994,1,1,1,0,179,5,1,0.7,2,"stim/32.jpeg",3,2,"stim/32.jpeg",2,"right",0.731999874,4,3,0.654999971,2,1.702000141,179,0,0,NA,1,NA,1
"315","stim/objects/HouseObjects/lintroller.png",335,5,328,0.9,"stim/64.jpeg",6,4,3,2,"HouseObjects",1,2,"left","left",0.652999878,1,1,1,0,NA,NA,NA,NA,NA,NA,NA,NA,NA,NA,NA,NA,NA,NA,NA,NA,NA,NA,NA,NA,NA,NA,NA,NA
"316","stim/objects/HouseObjects/lintroller.png",336,5,329,0.9,"stim/61.jpeg",6,1,3,2,"HouseObjects",1,1,"left","left",0.866999865,1,1,1,0,NA,NA,NA,NA,NA,NA,NA,NA,NA,NA,NA,NA,NA,NA,NA,NA,NA,NA,NA,NA,NA,NA,NA,NA
"569","stim/objects/Instruments/xylophone.png",337,5,330,0.7,"stim/32.jpeg",3,2,2,1,"Instruments",2,2,"right","right",0.68599987,1,1,1,0,64,5,1,0.7,2,"stim/32.jpeg",3,2,"stim/32.jpeg",2,"left",1.437000036,2,3,0.703999758,4,0.95299983,64,1,0,0,0,0,1
"327","stim/objects/HouseObjects/match.png",338,5,331,0.9,"stim/63.jpeg",6,3,3,2,"HouseObjects",1,1,"left","left",0.78399992,1,1,1,0,NA,NA,NA,NA,NA,NA,NA,NA,NA,NA,NA,NA,NA,NA,NA,NA,NA,NA,NA,NA,NA,NA,NA,NA
"317","stim/objects/HouseObjects/lintroller.png",339,5,332,0.9,"stim/64.jpeg",6,4,3,2,"HouseObjects",1,2,"left","left",0.700000048,1,1,1,0,NA,NA,NA,NA,NA,NA,NA,NA,NA,NA,NA,NA,NA,NA,NA,NA,NA,NA,NA,NA,NA,NA,NA,NA
"380","stim/objects/HouseObjects/rubbergloves.png",340,5,333,0.5,"stim/11.jpeg",1,1,1,1,"HouseObjects",1,4,"left","",NA,0,0,1,0,186,5,1,0.5,1,"stim/11.jpeg",1,1,"stim/11.jpeg",4,"right",0.932999849,1,1,0.201999903,2,0.482000113,186,0,1,NA,0,NA,1
"273","stim/objects/HouseObjects/handbrush.png",341,5,334,0.7,"stim/41.jpeg",4,1,2,2,"HouseObjects",1,2,"left","left",0.638999939,1,1,1,0,NA,NA,NA,NA,NA,NA,NA,NA,NA,NA,NA,NA,NA,NA,NA,NA,NA,NA,NA,NA,NA,NA,NA,NA
"350","stim/objects/HouseObjects/pan.png",342,5,335,0.9,"stim/62.jpeg",6,2,3,2,"HouseObjects",1,2,"left","left",0.683999777,1,1,1,0,NA,NA,NA,NA,NA,NA,NA,NA,NA,NA,NA,NA,NA,NA,NA,NA,NA,NA,NA,NA,NA,NA,NA,NA
"259","stim/objects/HouseObjects/garbagebin.png",343,5,336,0.5,"stim/24.jpeg",2,4,1,2,"HouseObjects",1,4,"left","",NA,0,0,1,0,NA,NA,NA,NA,NA,NA,NA,NA,NA,NA,NA,NA,NA,NA,NA,NA,NA,NA,NA,NA,NA,NA,NA,NA
"515","stim/objects/Instruments/musicstand.png",344,5,337,0.9,"stim/54.jpeg",5,4,3,2,"Instruments",2,4,"right","right",0.691999912,1,1,1,0,NA,NA,NA,NA,NA,NA,NA,NA,NA,NA,NA,NA,NA,NA,NA,NA,NA,NA,NA,NA,NA,NA,NA,NA
"253","stim/objects/HouseObjects/dustpan.png",345,5,338,0.5,"stim/11.jpeg",1,1,1,2,"HouseObjects",1,4,"left","right",0.621999979,0,0,1,0,NA,NA,NA,NA,NA,NA,NA,NA,NA,NA,NA,NA,NA,NA,NA,NA,NA,NA,NA,NA,NA,NA,NA,NA
"328","stim/objects/HouseObjects/match.png",346,5,339,0.9,"stim/62.jpeg",6,2,3,2,"HouseObjects",1,3,"left","left",0.666999817,1,1,1,0,NA,NA,NA,NA,NA,NA,NA,NA,NA,NA,NA,NA,NA,NA,NA,NA,NA,NA,NA,NA,NA,NA,NA,NA
"265","stim/objects/HouseObjects/glassmop.png",347,5,340,0.5,"stim/22.jpeg",2,2,1,2,"HouseObjects",1,1,"left","left",0.576999903,1,1,1,0,NA,NA,NA,NA,NA,NA,NA,NA,NA,NA,NA,NA,NA,NA,NA,NA,NA,NA,NA,NA,NA,NA,NA,NA
"365","stim/objects/HouseObjects/pitcher.png",348,5,341,0.9,"stim/62.jpeg",6,2,3,2,"HouseObjects",1,1,"left","left",0.683999777,1,1,1,0,NA,NA,NA,NA,NA,NA,NA,NA,NA,NA,NA,NA,NA,NA,NA,NA,NA,NA,NA,NA,NA,NA,NA,NA
"400","stim/objects/HouseObjects/towel.png",349,5,342,0.3,"stim/33.jpeg",3,3,2,1,"HouseObjects",1,4,"left","right",0.660999775,0,0,1,0,190,5,1,0.3,1,"stim/33.jpeg",3,3,"stim/33.jpeg",4,"right",1.20299983,1,1,0.222999811,1,0.214999914,190,0,0,NA,0,NA,1
"426","stim/objects/Instruments/gong2.png",350,5,343,0.3,"stim/43.jpeg",4,3,2,1,"Instruments",2,4,"right","left",0.654999971,0,0,1,0,141,5,1,0.3,2,"stim/43.jpeg",4,3,"stim/43.jpeg",4,"right",0.717000008,1,2,0.46600008,3,0.285000086,141,0,0,NA,0,NA,1
"298","stim/objects/HouseObjects/knife.png",351,5,344,0.9,"stim/63.jpeg",6,3,3,2,"HouseObjects",1,4,"left","left",0.707999945,1,1,1,0,NA,NA,NA,NA,NA,NA,NA,NA,NA,NA,NA,NA,NA,NA,NA,NA,NA,NA,NA,NA,NA,NA,NA,NA
"318","stim/objects/HouseObjects/lintroller.png",352,5,345,0.9,"stim/61.jpeg",6,1,3,2,"HouseObjects",1,2,"left","right",0.792999983,0,0,1,0,NA,NA,NA,NA,NA,NA,NA,NA,NA,NA,NA,NA,NA,NA,NA,NA,NA,NA,NA,NA,NA,NA,NA,NA
"351","stim/objects/HouseObjects/pan.png",353,5,346,0.9,"stim/64.jpeg",6,4,3,2,"HouseObjects",1,2,"left","left",0.65899992,1,1,1,0,NA,NA,NA,NA,NA,NA,NA,NA,NA,NA,NA,NA,NA,NA,NA,NA,NA,NA,NA,NA,NA,NA,NA,NA
"418","stim/objects/Instruments/flutetrans.png",354,5,347,0.5,"stim/14.jpeg",1,4,1,2,"Instruments",2,4,"right","",NA,0,0,1,0,NA,NA,NA,NA,NA,NA,NA,NA,NA,NA,NA,NA,NA,NA,NA,NA,NA,NA,NA,NA,NA,NA,NA,NA
"330","stim/objects/HouseObjects/match.png",355,5,348,0.9,"stim/63.jpeg",6,3,3,2,"HouseObjects",1,2,"left","left",0.657999992,1,1,1,0,NA,NA,NA,NA,NA,NA,NA,NA,NA,NA,NA,NA,NA,NA,NA,NA,NA,NA,NA,NA,NA,NA,NA,NA
"331","stim/objects/HouseObjects/match.png",356,5,349,0.9,"stim/62.jpeg",6,2,3,2,"HouseObjects",1,3,"left","right",0.761999846,0,0,1,0,NA,NA,NA,NA,NA,NA,NA,NA,NA,NA,NA,NA,NA,NA,NA,NA,NA,NA,NA,NA,NA,NA,NA,NA
"257","stim/objects/HouseObjects/flyswatter.png",357,5,350,0.5,"stim/23.jpeg",2,3,1,2,"HouseObjects",1,4,"left","",NA,0,0,1,0,NA,NA,NA,NA,NA,NA,NA,NA,NA,NA,NA,NA,NA,NA,NA,NA,NA,NA,NA,NA,NA,NA,NA,NA
"332","stim/objects/HouseObjects/match.png",358,5,351,0.9,"stim/62.jpeg",6,2,3,2,"HouseObjects",1,4,"left","left",0.700999975,1,1,1,0,NA,NA,NA,NA,NA,NA,NA,NA,NA,NA,NA,NA,NA,NA,NA,NA,NA,NA,NA,NA,NA,NA,NA,NA
"459","stim/objects/Instruments/marimba.png",359,5,352,0.9,"stim/51.jpeg",5,1,3,2,"Instruments",2,3,"right","",NA,0,0,1,0,NA,NA,NA,NA,NA,NA,NA,NA,NA,NA,NA,NA,NA,NA,NA,NA,NA,NA,NA,NA,NA,NA,NA,NA
"530","stim/objects/Instruments/oboe.png",360,5,353,0.9,"stim/51.jpeg",5,1,3,2,"Instruments",2,1,"right","right",0.775000095,1,1,1,0,NA,NA,NA,NA,NA,NA,NA,NA,NA,NA,NA,NA,NA,NA,NA,NA,NA,NA,NA,NA,NA,NA,NA,NA
"531","stim/objects/Instruments/oboe.png",361,5,354,0.9,"stim/53.jpeg",5,3,3,2,"Instruments",2,1,"right","",NA,0,0,1,0,NA,NA,NA,NA,NA,NA,NA,NA,NA,NA,NA,NA,NA,NA,NA,NA,NA,NA,NA,NA,NA,NA,NA,NA
"283","stim/objects/HouseObjects/ironingboard.png",362,5,355,0.7,"stim/44.jpeg",4,4,2,2,"HouseObjects",1,2,"left","right",0.515000105,0,0,1,0,NA,NA,NA,NA,NA,NA,NA,NA,NA,NA,NA,NA,NA,NA,NA,NA,NA,NA,NA,NA,NA,NA,NA,NA
"314","stim/objects/HouseObjects/lintroller.png",363,5,356,0.9,"stim/61.jpeg",6,1,3,2,"HouseObjects",1,3,"left","left",0.674999952,1,1,1,0,NA,NA,NA,NA,NA,NA,NA,NA,NA,NA,NA,NA,NA,NA,NA,NA,NA,NA,NA,NA,NA,NA,NA,NA
"566","stim/objects/Instruments/violin2.png",364,5,357,0.1,"stim/62.jpeg",6,2,3,1,"Instruments",2,4,"right","left",0.59800005,0,0,1,0,3,5,1,0.1,2,"stim/62.jpeg",6,2,"stim/62.jpeg",4,"left",4.120000124,4,3,3.265999794,4,5.389999866,3,1,0,0,1,1,1
"482","stim/objects/Instruments/metronome.png",365,5,358,0.9,"stim/51.jpeg",5,1,3,2,"Instruments",2,1,"right","right",0.635999918,1,1,1,0,NA,NA,NA,NA,NA,NA,NA,NA,NA,NA,NA,NA,NA,NA,NA,NA,NA,NA,NA,NA,NA,NA,NA,NA
"499","stim/objects/Instruments/musicsheet.png",366,5,359,0.9,"stim/53.jpeg",5,3,3,2,"Instruments",2,3,"right","left",0.652999878,0,0,1,0,NA,NA,NA,NA,NA,NA,NA,NA,NA,NA,NA,NA,NA,NA,NA,NA,NA,NA,NA,NA,NA,NA,NA,NA
"501","stim/objects/Instruments/musicsheet.png",367,5,360,0.9,"stim/52.jpeg",5,2,3,2,"Instruments",2,2,"right","right",0.751999855,1,1,1,0,NA,NA,NA,NA,NA,NA,NA,NA,NA,NA,NA,NA,NA,NA,NA,NA,NA,NA,NA,NA,NA,NA,NA,NA
"364","stim/objects/HouseObjects/pitcher.png",368,5,361,0.9,"stim/64.jpeg",6,4,3,2,"HouseObjects",1,4,"left","left",0.618999958,1,1,1,0,NA,NA,NA,NA,NA,NA,NA,NA,NA,NA,NA,NA,NA,NA,NA,NA,NA,NA,NA,NA,NA,NA,NA,NA
"544","stim/objects/Instruments/pipepiano2.png",369,5,362,0.9,"stim/51.jpeg",5,1,3,1,"Instruments",2,1,"right","",NA,0,0,1,0,112,5,1,0.9,2,"stim/51.jpeg",5,1,"stim/51.jpeg",1,"left",1.181999922,4,3,3.820999861,2,4.284999847,112,1,0,0,0,0,1
"267","stim/objects/HouseObjects/glassmop2.png",370,5,363,0.7,"stim/43.jpeg",4,3,2,1,"HouseObjects",1,3,"left","left",0.583999872,1,1,1,0,43,5,1,0.7,1,"stim/43.jpeg",4,3,"stim/43.jpeg",3,"right",1.181999922,1,2,1.91899991,2,1.850000143,43,0,0,NA,0,NA,1
"567","stim/objects/Instruments/vuvuzela.png",371,5,364,0.7,"stim/31.jpeg",3,1,2,1,"Instruments",2,3,"right","right",0.622999907,1,1,1,0,142,5,1,0.7,2,"stim/31.jpeg",3,1,"stim/31.jpeg",3,"right",0.786000013,3,2,2.632999897,2,1.132999897,142,0,0,NA,0,NA,1
"396","stim/objects/HouseObjects/thermometer.png",372,5,365,0.3,"stim/31.jpeg",3,1,2,1,"HouseObjects",1,1,"left","right",0.644999743,0,0,1,0,4,5,1,0.3,1,"stim/31.jpeg",3,1,"stim/31.jpeg",1,"left",3.737999916,4,1,5.068999767,2,4.730999947,4,1,1,1,0,0,1
"320","stim/objects/HouseObjects/lintroller.png",373,5,366,0.9,"stim/64.jpeg",6,4,3,2,"HouseObjects",1,4,"left","left",0.674999952,1,1,1,0,NA,NA,NA,NA,NA,NA,NA,NA,NA,NA,NA,NA,NA,NA,NA,NA,NA,NA,NA,NA,NA,NA,NA,NA
"325","stim/objects/HouseObjects/match.png",374,5,367,0.9,"stim/64.jpeg",6,4,3,2,"HouseObjects",1,1,"left","",NA,0,0,1,0,NA,NA,NA,NA,NA,NA,NA,NA,NA,NA,NA,NA,NA,NA,NA,NA,NA,NA,NA,NA,NA,NA,NA,NA
"461","stim/objects/Instruments/marimba.png",375,5,368,0.9,"stim/51.jpeg",5,1,3,2,"Instruments",2,3,"right","",NA,0,0,1,0,NA,NA,NA,NA,NA,NA,NA,NA,NA,NA,NA,NA,NA,NA,NA,NA,NA,NA,NA,NA,NA,NA,NA,NA
"462","stim/objects/Instruments/marimba.png",376,5,369,0.9,"stim/53.jpeg",5,3,3,2,"Instruments",2,3,"right","right",0.650999784,1,1,1,0,NA,NA,NA,NA,NA,NA,NA,NA,NA,NA,NA,NA,NA,NA,NA,NA,NA,NA,NA,NA,NA,NA,NA,NA
"483","stim/objects/Instruments/metronome.png",377,5,370,0.9,"stim/51.jpeg",5,1,3,2,"Instruments",2,3,"right","",NA,0,0,1,0,NA,NA,NA,NA,NA,NA,NA,NA,NA,NA,NA,NA,NA,NA,NA,NA,NA,NA,NA,NA,NA,NA,NA,NA
"448","stim/objects/Instruments/laud.png",378,5,371,0.7,"stim/34.jpeg",3,4,2,2,"Instruments",2,3,"right","left",0.558999777,0,0,1,0,NA,NA,NA,NA,NA,NA,NA,NA,NA,NA,NA,NA,NA,NA,NA,NA,NA,NA,NA,NA,NA,NA,NA,NA
"381","stim/objects/HouseObjects/rubbergloves2.png",379,5,372,0.1,"stim/54.jpeg",5,4,3,1,"HouseObjects",1,1,"left","",NA,0,0,1,0,132,5,1,0.1,1,"stim/54.jpeg",5,4,"stim/54.jpeg",1,"right",0.819999933,1,2,0.41899991,1,0.250999928,132,0,0,NA,1,NA,1
"481","stim/objects/Instruments/metronome.png",380,5,373,0.9,"stim/52.jpeg",5,2,3,2,"Instruments",2,1,"right","right",0.586999893,1,1,1,0,NA,NA,NA,NA,NA,NA,NA,NA,NA,NA,NA,NA,NA,NA,NA,NA,NA,NA,NA,NA,NA,NA,NA,NA
"546","stim/objects/Instruments/record_player2.png",381,5,374,0.9,"stim/53.jpeg",5,3,3,1,"Instruments",2,2,"right","left",0.497999907,0,0,1,0,5,5,1,0.9,2,"stim/53.jpeg",5,3,"stim/53.jpeg",2,"left",2.798999786,4,2,9.284999847,3,1.963000059,5,1,0,0,0,0,1
"247","stim/objects/HouseObjects/dishsoap.png",382,5,375,0.5,"stim/13.jpeg",1,3,1,2,"HouseObjects",1,4,"left","right",0.615999937,0,0,1,0,NA,NA,NA,NA,NA,NA,NA,NA,NA,NA,NA,NA,NA,NA,NA,NA,NA,NA,NA,NA,NA,NA,NA,NA
"491","stim/objects/Instruments/musicsheet.png",383,5,376,0.9,"stim/54.jpeg",5,4,3,2,"Instruments",2,2,"right","",NA,0,0,1,0,NA,NA,NA,NA,NA,NA,NA,NA,NA,NA,NA,NA,NA,NA,NA,NA,NA,NA,NA,NA,NA,NA,NA,NA
"439","stim/objects/Instruments/harp2.png",384,5,377,0.3,"stim/43.jpeg",4,3,2,1,"Instruments",2,4,"right","left",0.81099987,0,0,1,0,38,5,1,0.3,2,"stim/43.jpeg",4,3,"stim/43.jpeg",4,"right",0.967000008,4,2,1.715999842,3,2.603999853,38,0,0,NA,0,NA,1
"288","stim/objects/HouseObjects/key.png",385,5,378,0.7,"stim/43.jpeg",4,3,2,2,"HouseObjects",1,3,"left","right",0.747999907,0,0,1,0,NA,NA,NA,NA,NA,NA,NA,NA,NA,NA,NA,NA,NA,NA,NA,NA,NA,NA,NA,NA,NA,NA,NA,NA
"475","stim/objects/Instruments/metronome.png",386,5,379,0.9,"stim/51.jpeg",5,1,3,2,"Instruments",2,1,"right","right",0.736999989,1,1,1,0,NA,NA,NA,NA,NA,NA,NA,NA,NA,NA,NA,NA,NA,NA,NA,NA,NA,NA,NA,NA,NA,NA,NA,NA
"301","stim/objects/HouseObjects/knife.png",387,5,380,0.9,"stim/63.jpeg",6,3,3,2,"HouseObjects",1,1,"left","left",0.447999716,1,1,1,0,NA,NA,NA,NA,NA,NA,NA,NA,NA,NA,NA,NA,NA,NA,NA,NA,NA,NA,NA,NA,NA,NA,NA,NA
"342","stim/objects/HouseObjects/pan.png",388,5,381,0.9,"stim/61.jpeg",6,1,3,2,"HouseObjects",1,1,"left","left",0.508999825,1,1,1,0,NA,NA,NA,NA,NA,NA,NA,NA,NA,NA,NA,NA,NA,NA,NA,NA,NA,NA,NA,NA,NA,NA,NA,NA
"526","stim/objects/Instruments/oboe.png",389,5,382,0.9,"stim/53.jpeg",5,3,3,2,"Instruments",2,4,"right","right",0.638000011,1,1,1,0,NA,NA,NA,NA,NA,NA,NA,NA,NA,NA,NA,NA,NA,NA,NA,NA,NA,NA,NA,NA,NA,NA,NA,NA
"476","stim/objects/Instruments/metronome.png",390,5,383,0.9,"stim/53.jpeg",5,3,3,2,"Instruments",2,3,"right","right",0.676000118,1,1,1,0,NA,NA,NA,NA,NA,NA,NA,NA,NA,NA,NA,NA,NA,NA,NA,NA,NA,NA,NA,NA,NA,NA,NA,NA
"533","stim/objects/Instruments/oboe.png",391,5,384,0.9,"stim/51.jpeg",5,1,3,2,"Instruments",2,4,"right","right",0.664000034,1,1,1,0,NA,NA,NA,NA,NA,NA,NA,NA,NA,NA,NA,NA,NA,NA,NA,NA,NA,NA,NA,NA,NA,NA,NA,NA
"463","stim/objects/Instruments/marimba.png",392,5,385,0.9,"stim/51.jpeg",5,1,3,2,"Instruments",2,3,"right","right",0.534999847,1,1,1,0,NA,NA,NA,NA,NA,NA,NA,NA,NA,NA,NA,NA,NA,NA,NA,NA,NA,NA,NA,NA,NA,NA,NA,NA
"335","stim/objects/HouseObjects/match.png",393,5,386,0.9,"stim/62.jpeg",6,2,3,2,"HouseObjects",1,1,"left","",NA,0,0,1,0,NA,NA,NA,NA,NA,NA,NA,NA,NA,NA,NA,NA,NA,NA,NA,NA,NA,NA,NA,NA,NA,NA,NA,NA
"319","stim/objects/HouseObjects/lintroller.png",394,5,387,0.9,"stim/63.jpeg",6,3,3,2,"HouseObjects",1,1,"left","left",0.5,1,1,1,0,NA,NA,NA,NA,NA,NA,NA,NA,NA,NA,NA,NA,NA,NA,NA,NA,NA,NA,NA,NA,NA,NA,NA,NA
"553","stim/objects/Instruments/tambourine.png",395,5,388,0.5,"stim/21.jpeg",2,1,1,1,"Instruments",2,2,"right","right",0.790999889,1,1,1,0,171,5,1,0.5,2,"stim/21.jpeg",2,1,"stim/21.jpeg",2,"left",1.474999905,3,2,0.447000027,1,0.785999775,171,1,0,0,0,0,1
"437","stim/objects/Instruments/harp.png",396,5,389,0.7,"stim/34.jpeg",3,4,2,2,"Instruments",2,2,"right","right",0.884000063,1,1,1,0,NA,NA,NA,NA,NA,NA,NA,NA,NA,NA,NA,NA,NA,NA,NA,NA,NA,NA,NA,NA,NA,NA,NA,NA
"289","stim/objects/HouseObjects/key.png",397,5,390,0.7,"stim/41.jpeg",4,1,2,2,"HouseObjects",1,3,"left","left",0.644999743,1,1,1,0,NA,NA,NA,NA,NA,NA,NA,NA,NA,NA,NA,NA,NA,NA,NA,NA,NA,NA,NA,NA,NA,NA,NA,NA
"280","stim/objects/HouseObjects/iron.png",398,5,391,0.7,"stim/44.jpeg",4,4,2,2,"HouseObjects",1,3,"left","left",0.85199976,1,1,1,0,NA,NA,NA,NA,NA,NA,NA,NA,NA,NA,NA,NA,NA,NA,NA,NA,NA,NA,NA,NA,NA,NA,NA,NA
"424","stim/objects/Instruments/gong.png",399,5,392,0.5,"stim/24.jpeg",2,4,1,2,"Instruments",2,2,"right","",NA,0,0,1,0,NA,NA,NA,NA,NA,NA,NA,NA,NA,NA,NA,NA,NA,NA,NA,NA,NA,NA,NA,NA,NA,NA,NA,NA
"465","stim/objects/Instruments/marimba.png",400,5,393,0.9,"stim/52.jpeg",5,2,3,2,"Instruments",2,3,"right","right",0.853999853,1,1,1,0,NA,NA,NA,NA,NA,NA,NA,NA,NA,NA,NA,NA,NA,NA,NA,NA,NA,NA,NA,NA,NA,NA,NA,NA
"413","stim/objects/Instruments/electricguitar.png",401,5,394,0.5,"stim/12.jpeg",1,2,1,2,"Instruments",2,2,"right","right",0.665999889,1,1,1,0,NA,NA,NA,NA,NA,NA,NA,NA,NA,NA,NA,NA,NA,NA,NA,NA,NA,NA,NA,NA,NA,NA,NA,NA
"343","stim/objects/HouseObjects/pan.png",402,5,395,0.9,"stim/61.jpeg",6,1,3,2,"HouseObjects",1,1,"left","",NA,0,0,1,0,NA,NA,NA,NA,NA,NA,NA,NA,NA,NA,NA,NA,NA,NA,NA,NA,NA,NA,NA,NA,NA,NA,NA,NA
"460","stim/objects/Instruments/marimba.png",403,5,396,0.9,"stim/53.jpeg",5,3,3,2,"Instruments",2,1,"right","right",0.664999962,1,1,1,0,NA,NA,NA,NA,NA,NA,NA,NA,NA,NA,NA,NA,NA,NA,NA,NA,NA,NA,NA,NA,NA,NA,NA,NA
"451","stim/objects/Instruments/laud2.png",404,5,397,0.3,"stim/42.jpeg",4,2,2,1,"Instruments",2,3,"right","left",0.736000061,0,0,1,0,28,5,1,0.3,2,"stim/42.jpeg",4,2,"stim/42.jpeg",3,"left",3.882999897,1,2,1.215999842,1,1.757999897,28,1,1,1,0,0,1
"354","stim/objects/HouseObjects/pan.png",405,5,398,0.9,"stim/61.jpeg",6,1,3,2,"HouseObjects",1,4,"left","left",0.595999956,1,1,1,0,NA,NA,NA,NA,NA,NA,NA,NA,NA,NA,NA,NA,NA,NA,NA,NA,NA,NA,NA,NA,NA,NA,NA,NA
"333","stim/objects/HouseObjects/match.png",406,5,399,0.9,"stim/63.jpeg",6,3,3,2,"HouseObjects",1,1,"left","left",0.684000015,1,1,1,0,NA,NA,NA,NA,NA,NA,NA,NA,NA,NA,NA,NA,NA,NA,NA,NA,NA,NA,NA,NA,NA,NA,NA,NA
"472","stim/objects/Instruments/marimba2.png",407,5,400,0.9,"stim/53.jpeg",5,3,3,1,"Instruments",2,1,"right","right",0.609999895,1,1,1,0,71,5,1,0.9,2,"stim/53.jpeg",5,3,"stim/53.jpeg",1,"right",1.174999952,4,4,0.945999861,3,0.667999983,71,0,0,NA,0,NA,1
"352","stim/objects/HouseObjects/pan.png",408,5,401,0.9,"stim/62.jpeg",6,2,3,2,"HouseObjects",1,3,"left","left",0.620999813,1,1,1,0,NA,NA,NA,NA,NA,NA,NA,NA,NA,NA,NA,NA,NA,NA,NA,NA,NA,NA,NA,NA,NA,NA,NA,NA
"516","stim/objects/Instruments/musicstand.png",409,5,402,0.9,"stim/54.jpeg",5,4,3,2,"Instruments",2,3,"right","",NA,0,0,1,0,NA,NA,NA,NA,NA,NA,NA,NA,NA,NA,NA,NA,NA,NA,NA,NA,NA,NA,NA,NA,NA,NA,NA,NA
"551","stim/objects/Instruments/speaker.png",410,5,403,0.5,"stim/24.jpeg",2,4,1,1,"Instruments",2,1,"right","left",0.707999945,0,0,1,0,165,5,1,0.5,2,"stim/24.jpeg",2,4,"stim/24.jpeg",1,"right",0.648999929,3,2,0.270999908,3,0.562999725,165,0,0,NA,0,NA,1
"272","stim/objects/HouseObjects/handbrush.png",411,5,404,0.7,"stim/43.jpeg",4,3,2,2,"HouseObjects",1,2,"left","left",0.835000038,1,1,1,0,NA,NA,NA,NA,NA,NA,NA,NA,NA,NA,NA,NA,NA,NA,NA,NA,NA,NA,NA,NA,NA,NA,NA,NA
"457","stim/objects/Instruments/marimba.png",412,5,405,0.9,"stim/52.jpeg",5,2,3,2,"Instruments",2,2,"right","right",0.654999971,1,1,1,0,NA,NA,NA,NA,NA,NA,NA,NA,NA,NA,NA,NA,NA,NA,NA,NA,NA,NA,NA,NA,NA,NA,NA,NA
"458","stim/objects/Instruments/marimba.png",413,5,406,0.9,"stim/54.jpeg",5,4,3,2,"Instruments",2,3,"right","",NA,0,0,1,0,NA,NA,NA,NA,NA,NA,NA,NA,NA,NA,NA,NA,NA,NA,NA,NA,NA,NA,NA,NA,NA,NA,NA,NA
"543","stim/objects/Instruments/pipepiano.png",414,5,407,0.5,"stim/13.jpeg",1,3,1,1,"Instruments",2,2,"right","right",0.699999809,1,1,1,0,177,5,1,0.5,1,"stim/13.jpeg",1,3,"stim/13.jpeg",2,"left",1.5849998,4,3,0.814999819,2,1.819999933,177,1,1,1,1,1,1
"369","stim/objects/HouseObjects/pitcher.png",415,5,408,0.9,"stim/61.jpeg",6,1,3,2,"HouseObjects",1,2,"left","left",0.556999922,1,1,1,0,NA,NA,NA,NA,NA,NA,NA,NA,NA,NA,NA,NA,NA,NA,NA,NA,NA,NA,NA,NA,NA,NA,NA,NA
"502","stim/objects/Instruments/musicsheet.png",416,5,409,0.9,"stim/53.jpeg",5,3,3,2,"Instruments",2,1,"right","left",0.601999998,0,0,1,0,NA,NA,NA,NA,NA,NA,NA,NA,NA,NA,NA,NA,NA,NA,NA,NA,NA,NA,NA,NA,NA,NA,NA,NA
"403","stim/objects/HouseObjects/vacuumcleaner2.png",417,5,410,0.9,"stim/61.jpeg",6,1,3,1,"HouseObjects",1,1,"left","left",0.648999929,1,1,1,0,125,5,1,0.9,1,"stim/61.jpeg",6,1,"stim/61.jpeg",1,"right",0.842000008,1,2,0.584000111,3,0.354000092,125,0,0,NA,0,NA,1
"345","stim/objects/HouseObjects/pan.png",418,5,411,0.9,"stim/64.jpeg",6,4,3,2,"HouseObjects",1,1,"left","right",0.532999754,0,0,1,0,NA,NA,NA,NA,NA,NA,NA,NA,NA,NA,NA,NA,NA,NA,NA,NA,NA,NA,NA,NA,NA,NA,NA,NA
"367","stim/objects/HouseObjects/pitcher.png",419,5,412,0.9,"stim/62.jpeg",6,2,3,2,"HouseObjects",1,4,"left","left",0.679999828,1,1,1,0,NA,NA,NA,NA,NA,NA,NA,NA,NA,NA,NA,NA,NA,NA,NA,NA,NA,NA,NA,NA,NA,NA,NA,NA
"255","stim/objects/HouseObjects/dustpan2.png",420,5,413,0.3,"stim/32.jpeg",3,2,2,1,"HouseObjects",1,3,"left","right",0.804999828,0,0,1,0,48,5,1,0.3,1,"stim/32.jpeg",3,2,"stim/32.jpeg",3,"right",0.967000008,3,2,1.486999989,3,2.381999969,48,0,1,NA,1,NA,1
"561","stim/objects/Instruments/trumpet.png",421,5,414,0.7,"stim/32.jpeg",3,2,2,1,"Instruments",2,2,"right","right",0.815999985,1,1,1,0,58,5,1,0.7,2,"stim/32.jpeg",3,2,"stim/32.jpeg",2,"left",1.019999981,3,4,1.403999805,4,2.487999916,58,1,0,0,0,0,1
"275","stim/objects/HouseObjects/handvacuum.png",422,5,415,0.7,"stim/43.jpeg",4,3,2,2,"HouseObjects",1,4,"left","left",0.586999893,1,1,1,0,NA,NA,NA,NA,NA,NA,NA,NA,NA,NA,NA,NA,NA,NA,NA,NA,NA,NA,NA,NA,NA,NA,NA,NA
"370","stim/objects/HouseObjects/pitcher.png",423,5,416,0.9,"stim/62.jpeg",6,2,3,2,"HouseObjects",1,3,"left","left",0.628999949,1,1,1,0,NA,NA,NA,NA,NA,NA,NA,NA,NA,NA,NA,NA,NA,NA,NA,NA,NA,NA,NA,NA,NA,NA,NA,NA
"243","stim/objects/HouseObjects/coffee2.png",424,5,417,0.3,"stim/32.jpeg",3,2,2,1,"HouseObjects",1,2,"left","right",0.854999781,0,0,1,0,34,5,1,0.3,1,"stim/32.jpeg",3,2,"stim/32.jpeg",2,"right",1.085999966,4,2,1.181999922,2,1.452000141,34,0,1,NA,1,NA,1
"371","stim/objects/HouseObjects/pitcher.png",425,5,418,0.9,"stim/63.jpeg",6,3,3,2,"HouseObjects",1,3,"left","",NA,0,0,1,0,NA,NA,NA,NA,NA,NA,NA,NA,NA,NA,NA,NA,NA,NA,NA,NA,NA,NA,NA,NA,NA,NA,NA,NA
"537","stim/objects/Instruments/oboe.png",426,5,419,0.9,"stim/54.jpeg",5,4,3,2,"Instruments",2,3,"right","left",0.786000013,0,0,1,0,NA,NA,NA,NA,NA,NA,NA,NA,NA,NA,NA,NA,NA,NA,NA,NA,NA,NA,NA,NA,NA,NA,NA,NA
"563","stim/objects/Instruments/tuba.png",427,5,420,0.7,"stim/33.jpeg",3,3,2,1,"Instruments",2,4,"right","right",0.775999784,1,1,1,0,155,5,1,0.7,2,"stim/33.jpeg",3,3,"stim/33.jpeg",4,"left",29.14199996,1,2,2.701999903,3,1.611999989,155,1,0,0,0,0,1
"312","stim/objects/HouseObjects/lintroller.png",428,5,421,0.9,"stim/62.jpeg",6,2,3,2,"HouseObjects",1,2,"left","left",0.653999805,1,1,1,0,NA,NA,NA,NA,NA,NA,NA,NA,NA,NA,NA,NA,NA,NA,NA,NA,NA,NA,NA,NA,NA,NA,NA,NA
"407","stim/objects/Instruments/drums.png",429,5,422,0.5,"stim/11.jpeg",1,1,1,2,"Instruments",2,3,"right","right",0.799999952,1,1,1,0,NA,NA,NA,NA,NA,NA,NA,NA,NA,NA,NA,NA,NA,NA,NA,NA,NA,NA,NA,NA,NA,NA,NA,NA
"297","stim/objects/HouseObjects/knife.png",430,5,423,0.9,"stim/62.jpeg",6,2,3,2,"HouseObjects",1,1,"left","left",0.553999901,1,1,1,0,NA,NA,NA,NA,NA,NA,NA,NA,NA,NA,NA,NA,NA,NA,NA,NA,NA,NA,NA,NA,NA,NA,NA,NA
"520","stim/objects/Instruments/musicstand.png",431,5,424,0.9,"stim/53.jpeg",5,3,3,2,"Instruments",2,4,"right","",NA,0,0,1,0,NA,NA,NA,NA,NA,NA,NA,NA,NA,NA,NA,NA,NA,NA,NA,NA,NA,NA,NA,NA,NA,NA,NA,NA
"347","stim/objects/HouseObjects/pan.png",432,5,425,0.9,"stim/64.jpeg",6,4,3,2,"HouseObjects",1,4,"left","left",0.489999771,1,1,1,0,NA,NA,NA,NA,NA,NA,NA,NA,NA,NA,NA,NA,NA,NA,NA,NA,NA,NA,NA,NA,NA,NA,NA,NA
"263","stim/objects/HouseObjects/glass.png",433,5,426,0.5,"stim/21.jpeg",2,1,1,2,"HouseObjects",1,3,"left","left",0.711999893,1,1,1,0,NA,NA,NA,NA,NA,NA,NA,NA,NA,NA,NA,NA,NA,NA,NA,NA,NA,NA,NA,NA,NA,NA,NA,NA
"294","stim/objects/HouseObjects/knife.png",434,5,427,0.9,"stim/61.jpeg",6,1,3,2,"HouseObjects",1,2,"left","",NA,0,0,1,0,NA,NA,NA,NA,NA,NA,NA,NA,NA,NA,NA,NA,NA,NA,NA,NA,NA,NA,NA,NA,NA,NA,NA,NA
"534","stim/objects/Instruments/oboe.png",435,5,428,0.9,"stim/54.jpeg",5,4,3,2,"Instruments",2,2,"right","right",0.676999807,1,1,1,0,NA,NA,NA,NA,NA,NA,NA,NA,NA,NA,NA,NA,NA,NA,NA,NA,NA,NA,NA,NA,NA,NA,NA,NA
"535","stim/objects/Instruments/oboe.png",436,5,429,0.9,"stim/52.jpeg",5,2,3,2,"Instruments",2,2,"right","left",0.50999999,0,0,1,0,NA,NA,NA,NA,NA,NA,NA,NA,NA,NA,NA,NA,NA,NA,NA,NA,NA,NA,NA,NA,NA,NA,NA,NA
"512","stim/objects/Instruments/musicstand.png",437,5,430,0.9,"stim/51.jpeg",5,1,3,2,"Instruments",2,4,"right","right",0.648999929,1,1,1,0,NA,NA,NA,NA,NA,NA,NA,NA,NA,NA,NA,NA,NA,NA,NA,NA,NA,NA,NA,NA,NA,NA,NA,NA
"295","stim/objects/HouseObjects/knife.png",438,5,431,0.9,"stim/64.jpeg",6,4,3,2,"HouseObjects",1,4,"left","left",0.625,1,1,1,0,NA,NA,NA,NA,NA,NA,NA,NA,NA,NA,NA,NA,NA,NA,NA,NA,NA,NA,NA,NA,NA,NA,NA,NA
"449","stim/objects/Instruments/laud.png",439,5,432,0.7,"stim/32.jpeg",3,2,2,2,"Instruments",2,2,"right","left",0.812999964,0,0,1,0,NA,NA,NA,NA,NA,NA,NA,NA,NA,NA,NA,NA,NA,NA,NA,NA,NA,NA,NA,NA,NA,NA,NA,NA
"415","stim/objects/Instruments/flute.png",440,5,433,0.5,"stim/13.jpeg",1,3,1,2,"Instruments",2,2,"right","",NA,0,0,1,0,NA,NA,NA,NA,NA,NA,NA,NA,NA,NA,NA,NA,NA,NA,NA,NA,NA,NA,NA,NA,NA,NA,NA,NA
"348","stim/objects/HouseObjects/pan.png",441,5,434,0.9,"stim/63.jpeg",6,3,3,2,"HouseObjects",1,1,"left","left",0.633999825,1,1,1,0,NA,NA,NA,NA,NA,NA,NA,NA,NA,NA,NA,NA,NA,NA,NA,NA,NA,NA,NA,NA,NA,NA,NA,NA
"466","stim/objects/Instruments/marimba.png",442,5,435,0.9,"stim/53.jpeg",5,3,3,2,"Instruments",2,4,"right","right",0.747999907,1,1,1,0,NA,NA,NA,NA,NA,NA,NA,NA,NA,NA,NA,NA,NA,NA,NA,NA,NA,NA,NA,NA,NA,NA,NA,NA
"518","stim/objects/Instruments/musicstand.png",443,5,436,0.9,"stim/52.jpeg",5,2,3,2,"Instruments",2,3,"right","right",0.735999823,1,1,1,0,NA,NA,NA,NA,NA,NA,NA,NA,NA,NA,NA,NA,NA,NA,NA,NA,NA,NA,NA,NA,NA,NA,NA,NA
"385","stim/objects/HouseObjects/safetypin2.png",444,5,437,0.1,"stim/52.jpeg",5,2,3,1,"HouseObjects",1,4,"left","right",0.68599987,0,0,1,0,151,5,1,0.1,1,"stim/52.jpeg",5,2,"stim/52.jpeg",4,"right",1.024999857,2,3,0.536999941,4,0.321999788,151,0,0,NA,1,NA,1
"391","stim/objects/HouseObjects/sponge2.png",445,5,438,0.9,"stim/63.jpeg",6,3,3,1,"HouseObjects",1,4,"left","left",0.588000059,1,1,1,0,2,5,1,0.9,1,"stim/63.jpeg",6,3,"stim/63.jpeg",4,"left",0.884000063,4,3,10.75199986,3,1.953999758,2,1,1,1,0,0,1
"322","stim/objects/HouseObjects/lintroller.png",446,5,439,0.9,"stim/62.jpeg",6,2,3,2,"HouseObjects",1,1,"left","left",0.712999821,1,1,1,0,NA,NA,NA,NA,NA,NA,NA,NA,NA,NA,NA,NA,NA,NA,NA,NA,NA,NA,NA,NA,NA,NA,NA,NA
"344","stim/objects/HouseObjects/pan.png",447,5,440,0.9,"stim/63.jpeg",6,3,3,2,"HouseObjects",1,1,"left","right",0.768000126,0,0,1,0,NA,NA,NA,NA,NA,NA,NA,NA,NA,NA,NA,NA,NA,NA,NA,NA,NA,NA,NA,NA,NA,NA,NA,NA
"303","stim/objects/HouseObjects/knife.png",448,5,441,0.9,"stim/62.jpeg",6,2,3,2,"HouseObjects",1,3,"left","left",0.702000141,1,1,1,0,NA,NA,NA,NA,NA,NA,NA,NA,NA,NA,NA,NA,NA,NA,NA,NA,NA,NA,NA,NA,NA,NA,NA,NA
"254","stim/objects/HouseObjects/dustpan.png",449,5,442,0.5,"stim/12.jpeg",1,2,1,2,"HouseObjects",1,3,"left","right",0.71999979,0,0,1,0,NA,NA,NA,NA,NA,NA,NA,NA,NA,NA,NA,NA,NA,NA,NA,NA,NA,NA,NA,NA,NA,NA,NA,NA
"416","stim/objects/Instruments/flute.png",450,5,443,0.5,"stim/14.jpeg",1,4,1,2,"Instruments",2,3,"right","",NA,0,0,1,0,NA,NA,NA,NA,NA,NA,NA,NA,NA,NA,NA,NA,NA,NA,NA,NA,NA,NA,NA,NA,NA,NA,NA,NA
"384","stim/objects/HouseObjects/safetypin.png",451,5,444,0.5,"stim/13.jpeg",1,3,1,1,"HouseObjects",1,1,"left","left",0.483999968,1,1,1,0,192,5,1,0.5,1,"stim/13.jpeg",1,3,"stim/13.jpeg",1,"right",0.951999903,2,3,0.431999922,2,0.383999825,192,0,1,NA,0,NA,1
"453","stim/objects/Instruments/maraca.png",452,5,445,0.7,"stim/34.jpeg",3,4,2,2,"Instruments",2,2,"right","right",0.615999699,1,1,1,0,NA,NA,NA,NA,NA,NA,NA,NA,NA,NA,NA,NA,NA,NA,NA,NA,NA,NA,NA,NA,NA,NA,NA,NA
"536","stim/objects/Instruments/oboe.png",453,5,446,0.9,"stim/51.jpeg",5,1,3,2,"Instruments",2,3,"right","left",0.608999968,0,0,1,0,NA,NA,NA,NA,NA,NA,NA,NA,NA,NA,NA,NA,NA,NA,NA,NA,NA,NA,NA,NA,NA,NA,NA,NA
"242","stim/objects/HouseObjects/coffee.png",454,5,447,0.5,"stim/12.jpeg",1,2,1,2,"HouseObjects",1,3,"left","right",0.634999752,0,0,1,0,NA,NA,NA,NA,NA,NA,NA,NA,NA,NA,NA,NA,NA,NA,NA,NA,NA,NA,NA,NA,NA,NA,NA,NA
"296","stim/objects/HouseObjects/knife.png",455,5,448,0.9,"stim/61.jpeg",6,1,3,2,"HouseObjects",1,3,"left","left",0.582999945,1,1,1,0,NA,NA,NA,NA,NA,NA,NA,NA,NA,NA,NA,NA,NA,NA,NA,NA,NA,NA,NA,NA,NA,NA,NA,NA
"401","stim/objects/HouseObjects/towel2.png",456,5,449,0.9,"stim/64.jpeg",6,4,3,1,"HouseObjects",1,2,"left","left",0.621000051,1,1,1,0,21,5,1,0.9,1,"stim/64.jpeg",6,4,"stim/64.jpeg",2,"left",2.382999897,3,1,2.201999903,1,2.092999935,21,1,0,0,0,0,1
"455","stim/objects/Instruments/maraca2.png",457,5,450,0.3,"stim/43.jpeg",4,3,2,1,"Instruments",2,2,"right","left",0.866999865,0,0,1,0,137,5,1,0.3,2,"stim/43.jpeg",4,3,"stim/43.jpeg",2,"right",1.36199975,1,2,0.450999737,3,0.351000071,137,0,0,NA,0,NA,1
"480","stim/objects/Instruments/metronome.png",458,5,451,0.9,"stim/53.jpeg",5,3,3,2,"Instruments",2,2,"right","right",0.625999928,1,1,1,0,NA,NA,NA,NA,NA,NA,NA,NA,NA,NA,NA,NA,NA,NA,NA,NA,NA,NA,NA,NA,NA,NA,NA,NA
"519","stim/objects/Instruments/musicstand.png",459,5,452,0.9,"stim/52.jpeg",5,2,3,2,"Instruments",2,2,"right","right",0.617000103,1,1,1,0,NA,NA,NA,NA,NA,NA,NA,NA,NA,NA,NA,NA,NA,NA,NA,NA,NA,NA,NA,NA,NA,NA,NA,NA
"484","stim/objects/Instruments/metronome.png",460,5,453,0.9,"stim/54.jpeg",5,4,3,2,"Instruments",2,2,"right","right",0.661999941,1,1,1,0,NA,NA,NA,NA,NA,NA,NA,NA,NA,NA,NA,NA,NA,NA,NA,NA,NA,NA,NA,NA,NA,NA,NA,NA
"378","stim/objects/HouseObjects/remote.png",461,5,454,0.5,"stim/14.jpeg",1,4,1,1,"HouseObjects",1,1,"left","left",0.76699996,1,1,1,0,128,5,1,0.5,1,"stim/14.jpeg",1,4,"stim/14.jpeg",1,"right",0.965999842,4,4,1.221999884,3,0.644999981,128,0,1,NA,0,NA,1
"565","stim/objects/Instruments/violin.png",462,5,455,0.7,"stim/34.jpeg",3,4,2,1,"Instruments",2,4,"right","right",0.689999819,1,1,1,0,91,5,1,0.7,2,"stim/34.jpeg",3,4,"stim/34.jpeg",4,"left",1.667999983,3,3,1.148000002,4,1.320999861,91,1,0,0,1,1,1
"450","stim/objects/Instruments/laud.png",463,5,456,0.7,"stim/33.jpeg",3,3,2,2,"Instruments",2,3,"right","right",0.595000029,1,1,1,0,NA,NA,NA,NA,NA,NA,NA,NA,NA,NA,NA,NA,NA,NA,NA,NA,NA,NA,NA,NA,NA,NA,NA,NA
"245","stim/objects/HouseObjects/cushion.png",464,5,457,0.5,"stim/13.jpeg",1,3,1,2,"HouseObjects",1,3,"left","right",0.845999956,0,0,1,0,NA,NA,NA,NA,NA,NA,NA,NA,NA,NA,NA,NA,NA,NA,NA,NA,NA,NA,NA,NA,NA,NA,NA,NA
"486","stim/objects/Instruments/metronome.png",465,5,458,0.9,"stim/52.jpeg",5,2,3,2,"Instruments",2,3,"right","right",0.647999763,1,1,1,0,NA,NA,NA,NA,NA,NA,NA,NA,NA,NA,NA,NA,NA,NA,NA,NA,NA,NA,NA,NA,NA,NA,NA,NA
"395","stim/objects/HouseObjects/teapot2.png",466,5,459,0.9,"stim/61.jpeg",6,1,3,1,"HouseObjects",1,1,"left","left",0.520999908,1,1,1,0,50,5,1,0.9,1,"stim/61.jpeg",6,1,"stim/61.jpeg",1,"left",3.73699975,3,4,2.048999786,1,2.0849998,50,1,0,0,1,1,1
"386","stim/objects/HouseObjects/saw.png",467,5,460,0.5,"stim/21.jpeg",2,1,1,1,"HouseObjects",1,1,"left","right",0.848999977,0,0,1,0,53,5,1,0.5,2,"stim/21.jpeg",2,1,"stim/21.jpeg",1,"left",1.285999775,2,3,1.251999855,4,2.16899991,53,1,0,0,0,0,1
"419","stim/objects/Instruments/flutetrans.png",468,5,461,0.5,"stim/11.jpeg",1,1,1,2,"Instruments",2,3,"right","",NA,0,0,1,0,NA,NA,NA,NA,NA,NA,NA,NA,NA,NA,NA,NA,NA,NA,NA,NA,NA,NA,NA,NA,NA,NA,NA,NA
"307","stim/objects/HouseObjects/knife2.png",469,5,462,0.1,"stim/51.jpeg",5,1,3,1,"HouseObjects",1,3,"left","right",0.78399992,0,0,1,0,108,5,1,0.1,1,"stim/51.jpeg",5,1,"stim/51.jpeg",3,"right",0.786999941,3,2,0.438999891,3,0.335000038,108,0,0,NA,1,NA,1
"329","stim/objects/HouseObjects/match.png",470,5,463,0.9,"stim/64.jpeg",6,4,3,2,"HouseObjects",1,4,"left","left",0.580999851,1,1,1,0,NA,NA,NA,NA,NA,NA,NA,NA,NA,NA,NA,NA,NA,NA,NA,NA,NA,NA,NA,NA,NA,NA,NA,NA
"559","stim/objects/Instruments/trombone.png",471,5,464,0.5,"stim/24.jpeg",2,4,1,1,"Instruments",2,1,"right","left",0.738000154,0,0,1,0,157,5,1,0.5,2,"stim/24.jpeg",2,4,"stim/24.jpeg",1,"left",1.773000002,3,3,2.230999947,4,1.166999817,157,1,0,0,0,0,1
"427","stim/objects/Instruments/grandpiano.png",472,5,465,0.5,"stim/21.jpeg",2,1,1,2,"Instruments",2,3,"right","right",0.489000082,1,1,1,0,NA,NA,NA,NA,NA,NA,NA,NA,NA,NA,NA,NA,NA,NA,NA,NA,NA,NA,NA,NA,NA,NA,NA,NA
"487","stim/objects/Instruments/metronome.png",473,5,466,0.9,"stim/53.jpeg",5,3,3,2,"Instruments",2,1,"right","right",0.648999929,1,1,1,0,NA,NA,NA,NA,NA,NA,NA,NA,NA,NA,NA,NA,NA,NA,NA,NA,NA,NA,NA,NA,NA,NA,NA,NA
"276","stim/objects/HouseObjects/handvacuum.png",474,5,467,0.7,"stim/42.jpeg",4,2,2,2,"HouseObjects",1,1,"left","left",0.654000044,1,1,1,0,NA,NA,NA,NA,NA,NA,NA,NA,NA,NA,NA,NA,NA,NA,NA,NA,NA,NA,NA,NA,NA,NA,NA,NA
"504","stim/objects/Instruments/musicsheet.png",475,5,468,0.9,"stim/52.jpeg",5,2,3,2,"Instruments",2,4,"right","right",0.604999781,1,1,1,0,NA,NA,NA,NA,NA,NA,NA,NA,NA,NA,NA,NA,NA,NA,NA,NA,NA,NA,NA,NA,NA,NA,NA,NA
