"","participant","trial_index","trial_cond","scn_file","scn_cat","scn_inst","scn_condition","fillers","obj_cat","obj_cat_num","obj_file","quadrant","corr_ans","key_resp_trial.keys","key_resp_trial.rt","trial_acc","trial_acc_manual","group"
"1",5,1,0.9,"stim/64.jpeg",6,4,3,NA,"HouseObjects",1,"stim/objects/HouseObjects/clothespin2.png",1,"left","",NA,0,0,1
"2",5,2,0.3,"stim/31.jpeg",3,1,2,NA,"HouseObjects",1,"stim/objects/HouseObjects/bucket.png",1,"left","right",0.720999956,0,0,1
"3",5,3,0.5,"stim/22.jpeg",2,2,1,NA,"Instruments",2,"stim/objects/Instruments/bassguitar.png",1,"right","",NA,0,0,1
"4",5,4,0.7,"stim/31.jpeg",3,1,2,NA,"Instruments",2,"stim/objects/Instruments/clarinet.png",3,"right","right",0.687999725,1,1,1
"5",5,5,0.7,"stim/32.jpeg",3,2,2,NA,"Instruments",2,"stim/objects/Instruments/cornet.png",2,"right","right",0.728999853,1,1,1
"6",5,6,0.5,"stim/14.jpeg",1,4,1,NA,"Instruments",2,"stim/objects/Instruments/banjo.png",2,"right","",NA,0,0,1
"7",5,7,0.5,"stim/23.jpeg",2,3,1,NA,"HouseObjects",1,"stim/objects/HouseObjects/bottle.png",1,"left","",NA,0,0,1
"8",5,8,0.9,"stim/53.jpeg",5,3,3,NA,"Instruments",2,"stim/objects/Instruments/cello2.png",3,"right","",NA,0,0,1
"9",5,9,0.5,"stim/12.jpeg",1,2,1,NA,"Instruments",2,"stim/objects/Instruments/acousticguitar.png",2,"right","right",0.443000078,1,1,1
"10",5,10,0.5,"stim/24.jpeg",2,4,1,NA,"Instruments",2,"stim/objects/Instruments/chime.png",1,"right","left",0.711999893,0,0,1
"11",5,11,0.5,"stim/23.jpeg",2,3,1,NA,"HouseObjects",1,"stim/objects/HouseObjects/bottle.png",1,"left","",NA,0,0,1
"12",5,12,0.5,"stim/13.jpeg",1,3,1,NA,"Instruments",2,"stim/objects/Instruments/balalaika.png",4,"right","right",0.605999708,1,1,1
"13",5,13,0.5,"stim/11.jpeg",1,1,1,NA,"HouseObjects",1,"stim/objects/HouseObjects/ashtray.png",4,"left","right",0.503000021,0,0,1
"14",5,14,0.9,"stim/63.jpeg",6,3,3,NA,"HouseObjects",1,"stim/objects/HouseObjects/clothesdryingrack2.png",2,"left","left",0.730999947,1,1,1
"15",5,15,0.9,"stim/54.jpeg",5,4,3,NA,"Instruments",2,"stim/objects/Instruments/chime2.png",4,"right","right",0.644000053,1,1,1
"16",5,16,0.7,"stim/41.jpeg",4,1,2,NA,"HouseObjects",1,"stim/objects/HouseObjects/ashtray2.png",2,"left","left",0.707999945,1,1,1
"17",5,17,0.3,"stim/41.jpeg",4,1,2,NA,"Instruments",2,"stim/objects/Instruments/accordion2.png",1,"right","left",0.643999815,0,0,1
"18",5,18,0.5,"stim/14.jpeg",1,4,1,NA,"HouseObjects",1,"stim/objects/HouseObjects/basket.png",4,"left","right",0.635999918,0,0,1
"19",5,19,0.7,"stim/41.jpeg",4,1,2,NA,"HouseObjects",1,"stim/objects/HouseObjects/ashtray2.png",2,"left","left",0.678999901,1,1,1
"20",5,20,0.5,"stim/21.jpeg",2,1,1,NA,"HouseObjects",1,"stim/objects/HouseObjects/bleachbottle.png",1,"left","",NA,0,0,1
"21",5,21,0.5,"stim/21.jpeg",2,1,1,NA,"HouseObjects",1,"stim/objects/HouseObjects/bleachbottle.png",1,"left","left",0.661999941,1,1,1
"22",5,22,0.7,"stim/41.jpeg",4,1,2,NA,"HouseObjects",1,"stim/objects/HouseObjects/ashtray2.png",4,"left","left",0.694999933,1,1,1
"23",5,23,0.9,"stim/54.jpeg",5,4,3,NA,"Instruments",2,"stim/objects/Instruments/chime2.png",3,"right","right",0.690999985,1,1,1
"24",5,24,0.7,"stim/34.jpeg",3,4,2,NA,"Instruments",2,"stim/objects/Instruments/doublebass.png",3,"right","",NA,0,0,1
"25",5,25,0.5,"stim/23.jpeg",2,3,1,NA,"Instruments",2,"stim/objects/Instruments/cello.png",4,"right","right",0.588999987,1,1,1
"26",5,26,0.5,"stim/23.jpeg",2,3,1,NA,"HouseObjects",1,"stim/objects/HouseObjects/bottle.png",1,"left","right",0.704999924,0,0,1
"27",5,27,0.7,"stim/34.jpeg",3,4,2,NA,"Instruments",2,"stim/objects/Instruments/doublebass.png",3,"right","right",0.65199995,1,1,1
"28",5,28,0.7,"stim/34.jpeg",3,4,2,NA,"Instruments",2,"stim/objects/Instruments/doublebass.png",4,"right","right",0.539999962,1,1,1
"29",5,29,0.5,"stim/11.jpeg",1,1,1,NA,"Instruments",2,"stim/objects/Instruments/accordion.png",3,"right","left",0.849999905,0,0,1
"30",5,30,0.5,"stim/11.jpeg",1,1,1,NA,"Instruments",2,"stim/objects/Instruments/accordion.png",2,"right","right",0.617000103,1,1,1
"31",5,31,0.9,"stim/54.jpeg",5,4,3,NA,"Instruments",2,"stim/objects/Instruments/chime2.png",4,"right","right",0.609999895,1,1,1
"32",5,32,0.9,"stim/63.jpeg",6,3,3,NA,"HouseObjects",1,"stim/objects/HouseObjects/clothesdryingrack2.png",4,"left","left",0.648999929,1,1,1
"33",5,33,0.3,"stim/42.jpeg",4,2,2,NA,"Instruments",2,"stim/objects/Instruments/acousticguitar2.png",3,"right","left",0.584000111,0,0,1
"34",5,34,0.9,"stim/52.jpeg",5,2,3,NA,"Instruments",2,"stim/objects/Instruments/bassguitar2.png",3,"right","right",0.704999924,1,1,1
"35",5,35,0.5,"stim/23.jpeg",2,3,1,NA,"HouseObjects",1,"stim/objects/HouseObjects/bottle.png",2,"left","",NA,0,0,1
"36",5,36,0.9,"stim/64.jpeg",6,4,3,NA,"HouseObjects",1,"stim/objects/HouseObjects/clothespin2.png",2,"left","right",0.453999758,0,0,1
"37",5,37,0.5,"stim/14.jpeg",1,4,1,NA,"HouseObjects",1,"stim/objects/HouseObjects/basket.png",4,"left","right",0.781999826,0,0,1
"38",5,38,0.9,"stim/62.jpeg",6,2,3,NA,"HouseObjects",1,"stim/objects/HouseObjects/clock2.png",1,"left","left",0.618999958,1,1,1
"39",5,39,0.5,"stim/14.jpeg",1,4,1,NA,"Instruments",2,"stim/objects/Instruments/banjo.png",3,"right","",NA,0,0,1
"40",5,40,0.3,"stim/32.jpeg",3,2,2,NA,"HouseObjects",1,"stim/objects/HouseObjects/clock.png",3,"left","right",0.654999733,0,0,1
"41",5,41,0.5,"stim/12.jpeg",1,2,1,NA,"HouseObjects",1,"stim/objects/HouseObjects/ballofstring.png",4,"left","right",0.749999762,0,0,1
"42",5,42,0.5,"stim/22.jpeg",2,2,1,NA,"HouseObjects",1,"stim/objects/HouseObjects/blender.png",3,"left","right",0.723999977,0,0,1
"43",5,43,0.1,"stim/64.jpeg",6,4,3,NA,"Instruments",2,"stim/objects/Instruments/doublebass2.png",3,"right","left",0.546999931,0,0,1
"44",5,44,0.5,"stim/13.jpeg",1,3,1,NA,"HouseObjects",1,"stim/objects/HouseObjects/barbecuelighter.png",3,"left","right",0.741999865,0,0,1
"45",5,45,0.5,"stim/14.jpeg",1,4,1,NA,"Instruments",2,"stim/objects/Instruments/banjo.png",1,"right","right",0.662999868,1,1,1
"46",5,46,0.9,"stim/63.jpeg",6,3,3,NA,"HouseObjects",1,"stim/objects/HouseObjects/clothesdryingrack2.png",4,"left","left",0.611000061,1,1,1
"47",5,47,0.9,"stim/61.jpeg",6,1,3,NA,"HouseObjects",1,"stim/objects/HouseObjects/bucket2.png",3,"left","left",0.505999804,1,1,1
"48",5,48,0.7,"stim/33.jpeg",3,3,2,NA,"Instruments",2,"stim/objects/Instruments/cymbal.png",3,"right","right",0.697000027,1,1,1
"49",5,49,0.7,"stim/44.jpeg",4,4,2,NA,"HouseObjects",1,"stim/objects/HouseObjects/basket2.png",1,"left","left",0.605999947,1,1,1
"50",5,50,0.9,"stim/61.jpeg",6,1,3,NA,"HouseObjects",1,"stim/objects/HouseObjects/bucket2.png",1,"left","",NA,0,0,1
"51",5,51,0.9,"stim/61.jpeg",6,1,3,NA,"HouseObjects",1,"stim/objects/HouseObjects/bucket2.png",4,"left","left",0.753999949,1,1,1
"52",5,52,0.9,"stim/64.jpeg",6,4,3,NA,"HouseObjects",1,"stim/objects/HouseObjects/clothespin2.png",4,"left","left",0.53399992,1,1,1
"53",5,53,0.7,"stim/32.jpeg",3,2,2,NA,"Instruments",2,"stim/objects/Instruments/cornet.png",4,"right","right",0.786999941,1,1,1
"54",5,54,0.5,"stim/24.jpeg",2,4,1,NA,"HouseObjects",1,"stim/objects/HouseObjects/broom.png",3,"left","",NA,0,0,1
"55",5,55,0.9,"stim/64.jpeg",6,4,3,NA,"HouseObjects",1,"stim/objects/HouseObjects/clothespin2.png",4,"left","right",0.495999813,0,0,1
"56",5,56,0.5,"stim/11.jpeg",1,1,1,NA,"HouseObjects",1,"stim/objects/HouseObjects/ashtray.png",4,"left","left",0.738999844,1,1,1
"57",5,57,0.5,"stim/11.jpeg",1,1,1,NA,"Instruments",2,"stim/objects/Instruments/accordion.png",3,"right","left",0.714999914,0,0,1
"58",5,58,0.9,"stim/64.jpeg",6,4,3,NA,"HouseObjects",1,"stim/objects/HouseObjects/clothespin2.png",3,"left","left",0.610999823,1,1,1
"59",5,59,0.5,"stim/24.jpeg",2,4,1,NA,"HouseObjects",1,"stim/objects/HouseObjects/broom.png",4,"left","left",0.872999907,1,1,1
"60",5,60,0.9,"stim/54.jpeg",5,4,3,NA,"Instruments",2,"stim/objects/Instruments/chime2.png",2,"right","right",0.628000021,1,1,1
"61",5,61,0.9,"stim/53.jpeg",5,3,3,NA,"Instruments",2,"stim/objects/Instruments/cello2.png",2,"right","left",0.546000004,0,0,1
"62",5,62,0.9,"stim/51.jpeg",5,1,3,NA,"Instruments",2,"stim/objects/Instruments/bassdrum2.png",4,"right","right",0.598999977,1,1,1
"63",5,63,0.5,"stim/12.jpeg",1,2,1,NA,"Instruments",2,"stim/objects/Instruments/acousticguitar.png",3,"right","",NA,0,0,1
"64",5,64,0.7,"stim/44.jpeg",4,4,2,NA,"HouseObjects",1,"stim/objects/HouseObjects/basket2.png",3,"left","left",0.763000011,1,1,1
"65",5,65,0.5,"stim/12.jpeg",1,2,1,NA,"HouseObjects",1,"stim/objects/HouseObjects/ballofstring.png",3,"left","right",0.829999924,0,0,1
"66",5,66,0.5,"stim/13.jpeg",1,3,1,NA,"Instruments",2,"stim/objects/Instruments/balalaika.png",2,"right","",NA,0,0,1
"67",5,67,0.3,"stim/32.jpeg",3,2,2,NA,"HouseObjects",1,"stim/objects/HouseObjects/clock.png",2,"left","left",0.626999855,1,1,1
"68",5,68,0.7,"stim/44.jpeg",4,4,2,NA,"HouseObjects",1,"stim/objects/HouseObjects/basket2.png",4,"left","left",0.59800005,1,1,1
"69",5,69,0.5,"stim/21.jpeg",2,1,1,NA,"Instruments",2,"stim/objects/Instruments/bassdrum.png",2,"right","right",0.723999977,1,1,1
"70",5,70,0.9,"stim/53.jpeg",5,3,3,NA,"Instruments",2,"stim/objects/Instruments/cello2.png",1,"right","right",0.799000025,1,1,1
"71",5,71,0.5,"stim/12.jpeg",1,2,1,NA,"Instruments",2,"stim/objects/Instruments/acousticguitar.png",3,"right","left",0.495000124,0,0,1
"72",5,72,0.5,"stim/23.jpeg",2,3,1,NA,"Instruments",2,"stim/objects/Instruments/cello.png",4,"right","",NA,0,0,1
"73",5,73,0.5,"stim/12.jpeg",1,2,1,NA,"HouseObjects",1,"stim/objects/HouseObjects/ballofstring.png",2,"left","right",0.546999931,0,0,1
"74",5,74,0.7,"stim/32.jpeg",3,2,2,NA,"Instruments",2,"stim/objects/Instruments/cornet.png",3,"right","left",0.415999889,0,0,1
"75",5,75,0.9,"stim/53.jpeg",5,3,3,NA,"Instruments",2,"stim/objects/Instruments/cello2.png",4,"right","right",0.674000025,1,1,1
"76",5,76,0.7,"stim/41.jpeg",4,1,2,NA,"HouseObjects",1,"stim/objects/HouseObjects/ashtray2.png",2,"left","left",0.768999815,1,1,1
"77",5,77,0.9,"stim/51.jpeg",5,1,3,NA,"Instruments",2,"stim/objects/Instruments/bassdrum2.png",3,"right","right",0.664999962,1,1,1
"78",5,78,0.9,"stim/51.jpeg",5,1,3,NA,"Instruments",2,"stim/objects/Instruments/bassdrum2.png",2,"right","right",0.660000086,1,1,1
"79",5,79,0.9,"stim/61.jpeg",6,1,3,NA,"HouseObjects",1,"stim/objects/HouseObjects/bucket2.png",2,"left","left",0.611000061,1,1,1
"80",5,80,0.9,"stim/63.jpeg",6,3,3,NA,"HouseObjects",1,"stim/objects/HouseObjects/clothesdryingrack2.png",1,"left","left",0.555999756,1,1,1
"81",5,81,0.9,"stim/53.jpeg",5,3,3,NA,"Instruments",2,"stim/objects/Instruments/cello2.png",1,"right","right",0.559999943,1,1,1
"82",5,82,0.9,"stim/52.jpeg",5,2,3,NA,"Instruments",2,"stim/objects/Instruments/bassguitar2.png",3,"right","right",0.682999849,1,1,1
"83",5,83,0.3,"stim/33.jpeg",3,3,2,NA,"HouseObjects",1,"stim/objects/HouseObjects/clothesdryingrack.png",3,"left","right",0.683000088,0,0,1
"84",5,84,0.7,"stim/42.jpeg",4,2,2,NA,"HouseObjects",1,"stim/objects/HouseObjects/ballofstring2.png",2,"left","left",0.594000101,1,1,1
"85",5,85,0.5,"stim/24.jpeg",2,4,1,NA,"Instruments",2,"stim/objects/Instruments/chime.png",1,"right","",NA,0,0,1
"86",5,86,0.9,"stim/62.jpeg",6,2,3,NA,"HouseObjects",1,"stim/objects/HouseObjects/clock2.png",4,"left","left",0.605999947,1,1,1
"87",5,87,0.3,"stim/43.jpeg",4,3,2,NA,"Instruments",2,"stim/objects/Instruments/balalaika2.png",1,"right","left",0.768999815,0,0,1
"88",5,88,0.1,"stim/62.jpeg",6,2,3,NA,"Instruments",2,"stim/objects/Instruments/cornet2.png",1,"right","left",0.565999985,0,0,1
"89",5,89,0.9,"stim/62.jpeg",6,2,3,NA,"HouseObjects",1,"stim/objects/HouseObjects/clock2.png",1,"left","left",0.71999979,1,1,1
"90",5,90,0.9,"stim/52.jpeg",5,2,3,NA,"Instruments",2,"stim/objects/Instruments/bassguitar2.png",2,"right","right",0.625999928,1,1,1
"91",5,91,0.7,"stim/41.jpeg",4,1,2,NA,"HouseObjects",1,"stim/objects/HouseObjects/ashtray2.png",4,"left","left",0.648999929,1,1,1
"92",5,92,0.7,"stim/43.jpeg",4,3,2,NA,"HouseObjects",1,"stim/objects/HouseObjects/barbecuelighter2.png",1,"left","right",0.820999861,0,0,1
"93",5,93,0.9,"stim/54.jpeg",5,4,3,NA,"Instruments",2,"stim/objects/Instruments/chime2.png",2,"right","right",0.616999865,1,1,1
"94",5,94,0.1,"stim/51.jpeg",5,1,3,NA,"HouseObjects",1,"stim/objects/HouseObjects/bleachbottle2.png",1,"left","right",0.670000076,0,0,1
"95",5,95,0.5,"stim/14.jpeg",1,4,1,NA,"HouseObjects",1,"stim/objects/HouseObjects/basket.png",3,"left","left",0.676000118,1,1,1
"96",5,96,0.5,"stim/14.jpeg",1,4,1,NA,"Instruments",2,"stim/objects/Instruments/banjo.png",1,"right","",NA,0,0,1
"97",5,97,0.9,"stim/64.jpeg",6,4,3,NA,"HouseObjects",1,"stim/objects/HouseObjects/clothespin2.png",1,"left","left",0.499000072,1,1,1
"98",5,98,0.7,"stim/33.jpeg",3,3,2,NA,"Instruments",2,"stim/objects/Instruments/cymbal.png",1,"right","left",0.604000092,0,0,1
"99",5,99,0.9,"stim/62.jpeg",6,2,3,NA,"HouseObjects",1,"stim/objects/HouseObjects/clock2.png",4,"left","left",0.666999817,1,1,1
"100",5,100,0.5,"stim/22.jpeg",2,2,1,NA,"HouseObjects",1,"stim/objects/HouseObjects/blender.png",3,"left","right",0.802999973,0,0,1
"101",5,101,0.9,"stim/63.jpeg",6,3,3,NA,"HouseObjects",1,"stim/objects/HouseObjects/clothesdryingrack2.png",3,"left","left",0.529999971,1,1,1
"102",5,102,0.3,"stim/41.jpeg",4,1,2,NA,"Instruments",2,"stim/objects/Instruments/accordion2.png",3,"right","",NA,0,0,1
"103",5,103,0.5,"stim/22.jpeg",2,2,1,NA,"HouseObjects",1,"stim/objects/HouseObjects/blender.png",2,"left","right",0.599999905,0,0,1
"104",5,104,0.9,"stim/52.jpeg",5,2,3,NA,"Instruments",2,"stim/objects/Instruments/bassguitar2.png",4,"right","right",0.736999989,1,1,1
"105",5,105,0.7,"stim/32.jpeg",3,2,2,NA,"Instruments",2,"stim/objects/Instruments/cornet.png",1,"right","left",0.745999813,0,0,1
"106",5,106,0.7,"stim/42.jpeg",4,2,2,NA,"HouseObjects",1,"stim/objects/HouseObjects/ballofstring2.png",3,"left","",NA,0,0,1
"107",5,107,0.9,"stim/63.jpeg",6,3,3,NA,"HouseObjects",1,"stim/objects/HouseObjects/clothesdryingrack2.png",2,"left","left",0.557999849,1,1,1
"108",5,108,0.7,"stim/43.jpeg",4,3,2,NA,"HouseObjects",1,"stim/objects/HouseObjects/barbecuelighter2.png",4,"left","left",0.773999929,1,1,1
"109",5,109,0.1,"stim/53.jpeg",5,3,3,NA,"HouseObjects",1,"stim/objects/HouseObjects/bottle2.png",2,"left","right",0.654000044,0,0,1
"110",5,110,0.5,"stim/24.jpeg",2,4,1,NA,"Instruments",2,"stim/objects/Instruments/chime.png",1,"right","left",0.703000069,0,0,1
"111",5,111,0.5,"stim/13.jpeg",1,3,1,NA,"HouseObjects",1,"stim/objects/HouseObjects/barbecuelighter.png",3,"left","left",0.784999847,1,1,1
"112",5,112,0.5,"stim/21.jpeg",2,1,1,NA,"Instruments",2,"stim/objects/Instruments/bassdrum.png",4,"right","",NA,0,0,1
"113",5,113,0.7,"stim/42.jpeg",4,2,2,NA,"HouseObjects",1,"stim/objects/HouseObjects/ballofstring2.png",3,"left","left",0.725999832,1,1,1
"114",5,114,0.5,"stim/21.jpeg",2,1,1,NA,"HouseObjects",1,"stim/objects/HouseObjects/bleachbottle.png",3,"left","right",0.717999935,0,0,1
"115",5,115,0.7,"stim/33.jpeg",3,3,2,NA,"Instruments",2,"stim/objects/Instruments/cymbal.png",3,"right","left",0.646999836,0,0,1
"116",5,116,0.9,"stim/62.jpeg",6,2,3,NA,"HouseObjects",1,"stim/objects/HouseObjects/clock2.png",3,"left","left",0.667000055,1,1,1
"117",5,117,0.7,"stim/32.jpeg",3,2,2,NA,"Instruments",2,"stim/objects/Instruments/cornet.png",1,"right","right",0.728999853,1,1,1
"118",5,118,0.7,"stim/42.jpeg",4,2,2,NA,"HouseObjects",1,"stim/objects/HouseObjects/ballofstring2.png",2,"left","left",0.655999899,1,1,1
"119",5,119,0.5,"stim/23.jpeg",2,3,1,NA,"HouseObjects",1,"stim/objects/HouseObjects/bottle.png",3,"left","left",0.718999863,1,1,1
"120",5,120,0.7,"stim/43.jpeg",4,3,2,NA,"HouseObjects",1,"stim/objects/HouseObjects/barbecuelighter2.png",2,"left","left",0.664999962,1,1,1
"121",5,121,0.9,"stim/51.jpeg",5,1,3,NA,"Instruments",2,"stim/objects/Instruments/bassdrum2.png",1,"right","right",0.63499999,1,1,1
"122",5,122,0.7,"stim/31.jpeg",3,1,2,NA,"Instruments",2,"stim/objects/Instruments/clarinet.png",3,"right","right",0.819999933,1,1,1
"123",5,123,0.7,"stim/31.jpeg",3,1,2,NA,"Instruments",2,"stim/objects/Instruments/clarinet.png",1,"right","right",0.697999954,1,1,1
"124",5,124,0.7,"stim/33.jpeg",3,3,2,NA,"Instruments",2,"stim/objects/Instruments/cymbal.png",1,"right","",NA,0,0,1
"125",5,125,0.7,"stim/34.jpeg",3,4,2,NA,"Instruments",2,"stim/objects/Instruments/doublebass.png",4,"right","right",0.647000074,1,1,1
"126",5,126,0.5,"stim/24.jpeg",2,4,1,NA,"HouseObjects",1,"stim/objects/HouseObjects/broom.png",4,"left","left",0.717000008,1,1,1
"127",5,127,0.3,"stim/42.jpeg",4,2,2,NA,"Instruments",2,"stim/objects/Instruments/acousticguitar2.png",4,"right","left",0.618000031,0,0,1
"128",5,128,0.7,"stim/34.jpeg",3,4,2,NA,"Instruments",2,"stim/objects/Instruments/doublebass.png",1,"right","right",0.858999968,1,1,1
"129",5,129,0.7,"stim/43.jpeg",4,3,2,NA,"HouseObjects",1,"stim/objects/HouseObjects/barbecuelighter2.png",2,"left","left",0.75,1,1,1
"130",5,130,0.7,"stim/43.jpeg",4,3,2,NA,"HouseObjects",1,"stim/objects/HouseObjects/barbecuelighter2.png",4,"left","left",0.747999907,1,1,1
"131",5,131,0.7,"stim/32.jpeg",3,2,2,NA,"Instruments",2,"stim/objects/Instruments/cornet.png",2,"right","right",0.583999872,1,1,1
"132",5,132,0.5,"stim/13.jpeg",1,3,1,NA,"Instruments",2,"stim/objects/Instruments/balalaika.png",4,"right","left",0.872999907,0,0,1
"133",5,133,0.1,"stim/61.jpeg",6,1,3,NA,"Instruments",2,"stim/objects/Instruments/clarinet2.png",4,"right","left",0.838999987,0,0,1
"134",5,134,0.3,"stim/33.jpeg",3,3,2,NA,"HouseObjects",1,"stim/objects/HouseObjects/clothesdryingrack.png",1,"left","left",0.825999975,1,1,1
"135",5,135,0.9,"stim/63.jpeg",6,3,3,NA,"HouseObjects",1,"stim/objects/HouseObjects/clothesdryingrack2.png",4,"left","",NA,0,0,1
"136",5,136,0.9,"stim/62.jpeg",6,2,3,NA,"HouseObjects",1,"stim/objects/HouseObjects/clock2.png",4,"left","left",0.598999977,1,1,1
"137",5,137,0.1,"stim/54.jpeg",5,4,3,NA,"HouseObjects",1,"stim/objects/HouseObjects/broom2.png",4,"left","right",0.829999924,0,0,1
"138",5,138,0.5,"stim/12.jpeg",1,2,1,NA,"Instruments",2,"stim/objects/Instruments/acousticguitar.png",4,"right","",NA,0,0,1
"139",5,139,0.3,"stim/42.jpeg",4,2,2,NA,"Instruments",2,"stim/objects/Instruments/acousticguitar2.png",2,"right","left",0.421000004,0,0,1
"140",5,140,0.9,"stim/61.jpeg",6,1,3,NA,"HouseObjects",1,"stim/objects/HouseObjects/bucket2.png",2,"left","left",0.676999807,1,1,1
"141",5,141,0.3,"stim/33.jpeg",3,3,2,NA,"HouseObjects",1,"stim/objects/HouseObjects/clothesdryingrack.png",4,"left","left",0.596999884,1,1,1
"142",5,142,0.9,"stim/63.jpeg",6,3,3,NA,"HouseObjects",1,"stim/objects/HouseObjects/clothesdryingrack2.png",2,"left","left",0.684999943,1,1,1
"143",5,143,0.9,"stim/62.jpeg",6,2,3,NA,"HouseObjects",1,"stim/objects/HouseObjects/clock2.png",2,"left","left",0.722999811,1,1,1
"144",5,144,0.9,"stim/54.jpeg",5,4,3,NA,"Instruments",2,"stim/objects/Instruments/chime2.png",1,"right","right",0.5849998,1,1,1
"145",5,145,0.5,"stim/11.jpeg",1,1,1,NA,"HouseObjects",1,"stim/objects/HouseObjects/ashtray.png",2,"left","",NA,0,0,1
"146",5,146,0.9,"stim/53.jpeg",5,3,3,NA,"Instruments",2,"stim/objects/Instruments/cello2.png",2,"right","left",0.519000053,0,0,1
"147",5,147,0.9,"stim/54.jpeg",5,4,3,NA,"Instruments",2,"stim/objects/Instruments/chime2.png",4,"right","right",0.677999735,1,1,1
"148",5,148,0.3,"stim/44.jpeg",4,4,2,NA,"Instruments",2,"stim/objects/Instruments/banjo2.png",1,"right","left",0.757999897,0,0,1
"149",5,149,0.9,"stim/61.jpeg",6,1,3,NA,"HouseObjects",1,"stim/objects/HouseObjects/bucket2.png",3,"left","left",0.832999945,1,1,1
"150",5,150,0.9,"stim/51.jpeg",5,1,3,NA,"Instruments",2,"stim/objects/Instruments/bassdrum2.png",1,"right","right",0.676999807,1,1,1
"151",5,151,0.5,"stim/13.jpeg",1,3,1,NA,"Instruments",2,"stim/objects/Instruments/balalaika.png",2,"right","left",0.667999983,0,0,1
"152",5,152,0.3,"stim/44.jpeg",4,4,2,NA,"Instruments",2,"stim/objects/Instruments/banjo2.png",4,"right","left",0.734999895,0,0,1
"153",5,153,0.5,"stim/13.jpeg",1,3,1,NA,"HouseObjects",1,"stim/objects/HouseObjects/barbecuelighter.png",4,"left","",NA,0,0,1
"154",5,154,0.5,"stim/11.jpeg",1,1,1,NA,"Instruments",2,"stim/objects/Instruments/accordion.png",3,"right","right",0.74000001,1,1,1
"155",5,155,0.7,"stim/31.jpeg",3,1,2,NA,"Instruments",2,"stim/objects/Instruments/clarinet.png",1,"right","left",0.494999886,0,0,1
"156",5,156,0.5,"stim/21.jpeg",2,1,1,NA,"Instruments",2,"stim/objects/Instruments/bassdrum.png",1,"right","",NA,0,0,1
"157",5,157,0.5,"stim/11.jpeg",1,1,1,NA,"Instruments",2,"stim/objects/Instruments/accordion.png",4,"right","right",0.578000069,1,1,1
"158",5,158,0.9,"stim/51.jpeg",5,1,3,NA,"Instruments",2,"stim/objects/Instruments/bassdrum2.png",3,"right","right",0.682999849,1,1,1
"159",5,159,0.9,"stim/63.jpeg",6,3,3,NA,"HouseObjects",1,"stim/objects/HouseObjects/clothesdryingrack2.png",4,"left","left",0.664000034,1,1,1
"160",5,160,0.7,"stim/34.jpeg",3,4,2,NA,"Instruments",2,"stim/objects/Instruments/doublebass.png",4,"right","",NA,0,0,1
"161",5,161,0.5,"stim/24.jpeg",2,4,1,NA,"HouseObjects",1,"stim/objects/HouseObjects/broom.png",4,"left","left",0.601999998,1,1,1
"162",5,162,0.9,"stim/52.jpeg",5,2,3,NA,"Instruments",2,"stim/objects/Instruments/bassguitar2.png",1,"right","right",0.552000046,1,1,1
"163",5,163,0.5,"stim/22.jpeg",2,2,1,NA,"Instruments",2,"stim/objects/Instruments/bassguitar.png",1,"right","left",0.559000015,0,0,1
"164",5,164,0.9,"stim/52.jpeg",5,2,3,NA,"Instruments",2,"stim/objects/Instruments/bassguitar2.png",3,"right","right",0.575999975,1,1,1
"165",5,165,0.9,"stim/62.jpeg",6,2,3,NA,"HouseObjects",1,"stim/objects/HouseObjects/clock2.png",3,"left","left",0.650000095,1,1,1
"166",5,166,0.5,"stim/21.jpeg",2,1,1,NA,"HouseObjects",1,"stim/objects/HouseObjects/bleachbottle.png",1,"left","right",0.711999893,0,0,1
"167",5,167,0.7,"stim/44.jpeg",4,4,2,NA,"HouseObjects",1,"stim/objects/HouseObjects/basket2.png",1,"left","",NA,0,0,1
"168",5,168,0.7,"stim/42.jpeg",4,2,2,NA,"HouseObjects",1,"stim/objects/HouseObjects/ballofstring2.png",4,"left","",NA,0,0,1
"169",5,169,0.9,"stim/52.jpeg",5,2,3,NA,"Instruments",2,"stim/objects/Instruments/bassguitar2.png",1,"right","left",0.422999859,0,0,1
"170",5,170,0.5,"stim/12.jpeg",1,2,1,NA,"HouseObjects",1,"stim/objects/HouseObjects/ballofstring.png",2,"left","",NA,0,0,1
"171",5,171,0.5,"stim/22.jpeg",2,2,1,NA,"Instruments",2,"stim/objects/Instruments/bassguitar.png",2,"right","left",0.439999819,0,0,1
"172",5,172,0.5,"stim/22.jpeg",2,2,1,NA,"Instruments",2,"stim/objects/Instruments/bassguitar.png",1,"right","left",0.776000023,0,0,1
"173",5,173,0.5,"stim/21.jpeg",2,1,1,NA,"Instruments",2,"stim/objects/Instruments/bassdrum.png",2,"right","",NA,0,0,1
"174",5,174,0.9,"stim/61.jpeg",6,1,3,NA,"HouseObjects",1,"stim/objects/HouseObjects/bucket2.png",2,"left","left",0.553999901,1,1,1
"175",5,175,0.9,"stim/53.jpeg",5,3,3,NA,"Instruments",2,"stim/objects/Instruments/cello2.png",2,"right","right",0.576999903,1,1,1
"176",5,176,0.5,"stim/13.jpeg",1,3,1,NA,"HouseObjects",1,"stim/objects/HouseObjects/barbecuelighter.png",1,"left","left",0.463999987,1,1,1
"177",5,177,0.1,"stim/63.jpeg",6,3,3,NA,"Instruments",2,"stim/objects/Instruments/cymbal2.png",4,"right","left",0.620000124,0,0,1
"178",5,178,0.9,"stim/51.jpeg",5,1,3,NA,"Instruments",2,"stim/objects/Instruments/bassdrum2.png",1,"right","right",0.637999773,1,1,1
"179",5,179,0.5,"stim/21.jpeg",2,1,1,NA,"Instruments",2,"stim/objects/Instruments/bassdrum.png",1,"right","right",0.815999985,1,1,1
"180",5,180,0.1,"stim/52.jpeg",5,2,3,NA,"HouseObjects",1,"stim/objects/HouseObjects/blender2.png",3,"left","",NA,0,0,1
"181",5,181,0.9,"stim/51.jpeg",5,1,3,NA,"Instruments",2,"stim/objects/Instruments/bassdrum2.png",1,"right","right",0.622999907,1,1,1
"182",5,182,0.9,"stim/62.jpeg",6,2,3,NA,"HouseObjects",1,"stim/objects/HouseObjects/clock2.png",3,"left","left",0.697000027,1,1,1
"183",5,183,0.9,"stim/52.jpeg",5,2,3,NA,"Instruments",2,"stim/objects/Instruments/bassguitar2.png",3,"right","right",0.755999804,1,1,1
"184",5,184,0.5,"stim/12.jpeg",1,2,1,NA,"HouseObjects",1,"stim/objects/HouseObjects/ballofstring.png",1,"left","left",0.776000023,1,1,1
"185",5,185,0.5,"stim/22.jpeg",2,2,1,NA,"HouseObjects",1,"stim/objects/HouseObjects/blender.png",2,"left","",NA,0,0,1
"186",5,186,0.7,"stim/44.jpeg",4,4,2,NA,"HouseObjects",1,"stim/objects/HouseObjects/basket2.png",3,"left","left",0.697000027,1,1,1
"187",5,187,0.7,"stim/43.jpeg",4,3,2,NA,"HouseObjects",1,"stim/objects/HouseObjects/barbecuelighter2.png",4,"left","right",0.855000019,0,0,1
"188",5,188,0.9,"stim/53.jpeg",5,3,3,NA,"Instruments",2,"stim/objects/Instruments/cello2.png",1,"right","right",0.657999992,1,1,1
"189",5,189,0.3,"stim/32.jpeg",3,2,2,NA,"HouseObjects",1,"stim/objects/HouseObjects/clock.png",4,"left","",NA,0,0,1
"190",5,190,0.9,"stim/54.jpeg",5,4,3,NA,"Instruments",2,"stim/objects/Instruments/chime2.png",3,"right","",NA,0,0,1
"191",5,191,0.7,"stim/42.jpeg",4,2,2,NA,"HouseObjects",1,"stim/objects/HouseObjects/ballofstring2.png",2,"left","left",0.796999931,1,1,1
"192",5,192,0.5,"stim/23.jpeg",2,3,1,NA,"Instruments",2,"stim/objects/Instruments/cello.png",2,"right","",NA,0,0,1
"193",5,193,0.9,"stim/61.jpeg",6,1,3,NA,"HouseObjects",1,"stim/objects/HouseObjects/bucket2.png",2,"left","left",0.579999924,1,1,1
"194",5,194,0.3,"stim/41.jpeg",4,1,2,NA,"Instruments",2,"stim/objects/Instruments/accordion2.png",2,"right","left",0.647999763,0,0,1
"195",5,195,0.5,"stim/24.jpeg",2,4,1,NA,"Instruments",2,"stim/objects/Instruments/chime.png",4,"right","",NA,0,0,1
"196",5,196,0.7,"stim/31.jpeg",3,1,2,NA,"Instruments",2,"stim/objects/Instruments/clarinet.png",4,"right","left",0.381000042,0,0,1
"197",5,197,0.7,"stim/42.jpeg",4,2,2,NA,"HouseObjects",1,"stim/objects/HouseObjects/ballofstring2.png",4,"left","right",0.513000011,0,0,1
"198",5,198,0.9,"stim/64.jpeg",6,4,3,NA,"HouseObjects",1,"stim/objects/HouseObjects/clothespin2.png",3,"left","left",0.605999947,1,1,1
"199",5,199,0.5,"stim/21.jpeg",2,1,1,NA,"HouseObjects",1,"stim/objects/HouseObjects/bleachbottle.png",4,"left","left",0.730000019,1,1,1
"200",5,200,0.9,"stim/54.jpeg",5,4,3,NA,"Instruments",2,"stim/objects/Instruments/chime2.png",2,"right","",NA,0,0,1
"201",5,201,0.9,"stim/64.jpeg",6,4,3,NA,"HouseObjects",1,"stim/objects/HouseObjects/clothespin2.png",3,"left","left",0.506999969,1,1,1
"202",5,202,0.7,"stim/44.jpeg",4,4,2,NA,"HouseObjects",1,"stim/objects/HouseObjects/basket2.png",3,"left","left",0.527999878,1,1,1
"203",5,203,0.5,"stim/14.jpeg",1,4,1,NA,"HouseObjects",1,"stim/objects/HouseObjects/basket.png",2,"left","left",0.818000078,1,1,1
"204",5,204,0.9,"stim/52.jpeg",5,2,3,NA,"Instruments",2,"stim/objects/Instruments/bassguitar2.png",1,"right","right",0.839999914,1,1,1
"205",5,205,0.5,"stim/22.jpeg",2,2,1,NA,"Instruments",2,"stim/objects/Instruments/bassguitar.png",1,"right","left",0.565999985,0,0,1
"206",5,206,0.5,"stim/11.jpeg",1,1,1,NA,"HouseObjects",1,"stim/objects/HouseObjects/ashtray.png",2,"left","",NA,0,0,1
"207",5,207,0.3,"stim/43.jpeg",4,3,2,NA,"Instruments",2,"stim/objects/Instruments/balalaika2.png",2,"right","right",0.746000051,1,1,1
"208",5,208,0.9,"stim/53.jpeg",5,3,3,NA,"Instruments",2,"stim/objects/Instruments/cello2.png",2,"right","right",0.602999926,1,1,1
"209",5,209,0.5,"stim/22.jpeg",2,2,1,NA,"HouseObjects",1,"stim/objects/HouseObjects/blender.png",4,"left","left",0.305000067,1,1,1
"210",5,210,0.7,"stim/41.jpeg",4,1,2,NA,"HouseObjects",1,"stim/objects/HouseObjects/ashtray2.png",2,"left","left",0.735999823,1,1,1
"211",5,211,0.5,"stim/11.jpeg",1,1,1,NA,"HouseObjects",1,"stim/objects/HouseObjects/ashtray.png",2,"left","right",0.781000137,0,0,1
"212",5,212,0.7,"stim/33.jpeg",3,3,2,NA,"Instruments",2,"stim/objects/Instruments/cymbal.png",2,"right","left",0.506999969,0,0,1
"213",5,213,0.5,"stim/14.jpeg",1,4,1,NA,"HouseObjects",1,"stim/objects/HouseObjects/basket.png",3,"left","right",0.776000023,0,0,1
"214",5,214,0.3,"stim/34.jpeg",3,4,2,NA,"HouseObjects",1,"stim/objects/HouseObjects/clothespin.png",4,"left","right",0.747999907,0,0,1
"215",5,215,0.5,"stim/24.jpeg",2,4,1,NA,"HouseObjects",1,"stim/objects/HouseObjects/broom.png",2,"left","right",0.836999893,0,0,1
"216",5,216,0.3,"stim/43.jpeg",4,3,2,NA,"Instruments",2,"stim/objects/Instruments/balalaika2.png",3,"right","left",0.692000151,0,0,1
"217",5,217,0.5,"stim/13.jpeg",1,3,1,NA,"Instruments",2,"stim/objects/Instruments/balalaika.png",3,"right","",NA,0,0,1
"218",5,218,0.5,"stim/23.jpeg",2,3,1,NA,"Instruments",2,"stim/objects/Instruments/cello.png",3,"right","",NA,0,0,1
"219",5,219,0.9,"stim/64.jpeg",6,4,3,NA,"HouseObjects",1,"stim/objects/HouseObjects/clothespin2.png",1,"left","left",0.580999851,1,1,1
"220",5,220,0.7,"stim/43.jpeg",4,3,2,NA,"HouseObjects",1,"stim/objects/HouseObjects/barbecuelighter2.png",2,"left","left",0.61199975,1,1,1
"221",5,221,0.7,"stim/32.jpeg",3,2,2,NA,"Instruments",2,"stim/objects/Instruments/cornet.png",1,"right","left",0.866999865,0,0,1
"222",5,222,0.7,"stim/31.jpeg",3,1,2,NA,"Instruments",2,"stim/objects/Instruments/clarinet.png",4,"right","",NA,0,0,1
"223",5,223,0.3,"stim/31.jpeg",3,1,2,NA,"HouseObjects",1,"stim/objects/HouseObjects/bucket.png",3,"left","right",0.730000019,0,0,1
"224",5,224,0.3,"stim/44.jpeg",4,4,2,NA,"Instruments",2,"stim/objects/Instruments/banjo2.png",3,"right","left",0.681999922,0,0,1
"225",5,225,0.7,"stim/33.jpeg",3,3,2,NA,"Instruments",2,"stim/objects/Instruments/cymbal.png",1,"right","right",0.611000061,1,1,1
"226",5,226,0.7,"stim/34.jpeg",3,4,2,NA,"Instruments",2,"stim/objects/Instruments/doublebass.png",3,"right","",NA,0,0,1
"227",5,227,0.5,"stim/13.jpeg",1,3,1,NA,"HouseObjects",1,"stim/objects/HouseObjects/barbecuelighter.png",1,"left","left",0.746000051,1,1,1
"228",5,228,0.9,"stim/61.jpeg",6,1,3,NA,"HouseObjects",1,"stim/objects/HouseObjects/bucket2.png",2,"left","left",0.616999865,1,1,1
"229",5,229,0.3,"stim/31.jpeg",3,1,2,NA,"HouseObjects",1,"stim/objects/HouseObjects/bucket.png",2,"left","right",0.779999971,0,0,1
"230",5,230,0.7,"stim/31.jpeg",3,1,2,NA,"Instruments",2,"stim/objects/Instruments/clarinet.png",1,"right","right",0.635999918,1,1,1
"231",5,231,0.3,"stim/34.jpeg",3,4,2,NA,"HouseObjects",1,"stim/objects/HouseObjects/clothespin.png",1,"left","right",0.690999985,0,0,1
"232",5,232,0.5,"stim/23.jpeg",2,3,1,NA,"Instruments",2,"stim/objects/Instruments/cello.png",4,"right","",NA,0,0,1
"233",5,233,0.3,"stim/34.jpeg",3,4,2,NA,"HouseObjects",1,"stim/objects/HouseObjects/clothespin.png",1,"left","right",0.686000109,0,0,1
"234",5,234,0.7,"stim/33.jpeg",3,3,2,NA,"Instruments",2,"stim/objects/Instruments/cymbal.png",2,"right","right",0.645999908,1,1,1
"235",5,235,0.5,"stim/24.jpeg",2,4,1,NA,"Instruments",2,"stim/objects/Instruments/chime.png",3,"right","",NA,0,0,1
"236",5,236,0.5,"stim/12.jpeg",1,2,1,NA,"Instruments",2,"stim/objects/Instruments/acousticguitar.png",2,"right","right",0.485999823,1,1,1
"237",5,237,0.7,"stim/44.jpeg",4,4,2,NA,"HouseObjects",1,"stim/objects/HouseObjects/basket2.png",2,"left","left",0.649999857,1,1,1
"238",5,238,0.5,"stim/14.jpeg",1,4,1,NA,"Instruments",2,"stim/objects/Instruments/banjo.png",3,"right","right",0.686000109,1,1,1
"239",5,239,0.9,"stim/51.jpeg",5,1,3,NA,"Instruments",2,"stim/objects/Instruments/bassdrum2.png",4,"right","right",0.667999983,1,1,1
"240",5,240,0.7,"stim/41.jpeg",4,1,2,NA,"HouseObjects",1,"stim/objects/HouseObjects/ashtray2.png",4,"left","",NA,0,0,1
