"","participant","trial_index","trial_cond","scn_file","scn_cat","scn_inst","scn_condition","fillers","obj_cat","obj_cat_num","obj_file","quadrant","corr_ans","key_resp_trial.keys","key_resp_trial.rt","trial_acc","trial_acc_manual","group"
"1",53,1,0.9,"stim/51.jpeg",5,1,3,NA,"HouseObjects",2,"stim/objects/HouseObjects/safetypin2.png",4,"right","",NA,0,0,0
"2",53,2,0.7,"stim/31.jpeg",3,1,2,NA,"HouseObjects",2,"stim/objects/HouseObjects/spraybottle.png",4,"right","",NA,0,0,0
"3",53,3,0.9,"stim/51.jpeg",5,1,3,NA,"HouseObjects",2,"stim/objects/HouseObjects/safetypin2.png",4,"right","right",0.888000011,1,1,0
"4",53,4,0.5,"stim/11.jpeg",1,1,1,NA,"HouseObjects",2,"stim/objects/HouseObjects/recyclingbin.png",2,"right","",NA,0,0,0
"5",53,5,0.9,"stim/61.jpeg",6,1,3,NA,"Instruments",1,"stim/objects/Instruments/triangle2.png",2,"left","left",0.631999969,1,1,0
"6",53,6,0.5,"stim/21.jpeg",2,1,1,NA,"Instruments",1,"stim/objects/Instruments/saxophone.png",3,"left","left",0.815999985,1,1,0
"7",53,7,0.7,"stim/42.jpeg",4,2,2,NA,"Instruments",1,"stim/objects/Instruments/pipepiano2.png",2,"left","left",0.822000027,1,1,0
"8",53,8,0.9,"stim/53.jpeg",5,3,3,NA,"HouseObjects",2,"stim/objects/HouseObjects/scale2.png",1,"right","right",0.588999987,1,1,0
"9",53,9,0.3,"stim/42.jpeg",4,2,2,NA,"HouseObjects",2,"stim/objects/HouseObjects/remote2.png",2,"right","left",0.703000069,0,0,0
"10",53,10,0.7,"stim/42.jpeg",4,2,2,NA,"Instruments",1,"stim/objects/Instruments/pipepiano2.png",1,"left","left",0.627000093,1,1,0
"11",53,11,0.5,"stim/11.jpeg",1,1,1,NA,"HouseObjects",2,"stim/objects/HouseObjects/recyclingbin.png",3,"right","left",0.782000065,0,0,0
"12",53,12,0.9,"stim/62.jpeg",6,2,3,NA,"Instruments",1,"stim/objects/Instruments/trombone2.png",1,"left","left",0.647000074,1,1,0
"13",53,13,0.5,"stim/22.jpeg",2,2,1,NA,"HouseObjects",2,"stim/objects/HouseObjects/saw.png",1,"right","",NA,0,0,0
"14",53,14,0.9,"stim/63.jpeg",6,3,3,NA,"Instruments",1,"stim/objects/Instruments/trumpet2.png",2,"left","left",0.694000006,1,1,0
"15",53,15,0.5,"stim/11.jpeg",1,1,1,NA,"HouseObjects",2,"stim/objects/HouseObjects/recyclingbin.png",1,"right","right",0.855000019,1,1,0
"16",53,16,0.9,"stim/52.jpeg",5,2,3,NA,"HouseObjects",2,"stim/objects/HouseObjects/saw2.png",1,"right","right",0.607000113,1,1,0
"17",53,17,0.9,"stim/64.jpeg",6,4,3,NA,"Instruments",1,"stim/objects/Instruments/tuba2.png",2,"left","left",0.580000162,1,1,0
"18",53,18,0.5,"stim/13.jpeg",1,3,1,NA,"Instruments",1,"stim/objects/Instruments/record.png",2,"left","",NA,0,0,0
"19",53,19,0.7,"stim/31.jpeg",3,1,2,NA,"HouseObjects",2,"stim/objects/HouseObjects/spraybottle.png",3,"right","right",0.638999939,1,1,0
"20",53,20,0.3,"stim/44.jpeg",4,4,2,NA,"HouseObjects",2,"stim/objects/HouseObjects/rug2.png",2,"right","",NA,0,0,0
"21",53,21,0.5,"stim/23.jpeg",2,3,1,NA,"Instruments",1,"stim/objects/Instruments/tambourine.png",4,"left","",NA,0,0,0
"22",53,22,0.5,"stim/12.jpeg",1,2,1,NA,"Instruments",1,"stim/objects/Instruments/pipepiano.png",3,"left","",NA,0,0,0
"23",53,23,0.9,"stim/61.jpeg",6,1,3,NA,"Instruments",1,"stim/objects/Instruments/triangle2.png",3,"left","left",0.693000078,1,1,0
"24",53,24,0.7,"stim/32.jpeg",3,2,2,NA,"HouseObjects",2,"stim/objects/HouseObjects/teapot.png",3,"right","",NA,0,0,0
"25",53,25,0.5,"stim/12.jpeg",1,2,1,NA,"HouseObjects",2,"stim/objects/HouseObjects/remote.png",2,"right","left",0.898000002,0,0,0
"26",53,26,0.5,"stim/12.jpeg",1,2,1,NA,"HouseObjects",2,"stim/objects/HouseObjects/remote.png",2,"right","left",0.592000008,0,0,0
"27",53,27,0.7,"stim/34.jpeg",3,4,2,NA,"HouseObjects",2,"stim/objects/HouseObjects/thread.png",4,"right","right",0.763999939,1,1,0
"28",53,28,0.7,"stim/31.jpeg",3,1,2,NA,"HouseObjects",2,"stim/objects/HouseObjects/spraybottle.png",3,"right","right",0.835000038,1,1,0
"29",53,29,0.5,"stim/22.jpeg",2,2,1,NA,"Instruments",1,"stim/objects/Instruments/speaker.png",1,"left","",NA,0,0,0
"30",53,30,0.5,"stim/13.jpeg",1,3,1,NA,"HouseObjects",2,"stim/objects/HouseObjects/rubbergloves.png",3,"right","",NA,0,0,0
"31",53,31,0.7,"stim/44.jpeg",4,4,2,NA,"Instruments",1,"stim/objects/Instruments/record_player2.png",1,"left","left",0.864000082,1,1,0
"32",53,32,0.3,"stim/33.jpeg",3,3,2,NA,"Instruments",1,"stim/objects/Instruments/trumpet.png",4,"left","right",0.506999969,0,0,0
"33",53,33,0.5,"stim/22.jpeg",2,2,1,NA,"HouseObjects",2,"stim/objects/HouseObjects/saw.png",1,"right","left",0.644000053,0,0,0
"34",53,34,0.5,"stim/24.jpeg",2,4,1,NA,"Instruments",1,"stim/objects/Instruments/timbal.png",3,"left","left",0.687000036,1,1,0
"35",53,35,0.7,"stim/41.jpeg",4,1,2,NA,"Instruments",1,"stim/objects/Instruments/panflute2.png",2,"left","left",0.664000034,1,1,0
"36",53,36,0.9,"stim/52.jpeg",5,2,3,NA,"HouseObjects",2,"stim/objects/HouseObjects/saw2.png",2,"right","right",0.476999998,1,1,0
"37",53,37,0.9,"stim/63.jpeg",6,3,3,NA,"Instruments",1,"stim/objects/Instruments/trumpet2.png",3,"left","left",0.595999956,1,1,0
"38",53,38,0.5,"stim/14.jpeg",1,4,1,NA,"HouseObjects",2,"stim/objects/HouseObjects/rug.png",4,"right","left",0.80099988,0,0,0
"39",53,39,0.5,"stim/12.jpeg",1,2,1,NA,"Instruments",1,"stim/objects/Instruments/pipepiano.png",4,"left","",NA,0,0,0
"40",53,40,0.7,"stim/32.jpeg",3,2,2,NA,"HouseObjects",2,"stim/objects/HouseObjects/teapot.png",1,"right","",NA,0,0,0
"41",53,41,0.1,"stim/63.jpeg",6,3,3,NA,"HouseObjects",2,"stim/objects/HouseObjects/thermometer2.png",4,"right","",NA,0,0,0
"42",53,42,0.7,"stim/32.jpeg",3,2,2,NA,"HouseObjects",2,"stim/objects/HouseObjects/teapot.png",3,"right","",NA,0,0,0
"43",53,43,0.3,"stim/31.jpeg",3,1,2,NA,"Instruments",1,"stim/objects/Instruments/triangle.png",2,"left","",NA,0,0,0
"44",53,44,0.7,"stim/44.jpeg",4,4,2,NA,"Instruments",1,"stim/objects/Instruments/record_player2.png",2,"left","left",0.840000153,1,1,0
"45",53,45,0.7,"stim/43.jpeg",4,3,2,NA,"Instruments",1,"stim/objects/Instruments/record2.png",4,"left","",NA,0,0,0
"46",53,46,0.1,"stim/64.jpeg",6,4,3,NA,"HouseObjects",2,"stim/objects/HouseObjects/thread2.png",4,"right","",NA,0,0,0
"47",53,47,0.7,"stim/41.jpeg",4,1,2,NA,"Instruments",1,"stim/objects/Instruments/panflute2.png",2,"left","",NA,0,0,0
"48",53,48,0.7,"stim/41.jpeg",4,1,2,NA,"Instruments",1,"stim/objects/Instruments/panflute2.png",1,"left","",NA,0,0,0
"49",53,49,0.9,"stim/53.jpeg",5,3,3,NA,"HouseObjects",2,"stim/objects/HouseObjects/scale2.png",1,"right","right",0.582000017,1,1,0
"50",53,50,0.7,"stim/33.jpeg",3,3,2,NA,"HouseObjects",2,"stim/objects/HouseObjects/thermometer.png",2,"right","left",0.495000124,0,0,0
"51",53,51,0.5,"stim/13.jpeg",1,3,1,NA,"Instruments",1,"stim/objects/Instruments/record.png",3,"left","left",0.578000069,1,1,0
"52",53,52,0.9,"stim/54.jpeg",5,4,3,NA,"HouseObjects",2,"stim/objects/HouseObjects/sponge2.png",2,"right","right",0.507999897,1,1,0
"53",53,53,0.5,"stim/21.jpeg",2,1,1,NA,"HouseObjects",2,"stim/objects/HouseObjects/safetypin.png",3,"right","left",0.535000086,0,0,0
"54",53,54,0.5,"stim/23.jpeg",2,3,1,NA,"HouseObjects",2,"stim/objects/HouseObjects/scale.png",3,"right","left",0.80700016,0,0,0
"55",53,55,0.5,"stim/21.jpeg",2,1,1,NA,"HouseObjects",2,"stim/objects/HouseObjects/safetypin.png",3,"right","left",0.847999811,0,0,0
"56",53,56,0.5,"stim/14.jpeg",1,4,1,NA,"Instruments",1,"stim/objects/Instruments/record_player.png",1,"left","",NA,0,0,0
"57",53,57,0.1,"stim/51.jpeg",5,1,3,NA,"Instruments",1,"stim/objects/Instruments/saxophone2.png",4,"left","right",0.467000008,0,0,0
"58",53,58,0.9,"stim/61.jpeg",6,1,3,NA,"Instruments",1,"stim/objects/Instruments/triangle2.png",3,"left","left",0.512000084,1,1,0
"59",53,59,0.5,"stim/13.jpeg",1,3,1,NA,"Instruments",1,"stim/objects/Instruments/record.png",1,"left","left",0.717000008,1,1,0
"60",53,60,0.1,"stim/54.jpeg",5,4,3,NA,"Instruments",1,"stim/objects/Instruments/timbal2.png",1,"left","right",0.575000048,0,0,0
"61",53,61,0.9,"stim/61.jpeg",6,1,3,NA,"Instruments",1,"stim/objects/Instruments/triangle2.png",4,"left","left",0.526000023,1,1,0
"62",53,62,0.9,"stim/64.jpeg",6,4,3,NA,"Instruments",1,"stim/objects/Instruments/tuba2.png",3,"left","left",0.000999928,1,1,0
"63",53,63,0.5,"stim/13.jpeg",1,3,1,NA,"Instruments",1,"stim/objects/Instruments/record.png",1,"left","left",0.828999996,1,1,0
"64",53,64,0.7,"stim/43.jpeg",4,3,2,NA,"Instruments",1,"stim/objects/Instruments/record2.png",1,"left","left",0.636999846,1,1,0
"65",53,65,0.9,"stim/52.jpeg",5,2,3,NA,"HouseObjects",2,"stim/objects/HouseObjects/saw2.png",2,"right","right",0.526000023,1,1,0
"66",53,66,0.9,"stim/54.jpeg",5,4,3,NA,"HouseObjects",2,"stim/objects/HouseObjects/sponge2.png",1,"right","right",0.773000002,1,1,0
"67",53,67,0.7,"stim/34.jpeg",3,4,2,NA,"HouseObjects",2,"stim/objects/HouseObjects/thread.png",2,"right","right",0.64199996,1,1,0
"68",53,68,0.3,"stim/33.jpeg",3,3,2,NA,"Instruments",1,"stim/objects/Instruments/trumpet.png",3,"left","right",0.572000027,0,0,0
"69",53,69,0.5,"stim/12.jpeg",1,2,1,NA,"Instruments",1,"stim/objects/Instruments/pipepiano.png",1,"left","left",0.32799983,1,1,0
"70",53,70,0.3,"stim/41.jpeg",4,1,2,NA,"HouseObjects",2,"stim/objects/HouseObjects/recyclingbin2.png",3,"right","left",0.606999874,0,0,0
"71",53,71,0.3,"stim/31.jpeg",3,1,2,NA,"Instruments",1,"stim/objects/Instruments/triangle.png",2,"left","right",0.575999975,0,0,0
"72",53,72,0.1,"stim/52.jpeg",5,2,3,NA,"Instruments",1,"stim/objects/Instruments/speaker2.png",3,"left","right",0.637000084,0,0,0
"73",53,73,0.3,"stim/42.jpeg",4,2,2,NA,"HouseObjects",2,"stim/objects/HouseObjects/remote2.png",3,"right","",NA,0,0,0
"74",53,74,0.9,"stim/62.jpeg",6,2,3,NA,"Instruments",1,"stim/objects/Instruments/trombone2.png",4,"left","left",0.564999819,1,1,0
"75",53,75,0.7,"stim/42.jpeg",4,2,2,NA,"Instruments",1,"stim/objects/Instruments/pipepiano2.png",3,"left","left",0.812000036,1,1,0
"76",53,76,0.5,"stim/23.jpeg",2,3,1,NA,"HouseObjects",2,"stim/objects/HouseObjects/scale.png",1,"right","",NA,0,0,0
"77",53,77,0.9,"stim/54.jpeg",5,4,3,NA,"HouseObjects",2,"stim/objects/HouseObjects/sponge2.png",4,"right","right",0.606000185,1,1,0
"78",53,78,0.9,"stim/62.jpeg",6,2,3,NA,"Instruments",1,"stim/objects/Instruments/trombone2.png",1,"left","left",0.493000031,1,1,0
"79",53,79,0.9,"stim/61.jpeg",6,1,3,NA,"Instruments",1,"stim/objects/Instruments/triangle2.png",3,"left","left",0.507999897,1,1,0
"80",53,80,0.9,"stim/62.jpeg",6,2,3,NA,"Instruments",1,"stim/objects/Instruments/trombone2.png",4,"left","left",0.523999929,1,1,0
"81",53,81,0.3,"stim/32.jpeg",3,2,2,NA,"Instruments",1,"stim/objects/Instruments/trombone.png",2,"left","right",0.479000092,0,0,0
"82",53,82,0.5,"stim/11.jpeg",1,1,1,NA,"Instruments",1,"stim/objects/Instruments/panflute.png",4,"left","",NA,0,0,0
"83",53,83,0.7,"stim/44.jpeg",4,4,2,NA,"Instruments",1,"stim/objects/Instruments/record_player2.png",1,"left","left",0.646000147,1,1,0
"84",53,84,0.5,"stim/24.jpeg",2,4,1,NA,"Instruments",1,"stim/objects/Instruments/timbal.png",2,"left","",NA,0,0,0
"85",53,85,0.9,"stim/51.jpeg",5,1,3,NA,"HouseObjects",2,"stim/objects/HouseObjects/safetypin2.png",1,"right","right",0.493000031,1,1,0
"86",53,86,0.5,"stim/11.jpeg",1,1,1,NA,"Instruments",1,"stim/objects/Instruments/panflute.png",1,"left","left",0.882999897,1,1,0
"87",53,87,0.9,"stim/52.jpeg",5,2,3,NA,"HouseObjects",2,"stim/objects/HouseObjects/saw2.png",4,"right","right",0.549000025,1,1,0
"88",53,88,0.9,"stim/63.jpeg",6,3,3,NA,"Instruments",1,"stim/objects/Instruments/trumpet2.png",4,"left","left",0.537999868,1,1,0
"89",53,89,0.7,"stim/44.jpeg",4,4,2,NA,"Instruments",1,"stim/objects/Instruments/record_player2.png",3,"left","left",0.803999901,1,1,0
"90",53,90,0.3,"stim/31.jpeg",3,1,2,NA,"Instruments",1,"stim/objects/Instruments/triangle.png",3,"left","right",0.571000099,0,0,0
"91",53,91,0.3,"stim/43.jpeg",4,3,2,NA,"HouseObjects",2,"stim/objects/HouseObjects/rubbergloves2.png",4,"right","",NA,0,0,0
"92",53,92,0.9,"stim/51.jpeg",5,1,3,NA,"HouseObjects",2,"stim/objects/HouseObjects/safetypin2.png",3,"right","left",0.496999979,0,0,0
"93",53,93,0.9,"stim/53.jpeg",5,3,3,NA,"HouseObjects",2,"stim/objects/HouseObjects/scale2.png",3,"right","left",0.412000179,0,0,0
"94",53,94,0.9,"stim/64.jpeg",6,4,3,NA,"Instruments",1,"stim/objects/Instruments/tuba2.png",3,"left","left",0.486999989,1,1,0
"95",53,95,0.7,"stim/42.jpeg",4,2,2,NA,"Instruments",1,"stim/objects/Instruments/pipepiano2.png",4,"left","left",0.79399991,1,1,0
"96",53,96,0.3,"stim/32.jpeg",3,2,2,NA,"Instruments",1,"stim/objects/Instruments/trombone.png",3,"left","",NA,0,0,0
"97",53,97,0.7,"stim/31.jpeg",3,1,2,NA,"HouseObjects",2,"stim/objects/HouseObjects/spraybottle.png",2,"right","right",0.546000004,1,1,0
"98",53,98,0.7,"stim/31.jpeg",3,1,2,NA,"HouseObjects",2,"stim/objects/HouseObjects/spraybottle.png",2,"right","right",0.491999865,1,1,0
"99",53,99,0.5,"stim/12.jpeg",1,2,1,NA,"HouseObjects",2,"stim/objects/HouseObjects/remote.png",3,"right","left",0.782999992,0,0,0
"100",53,100,0.7,"stim/41.jpeg",4,1,2,NA,"Instruments",1,"stim/objects/Instruments/panflute2.png",1,"left","left",0.830000162,1,1,0
"101",53,101,0.5,"stim/12.jpeg",1,2,1,NA,"Instruments",1,"stim/objects/Instruments/pipepiano.png",2,"left","right",0.762000084,0,0,0
"102",53,102,0.9,"stim/53.jpeg",5,3,3,NA,"HouseObjects",2,"stim/objects/HouseObjects/scale2.png",2,"right","right",0.690000057,1,1,0
"103",53,103,0.5,"stim/12.jpeg",1,2,1,NA,"Instruments",1,"stim/objects/Instruments/pipepiano.png",4,"left","left",0.796000004,1,1,0
"104",53,104,0.9,"stim/53.jpeg",5,3,3,NA,"HouseObjects",2,"stim/objects/HouseObjects/scale2.png",1,"right","",NA,0,0,0
"105",53,105,0.7,"stim/42.jpeg",4,2,2,NA,"Instruments",1,"stim/objects/Instruments/pipepiano2.png",4,"left","left",0.546000004,1,1,0
"106",53,106,0.3,"stim/44.jpeg",4,4,2,NA,"HouseObjects",2,"stim/objects/HouseObjects/rug2.png",4,"right","left",0.827000141,0,0,0
"107",53,107,0.5,"stim/23.jpeg",2,3,1,NA,"HouseObjects",2,"stim/objects/HouseObjects/scale.png",4,"right","right",0.616999865,1,1,0
"108",53,108,0.7,"stim/43.jpeg",4,3,2,NA,"Instruments",1,"stim/objects/Instruments/record2.png",3,"left","left",0.575000048,1,1,0
"109",53,109,0.9,"stim/64.jpeg",6,4,3,NA,"Instruments",1,"stim/objects/Instruments/tuba2.png",1,"left","",NA,0,0,0
"110",53,110,0.5,"stim/11.jpeg",1,1,1,NA,"Instruments",1,"stim/objects/Instruments/panflute.png",2,"left","left",0.598999977,1,1,0
"111",53,111,0.7,"stim/43.jpeg",4,3,2,NA,"Instruments",1,"stim/objects/Instruments/record2.png",1,"left","left",0.770999908,1,1,0
"112",53,112,0.7,"stim/34.jpeg",3,4,2,NA,"HouseObjects",2,"stim/objects/HouseObjects/thread.png",3,"right","",NA,0,0,0
"113",53,113,0.5,"stim/14.jpeg",1,4,1,NA,"HouseObjects",2,"stim/objects/HouseObjects/rug.png",2,"right","left",0.577000141,0,0,0
"114",53,114,0.9,"stim/51.jpeg",5,1,3,NA,"HouseObjects",2,"stim/objects/HouseObjects/safetypin2.png",2,"right","right",0.417999983,1,1,0
"115",53,115,0.7,"stim/43.jpeg",4,3,2,NA,"Instruments",1,"stim/objects/Instruments/record2.png",2,"left","left",0.604000092,1,1,0
"116",53,116,0.5,"stim/22.jpeg",2,2,1,NA,"HouseObjects",2,"stim/objects/HouseObjects/saw.png",2,"right","right",0.64199996,1,1,0
"117",53,117,0.7,"stim/34.jpeg",3,4,2,NA,"HouseObjects",2,"stim/objects/HouseObjects/thread.png",2,"right","right",0.738999844,1,1,0
"118",53,118,0.9,"stim/61.jpeg",6,1,3,NA,"Instruments",1,"stim/objects/Instruments/triangle2.png",4,"left","left",0.480000019,1,1,0
"119",53,119,0.5,"stim/21.jpeg",2,1,1,NA,"HouseObjects",2,"stim/objects/HouseObjects/safetypin.png",3,"right","left",0.709000111,0,0,0
"120",53,120,0.5,"stim/12.jpeg",1,2,1,NA,"HouseObjects",2,"stim/objects/HouseObjects/remote.png",1,"right","right",0.526000023,1,1,0
"121",53,121,0.7,"stim/41.jpeg",4,1,2,NA,"Instruments",1,"stim/objects/Instruments/panflute2.png",1,"left","left",0.820999861,1,1,0
"122",53,122,0.7,"stim/32.jpeg",3,2,2,NA,"HouseObjects",2,"stim/objects/HouseObjects/teapot.png",1,"right","right",0.734999895,1,1,0
"123",53,123,0.7,"stim/42.jpeg",4,2,2,NA,"Instruments",1,"stim/objects/Instruments/pipepiano2.png",3,"left","left",0.764999866,1,1,0
"124",53,124,0.5,"stim/22.jpeg",2,2,1,NA,"HouseObjects",2,"stim/objects/HouseObjects/saw.png",3,"right","left",0.745000124,0,0,0
"125",53,125,0.1,"stim/53.jpeg",5,3,3,NA,"Instruments",1,"stim/objects/Instruments/tambourine2.png",4,"left","right",0.565000057,0,0,0
"126",53,126,0.5,"stim/22.jpeg",2,2,1,NA,"Instruments",1,"stim/objects/Instruments/speaker.png",4,"left","left",0.683000088,1,1,0
"127",53,127,0.9,"stim/54.jpeg",5,4,3,NA,"HouseObjects",2,"stim/objects/HouseObjects/sponge2.png",4,"right","right",0.692000151,1,1,0
"128",53,128,0.5,"stim/13.jpeg",1,3,1,NA,"HouseObjects",2,"stim/objects/HouseObjects/rubbergloves.png",4,"right","right",0.696000099,1,1,0
"129",53,129,0.5,"stim/21.jpeg",2,1,1,NA,"HouseObjects",2,"stim/objects/HouseObjects/safetypin.png",4,"right","",NA,0,0,0
"130",53,130,0.9,"stim/61.jpeg",6,1,3,NA,"Instruments",1,"stim/objects/Instruments/triangle2.png",2,"left","left",0.526000023,1,1,0
"131",53,131,0.5,"stim/23.jpeg",2,3,1,NA,"Instruments",1,"stim/objects/Instruments/tambourine.png",4,"left","right",0.680000067,0,0,0
"132",53,132,0.5,"stim/24.jpeg",2,4,1,NA,"Instruments",1,"stim/objects/Instruments/timbal.png",3,"left","left",0.444999933,1,1,0
"133",53,133,0.7,"stim/41.jpeg",4,1,2,NA,"Instruments",1,"stim/objects/Instruments/panflute2.png",2,"left","left",0.792999983,1,1,0
"134",53,134,0.3,"stim/42.jpeg",4,2,2,NA,"HouseObjects",2,"stim/objects/HouseObjects/remote2.png",2,"right","left",0.728000164,0,0,0
"135",53,135,0.9,"stim/63.jpeg",6,3,3,NA,"Instruments",1,"stim/objects/Instruments/trumpet2.png",3,"left","left",0.54399991,1,1,0
"136",53,136,0.5,"stim/13.jpeg",1,3,1,NA,"HouseObjects",2,"stim/objects/HouseObjects/rubbergloves.png",3,"right","right",0.674000025,1,1,0
"137",53,137,0.5,"stim/21.jpeg",2,1,1,NA,"Instruments",1,"stim/objects/Instruments/saxophone.png",2,"left","left",0.690999985,1,1,0
"138",53,138,0.9,"stim/54.jpeg",5,4,3,NA,"HouseObjects",2,"stim/objects/HouseObjects/sponge2.png",1,"right","right",0.612999916,1,1,0
"139",53,139,0.9,"stim/54.jpeg",5,4,3,NA,"HouseObjects",2,"stim/objects/HouseObjects/sponge2.png",1,"right","right",0.597000122,1,1,0
"140",53,140,0.5,"stim/21.jpeg",2,1,1,NA,"Instruments",1,"stim/objects/Instruments/saxophone.png",3,"left","",NA,0,0,0
"141",53,141,0.9,"stim/63.jpeg",6,3,3,NA,"Instruments",1,"stim/objects/Instruments/trumpet2.png",3,"left","left",0.478000164,1,1,0
"142",53,142,0.7,"stim/44.jpeg",4,4,2,NA,"Instruments",1,"stim/objects/Instruments/record_player2.png",1,"left","",NA,0,0,0
"143",53,143,0.9,"stim/63.jpeg",6,3,3,NA,"Instruments",1,"stim/objects/Instruments/trumpet2.png",3,"left","left",0.493000031,1,1,0
"144",53,144,0.7,"stim/31.jpeg",3,1,2,NA,"HouseObjects",2,"stim/objects/HouseObjects/spraybottle.png",4,"right","right",0.635000229,1,1,0
"145",53,145,0.9,"stim/64.jpeg",6,4,3,NA,"Instruments",1,"stim/objects/Instruments/tuba2.png",2,"left","left",0.496999979,1,1,0
"146",53,146,0.7,"stim/34.jpeg",3,4,2,NA,"HouseObjects",2,"stim/objects/HouseObjects/thread.png",4,"right","right",0.578999996,1,1,0
"147",53,147,0.5,"stim/14.jpeg",1,4,1,NA,"HouseObjects",2,"stim/objects/HouseObjects/rug.png",1,"right","left",0.621999979,0,0,0
"148",53,148,0.9,"stim/61.jpeg",6,1,3,NA,"Instruments",1,"stim/objects/Instruments/triangle2.png",4,"left","left",0.538999796,1,1,0
"149",53,149,0.3,"stim/41.jpeg",4,1,2,NA,"HouseObjects",2,"stim/objects/HouseObjects/recyclingbin2.png",4,"right","right",0.644999981,1,1,0
"150",53,150,0.5,"stim/24.jpeg",2,4,1,NA,"HouseObjects",2,"stim/objects/HouseObjects/sponge.png",2,"right","right",0.677999973,1,1,0
"151",53,151,0.5,"stim/22.jpeg",2,2,1,NA,"Instruments",1,"stim/objects/Instruments/speaker.png",4,"left","left",0.745000124,1,1,0
"152",53,152,0.5,"stim/23.jpeg",2,3,1,NA,"Instruments",1,"stim/objects/Instruments/tambourine.png",3,"left","left",0.825000048,1,1,0
"153",53,153,0.3,"stim/34.jpeg",3,4,2,NA,"Instruments",1,"stim/objects/Instruments/tuba.png",2,"left","right",0.846000195,0,0,0
"154",53,154,0.9,"stim/51.jpeg",5,1,3,NA,"HouseObjects",2,"stim/objects/HouseObjects/safetypin2.png",3,"right","right",0.631999969,1,1,0
"155",53,155,0.5,"stim/12.jpeg",1,2,1,NA,"HouseObjects",2,"stim/objects/HouseObjects/remote.png",2,"right","right",0.607000113,1,1,0
"156",53,156,0.9,"stim/63.jpeg",6,3,3,NA,"Instruments",1,"stim/objects/Instruments/trumpet2.png",2,"left","left",0.512999773,1,1,0
"157",53,157,0.9,"stim/54.jpeg",5,4,3,NA,"HouseObjects",2,"stim/objects/HouseObjects/sponge2.png",2,"right","right",0.753000021,1,1,0
"158",53,158,0.9,"stim/63.jpeg",6,3,3,NA,"Instruments",1,"stim/objects/Instruments/trumpet2.png",4,"left","left",0.726000071,1,1,0
"159",53,159,0.3,"stim/34.jpeg",3,4,2,NA,"Instruments",1,"stim/objects/Instruments/tuba.png",3,"left","right",0.572000027,0,0,0
"160",53,160,0.9,"stim/53.jpeg",5,3,3,NA,"HouseObjects",2,"stim/objects/HouseObjects/scale2.png",2,"right","right",0.539000034,1,1,0
"161",53,161,0.7,"stim/34.jpeg",3,4,2,NA,"HouseObjects",2,"stim/objects/HouseObjects/thread.png",3,"right","right",0.689999819,1,1,0
"162",53,162,0.9,"stim/54.jpeg",5,4,3,NA,"HouseObjects",2,"stim/objects/HouseObjects/sponge2.png",3,"right","right",0.644999981,1,1,0
"163",53,163,0.7,"stim/33.jpeg",3,3,2,NA,"HouseObjects",2,"stim/objects/HouseObjects/thermometer.png",1,"right","right",0.808000088,1,1,0
"164",53,164,0.9,"stim/54.jpeg",5,4,3,NA,"HouseObjects",2,"stim/objects/HouseObjects/sponge2.png",3,"right","right",0.639000177,1,1,0
"165",53,165,0.9,"stim/64.jpeg",6,4,3,NA,"Instruments",1,"stim/objects/Instruments/tuba2.png",2,"left","left",0.50999999,1,1,0
"166",53,166,0.9,"stim/52.jpeg",5,2,3,NA,"HouseObjects",2,"stim/objects/HouseObjects/saw2.png",3,"right","right",0.717999935,1,1,0
"167",53,167,0.5,"stim/13.jpeg",1,3,1,NA,"HouseObjects",2,"stim/objects/HouseObjects/rubbergloves.png",2,"right","right",0.805999994,1,1,0
"168",53,168,0.5,"stim/14.jpeg",1,4,1,NA,"HouseObjects",2,"stim/objects/HouseObjects/rug.png",3,"right","left",0.83100009,0,0,0
"169",53,169,0.9,"stim/62.jpeg",6,2,3,NA,"Instruments",1,"stim/objects/Instruments/trombone2.png",1,"left","left",0.535000086,1,1,0
"170",53,170,0.7,"stim/41.jpeg",4,1,2,NA,"Instruments",1,"stim/objects/Instruments/panflute2.png",3,"left","left",0.666000128,1,1,0
"171",53,171,0.9,"stim/52.jpeg",5,2,3,NA,"HouseObjects",2,"stim/objects/HouseObjects/saw2.png",3,"right","right",0.598999977,1,1,0
"172",53,172,0.7,"stim/43.jpeg",4,3,2,NA,"Instruments",1,"stim/objects/Instruments/record2.png",1,"left","right",0.619999886,0,0,0
"173",53,173,0.9,"stim/61.jpeg",6,1,3,NA,"Instruments",1,"stim/objects/Instruments/triangle2.png",2,"left","left",0.536999941,1,1,0
"174",53,174,0.7,"stim/44.jpeg",4,4,2,NA,"Instruments",1,"stim/objects/Instruments/record_player2.png",1,"left","left",0.608999968,1,1,0
"175",53,175,0.7,"stim/33.jpeg",3,3,2,NA,"HouseObjects",2,"stim/objects/HouseObjects/thermometer.png",2,"right","right",0.743999958,1,1,0
"176",53,176,0.5,"stim/13.jpeg",1,3,1,NA,"HouseObjects",2,"stim/objects/HouseObjects/rubbergloves.png",1,"right","right",0.671000004,1,1,0
"177",53,177,0.1,"stim/62.jpeg",6,2,3,NA,"HouseObjects",2,"stim/objects/HouseObjects/teapot2.png",1,"right","left",0.552000046,0,0,0
"178",53,178,0.9,"stim/51.jpeg",5,1,3,NA,"HouseObjects",2,"stim/objects/HouseObjects/safetypin2.png",4,"right","right",0.513999939,1,1,0
"179",53,179,0.5,"stim/13.jpeg",1,3,1,NA,"Instruments",1,"stim/objects/Instruments/record.png",3,"left","right",0.656000137,0,0,0
"180",53,180,0.9,"stim/53.jpeg",5,3,3,NA,"HouseObjects",2,"stim/objects/HouseObjects/scale2.png",1,"right","right",0.517999887,1,1,0
"181",53,181,0.9,"stim/64.jpeg",6,4,3,NA,"Instruments",1,"stim/objects/Instruments/tuba2.png",3,"left","left",0.439999819,1,1,0
"182",53,182,0.9,"stim/52.jpeg",5,2,3,NA,"HouseObjects",2,"stim/objects/HouseObjects/saw2.png",3,"right","right",0.538000107,1,1,0
"183",53,183,0.9,"stim/63.jpeg",6,3,3,NA,"Instruments",1,"stim/objects/Instruments/trumpet2.png",1,"left","left",0.913999796,1,1,0
"184",53,184,0.7,"stim/34.jpeg",3,4,2,NA,"HouseObjects",2,"stim/objects/HouseObjects/thread.png",4,"right","",NA,0,0,0
"185",53,185,0.9,"stim/51.jpeg",5,1,3,NA,"HouseObjects",2,"stim/objects/HouseObjects/safetypin2.png",2,"right","right",0.515000105,1,1,0
"186",53,186,0.5,"stim/14.jpeg",1,4,1,NA,"HouseObjects",2,"stim/objects/HouseObjects/rug.png",1,"right","right",0.509000063,1,1,0
"187",53,187,0.5,"stim/21.jpeg",2,1,1,NA,"Instruments",1,"stim/objects/Instruments/saxophone.png",4,"left","left",0.670000076,1,1,0
"188",53,188,0.9,"stim/53.jpeg",5,3,3,NA,"HouseObjects",2,"stim/objects/HouseObjects/scale2.png",2,"right","right",0.519999981,1,1,0
"189",53,189,0.5,"stim/22.jpeg",2,2,1,NA,"Instruments",1,"stim/objects/Instruments/speaker.png",1,"left","",NA,0,0,0
"190",53,190,0.7,"stim/44.jpeg",4,4,2,NA,"Instruments",1,"stim/objects/Instruments/record_player2.png",4,"left","left",0.714999914,1,1,0
"191",53,191,0.5,"stim/23.jpeg",2,3,1,NA,"Instruments",1,"stim/objects/Instruments/tambourine.png",1,"left","left",0.652999878,1,1,0
"192",53,192,0.7,"stim/33.jpeg",3,3,2,NA,"HouseObjects",2,"stim/objects/HouseObjects/thermometer.png",4,"right","",NA,0,0,0
"193",53,193,0.7,"stim/42.jpeg",4,2,2,NA,"Instruments",1,"stim/objects/Instruments/pipepiano2.png",1,"left","",NA,0,0,0
"194",53,194,0.7,"stim/31.jpeg",3,1,2,NA,"HouseObjects",2,"stim/objects/HouseObjects/spraybottle.png",1,"right","",NA,0,0,0
"195",53,195,0.7,"stim/32.jpeg",3,2,2,NA,"HouseObjects",2,"stim/objects/HouseObjects/teapot.png",4,"right","right",0.809000015,1,1,0
"196",53,196,0.9,"stim/64.jpeg",6,4,3,NA,"Instruments",1,"stim/objects/Instruments/tuba2.png",3,"left","left",0.609999895,1,1,0
"197",53,197,0.5,"stim/23.jpeg",2,3,1,NA,"Instruments",1,"stim/objects/Instruments/tambourine.png",4,"left","left",0.687000036,1,1,0
"198",53,198,0.9,"stim/64.jpeg",6,4,3,NA,"Instruments",1,"stim/objects/Instruments/tuba2.png",4,"left","left",0.733999968,1,1,0
"199",53,199,0.5,"stim/14.jpeg",1,4,1,NA,"Instruments",1,"stim/objects/Instruments/record_player.png",4,"left","",NA,0,0,0
"200",53,200,0.7,"stim/43.jpeg",4,3,2,NA,"Instruments",1,"stim/objects/Instruments/record2.png",3,"left","right",0.617000103,0,0,0
"201",53,201,0.3,"stim/41.jpeg",4,1,2,NA,"HouseObjects",2,"stim/objects/HouseObjects/recyclingbin2.png",4,"right","",NA,0,0,0
"202",53,202,0.7,"stim/33.jpeg",3,3,2,NA,"HouseObjects",2,"stim/objects/HouseObjects/thermometer.png",1,"right","right",0.79399991,1,1,0
"203",53,203,0.5,"stim/24.jpeg",2,4,1,NA,"Instruments",1,"stim/objects/Instruments/timbal.png",4,"left","left",0.77699995,1,1,0
"204",53,204,0.1,"stim/61.jpeg",6,1,3,NA,"HouseObjects",2,"stim/objects/HouseObjects/spraybottle2.png",2,"right","",NA,0,0,0
"205",53,205,0.5,"stim/24.jpeg",2,4,1,NA,"HouseObjects",2,"stim/objects/HouseObjects/sponge.png",2,"right","left",0.809000015,0,0,0
"206",53,206,0.9,"stim/53.jpeg",5,3,3,NA,"HouseObjects",2,"stim/objects/HouseObjects/scale2.png",2,"right","right",0.559999943,1,1,0
"207",53,207,0.9,"stim/62.jpeg",6,2,3,NA,"Instruments",1,"stim/objects/Instruments/trombone2.png",4,"left","left",0.526000023,1,1,0
"208",53,208,0.5,"stim/21.jpeg",2,1,1,NA,"HouseObjects",2,"stim/objects/HouseObjects/safetypin.png",4,"right","left",0.649999857,0,0,0
"209",53,209,0.5,"stim/11.jpeg",1,1,1,NA,"HouseObjects",2,"stim/objects/HouseObjects/recyclingbin.png",2,"right","",NA,0,0,0
"210",53,210,0.5,"stim/24.jpeg",2,4,1,NA,"HouseObjects",2,"stim/objects/HouseObjects/sponge.png",1,"right","",NA,0,0,0
"211",53,211,0.5,"stim/23.jpeg",2,3,1,NA,"HouseObjects",2,"stim/objects/HouseObjects/scale.png",2,"right","right",0.559999943,1,1,0
"212",53,212,0.5,"stim/14.jpeg",1,4,1,NA,"Instruments",1,"stim/objects/Instruments/record_player.png",3,"left","right",0.498999834,0,0,0
"213",53,213,0.5,"stim/14.jpeg",1,4,1,NA,"Instruments",1,"stim/objects/Instruments/record_player.png",4,"left","right",0.572000027,0,0,0
"214",53,214,0.5,"stim/24.jpeg",2,4,1,NA,"HouseObjects",2,"stim/objects/HouseObjects/sponge.png",2,"right","left",0.439999819,0,0,0
"215",53,215,0.7,"stim/33.jpeg",3,3,2,NA,"HouseObjects",2,"stim/objects/HouseObjects/thermometer.png",4,"right","right",0.519000053,1,1,0
"216",53,216,0.5,"stim/24.jpeg",2,4,1,NA,"HouseObjects",2,"stim/objects/HouseObjects/sponge.png",2,"right","left",0.586999893,0,0,0
"217",53,217,0.5,"stim/24.jpeg",2,4,1,NA,"Instruments",1,"stim/objects/Instruments/timbal.png",1,"left","right",0.392999887,0,0,0
"218",53,218,0.3,"stim/43.jpeg",4,3,2,NA,"HouseObjects",2,"stim/objects/HouseObjects/rubbergloves2.png",3,"right","right",0.523999929,1,1,0
"219",53,219,0.3,"stim/34.jpeg",3,4,2,NA,"Instruments",1,"stim/objects/Instruments/tuba.png",3,"left","right",0.518000126,0,0,0
"220",53,220,0.9,"stim/52.jpeg",5,2,3,NA,"HouseObjects",2,"stim/objects/HouseObjects/saw2.png",4,"right","right",0.645999908,1,1,0
"221",53,221,0.9,"stim/62.jpeg",6,2,3,NA,"Instruments",1,"stim/objects/Instruments/trombone2.png",1,"left","left",0.521999836,1,1,0
"222",53,222,0.7,"stim/32.jpeg",3,2,2,NA,"HouseObjects",2,"stim/objects/HouseObjects/teapot.png",1,"right","right",0.523000002,1,1,0
"223",53,223,0.3,"stim/33.jpeg",3,3,2,NA,"Instruments",1,"stim/objects/Instruments/trumpet.png",1,"left","right",0.484999895,0,0,0
"224",53,224,0.9,"stim/51.jpeg",5,1,3,NA,"HouseObjects",2,"stim/objects/HouseObjects/safetypin2.png",1,"right","right",0.479000092,1,1,0
"225",53,225,0.5,"stim/21.jpeg",2,1,1,NA,"Instruments",1,"stim/objects/Instruments/saxophone.png",4,"left","left",0.506000042,1,1,0
"226",53,226,0.3,"stim/32.jpeg",3,2,2,NA,"Instruments",1,"stim/objects/Instruments/trombone.png",2,"left","right",0.774999857,0,0,0
"227",53,227,0.5,"stim/11.jpeg",1,1,1,NA,"Instruments",1,"stim/objects/Instruments/panflute.png",1,"left","right",0.642000198,0,0,0
"228",53,228,0.9,"stim/62.jpeg",6,2,3,NA,"Instruments",1,"stim/objects/Instruments/trombone2.png",1,"left","",NA,0,0,0
"229",53,229,0.5,"stim/11.jpeg",1,1,1,NA,"Instruments",1,"stim/objects/Instruments/panflute.png",2,"left","left",0.599999905,1,1,0
"230",53,230,0.7,"stim/33.jpeg",3,3,2,NA,"HouseObjects",2,"stim/objects/HouseObjects/thermometer.png",4,"right","right",0.519000053,1,1,0
"231",53,231,0.5,"stim/11.jpeg",1,1,1,NA,"HouseObjects",2,"stim/objects/HouseObjects/recyclingbin.png",2,"right","left",0.845000029,0,0,0
"232",53,232,0.5,"stim/22.jpeg",2,2,1,NA,"HouseObjects",2,"stim/objects/HouseObjects/saw.png",1,"right","",NA,0,0,0
"233",53,233,0.5,"stim/22.jpeg",2,2,1,NA,"Instruments",1,"stim/objects/Instruments/speaker.png",3,"left","right",0.487999916,0,0,0
"234",53,234,0.3,"stim/44.jpeg",4,4,2,NA,"HouseObjects",2,"stim/objects/HouseObjects/rug2.png",1,"right","",NA,0,0,0
"235",53,235,0.7,"stim/32.jpeg",3,2,2,NA,"HouseObjects",2,"stim/objects/HouseObjects/teapot.png",4,"right","right",0.647000074,1,1,0
"236",53,236,0.5,"stim/23.jpeg",2,3,1,NA,"HouseObjects",2,"stim/objects/HouseObjects/scale.png",4,"right","right",0.695999861,1,1,0
"237",53,237,0.9,"stim/52.jpeg",5,2,3,NA,"HouseObjects",2,"stim/objects/HouseObjects/saw2.png",2,"right","right",0.58100009,1,1,0
"238",53,238,0.3,"stim/43.jpeg",4,3,2,NA,"HouseObjects",2,"stim/objects/HouseObjects/rubbergloves2.png",4,"right","left",0.873999834,0,0,0
"239",53,239,0.5,"stim/14.jpeg",1,4,1,NA,"Instruments",1,"stim/objects/Instruments/record_player.png",4,"left","right",0.680000067,0,0,0
"240",53,240,0.9,"stim/62.jpeg",6,2,3,NA,"Instruments",1,"stim/objects/Instruments/trombone2.png",1,"left","left",0.476999998,1,1,0
