"","participant","trialN","trial_cond","scn_file","scn_cat","scn_inst","scn_condition","fillers","obj_cat","obj_cat_num","obj_file","quadrant","corr_ans","key_resp_trial.keys","key_resp_trial.rt","trial_acc","trial_acc_manual","group"
"248",53,241,0.9,"stim/63.jpeg",6,3,3,2,"Instruments",1,"stim/objects/Instruments/gong3.png",3,"left","left",0.614000082,1,1,1
"249",53,242,0.7,"stim/34.jpeg",3,4,2,2,"HouseObjects",2,"stim/objects/HouseObjects/dishsoap3.png",4,"right","right",0.773999929,1,1,1
"250",53,243,0.9,"stim/63.jpeg",6,3,3,2,"Instruments",1,"stim/objects/Instruments/gong3.png",4,"left","left",0.762000084,1,1,1
"251",53,244,0.9,"stim/51.jpeg",5,1,3,2,"HouseObjects",2,"stim/objects/HouseObjects/glass3.png",3,"right","right",0.562999964,1,1,1
"252",53,245,0.5,"stim/12.jpeg",1,2,1,2,"Instruments",1,"stim/objects/Instruments/accordion3.png",4,"left","right",0.872999907,0,0,1
"253",53,246,0.9,"stim/53.jpeg",5,3,3,2,"HouseObjects",2,"stim/objects/HouseObjects/doormat3.png",2,"right","right",0.567000151,1,1,1
"254",53,247,0.7,"stim/41.jpeg",4,1,2,1,"Instruments",1,"stim/objects/Instruments/cymbal4.png",2,"left","left",0.691999912,1,1,1
"255",53,248,0.1,"stim/51.jpeg",5,1,3,1,"Instruments",1,"stim/objects/Instruments/flute4.png",3,"left","right",0.538000107,0,0,1
"256",53,249,0.5,"stim/24.jpeg",2,4,1,2,"Instruments",1,"stim/objects/Instruments/bassguitar3.png",2,"left","left",0.487999916,1,1,1
"257",53,250,0.9,"stim/54.jpeg",5,4,3,2,"HouseObjects",2,"stim/objects/HouseObjects/flyswatter3.png",2,"right","right",0.544000149,1,1,1
"258",53,251,0.7,"stim/33.jpeg",3,3,2,2,"HouseObjects",2,"stim/objects/HouseObjects/cushion3.png",1,"right","right",0.532000065,1,1,1
"259",53,252,0.5,"stim/12.jpeg",1,2,1,1,"HouseObjects",2,"stim/objects/HouseObjects/glassmop3.png",4,"right","left",0.700000048,0,0,1
"260",53,253,0.9,"stim/64.jpeg",6,4,3,2,"Instruments",1,"stim/objects/Instruments/grandpiano3.png",3,"left","left",0.601999998,1,1,1
"261",53,254,0.9,"stim/52.jpeg",5,2,3,1,"HouseObjects",2,"stim/objects/HouseObjects/garbagebin4.png",1,"right","right",0.524999857,1,1,1
"262",53,255,0.5,"stim/23.jpeg",2,3,1,1,"Instruments",1,"stim/objects/Instruments/marimba3.png",2,"left","left",0.676000118,1,1,1
"263",53,256,0.7,"stim/33.jpeg",3,3,2,2,"HouseObjects",2,"stim/objects/HouseObjects/coffee3.png",1,"right","right",0.554000139,1,1,1
"264",53,257,0.9,"stim/61.jpeg",6,1,3,2,"Instruments",1,"stim/objects/Instruments/grandpiano3.png",1,"left","left",0.523999929,1,1,1
"265",53,258,0.9,"stim/63.jpeg",6,3,3,2,"Instruments",1,"stim/objects/Instruments/grandpiano3.png",3,"left","left",0.501000166,1,1,1
"266",53,259,0.9,"stim/52.jpeg",5,2,3,2,"HouseObjects",2,"stim/objects/HouseObjects/flyswatter3.png",1,"right","right",0.493000031,1,1,1
"267",53,260,0.9,"stim/53.jpeg",5,3,3,2,"HouseObjects",2,"stim/objects/HouseObjects/flyswatter3.png",1,"right","right",0.792999983,1,1,1
"268",53,261,0.9,"stim/53.jpeg",5,3,3,2,"HouseObjects",2,"stim/objects/HouseObjects/glass3.png",2,"right","right",0.50999999,1,1,1
"269",53,262,0.9,"stim/61.jpeg",6,1,3,2,"Instruments",1,"stim/objects/Instruments/flutetrans3.png",1,"left","left",0.529000044,1,1,1
"270",53,263,0.3,"stim/42.jpeg",4,2,2,1,"HouseObjects",2,"stim/objects/HouseObjects/cushion4.png",2,"right","",NA,0,0,1
"271",53,264,0.9,"stim/54.jpeg",5,4,3,2,"HouseObjects",2,"stim/objects/HouseObjects/glass3.png",2,"right","right",0.57400012,1,1,1
"272",53,265,0.9,"stim/63.jpeg",6,3,3,2,"Instruments",1,"stim/objects/Instruments/flutetrans3.png",4,"left","left",0.578999996,1,1,1
"273",53,266,0.5,"stim/11.jpeg",1,1,1,2,"Instruments",1,"stim/objects/Instruments/banjo3.png",2,"left","left",0.503000021,1,1,1
"274",53,267,0.7,"stim/32.jpeg",3,2,2,2,"HouseObjects",2,"stim/objects/HouseObjects/clothespin3.png",1,"right","right",0.561000109,1,1,1
"275",53,268,0.3,"stim/44.jpeg",4,4,2,1,"HouseObjects",2,"stim/objects/HouseObjects/clothespin4.png",4,"right","left",0.769999981,0,0,1
"276",53,269,0.7,"stim/32.jpeg",3,2,2,2,"HouseObjects",2,"stim/objects/HouseObjects/cushion3.png",1,"right","right",0.495000124,1,1,1
"277",53,270,0.7,"stim/31.jpeg",3,1,2,1,"HouseObjects",2,"stim/objects/HouseObjects/barbecuelighter4.png",1,"right","right",0.642999887,1,1,1
"278",53,271,0.3,"stim/34.jpeg",3,4,2,1,"Instruments",1,"stim/objects/Instruments/balalaika4.png",2,"left","",NA,0,0,1
"279",53,272,0.9,"stim/53.jpeg",5,3,3,2,"HouseObjects",2,"stim/objects/HouseObjects/glass3.png",2,"right","right",0.726000071,1,1,1
"280",53,273,0.5,"stim/14.jpeg",1,4,1,1,"HouseObjects",2,"stim/objects/HouseObjects/handbrush3.png",2,"right","left",0.688999891,0,0,1
"281",53,274,0.9,"stim/53.jpeg",5,3,3,2,"HouseObjects",2,"stim/objects/HouseObjects/garbagebin3.png",3,"right","right",0.529000044,1,1,1
"282",53,275,0.9,"stim/64.jpeg",6,4,3,2,"Instruments",1,"stim/objects/Instruments/flutetrans3.png",1,"left","left",0.537999868,1,1,1
"283",53,276,0.9,"stim/54.jpeg",5,4,3,2,"HouseObjects",2,"stim/objects/HouseObjects/glass3.png",3,"right","right",0.513000011,1,1,1
"284",53,277,0.7,"stim/33.jpeg",3,3,2,2,"HouseObjects",2,"stim/objects/HouseObjects/dishsoap3.png",4,"right","right",0.447000027,1,1,1
"285",53,278,0.1,"stim/54.jpeg",5,4,3,1,"Instruments",1,"stim/objects/Instruments/gong4.png",2,"left","right",0.405999899,0,0,1
"286",53,279,0.1,"stim/62.jpeg",6,2,3,1,"HouseObjects",2,"stim/objects/HouseObjects/towel4.png",2,"right","left",0.779999971,0,0,1
"287",53,280,0.7,"stim/44.jpeg",4,4,2,1,"Instruments",1,"stim/objects/Instruments/cornet4.png",4,"left","right",0.465000153,0,0,1
"288",53,281,0.3,"stim/32.jpeg",3,2,2,1,"Instruments",1,"stim/objects/Instruments/accordion4.png",4,"left","left",0.457999945,1,1,1
"289",53,282,0.9,"stim/51.jpeg",5,1,3,2,"HouseObjects",2,"stim/objects/HouseObjects/doormat3.png",1,"right","right",0.494999886,1,1,1
"290",53,283,0.5,"stim/12.jpeg",1,2,1,2,"HouseObjects",2,"stim/objects/HouseObjects/barbecuelighter3.png",1,"right","",NA,0,0,1
"291",53,284,0.9,"stim/62.jpeg",6,2,3,2,"Instruments",1,"stim/objects/Instruments/flute3.png",3,"left","left",0.525999784,1,1,1
"292",53,285,0.7,"stim/41.jpeg",4,1,2,2,"Instruments",1,"stim/objects/Instruments/electricguitar3.png",2,"left","left",0.610000134,1,1,1
"293",53,286,0.5,"stim/13.jpeg",1,3,1,1,"Instruments",1,"stim/objects/Instruments/guitarcase3.png",1,"left","right",0.644999981,0,0,1
"294",53,287,0.9,"stim/54.jpeg",5,4,3,1,"HouseObjects",2,"stim/objects/HouseObjects/dustpan4.png",2,"right","right",0.588999987,1,1,1
"295",53,288,0.5,"stim/14.jpeg",1,4,1,2,"HouseObjects",2,"stim/objects/HouseObjects/basket3.png",1,"right","left",0.640000105,0,0,1
"296",53,289,0.9,"stim/52.jpeg",5,2,3,2,"HouseObjects",2,"stim/objects/HouseObjects/dustpan3.png",4,"right","right",0.46999979,1,1,1
"297",53,290,0.9,"stim/61.jpeg",6,1,3,2,"Instruments",1,"stim/objects/Instruments/flute3.png",1,"left","left",0.803999901,1,1,1
"298",53,291,0.5,"stim/13.jpeg",1,3,1,2,"Instruments",1,"stim/objects/Instruments/balalaika3.png",1,"left","left",0.651000023,1,1,1
"299",53,292,0.9,"stim/51.jpeg",5,1,3,2,"HouseObjects",2,"stim/objects/HouseObjects/flyswatter3.png",4,"right","right",0.649999857,1,1,1
"300",53,293,0.5,"stim/21.jpeg",2,1,1,2,"Instruments",1,"stim/objects/Instruments/chime3.png",2,"left","left",0.638000011,1,1,1
"301",53,294,0.9,"stim/54.jpeg",5,4,3,2,"HouseObjects",2,"stim/objects/HouseObjects/garbagebin3.png",2,"right","right",0.644000053,1,1,1
"302",53,295,0.9,"stim/52.jpeg",5,2,3,2,"HouseObjects",2,"stim/objects/HouseObjects/garbagebin3.png",4,"right","right",0.674000025,1,1,1
"303",53,296,0.9,"stim/54.jpeg",5,4,3,2,"HouseObjects",2,"stim/objects/HouseObjects/flyswatter3.png",4,"right","right",0.56400013,1,1,1
"304",53,297,0.3,"stim/32.jpeg",3,2,2,1,"Instruments",1,"stim/objects/Instruments/oboe3.png",4,"left","left",0.576000214,1,1,1
"305",53,298,0.9,"stim/61.jpeg",6,1,3,2,"Instruments",1,"stim/objects/Instruments/flute3.png",1,"left","left",0.612999916,1,1,1
"306",53,299,0.5,"stim/21.jpeg",2,1,1,2,"HouseObjects",2,"stim/objects/HouseObjects/broom3.png",3,"right","left",0.57799983,0,0,1
"307",53,300,0.9,"stim/61.jpeg",6,1,3,2,"Instruments",1,"stim/objects/Instruments/flutetrans3.png",2,"left","right",0.496999979,0,0,1
"308",53,301,0.9,"stim/62.jpeg",6,2,3,2,"Instruments",1,"stim/objects/Instruments/flute3.png",1,"left","left",0.489000082,1,1,1
"309",53,302,0.9,"stim/52.jpeg",5,2,3,2,"HouseObjects",2,"stim/objects/HouseObjects/flyswatter3.png",2,"right","right",0.568000078,1,1,1
"310",53,303,0.9,"stim/63.jpeg",6,3,3,2,"Instruments",1,"stim/objects/Instruments/grandpiano3.png",3,"left","left",0.513999939,1,1,1
"311",53,304,0.7,"stim/42.jpeg",4,2,2,2,"Instruments",1,"stim/objects/Instruments/electricdrumset3.png",3,"left","",NA,0,0,1
"312",53,305,0.1,"stim/52.jpeg",5,2,3,1,"Instruments",1,"stim/objects/Instruments/flutetrans4.png",4,"left","right",0.592999935,0,0,1
"313",53,306,0.9,"stim/53.jpeg",5,3,3,2,"HouseObjects",2,"stim/objects/HouseObjects/garbagebin3.png",4,"right","",NA,0,0,1
"314",53,307,0.7,"stim/41.jpeg",4,1,2,2,"Instruments",1,"stim/objects/Instruments/electricdrumset3.png",1,"left","left",0.767999887,1,1,1
"315",53,308,0.7,"stim/33.jpeg",3,3,2,1,"HouseObjects",2,"stim/objects/HouseObjects/pitcher3.png",2,"right","right",0.650000095,1,1,1
"316",53,309,0.9,"stim/53.jpeg",5,3,3,2,"HouseObjects",2,"stim/objects/HouseObjects/garbagebin3.png",4,"right","right",0.630000114,1,1,1
"317",53,310,0.3,"stim/41.jpeg",4,1,2,1,"HouseObjects",2,"stim/objects/HouseObjects/bucket4.png",1,"right","left",0.760000229,0,0,1
"318",53,311,0.9,"stim/64.jpeg",6,4,3,2,"Instruments",1,"stim/objects/Instruments/frenchhorn3.png",3,"left","left",0.503000021,1,1,1
"319",53,312,0.9,"stim/64.jpeg",6,4,3,2,"Instruments",1,"stim/objects/Instruments/grandpiano3.png",3,"left","left",0.590999842,1,1,1
"320",53,313,0.9,"stim/52.jpeg",5,2,3,2,"HouseObjects",2,"stim/objects/HouseObjects/doormat3.png",2,"right","right",0.468000174,1,1,1
"321",53,314,0.5,"stim/13.jpeg",1,3,1,1,"HouseObjects",2,"stim/objects/HouseObjects/hairdryer3.png",1,"right","right",0.512000084,1,1,1
"322",53,315,0.9,"stim/61.jpeg",6,1,3,2,"Instruments",1,"stim/objects/Instruments/grandpiano3.png",1,"left","left",0.364000082,1,1,1
"323",53,316,0.7,"stim/43.jpeg",4,3,2,2,"Instruments",1,"stim/objects/Instruments/doublebass3.png",2,"left","left",0.566000223,1,1,1
"324",53,317,0.9,"stim/64.jpeg",6,4,3,2,"Instruments",1,"stim/objects/Instruments/flutetrans3.png",1,"left","left",0.491000175,1,1,1
"325",53,318,0.9,"stim/61.jpeg",6,1,3,2,"Instruments",1,"stim/objects/Instruments/grandpiano3.png",4,"left","right",0.803999901,0,0,1
"326",53,319,0.9,"stim/61.jpeg",6,1,3,1,"Instruments",1,"stim/objects/Instruments/laud4.png",2,"left","left",0.475999832,1,1,1
"327",53,320,0.9,"stim/51.jpeg",5,1,3,2,"HouseObjects",2,"stim/objects/HouseObjects/dustpan3.png",2,"right","right",0.63499999,1,1,1
"328",53,321,0.7,"stim/43.jpeg",4,3,2,1,"Instruments",1,"stim/objects/Instruments/clarinet4.png",3,"left","left",0.470999956,1,1,1
"329",53,322,0.5,"stim/11.jpeg",1,1,1,2,"Instruments",1,"stim/objects/Instruments/accordion3.png",4,"left","right",0.74000001,0,0,1
"330",53,323,0.3,"stim/42.jpeg",4,2,2,1,"HouseObjects",2,"stim/objects/HouseObjects/blender4.png",2,"right","left",0.742999792,0,0,1
"331",53,324,0.5,"stim/23.jpeg",2,3,1,1,"HouseObjects",2,"stim/objects/HouseObjects/lintroller3.png",3,"right","left",0.529999971,0,0,1
"332",53,325,0.9,"stim/52.jpeg",5,2,3,2,"HouseObjects",2,"stim/objects/HouseObjects/glass3.png",4,"right","right",0.600000143,1,1,1
"333",53,326,0.7,"stim/43.jpeg",4,3,2,1,"Instruments",1,"stim/objects/Instruments/drums4.png",4,"left","left",0.672999859,1,1,1
"334",53,327,0.7,"stim/43.jpeg",4,3,2,2,"Instruments",1,"stim/objects/Instruments/drums3.png",3,"left","",NA,0,0,1
"335",53,328,0.9,"stim/64.jpeg",6,4,3,2,"Instruments",1,"stim/objects/Instruments/frenchhorn3.png",1,"left","right",0.437000036,0,0,1
"336",53,329,0.9,"stim/63.jpeg",6,3,3,2,"Instruments",1,"stim/objects/Instruments/frenchhorn3.png",3,"left","left",0.538999796,1,1,1
"337",53,330,0.5,"stim/22.jpeg",2,2,1,2,"HouseObjects",2,"stim/objects/HouseObjects/clock3.png",2,"right","left",0.556999922,0,0,1
"338",53,331,0.5,"stim/23.jpeg",2,3,1,2,"Instruments",1,"stim/objects/Instruments/bassguitar3.png",4,"left","right",0.476000071,0,0,1
"339",53,332,0.7,"stim/41.jpeg",4,1,2,2,"Instruments",1,"stim/objects/Instruments/drums3.png",3,"left","left",0.55099988,1,1,1
"340",53,333,0.9,"stim/52.jpeg",5,2,3,2,"HouseObjects",2,"stim/objects/HouseObjects/garbagebin3.png",3,"right","right",0.575999975,1,1,1
"341",53,334,0.9,"stim/62.jpeg",6,2,3,2,"Instruments",1,"stim/objects/Instruments/frenchhorn3.png",4,"left","left",0.514999866,1,1,1
"342",53,335,0.5,"stim/13.jpeg",1,3,1,2,"HouseObjects",2,"stim/objects/HouseObjects/barbecuelighter3.png",3,"right","left",0.469000101,0,0,1
"343",53,336,0.5,"stim/21.jpeg",2,1,1,1,"Instruments",1,"stim/objects/Instruments/laud3.png",1,"left","left",0.593999863,1,1,1
"344",53,337,0.9,"stim/54.jpeg",5,4,3,2,"HouseObjects",2,"stim/objects/HouseObjects/dustpan3.png",3,"right","left",0.898999929,0,0,1
"345",53,338,0.9,"stim/52.jpeg",5,2,3,2,"HouseObjects",2,"stim/objects/HouseObjects/garbagebin3.png",2,"right","right",0.454999924,1,1,1
"346",53,339,0.9,"stim/54.jpeg",5,4,3,2,"HouseObjects",2,"stim/objects/HouseObjects/garbagebin3.png",3,"right","left",0.424999952,0,0,1
"347",53,340,0.1,"stim/63.jpeg",6,3,3,1,"HouseObjects",2,"stim/objects/HouseObjects/vacuumcleaner4.png",4,"right","left",0.614000082,0,0,1
"348",53,341,0.9,"stim/52.jpeg",5,2,3,2,"HouseObjects",2,"stim/objects/HouseObjects/doormat3.png",1,"right","right",0.440999985,1,1,1
"349",53,342,0.9,"stim/61.jpeg",6,1,3,2,"Instruments",1,"stim/objects/Instruments/gong3.png",4,"left","left",0.5,1,1,1
"350",53,343,0.9,"stim/51.jpeg",5,1,3,2,"HouseObjects",2,"stim/objects/HouseObjects/garbagebin3.png",1,"right","right",0.850999832,1,1,1
"351",53,344,0.9,"stim/62.jpeg",6,2,3,2,"Instruments",1,"stim/objects/Instruments/gong3.png",2,"left","left",0.46999979,1,1,1
"352",53,345,0.5,"stim/22.jpeg",2,2,1,2,"Instruments",1,"stim/objects/Instruments/chime3.png",1,"left","right",0.676000118,0,0,1
"353",53,346,0.7,"stim/43.jpeg",4,3,2,2,"Instruments",1,"stim/objects/Instruments/cymbal3.png",3,"left","left",0.45600009,1,1,1
"354",53,347,0.5,"stim/13.jpeg",1,3,1,2,"HouseObjects",2,"stim/objects/HouseObjects/basket3.png",3,"right","left",0.637000084,0,0,1
"355",53,348,0.9,"stim/52.jpeg",5,2,3,2,"HouseObjects",2,"stim/objects/HouseObjects/doormat3.png",3,"right","right",0.499000072,1,1,1
"356",53,349,0.7,"stim/33.jpeg",3,3,2,2,"HouseObjects",2,"stim/objects/HouseObjects/clothesdryingrack3.png",4,"right","right",0.65899992,1,1,1
"357",53,350,0.3,"stim/44.jpeg",4,4,2,1,"HouseObjects",2,"stim/objects/HouseObjects/broom4.png",2,"right","right",0.552999973,1,1,1
"358",53,351,0.9,"stim/64.jpeg",6,4,3,1,"Instruments",1,"stim/objects/Instruments/metronome4.png",2,"left","left",0.555999994,1,1,1
"359",53,352,0.7,"stim/32.jpeg",3,2,2,1,"HouseObjects",2,"stim/objects/HouseObjects/basket4.png",2,"right","right",0.483999968,1,1,1
"360",53,353,0.7,"stim/43.jpeg",4,3,2,2,"Instruments",1,"stim/objects/Instruments/electricguitar3.png",4,"left","left",0.587000132,1,1,1
"361",53,354,0.9,"stim/62.jpeg",6,2,3,2,"Instruments",1,"stim/objects/Instruments/flute3.png",3,"left","left",0.507999897,1,1,1
"362",53,355,0.3,"stim/43.jpeg",4,3,2,1,"HouseObjects",2,"stim/objects/HouseObjects/dishsoap4.png",1,"right","right",0.625,1,1,1
"363",53,356,0.9,"stim/52.jpeg",5,2,3,2,"HouseObjects",2,"stim/objects/HouseObjects/garbagebin3.png",1,"right","right",0.571000099,1,1,1
"364",53,357,0.5,"stim/21.jpeg",2,1,1,2,"Instruments",1,"stim/objects/Instruments/cello3.png",4,"left","left",0.566000223,1,1,1
"365",53,358,0.9,"stim/51.jpeg",5,1,3,2,"HouseObjects",2,"stim/objects/HouseObjects/doormat3.png",3,"right","right",0.461999893,1,1,1
"366",53,359,0.9,"stim/62.jpeg",6,2,3,2,"Instruments",1,"stim/objects/Instruments/flute3.png",3,"left","left",0.57400012,1,1,1
"367",53,360,0.5,"stim/12.jpeg",1,2,1,1,"HouseObjects",2,"stim/objects/HouseObjects/iron3.png",2,"right","left",0.674000025,0,0,1
"368",53,361,0.5,"stim/12.jpeg",1,2,1,2,"Instruments",1,"stim/objects/Instruments/bassdrum3.png",4,"left","right",0.549999952,0,0,1
"369",53,362,0.1,"stim/64.jpeg",6,4,3,1,"HouseObjects",2,"stim/objects/HouseObjects/pan4.png",2,"right","left",0.554000139,0,0,1
"370",53,363,0.5,"stim/24.jpeg",2,4,1,2,"HouseObjects",2,"stim/objects/HouseObjects/bottle3.png",1,"right","left",0.628999949,0,0,1
"371",53,364,0.9,"stim/53.jpeg",5,3,3,1,"HouseObjects",2,"stim/objects/HouseObjects/glass4.png",4,"right","right",0.61500001,1,1,1
"372",53,365,0.9,"stim/53.jpeg",5,3,3,2,"HouseObjects",2,"stim/objects/HouseObjects/garbagebin3.png",4,"right","right",0.417999983,1,1,1
"373",53,366,0.9,"stim/53.jpeg",5,3,3,2,"HouseObjects",2,"stim/objects/HouseObjects/dustpan3.png",1,"right","right",0.536000013,1,1,1
"374",53,367,0.9,"stim/63.jpeg",6,3,3,2,"Instruments",1,"stim/objects/Instruments/flute3.png",2,"left","left",0.549999952,1,1,1
"375",53,368,0.5,"stim/22.jpeg",2,2,1,1,"Instruments",1,"stim/objects/Instruments/maraca3.png",3,"left","",NA,0,0,1
"376",53,369,0.5,"stim/11.jpeg",1,1,1,2,"HouseObjects",2,"stim/objects/HouseObjects/ballofstring3.png",2,"right","left",0.600000143,0,0,1
"377",53,370,0.7,"stim/44.jpeg",4,4,2,2,"Instruments",1,"stim/objects/Instruments/electricdrumset3.png",1,"left","right",0.611999989,0,0,1
"378",53,371,0.1,"stim/52.jpeg",5,2,3,1,"Instruments",1,"stim/objects/Instruments/keyboard4.png",4,"left","left",0.656000137,1,1,1
"379",53,372,0.9,"stim/62.jpeg",6,2,3,2,"Instruments",1,"stim/objects/Instruments/gong3.png",4,"left","right",0.440000057,0,0,1
"380",53,373,0.9,"stim/64.jpeg",6,4,3,1,"Instruments",1,"stim/objects/Instruments/violin4.png",3,"left","left",0.44900012,1,1,1
"381",53,374,0.5,"stim/22.jpeg",2,2,1,2,"HouseObjects",2,"stim/objects/HouseObjects/blender3.png",2,"right","left",0.609999895,0,0,1
"382",53,375,0.9,"stim/54.jpeg",5,4,3,2,"HouseObjects",2,"stim/objects/HouseObjects/doormat3.png",3,"right","right",0.743000031,1,1,1
"383",53,376,0.9,"stim/62.jpeg",6,2,3,2,"Instruments",1,"stim/objects/Instruments/flutetrans3.png",2,"left","left",0.490999937,1,1,1
"384",53,377,0.5,"stim/21.jpeg",2,1,1,2,"HouseObjects",2,"stim/objects/HouseObjects/bucket3.png",4,"right","left",0.596999884,0,0,1
"385",53,378,0.9,"stim/54.jpeg",5,4,3,2,"HouseObjects",2,"stim/objects/HouseObjects/dustpan3.png",1,"right","right",0.511000156,1,1,1
"386",53,379,0.9,"stim/62.jpeg",6,2,3,2,"Instruments",1,"stim/objects/Instruments/gong3.png",1,"left","left",0.491000175,1,1,1
"387",53,380,0.3,"stim/42.jpeg",4,2,2,1,"HouseObjects",2,"stim/objects/HouseObjects/clock4.png",2,"right","left",0.606999874,0,0,1
"388",53,381,0.7,"stim/32.jpeg",3,2,2,2,"HouseObjects",2,"stim/objects/HouseObjects/coffee3.png",2,"right","right",0.497999907,1,1,1
"389",53,382,0.9,"stim/64.jpeg",6,4,3,2,"Instruments",1,"stim/objects/Instruments/flutetrans3.png",2,"left","left",0.478999853,1,1,1
"390",53,383,0.7,"stim/32.jpeg",3,2,2,1,"HouseObjects",2,"stim/objects/HouseObjects/pan3.png",2,"right","right",0.610999823,1,1,1
"391",53,384,0.9,"stim/54.jpeg",5,4,3,2,"HouseObjects",2,"stim/objects/HouseObjects/dustpan3.png",1,"right","right",0.748000145,1,1,1
"392",53,385,0.9,"stim/52.jpeg",5,2,3,2,"HouseObjects",2,"stim/objects/HouseObjects/glass3.png",1,"right","right",0.554000139,1,1,1
"393",53,386,0.7,"stim/34.jpeg",3,4,2,2,"HouseObjects",2,"stim/objects/HouseObjects/clothesdryingrack3.png",3,"right","right",0.644999981,1,1,1
"394",53,387,0.1,"stim/51.jpeg",5,1,3,1,"Instruments",1,"stim/objects/Instruments/hihat4.png",2,"left","right",0.544000149,0,0,1
"395",53,388,0.9,"stim/61.jpeg",6,1,3,2,"Instruments",1,"stim/objects/Instruments/gong3.png",1,"left","",NA,0,0,1
"396",53,389,0.9,"stim/51.jpeg",5,1,3,2,"HouseObjects",2,"stim/objects/HouseObjects/dustpan3.png",2,"right","right",0.472999811,1,1,1
"397",53,390,0.9,"stim/64.jpeg",6,4,3,2,"Instruments",1,"stim/objects/Instruments/gong3.png",2,"left","left",0.490999937,1,1,1
"398",53,391,0.7,"stim/33.jpeg",3,3,2,1,"HouseObjects",2,"stim/objects/HouseObjects/bleachbottle4.png",2,"right","right",0.576999903,1,1,1
"399",53,392,0.9,"stim/62.jpeg",6,2,3,2,"Instruments",1,"stim/objects/Instruments/gong3.png",2,"left","left",0.542999983,1,1,1
"400",53,393,0.7,"stim/34.jpeg",3,4,2,2,"HouseObjects",2,"stim/objects/HouseObjects/cushion3.png",1,"right","right",0.589999914,1,1,1
"401",53,394,0.9,"stim/63.jpeg",6,3,3,2,"Instruments",1,"stim/objects/Instruments/flutetrans3.png",1,"left","left",0.51699996,1,1,1
"402",53,395,0.9,"stim/62.jpeg",6,2,3,2,"Instruments",1,"stim/objects/Instruments/grandpiano3.png",4,"left","",NA,0,0,1
"403",53,396,0.1,"stim/63.jpeg",6,3,3,1,"HouseObjects",2,"stim/objects/HouseObjects/match4.png",2,"right","left",0.874000072,0,0,1
"404",53,397,0.5,"stim/24.jpeg",2,4,1,1,"HouseObjects",2,"stim/objects/HouseObjects/match3.png",3,"right","left",0.539999962,0,0,1
"405",53,398,0.9,"stim/54.jpeg",5,4,3,2,"HouseObjects",2,"stim/objects/HouseObjects/doormat3.png",2,"right","right",0.564999819,1,1,1
"406",53,399,0.7,"stim/34.jpeg",3,4,2,1,"HouseObjects",2,"stim/objects/HouseObjects/towel3.png",2,"right","",NA,0,0,1
"407",53,400,0.7,"stim/31.jpeg",3,1,2,2,"HouseObjects",2,"stim/objects/HouseObjects/coffee3.png",4,"right","",NA,0,0,1
"408",53,401,0.9,"stim/52.jpeg",5,2,3,2,"HouseObjects",2,"stim/objects/HouseObjects/flyswatter3.png",1,"right","",NA,0,0,1
"409",53,402,0.9,"stim/54.jpeg",5,4,3,2,"HouseObjects",2,"stim/objects/HouseObjects/doormat3.png",2,"right","",NA,0,0,1
"410",53,403,0.9,"stim/51.jpeg",5,1,3,2,"HouseObjects",2,"stim/objects/HouseObjects/garbagebin3.png",4,"right","right",0.795000076,1,1,1
"411",53,404,0.1,"stim/53.jpeg",5,3,3,1,"Instruments",1,"stim/objects/Instruments/harmonica4.png",3,"left","right",0.674999952,0,0,1
"412",53,405,0.9,"stim/54.jpeg",5,4,3,2,"HouseObjects",2,"stim/objects/HouseObjects/flyswatter3.png",3,"right","",NA,0,0,1
"413",53,406,0.9,"stim/52.jpeg",5,2,3,1,"HouseObjects",2,"stim/objects/HouseObjects/handbrush4.png",1,"right","right",0.549999952,1,1,1
"414",53,407,0.9,"stim/61.jpeg",6,1,3,2,"Instruments",1,"stim/objects/Instruments/gong3.png",1,"left","left",0.529999971,1,1,1
"415",53,408,0.9,"stim/61.jpeg",6,1,3,2,"Instruments",1,"stim/objects/Instruments/frenchhorn3.png",1,"left","left",0.490999937,1,1,1
"416",53,409,0.9,"stim/53.jpeg",5,3,3,1,"HouseObjects",2,"stim/objects/HouseObjects/doormat4.png",1,"right","right",0.48300004,1,1,1
"417",53,410,0.9,"stim/63.jpeg",6,3,3,2,"Instruments",1,"stim/objects/Instruments/flutetrans3.png",3,"left","left",0.506999969,1,1,1
"418",53,411,0.9,"stim/54.jpeg",5,4,3,2,"HouseObjects",2,"stim/objects/HouseObjects/flyswatter3.png",2,"right","right",0.476999998,1,1,1
"419",53,412,0.9,"stim/61.jpeg",6,1,3,2,"Instruments",1,"stim/objects/Instruments/flute3.png",2,"left","left",0.523999929,1,1,1
"420",53,413,0.9,"stim/64.jpeg",6,4,3,2,"Instruments",1,"stim/objects/Instruments/flute3.png",3,"left","left",0.427000046,1,1,1
"421",53,414,0.9,"stim/62.jpeg",6,2,3,1,"Instruments",1,"stim/objects/Instruments/maraca4.png",4,"left","right",0.404999971,0,0,1
"422",53,415,0.9,"stim/54.jpeg",5,4,3,2,"HouseObjects",2,"stim/objects/HouseObjects/garbagebin3.png",3,"right","right",0.55099988,1,1,1
"423",53,416,0.9,"stim/62.jpeg",6,2,3,2,"Instruments",1,"stim/objects/Instruments/flutetrans3.png",3,"left","right",0.488999844,0,0,1
"424",53,417,0.7,"stim/44.jpeg",4,4,2,2,"Instruments",1,"stim/objects/Instruments/doublebass3.png",2,"left","right",0.52699995,0,0,1
"425",53,418,0.9,"stim/63.jpeg",6,3,3,2,"Instruments",1,"stim/objects/Instruments/frenchhorn3.png",1,"left","left",0.546000004,1,1,1
"426",53,419,0.9,"stim/63.jpeg",6,3,3,2,"Instruments",1,"stim/objects/Instruments/gong3.png",4,"left","left",0.50999999,1,1,1
"427",53,420,0.9,"stim/52.jpeg",5,2,3,2,"HouseObjects",2,"stim/objects/HouseObjects/dustpan3.png",4,"right","right",0.593999863,1,1,1
"428",53,421,0.9,"stim/51.jpeg",5,1,3,1,"HouseObjects",2,"stim/objects/HouseObjects/hairdryer4.png",4,"right","right",0.450999975,1,1,1
"429",53,422,0.9,"stim/63.jpeg",6,3,3,2,"Instruments",1,"stim/objects/Instruments/flute3.png",1,"left","left",0.428999901,1,1,1
"430",53,423,0.9,"stim/54.jpeg",5,4,3,2,"HouseObjects",2,"stim/objects/HouseObjects/garbagebin3.png",3,"right","right",0.542999983,1,1,1
"431",53,424,0.9,"stim/51.jpeg",5,1,3,2,"HouseObjects",2,"stim/objects/HouseObjects/flyswatter3.png",3,"right","right",0.588999987,1,1,1
"432",53,425,0.9,"stim/51.jpeg",5,1,3,2,"HouseObjects",2,"stim/objects/HouseObjects/glass3.png",4,"right","",NA,0,0,1
"433",53,426,0.5,"stim/22.jpeg",2,2,1,1,"HouseObjects",2,"stim/objects/HouseObjects/knife3.png",2,"right","right",0.758999825,1,1,1
"434",53,427,0.9,"stim/61.jpeg",6,1,3,2,"Instruments",1,"stim/objects/Instruments/grandpiano3.png",1,"left","right",0.461999893,0,0,1
"435",53,428,0.9,"stim/62.jpeg",6,2,3,1,"Instruments",1,"stim/objects/Instruments/musicstand4.png",2,"left","left",0.500999928,1,1,1
"436",53,429,0.7,"stim/31.jpeg",3,1,2,1,"HouseObjects",2,"stim/objects/HouseObjects/vacuumcleaner3.png",3,"right","left",0.536999941,0,0,1
"437",53,430,0.9,"stim/61.jpeg",6,1,3,1,"Instruments",1,"stim/objects/Instruments/musicsheet4.png",1,"left","left",0.579999924,1,1,1
"438",53,431,0.9,"stim/63.jpeg",6,3,3,2,"Instruments",1,"stim/objects/Instruments/frenchhorn3.png",4,"left","left",0.5849998,1,1,1
"439",53,432,0.9,"stim/52.jpeg",5,2,3,2,"HouseObjects",2,"stim/objects/HouseObjects/glass3.png",2,"right","right",0.5849998,1,1,1
"440",53,433,0.9,"stim/64.jpeg",6,4,3,2,"Instruments",1,"stim/objects/Instruments/gong3.png",2,"left","left",0.584000111,1,1,1
"441",53,434,0.5,"stim/11.jpeg",1,1,1,1,"HouseObjects",2,"stim/objects/HouseObjects/handvacuum3.png",4,"right","left",0.657999992,0,0,1
"442",53,435,0.9,"stim/51.jpeg",5,1,3,2,"HouseObjects",2,"stim/objects/HouseObjects/glass3.png",3,"right","right",0.644999981,1,1,1
"443",53,436,0.5,"stim/24.jpeg",2,4,1,2,"Instruments",1,"stim/objects/Instruments/cello3.png",4,"left","",NA,0,0,1
"444",53,437,0.9,"stim/53.jpeg",5,3,3,2,"HouseObjects",2,"stim/objects/HouseObjects/glass3.png",3,"right","right",0.523000002,1,1,1
"445",53,438,0.7,"stim/31.jpeg",3,1,2,2,"HouseObjects",2,"stim/objects/HouseObjects/dishsoap3.png",1,"right","right",0.704999924,1,1,1
"446",53,439,0.9,"stim/63.jpeg",6,3,3,1,"Instruments",1,"stim/objects/Instruments/oboe4.png",1,"left","right",0.857999802,0,0,1
"447",53,440,0.9,"stim/64.jpeg",6,4,3,2,"Instruments",1,"stim/objects/Instruments/grandpiano3.png",1,"left","",NA,0,0,1
"448",53,441,0.7,"stim/32.jpeg",3,2,2,1,"HouseObjects",2,"stim/objects/HouseObjects/wateringcan3.png",3,"right","left",0.761000156,0,0,1
"449",53,442,0.7,"stim/31.jpeg",3,1,2,2,"HouseObjects",2,"stim/objects/HouseObjects/clothesdryingrack3.png",1,"right","right",0.470000029,1,1,1
"450",53,443,0.1,"stim/62.jpeg",6,2,3,1,"HouseObjects",2,"stim/objects/HouseObjects/lintroller4.png",4,"right","left",0.506999969,0,0,1
"451",53,444,0.9,"stim/63.jpeg",6,3,3,2,"Instruments",1,"stim/objects/Instruments/grandpiano3.png",1,"left","left",0.770999908,1,1,1
"452",53,445,0.5,"stim/22.jpeg",2,2,1,2,"HouseObjects",2,"stim/objects/HouseObjects/bucket3.png",3,"right","",NA,0,0,1
"453",53,446,0.5,"stim/14.jpeg",1,4,1,2,"Instruments",1,"stim/objects/Instruments/banjo3.png",4,"left","right",0.812000036,0,0,1
"454",53,447,0.9,"stim/54.jpeg",5,4,3,2,"HouseObjects",2,"stim/objects/HouseObjects/doormat3.png",4,"right","right",0.578999996,1,1,1
"455",53,448,0.3,"stim/33.jpeg",3,3,2,1,"Instruments",1,"stim/objects/Instruments/violin3.png",1,"left","right",0.709000111,0,0,1
"456",53,449,0.5,"stim/22.jpeg",2,2,1,2,"Instruments",1,"stim/objects/Instruments/clarinet3.png",1,"left","right",0.528999805,0,0,1
"457",53,450,0.5,"stim/24.jpeg",2,4,1,1,"HouseObjects",2,"stim/objects/HouseObjects/ironingboard3.png",1,"right","left",0.576999903,0,0,1
"458",53,451,0.5,"stim/11.jpeg",1,1,1,2,"Instruments",1,"stim/objects/Instruments/bassdrum3.png",3,"left","right",0.89199996,0,0,1
"459",53,452,0.1,"stim/64.jpeg",6,4,3,1,"HouseObjects",2,"stim/objects/HouseObjects/key4.png",4,"right","left",0.537999868,0,0,1
"460",53,453,0.1,"stim/52.jpeg",5,2,3,1,"Instruments",1,"stim/objects/Instruments/guitarcase4.png",2,"left","right",0.871999979,0,0,1
"461",53,454,0.9,"stim/51.jpeg",5,1,3,2,"HouseObjects",2,"stim/objects/HouseObjects/garbagebin3.png",4,"right","right",0.463000059,1,1,1
"462",53,455,0.5,"stim/21.jpeg",2,1,1,1,"HouseObjects",2,"stim/objects/HouseObjects/key3.png",4,"right","left",0.638000011,0,0,1
"463",53,456,0.1,"stim/54.jpeg",5,4,3,1,"Instruments",1,"stim/objects/Instruments/harp4.png",2,"left","right",0.724999905,0,0,1
"464",53,457,0.7,"stim/42.jpeg",4,2,2,2,"Instruments",1,"stim/objects/Instruments/cymbal3.png",4,"left","left",0.655999899,1,1,1
"465",53,458,0.9,"stim/64.jpeg",6,4,3,2,"Instruments",1,"stim/objects/Instruments/flute3.png",4,"left","left",0.572000027,1,1,1
"466",53,459,0.5,"stim/13.jpeg",1,3,1,2,"Instruments",1,"stim/objects/Instruments/acousticguitar3.png",3,"left","left",0.684000015,1,1,1
"467",53,460,0.9,"stim/52.jpeg",5,2,3,2,"HouseObjects",2,"stim/objects/HouseObjects/flyswatter3.png",1,"right","right",0.532000065,1,1,1
"468",53,461,0.9,"stim/62.jpeg",6,2,3,2,"Instruments",1,"stim/objects/Instruments/frenchhorn3.png",2,"left","left",0.52699995,1,1,1
"469",53,462,0.9,"stim/53.jpeg",5,3,3,2,"HouseObjects",2,"stim/objects/HouseObjects/doormat3.png",4,"right","right",0.470000029,1,1,1
"470",53,463,0.5,"stim/14.jpeg",1,4,1,2,"HouseObjects",2,"stim/objects/HouseObjects/bleachbottle3.png",3,"right","right",0.509000063,1,1,1
"471",53,464,0.9,"stim/51.jpeg",5,1,3,2,"HouseObjects",2,"stim/objects/HouseObjects/dustpan3.png",4,"right","right",0.544000149,1,1,1
"472",53,465,0.9,"stim/63.jpeg",6,3,3,2,"Instruments",1,"stim/objects/Instruments/grandpiano3.png",3,"left","left",0.472000122,1,1,1
"473",53,466,0.9,"stim/62.jpeg",6,2,3,2,"Instruments",1,"stim/objects/Instruments/grandpiano3.png",3,"left","left",0.536000013,1,1,1
"474",53,467,0.9,"stim/64.jpeg",6,4,3,2,"Instruments",1,"stim/objects/Instruments/flutetrans3.png",3,"left","left",0.475999832,1,1,1
"475",53,468,0.1,"stim/61.jpeg",6,1,3,1,"HouseObjects",2,"stim/objects/HouseObjects/pitcher4.png",4,"right","left",0.644000053,0,0,1
"476",53,469,0.7,"stim/42.jpeg",4,2,2,1,"Instruments",1,"stim/objects/Instruments/chime4.png",4,"left","",NA,0,0,1
"477",53,470,0.7,"stim/41.jpeg",4,1,2,1,"Instruments",1,"stim/objects/Instruments/cello4.png",1,"left","left",0.77699995,1,1,1
"478",53,471,0.9,"stim/62.jpeg",6,2,3,2,"Instruments",1,"stim/objects/Instruments/flutetrans3.png",4,"left","left",0.496000051,1,1,1
"479",53,472,0.5,"stim/14.jpeg",1,4,1,1,"Instruments",1,"stim/objects/Instruments/harmonica3.png",3,"left","right",0.595000029,0,0,1
"480",53,473,0.9,"stim/53.jpeg",5,3,3,2,"HouseObjects",2,"stim/objects/HouseObjects/glass3.png",2,"right","right",0.549999952,1,1,1
"481",53,474,0.3,"stim/33.jpeg",3,3,2,1,"Instruments",1,"stim/objects/Instruments/acousticguitar4.png",3,"left","right",0.560000181,0,0,1
"482",53,475,0.3,"stim/43.jpeg",4,3,2,1,"HouseObjects",2,"stim/objects/HouseObjects/bottle4.png",3,"right","left",0.664000034,0,0,1
"483",53,476,0.9,"stim/54.jpeg",5,4,3,2,"HouseObjects",2,"stim/objects/HouseObjects/dustpan3.png",2,"right","",NA,0,0,1
"484",53,477,0.3,"stim/31.jpeg",3,1,2,1,"Instruments",1,"stim/objects/Instruments/banjo4.png",3,"left","right",0.601999998,0,0,1
"485",53,478,0.9,"stim/53.jpeg",5,3,3,2,"HouseObjects",2,"stim/objects/HouseObjects/doormat3.png",2,"right","right",0.506999969,1,1,1
"486",53,479,0.7,"stim/33.jpeg",3,3,2,1,"HouseObjects",2,"stim/objects/HouseObjects/ashtray4.png",1,"right","right",0.535000086,1,1,1
"487",53,480,0.5,"stim/24.jpeg",2,4,1,1,"Instruments",1,"stim/objects/Instruments/metronome3.png",2,"left","left",0.527999878,1,1,1
"488",53,481,0.9,"stim/54.jpeg",5,4,3,2,"HouseObjects",2,"stim/objects/HouseObjects/glass3.png",1,"right","right",0.553000212,1,1,1
"489",53,482,0.9,"stim/61.jpeg",6,1,3,2,"Instruments",1,"stim/objects/Instruments/flutetrans3.png",3,"left","left",0.490999937,1,1,1
"490",53,483,0.5,"stim/12.jpeg",1,2,1,1,"Instruments",1,"stim/objects/Instruments/hihat3.png",3,"left","left",0.835999966,1,1,1
"491",53,484,0.9,"stim/61.jpeg",6,1,3,2,"Instruments",1,"stim/objects/Instruments/flute3.png",1,"left","left",0.457999945,1,1,1
"492",53,485,0.7,"stim/42.jpeg",4,2,2,2,"Instruments",1,"stim/objects/Instruments/doublebass3.png",2,"left","right",0.539999962,0,0,1
"493",53,486,0.9,"stim/53.jpeg",5,3,3,2,"HouseObjects",2,"stim/objects/HouseObjects/dustpan3.png",1,"right","right",0.513999939,1,1,1
"494",53,487,0.7,"stim/44.jpeg",4,4,2,2,"Instruments",1,"stim/objects/Instruments/drums3.png",4,"left","left",0.566999912,1,1,1
"495",53,488,0.7,"stim/42.jpeg",4,2,2,2,"Instruments",1,"stim/objects/Instruments/electricguitar3.png",1,"left","left",0.594000101,1,1,1
"496",53,489,0.9,"stim/63.jpeg",6,3,3,2,"Instruments",1,"stim/objects/Instruments/flute3.png",1,"left","left",0.554999828,1,1,1
"497",53,490,0.9,"stim/62.jpeg",6,2,3,1,"Instruments",1,"stim/objects/Instruments/xylophone4.png",4,"left","left",0.613000154,1,1,1
"498",53,491,0.7,"stim/44.jpeg",4,4,2,1,"Instruments",1,"stim/objects/Instruments/electricdrumset4.png",3,"left","left",0.723999977,1,1,1
"499",53,492,0.9,"stim/53.jpeg",5,3,3,2,"HouseObjects",2,"stim/objects/HouseObjects/flyswatter3.png",2,"right","right",0.490999937,1,1,1
"500",53,493,0.9,"stim/53.jpeg",5,3,3,2,"HouseObjects",2,"stim/objects/HouseObjects/flyswatter3.png",3,"right","right",0.596000195,1,1,1
"501",53,494,0.3,"stim/32.jpeg",3,2,2,1,"Instruments",1,"stim/objects/Instruments/bassdrum4.png",3,"left","right",0.715999842,0,0,1
"502",53,495,0.9,"stim/64.jpeg",6,4,3,2,"Instruments",1,"stim/objects/Instruments/frenchhorn3.png",3,"left","left",0.644999981,1,1,1
"503",53,496,0.9,"stim/61.jpeg",6,1,3,2,"Instruments",1,"stim/objects/Instruments/flutetrans3.png",3,"left","left",0.428999901,1,1,1
"504",53,497,0.3,"stim/31.jpeg",3,1,2,1,"Instruments",1,"stim/objects/Instruments/musicstand3.png",2,"left","right",0.580999851,0,0,1
"505",53,498,0.5,"stim/14.jpeg",1,4,1,2,"HouseObjects",2,"stim/objects/HouseObjects/ashtray3.png",1,"right","left",0.5,0,0,1
"506",53,499,0.7,"stim/42.jpeg",4,2,2,1,"Instruments",1,"stim/objects/Instruments/doublebass4.png",4,"left","right",0.611000061,0,0,1
"507",53,500,0.1,"stim/53.jpeg",5,3,3,1,"Instruments",1,"stim/objects/Instruments/frenchhorn4.png",4,"left","right",0.542000055,0,0,1
"508",53,501,0.9,"stim/63.jpeg",6,3,3,2,"Instruments",1,"stim/objects/Instruments/flutetrans3.png",1,"left","right",0.463999987,0,0,1
"509",53,502,0.5,"stim/12.jpeg",1,2,1,2,"HouseObjects",2,"stim/objects/HouseObjects/ballofstring3.png",4,"right","left",0.071000099,0,0,1
"510",53,503,0.9,"stim/51.jpeg",5,1,3,2,"HouseObjects",2,"stim/objects/HouseObjects/dustpan3.png",2,"right","right",0.441999912,1,1,1
"511",53,504,0.9,"stim/64.jpeg",6,4,3,2,"Instruments",1,"stim/objects/Instruments/gong3.png",1,"left","left",0.707000017,1,1,1
"512",53,505,0.9,"stim/61.jpeg",6,1,3,2,"Instruments",1,"stim/objects/Instruments/frenchhorn3.png",3,"left","left",0.741000175,1,1,1
"513",53,506,0.9,"stim/64.jpeg",6,4,3,2,"Instruments",1,"stim/objects/Instruments/grandpiano3.png",4,"left","left",0.512999773,1,1,1
"514",53,507,0.9,"stim/51.jpeg",5,1,3,1,"HouseObjects",2,"stim/objects/HouseObjects/flyswatter4.png",1,"right","right",0.495000124,1,1,1
"515",53,508,0.5,"stim/23.jpeg",2,3,1,2,"HouseObjects",2,"stim/objects/HouseObjects/bottle3.png",3,"right","left",0.599999905,0,0,1
"516",53,509,0.9,"stim/52.jpeg",5,2,3,2,"HouseObjects",2,"stim/objects/HouseObjects/doormat3.png",4,"right","right",0.582000017,1,1,1
"517",53,510,0.9,"stim/51.jpeg",5,1,3,2,"HouseObjects",2,"stim/objects/HouseObjects/doormat3.png",2,"right","right",0.491000175,1,1,1
"518",53,511,0.7,"stim/31.jpeg",3,1,2,2,"HouseObjects",2,"stim/objects/HouseObjects/clothespin3.png",1,"right","right",0.487999916,1,1,1
"519",53,512,0.5,"stim/11.jpeg",1,1,1,2,"HouseObjects",2,"stim/objects/HouseObjects/ashtray3.png",4,"right","right",0.610000134,1,1,1
"520",53,513,0.9,"stim/62.jpeg",6,2,3,2,"Instruments",1,"stim/objects/Instruments/flutetrans3.png",2,"left","left",0.526000023,1,1,1
"521",53,514,0.9,"stim/53.jpeg",5,3,3,2,"HouseObjects",2,"stim/objects/HouseObjects/doormat3.png",3,"right","right",0.510000229,1,1,1
"522",53,515,0.9,"stim/62.jpeg",6,2,3,2,"Instruments",1,"stim/objects/Instruments/frenchhorn3.png",4,"left","left",0.516000032,1,1,1
"523",53,516,0.9,"stim/62.jpeg",6,2,3,2,"Instruments",1,"stim/objects/Instruments/frenchhorn3.png",2,"left","left",0.43900013,1,1,1
"524",53,517,0.3,"stim/34.jpeg",3,4,2,1,"Instruments",1,"stim/objects/Instruments/vuvuzela3.png",4,"left","right",0.328999996,0,0,1
"525",53,518,0.9,"stim/64.jpeg",6,4,3,2,"Instruments",1,"stim/objects/Instruments/flute3.png",4,"left","left",0.541999817,1,1,1
"526",53,519,0.9,"stim/62.jpeg",6,2,3,2,"Instruments",1,"stim/objects/Instruments/grandpiano3.png",2,"left","right",0.377000093,0,0,1
"527",53,520,0.7,"stim/34.jpeg",3,4,2,1,"HouseObjects",2,"stim/objects/HouseObjects/ballofstring4.png",4,"right","right",0.438000202,1,1,1
"528",53,521,0.9,"stim/52.jpeg",5,2,3,2,"HouseObjects",2,"stim/objects/HouseObjects/dustpan3.png",1,"right","left",0.427000046,0,0,1
"529",53,522,0.9,"stim/53.jpeg",5,3,3,2,"HouseObjects",2,"stim/objects/HouseObjects/dustpan3.png",4,"right","right",0.460000038,1,1,1
"530",53,523,0.5,"stim/23.jpeg",2,3,1,2,"HouseObjects",2,"stim/objects/HouseObjects/clock3.png",4,"right","right",0.523000002,1,1,1
"531",53,524,0.9,"stim/54.jpeg",5,4,3,2,"HouseObjects",2,"stim/objects/HouseObjects/glass3.png",1,"right","left",0.56799984,0,0,1
"532",53,525,0.9,"stim/52.jpeg",5,2,3,2,"HouseObjects",2,"stim/objects/HouseObjects/glass3.png",2,"right","right",0.490999937,1,1,1
"533",53,526,0.1,"stim/64.jpeg",6,4,3,1,"HouseObjects",2,"stim/objects/HouseObjects/wateringcan4.png",2,"right","left",0.569000006,0,0,1
"534",53,527,0.9,"stim/61.jpeg",6,1,3,2,"Instruments",1,"stim/objects/Instruments/gong3.png",4,"left","left",0.559999943,1,1,1
"535",53,528,0.9,"stim/51.jpeg",5,1,3,2,"HouseObjects",2,"stim/objects/HouseObjects/doormat3.png",3,"right","right",0.351000071,1,1,1
"536",53,529,0.5,"stim/23.jpeg",2,3,1,2,"Instruments",1,"stim/objects/Instruments/clarinet3.png",1,"left","left",0.613000154,1,1,1
"537",53,530,0.9,"stim/51.jpeg",5,1,3,2,"HouseObjects",2,"stim/objects/HouseObjects/flyswatter3.png",3,"right","left",0.376000166,0,0,1
"538",53,531,0.9,"stim/64.jpeg",6,4,3,2,"Instruments",1,"stim/objects/Instruments/gong3.png",1,"left","left",0.495000124,1,1,1
"539",53,532,0.9,"stim/53.jpeg",5,3,3,2,"HouseObjects",2,"stim/objects/HouseObjects/dustpan3.png",4,"right","right",0.357999802,1,1,1
"540",53,533,0.9,"stim/63.jpeg",6,3,3,2,"Instruments",1,"stim/objects/Instruments/gong3.png",4,"left","left",0.56099987,1,1,1
"541",53,534,0.5,"stim/11.jpeg",1,1,1,1,"Instruments",1,"stim/objects/Instruments/harp3.png",2,"left","right",0.73300004,0,0,1
"542",53,535,0.9,"stim/63.jpeg",6,3,3,2,"Instruments",1,"stim/objects/Instruments/flute3.png",3,"left","left",0.531999826,1,1,1
"543",53,536,0.9,"stim/61.jpeg",6,1,3,2,"Instruments",1,"stim/objects/Instruments/frenchhorn3.png",4,"left","right",0.362999916,0,0,1
"544",53,537,0.9,"stim/61.jpeg",6,1,3,2,"Instruments",1,"stim/objects/Instruments/frenchhorn3.png",1,"left","left",0.430999994,1,1,1
"545",53,538,0.7,"stim/44.jpeg",4,4,2,1,"Instruments",1,"stim/objects/Instruments/bassguitar4.png",1,"left","left",0.854000092,1,1,1
"546",53,539,0.5,"stim/13.jpeg",1,3,1,1,"Instruments",1,"stim/objects/Instruments/keyboard3.png",2,"left","left",0.736000061,1,1,1
"547",53,540,0.9,"stim/51.jpeg",5,1,3,2,"HouseObjects",2,"stim/objects/HouseObjects/garbagebin3.png",1,"right","",NA,0,0,1
"548",53,541,0.9,"stim/52.jpeg",5,2,3,2,"HouseObjects",2,"stim/objects/HouseObjects/dustpan3.png",3,"right","right",0.71999979,1,1,1
"549",53,542,0.3,"stim/43.jpeg",4,3,2,1,"HouseObjects",2,"stim/objects/HouseObjects/clothesdryingrack4.png",2,"right","right",0.761999846,1,1,1
"550",53,543,0.9,"stim/64.jpeg",6,4,3,2,"Instruments",1,"stim/objects/Instruments/flute3.png",1,"left","left",0.572999954,1,1,1
"551",53,544,0.9,"stim/64.jpeg",6,4,3,2,"Instruments",1,"stim/objects/Instruments/frenchhorn3.png",3,"left","left",0.760999918,1,1,1
"552",53,545,0.5,"stim/21.jpeg",2,1,1,1,"Instruments",1,"stim/objects/Instruments/musicsheet3.png",1,"left","left",0.588999987,1,1,1
"553",53,546,0.9,"stim/63.jpeg",6,3,3,2,"Instruments",1,"stim/objects/Instruments/frenchhorn3.png",2,"left","left",0.695000172,1,1,1
"554",53,547,0.9,"stim/54.jpeg",5,4,3,1,"HouseObjects",2,"stim/objects/HouseObjects/iron4.png",2,"right","left",0.654999971,0,0,1
"555",53,548,0.1,"stim/51.jpeg",5,1,3,1,"Instruments",1,"stim/objects/Instruments/grandpiano4.png",4,"left","right",0.556999922,0,0,1
"556",53,549,0.1,"stim/63.jpeg",6,3,3,1,"HouseObjects",2,"stim/objects/HouseObjects/ironingboard4.png",4,"right","right",0.48300004,1,1,1
"557",53,550,0.9,"stim/54.jpeg",5,4,3,1,"HouseObjects",2,"stim/objects/HouseObjects/glassmop4.png",3,"right","right",0.623999834,1,1,1
"558",53,551,0.5,"stim/23.jpeg",2,3,1,2,"HouseObjects",2,"stim/objects/HouseObjects/blender3.png",2,"right","left",0.542999983,0,0,1
"559",53,552,0.9,"stim/53.jpeg",5,3,3,2,"HouseObjects",2,"stim/objects/HouseObjects/flyswatter3.png",3,"right","right",0.495999813,1,1,1
"560",53,553,0.7,"stim/41.jpeg",4,1,2,2,"Instruments",1,"stim/objects/Instruments/cymbal3.png",3,"left","right",0.523000002,0,0,1
"561",53,554,0.9,"stim/61.jpeg",6,1,3,1,"Instruments",1,"stim/objects/Instruments/vuvuzela4.png",4,"left","left",0.576999903,1,1,1
"562",53,555,0.7,"stim/41.jpeg",4,1,2,1,"Instruments",1,"stim/objects/Instruments/electricguitar4.png",3,"left","left",0.752000093,1,1,1
"563",53,556,0.3,"stim/31.jpeg",3,1,2,1,"Instruments",1,"stim/objects/Instruments/xylophone3.png",3,"left","right",0.52699995,0,0,1
"564",53,557,0.5,"stim/23.jpeg",2,3,1,2,"Instruments",1,"stim/objects/Instruments/cornet3.png",3,"left","left",0.444999933,1,1,1
"565",53,558,0.9,"stim/53.jpeg",5,3,3,1,"HouseObjects",2,"stim/objects/HouseObjects/handvacuum4.png",3,"right","right",0.490999937,1,1,1
"566",53,559,0.5,"stim/12.jpeg",1,2,1,2,"Instruments",1,"stim/objects/Instruments/acousticguitar3.png",2,"left","right",0.545000076,0,0,1
"567",53,560,0.9,"stim/63.jpeg",6,3,3,1,"Instruments",1,"stim/objects/Instruments/marimba4.png",3,"left","left",0.520999908,1,1,1
"568",53,561,0.3,"stim/41.jpeg",4,1,2,1,"HouseObjects",2,"stim/objects/HouseObjects/coffee4.png",3,"right","left",0.626999855,0,0,1
"569",53,562,0.1,"stim/61.jpeg",6,1,3,1,"HouseObjects",2,"stim/objects/HouseObjects/knife4.png",3,"right","",NA,0,0,1
"570",53,563,0.9,"stim/51.jpeg",5,1,3,2,"HouseObjects",2,"stim/objects/HouseObjects/glass3.png",1,"right","right",0.411000013,1,1,1
"571",53,564,0.5,"stim/14.jpeg",1,4,1,2,"Instruments",1,"stim/objects/Instruments/balalaika3.png",1,"left","left",0.718000174,1,1,1
"572",53,565,0.9,"stim/62.jpeg",6,2,3,2,"Instruments",1,"stim/objects/Instruments/grandpiano3.png",2,"left","left",0.88499999,1,1,1
"573",53,566,0.5,"stim/24.jpeg",2,4,1,2,"HouseObjects",2,"stim/objects/HouseObjects/broom3.png",4,"right","left",0.724000216,0,0,1
"574",53,567,0.5,"stim/11.jpeg",1,1,1,2,"HouseObjects",2,"stim/objects/HouseObjects/bleachbottle3.png",1,"right","left",0.545000076,0,0,1
"575",53,568,0.7,"stim/34.jpeg",3,4,2,2,"HouseObjects",2,"stim/objects/HouseObjects/clothespin3.png",4,"right","right",0.443000078,1,1,1
"576",53,569,0.5,"stim/24.jpeg",2,4,1,2,"Instruments",1,"stim/objects/Instruments/cornet3.png",3,"left","left",0.523000002,1,1,1
"577",53,570,0.9,"stim/51.jpeg",5,1,3,2,"HouseObjects",2,"stim/objects/HouseObjects/flyswatter3.png",4,"right","right",0.426999807,1,1,1
