"","obj_file","X.x","participant.x","trialN.x","trial_cond","scn_file.x","scn_cat","scn_inst","scn_condition","fillers","obj_cat","obj_cat_num","quadrant","corr_ans","key_resp_trial.keys","key_resp_trial.rt","trial_acc","trial_acc_manual","group.x","practice","X.y","participant.y","OvsN","PE_level","object_cat","scn_file.y","corr_scn_cat","corr_scn_inst","scn_file.1","corr_loc","key_resp_id.keys","key_resp_id.rt","key_resp_conf.keys","key_resp_assoc.keys","key_resp_assoc.rt","key_resp_loc.keys","key_resp_loc.rt","trialN.y","id_acc","assoc.acc","cond_assoc","loc.acc","cond_loc","group.y"
"38","stim/objects/HouseObjects/safetypin2.png",1,53,1,0.9,"stim/51.jpeg",5,1,3,NA,"HouseObjects",2,4,"right","",NA,0,0,0,1,NA,NA,NA,NA,NA,NA,NA,NA,NA,NA,NA,NA,NA,NA,NA,NA,NA,NA,NA,NA,NA,NA,NA,NA
"89","stim/objects/HouseObjects/spraybottle.png",2,53,2,0.7,"stim/31.jpeg",3,1,2,NA,"HouseObjects",2,4,"right","",NA,0,0,0,1,NA,NA,NA,NA,NA,NA,NA,NA,NA,NA,NA,NA,NA,NA,NA,NA,NA,NA,NA,NA,NA,NA,NA,NA
"39","stim/objects/HouseObjects/safetypin2.png",3,53,3,0.9,"stim/51.jpeg",5,1,3,NA,"HouseObjects",2,4,"right","right",0.888000011,1,1,0,1,NA,NA,NA,NA,NA,NA,NA,NA,NA,NA,NA,NA,NA,NA,NA,NA,NA,NA,NA,NA,NA,NA,NA,NA
"1","stim/objects/HouseObjects/recyclingbin.png",4,53,4,0.5,"stim/11.jpeg",1,1,1,NA,"HouseObjects",2,2,"right","",NA,0,0,0,1,NA,NA,NA,NA,NA,NA,NA,NA,NA,NA,NA,NA,NA,NA,NA,NA,NA,NA,NA,NA,NA,NA,NA,NA
"196","stim/objects/Instruments/triangle2.png",5,53,5,0.9,"stim/61.jpeg",6,1,3,NA,"Instruments",1,2,"left","left",0.631999969,1,1,0,1,NA,NA,NA,NA,NA,NA,NA,NA,NA,NA,NA,NA,NA,NA,NA,NA,NA,NA,NA,NA,NA,NA,NA,NA
"169","stim/objects/Instruments/saxophone.png",6,53,6,0.5,"stim/21.jpeg",2,1,1,NA,"Instruments",1,3,"left","left",0.815999985,1,1,0,1,NA,NA,NA,NA,NA,NA,NA,NA,NA,NA,NA,NA,NA,NA,NA,NA,NA,NA,NA,NA,NA,NA,NA,NA
"138","stim/objects/Instruments/pipepiano2.png",7,53,7,0.7,"stim/42.jpeg",4,2,2,NA,"Instruments",1,2,"left","left",0.822000027,1,1,0,1,NA,NA,NA,NA,NA,NA,NA,NA,NA,NA,NA,NA,NA,NA,NA,NA,NA,NA,NA,NA,NA,NA,NA,NA
"66","stim/objects/HouseObjects/scale2.png",8,53,8,0.9,"stim/53.jpeg",5,3,3,NA,"HouseObjects",2,1,"right","right",0.588999987,1,1,0,1,NA,NA,NA,NA,NA,NA,NA,NA,NA,NA,NA,NA,NA,NA,NA,NA,NA,NA,NA,NA,NA,NA,NA,NA
"14","stim/objects/HouseObjects/remote2.png",9,53,9,0.3,"stim/42.jpeg",4,2,2,NA,"HouseObjects",2,2,"right","left",0.703000069,0,0,0,1,NA,NA,NA,NA,NA,NA,NA,NA,NA,NA,NA,NA,NA,NA,NA,NA,NA,NA,NA,NA,NA,NA,NA,NA
"139","stim/objects/Instruments/pipepiano2.png",10,53,10,0.7,"stim/42.jpeg",4,2,2,NA,"Instruments",1,1,"left","left",0.627000093,1,1,0,1,NA,NA,NA,NA,NA,NA,NA,NA,NA,NA,NA,NA,NA,NA,NA,NA,NA,NA,NA,NA,NA,NA,NA,NA
"2","stim/objects/HouseObjects/recyclingbin.png",11,53,11,0.5,"stim/11.jpeg",1,1,1,NA,"HouseObjects",2,3,"right","left",0.782000065,0,0,0,1,NA,NA,NA,NA,NA,NA,NA,NA,NA,NA,NA,NA,NA,NA,NA,NA,NA,NA,NA,NA,NA,NA,NA,NA
"208","stim/objects/Instruments/trombone2.png",12,53,12,0.9,"stim/62.jpeg",6,2,3,NA,"Instruments",1,1,"left","left",0.647000074,1,1,0,1,NA,NA,NA,NA,NA,NA,NA,NA,NA,NA,NA,NA,NA,NA,NA,NA,NA,NA,NA,NA,NA,NA,NA,NA
"47","stim/objects/HouseObjects/saw.png",13,53,13,0.5,"stim/22.jpeg",2,2,1,NA,"HouseObjects",2,1,"right","",NA,0,0,0,1,NA,NA,NA,NA,NA,NA,NA,NA,NA,NA,NA,NA,NA,NA,NA,NA,NA,NA,NA,NA,NA,NA,NA,NA
"220","stim/objects/Instruments/trumpet2.png",14,53,14,0.9,"stim/63.jpeg",6,3,3,NA,"Instruments",1,2,"left","left",0.694000006,1,1,0,1,NA,NA,NA,NA,NA,NA,NA,NA,NA,NA,NA,NA,NA,NA,NA,NA,NA,NA,NA,NA,NA,NA,NA,NA
"3","stim/objects/HouseObjects/recyclingbin.png",15,53,15,0.5,"stim/11.jpeg",1,1,1,NA,"HouseObjects",2,1,"right","right",0.855000019,1,1,0,1,NA,NA,NA,NA,NA,NA,NA,NA,NA,NA,NA,NA,NA,NA,NA,NA,NA,NA,NA,NA,NA,NA,NA,NA
"52","stim/objects/HouseObjects/saw2.png",16,53,16,0.9,"stim/52.jpeg",5,2,3,NA,"HouseObjects",2,1,"right","right",0.607000113,1,1,0,1,NA,NA,NA,NA,NA,NA,NA,NA,NA,NA,NA,NA,NA,NA,NA,NA,NA,NA,NA,NA,NA,NA,NA,NA
"232","stim/objects/Instruments/tuba2.png",17,53,17,0.9,"stim/64.jpeg",6,4,3,NA,"Instruments",1,2,"left","left",0.580000162,1,1,0,1,NA,NA,NA,NA,NA,NA,NA,NA,NA,NA,NA,NA,NA,NA,NA,NA,NA,NA,NA,NA,NA,NA,NA,NA
"157","stim/objects/Instruments/record.png",18,53,18,0.5,"stim/13.jpeg",1,3,1,NA,"Instruments",1,2,"left","",NA,0,0,0,1,NA,NA,NA,NA,NA,NA,NA,NA,NA,NA,NA,NA,NA,NA,NA,NA,NA,NA,NA,NA,NA,NA,NA,NA
"90","stim/objects/HouseObjects/spraybottle.png",19,53,19,0.7,"stim/31.jpeg",3,1,2,NA,"HouseObjects",2,3,"right","right",0.638999939,1,1,0,1,NA,NA,NA,NA,NA,NA,NA,NA,NA,NA,NA,NA,NA,NA,NA,NA,NA,NA,NA,NA,NA,NA,NA,NA
"30","stim/objects/HouseObjects/rug2.png",20,53,20,0.3,"stim/44.jpeg",4,4,2,NA,"HouseObjects",2,2,"right","",NA,0,0,0,1,NA,NA,NA,NA,NA,NA,NA,NA,NA,NA,NA,NA,NA,NA,NA,NA,NA,NA,NA,NA,NA,NA,NA,NA
"181","stim/objects/Instruments/tambourine.png",21,53,21,0.5,"stim/23.jpeg",2,3,1,NA,"Instruments",1,4,"left","",NA,0,0,0,1,NA,NA,NA,NA,NA,NA,NA,NA,NA,NA,NA,NA,NA,NA,NA,NA,NA,NA,NA,NA,NA,NA,NA,NA
"133","stim/objects/Instruments/pipepiano.png",22,53,22,0.5,"stim/12.jpeg",1,2,1,NA,"Instruments",1,3,"left","",NA,0,0,0,1,NA,NA,NA,NA,NA,NA,NA,NA,NA,NA,NA,NA,NA,NA,NA,NA,NA,NA,NA,NA,NA,NA,NA,NA
"197","stim/objects/Instruments/triangle2.png",23,53,23,0.9,"stim/61.jpeg",6,1,3,NA,"Instruments",1,3,"left","left",0.693000078,1,1,0,1,NA,NA,NA,NA,NA,NA,NA,NA,NA,NA,NA,NA,NA,NA,NA,NA,NA,NA,NA,NA,NA,NA,NA,NA
"97","stim/objects/HouseObjects/teapot.png",24,53,24,0.7,"stim/32.jpeg",3,2,2,NA,"HouseObjects",2,3,"right","",NA,0,0,0,1,NA,NA,NA,NA,NA,NA,NA,NA,NA,NA,NA,NA,NA,NA,NA,NA,NA,NA,NA,NA,NA,NA,NA,NA
"9","stim/objects/HouseObjects/remote.png",25,53,25,0.5,"stim/12.jpeg",1,2,1,NA,"HouseObjects",2,2,"right","left",0.898000002,0,0,0,1,NA,NA,NA,NA,NA,NA,NA,NA,NA,NA,NA,NA,NA,NA,NA,NA,NA,NA,NA,NA,NA,NA,NA,NA
"10","stim/objects/HouseObjects/remote.png",26,53,26,0.5,"stim/12.jpeg",1,2,1,NA,"HouseObjects",2,2,"right","left",0.592000008,0,0,0,1,NA,NA,NA,NA,NA,NA,NA,NA,NA,NA,NA,NA,NA,NA,NA,NA,NA,NA,NA,NA,NA,NA,NA,NA
"113","stim/objects/HouseObjects/thread.png",27,53,27,0.7,"stim/34.jpeg",3,4,2,NA,"HouseObjects",2,4,"right","right",0.763999939,1,1,0,1,NA,NA,NA,NA,NA,NA,NA,NA,NA,NA,NA,NA,NA,NA,NA,NA,NA,NA,NA,NA,NA,NA,NA,NA
"91","stim/objects/HouseObjects/spraybottle.png",28,53,28,0.7,"stim/31.jpeg",3,1,2,NA,"HouseObjects",2,3,"right","right",0.835000038,1,1,0,1,NA,NA,NA,NA,NA,NA,NA,NA,NA,NA,NA,NA,NA,NA,NA,NA,NA,NA,NA,NA,NA,NA,NA,NA
"175","stim/objects/Instruments/speaker.png",29,53,29,0.5,"stim/22.jpeg",2,2,1,NA,"Instruments",1,1,"left","",NA,0,0,0,1,NA,NA,NA,NA,NA,NA,NA,NA,NA,NA,NA,NA,NA,NA,NA,NA,NA,NA,NA,NA,NA,NA,NA,NA
"17","stim/objects/HouseObjects/rubbergloves.png",30,53,30,0.5,"stim/13.jpeg",1,3,1,NA,"HouseObjects",2,3,"right","",NA,0,0,0,1,NA,NA,NA,NA,NA,NA,NA,NA,NA,NA,NA,NA,NA,NA,NA,NA,NA,NA,NA,NA,NA,NA,NA,NA
"150","stim/objects/Instruments/record_player2.png",31,53,31,0.7,"stim/44.jpeg",4,4,2,NA,"Instruments",1,1,"left","left",0.864000082,1,1,0,1,NA,NA,NA,NA,NA,NA,NA,NA,NA,NA,NA,NA,NA,NA,NA,NA,NA,NA,NA,NA,NA,NA,NA,NA
"217","stim/objects/Instruments/trumpet.png",32,53,32,0.3,"stim/33.jpeg",3,3,2,NA,"Instruments",1,4,"left","right",0.506999969,0,0,0,1,NA,NA,NA,NA,NA,NA,NA,NA,NA,NA,NA,NA,NA,NA,NA,NA,NA,NA,NA,NA,NA,NA,NA,NA
"48","stim/objects/HouseObjects/saw.png",33,53,33,0.5,"stim/22.jpeg",2,2,1,NA,"HouseObjects",2,1,"right","left",0.644000053,0,0,0,1,NA,NA,NA,NA,NA,NA,NA,NA,NA,NA,NA,NA,NA,NA,NA,NA,NA,NA,NA,NA,NA,NA,NA,NA
"187","stim/objects/Instruments/timbal.png",34,53,34,0.5,"stim/24.jpeg",2,4,1,NA,"Instruments",1,3,"left","left",0.687000036,1,1,0,1,NA,NA,NA,NA,NA,NA,NA,NA,NA,NA,NA,NA,NA,NA,NA,NA,NA,NA,NA,NA,NA,NA,NA,NA
"126","stim/objects/Instruments/panflute2.png",35,53,35,0.7,"stim/41.jpeg",4,1,2,NA,"Instruments",1,2,"left","left",0.664000034,1,1,0,1,NA,NA,NA,NA,NA,NA,NA,NA,NA,NA,NA,NA,NA,NA,NA,NA,NA,NA,NA,NA,NA,NA,NA,NA
"53","stim/objects/HouseObjects/saw2.png",36,53,36,0.9,"stim/52.jpeg",5,2,3,NA,"HouseObjects",2,2,"right","right",0.476999998,1,1,0,1,NA,NA,NA,NA,NA,NA,NA,NA,NA,NA,NA,NA,NA,NA,NA,NA,NA,NA,NA,NA,NA,NA,NA,NA
"221","stim/objects/Instruments/trumpet2.png",37,53,37,0.9,"stim/63.jpeg",6,3,3,NA,"Instruments",1,3,"left","left",0.595999956,1,1,0,1,NA,NA,NA,NA,NA,NA,NA,NA,NA,NA,NA,NA,NA,NA,NA,NA,NA,NA,NA,NA,NA,NA,NA,NA
"25","stim/objects/HouseObjects/rug.png",38,53,38,0.5,"stim/14.jpeg",1,4,1,NA,"HouseObjects",2,4,"right","left",0.80099988,0,0,0,1,NA,NA,NA,NA,NA,NA,NA,NA,NA,NA,NA,NA,NA,NA,NA,NA,NA,NA,NA,NA,NA,NA,NA,NA
"134","stim/objects/Instruments/pipepiano.png",39,53,39,0.5,"stim/12.jpeg",1,2,1,NA,"Instruments",1,4,"left","",NA,0,0,0,1,NA,NA,NA,NA,NA,NA,NA,NA,NA,NA,NA,NA,NA,NA,NA,NA,NA,NA,NA,NA,NA,NA,NA,NA
"98","stim/objects/HouseObjects/teapot.png",40,53,40,0.7,"stim/32.jpeg",3,2,2,NA,"HouseObjects",2,1,"right","",NA,0,0,0,1,NA,NA,NA,NA,NA,NA,NA,NA,NA,NA,NA,NA,NA,NA,NA,NA,NA,NA,NA,NA,NA,NA,NA,NA
"112","stim/objects/HouseObjects/thermometer2.png",41,53,41,0.1,"stim/63.jpeg",6,3,3,NA,"HouseObjects",2,4,"right","",NA,0,0,0,1,NA,NA,NA,NA,NA,NA,NA,NA,NA,NA,NA,NA,NA,NA,NA,NA,NA,NA,NA,NA,NA,NA,NA,NA
"99","stim/objects/HouseObjects/teapot.png",42,53,42,0.7,"stim/32.jpeg",3,2,2,NA,"HouseObjects",2,3,"right","",NA,0,0,0,1,NA,NA,NA,NA,NA,NA,NA,NA,NA,NA,NA,NA,NA,NA,NA,NA,NA,NA,NA,NA,NA,NA,NA,NA
"193","stim/objects/Instruments/triangle.png",43,53,43,0.3,"stim/31.jpeg",3,1,2,NA,"Instruments",1,2,"left","",NA,0,0,0,1,NA,NA,NA,NA,NA,NA,NA,NA,NA,NA,NA,NA,NA,NA,NA,NA,NA,NA,NA,NA,NA,NA,NA,NA
"151","stim/objects/Instruments/record_player2.png",44,53,44,0.7,"stim/44.jpeg",4,4,2,NA,"Instruments",1,2,"left","left",0.840000153,1,1,0,1,NA,NA,NA,NA,NA,NA,NA,NA,NA,NA,NA,NA,NA,NA,NA,NA,NA,NA,NA,NA,NA,NA,NA,NA
"162","stim/objects/Instruments/record2.png",45,53,45,0.7,"stim/43.jpeg",4,3,2,NA,"Instruments",1,4,"left","",NA,0,0,0,1,NA,NA,NA,NA,NA,NA,NA,NA,NA,NA,NA,NA,NA,NA,NA,NA,NA,NA,NA,NA,NA,NA,NA,NA
"120","stim/objects/HouseObjects/thread2.png",46,53,46,0.1,"stim/64.jpeg",6,4,3,NA,"HouseObjects",2,4,"right","",NA,0,0,0,1,NA,NA,NA,NA,NA,NA,NA,NA,NA,NA,NA,NA,NA,NA,NA,NA,NA,NA,NA,NA,NA,NA,NA,NA
"127","stim/objects/Instruments/panflute2.png",47,53,47,0.7,"stim/41.jpeg",4,1,2,NA,"Instruments",1,2,"left","",NA,0,0,0,1,NA,NA,NA,NA,NA,NA,NA,NA,NA,NA,NA,NA,NA,NA,NA,NA,NA,NA,NA,NA,NA,NA,NA,NA
"128","stim/objects/Instruments/panflute2.png",48,53,48,0.7,"stim/41.jpeg",4,1,2,NA,"Instruments",1,1,"left","",NA,0,0,0,1,NA,NA,NA,NA,NA,NA,NA,NA,NA,NA,NA,NA,NA,NA,NA,NA,NA,NA,NA,NA,NA,NA,NA,NA
"67","stim/objects/HouseObjects/scale2.png",49,53,49,0.9,"stim/53.jpeg",5,3,3,NA,"HouseObjects",2,1,"right","right",0.582000017,1,1,0,1,NA,NA,NA,NA,NA,NA,NA,NA,NA,NA,NA,NA,NA,NA,NA,NA,NA,NA,NA,NA,NA,NA,NA,NA
"105","stim/objects/HouseObjects/thermometer.png",50,53,50,0.7,"stim/33.jpeg",3,3,2,NA,"HouseObjects",2,2,"right","left",0.495000124,0,0,0,1,NA,NA,NA,NA,NA,NA,NA,NA,NA,NA,NA,NA,NA,NA,NA,NA,NA,NA,NA,NA,NA,NA,NA,NA
"158","stim/objects/Instruments/record.png",51,53,51,0.5,"stim/13.jpeg",1,3,1,NA,"Instruments",1,3,"left","left",0.578000069,1,1,0,1,NA,NA,NA,NA,NA,NA,NA,NA,NA,NA,NA,NA,NA,NA,NA,NA,NA,NA,NA,NA,NA,NA,NA,NA
"80","stim/objects/HouseObjects/sponge2.png",52,53,52,0.9,"stim/54.jpeg",5,4,3,NA,"HouseObjects",2,2,"right","right",0.507999897,1,1,0,1,NA,NA,NA,NA,NA,NA,NA,NA,NA,NA,NA,NA,NA,NA,NA,NA,NA,NA,NA,NA,NA,NA,NA,NA
"33","stim/objects/HouseObjects/safetypin.png",53,53,53,0.5,"stim/21.jpeg",2,1,1,NA,"HouseObjects",2,3,"right","left",0.535000086,0,0,0,1,NA,NA,NA,NA,NA,NA,NA,NA,NA,NA,NA,NA,NA,NA,NA,NA,NA,NA,NA,NA,NA,NA,NA,NA
"61","stim/objects/HouseObjects/scale.png",54,53,54,0.5,"stim/23.jpeg",2,3,1,NA,"HouseObjects",2,3,"right","left",0.80700016,0,0,0,1,NA,NA,NA,NA,NA,NA,NA,NA,NA,NA,NA,NA,NA,NA,NA,NA,NA,NA,NA,NA,NA,NA,NA,NA
"34","stim/objects/HouseObjects/safetypin.png",55,53,55,0.5,"stim/21.jpeg",2,1,1,NA,"HouseObjects",2,3,"right","left",0.847999811,0,0,0,1,NA,NA,NA,NA,NA,NA,NA,NA,NA,NA,NA,NA,NA,NA,NA,NA,NA,NA,NA,NA,NA,NA,NA,NA
"145","stim/objects/Instruments/record_player.png",56,53,56,0.5,"stim/14.jpeg",1,4,1,NA,"Instruments",1,1,"left","",NA,0,0,0,1,NA,NA,NA,NA,NA,NA,NA,NA,NA,NA,NA,NA,NA,NA,NA,NA,NA,NA,NA,NA,NA,NA,NA,NA
"174","stim/objects/Instruments/saxophone2.png",57,53,57,0.1,"stim/51.jpeg",5,1,3,NA,"Instruments",1,4,"left","right",0.467000008,0,0,0,1,NA,NA,NA,NA,NA,NA,NA,NA,NA,NA,NA,NA,NA,NA,NA,NA,NA,NA,NA,NA,NA,NA,NA,NA
"198","stim/objects/Instruments/triangle2.png",58,53,58,0.9,"stim/61.jpeg",6,1,3,NA,"Instruments",1,3,"left","left",0.512000084,1,1,0,1,NA,NA,NA,NA,NA,NA,NA,NA,NA,NA,NA,NA,NA,NA,NA,NA,NA,NA,NA,NA,NA,NA,NA,NA
"159","stim/objects/Instruments/record.png",59,53,59,0.5,"stim/13.jpeg",1,3,1,NA,"Instruments",1,1,"left","left",0.717000008,1,1,0,1,NA,NA,NA,NA,NA,NA,NA,NA,NA,NA,NA,NA,NA,NA,NA,NA,NA,NA,NA,NA,NA,NA,NA,NA
"192","stim/objects/Instruments/timbal2.png",60,53,60,0.1,"stim/54.jpeg",5,4,3,NA,"Instruments",1,1,"left","right",0.575000048,0,0,0,1,NA,NA,NA,NA,NA,NA,NA,NA,NA,NA,NA,NA,NA,NA,NA,NA,NA,NA,NA,NA,NA,NA,NA,NA
"199","stim/objects/Instruments/triangle2.png",61,53,61,0.9,"stim/61.jpeg",6,1,3,NA,"Instruments",1,4,"left","left",0.526000023,1,1,0,1,NA,NA,NA,NA,NA,NA,NA,NA,NA,NA,NA,NA,NA,NA,NA,NA,NA,NA,NA,NA,NA,NA,NA,NA
"233","stim/objects/Instruments/tuba2.png",62,53,62,0.9,"stim/64.jpeg",6,4,3,NA,"Instruments",1,3,"left","left",0.000999928,1,1,0,1,NA,NA,NA,NA,NA,NA,NA,NA,NA,NA,NA,NA,NA,NA,NA,NA,NA,NA,NA,NA,NA,NA,NA,NA
"160","stim/objects/Instruments/record.png",63,53,63,0.5,"stim/13.jpeg",1,3,1,NA,"Instruments",1,1,"left","left",0.828999996,1,1,0,1,NA,NA,NA,NA,NA,NA,NA,NA,NA,NA,NA,NA,NA,NA,NA,NA,NA,NA,NA,NA,NA,NA,NA,NA
"163","stim/objects/Instruments/record2.png",64,53,64,0.7,"stim/43.jpeg",4,3,2,NA,"Instruments",1,1,"left","left",0.636999846,1,1,0,1,NA,NA,NA,NA,NA,NA,NA,NA,NA,NA,NA,NA,NA,NA,NA,NA,NA,NA,NA,NA,NA,NA,NA,NA
"54","stim/objects/HouseObjects/saw2.png",65,53,65,0.9,"stim/52.jpeg",5,2,3,NA,"HouseObjects",2,2,"right","right",0.526000023,1,1,0,1,NA,NA,NA,NA,NA,NA,NA,NA,NA,NA,NA,NA,NA,NA,NA,NA,NA,NA,NA,NA,NA,NA,NA,NA
"81","stim/objects/HouseObjects/sponge2.png",66,53,66,0.9,"stim/54.jpeg",5,4,3,NA,"HouseObjects",2,1,"right","right",0.773000002,1,1,0,1,NA,NA,NA,NA,NA,NA,NA,NA,NA,NA,NA,NA,NA,NA,NA,NA,NA,NA,NA,NA,NA,NA,NA,NA
"114","stim/objects/HouseObjects/thread.png",67,53,67,0.7,"stim/34.jpeg",3,4,2,NA,"HouseObjects",2,2,"right","right",0.64199996,1,1,0,1,NA,NA,NA,NA,NA,NA,NA,NA,NA,NA,NA,NA,NA,NA,NA,NA,NA,NA,NA,NA,NA,NA,NA,NA
"218","stim/objects/Instruments/trumpet.png",68,53,68,0.3,"stim/33.jpeg",3,3,2,NA,"Instruments",1,3,"left","right",0.572000027,0,0,0,1,NA,NA,NA,NA,NA,NA,NA,NA,NA,NA,NA,NA,NA,NA,NA,NA,NA,NA,NA,NA,NA,NA,NA,NA
"135","stim/objects/Instruments/pipepiano.png",69,53,69,0.5,"stim/12.jpeg",1,2,1,NA,"Instruments",1,1,"left","left",0.32799983,1,1,0,1,NA,NA,NA,NA,NA,NA,NA,NA,NA,NA,NA,NA,NA,NA,NA,NA,NA,NA,NA,NA,NA,NA,NA,NA
"6","stim/objects/HouseObjects/recyclingbin2.png",70,53,70,0.3,"stim/41.jpeg",4,1,2,NA,"HouseObjects",2,3,"right","left",0.606999874,0,0,0,1,NA,NA,NA,NA,NA,NA,NA,NA,NA,NA,NA,NA,NA,NA,NA,NA,NA,NA,NA,NA,NA,NA,NA,NA
"194","stim/objects/Instruments/triangle.png",71,53,71,0.3,"stim/31.jpeg",3,1,2,NA,"Instruments",1,2,"left","right",0.575999975,0,0,0,1,NA,NA,NA,NA,NA,NA,NA,NA,NA,NA,NA,NA,NA,NA,NA,NA,NA,NA,NA,NA,NA,NA,NA,NA
"180","stim/objects/Instruments/speaker2.png",72,53,72,0.1,"stim/52.jpeg",5,2,3,NA,"Instruments",1,3,"left","right",0.637000084,0,0,0,1,NA,NA,NA,NA,NA,NA,NA,NA,NA,NA,NA,NA,NA,NA,NA,NA,NA,NA,NA,NA,NA,NA,NA,NA
"15","stim/objects/HouseObjects/remote2.png",73,53,73,0.3,"stim/42.jpeg",4,2,2,NA,"HouseObjects",2,3,"right","",NA,0,0,0,1,NA,NA,NA,NA,NA,NA,NA,NA,NA,NA,NA,NA,NA,NA,NA,NA,NA,NA,NA,NA,NA,NA,NA,NA
"209","stim/objects/Instruments/trombone2.png",74,53,74,0.9,"stim/62.jpeg",6,2,3,NA,"Instruments",1,4,"left","left",0.564999819,1,1,0,1,NA,NA,NA,NA,NA,NA,NA,NA,NA,NA,NA,NA,NA,NA,NA,NA,NA,NA,NA,NA,NA,NA,NA,NA
"140","stim/objects/Instruments/pipepiano2.png",75,53,75,0.7,"stim/42.jpeg",4,2,2,NA,"Instruments",1,3,"left","left",0.812000036,1,1,0,1,NA,NA,NA,NA,NA,NA,NA,NA,NA,NA,NA,NA,NA,NA,NA,NA,NA,NA,NA,NA,NA,NA,NA,NA
"62","stim/objects/HouseObjects/scale.png",76,53,76,0.5,"stim/23.jpeg",2,3,1,NA,"HouseObjects",2,1,"right","",NA,0,0,0,1,NA,NA,NA,NA,NA,NA,NA,NA,NA,NA,NA,NA,NA,NA,NA,NA,NA,NA,NA,NA,NA,NA,NA,NA
"82","stim/objects/HouseObjects/sponge2.png",77,53,77,0.9,"stim/54.jpeg",5,4,3,NA,"HouseObjects",2,4,"right","right",0.606000185,1,1,0,1,NA,NA,NA,NA,NA,NA,NA,NA,NA,NA,NA,NA,NA,NA,NA,NA,NA,NA,NA,NA,NA,NA,NA,NA
"210","stim/objects/Instruments/trombone2.png",78,53,78,0.9,"stim/62.jpeg",6,2,3,NA,"Instruments",1,1,"left","left",0.493000031,1,1,0,1,NA,NA,NA,NA,NA,NA,NA,NA,NA,NA,NA,NA,NA,NA,NA,NA,NA,NA,NA,NA,NA,NA,NA,NA
"200","stim/objects/Instruments/triangle2.png",79,53,79,0.9,"stim/61.jpeg",6,1,3,NA,"Instruments",1,3,"left","left",0.507999897,1,1,0,1,NA,NA,NA,NA,NA,NA,NA,NA,NA,NA,NA,NA,NA,NA,NA,NA,NA,NA,NA,NA,NA,NA,NA,NA
"211","stim/objects/Instruments/trombone2.png",80,53,80,0.9,"stim/62.jpeg",6,2,3,NA,"Instruments",1,4,"left","left",0.523999929,1,1,0,1,NA,NA,NA,NA,NA,NA,NA,NA,NA,NA,NA,NA,NA,NA,NA,NA,NA,NA,NA,NA,NA,NA,NA,NA
"205","stim/objects/Instruments/trombone.png",81,53,81,0.3,"stim/32.jpeg",3,2,2,NA,"Instruments",1,2,"left","right",0.479000092,0,0,0,1,NA,NA,NA,NA,NA,NA,NA,NA,NA,NA,NA,NA,NA,NA,NA,NA,NA,NA,NA,NA,NA,NA,NA,NA
"121","stim/objects/Instruments/panflute.png",82,53,82,0.5,"stim/11.jpeg",1,1,1,NA,"Instruments",1,4,"left","",NA,0,0,0,1,NA,NA,NA,NA,NA,NA,NA,NA,NA,NA,NA,NA,NA,NA,NA,NA,NA,NA,NA,NA,NA,NA,NA,NA
"152","stim/objects/Instruments/record_player2.png",83,53,83,0.7,"stim/44.jpeg",4,4,2,NA,"Instruments",1,1,"left","left",0.646000147,1,1,0,1,NA,NA,NA,NA,NA,NA,NA,NA,NA,NA,NA,NA,NA,NA,NA,NA,NA,NA,NA,NA,NA,NA,NA,NA
"188","stim/objects/Instruments/timbal.png",84,53,84,0.5,"stim/24.jpeg",2,4,1,NA,"Instruments",1,2,"left","",NA,0,0,0,1,NA,NA,NA,NA,NA,NA,NA,NA,NA,NA,NA,NA,NA,NA,NA,NA,NA,NA,NA,NA,NA,NA,NA,NA
"40","stim/objects/HouseObjects/safetypin2.png",85,53,85,0.9,"stim/51.jpeg",5,1,3,NA,"HouseObjects",2,1,"right","right",0.493000031,1,1,0,1,NA,NA,NA,NA,NA,NA,NA,NA,NA,NA,NA,NA,NA,NA,NA,NA,NA,NA,NA,NA,NA,NA,NA,NA
"122","stim/objects/Instruments/panflute.png",86,53,86,0.5,"stim/11.jpeg",1,1,1,NA,"Instruments",1,1,"left","left",0.882999897,1,1,0,1,NA,NA,NA,NA,NA,NA,NA,NA,NA,NA,NA,NA,NA,NA,NA,NA,NA,NA,NA,NA,NA,NA,NA,NA
"55","stim/objects/HouseObjects/saw2.png",87,53,87,0.9,"stim/52.jpeg",5,2,3,NA,"HouseObjects",2,4,"right","right",0.549000025,1,1,0,1,NA,NA,NA,NA,NA,NA,NA,NA,NA,NA,NA,NA,NA,NA,NA,NA,NA,NA,NA,NA,NA,NA,NA,NA
"222","stim/objects/Instruments/trumpet2.png",88,53,88,0.9,"stim/63.jpeg",6,3,3,NA,"Instruments",1,4,"left","left",0.537999868,1,1,0,1,NA,NA,NA,NA,NA,NA,NA,NA,NA,NA,NA,NA,NA,NA,NA,NA,NA,NA,NA,NA,NA,NA,NA,NA
"153","stim/objects/Instruments/record_player2.png",89,53,89,0.7,"stim/44.jpeg",4,4,2,NA,"Instruments",1,3,"left","left",0.803999901,1,1,0,1,NA,NA,NA,NA,NA,NA,NA,NA,NA,NA,NA,NA,NA,NA,NA,NA,NA,NA,NA,NA,NA,NA,NA,NA
"195","stim/objects/Instruments/triangle.png",90,53,90,0.3,"stim/31.jpeg",3,1,2,NA,"Instruments",1,3,"left","right",0.571000099,0,0,0,1,NA,NA,NA,NA,NA,NA,NA,NA,NA,NA,NA,NA,NA,NA,NA,NA,NA,NA,NA,NA,NA,NA,NA,NA
"22","stim/objects/HouseObjects/rubbergloves2.png",91,53,91,0.3,"stim/43.jpeg",4,3,2,NA,"HouseObjects",2,4,"right","",NA,0,0,0,1,NA,NA,NA,NA,NA,NA,NA,NA,NA,NA,NA,NA,NA,NA,NA,NA,NA,NA,NA,NA,NA,NA,NA,NA
"41","stim/objects/HouseObjects/safetypin2.png",92,53,92,0.9,"stim/51.jpeg",5,1,3,NA,"HouseObjects",2,3,"right","left",0.496999979,0,0,0,1,NA,NA,NA,NA,NA,NA,NA,NA,NA,NA,NA,NA,NA,NA,NA,NA,NA,NA,NA,NA,NA,NA,NA,NA
"68","stim/objects/HouseObjects/scale2.png",93,53,93,0.9,"stim/53.jpeg",5,3,3,NA,"HouseObjects",2,3,"right","left",0.412000179,0,0,0,1,NA,NA,NA,NA,NA,NA,NA,NA,NA,NA,NA,NA,NA,NA,NA,NA,NA,NA,NA,NA,NA,NA,NA,NA
"234","stim/objects/Instruments/tuba2.png",94,53,94,0.9,"stim/64.jpeg",6,4,3,NA,"Instruments",1,3,"left","left",0.486999989,1,1,0,1,NA,NA,NA,NA,NA,NA,NA,NA,NA,NA,NA,NA,NA,NA,NA,NA,NA,NA,NA,NA,NA,NA,NA,NA
"141","stim/objects/Instruments/pipepiano2.png",95,53,95,0.7,"stim/42.jpeg",4,2,2,NA,"Instruments",1,4,"left","left",0.79399991,1,1,0,1,NA,NA,NA,NA,NA,NA,NA,NA,NA,NA,NA,NA,NA,NA,NA,NA,NA,NA,NA,NA,NA,NA,NA,NA
"206","stim/objects/Instruments/trombone.png",96,53,96,0.3,"stim/32.jpeg",3,2,2,NA,"Instruments",1,3,"left","",NA,0,0,0,1,NA,NA,NA,NA,NA,NA,NA,NA,NA,NA,NA,NA,NA,NA,NA,NA,NA,NA,NA,NA,NA,NA,NA,NA
"92","stim/objects/HouseObjects/spraybottle.png",97,53,97,0.7,"stim/31.jpeg",3,1,2,NA,"HouseObjects",2,2,"right","right",0.546000004,1,1,0,1,NA,NA,NA,NA,NA,NA,NA,NA,NA,NA,NA,NA,NA,NA,NA,NA,NA,NA,NA,NA,NA,NA,NA,NA
"93","stim/objects/HouseObjects/spraybottle.png",98,53,98,0.7,"stim/31.jpeg",3,1,2,NA,"HouseObjects",2,2,"right","right",0.491999865,1,1,0,1,NA,NA,NA,NA,NA,NA,NA,NA,NA,NA,NA,NA,NA,NA,NA,NA,NA,NA,NA,NA,NA,NA,NA,NA
"11","stim/objects/HouseObjects/remote.png",99,53,99,0.5,"stim/12.jpeg",1,2,1,NA,"HouseObjects",2,3,"right","left",0.782999992,0,0,0,1,NA,NA,NA,NA,NA,NA,NA,NA,NA,NA,NA,NA,NA,NA,NA,NA,NA,NA,NA,NA,NA,NA,NA,NA
"129","stim/objects/Instruments/panflute2.png",100,53,100,0.7,"stim/41.jpeg",4,1,2,NA,"Instruments",1,1,"left","left",0.830000162,1,1,0,1,NA,NA,NA,NA,NA,NA,NA,NA,NA,NA,NA,NA,NA,NA,NA,NA,NA,NA,NA,NA,NA,NA,NA,NA
"136","stim/objects/Instruments/pipepiano.png",101,53,101,0.5,"stim/12.jpeg",1,2,1,NA,"Instruments",1,2,"left","right",0.762000084,0,0,0,1,NA,NA,NA,NA,NA,NA,NA,NA,NA,NA,NA,NA,NA,NA,NA,NA,NA,NA,NA,NA,NA,NA,NA,NA
"69","stim/objects/HouseObjects/scale2.png",102,53,102,0.9,"stim/53.jpeg",5,3,3,NA,"HouseObjects",2,2,"right","right",0.690000057,1,1,0,1,NA,NA,NA,NA,NA,NA,NA,NA,NA,NA,NA,NA,NA,NA,NA,NA,NA,NA,NA,NA,NA,NA,NA,NA
"137","stim/objects/Instruments/pipepiano.png",103,53,103,0.5,"stim/12.jpeg",1,2,1,NA,"Instruments",1,4,"left","left",0.796000004,1,1,0,1,NA,NA,NA,NA,NA,NA,NA,NA,NA,NA,NA,NA,NA,NA,NA,NA,NA,NA,NA,NA,NA,NA,NA,NA
"70","stim/objects/HouseObjects/scale2.png",104,53,104,0.9,"stim/53.jpeg",5,3,3,NA,"HouseObjects",2,1,"right","",NA,0,0,0,1,NA,NA,NA,NA,NA,NA,NA,NA,NA,NA,NA,NA,NA,NA,NA,NA,NA,NA,NA,NA,NA,NA,NA,NA
"142","stim/objects/Instruments/pipepiano2.png",105,53,105,0.7,"stim/42.jpeg",4,2,2,NA,"Instruments",1,4,"left","left",0.546000004,1,1,0,1,NA,NA,NA,NA,NA,NA,NA,NA,NA,NA,NA,NA,NA,NA,NA,NA,NA,NA,NA,NA,NA,NA,NA,NA
"31","stim/objects/HouseObjects/rug2.png",106,53,106,0.3,"stim/44.jpeg",4,4,2,NA,"HouseObjects",2,4,"right","left",0.827000141,0,0,0,1,NA,NA,NA,NA,NA,NA,NA,NA,NA,NA,NA,NA,NA,NA,NA,NA,NA,NA,NA,NA,NA,NA,NA,NA
"63","stim/objects/HouseObjects/scale.png",107,53,107,0.5,"stim/23.jpeg",2,3,1,NA,"HouseObjects",2,4,"right","right",0.616999865,1,1,0,1,NA,NA,NA,NA,NA,NA,NA,NA,NA,NA,NA,NA,NA,NA,NA,NA,NA,NA,NA,NA,NA,NA,NA,NA
"164","stim/objects/Instruments/record2.png",108,53,108,0.7,"stim/43.jpeg",4,3,2,NA,"Instruments",1,3,"left","left",0.575000048,1,1,0,1,NA,NA,NA,NA,NA,NA,NA,NA,NA,NA,NA,NA,NA,NA,NA,NA,NA,NA,NA,NA,NA,NA,NA,NA
"235","stim/objects/Instruments/tuba2.png",109,53,109,0.9,"stim/64.jpeg",6,4,3,NA,"Instruments",1,1,"left","",NA,0,0,0,1,NA,NA,NA,NA,NA,NA,NA,NA,NA,NA,NA,NA,NA,NA,NA,NA,NA,NA,NA,NA,NA,NA,NA,NA
"123","stim/objects/Instruments/panflute.png",110,53,110,0.5,"stim/11.jpeg",1,1,1,NA,"Instruments",1,2,"left","left",0.598999977,1,1,0,1,NA,NA,NA,NA,NA,NA,NA,NA,NA,NA,NA,NA,NA,NA,NA,NA,NA,NA,NA,NA,NA,NA,NA,NA
"165","stim/objects/Instruments/record2.png",111,53,111,0.7,"stim/43.jpeg",4,3,2,NA,"Instruments",1,1,"left","left",0.770999908,1,1,0,1,NA,NA,NA,NA,NA,NA,NA,NA,NA,NA,NA,NA,NA,NA,NA,NA,NA,NA,NA,NA,NA,NA,NA,NA
"115","stim/objects/HouseObjects/thread.png",112,53,112,0.7,"stim/34.jpeg",3,4,2,NA,"HouseObjects",2,3,"right","",NA,0,0,0,1,NA,NA,NA,NA,NA,NA,NA,NA,NA,NA,NA,NA,NA,NA,NA,NA,NA,NA,NA,NA,NA,NA,NA,NA
"26","stim/objects/HouseObjects/rug.png",113,53,113,0.5,"stim/14.jpeg",1,4,1,NA,"HouseObjects",2,2,"right","left",0.577000141,0,0,0,1,NA,NA,NA,NA,NA,NA,NA,NA,NA,NA,NA,NA,NA,NA,NA,NA,NA,NA,NA,NA,NA,NA,NA,NA
"42","stim/objects/HouseObjects/safetypin2.png",114,53,114,0.9,"stim/51.jpeg",5,1,3,NA,"HouseObjects",2,2,"right","right",0.417999983,1,1,0,1,NA,NA,NA,NA,NA,NA,NA,NA,NA,NA,NA,NA,NA,NA,NA,NA,NA,NA,NA,NA,NA,NA,NA,NA
"166","stim/objects/Instruments/record2.png",115,53,115,0.7,"stim/43.jpeg",4,3,2,NA,"Instruments",1,2,"left","left",0.604000092,1,1,0,1,NA,NA,NA,NA,NA,NA,NA,NA,NA,NA,NA,NA,NA,NA,NA,NA,NA,NA,NA,NA,NA,NA,NA,NA
"49","stim/objects/HouseObjects/saw.png",116,53,116,0.5,"stim/22.jpeg",2,2,1,NA,"HouseObjects",2,2,"right","right",0.64199996,1,1,0,1,NA,NA,NA,NA,NA,NA,NA,NA,NA,NA,NA,NA,NA,NA,NA,NA,NA,NA,NA,NA,NA,NA,NA,NA
"116","stim/objects/HouseObjects/thread.png",117,53,117,0.7,"stim/34.jpeg",3,4,2,NA,"HouseObjects",2,2,"right","right",0.738999844,1,1,0,1,NA,NA,NA,NA,NA,NA,NA,NA,NA,NA,NA,NA,NA,NA,NA,NA,NA,NA,NA,NA,NA,NA,NA,NA
"201","stim/objects/Instruments/triangle2.png",118,53,118,0.9,"stim/61.jpeg",6,1,3,NA,"Instruments",1,4,"left","left",0.480000019,1,1,0,1,NA,NA,NA,NA,NA,NA,NA,NA,NA,NA,NA,NA,NA,NA,NA,NA,NA,NA,NA,NA,NA,NA,NA,NA
"35","stim/objects/HouseObjects/safetypin.png",119,53,119,0.5,"stim/21.jpeg",2,1,1,NA,"HouseObjects",2,3,"right","left",0.709000111,0,0,0,1,NA,NA,NA,NA,NA,NA,NA,NA,NA,NA,NA,NA,NA,NA,NA,NA,NA,NA,NA,NA,NA,NA,NA,NA
"12","stim/objects/HouseObjects/remote.png",120,53,120,0.5,"stim/12.jpeg",1,2,1,NA,"HouseObjects",2,1,"right","right",0.526000023,1,1,0,1,NA,NA,NA,NA,NA,NA,NA,NA,NA,NA,NA,NA,NA,NA,NA,NA,NA,NA,NA,NA,NA,NA,NA,NA
"130","stim/objects/Instruments/panflute2.png",121,53,121,0.7,"stim/41.jpeg",4,1,2,NA,"Instruments",1,1,"left","left",0.820999861,1,1,0,1,NA,NA,NA,NA,NA,NA,NA,NA,NA,NA,NA,NA,NA,NA,NA,NA,NA,NA,NA,NA,NA,NA,NA,NA
"100","stim/objects/HouseObjects/teapot.png",122,53,122,0.7,"stim/32.jpeg",3,2,2,NA,"HouseObjects",2,1,"right","right",0.734999895,1,1,0,1,NA,NA,NA,NA,NA,NA,NA,NA,NA,NA,NA,NA,NA,NA,NA,NA,NA,NA,NA,NA,NA,NA,NA,NA
"143","stim/objects/Instruments/pipepiano2.png",123,53,123,0.7,"stim/42.jpeg",4,2,2,NA,"Instruments",1,3,"left","left",0.764999866,1,1,0,1,NA,NA,NA,NA,NA,NA,NA,NA,NA,NA,NA,NA,NA,NA,NA,NA,NA,NA,NA,NA,NA,NA,NA,NA
"50","stim/objects/HouseObjects/saw.png",124,53,124,0.5,"stim/22.jpeg",2,2,1,NA,"HouseObjects",2,3,"right","left",0.745000124,0,0,0,1,NA,NA,NA,NA,NA,NA,NA,NA,NA,NA,NA,NA,NA,NA,NA,NA,NA,NA,NA,NA,NA,NA,NA,NA
"186","stim/objects/Instruments/tambourine2.png",125,53,125,0.1,"stim/53.jpeg",5,3,3,NA,"Instruments",1,4,"left","right",0.565000057,0,0,0,1,NA,NA,NA,NA,NA,NA,NA,NA,NA,NA,NA,NA,NA,NA,NA,NA,NA,NA,NA,NA,NA,NA,NA,NA
"176","stim/objects/Instruments/speaker.png",126,53,126,0.5,"stim/22.jpeg",2,2,1,NA,"Instruments",1,4,"left","left",0.683000088,1,1,0,1,NA,NA,NA,NA,NA,NA,NA,NA,NA,NA,NA,NA,NA,NA,NA,NA,NA,NA,NA,NA,NA,NA,NA,NA
"83","stim/objects/HouseObjects/sponge2.png",127,53,127,0.9,"stim/54.jpeg",5,4,3,NA,"HouseObjects",2,4,"right","right",0.692000151,1,1,0,1,NA,NA,NA,NA,NA,NA,NA,NA,NA,NA,NA,NA,NA,NA,NA,NA,NA,NA,NA,NA,NA,NA,NA,NA
"18","stim/objects/HouseObjects/rubbergloves.png",128,53,128,0.5,"stim/13.jpeg",1,3,1,NA,"HouseObjects",2,4,"right","right",0.696000099,1,1,0,1,NA,NA,NA,NA,NA,NA,NA,NA,NA,NA,NA,NA,NA,NA,NA,NA,NA,NA,NA,NA,NA,NA,NA,NA
"36","stim/objects/HouseObjects/safetypin.png",129,53,129,0.5,"stim/21.jpeg",2,1,1,NA,"HouseObjects",2,4,"right","",NA,0,0,0,1,NA,NA,NA,NA,NA,NA,NA,NA,NA,NA,NA,NA,NA,NA,NA,NA,NA,NA,NA,NA,NA,NA,NA,NA
"202","stim/objects/Instruments/triangle2.png",130,53,130,0.9,"stim/61.jpeg",6,1,3,NA,"Instruments",1,2,"left","left",0.526000023,1,1,0,1,NA,NA,NA,NA,NA,NA,NA,NA,NA,NA,NA,NA,NA,NA,NA,NA,NA,NA,NA,NA,NA,NA,NA,NA
"182","stim/objects/Instruments/tambourine.png",131,53,131,0.5,"stim/23.jpeg",2,3,1,NA,"Instruments",1,4,"left","right",0.680000067,0,0,0,1,NA,NA,NA,NA,NA,NA,NA,NA,NA,NA,NA,NA,NA,NA,NA,NA,NA,NA,NA,NA,NA,NA,NA,NA
"189","stim/objects/Instruments/timbal.png",132,53,132,0.5,"stim/24.jpeg",2,4,1,NA,"Instruments",1,3,"left","left",0.444999933,1,1,0,1,NA,NA,NA,NA,NA,NA,NA,NA,NA,NA,NA,NA,NA,NA,NA,NA,NA,NA,NA,NA,NA,NA,NA,NA
"131","stim/objects/Instruments/panflute2.png",133,53,133,0.7,"stim/41.jpeg",4,1,2,NA,"Instruments",1,2,"left","left",0.792999983,1,1,0,1,NA,NA,NA,NA,NA,NA,NA,NA,NA,NA,NA,NA,NA,NA,NA,NA,NA,NA,NA,NA,NA,NA,NA,NA
"16","stim/objects/HouseObjects/remote2.png",134,53,134,0.3,"stim/42.jpeg",4,2,2,NA,"HouseObjects",2,2,"right","left",0.728000164,0,0,0,1,NA,NA,NA,NA,NA,NA,NA,NA,NA,NA,NA,NA,NA,NA,NA,NA,NA,NA,NA,NA,NA,NA,NA,NA
"223","stim/objects/Instruments/trumpet2.png",135,53,135,0.9,"stim/63.jpeg",6,3,3,NA,"Instruments",1,3,"left","left",0.54399991,1,1,0,1,NA,NA,NA,NA,NA,NA,NA,NA,NA,NA,NA,NA,NA,NA,NA,NA,NA,NA,NA,NA,NA,NA,NA,NA
"19","stim/objects/HouseObjects/rubbergloves.png",136,53,136,0.5,"stim/13.jpeg",1,3,1,NA,"HouseObjects",2,3,"right","right",0.674000025,1,1,0,1,NA,NA,NA,NA,NA,NA,NA,NA,NA,NA,NA,NA,NA,NA,NA,NA,NA,NA,NA,NA,NA,NA,NA,NA
"170","stim/objects/Instruments/saxophone.png",137,53,137,0.5,"stim/21.jpeg",2,1,1,NA,"Instruments",1,2,"left","left",0.690999985,1,1,0,1,NA,NA,NA,NA,NA,NA,NA,NA,NA,NA,NA,NA,NA,NA,NA,NA,NA,NA,NA,NA,NA,NA,NA,NA
"84","stim/objects/HouseObjects/sponge2.png",138,53,138,0.9,"stim/54.jpeg",5,4,3,NA,"HouseObjects",2,1,"right","right",0.612999916,1,1,0,1,NA,NA,NA,NA,NA,NA,NA,NA,NA,NA,NA,NA,NA,NA,NA,NA,NA,NA,NA,NA,NA,NA,NA,NA
"85","stim/objects/HouseObjects/sponge2.png",139,53,139,0.9,"stim/54.jpeg",5,4,3,NA,"HouseObjects",2,1,"right","right",0.597000122,1,1,0,1,NA,NA,NA,NA,NA,NA,NA,NA,NA,NA,NA,NA,NA,NA,NA,NA,NA,NA,NA,NA,NA,NA,NA,NA
"171","stim/objects/Instruments/saxophone.png",140,53,140,0.5,"stim/21.jpeg",2,1,1,NA,"Instruments",1,3,"left","",NA,0,0,0,1,NA,NA,NA,NA,NA,NA,NA,NA,NA,NA,NA,NA,NA,NA,NA,NA,NA,NA,NA,NA,NA,NA,NA,NA
"224","stim/objects/Instruments/trumpet2.png",141,53,141,0.9,"stim/63.jpeg",6,3,3,NA,"Instruments",1,3,"left","left",0.478000164,1,1,0,1,NA,NA,NA,NA,NA,NA,NA,NA,NA,NA,NA,NA,NA,NA,NA,NA,NA,NA,NA,NA,NA,NA,NA,NA
"154","stim/objects/Instruments/record_player2.png",142,53,142,0.7,"stim/44.jpeg",4,4,2,NA,"Instruments",1,1,"left","",NA,0,0,0,1,NA,NA,NA,NA,NA,NA,NA,NA,NA,NA,NA,NA,NA,NA,NA,NA,NA,NA,NA,NA,NA,NA,NA,NA
"225","stim/objects/Instruments/trumpet2.png",143,53,143,0.9,"stim/63.jpeg",6,3,3,NA,"Instruments",1,3,"left","left",0.493000031,1,1,0,1,NA,NA,NA,NA,NA,NA,NA,NA,NA,NA,NA,NA,NA,NA,NA,NA,NA,NA,NA,NA,NA,NA,NA,NA
"94","stim/objects/HouseObjects/spraybottle.png",144,53,144,0.7,"stim/31.jpeg",3,1,2,NA,"HouseObjects",2,4,"right","right",0.635000229,1,1,0,1,NA,NA,NA,NA,NA,NA,NA,NA,NA,NA,NA,NA,NA,NA,NA,NA,NA,NA,NA,NA,NA,NA,NA,NA
"236","stim/objects/Instruments/tuba2.png",145,53,145,0.9,"stim/64.jpeg",6,4,3,NA,"Instruments",1,2,"left","left",0.496999979,1,1,0,1,NA,NA,NA,NA,NA,NA,NA,NA,NA,NA,NA,NA,NA,NA,NA,NA,NA,NA,NA,NA,NA,NA,NA,NA
"117","stim/objects/HouseObjects/thread.png",146,53,146,0.7,"stim/34.jpeg",3,4,2,NA,"HouseObjects",2,4,"right","right",0.578999996,1,1,0,1,NA,NA,NA,NA,NA,NA,NA,NA,NA,NA,NA,NA,NA,NA,NA,NA,NA,NA,NA,NA,NA,NA,NA,NA
"27","stim/objects/HouseObjects/rug.png",147,53,147,0.5,"stim/14.jpeg",1,4,1,NA,"HouseObjects",2,1,"right","left",0.621999979,0,0,0,1,NA,NA,NA,NA,NA,NA,NA,NA,NA,NA,NA,NA,NA,NA,NA,NA,NA,NA,NA,NA,NA,NA,NA,NA
"203","stim/objects/Instruments/triangle2.png",148,53,148,0.9,"stim/61.jpeg",6,1,3,NA,"Instruments",1,4,"left","left",0.538999796,1,1,0,1,NA,NA,NA,NA,NA,NA,NA,NA,NA,NA,NA,NA,NA,NA,NA,NA,NA,NA,NA,NA,NA,NA,NA,NA
"7","stim/objects/HouseObjects/recyclingbin2.png",149,53,149,0.3,"stim/41.jpeg",4,1,2,NA,"HouseObjects",2,4,"right","right",0.644999981,1,1,0,1,NA,NA,NA,NA,NA,NA,NA,NA,NA,NA,NA,NA,NA,NA,NA,NA,NA,NA,NA,NA,NA,NA,NA,NA
"75","stim/objects/HouseObjects/sponge.png",150,53,150,0.5,"stim/24.jpeg",2,4,1,NA,"HouseObjects",2,2,"right","right",0.677999973,1,1,0,1,NA,NA,NA,NA,NA,NA,NA,NA,NA,NA,NA,NA,NA,NA,NA,NA,NA,NA,NA,NA,NA,NA,NA,NA
"177","stim/objects/Instruments/speaker.png",151,53,151,0.5,"stim/22.jpeg",2,2,1,NA,"Instruments",1,4,"left","left",0.745000124,1,1,0,1,NA,NA,NA,NA,NA,NA,NA,NA,NA,NA,NA,NA,NA,NA,NA,NA,NA,NA,NA,NA,NA,NA,NA,NA
"183","stim/objects/Instruments/tambourine.png",152,53,152,0.5,"stim/23.jpeg",2,3,1,NA,"Instruments",1,3,"left","left",0.825000048,1,1,0,1,NA,NA,NA,NA,NA,NA,NA,NA,NA,NA,NA,NA,NA,NA,NA,NA,NA,NA,NA,NA,NA,NA,NA,NA
"229","stim/objects/Instruments/tuba.png",153,53,153,0.3,"stim/34.jpeg",3,4,2,NA,"Instruments",1,2,"left","right",0.846000195,0,0,0,1,NA,NA,NA,NA,NA,NA,NA,NA,NA,NA,NA,NA,NA,NA,NA,NA,NA,NA,NA,NA,NA,NA,NA,NA
"43","stim/objects/HouseObjects/safetypin2.png",154,53,154,0.9,"stim/51.jpeg",5,1,3,NA,"HouseObjects",2,3,"right","right",0.631999969,1,1,0,1,NA,NA,NA,NA,NA,NA,NA,NA,NA,NA,NA,NA,NA,NA,NA,NA,NA,NA,NA,NA,NA,NA,NA,NA
"13","stim/objects/HouseObjects/remote.png",155,53,155,0.5,"stim/12.jpeg",1,2,1,NA,"HouseObjects",2,2,"right","right",0.607000113,1,1,0,1,NA,NA,NA,NA,NA,NA,NA,NA,NA,NA,NA,NA,NA,NA,NA,NA,NA,NA,NA,NA,NA,NA,NA,NA
"226","stim/objects/Instruments/trumpet2.png",156,53,156,0.9,"stim/63.jpeg",6,3,3,NA,"Instruments",1,2,"left","left",0.512999773,1,1,0,1,NA,NA,NA,NA,NA,NA,NA,NA,NA,NA,NA,NA,NA,NA,NA,NA,NA,NA,NA,NA,NA,NA,NA,NA
"86","stim/objects/HouseObjects/sponge2.png",157,53,157,0.9,"stim/54.jpeg",5,4,3,NA,"HouseObjects",2,2,"right","right",0.753000021,1,1,0,1,NA,NA,NA,NA,NA,NA,NA,NA,NA,NA,NA,NA,NA,NA,NA,NA,NA,NA,NA,NA,NA,NA,NA,NA
"227","stim/objects/Instruments/trumpet2.png",158,53,158,0.9,"stim/63.jpeg",6,3,3,NA,"Instruments",1,4,"left","left",0.726000071,1,1,0,1,NA,NA,NA,NA,NA,NA,NA,NA,NA,NA,NA,NA,NA,NA,NA,NA,NA,NA,NA,NA,NA,NA,NA,NA
"230","stim/objects/Instruments/tuba.png",159,53,159,0.3,"stim/34.jpeg",3,4,2,NA,"Instruments",1,3,"left","right",0.572000027,0,0,0,1,NA,NA,NA,NA,NA,NA,NA,NA,NA,NA,NA,NA,NA,NA,NA,NA,NA,NA,NA,NA,NA,NA,NA,NA
"71","stim/objects/HouseObjects/scale2.png",160,53,160,0.9,"stim/53.jpeg",5,3,3,NA,"HouseObjects",2,2,"right","right",0.539000034,1,1,0,1,NA,NA,NA,NA,NA,NA,NA,NA,NA,NA,NA,NA,NA,NA,NA,NA,NA,NA,NA,NA,NA,NA,NA,NA
"118","stim/objects/HouseObjects/thread.png",161,53,161,0.7,"stim/34.jpeg",3,4,2,NA,"HouseObjects",2,3,"right","right",0.689999819,1,1,0,1,NA,NA,NA,NA,NA,NA,NA,NA,NA,NA,NA,NA,NA,NA,NA,NA,NA,NA,NA,NA,NA,NA,NA,NA
"87","stim/objects/HouseObjects/sponge2.png",162,53,162,0.9,"stim/54.jpeg",5,4,3,NA,"HouseObjects",2,3,"right","right",0.644999981,1,1,0,1,NA,NA,NA,NA,NA,NA,NA,NA,NA,NA,NA,NA,NA,NA,NA,NA,NA,NA,NA,NA,NA,NA,NA,NA
"106","stim/objects/HouseObjects/thermometer.png",163,53,163,0.7,"stim/33.jpeg",3,3,2,NA,"HouseObjects",2,1,"right","right",0.808000088,1,1,0,1,NA,NA,NA,NA,NA,NA,NA,NA,NA,NA,NA,NA,NA,NA,NA,NA,NA,NA,NA,NA,NA,NA,NA,NA
"88","stim/objects/HouseObjects/sponge2.png",164,53,164,0.9,"stim/54.jpeg",5,4,3,NA,"HouseObjects",2,3,"right","right",0.639000177,1,1,0,1,NA,NA,NA,NA,NA,NA,NA,NA,NA,NA,NA,NA,NA,NA,NA,NA,NA,NA,NA,NA,NA,NA,NA,NA
"237","stim/objects/Instruments/tuba2.png",165,53,165,0.9,"stim/64.jpeg",6,4,3,NA,"Instruments",1,2,"left","left",0.50999999,1,1,0,1,NA,NA,NA,NA,NA,NA,NA,NA,NA,NA,NA,NA,NA,NA,NA,NA,NA,NA,NA,NA,NA,NA,NA,NA
"56","stim/objects/HouseObjects/saw2.png",166,53,166,0.9,"stim/52.jpeg",5,2,3,NA,"HouseObjects",2,3,"right","right",0.717999935,1,1,0,1,NA,NA,NA,NA,NA,NA,NA,NA,NA,NA,NA,NA,NA,NA,NA,NA,NA,NA,NA,NA,NA,NA,NA,NA
"20","stim/objects/HouseObjects/rubbergloves.png",167,53,167,0.5,"stim/13.jpeg",1,3,1,NA,"HouseObjects",2,2,"right","right",0.805999994,1,1,0,1,NA,NA,NA,NA,NA,NA,NA,NA,NA,NA,NA,NA,NA,NA,NA,NA,NA,NA,NA,NA,NA,NA,NA,NA
"28","stim/objects/HouseObjects/rug.png",168,53,168,0.5,"stim/14.jpeg",1,4,1,NA,"HouseObjects",2,3,"right","left",0.83100009,0,0,0,1,NA,NA,NA,NA,NA,NA,NA,NA,NA,NA,NA,NA,NA,NA,NA,NA,NA,NA,NA,NA,NA,NA,NA,NA
"212","stim/objects/Instruments/trombone2.png",169,53,169,0.9,"stim/62.jpeg",6,2,3,NA,"Instruments",1,1,"left","left",0.535000086,1,1,0,1,NA,NA,NA,NA,NA,NA,NA,NA,NA,NA,NA,NA,NA,NA,NA,NA,NA,NA,NA,NA,NA,NA,NA,NA
"132","stim/objects/Instruments/panflute2.png",170,53,170,0.7,"stim/41.jpeg",4,1,2,NA,"Instruments",1,3,"left","left",0.666000128,1,1,0,1,NA,NA,NA,NA,NA,NA,NA,NA,NA,NA,NA,NA,NA,NA,NA,NA,NA,NA,NA,NA,NA,NA,NA,NA
"57","stim/objects/HouseObjects/saw2.png",171,53,171,0.9,"stim/52.jpeg",5,2,3,NA,"HouseObjects",2,3,"right","right",0.598999977,1,1,0,1,NA,NA,NA,NA,NA,NA,NA,NA,NA,NA,NA,NA,NA,NA,NA,NA,NA,NA,NA,NA,NA,NA,NA,NA
"167","stim/objects/Instruments/record2.png",172,53,172,0.7,"stim/43.jpeg",4,3,2,NA,"Instruments",1,1,"left","right",0.619999886,0,0,0,1,NA,NA,NA,NA,NA,NA,NA,NA,NA,NA,NA,NA,NA,NA,NA,NA,NA,NA,NA,NA,NA,NA,NA,NA
"204","stim/objects/Instruments/triangle2.png",173,53,173,0.9,"stim/61.jpeg",6,1,3,NA,"Instruments",1,2,"left","left",0.536999941,1,1,0,1,NA,NA,NA,NA,NA,NA,NA,NA,NA,NA,NA,NA,NA,NA,NA,NA,NA,NA,NA,NA,NA,NA,NA,NA
"155","stim/objects/Instruments/record_player2.png",174,53,174,0.7,"stim/44.jpeg",4,4,2,NA,"Instruments",1,1,"left","left",0.608999968,1,1,0,1,NA,NA,NA,NA,NA,NA,NA,NA,NA,NA,NA,NA,NA,NA,NA,NA,NA,NA,NA,NA,NA,NA,NA,NA
"107","stim/objects/HouseObjects/thermometer.png",175,53,175,0.7,"stim/33.jpeg",3,3,2,NA,"HouseObjects",2,2,"right","right",0.743999958,1,1,0,1,NA,NA,NA,NA,NA,NA,NA,NA,NA,NA,NA,NA,NA,NA,NA,NA,NA,NA,NA,NA,NA,NA,NA,NA
"21","stim/objects/HouseObjects/rubbergloves.png",176,53,176,0.5,"stim/13.jpeg",1,3,1,NA,"HouseObjects",2,1,"right","right",0.671000004,1,1,0,1,NA,NA,NA,NA,NA,NA,NA,NA,NA,NA,NA,NA,NA,NA,NA,NA,NA,NA,NA,NA,NA,NA,NA,NA
"104","stim/objects/HouseObjects/teapot2.png",177,53,177,0.1,"stim/62.jpeg",6,2,3,NA,"HouseObjects",2,1,"right","left",0.552000046,0,0,0,1,NA,NA,NA,NA,NA,NA,NA,NA,NA,NA,NA,NA,NA,NA,NA,NA,NA,NA,NA,NA,NA,NA,NA,NA
"44","stim/objects/HouseObjects/safetypin2.png",178,53,178,0.9,"stim/51.jpeg",5,1,3,NA,"HouseObjects",2,4,"right","right",0.513999939,1,1,0,1,NA,NA,NA,NA,NA,NA,NA,NA,NA,NA,NA,NA,NA,NA,NA,NA,NA,NA,NA,NA,NA,NA,NA,NA
"161","stim/objects/Instruments/record.png",179,53,179,0.5,"stim/13.jpeg",1,3,1,NA,"Instruments",1,3,"left","right",0.656000137,0,0,0,1,NA,NA,NA,NA,NA,NA,NA,NA,NA,NA,NA,NA,NA,NA,NA,NA,NA,NA,NA,NA,NA,NA,NA,NA
"72","stim/objects/HouseObjects/scale2.png",180,53,180,0.9,"stim/53.jpeg",5,3,3,NA,"HouseObjects",2,1,"right","right",0.517999887,1,1,0,1,NA,NA,NA,NA,NA,NA,NA,NA,NA,NA,NA,NA,NA,NA,NA,NA,NA,NA,NA,NA,NA,NA,NA,NA
"238","stim/objects/Instruments/tuba2.png",181,53,181,0.9,"stim/64.jpeg",6,4,3,NA,"Instruments",1,3,"left","left",0.439999819,1,1,0,1,NA,NA,NA,NA,NA,NA,NA,NA,NA,NA,NA,NA,NA,NA,NA,NA,NA,NA,NA,NA,NA,NA,NA,NA
"58","stim/objects/HouseObjects/saw2.png",182,53,182,0.9,"stim/52.jpeg",5,2,3,NA,"HouseObjects",2,3,"right","right",0.538000107,1,1,0,1,NA,NA,NA,NA,NA,NA,NA,NA,NA,NA,NA,NA,NA,NA,NA,NA,NA,NA,NA,NA,NA,NA,NA,NA
"228","stim/objects/Instruments/trumpet2.png",183,53,183,0.9,"stim/63.jpeg",6,3,3,NA,"Instruments",1,1,"left","left",0.913999796,1,1,0,1,NA,NA,NA,NA,NA,NA,NA,NA,NA,NA,NA,NA,NA,NA,NA,NA,NA,NA,NA,NA,NA,NA,NA,NA
"119","stim/objects/HouseObjects/thread.png",184,53,184,0.7,"stim/34.jpeg",3,4,2,NA,"HouseObjects",2,4,"right","",NA,0,0,0,1,NA,NA,NA,NA,NA,NA,NA,NA,NA,NA,NA,NA,NA,NA,NA,NA,NA,NA,NA,NA,NA,NA,NA,NA
"45","stim/objects/HouseObjects/safetypin2.png",185,53,185,0.9,"stim/51.jpeg",5,1,3,NA,"HouseObjects",2,2,"right","right",0.515000105,1,1,0,1,NA,NA,NA,NA,NA,NA,NA,NA,NA,NA,NA,NA,NA,NA,NA,NA,NA,NA,NA,NA,NA,NA,NA,NA
"29","stim/objects/HouseObjects/rug.png",186,53,186,0.5,"stim/14.jpeg",1,4,1,NA,"HouseObjects",2,1,"right","right",0.509000063,1,1,0,1,NA,NA,NA,NA,NA,NA,NA,NA,NA,NA,NA,NA,NA,NA,NA,NA,NA,NA,NA,NA,NA,NA,NA,NA
"172","stim/objects/Instruments/saxophone.png",187,53,187,0.5,"stim/21.jpeg",2,1,1,NA,"Instruments",1,4,"left","left",0.670000076,1,1,0,1,NA,NA,NA,NA,NA,NA,NA,NA,NA,NA,NA,NA,NA,NA,NA,NA,NA,NA,NA,NA,NA,NA,NA,NA
"73","stim/objects/HouseObjects/scale2.png",188,53,188,0.9,"stim/53.jpeg",5,3,3,NA,"HouseObjects",2,2,"right","right",0.519999981,1,1,0,1,NA,NA,NA,NA,NA,NA,NA,NA,NA,NA,NA,NA,NA,NA,NA,NA,NA,NA,NA,NA,NA,NA,NA,NA
"178","stim/objects/Instruments/speaker.png",189,53,189,0.5,"stim/22.jpeg",2,2,1,NA,"Instruments",1,1,"left","",NA,0,0,0,1,NA,NA,NA,NA,NA,NA,NA,NA,NA,NA,NA,NA,NA,NA,NA,NA,NA,NA,NA,NA,NA,NA,NA,NA
"156","stim/objects/Instruments/record_player2.png",190,53,190,0.7,"stim/44.jpeg",4,4,2,NA,"Instruments",1,4,"left","left",0.714999914,1,1,0,1,NA,NA,NA,NA,NA,NA,NA,NA,NA,NA,NA,NA,NA,NA,NA,NA,NA,NA,NA,NA,NA,NA,NA,NA
"184","stim/objects/Instruments/tambourine.png",191,53,191,0.5,"stim/23.jpeg",2,3,1,NA,"Instruments",1,1,"left","left",0.652999878,1,1,0,1,NA,NA,NA,NA,NA,NA,NA,NA,NA,NA,NA,NA,NA,NA,NA,NA,NA,NA,NA,NA,NA,NA,NA,NA
"108","stim/objects/HouseObjects/thermometer.png",192,53,192,0.7,"stim/33.jpeg",3,3,2,NA,"HouseObjects",2,4,"right","",NA,0,0,0,1,NA,NA,NA,NA,NA,NA,NA,NA,NA,NA,NA,NA,NA,NA,NA,NA,NA,NA,NA,NA,NA,NA,NA,NA
"144","stim/objects/Instruments/pipepiano2.png",193,53,193,0.7,"stim/42.jpeg",4,2,2,NA,"Instruments",1,1,"left","",NA,0,0,0,1,NA,NA,NA,NA,NA,NA,NA,NA,NA,NA,NA,NA,NA,NA,NA,NA,NA,NA,NA,NA,NA,NA,NA,NA
"95","stim/objects/HouseObjects/spraybottle.png",194,53,194,0.7,"stim/31.jpeg",3,1,2,NA,"HouseObjects",2,1,"right","",NA,0,0,0,1,NA,NA,NA,NA,NA,NA,NA,NA,NA,NA,NA,NA,NA,NA,NA,NA,NA,NA,NA,NA,NA,NA,NA,NA
"101","stim/objects/HouseObjects/teapot.png",195,53,195,0.7,"stim/32.jpeg",3,2,2,NA,"HouseObjects",2,4,"right","right",0.809000015,1,1,0,1,NA,NA,NA,NA,NA,NA,NA,NA,NA,NA,NA,NA,NA,NA,NA,NA,NA,NA,NA,NA,NA,NA,NA,NA
"239","stim/objects/Instruments/tuba2.png",196,53,196,0.9,"stim/64.jpeg",6,4,3,NA,"Instruments",1,3,"left","left",0.609999895,1,1,0,1,NA,NA,NA,NA,NA,NA,NA,NA,NA,NA,NA,NA,NA,NA,NA,NA,NA,NA,NA,NA,NA,NA,NA,NA
"185","stim/objects/Instruments/tambourine.png",197,53,197,0.5,"stim/23.jpeg",2,3,1,NA,"Instruments",1,4,"left","left",0.687000036,1,1,0,1,NA,NA,NA,NA,NA,NA,NA,NA,NA,NA,NA,NA,NA,NA,NA,NA,NA,NA,NA,NA,NA,NA,NA,NA
"240","stim/objects/Instruments/tuba2.png",198,53,198,0.9,"stim/64.jpeg",6,4,3,NA,"Instruments",1,4,"left","left",0.733999968,1,1,0,1,NA,NA,NA,NA,NA,NA,NA,NA,NA,NA,NA,NA,NA,NA,NA,NA,NA,NA,NA,NA,NA,NA,NA,NA
"146","stim/objects/Instruments/record_player.png",199,53,199,0.5,"stim/14.jpeg",1,4,1,NA,"Instruments",1,4,"left","",NA,0,0,0,1,NA,NA,NA,NA,NA,NA,NA,NA,NA,NA,NA,NA,NA,NA,NA,NA,NA,NA,NA,NA,NA,NA,NA,NA
"168","stim/objects/Instruments/record2.png",200,53,200,0.7,"stim/43.jpeg",4,3,2,NA,"Instruments",1,3,"left","right",0.617000103,0,0,0,1,NA,NA,NA,NA,NA,NA,NA,NA,NA,NA,NA,NA,NA,NA,NA,NA,NA,NA,NA,NA,NA,NA,NA,NA
"8","stim/objects/HouseObjects/recyclingbin2.png",201,53,201,0.3,"stim/41.jpeg",4,1,2,NA,"HouseObjects",2,4,"right","",NA,0,0,0,1,NA,NA,NA,NA,NA,NA,NA,NA,NA,NA,NA,NA,NA,NA,NA,NA,NA,NA,NA,NA,NA,NA,NA,NA
"109","stim/objects/HouseObjects/thermometer.png",202,53,202,0.7,"stim/33.jpeg",3,3,2,NA,"HouseObjects",2,1,"right","right",0.79399991,1,1,0,1,NA,NA,NA,NA,NA,NA,NA,NA,NA,NA,NA,NA,NA,NA,NA,NA,NA,NA,NA,NA,NA,NA,NA,NA
"190","stim/objects/Instruments/timbal.png",203,53,203,0.5,"stim/24.jpeg",2,4,1,NA,"Instruments",1,4,"left","left",0.77699995,1,1,0,1,NA,NA,NA,NA,NA,NA,NA,NA,NA,NA,NA,NA,NA,NA,NA,NA,NA,NA,NA,NA,NA,NA,NA,NA
"96","stim/objects/HouseObjects/spraybottle2.png",204,53,204,0.1,"stim/61.jpeg",6,1,3,NA,"HouseObjects",2,2,"right","",NA,0,0,0,1,NA,NA,NA,NA,NA,NA,NA,NA,NA,NA,NA,NA,NA,NA,NA,NA,NA,NA,NA,NA,NA,NA,NA,NA
"76","stim/objects/HouseObjects/sponge.png",205,53,205,0.5,"stim/24.jpeg",2,4,1,NA,"HouseObjects",2,2,"right","left",0.809000015,0,0,0,1,NA,NA,NA,NA,NA,NA,NA,NA,NA,NA,NA,NA,NA,NA,NA,NA,NA,NA,NA,NA,NA,NA,NA,NA
"74","stim/objects/HouseObjects/scale2.png",206,53,206,0.9,"stim/53.jpeg",5,3,3,NA,"HouseObjects",2,2,"right","right",0.559999943,1,1,0,1,NA,NA,NA,NA,NA,NA,NA,NA,NA,NA,NA,NA,NA,NA,NA,NA,NA,NA,NA,NA,NA,NA,NA,NA
"213","stim/objects/Instruments/trombone2.png",207,53,207,0.9,"stim/62.jpeg",6,2,3,NA,"Instruments",1,4,"left","left",0.526000023,1,1,0,1,NA,NA,NA,NA,NA,NA,NA,NA,NA,NA,NA,NA,NA,NA,NA,NA,NA,NA,NA,NA,NA,NA,NA,NA
"37","stim/objects/HouseObjects/safetypin.png",208,53,208,0.5,"stim/21.jpeg",2,1,1,NA,"HouseObjects",2,4,"right","left",0.649999857,0,0,0,1,NA,NA,NA,NA,NA,NA,NA,NA,NA,NA,NA,NA,NA,NA,NA,NA,NA,NA,NA,NA,NA,NA,NA,NA
"4","stim/objects/HouseObjects/recyclingbin.png",209,53,209,0.5,"stim/11.jpeg",1,1,1,NA,"HouseObjects",2,2,"right","",NA,0,0,0,1,NA,NA,NA,NA,NA,NA,NA,NA,NA,NA,NA,NA,NA,NA,NA,NA,NA,NA,NA,NA,NA,NA,NA,NA
"77","stim/objects/HouseObjects/sponge.png",210,53,210,0.5,"stim/24.jpeg",2,4,1,NA,"HouseObjects",2,1,"right","",NA,0,0,0,1,NA,NA,NA,NA,NA,NA,NA,NA,NA,NA,NA,NA,NA,NA,NA,NA,NA,NA,NA,NA,NA,NA,NA,NA
"64","stim/objects/HouseObjects/scale.png",211,53,211,0.5,"stim/23.jpeg",2,3,1,NA,"HouseObjects",2,2,"right","right",0.559999943,1,1,0,1,NA,NA,NA,NA,NA,NA,NA,NA,NA,NA,NA,NA,NA,NA,NA,NA,NA,NA,NA,NA,NA,NA,NA,NA
"147","stim/objects/Instruments/record_player.png",212,53,212,0.5,"stim/14.jpeg",1,4,1,NA,"Instruments",1,3,"left","right",0.498999834,0,0,0,1,NA,NA,NA,NA,NA,NA,NA,NA,NA,NA,NA,NA,NA,NA,NA,NA,NA,NA,NA,NA,NA,NA,NA,NA
"148","stim/objects/Instruments/record_player.png",213,53,213,0.5,"stim/14.jpeg",1,4,1,NA,"Instruments",1,4,"left","right",0.572000027,0,0,0,1,NA,NA,NA,NA,NA,NA,NA,NA,NA,NA,NA,NA,NA,NA,NA,NA,NA,NA,NA,NA,NA,NA,NA,NA
"78","stim/objects/HouseObjects/sponge.png",214,53,214,0.5,"stim/24.jpeg",2,4,1,NA,"HouseObjects",2,2,"right","left",0.439999819,0,0,0,1,NA,NA,NA,NA,NA,NA,NA,NA,NA,NA,NA,NA,NA,NA,NA,NA,NA,NA,NA,NA,NA,NA,NA,NA
"110","stim/objects/HouseObjects/thermometer.png",215,53,215,0.7,"stim/33.jpeg",3,3,2,NA,"HouseObjects",2,4,"right","right",0.519000053,1,1,0,1,NA,NA,NA,NA,NA,NA,NA,NA,NA,NA,NA,NA,NA,NA,NA,NA,NA,NA,NA,NA,NA,NA,NA,NA
"79","stim/objects/HouseObjects/sponge.png",216,53,216,0.5,"stim/24.jpeg",2,4,1,NA,"HouseObjects",2,2,"right","left",0.586999893,0,0,0,1,NA,NA,NA,NA,NA,NA,NA,NA,NA,NA,NA,NA,NA,NA,NA,NA,NA,NA,NA,NA,NA,NA,NA,NA
"191","stim/objects/Instruments/timbal.png",217,53,217,0.5,"stim/24.jpeg",2,4,1,NA,"Instruments",1,1,"left","right",0.392999887,0,0,0,1,NA,NA,NA,NA,NA,NA,NA,NA,NA,NA,NA,NA,NA,NA,NA,NA,NA,NA,NA,NA,NA,NA,NA,NA
"23","stim/objects/HouseObjects/rubbergloves2.png",218,53,218,0.3,"stim/43.jpeg",4,3,2,NA,"HouseObjects",2,3,"right","right",0.523999929,1,1,0,1,NA,NA,NA,NA,NA,NA,NA,NA,NA,NA,NA,NA,NA,NA,NA,NA,NA,NA,NA,NA,NA,NA,NA,NA
"231","stim/objects/Instruments/tuba.png",219,53,219,0.3,"stim/34.jpeg",3,4,2,NA,"Instruments",1,3,"left","right",0.518000126,0,0,0,1,NA,NA,NA,NA,NA,NA,NA,NA,NA,NA,NA,NA,NA,NA,NA,NA,NA,NA,NA,NA,NA,NA,NA,NA
"59","stim/objects/HouseObjects/saw2.png",220,53,220,0.9,"stim/52.jpeg",5,2,3,NA,"HouseObjects",2,4,"right","right",0.645999908,1,1,0,1,NA,NA,NA,NA,NA,NA,NA,NA,NA,NA,NA,NA,NA,NA,NA,NA,NA,NA,NA,NA,NA,NA,NA,NA
"214","stim/objects/Instruments/trombone2.png",221,53,221,0.9,"stim/62.jpeg",6,2,3,NA,"Instruments",1,1,"left","left",0.521999836,1,1,0,1,NA,NA,NA,NA,NA,NA,NA,NA,NA,NA,NA,NA,NA,NA,NA,NA,NA,NA,NA,NA,NA,NA,NA,NA
"102","stim/objects/HouseObjects/teapot.png",222,53,222,0.7,"stim/32.jpeg",3,2,2,NA,"HouseObjects",2,1,"right","right",0.523000002,1,1,0,1,NA,NA,NA,NA,NA,NA,NA,NA,NA,NA,NA,NA,NA,NA,NA,NA,NA,NA,NA,NA,NA,NA,NA,NA
"219","stim/objects/Instruments/trumpet.png",223,53,223,0.3,"stim/33.jpeg",3,3,2,NA,"Instruments",1,1,"left","right",0.484999895,0,0,0,1,NA,NA,NA,NA,NA,NA,NA,NA,NA,NA,NA,NA,NA,NA,NA,NA,NA,NA,NA,NA,NA,NA,NA,NA
"46","stim/objects/HouseObjects/safetypin2.png",224,53,224,0.9,"stim/51.jpeg",5,1,3,NA,"HouseObjects",2,1,"right","right",0.479000092,1,1,0,1,NA,NA,NA,NA,NA,NA,NA,NA,NA,NA,NA,NA,NA,NA,NA,NA,NA,NA,NA,NA,NA,NA,NA,NA
"173","stim/objects/Instruments/saxophone.png",225,53,225,0.5,"stim/21.jpeg",2,1,1,NA,"Instruments",1,4,"left","left",0.506000042,1,1,0,1,NA,NA,NA,NA,NA,NA,NA,NA,NA,NA,NA,NA,NA,NA,NA,NA,NA,NA,NA,NA,NA,NA,NA,NA
"207","stim/objects/Instruments/trombone.png",226,53,226,0.3,"stim/32.jpeg",3,2,2,NA,"Instruments",1,2,"left","right",0.774999857,0,0,0,1,NA,NA,NA,NA,NA,NA,NA,NA,NA,NA,NA,NA,NA,NA,NA,NA,NA,NA,NA,NA,NA,NA,NA,NA
"124","stim/objects/Instruments/panflute.png",227,53,227,0.5,"stim/11.jpeg",1,1,1,NA,"Instruments",1,1,"left","right",0.642000198,0,0,0,1,NA,NA,NA,NA,NA,NA,NA,NA,NA,NA,NA,NA,NA,NA,NA,NA,NA,NA,NA,NA,NA,NA,NA,NA
"215","stim/objects/Instruments/trombone2.png",228,53,228,0.9,"stim/62.jpeg",6,2,3,NA,"Instruments",1,1,"left","",NA,0,0,0,1,NA,NA,NA,NA,NA,NA,NA,NA,NA,NA,NA,NA,NA,NA,NA,NA,NA,NA,NA,NA,NA,NA,NA,NA
"125","stim/objects/Instruments/panflute.png",229,53,229,0.5,"stim/11.jpeg",1,1,1,NA,"Instruments",1,2,"left","left",0.599999905,1,1,0,1,NA,NA,NA,NA,NA,NA,NA,NA,NA,NA,NA,NA,NA,NA,NA,NA,NA,NA,NA,NA,NA,NA,NA,NA
"111","stim/objects/HouseObjects/thermometer.png",230,53,230,0.7,"stim/33.jpeg",3,3,2,NA,"HouseObjects",2,4,"right","right",0.519000053,1,1,0,1,NA,NA,NA,NA,NA,NA,NA,NA,NA,NA,NA,NA,NA,NA,NA,NA,NA,NA,NA,NA,NA,NA,NA,NA
"5","stim/objects/HouseObjects/recyclingbin.png",231,53,231,0.5,"stim/11.jpeg",1,1,1,NA,"HouseObjects",2,2,"right","left",0.845000029,0,0,0,1,NA,NA,NA,NA,NA,NA,NA,NA,NA,NA,NA,NA,NA,NA,NA,NA,NA,NA,NA,NA,NA,NA,NA,NA
"51","stim/objects/HouseObjects/saw.png",232,53,232,0.5,"stim/22.jpeg",2,2,1,NA,"HouseObjects",2,1,"right","",NA,0,0,0,1,NA,NA,NA,NA,NA,NA,NA,NA,NA,NA,NA,NA,NA,NA,NA,NA,NA,NA,NA,NA,NA,NA,NA,NA
"179","stim/objects/Instruments/speaker.png",233,53,233,0.5,"stim/22.jpeg",2,2,1,NA,"Instruments",1,3,"left","right",0.487999916,0,0,0,1,NA,NA,NA,NA,NA,NA,NA,NA,NA,NA,NA,NA,NA,NA,NA,NA,NA,NA,NA,NA,NA,NA,NA,NA
"32","stim/objects/HouseObjects/rug2.png",234,53,234,0.3,"stim/44.jpeg",4,4,2,NA,"HouseObjects",2,1,"right","",NA,0,0,0,1,NA,NA,NA,NA,NA,NA,NA,NA,NA,NA,NA,NA,NA,NA,NA,NA,NA,NA,NA,NA,NA,NA,NA,NA
"103","stim/objects/HouseObjects/teapot.png",235,53,235,0.7,"stim/32.jpeg",3,2,2,NA,"HouseObjects",2,4,"right","right",0.647000074,1,1,0,1,NA,NA,NA,NA,NA,NA,NA,NA,NA,NA,NA,NA,NA,NA,NA,NA,NA,NA,NA,NA,NA,NA,NA,NA
"65","stim/objects/HouseObjects/scale.png",236,53,236,0.5,"stim/23.jpeg",2,3,1,NA,"HouseObjects",2,4,"right","right",0.695999861,1,1,0,1,NA,NA,NA,NA,NA,NA,NA,NA,NA,NA,NA,NA,NA,NA,NA,NA,NA,NA,NA,NA,NA,NA,NA,NA
"60","stim/objects/HouseObjects/saw2.png",237,53,237,0.9,"stim/52.jpeg",5,2,3,NA,"HouseObjects",2,2,"right","right",0.58100009,1,1,0,1,NA,NA,NA,NA,NA,NA,NA,NA,NA,NA,NA,NA,NA,NA,NA,NA,NA,NA,NA,NA,NA,NA,NA,NA
"24","stim/objects/HouseObjects/rubbergloves2.png",238,53,238,0.3,"stim/43.jpeg",4,3,2,NA,"HouseObjects",2,4,"right","left",0.873999834,0,0,0,1,NA,NA,NA,NA,NA,NA,NA,NA,NA,NA,NA,NA,NA,NA,NA,NA,NA,NA,NA,NA,NA,NA,NA,NA
"149","stim/objects/Instruments/record_player.png",239,53,239,0.5,"stim/14.jpeg",1,4,1,NA,"Instruments",1,4,"left","right",0.680000067,0,0,0,1,NA,NA,NA,NA,NA,NA,NA,NA,NA,NA,NA,NA,NA,NA,NA,NA,NA,NA,NA,NA,NA,NA,NA,NA
"216","stim/objects/Instruments/trombone2.png",240,53,240,0.9,"stim/62.jpeg",6,2,3,NA,"Instruments",1,1,"left","left",0.476999998,1,1,0,1,NA,NA,NA,NA,NA,NA,NA,NA,NA,NA,NA,NA,NA,NA,NA,NA,NA,NA,NA,NA,NA,NA,NA,NA
"507","stim/objects/Instruments/gong3.png",248,53,241,0.9,"stim/63.jpeg",6,3,3,2,"Instruments",1,3,"left","left",0.614000082,1,1,1,0,NA,NA,NA,NA,NA,NA,NA,NA,NA,NA,NA,NA,NA,NA,NA,NA,NA,NA,NA,NA,NA,NA,NA,NA
"287","stim/objects/HouseObjects/dishsoap3.png",249,53,242,0.7,"stim/34.jpeg",3,4,2,2,"HouseObjects",2,4,"right","right",0.773999929,1,1,1,0,NA,NA,NA,NA,NA,NA,NA,NA,NA,NA,NA,NA,NA,NA,NA,NA,NA,NA,NA,NA,NA,NA,NA,NA
"508","stim/objects/Instruments/gong3.png",250,53,243,0.9,"stim/63.jpeg",6,3,3,2,"Instruments",1,4,"left","left",0.762000084,1,1,1,0,NA,NA,NA,NA,NA,NA,NA,NA,NA,NA,NA,NA,NA,NA,NA,NA,NA,NA,NA,NA,NA,NA,NA,NA
"359","stim/objects/HouseObjects/glass3.png",251,53,244,0.9,"stim/51.jpeg",5,1,3,2,"HouseObjects",2,3,"right","right",0.562999964,1,1,1,0,NA,NA,NA,NA,NA,NA,NA,NA,NA,NA,NA,NA,NA,NA,NA,NA,NA,NA,NA,NA,NA,NA,NA,NA
"406","stim/objects/Instruments/accordion3.png",252,53,245,0.5,"stim/12.jpeg",1,2,1,2,"Instruments",1,4,"left","right",0.872999907,0,0,1,0,NA,NA,NA,NA,NA,NA,NA,NA,NA,NA,NA,NA,NA,NA,NA,NA,NA,NA,NA,NA,NA,NA,NA,NA
"291","stim/objects/HouseObjects/doormat3.png",253,53,246,0.9,"stim/53.jpeg",5,3,3,2,"HouseObjects",2,2,"right","right",0.567000151,1,1,1,0,NA,NA,NA,NA,NA,NA,NA,NA,NA,NA,NA,NA,NA,NA,NA,NA,NA,NA,NA,NA,NA,NA,NA,NA
"439","stim/objects/Instruments/cymbal4.png",254,53,247,0.7,"stim/41.jpeg",4,1,2,1,"Instruments",1,2,"left","left",0.691999912,1,1,1,0,68,53,1,0.7,1,"stim/41.jpeg",4,1,"stim/41.jpeg",2,"left",1.325999975,4,3,1.131000042,2,0.879999876,68,1,0,0,1,1,0
"472","stim/objects/Instruments/flute4.png",255,53,248,0.1,"stim/51.jpeg",5,1,3,1,"Instruments",1,3,"left","right",0.538000107,0,0,1,0,177,53,1,0.1,1,"stim/51.jpeg",5,1,"stim/51.jpeg",3,"right",0.96600008,3,2,0.420000076,1,0.352999926,177,0,0,NA,0,NA,0
"421","stim/objects/Instruments/bassguitar3.png",256,53,249,0.5,"stim/24.jpeg",2,4,1,2,"Instruments",1,2,"left","left",0.487999916,1,1,1,0,NA,NA,NA,NA,NA,NA,NA,NA,NA,NA,NA,NA,NA,NA,NA,NA,NA,NA,NA,NA,NA,NA,NA,NA
"325","stim/objects/HouseObjects/flyswatter3.png",257,53,250,0.9,"stim/54.jpeg",5,4,3,2,"HouseObjects",2,2,"right","right",0.544000149,1,1,1,0,NA,NA,NA,NA,NA,NA,NA,NA,NA,NA,NA,NA,NA,NA,NA,NA,NA,NA,NA,NA,NA,NA,NA,NA
"283","stim/objects/HouseObjects/cushion3.png",258,53,251,0.7,"stim/33.jpeg",3,3,2,2,"HouseObjects",2,1,"right","right",0.532000065,1,1,1,0,NA,NA,NA,NA,NA,NA,NA,NA,NA,NA,NA,NA,NA,NA,NA,NA,NA,NA,NA,NA,NA,NA,NA,NA
"376","stim/objects/HouseObjects/glassmop3.png",259,53,252,0.5,"stim/12.jpeg",1,2,1,1,"HouseObjects",2,4,"right","left",0.700000048,0,0,1,0,169,53,1,0.5,1,"stim/12.jpeg",1,2,"stim/12.jpeg",4,"right",0.820999861,3,2,0.423000097,1,0.421999931,169,0,1,NA,0,NA,0
"524","stim/objects/Instruments/grandpiano3.png",260,53,253,0.9,"stim/64.jpeg",6,4,3,2,"Instruments",1,3,"left","left",0.601999998,1,1,1,0,NA,NA,NA,NA,NA,NA,NA,NA,NA,NA,NA,NA,NA,NA,NA,NA,NA,NA,NA,NA,NA,NA,NA,NA
"358","stim/objects/HouseObjects/garbagebin4.png",261,53,254,0.9,"stim/52.jpeg",5,2,3,1,"HouseObjects",2,1,"right","right",0.524999857,1,1,1,0,14,53,1,0.9,2,"stim/52.jpeg",5,2,"stim/52.jpeg",1,"right",1.006999731,4,1,1.003999949,1,0.399999857,14,0,0,NA,1,NA,0
"555","stim/objects/Instruments/marimba3.png",262,53,255,0.5,"stim/23.jpeg",2,3,1,1,"Instruments",1,2,"left","left",0.676000118,1,1,1,0,114,53,1,0.5,2,"stim/23.jpeg",2,3,"stim/23.jpeg",2,"left",1.084000111,4,2,1.145999908,3,0.704999924,114,1,0,0,0,0,0
"279","stim/objects/HouseObjects/coffee3.png",263,53,256,0.7,"stim/33.jpeg",3,3,2,2,"HouseObjects",2,1,"right","right",0.554000139,1,1,1,0,NA,NA,NA,NA,NA,NA,NA,NA,NA,NA,NA,NA,NA,NA,NA,NA,NA,NA,NA,NA,NA,NA,NA,NA
"525","stim/objects/Instruments/grandpiano3.png",264,53,257,0.9,"stim/61.jpeg",6,1,3,2,"Instruments",1,1,"left","left",0.523999929,1,1,1,0,NA,NA,NA,NA,NA,NA,NA,NA,NA,NA,NA,NA,NA,NA,NA,NA,NA,NA,NA,NA,NA,NA,NA,NA
"526","stim/objects/Instruments/grandpiano3.png",265,53,258,0.9,"stim/63.jpeg",6,3,3,2,"Instruments",1,3,"left","left",0.501000166,1,1,1,0,NA,NA,NA,NA,NA,NA,NA,NA,NA,NA,NA,NA,NA,NA,NA,NA,NA,NA,NA,NA,NA,NA,NA,NA
"327","stim/objects/HouseObjects/flyswatter3.png",266,53,259,0.9,"stim/52.jpeg",5,2,3,2,"HouseObjects",2,1,"right","right",0.493000031,1,1,1,0,NA,NA,NA,NA,NA,NA,NA,NA,NA,NA,NA,NA,NA,NA,NA,NA,NA,NA,NA,NA,NA,NA,NA,NA
"328","stim/objects/HouseObjects/flyswatter3.png",267,53,260,0.9,"stim/53.jpeg",5,3,3,2,"HouseObjects",2,1,"right","right",0.792999983,1,1,1,0,NA,NA,NA,NA,NA,NA,NA,NA,NA,NA,NA,NA,NA,NA,NA,NA,NA,NA,NA,NA,NA,NA,NA,NA
"360","stim/objects/HouseObjects/glass3.png",268,53,261,0.9,"stim/53.jpeg",5,3,3,2,"HouseObjects",2,2,"right","right",0.50999999,1,1,1,0,NA,NA,NA,NA,NA,NA,NA,NA,NA,NA,NA,NA,NA,NA,NA,NA,NA,NA,NA,NA,NA,NA,NA,NA
"474","stim/objects/Instruments/flutetrans3.png",269,53,262,0.9,"stim/61.jpeg",6,1,3,2,"Instruments",1,1,"left","left",0.529000044,1,1,1,0,NA,NA,NA,NA,NA,NA,NA,NA,NA,NA,NA,NA,NA,NA,NA,NA,NA,NA,NA,NA,NA,NA,NA,NA
"286","stim/objects/HouseObjects/cushion4.png",270,53,263,0.3,"stim/42.jpeg",4,2,2,1,"HouseObjects",2,2,"right","",NA,0,0,1,0,131,53,1,0.3,2,"stim/42.jpeg",4,2,"stim/42.jpeg",2,"right",0.60800004,1,2,0.785000086,3,0.358999729,131,0,1,NA,0,NA,0
"361","stim/objects/HouseObjects/glass3.png",271,53,264,0.9,"stim/54.jpeg",5,4,3,2,"HouseObjects",2,2,"right","right",0.57400012,1,1,1,0,NA,NA,NA,NA,NA,NA,NA,NA,NA,NA,NA,NA,NA,NA,NA,NA,NA,NA,NA,NA,NA,NA,NA,NA
"475","stim/objects/Instruments/flutetrans3.png",272,53,265,0.9,"stim/63.jpeg",6,3,3,2,"Instruments",1,4,"left","left",0.578999996,1,1,1,0,NA,NA,NA,NA,NA,NA,NA,NA,NA,NA,NA,NA,NA,NA,NA,NA,NA,NA,NA,NA,NA,NA,NA,NA
"415","stim/objects/Instruments/banjo3.png",273,53,266,0.5,"stim/11.jpeg",1,1,1,2,"Instruments",1,2,"left","left",0.503000021,1,1,1,0,NA,NA,NA,NA,NA,NA,NA,NA,NA,NA,NA,NA,NA,NA,NA,NA,NA,NA,NA,NA,NA,NA,NA,NA
"275","stim/objects/HouseObjects/clothespin3.png",274,53,267,0.7,"stim/32.jpeg",3,2,2,2,"HouseObjects",2,1,"right","right",0.561000109,1,1,1,0,NA,NA,NA,NA,NA,NA,NA,NA,NA,NA,NA,NA,NA,NA,NA,NA,NA,NA,NA,NA,NA,NA,NA,NA
"278","stim/objects/HouseObjects/clothespin4.png",275,53,268,0.3,"stim/44.jpeg",4,4,2,1,"HouseObjects",2,4,"right","left",0.769999981,0,0,1,0,25,53,1,0.3,2,"stim/44.jpeg",4,4,"stim/44.jpeg",4,"left",0.90199995,4,4,6.280999899,3,1.249999762,25,1,1,1,0,0,0
"284","stim/objects/HouseObjects/cushion3.png",276,53,269,0.7,"stim/32.jpeg",3,2,2,2,"HouseObjects",2,1,"right","right",0.495000124,1,1,1,0,NA,NA,NA,NA,NA,NA,NA,NA,NA,NA,NA,NA,NA,NA,NA,NA,NA,NA,NA,NA,NA,NA,NA,NA
"249","stim/objects/HouseObjects/barbecuelighter4.png",277,53,270,0.7,"stim/31.jpeg",3,1,2,1,"HouseObjects",2,1,"right","right",0.642999887,1,1,1,0,81,53,1,0.7,2,"stim/31.jpeg",3,1,"stim/31.jpeg",1,"right",0.790999889,3,3,0.877000093,2,1.098999977,81,0,0,NA,0,NA,0
"414","stim/objects/Instruments/balalaika4.png",278,53,271,0.3,"stim/34.jpeg",3,4,2,1,"Instruments",1,2,"left","",NA,0,0,1,0,103,53,1,0.3,1,"stim/34.jpeg",3,4,"stim/34.jpeg",2,"left",1.514999866,4,3,1.101999998,1,0.842999935,103,1,0,0,0,0,0
"362","stim/objects/HouseObjects/glass3.png",279,53,272,0.9,"stim/53.jpeg",5,3,3,2,"HouseObjects",2,2,"right","right",0.726000071,1,1,1,0,NA,NA,NA,NA,NA,NA,NA,NA,NA,NA,NA,NA,NA,NA,NA,NA,NA,NA,NA,NA,NA,NA,NA,NA
"380","stim/objects/HouseObjects/handbrush3.png",280,53,273,0.5,"stim/14.jpeg",1,4,1,1,"HouseObjects",2,2,"right","left",0.688999891,0,0,1,0,48,53,1,0.5,1,"stim/14.jpeg",1,4,"stim/14.jpeg",2,"right",0.626999855,1,2,1.490999937,1,0.352999926,48,0,0,NA,0,NA,0
"342","stim/objects/HouseObjects/garbagebin3.png",281,53,274,0.9,"stim/53.jpeg",5,3,3,2,"HouseObjects",2,3,"right","right",0.529000044,1,1,1,0,NA,NA,NA,NA,NA,NA,NA,NA,NA,NA,NA,NA,NA,NA,NA,NA,NA,NA,NA,NA,NA,NA,NA,NA
"477","stim/objects/Instruments/flutetrans3.png",282,53,275,0.9,"stim/64.jpeg",6,4,3,2,"Instruments",1,1,"left","left",0.537999868,1,1,1,0,NA,NA,NA,NA,NA,NA,NA,NA,NA,NA,NA,NA,NA,NA,NA,NA,NA,NA,NA,NA,NA,NA,NA,NA
"363","stim/objects/HouseObjects/glass3.png",283,53,276,0.9,"stim/54.jpeg",5,4,3,2,"HouseObjects",2,3,"right","right",0.513000011,1,1,1,0,NA,NA,NA,NA,NA,NA,NA,NA,NA,NA,NA,NA,NA,NA,NA,NA,NA,NA,NA,NA,NA,NA,NA,NA
"288","stim/objects/HouseObjects/dishsoap3.png",284,53,277,0.7,"stim/33.jpeg",3,3,2,2,"HouseObjects",2,4,"right","right",0.447000027,1,1,1,0,NA,NA,NA,NA,NA,NA,NA,NA,NA,NA,NA,NA,NA,NA,NA,NA,NA,NA,NA,NA,NA,NA,NA,NA
"523","stim/objects/Instruments/gong4.png",285,53,278,0.1,"stim/54.jpeg",5,4,3,1,"Instruments",1,2,"left","right",0.405999899,0,0,1,0,158,53,1,0.1,1,"stim/54.jpeg",5,4,"stim/54.jpeg",2,"left",1.40199995,3,2,1.007999897,2,1.500999928,158,1,0,0,1,1,0
"401","stim/objects/HouseObjects/towel4.png",286,53,279,0.1,"stim/62.jpeg",6,2,3,1,"HouseObjects",2,2,"right","left",0.779999971,0,0,1,0,197,53,1,0.1,2,"stim/62.jpeg",6,2,"stim/62.jpeg",2,"left",0.951999903,2,2,0.976999998,3,0.470999956,197,1,1,1,0,0,0
"435","stim/objects/Instruments/cornet4.png",287,53,280,0.7,"stim/44.jpeg",4,4,2,1,"Instruments",1,4,"left","right",0.465000153,0,0,1,0,98,53,1,0.7,1,"stim/44.jpeg",4,4,"stim/44.jpeg",4,"right",0.671000004,3,3,2.217999935,1,1.010999918,98,0,0,NA,0,NA,0
"408","stim/objects/Instruments/accordion4.png",288,53,281,0.3,"stim/32.jpeg",3,2,2,1,"Instruments",1,4,"left","left",0.457999945,1,1,1,0,138,53,1,0.3,1,"stim/32.jpeg",3,2,"stim/32.jpeg",4,"left",1.09800005,4,3,0.835000038,2,0.757999897,138,1,0,0,0,0,0
"294","stim/objects/HouseObjects/doormat3.png",289,53,282,0.9,"stim/51.jpeg",5,1,3,2,"HouseObjects",2,1,"right","right",0.494999886,1,1,1,0,NA,NA,NA,NA,NA,NA,NA,NA,NA,NA,NA,NA,NA,NA,NA,NA,NA,NA,NA,NA,NA,NA,NA,NA
"247","stim/objects/HouseObjects/barbecuelighter3.png",290,53,283,0.5,"stim/12.jpeg",1,2,1,2,"HouseObjects",2,1,"right","",NA,0,0,1,0,NA,NA,NA,NA,NA,NA,NA,NA,NA,NA,NA,NA,NA,NA,NA,NA,NA,NA,NA,NA,NA,NA,NA,NA
"457","stim/objects/Instruments/flute3.png",291,53,284,0.9,"stim/62.jpeg",6,2,3,2,"Instruments",1,3,"left","left",0.525999784,1,1,1,0,NA,NA,NA,NA,NA,NA,NA,NA,NA,NA,NA,NA,NA,NA,NA,NA,NA,NA,NA,NA,NA,NA,NA,NA
"452","stim/objects/Instruments/electricguitar3.png",292,53,285,0.7,"stim/41.jpeg",4,1,2,2,"Instruments",1,2,"left","left",0.610000134,1,1,1,0,NA,NA,NA,NA,NA,NA,NA,NA,NA,NA,NA,NA,NA,NA,NA,NA,NA,NA,NA,NA,NA,NA,NA,NA
"541","stim/objects/Instruments/guitarcase3.png",293,53,286,0.5,"stim/13.jpeg",1,3,1,1,"Instruments",1,1,"left","right",0.644999981,0,0,1,0,121,53,1,0.5,1,"stim/13.jpeg",1,3,"stim/13.jpeg",1,"right",2.354000092,3,3,0.691999912,3,0.604000092,121,0,1,NA,0,NA,0
"324","stim/objects/HouseObjects/dustpan4.png",294,53,287,0.9,"stim/54.jpeg",5,4,3,1,"HouseObjects",2,2,"right","right",0.588999987,1,1,1,0,188,53,1,0.9,2,"stim/54.jpeg",5,4,"stim/54.jpeg",2,"right",1.234999895,3,2,0.367999792,1,0.217999935,188,0,0,NA,0,NA,0
"250","stim/objects/HouseObjects/basket3.png",295,53,288,0.5,"stim/14.jpeg",1,4,1,2,"HouseObjects",2,1,"right","left",0.640000105,0,0,1,0,NA,NA,NA,NA,NA,NA,NA,NA,NA,NA,NA,NA,NA,NA,NA,NA,NA,NA,NA,NA,NA,NA,NA,NA
"310","stim/objects/HouseObjects/dustpan3.png",296,53,289,0.9,"stim/52.jpeg",5,2,3,2,"HouseObjects",2,4,"right","right",0.46999979,1,1,1,0,NA,NA,NA,NA,NA,NA,NA,NA,NA,NA,NA,NA,NA,NA,NA,NA,NA,NA,NA,NA,NA,NA,NA,NA
"458","stim/objects/Instruments/flute3.png",297,53,290,0.9,"stim/61.jpeg",6,1,3,2,"Instruments",1,1,"left","left",0.803999901,1,1,1,0,NA,NA,NA,NA,NA,NA,NA,NA,NA,NA,NA,NA,NA,NA,NA,NA,NA,NA,NA,NA,NA,NA,NA,NA
"412","stim/objects/Instruments/balalaika3.png",298,53,291,0.5,"stim/13.jpeg",1,3,1,2,"Instruments",1,1,"left","left",0.651000023,1,1,1,0,NA,NA,NA,NA,NA,NA,NA,NA,NA,NA,NA,NA,NA,NA,NA,NA,NA,NA,NA,NA,NA,NA,NA,NA
"326","stim/objects/HouseObjects/flyswatter3.png",299,53,292,0.9,"stim/51.jpeg",5,1,3,2,"HouseObjects",2,4,"right","right",0.649999857,1,1,1,0,NA,NA,NA,NA,NA,NA,NA,NA,NA,NA,NA,NA,NA,NA,NA,NA,NA,NA,NA,NA,NA,NA,NA,NA
"427","stim/objects/Instruments/chime3.png",300,53,293,0.5,"stim/21.jpeg",2,1,1,2,"Instruments",1,2,"left","left",0.638000011,1,1,1,0,NA,NA,NA,NA,NA,NA,NA,NA,NA,NA,NA,NA,NA,NA,NA,NA,NA,NA,NA,NA,NA,NA,NA,NA
"343","stim/objects/HouseObjects/garbagebin3.png",301,53,294,0.9,"stim/54.jpeg",5,4,3,2,"HouseObjects",2,2,"right","right",0.644000053,1,1,1,0,NA,NA,NA,NA,NA,NA,NA,NA,NA,NA,NA,NA,NA,NA,NA,NA,NA,NA,NA,NA,NA,NA,NA,NA
"344","stim/objects/HouseObjects/garbagebin3.png",302,53,295,0.9,"stim/52.jpeg",5,2,3,2,"HouseObjects",2,4,"right","right",0.674000025,1,1,1,0,NA,NA,NA,NA,NA,NA,NA,NA,NA,NA,NA,NA,NA,NA,NA,NA,NA,NA,NA,NA,NA,NA,NA,NA
"330","stim/objects/HouseObjects/flyswatter3.png",303,53,296,0.9,"stim/54.jpeg",5,4,3,2,"HouseObjects",2,4,"right","right",0.56400013,1,1,1,0,NA,NA,NA,NA,NA,NA,NA,NA,NA,NA,NA,NA,NA,NA,NA,NA,NA,NA,NA,NA,NA,NA,NA,NA
"563","stim/objects/Instruments/oboe3.png",304,53,297,0.3,"stim/32.jpeg",3,2,2,1,"Instruments",1,4,"left","left",0.576000214,1,1,1,0,30,53,1,0.3,1,"stim/32.jpeg",3,2,"stim/32.jpeg",4,"left",1.062999725,2,4,2.916999817,4,0.474999905,30,1,0,0,1,1,0
"459","stim/objects/Instruments/flute3.png",305,53,298,0.9,"stim/61.jpeg",6,1,3,2,"Instruments",1,1,"left","left",0.612999916,1,1,1,0,NA,NA,NA,NA,NA,NA,NA,NA,NA,NA,NA,NA,NA,NA,NA,NA,NA,NA,NA,NA,NA,NA,NA,NA
"262","stim/objects/HouseObjects/broom3.png",306,53,299,0.5,"stim/21.jpeg",2,1,1,2,"HouseObjects",2,3,"right","left",0.57799983,0,0,1,0,NA,NA,NA,NA,NA,NA,NA,NA,NA,NA,NA,NA,NA,NA,NA,NA,NA,NA,NA,NA,NA,NA,NA,NA
"478","stim/objects/Instruments/flutetrans3.png",307,53,300,0.9,"stim/61.jpeg",6,1,3,2,"Instruments",1,2,"left","right",0.496999979,0,0,1,0,NA,NA,NA,NA,NA,NA,NA,NA,NA,NA,NA,NA,NA,NA,NA,NA,NA,NA,NA,NA,NA,NA,NA,NA
"460","stim/objects/Instruments/flute3.png",308,53,301,0.9,"stim/62.jpeg",6,2,3,2,"Instruments",1,1,"left","left",0.489000082,1,1,1,0,NA,NA,NA,NA,NA,NA,NA,NA,NA,NA,NA,NA,NA,NA,NA,NA,NA,NA,NA,NA,NA,NA,NA,NA
"331","stim/objects/HouseObjects/flyswatter3.png",309,53,302,0.9,"stim/52.jpeg",5,2,3,2,"HouseObjects",2,2,"right","right",0.568000078,1,1,1,0,NA,NA,NA,NA,NA,NA,NA,NA,NA,NA,NA,NA,NA,NA,NA,NA,NA,NA,NA,NA,NA,NA,NA,NA
"528","stim/objects/Instruments/grandpiano3.png",310,53,303,0.9,"stim/63.jpeg",6,3,3,2,"Instruments",1,3,"left","left",0.513999939,1,1,1,0,NA,NA,NA,NA,NA,NA,NA,NA,NA,NA,NA,NA,NA,NA,NA,NA,NA,NA,NA,NA,NA,NA,NA,NA
"448","stim/objects/Instruments/electricdrumset3.png",311,53,304,0.7,"stim/42.jpeg",4,2,2,2,"Instruments",1,3,"left","",NA,0,0,1,0,NA,NA,NA,NA,NA,NA,NA,NA,NA,NA,NA,NA,NA,NA,NA,NA,NA,NA,NA,NA,NA,NA,NA,NA
"489","stim/objects/Instruments/flutetrans4.png",312,53,305,0.1,"stim/52.jpeg",5,2,3,1,"Instruments",1,4,"left","right",0.592999935,0,0,1,0,101,53,1,0.1,1,"stim/52.jpeg",5,2,"stim/52.jpeg",4,"left",5.18599987,2,3,1.509999752,3,0.767999887,101,1,0,0,0,0,0
"345","stim/objects/HouseObjects/garbagebin3.png",313,53,306,0.9,"stim/53.jpeg",5,3,3,2,"HouseObjects",2,4,"right","",NA,0,0,1,0,NA,NA,NA,NA,NA,NA,NA,NA,NA,NA,NA,NA,NA,NA,NA,NA,NA,NA,NA,NA,NA,NA,NA,NA
"449","stim/objects/Instruments/electricdrumset3.png",314,53,307,0.7,"stim/41.jpeg",4,1,2,2,"Instruments",1,1,"left","left",0.767999887,1,1,1,0,NA,NA,NA,NA,NA,NA,NA,NA,NA,NA,NA,NA,NA,NA,NA,NA,NA,NA,NA,NA,NA,NA,NA,NA
"398","stim/objects/HouseObjects/pitcher3.png",315,53,308,0.7,"stim/33.jpeg",3,3,2,1,"HouseObjects",2,2,"right","right",0.650000095,1,1,1,0,79,53,1,0.7,2,"stim/33.jpeg",3,3,"stim/33.jpeg",2,"right",0.792999744,3,2,0.855999947,1,0.213999748,79,0,0,NA,0,NA,0
"346","stim/objects/HouseObjects/garbagebin3.png",316,53,309,0.9,"stim/53.jpeg",5,3,3,2,"HouseObjects",2,4,"right","right",0.630000114,1,1,1,0,NA,NA,NA,NA,NA,NA,NA,NA,NA,NA,NA,NA,NA,NA,NA,NA,NA,NA,NA,NA,NA,NA,NA,NA
"267","stim/objects/HouseObjects/bucket4.png",317,53,310,0.3,"stim/41.jpeg",4,1,2,1,"HouseObjects",2,1,"right","left",0.760000229,0,0,1,0,179,53,1,0.3,2,"stim/41.jpeg",4,1,"stim/41.jpeg",1,"right",1.27699995,3,1,3.151000023,2,1.733999968,179,0,1,NA,0,NA,0
"493","stim/objects/Instruments/frenchhorn3.png",318,53,311,0.9,"stim/64.jpeg",6,4,3,2,"Instruments",1,3,"left","left",0.503000021,1,1,1,0,NA,NA,NA,NA,NA,NA,NA,NA,NA,NA,NA,NA,NA,NA,NA,NA,NA,NA,NA,NA,NA,NA,NA,NA
"529","stim/objects/Instruments/grandpiano3.png",319,53,312,0.9,"stim/64.jpeg",6,4,3,2,"Instruments",1,3,"left","left",0.590999842,1,1,1,0,NA,NA,NA,NA,NA,NA,NA,NA,NA,NA,NA,NA,NA,NA,NA,NA,NA,NA,NA,NA,NA,NA,NA,NA
"296","stim/objects/HouseObjects/doormat3.png",320,53,313,0.9,"stim/52.jpeg",5,2,3,2,"HouseObjects",2,2,"right","right",0.468000174,1,1,1,0,NA,NA,NA,NA,NA,NA,NA,NA,NA,NA,NA,NA,NA,NA,NA,NA,NA,NA,NA,NA,NA,NA,NA,NA
"378","stim/objects/HouseObjects/hairdryer3.png",321,53,314,0.5,"stim/13.jpeg",1,3,1,1,"HouseObjects",2,1,"right","right",0.512000084,1,1,1,0,173,53,1,0.5,1,"stim/13.jpeg",1,3,"stim/13.jpeg",1,"right",0.700999975,3,2,0.476999998,1,0.275999784,173,0,0,NA,1,NA,0
"530","stim/objects/Instruments/grandpiano3.png",322,53,315,0.9,"stim/61.jpeg",6,1,3,2,"Instruments",1,1,"left","left",0.364000082,1,1,1,0,NA,NA,NA,NA,NA,NA,NA,NA,NA,NA,NA,NA,NA,NA,NA,NA,NA,NA,NA,NA,NA,NA,NA,NA
"440","stim/objects/Instruments/doublebass3.png",323,53,316,0.7,"stim/43.jpeg",4,3,2,2,"Instruments",1,2,"left","left",0.566000223,1,1,1,0,NA,NA,NA,NA,NA,NA,NA,NA,NA,NA,NA,NA,NA,NA,NA,NA,NA,NA,NA,NA,NA,NA,NA,NA
"479","stim/objects/Instruments/flutetrans3.png",324,53,317,0.9,"stim/64.jpeg",6,4,3,2,"Instruments",1,1,"left","left",0.491000175,1,1,1,0,NA,NA,NA,NA,NA,NA,NA,NA,NA,NA,NA,NA,NA,NA,NA,NA,NA,NA,NA,NA,NA,NA,NA,NA
"527","stim/objects/Instruments/grandpiano3.png",325,53,318,0.9,"stim/61.jpeg",6,1,3,2,"Instruments",1,4,"left","right",0.803999901,0,0,1,0,NA,NA,NA,NA,NA,NA,NA,NA,NA,NA,NA,NA,NA,NA,NA,NA,NA,NA,NA,NA,NA,NA,NA,NA
"552","stim/objects/Instruments/laud4.png",326,53,319,0.9,"stim/61.jpeg",6,1,3,1,"Instruments",1,2,"left","left",0.475999832,1,1,1,0,183,53,1,0.9,1,"stim/61.jpeg",6,1,"stim/61.jpeg",2,"right",0.674999952,3,2,0.568000078,1,0.307999849,183,0,0,NA,0,NA,0
"311","stim/objects/HouseObjects/dustpan3.png",327,53,320,0.9,"stim/51.jpeg",5,1,3,2,"HouseObjects",2,2,"right","right",0.63499999,1,1,1,0,NA,NA,NA,NA,NA,NA,NA,NA,NA,NA,NA,NA,NA,NA,NA,NA,NA,NA,NA,NA,NA,NA,NA,NA
"432","stim/objects/Instruments/clarinet4.png",328,53,321,0.7,"stim/43.jpeg",4,3,2,1,"Instruments",1,3,"left","left",0.470999956,1,1,1,0,36,53,1,0.7,1,"stim/43.jpeg",4,3,"stim/43.jpeg",3,"right",1.998999834,3,3,0.625999928,3,0.84499979,36,0,1,NA,1,NA,0
"407","stim/objects/Instruments/accordion3.png",329,53,322,0.5,"stim/11.jpeg",1,1,1,2,"Instruments",1,4,"left","right",0.74000001,0,0,1,0,NA,NA,NA,NA,NA,NA,NA,NA,NA,NA,NA,NA,NA,NA,NA,NA,NA,NA,NA,NA,NA,NA,NA,NA
"258","stim/objects/HouseObjects/blender4.png",330,53,323,0.3,"stim/42.jpeg",4,2,2,1,"HouseObjects",2,2,"right","left",0.742999792,0,0,1,0,54,53,1,0.3,2,"stim/42.jpeg",4,2,"stim/42.jpeg",2,"left",3.335000038,3,2,5.431999922,4,1.409999847,54,1,1,1,0,0,0
"392","stim/objects/HouseObjects/lintroller3.png",331,53,324,0.5,"stim/23.jpeg",2,3,1,1,"HouseObjects",2,3,"right","left",0.529999971,0,0,1,0,20,53,1,0.5,2,"stim/23.jpeg",2,3,"stim/23.jpeg",3,"right",1.947000027,4,4,2.252999783,4,0.588999987,20,0,0,NA,0,NA,0
"365","stim/objects/HouseObjects/glass3.png",332,53,325,0.9,"stim/52.jpeg",5,2,3,2,"HouseObjects",2,4,"right","right",0.600000143,1,1,1,0,NA,NA,NA,NA,NA,NA,NA,NA,NA,NA,NA,NA,NA,NA,NA,NA,NA,NA,NA,NA,NA,NA,NA,NA
"447","stim/objects/Instruments/drums4.png",333,53,326,0.7,"stim/43.jpeg",4,3,2,1,"Instruments",1,4,"left","left",0.672999859,1,1,1,0,77,53,1,0.7,1,"stim/43.jpeg",4,3,"stim/43.jpeg",4,"left",1.437999964,4,3,1.190999746,2,0.682999849,77,1,1,1,0,0,0
"445","stim/objects/Instruments/drums3.png",334,53,327,0.7,"stim/43.jpeg",4,3,2,2,"Instruments",1,3,"left","",NA,0,0,1,0,NA,NA,NA,NA,NA,NA,NA,NA,NA,NA,NA,NA,NA,NA,NA,NA,NA,NA,NA,NA,NA,NA,NA,NA
"494","stim/objects/Instruments/frenchhorn3.png",335,53,328,0.9,"stim/64.jpeg",6,4,3,2,"Instruments",1,1,"left","right",0.437000036,0,0,1,0,NA,NA,NA,NA,NA,NA,NA,NA,NA,NA,NA,NA,NA,NA,NA,NA,NA,NA,NA,NA,NA,NA,NA,NA
"495","stim/objects/Instruments/frenchhorn3.png",336,53,329,0.9,"stim/63.jpeg",6,3,3,2,"Instruments",1,3,"left","left",0.538999796,1,1,1,0,NA,NA,NA,NA,NA,NA,NA,NA,NA,NA,NA,NA,NA,NA,NA,NA,NA,NA,NA,NA,NA,NA,NA,NA
"268","stim/objects/HouseObjects/clock3.png",337,53,330,0.5,"stim/22.jpeg",2,2,1,2,"HouseObjects",2,2,"right","left",0.556999922,0,0,1,0,NA,NA,NA,NA,NA,NA,NA,NA,NA,NA,NA,NA,NA,NA,NA,NA,NA,NA,NA,NA,NA,NA,NA,NA
"422","stim/objects/Instruments/bassguitar3.png",338,53,331,0.5,"stim/23.jpeg",2,3,1,2,"Instruments",1,4,"left","right",0.476000071,0,0,1,0,NA,NA,NA,NA,NA,NA,NA,NA,NA,NA,NA,NA,NA,NA,NA,NA,NA,NA,NA,NA,NA,NA,NA,NA
"444","stim/objects/Instruments/drums3.png",339,53,332,0.7,"stim/41.jpeg",4,1,2,2,"Instruments",1,3,"left","left",0.55099988,1,1,1,0,NA,NA,NA,NA,NA,NA,NA,NA,NA,NA,NA,NA,NA,NA,NA,NA,NA,NA,NA,NA,NA,NA,NA,NA
"347","stim/objects/HouseObjects/garbagebin3.png",340,53,333,0.9,"stim/52.jpeg",5,2,3,2,"HouseObjects",2,3,"right","right",0.575999975,1,1,1,0,NA,NA,NA,NA,NA,NA,NA,NA,NA,NA,NA,NA,NA,NA,NA,NA,NA,NA,NA,NA,NA,NA,NA,NA
"496","stim/objects/Instruments/frenchhorn3.png",341,53,334,0.9,"stim/62.jpeg",6,2,3,2,"Instruments",1,4,"left","left",0.514999866,1,1,1,0,NA,NA,NA,NA,NA,NA,NA,NA,NA,NA,NA,NA,NA,NA,NA,NA,NA,NA,NA,NA,NA,NA,NA,NA
"248","stim/objects/HouseObjects/barbecuelighter3.png",342,53,335,0.5,"stim/13.jpeg",1,3,1,2,"HouseObjects",2,3,"right","left",0.469000101,0,0,1,0,NA,NA,NA,NA,NA,NA,NA,NA,NA,NA,NA,NA,NA,NA,NA,NA,NA,NA,NA,NA,NA,NA,NA,NA
"551","stim/objects/Instruments/laud3.png",343,53,336,0.5,"stim/21.jpeg",2,1,1,1,"Instruments",1,1,"left","left",0.593999863,1,1,1,0,83,53,1,0.5,2,"stim/21.jpeg",2,1,"stim/21.jpeg",1,"left",1.128000021,4,4,2.486999989,1,0.424999952,83,1,0,0,1,1,0
"312","stim/objects/HouseObjects/dustpan3.png",344,53,337,0.9,"stim/54.jpeg",5,4,3,2,"HouseObjects",2,3,"right","left",0.898999929,0,0,1,0,NA,NA,NA,NA,NA,NA,NA,NA,NA,NA,NA,NA,NA,NA,NA,NA,NA,NA,NA,NA,NA,NA,NA,NA
"348","stim/objects/HouseObjects/garbagebin3.png",345,53,338,0.9,"stim/52.jpeg",5,2,3,2,"HouseObjects",2,2,"right","right",0.454999924,1,1,1,0,NA,NA,NA,NA,NA,NA,NA,NA,NA,NA,NA,NA,NA,NA,NA,NA,NA,NA,NA,NA,NA,NA,NA,NA
"349","stim/objects/HouseObjects/garbagebin3.png",346,53,339,0.9,"stim/54.jpeg",5,4,3,2,"HouseObjects",2,3,"right","left",0.424999952,0,0,1,0,NA,NA,NA,NA,NA,NA,NA,NA,NA,NA,NA,NA,NA,NA,NA,NA,NA,NA,NA,NA,NA,NA,NA,NA
"403","stim/objects/HouseObjects/vacuumcleaner4.png",347,53,340,0.1,"stim/63.jpeg",6,3,3,1,"HouseObjects",2,4,"right","left",0.614000082,0,0,1,0,135,53,1,0.1,2,"stim/63.jpeg",6,3,"stim/63.jpeg",4,"right",0.736999989,3,3,0.53399992,3,0.583999872,135,0,1,NA,0,NA,0
"299","stim/objects/HouseObjects/doormat3.png",348,53,341,0.9,"stim/52.jpeg",5,2,3,2,"HouseObjects",2,1,"right","right",0.440999985,1,1,1,0,NA,NA,NA,NA,NA,NA,NA,NA,NA,NA,NA,NA,NA,NA,NA,NA,NA,NA,NA,NA,NA,NA,NA,NA
"512","stim/objects/Instruments/gong3.png",349,53,342,0.9,"stim/61.jpeg",6,1,3,2,"Instruments",1,4,"left","left",0.5,1,1,1,0,NA,NA,NA,NA,NA,NA,NA,NA,NA,NA,NA,NA,NA,NA,NA,NA,NA,NA,NA,NA,NA,NA,NA,NA
"350","stim/objects/HouseObjects/garbagebin3.png",350,53,343,0.9,"stim/51.jpeg",5,1,3,2,"HouseObjects",2,1,"right","right",0.850999832,1,1,1,0,NA,NA,NA,NA,NA,NA,NA,NA,NA,NA,NA,NA,NA,NA,NA,NA,NA,NA,NA,NA,NA,NA,NA,NA
"513","stim/objects/Instruments/gong3.png",351,53,344,0.9,"stim/62.jpeg",6,2,3,2,"Instruments",1,2,"left","left",0.46999979,1,1,1,0,NA,NA,NA,NA,NA,NA,NA,NA,NA,NA,NA,NA,NA,NA,NA,NA,NA,NA,NA,NA,NA,NA,NA,NA
"428","stim/objects/Instruments/chime3.png",352,53,345,0.5,"stim/22.jpeg",2,2,1,2,"Instruments",1,1,"left","right",0.676000118,0,0,1,0,NA,NA,NA,NA,NA,NA,NA,NA,NA,NA,NA,NA,NA,NA,NA,NA,NA,NA,NA,NA,NA,NA,NA,NA
"437","stim/objects/Instruments/cymbal3.png",353,53,346,0.7,"stim/43.jpeg",4,3,2,2,"Instruments",1,3,"left","left",0.45600009,1,1,1,0,NA,NA,NA,NA,NA,NA,NA,NA,NA,NA,NA,NA,NA,NA,NA,NA,NA,NA,NA,NA,NA,NA,NA,NA
"251","stim/objects/HouseObjects/basket3.png",354,53,347,0.5,"stim/13.jpeg",1,3,1,2,"HouseObjects",2,3,"right","left",0.637000084,0,0,1,0,NA,NA,NA,NA,NA,NA,NA,NA,NA,NA,NA,NA,NA,NA,NA,NA,NA,NA,NA,NA,NA,NA,NA,NA
"295","stim/objects/HouseObjects/doormat3.png",355,53,348,0.9,"stim/52.jpeg",5,2,3,2,"HouseObjects",2,3,"right","right",0.499000072,1,1,1,0,NA,NA,NA,NA,NA,NA,NA,NA,NA,NA,NA,NA,NA,NA,NA,NA,NA,NA,NA,NA,NA,NA,NA,NA
"272","stim/objects/HouseObjects/clothesdryingrack3.png",356,53,349,0.7,"stim/33.jpeg",3,3,2,2,"HouseObjects",2,4,"right","right",0.65899992,1,1,1,0,NA,NA,NA,NA,NA,NA,NA,NA,NA,NA,NA,NA,NA,NA,NA,NA,NA,NA,NA,NA,NA,NA,NA,NA
"264","stim/objects/HouseObjects/broom4.png",357,53,350,0.3,"stim/44.jpeg",4,4,2,1,"HouseObjects",2,2,"right","right",0.552999973,1,1,1,0,149,53,1,0.3,2,"stim/44.jpeg",4,4,"stim/44.jpeg",2,"right",1.172999859,2,3,0.609999895,2,0.65199995,149,0,0,NA,1,NA,0
"558","stim/objects/Instruments/metronome4.png",358,53,351,0.9,"stim/64.jpeg",6,4,3,1,"Instruments",1,2,"left","left",0.555999994,1,1,1,0,129,53,1,0.9,1,"stim/64.jpeg",6,4,"stim/64.jpeg",2,"left",0.712999821,4,3,0.943000078,2,1.092999935,129,1,0,0,1,1,0
"252","stim/objects/HouseObjects/basket4.png",359,53,352,0.7,"stim/32.jpeg",3,2,2,1,"HouseObjects",2,2,"right","right",0.483999968,1,1,1,0,132,53,1,0.7,2,"stim/32.jpeg",3,2,"stim/32.jpeg",2,"right",1.585999966,4,4,0.850999832,4,0.451999903,132,0,0,NA,0,NA,0
"453","stim/objects/Instruments/electricguitar3.png",360,53,353,0.7,"stim/43.jpeg",4,3,2,2,"Instruments",1,4,"left","left",0.587000132,1,1,1,0,NA,NA,NA,NA,NA,NA,NA,NA,NA,NA,NA,NA,NA,NA,NA,NA,NA,NA,NA,NA,NA,NA,NA,NA
"461","stim/objects/Instruments/flute3.png",361,53,354,0.9,"stim/62.jpeg",6,2,3,2,"Instruments",1,3,"left","left",0.507999897,1,1,1,0,NA,NA,NA,NA,NA,NA,NA,NA,NA,NA,NA,NA,NA,NA,NA,NA,NA,NA,NA,NA,NA,NA,NA,NA
"290","stim/objects/HouseObjects/dishsoap4.png",362,53,355,0.3,"stim/43.jpeg",4,3,2,1,"HouseObjects",2,1,"right","right",0.625,1,1,1,0,96,53,1,0.3,2,"stim/43.jpeg",4,3,"stim/43.jpeg",1,"right",0.894999981,4,2,0.823999882,3,0.733999968,96,0,0,NA,0,NA,0
"351","stim/objects/HouseObjects/garbagebin3.png",363,53,356,0.9,"stim/52.jpeg",5,2,3,2,"HouseObjects",2,1,"right","right",0.571000099,1,1,1,0,NA,NA,NA,NA,NA,NA,NA,NA,NA,NA,NA,NA,NA,NA,NA,NA,NA,NA,NA,NA,NA,NA,NA,NA
"424","stim/objects/Instruments/cello3.png",364,53,357,0.5,"stim/21.jpeg",2,1,1,2,"Instruments",1,4,"left","left",0.566000223,1,1,1,0,NA,NA,NA,NA,NA,NA,NA,NA,NA,NA,NA,NA,NA,NA,NA,NA,NA,NA,NA,NA,NA,NA,NA,NA
"297","stim/objects/HouseObjects/doormat3.png",365,53,358,0.9,"stim/51.jpeg",5,1,3,2,"HouseObjects",2,3,"right","right",0.461999893,1,1,1,0,NA,NA,NA,NA,NA,NA,NA,NA,NA,NA,NA,NA,NA,NA,NA,NA,NA,NA,NA,NA,NA,NA,NA,NA
"462","stim/objects/Instruments/flute3.png",366,53,359,0.9,"stim/62.jpeg",6,2,3,2,"Instruments",1,3,"left","left",0.57400012,1,1,1,0,NA,NA,NA,NA,NA,NA,NA,NA,NA,NA,NA,NA,NA,NA,NA,NA,NA,NA,NA,NA,NA,NA,NA,NA
"384","stim/objects/HouseObjects/iron3.png",367,53,360,0.5,"stim/12.jpeg",1,2,1,1,"HouseObjects",2,2,"right","left",0.674000025,0,0,1,0,186,53,1,0.5,1,"stim/12.jpeg",1,2,"stim/12.jpeg",2,"right",1.288999796,3,1,1.826999903,2,0.518000126,186,0,0,NA,1,NA,0
"418","stim/objects/Instruments/bassdrum3.png",368,53,361,0.5,"stim/12.jpeg",1,2,1,2,"Instruments",1,4,"left","right",0.549999952,0,0,1,0,NA,NA,NA,NA,NA,NA,NA,NA,NA,NA,NA,NA,NA,NA,NA,NA,NA,NA,NA,NA,NA,NA,NA,NA
"397","stim/objects/HouseObjects/pan4.png",369,53,362,0.1,"stim/64.jpeg",6,4,3,1,"HouseObjects",2,2,"right","left",0.554000139,0,0,1,0,191,53,1,0.1,2,"stim/64.jpeg",6,4,"stim/64.jpeg",2,"right",1.575999975,2,3,0.087000132,1,0.357999802,191,0,0,NA,0,NA,0
"259","stim/objects/HouseObjects/bottle3.png",370,53,363,0.5,"stim/24.jpeg",2,4,1,2,"HouseObjects",2,1,"right","left",0.628999949,0,0,1,0,NA,NA,NA,NA,NA,NA,NA,NA,NA,NA,NA,NA,NA,NA,NA,NA,NA,NA,NA,NA,NA,NA,NA,NA
"375","stim/objects/HouseObjects/glass4.png",371,53,364,0.9,"stim/53.jpeg",5,3,3,1,"HouseObjects",2,4,"right","right",0.61500001,1,1,1,0,157,53,1,0.9,2,"stim/53.jpeg",5,3,"stim/53.jpeg",4,"right",2.843999863,2,2,0.552000046,1,0.279999971,157,0,0,NA,0,NA,0
"352","stim/objects/HouseObjects/garbagebin3.png",372,53,365,0.9,"stim/53.jpeg",5,3,3,2,"HouseObjects",2,4,"right","right",0.417999983,1,1,1,0,NA,NA,NA,NA,NA,NA,NA,NA,NA,NA,NA,NA,NA,NA,NA,NA,NA,NA,NA,NA,NA,NA,NA,NA
"314","stim/objects/HouseObjects/dustpan3.png",373,53,366,0.9,"stim/53.jpeg",5,3,3,2,"HouseObjects",2,1,"right","right",0.536000013,1,1,1,0,NA,NA,NA,NA,NA,NA,NA,NA,NA,NA,NA,NA,NA,NA,NA,NA,NA,NA,NA,NA,NA,NA,NA,NA
"463","stim/objects/Instruments/flute3.png",374,53,367,0.9,"stim/63.jpeg",6,3,3,2,"Instruments",1,2,"left","left",0.549999952,1,1,1,0,NA,NA,NA,NA,NA,NA,NA,NA,NA,NA,NA,NA,NA,NA,NA,NA,NA,NA,NA,NA,NA,NA,NA,NA
"553","stim/objects/Instruments/maraca3.png",375,53,368,0.5,"stim/22.jpeg",2,2,1,1,"Instruments",1,3,"left","",NA,0,0,1,0,66,53,1,0.5,2,"stim/22.jpeg",2,2,"stim/22.jpeg",3,"left",2.637999773,4,2,1.332999945,2,1.947999954,66,1,1,1,0,0,0
"244","stim/objects/HouseObjects/ballofstring3.png",376,53,369,0.5,"stim/11.jpeg",1,1,1,2,"HouseObjects",2,2,"right","left",0.600000143,0,0,1,0,NA,NA,NA,NA,NA,NA,NA,NA,NA,NA,NA,NA,NA,NA,NA,NA,NA,NA,NA,NA,NA,NA,NA,NA
"450","stim/objects/Instruments/electricdrumset3.png",377,53,370,0.7,"stim/44.jpeg",4,4,2,2,"Instruments",1,1,"left","right",0.611999989,0,0,1,0,NA,NA,NA,NA,NA,NA,NA,NA,NA,NA,NA,NA,NA,NA,NA,NA,NA,NA,NA,NA,NA,NA,NA,NA
"550","stim/objects/Instruments/keyboard4.png",378,53,371,0.1,"stim/52.jpeg",5,2,3,1,"Instruments",1,4,"left","left",0.656000137,1,1,1,0,120,53,1,0.1,1,"stim/52.jpeg",5,2,"stim/52.jpeg",4,"left",1.366999865,1,1,0.474999905,1,0.433999777,120,1,0,0,0,0,0
"511","stim/objects/Instruments/gong3.png",379,53,372,0.9,"stim/62.jpeg",6,2,3,2,"Instruments",1,4,"left","right",0.440000057,0,0,1,0,NA,NA,NA,NA,NA,NA,NA,NA,NA,NA,NA,NA,NA,NA,NA,NA,NA,NA,NA,NA,NA,NA,NA,NA
"566","stim/objects/Instruments/violin4.png",380,53,373,0.9,"stim/64.jpeg",6,4,3,1,"Instruments",1,3,"left","left",0.44900012,1,1,1,0,60,53,1,0.9,1,"stim/64.jpeg",6,4,"stim/64.jpeg",3,"left",1.054999828,4,2,2.99000001,3,5.586999893,60,1,0,0,1,1,0
"256","stim/objects/HouseObjects/blender3.png",381,53,374,0.5,"stim/22.jpeg",2,2,1,2,"HouseObjects",2,2,"right","left",0.609999895,0,0,1,0,NA,NA,NA,NA,NA,NA,NA,NA,NA,NA,NA,NA,NA,NA,NA,NA,NA,NA,NA,NA,NA,NA,NA,NA
"292","stim/objects/HouseObjects/doormat3.png",382,53,375,0.9,"stim/54.jpeg",5,4,3,2,"HouseObjects",2,3,"right","right",0.743000031,1,1,1,0,NA,NA,NA,NA,NA,NA,NA,NA,NA,NA,NA,NA,NA,NA,NA,NA,NA,NA,NA,NA,NA,NA,NA,NA
"473","stim/objects/Instruments/flutetrans3.png",383,53,376,0.9,"stim/62.jpeg",6,2,3,2,"Instruments",1,2,"left","left",0.490999937,1,1,1,0,NA,NA,NA,NA,NA,NA,NA,NA,NA,NA,NA,NA,NA,NA,NA,NA,NA,NA,NA,NA,NA,NA,NA,NA
"266","stim/objects/HouseObjects/bucket3.png",384,53,377,0.5,"stim/21.jpeg",2,1,1,2,"HouseObjects",2,4,"right","left",0.596999884,0,0,1,0,NA,NA,NA,NA,NA,NA,NA,NA,NA,NA,NA,NA,NA,NA,NA,NA,NA,NA,NA,NA,NA,NA,NA,NA
"315","stim/objects/HouseObjects/dustpan3.png",385,53,378,0.9,"stim/54.jpeg",5,4,3,2,"HouseObjects",2,1,"right","right",0.511000156,1,1,1,0,NA,NA,NA,NA,NA,NA,NA,NA,NA,NA,NA,NA,NA,NA,NA,NA,NA,NA,NA,NA,NA,NA,NA,NA
"515","stim/objects/Instruments/gong3.png",386,53,379,0.9,"stim/62.jpeg",6,2,3,2,"Instruments",1,1,"left","left",0.491000175,1,1,1,0,NA,NA,NA,NA,NA,NA,NA,NA,NA,NA,NA,NA,NA,NA,NA,NA,NA,NA,NA,NA,NA,NA,NA,NA
"270","stim/objects/HouseObjects/clock4.png",387,53,380,0.3,"stim/42.jpeg",4,2,2,1,"HouseObjects",2,2,"right","left",0.606999874,0,0,1,0,171,53,1,0.3,2,"stim/42.jpeg",4,2,"stim/42.jpeg",2,"right",1.006999969,2,3,0.171999931,1,0.355000019,171,0,0,NA,0,NA,0
"281","stim/objects/HouseObjects/coffee3.png",388,53,381,0.7,"stim/32.jpeg",3,2,2,2,"HouseObjects",2,2,"right","right",0.497999907,1,1,1,0,NA,NA,NA,NA,NA,NA,NA,NA,NA,NA,NA,NA,NA,NA,NA,NA,NA,NA,NA,NA,NA,NA,NA,NA
"484","stim/objects/Instruments/flutetrans3.png",389,53,382,0.9,"stim/64.jpeg",6,4,3,2,"Instruments",1,2,"left","left",0.478999853,1,1,1,0,NA,NA,NA,NA,NA,NA,NA,NA,NA,NA,NA,NA,NA,NA,NA,NA,NA,NA,NA,NA,NA,NA,NA,NA
"396","stim/objects/HouseObjects/pan3.png",390,53,383,0.7,"stim/32.jpeg",3,2,2,1,"HouseObjects",2,2,"right","right",0.610999823,1,1,1,0,8,53,1,0.7,2,"stim/32.jpeg",3,2,"stim/32.jpeg",2,"right",3.18599987,4,4,1.896999836,4,2.088000059,8,0,0,NA,0,NA,0
"308","stim/objects/HouseObjects/dustpan3.png",391,53,384,0.9,"stim/54.jpeg",5,4,3,2,"HouseObjects",2,1,"right","right",0.748000145,1,1,1,0,NA,NA,NA,NA,NA,NA,NA,NA,NA,NA,NA,NA,NA,NA,NA,NA,NA,NA,NA,NA,NA,NA,NA,NA
"366","stim/objects/HouseObjects/glass3.png",392,53,385,0.9,"stim/52.jpeg",5,2,3,2,"HouseObjects",2,1,"right","right",0.554000139,1,1,1,0,NA,NA,NA,NA,NA,NA,NA,NA,NA,NA,NA,NA,NA,NA,NA,NA,NA,NA,NA,NA,NA,NA,NA,NA
"273","stim/objects/HouseObjects/clothesdryingrack3.png",393,53,386,0.7,"stim/34.jpeg",3,4,2,2,"HouseObjects",2,3,"right","right",0.644999981,1,1,1,0,NA,NA,NA,NA,NA,NA,NA,NA,NA,NA,NA,NA,NA,NA,NA,NA,NA,NA,NA,NA,NA,NA,NA,NA
"548","stim/objects/Instruments/hihat4.png",394,53,387,0.1,"stim/51.jpeg",5,1,3,1,"Instruments",1,2,"left","right",0.544000149,0,0,1,0,4,53,1,0.1,1,"stim/51.jpeg",5,1,"stim/51.jpeg",2,"right",1.819999933,3,1,6.18599987,1,0.700000048,4,0,1,NA,0,NA,0
"514","stim/objects/Instruments/gong3.png",395,53,388,0.9,"stim/61.jpeg",6,1,3,2,"Instruments",1,1,"left","",NA,0,0,1,0,NA,NA,NA,NA,NA,NA,NA,NA,NA,NA,NA,NA,NA,NA,NA,NA,NA,NA,NA,NA,NA,NA,NA,NA
"309","stim/objects/HouseObjects/dustpan3.png",396,53,389,0.9,"stim/51.jpeg",5,1,3,2,"HouseObjects",2,2,"right","right",0.472999811,1,1,1,0,NA,NA,NA,NA,NA,NA,NA,NA,NA,NA,NA,NA,NA,NA,NA,NA,NA,NA,NA,NA,NA,NA,NA,NA
"517","stim/objects/Instruments/gong3.png",397,53,390,0.9,"stim/64.jpeg",6,4,3,2,"Instruments",1,2,"left","left",0.490999937,1,1,1,0,NA,NA,NA,NA,NA,NA,NA,NA,NA,NA,NA,NA,NA,NA,NA,NA,NA,NA,NA,NA,NA,NA,NA,NA
"255","stim/objects/HouseObjects/bleachbottle4.png",398,53,391,0.7,"stim/33.jpeg",3,3,2,1,"HouseObjects",2,2,"right","right",0.576999903,1,1,1,0,166,53,1,0.7,2,"stim/33.jpeg",3,3,"stim/33.jpeg",2,"right",1.835999966,2,2,0.359999895,1,0.750999928,166,0,0,NA,0,NA,0
"509","stim/objects/Instruments/gong3.png",399,53,392,0.9,"stim/62.jpeg",6,2,3,2,"Instruments",1,2,"left","left",0.542999983,1,1,1,0,NA,NA,NA,NA,NA,NA,NA,NA,NA,NA,NA,NA,NA,NA,NA,NA,NA,NA,NA,NA,NA,NA,NA,NA
"285","stim/objects/HouseObjects/cushion3.png",400,53,393,0.7,"stim/34.jpeg",3,4,2,2,"HouseObjects",2,1,"right","right",0.589999914,1,1,1,0,NA,NA,NA,NA,NA,NA,NA,NA,NA,NA,NA,NA,NA,NA,NA,NA,NA,NA,NA,NA,NA,NA,NA,NA
"476","stim/objects/Instruments/flutetrans3.png",401,53,394,0.9,"stim/63.jpeg",6,3,3,2,"Instruments",1,1,"left","left",0.51699996,1,1,1,0,NA,NA,NA,NA,NA,NA,NA,NA,NA,NA,NA,NA,NA,NA,NA,NA,NA,NA,NA,NA,NA,NA,NA,NA
"533","stim/objects/Instruments/grandpiano3.png",402,53,395,0.9,"stim/62.jpeg",6,2,3,2,"Instruments",1,4,"left","",NA,0,0,1,0,NA,NA,NA,NA,NA,NA,NA,NA,NA,NA,NA,NA,NA,NA,NA,NA,NA,NA,NA,NA,NA,NA,NA,NA
"395","stim/objects/HouseObjects/match4.png",403,53,396,0.1,"stim/63.jpeg",6,3,3,1,"HouseObjects",2,2,"right","left",0.874000072,0,0,1,0,163,53,1,0.1,2,"stim/63.jpeg",6,3,"stim/63.jpeg",2,"right",1.036999941,3,2,1.009999752,3,0.318999767,163,0,0,NA,0,NA,0
"394","stim/objects/HouseObjects/match3.png",404,53,397,0.5,"stim/24.jpeg",2,4,1,1,"HouseObjects",2,3,"right","left",0.539999962,0,0,1,0,7,53,1,0.5,2,"stim/24.jpeg",2,4,"stim/24.jpeg",3,"right",2.224999905,4,1,1.746999979,1,0.467999935,7,0,0,NA,0,NA,0
"300","stim/objects/HouseObjects/doormat3.png",405,53,398,0.9,"stim/54.jpeg",5,4,3,2,"HouseObjects",2,2,"right","right",0.564999819,1,1,1,0,NA,NA,NA,NA,NA,NA,NA,NA,NA,NA,NA,NA,NA,NA,NA,NA,NA,NA,NA,NA,NA,NA,NA,NA
"400","stim/objects/HouseObjects/towel3.png",406,53,399,0.7,"stim/34.jpeg",3,4,2,1,"HouseObjects",2,2,"right","",NA,0,0,1,0,185,53,1,0.7,2,"stim/34.jpeg",3,4,"stim/34.jpeg",2,"right",0.596999884,2,3,0.460000038,2,4.401000023,185,0,0,NA,1,NA,0
"280","stim/objects/HouseObjects/coffee3.png",407,53,400,0.7,"stim/31.jpeg",3,1,2,2,"HouseObjects",2,4,"right","",NA,0,0,1,0,NA,NA,NA,NA,NA,NA,NA,NA,NA,NA,NA,NA,NA,NA,NA,NA,NA,NA,NA,NA,NA,NA,NA,NA
"329","stim/objects/HouseObjects/flyswatter3.png",408,53,401,0.9,"stim/52.jpeg",5,2,3,2,"HouseObjects",2,1,"right","",NA,0,0,1,0,NA,NA,NA,NA,NA,NA,NA,NA,NA,NA,NA,NA,NA,NA,NA,NA,NA,NA,NA,NA,NA,NA,NA,NA
"293","stim/objects/HouseObjects/doormat3.png",409,53,402,0.9,"stim/54.jpeg",5,4,3,2,"HouseObjects",2,2,"right","",NA,0,0,1,0,NA,NA,NA,NA,NA,NA,NA,NA,NA,NA,NA,NA,NA,NA,NA,NA,NA,NA,NA,NA,NA,NA,NA,NA
"353","stim/objects/HouseObjects/garbagebin3.png",410,53,403,0.9,"stim/51.jpeg",5,1,3,2,"HouseObjects",2,4,"right","right",0.795000076,1,1,1,0,NA,NA,NA,NA,NA,NA,NA,NA,NA,NA,NA,NA,NA,NA,NA,NA,NA,NA,NA,NA,NA,NA,NA,NA
"544","stim/objects/Instruments/harmonica4.png",411,53,404,0.1,"stim/53.jpeg",5,3,3,1,"Instruments",1,3,"left","right",0.674999952,0,0,1,0,29,53,1,0.1,1,"stim/53.jpeg",5,3,"stim/53.jpeg",3,"left",1.217999935,4,2,2.099999905,1,1.142999887,29,1,0,0,0,0,0
"335","stim/objects/HouseObjects/flyswatter3.png",412,53,405,0.9,"stim/54.jpeg",5,4,3,2,"HouseObjects",2,3,"right","",NA,0,0,1,0,NA,NA,NA,NA,NA,NA,NA,NA,NA,NA,NA,NA,NA,NA,NA,NA,NA,NA,NA,NA,NA,NA,NA,NA
"381","stim/objects/HouseObjects/handbrush4.png",413,53,406,0.9,"stim/52.jpeg",5,2,3,1,"HouseObjects",2,1,"right","right",0.549999952,1,1,1,0,123,53,1,0.9,2,"stim/52.jpeg",5,2,"stim/52.jpeg",1,"right",1.434000015,1,1,0.728999853,1,0.443999767,123,0,0,NA,1,NA,0
"510","stim/objects/Instruments/gong3.png",414,53,407,0.9,"stim/61.jpeg",6,1,3,2,"Instruments",1,1,"left","left",0.529999971,1,1,1,0,NA,NA,NA,NA,NA,NA,NA,NA,NA,NA,NA,NA,NA,NA,NA,NA,NA,NA,NA,NA,NA,NA,NA,NA
"490","stim/objects/Instruments/frenchhorn3.png",415,53,408,0.9,"stim/61.jpeg",6,1,3,2,"Instruments",1,1,"left","left",0.490999937,1,1,1,0,NA,NA,NA,NA,NA,NA,NA,NA,NA,NA,NA,NA,NA,NA,NA,NA,NA,NA,NA,NA,NA,NA,NA,NA
"307","stim/objects/HouseObjects/doormat4.png",416,53,409,0.9,"stim/53.jpeg",5,3,3,1,"HouseObjects",2,1,"right","right",0.48300004,1,1,1,0,110,53,1,0.9,2,"stim/53.jpeg",5,3,"stim/53.jpeg",1,"left",2.391999722,3,4,0.92599988,3,0.461999893,110,1,0,0,0,0,0
"486","stim/objects/Instruments/flutetrans3.png",417,53,410,0.9,"stim/63.jpeg",6,3,3,2,"Instruments",1,3,"left","left",0.506999969,1,1,1,0,NA,NA,NA,NA,NA,NA,NA,NA,NA,NA,NA,NA,NA,NA,NA,NA,NA,NA,NA,NA,NA,NA,NA,NA
"336","stim/objects/HouseObjects/flyswatter3.png",418,53,411,0.9,"stim/54.jpeg",5,4,3,2,"HouseObjects",2,2,"right","right",0.476999998,1,1,1,0,NA,NA,NA,NA,NA,NA,NA,NA,NA,NA,NA,NA,NA,NA,NA,NA,NA,NA,NA,NA,NA,NA,NA,NA
"464","stim/objects/Instruments/flute3.png",419,53,412,0.9,"stim/61.jpeg",6,1,3,2,"Instruments",1,2,"left","left",0.523999929,1,1,1,0,NA,NA,NA,NA,NA,NA,NA,NA,NA,NA,NA,NA,NA,NA,NA,NA,NA,NA,NA,NA,NA,NA,NA,NA
"465","stim/objects/Instruments/flute3.png",420,53,413,0.9,"stim/64.jpeg",6,4,3,2,"Instruments",1,3,"left","left",0.427000046,1,1,1,0,NA,NA,NA,NA,NA,NA,NA,NA,NA,NA,NA,NA,NA,NA,NA,NA,NA,NA,NA,NA,NA,NA,NA,NA
"554","stim/objects/Instruments/maraca4.png",421,53,414,0.9,"stim/62.jpeg",6,2,3,1,"Instruments",1,4,"left","right",0.404999971,0,0,1,0,119,53,1,0.9,1,"stim/62.jpeg",6,2,"stim/62.jpeg",4,"right",1.646000147,3,3,1.575999737,3,0.683000088,119,0,0,NA,0,NA,0
"354","stim/objects/HouseObjects/garbagebin3.png",422,53,415,0.9,"stim/54.jpeg",5,4,3,2,"HouseObjects",2,3,"right","right",0.55099988,1,1,1,0,NA,NA,NA,NA,NA,NA,NA,NA,NA,NA,NA,NA,NA,NA,NA,NA,NA,NA,NA,NA,NA,NA,NA,NA
"482","stim/objects/Instruments/flutetrans3.png",423,53,416,0.9,"stim/62.jpeg",6,2,3,2,"Instruments",1,3,"left","right",0.488999844,0,0,1,0,NA,NA,NA,NA,NA,NA,NA,NA,NA,NA,NA,NA,NA,NA,NA,NA,NA,NA,NA,NA,NA,NA,NA,NA
"442","stim/objects/Instruments/doublebass3.png",424,53,417,0.7,"stim/44.jpeg",4,4,2,2,"Instruments",1,2,"left","right",0.52699995,0,0,1,0,NA,NA,NA,NA,NA,NA,NA,NA,NA,NA,NA,NA,NA,NA,NA,NA,NA,NA,NA,NA,NA,NA,NA,NA
"491","stim/objects/Instruments/frenchhorn3.png",425,53,418,0.9,"stim/63.jpeg",6,3,3,2,"Instruments",1,1,"left","left",0.546000004,1,1,1,0,NA,NA,NA,NA,NA,NA,NA,NA,NA,NA,NA,NA,NA,NA,NA,NA,NA,NA,NA,NA,NA,NA,NA,NA
"519","stim/objects/Instruments/gong3.png",426,53,419,0.9,"stim/63.jpeg",6,3,3,2,"Instruments",1,4,"left","left",0.50999999,1,1,1,0,NA,NA,NA,NA,NA,NA,NA,NA,NA,NA,NA,NA,NA,NA,NA,NA,NA,NA,NA,NA,NA,NA,NA,NA
"319","stim/objects/HouseObjects/dustpan3.png",427,53,420,0.9,"stim/52.jpeg",5,2,3,2,"HouseObjects",2,4,"right","right",0.593999863,1,1,1,0,NA,NA,NA,NA,NA,NA,NA,NA,NA,NA,NA,NA,NA,NA,NA,NA,NA,NA,NA,NA,NA,NA,NA,NA
"379","stim/objects/HouseObjects/hairdryer4.png",428,53,421,0.9,"stim/51.jpeg",5,1,3,1,"HouseObjects",2,4,"right","right",0.450999975,1,1,1,0,33,53,1,0.9,2,"stim/51.jpeg",5,1,"stim/51.jpeg",4,"left",1.449999809,4,3,2.180999994,4,0.741999865,33,1,0,0,1,1,0
"469","stim/objects/Instruments/flute3.png",429,53,422,0.9,"stim/63.jpeg",6,3,3,2,"Instruments",1,1,"left","left",0.428999901,1,1,1,0,NA,NA,NA,NA,NA,NA,NA,NA,NA,NA,NA,NA,NA,NA,NA,NA,NA,NA,NA,NA,NA,NA,NA,NA
"355","stim/objects/HouseObjects/garbagebin3.png",430,53,423,0.9,"stim/54.jpeg",5,4,3,2,"HouseObjects",2,3,"right","right",0.542999983,1,1,1,0,NA,NA,NA,NA,NA,NA,NA,NA,NA,NA,NA,NA,NA,NA,NA,NA,NA,NA,NA,NA,NA,NA,NA,NA
"338","stim/objects/HouseObjects/flyswatter3.png",431,53,424,0.9,"stim/51.jpeg",5,1,3,2,"HouseObjects",2,3,"right","right",0.588999987,1,1,1,0,NA,NA,NA,NA,NA,NA,NA,NA,NA,NA,NA,NA,NA,NA,NA,NA,NA,NA,NA,NA,NA,NA,NA,NA
"369","stim/objects/HouseObjects/glass3.png",432,53,425,0.9,"stim/51.jpeg",5,1,3,2,"HouseObjects",2,4,"right","",NA,0,0,1,0,NA,NA,NA,NA,NA,NA,NA,NA,NA,NA,NA,NA,NA,NA,NA,NA,NA,NA,NA,NA,NA,NA,NA,NA
"390","stim/objects/HouseObjects/knife3.png",433,53,426,0.5,"stim/22.jpeg",2,2,1,1,"HouseObjects",2,2,"right","right",0.758999825,1,1,1,0,53,53,1,0.5,2,"stim/22.jpeg",2,2,"stim/22.jpeg",2,"right",0.899999857,3,3,1.292000055,2,1.075999737,53,0,0,NA,1,NA,0
"535","stim/objects/Instruments/grandpiano3.png",434,53,427,0.9,"stim/61.jpeg",6,1,3,2,"Instruments",1,1,"left","right",0.461999893,0,0,1,0,NA,NA,NA,NA,NA,NA,NA,NA,NA,NA,NA,NA,NA,NA,NA,NA,NA,NA,NA,NA,NA,NA,NA,NA
"562","stim/objects/Instruments/musicstand4.png",435,53,428,0.9,"stim/62.jpeg",6,2,3,1,"Instruments",1,2,"left","left",0.500999928,1,1,1,0,92,53,1,0.9,1,"stim/62.jpeg",6,2,"stim/62.jpeg",2,"right",1.365999937,2,3,1.156999826,3,0.541999817,92,0,0,NA,0,NA,0
"402","stim/objects/HouseObjects/vacuumcleaner3.png",436,53,429,0.7,"stim/31.jpeg",3,1,2,1,"HouseObjects",2,3,"right","left",0.536999941,0,0,1,0,6,53,1,0.7,2,"stim/31.jpeg",3,1,"stim/31.jpeg",3,"right",5.654999971,3,2,5.73300004,1,1.449999809,6,0,0,NA,0,NA,0
"560","stim/objects/Instruments/musicsheet4.png",437,53,430,0.9,"stim/61.jpeg",6,1,3,1,"Instruments",1,1,"left","left",0.579999924,1,1,1,0,108,53,1,0.9,1,"stim/61.jpeg",6,1,"stim/61.jpeg",1,"left",2.444000006,3,3,3.345999718,1,0.744999886,108,1,0,0,1,1,0
"492","stim/objects/Instruments/frenchhorn3.png",438,53,431,0.9,"stim/63.jpeg",6,3,3,2,"Instruments",1,4,"left","left",0.5849998,1,1,1,0,NA,NA,NA,NA,NA,NA,NA,NA,NA,NA,NA,NA,NA,NA,NA,NA,NA,NA,NA,NA,NA,NA,NA,NA
"372","stim/objects/HouseObjects/glass3.png",439,53,432,0.9,"stim/52.jpeg",5,2,3,2,"HouseObjects",2,2,"right","right",0.5849998,1,1,1,0,NA,NA,NA,NA,NA,NA,NA,NA,NA,NA,NA,NA,NA,NA,NA,NA,NA,NA,NA,NA,NA,NA,NA,NA
"521","stim/objects/Instruments/gong3.png",440,53,433,0.9,"stim/64.jpeg",6,4,3,2,"Instruments",1,2,"left","left",0.584000111,1,1,1,0,NA,NA,NA,NA,NA,NA,NA,NA,NA,NA,NA,NA,NA,NA,NA,NA,NA,NA,NA,NA,NA,NA,NA,NA
"382","stim/objects/HouseObjects/handvacuum3.png",441,53,434,0.5,"stim/11.jpeg",1,1,1,1,"HouseObjects",2,4,"right","left",0.657999992,0,0,1,0,161,53,1,0.5,1,"stim/11.jpeg",1,1,"stim/11.jpeg",4,"right",0.801999807,2,2,0.54399991,1,0.382999897,161,0,0,NA,0,NA,0
"364","stim/objects/HouseObjects/glass3.png",442,53,435,0.9,"stim/51.jpeg",5,1,3,2,"HouseObjects",2,3,"right","right",0.644999981,1,1,1,0,NA,NA,NA,NA,NA,NA,NA,NA,NA,NA,NA,NA,NA,NA,NA,NA,NA,NA,NA,NA,NA,NA,NA,NA
"425","stim/objects/Instruments/cello3.png",443,53,436,0.5,"stim/24.jpeg",2,4,1,2,"Instruments",1,4,"left","",NA,0,0,1,0,NA,NA,NA,NA,NA,NA,NA,NA,NA,NA,NA,NA,NA,NA,NA,NA,NA,NA,NA,NA,NA,NA,NA,NA
"373","stim/objects/HouseObjects/glass3.png",444,53,437,0.9,"stim/53.jpeg",5,3,3,2,"HouseObjects",2,3,"right","right",0.523000002,1,1,1,0,NA,NA,NA,NA,NA,NA,NA,NA,NA,NA,NA,NA,NA,NA,NA,NA,NA,NA,NA,NA,NA,NA,NA,NA
"289","stim/objects/HouseObjects/dishsoap3.png",445,53,438,0.7,"stim/31.jpeg",3,1,2,2,"HouseObjects",2,1,"right","right",0.704999924,1,1,1,0,NA,NA,NA,NA,NA,NA,NA,NA,NA,NA,NA,NA,NA,NA,NA,NA,NA,NA,NA,NA,NA,NA,NA,NA
"564","stim/objects/Instruments/oboe4.png",446,53,439,0.9,"stim/63.jpeg",6,3,3,1,"Instruments",1,1,"left","right",0.857999802,0,0,1,0,104,53,1,0.9,1,"stim/63.jpeg",6,3,"stim/63.jpeg",1,"right",2.328000069,2,1,1.250999928,2,0.648999929,104,0,0,NA,0,NA,0
"531","stim/objects/Instruments/grandpiano3.png",447,53,440,0.9,"stim/64.jpeg",6,4,3,2,"Instruments",1,1,"left","",NA,0,0,1,0,NA,NA,NA,NA,NA,NA,NA,NA,NA,NA,NA,NA,NA,NA,NA,NA,NA,NA,NA,NA,NA,NA,NA,NA
"404","stim/objects/HouseObjects/wateringcan3.png",448,53,441,0.7,"stim/32.jpeg",3,2,2,1,"HouseObjects",2,3,"right","left",0.761000156,0,0,1,0,31,53,1,0.7,2,"stim/32.jpeg",3,2,"stim/32.jpeg",3,"right",3.247999907,3,1,3.131999969,1,0.207999945,31,0,0,NA,0,NA,0
"271","stim/objects/HouseObjects/clothesdryingrack3.png",449,53,442,0.7,"stim/31.jpeg",3,1,2,2,"HouseObjects",2,1,"right","right",0.470000029,1,1,1,0,NA,NA,NA,NA,NA,NA,NA,NA,NA,NA,NA,NA,NA,NA,NA,NA,NA,NA,NA,NA,NA,NA,NA,NA
"393","stim/objects/HouseObjects/lintroller4.png",450,53,443,0.1,"stim/62.jpeg",6,2,3,1,"HouseObjects",2,4,"right","left",0.506999969,0,0,1,0,42,53,1,0.1,2,"stim/62.jpeg",6,2,"stim/62.jpeg",4,"right",0.819000006,1,1,2.032999992,2,1.326999903,42,0,0,NA,0,NA,0
"532","stim/objects/Instruments/grandpiano3.png",451,53,444,0.9,"stim/63.jpeg",6,3,3,2,"Instruments",1,1,"left","left",0.770999908,1,1,1,0,NA,NA,NA,NA,NA,NA,NA,NA,NA,NA,NA,NA,NA,NA,NA,NA,NA,NA,NA,NA,NA,NA,NA,NA
"265","stim/objects/HouseObjects/bucket3.png",452,53,445,0.5,"stim/22.jpeg",2,2,1,2,"HouseObjects",2,3,"right","",NA,0,0,1,0,NA,NA,NA,NA,NA,NA,NA,NA,NA,NA,NA,NA,NA,NA,NA,NA,NA,NA,NA,NA,NA,NA,NA,NA
"416","stim/objects/Instruments/banjo3.png",453,53,446,0.5,"stim/14.jpeg",1,4,1,2,"Instruments",1,4,"left","right",0.812000036,0,0,1,0,NA,NA,NA,NA,NA,NA,NA,NA,NA,NA,NA,NA,NA,NA,NA,NA,NA,NA,NA,NA,NA,NA,NA,NA
"298","stim/objects/HouseObjects/doormat3.png",454,53,447,0.9,"stim/54.jpeg",5,4,3,2,"HouseObjects",2,4,"right","right",0.578999996,1,1,1,0,NA,NA,NA,NA,NA,NA,NA,NA,NA,NA,NA,NA,NA,NA,NA,NA,NA,NA,NA,NA,NA,NA,NA,NA
"565","stim/objects/Instruments/violin3.png",455,53,448,0.3,"stim/33.jpeg",3,3,2,1,"Instruments",1,1,"left","right",0.709000111,0,0,1,0,107,53,1,0.3,1,"stim/33.jpeg",3,3,"stim/33.jpeg",1,"right",0.856999874,3,3,0.789000034,4,0.5,107,0,1,NA,0,NA,0
"431","stim/objects/Instruments/clarinet3.png",456,53,449,0.5,"stim/22.jpeg",2,2,1,2,"Instruments",1,1,"left","right",0.528999805,0,0,1,0,NA,NA,NA,NA,NA,NA,NA,NA,NA,NA,NA,NA,NA,NA,NA,NA,NA,NA,NA,NA,NA,NA,NA,NA
"386","stim/objects/HouseObjects/ironingboard3.png",457,53,450,0.5,"stim/24.jpeg",2,4,1,1,"HouseObjects",2,1,"right","left",0.576999903,0,0,1,0,37,53,1,0.5,2,"stim/24.jpeg",2,4,"stim/24.jpeg",1,"right",0.903999805,4,4,1.500999928,4,0.66899991,37,0,1,NA,0,NA,0
"419","stim/objects/Instruments/bassdrum3.png",458,53,451,0.5,"stim/11.jpeg",1,1,1,2,"Instruments",1,3,"left","right",0.89199996,0,0,1,0,NA,NA,NA,NA,NA,NA,NA,NA,NA,NA,NA,NA,NA,NA,NA,NA,NA,NA,NA,NA,NA,NA,NA,NA
"389","stim/objects/HouseObjects/key4.png",459,53,452,0.1,"stim/64.jpeg",6,4,3,1,"HouseObjects",2,4,"right","left",0.537999868,0,0,1,0,175,53,1,0.1,2,"stim/64.jpeg",6,4,"stim/64.jpeg",4,"right",0.911999941,2,3,1.250999928,2,0.440000057,175,0,0,NA,0,NA,0
"542","stim/objects/Instruments/guitarcase4.png",460,53,453,0.1,"stim/52.jpeg",5,2,3,1,"Instruments",1,2,"left","right",0.871999979,0,0,1,0,19,53,1,0.1,1,"stim/52.jpeg",5,2,"stim/52.jpeg",2,"left",1.154999971,4,2,8.319999933,4,1.967999935,19,1,1,1,0,0,0
"356","stim/objects/HouseObjects/garbagebin3.png",461,53,454,0.9,"stim/51.jpeg",5,1,3,2,"HouseObjects",2,4,"right","right",0.463000059,1,1,1,0,NA,NA,NA,NA,NA,NA,NA,NA,NA,NA,NA,NA,NA,NA,NA,NA,NA,NA,NA,NA,NA,NA,NA,NA
"388","stim/objects/HouseObjects/key3.png",462,53,455,0.5,"stim/21.jpeg",2,1,1,1,"HouseObjects",2,4,"right","left",0.638000011,0,0,1,0,56,53,1,0.5,2,"stim/21.jpeg",2,1,"stim/21.jpeg",4,"left",0.899999857,4,1,5.993999958,3,0.773999929,56,1,1,1,0,0,0
"546","stim/objects/Instruments/harp4.png",463,53,456,0.1,"stim/54.jpeg",5,4,3,1,"Instruments",1,2,"left","right",0.724999905,0,0,1,0,74,53,1,0.1,1,"stim/54.jpeg",5,4,"stim/54.jpeg",2,"right",0.723999739,4,2,1.161000013,1,0.289999962,74,0,0,NA,0,NA,0
"436","stim/objects/Instruments/cymbal3.png",464,53,457,0.7,"stim/42.jpeg",4,2,2,2,"Instruments",1,4,"left","left",0.655999899,1,1,1,0,NA,NA,NA,NA,NA,NA,NA,NA,NA,NA,NA,NA,NA,NA,NA,NA,NA,NA,NA,NA,NA,NA,NA,NA
"468","stim/objects/Instruments/flute3.png",465,53,458,0.9,"stim/64.jpeg",6,4,3,2,"Instruments",1,4,"left","left",0.572000027,1,1,1,0,NA,NA,NA,NA,NA,NA,NA,NA,NA,NA,NA,NA,NA,NA,NA,NA,NA,NA,NA,NA,NA,NA,NA,NA
"410","stim/objects/Instruments/acousticguitar3.png",466,53,459,0.5,"stim/13.jpeg",1,3,1,2,"Instruments",1,3,"left","left",0.684000015,1,1,1,0,NA,NA,NA,NA,NA,NA,NA,NA,NA,NA,NA,NA,NA,NA,NA,NA,NA,NA,NA,NA,NA,NA,NA,NA
"340","stim/objects/HouseObjects/flyswatter3.png",467,53,460,0.9,"stim/52.jpeg",5,2,3,2,"HouseObjects",2,1,"right","right",0.532000065,1,1,1,0,NA,NA,NA,NA,NA,NA,NA,NA,NA,NA,NA,NA,NA,NA,NA,NA,NA,NA,NA,NA,NA,NA,NA,NA
"497","stim/objects/Instruments/frenchhorn3.png",468,53,461,0.9,"stim/62.jpeg",6,2,3,2,"Instruments",1,2,"left","left",0.52699995,1,1,1,0,NA,NA,NA,NA,NA,NA,NA,NA,NA,NA,NA,NA,NA,NA,NA,NA,NA,NA,NA,NA,NA,NA,NA,NA
"306","stim/objects/HouseObjects/doormat3.png",469,53,462,0.9,"stim/53.jpeg",5,3,3,2,"HouseObjects",2,4,"right","right",0.470000029,1,1,1,0,NA,NA,NA,NA,NA,NA,NA,NA,NA,NA,NA,NA,NA,NA,NA,NA,NA,NA,NA,NA,NA,NA,NA,NA
"254","stim/objects/HouseObjects/bleachbottle3.png",470,53,463,0.5,"stim/14.jpeg",1,4,1,2,"HouseObjects",2,3,"right","right",0.509000063,1,1,1,0,NA,NA,NA,NA,NA,NA,NA,NA,NA,NA,NA,NA,NA,NA,NA,NA,NA,NA,NA,NA,NA,NA,NA,NA
