"","participant","trial_index","trial_cond","scn_file","scn_cat","scn_inst","scn_condition","fillers","obj_cat","obj_cat_num","obj_file","quadrant","corr_ans","key_resp_trial.keys","key_resp_trial.rt","trial_acc","trial_acc_manual","group"
"1",9,1,0.7,"stim/61.jpeg",6,1,2,NA,"HouseObjects",1,"stim/objects/HouseObjects/rug2.png",4,"left","",NA,0,0,1
"2",9,2,0.5,"stim/31.jpeg",3,1,1,NA,"Instruments",2,"stim/objects/Instruments/record_player.png",3,"right","left",0.776000023,0,0,1
"3",9,3,0.5,"stim/43.jpeg",4,3,1,NA,"Instruments",2,"stim/objects/Instruments/trombone.png",3,"right","right",0.737999916,1,1,1
"4",9,4,0.7,"stim/64.jpeg",6,4,2,NA,"HouseObjects",1,"stim/objects/HouseObjects/scale2.png",3,"left","left",0.715999842,1,1,1
"5",9,5,0.9,"stim/13.jpeg",1,3,3,NA,"Instruments",2,"stim/objects/Instruments/trombone2.png",4,"right","",NA,0,0,1
"6",9,6,0.5,"stim/34.jpeg",3,4,1,NA,"Instruments",2,"stim/objects/Instruments/tambourine.png",2,"right","",NA,0,0,1
"7",9,7,0.5,"stim/42.jpeg",4,2,1,NA,"HouseObjects",1,"stim/objects/HouseObjects/spraybottle.png",4,"left","right",0.763999939,0,0,1
"8",9,8,0.9,"stim/11.jpeg",1,1,3,NA,"Instruments",2,"stim/objects/Instruments/timbal2.png",3,"right","",NA,0,0,1
"9",9,9,0.7,"stim/62.jpeg",6,2,2,NA,"HouseObjects",1,"stim/objects/HouseObjects/safetypin2.png",2,"left","",NA,0,0,1
"10",9,10,0.7,"stim/63.jpeg",6,3,2,NA,"HouseObjects",1,"stim/objects/HouseObjects/saw2.png",1,"left","left",0.596999884,1,1,1
"11",9,11,0.7,"stim/62.jpeg",6,2,2,NA,"HouseObjects",1,"stim/objects/HouseObjects/safetypin2.png",1,"left","",NA,0,0,1
"12",9,12,0.3,"stim/61.jpeg",6,1,2,NA,"Instruments",2,"stim/objects/Instruments/record_player2.png",3,"right","left",0.584000111,0,0,1
"13",9,13,0.7,"stim/53.jpeg",5,3,2,NA,"Instruments",2,"stim/objects/Instruments/vuvuzela.png",2,"right","right",0.588000059,1,1,1
"14",9,14,0.9,"stim/12.jpeg",1,2,3,NA,"Instruments",2,"stim/objects/Instruments/triangle2.png",2,"right","right",0.628999949,1,1,1
"15",9,15,0.9,"stim/12.jpeg",1,2,3,NA,"Instruments",2,"stim/objects/Instruments/triangle2.png",1,"right","right",0.649999857,1,1,1
"16",9,16,0.9,"stim/24.jpeg",2,4,3,NA,"HouseObjects",1,"stim/objects/HouseObjects/wateringcan2.png",2,"left","left",0.766999722,1,1,1
"17",9,17,0.5,"stim/42.jpeg",4,2,1,NA,"Instruments",2,"stim/objects/Instruments/triangle.png",2,"right","right",0.605999947,1,1,1
"18",9,18,0.1,"stim/12.jpeg",1,2,3,NA,"HouseObjects",1,"stim/objects/HouseObjects/spraybottle2.png",4,"left","right",0.59499979,0,0,1
"19",9,19,0.5,"stim/34.jpeg",3,4,1,NA,"Instruments",2,"stim/objects/Instruments/tambourine.png",2,"right","left",0.707999945,0,0,1
"20",9,20,0.3,"stim/61.jpeg",6,1,2,NA,"Instruments",2,"stim/objects/Instruments/record_player2.png",2,"right","",NA,0,0,1
"21",9,21,0.7,"stim/62.jpeg",6,2,2,NA,"HouseObjects",1,"stim/objects/HouseObjects/safetypin2.png",4,"left","",NA,0,0,1
"22",9,22,0.5,"stim/43.jpeg",4,3,1,NA,"HouseObjects",1,"stim/objects/HouseObjects/teapot.png",2,"left","right",0.642999887,0,0,1
"23",9,23,0.3,"stim/53.jpeg",5,3,2,NA,"HouseObjects",1,"stim/objects/HouseObjects/vacuumcleaner.png",2,"left","right",0.548000097,0,0,1
"24",9,24,0.9,"stim/24.jpeg",2,4,3,NA,"HouseObjects",1,"stim/objects/HouseObjects/wateringcan2.png",1,"left","left",0.57799983,1,1,1
"25",9,25,0.7,"stim/51.jpeg",5,1,2,NA,"Instruments",2,"stim/objects/Instruments/tuba.png",3,"right","right",0.562000036,1,1,1
"26",9,26,0.5,"stim/31.jpeg",3,1,1,NA,"HouseObjects",1,"stim/objects/HouseObjects/rug.png",4,"left","left",0.646999836,1,1,1
"27",9,27,0.3,"stim/64.jpeg",6,4,2,NA,"Instruments",2,"stim/objects/Instruments/tambourine2.png",4,"right","right",0.650999784,1,1,1
"28",9,28,0.9,"stim/22.jpeg",2,2,3,NA,"HouseObjects",1,"stim/objects/HouseObjects/towel2.png",1,"left","left",0.585000038,1,1,1
"29",9,29,0.9,"stim/14.jpeg",1,4,3,NA,"Instruments",2,"stim/objects/Instruments/trumpet2.png",4,"right","",NA,0,0,1
"30",9,30,0.3,"stim/53.jpeg",5,3,2,NA,"HouseObjects",1,"stim/objects/HouseObjects/vacuumcleaner.png",1,"left","right",0.517999887,0,0,1
"31",9,31,0.9,"stim/22.jpeg",2,2,3,NA,"HouseObjects",1,"stim/objects/HouseObjects/towel2.png",4,"left","left",0.603999853,1,1,1
"32",9,32,0.5,"stim/41.jpeg",4,1,1,NA,"Instruments",2,"stim/objects/Instruments/timbal.png",3,"right","right",0.539999962,1,1,1
"33",9,33,0.9,"stim/23.jpeg",2,3,3,NA,"HouseObjects",1,"stim/objects/HouseObjects/vacuumcleaner2.png",2,"left","left",0.564999819,1,1,1
"34",9,34,0.5,"stim/32.jpeg",3,2,1,NA,"Instruments",2,"stim/objects/Instruments/saxophone.png",3,"right","right",0.749000072,1,1,1
"35",9,35,0.5,"stim/31.jpeg",3,1,1,NA,"Instruments",2,"stim/objects/Instruments/record_player.png",2,"right","right",0.624999762,1,1,1
"36",9,36,0.5,"stim/33.jpeg",3,3,1,NA,"Instruments",2,"stim/objects/Instruments/speaker.png",2,"right","right",0.565000057,1,1,1
"37",9,37,0.9,"stim/13.jpeg",1,3,3,NA,"Instruments",2,"stim/objects/Instruments/trombone2.png",3,"right","right",0.637999773,1,1,1
"38",9,38,0.9,"stim/13.jpeg",1,3,3,NA,"Instruments",2,"stim/objects/Instruments/trombone2.png",4,"right","right",0.524999857,1,1,1
"39",9,39,0.5,"stim/31.jpeg",3,1,1,NA,"Instruments",2,"stim/objects/Instruments/record_player.png",4,"right","right",0.782000065,1,1,1
"40",9,40,0.7,"stim/51.jpeg",5,1,2,NA,"Instruments",2,"stim/objects/Instruments/tuba.png",4,"right","right",0.631999969,1,1,1
"41",9,41,0.1,"stim/22.jpeg",2,2,3,NA,"Instruments",2,"stim/objects/Instruments/violin2.png",2,"right","left",0.60800004,0,0,1
"42",9,42,0.5,"stim/42.jpeg",4,2,1,NA,"HouseObjects",1,"stim/objects/HouseObjects/spraybottle.png",2,"left","right",0.655999899,0,0,1
"43",9,43,0.9,"stim/22.jpeg",2,2,3,NA,"HouseObjects",1,"stim/objects/HouseObjects/towel2.png",2,"left","left",0.798000097,1,1,1
"44",9,44,0.7,"stim/54.jpeg",5,4,2,NA,"Instruments",2,"stim/objects/Instruments/xylophone.png",2,"right","right",0.703999758,1,1,1
"45",9,45,0.5,"stim/43.jpeg",4,3,1,NA,"HouseObjects",1,"stim/objects/HouseObjects/teapot.png",3,"left","",NA,0,0,1
"46",9,46,0.5,"stim/44.jpeg",4,4,1,NA,"Instruments",2,"stim/objects/Instruments/trumpet.png",1,"right","",NA,0,0,1
"47",9,47,0.5,"stim/33.jpeg",3,3,1,NA,"HouseObjects",1,"stim/objects/HouseObjects/saw.png",3,"left","",NA,0,0,1
"48",9,48,0.7,"stim/61.jpeg",6,1,2,NA,"HouseObjects",1,"stim/objects/HouseObjects/rug2.png",3,"left","",NA,0,0,1
"49",9,49,0.5,"stim/33.jpeg",3,3,1,NA,"Instruments",2,"stim/objects/Instruments/speaker.png",3,"right","left",0.542999983,0,0,1
"50",9,50,0.7,"stim/63.jpeg",6,3,2,NA,"HouseObjects",1,"stim/objects/HouseObjects/saw2.png",4,"left","left",0.585000038,1,1,1
"51",9,51,0.5,"stim/34.jpeg",3,4,1,NA,"HouseObjects",1,"stim/objects/HouseObjects/scale.png",2,"left","left",0.828999758,1,1,1
"52",9,52,0.9,"stim/24.jpeg",2,4,3,NA,"HouseObjects",1,"stim/objects/HouseObjects/wateringcan2.png",2,"left","left",0.576999903,1,1,1
"53",9,53,0.7,"stim/53.jpeg",5,3,2,NA,"Instruments",2,"stim/objects/Instruments/vuvuzela.png",4,"right","right",0.617000103,1,1,1
"54",9,54,0.7,"stim/54.jpeg",5,4,2,NA,"Instruments",2,"stim/objects/Instruments/xylophone.png",1,"right","right",0.482999802,1,1,1
"55",9,55,0.5,"stim/32.jpeg",3,2,1,NA,"HouseObjects",1,"stim/objects/HouseObjects/safetypin.png",1,"left","left",0.828999758,1,1,1
"56",9,56,0.7,"stim/61.jpeg",6,1,2,NA,"HouseObjects",1,"stim/objects/HouseObjects/rug2.png",2,"left","left",0.795999765,1,1,1
"57",9,57,0.3,"stim/54.jpeg",5,4,2,NA,"HouseObjects",1,"stim/objects/HouseObjects/wateringcan.png",1,"left","right",0.53399992,0,0,1
"58",9,58,0.9,"stim/11.jpeg",1,1,3,NA,"Instruments",2,"stim/objects/Instruments/timbal2.png",2,"right","right",0.559999943,1,1,1
"59",9,59,0.5,"stim/32.jpeg",3,2,1,NA,"Instruments",2,"stim/objects/Instruments/saxophone.png",3,"right","left",0.756999969,0,0,1
"60",9,60,0.9,"stim/11.jpeg",1,1,3,NA,"Instruments",2,"stim/objects/Instruments/timbal2.png",3,"right","right",0.684999943,1,1,1
"61",9,61,0.9,"stim/22.jpeg",2,2,3,NA,"HouseObjects",1,"stim/objects/HouseObjects/towel2.png",3,"left","left",0.616999865,1,1,1
"62",9,62,0.9,"stim/11.jpeg",1,1,3,NA,"Instruments",2,"stim/objects/Instruments/timbal2.png",4,"right","right",0.612999916,1,1,1
"63",9,63,0.9,"stim/24.jpeg",2,4,3,NA,"HouseObjects",1,"stim/objects/HouseObjects/wateringcan2.png",3,"left","left",0.592999935,1,1,1
"64",9,64,0.9,"stim/14.jpeg",1,4,3,NA,"Instruments",2,"stim/objects/Instruments/trumpet2.png",4,"right","right",0.714999914,1,1,1
"65",9,65,0.3,"stim/51.jpeg",5,1,2,NA,"HouseObjects",1,"stim/objects/HouseObjects/thread.png",4,"left","",NA,0,0,1
"66",9,66,0.9,"stim/11.jpeg",1,1,3,NA,"Instruments",2,"stim/objects/Instruments/timbal2.png",1,"right","right",0.809000015,1,1,1
"67",9,67,0.7,"stim/64.jpeg",6,4,2,NA,"HouseObjects",1,"stim/objects/HouseObjects/scale2.png",3,"left","left",0.623999834,1,1,1
"68",9,68,0.1,"stim/21.jpeg",2,1,3,NA,"Instruments",2,"stim/objects/Instruments/tuba2.png",1,"right","left",0.545000076,0,0,1
"69",9,69,0.3,"stim/64.jpeg",6,4,2,NA,"Instruments",2,"stim/objects/Instruments/tambourine2.png",4,"right","left",0.519999981,0,0,1
"70",9,70,0.9,"stim/11.jpeg",1,1,3,NA,"Instruments",2,"stim/objects/Instruments/timbal2.png",4,"right","right",0.589999914,1,1,1
"71",9,71,0.5,"stim/41.jpeg",4,1,1,NA,"HouseObjects",1,"stim/objects/HouseObjects/sponge.png",1,"left","",NA,0,0,1
"72",9,72,0.3,"stim/53.jpeg",5,3,2,NA,"HouseObjects",1,"stim/objects/HouseObjects/vacuumcleaner.png",1,"left","",NA,0,0,1
"73",9,73,0.5,"stim/32.jpeg",3,2,1,NA,"Instruments",2,"stim/objects/Instruments/saxophone.png",3,"right","left",0.775999784,0,0,1
"74",9,74,0.7,"stim/52.jpeg",5,2,2,NA,"Instruments",2,"stim/objects/Instruments/violin.png",1,"right","right",0.555999994,1,1,1
"75",9,75,0.5,"stim/43.jpeg",4,3,1,NA,"HouseObjects",1,"stim/objects/HouseObjects/teapot.png",4,"left","right",0.617999792,0,0,1
"76",9,76,0.7,"stim/61.jpeg",6,1,2,NA,"HouseObjects",1,"stim/objects/HouseObjects/rug2.png",2,"left","left",0.552000046,1,1,1
"77",9,77,0.7,"stim/54.jpeg",5,4,2,NA,"Instruments",2,"stim/objects/Instruments/xylophone.png",4,"right","right",0.50999999,1,1,1
"78",9,78,0.5,"stim/44.jpeg",4,4,1,NA,"Instruments",2,"stim/objects/Instruments/trumpet.png",4,"right","",NA,0,0,1
"79",9,79,0.9,"stim/24.jpeg",2,4,3,NA,"HouseObjects",1,"stim/objects/HouseObjects/wateringcan2.png",2,"left","left",0.617999792,1,1,1
"80",9,80,0.7,"stim/62.jpeg",6,2,2,NA,"HouseObjects",1,"stim/objects/HouseObjects/safetypin2.png",1,"left","",NA,0,0,1
"81",9,81,0.5,"stim/42.jpeg",4,2,1,NA,"Instruments",2,"stim/objects/Instruments/triangle.png",2,"right","right",0.530999899,1,1,1
"82",9,82,0.9,"stim/11.jpeg",1,1,3,NA,"Instruments",2,"stim/objects/Instruments/timbal2.png",3,"right","right",0.633999825,1,1,1
"83",9,83,0.7,"stim/51.jpeg",5,1,2,NA,"Instruments",2,"stim/objects/Instruments/tuba.png",1,"right","right",0.548999786,1,1,1
"84",9,84,0.7,"stim/62.jpeg",6,2,2,NA,"HouseObjects",1,"stim/objects/HouseObjects/safetypin2.png",3,"left","left",0.531000137,1,1,1
"85",9,85,0.5,"stim/33.jpeg",3,3,1,NA,"HouseObjects",1,"stim/objects/HouseObjects/saw.png",4,"left","right",0.53399992,0,0,1
"86",9,86,0.9,"stim/24.jpeg",2,4,3,NA,"HouseObjects",1,"stim/objects/HouseObjects/wateringcan2.png",2,"left","left",0.552999735,1,1,1
"87",9,87,0.9,"stim/21.jpeg",2,1,3,NA,"HouseObjects",1,"stim/objects/HouseObjects/thread2.png",3,"left","right",0.526000023,0,0,1
"88",9,88,0.1,"stim/23.jpeg",2,3,3,NA,"Instruments",2,"stim/objects/Instruments/vuvuzela2.png",4,"right","",NA,0,0,1
"89",9,89,0.9,"stim/12.jpeg",1,2,3,NA,"Instruments",2,"stim/objects/Instruments/triangle2.png",3,"right","right",0.728999853,1,1,1
"90",9,90,0.9,"stim/13.jpeg",1,3,3,NA,"Instruments",2,"stim/objects/Instruments/trombone2.png",1,"right","right",0.602999926,1,1,1
"91",9,91,0.1,"stim/13.jpeg",1,3,3,NA,"HouseObjects",1,"stim/objects/HouseObjects/teapot2.png",1,"left","right",0.68599987,0,0,1
"92",9,92,0.5,"stim/32.jpeg",3,2,1,NA,"Instruments",2,"stim/objects/Instruments/saxophone.png",3,"right","left",0.750999928,0,0,1
"93",9,93,0.7,"stim/63.jpeg",6,3,2,NA,"HouseObjects",1,"stim/objects/HouseObjects/saw2.png",1,"left","",NA,0,0,1
"94",9,94,0.3,"stim/51.jpeg",5,1,2,NA,"HouseObjects",1,"stim/objects/HouseObjects/thread.png",2,"left","",NA,0,0,1
"95",9,95,0.7,"stim/53.jpeg",5,3,2,NA,"Instruments",2,"stim/objects/Instruments/vuvuzela.png",1,"right","right",0.575999737,1,1,1
"96",9,96,0.9,"stim/12.jpeg",1,2,3,NA,"Instruments",2,"stim/objects/Instruments/triangle2.png",3,"right","right",0.639999866,1,1,1
"97",9,97,0.9,"stim/12.jpeg",1,2,3,NA,"Instruments",2,"stim/objects/Instruments/triangle2.png",4,"right","right",0.59800005,1,1,1
"98",9,98,0.7,"stim/64.jpeg",6,4,2,NA,"HouseObjects",1,"stim/objects/HouseObjects/scale2.png",4,"left","left",0.695999861,1,1,1
"99",9,99,0.5,"stim/44.jpeg",4,4,1,NA,"Instruments",2,"stim/objects/Instruments/trumpet.png",2,"right","right",0.683999777,1,1,1
"100",9,100,0.5,"stim/43.jpeg",4,3,1,NA,"Instruments",2,"stim/objects/Instruments/trombone.png",1,"right","",NA,0,0,1
"101",9,101,0.5,"stim/33.jpeg",3,3,1,NA,"HouseObjects",1,"stim/objects/HouseObjects/saw.png",3,"left","left",0.729000092,1,1,1
"102",9,102,0.9,"stim/13.jpeg",1,3,3,NA,"Instruments",2,"stim/objects/Instruments/trombone2.png",2,"right","left",0.864999771,0,0,1
"103",9,103,0.9,"stim/24.jpeg",2,4,3,NA,"HouseObjects",1,"stim/objects/HouseObjects/wateringcan2.png",3,"left","left",0.819999695,1,1,1
"104",9,104,0.5,"stim/31.jpeg",3,1,1,NA,"HouseObjects",1,"stim/objects/HouseObjects/rug.png",4,"left","",NA,0,0,1
"105",9,105,0.5,"stim/34.jpeg",3,4,1,NA,"HouseObjects",1,"stim/objects/HouseObjects/scale.png",1,"left","left",0.622999907,1,1,1
"106",9,106,0.5,"stim/32.jpeg",3,2,1,NA,"HouseObjects",1,"stim/objects/HouseObjects/safetypin.png",1,"left","left",0.769000053,1,1,1
"107",9,107,0.5,"stim/41.jpeg",4,1,1,NA,"Instruments",2,"stim/objects/Instruments/timbal.png",2,"right","right",0.717999935,1,1,1
"108",9,108,0.5,"stim/41.jpeg",4,1,1,NA,"Instruments",2,"stim/objects/Instruments/timbal.png",2,"right","right",0.554999828,1,1,1
"109",9,109,0.5,"stim/31.jpeg",3,1,1,NA,"HouseObjects",1,"stim/objects/HouseObjects/rug.png",4,"left","left",0.667999744,1,1,1
"110",9,110,0.9,"stim/22.jpeg",2,2,3,NA,"HouseObjects",1,"stim/objects/HouseObjects/towel2.png",1,"left","left",0.878000021,1,1,1
"111",9,111,0.7,"stim/64.jpeg",6,4,2,NA,"HouseObjects",1,"stim/objects/HouseObjects/scale2.png",3,"left","left",0.548999786,1,1,1
"112",9,112,0.7,"stim/52.jpeg",5,2,2,NA,"Instruments",2,"stim/objects/Instruments/violin.png",2,"right","right",0.520999908,1,1,1
"113",9,113,0.9,"stim/12.jpeg",1,2,3,NA,"Instruments",2,"stim/objects/Instruments/triangle2.png",1,"right","right",0.599999905,1,1,1
"114",9,114,0.5,"stim/44.jpeg",4,4,1,NA,"HouseObjects",1,"stim/objects/HouseObjects/thermometer.png",1,"left","right",0.657999754,0,0,1
"115",9,115,0.9,"stim/14.jpeg",1,4,3,NA,"Instruments",2,"stim/objects/Instruments/trumpet2.png",3,"right","right",0.615999937,1,1,1
"116",9,116,0.5,"stim/44.jpeg",4,4,1,NA,"Instruments",2,"stim/objects/Instruments/trumpet.png",2,"right","left",0.720999956,0,0,1
"117",9,117,0.5,"stim/44.jpeg",4,4,1,NA,"HouseObjects",1,"stim/objects/HouseObjects/thermometer.png",2,"left","right",0.720999956,0,0,1
"118",9,118,0.9,"stim/12.jpeg",1,2,3,NA,"Instruments",2,"stim/objects/Instruments/triangle2.png",4,"right","right",0.618999958,1,1,1
"119",9,119,0.5,"stim/34.jpeg",3,4,1,NA,"Instruments",2,"stim/objects/Instruments/tambourine.png",4,"right","left",0.549999952,0,0,1
"120",9,120,0.9,"stim/14.jpeg",1,4,3,NA,"Instruments",2,"stim/objects/Instruments/trumpet2.png",3,"right","right",0.592000008,1,1,1
"121",9,121,0.9,"stim/14.jpeg",1,4,3,NA,"Instruments",2,"stim/objects/Instruments/trumpet2.png",4,"right","right",0.724999905,1,1,1
"122",9,122,0.7,"stim/53.jpeg",5,3,2,NA,"Instruments",2,"stim/objects/Instruments/vuvuzela.png",1,"right","right",0.611999989,1,1,1
"123",9,123,0.3,"stim/63.jpeg",6,3,2,NA,"Instruments",2,"stim/objects/Instruments/speaker2.png",4,"right","left",0.674000025,0,0,1
"124",9,124,0.7,"stim/52.jpeg",5,2,2,NA,"Instruments",2,"stim/objects/Instruments/violin.png",2,"right","right",0.539000034,1,1,1
"125",9,125,0.9,"stim/11.jpeg",1,1,3,NA,"Instruments",2,"stim/objects/Instruments/timbal2.png",2,"right","right",0.585999966,1,1,1
"126",9,126,0.1,"stim/14.jpeg",1,4,3,NA,"HouseObjects",1,"stim/objects/HouseObjects/thermometer2.png",1,"left","right",0.622999907,0,0,1
"127",9,127,0.5,"stim/43.jpeg",4,3,1,NA,"HouseObjects",1,"stim/objects/HouseObjects/teapot.png",1,"left","right",0.599999905,0,0,1
"128",9,128,0.9,"stim/14.jpeg",1,4,3,NA,"Instruments",2,"stim/objects/Instruments/trumpet2.png",3,"right","right",0.749999762,1,1,1
"129",9,129,0.9,"stim/24.jpeg",2,4,3,NA,"HouseObjects",1,"stim/objects/HouseObjects/wateringcan2.png",1,"left","left",0.565999985,1,1,1
"130",9,130,0.5,"stim/33.jpeg",3,3,1,NA,"HouseObjects",1,"stim/objects/HouseObjects/saw.png",2,"left","left",0.786000013,1,1,1
"131",9,131,0.5,"stim/43.jpeg",4,3,1,NA,"HouseObjects",1,"stim/objects/HouseObjects/teapot.png",4,"left","right",0.754999876,0,0,1
"132",9,132,0.5,"stim/43.jpeg",4,3,1,NA,"Instruments",2,"stim/objects/Instruments/trombone.png",1,"right","left",0.841999769,0,0,1
"133",9,133,0.9,"stim/23.jpeg",2,3,3,NA,"HouseObjects",1,"stim/objects/HouseObjects/vacuumcleaner2.png",3,"left","left",0.71600008,1,1,1
"134",9,134,0.5,"stim/41.jpeg",4,1,1,NA,"HouseObjects",1,"stim/objects/HouseObjects/sponge.png",1,"left","right",0.707999945,0,0,1
"135",9,135,0.7,"stim/51.jpeg",5,1,2,NA,"Instruments",2,"stim/objects/Instruments/tuba.png",3,"right","right",0.569999933,1,1,1
"136",9,136,0.3,"stim/54.jpeg",5,4,2,NA,"HouseObjects",1,"stim/objects/HouseObjects/wateringcan.png",2,"left","right",0.531000137,0,0,1
"137",9,137,0.7,"stim/64.jpeg",6,4,2,NA,"HouseObjects",1,"stim/objects/HouseObjects/scale2.png",3,"left","left",0.576999903,1,1,1
"138",9,138,0.5,"stim/41.jpeg",4,1,1,NA,"Instruments",2,"stim/objects/Instruments/timbal.png",1,"right","left",0.730000019,0,0,1
"139",9,139,0.3,"stim/54.jpeg",5,4,2,NA,"HouseObjects",1,"stim/objects/HouseObjects/wateringcan.png",3,"left","right",0.530999899,0,0,1
"140",9,140,0.9,"stim/23.jpeg",2,3,3,NA,"HouseObjects",1,"stim/objects/HouseObjects/vacuumcleaner2.png",2,"left","left",0.497999907,1,1,1
"141",9,141,0.9,"stim/23.jpeg",2,3,3,NA,"HouseObjects",1,"stim/objects/HouseObjects/vacuumcleaner2.png",2,"left","left",0.545999765,1,1,1
"142",9,142,0.5,"stim/34.jpeg",3,4,1,NA,"Instruments",2,"stim/objects/Instruments/tambourine.png",1,"right","left",0.739000082,0,0,1
"143",9,143,0.7,"stim/63.jpeg",6,3,2,NA,"HouseObjects",1,"stim/objects/HouseObjects/saw2.png",2,"left","left",0.54399991,1,1,1
"144",9,144,0.7,"stim/54.jpeg",5,4,2,NA,"Instruments",2,"stim/objects/Instruments/xylophone.png",3,"right","right",0.573999882,1,1,1
"145",9,145,0.9,"stim/13.jpeg",1,3,3,NA,"Instruments",2,"stim/objects/Instruments/trombone2.png",3,"right","right",0.507999897,1,1,1
"146",9,146,0.3,"stim/51.jpeg",5,1,2,NA,"HouseObjects",1,"stim/objects/HouseObjects/thread.png",2,"left","right",0.588999987,0,0,1
"147",9,147,0.5,"stim/42.jpeg",4,2,1,NA,"Instruments",2,"stim/objects/Instruments/triangle.png",1,"right","right",0.796999931,1,1,1
"148",9,148,0.9,"stim/14.jpeg",1,4,3,NA,"Instruments",2,"stim/objects/Instruments/trumpet2.png",4,"right","right",0.631999969,1,1,1
"149",9,149,0.9,"stim/21.jpeg",2,1,3,NA,"HouseObjects",1,"stim/objects/HouseObjects/thread2.png",1,"left","left",0.611000061,1,1,1
"150",9,150,0.5,"stim/32.jpeg",3,2,1,NA,"HouseObjects",1,"stim/objects/HouseObjects/safetypin.png",1,"left","left",0.65199995,1,1,1
"151",9,151,0.9,"stim/12.jpeg",1,2,3,NA,"Instruments",2,"stim/objects/Instruments/triangle2.png",3,"right","left",0.789999962,0,0,1
"152",9,152,0.5,"stim/34.jpeg",3,4,1,NA,"HouseObjects",1,"stim/objects/HouseObjects/scale.png",3,"left","left",0.743999958,1,1,1
"153",9,153,0.9,"stim/14.jpeg",1,4,3,NA,"Instruments",2,"stim/objects/Instruments/trumpet2.png",1,"right","right",0.634000063,1,1,1
"154",9,154,0.5,"stim/33.jpeg",3,3,1,NA,"Instruments",2,"stim/objects/Instruments/speaker.png",4,"right","left",0.548000097,0,0,1
"155",9,155,0.7,"stim/52.jpeg",5,2,2,NA,"Instruments",2,"stim/objects/Instruments/violin.png",4,"right","right",0.779999971,1,1,1
"156",9,156,0.3,"stim/52.jpeg",5,2,2,NA,"HouseObjects",1,"stim/objects/HouseObjects/towel.png",2,"left","right",0.672999859,0,0,1
"157",9,157,0.5,"stim/42.jpeg",4,2,1,NA,"HouseObjects",1,"stim/objects/HouseObjects/spraybottle.png",1,"left","",NA,0,0,1
"158",9,158,0.7,"stim/64.jpeg",6,4,2,NA,"HouseObjects",1,"stim/objects/HouseObjects/scale2.png",4,"left","",NA,0,0,1
"159",9,159,0.5,"stim/41.jpeg",4,1,1,NA,"HouseObjects",1,"stim/objects/HouseObjects/sponge.png",3,"left","right",0.61899972,0,0,1
"160",9,160,0.9,"stim/24.jpeg",2,4,3,NA,"HouseObjects",1,"stim/objects/HouseObjects/wateringcan2.png",2,"left","left",0.536999941,1,1,1
"161",9,161,0.7,"stim/52.jpeg",5,2,2,NA,"Instruments",2,"stim/objects/Instruments/violin.png",2,"right","right",0.522000074,1,1,1
"162",9,162,0.7,"stim/61.jpeg",6,1,2,NA,"HouseObjects",1,"stim/objects/HouseObjects/rug2.png",3,"left","left",0.563999891,1,1,1
"163",9,163,0.3,"stim/62.jpeg",6,2,2,NA,"Instruments",2,"stim/objects/Instruments/saxophone2.png",1,"right","",NA,0,0,1
"164",9,164,0.9,"stim/23.jpeg",2,3,3,NA,"HouseObjects",1,"stim/objects/HouseObjects/vacuumcleaner2.png",3,"left","left",0.661999941,1,1,1
"165",9,165,0.5,"stim/41.jpeg",4,1,1,NA,"Instruments",2,"stim/objects/Instruments/timbal.png",4,"right","right",0.687999964,1,1,1
"166",9,166,0.9,"stim/13.jpeg",1,3,3,NA,"Instruments",2,"stim/objects/Instruments/trombone2.png",2,"right","left",0.655999899,0,0,1
"167",9,167,0.7,"stim/61.jpeg",6,1,2,NA,"HouseObjects",1,"stim/objects/HouseObjects/rug2.png",2,"left","",NA,0,0,1
"168",9,168,0.5,"stim/31.jpeg",3,1,1,NA,"HouseObjects",1,"stim/objects/HouseObjects/rug.png",4,"left","left",0.581999779,1,1,1
"169",9,169,0.9,"stim/21.jpeg",2,1,3,NA,"HouseObjects",1,"stim/objects/HouseObjects/thread2.png",4,"left","left",0.557999849,1,1,1
"170",9,170,0.9,"stim/22.jpeg",2,2,3,NA,"HouseObjects",1,"stim/objects/HouseObjects/towel2.png",3,"left","left",0.501999855,1,1,1
"171",9,171,0.9,"stim/21.jpeg",2,1,3,NA,"HouseObjects",1,"stim/objects/HouseObjects/thread2.png",1,"left","left",0.482999802,1,1,1
"172",9,172,0.9,"stim/23.jpeg",2,3,3,NA,"HouseObjects",1,"stim/objects/HouseObjects/vacuumcleaner2.png",4,"left","left",0.618000031,1,1,1
"173",9,173,0.7,"stim/54.jpeg",5,4,2,NA,"Instruments",2,"stim/objects/Instruments/xylophone.png",1,"right","",NA,0,0,1
"174",9,174,0.5,"stim/33.jpeg",3,3,1,NA,"HouseObjects",1,"stim/objects/HouseObjects/saw.png",2,"left","left",0.643999815,1,1,1
"175",9,175,0.5,"stim/44.jpeg",4,4,1,NA,"HouseObjects",1,"stim/objects/HouseObjects/thermometer.png",3,"left","right",0.552999973,0,0,1
"176",9,176,0.9,"stim/23.jpeg",2,3,3,NA,"HouseObjects",1,"stim/objects/HouseObjects/vacuumcleaner2.png",2,"left","left",0.601999998,1,1,1
"177",9,177,0.1,"stim/24.jpeg",2,4,3,NA,"Instruments",2,"stim/objects/Instruments/xylophone2.png",3,"right","left",0.515000105,0,0,1
"178",9,178,0.7,"stim/52.jpeg",5,2,2,NA,"Instruments",2,"stim/objects/Instruments/violin.png",1,"right","right",0.545000076,1,1,1
"179",9,179,0.9,"stim/23.jpeg",2,3,3,NA,"HouseObjects",1,"stim/objects/HouseObjects/vacuumcleaner2.png",1,"left","left",0.542999983,1,1,1
"180",9,180,0.5,"stim/44.jpeg",4,4,1,NA,"HouseObjects",1,"stim/objects/HouseObjects/thermometer.png",1,"left","right",0.542000055,0,0,1
"181",9,181,0.9,"stim/14.jpeg",1,4,3,NA,"Instruments",2,"stim/objects/Instruments/trumpet2.png",1,"right","",NA,0,0,1
"182",9,182,0.7,"stim/53.jpeg",5,3,2,NA,"Instruments",2,"stim/objects/Instruments/vuvuzela.png",4,"right","right",0.581999779,1,1,1
"183",9,183,0.9,"stim/21.jpeg",2,1,3,NA,"HouseObjects",1,"stim/objects/HouseObjects/thread2.png",1,"left","left",0.479999781,1,1,1
"184",9,184,0.7,"stim/63.jpeg",6,3,2,NA,"HouseObjects",1,"stim/objects/HouseObjects/saw2.png",3,"left","left",0.548999786,1,1,1
"185",9,185,0.5,"stim/43.jpeg",4,3,1,NA,"Instruments",2,"stim/objects/Instruments/trombone.png",2,"right","right",0.578999758,1,1,1
"186",9,186,0.7,"stim/51.jpeg",5,1,2,NA,"Instruments",2,"stim/objects/Instruments/tuba.png",1,"right","right",0.555999756,1,1,1
"187",9,187,0.3,"stim/64.jpeg",6,4,2,NA,"Instruments",2,"stim/objects/Instruments/tambourine2.png",3,"right","left",0.610999823,0,0,1
"188",9,188,0.9,"stim/11.jpeg",1,1,3,NA,"Instruments",2,"stim/objects/Instruments/timbal2.png",2,"right","right",0.673000097,1,1,1
"189",9,189,0.3,"stim/62.jpeg",6,2,2,NA,"Instruments",2,"stim/objects/Instruments/saxophone2.png",4,"right","left",0.649999857,0,0,1
"190",9,190,0.7,"stim/62.jpeg",6,2,2,NA,"HouseObjects",1,"stim/objects/HouseObjects/safetypin2.png",3,"left","left",0.808000088,1,1,1
"191",9,191,0.1,"stim/11.jpeg",1,1,3,NA,"HouseObjects",1,"stim/objects/HouseObjects/sponge2.png",1,"left","right",0.537999868,0,0,1
"192",9,192,0.5,"stim/42.jpeg",4,2,1,NA,"HouseObjects",1,"stim/objects/HouseObjects/spraybottle.png",1,"left","right",0.711999893,0,0,1
"193",9,193,0.7,"stim/51.jpeg",5,1,2,NA,"Instruments",2,"stim/objects/Instruments/tuba.png",2,"right","right",0.528999805,1,1,1
"194",9,194,0.3,"stim/61.jpeg",6,1,2,NA,"Instruments",2,"stim/objects/Instruments/record_player2.png",4,"right","left",0.569000006,0,0,1
"195",9,195,0.7,"stim/51.jpeg",5,1,2,NA,"Instruments",2,"stim/objects/Instruments/tuba.png",1,"right","right",0.494999886,1,1,1
"196",9,196,0.5,"stim/34.jpeg",3,4,1,NA,"HouseObjects",1,"stim/objects/HouseObjects/scale.png",3,"left","left",0.564999819,1,1,1
"197",9,197,0.5,"stim/32.jpeg",3,2,1,NA,"HouseObjects",1,"stim/objects/HouseObjects/safetypin.png",2,"left","left",0.703999996,1,1,1
"198",9,198,0.7,"stim/52.jpeg",5,2,2,NA,"Instruments",2,"stim/objects/Instruments/violin.png",2,"right","right",0.669999838,1,1,1
"199",9,199,0.7,"stim/54.jpeg",5,4,2,NA,"Instruments",2,"stim/objects/Instruments/xylophone.png",4,"right","right",0.528999805,1,1,1
"200",9,200,0.5,"stim/42.jpeg",4,2,1,NA,"Instruments",2,"stim/objects/Instruments/triangle.png",2,"right","",NA,0,0,1
"201",9,201,0.5,"stim/41.jpeg",4,1,1,NA,"HouseObjects",1,"stim/objects/HouseObjects/sponge.png",4,"left","left",0.758999825,1,1,1
"202",9,202,0.5,"stim/42.jpeg",4,2,1,NA,"Instruments",2,"stim/objects/Instruments/triangle.png",4,"right","right",0.756000042,1,1,1
"203",9,203,0.9,"stim/13.jpeg",1,3,3,NA,"Instruments",2,"stim/objects/Instruments/trombone2.png",4,"right","right",0.592000008,1,1,1
"204",9,204,0.7,"stim/64.jpeg",6,4,2,NA,"HouseObjects",1,"stim/objects/HouseObjects/scale2.png",3,"left","left",0.56799984,1,1,1
"205",9,205,0.7,"stim/61.jpeg",6,1,2,NA,"HouseObjects",1,"stim/objects/HouseObjects/rug2.png",3,"left","left",0.542999983,1,1,1
"206",9,206,0.9,"stim/21.jpeg",2,1,3,NA,"HouseObjects",1,"stim/objects/HouseObjects/thread2.png",2,"left","left",0.579999924,1,1,1
"207",9,207,0.3,"stim/52.jpeg",5,2,2,NA,"HouseObjects",1,"stim/objects/HouseObjects/towel.png",3,"left","right",0.717000008,0,0,1
"208",9,208,0.5,"stim/34.jpeg",3,4,1,NA,"HouseObjects",1,"stim/objects/HouseObjects/scale.png",3,"left","left",0.771999836,1,1,1
"209",9,209,0.7,"stim/54.jpeg",5,4,2,NA,"Instruments",2,"stim/objects/Instruments/xylophone.png",3,"right","right",0.546999931,1,1,1
"210",9,210,0.5,"stim/44.jpeg",4,4,1,NA,"HouseObjects",1,"stim/objects/HouseObjects/thermometer.png",4,"left","right",0.674000025,0,0,1
"211",9,211,0.3,"stim/63.jpeg",6,3,2,NA,"Instruments",2,"stim/objects/Instruments/speaker2.png",1,"right","right",0.802999973,1,1,1
"212",9,212,0.9,"stim/22.jpeg",2,2,3,NA,"HouseObjects",1,"stim/objects/HouseObjects/towel2.png",3,"left","left",0.554000139,1,1,1
"213",9,213,0.5,"stim/42.jpeg",4,2,1,NA,"HouseObjects",1,"stim/objects/HouseObjects/spraybottle.png",3,"left","left",0.822999954,1,1,1
"214",9,214,0.3,"stim/52.jpeg",5,2,2,NA,"HouseObjects",1,"stim/objects/HouseObjects/towel.png",4,"left","",NA,0,0,1
"215",9,215,0.7,"stim/53.jpeg",5,3,2,NA,"Instruments",2,"stim/objects/Instruments/vuvuzela.png",1,"right","",NA,0,0,1
"216",9,216,0.9,"stim/22.jpeg",2,2,3,NA,"HouseObjects",1,"stim/objects/HouseObjects/towel2.png",4,"left","left",0.546000004,1,1,1
"217",9,217,0.9,"stim/23.jpeg",2,3,3,NA,"HouseObjects",1,"stim/objects/HouseObjects/vacuumcleaner2.png",1,"left","left",0.530999899,1,1,1
"218",9,218,0.3,"stim/62.jpeg",6,2,2,NA,"Instruments",2,"stim/objects/Instruments/saxophone2.png",4,"right","right",0.595000029,1,1,1
"219",9,219,0.9,"stim/21.jpeg",2,1,3,NA,"HouseObjects",1,"stim/objects/HouseObjects/thread2.png",2,"left","left",0.513999939,1,1,1
"220",9,220,0.7,"stim/62.jpeg",6,2,2,NA,"HouseObjects",1,"stim/objects/HouseObjects/safetypin2.png",3,"left","right",0.583999872,0,0,1
"221",9,221,0.5,"stim/41.jpeg",4,1,1,NA,"HouseObjects",1,"stim/objects/HouseObjects/sponge.png",4,"left","left",0.775000095,1,1,1
"222",9,222,0.5,"stim/44.jpeg",4,4,1,NA,"Instruments",2,"stim/objects/Instruments/trumpet.png",3,"right","",NA,0,0,1
"223",9,223,0.9,"stim/21.jpeg",2,1,3,NA,"HouseObjects",1,"stim/objects/HouseObjects/thread2.png",2,"left","left",0.618000031,1,1,1
"224",9,224,0.9,"stim/12.jpeg",1,2,3,NA,"Instruments",2,"stim/objects/Instruments/triangle2.png",1,"right","right",0.616999865,1,1,1
"225",9,225,0.7,"stim/53.jpeg",5,3,2,NA,"Instruments",2,"stim/objects/Instruments/vuvuzela.png",4,"right","",NA,0,0,1
"226",9,226,0.5,"stim/32.jpeg",3,2,1,NA,"Instruments",2,"stim/objects/Instruments/saxophone.png",2,"right","left",0.532999992,0,0,1
"227",9,227,0.7,"stim/63.jpeg",6,3,2,NA,"HouseObjects",1,"stim/objects/HouseObjects/saw2.png",1,"left","right",0.644999743,0,0,1
"228",9,228,0.5,"stim/43.jpeg",4,3,1,NA,"Instruments",2,"stim/objects/Instruments/trombone.png",1,"right","left",0.839999914,0,0,1
"229",9,229,0.5,"stim/32.jpeg",3,2,1,NA,"HouseObjects",1,"stim/objects/HouseObjects/safetypin.png",1,"left","left",0.792000055,1,1,1
"230",9,230,0.5,"stim/31.jpeg",3,1,1,NA,"HouseObjects",1,"stim/objects/HouseObjects/rug.png",3,"left","left",0.639999866,1,1,1
"231",9,231,0.7,"stim/63.jpeg",6,3,2,NA,"HouseObjects",1,"stim/objects/HouseObjects/saw2.png",2,"left","left",0.711999893,1,1,1
"232",9,232,0.5,"stim/33.jpeg",3,3,1,NA,"Instruments",2,"stim/objects/Instruments/speaker.png",4,"right","left",0.610999823,0,0,1
"233",9,233,0.5,"stim/33.jpeg",3,3,1,NA,"Instruments",2,"stim/objects/Instruments/speaker.png",1,"right","left",0.537999868,0,0,1
"234",9,234,0.9,"stim/22.jpeg",2,2,3,NA,"HouseObjects",1,"stim/objects/HouseObjects/towel2.png",4,"left","",NA,0,0,1
"235",9,235,0.5,"stim/34.jpeg",3,4,1,NA,"Instruments",2,"stim/objects/Instruments/tambourine.png",4,"right","",NA,0,0,1
"236",9,236,0.3,"stim/63.jpeg",6,3,2,NA,"Instruments",2,"stim/objects/Instruments/speaker2.png",2,"right","left",0.597999811,0,0,1
"237",9,237,0.9,"stim/13.jpeg",1,3,3,NA,"Instruments",2,"stim/objects/Instruments/trombone2.png",4,"right","right",0.736000061,1,1,1
"238",9,238,0.5,"stim/31.jpeg",3,1,1,NA,"Instruments",2,"stim/objects/Instruments/record_player.png",3,"right","left",0.576999903,0,0,1
"239",9,239,0.9,"stim/21.jpeg",2,1,3,NA,"HouseObjects",1,"stim/objects/HouseObjects/thread2.png",4,"left","left",0.592999935,1,1,1
"240",9,240,0.5,"stim/31.jpeg",3,1,1,NA,"Instruments",2,"stim/objects/Instruments/record_player.png",4,"right","left",0.554999828,0,0,1
