"","obj_file","X.x","participant.x","trialN.x","trial_cond","scn_file.x","scn_cat","scn_inst","scn_condition","fillers","obj_cat","obj_cat_num","quadrant","corr_ans","key_resp_trial.keys","key_resp_trial.rt","trial_acc","trial_acc_manual","group.x","practice","X.y","participant.y","OvsN","PE_level","object_cat","scn_file.y","corr_scn_cat","corr_scn_inst","scn_file.1","corr_loc","key_resp_id.keys","key_resp_id.rt","key_resp_conf.keys","key_resp_assoc.keys","key_resp_assoc.rt","key_resp_loc.keys","key_resp_loc.rt","trialN.y","id_acc","assoc.acc","cond_assoc","loc.acc","cond_loc","group.y"
"6","stim/objects/HouseObjects/rug2.png",1,9,1,0.7,"stim/61.jpeg",6,1,2,NA,"HouseObjects",1,4,"left","",NA,0,0,1,1,NA,NA,NA,NA,NA,NA,NA,NA,NA,NA,NA,NA,NA,NA,NA,NA,NA,NA,NA,NA,NA,NA,NA,NA
"121","stim/objects/Instruments/record_player.png",2,9,2,0.5,"stim/31.jpeg",3,1,1,NA,"Instruments",2,3,"right","left",0.776000023,0,0,1,1,NA,NA,NA,NA,NA,NA,NA,NA,NA,NA,NA,NA,NA,NA,NA,NA,NA,NA,NA,NA,NA,NA,NA,NA
"181","stim/objects/Instruments/trombone.png",3,9,3,0.5,"stim/43.jpeg",4,3,1,NA,"Instruments",2,3,"right","right",0.737999916,1,1,1,1,NA,NA,NA,NA,NA,NA,NA,NA,NA,NA,NA,NA,NA,NA,NA,NA,NA,NA,NA,NA,NA,NA,NA,NA
"42","stim/objects/HouseObjects/scale2.png",4,9,4,0.7,"stim/64.jpeg",6,4,2,NA,"HouseObjects",1,3,"left","left",0.715999842,1,1,1,1,NA,NA,NA,NA,NA,NA,NA,NA,NA,NA,NA,NA,NA,NA,NA,NA,NA,NA,NA,NA,NA,NA,NA,NA
"186","stim/objects/Instruments/trombone2.png",5,9,5,0.9,"stim/13.jpeg",1,3,3,NA,"Instruments",2,4,"right","",NA,0,0,1,1,NA,NA,NA,NA,NA,NA,NA,NA,NA,NA,NA,NA,NA,NA,NA,NA,NA,NA,NA,NA,NA,NA,NA,NA
"145","stim/objects/Instruments/tambourine.png",6,9,6,0.5,"stim/34.jpeg",3,4,1,NA,"Instruments",2,2,"right","",NA,0,0,1,1,NA,NA,NA,NA,NA,NA,NA,NA,NA,NA,NA,NA,NA,NA,NA,NA,NA,NA,NA,NA,NA,NA,NA,NA
"55","stim/objects/HouseObjects/spraybottle.png",7,9,7,0.5,"stim/42.jpeg",4,2,1,NA,"HouseObjects",1,4,"left","right",0.763999939,0,0,1,1,NA,NA,NA,NA,NA,NA,NA,NA,NA,NA,NA,NA,NA,NA,NA,NA,NA,NA,NA,NA,NA,NA,NA,NA
"158","stim/objects/Instruments/timbal2.png",8,9,8,0.9,"stim/11.jpeg",1,1,3,NA,"Instruments",2,3,"right","",NA,0,0,1,1,NA,NA,NA,NA,NA,NA,NA,NA,NA,NA,NA,NA,NA,NA,NA,NA,NA,NA,NA,NA,NA,NA,NA,NA
"18","stim/objects/HouseObjects/safetypin2.png",9,9,9,0.7,"stim/62.jpeg",6,2,2,NA,"HouseObjects",1,2,"left","",NA,0,0,1,1,NA,NA,NA,NA,NA,NA,NA,NA,NA,NA,NA,NA,NA,NA,NA,NA,NA,NA,NA,NA,NA,NA,NA,NA
"30","stim/objects/HouseObjects/saw2.png",10,9,10,0.7,"stim/63.jpeg",6,3,2,NA,"HouseObjects",1,1,"left","left",0.596999884,1,1,1,1,NA,NA,NA,NA,NA,NA,NA,NA,NA,NA,NA,NA,NA,NA,NA,NA,NA,NA,NA,NA,NA,NA,NA,NA
"19","stim/objects/HouseObjects/safetypin2.png",11,9,11,0.7,"stim/62.jpeg",6,2,2,NA,"HouseObjects",1,1,"left","",NA,0,0,1,1,NA,NA,NA,NA,NA,NA,NA,NA,NA,NA,NA,NA,NA,NA,NA,NA,NA,NA,NA,NA,NA,NA,NA,NA
"126","stim/objects/Instruments/record_player2.png",12,9,12,0.3,"stim/61.jpeg",6,1,2,NA,"Instruments",2,3,"right","left",0.584000111,0,0,1,1,NA,NA,NA,NA,NA,NA,NA,NA,NA,NA,NA,NA,NA,NA,NA,NA,NA,NA,NA,NA,NA,NA,NA,NA
"225","stim/objects/Instruments/vuvuzela.png",13,9,13,0.7,"stim/53.jpeg",5,3,2,NA,"Instruments",2,2,"right","right",0.588000059,1,1,1,1,NA,NA,NA,NA,NA,NA,NA,NA,NA,NA,NA,NA,NA,NA,NA,NA,NA,NA,NA,NA,NA,NA,NA,NA
"172","stim/objects/Instruments/triangle2.png",14,9,14,0.9,"stim/12.jpeg",1,2,3,NA,"Instruments",2,2,"right","right",0.628999949,1,1,1,1,NA,NA,NA,NA,NA,NA,NA,NA,NA,NA,NA,NA,NA,NA,NA,NA,NA,NA,NA,NA,NA,NA,NA,NA
"173","stim/objects/Instruments/triangle2.png",15,9,15,0.9,"stim/12.jpeg",1,2,3,NA,"Instruments",2,1,"right","right",0.649999857,1,1,1,1,NA,NA,NA,NA,NA,NA,NA,NA,NA,NA,NA,NA,NA,NA,NA,NA,NA,NA,NA,NA,NA,NA,NA,NA
"112","stim/objects/HouseObjects/wateringcan2.png",16,9,16,0.9,"stim/24.jpeg",2,4,3,NA,"HouseObjects",1,2,"left","left",0.766999722,1,1,1,1,NA,NA,NA,NA,NA,NA,NA,NA,NA,NA,NA,NA,NA,NA,NA,NA,NA,NA,NA,NA,NA,NA,NA,NA
"167","stim/objects/Instruments/triangle.png",17,9,17,0.5,"stim/42.jpeg",4,2,1,NA,"Instruments",2,2,"right","right",0.605999947,1,1,1,1,NA,NA,NA,NA,NA,NA,NA,NA,NA,NA,NA,NA,NA,NA,NA,NA,NA,NA,NA,NA,NA,NA,NA,NA
"60","stim/objects/HouseObjects/spraybottle2.png",18,9,18,0.1,"stim/12.jpeg",1,2,3,NA,"HouseObjects",1,4,"left","right",0.59499979,0,0,1,1,NA,NA,NA,NA,NA,NA,NA,NA,NA,NA,NA,NA,NA,NA,NA,NA,NA,NA,NA,NA,NA,NA,NA,NA
"146","stim/objects/Instruments/tambourine.png",19,9,19,0.5,"stim/34.jpeg",3,4,1,NA,"Instruments",2,2,"right","left",0.707999945,0,0,1,1,NA,NA,NA,NA,NA,NA,NA,NA,NA,NA,NA,NA,NA,NA,NA,NA,NA,NA,NA,NA,NA,NA,NA,NA
"127","stim/objects/Instruments/record_player2.png",20,9,20,0.3,"stim/61.jpeg",6,1,2,NA,"Instruments",2,2,"right","",NA,0,0,1,1,NA,NA,NA,NA,NA,NA,NA,NA,NA,NA,NA,NA,NA,NA,NA,NA,NA,NA,NA,NA,NA,NA,NA,NA
"20","stim/objects/HouseObjects/safetypin2.png",21,9,21,0.7,"stim/62.jpeg",6,2,2,NA,"HouseObjects",1,4,"left","",NA,0,0,1,1,NA,NA,NA,NA,NA,NA,NA,NA,NA,NA,NA,NA,NA,NA,NA,NA,NA,NA,NA,NA,NA,NA,NA,NA
"61","stim/objects/HouseObjects/teapot.png",22,9,22,0.5,"stim/43.jpeg",4,3,1,NA,"HouseObjects",1,2,"left","right",0.642999887,0,0,1,1,NA,NA,NA,NA,NA,NA,NA,NA,NA,NA,NA,NA,NA,NA,NA,NA,NA,NA,NA,NA,NA,NA,NA,NA
"97","stim/objects/HouseObjects/vacuumcleaner.png",23,9,23,0.3,"stim/53.jpeg",5,3,2,NA,"HouseObjects",1,2,"left","right",0.548000097,0,0,1,1,NA,NA,NA,NA,NA,NA,NA,NA,NA,NA,NA,NA,NA,NA,NA,NA,NA,NA,NA,NA,NA,NA,NA,NA
"113","stim/objects/HouseObjects/wateringcan2.png",24,9,24,0.9,"stim/24.jpeg",2,4,3,NA,"HouseObjects",1,1,"left","left",0.57799983,1,1,1,1,NA,NA,NA,NA,NA,NA,NA,NA,NA,NA,NA,NA,NA,NA,NA,NA,NA,NA,NA,NA,NA,NA,NA,NA
"209","stim/objects/Instruments/tuba.png",25,9,25,0.7,"stim/51.jpeg",5,1,2,NA,"Instruments",2,3,"right","right",0.562000036,1,1,1,1,NA,NA,NA,NA,NA,NA,NA,NA,NA,NA,NA,NA,NA,NA,NA,NA,NA,NA,NA,NA,NA,NA,NA,NA
"1","stim/objects/HouseObjects/rug.png",26,9,26,0.5,"stim/31.jpeg",3,1,1,NA,"HouseObjects",1,4,"left","left",0.646999836,1,1,1,1,NA,NA,NA,NA,NA,NA,NA,NA,NA,NA,NA,NA,NA,NA,NA,NA,NA,NA,NA,NA,NA,NA,NA,NA
"150","stim/objects/Instruments/tambourine2.png",27,9,27,0.3,"stim/64.jpeg",6,4,2,NA,"Instruments",2,4,"right","right",0.650999784,1,1,1,1,NA,NA,NA,NA,NA,NA,NA,NA,NA,NA,NA,NA,NA,NA,NA,NA,NA,NA,NA,NA,NA,NA,NA,NA
"88","stim/objects/HouseObjects/towel2.png",28,9,28,0.9,"stim/22.jpeg",2,2,3,NA,"HouseObjects",1,1,"left","left",0.585000038,1,1,1,1,NA,NA,NA,NA,NA,NA,NA,NA,NA,NA,NA,NA,NA,NA,NA,NA,NA,NA,NA,NA,NA,NA,NA,NA
"200","stim/objects/Instruments/trumpet2.png",29,9,29,0.9,"stim/14.jpeg",1,4,3,NA,"Instruments",2,4,"right","",NA,0,0,1,1,NA,NA,NA,NA,NA,NA,NA,NA,NA,NA,NA,NA,NA,NA,NA,NA,NA,NA,NA,NA,NA,NA,NA,NA
"98","stim/objects/HouseObjects/vacuumcleaner.png",30,9,30,0.3,"stim/53.jpeg",5,3,2,NA,"HouseObjects",1,1,"left","right",0.517999887,0,0,1,1,NA,NA,NA,NA,NA,NA,NA,NA,NA,NA,NA,NA,NA,NA,NA,NA,NA,NA,NA,NA,NA,NA,NA,NA
"89","stim/objects/HouseObjects/towel2.png",31,9,31,0.9,"stim/22.jpeg",2,2,3,NA,"HouseObjects",1,4,"left","left",0.603999853,1,1,1,1,NA,NA,NA,NA,NA,NA,NA,NA,NA,NA,NA,NA,NA,NA,NA,NA,NA,NA,NA,NA,NA,NA,NA,NA
"153","stim/objects/Instruments/timbal.png",32,9,32,0.5,"stim/41.jpeg",4,1,1,NA,"Instruments",2,3,"right","right",0.539999962,1,1,1,1,NA,NA,NA,NA,NA,NA,NA,NA,NA,NA,NA,NA,NA,NA,NA,NA,NA,NA,NA,NA,NA,NA,NA,NA
"100","stim/objects/HouseObjects/vacuumcleaner2.png",33,9,33,0.9,"stim/23.jpeg",2,3,3,NA,"HouseObjects",1,2,"left","left",0.564999819,1,1,1,1,NA,NA,NA,NA,NA,NA,NA,NA,NA,NA,NA,NA,NA,NA,NA,NA,NA,NA,NA,NA,NA,NA,NA,NA
"129","stim/objects/Instruments/saxophone.png",34,9,34,0.5,"stim/32.jpeg",3,2,1,NA,"Instruments",2,3,"right","right",0.749000072,1,1,1,1,NA,NA,NA,NA,NA,NA,NA,NA,NA,NA,NA,NA,NA,NA,NA,NA,NA,NA,NA,NA,NA,NA,NA,NA
"122","stim/objects/Instruments/record_player.png",35,9,35,0.5,"stim/31.jpeg",3,1,1,NA,"Instruments",2,2,"right","right",0.624999762,1,1,1,1,NA,NA,NA,NA,NA,NA,NA,NA,NA,NA,NA,NA,NA,NA,NA,NA,NA,NA,NA,NA,NA,NA,NA,NA
"137","stim/objects/Instruments/speaker.png",36,9,36,0.5,"stim/33.jpeg",3,3,1,NA,"Instruments",2,2,"right","right",0.565000057,1,1,1,1,NA,NA,NA,NA,NA,NA,NA,NA,NA,NA,NA,NA,NA,NA,NA,NA,NA,NA,NA,NA,NA,NA,NA,NA
"187","stim/objects/Instruments/trombone2.png",37,9,37,0.9,"stim/13.jpeg",1,3,3,NA,"Instruments",2,3,"right","right",0.637999773,1,1,1,1,NA,NA,NA,NA,NA,NA,NA,NA,NA,NA,NA,NA,NA,NA,NA,NA,NA,NA,NA,NA,NA,NA,NA,NA
"188","stim/objects/Instruments/trombone2.png",38,9,38,0.9,"stim/13.jpeg",1,3,3,NA,"Instruments",2,4,"right","right",0.524999857,1,1,1,1,NA,NA,NA,NA,NA,NA,NA,NA,NA,NA,NA,NA,NA,NA,NA,NA,NA,NA,NA,NA,NA,NA,NA,NA
"123","stim/objects/Instruments/record_player.png",39,9,39,0.5,"stim/31.jpeg",3,1,1,NA,"Instruments",2,4,"right","right",0.782000065,1,1,1,1,NA,NA,NA,NA,NA,NA,NA,NA,NA,NA,NA,NA,NA,NA,NA,NA,NA,NA,NA,NA,NA,NA,NA,NA
"210","stim/objects/Instruments/tuba.png",40,9,40,0.7,"stim/51.jpeg",5,1,2,NA,"Instruments",2,4,"right","right",0.631999969,1,1,1,1,NA,NA,NA,NA,NA,NA,NA,NA,NA,NA,NA,NA,NA,NA,NA,NA,NA,NA,NA,NA,NA,NA,NA,NA
"224","stim/objects/Instruments/violin2.png",41,9,41,0.1,"stim/22.jpeg",2,2,3,NA,"Instruments",2,2,"right","left",0.60800004,0,0,1,1,NA,NA,NA,NA,NA,NA,NA,NA,NA,NA,NA,NA,NA,NA,NA,NA,NA,NA,NA,NA,NA,NA,NA,NA
"56","stim/objects/HouseObjects/spraybottle.png",42,9,42,0.5,"stim/42.jpeg",4,2,1,NA,"HouseObjects",1,2,"left","right",0.655999899,0,0,1,1,NA,NA,NA,NA,NA,NA,NA,NA,NA,NA,NA,NA,NA,NA,NA,NA,NA,NA,NA,NA,NA,NA,NA,NA
"90","stim/objects/HouseObjects/towel2.png",43,9,43,0.9,"stim/22.jpeg",2,2,3,NA,"HouseObjects",1,2,"left","left",0.798000097,1,1,1,1,NA,NA,NA,NA,NA,NA,NA,NA,NA,NA,NA,NA,NA,NA,NA,NA,NA,NA,NA,NA,NA,NA,NA,NA
"233","stim/objects/Instruments/xylophone.png",44,9,44,0.7,"stim/54.jpeg",5,4,2,NA,"Instruments",2,2,"right","right",0.703999758,1,1,1,1,NA,NA,NA,NA,NA,NA,NA,NA,NA,NA,NA,NA,NA,NA,NA,NA,NA,NA,NA,NA,NA,NA,NA,NA
"62","stim/objects/HouseObjects/teapot.png",45,9,45,0.5,"stim/43.jpeg",4,3,1,NA,"HouseObjects",1,3,"left","",NA,0,0,1,1,NA,NA,NA,NA,NA,NA,NA,NA,NA,NA,NA,NA,NA,NA,NA,NA,NA,NA,NA,NA,NA,NA,NA,NA
"195","stim/objects/Instruments/trumpet.png",46,9,46,0.5,"stim/44.jpeg",4,4,1,NA,"Instruments",2,1,"right","",NA,0,0,1,1,NA,NA,NA,NA,NA,NA,NA,NA,NA,NA,NA,NA,NA,NA,NA,NA,NA,NA,NA,NA,NA,NA,NA,NA
"25","stim/objects/HouseObjects/saw.png",47,9,47,0.5,"stim/33.jpeg",3,3,1,NA,"HouseObjects",1,3,"left","",NA,0,0,1,1,NA,NA,NA,NA,NA,NA,NA,NA,NA,NA,NA,NA,NA,NA,NA,NA,NA,NA,NA,NA,NA,NA,NA,NA
"7","stim/objects/HouseObjects/rug2.png",48,9,48,0.7,"stim/61.jpeg",6,1,2,NA,"HouseObjects",1,3,"left","",NA,0,0,1,1,NA,NA,NA,NA,NA,NA,NA,NA,NA,NA,NA,NA,NA,NA,NA,NA,NA,NA,NA,NA,NA,NA,NA,NA
"138","stim/objects/Instruments/speaker.png",49,9,49,0.5,"stim/33.jpeg",3,3,1,NA,"Instruments",2,3,"right","left",0.542999983,0,0,1,1,NA,NA,NA,NA,NA,NA,NA,NA,NA,NA,NA,NA,NA,NA,NA,NA,NA,NA,NA,NA,NA,NA,NA,NA
"31","stim/objects/HouseObjects/saw2.png",50,9,50,0.7,"stim/63.jpeg",6,3,2,NA,"HouseObjects",1,4,"left","left",0.585000038,1,1,1,1,NA,NA,NA,NA,NA,NA,NA,NA,NA,NA,NA,NA,NA,NA,NA,NA,NA,NA,NA,NA,NA,NA,NA,NA
"37","stim/objects/HouseObjects/scale.png",51,9,51,0.5,"stim/34.jpeg",3,4,1,NA,"HouseObjects",1,2,"left","left",0.828999758,1,1,1,1,NA,NA,NA,NA,NA,NA,NA,NA,NA,NA,NA,NA,NA,NA,NA,NA,NA,NA,NA,NA,NA,NA,NA,NA
"114","stim/objects/HouseObjects/wateringcan2.png",52,9,52,0.9,"stim/24.jpeg",2,4,3,NA,"HouseObjects",1,2,"left","left",0.576999903,1,1,1,1,NA,NA,NA,NA,NA,NA,NA,NA,NA,NA,NA,NA,NA,NA,NA,NA,NA,NA,NA,NA,NA,NA,NA,NA
"226","stim/objects/Instruments/vuvuzela.png",53,9,53,0.7,"stim/53.jpeg",5,3,2,NA,"Instruments",2,4,"right","right",0.617000103,1,1,1,1,NA,NA,NA,NA,NA,NA,NA,NA,NA,NA,NA,NA,NA,NA,NA,NA,NA,NA,NA,NA,NA,NA,NA,NA
"234","stim/objects/Instruments/xylophone.png",54,9,54,0.7,"stim/54.jpeg",5,4,2,NA,"Instruments",2,1,"right","right",0.482999802,1,1,1,1,NA,NA,NA,NA,NA,NA,NA,NA,NA,NA,NA,NA,NA,NA,NA,NA,NA,NA,NA,NA,NA,NA,NA,NA
"13","stim/objects/HouseObjects/safetypin.png",55,9,55,0.5,"stim/32.jpeg",3,2,1,NA,"HouseObjects",1,1,"left","left",0.828999758,1,1,1,1,NA,NA,NA,NA,NA,NA,NA,NA,NA,NA,NA,NA,NA,NA,NA,NA,NA,NA,NA,NA,NA,NA,NA,NA
"8","stim/objects/HouseObjects/rug2.png",56,9,56,0.7,"stim/61.jpeg",6,1,2,NA,"HouseObjects",1,2,"left","left",0.795999765,1,1,1,1,NA,NA,NA,NA,NA,NA,NA,NA,NA,NA,NA,NA,NA,NA,NA,NA,NA,NA,NA,NA,NA,NA,NA,NA
"109","stim/objects/HouseObjects/wateringcan.png",57,9,57,0.3,"stim/54.jpeg",5,4,2,NA,"HouseObjects",1,1,"left","right",0.53399992,0,0,1,1,NA,NA,NA,NA,NA,NA,NA,NA,NA,NA,NA,NA,NA,NA,NA,NA,NA,NA,NA,NA,NA,NA,NA,NA
"159","stim/objects/Instruments/timbal2.png",58,9,58,0.9,"stim/11.jpeg",1,1,3,NA,"Instruments",2,2,"right","right",0.559999943,1,1,1,1,NA,NA,NA,NA,NA,NA,NA,NA,NA,NA,NA,NA,NA,NA,NA,NA,NA,NA,NA,NA,NA,NA,NA,NA
"130","stim/objects/Instruments/saxophone.png",59,9,59,0.5,"stim/32.jpeg",3,2,1,NA,"Instruments",2,3,"right","left",0.756999969,0,0,1,1,NA,NA,NA,NA,NA,NA,NA,NA,NA,NA,NA,NA,NA,NA,NA,NA,NA,NA,NA,NA,NA,NA,NA,NA
"160","stim/objects/Instruments/timbal2.png",60,9,60,0.9,"stim/11.jpeg",1,1,3,NA,"Instruments",2,3,"right","right",0.684999943,1,1,1,1,NA,NA,NA,NA,NA,NA,NA,NA,NA,NA,NA,NA,NA,NA,NA,NA,NA,NA,NA,NA,NA,NA,NA,NA
"91","stim/objects/HouseObjects/towel2.png",61,9,61,0.9,"stim/22.jpeg",2,2,3,NA,"HouseObjects",1,3,"left","left",0.616999865,1,1,1,1,NA,NA,NA,NA,NA,NA,NA,NA,NA,NA,NA,NA,NA,NA,NA,NA,NA,NA,NA,NA,NA,NA,NA,NA
"161","stim/objects/Instruments/timbal2.png",62,9,62,0.9,"stim/11.jpeg",1,1,3,NA,"Instruments",2,4,"right","right",0.612999916,1,1,1,1,NA,NA,NA,NA,NA,NA,NA,NA,NA,NA,NA,NA,NA,NA,NA,NA,NA,NA,NA,NA,NA,NA,NA,NA
"115","stim/objects/HouseObjects/wateringcan2.png",63,9,63,0.9,"stim/24.jpeg",2,4,3,NA,"HouseObjects",1,3,"left","left",0.592999935,1,1,1,1,NA,NA,NA,NA,NA,NA,NA,NA,NA,NA,NA,NA,NA,NA,NA,NA,NA,NA,NA,NA,NA,NA,NA,NA
"201","stim/objects/Instruments/trumpet2.png",64,9,64,0.9,"stim/14.jpeg",1,4,3,NA,"Instruments",2,4,"right","right",0.714999914,1,1,1,1,NA,NA,NA,NA,NA,NA,NA,NA,NA,NA,NA,NA,NA,NA,NA,NA,NA,NA,NA,NA,NA,NA,NA,NA
"73","stim/objects/HouseObjects/thread.png",65,9,65,0.3,"stim/51.jpeg",5,1,2,NA,"HouseObjects",1,4,"left","",NA,0,0,1,1,NA,NA,NA,NA,NA,NA,NA,NA,NA,NA,NA,NA,NA,NA,NA,NA,NA,NA,NA,NA,NA,NA,NA,NA
"162","stim/objects/Instruments/timbal2.png",66,9,66,0.9,"stim/11.jpeg",1,1,3,NA,"Instruments",2,1,"right","right",0.809000015,1,1,1,1,NA,NA,NA,NA,NA,NA,NA,NA,NA,NA,NA,NA,NA,NA,NA,NA,NA,NA,NA,NA,NA,NA,NA,NA
"43","stim/objects/HouseObjects/scale2.png",67,9,67,0.7,"stim/64.jpeg",6,4,2,NA,"HouseObjects",1,3,"left","left",0.623999834,1,1,1,1,NA,NA,NA,NA,NA,NA,NA,NA,NA,NA,NA,NA,NA,NA,NA,NA,NA,NA,NA,NA,NA,NA,NA,NA
"216","stim/objects/Instruments/tuba2.png",68,9,68,0.1,"stim/21.jpeg",2,1,3,NA,"Instruments",2,1,"right","left",0.545000076,0,0,1,1,NA,NA,NA,NA,NA,NA,NA,NA,NA,NA,NA,NA,NA,NA,NA,NA,NA,NA,NA,NA,NA,NA,NA,NA
"151","stim/objects/Instruments/tambourine2.png",69,9,69,0.3,"stim/64.jpeg",6,4,2,NA,"Instruments",2,4,"right","left",0.519999981,0,0,1,1,NA,NA,NA,NA,NA,NA,NA,NA,NA,NA,NA,NA,NA,NA,NA,NA,NA,NA,NA,NA,NA,NA,NA,NA
"163","stim/objects/Instruments/timbal2.png",70,9,70,0.9,"stim/11.jpeg",1,1,3,NA,"Instruments",2,4,"right","right",0.589999914,1,1,1,1,NA,NA,NA,NA,NA,NA,NA,NA,NA,NA,NA,NA,NA,NA,NA,NA,NA,NA,NA,NA,NA,NA,NA,NA
"49","stim/objects/HouseObjects/sponge.png",71,9,71,0.5,"stim/41.jpeg",4,1,1,NA,"HouseObjects",1,1,"left","",NA,0,0,1,1,NA,NA,NA,NA,NA,NA,NA,NA,NA,NA,NA,NA,NA,NA,NA,NA,NA,NA,NA,NA,NA,NA,NA,NA
"99","stim/objects/HouseObjects/vacuumcleaner.png",72,9,72,0.3,"stim/53.jpeg",5,3,2,NA,"HouseObjects",1,1,"left","",NA,0,0,1,1,NA,NA,NA,NA,NA,NA,NA,NA,NA,NA,NA,NA,NA,NA,NA,NA,NA,NA,NA,NA,NA,NA,NA,NA
"131","stim/objects/Instruments/saxophone.png",73,9,73,0.5,"stim/32.jpeg",3,2,1,NA,"Instruments",2,3,"right","left",0.775999784,0,0,1,1,NA,NA,NA,NA,NA,NA,NA,NA,NA,NA,NA,NA,NA,NA,NA,NA,NA,NA,NA,NA,NA,NA,NA,NA
"217","stim/objects/Instruments/violin.png",74,9,74,0.7,"stim/52.jpeg",5,2,2,NA,"Instruments",2,1,"right","right",0.555999994,1,1,1,1,NA,NA,NA,NA,NA,NA,NA,NA,NA,NA,NA,NA,NA,NA,NA,NA,NA,NA,NA,NA,NA,NA,NA,NA
"63","stim/objects/HouseObjects/teapot.png",75,9,75,0.5,"stim/43.jpeg",4,3,1,NA,"HouseObjects",1,4,"left","right",0.617999792,0,0,1,1,NA,NA,NA,NA,NA,NA,NA,NA,NA,NA,NA,NA,NA,NA,NA,NA,NA,NA,NA,NA,NA,NA,NA,NA
"9","stim/objects/HouseObjects/rug2.png",76,9,76,0.7,"stim/61.jpeg",6,1,2,NA,"HouseObjects",1,2,"left","left",0.552000046,1,1,1,1,NA,NA,NA,NA,NA,NA,NA,NA,NA,NA,NA,NA,NA,NA,NA,NA,NA,NA,NA,NA,NA,NA,NA,NA
"235","stim/objects/Instruments/xylophone.png",77,9,77,0.7,"stim/54.jpeg",5,4,2,NA,"Instruments",2,4,"right","right",0.50999999,1,1,1,1,NA,NA,NA,NA,NA,NA,NA,NA,NA,NA,NA,NA,NA,NA,NA,NA,NA,NA,NA,NA,NA,NA,NA,NA
"196","stim/objects/Instruments/trumpet.png",78,9,78,0.5,"stim/44.jpeg",4,4,1,NA,"Instruments",2,4,"right","",NA,0,0,1,1,NA,NA,NA,NA,NA,NA,NA,NA,NA,NA,NA,NA,NA,NA,NA,NA,NA,NA,NA,NA,NA,NA,NA,NA
"116","stim/objects/HouseObjects/wateringcan2.png",79,9,79,0.9,"stim/24.jpeg",2,4,3,NA,"HouseObjects",1,2,"left","left",0.617999792,1,1,1,1,NA,NA,NA,NA,NA,NA,NA,NA,NA,NA,NA,NA,NA,NA,NA,NA,NA,NA,NA,NA,NA,NA,NA,NA
"21","stim/objects/HouseObjects/safetypin2.png",80,9,80,0.7,"stim/62.jpeg",6,2,2,NA,"HouseObjects",1,1,"left","",NA,0,0,1,1,NA,NA,NA,NA,NA,NA,NA,NA,NA,NA,NA,NA,NA,NA,NA,NA,NA,NA,NA,NA,NA,NA,NA,NA
"168","stim/objects/Instruments/triangle.png",81,9,81,0.5,"stim/42.jpeg",4,2,1,NA,"Instruments",2,2,"right","right",0.530999899,1,1,1,1,NA,NA,NA,NA,NA,NA,NA,NA,NA,NA,NA,NA,NA,NA,NA,NA,NA,NA,NA,NA,NA,NA,NA,NA
"164","stim/objects/Instruments/timbal2.png",82,9,82,0.9,"stim/11.jpeg",1,1,3,NA,"Instruments",2,3,"right","right",0.633999825,1,1,1,1,NA,NA,NA,NA,NA,NA,NA,NA,NA,NA,NA,NA,NA,NA,NA,NA,NA,NA,NA,NA,NA,NA,NA,NA
"211","stim/objects/Instruments/tuba.png",83,9,83,0.7,"stim/51.jpeg",5,1,2,NA,"Instruments",2,1,"right","right",0.548999786,1,1,1,1,NA,NA,NA,NA,NA,NA,NA,NA,NA,NA,NA,NA,NA,NA,NA,NA,NA,NA,NA,NA,NA,NA,NA,NA
"22","stim/objects/HouseObjects/safetypin2.png",84,9,84,0.7,"stim/62.jpeg",6,2,2,NA,"HouseObjects",1,3,"left","left",0.531000137,1,1,1,1,NA,NA,NA,NA,NA,NA,NA,NA,NA,NA,NA,NA,NA,NA,NA,NA,NA,NA,NA,NA,NA,NA,NA,NA
"26","stim/objects/HouseObjects/saw.png",85,9,85,0.5,"stim/33.jpeg",3,3,1,NA,"HouseObjects",1,4,"left","right",0.53399992,0,0,1,1,NA,NA,NA,NA,NA,NA,NA,NA,NA,NA,NA,NA,NA,NA,NA,NA,NA,NA,NA,NA,NA,NA,NA,NA
"117","stim/objects/HouseObjects/wateringcan2.png",86,9,86,0.9,"stim/24.jpeg",2,4,3,NA,"HouseObjects",1,2,"left","left",0.552999735,1,1,1,1,NA,NA,NA,NA,NA,NA,NA,NA,NA,NA,NA,NA,NA,NA,NA,NA,NA,NA,NA,NA,NA,NA,NA,NA
"76","stim/objects/HouseObjects/thread2.png",87,9,87,0.9,"stim/21.jpeg",2,1,3,NA,"HouseObjects",1,3,"left","right",0.526000023,0,0,1,1,NA,NA,NA,NA,NA,NA,NA,NA,NA,NA,NA,NA,NA,NA,NA,NA,NA,NA,NA,NA,NA,NA,NA,NA
"232","stim/objects/Instruments/vuvuzela2.png",88,9,88,0.1,"stim/23.jpeg",2,3,3,NA,"Instruments",2,4,"right","",NA,0,0,1,1,NA,NA,NA,NA,NA,NA,NA,NA,NA,NA,NA,NA,NA,NA,NA,NA,NA,NA,NA,NA,NA,NA,NA,NA
"174","stim/objects/Instruments/triangle2.png",89,9,89,0.9,"stim/12.jpeg",1,2,3,NA,"Instruments",2,3,"right","right",0.728999853,1,1,1,1,NA,NA,NA,NA,NA,NA,NA,NA,NA,NA,NA,NA,NA,NA,NA,NA,NA,NA,NA,NA,NA,NA,NA,NA
"189","stim/objects/Instruments/trombone2.png",90,9,90,0.9,"stim/13.jpeg",1,3,3,NA,"Instruments",2,1,"right","right",0.602999926,1,1,1,1,NA,NA,NA,NA,NA,NA,NA,NA,NA,NA,NA,NA,NA,NA,NA,NA,NA,NA,NA,NA,NA,NA,NA,NA
"66","stim/objects/HouseObjects/teapot2.png",91,9,91,0.1,"stim/13.jpeg",1,3,3,NA,"HouseObjects",1,1,"left","right",0.68599987,0,0,1,1,NA,NA,NA,NA,NA,NA,NA,NA,NA,NA,NA,NA,NA,NA,NA,NA,NA,NA,NA,NA,NA,NA,NA,NA
"132","stim/objects/Instruments/saxophone.png",92,9,92,0.5,"stim/32.jpeg",3,2,1,NA,"Instruments",2,3,"right","left",0.750999928,0,0,1,1,NA,NA,NA,NA,NA,NA,NA,NA,NA,NA,NA,NA,NA,NA,NA,NA,NA,NA,NA,NA,NA,NA,NA,NA
"32","stim/objects/HouseObjects/saw2.png",93,9,93,0.7,"stim/63.jpeg",6,3,2,NA,"HouseObjects",1,1,"left","",NA,0,0,1,1,NA,NA,NA,NA,NA,NA,NA,NA,NA,NA,NA,NA,NA,NA,NA,NA,NA,NA,NA,NA,NA,NA,NA,NA
"74","stim/objects/HouseObjects/thread.png",94,9,94,0.3,"stim/51.jpeg",5,1,2,NA,"HouseObjects",1,2,"left","",NA,0,0,1,1,NA,NA,NA,NA,NA,NA,NA,NA,NA,NA,NA,NA,NA,NA,NA,NA,NA,NA,NA,NA,NA,NA,NA,NA
"227","stim/objects/Instruments/vuvuzela.png",95,9,95,0.7,"stim/53.jpeg",5,3,2,NA,"Instruments",2,1,"right","right",0.575999737,1,1,1,1,NA,NA,NA,NA,NA,NA,NA,NA,NA,NA,NA,NA,NA,NA,NA,NA,NA,NA,NA,NA,NA,NA,NA,NA
"175","stim/objects/Instruments/triangle2.png",96,9,96,0.9,"stim/12.jpeg",1,2,3,NA,"Instruments",2,3,"right","right",0.639999866,1,1,1,1,NA,NA,NA,NA,NA,NA,NA,NA,NA,NA,NA,NA,NA,NA,NA,NA,NA,NA,NA,NA,NA,NA,NA,NA
"176","stim/objects/Instruments/triangle2.png",97,9,97,0.9,"stim/12.jpeg",1,2,3,NA,"Instruments",2,4,"right","right",0.59800005,1,1,1,1,NA,NA,NA,NA,NA,NA,NA,NA,NA,NA,NA,NA,NA,NA,NA,NA,NA,NA,NA,NA,NA,NA,NA,NA
"44","stim/objects/HouseObjects/scale2.png",98,9,98,0.7,"stim/64.jpeg",6,4,2,NA,"HouseObjects",1,4,"left","left",0.695999861,1,1,1,1,NA,NA,NA,NA,NA,NA,NA,NA,NA,NA,NA,NA,NA,NA,NA,NA,NA,NA,NA,NA,NA,NA,NA,NA
"197","stim/objects/Instruments/trumpet.png",99,9,99,0.5,"stim/44.jpeg",4,4,1,NA,"Instruments",2,2,"right","right",0.683999777,1,1,1,1,NA,NA,NA,NA,NA,NA,NA,NA,NA,NA,NA,NA,NA,NA,NA,NA,NA,NA,NA,NA,NA,NA,NA,NA
"182","stim/objects/Instruments/trombone.png",100,9,100,0.5,"stim/43.jpeg",4,3,1,NA,"Instruments",2,1,"right","",NA,0,0,1,1,NA,NA,NA,NA,NA,NA,NA,NA,NA,NA,NA,NA,NA,NA,NA,NA,NA,NA,NA,NA,NA,NA,NA,NA
"27","stim/objects/HouseObjects/saw.png",101,9,101,0.5,"stim/33.jpeg",3,3,1,NA,"HouseObjects",1,3,"left","left",0.729000092,1,1,1,1,NA,NA,NA,NA,NA,NA,NA,NA,NA,NA,NA,NA,NA,NA,NA,NA,NA,NA,NA,NA,NA,NA,NA,NA
"190","stim/objects/Instruments/trombone2.png",102,9,102,0.9,"stim/13.jpeg",1,3,3,NA,"Instruments",2,2,"right","left",0.864999771,0,0,1,1,NA,NA,NA,NA,NA,NA,NA,NA,NA,NA,NA,NA,NA,NA,NA,NA,NA,NA,NA,NA,NA,NA,NA,NA
"118","stim/objects/HouseObjects/wateringcan2.png",103,9,103,0.9,"stim/24.jpeg",2,4,3,NA,"HouseObjects",1,3,"left","left",0.819999695,1,1,1,1,NA,NA,NA,NA,NA,NA,NA,NA,NA,NA,NA,NA,NA,NA,NA,NA,NA,NA,NA,NA,NA,NA,NA,NA
"2","stim/objects/HouseObjects/rug.png",104,9,104,0.5,"stim/31.jpeg",3,1,1,NA,"HouseObjects",1,4,"left","",NA,0,0,1,1,NA,NA,NA,NA,NA,NA,NA,NA,NA,NA,NA,NA,NA,NA,NA,NA,NA,NA,NA,NA,NA,NA,NA,NA
"38","stim/objects/HouseObjects/scale.png",105,9,105,0.5,"stim/34.jpeg",3,4,1,NA,"HouseObjects",1,1,"left","left",0.622999907,1,1,1,1,NA,NA,NA,NA,NA,NA,NA,NA,NA,NA,NA,NA,NA,NA,NA,NA,NA,NA,NA,NA,NA,NA,NA,NA
"14","stim/objects/HouseObjects/safetypin.png",106,9,106,0.5,"stim/32.jpeg",3,2,1,NA,"HouseObjects",1,1,"left","left",0.769000053,1,1,1,1,NA,NA,NA,NA,NA,NA,NA,NA,NA,NA,NA,NA,NA,NA,NA,NA,NA,NA,NA,NA,NA,NA,NA,NA
"154","stim/objects/Instruments/timbal.png",107,9,107,0.5,"stim/41.jpeg",4,1,1,NA,"Instruments",2,2,"right","right",0.717999935,1,1,1,1,NA,NA,NA,NA,NA,NA,NA,NA,NA,NA,NA,NA,NA,NA,NA,NA,NA,NA,NA,NA,NA,NA,NA,NA
"155","stim/objects/Instruments/timbal.png",108,9,108,0.5,"stim/41.jpeg",4,1,1,NA,"Instruments",2,2,"right","right",0.554999828,1,1,1,1,NA,NA,NA,NA,NA,NA,NA,NA,NA,NA,NA,NA,NA,NA,NA,NA,NA,NA,NA,NA,NA,NA,NA,NA
"3","stim/objects/HouseObjects/rug.png",109,9,109,0.5,"stim/31.jpeg",3,1,1,NA,"HouseObjects",1,4,"left","left",0.667999744,1,1,1,1,NA,NA,NA,NA,NA,NA,NA,NA,NA,NA,NA,NA,NA,NA,NA,NA,NA,NA,NA,NA,NA,NA,NA,NA
"92","stim/objects/HouseObjects/towel2.png",110,9,110,0.9,"stim/22.jpeg",2,2,3,NA,"HouseObjects",1,1,"left","left",0.878000021,1,1,1,1,NA,NA,NA,NA,NA,NA,NA,NA,NA,NA,NA,NA,NA,NA,NA,NA,NA,NA,NA,NA,NA,NA,NA,NA
"45","stim/objects/HouseObjects/scale2.png",111,9,111,0.7,"stim/64.jpeg",6,4,2,NA,"HouseObjects",1,3,"left","left",0.548999786,1,1,1,1,NA,NA,NA,NA,NA,NA,NA,NA,NA,NA,NA,NA,NA,NA,NA,NA,NA,NA,NA,NA,NA,NA,NA,NA
"218","stim/objects/Instruments/violin.png",112,9,112,0.7,"stim/52.jpeg",5,2,2,NA,"Instruments",2,2,"right","right",0.520999908,1,1,1,1,NA,NA,NA,NA,NA,NA,NA,NA,NA,NA,NA,NA,NA,NA,NA,NA,NA,NA,NA,NA,NA,NA,NA,NA
"177","stim/objects/Instruments/triangle2.png",113,9,113,0.9,"stim/12.jpeg",1,2,3,NA,"Instruments",2,1,"right","right",0.599999905,1,1,1,1,NA,NA,NA,NA,NA,NA,NA,NA,NA,NA,NA,NA,NA,NA,NA,NA,NA,NA,NA,NA,NA,NA,NA,NA
"67","stim/objects/HouseObjects/thermometer.png",114,9,114,0.5,"stim/44.jpeg",4,4,1,NA,"HouseObjects",1,1,"left","right",0.657999754,0,0,1,1,NA,NA,NA,NA,NA,NA,NA,NA,NA,NA,NA,NA,NA,NA,NA,NA,NA,NA,NA,NA,NA,NA,NA,NA
"202","stim/objects/Instruments/trumpet2.png",115,9,115,0.9,"stim/14.jpeg",1,4,3,NA,"Instruments",2,3,"right","right",0.615999937,1,1,1,1,NA,NA,NA,NA,NA,NA,NA,NA,NA,NA,NA,NA,NA,NA,NA,NA,NA,NA,NA,NA,NA,NA,NA,NA
"198","stim/objects/Instruments/trumpet.png",116,9,116,0.5,"stim/44.jpeg",4,4,1,NA,"Instruments",2,2,"right","left",0.720999956,0,0,1,1,NA,NA,NA,NA,NA,NA,NA,NA,NA,NA,NA,NA,NA,NA,NA,NA,NA,NA,NA,NA,NA,NA,NA,NA
"68","stim/objects/HouseObjects/thermometer.png",117,9,117,0.5,"stim/44.jpeg",4,4,1,NA,"HouseObjects",1,2,"left","right",0.720999956,0,0,1,1,NA,NA,NA,NA,NA,NA,NA,NA,NA,NA,NA,NA,NA,NA,NA,NA,NA,NA,NA,NA,NA,NA,NA,NA
"178","stim/objects/Instruments/triangle2.png",118,9,118,0.9,"stim/12.jpeg",1,2,3,NA,"Instruments",2,4,"right","right",0.618999958,1,1,1,1,NA,NA,NA,NA,NA,NA,NA,NA,NA,NA,NA,NA,NA,NA,NA,NA,NA,NA,NA,NA,NA,NA,NA,NA
"147","stim/objects/Instruments/tambourine.png",119,9,119,0.5,"stim/34.jpeg",3,4,1,NA,"Instruments",2,4,"right","left",0.549999952,0,0,1,1,NA,NA,NA,NA,NA,NA,NA,NA,NA,NA,NA,NA,NA,NA,NA,NA,NA,NA,NA,NA,NA,NA,NA,NA
"203","stim/objects/Instruments/trumpet2.png",120,9,120,0.9,"stim/14.jpeg",1,4,3,NA,"Instruments",2,3,"right","right",0.592000008,1,1,1,1,NA,NA,NA,NA,NA,NA,NA,NA,NA,NA,NA,NA,NA,NA,NA,NA,NA,NA,NA,NA,NA,NA,NA,NA
"204","stim/objects/Instruments/trumpet2.png",121,9,121,0.9,"stim/14.jpeg",1,4,3,NA,"Instruments",2,4,"right","right",0.724999905,1,1,1,1,NA,NA,NA,NA,NA,NA,NA,NA,NA,NA,NA,NA,NA,NA,NA,NA,NA,NA,NA,NA,NA,NA,NA,NA
"228","stim/objects/Instruments/vuvuzela.png",122,9,122,0.7,"stim/53.jpeg",5,3,2,NA,"Instruments",2,1,"right","right",0.611999989,1,1,1,1,NA,NA,NA,NA,NA,NA,NA,NA,NA,NA,NA,NA,NA,NA,NA,NA,NA,NA,NA,NA,NA,NA,NA,NA
"142","stim/objects/Instruments/speaker2.png",123,9,123,0.3,"stim/63.jpeg",6,3,2,NA,"Instruments",2,4,"right","left",0.674000025,0,0,1,1,NA,NA,NA,NA,NA,NA,NA,NA,NA,NA,NA,NA,NA,NA,NA,NA,NA,NA,NA,NA,NA,NA,NA,NA
"219","stim/objects/Instruments/violin.png",124,9,124,0.7,"stim/52.jpeg",5,2,2,NA,"Instruments",2,2,"right","right",0.539000034,1,1,1,1,NA,NA,NA,NA,NA,NA,NA,NA,NA,NA,NA,NA,NA,NA,NA,NA,NA,NA,NA,NA,NA,NA,NA,NA
"165","stim/objects/Instruments/timbal2.png",125,9,125,0.9,"stim/11.jpeg",1,1,3,NA,"Instruments",2,2,"right","right",0.585999966,1,1,1,1,NA,NA,NA,NA,NA,NA,NA,NA,NA,NA,NA,NA,NA,NA,NA,NA,NA,NA,NA,NA,NA,NA,NA,NA
"72","stim/objects/HouseObjects/thermometer2.png",126,9,126,0.1,"stim/14.jpeg",1,4,3,NA,"HouseObjects",1,1,"left","right",0.622999907,0,0,1,1,NA,NA,NA,NA,NA,NA,NA,NA,NA,NA,NA,NA,NA,NA,NA,NA,NA,NA,NA,NA,NA,NA,NA,NA
"64","stim/objects/HouseObjects/teapot.png",127,9,127,0.5,"stim/43.jpeg",4,3,1,NA,"HouseObjects",1,1,"left","right",0.599999905,0,0,1,1,NA,NA,NA,NA,NA,NA,NA,NA,NA,NA,NA,NA,NA,NA,NA,NA,NA,NA,NA,NA,NA,NA,NA,NA
"205","stim/objects/Instruments/trumpet2.png",128,9,128,0.9,"stim/14.jpeg",1,4,3,NA,"Instruments",2,3,"right","right",0.749999762,1,1,1,1,NA,NA,NA,NA,NA,NA,NA,NA,NA,NA,NA,NA,NA,NA,NA,NA,NA,NA,NA,NA,NA,NA,NA,NA
"119","stim/objects/HouseObjects/wateringcan2.png",129,9,129,0.9,"stim/24.jpeg",2,4,3,NA,"HouseObjects",1,1,"left","left",0.565999985,1,1,1,1,NA,NA,NA,NA,NA,NA,NA,NA,NA,NA,NA,NA,NA,NA,NA,NA,NA,NA,NA,NA,NA,NA,NA,NA
"28","stim/objects/HouseObjects/saw.png",130,9,130,0.5,"stim/33.jpeg",3,3,1,NA,"HouseObjects",1,2,"left","left",0.786000013,1,1,1,1,NA,NA,NA,NA,NA,NA,NA,NA,NA,NA,NA,NA,NA,NA,NA,NA,NA,NA,NA,NA,NA,NA,NA,NA
"65","stim/objects/HouseObjects/teapot.png",131,9,131,0.5,"stim/43.jpeg",4,3,1,NA,"HouseObjects",1,4,"left","right",0.754999876,0,0,1,1,NA,NA,NA,NA,NA,NA,NA,NA,NA,NA,NA,NA,NA,NA,NA,NA,NA,NA,NA,NA,NA,NA,NA,NA
"183","stim/objects/Instruments/trombone.png",132,9,132,0.5,"stim/43.jpeg",4,3,1,NA,"Instruments",2,1,"right","left",0.841999769,0,0,1,1,NA,NA,NA,NA,NA,NA,NA,NA,NA,NA,NA,NA,NA,NA,NA,NA,NA,NA,NA,NA,NA,NA,NA,NA
"101","stim/objects/HouseObjects/vacuumcleaner2.png",133,9,133,0.9,"stim/23.jpeg",2,3,3,NA,"HouseObjects",1,3,"left","left",0.71600008,1,1,1,1,NA,NA,NA,NA,NA,NA,NA,NA,NA,NA,NA,NA,NA,NA,NA,NA,NA,NA,NA,NA,NA,NA,NA,NA
"50","stim/objects/HouseObjects/sponge.png",134,9,134,0.5,"stim/41.jpeg",4,1,1,NA,"HouseObjects",1,1,"left","right",0.707999945,0,0,1,1,NA,NA,NA,NA,NA,NA,NA,NA,NA,NA,NA,NA,NA,NA,NA,NA,NA,NA,NA,NA,NA,NA,NA,NA
"212","stim/objects/Instruments/tuba.png",135,9,135,0.7,"stim/51.jpeg",5,1,2,NA,"Instruments",2,3,"right","right",0.569999933,1,1,1,1,NA,NA,NA,NA,NA,NA,NA,NA,NA,NA,NA,NA,NA,NA,NA,NA,NA,NA,NA,NA,NA,NA,NA,NA
"110","stim/objects/HouseObjects/wateringcan.png",136,9,136,0.3,"stim/54.jpeg",5,4,2,NA,"HouseObjects",1,2,"left","right",0.531000137,0,0,1,1,NA,NA,NA,NA,NA,NA,NA,NA,NA,NA,NA,NA,NA,NA,NA,NA,NA,NA,NA,NA,NA,NA,NA,NA
"46","stim/objects/HouseObjects/scale2.png",137,9,137,0.7,"stim/64.jpeg",6,4,2,NA,"HouseObjects",1,3,"left","left",0.576999903,1,1,1,1,NA,NA,NA,NA,NA,NA,NA,NA,NA,NA,NA,NA,NA,NA,NA,NA,NA,NA,NA,NA,NA,NA,NA,NA
"156","stim/objects/Instruments/timbal.png",138,9,138,0.5,"stim/41.jpeg",4,1,1,NA,"Instruments",2,1,"right","left",0.730000019,0,0,1,1,NA,NA,NA,NA,NA,NA,NA,NA,NA,NA,NA,NA,NA,NA,NA,NA,NA,NA,NA,NA,NA,NA,NA,NA
"111","stim/objects/HouseObjects/wateringcan.png",139,9,139,0.3,"stim/54.jpeg",5,4,2,NA,"HouseObjects",1,3,"left","right",0.530999899,0,0,1,1,NA,NA,NA,NA,NA,NA,NA,NA,NA,NA,NA,NA,NA,NA,NA,NA,NA,NA,NA,NA,NA,NA,NA,NA
"102","stim/objects/HouseObjects/vacuumcleaner2.png",140,9,140,0.9,"stim/23.jpeg",2,3,3,NA,"HouseObjects",1,2,"left","left",0.497999907,1,1,1,1,NA,NA,NA,NA,NA,NA,NA,NA,NA,NA,NA,NA,NA,NA,NA,NA,NA,NA,NA,NA,NA,NA,NA,NA
"103","stim/objects/HouseObjects/vacuumcleaner2.png",141,9,141,0.9,"stim/23.jpeg",2,3,3,NA,"HouseObjects",1,2,"left","left",0.545999765,1,1,1,1,NA,NA,NA,NA,NA,NA,NA,NA,NA,NA,NA,NA,NA,NA,NA,NA,NA,NA,NA,NA,NA,NA,NA,NA
"148","stim/objects/Instruments/tambourine.png",142,9,142,0.5,"stim/34.jpeg",3,4,1,NA,"Instruments",2,1,"right","left",0.739000082,0,0,1,1,NA,NA,NA,NA,NA,NA,NA,NA,NA,NA,NA,NA,NA,NA,NA,NA,NA,NA,NA,NA,NA,NA,NA,NA
"33","stim/objects/HouseObjects/saw2.png",143,9,143,0.7,"stim/63.jpeg",6,3,2,NA,"HouseObjects",1,2,"left","left",0.54399991,1,1,1,1,NA,NA,NA,NA,NA,NA,NA,NA,NA,NA,NA,NA,NA,NA,NA,NA,NA,NA,NA,NA,NA,NA,NA,NA
"236","stim/objects/Instruments/xylophone.png",144,9,144,0.7,"stim/54.jpeg",5,4,2,NA,"Instruments",2,3,"right","right",0.573999882,1,1,1,1,NA,NA,NA,NA,NA,NA,NA,NA,NA,NA,NA,NA,NA,NA,NA,NA,NA,NA,NA,NA,NA,NA,NA,NA
"191","stim/objects/Instruments/trombone2.png",145,9,145,0.9,"stim/13.jpeg",1,3,3,NA,"Instruments",2,3,"right","right",0.507999897,1,1,1,1,NA,NA,NA,NA,NA,NA,NA,NA,NA,NA,NA,NA,NA,NA,NA,NA,NA,NA,NA,NA,NA,NA,NA,NA
"75","stim/objects/HouseObjects/thread.png",146,9,146,0.3,"stim/51.jpeg",5,1,2,NA,"HouseObjects",1,2,"left","right",0.588999987,0,0,1,1,NA,NA,NA,NA,NA,NA,NA,NA,NA,NA,NA,NA,NA,NA,NA,NA,NA,NA,NA,NA,NA,NA,NA,NA
"169","stim/objects/Instruments/triangle.png",147,9,147,0.5,"stim/42.jpeg",4,2,1,NA,"Instruments",2,1,"right","right",0.796999931,1,1,1,1,NA,NA,NA,NA,NA,NA,NA,NA,NA,NA,NA,NA,NA,NA,NA,NA,NA,NA,NA,NA,NA,NA,NA,NA
"206","stim/objects/Instruments/trumpet2.png",148,9,148,0.9,"stim/14.jpeg",1,4,3,NA,"Instruments",2,4,"right","right",0.631999969,1,1,1,1,NA,NA,NA,NA,NA,NA,NA,NA,NA,NA,NA,NA,NA,NA,NA,NA,NA,NA,NA,NA,NA,NA,NA,NA
"77","stim/objects/HouseObjects/thread2.png",149,9,149,0.9,"stim/21.jpeg",2,1,3,NA,"HouseObjects",1,1,"left","left",0.611000061,1,1,1,1,NA,NA,NA,NA,NA,NA,NA,NA,NA,NA,NA,NA,NA,NA,NA,NA,NA,NA,NA,NA,NA,NA,NA,NA
"15","stim/objects/HouseObjects/safetypin.png",150,9,150,0.5,"stim/32.jpeg",3,2,1,NA,"HouseObjects",1,1,"left","left",0.65199995,1,1,1,1,NA,NA,NA,NA,NA,NA,NA,NA,NA,NA,NA,NA,NA,NA,NA,NA,NA,NA,NA,NA,NA,NA,NA,NA
"179","stim/objects/Instruments/triangle2.png",151,9,151,0.9,"stim/12.jpeg",1,2,3,NA,"Instruments",2,3,"right","left",0.789999962,0,0,1,1,NA,NA,NA,NA,NA,NA,NA,NA,NA,NA,NA,NA,NA,NA,NA,NA,NA,NA,NA,NA,NA,NA,NA,NA
"39","stim/objects/HouseObjects/scale.png",152,9,152,0.5,"stim/34.jpeg",3,4,1,NA,"HouseObjects",1,3,"left","left",0.743999958,1,1,1,1,NA,NA,NA,NA,NA,NA,NA,NA,NA,NA,NA,NA,NA,NA,NA,NA,NA,NA,NA,NA,NA,NA,NA,NA
"207","stim/objects/Instruments/trumpet2.png",153,9,153,0.9,"stim/14.jpeg",1,4,3,NA,"Instruments",2,1,"right","right",0.634000063,1,1,1,1,NA,NA,NA,NA,NA,NA,NA,NA,NA,NA,NA,NA,NA,NA,NA,NA,NA,NA,NA,NA,NA,NA,NA,NA
"139","stim/objects/Instruments/speaker.png",154,9,154,0.5,"stim/33.jpeg",3,3,1,NA,"Instruments",2,4,"right","left",0.548000097,0,0,1,1,NA,NA,NA,NA,NA,NA,NA,NA,NA,NA,NA,NA,NA,NA,NA,NA,NA,NA,NA,NA,NA,NA,NA,NA
"220","stim/objects/Instruments/violin.png",155,9,155,0.7,"stim/52.jpeg",5,2,2,NA,"Instruments",2,4,"right","right",0.779999971,1,1,1,1,NA,NA,NA,NA,NA,NA,NA,NA,NA,NA,NA,NA,NA,NA,NA,NA,NA,NA,NA,NA,NA,NA,NA,NA
"85","stim/objects/HouseObjects/towel.png",156,9,156,0.3,"stim/52.jpeg",5,2,2,NA,"HouseObjects",1,2,"left","right",0.672999859,0,0,1,1,NA,NA,NA,NA,NA,NA,NA,NA,NA,NA,NA,NA,NA,NA,NA,NA,NA,NA,NA,NA,NA,NA,NA,NA
"57","stim/objects/HouseObjects/spraybottle.png",157,9,157,0.5,"stim/42.jpeg",4,2,1,NA,"HouseObjects",1,1,"left","",NA,0,0,1,1,NA,NA,NA,NA,NA,NA,NA,NA,NA,NA,NA,NA,NA,NA,NA,NA,NA,NA,NA,NA,NA,NA,NA,NA
"47","stim/objects/HouseObjects/scale2.png",158,9,158,0.7,"stim/64.jpeg",6,4,2,NA,"HouseObjects",1,4,"left","",NA,0,0,1,1,NA,NA,NA,NA,NA,NA,NA,NA,NA,NA,NA,NA,NA,NA,NA,NA,NA,NA,NA,NA,NA,NA,NA,NA
"51","stim/objects/HouseObjects/sponge.png",159,9,159,0.5,"stim/41.jpeg",4,1,1,NA,"HouseObjects",1,3,"left","right",0.61899972,0,0,1,1,NA,NA,NA,NA,NA,NA,NA,NA,NA,NA,NA,NA,NA,NA,NA,NA,NA,NA,NA,NA,NA,NA,NA,NA
"120","stim/objects/HouseObjects/wateringcan2.png",160,9,160,0.9,"stim/24.jpeg",2,4,3,NA,"HouseObjects",1,2,"left","left",0.536999941,1,1,1,1,NA,NA,NA,NA,NA,NA,NA,NA,NA,NA,NA,NA,NA,NA,NA,NA,NA,NA,NA,NA,NA,NA,NA,NA
"221","stim/objects/Instruments/violin.png",161,9,161,0.7,"stim/52.jpeg",5,2,2,NA,"Instruments",2,2,"right","right",0.522000074,1,1,1,1,NA,NA,NA,NA,NA,NA,NA,NA,NA,NA,NA,NA,NA,NA,NA,NA,NA,NA,NA,NA,NA,NA,NA,NA
"10","stim/objects/HouseObjects/rug2.png",162,9,162,0.7,"stim/61.jpeg",6,1,2,NA,"HouseObjects",1,3,"left","left",0.563999891,1,1,1,1,NA,NA,NA,NA,NA,NA,NA,NA,NA,NA,NA,NA,NA,NA,NA,NA,NA,NA,NA,NA,NA,NA,NA,NA
"134","stim/objects/Instruments/saxophone2.png",163,9,163,0.3,"stim/62.jpeg",6,2,2,NA,"Instruments",2,1,"right","",NA,0,0,1,1,NA,NA,NA,NA,NA,NA,NA,NA,NA,NA,NA,NA,NA,NA,NA,NA,NA,NA,NA,NA,NA,NA,NA,NA
"104","stim/objects/HouseObjects/vacuumcleaner2.png",164,9,164,0.9,"stim/23.jpeg",2,3,3,NA,"HouseObjects",1,3,"left","left",0.661999941,1,1,1,1,NA,NA,NA,NA,NA,NA,NA,NA,NA,NA,NA,NA,NA,NA,NA,NA,NA,NA,NA,NA,NA,NA,NA,NA
"157","stim/objects/Instruments/timbal.png",165,9,165,0.5,"stim/41.jpeg",4,1,1,NA,"Instruments",2,4,"right","right",0.687999964,1,1,1,1,NA,NA,NA,NA,NA,NA,NA,NA,NA,NA,NA,NA,NA,NA,NA,NA,NA,NA,NA,NA,NA,NA,NA,NA
"192","stim/objects/Instruments/trombone2.png",166,9,166,0.9,"stim/13.jpeg",1,3,3,NA,"Instruments",2,2,"right","left",0.655999899,0,0,1,1,NA,NA,NA,NA,NA,NA,NA,NA,NA,NA,NA,NA,NA,NA,NA,NA,NA,NA,NA,NA,NA,NA,NA,NA
"11","stim/objects/HouseObjects/rug2.png",167,9,167,0.7,"stim/61.jpeg",6,1,2,NA,"HouseObjects",1,2,"left","",NA,0,0,1,1,NA,NA,NA,NA,NA,NA,NA,NA,NA,NA,NA,NA,NA,NA,NA,NA,NA,NA,NA,NA,NA,NA,NA,NA
"4","stim/objects/HouseObjects/rug.png",168,9,168,0.5,"stim/31.jpeg",3,1,1,NA,"HouseObjects",1,4,"left","left",0.581999779,1,1,1,1,NA,NA,NA,NA,NA,NA,NA,NA,NA,NA,NA,NA,NA,NA,NA,NA,NA,NA,NA,NA,NA,NA,NA,NA
"78","stim/objects/HouseObjects/thread2.png",169,9,169,0.9,"stim/21.jpeg",2,1,3,NA,"HouseObjects",1,4,"left","left",0.557999849,1,1,1,1,NA,NA,NA,NA,NA,NA,NA,NA,NA,NA,NA,NA,NA,NA,NA,NA,NA,NA,NA,NA,NA,NA,NA,NA
"93","stim/objects/HouseObjects/towel2.png",170,9,170,0.9,"stim/22.jpeg",2,2,3,NA,"HouseObjects",1,3,"left","left",0.501999855,1,1,1,1,NA,NA,NA,NA,NA,NA,NA,NA,NA,NA,NA,NA,NA,NA,NA,NA,NA,NA,NA,NA,NA,NA,NA,NA
"79","stim/objects/HouseObjects/thread2.png",171,9,171,0.9,"stim/21.jpeg",2,1,3,NA,"HouseObjects",1,1,"left","left",0.482999802,1,1,1,1,NA,NA,NA,NA,NA,NA,NA,NA,NA,NA,NA,NA,NA,NA,NA,NA,NA,NA,NA,NA,NA,NA,NA,NA
"105","stim/objects/HouseObjects/vacuumcleaner2.png",172,9,172,0.9,"stim/23.jpeg",2,3,3,NA,"HouseObjects",1,4,"left","left",0.618000031,1,1,1,1,NA,NA,NA,NA,NA,NA,NA,NA,NA,NA,NA,NA,NA,NA,NA,NA,NA,NA,NA,NA,NA,NA,NA,NA
"237","stim/objects/Instruments/xylophone.png",173,9,173,0.7,"stim/54.jpeg",5,4,2,NA,"Instruments",2,1,"right","",NA,0,0,1,1,NA,NA,NA,NA,NA,NA,NA,NA,NA,NA,NA,NA,NA,NA,NA,NA,NA,NA,NA,NA,NA,NA,NA,NA
"29","stim/objects/HouseObjects/saw.png",174,9,174,0.5,"stim/33.jpeg",3,3,1,NA,"HouseObjects",1,2,"left","left",0.643999815,1,1,1,1,NA,NA,NA,NA,NA,NA,NA,NA,NA,NA,NA,NA,NA,NA,NA,NA,NA,NA,NA,NA,NA,NA,NA,NA
"69","stim/objects/HouseObjects/thermometer.png",175,9,175,0.5,"stim/44.jpeg",4,4,1,NA,"HouseObjects",1,3,"left","right",0.552999973,0,0,1,1,NA,NA,NA,NA,NA,NA,NA,NA,NA,NA,NA,NA,NA,NA,NA,NA,NA,NA,NA,NA,NA,NA,NA,NA
"106","stim/objects/HouseObjects/vacuumcleaner2.png",176,9,176,0.9,"stim/23.jpeg",2,3,3,NA,"HouseObjects",1,2,"left","left",0.601999998,1,1,1,1,NA,NA,NA,NA,NA,NA,NA,NA,NA,NA,NA,NA,NA,NA,NA,NA,NA,NA,NA,NA,NA,NA,NA,NA
"240","stim/objects/Instruments/xylophone2.png",177,9,177,0.1,"stim/24.jpeg",2,4,3,NA,"Instruments",2,3,"right","left",0.515000105,0,0,1,1,NA,NA,NA,NA,NA,NA,NA,NA,NA,NA,NA,NA,NA,NA,NA,NA,NA,NA,NA,NA,NA,NA,NA,NA
"222","stim/objects/Instruments/violin.png",178,9,178,0.7,"stim/52.jpeg",5,2,2,NA,"Instruments",2,1,"right","right",0.545000076,1,1,1,1,NA,NA,NA,NA,NA,NA,NA,NA,NA,NA,NA,NA,NA,NA,NA,NA,NA,NA,NA,NA,NA,NA,NA,NA
"107","stim/objects/HouseObjects/vacuumcleaner2.png",179,9,179,0.9,"stim/23.jpeg",2,3,3,NA,"HouseObjects",1,1,"left","left",0.542999983,1,1,1,1,NA,NA,NA,NA,NA,NA,NA,NA,NA,NA,NA,NA,NA,NA,NA,NA,NA,NA,NA,NA,NA,NA,NA,NA
"70","stim/objects/HouseObjects/thermometer.png",180,9,180,0.5,"stim/44.jpeg",4,4,1,NA,"HouseObjects",1,1,"left","right",0.542000055,0,0,1,1,NA,NA,NA,NA,NA,NA,NA,NA,NA,NA,NA,NA,NA,NA,NA,NA,NA,NA,NA,NA,NA,NA,NA,NA
"208","stim/objects/Instruments/trumpet2.png",181,9,181,0.9,"stim/14.jpeg",1,4,3,NA,"Instruments",2,1,"right","",NA,0,0,1,1,NA,NA,NA,NA,NA,NA,NA,NA,NA,NA,NA,NA,NA,NA,NA,NA,NA,NA,NA,NA,NA,NA,NA,NA
"229","stim/objects/Instruments/vuvuzela.png",182,9,182,0.7,"stim/53.jpeg",5,3,2,NA,"Instruments",2,4,"right","right",0.581999779,1,1,1,1,NA,NA,NA,NA,NA,NA,NA,NA,NA,NA,NA,NA,NA,NA,NA,NA,NA,NA,NA,NA,NA,NA,NA,NA
"80","stim/objects/HouseObjects/thread2.png",183,9,183,0.9,"stim/21.jpeg",2,1,3,NA,"HouseObjects",1,1,"left","left",0.479999781,1,1,1,1,NA,NA,NA,NA,NA,NA,NA,NA,NA,NA,NA,NA,NA,NA,NA,NA,NA,NA,NA,NA,NA,NA,NA,NA
"34","stim/objects/HouseObjects/saw2.png",184,9,184,0.7,"stim/63.jpeg",6,3,2,NA,"HouseObjects",1,3,"left","left",0.548999786,1,1,1,1,NA,NA,NA,NA,NA,NA,NA,NA,NA,NA,NA,NA,NA,NA,NA,NA,NA,NA,NA,NA,NA,NA,NA,NA
"184","stim/objects/Instruments/trombone.png",185,9,185,0.5,"stim/43.jpeg",4,3,1,NA,"Instruments",2,2,"right","right",0.578999758,1,1,1,1,NA,NA,NA,NA,NA,NA,NA,NA,NA,NA,NA,NA,NA,NA,NA,NA,NA,NA,NA,NA,NA,NA,NA,NA
"213","stim/objects/Instruments/tuba.png",186,9,186,0.7,"stim/51.jpeg",5,1,2,NA,"Instruments",2,1,"right","right",0.555999756,1,1,1,1,NA,NA,NA,NA,NA,NA,NA,NA,NA,NA,NA,NA,NA,NA,NA,NA,NA,NA,NA,NA,NA,NA,NA,NA
"152","stim/objects/Instruments/tambourine2.png",187,9,187,0.3,"stim/64.jpeg",6,4,2,NA,"Instruments",2,3,"right","left",0.610999823,0,0,1,1,NA,NA,NA,NA,NA,NA,NA,NA,NA,NA,NA,NA,NA,NA,NA,NA,NA,NA,NA,NA,NA,NA,NA,NA
"166","stim/objects/Instruments/timbal2.png",188,9,188,0.9,"stim/11.jpeg",1,1,3,NA,"Instruments",2,2,"right","right",0.673000097,1,1,1,1,NA,NA,NA,NA,NA,NA,NA,NA,NA,NA,NA,NA,NA,NA,NA,NA,NA,NA,NA,NA,NA,NA,NA,NA
"135","stim/objects/Instruments/saxophone2.png",189,9,189,0.3,"stim/62.jpeg",6,2,2,NA,"Instruments",2,4,"right","left",0.649999857,0,0,1,1,NA,NA,NA,NA,NA,NA,NA,NA,NA,NA,NA,NA,NA,NA,NA,NA,NA,NA,NA,NA,NA,NA,NA,NA
"23","stim/objects/HouseObjects/safetypin2.png",190,9,190,0.7,"stim/62.jpeg",6,2,2,NA,"HouseObjects",1,3,"left","left",0.808000088,1,1,1,1,NA,NA,NA,NA,NA,NA,NA,NA,NA,NA,NA,NA,NA,NA,NA,NA,NA,NA,NA,NA,NA,NA,NA,NA
"54","stim/objects/HouseObjects/sponge2.png",191,9,191,0.1,"stim/11.jpeg",1,1,3,NA,"HouseObjects",1,1,"left","right",0.537999868,0,0,1,1,NA,NA,NA,NA,NA,NA,NA,NA,NA,NA,NA,NA,NA,NA,NA,NA,NA,NA,NA,NA,NA,NA,NA,NA
"58","stim/objects/HouseObjects/spraybottle.png",192,9,192,0.5,"stim/42.jpeg",4,2,1,NA,"HouseObjects",1,1,"left","right",0.711999893,0,0,1,1,NA,NA,NA,NA,NA,NA,NA,NA,NA,NA,NA,NA,NA,NA,NA,NA,NA,NA,NA,NA,NA,NA,NA,NA
"214","stim/objects/Instruments/tuba.png",193,9,193,0.7,"stim/51.jpeg",5,1,2,NA,"Instruments",2,2,"right","right",0.528999805,1,1,1,1,NA,NA,NA,NA,NA,NA,NA,NA,NA,NA,NA,NA,NA,NA,NA,NA,NA,NA,NA,NA,NA,NA,NA,NA
"128","stim/objects/Instruments/record_player2.png",194,9,194,0.3,"stim/61.jpeg",6,1,2,NA,"Instruments",2,4,"right","left",0.569000006,0,0,1,1,NA,NA,NA,NA,NA,NA,NA,NA,NA,NA,NA,NA,NA,NA,NA,NA,NA,NA,NA,NA,NA,NA,NA,NA
"215","stim/objects/Instruments/tuba.png",195,9,195,0.7,"stim/51.jpeg",5,1,2,NA,"Instruments",2,1,"right","right",0.494999886,1,1,1,1,NA,NA,NA,NA,NA,NA,NA,NA,NA,NA,NA,NA,NA,NA,NA,NA,NA,NA,NA,NA,NA,NA,NA,NA
"40","stim/objects/HouseObjects/scale.png",196,9,196,0.5,"stim/34.jpeg",3,4,1,NA,"HouseObjects",1,3,"left","left",0.564999819,1,1,1,1,NA,NA,NA,NA,NA,NA,NA,NA,NA,NA,NA,NA,NA,NA,NA,NA,NA,NA,NA,NA,NA,NA,NA,NA
"16","stim/objects/HouseObjects/safetypin.png",197,9,197,0.5,"stim/32.jpeg",3,2,1,NA,"HouseObjects",1,2,"left","left",0.703999996,1,1,1,1,NA,NA,NA,NA,NA,NA,NA,NA,NA,NA,NA,NA,NA,NA,NA,NA,NA,NA,NA,NA,NA,NA,NA,NA
"223","stim/objects/Instruments/violin.png",198,9,198,0.7,"stim/52.jpeg",5,2,2,NA,"Instruments",2,2,"right","right",0.669999838,1,1,1,1,NA,NA,NA,NA,NA,NA,NA,NA,NA,NA,NA,NA,NA,NA,NA,NA,NA,NA,NA,NA,NA,NA,NA,NA
"238","stim/objects/Instruments/xylophone.png",199,9,199,0.7,"stim/54.jpeg",5,4,2,NA,"Instruments",2,4,"right","right",0.528999805,1,1,1,1,NA,NA,NA,NA,NA,NA,NA,NA,NA,NA,NA,NA,NA,NA,NA,NA,NA,NA,NA,NA,NA,NA,NA,NA
"170","stim/objects/Instruments/triangle.png",200,9,200,0.5,"stim/42.jpeg",4,2,1,NA,"Instruments",2,2,"right","",NA,0,0,1,1,NA,NA,NA,NA,NA,NA,NA,NA,NA,NA,NA,NA,NA,NA,NA,NA,NA,NA,NA,NA,NA,NA,NA,NA
"52","stim/objects/HouseObjects/sponge.png",201,9,201,0.5,"stim/41.jpeg",4,1,1,NA,"HouseObjects",1,4,"left","left",0.758999825,1,1,1,1,NA,NA,NA,NA,NA,NA,NA,NA,NA,NA,NA,NA,NA,NA,NA,NA,NA,NA,NA,NA,NA,NA,NA,NA
"171","stim/objects/Instruments/triangle.png",202,9,202,0.5,"stim/42.jpeg",4,2,1,NA,"Instruments",2,4,"right","right",0.756000042,1,1,1,1,NA,NA,NA,NA,NA,NA,NA,NA,NA,NA,NA,NA,NA,NA,NA,NA,NA,NA,NA,NA,NA,NA,NA,NA
"193","stim/objects/Instruments/trombone2.png",203,9,203,0.9,"stim/13.jpeg",1,3,3,NA,"Instruments",2,4,"right","right",0.592000008,1,1,1,1,NA,NA,NA,NA,NA,NA,NA,NA,NA,NA,NA,NA,NA,NA,NA,NA,NA,NA,NA,NA,NA,NA,NA,NA
"48","stim/objects/HouseObjects/scale2.png",204,9,204,0.7,"stim/64.jpeg",6,4,2,NA,"HouseObjects",1,3,"left","left",0.56799984,1,1,1,1,NA,NA,NA,NA,NA,NA,NA,NA,NA,NA,NA,NA,NA,NA,NA,NA,NA,NA,NA,NA,NA,NA,NA,NA
"12","stim/objects/HouseObjects/rug2.png",205,9,205,0.7,"stim/61.jpeg",6,1,2,NA,"HouseObjects",1,3,"left","left",0.542999983,1,1,1,1,NA,NA,NA,NA,NA,NA,NA,NA,NA,NA,NA,NA,NA,NA,NA,NA,NA,NA,NA,NA,NA,NA,NA,NA
"81","stim/objects/HouseObjects/thread2.png",206,9,206,0.9,"stim/21.jpeg",2,1,3,NA,"HouseObjects",1,2,"left","left",0.579999924,1,1,1,1,NA,NA,NA,NA,NA,NA,NA,NA,NA,NA,NA,NA,NA,NA,NA,NA,NA,NA,NA,NA,NA,NA,NA,NA
"86","stim/objects/HouseObjects/towel.png",207,9,207,0.3,"stim/52.jpeg",5,2,2,NA,"HouseObjects",1,3,"left","right",0.717000008,0,0,1,1,NA,NA,NA,NA,NA,NA,NA,NA,NA,NA,NA,NA,NA,NA,NA,NA,NA,NA,NA,NA,NA,NA,NA,NA
"41","stim/objects/HouseObjects/scale.png",208,9,208,0.5,"stim/34.jpeg",3,4,1,NA,"HouseObjects",1,3,"left","left",0.771999836,1,1,1,1,NA,NA,NA,NA,NA,NA,NA,NA,NA,NA,NA,NA,NA,NA,NA,NA,NA,NA,NA,NA,NA,NA,NA,NA
"239","stim/objects/Instruments/xylophone.png",209,9,209,0.7,"stim/54.jpeg",5,4,2,NA,"Instruments",2,3,"right","right",0.546999931,1,1,1,1,NA,NA,NA,NA,NA,NA,NA,NA,NA,NA,NA,NA,NA,NA,NA,NA,NA,NA,NA,NA,NA,NA,NA,NA
"71","stim/objects/HouseObjects/thermometer.png",210,9,210,0.5,"stim/44.jpeg",4,4,1,NA,"HouseObjects",1,4,"left","right",0.674000025,0,0,1,1,NA,NA,NA,NA,NA,NA,NA,NA,NA,NA,NA,NA,NA,NA,NA,NA,NA,NA,NA,NA,NA,NA,NA,NA
"143","stim/objects/Instruments/speaker2.png",211,9,211,0.3,"stim/63.jpeg",6,3,2,NA,"Instruments",2,1,"right","right",0.802999973,1,1,1,1,NA,NA,NA,NA,NA,NA,NA,NA,NA,NA,NA,NA,NA,NA,NA,NA,NA,NA,NA,NA,NA,NA,NA,NA
"94","stim/objects/HouseObjects/towel2.png",212,9,212,0.9,"stim/22.jpeg",2,2,3,NA,"HouseObjects",1,3,"left","left",0.554000139,1,1,1,1,NA,NA,NA,NA,NA,NA,NA,NA,NA,NA,NA,NA,NA,NA,NA,NA,NA,NA,NA,NA,NA,NA,NA,NA
"59","stim/objects/HouseObjects/spraybottle.png",213,9,213,0.5,"stim/42.jpeg",4,2,1,NA,"HouseObjects",1,3,"left","left",0.822999954,1,1,1,1,NA,NA,NA,NA,NA,NA,NA,NA,NA,NA,NA,NA,NA,NA,NA,NA,NA,NA,NA,NA,NA,NA,NA,NA
"87","stim/objects/HouseObjects/towel.png",214,9,214,0.3,"stim/52.jpeg",5,2,2,NA,"HouseObjects",1,4,"left","",NA,0,0,1,1,NA,NA,NA,NA,NA,NA,NA,NA,NA,NA,NA,NA,NA,NA,NA,NA,NA,NA,NA,NA,NA,NA,NA,NA
"230","stim/objects/Instruments/vuvuzela.png",215,9,215,0.7,"stim/53.jpeg",5,3,2,NA,"Instruments",2,1,"right","",NA,0,0,1,1,NA,NA,NA,NA,NA,NA,NA,NA,NA,NA,NA,NA,NA,NA,NA,NA,NA,NA,NA,NA,NA,NA,NA,NA
"95","stim/objects/HouseObjects/towel2.png",216,9,216,0.9,"stim/22.jpeg",2,2,3,NA,"HouseObjects",1,4,"left","left",0.546000004,1,1,1,1,NA,NA,NA,NA,NA,NA,NA,NA,NA,NA,NA,NA,NA,NA,NA,NA,NA,NA,NA,NA,NA,NA,NA,NA
"108","stim/objects/HouseObjects/vacuumcleaner2.png",217,9,217,0.9,"stim/23.jpeg",2,3,3,NA,"HouseObjects",1,1,"left","left",0.530999899,1,1,1,1,NA,NA,NA,NA,NA,NA,NA,NA,NA,NA,NA,NA,NA,NA,NA,NA,NA,NA,NA,NA,NA,NA,NA,NA
"136","stim/objects/Instruments/saxophone2.png",218,9,218,0.3,"stim/62.jpeg",6,2,2,NA,"Instruments",2,4,"right","right",0.595000029,1,1,1,1,NA,NA,NA,NA,NA,NA,NA,NA,NA,NA,NA,NA,NA,NA,NA,NA,NA,NA,NA,NA,NA,NA,NA,NA
"82","stim/objects/HouseObjects/thread2.png",219,9,219,0.9,"stim/21.jpeg",2,1,3,NA,"HouseObjects",1,2,"left","left",0.513999939,1,1,1,1,NA,NA,NA,NA,NA,NA,NA,NA,NA,NA,NA,NA,NA,NA,NA,NA,NA,NA,NA,NA,NA,NA,NA,NA
"24","stim/objects/HouseObjects/safetypin2.png",220,9,220,0.7,"stim/62.jpeg",6,2,2,NA,"HouseObjects",1,3,"left","right",0.583999872,0,0,1,1,NA,NA,NA,NA,NA,NA,NA,NA,NA,NA,NA,NA,NA,NA,NA,NA,NA,NA,NA,NA,NA,NA,NA,NA
"53","stim/objects/HouseObjects/sponge.png",221,9,221,0.5,"stim/41.jpeg",4,1,1,NA,"HouseObjects",1,4,"left","left",0.775000095,1,1,1,1,NA,NA,NA,NA,NA,NA,NA,NA,NA,NA,NA,NA,NA,NA,NA,NA,NA,NA,NA,NA,NA,NA,NA,NA
"199","stim/objects/Instruments/trumpet.png",222,9,222,0.5,"stim/44.jpeg",4,4,1,NA,"Instruments",2,3,"right","",NA,0,0,1,1,NA,NA,NA,NA,NA,NA,NA,NA,NA,NA,NA,NA,NA,NA,NA,NA,NA,NA,NA,NA,NA,NA,NA,NA
"83","stim/objects/HouseObjects/thread2.png",223,9,223,0.9,"stim/21.jpeg",2,1,3,NA,"HouseObjects",1,2,"left","left",0.618000031,1,1,1,1,NA,NA,NA,NA,NA,NA,NA,NA,NA,NA,NA,NA,NA,NA,NA,NA,NA,NA,NA,NA,NA,NA,NA,NA
"180","stim/objects/Instruments/triangle2.png",224,9,224,0.9,"stim/12.jpeg",1,2,3,NA,"Instruments",2,1,"right","right",0.616999865,1,1,1,1,NA,NA,NA,NA,NA,NA,NA,NA,NA,NA,NA,NA,NA,NA,NA,NA,NA,NA,NA,NA,NA,NA,NA,NA
"231","stim/objects/Instruments/vuvuzela.png",225,9,225,0.7,"stim/53.jpeg",5,3,2,NA,"Instruments",2,4,"right","",NA,0,0,1,1,NA,NA,NA,NA,NA,NA,NA,NA,NA,NA,NA,NA,NA,NA,NA,NA,NA,NA,NA,NA,NA,NA,NA,NA
"133","stim/objects/Instruments/saxophone.png",226,9,226,0.5,"stim/32.jpeg",3,2,1,NA,"Instruments",2,2,"right","left",0.532999992,0,0,1,1,NA,NA,NA,NA,NA,NA,NA,NA,NA,NA,NA,NA,NA,NA,NA,NA,NA,NA,NA,NA,NA,NA,NA,NA
"35","stim/objects/HouseObjects/saw2.png",227,9,227,0.7,"stim/63.jpeg",6,3,2,NA,"HouseObjects",1,1,"left","right",0.644999743,0,0,1,1,NA,NA,NA,NA,NA,NA,NA,NA,NA,NA,NA,NA,NA,NA,NA,NA,NA,NA,NA,NA,NA,NA,NA,NA
"185","stim/objects/Instruments/trombone.png",228,9,228,0.5,"stim/43.jpeg",4,3,1,NA,"Instruments",2,1,"right","left",0.839999914,0,0,1,1,NA,NA,NA,NA,NA,NA,NA,NA,NA,NA,NA,NA,NA,NA,NA,NA,NA,NA,NA,NA,NA,NA,NA,NA
"17","stim/objects/HouseObjects/safetypin.png",229,9,229,0.5,"stim/32.jpeg",3,2,1,NA,"HouseObjects",1,1,"left","left",0.792000055,1,1,1,1,NA,NA,NA,NA,NA,NA,NA,NA,NA,NA,NA,NA,NA,NA,NA,NA,NA,NA,NA,NA,NA,NA,NA,NA
"5","stim/objects/HouseObjects/rug.png",230,9,230,0.5,"stim/31.jpeg",3,1,1,NA,"HouseObjects",1,3,"left","left",0.639999866,1,1,1,1,NA,NA,NA,NA,NA,NA,NA,NA,NA,NA,NA,NA,NA,NA,NA,NA,NA,NA,NA,NA,NA,NA,NA,NA
"36","stim/objects/HouseObjects/saw2.png",231,9,231,0.7,"stim/63.jpeg",6,3,2,NA,"HouseObjects",1,2,"left","left",0.711999893,1,1,1,1,NA,NA,NA,NA,NA,NA,NA,NA,NA,NA,NA,NA,NA,NA,NA,NA,NA,NA,NA,NA,NA,NA,NA,NA
"140","stim/objects/Instruments/speaker.png",232,9,232,0.5,"stim/33.jpeg",3,3,1,NA,"Instruments",2,4,"right","left",0.610999823,0,0,1,1,NA,NA,NA,NA,NA,NA,NA,NA,NA,NA,NA,NA,NA,NA,NA,NA,NA,NA,NA,NA,NA,NA,NA,NA
"141","stim/objects/Instruments/speaker.png",233,9,233,0.5,"stim/33.jpeg",3,3,1,NA,"Instruments",2,1,"right","left",0.537999868,0,0,1,1,NA,NA,NA,NA,NA,NA,NA,NA,NA,NA,NA,NA,NA,NA,NA,NA,NA,NA,NA,NA,NA,NA,NA,NA
"96","stim/objects/HouseObjects/towel2.png",234,9,234,0.9,"stim/22.jpeg",2,2,3,NA,"HouseObjects",1,4,"left","",NA,0,0,1,1,NA,NA,NA,NA,NA,NA,NA,NA,NA,NA,NA,NA,NA,NA,NA,NA,NA,NA,NA,NA,NA,NA,NA,NA
"149","stim/objects/Instruments/tambourine.png",235,9,235,0.5,"stim/34.jpeg",3,4,1,NA,"Instruments",2,4,"right","",NA,0,0,1,1,NA,NA,NA,NA,NA,NA,NA,NA,NA,NA,NA,NA,NA,NA,NA,NA,NA,NA,NA,NA,NA,NA,NA,NA
"144","stim/objects/Instruments/speaker2.png",236,9,236,0.3,"stim/63.jpeg",6,3,2,NA,"Instruments",2,2,"right","left",0.597999811,0,0,1,1,NA,NA,NA,NA,NA,NA,NA,NA,NA,NA,NA,NA,NA,NA,NA,NA,NA,NA,NA,NA,NA,NA,NA,NA
"194","stim/objects/Instruments/trombone2.png",237,9,237,0.9,"stim/13.jpeg",1,3,3,NA,"Instruments",2,4,"right","right",0.736000061,1,1,1,1,NA,NA,NA,NA,NA,NA,NA,NA,NA,NA,NA,NA,NA,NA,NA,NA,NA,NA,NA,NA,NA,NA,NA,NA
"124","stim/objects/Instruments/record_player.png",238,9,238,0.5,"stim/31.jpeg",3,1,1,NA,"Instruments",2,3,"right","left",0.576999903,0,0,1,1,NA,NA,NA,NA,NA,NA,NA,NA,NA,NA,NA,NA,NA,NA,NA,NA,NA,NA,NA,NA,NA,NA,NA,NA
"84","stim/objects/HouseObjects/thread2.png",239,9,239,0.9,"stim/21.jpeg",2,1,3,NA,"HouseObjects",1,4,"left","left",0.592999935,1,1,1,1,NA,NA,NA,NA,NA,NA,NA,NA,NA,NA,NA,NA,NA,NA,NA,NA,NA,NA,NA,NA,NA,NA,NA,NA
"125","stim/objects/Instruments/record_player.png",240,9,240,0.5,"stim/31.jpeg",3,1,1,NA,"Instruments",2,4,"right","left",0.554999828,0,0,1,1,NA,NA,NA,NA,NA,NA,NA,NA,NA,NA,NA,NA,NA,NA,NA,NA,NA,NA,NA,NA,NA,NA,NA,NA
"402","stim/objects/HouseObjects/remote.png",248,9,241,0.3,"stim/54.jpeg",5,4,2,1,"HouseObjects",1,2,"left","right",0.671000004,0,0,1,0,71,9,1,0.3,1,"stim/54.jpeg",5,4,"stim/54.jpeg",2,"right",1.934999943,3,4,1.966999769,1,6.855000019,71,0,1,NA,0,NA,1
"457","stim/objects/Instruments/flute.png",249,9,242,0.9,"stim/14.jpeg",1,4,3,2,"Instruments",2,4,"right","right",0.697999954,1,1,1,0,NA,NA,NA,NA,NA,NA,NA,NA,NA,NA,NA,NA,NA,NA,NA,NA,NA,NA,NA,NA,NA,NA,NA,NA
"291","stim/objects/HouseObjects/doormat.png",250,9,243,0.9,"stim/23.jpeg",2,3,3,2,"HouseObjects",1,2,"left","left",0.585000038,1,1,1,0,NA,NA,NA,NA,NA,NA,NA,NA,NA,NA,NA,NA,NA,NA,NA,NA,NA,NA,NA,NA,NA,NA,NA,NA
"556","stim/objects/Instruments/marimba2.png",251,9,244,0.1,"stim/21.jpeg",2,1,3,1,"Instruments",2,2,"right","left",0.524999857,0,0,1,0,17,9,1,0.1,2,"stim/21.jpeg",2,1,"stim/21.jpeg",2,"left",1.167999983,3,2,12.51899981,3,16.17199993,17,1,0,0,0,0,1
"508","stim/objects/Instruments/gong.png",252,9,245,0.9,"stim/13.jpeg",1,3,3,2,"Instruments",2,1,"right","right",0.610000134,1,1,1,0,NA,NA,NA,NA,NA,NA,NA,NA,NA,NA,NA,NA,NA,NA,NA,NA,NA,NA,NA,NA,NA,NA,NA,NA
"448","stim/objects/Instruments/electricdrumset.png",253,9,246,0.7,"stim/52.jpeg",5,2,2,2,"Instruments",2,3,"right","right",0.638000011,1,1,1,0,NA,NA,NA,NA,NA,NA,NA,NA,NA,NA,NA,NA,NA,NA,NA,NA,NA,NA,NA,NA,NA,NA,NA,NA
"292","stim/objects/HouseObjects/doormat.png",254,9,247,0.9,"stim/22.jpeg",2,2,3,2,"HouseObjects",1,1,"left","left",0.483999968,1,1,1,0,NA,NA,NA,NA,NA,NA,NA,NA,NA,NA,NA,NA,NA,NA,NA,NA,NA,NA,NA,NA,NA,NA,NA,NA
"409","stim/objects/Instruments/acousticguitar.png",255,9,248,0.5,"stim/32.jpeg",3,2,1,2,"Instruments",2,2,"right","left",0.571000099,0,0,1,0,NA,NA,NA,NA,NA,NA,NA,NA,NA,NA,NA,NA,NA,NA,NA,NA,NA,NA,NA,NA,NA,NA,NA,NA
"390","stim/objects/HouseObjects/knife.png",256,9,249,0.5,"stim/43.jpeg",4,3,1,1,"HouseObjects",1,3,"left","right",0.821000099,0,0,1,0,113,9,1,0.5,2,"stim/43.jpeg",4,3,"stim/43.jpeg",3,"right",1.375999928,4,2,1.64199996,4,7.061999798,113,0,0,NA,0,NA,1
"429","stim/objects/Instruments/chime2.png",257,9,250,0.3,"stim/64.jpeg",6,4,2,1,"Instruments",2,4,"right","left",0.569999933,0,0,1,0,62,9,1,0.3,2,"stim/64.jpeg",6,4,"stim/64.jpeg",4,"left",3.292999744,3,2,6.733999729,4,2.500999928,62,1,0,0,1,1,1
"287","stim/objects/HouseObjects/dishsoap.png",258,9,251,0.7,"stim/63.jpeg",6,3,2,2,"HouseObjects",1,2,"left","left",0.552999973,1,1,1,0,NA,NA,NA,NA,NA,NA,NA,NA,NA,NA,NA,NA,NA,NA,NA,NA,NA,NA,NA,NA,NA,NA,NA,NA
"458","stim/objects/Instruments/flute.png",259,9,252,0.9,"stim/14.jpeg",1,4,3,2,"Instruments",2,1,"right","right",0.549000025,1,1,1,0,NA,NA,NA,NA,NA,NA,NA,NA,NA,NA,NA,NA,NA,NA,NA,NA,NA,NA,NA,NA,NA,NA,NA,NA
"452","stim/objects/Instruments/electricguitar.png",260,9,253,0.7,"stim/54.jpeg",5,4,2,2,"Instruments",2,3,"right","right",0.628000021,1,1,1,0,NA,NA,NA,NA,NA,NA,NA,NA,NA,NA,NA,NA,NA,NA,NA,NA,NA,NA,NA,NA,NA,NA,NA,NA
"490","stim/objects/Instruments/frenchhorn.png",261,9,254,0.9,"stim/14.jpeg",1,4,3,2,"Instruments",2,3,"right","right",0.52699995,1,1,1,0,NA,NA,NA,NA,NA,NA,NA,NA,NA,NA,NA,NA,NA,NA,NA,NA,NA,NA,NA,NA,NA,NA,NA,NA
"359","stim/objects/HouseObjects/glass.png",262,9,255,0.9,"stim/24.jpeg",2,4,3,2,"HouseObjects",1,1,"left","left",0.520999908,1,1,1,0,NA,NA,NA,NA,NA,NA,NA,NA,NA,NA,NA,NA,NA,NA,NA,NA,NA,NA,NA,NA,NA,NA,NA,NA
"561","stim/objects/Instruments/musicstand.png",263,9,256,0.7,"stim/52.jpeg",5,2,2,1,"Instruments",2,2,"right","right",0.486999989,1,1,1,0,10,9,1,0.7,2,"stim/52.jpeg",5,2,"stim/52.jpeg",2,"left",1.750999928,3,2,7.148000002,3,8.474999905,10,1,1,1,0,0,1
"244","stim/objects/HouseObjects/ballofstring.png",264,9,257,0.5,"stim/32.jpeg",3,2,1,2,"HouseObjects",1,2,"left","left",0.611000061,1,1,1,0,NA,NA,NA,NA,NA,NA,NA,NA,NA,NA,NA,NA,NA,NA,NA,NA,NA,NA,NA,NA,NA,NA,NA,NA
"241","stim/objects/HouseObjects/ashtray.png",265,9,258,0.5,"stim/31.jpeg",3,1,1,2,"HouseObjects",1,2,"left","left",0.534999847,1,1,1,0,NA,NA,NA,NA,NA,NA,NA,NA,NA,NA,NA,NA,NA,NA,NA,NA,NA,NA,NA,NA,NA,NA,NA,NA
"342","stim/objects/HouseObjects/garbagebin.png",266,9,259,0.9,"stim/21.jpeg",2,1,3,2,"HouseObjects",1,3,"left","left",0.483999729,1,1,1,0,NA,NA,NA,NA,NA,NA,NA,NA,NA,NA,NA,NA,NA,NA,NA,NA,NA,NA,NA,NA,NA,NA,NA,NA
"436","stim/objects/Instruments/cymbal.png",267,9,260,0.7,"stim/54.jpeg",5,4,2,2,"Instruments",2,2,"right","right",0.552000046,1,1,1,0,NA,NA,NA,NA,NA,NA,NA,NA,NA,NA,NA,NA,NA,NA,NA,NA,NA,NA,NA,NA,NA,NA,NA,NA
"557","stim/objects/Instruments/metronome.png",268,9,261,0.5,"stim/43.jpeg",4,3,1,1,"Instruments",2,3,"right","left",0.769000053,0,0,1,0,140,9,1,0.5,2,"stim/43.jpeg",4,3,"stim/43.jpeg",3,"left",1.572999954,4,2,8.382999897,1,5.210999966,140,1,0,0,0,0,1
"459","stim/objects/Instruments/flute.png",269,9,262,0.9,"stim/13.jpeg",1,3,3,2,"Instruments",2,3,"right","right",0.60800004,1,1,1,0,NA,NA,NA,NA,NA,NA,NA,NA,NA,NA,NA,NA,NA,NA,NA,NA,NA,NA,NA,NA,NA,NA,NA,NA
"444","stim/objects/Instruments/drums.png",270,9,263,0.7,"stim/51.jpeg",5,1,2,2,"Instruments",2,2,"right","right",0.584000111,1,1,1,0,NA,NA,NA,NA,NA,NA,NA,NA,NA,NA,NA,NA,NA,NA,NA,NA,NA,NA,NA,NA,NA,NA,NA,NA
"437","stim/objects/Instruments/cymbal.png",271,9,264,0.7,"stim/51.jpeg",5,1,2,2,"Instruments",2,4,"right","right",0.546999931,1,1,1,0,NA,NA,NA,NA,NA,NA,NA,NA,NA,NA,NA,NA,NA,NA,NA,NA,NA,NA,NA,NA,NA,NA,NA,NA
"261","stim/objects/HouseObjects/bottle2.png",272,9,265,0.7,"stim/61.jpeg",6,1,2,1,"HouseObjects",1,4,"left","left",0.618000031,1,1,1,0,37,9,1,0.7,1,"stim/61.jpeg",6,1,"stim/61.jpeg",4,"left",2.393999815,4,4,5.195999861,1,3.008999825,37,1,0,0,0,0,1
"524","stim/objects/Instruments/grandpiano.png",273,9,266,0.9,"stim/13.jpeg",1,3,3,2,"Instruments",2,3,"right","right",0.562999964,1,1,1,0,NA,NA,NA,NA,NA,NA,NA,NA,NA,NA,NA,NA,NA,NA,NA,NA,NA,NA,NA,NA,NA,NA,NA,NA
"262","stim/objects/HouseObjects/broom.png",274,9,267,0.5,"stim/42.jpeg",4,2,1,2,"HouseObjects",1,3,"left","",NA,0,0,1,0,NA,NA,NA,NA,NA,NA,NA,NA,NA,NA,NA,NA,NA,NA,NA,NA,NA,NA,NA,NA,NA,NA,NA,NA
"460","stim/objects/Instruments/flute.png",275,9,268,0.9,"stim/11.jpeg",1,1,3,2,"Instruments",2,3,"right","right",0.776999712,1,1,1,0,NA,NA,NA,NA,NA,NA,NA,NA,NA,NA,NA,NA,NA,NA,NA,NA,NA,NA,NA,NA,NA,NA,NA,NA
"552","stim/objects/Instruments/laud2.png",276,9,269,0.1,"stim/23.jpeg",2,3,3,1,"Instruments",2,4,"right","left",0.552999973,0,0,1,0,191,9,1,0.1,2,"stim/23.jpeg",2,3,"stim/23.jpeg",4,"right",1.095999956,4,2,4.247999907,4,0.51699996,191,0,0,NA,1,NA,1
"473","stim/objects/Instruments/flutetrans.png",277,9,270,0.9,"stim/13.jpeg",1,3,3,2,"Instruments",2,2,"right","",NA,0,0,1,0,NA,NA,NA,NA,NA,NA,NA,NA,NA,NA,NA,NA,NA,NA,NA,NA,NA,NA,NA,NA,NA,NA,NA,NA
"308","stim/objects/HouseObjects/dustpan.png",278,9,271,0.9,"stim/24.jpeg",2,4,3,2,"HouseObjects",1,2,"left","",NA,0,0,1,0,NA,NA,NA,NA,NA,NA,NA,NA,NA,NA,NA,NA,NA,NA,NA,NA,NA,NA,NA,NA,NA,NA,NA,NA
"491","stim/objects/Instruments/frenchhorn.png",279,9,272,0.9,"stim/14.jpeg",1,4,3,2,"Instruments",2,4,"right","right",0.505000114,1,1,1,0,NA,NA,NA,NA,NA,NA,NA,NA,NA,NA,NA,NA,NA,NA,NA,NA,NA,NA,NA,NA,NA,NA,NA,NA
"326","stim/objects/HouseObjects/flyswatter.png",280,9,273,0.9,"stim/22.jpeg",2,2,3,2,"HouseObjects",1,2,"left","left",0.481999874,1,1,1,0,NA,NA,NA,NA,NA,NA,NA,NA,NA,NA,NA,NA,NA,NA,NA,NA,NA,NA,NA,NA,NA,NA,NA,NA
"256","stim/objects/HouseObjects/blender.png",281,9,274,0.5,"stim/43.jpeg",4,3,1,2,"HouseObjects",1,4,"left","right",0.518999815,0,0,1,0,NA,NA,NA,NA,NA,NA,NA,NA,NA,NA,NA,NA,NA,NA,NA,NA,NA,NA,NA,NA,NA,NA,NA,NA
"393","stim/objects/HouseObjects/lintroller2.png",282,9,275,0.9,"stim/24.jpeg",2,4,3,1,"HouseObjects",1,1,"left","left",0.579999924,1,1,1,0,98,9,1,0.9,1,"stim/24.jpeg",2,4,"stim/24.jpeg",1,"left",2.468999863,2,4,3.151000023,2,3.329999924,98,1,1,1,0,0,1
"397","stim/objects/HouseObjects/pan2.png",283,9,276,0.9,"stim/22.jpeg",2,2,3,1,"HouseObjects",1,4,"left","left",0.576999903,1,1,1,0,88,9,1,0.9,1,"stim/22.jpeg",2,2,"stim/22.jpeg",4,"right",1.15199995,3,2,1.895999908,1,3.467000008,88,0,1,NA,0,NA,1
"525","stim/objects/Instruments/grandpiano.png",284,9,277,0.9,"stim/11.jpeg",1,1,3,2,"Instruments",2,2,"right","right",0.610999823,1,1,1,0,NA,NA,NA,NA,NA,NA,NA,NA,NA,NA,NA,NA,NA,NA,NA,NA,NA,NA,NA,NA,NA,NA,NA,NA
"526","stim/objects/Instruments/grandpiano.png",285,9,278,0.9,"stim/14.jpeg",1,4,3,2,"Instruments",2,3,"right","left",0.711999893,0,0,1,0,NA,NA,NA,NA,NA,NA,NA,NA,NA,NA,NA,NA,NA,NA,NA,NA,NA,NA,NA,NA,NA,NA,NA,NA
"360","stim/objects/HouseObjects/glass.png",286,9,279,0.9,"stim/22.jpeg",2,2,3,2,"HouseObjects",1,1,"left","left",0.698999882,1,1,1,0,NA,NA,NA,NA,NA,NA,NA,NA,NA,NA,NA,NA,NA,NA,NA,NA,NA,NA,NA,NA,NA,NA,NA,NA
"327","stim/objects/HouseObjects/flyswatter.png",287,9,280,0.9,"stim/24.jpeg",2,4,3,2,"HouseObjects",1,3,"left","left",0.579999924,1,1,1,0,NA,NA,NA,NA,NA,NA,NA,NA,NA,NA,NA,NA,NA,NA,NA,NA,NA,NA,NA,NA,NA,NA,NA,NA
"550","stim/objects/Instruments/keyboard2.png",288,9,281,0.9,"stim/14.jpeg",1,4,3,1,"Instruments",2,2,"right","right",0.703999758,1,1,1,0,66,9,1,0.9,2,"stim/14.jpeg",1,4,"stim/14.jpeg",2,"left",0.965999842,4,3,2.286999941,4,2.599999905,66,1,0,0,0,0,1
"279","stim/objects/HouseObjects/coffee.png",289,9,282,0.7,"stim/61.jpeg",6,1,2,2,"HouseObjects",1,4,"left","left",0.573999882,1,1,1,0,NA,NA,NA,NA,NA,NA,NA,NA,NA,NA,NA,NA,NA,NA,NA,NA,NA,NA,NA,NA,NA,NA,NA,NA
"427","stim/objects/Instruments/chime.png",290,9,283,0.5,"stim/41.jpeg",4,1,1,2,"Instruments",2,4,"right","left",0.732999802,0,0,1,0,NA,NA,NA,NA,NA,NA,NA,NA,NA,NA,NA,NA,NA,NA,NA,NA,NA,NA,NA,NA,NA,NA,NA,NA
"387","stim/objects/HouseObjects/ironingboard2.png",291,9,284,0.9,"stim/21.jpeg",2,1,3,1,"HouseObjects",1,4,"left","left",0.663999796,1,1,1,0,42,9,1,0.9,1,"stim/21.jpeg",2,1,"stim/21.jpeg",4,"right",1.768000126,2,4,3.939999819,2,2.026000023,42,0,0,NA,0,NA,1
"267","stim/objects/HouseObjects/bucket2.png",292,9,285,0.7,"stim/63.jpeg",6,3,2,1,"HouseObjects",1,4,"left","left",0.592999935,1,1,1,0,143,9,1,0.7,1,"stim/63.jpeg",6,3,"stim/63.jpeg",4,"right",0.788000107,3,2,1.978999853,4,0.801999807,143,0,0,NA,1,NA,1
"361","stim/objects/HouseObjects/glass.png",293,9,286,0.9,"stim/22.jpeg",2,2,3,2,"HouseObjects",1,2,"left","",NA,0,0,1,0,NA,NA,NA,NA,NA,NA,NA,NA,NA,NA,NA,NA,NA,NA,NA,NA,NA,NA,NA,NA,NA,NA,NA,NA
"440","stim/objects/Instruments/doublebass.png",294,9,287,0.7,"stim/51.jpeg",5,1,2,2,"Instruments",2,4,"right","right",0.509999752,1,1,1,0,NA,NA,NA,NA,NA,NA,NA,NA,NA,NA,NA,NA,NA,NA,NA,NA,NA,NA,NA,NA,NA,NA,NA,NA
"449","stim/objects/Instruments/electricdrumset.png",295,9,288,0.7,"stim/53.jpeg",5,3,2,2,"Instruments",2,1,"right","right",0.436999798,1,1,1,0,NA,NA,NA,NA,NA,NA,NA,NA,NA,NA,NA,NA,NA,NA,NA,NA,NA,NA,NA,NA,NA,NA,NA,NA
"343","stim/objects/HouseObjects/garbagebin.png",296,9,289,0.9,"stim/21.jpeg",2,1,3,2,"HouseObjects",1,2,"left","left",0.529999733,1,1,1,0,NA,NA,NA,NA,NA,NA,NA,NA,NA,NA,NA,NA,NA,NA,NA,NA,NA,NA,NA,NA,NA,NA,NA,NA
"377","stim/objects/HouseObjects/glassmop2.png",297,9,290,0.1,"stim/12.jpeg",1,2,3,1,"HouseObjects",1,3,"left","right",0.679999828,0,0,1,0,36,9,1,0.1,1,"stim/12.jpeg",1,2,"stim/12.jpeg",3,"right",2.981999874,2,2,7.31799984,1,2.842999935,36,0,1,NA,0,NA,1
"414","stim/objects/Instruments/balalaika2.png",298,9,291,0.7,"stim/51.jpeg",5,1,2,1,"Instruments",2,1,"right","right",0.607999802,1,1,1,0,177,9,1,0.7,2,"stim/51.jpeg",5,1,"stim/51.jpeg",1,"left",0.927000046,4,3,3.967999935,3,1.042999983,177,1,0,0,0,0,1
"527","stim/objects/Instruments/grandpiano.png",299,9,292,0.9,"stim/11.jpeg",1,1,3,2,"Instruments",2,2,"right","right",0.620000124,1,1,1,0,NA,NA,NA,NA,NA,NA,NA,NA,NA,NA,NA,NA,NA,NA,NA,NA,NA,NA,NA,NA,NA,NA,NA,NA
"495","stim/objects/Instruments/frenchhorn.png",300,9,293,0.9,"stim/11.jpeg",1,1,3,2,"Instruments",2,4,"right","right",0.740999937,1,1,1,0,NA,NA,NA,NA,NA,NA,NA,NA,NA,NA,NA,NA,NA,NA,NA,NA,NA,NA,NA,NA,NA,NA,NA,NA
"445","stim/objects/Instruments/drums.png",301,9,294,0.7,"stim/53.jpeg",5,3,2,2,"Instruments",2,1,"right","right",0.536000013,1,1,1,0,NA,NA,NA,NA,NA,NA,NA,NA,NA,NA,NA,NA,NA,NA,NA,NA,NA,NA,NA,NA,NA,NA,NA,NA
"253","stim/objects/HouseObjects/bleachbottle.png",302,9,295,0.5,"stim/31.jpeg",3,1,1,2,"HouseObjects",1,1,"left","left",0.629999876,1,1,1,0,NA,NA,NA,NA,NA,NA,NA,NA,NA,NA,NA,NA,NA,NA,NA,NA,NA,NA,NA,NA,NA,NA,NA,NA
"496","stim/objects/Instruments/frenchhorn.png",303,9,296,0.9,"stim/13.jpeg",1,3,3,2,"Instruments",2,4,"right","right",0.755000114,1,1,1,0,NA,NA,NA,NA,NA,NA,NA,NA,NA,NA,NA,NA,NA,NA,NA,NA,NA,NA,NA,NA,NA,NA,NA,NA
"265","stim/objects/HouseObjects/bucket.png",304,9,297,0.5,"stim/42.jpeg",4,2,1,2,"HouseObjects",1,1,"left","",NA,0,0,1,0,NA,NA,NA,NA,NA,NA,NA,NA,NA,NA,NA,NA,NA,NA,NA,NA,NA,NA,NA,NA,NA,NA,NA,NA
"344","stim/objects/HouseObjects/garbagebin.png",305,9,298,0.9,"stim/22.jpeg",2,2,3,2,"HouseObjects",1,2,"left","left",0.53399992,1,1,1,0,NA,NA,NA,NA,NA,NA,NA,NA,NA,NA,NA,NA,NA,NA,NA,NA,NA,NA,NA,NA,NA,NA,NA,NA
"380","stim/objects/HouseObjects/handbrush.png",306,9,299,0.5,"stim/31.jpeg",3,1,1,1,"HouseObjects",1,2,"left","left",0.757999897,1,1,1,0,162,9,1,0.5,1,"stim/31.jpeg",3,1,"stim/31.jpeg",2,"right",1.726999998,3,2,2.622999907,3,2.971999884,162,0,0,NA,0,NA,1
"294","stim/objects/HouseObjects/doormat.png",307,9,300,0.9,"stim/24.jpeg",2,4,3,2,"HouseObjects",1,2,"left","left",0.608999968,1,1,1,0,NA,NA,NA,NA,NA,NA,NA,NA,NA,NA,NA,NA,NA,NA,NA,NA,NA,NA,NA,NA,NA,NA,NA,NA
"399","stim/objects/HouseObjects/pitcher2.png",308,9,301,0.9,"stim/23.jpeg",2,3,3,1,"HouseObjects",1,3,"left","left",0.682999849,1,1,1,0,145,9,1,0.9,1,"stim/23.jpeg",2,3,"stim/23.jpeg",3,"right",1.085000038,3,1,1.003999949,2,4.312999964,145,0,0,NA,0,NA,1
"545","stim/objects/Instruments/harp.png",309,9,302,0.5,"stim/34.jpeg",3,4,1,1,"Instruments",2,2,"right","left",0.811999798,0,0,1,0,171,9,1,0.5,1,"stim/34.jpeg",3,4,"stim/34.jpeg",2,"left",1.151000023,3,4,3.240999937,3,1.054999828,171,1,1,1,0,0,1
"310","stim/objects/HouseObjects/dustpan.png",310,9,303,0.9,"stim/21.jpeg",2,1,3,2,"HouseObjects",1,2,"left","left",0.527999878,1,1,1,0,NA,NA,NA,NA,NA,NA,NA,NA,NA,NA,NA,NA,NA,NA,NA,NA,NA,NA,NA,NA,NA,NA,NA,NA
"511","stim/objects/Instruments/gong.png",311,9,304,0.9,"stim/12.jpeg",1,2,3,2,"Instruments",2,2,"right","right",0.548999786,1,1,1,0,NA,NA,NA,NA,NA,NA,NA,NA,NA,NA,NA,NA,NA,NA,NA,NA,NA,NA,NA,NA,NA,NA,NA,NA
"250","stim/objects/HouseObjects/basket.png",312,9,305,0.5,"stim/31.jpeg",3,1,1,2,"HouseObjects",1,1,"left","left",0.578000069,1,1,1,0,NA,NA,NA,NA,NA,NA,NA,NA,NA,NA,NA,NA,NA,NA,NA,NA,NA,NA,NA,NA,NA,NA,NA,NA
"498","stim/objects/Instruments/frenchhorn.png",313,9,306,0.9,"stim/11.jpeg",1,1,3,2,"Instruments",2,1,"right","right",0.691999912,1,1,1,0,NA,NA,NA,NA,NA,NA,NA,NA,NA,NA,NA,NA,NA,NA,NA,NA,NA,NA,NA,NA,NA,NA,NA,NA
"283","stim/objects/HouseObjects/cushion.png",314,9,307,0.7,"stim/64.jpeg",6,4,2,2,"HouseObjects",1,3,"left","left",0.673000097,1,1,1,0,NA,NA,NA,NA,NA,NA,NA,NA,NA,NA,NA,NA,NA,NA,NA,NA,NA,NA,NA,NA,NA,NA,NA,NA
"475","stim/objects/Instruments/flutetrans.png",315,9,308,0.9,"stim/13.jpeg",1,3,3,2,"Instruments",2,3,"right","right",0.653999805,1,1,1,0,NA,NA,NA,NA,NA,NA,NA,NA,NA,NA,NA,NA,NA,NA,NA,NA,NA,NA,NA,NA,NA,NA,NA,NA
"295","stim/objects/HouseObjects/doormat.png",316,9,309,0.9,"stim/21.jpeg",2,1,3,2,"HouseObjects",1,3,"left","",NA,0,0,1,0,NA,NA,NA,NA,NA,NA,NA,NA,NA,NA,NA,NA,NA,NA,NA,NA,NA,NA,NA,NA,NA,NA,NA,NA
"269","stim/objects/HouseObjects/clock.png",317,9,310,0.5,"stim/43.jpeg",4,3,1,2,"HouseObjects",1,1,"left","left",0.698999882,1,1,1,0,NA,NA,NA,NA,NA,NA,NA,NA,NA,NA,NA,NA,NA,NA,NA,NA,NA,NA,NA,NA,NA,NA,NA,NA
"476","stim/objects/Instruments/flutetrans.png",318,9,311,0.9,"stim/11.jpeg",1,1,3,2,"Instruments",2,2,"right","right",0.506000042,1,1,1,0,NA,NA,NA,NA,NA,NA,NA,NA,NA,NA,NA,NA,NA,NA,NA,NA,NA,NA,NA,NA,NA,NA,NA,NA
"428","stim/objects/Instruments/chime.png",319,9,312,0.5,"stim/44.jpeg",4,4,1,2,"Instruments",2,4,"right","left",0.716999769,0,0,1,0,NA,NA,NA,NA,NA,NA,NA,NA,NA,NA,NA,NA,NA,NA,NA,NA,NA,NA,NA,NA,NA,NA,NA,NA
"363","stim/objects/HouseObjects/glass.png",320,9,313,0.9,"stim/21.jpeg",2,1,3,2,"HouseObjects",1,2,"left","left",0.582999945,1,1,1,0,NA,NA,NA,NA,NA,NA,NA,NA,NA,NA,NA,NA,NA,NA,NA,NA,NA,NA,NA,NA,NA,NA,NA,NA
"462","stim/objects/Instruments/flute.png",321,9,314,0.9,"stim/11.jpeg",1,1,3,2,"Instruments",2,4,"right","right",0.548000097,1,1,1,0,NA,NA,NA,NA,NA,NA,NA,NA,NA,NA,NA,NA,NA,NA,NA,NA,NA,NA,NA,NA,NA,NA,NA,NA
"375","stim/objects/HouseObjects/glass2.png",322,9,315,0.1,"stim/11.jpeg",1,1,3,1,"HouseObjects",1,4,"left","right",0.53399992,0,0,1,0,100,9,1,0.1,1,"stim/11.jpeg",1,1,"stim/11.jpeg",4,"left",1.318000078,4,2,3.717999935,3,1.222999811,100,1,0,0,0,0,1
"406","stim/objects/Instruments/accordion.png",323,9,316,0.5,"stim/34.jpeg",3,4,1,2,"Instruments",2,1,"right","left",0.618000031,0,0,1,0,NA,NA,NA,NA,NA,NA,NA,NA,NA,NA,NA,NA,NA,NA,NA,NA,NA,NA,NA,NA,NA,NA,NA,NA
"499","stim/objects/Instruments/frenchhorn.png",324,9,317,0.9,"stim/14.jpeg",1,4,3,2,"Instruments",2,1,"right","left",0.681999922,0,0,1,0,NA,NA,NA,NA,NA,NA,NA,NA,NA,NA,NA,NA,NA,NA,NA,NA,NA,NA,NA,NA,NA,NA,NA,NA
"477","stim/objects/Instruments/flutetrans.png",325,9,318,0.9,"stim/13.jpeg",1,3,3,2,"Instruments",2,2,"right","right",0.577000141,1,1,1,0,NA,NA,NA,NA,NA,NA,NA,NA,NA,NA,NA,NA,NA,NA,NA,NA,NA,NA,NA,NA,NA,NA,NA,NA
"364","stim/objects/HouseObjects/glass.png",326,9,319,0.9,"stim/21.jpeg",2,1,3,2,"HouseObjects",1,2,"left","left",0.565999985,1,1,1,0,NA,NA,NA,NA,NA,NA,NA,NA,NA,NA,NA,NA,NA,NA,NA,NA,NA,NA,NA,NA,NA,NA,NA,NA
"255","stim/objects/HouseObjects/bleachbottle2.png",327,9,320,0.3,"stim/52.jpeg",5,2,2,1,"HouseObjects",1,3,"left","right",0.638999939,0,0,1,0,128,9,1,0.3,1,"stim/52.jpeg",5,2,"stim/52.jpeg",3,"right",3.111999989,2,4,1.144000053,1,3.284999847,128,0,0,NA,0,NA,1
"309","stim/objects/HouseObjects/dustpan.png",328,9,321,0.9,"stim/21.jpeg",2,1,3,2,"HouseObjects",1,3,"left","left",0.590999842,1,1,1,0,NA,NA,NA,NA,NA,NA,NA,NA,NA,NA,NA,NA,NA,NA,NA,NA,NA,NA,NA,NA,NA,NA,NA,NA
"347","stim/objects/HouseObjects/garbagebin.png",329,9,322,0.9,"stim/21.jpeg",2,1,3,2,"HouseObjects",1,1,"left","left",0.762000084,1,1,1,0,NA,NA,NA,NA,NA,NA,NA,NA,NA,NA,NA,NA,NA,NA,NA,NA,NA,NA,NA,NA,NA,NA,NA,NA
"296","stim/objects/HouseObjects/doormat.png",330,9,323,0.9,"stim/22.jpeg",2,2,3,2,"HouseObjects",1,3,"left","left",0.586999893,1,1,1,0,NA,NA,NA,NA,NA,NA,NA,NA,NA,NA,NA,NA,NA,NA,NA,NA,NA,NA,NA,NA,NA,NA,NA,NA
"433","stim/objects/Instruments/cornet.png",331,9,324,0.5,"stim/42.jpeg",4,2,1,2,"Instruments",2,2,"right","right",0.736999989,1,1,1,0,NA,NA,NA,NA,NA,NA,NA,NA,NA,NA,NA,NA,NA,NA,NA,NA,NA,NA,NA,NA,NA,NA,NA,NA
"528","stim/objects/Instruments/grandpiano.png",332,9,325,0.9,"stim/14.jpeg",1,4,3,2,"Instruments",2,2,"right","right",0.724999905,1,1,1,0,NA,NA,NA,NA,NA,NA,NA,NA,NA,NA,NA,NA,NA,NA,NA,NA,NA,NA,NA,NA,NA,NA,NA,NA
"348","stim/objects/HouseObjects/garbagebin.png",333,9,326,0.9,"stim/22.jpeg",2,2,3,2,"HouseObjects",1,3,"left","left",0.720000029,1,1,1,0,NA,NA,NA,NA,NA,NA,NA,NA,NA,NA,NA,NA,NA,NA,NA,NA,NA,NA,NA,NA,NA,NA,NA,NA
"512","stim/objects/Instruments/gong.png",334,9,327,0.9,"stim/11.jpeg",1,1,3,2,"Instruments",2,2,"right","right",0.566999912,1,1,1,0,NA,NA,NA,NA,NA,NA,NA,NA,NA,NA,NA,NA,NA,NA,NA,NA,NA,NA,NA,NA,NA,NA,NA,NA
"447","stim/objects/Instruments/drums2.png",335,9,328,0.3,"stim/61.jpeg",6,1,2,1,"Instruments",2,2,"right","left",0.555999994,0,0,1,0,123,9,1,0.3,2,"stim/61.jpeg",6,1,"stim/61.jpeg",2,"right",1.05099988,2,3,3.092999935,3,1.930999994,123,0,0,NA,0,NA,1
"529","stim/objects/Instruments/grandpiano.png",336,9,329,0.9,"stim/11.jpeg",1,1,3,2,"Instruments",2,1,"right","",NA,0,0,1,0,NA,NA,NA,NA,NA,NA,NA,NA,NA,NA,NA,NA,NA,NA,NA,NA,NA,NA,NA,NA,NA,NA,NA,NA
"362","stim/objects/HouseObjects/glass.png",337,9,330,0.9,"stim/24.jpeg",2,4,3,2,"HouseObjects",1,4,"left","left",0.622999907,1,1,1,0,NA,NA,NA,NA,NA,NA,NA,NA,NA,NA,NA,NA,NA,NA,NA,NA,NA,NA,NA,NA,NA,NA,NA,NA
"312","stim/objects/HouseObjects/dustpan.png",338,9,331,0.9,"stim/23.jpeg",2,3,3,2,"HouseObjects",1,3,"left","left",0.552999973,1,1,1,0,NA,NA,NA,NA,NA,NA,NA,NA,NA,NA,NA,NA,NA,NA,NA,NA,NA,NA,NA,NA,NA,NA,NA,NA
"330","stim/objects/HouseObjects/flyswatter.png",339,9,332,0.9,"stim/23.jpeg",2,3,3,2,"HouseObjects",1,1,"left","left",0.598999739,1,1,1,0,NA,NA,NA,NA,NA,NA,NA,NA,NA,NA,NA,NA,NA,NA,NA,NA,NA,NA,NA,NA,NA,NA,NA,NA
"274","stim/objects/HouseObjects/clothesdryingrack2.png",340,9,333,0.7,"stim/61.jpeg",6,1,2,1,"HouseObjects",1,2,"left","left",0.569000006,1,1,1,0,152,9,1,0.7,1,"stim/61.jpeg",6,1,"stim/61.jpeg",2,"left",4.460999966,4,2,3.088000059,3,1.633999825,152,1,0,0,0,0,1
"324","stim/objects/HouseObjects/dustpan2.png",341,9,334,0.1,"stim/12.jpeg",1,2,3,1,"HouseObjects",1,2,"left","right",0.665999889,0,0,1,0,178,9,1,0.1,1,"stim/12.jpeg",1,2,"stim/12.jpeg",2,"right",4.862999916,2,3,7.795000076,1,2.667999744,178,0,0,NA,0,NA,1
"349","stim/objects/HouseObjects/garbagebin.png",342,9,335,0.9,"stim/24.jpeg",2,4,3,2,"HouseObjects",1,3,"left","left",0.490999937,1,1,1,0,NA,NA,NA,NA,NA,NA,NA,NA,NA,NA,NA,NA,NA,NA,NA,NA,NA,NA,NA,NA,NA,NA,NA,NA
"332","stim/objects/HouseObjects/flyswatter.png",343,9,336,0.9,"stim/23.jpeg",2,3,3,2,"HouseObjects",1,2,"left","left",0.536000013,1,1,1,0,NA,NA,NA,NA,NA,NA,NA,NA,NA,NA,NA,NA,NA,NA,NA,NA,NA,NA,NA,NA,NA,NA,NA,NA
"441","stim/objects/Instruments/doublebass.png",344,9,337,0.7,"stim/52.jpeg",5,2,2,2,"Instruments",2,1,"right","right",0.552999973,1,1,1,0,NA,NA,NA,NA,NA,NA,NA,NA,NA,NA,NA,NA,NA,NA,NA,NA,NA,NA,NA,NA,NA,NA,NA,NA
"350","stim/objects/HouseObjects/garbagebin.png",345,9,338,0.9,"stim/24.jpeg",2,4,3,2,"HouseObjects",1,3,"left","",NA,0,0,1,0,NA,NA,NA,NA,NA,NA,NA,NA,NA,NA,NA,NA,NA,NA,NA,NA,NA,NA,NA,NA,NA,NA,NA,NA
"431","stim/objects/Instruments/clarinet.png",346,9,339,0.5,"stim/42.jpeg",4,2,1,2,"Instruments",2,1,"right","",NA,0,0,1,0,NA,NA,NA,NA,NA,NA,NA,NA,NA,NA,NA,NA,NA,NA,NA,NA,NA,NA,NA,NA,NA,NA,NA,NA
"463","stim/objects/Instruments/flute.png",347,9,340,0.9,"stim/13.jpeg",1,3,3,2,"Instruments",2,1,"right","right",0.529999971,1,1,1,0,NA,NA,NA,NA,NA,NA,NA,NA,NA,NA,NA,NA,NA,NA,NA,NA,NA,NA,NA,NA,NA,NA,NA,NA
"313","stim/objects/HouseObjects/dustpan.png",348,9,341,0.9,"stim/22.jpeg",2,2,3,2,"HouseObjects",1,2,"left","left",0.575999737,1,1,1,0,NA,NA,NA,NA,NA,NA,NA,NA,NA,NA,NA,NA,NA,NA,NA,NA,NA,NA,NA,NA,NA,NA,NA,NA
"365","stim/objects/HouseObjects/glass.png",349,9,342,0.9,"stim/22.jpeg",2,2,3,2,"HouseObjects",1,4,"left","left",0.575999975,1,1,1,0,NA,NA,NA,NA,NA,NA,NA,NA,NA,NA,NA,NA,NA,NA,NA,NA,NA,NA,NA,NA,NA,NA,NA,NA
"489","stim/objects/Instruments/flutetrans2.png",350,9,343,0.9,"stim/14.jpeg",1,4,3,1,"Instruments",2,3,"right","right",0.677999973,1,1,1,0,89,9,1,0.9,2,"stim/14.jpeg",1,4,"stim/14.jpeg",3,"right",1.653999805,2,3,2.467000008,4,3.177999973,89,0,0,NA,0,NA,1
"514","stim/objects/Instruments/gong.png",351,9,344,0.9,"stim/12.jpeg",1,2,3,2,"Instruments",2,2,"right","right",0.801999807,1,1,1,0,NA,NA,NA,NA,NA,NA,NA,NA,NA,NA,NA,NA,NA,NA,NA,NA,NA,NA,NA,NA,NA,NA,NA,NA
"478","stim/objects/Instruments/flutetrans.png",352,9,345,0.9,"stim/13.jpeg",1,3,3,2,"Instruments",2,4,"right","right",0.75999999,1,1,1,0,NA,NA,NA,NA,NA,NA,NA,NA,NA,NA,NA,NA,NA,NA,NA,NA,NA,NA,NA,NA,NA,NA,NA,NA
"502","stim/objects/Instruments/frenchhorn.png",353,9,346,0.9,"stim/14.jpeg",1,4,3,2,"Instruments",2,2,"right","right",0.540999889,1,1,1,0,NA,NA,NA,NA,NA,NA,NA,NA,NA,NA,NA,NA,NA,NA,NA,NA,NA,NA,NA,NA,NA,NA,NA,NA
"479","stim/objects/Instruments/flutetrans.png",354,9,347,0.9,"stim/12.jpeg",1,2,3,2,"Instruments",2,3,"right","right",0.65899992,1,1,1,0,NA,NA,NA,NA,NA,NA,NA,NA,NA,NA,NA,NA,NA,NA,NA,NA,NA,NA,NA,NA,NA,NA,NA,NA
"530","stim/objects/Instruments/grandpiano.png",355,9,348,0.9,"stim/13.jpeg",1,3,3,2,"Instruments",2,4,"right","right",0.572999954,1,1,1,0,NA,NA,NA,NA,NA,NA,NA,NA,NA,NA,NA,NA,NA,NA,NA,NA,NA,NA,NA,NA,NA,NA,NA,NA
"376","stim/objects/HouseObjects/glassmop.png",356,9,349,0.5,"stim/33.jpeg",3,3,1,1,"HouseObjects",1,3,"left","left",0.686999798,1,1,1,0,5,9,1,0.5,1,"stim/33.jpeg",3,3,"stim/33.jpeg",3,"right",2.304999828,2,2,3.985999823,2,6.039000034,5,0,0,NA,0,NA,1
"314","stim/objects/HouseObjects/dustpan.png",357,9,350,0.9,"stim/21.jpeg",2,1,3,2,"HouseObjects",1,1,"left","left",0.644999981,1,1,1,0,NA,NA,NA,NA,NA,NA,NA,NA,NA,NA,NA,NA,NA,NA,NA,NA,NA,NA,NA,NA,NA,NA,NA,NA
"398","stim/objects/HouseObjects/pitcher.png",358,9,351,0.3,"stim/52.jpeg",5,2,2,1,"HouseObjects",1,1,"left","right",0.558000088,0,0,1,0,154,9,1,0.3,1,"stim/52.jpeg",5,2,"stim/52.jpeg",1,"right",0.664000034,3,2,2.914999962,4,3.257999897,154,0,1,NA,0,NA,1
"258","stim/objects/HouseObjects/blender2.png",359,9,352,0.7,"stim/64.jpeg",6,4,2,1,"HouseObjects",1,3,"left","left",0.621000051,1,1,1,0,41,9,1,0.7,1,"stim/64.jpeg",6,4,"stim/64.jpeg",3,"left",1.104000092,4,3,6.13499999,3,11.12199998,41,1,0,0,1,1,1
"481","stim/objects/Instruments/flutetrans.png",360,9,353,0.9,"stim/11.jpeg",1,1,3,2,"Instruments",2,1,"right","right",0.532999754,1,1,1,0,NA,NA,NA,NA,NA,NA,NA,NA,NA,NA,NA,NA,NA,NA,NA,NA,NA,NA,NA,NA,NA,NA,NA,NA
"263","stim/objects/HouseObjects/broom.png",361,9,354,0.5,"stim/41.jpeg",4,1,1,2,"HouseObjects",1,2,"left","left",0.697000027,1,1,1,0,NA,NA,NA,NA,NA,NA,NA,NA,NA,NA,NA,NA,NA,NA,NA,NA,NA,NA,NA,NA,NA,NA,NA,NA
"559","stim/objects/Instruments/musicsheet.png",362,9,355,0.5,"stim/44.jpeg",4,4,1,1,"Instruments",2,3,"right","left",0.72300005,0,0,1,0,61,9,1,0.5,2,"stim/44.jpeg",4,4,"stim/44.jpeg",3,"left",0.972000122,4,1,12.06100011,3,0.976999998,61,1,0,0,1,1,1
"315","stim/objects/HouseObjects/dustpan.png",363,9,356,0.9,"stim/23.jpeg",2,3,3,2,"HouseObjects",1,1,"left","left",0.63499999,1,1,1,0,NA,NA,NA,NA,NA,NA,NA,NA,NA,NA,NA,NA,NA,NA,NA,NA,NA,NA,NA,NA,NA,NA,NA,NA
"415","stim/objects/Instruments/banjo.png",364,9,357,0.5,"stim/34.jpeg",3,4,1,2,"Instruments",2,3,"right","",NA,0,0,1,0,NA,NA,NA,NA,NA,NA,NA,NA,NA,NA,NA,NA,NA,NA,NA,NA,NA,NA,NA,NA,NA,NA,NA,NA
"392","stim/objects/HouseObjects/lintroller.png",365,9,358,0.5,"stim/44.jpeg",4,4,1,1,"HouseObjects",1,2,"left","right",0.67599988,0,0,1,0,27,9,1,0.5,2,"stim/44.jpeg",4,4,"stim/44.jpeg",2,"left",4.563999891,4,2,5.224999905,1,21.1309998,27,1,0,0,0,0,1
"531","stim/objects/Instruments/grandpiano.png",366,9,359,0.9,"stim/12.jpeg",1,2,3,2,"Instruments",2,2,"right","right",0.720999956,1,1,1,0,NA,NA,NA,NA,NA,NA,NA,NA,NA,NA,NA,NA,NA,NA,NA,NA,NA,NA,NA,NA,NA,NA,NA,NA
"565","stim/objects/Instruments/panflute.png",367,9,360,0.7,"stim/54.jpeg",5,4,2,1,"Instruments",2,4,"right","right",0.578999996,1,1,1,0,26,9,1,0.7,2,"stim/54.jpeg",5,4,"stim/54.jpeg",4,"left",1.53399992,4,4,7.75999999,2,4.700999737,26,1,1,1,0,0,1
"544","stim/objects/Instruments/harmonica2.png",368,9,361,0.9,"stim/11.jpeg",1,1,3,1,"Instruments",2,2,"right","right",0.546000004,1,1,1,0,87,9,1,0.9,2,"stim/11.jpeg",1,1,"stim/11.jpeg",2,"left",1.06799984,4,3,8.821000099,3,5.747999907,87,1,0,0,0,0,1
"456","stim/objects/Instruments/flute.png",369,9,362,0.9,"stim/12.jpeg",1,2,3,2,"Instruments",2,4,"right","right",0.531999826,1,1,1,0,NA,NA,NA,NA,NA,NA,NA,NA,NA,NA,NA,NA,NA,NA,NA,NA,NA,NA,NA,NA,NA,NA,NA,NA
"466","stim/objects/Instruments/flute.png",370,9,363,0.9,"stim/14.jpeg",1,4,3,2,"Instruments",2,3,"right","right",0.480999947,1,1,1,0,NA,NA,NA,NA,NA,NA,NA,NA,NA,NA,NA,NA,NA,NA,NA,NA,NA,NA,NA,NA,NA,NA,NA,NA
"563","stim/objects/Instruments/oboe.png",371,9,364,0.7,"stim/53.jpeg",5,3,2,1,"Instruments",2,4,"right","right",0.576999903,1,1,1,0,16,9,1,0.7,2,"stim/53.jpeg",5,3,"stim/53.jpeg",4,"left",2.890999794,3,4,4.653999805,2,6.552999973,16,1,0,0,0,0,1
"341","stim/objects/HouseObjects/flyswatter2.png",372,9,365,0.1,"stim/13.jpeg",1,3,3,1,"HouseObjects",1,3,"left","right",0.645999908,0,0,1,0,161,9,1,0.1,1,"stim/13.jpeg",1,3,"stim/13.jpeg",3,"right",1.786000013,2,3,1.898999929,2,3.02699995,161,0,1,NA,0,NA,1
"541","stim/objects/Instruments/guitarcase.png",373,9,366,0.5,"stim/32.jpeg",3,2,1,1,"Instruments",2,4,"right","left",0.504999876,0,0,1,0,164,9,1,0.5,1,"stim/32.jpeg",3,2,"stim/32.jpeg",4,"left",2.177000046,3,4,4.276000023,1,0.977999926,164,1,0,0,0,0,1
"446","stim/objects/Instruments/drums.png",374,9,367,0.7,"stim/52.jpeg",5,2,2,2,"Instruments",2,3,"right","right",0.69299984,1,1,1,0,NA,NA,NA,NA,NA,NA,NA,NA,NA,NA,NA,NA,NA,NA,NA,NA,NA,NA,NA,NA,NA,NA,NA,NA
"257","stim/objects/HouseObjects/blender.png",375,9,368,0.5,"stim/44.jpeg",4,4,1,2,"HouseObjects",1,3,"left","right",0.73699975,0,0,1,0,NA,NA,NA,NA,NA,NA,NA,NA,NA,NA,NA,NA,NA,NA,NA,NA,NA,NA,NA,NA,NA,NA,NA,NA
"288","stim/objects/HouseObjects/dishsoap.png",376,9,369,0.7,"stim/62.jpeg",6,2,2,2,"HouseObjects",1,2,"left","left",0.809999943,1,1,1,0,NA,NA,NA,NA,NA,NA,NA,NA,NA,NA,NA,NA,NA,NA,NA,NA,NA,NA,NA,NA,NA,NA,NA,NA
"259","stim/objects/HouseObjects/bottle.png",377,9,370,0.5,"stim/41.jpeg",4,1,1,2,"HouseObjects",1,1,"left","right",0.603999853,0,0,1,0,NA,NA,NA,NA,NA,NA,NA,NA,NA,NA,NA,NA,NA,NA,NA,NA,NA,NA,NA,NA,NA,NA,NA,NA
"560","stim/objects/Instruments/musicsheet2.png",378,9,371,0.1,"stim/23.jpeg",2,3,3,1,"Instruments",2,1,"right","",NA,0,0,1,0,146,9,1,0.1,2,"stim/23.jpeg",2,3,"stim/23.jpeg",1,"left",4.727999926,2,3,4.03399992,3,2.266000032,146,1,1,1,0,0,1
"435","stim/objects/Instruments/cornet2.png",379,9,372,0.3,"stim/62.jpeg",6,2,2,1,"Instruments",2,2,"right","left",0.720000029,0,0,1,0,133,9,1,0.3,2,"stim/62.jpeg",6,2,"stim/62.jpeg",2,"left",2.140999794,3,1,2.368000031,3,3.909999847,133,1,0,0,0,0,1
"468","stim/objects/Instruments/flute.png",380,9,373,0.9,"stim/12.jpeg",1,2,3,2,"Instruments",2,4,"right","right",0.792000055,1,1,1,0,NA,NA,NA,NA,NA,NA,NA,NA,NA,NA,NA,NA,NA,NA,NA,NA,NA,NA,NA,NA,NA,NA,NA,NA
"503","stim/objects/Instruments/frenchhorn.png",381,9,374,0.9,"stim/12.jpeg",1,2,3,2,"Instruments",2,1,"right","",NA,0,0,1,0,NA,NA,NA,NA,NA,NA,NA,NA,NA,NA,NA,NA,NA,NA,NA,NA,NA,NA,NA,NA,NA,NA,NA,NA
"569","stim/objects/Instruments/record.png",382,9,375,0.7,"stim/52.jpeg",5,2,2,1,"Instruments",2,1,"right","",NA,0,0,1,0,80,9,1,0.7,2,"stim/52.jpeg",5,2,"stim/52.jpeg",1,"left",1.931999922,3,3,2.687999964,2,2.583999872,80,1,0,0,0,0,1
"385","stim/objects/HouseObjects/iron2.png",383,9,376,0.1,"stim/12.jpeg",1,2,3,1,"HouseObjects",1,4,"left","right",0.648999929,0,0,1,0,172,9,1,0.1,1,"stim/12.jpeg",1,2,"stim/12.jpeg",4,"right",2.650000095,2,3,4.035000086,1,4.993000031,172,0,0,NA,0,NA,1
"404","stim/objects/HouseObjects/rubbergloves.png",384,9,377,0.3,"stim/51.jpeg",5,1,2,1,"HouseObjects",1,3,"left","right",0.492999792,0,0,1,0,102,9,1,0.3,1,"stim/51.jpeg",5,1,"stim/51.jpeg",3,"right",6.15199995,2,2,7.792999744,4,5.564999819,102,0,0,NA,0,NA,1
"247","stim/objects/HouseObjects/barbecuelighter.png",385,9,378,0.5,"stim/33.jpeg",3,3,1,2,"HouseObjects",1,2,"left","left",0.515999794,1,1,1,0,NA,NA,NA,NA,NA,NA,NA,NA,NA,NA,NA,NA,NA,NA,NA,NA,NA,NA,NA,NA,NA,NA,NA,NA
"432","stim/objects/Instruments/clarinet2.png",386,9,379,0.3,"stim/61.jpeg",6,1,2,1,"Instruments",2,4,"right","left",0.621000051,0,0,1,0,23,9,1,0.3,2,"stim/61.jpeg",6,1,"stim/61.jpeg",4,"left",0.999000072,3,3,4.335000038,1,3.934999943,23,1,0,0,0,0,1
"443","stim/objects/Instruments/doublebass2.png",387,9,380,0.3,"stim/64.jpeg",6,4,2,1,"Instruments",2,4,"right","left",0.524999857,0,0,1,0,78,9,1,0.3,2,"stim/64.jpeg",6,4,"stim/64.jpeg",4,"left",1.373999834,2,4,4.188999891,1,2.151000023,78,1,1,1,0,0,1
"426","stim/objects/Instruments/cello2.png",388,9,381,0.3,"stim/63.jpeg",6,3,2,1,"Instruments",2,1,"right","left",0.493999958,0,0,1,0,38,9,1,0.3,2,"stim/63.jpeg",6,3,"stim/63.jpeg",1,"left",2.255000114,3,2,2.184999943,3,3.278999805,38,1,0,0,0,0,1
"509","stim/objects/Instruments/gong.png",389,9,382,0.9,"stim/13.jpeg",1,3,3,2,"Instruments",2,1,"right","right",0.618000031,1,1,1,0,NA,NA,NA,NA,NA,NA,NA,NA,NA,NA,NA,NA,NA,NA,NA,NA,NA,NA,NA,NA,NA,NA,NA,NA
"523","stim/objects/Instruments/gong2.png",390,9,383,0.9,"stim/12.jpeg",1,2,3,1,"Instruments",2,4,"right","left",0.600999832,0,0,1,0,29,9,1,0.9,2,"stim/12.jpeg",1,2,"stim/12.jpeg",4,"left",4.001999855,4,3,12.50300002,4,3.285000086,29,1,0,0,1,1,1
"408","stim/objects/Instruments/accordion2.png",391,9,384,0.7,"stim/53.jpeg",5,3,2,1,"Instruments",2,3,"right","right",0.605000019,1,1,1,0,44,9,1,0.7,2,"stim/53.jpeg",5,3,"stim/53.jpeg",3,"right",1.325999975,2,2,20.40199995,1,2.812999964,44,0,0,NA,0,NA,1
"334","stim/objects/HouseObjects/flyswatter.png",392,9,385,0.9,"stim/21.jpeg",2,1,3,2,"HouseObjects",1,2,"left","left",0.554999828,1,1,1,0,NA,NA,NA,NA,NA,NA,NA,NA,NA,NA,NA,NA,NA,NA,NA,NA,NA,NA,NA,NA,NA,NA,NA,NA
"510","stim/objects/Instruments/gong.png",393,9,386,0.9,"stim/14.jpeg",1,4,3,2,"Instruments",2,4,"right","right",0.777999878,1,1,1,0,NA,NA,NA,NA,NA,NA,NA,NA,NA,NA,NA,NA,NA,NA,NA,NA,NA,NA,NA,NA,NA,NA,NA,NA
"251","stim/objects/HouseObjects/basket.png",394,9,387,0.5,"stim/34.jpeg",3,4,1,2,"HouseObjects",1,4,"left","left",0.52699995,1,1,1,0,NA,NA,NA,NA,NA,NA,NA,NA,NA,NA,NA,NA,NA,NA,NA,NA,NA,NA,NA,NA,NA,NA,NA,NA
"245","stim/objects/HouseObjects/ballofstring.png",395,9,388,0.5,"stim/33.jpeg",3,3,1,2,"HouseObjects",1,4,"left","left",0.697999954,1,1,1,0,NA,NA,NA,NA,NA,NA,NA,NA,NA,NA,NA,NA,NA,NA,NA,NA,NA,NA,NA,NA,NA,NA,NA,NA
"351","stim/objects/HouseObjects/garbagebin.png",396,9,389,0.9,"stim/23.jpeg",2,3,3,2,"HouseObjects",1,4,"left","right",0.64199996,0,0,1,0,NA,NA,NA,NA,NA,NA,NA,NA,NA,NA,NA,NA,NA,NA,NA,NA,NA,NA,NA,NA,NA,NA,NA,NA
"293","stim/objects/HouseObjects/doormat.png",397,9,390,0.9,"stim/22.jpeg",2,2,3,2,"HouseObjects",1,1,"left","left",0.740999937,1,1,1,0,NA,NA,NA,NA,NA,NA,NA,NA,NA,NA,NA,NA,NA,NA,NA,NA,NA,NA,NA,NA,NA,NA,NA,NA
"298","stim/objects/HouseObjects/doormat.png",398,9,391,0.9,"stim/23.jpeg",2,3,3,2,"HouseObjects",1,3,"left","left",0.589999914,1,1,1,0,NA,NA,NA,NA,NA,NA,NA,NA,NA,NA,NA,NA,NA,NA,NA,NA,NA,NA,NA,NA,NA,NA,NA,NA
"394","stim/objects/HouseObjects/match.png",399,9,392,0.5,"stim/41.jpeg",4,1,1,1,"HouseObjects",1,4,"left","right",0.644999743,0,0,1,0,55,9,1,0.5,2,"stim/41.jpeg",4,1,"stim/41.jpeg",4,"left",1.036000013,4,2,4.378999949,1,4.069999933,55,1,0,0,0,0,1
"517","stim/objects/Instruments/gong.png",400,9,393,0.9,"stim/14.jpeg",1,4,3,2,"Instruments",2,2,"right","right",0.854000092,1,1,1,0,NA,NA,NA,NA,NA,NA,NA,NA,NA,NA,NA,NA,NA,NA,NA,NA,NA,NA,NA,NA,NA,NA,NA,NA
"353","stim/objects/HouseObjects/garbagebin.png",401,9,394,0.9,"stim/24.jpeg",2,4,3,2,"HouseObjects",1,4,"left","left",0.638999939,1,1,1,0,NA,NA,NA,NA,NA,NA,NA,NA,NA,NA,NA,NA,NA,NA,NA,NA,NA,NA,NA,NA,NA,NA,NA,NA
"553","stim/objects/Instruments/maraca.png",402,9,395,0.5,"stim/41.jpeg",4,1,1,1,"Instruments",2,2,"right","right",0.661000013,1,1,1,0,200,9,1,0.5,2,"stim/41.jpeg",4,1,"stim/41.jpeg",2,"left",1.011999846,4,4,2.761999846,3,3.474999905,200,1,0,0,0,0,1
"461","stim/objects/Instruments/flute.png",403,9,396,0.9,"stim/11.jpeg",1,1,3,2,"Instruments",2,1,"right","right",0.60800004,1,1,1,0,NA,NA,NA,NA,NA,NA,NA,NA,NA,NA,NA,NA,NA,NA,NA,NA,NA,NA,NA,NA,NA,NA,NA,NA
"474","stim/objects/Instruments/flutetrans.png",404,9,397,0.9,"stim/14.jpeg",1,4,3,2,"Instruments",2,1,"right","right",0.473999977,1,1,1,0,NA,NA,NA,NA,NA,NA,NA,NA,NA,NA,NA,NA,NA,NA,NA,NA,NA,NA,NA,NA,NA,NA,NA,NA
"243","stim/objects/HouseObjects/ashtray2.png",405,9,398,0.3,"stim/52.jpeg",5,2,2,1,"HouseObjects",1,3,"left","right",0.519999981,0,0,1,0,158,9,1,0.3,1,"stim/52.jpeg",5,2,"stim/52.jpeg",3,"right",0.90199995,2,4,1.136999846,1,3.53399992,158,0,0,NA,0,NA,1
"543","stim/objects/Instruments/harmonica.png",406,9,399,0.5,"stim/33.jpeg",3,3,1,1,"Instruments",2,4,"right","",NA,0,0,1,0,82,9,1,0.5,1,"stim/33.jpeg",3,3,"stim/33.jpeg",4,"right",1.446000099,3,1,4.21600008,2,8.642999887,82,0,0,NA,0,NA,1
"369","stim/objects/HouseObjects/glass.png",407,9,400,0.9,"stim/23.jpeg",2,3,3,2,"HouseObjects",1,2,"left","",NA,0,0,1,0,NA,NA,NA,NA,NA,NA,NA,NA,NA,NA,NA,NA,NA,NA,NA,NA,NA,NA,NA,NA,NA,NA,NA,NA
"412","stim/objects/Instruments/balalaika.png",408,9,401,0.5,"stim/32.jpeg",3,2,1,2,"Instruments",2,1,"right","left",0.797999859,0,0,1,0,NA,NA,NA,NA,NA,NA,NA,NA,NA,NA,NA,NA,NA,NA,NA,NA,NA,NA,NA,NA,NA,NA,NA,NA
"378","stim/objects/HouseObjects/hairdryer.png",409,9,402,0.5,"stim/34.jpeg",3,4,1,1,"HouseObjects",1,3,"left","left",0.635999918,1,1,1,0,79,9,1,0.5,1,"stim/34.jpeg",3,4,"stim/34.jpeg",3,"right",1.963000059,1,1,7.224999905,2,0.697999954,79,0,0,NA,0,NA,1
"570","stim/objects/Instruments/record2.png",410,9,403,0.1,"stim/24.jpeg",2,4,3,1,"Instruments",2,4,"right","left",0.539999962,0,0,1,0,46,9,1,0.1,2,"stim/24.jpeg",2,4,"stim/24.jpeg",4,"left",1.450999737,4,4,5.05099988,3,4.207000017,46,1,1,1,0,0,1
"566","stim/objects/Instruments/panflute2.png",411,9,404,0.1,"stim/22.jpeg",2,2,3,1,"Instruments",2,2,"right","left",0.546000004,0,0,1,0,156,9,1,0.1,2,"stim/22.jpeg",2,2,"stim/22.jpeg",2,"left",1.505000114,3,4,3.120000124,4,2.236000061,156,1,0,0,0,0,1
"492","stim/objects/Instruments/frenchhorn.png",412,9,405,0.9,"stim/13.jpeg",1,3,3,2,"Instruments",2,3,"right","right",0.68599987,1,1,1,0,NA,NA,NA,NA,NA,NA,NA,NA,NA,NA,NA,NA,NA,NA,NA,NA,NA,NA,NA,NA,NA,NA,NA,NA
"493","stim/objects/Instruments/frenchhorn.png",413,9,406,0.9,"stim/13.jpeg",1,3,3,2,"Instruments",2,2,"right","right",0.549999952,1,1,1,0,NA,NA,NA,NA,NA,NA,NA,NA,NA,NA,NA,NA,NA,NA,NA,NA,NA,NA,NA,NA,NA,NA,NA,NA
"354","stim/objects/HouseObjects/garbagebin.png",414,9,407,0.9,"stim/21.jpeg",2,1,3,2,"HouseObjects",1,4,"left","left",0.517999887,1,1,1,0,NA,NA,NA,NA,NA,NA,NA,NA,NA,NA,NA,NA,NA,NA,NA,NA,NA,NA,NA,NA,NA,NA,NA,NA
"554","stim/objects/Instruments/maraca2.png",415,9,408,0.1,"stim/24.jpeg",2,4,3,1,"Instruments",2,2,"right","left",0.517999887,0,0,1,0,6,9,1,0.1,2,"stim/24.jpeg",2,4,"stim/24.jpeg",2,"left",1.796000004,4,3,16.85899997,2,7.368000031,6,1,0,0,1,1,1
"281","stim/objects/HouseObjects/coffee.png",416,9,409,0.7,"stim/64.jpeg",6,4,2,2,"HouseObjects",1,3,"left","left",0.541999817,1,1,1,0,NA,NA,NA,NA,NA,NA,NA,NA,NA,NA,NA,NA,NA,NA,NA,NA,NA,NA,NA,NA,NA,NA,NA,NA
"453","stim/objects/Instruments/electricguitar.png",417,9,410,0.7,"stim/51.jpeg",5,1,2,2,"Instruments",2,2,"right","right",0.516000032,1,1,1,0,NA,NA,NA,NA,NA,NA,NA,NA,NA,NA,NA,NA,NA,NA,NA,NA,NA,NA,NA,NA,NA,NA,NA,NA
"325","stim/objects/HouseObjects/flyswatter.png",418,9,411,0.9,"stim/23.jpeg",2,3,3,2,"HouseObjects",1,3,"left","left",0.540999889,1,1,1,0,NA,NA,NA,NA,NA,NA,NA,NA,NA,NA,NA,NA,NA,NA,NA,NA,NA,NA,NA,NA,NA,NA,NA,NA
"383","stim/objects/HouseObjects/handvacuum2.png",419,9,412,0.1,"stim/11.jpeg",1,1,3,1,"HouseObjects",1,3,"left","right",0.701999903,0,0,1,0,170,9,1,0.1,1,"stim/11.jpeg",1,1,"stim/11.jpeg",3,"left",1.690999985,2,3,1.319000006,2,2.837999821,170,1,0,0,0,0,1
"284","stim/objects/HouseObjects/cushion.png",420,9,413,0.7,"stim/62.jpeg",6,2,2,2,"HouseObjects",1,4,"left","left",0.654999971,1,1,1,0,NA,NA,NA,NA,NA,NA,NA,NA,NA,NA,NA,NA,NA,NA,NA,NA,NA,NA,NA,NA,NA,NA,NA,NA
"391","stim/objects/HouseObjects/knife2.png",421,9,414,0.9,"stim/23.jpeg",2,3,3,1,"HouseObjects",1,4,"left","left",0.559999943,1,1,1,0,184,9,1,0.9,1,"stim/23.jpeg",2,3,"stim/23.jpeg",4,"right",1.394999981,2,4,1.30099988,2,2.983999729,184,0,0,NA,0,NA,1
"420","stim/objects/Instruments/bassdrum2.png",422,9,415,0.7,"stim/53.jpeg",5,3,2,1,"Instruments",2,1,"right","right",0.595999956,1,1,1,0,70,9,1,0.7,2,"stim/53.jpeg",5,3,"stim/53.jpeg",1,"left",2.045000076,2,2,3.411999941,2,2.795999765,70,1,0,0,0,0,1
"370","stim/objects/HouseObjects/glass.png",423,9,416,0.9,"stim/21.jpeg",2,1,3,2,"HouseObjects",1,3,"left","left",0.529999971,1,1,1,0,NA,NA,NA,NA,NA,NA,NA,NA,NA,NA,NA,NA,NA,NA,NA,NA,NA,NA,NA,NA,NA,NA,NA,NA
"533","stim/objects/Instruments/grandpiano.png",424,9,417,0.9,"stim/12.jpeg",1,2,3,2,"Instruments",2,3,"right","left",0.480000019,0,0,1,0,NA,NA,NA,NA,NA,NA,NA,NA,NA,NA,NA,NA,NA,NA,NA,NA,NA,NA,NA,NA,NA,NA,NA,NA
"439","stim/objects/Instruments/cymbal2.png",425,9,418,0.3,"stim/63.jpeg",6,3,2,1,"Instruments",2,2,"right","left",0.55099988,0,0,1,0,48,9,1,0.3,2,"stim/63.jpeg",6,3,"stim/63.jpeg",2,"left",1.208999872,3,3,5.119999886,2,6.924000025,48,1,1,1,1,1,1
"424","stim/objects/Instruments/cello.png",426,9,419,0.5,"stim/43.jpeg",4,3,1,2,"Instruments",2,4,"right","right",0.650999784,1,1,1,0,NA,NA,NA,NA,NA,NA,NA,NA,NA,NA,NA,NA,NA,NA,NA,NA,NA,NA,NA,NA,NA,NA,NA,NA
"278","stim/objects/HouseObjects/clothespin2.png",427,9,420,0.7,"stim/62.jpeg",6,2,2,1,"HouseObjects",1,2,"left","left",0.535999775,1,1,1,0,103,9,1,0.7,1,"stim/62.jpeg",6,2,"stim/62.jpeg",2,"left",1.268999815,4,2,5.535999775,2,5.497999907,103,1,1,1,1,1,1
"518","stim/objects/Instruments/gong.png",428,9,421,0.9,"stim/11.jpeg",1,1,3,2,"Instruments",2,1,"right","right",0.710999966,1,1,1,0,NA,NA,NA,NA,NA,NA,NA,NA,NA,NA,NA,NA,NA,NA,NA,NA,NA,NA,NA,NA,NA,NA,NA,NA
"497","stim/objects/Instruments/frenchhorn.png",429,9,422,0.9,"stim/11.jpeg",1,1,3,2,"Instruments",2,1,"right","right",0.464999914,1,1,1,0,NA,NA,NA,NA,NA,NA,NA,NA,NA,NA,NA,NA,NA,NA,NA,NA,NA,NA,NA,NA,NA,NA,NA,NA
"345","stim/objects/HouseObjects/garbagebin.png",430,9,423,0.9,"stim/22.jpeg",2,2,3,2,"HouseObjects",1,2,"left","left",0.529999971,1,1,1,0,NA,NA,NA,NA,NA,NA,NA,NA,NA,NA,NA,NA,NA,NA,NA,NA,NA,NA,NA,NA,NA,NA,NA,NA
"275","stim/objects/HouseObjects/clothespin.png",431,9,424,0.7,"stim/62.jpeg",6,2,2,2,"HouseObjects",1,3,"left","left",0.710999966,1,1,1,0,NA,NA,NA,NA,NA,NA,NA,NA,NA,NA,NA,NA,NA,NA,NA,NA,NA,NA,NA,NA,NA,NA,NA,NA
"405","stim/objects/HouseObjects/rubbergloves2.png",432,9,425,0.9,"stim/22.jpeg",2,2,3,1,"HouseObjects",1,4,"left","left",0.576999903,1,1,1,0,39,9,1,0.9,1,"stim/22.jpeg",2,2,"stim/22.jpeg",4,"left",1.493000031,4,1,7.832999945,4,5.264999866,39,1,0,0,1,1,1
"297","stim/objects/HouseObjects/doormat.png",433,9,426,0.9,"stim/24.jpeg",2,4,3,2,"HouseObjects",1,3,"left","left",0.549999952,1,1,1,0,NA,NA,NA,NA,NA,NA,NA,NA,NA,NA,NA,NA,NA,NA,NA,NA,NA,NA,NA,NA,NA,NA,NA,NA
"299","stim/objects/HouseObjects/doormat.png",434,9,427,0.9,"stim/23.jpeg",2,3,3,2,"HouseObjects",1,1,"left","left",0.604999781,1,1,1,0,NA,NA,NA,NA,NA,NA,NA,NA,NA,NA,NA,NA,NA,NA,NA,NA,NA,NA,NA,NA,NA,NA,NA,NA
"318","stim/objects/HouseObjects/dustpan.png",435,9,428,0.9,"stim/22.jpeg",2,2,3,2,"HouseObjects",1,3,"left","left",0.701999903,1,1,1,0,NA,NA,NA,NA,NA,NA,NA,NA,NA,NA,NA,NA,NA,NA,NA,NA,NA,NA,NA,NA,NA,NA,NA,NA
"417","stim/objects/Instruments/banjo2.png",436,9,429,0.7,"stim/52.jpeg",5,2,2,1,"Instruments",2,1,"right","right",0.713000059,1,1,1,0,19,9,1,0.7,2,"stim/52.jpeg",5,2,"stim/52.jpeg",1,"left",1.78399992,4,3,8.777999878,2,3.757999897,19,1,0,0,0,0,1
"277","stim/objects/HouseObjects/clothespin.png",437,9,430,0.7,"stim/63.jpeg",6,3,2,2,"HouseObjects",1,4,"left","left",0.606999874,1,1,1,0,NA,NA,NA,NA,NA,NA,NA,NA,NA,NA,NA,NA,NA,NA,NA,NA,NA,NA,NA,NA,NA,NA,NA,NA
"307","stim/objects/HouseObjects/doormat2.png",438,9,431,0.1,"stim/11.jpeg",1,1,3,1,"HouseObjects",1,4,"left","right",0.762000084,0,0,1,0,141,9,1,0.1,1,"stim/11.jpeg",1,1,"stim/11.jpeg",4,"right",1.548999786,2,3,4.640000105,2,1.09100008,141,0,0,NA,0,NA,1
"352","stim/objects/HouseObjects/garbagebin.png",439,9,432,0.9,"stim/23.jpeg",2,3,3,2,"HouseObjects",1,2,"left","left",0.549999952,1,1,1,0,NA,NA,NA,NA,NA,NA,NA,NA,NA,NA,NA,NA,NA,NA,NA,NA,NA,NA,NA,NA,NA,NA,NA,NA
"548","stim/objects/Instruments/hihat2.png",440,9,433,0.9,"stim/13.jpeg",1,3,3,1,"Instruments",2,2,"right","right",0.799000025,1,1,1,0,43,9,1,0.9,2,"stim/13.jpeg",1,3,"stim/13.jpeg",2,"left",1.07799983,4,1,3.9599998,4,12.01300001,43,1,0,0,0,0,1
"301","stim/objects/HouseObjects/doormat.png",441,9,434,0.9,"stim/21.jpeg",2,1,3,2,"HouseObjects",1,2,"left","left",0.572999954,1,1,1,0,NA,NA,NA,NA,NA,NA,NA,NA,NA,NA,NA,NA,NA,NA,NA,NA,NA,NA,NA,NA,NA,NA,NA,NA
"483","stim/objects/Instruments/flutetrans.png",442,9,435,0.9,"stim/12.jpeg",1,2,3,2,"Instruments",2,1,"right","right",0.611999989,1,1,1,0,NA,NA,NA,NA,NA,NA,NA,NA,NA,NA,NA,NA,NA,NA,NA,NA,NA,NA,NA,NA,NA,NA,NA,NA
"346","stim/objects/HouseObjects/garbagebin.png",443,9,436,0.9,"stim/23.jpeg",2,3,3,2,"HouseObjects",1,1,"left","left",0.520999908,1,1,1,0,NA,NA,NA,NA,NA,NA,NA,NA,NA,NA,NA,NA,NA,NA,NA,NA,NA,NA,NA,NA,NA,NA,NA,NA
"254","stim/objects/HouseObjects/bleachbottle.png",444,9,437,0.5,"stim/32.jpeg",3,2,1,2,"HouseObjects",1,1,"left","right",0.553999901,0,0,1,0,NA,NA,NA,NA,NA,NA,NA,NA,NA,NA,NA,NA,NA,NA,NA,NA,NA,NA,NA,NA,NA,NA,NA,NA
"285","stim/objects/HouseObjects/cushion.png",445,9,438,0.7,"stim/61.jpeg",6,1,2,2,"HouseObjects",1,3,"left","left",0.638999939,1,1,1,0,NA,NA,NA,NA,NA,NA,NA,NA,NA,NA,NA,NA,NA,NA,NA,NA,NA,NA,NA,NA,NA,NA,NA,NA
"485","stim/objects/Instruments/flutetrans.png",446,9,439,0.9,"stim/14.jpeg",1,4,3,2,"Instruments",2,1,"right","left",0.480000019,0,0,1,0,NA,NA,NA,NA,NA,NA,NA,NA,NA,NA,NA,NA,NA,NA,NA,NA,NA,NA,NA,NA,NA,NA,NA,NA
"416","stim/objects/Instruments/banjo.png",447,9,440,0.5,"stim/33.jpeg",3,3,1,2,"Instruments",2,3,"right","left",0.600000143,0,0,1,0,NA,NA,NA,NA,NA,NA,NA,NA,NA,NA,NA,NA,NA,NA,NA,NA,NA,NA,NA,NA,NA,NA,NA,NA
"328","stim/objects/HouseObjects/flyswatter.png",448,9,441,0.9,"stim/23.jpeg",2,3,3,2,"HouseObjects",1,4,"left","left",0.712999821,1,1,1,0,NA,NA,NA,NA,NA,NA,NA,NA,NA,NA,NA,NA,NA,NA,NA,NA,NA,NA,NA,NA,NA,NA,NA,NA
"547","stim/objects/Instruments/hihat.png",449,9,442,0.5,"stim/31.jpeg",3,1,1,1,"Instruments",2,2,"right","left",0.611999989,0,0,1,0,112,9,1,0.5,1,"stim/31.jpeg",3,1,"stim/31.jpeg",2,"right",1.222000122,3,3,5.799999714,4,3.396999836,112,0,0,NA,0,NA,1
"302","stim/objects/HouseObjects/doormat.png",450,9,443,0.9,"stim/21.jpeg",2,1,3,2,"HouseObjects",1,1,"left","left",0.559999943,1,1,1,0,NA,NA,NA,NA,NA,NA,NA,NA,NA,NA,NA,NA,NA,NA,NA,NA,NA,NA,NA,NA,NA,NA,NA,NA
"282","stim/objects/HouseObjects/coffee2.png",451,9,444,0.7,"stim/63.jpeg",6,3,2,1,"HouseObjects",1,1,"left","left",0.542000055,1,1,1,0,77,9,1,0.7,1,"stim/63.jpeg",6,3,"stim/63.jpeg",1,"left",2.275999784,2,1,3.415999889,1,5.15199995,77,1,0,0,1,1,1
"546","stim/objects/Instruments/harp2.png",452,9,445,0.9,"stim/12.jpeg",1,2,3,1,"Instruments",2,4,"right","right",0.605000019,1,1,1,0,96,9,1,0.9,2,"stim/12.jpeg",1,2,"stim/12.jpeg",4,"right",0.963000059,3,2,1.589999914,2,5.383999825,96,0,1,NA,0,NA,1
"472","stim/objects/Instruments/flute2.png",453,9,446,0.9,"stim/13.jpeg",1,3,3,1,"Instruments",2,3,"right","right",0.638999939,1,1,1,0,4,9,1,0.9,2,"stim/13.jpeg",1,3,"stim/13.jpeg",3,"left",1.221999884,3,4,4.179999828,3,5.535000086,4,1,0,0,1,1,1
"418","stim/objects/Instruments/bassdrum.png",454,9,447,0.5,"stim/34.jpeg",3,4,1,2,"Instruments",2,1,"right","left",0.551000118,0,0,1,0,NA,NA,NA,NA,NA,NA,NA,NA,NA,NA,NA,NA,NA,NA,NA,NA,NA,NA,NA,NA,NA,NA,NA,NA
"562","stim/objects/Instruments/musicstand2.png",455,9,448,0.1,"stim/24.jpeg",2,4,3,1,"Instruments",2,4,"right","left",0.697000027,0,0,1,0,24,9,1,0.1,2,"stim/24.jpeg",2,4,"stim/24.jpeg",4,"left",1.246000051,4,3,7.449999809,1,5.082000017,24,1,0,0,0,0,1
"311","stim/objects/HouseObjects/dustpan.png",456,9,449,0.9,"stim/23.jpeg",2,3,3,2,"HouseObjects",1,3,"left","left",0.540999889,1,1,1,0,NA,NA,NA,NA,NA,NA,NA,NA,NA,NA,NA,NA,NA,NA,NA,NA,NA,NA,NA,NA,NA,NA,NA,NA
"270","stim/objects/HouseObjects/clock2.png",457,9,450,0.7,"stim/64.jpeg",6,4,2,1,"HouseObjects",1,1,"left","left",0.584000111,1,1,1,0,21,9,1,0.7,1,"stim/64.jpeg",6,4,"stim/64.jpeg",1,"left",3.361000061,2,2,1.957999945,4,6.007999897,21,1,0,0,0,0,1
"532","stim/objects/Instruments/grandpiano.png",458,9,451,0.9,"stim/14.jpeg",1,4,3,2,"Instruments",2,1,"right","left",0.611000061,0,0,1,0,NA,NA,NA,NA,NA,NA,NA,NA,NA,NA,NA,NA,NA,NA,NA,NA,NA,NA,NA,NA,NA,NA,NA,NA
"558","stim/objects/Instruments/metronome2.png",459,9,452,0.1,"stim/22.jpeg",2,2,3,1,"Instruments",2,2,"right","left",0.497999907,0,0,1,0,15,9,1,0.1,2,"stim/22.jpeg",2,2,"stim/22.jpeg",2,"left",0.874000072,4,3,8.460999727,3,5.583999872,15,1,0,0,0,0,1
"340","stim/objects/HouseObjects/flyswatter.png",460,9,453,0.9,"stim/24.jpeg",2,4,3,2,"HouseObjects",1,4,"left","left",0.602999926,1,1,1,0,NA,NA,NA,NA,NA,NA,NA,NA,NA,NA,NA,NA,NA,NA,NA,NA,NA,NA,NA,NA,NA,NA,NA,NA
"331","stim/objects/HouseObjects/flyswatter.png",461,9,454,0.9,"stim/22.jpeg",2,2,3,2,"HouseObjects",1,3,"left","left",0.558999777,1,1,1,0,NA,NA,NA,NA,NA,NA,NA,NA,NA,NA,NA,NA,NA,NA,NA,NA,NA,NA,NA,NA,NA,NA,NA,NA
"513","stim/objects/Instruments/gong.png",462,9,455,0.9,"stim/13.jpeg",1,3,3,2,"Instruments",2,4,"right","right",0.674999714,1,1,1,0,NA,NA,NA,NA,NA,NA,NA,NA,NA,NA,NA,NA,NA,NA,NA,NA,NA,NA,NA,NA,NA,NA,NA,NA
"305","stim/objects/HouseObjects/doormat.png",463,9,456,0.9,"stim/24.jpeg",2,4,3,2,"HouseObjects",1,4,"left","left",0.549000025,1,1,1,0,NA,NA,NA,NA,NA,NA,NA,NA,NA,NA,NA,NA,NA,NA,NA,NA,NA,NA,NA,NA,NA,NA,NA,NA
"356","stim/objects/HouseObjects/garbagebin.png",464,9,457,0.9,"stim/22.jpeg",2,2,3,2,"HouseObjects",1,3,"left","left",0.717999935,1,1,1,0,NA,NA,NA,NA,NA,NA,NA,NA,NA,NA,NA,NA,NA,NA,NA,NA,NA,NA,NA,NA,NA,NA,NA,NA
"319","stim/objects/HouseObjects/dustpan.png",465,9,458,0.9,"stim/22.jpeg",2,2,3,2,"HouseObjects",1,3,"left","left",0.602999926,1,1,1,0,NA,NA,NA,NA,NA,NA,NA,NA,NA,NA,NA,NA,NA,NA,NA,NA,NA,NA,NA,NA,NA,NA,NA,NA
"505","stim/objects/Instruments/frenchhorn.png",466,9,459,0.9,"stim/12.jpeg",1,2,3,2,"Instruments",2,2,"right","right",0.585999966,1,1,1,0,NA,NA,NA,NA,NA,NA,NA,NA,NA,NA,NA,NA,NA,NA,NA,NA,NA,NA,NA,NA,NA,NA,NA,NA
"371","stim/objects/HouseObjects/glass.png",467,9,460,0.9,"stim/23.jpeg",2,3,3,2,"HouseObjects",1,2,"left","left",0.528999805,1,1,1,0,NA,NA,NA,NA,NA,NA,NA,NA,NA,NA,NA,NA,NA,NA,NA,NA,NA,NA,NA,NA,NA,NA,NA,NA
"567","stim/objects/Instruments/pipepiano.png",468,9,461,0.7,"stim/51.jpeg",5,1,2,1,"Instruments",2,4,"right","right",0.604999781,1,1,1,0,169,9,1,0.7,2,"stim/51.jpeg",5,1,"stim/51.jpeg",4,"right",1.214999914,2,3,1.900000095,4,0.409999847,169,0,0,NA,1,NA,1
"407","stim/objects/Instruments/accordion.png",469,9,462,0.5,"stim/31.jpeg",3,1,1,2,"Instruments",2,4,"right","left",0.556999922,0,0,1,0,NA,NA,NA,NA,NA,NA,NA,NA,NA,NA,NA,NA,NA,NA,NA,NA,NA,NA,NA,NA,NA,NA,NA,NA
"289","stim/objects/HouseObjects/dishsoap.png",470,9,463,0.7,"stim/61.jpeg",6,1,2,2,"HouseObjects",1,3,"left","left",0.830999851,1,1,1,0,NA,NA,NA,NA,NA,NA,NA,NA,NA,NA,NA,NA,NA,NA,NA,NA,NA,NA,NA,NA,NA,NA,NA,NA
"501","stim/objects/Instruments/frenchhorn.png",471,9,464,0.9,"stim/12.jpeg",1,2,3,2,"Instruments",2,3,"right","right",0.553999901,1,1,1,0,NA,NA,NA,NA,NA,NA,NA,NA,NA,NA,NA,NA,NA,NA,NA,NA,NA,NA,NA,NA,NA,NA,NA,NA
"272","stim/objects/HouseObjects/clothesdryingrack.png",472,9,465,0.7,"stim/62.jpeg",6,2,2,2,"HouseObjects",1,3,"left","left",0.601000071,1,1,1,0,NA,NA,NA,NA,NA,NA,NA,NA,NA,NA,NA,NA,NA,NA,NA,NA,NA,NA,NA,NA,NA,NA,NA,NA
