"","obj_file","X.x","participant.x","trialN.x","trial_cond","scn_file.x","scn_cat","scn_inst","scn_condition","fillers","obj_cat","obj_cat_num","quadrant","corr_ans","key_resp_trial.keys","key_resp_trial.rt","trial_acc","trial_acc_manual","group.x","practice","X.y","participant.y","OvsN","PE_level","object_cat","scn_file.y","corr_scn_cat","corr_scn_inst","scn_file.1","corr_loc","key_resp_id.keys","key_resp_id.rt","key_resp_conf.keys","key_resp_assoc.keys","key_resp_assoc.rt","key_resp_loc.keys","key_resp_loc.rt","trialN.y","id_acc","assoc.acc","cond_assoc","loc.acc","cond_loc","group.y"
"217","stim/objects/Instruments/cornet.png",1,45,1,0.7,"stim/32.jpeg",3,2,2,NA,"Instruments",2,3,"right","",NA,0,0,0,1,NA,NA,NA,NA,NA,NA,NA,NA,NA,NA,NA,NA,NA,NA,NA,NA,NA,NA,NA,NA,NA,NA,NA,NA
"195","stim/objects/Instruments/chime.png",2,45,2,0.5,"stim/24.jpeg",2,4,1,NA,"Instruments",2,4,"right","left",0.803000212,0,0,0,1,NA,NA,NA,NA,NA,NA,NA,NA,NA,NA,NA,NA,NA,NA,NA,NA,NA,NA,NA,NA,NA,NA,NA,NA
"233","stim/objects/Instruments/doublebass.png",3,45,3,0.7,"stim/34.jpeg",3,4,2,NA,"Instruments",2,3,"right","right",0.625999928,1,1,0,1,NA,NA,NA,NA,NA,NA,NA,NA,NA,NA,NA,NA,NA,NA,NA,NA,NA,NA,NA,NA,NA,NA,NA,NA
"49","stim/objects/HouseObjects/bleachbottle.png",4,45,4,0.5,"stim/21.jpeg",2,1,1,NA,"HouseObjects",1,1,"left","right",0.583000183,0,0,0,1,NA,NA,NA,NA,NA,NA,NA,NA,NA,NA,NA,NA,NA,NA,NA,NA,NA,NA,NA,NA,NA,NA,NA,NA
"25","stim/objects/HouseObjects/barbecuelighter.png",5,45,5,0.5,"stim/13.jpeg",1,3,1,NA,"HouseObjects",1,3,"left","left",0.733999968,1,1,0,1,NA,NA,NA,NA,NA,NA,NA,NA,NA,NA,NA,NA,NA,NA,NA,NA,NA,NA,NA,NA,NA,NA,NA,NA
"158","stim/objects/Instruments/bassdrum2.png",6,45,6,0.9,"stim/51.jpeg",5,1,3,NA,"Instruments",2,1,"right","right",0.5,1,1,0,1,NA,NA,NA,NA,NA,NA,NA,NA,NA,NA,NA,NA,NA,NA,NA,NA,NA,NA,NA,NA,NA,NA,NA,NA
"159","stim/objects/Instruments/bassdrum2.png",7,45,7,0.9,"stim/51.jpeg",5,1,3,NA,"Instruments",2,3,"right","right",0.512000084,1,1,0,1,NA,NA,NA,NA,NA,NA,NA,NA,NA,NA,NA,NA,NA,NA,NA,NA,NA,NA,NA,NA,NA,NA,NA,NA
"76","stim/objects/HouseObjects/bucket2.png",8,45,8,0.9,"stim/61.jpeg",6,1,3,NA,"HouseObjects",1,4,"left","left",0.598999977,1,1,0,1,NA,NA,NA,NA,NA,NA,NA,NA,NA,NA,NA,NA,NA,NA,NA,NA,NA,NA,NA,NA,NA,NA,NA,NA
"172","stim/objects/Instruments/bassguitar2.png",9,45,9,0.9,"stim/52.jpeg",5,2,3,NA,"Instruments",2,1,"right","right",0.573000193,1,1,0,1,NA,NA,NA,NA,NA,NA,NA,NA,NA,NA,NA,NA,NA,NA,NA,NA,NA,NA,NA,NA,NA,NA,NA,NA
"167","stim/objects/Instruments/bassguitar.png",10,45,10,0.5,"stim/22.jpeg",2,2,1,NA,"Instruments",2,2,"right","right",0.587000132,1,1,0,1,NA,NA,NA,NA,NA,NA,NA,NA,NA,NA,NA,NA,NA,NA,NA,NA,NA,NA,NA,NA,NA,NA,NA,NA
"234","stim/objects/Instruments/doublebass.png",11,45,11,0.7,"stim/34.jpeg",3,4,2,NA,"Instruments",2,3,"right","right",0.553999901,1,1,0,1,NA,NA,NA,NA,NA,NA,NA,NA,NA,NA,NA,NA,NA,NA,NA,NA,NA,NA,NA,NA,NA,NA,NA,NA
"37","stim/objects/HouseObjects/basket.png",12,45,12,0.5,"stim/14.jpeg",1,4,1,NA,"HouseObjects",1,2,"left","left",0.519000053,1,1,0,1,NA,NA,NA,NA,NA,NA,NA,NA,NA,NA,NA,NA,NA,NA,NA,NA,NA,NA,NA,NA,NA,NA,NA,NA
"30","stim/objects/HouseObjects/barbecuelighter2.png",13,45,13,0.7,"stim/43.jpeg",4,3,2,NA,"HouseObjects",1,4,"left","left",0.565999985,1,1,0,1,NA,NA,NA,NA,NA,NA,NA,NA,NA,NA,NA,NA,NA,NA,NA,NA,NA,NA,NA,NA,NA,NA,NA,NA
"61","stim/objects/HouseObjects/bottle.png",14,45,14,0.5,"stim/23.jpeg",2,3,1,NA,"HouseObjects",1,1,"left","right",0.600999832,0,0,0,1,NA,NA,NA,NA,NA,NA,NA,NA,NA,NA,NA,NA,NA,NA,NA,NA,NA,NA,NA,NA,NA,NA,NA,NA
"121","stim/objects/Instruments/accordion.png",15,45,15,0.5,"stim/11.jpeg",1,1,1,NA,"Instruments",2,3,"right","left",0.59800005,0,0,0,1,NA,NA,NA,NA,NA,NA,NA,NA,NA,NA,NA,NA,NA,NA,NA,NA,NA,NA,NA,NA,NA,NA,NA,NA
"85","stim/objects/HouseObjects/clock.png",16,45,16,0.3,"stim/32.jpeg",3,2,2,NA,"HouseObjects",1,4,"left","right",0.5400002,0,0,0,1,NA,NA,NA,NA,NA,NA,NA,NA,NA,NA,NA,NA,NA,NA,NA,NA,NA,NA,NA,NA,NA,NA,NA,NA
"100","stim/objects/HouseObjects/clothesdryingrack2.png",17,45,17,0.9,"stim/63.jpeg",6,3,3,NA,"HouseObjects",1,1,"left","left",0.56400013,1,1,0,1,NA,NA,NA,NA,NA,NA,NA,NA,NA,NA,NA,NA,NA,NA,NA,NA,NA,NA,NA,NA,NA,NA,NA,NA
"112","stim/objects/HouseObjects/clothespin2.png",18,45,18,0.9,"stim/64.jpeg",6,4,3,NA,"HouseObjects",1,4,"left","left",0.472000122,1,1,0,1,NA,NA,NA,NA,NA,NA,NA,NA,NA,NA,NA,NA,NA,NA,NA,NA,NA,NA,NA,NA,NA,NA,NA,NA
"101","stim/objects/HouseObjects/clothesdryingrack2.png",19,45,19,0.9,"stim/63.jpeg",6,3,3,NA,"HouseObjects",1,4,"left","left",0.497999907,1,1,0,1,NA,NA,NA,NA,NA,NA,NA,NA,NA,NA,NA,NA,NA,NA,NA,NA,NA,NA,NA,NA,NA,NA,NA,NA
"173","stim/objects/Instruments/bassguitar2.png",20,45,20,0.9,"stim/52.jpeg",5,2,3,NA,"Instruments",2,3,"right","right",0.453000069,1,1,0,1,NA,NA,NA,NA,NA,NA,NA,NA,NA,NA,NA,NA,NA,NA,NA,NA,NA,NA,NA,NA,NA,NA,NA,NA
"200","stim/objects/Instruments/chime2.png",21,45,21,0.9,"stim/54.jpeg",5,4,3,NA,"Instruments",2,2,"right","right",0.527999878,1,1,0,1,NA,NA,NA,NA,NA,NA,NA,NA,NA,NA,NA,NA,NA,NA,NA,NA,NA,NA,NA,NA,NA,NA,NA,NA
"18","stim/objects/HouseObjects/ballofstring2.png",22,45,22,0.7,"stim/42.jpeg",4,2,2,NA,"HouseObjects",1,3,"left","left",0.476000071,1,1,0,1,NA,NA,NA,NA,NA,NA,NA,NA,NA,NA,NA,NA,NA,NA,NA,NA,NA,NA,NA,NA,NA,NA,NA,NA
"209","stim/objects/Instruments/clarinet.png",23,45,23,0.7,"stim/31.jpeg",3,1,2,NA,"Instruments",2,4,"right","left",0.494999886,0,0,0,1,NA,NA,NA,NA,NA,NA,NA,NA,NA,NA,NA,NA,NA,NA,NA,NA,NA,NA,NA,NA,NA,NA,NA,NA
"50","stim/objects/HouseObjects/bleachbottle.png",24,45,24,0.5,"stim/21.jpeg",2,1,1,NA,"HouseObjects",1,4,"left","left",0.75999999,1,1,0,1,NA,NA,NA,NA,NA,NA,NA,NA,NA,NA,NA,NA,NA,NA,NA,NA,NA,NA,NA,NA,NA,NA,NA,NA
"225","stim/objects/Instruments/cymbal.png",25,45,25,0.7,"stim/33.jpeg",3,3,2,NA,"Instruments",2,1,"right","right",0.511000156,1,1,0,1,NA,NA,NA,NA,NA,NA,NA,NA,NA,NA,NA,NA,NA,NA,NA,NA,NA,NA,NA,NA,NA,NA,NA,NA
"13","stim/objects/HouseObjects/ballofstring.png",26,45,26,0.5,"stim/12.jpeg",1,2,1,NA,"HouseObjects",1,3,"left","left",0.857999802,1,1,0,1,NA,NA,NA,NA,NA,NA,NA,NA,NA,NA,NA,NA,NA,NA,NA,NA,NA,NA,NA,NA,NA,NA,NA,NA
"181","stim/objects/Instruments/cello.png",27,45,27,0.5,"stim/23.jpeg",2,3,1,NA,"Instruments",2,4,"right","left",0.51699996,0,0,0,1,NA,NA,NA,NA,NA,NA,NA,NA,NA,NA,NA,NA,NA,NA,NA,NA,NA,NA,NA,NA,NA,NA,NA,NA
"145","stim/objects/Instruments/banjo.png",28,45,28,0.5,"stim/14.jpeg",1,4,1,NA,"Instruments",2,3,"right","right",0.624000072,1,1,0,1,NA,NA,NA,NA,NA,NA,NA,NA,NA,NA,NA,NA,NA,NA,NA,NA,NA,NA,NA,NA,NA,NA,NA,NA
"77","stim/objects/HouseObjects/bucket2.png",29,45,29,0.9,"stim/61.jpeg",6,1,3,NA,"HouseObjects",1,3,"left","left",0.496000051,1,1,0,1,NA,NA,NA,NA,NA,NA,NA,NA,NA,NA,NA,NA,NA,NA,NA,NA,NA,NA,NA,NA,NA,NA,NA,NA
"153","stim/objects/Instruments/bassdrum.png",30,45,30,0.5,"stim/21.jpeg",2,1,1,NA,"Instruments",2,1,"right","right",0.785000086,1,1,0,1,NA,NA,NA,NA,NA,NA,NA,NA,NA,NA,NA,NA,NA,NA,NA,NA,NA,NA,NA,NA,NA,NA,NA,NA
"97","stim/objects/HouseObjects/clothesdryingrack.png",31,45,31,0.3,"stim/33.jpeg",3,3,2,NA,"HouseObjects",1,1,"left","right",0.463000059,0,0,0,1,NA,NA,NA,NA,NA,NA,NA,NA,NA,NA,NA,NA,NA,NA,NA,NA,NA,NA,NA,NA,NA,NA,NA,NA
"129","stim/objects/Instruments/acousticguitar.png",32,45,32,0.5,"stim/12.jpeg",1,2,1,NA,"Instruments",2,4,"right","left",0.753000021,0,0,0,1,NA,NA,NA,NA,NA,NA,NA,NA,NA,NA,NA,NA,NA,NA,NA,NA,NA,NA,NA,NA,NA,NA,NA,NA
"42","stim/objects/HouseObjects/basket2.png",33,45,33,0.7,"stim/44.jpeg",4,4,2,NA,"HouseObjects",1,3,"left","left",0.559000015,1,1,0,1,NA,NA,NA,NA,NA,NA,NA,NA,NA,NA,NA,NA,NA,NA,NA,NA,NA,NA,NA,NA,NA,NA,NA,NA
"235","stim/objects/Instruments/doublebass.png",34,45,34,0.7,"stim/34.jpeg",3,4,2,NA,"Instruments",2,4,"right","right",0.501000166,1,1,0,1,NA,NA,NA,NA,NA,NA,NA,NA,NA,NA,NA,NA,NA,NA,NA,NA,NA,NA,NA,NA,NA,NA,NA,NA
"186","stim/objects/Instruments/cello2.png",35,45,35,0.9,"stim/53.jpeg",5,3,3,NA,"Instruments",2,1,"right","right",0.742000103,1,1,0,1,NA,NA,NA,NA,NA,NA,NA,NA,NA,NA,NA,NA,NA,NA,NA,NA,NA,NA,NA,NA,NA,NA,NA,NA
"218","stim/objects/Instruments/cornet.png",36,45,36,0.7,"stim/32.jpeg",3,2,2,NA,"Instruments",2,2,"right","right",0.486999989,1,1,0,1,NA,NA,NA,NA,NA,NA,NA,NA,NA,NA,NA,NA,NA,NA,NA,NA,NA,NA,NA,NA,NA,NA,NA,NA
"26","stim/objects/HouseObjects/barbecuelighter.png",37,45,37,0.5,"stim/13.jpeg",1,3,1,NA,"HouseObjects",1,4,"left","left",0.510999918,1,1,0,1,NA,NA,NA,NA,NA,NA,NA,NA,NA,NA,NA,NA,NA,NA,NA,NA,NA,NA,NA,NA,NA,NA,NA,NA
"187","stim/objects/Instruments/cello2.png",38,45,38,0.9,"stim/53.jpeg",5,3,3,NA,"Instruments",2,2,"right","right",0.473999977,1,1,0,1,NA,NA,NA,NA,NA,NA,NA,NA,NA,NA,NA,NA,NA,NA,NA,NA,NA,NA,NA,NA,NA,NA,NA,NA
"182","stim/objects/Instruments/cello.png",39,45,39,0.5,"stim/23.jpeg",2,3,1,NA,"Instruments",2,4,"right","left",0.440999985,0,0,0,1,NA,NA,NA,NA,NA,NA,NA,NA,NA,NA,NA,NA,NA,NA,NA,NA,NA,NA,NA,NA,NA,NA,NA,NA
"174","stim/objects/Instruments/bassguitar2.png",40,45,40,0.9,"stim/52.jpeg",5,2,3,NA,"Instruments",2,4,"right","right",0.625999928,1,1,0,1,NA,NA,NA,NA,NA,NA,NA,NA,NA,NA,NA,NA,NA,NA,NA,NA,NA,NA,NA,NA,NA,NA,NA,NA
"188","stim/objects/Instruments/cello2.png",41,45,41,0.9,"stim/53.jpeg",5,3,3,NA,"Instruments",2,2,"right","right",0.463000059,1,1,0,1,NA,NA,NA,NA,NA,NA,NA,NA,NA,NA,NA,NA,NA,NA,NA,NA,NA,NA,NA,NA,NA,NA,NA,NA
"236","stim/objects/Instruments/doublebass.png",42,45,42,0.7,"stim/34.jpeg",3,4,2,NA,"Instruments",2,4,"right","left",0.680999994,0,0,0,1,NA,NA,NA,NA,NA,NA,NA,NA,NA,NA,NA,NA,NA,NA,NA,NA,NA,NA,NA,NA,NA,NA,NA,NA
"51","stim/objects/HouseObjects/bleachbottle.png",43,45,43,0.5,"stim/21.jpeg",2,1,1,NA,"HouseObjects",1,1,"left","right",0.621999979,0,0,0,1,NA,NA,NA,NA,NA,NA,NA,NA,NA,NA,NA,NA,NA,NA,NA,NA,NA,NA,NA,NA,NA,NA,NA,NA
"137","stim/objects/Instruments/balalaika.png",44,45,44,0.5,"stim/13.jpeg",1,3,1,NA,"Instruments",2,3,"right","left",0.777999878,0,0,0,1,NA,NA,NA,NA,NA,NA,NA,NA,NA,NA,NA,NA,NA,NA,NA,NA,NA,NA,NA,NA,NA,NA,NA,NA
"52","stim/objects/HouseObjects/bleachbottle.png",45,45,45,0.5,"stim/21.jpeg",2,1,1,NA,"HouseObjects",1,1,"left","left",0.688999891,1,1,0,1,NA,NA,NA,NA,NA,NA,NA,NA,NA,NA,NA,NA,NA,NA,NA,NA,NA,NA,NA,NA,NA,NA,NA,NA
"150","stim/objects/Instruments/banjo2.png",46,45,46,0.3,"stim/44.jpeg",4,4,2,NA,"Instruments",2,3,"right","left",0.570999861,0,0,0,1,NA,NA,NA,NA,NA,NA,NA,NA,NA,NA,NA,NA,NA,NA,NA,NA,NA,NA,NA,NA,NA,NA,NA,NA
"6","stim/objects/HouseObjects/ashtray2.png",47,45,47,0.7,"stim/41.jpeg",4,1,2,NA,"HouseObjects",1,2,"left","left",0.694999933,1,1,0,1,NA,NA,NA,NA,NA,NA,NA,NA,NA,NA,NA,NA,NA,NA,NA,NA,NA,NA,NA,NA,NA,NA,NA,NA
"7","stim/objects/HouseObjects/ashtray2.png",48,45,48,0.7,"stim/41.jpeg",4,1,2,NA,"HouseObjects",1,4,"left","left",0.558000088,1,1,0,1,NA,NA,NA,NA,NA,NA,NA,NA,NA,NA,NA,NA,NA,NA,NA,NA,NA,NA,NA,NA,NA,NA,NA,NA
"219","stim/objects/Instruments/cornet.png",49,45,49,0.7,"stim/32.jpeg",3,2,2,NA,"Instruments",2,1,"right","right",0.551000118,1,1,0,1,NA,NA,NA,NA,NA,NA,NA,NA,NA,NA,NA,NA,NA,NA,NA,NA,NA,NA,NA,NA,NA,NA,NA,NA
"73","stim/objects/HouseObjects/bucket.png",50,45,50,0.3,"stim/31.jpeg",3,1,2,NA,"HouseObjects",1,1,"left","right",0.622000217,0,0,0,1,NA,NA,NA,NA,NA,NA,NA,NA,NA,NA,NA,NA,NA,NA,NA,NA,NA,NA,NA,NA,NA,NA,NA,NA
"8","stim/objects/HouseObjects/ashtray2.png",51,45,51,0.7,"stim/41.jpeg",4,1,2,NA,"HouseObjects",1,2,"left","left",0.605999947,1,1,0,1,NA,NA,NA,NA,NA,NA,NA,NA,NA,NA,NA,NA,NA,NA,NA,NA,NA,NA,NA,NA,NA,NA,NA,NA
"175","stim/objects/Instruments/bassguitar2.png",52,45,52,0.9,"stim/52.jpeg",5,2,3,NA,"Instruments",2,1,"right","right",0.826999903,1,1,0,1,NA,NA,NA,NA,NA,NA,NA,NA,NA,NA,NA,NA,NA,NA,NA,NA,NA,NA,NA,NA,NA,NA,NA,NA
"122","stim/objects/Instruments/accordion.png",53,45,53,0.5,"stim/11.jpeg",1,1,1,NA,"Instruments",2,3,"right","left",0.540999889,0,0,0,1,NA,NA,NA,NA,NA,NA,NA,NA,NA,NA,NA,NA,NA,NA,NA,NA,NA,NA,NA,NA,NA,NA,NA,NA
"154","stim/objects/Instruments/bassdrum.png",54,45,54,0.5,"stim/21.jpeg",2,1,1,NA,"Instruments",2,2,"right","left",0.775000095,0,0,0,1,NA,NA,NA,NA,NA,NA,NA,NA,NA,NA,NA,NA,NA,NA,NA,NA,NA,NA,NA,NA,NA,NA,NA,NA
"43","stim/objects/HouseObjects/basket2.png",55,45,55,0.7,"stim/44.jpeg",4,4,2,NA,"HouseObjects",1,1,"left","left",0.594000101,1,1,0,1,NA,NA,NA,NA,NA,NA,NA,NA,NA,NA,NA,NA,NA,NA,NA,NA,NA,NA,NA,NA,NA,NA,NA,NA
"130","stim/objects/Instruments/acousticguitar.png",56,45,56,0.5,"stim/12.jpeg",1,2,1,NA,"Instruments",2,3,"right","right",0.766000032,1,1,0,1,NA,NA,NA,NA,NA,NA,NA,NA,NA,NA,NA,NA,NA,NA,NA,NA,NA,NA,NA,NA,NA,NA,NA,NA
"102","stim/objects/HouseObjects/clothesdryingrack2.png",57,45,57,0.9,"stim/63.jpeg",6,3,3,NA,"HouseObjects",1,4,"left","left",0.526000023,1,1,0,1,NA,NA,NA,NA,NA,NA,NA,NA,NA,NA,NA,NA,NA,NA,NA,NA,NA,NA,NA,NA,NA,NA,NA,NA
"109","stim/objects/HouseObjects/clothespin.png",58,45,58,0.3,"stim/34.jpeg",3,4,2,NA,"HouseObjects",1,1,"left","right",0.587000132,0,0,0,1,NA,NA,NA,NA,NA,NA,NA,NA,NA,NA,NA,NA,NA,NA,NA,NA,NA,NA,NA,NA,NA,NA,NA,NA
"67","stim/objects/HouseObjects/broom.png",59,45,59,0.5,"stim/24.jpeg",2,4,1,NA,"HouseObjects",1,2,"left","right",0.724999905,0,0,0,1,NA,NA,NA,NA,NA,NA,NA,NA,NA,NA,NA,NA,NA,NA,NA,NA,NA,NA,NA,NA,NA,NA,NA,NA
"220","stim/objects/Instruments/cornet.png",60,45,60,0.7,"stim/32.jpeg",3,2,2,NA,"Instruments",2,1,"right","left",0.659000158,0,0,0,1,NA,NA,NA,NA,NA,NA,NA,NA,NA,NA,NA,NA,NA,NA,NA,NA,NA,NA,NA,NA,NA,NA,NA,NA
"9","stim/objects/HouseObjects/ashtray2.png",61,45,61,0.7,"stim/41.jpeg",4,1,2,NA,"HouseObjects",1,4,"left","left",0.657000065,1,1,0,1,NA,NA,NA,NA,NA,NA,NA,NA,NA,NA,NA,NA,NA,NA,NA,NA,NA,NA,NA,NA,NA,NA,NA,NA
"103","stim/objects/HouseObjects/clothesdryingrack2.png",62,45,62,0.9,"stim/63.jpeg",6,3,3,NA,"HouseObjects",1,4,"left","left",0.523000002,1,1,0,1,NA,NA,NA,NA,NA,NA,NA,NA,NA,NA,NA,NA,NA,NA,NA,NA,NA,NA,NA,NA,NA,NA,NA,NA
"98","stim/objects/HouseObjects/clothesdryingrack.png",63,45,63,0.3,"stim/33.jpeg",3,3,2,NA,"HouseObjects",1,3,"left","right",0.786000013,0,0,0,1,NA,NA,NA,NA,NA,NA,NA,NA,NA,NA,NA,NA,NA,NA,NA,NA,NA,NA,NA,NA,NA,NA,NA,NA
"78","stim/objects/HouseObjects/bucket2.png",64,45,64,0.9,"stim/61.jpeg",6,1,3,NA,"HouseObjects",1,2,"left","left",0.542999983,1,1,0,1,NA,NA,NA,NA,NA,NA,NA,NA,NA,NA,NA,NA,NA,NA,NA,NA,NA,NA,NA,NA,NA,NA,NA,NA
"123","stim/objects/Instruments/accordion.png",65,45,65,0.5,"stim/11.jpeg",1,1,1,NA,"Instruments",2,3,"right","left",0.590999842,0,0,0,1,NA,NA,NA,NA,NA,NA,NA,NA,NA,NA,NA,NA,NA,NA,NA,NA,NA,NA,NA,NA,NA,NA,NA,NA
"134","stim/objects/Instruments/acousticguitar2.png",66,45,66,0.3,"stim/42.jpeg",4,2,2,NA,"Instruments",2,2,"right","left",0.707999945,0,0,0,1,NA,NA,NA,NA,NA,NA,NA,NA,NA,NA,NA,NA,NA,NA,NA,NA,NA,NA,NA,NA,NA,NA,NA,NA
"183","stim/objects/Instruments/cello.png",67,45,67,0.5,"stim/23.jpeg",2,3,1,NA,"Instruments",2,3,"right","right",0.553999901,1,1,0,1,NA,NA,NA,NA,NA,NA,NA,NA,NA,NA,NA,NA,NA,NA,NA,NA,NA,NA,NA,NA,NA,NA,NA,NA
"168","stim/objects/Instruments/bassguitar.png",68,45,68,0.5,"stim/22.jpeg",2,2,1,NA,"Instruments",2,1,"right","right",0.596000195,1,1,0,1,NA,NA,NA,NA,NA,NA,NA,NA,NA,NA,NA,NA,NA,NA,NA,NA,NA,NA,NA,NA,NA,NA,NA,NA
"74","stim/objects/HouseObjects/bucket.png",69,45,69,0.3,"stim/31.jpeg",3,1,2,NA,"HouseObjects",1,3,"left","left",0.759000063,1,1,0,1,NA,NA,NA,NA,NA,NA,NA,NA,NA,NA,NA,NA,NA,NA,NA,NA,NA,NA,NA,NA,NA,NA,NA,NA
"1","stim/objects/HouseObjects/ashtray.png",70,45,70,0.5,"stim/11.jpeg",1,1,1,NA,"HouseObjects",1,2,"left","",NA,0,0,0,1,NA,NA,NA,NA,NA,NA,NA,NA,NA,NA,NA,NA,NA,NA,NA,NA,NA,NA,NA,NA,NA,NA,NA,NA
"104","stim/objects/HouseObjects/clothesdryingrack2.png",71,45,71,0.9,"stim/63.jpeg",6,3,3,NA,"HouseObjects",1,3,"left","left",0.481999874,1,1,0,1,NA,NA,NA,NA,NA,NA,NA,NA,NA,NA,NA,NA,NA,NA,NA,NA,NA,NA,NA,NA,NA,NA,NA,NA
"142","stim/objects/Instruments/balalaika2.png",72,45,72,0.3,"stim/43.jpeg",4,3,2,NA,"Instruments",2,3,"right","left",0.441000223,0,0,0,1,NA,NA,NA,NA,NA,NA,NA,NA,NA,NA,NA,NA,NA,NA,NA,NA,NA,NA,NA,NA,NA,NA,NA,NA
"105","stim/objects/HouseObjects/clothesdryingrack2.png",73,45,73,0.9,"stim/63.jpeg",6,3,3,NA,"HouseObjects",1,4,"left","left",0.610000134,1,1,0,1,NA,NA,NA,NA,NA,NA,NA,NA,NA,NA,NA,NA,NA,NA,NA,NA,NA,NA,NA,NA,NA,NA,NA,NA
"146","stim/objects/Instruments/banjo.png",74,45,74,0.5,"stim/14.jpeg",1,4,1,NA,"Instruments",2,3,"right","right",0.538000107,1,1,0,1,NA,NA,NA,NA,NA,NA,NA,NA,NA,NA,NA,NA,NA,NA,NA,NA,NA,NA,NA,NA,NA,NA,NA,NA
"169","stim/objects/Instruments/bassguitar.png",75,45,75,0.5,"stim/22.jpeg",2,2,1,NA,"Instruments",2,1,"right","right",0.561000109,1,1,0,1,NA,NA,NA,NA,NA,NA,NA,NA,NA,NA,NA,NA,NA,NA,NA,NA,NA,NA,NA,NA,NA,NA,NA,NA
"68","stim/objects/HouseObjects/broom.png",76,45,76,0.5,"stim/24.jpeg",2,4,1,NA,"HouseObjects",1,3,"left","left",0.539000034,1,1,0,1,NA,NA,NA,NA,NA,NA,NA,NA,NA,NA,NA,NA,NA,NA,NA,NA,NA,NA,NA,NA,NA,NA,NA,NA
"131","stim/objects/Instruments/acousticguitar.png",77,45,77,0.5,"stim/12.jpeg",1,2,1,NA,"Instruments",2,2,"right","left",0.510999918,0,0,0,1,NA,NA,NA,NA,NA,NA,NA,NA,NA,NA,NA,NA,NA,NA,NA,NA,NA,NA,NA,NA,NA,NA,NA,NA
"126","stim/objects/Instruments/accordion2.png",78,45,78,0.3,"stim/41.jpeg",4,1,2,NA,"Instruments",2,3,"right","left",0.630999804,0,0,0,1,NA,NA,NA,NA,NA,NA,NA,NA,NA,NA,NA,NA,NA,NA,NA,NA,NA,NA,NA,NA,NA,NA,NA,NA
"221","stim/objects/Instruments/cornet.png",79,45,79,0.7,"stim/32.jpeg",3,2,2,NA,"Instruments",2,2,"right","right",0.700000048,1,1,0,1,NA,NA,NA,NA,NA,NA,NA,NA,NA,NA,NA,NA,NA,NA,NA,NA,NA,NA,NA,NA,NA,NA,NA,NA
"240","stim/objects/Instruments/doublebass2.png",80,45,80,0.1,"stim/64.jpeg",6,4,3,NA,"Instruments",2,3,"right","left",0.595000029,0,0,0,1,NA,NA,NA,NA,NA,NA,NA,NA,NA,NA,NA,NA,NA,NA,NA,NA,NA,NA,NA,NA,NA,NA,NA,NA
"143","stim/objects/Instruments/balalaika2.png",81,45,81,0.3,"stim/43.jpeg",4,3,2,NA,"Instruments",2,2,"right","left",0.680999994,0,0,0,1,NA,NA,NA,NA,NA,NA,NA,NA,NA,NA,NA,NA,NA,NA,NA,NA,NA,NA,NA,NA,NA,NA,NA,NA
"62","stim/objects/HouseObjects/bottle.png",82,45,82,0.5,"stim/23.jpeg",2,3,1,NA,"HouseObjects",1,1,"left","right",0.536000013,0,0,0,1,NA,NA,NA,NA,NA,NA,NA,NA,NA,NA,NA,NA,NA,NA,NA,NA,NA,NA,NA,NA,NA,NA,NA,NA
"10","stim/objects/HouseObjects/ashtray2.png",83,45,83,0.7,"stim/41.jpeg",4,1,2,NA,"HouseObjects",1,4,"left","left",0.595999956,1,1,0,1,NA,NA,NA,NA,NA,NA,NA,NA,NA,NA,NA,NA,NA,NA,NA,NA,NA,NA,NA,NA,NA,NA,NA,NA
"160","stim/objects/Instruments/bassdrum2.png",84,45,84,0.9,"stim/51.jpeg",5,1,3,NA,"Instruments",2,1,"right","right",0.531999826,1,1,0,1,NA,NA,NA,NA,NA,NA,NA,NA,NA,NA,NA,NA,NA,NA,NA,NA,NA,NA,NA,NA,NA,NA,NA,NA
"161","stim/objects/Instruments/bassdrum2.png",85,45,85,0.9,"stim/51.jpeg",5,1,3,NA,"Instruments",2,4,"right","right",0.440000057,1,1,0,1,NA,NA,NA,NA,NA,NA,NA,NA,NA,NA,NA,NA,NA,NA,NA,NA,NA,NA,NA,NA,NA,NA,NA,NA
"2","stim/objects/HouseObjects/ashtray.png",86,45,86,0.5,"stim/11.jpeg",1,1,1,NA,"HouseObjects",1,2,"left","left",0.523000002,1,1,0,1,NA,NA,NA,NA,NA,NA,NA,NA,NA,NA,NA,NA,NA,NA,NA,NA,NA,NA,NA,NA,NA,NA,NA,NA
"176","stim/objects/Instruments/bassguitar2.png",87,45,87,0.9,"stim/52.jpeg",5,2,3,NA,"Instruments",2,3,"right","right",0.506999969,1,1,0,1,NA,NA,NA,NA,NA,NA,NA,NA,NA,NA,NA,NA,NA,NA,NA,NA,NA,NA,NA,NA,NA,NA,NA,NA
"44","stim/objects/HouseObjects/basket2.png",88,45,88,0.7,"stim/44.jpeg",4,4,2,NA,"HouseObjects",1,4,"left","left",0.538000107,1,1,0,1,NA,NA,NA,NA,NA,NA,NA,NA,NA,NA,NA,NA,NA,NA,NA,NA,NA,NA,NA,NA,NA,NA,NA,NA
"88","stim/objects/HouseObjects/clock2.png",89,45,89,0.9,"stim/62.jpeg",6,2,3,NA,"HouseObjects",1,4,"left","left",0.492000103,1,1,0,1,NA,NA,NA,NA,NA,NA,NA,NA,NA,NA,NA,NA,NA,NA,NA,NA,NA,NA,NA,NA,NA,NA,NA,NA
"45","stim/objects/HouseObjects/basket2.png",90,45,90,0.7,"stim/44.jpeg",4,4,2,NA,"HouseObjects",1,2,"left","left",0.547999859,1,1,0,1,NA,NA,NA,NA,NA,NA,NA,NA,NA,NA,NA,NA,NA,NA,NA,NA,NA,NA,NA,NA,NA,NA,NA,NA
"189","stim/objects/Instruments/cello2.png",91,45,91,0.9,"stim/53.jpeg",5,3,3,NA,"Instruments",2,2,"right","right",0.556999922,1,1,0,1,NA,NA,NA,NA,NA,NA,NA,NA,NA,NA,NA,NA,NA,NA,NA,NA,NA,NA,NA,NA,NA,NA,NA,NA
"155","stim/objects/Instruments/bassdrum.png",92,45,92,0.5,"stim/21.jpeg",2,1,1,NA,"Instruments",2,1,"right","right",0.552999973,1,1,0,1,NA,NA,NA,NA,NA,NA,NA,NA,NA,NA,NA,NA,NA,NA,NA,NA,NA,NA,NA,NA,NA,NA,NA,NA
"177","stim/objects/Instruments/bassguitar2.png",93,45,93,0.9,"stim/52.jpeg",5,2,3,NA,"Instruments",2,3,"right","right",0.523000002,1,1,0,1,NA,NA,NA,NA,NA,NA,NA,NA,NA,NA,NA,NA,NA,NA,NA,NA,NA,NA,NA,NA,NA,NA,NA,NA
"113","stim/objects/HouseObjects/clothespin2.png",94,45,94,0.9,"stim/64.jpeg",6,4,3,NA,"HouseObjects",1,2,"left","left",0.476000071,1,1,0,1,NA,NA,NA,NA,NA,NA,NA,NA,NA,NA,NA,NA,NA,NA,NA,NA,NA,NA,NA,NA,NA,NA,NA,NA
"46","stim/objects/HouseObjects/basket2.png",95,45,95,0.7,"stim/44.jpeg",4,4,2,NA,"HouseObjects",1,1,"left","left",0.51699996,1,1,0,1,NA,NA,NA,NA,NA,NA,NA,NA,NA,NA,NA,NA,NA,NA,NA,NA,NA,NA,NA,NA,NA,NA,NA,NA
"226","stim/objects/Instruments/cymbal.png",96,45,96,0.7,"stim/33.jpeg",3,3,2,NA,"Instruments",2,1,"right","right",0.486000061,1,1,0,1,NA,NA,NA,NA,NA,NA,NA,NA,NA,NA,NA,NA,NA,NA,NA,NA,NA,NA,NA,NA,NA,NA,NA,NA
"210","stim/objects/Instruments/clarinet.png",97,45,97,0.7,"stim/31.jpeg",3,1,2,NA,"Instruments",2,3,"right","right",0.555999994,1,1,0,1,NA,NA,NA,NA,NA,NA,NA,NA,NA,NA,NA,NA,NA,NA,NA,NA,NA,NA,NA,NA,NA,NA,NA,NA
"79","stim/objects/HouseObjects/bucket2.png",98,45,98,0.9,"stim/61.jpeg",6,1,3,NA,"HouseObjects",1,2,"left","left",0.481999874,1,1,0,1,NA,NA,NA,NA,NA,NA,NA,NA,NA,NA,NA,NA,NA,NA,NA,NA,NA,NA,NA,NA,NA,NA,NA,NA
"99","stim/objects/HouseObjects/clothesdryingrack.png",99,45,99,0.3,"stim/33.jpeg",3,3,2,NA,"HouseObjects",1,4,"left","left",0.520999908,1,1,0,1,NA,NA,NA,NA,NA,NA,NA,NA,NA,NA,NA,NA,NA,NA,NA,NA,NA,NA,NA,NA,NA,NA,NA,NA
"69","stim/objects/HouseObjects/broom.png",100,45,100,0.5,"stim/24.jpeg",2,4,1,NA,"HouseObjects",1,4,"left","left",0.571000099,1,1,0,1,NA,NA,NA,NA,NA,NA,NA,NA,NA,NA,NA,NA,NA,NA,NA,NA,NA,NA,NA,NA,NA,NA,NA,NA
"80","stim/objects/HouseObjects/bucket2.png",101,45,101,0.9,"stim/61.jpeg",6,1,3,NA,"HouseObjects",1,2,"left","left",0.500999928,1,1,0,1,NA,NA,NA,NA,NA,NA,NA,NA,NA,NA,NA,NA,NA,NA,NA,NA,NA,NA,NA,NA,NA,NA,NA,NA
"81","stim/objects/HouseObjects/bucket2.png",102,45,102,0.9,"stim/61.jpeg",6,1,3,NA,"HouseObjects",1,3,"left","left",0.412999868,1,1,0,1,NA,NA,NA,NA,NA,NA,NA,NA,NA,NA,NA,NA,NA,NA,NA,NA,NA,NA,NA,NA,NA,NA,NA,NA
"132","stim/objects/Instruments/acousticguitar.png",103,45,103,0.5,"stim/12.jpeg",1,2,1,NA,"Instruments",2,3,"right","left",0.690999985,0,0,0,1,NA,NA,NA,NA,NA,NA,NA,NA,NA,NA,NA,NA,NA,NA,NA,NA,NA,NA,NA,NA,NA,NA,NA,NA
"138","stim/objects/Instruments/balalaika.png",104,45,104,0.5,"stim/13.jpeg",1,3,1,NA,"Instruments",2,2,"right","left",0.660000086,0,0,0,1,NA,NA,NA,NA,NA,NA,NA,NA,NA,NA,NA,NA,NA,NA,NA,NA,NA,NA,NA,NA,NA,NA,NA,NA
"201","stim/objects/Instruments/chime2.png",105,45,105,0.9,"stim/54.jpeg",5,4,3,NA,"Instruments",2,4,"right","right",0.592999935,1,1,0,1,NA,NA,NA,NA,NA,NA,NA,NA,NA,NA,NA,NA,NA,NA,NA,NA,NA,NA,NA,NA,NA,NA,NA,NA
"63","stim/objects/HouseObjects/bottle.png",106,45,106,0.5,"stim/23.jpeg",2,3,1,NA,"HouseObjects",1,2,"left","left",0.520999908,1,1,0,1,NA,NA,NA,NA,NA,NA,NA,NA,NA,NA,NA,NA,NA,NA,NA,NA,NA,NA,NA,NA,NA,NA,NA,NA
"106","stim/objects/HouseObjects/clothesdryingrack2.png",107,45,107,0.9,"stim/63.jpeg",6,3,3,NA,"HouseObjects",1,2,"left","right",0.628000021,0,0,0,1,NA,NA,NA,NA,NA,NA,NA,NA,NA,NA,NA,NA,NA,NA,NA,NA,NA,NA,NA,NA,NA,NA,NA,NA
"170","stim/objects/Instruments/bassguitar.png",108,45,108,0.5,"stim/22.jpeg",2,2,1,NA,"Instruments",2,1,"right","right",0.665999889,1,1,0,1,NA,NA,NA,NA,NA,NA,NA,NA,NA,NA,NA,NA,NA,NA,NA,NA,NA,NA,NA,NA,NA,NA,NA,NA
"55","stim/objects/HouseObjects/blender.png",109,45,109,0.5,"stim/22.jpeg",2,2,1,NA,"HouseObjects",1,3,"left","left",0.59100008,1,1,0,1,NA,NA,NA,NA,NA,NA,NA,NA,NA,NA,NA,NA,NA,NA,NA,NA,NA,NA,NA,NA,NA,NA,NA,NA
"232","stim/objects/Instruments/cymbal2.png",110,45,110,0.1,"stim/63.jpeg",6,3,3,NA,"Instruments",2,4,"right","left",0.476000071,0,0,0,1,NA,NA,NA,NA,NA,NA,NA,NA,NA,NA,NA,NA,NA,NA,NA,NA,NA,NA,NA,NA,NA,NA,NA,NA
"31","stim/objects/HouseObjects/barbecuelighter2.png",111,45,111,0.7,"stim/43.jpeg",4,3,2,NA,"HouseObjects",1,4,"left","left",0.539000034,1,1,0,1,NA,NA,NA,NA,NA,NA,NA,NA,NA,NA,NA,NA,NA,NA,NA,NA,NA,NA,NA,NA,NA,NA,NA,NA
"133","stim/objects/Instruments/acousticguitar.png",112,45,112,0.5,"stim/12.jpeg",1,2,1,NA,"Instruments",2,2,"right","right",0.685000181,1,1,0,1,NA,NA,NA,NA,NA,NA,NA,NA,NA,NA,NA,NA,NA,NA,NA,NA,NA,NA,NA,NA,NA,NA,NA,NA
"3","stim/objects/HouseObjects/ashtray.png",113,45,113,0.5,"stim/11.jpeg",1,1,1,NA,"HouseObjects",1,4,"left","left",0.542999983,1,1,0,1,NA,NA,NA,NA,NA,NA,NA,NA,NA,NA,NA,NA,NA,NA,NA,NA,NA,NA,NA,NA,NA,NA,NA,NA
"202","stim/objects/Instruments/chime2.png",114,45,114,0.9,"stim/54.jpeg",5,4,3,NA,"Instruments",2,4,"right","right",0.582000017,1,1,0,1,NA,NA,NA,NA,NA,NA,NA,NA,NA,NA,NA,NA,NA,NA,NA,NA,NA,NA,NA,NA,NA,NA,NA,NA
"47","stim/objects/HouseObjects/basket2.png",115,45,115,0.7,"stim/44.jpeg",4,4,2,NA,"HouseObjects",1,3,"left","left",0.525000095,1,1,0,1,NA,NA,NA,NA,NA,NA,NA,NA,NA,NA,NA,NA,NA,NA,NA,NA,NA,NA,NA,NA,NA,NA,NA,NA
"211","stim/objects/Instruments/clarinet.png",116,45,116,0.7,"stim/31.jpeg",3,1,2,NA,"Instruments",2,3,"right","right",0.666999817,1,1,0,1,NA,NA,NA,NA,NA,NA,NA,NA,NA,NA,NA,NA,NA,NA,NA,NA,NA,NA,NA,NA,NA,NA,NA,NA
"89","stim/objects/HouseObjects/clock2.png",117,45,117,0.9,"stim/62.jpeg",6,2,3,NA,"HouseObjects",1,4,"left","left",0.528000116,1,1,0,1,NA,NA,NA,NA,NA,NA,NA,NA,NA,NA,NA,NA,NA,NA,NA,NA,NA,NA,NA,NA,NA,NA,NA,NA
"212","stim/objects/Instruments/clarinet.png",118,45,118,0.7,"stim/31.jpeg",3,1,2,NA,"Instruments",2,1,"right","right",0.492000103,1,1,0,1,NA,NA,NA,NA,NA,NA,NA,NA,NA,NA,NA,NA,NA,NA,NA,NA,NA,NA,NA,NA,NA,NA,NA,NA
"127","stim/objects/Instruments/accordion2.png",119,45,119,0.3,"stim/41.jpeg",4,1,2,NA,"Instruments",2,1,"right","left",0.542999983,0,0,0,1,NA,NA,NA,NA,NA,NA,NA,NA,NA,NA,NA,NA,NA,NA,NA,NA,NA,NA,NA,NA,NA,NA,NA,NA
"171","stim/objects/Instruments/bassguitar.png",120,45,120,0.5,"stim/22.jpeg",2,2,1,NA,"Instruments",2,1,"right","right",0.637000084,1,1,0,1,NA,NA,NA,NA,NA,NA,NA,NA,NA,NA,NA,NA,NA,NA,NA,NA,NA,NA,NA,NA,NA,NA,NA,NA
"190","stim/objects/Instruments/cello2.png",121,45,121,0.9,"stim/53.jpeg",5,3,3,NA,"Instruments",2,4,"right","right",0.872999907,1,1,0,1,NA,NA,NA,NA,NA,NA,NA,NA,NA,NA,NA,NA,NA,NA,NA,NA,NA,NA,NA,NA,NA,NA,NA,NA
"14","stim/objects/HouseObjects/ballofstring.png",122,45,122,0.5,"stim/12.jpeg",1,2,1,NA,"HouseObjects",1,4,"left","left",0.573999882,1,1,0,1,NA,NA,NA,NA,NA,NA,NA,NA,NA,NA,NA,NA,NA,NA,NA,NA,NA,NA,NA,NA,NA,NA,NA,NA
"237","stim/objects/Instruments/doublebass.png",123,45,123,0.7,"stim/34.jpeg",3,4,2,NA,"Instruments",2,1,"right","right",0.520999908,1,1,0,1,NA,NA,NA,NA,NA,NA,NA,NA,NA,NA,NA,NA,NA,NA,NA,NA,NA,NA,NA,NA,NA,NA,NA,NA
"56","stim/objects/HouseObjects/blender.png",124,45,124,0.5,"stim/22.jpeg",2,2,1,NA,"HouseObjects",1,2,"left","left",0.694000006,1,1,0,1,NA,NA,NA,NA,NA,NA,NA,NA,NA,NA,NA,NA,NA,NA,NA,NA,NA,NA,NA,NA,NA,NA,NA,NA
"11","stim/objects/HouseObjects/ashtray2.png",125,45,125,0.7,"stim/41.jpeg",4,1,2,NA,"HouseObjects",1,2,"left","left",0.763000011,1,1,0,1,NA,NA,NA,NA,NA,NA,NA,NA,NA,NA,NA,NA,NA,NA,NA,NA,NA,NA,NA,NA,NA,NA,NA,NA
"184","stim/objects/Instruments/cello.png",126,45,126,0.5,"stim/23.jpeg",2,3,1,NA,"Instruments",2,4,"right","right",0.674000025,1,1,0,1,NA,NA,NA,NA,NA,NA,NA,NA,NA,NA,NA,NA,NA,NA,NA,NA,NA,NA,NA,NA,NA,NA,NA,NA
"114","stim/objects/HouseObjects/clothespin2.png",127,45,127,0.9,"stim/64.jpeg",6,4,3,NA,"HouseObjects",1,3,"left","left",0.530999899,1,1,0,1,NA,NA,NA,NA,NA,NA,NA,NA,NA,NA,NA,NA,NA,NA,NA,NA,NA,NA,NA,NA,NA,NA,NA,NA
"213","stim/objects/Instruments/clarinet.png",128,45,128,0.7,"stim/31.jpeg",3,1,2,NA,"Instruments",2,4,"right","right",0.655999899,1,1,0,1,NA,NA,NA,NA,NA,NA,NA,NA,NA,NA,NA,NA,NA,NA,NA,NA,NA,NA,NA,NA,NA,NA,NA,NA
"57","stim/objects/HouseObjects/blender.png",129,45,129,0.5,"stim/22.jpeg",2,2,1,NA,"HouseObjects",1,3,"left","left",0.469000101,1,1,0,1,NA,NA,NA,NA,NA,NA,NA,NA,NA,NA,NA,NA,NA,NA,NA,NA,NA,NA,NA,NA,NA,NA,NA,NA
"115","stim/objects/HouseObjects/clothespin2.png",130,45,130,0.9,"stim/64.jpeg",6,4,3,NA,"HouseObjects",1,3,"left","left",0.511000156,1,1,0,1,NA,NA,NA,NA,NA,NA,NA,NA,NA,NA,NA,NA,NA,NA,NA,NA,NA,NA,NA,NA,NA,NA,NA,NA
"116","stim/objects/HouseObjects/clothespin2.png",131,45,131,0.9,"stim/64.jpeg",6,4,3,NA,"HouseObjects",1,4,"left","left",0.43200016,1,1,0,1,NA,NA,NA,NA,NA,NA,NA,NA,NA,NA,NA,NA,NA,NA,NA,NA,NA,NA,NA,NA,NA,NA,NA,NA
"86","stim/objects/HouseObjects/clock.png",132,45,132,0.3,"stim/32.jpeg",3,2,2,NA,"HouseObjects",1,3,"left","right",0.476999998,0,0,0,1,NA,NA,NA,NA,NA,NA,NA,NA,NA,NA,NA,NA,NA,NA,NA,NA,NA,NA,NA,NA,NA,NA,NA,NA
"58","stim/objects/HouseObjects/blender.png",133,45,133,0.5,"stim/22.jpeg",2,2,1,NA,"HouseObjects",1,4,"left","left",0.556999922,1,1,0,1,NA,NA,NA,NA,NA,NA,NA,NA,NA,NA,NA,NA,NA,NA,NA,NA,NA,NA,NA,NA,NA,NA,NA,NA
"90","stim/objects/HouseObjects/clock2.png",134,45,134,0.9,"stim/62.jpeg",6,2,3,NA,"HouseObjects",1,3,"left","left",0.555999994,1,1,0,1,NA,NA,NA,NA,NA,NA,NA,NA,NA,NA,NA,NA,NA,NA,NA,NA,NA,NA,NA,NA,NA,NA,NA,NA
"19","stim/objects/HouseObjects/ballofstring2.png",135,45,135,0.7,"stim/42.jpeg",4,2,2,NA,"HouseObjects",1,3,"left","right",0.522000074,0,0,0,1,NA,NA,NA,NA,NA,NA,NA,NA,NA,NA,NA,NA,NA,NA,NA,NA,NA,NA,NA,NA,NA,NA,NA,NA
"20","stim/objects/HouseObjects/ballofstring2.png",136,45,136,0.7,"stim/42.jpeg",4,2,2,NA,"HouseObjects",1,2,"left","left",0.603999853,1,1,0,1,NA,NA,NA,NA,NA,NA,NA,NA,NA,NA,NA,NA,NA,NA,NA,NA,NA,NA,NA,NA,NA,NA,NA,NA
"139","stim/objects/Instruments/balalaika.png",137,45,137,0.5,"stim/13.jpeg",1,3,1,NA,"Instruments",2,2,"right","right",0.643999815,1,1,0,1,NA,NA,NA,NA,NA,NA,NA,NA,NA,NA,NA,NA,NA,NA,NA,NA,NA,NA,NA,NA,NA,NA,NA,NA
"156","stim/objects/Instruments/bassdrum.png",138,45,138,0.5,"stim/21.jpeg",2,1,1,NA,"Instruments",2,2,"right","right",0.590000153,1,1,0,1,NA,NA,NA,NA,NA,NA,NA,NA,NA,NA,NA,NA,NA,NA,NA,NA,NA,NA,NA,NA,NA,NA,NA,NA
"144","stim/objects/Instruments/balalaika2.png",139,45,139,0.3,"stim/43.jpeg",4,3,2,NA,"Instruments",2,1,"right","left",0.59100008,0,0,0,1,NA,NA,NA,NA,NA,NA,NA,NA,NA,NA,NA,NA,NA,NA,NA,NA,NA,NA,NA,NA,NA,NA,NA,NA
"124","stim/objects/Instruments/accordion.png",140,45,140,0.5,"stim/11.jpeg",1,1,1,NA,"Instruments",2,2,"right","right",0.65199995,1,1,0,1,NA,NA,NA,NA,NA,NA,NA,NA,NA,NA,NA,NA,NA,NA,NA,NA,NA,NA,NA,NA,NA,NA,NA,NA
"227","stim/objects/Instruments/cymbal.png",141,45,141,0.7,"stim/33.jpeg",3,3,2,NA,"Instruments",2,2,"right","right",0.495999813,1,1,0,1,NA,NA,NA,NA,NA,NA,NA,NA,NA,NA,NA,NA,NA,NA,NA,NA,NA,NA,NA,NA,NA,NA,NA,NA
"224","stim/objects/Instruments/cornet2.png",142,45,142,0.1,"stim/62.jpeg",6,2,3,NA,"Instruments",2,1,"right","left",0.551000118,0,0,0,1,NA,NA,NA,NA,NA,NA,NA,NA,NA,NA,NA,NA,NA,NA,NA,NA,NA,NA,NA,NA,NA,NA,NA,NA
"191","stim/objects/Instruments/cello2.png",143,45,143,0.9,"stim/53.jpeg",5,3,3,NA,"Instruments",2,2,"right","right",0.472000122,1,1,0,1,NA,NA,NA,NA,NA,NA,NA,NA,NA,NA,NA,NA,NA,NA,NA,NA,NA,NA,NA,NA,NA,NA,NA,NA
"38","stim/objects/HouseObjects/basket.png",144,45,144,0.5,"stim/14.jpeg",1,4,1,NA,"HouseObjects",1,3,"left","right",0.605000019,0,0,0,1,NA,NA,NA,NA,NA,NA,NA,NA,NA,NA,NA,NA,NA,NA,NA,NA,NA,NA,NA,NA,NA,NA,NA,NA
"192","stim/objects/Instruments/cello2.png",145,45,145,0.9,"stim/53.jpeg",5,3,3,NA,"Instruments",2,1,"right","right",0.541000128,1,1,0,1,NA,NA,NA,NA,NA,NA,NA,NA,NA,NA,NA,NA,NA,NA,NA,NA,NA,NA,NA,NA,NA,NA,NA,NA
"178","stim/objects/Instruments/bassguitar2.png",146,45,146,0.9,"stim/52.jpeg",5,2,3,NA,"Instruments",2,2,"right","right",0.845000029,1,1,0,1,NA,NA,NA,NA,NA,NA,NA,NA,NA,NA,NA,NA,NA,NA,NA,NA,NA,NA,NA,NA,NA,NA,NA,NA
"107","stim/objects/HouseObjects/clothesdryingrack2.png",147,45,147,0.9,"stim/63.jpeg",6,3,3,NA,"HouseObjects",1,2,"left","left",0.568000078,1,1,0,1,NA,NA,NA,NA,NA,NA,NA,NA,NA,NA,NA,NA,NA,NA,NA,NA,NA,NA,NA,NA,NA,NA,NA,NA
"117","stim/objects/HouseObjects/clothespin2.png",148,45,148,0.9,"stim/64.jpeg",6,4,3,NA,"HouseObjects",1,1,"left","left",0.516000032,1,1,0,1,NA,NA,NA,NA,NA,NA,NA,NA,NA,NA,NA,NA,NA,NA,NA,NA,NA,NA,NA,NA,NA,NA,NA,NA
"53","stim/objects/HouseObjects/bleachbottle.png",149,45,149,0.5,"stim/21.jpeg",2,1,1,NA,"HouseObjects",1,3,"left","left",0.722999811,1,1,0,1,NA,NA,NA,NA,NA,NA,NA,NA,NA,NA,NA,NA,NA,NA,NA,NA,NA,NA,NA,NA,NA,NA,NA,NA
"151","stim/objects/Instruments/banjo2.png",150,45,150,0.3,"stim/44.jpeg",4,4,2,NA,"Instruments",2,1,"right","right",0.507999897,1,1,0,1,NA,NA,NA,NA,NA,NA,NA,NA,NA,NA,NA,NA,NA,NA,NA,NA,NA,NA,NA,NA,NA,NA,NA,NA
"222","stim/objects/Instruments/cornet.png",151,45,151,0.7,"stim/32.jpeg",3,2,2,NA,"Instruments",2,1,"right","right",0.55099988,1,1,0,1,NA,NA,NA,NA,NA,NA,NA,NA,NA,NA,NA,NA,NA,NA,NA,NA,NA,NA,NA,NA,NA,NA,NA,NA
"214","stim/objects/Instruments/clarinet.png",152,45,152,0.7,"stim/31.jpeg",3,1,2,NA,"Instruments",2,1,"right","right",0.450999975,1,1,0,1,NA,NA,NA,NA,NA,NA,NA,NA,NA,NA,NA,NA,NA,NA,NA,NA,NA,NA,NA,NA,NA,NA,NA,NA
"193","stim/objects/Instruments/cello2.png",153,45,153,0.9,"stim/53.jpeg",5,3,3,NA,"Instruments",2,3,"right","right",0.523000002,1,1,0,1,NA,NA,NA,NA,NA,NA,NA,NA,NA,NA,NA,NA,NA,NA,NA,NA,NA,NA,NA,NA,NA,NA,NA,NA
"152","stim/objects/Instruments/banjo2.png",154,45,154,0.3,"stim/44.jpeg",4,4,2,NA,"Instruments",2,4,"right","left",0.460000038,0,0,0,1,NA,NA,NA,NA,NA,NA,NA,NA,NA,NA,NA,NA,NA,NA,NA,NA,NA,NA,NA,NA,NA,NA,NA,NA
"108","stim/objects/HouseObjects/clothesdryingrack2.png",155,45,155,0.9,"stim/63.jpeg",6,3,3,NA,"HouseObjects",1,2,"left","left",0.480999947,1,1,0,1,NA,NA,NA,NA,NA,NA,NA,NA,NA,NA,NA,NA,NA,NA,NA,NA,NA,NA,NA,NA,NA,NA,NA,NA
"238","stim/objects/Instruments/doublebass.png",156,45,156,0.7,"stim/34.jpeg",3,4,2,NA,"Instruments",2,4,"right","right",0.45299983,1,1,0,1,NA,NA,NA,NA,NA,NA,NA,NA,NA,NA,NA,NA,NA,NA,NA,NA,NA,NA,NA,NA,NA,NA,NA,NA
"147","stim/objects/Instruments/banjo.png",157,45,157,0.5,"stim/14.jpeg",1,4,1,NA,"Instruments",2,2,"right","right",0.500999928,1,1,0,1,NA,NA,NA,NA,NA,NA,NA,NA,NA,NA,NA,NA,NA,NA,NA,NA,NA,NA,NA,NA,NA,NA,NA,NA
"196","stim/objects/Instruments/chime.png",158,45,158,0.5,"stim/24.jpeg",2,4,1,NA,"Instruments",2,3,"right","left",0.55700016,0,0,0,1,NA,NA,NA,NA,NA,NA,NA,NA,NA,NA,NA,NA,NA,NA,NA,NA,NA,NA,NA,NA,NA,NA,NA,NA
"162","stim/objects/Instruments/bassdrum2.png",159,45,159,0.9,"stim/51.jpeg",5,1,3,NA,"Instruments",2,1,"right","right",0.584000111,1,1,0,1,NA,NA,NA,NA,NA,NA,NA,NA,NA,NA,NA,NA,NA,NA,NA,NA,NA,NA,NA,NA,NA,NA,NA,NA
"194","stim/objects/Instruments/cello2.png",160,45,160,0.9,"stim/53.jpeg",5,3,3,NA,"Instruments",2,1,"right","right",0.5,1,1,0,1,NA,NA,NA,NA,NA,NA,NA,NA,NA,NA,NA,NA,NA,NA,NA,NA,NA,NA,NA,NA,NA,NA,NA,NA
"66","stim/objects/HouseObjects/bottle2.png",161,45,161,0.1,"stim/53.jpeg",5,3,3,NA,"HouseObjects",1,2,"left","right",0.407000065,0,0,0,1,NA,NA,NA,NA,NA,NA,NA,NA,NA,NA,NA,NA,NA,NA,NA,NA,NA,NA,NA,NA,NA,NA,NA,NA
"203","stim/objects/Instruments/chime2.png",162,45,162,0.9,"stim/54.jpeg",5,4,3,NA,"Instruments",2,3,"right","right",0.586999893,1,1,0,1,NA,NA,NA,NA,NA,NA,NA,NA,NA,NA,NA,NA,NA,NA,NA,NA,NA,NA,NA,NA,NA,NA,NA,NA
"197","stim/objects/Instruments/chime.png",163,45,163,0.5,"stim/24.jpeg",2,4,1,NA,"Instruments",2,1,"right","right",0.501999855,1,1,0,1,NA,NA,NA,NA,NA,NA,NA,NA,NA,NA,NA,NA,NA,NA,NA,NA,NA,NA,NA,NA,NA,NA,NA,NA
"21","stim/objects/HouseObjects/ballofstring2.png",164,45,164,0.7,"stim/42.jpeg",4,2,2,NA,"HouseObjects",1,2,"left","left",0.501999855,1,1,0,1,NA,NA,NA,NA,NA,NA,NA,NA,NA,NA,NA,NA,NA,NA,NA,NA,NA,NA,NA,NA,NA,NA,NA,NA
"110","stim/objects/HouseObjects/clothespin.png",165,45,165,0.3,"stim/34.jpeg",3,4,2,NA,"HouseObjects",1,4,"left","right",0.620000124,0,0,0,1,NA,NA,NA,NA,NA,NA,NA,NA,NA,NA,NA,NA,NA,NA,NA,NA,NA,NA,NA,NA,NA,NA,NA,NA
"59","stim/objects/HouseObjects/blender.png",166,45,166,0.5,"stim/22.jpeg",2,2,1,NA,"HouseObjects",1,2,"left","left",0.686000109,1,1,0,1,NA,NA,NA,NA,NA,NA,NA,NA,NA,NA,NA,NA,NA,NA,NA,NA,NA,NA,NA,NA,NA,NA,NA,NA
"215","stim/objects/Instruments/clarinet.png",167,45,167,0.7,"stim/31.jpeg",3,1,2,NA,"Instruments",2,1,"right","right",0.569000006,1,1,0,1,NA,NA,NA,NA,NA,NA,NA,NA,NA,NA,NA,NA,NA,NA,NA,NA,NA,NA,NA,NA,NA,NA,NA,NA
"228","stim/objects/Instruments/cymbal.png",168,45,168,0.7,"stim/33.jpeg",3,3,2,NA,"Instruments",2,1,"right","right",0.56799984,1,1,0,1,NA,NA,NA,NA,NA,NA,NA,NA,NA,NA,NA,NA,NA,NA,NA,NA,NA,NA,NA,NA,NA,NA,NA,NA
"39","stim/objects/HouseObjects/basket.png",169,45,169,0.5,"stim/14.jpeg",1,4,1,NA,"HouseObjects",1,3,"left","left",0.551000118,1,1,0,1,NA,NA,NA,NA,NA,NA,NA,NA,NA,NA,NA,NA,NA,NA,NA,NA,NA,NA,NA,NA,NA,NA,NA,NA
"148","stim/objects/Instruments/banjo.png",170,45,170,0.5,"stim/14.jpeg",1,4,1,NA,"Instruments",2,1,"right","left",0.604000092,0,0,0,1,NA,NA,NA,NA,NA,NA,NA,NA,NA,NA,NA,NA,NA,NA,NA,NA,NA,NA,NA,NA,NA,NA,NA,NA
"125","stim/objects/Instruments/accordion.png",171,45,171,0.5,"stim/11.jpeg",1,1,1,NA,"Instruments",2,4,"right","right",0.657999992,1,1,0,1,NA,NA,NA,NA,NA,NA,NA,NA,NA,NA,NA,NA,NA,NA,NA,NA,NA,NA,NA,NA,NA,NA,NA,NA
"82","stim/objects/HouseObjects/bucket2.png",172,45,172,0.9,"stim/61.jpeg",6,1,3,NA,"HouseObjects",1,2,"left","left",0.540999889,1,1,0,1,NA,NA,NA,NA,NA,NA,NA,NA,NA,NA,NA,NA,NA,NA,NA,NA,NA,NA,NA,NA,NA,NA,NA,NA
"70","stim/objects/HouseObjects/broom.png",173,45,173,0.5,"stim/24.jpeg",2,4,1,NA,"HouseObjects",1,4,"left","right",0.602999926,0,0,0,1,NA,NA,NA,NA,NA,NA,NA,NA,NA,NA,NA,NA,NA,NA,NA,NA,NA,NA,NA,NA,NA,NA,NA,NA
"128","stim/objects/Instruments/accordion2.png",174,45,174,0.3,"stim/41.jpeg",4,1,2,NA,"Instruments",2,2,"right","left",0.546000004,0,0,0,1,NA,NA,NA,NA,NA,NA,NA,NA,NA,NA,NA,NA,NA,NA,NA,NA,NA,NA,NA,NA,NA,NA,NA,NA
"22","stim/objects/HouseObjects/ballofstring2.png",175,45,175,0.7,"stim/42.jpeg",4,2,2,NA,"HouseObjects",1,4,"left","left",0.520999908,1,1,0,1,NA,NA,NA,NA,NA,NA,NA,NA,NA,NA,NA,NA,NA,NA,NA,NA,NA,NA,NA,NA,NA,NA,NA,NA
"27","stim/objects/HouseObjects/barbecuelighter.png",176,45,176,0.5,"stim/13.jpeg",1,3,1,NA,"HouseObjects",1,1,"left","right",0.52699995,0,0,0,1,NA,NA,NA,NA,NA,NA,NA,NA,NA,NA,NA,NA,NA,NA,NA,NA,NA,NA,NA,NA,NA,NA,NA,NA
"91","stim/objects/HouseObjects/clock2.png",177,45,177,0.9,"stim/62.jpeg",6,2,3,NA,"HouseObjects",1,3,"left","left",0.508000135,1,1,0,1,NA,NA,NA,NA,NA,NA,NA,NA,NA,NA,NA,NA,NA,NA,NA,NA,NA,NA,NA,NA,NA,NA,NA,NA
"23","stim/objects/HouseObjects/ballofstring2.png",178,45,178,0.7,"stim/42.jpeg",4,2,2,NA,"HouseObjects",1,2,"left","left",0.513000011,1,1,0,1,NA,NA,NA,NA,NA,NA,NA,NA,NA,NA,NA,NA,NA,NA,NA,NA,NA,NA,NA,NA,NA,NA,NA,NA
"163","stim/objects/Instruments/bassdrum2.png",179,45,179,0.9,"stim/51.jpeg",5,1,3,NA,"Instruments",2,4,"right","",NA,0,0,0,1,NA,NA,NA,NA,NA,NA,NA,NA,NA,NA,NA,NA,NA,NA,NA,NA,NA,NA,NA,NA,NA,NA,NA,NA
"164","stim/objects/Instruments/bassdrum2.png",180,45,180,0.9,"stim/51.jpeg",5,1,3,NA,"Instruments",2,2,"right","right",0.506999969,1,1,0,1,NA,NA,NA,NA,NA,NA,NA,NA,NA,NA,NA,NA,NA,NA,NA,NA,NA,NA,NA,NA,NA,NA,NA,NA
"140","stim/objects/Instruments/balalaika.png",181,45,181,0.5,"stim/13.jpeg",1,3,1,NA,"Instruments",2,4,"right","left",0.555999994,0,0,0,1,NA,NA,NA,NA,NA,NA,NA,NA,NA,NA,NA,NA,NA,NA,NA,NA,NA,NA,NA,NA,NA,NA,NA,NA
"72","stim/objects/HouseObjects/broom2.png",182,45,182,0.1,"stim/54.jpeg",5,4,3,NA,"HouseObjects",1,4,"left","right",0.517000198,0,0,0,1,NA,NA,NA,NA,NA,NA,NA,NA,NA,NA,NA,NA,NA,NA,NA,NA,NA,NA,NA,NA,NA,NA,NA,NA
"229","stim/objects/Instruments/cymbal.png",183,45,183,0.7,"stim/33.jpeg",3,3,2,NA,"Instruments",2,3,"right","right",0.629999876,1,1,0,1,NA,NA,NA,NA,NA,NA,NA,NA,NA,NA,NA,NA,NA,NA,NA,NA,NA,NA,NA,NA,NA,NA,NA,NA
"230","stim/objects/Instruments/cymbal.png",184,45,184,0.7,"stim/33.jpeg",3,3,2,NA,"Instruments",2,3,"right","right",0.517999887,1,1,0,1,NA,NA,NA,NA,NA,NA,NA,NA,NA,NA,NA,NA,NA,NA,NA,NA,NA,NA,NA,NA,NA,NA,NA,NA
"28","stim/objects/HouseObjects/barbecuelighter.png",185,45,185,0.5,"stim/13.jpeg",1,3,1,NA,"HouseObjects",1,1,"left","right",0.571000099,0,0,0,1,NA,NA,NA,NA,NA,NA,NA,NA,NA,NA,NA,NA,NA,NA,NA,NA,NA,NA,NA,NA,NA,NA,NA,NA
"231","stim/objects/Instruments/cymbal.png",186,45,186,0.7,"stim/33.jpeg",3,3,2,NA,"Instruments",2,2,"right","right",0.583999872,1,1,0,1,NA,NA,NA,NA,NA,NA,NA,NA,NA,NA,NA,NA,NA,NA,NA,NA,NA,NA,NA,NA,NA,NA,NA,NA
"111","stim/objects/HouseObjects/clothespin.png",187,45,187,0.3,"stim/34.jpeg",3,4,2,NA,"HouseObjects",1,1,"left","right",0.4599998,0,0,0,1,NA,NA,NA,NA,NA,NA,NA,NA,NA,NA,NA,NA,NA,NA,NA,NA,NA,NA,NA,NA,NA,NA,NA,NA
"185","stim/objects/Instruments/cello.png",188,45,188,0.5,"stim/23.jpeg",2,3,1,NA,"Instruments",2,2,"right","left",0.54399991,0,0,0,1,NA,NA,NA,NA,NA,NA,NA,NA,NA,NA,NA,NA,NA,NA,NA,NA,NA,NA,NA,NA,NA,NA,NA,NA
"83","stim/objects/HouseObjects/bucket2.png",189,45,189,0.9,"stim/61.jpeg",6,1,3,NA,"HouseObjects",1,2,"left","left",0.562000036,1,1,0,1,NA,NA,NA,NA,NA,NA,NA,NA,NA,NA,NA,NA,NA,NA,NA,NA,NA,NA,NA,NA,NA,NA,NA,NA
"239","stim/objects/Instruments/doublebass.png",190,45,190,0.7,"stim/34.jpeg",3,4,2,NA,"Instruments",2,3,"right","left",0.501999855,0,0,0,1,NA,NA,NA,NA,NA,NA,NA,NA,NA,NA,NA,NA,NA,NA,NA,NA,NA,NA,NA,NA,NA,NA,NA,NA
"165","stim/objects/Instruments/bassdrum2.png",191,45,191,0.9,"stim/51.jpeg",5,1,3,NA,"Instruments",2,1,"right","right",0.648999929,1,1,0,1,NA,NA,NA,NA,NA,NA,NA,NA,NA,NA,NA,NA,NA,NA,NA,NA,NA,NA,NA,NA,NA,NA,NA,NA
"32","stim/objects/HouseObjects/barbecuelighter2.png",192,45,192,0.7,"stim/43.jpeg",4,3,2,NA,"HouseObjects",1,2,"left","left",0.558000088,1,1,0,1,NA,NA,NA,NA,NA,NA,NA,NA,NA,NA,NA,NA,NA,NA,NA,NA,NA,NA,NA,NA,NA,NA,NA,NA
"92","stim/objects/HouseObjects/clock2.png",193,45,193,0.9,"stim/62.jpeg",6,2,3,NA,"HouseObjects",1,4,"left","left",0.522000074,1,1,0,1,NA,NA,NA,NA,NA,NA,NA,NA,NA,NA,NA,NA,NA,NA,NA,NA,NA,NA,NA,NA,NA,NA,NA,NA
"141","stim/objects/Instruments/balalaika.png",194,45,194,0.5,"stim/13.jpeg",1,3,1,NA,"Instruments",2,4,"right","left",0.505000114,0,0,0,1,NA,NA,NA,NA,NA,NA,NA,NA,NA,NA,NA,NA,NA,NA,NA,NA,NA,NA,NA,NA,NA,NA,NA,NA
"135","stim/objects/Instruments/acousticguitar2.png",195,45,195,0.3,"stim/42.jpeg",4,2,2,NA,"Instruments",2,4,"right","left",0.575999975,0,0,0,1,NA,NA,NA,NA,NA,NA,NA,NA,NA,NA,NA,NA,NA,NA,NA,NA,NA,NA,NA,NA,NA,NA,NA,NA
"24","stim/objects/HouseObjects/ballofstring2.png",196,45,196,0.7,"stim/42.jpeg",4,2,2,NA,"HouseObjects",1,4,"left","right",0.427999973,0,0,0,1,NA,NA,NA,NA,NA,NA,NA,NA,NA,NA,NA,NA,NA,NA,NA,NA,NA,NA,NA,NA,NA,NA,NA,NA
"54","stim/objects/HouseObjects/bleachbottle2.png",197,45,197,0.1,"stim/51.jpeg",5,1,3,NA,"HouseObjects",1,1,"left","right",0.510999918,0,0,0,1,NA,NA,NA,NA,NA,NA,NA,NA,NA,NA,NA,NA,NA,NA,NA,NA,NA,NA,NA,NA,NA,NA,NA,NA
"15","stim/objects/HouseObjects/ballofstring.png",198,45,198,0.5,"stim/12.jpeg",1,2,1,NA,"HouseObjects",1,2,"left","left",0.536000013,1,1,0,1,NA,NA,NA,NA,NA,NA,NA,NA,NA,NA,NA,NA,NA,NA,NA,NA,NA,NA,NA,NA,NA,NA,NA,NA
"64","stim/objects/HouseObjects/bottle.png",199,45,199,0.5,"stim/23.jpeg",2,3,1,NA,"HouseObjects",1,3,"left","left",0.542999983,1,1,0,1,NA,NA,NA,NA,NA,NA,NA,NA,NA,NA,NA,NA,NA,NA,NA,NA,NA,NA,NA,NA,NA,NA,NA,NA
"84","stim/objects/HouseObjects/bucket2.png",200,45,200,0.9,"stim/61.jpeg",6,1,3,NA,"HouseObjects",1,1,"left","left",0.514000177,1,1,0,1,NA,NA,NA,NA,NA,NA,NA,NA,NA,NA,NA,NA,NA,NA,NA,NA,NA,NA,NA,NA,NA,NA,NA,NA
"16","stim/objects/HouseObjects/ballofstring.png",201,45,201,0.5,"stim/12.jpeg",1,2,1,NA,"HouseObjects",1,2,"left","left",0.555000067,1,1,0,1,NA,NA,NA,NA,NA,NA,NA,NA,NA,NA,NA,NA,NA,NA,NA,NA,NA,NA,NA,NA,NA,NA,NA,NA
"40","stim/objects/HouseObjects/basket.png",202,45,202,0.5,"stim/14.jpeg",1,4,1,NA,"HouseObjects",1,4,"left","left",0.502000093,1,1,0,1,NA,NA,NA,NA,NA,NA,NA,NA,NA,NA,NA,NA,NA,NA,NA,NA,NA,NA,NA,NA,NA,NA,NA,NA
"198","stim/objects/Instruments/chime.png",203,45,203,0.5,"stim/24.jpeg",2,4,1,NA,"Instruments",2,1,"right","right",0.483999968,1,1,0,1,NA,NA,NA,NA,NA,NA,NA,NA,NA,NA,NA,NA,NA,NA,NA,NA,NA,NA,NA,NA,NA,NA,NA,NA
"33","stim/objects/HouseObjects/barbecuelighter2.png",204,45,204,0.7,"stim/43.jpeg",4,3,2,NA,"HouseObjects",1,4,"left","left",0.465000153,1,1,0,1,NA,NA,NA,NA,NA,NA,NA,NA,NA,NA,NA,NA,NA,NA,NA,NA,NA,NA,NA,NA,NA,NA,NA,NA
"4","stim/objects/HouseObjects/ashtray.png",205,45,205,0.5,"stim/11.jpeg",1,1,1,NA,"HouseObjects",1,2,"left","left",0.611000061,1,1,0,1,NA,NA,NA,NA,NA,NA,NA,NA,NA,NA,NA,NA,NA,NA,NA,NA,NA,NA,NA,NA,NA,NA,NA,NA
"149","stim/objects/Instruments/banjo.png",206,45,206,0.5,"stim/14.jpeg",1,4,1,NA,"Instruments",2,1,"right","right",0.515999794,1,1,0,1,NA,NA,NA,NA,NA,NA,NA,NA,NA,NA,NA,NA,NA,NA,NA,NA,NA,NA,NA,NA,NA,NA,NA,NA
"17","stim/objects/HouseObjects/ballofstring.png",207,45,207,0.5,"stim/12.jpeg",1,2,1,NA,"HouseObjects",1,1,"left","right",0.425000191,0,0,0,1,NA,NA,NA,NA,NA,NA,NA,NA,NA,NA,NA,NA,NA,NA,NA,NA,NA,NA,NA,NA,NA,NA,NA,NA
"65","stim/objects/HouseObjects/bottle.png",208,45,208,0.5,"stim/23.jpeg",2,3,1,NA,"HouseObjects",1,1,"left","left",0.568000078,1,1,0,1,NA,NA,NA,NA,NA,NA,NA,NA,NA,NA,NA,NA,NA,NA,NA,NA,NA,NA,NA,NA,NA,NA,NA,NA
"204","stim/objects/Instruments/chime2.png",209,45,209,0.9,"stim/54.jpeg",5,4,3,NA,"Instruments",2,1,"right","right",0.557999849,1,1,0,1,NA,NA,NA,NA,NA,NA,NA,NA,NA,NA,NA,NA,NA,NA,NA,NA,NA,NA,NA,NA,NA,NA,NA,NA
"48","stim/objects/HouseObjects/basket2.png",210,45,210,0.7,"stim/44.jpeg",4,4,2,NA,"HouseObjects",1,3,"left","left",0.588999987,1,1,0,1,NA,NA,NA,NA,NA,NA,NA,NA,NA,NA,NA,NA,NA,NA,NA,NA,NA,NA,NA,NA,NA,NA,NA,NA
"34","stim/objects/HouseObjects/barbecuelighter2.png",211,45,211,0.7,"stim/43.jpeg",4,3,2,NA,"HouseObjects",1,2,"left","left",0.486999989,1,1,0,1,NA,NA,NA,NA,NA,NA,NA,NA,NA,NA,NA,NA,NA,NA,NA,NA,NA,NA,NA,NA,NA,NA,NA,NA
"93","stim/objects/HouseObjects/clock2.png",212,45,212,0.9,"stim/62.jpeg",6,2,3,NA,"HouseObjects",1,1,"left","left",0.547999859,1,1,0,1,NA,NA,NA,NA,NA,NA,NA,NA,NA,NA,NA,NA,NA,NA,NA,NA,NA,NA,NA,NA,NA,NA,NA,NA
"75","stim/objects/HouseObjects/bucket.png",213,45,213,0.3,"stim/31.jpeg",3,1,2,NA,"HouseObjects",1,2,"left","left",0.631000042,1,1,0,1,NA,NA,NA,NA,NA,NA,NA,NA,NA,NA,NA,NA,NA,NA,NA,NA,NA,NA,NA,NA,NA,NA,NA,NA
"60","stim/objects/HouseObjects/blender2.png",214,45,214,0.1,"stim/52.jpeg",5,2,3,NA,"HouseObjects",1,3,"left","right",0.509000063,0,0,0,1,NA,NA,NA,NA,NA,NA,NA,NA,NA,NA,NA,NA,NA,NA,NA,NA,NA,NA,NA,NA,NA,NA,NA,NA
"179","stim/objects/Instruments/bassguitar2.png",215,45,215,0.9,"stim/52.jpeg",5,2,3,NA,"Instruments",2,3,"right","right",0.546999931,1,1,0,1,NA,NA,NA,NA,NA,NA,NA,NA,NA,NA,NA,NA,NA,NA,NA,NA,NA,NA,NA,NA,NA,NA,NA,NA
"35","stim/objects/HouseObjects/barbecuelighter2.png",216,45,216,0.7,"stim/43.jpeg",4,3,2,NA,"HouseObjects",1,2,"left","left",0.583999872,1,1,0,1,NA,NA,NA,NA,NA,NA,NA,NA,NA,NA,NA,NA,NA,NA,NA,NA,NA,NA,NA,NA,NA,NA,NA,NA
"223","stim/objects/Instruments/cornet.png",217,45,217,0.7,"stim/32.jpeg",3,2,2,NA,"Instruments",2,4,"right","right",0.505000114,1,1,0,1,NA,NA,NA,NA,NA,NA,NA,NA,NA,NA,NA,NA,NA,NA,NA,NA,NA,NA,NA,NA,NA,NA,NA,NA
"157","stim/objects/Instruments/bassdrum.png",218,45,218,0.5,"stim/21.jpeg",2,1,1,NA,"Instruments",2,4,"right","left",0.682999849,0,0,0,1,NA,NA,NA,NA,NA,NA,NA,NA,NA,NA,NA,NA,NA,NA,NA,NA,NA,NA,NA,NA,NA,NA,NA,NA
"166","stim/objects/Instruments/bassdrum2.png",219,45,219,0.9,"stim/51.jpeg",5,1,3,NA,"Instruments",2,3,"right","right",0.510999918,1,1,0,1,NA,NA,NA,NA,NA,NA,NA,NA,NA,NA,NA,NA,NA,NA,NA,NA,NA,NA,NA,NA,NA,NA,NA,NA
"118","stim/objects/HouseObjects/clothespin2.png",220,45,220,0.9,"stim/64.jpeg",6,4,3,NA,"HouseObjects",1,1,"left","left",0.537999868,1,1,0,1,NA,NA,NA,NA,NA,NA,NA,NA,NA,NA,NA,NA,NA,NA,NA,NA,NA,NA,NA,NA,NA,NA,NA,NA
"205","stim/objects/Instruments/chime2.png",221,45,221,0.9,"stim/54.jpeg",5,4,3,NA,"Instruments",2,2,"right","right",0.605999947,1,1,0,1,NA,NA,NA,NA,NA,NA,NA,NA,NA,NA,NA,NA,NA,NA,NA,NA,NA,NA,NA,NA,NA,NA,NA,NA
"94","stim/objects/HouseObjects/clock2.png",222,45,222,0.9,"stim/62.jpeg",6,2,3,NA,"HouseObjects",1,2,"left","left",0.506999969,1,1,0,1,NA,NA,NA,NA,NA,NA,NA,NA,NA,NA,NA,NA,NA,NA,NA,NA,NA,NA,NA,NA,NA,NA,NA,NA
"29","stim/objects/HouseObjects/barbecuelighter.png",223,45,223,0.5,"stim/13.jpeg",1,3,1,NA,"HouseObjects",1,3,"left","left",0.58100009,1,1,0,1,NA,NA,NA,NA,NA,NA,NA,NA,NA,NA,NA,NA,NA,NA,NA,NA,NA,NA,NA,NA,NA,NA,NA,NA
"206","stim/objects/Instruments/chime2.png",224,45,224,0.9,"stim/54.jpeg",5,4,3,NA,"Instruments",2,3,"right","left",0.40199995,0,0,0,1,NA,NA,NA,NA,NA,NA,NA,NA,NA,NA,NA,NA,NA,NA,NA,NA,NA,NA,NA,NA,NA,NA,NA,NA
"5","stim/objects/HouseObjects/ashtray.png",225,45,225,0.5,"stim/11.jpeg",1,1,1,NA,"HouseObjects",1,4,"left","left",0.537999868,1,1,0,1,NA,NA,NA,NA,NA,NA,NA,NA,NA,NA,NA,NA,NA,NA,NA,NA,NA,NA,NA,NA,NA,NA,NA,NA
"207","stim/objects/Instruments/chime2.png",226,45,226,0.9,"stim/54.jpeg",5,4,3,NA,"Instruments",2,2,"right","right",0.509000063,1,1,0,1,NA,NA,NA,NA,NA,NA,NA,NA,NA,NA,NA,NA,NA,NA,NA,NA,NA,NA,NA,NA,NA,NA,NA,NA
"180","stim/objects/Instruments/bassguitar2.png",227,45,227,0.9,"stim/52.jpeg",5,2,3,NA,"Instruments",2,1,"right","right",0.417999983,1,1,0,1,NA,NA,NA,NA,NA,NA,NA,NA,NA,NA,NA,NA,NA,NA,NA,NA,NA,NA,NA,NA,NA,NA,NA,NA
"119","stim/objects/HouseObjects/clothespin2.png",228,45,228,0.9,"stim/64.jpeg",6,4,3,NA,"HouseObjects",1,3,"left","left",0.514999866,1,1,0,1,NA,NA,NA,NA,NA,NA,NA,NA,NA,NA,NA,NA,NA,NA,NA,NA,NA,NA,NA,NA,NA,NA,NA,NA
"208","stim/objects/Instruments/chime2.png",229,45,229,0.9,"stim/54.jpeg",5,4,3,NA,"Instruments",2,4,"right","right",0.677999973,1,1,0,1,NA,NA,NA,NA,NA,NA,NA,NA,NA,NA,NA,NA,NA,NA,NA,NA,NA,NA,NA,NA,NA,NA,NA,NA
"199","stim/objects/Instruments/chime.png",230,45,230,0.5,"stim/24.jpeg",2,4,1,NA,"Instruments",2,1,"right","left",0.61500001,0,0,0,1,NA,NA,NA,NA,NA,NA,NA,NA,NA,NA,NA,NA,NA,NA,NA,NA,NA,NA,NA,NA,NA,NA,NA,NA
"12","stim/objects/HouseObjects/ashtray2.png",231,45,231,0.7,"stim/41.jpeg",4,1,2,NA,"HouseObjects",1,2,"left","left",0.575000048,1,1,0,1,NA,NA,NA,NA,NA,NA,NA,NA,NA,NA,NA,NA,NA,NA,NA,NA,NA,NA,NA,NA,NA,NA,NA,NA
"41","stim/objects/HouseObjects/basket.png",232,45,232,0.5,"stim/14.jpeg",1,4,1,NA,"HouseObjects",1,4,"left","right",0.628000021,0,0,0,1,NA,NA,NA,NA,NA,NA,NA,NA,NA,NA,NA,NA,NA,NA,NA,NA,NA,NA,NA,NA,NA,NA,NA,NA
"95","stim/objects/HouseObjects/clock2.png",233,45,233,0.9,"stim/62.jpeg",6,2,3,NA,"HouseObjects",1,1,"left","left",0.536000013,1,1,0,1,NA,NA,NA,NA,NA,NA,NA,NA,NA,NA,NA,NA,NA,NA,NA,NA,NA,NA,NA,NA,NA,NA,NA,NA
"120","stim/objects/HouseObjects/clothespin2.png",234,45,234,0.9,"stim/64.jpeg",6,4,3,NA,"HouseObjects",1,1,"left","left",0.458999872,1,1,0,1,NA,NA,NA,NA,NA,NA,NA,NA,NA,NA,NA,NA,NA,NA,NA,NA,NA,NA,NA,NA,NA,NA,NA,NA
"36","stim/objects/HouseObjects/barbecuelighter2.png",235,45,235,0.7,"stim/43.jpeg",4,3,2,NA,"HouseObjects",1,1,"left","right",0.627000093,0,0,0,1,NA,NA,NA,NA,NA,NA,NA,NA,NA,NA,NA,NA,NA,NA,NA,NA,NA,NA,NA,NA,NA,NA,NA,NA
"216","stim/objects/Instruments/clarinet2.png",236,45,236,0.1,"stim/61.jpeg",6,1,3,NA,"Instruments",2,4,"right","left",0.50999999,0,0,0,1,NA,NA,NA,NA,NA,NA,NA,NA,NA,NA,NA,NA,NA,NA,NA,NA,NA,NA,NA,NA,NA,NA,NA,NA
"96","stim/objects/HouseObjects/clock2.png",237,45,237,0.9,"stim/62.jpeg",6,2,3,NA,"HouseObjects",1,3,"left","left",0.47300005,1,1,0,1,NA,NA,NA,NA,NA,NA,NA,NA,NA,NA,NA,NA,NA,NA,NA,NA,NA,NA,NA,NA,NA,NA,NA,NA
"87","stim/objects/HouseObjects/clock.png",238,45,238,0.3,"stim/32.jpeg",3,2,2,NA,"HouseObjects",1,2,"left","right",0.440999985,0,0,0,1,NA,NA,NA,NA,NA,NA,NA,NA,NA,NA,NA,NA,NA,NA,NA,NA,NA,NA,NA,NA,NA,NA,NA,NA
"136","stim/objects/Instruments/acousticguitar2.png",239,45,239,0.3,"stim/42.jpeg",4,2,2,NA,"Instruments",2,3,"right","left",0.453000069,0,0,0,1,NA,NA,NA,NA,NA,NA,NA,NA,NA,NA,NA,NA,NA,NA,NA,NA,NA,NA,NA,NA,NA,NA,NA,NA
"71","stim/objects/HouseObjects/broom.png",240,45,240,0.5,"stim/24.jpeg",2,4,1,NA,"HouseObjects",1,4,"left","left",0.523999929,1,1,0,1,NA,NA,NA,NA,NA,NA,NA,NA,NA,NA,NA,NA,NA,NA,NA,NA,NA,NA,NA,NA,NA,NA,NA,NA
"342","stim/objects/HouseObjects/pan.png",248,45,241,0.9,"stim/61.jpeg",6,1,3,2,"HouseObjects",1,1,"left","left",0.568000078,1,1,1,0,NA,NA,NA,NA,NA,NA,NA,NA,NA,NA,NA,NA,NA,NA,NA,NA,NA,NA,NA,NA,NA,NA,NA,NA
"507","stim/objects/Instruments/musicstand.png",249,45,242,0.9,"stim/52.jpeg",5,2,3,2,"Instruments",2,3,"right","",NA,0,0,1,0,NA,NA,NA,NA,NA,NA,NA,NA,NA,NA,NA,NA,NA,NA,NA,NA,NA,NA,NA,NA,NA,NA,NA,NA
"343","stim/objects/HouseObjects/pan.png",250,45,243,0.9,"stim/61.jpeg",6,1,3,2,"HouseObjects",1,1,"left","left",0.597999811,1,1,1,0,NA,NA,NA,NA,NA,NA,NA,NA,NA,NA,NA,NA,NA,NA,NA,NA,NA,NA,NA,NA,NA,NA,NA,NA
"429","stim/objects/Instruments/grandpiano2.png",251,45,244,0.3,"stim/44.jpeg",4,4,2,1,"Instruments",2,4,"right","right",0.505999804,1,1,1,0,21,45,1,0.3,2,"stim/44.jpeg",4,4,"stim/44.jpeg",4,"left",1.092000008,3,1,3.157000065,3,4.548000097,21,1,0,0,0,0,0
"451","stim/objects/Instruments/laud2.png",252,45,245,0.3,"stim/42.jpeg",4,2,2,1,"Instruments",2,3,"right","left",0.583000183,0,0,1,0,101,45,1,0.3,2,"stim/42.jpeg",4,2,"stim/42.jpeg",3,"left",0.886999846,3,3,2.819999933,3,1.574999809,101,1,0,0,1,1,0
"308","stim/objects/HouseObjects/lintroller.png",253,45,246,0.9,"stim/63.jpeg",6,3,3,2,"HouseObjects",1,1,"left","left",0.490999937,1,1,1,0,NA,NA,NA,NA,NA,NA,NA,NA,NA,NA,NA,NA,NA,NA,NA,NA,NA,NA,NA,NA,NA,NA,NA,NA
"456","stim/objects/Instruments/marimba.png",254,45,247,0.9,"stim/51.jpeg",5,1,3,2,"Instruments",2,4,"right","right",0.521000147,1,1,1,0,NA,NA,NA,NA,NA,NA,NA,NA,NA,NA,NA,NA,NA,NA,NA,NA,NA,NA,NA,NA,NA,NA,NA,NA
"490","stim/objects/Instruments/musicsheet.png",255,45,248,0.9,"stim/54.jpeg",5,4,3,2,"Instruments",2,3,"right","right",0.579999924,1,1,1,0,NA,NA,NA,NA,NA,NA,NA,NA,NA,NA,NA,NA,NA,NA,NA,NA,NA,NA,NA,NA,NA,NA,NA,NA
"256","stim/objects/HouseObjects/flyswatter.png",256,45,249,0.5,"stim/24.jpeg",2,4,1,2,"HouseObjects",1,2,"left","left",0.605000019,1,1,1,0,NA,NA,NA,NA,NA,NA,NA,NA,NA,NA,NA,NA,NA,NA,NA,NA,NA,NA,NA,NA,NA,NA,NA,NA
"491","stim/objects/Instruments/musicsheet.png",257,45,250,0.9,"stim/51.jpeg",5,1,3,2,"Instruments",2,2,"right","right",0.431999922,1,1,1,0,NA,NA,NA,NA,NA,NA,NA,NA,NA,NA,NA,NA,NA,NA,NA,NA,NA,NA,NA,NA,NA,NA,NA,NA
"548","stim/objects/Instruments/record2.png",258,45,251,0.9,"stim/52.jpeg",5,2,3,1,"Instruments",2,2,"right","right",0.447000027,1,1,1,0,65,45,1,0.9,2,"stim/52.jpeg",5,2,"stim/52.jpeg",2,"left",0.937000036,3,2,3.165999889,4,2.587999821,65,1,1,1,0,0,0
"443","stim/objects/Instruments/hihat2.png",259,45,252,0.3,"stim/44.jpeg",4,4,2,1,"Instruments",2,2,"right","left",0.501000166,0,0,1,0,114,45,1,0.3,2,"stim/44.jpeg",4,4,"stim/44.jpeg",2,"left",0.875,4,3,2.205999851,3,1.457000017,114,1,0,0,0,0,0
"393","stim/objects/HouseObjects/spraybottle2.png",260,45,253,0.9,"stim/64.jpeg",6,4,3,1,"HouseObjects",1,4,"left","left",0.522000074,1,1,1,0,15,45,1,0.9,1,"stim/64.jpeg",6,4,"stim/64.jpeg",4,"left",1.106999874,4,1,2.875999928,3,1.798000097,15,1,0,0,0,0,0
"291","stim/objects/HouseObjects/knife.png",261,45,254,0.9,"stim/61.jpeg",6,1,3,2,"HouseObjects",1,1,"left","left",0.478000164,1,1,1,0,NA,NA,NA,NA,NA,NA,NA,NA,NA,NA,NA,NA,NA,NA,NA,NA,NA,NA,NA,NA,NA,NA,NA,NA
"508","stim/objects/Instruments/musicstand.png",262,45,255,0.9,"stim/52.jpeg",5,2,3,2,"Instruments",2,3,"right","right",0.513999939,1,1,1,0,NA,NA,NA,NA,NA,NA,NA,NA,NA,NA,NA,NA,NA,NA,NA,NA,NA,NA,NA,NA,NA,NA,NA,NA
"525","stim/objects/Instruments/oboe.png",263,45,256,0.9,"stim/52.jpeg",5,2,3,2,"Instruments",2,4,"right","right",0.517999887,1,1,1,0,NA,NA,NA,NA,NA,NA,NA,NA,NA,NA,NA,NA,NA,NA,NA,NA,NA,NA,NA,NA,NA,NA,NA,NA
"344","stim/objects/HouseObjects/pan.png",264,45,257,0.9,"stim/64.jpeg",6,4,3,2,"HouseObjects",1,1,"left","left",0.480000019,1,1,1,0,NA,NA,NA,NA,NA,NA,NA,NA,NA,NA,NA,NA,NA,NA,NA,NA,NA,NA,NA,NA,NA,NA,NA,NA
"424","stim/objects/Instruments/gong.png",265,45,258,0.5,"stim/24.jpeg",2,4,1,2,"Instruments",2,2,"right","right",0.638000011,1,1,1,0,NA,NA,NA,NA,NA,NA,NA,NA,NA,NA,NA,NA,NA,NA,NA,NA,NA,NA,NA,NA,NA,NA,NA,NA
"249","stim/objects/HouseObjects/dishsoap2.png",266,45,259,0.3,"stim/34.jpeg",3,4,2,1,"HouseObjects",1,1,"left","right",0.580000162,0,0,1,0,23,45,1,0.3,1,"stim/34.jpeg",3,4,"stim/34.jpeg",1,"left",0.852999926,3,3,2.507999897,3,1.503999949,23,1,0,0,0,0,0
"509","stim/objects/Instruments/musicstand.png",267,45,260,0.9,"stim/53.jpeg",5,3,3,2,"Instruments",2,3,"right","right",0.638999939,1,1,1,0,NA,NA,NA,NA,NA,NA,NA,NA,NA,NA,NA,NA,NA,NA,NA,NA,NA,NA,NA,NA,NA,NA,NA,NA
"447","stim/objects/Instruments/keyboard2.png",268,45,261,0.3,"stim/41.jpeg",4,1,2,1,"Instruments",2,4,"right","left",0.547999859,0,0,1,0,191,45,1,0.3,2,"stim/41.jpeg",4,1,"stim/41.jpeg",4,"right",1.00999999,2,3,1.814999819,3,1.282999992,191,0,0,NA,0,NA,0
"397","stim/objects/HouseObjects/thermometer2.png",269,45,262,0.9,"stim/62.jpeg",6,2,3,1,"HouseObjects",1,2,"left","left",0.605000019,1,1,1,0,147,45,1,0.9,1,"stim/62.jpeg",6,2,"stim/62.jpeg",2,"left",0.929999828,4,1,2.415999889,1,1.565000057,147,1,0,0,0,0,0
"345","stim/objects/HouseObjects/pan.png",270,45,263,0.9,"stim/63.jpeg",6,3,3,2,"HouseObjects",1,4,"left","left",0.511999846,1,1,1,0,NA,NA,NA,NA,NA,NA,NA,NA,NA,NA,NA,NA,NA,NA,NA,NA,NA,NA,NA,NA,NA,NA,NA,NA
"359","stim/objects/HouseObjects/pitcher.png",271,45,264,0.9,"stim/64.jpeg",6,4,3,2,"HouseObjects",1,3,"left","left",0.434999943,1,1,1,0,NA,NA,NA,NA,NA,NA,NA,NA,NA,NA,NA,NA,NA,NA,NA,NA,NA,NA,NA,NA,NA,NA,NA,NA
"433","stim/objects/Instruments/harmonica.png",272,45,265,0.5,"stim/23.jpeg",2,3,1,2,"Instruments",2,1,"right","left",0.537999868,0,0,1,0,NA,NA,NA,NA,NA,NA,NA,NA,NA,NA,NA,NA,NA,NA,NA,NA,NA,NA,NA,NA,NA,NA,NA,NA
"568","stim/objects/Instruments/vuvuzela2.png",273,45,266,0.1,"stim/63.jpeg",6,3,3,1,"Instruments",2,2,"right","left",0.522000074,0,0,1,0,29,45,1,0.1,2,"stim/63.jpeg",6,3,"stim/63.jpeg",2,"left",0.967999935,3,4,2.835999966,1,1.923999786,29,1,0,0,0,0,0
"492","stim/objects/Instruments/musicsheet.png",274,45,267,0.9,"stim/53.jpeg",5,3,3,2,"Instruments",2,1,"right","right",0.505999804,1,1,1,0,NA,NA,NA,NA,NA,NA,NA,NA,NA,NA,NA,NA,NA,NA,NA,NA,NA,NA,NA,NA,NA,NA,NA,NA
"510","stim/objects/Instruments/musicstand.png",275,45,268,0.9,"stim/54.jpeg",5,4,3,2,"Instruments",2,3,"right","right",0.498999834,1,1,1,0,NA,NA,NA,NA,NA,NA,NA,NA,NA,NA,NA,NA,NA,NA,NA,NA,NA,NA,NA,NA,NA,NA,NA,NA
"309","stim/objects/HouseObjects/lintroller.png",276,45,269,0.9,"stim/62.jpeg",6,2,3,2,"HouseObjects",1,1,"left","left",0.516000032,1,1,1,0,NA,NA,NA,NA,NA,NA,NA,NA,NA,NA,NA,NA,NA,NA,NA,NA,NA,NA,NA,NA,NA,NA,NA,NA
"457","stim/objects/Instruments/marimba.png",277,45,270,0.9,"stim/53.jpeg",5,3,3,2,"Instruments",2,4,"right","right",0.490999937,1,1,1,0,NA,NA,NA,NA,NA,NA,NA,NA,NA,NA,NA,NA,NA,NA,NA,NA,NA,NA,NA,NA,NA,NA,NA,NA
"406","stim/objects/Instruments/drums.png",278,45,271,0.5,"stim/14.jpeg",1,4,1,2,"Instruments",2,2,"right","left",0.500999928,0,0,1,0,NA,NA,NA,NA,NA,NA,NA,NA,NA,NA,NA,NA,NA,NA,NA,NA,NA,NA,NA,NA,NA,NA,NA,NA
"257","stim/objects/HouseObjects/flyswatter.png",279,45,272,0.5,"stim/23.jpeg",2,3,1,2,"HouseObjects",1,4,"left","left",0.549000025,1,1,1,0,NA,NA,NA,NA,NA,NA,NA,NA,NA,NA,NA,NA,NA,NA,NA,NA,NA,NA,NA,NA,NA,NA,NA,NA
"325","stim/objects/HouseObjects/match.png",280,45,273,0.9,"stim/62.jpeg",6,2,3,2,"HouseObjects",1,3,"left","left",0.555999994,1,1,1,0,NA,NA,NA,NA,NA,NA,NA,NA,NA,NA,NA,NA,NA,NA,NA,NA,NA,NA,NA,NA,NA,NA,NA,NA
"418","stim/objects/Instruments/flutetrans.png",281,45,274,0.5,"stim/14.jpeg",1,4,1,2,"Instruments",2,4,"right","left",0.615999937,0,0,1,0,NA,NA,NA,NA,NA,NA,NA,NA,NA,NA,NA,NA,NA,NA,NA,NA,NA,NA,NA,NA,NA,NA,NA,NA
"346","stim/objects/HouseObjects/pan.png",282,45,275,0.9,"stim/64.jpeg",6,4,3,2,"HouseObjects",1,4,"left","left",0.496999979,1,1,1,0,NA,NA,NA,NA,NA,NA,NA,NA,NA,NA,NA,NA,NA,NA,NA,NA,NA,NA,NA,NA,NA,NA,NA,NA
"395","stim/objects/HouseObjects/teapot2.png",283,45,276,0.9,"stim/61.jpeg",6,1,3,1,"HouseObjects",1,1,"left","left",0.550000191,1,1,1,0,3,45,1,0.9,1,"stim/61.jpeg",6,1,"stim/61.jpeg",1,"left",3.585000038,3,1,4.686000109,4,2.833999872,3,1,1,1,0,0,0
"526","stim/objects/Instruments/oboe.png",284,45,277,0.9,"stim/54.jpeg",5,4,3,2,"Instruments",2,3,"right","right",0.535000086,1,1,1,0,NA,NA,NA,NA,NA,NA,NA,NA,NA,NA,NA,NA,NA,NA,NA,NA,NA,NA,NA,NA,NA,NA,NA,NA
"360","stim/objects/HouseObjects/pitcher.png",285,45,278,0.9,"stim/61.jpeg",6,1,3,2,"HouseObjects",1,2,"left","left",0.556999922,1,1,1,0,NA,NA,NA,NA,NA,NA,NA,NA,NA,NA,NA,NA,NA,NA,NA,NA,NA,NA,NA,NA,NA,NA,NA,NA
"453","stim/objects/Instruments/maraca.png",286,45,279,0.7,"stim/33.jpeg",3,3,2,2,"Instruments",2,4,"right","right",0.587999821,1,1,1,0,NA,NA,NA,NA,NA,NA,NA,NA,NA,NA,NA,NA,NA,NA,NA,NA,NA,NA,NA,NA,NA,NA,NA,NA
"255","stim/objects/HouseObjects/dustpan2.png",287,45,280,0.3,"stim/32.jpeg",3,2,2,1,"HouseObjects",1,3,"left","right",0.545000076,0,0,1,0,89,45,1,0.3,1,"stim/32.jpeg",3,2,"stim/32.jpeg",3,"right",1.059000015,2,3,1.412999868,3,1.796999931,89,0,0,NA,1,NA,0
"382","stim/objects/HouseObjects/rug.png",288,45,281,0.5,"stim/12.jpeg",1,2,1,1,"HouseObjects",1,2,"left","right",0.486999989,0,0,1,0,50,45,1,0.5,1,"stim/12.jpeg",1,2,"stim/12.jpeg",2,"left",0.936999798,3,4,2.322999716,3,1.937000036,50,1,0,0,0,0,0
"474","stim/objects/Instruments/metronome.png",289,45,282,0.9,"stim/52.jpeg",5,2,3,2,"Instruments",2,3,"right","right",0.506000042,1,1,1,0,NA,NA,NA,NA,NA,NA,NA,NA,NA,NA,NA,NA,NA,NA,NA,NA,NA,NA,NA,NA,NA,NA,NA,NA
"244","stim/objects/HouseObjects/cushion.png",290,45,283,0.5,"stim/13.jpeg",1,3,1,2,"HouseObjects",1,3,"left","right",0.559000015,0,0,1,0,NA,NA,NA,NA,NA,NA,NA,NA,NA,NA,NA,NA,NA,NA,NA,NA,NA,NA,NA,NA,NA,NA,NA,NA
"348","stim/objects/HouseObjects/pan.png",291,45,284,0.9,"stim/61.jpeg",6,1,3,2,"HouseObjects",1,1,"left","left",0.443000078,1,1,1,0,NA,NA,NA,NA,NA,NA,NA,NA,NA,NA,NA,NA,NA,NA,NA,NA,NA,NA,NA,NA,NA,NA,NA,NA
"379","stim/objects/HouseObjects/remote2.png",292,45,285,0.1,"stim/53.jpeg",5,3,3,1,"HouseObjects",1,1,"left","right",0.529999971,0,0,1,0,133,45,1,0.1,1,"stim/53.jpeg",5,3,"stim/53.jpeg",1,"left",0.758000135,4,1,1.237999916,3,3.17599988,133,1,0,0,0,0,0
"409","stim/objects/Instruments/electricdrumset.png",293,45,286,0.5,"stim/11.jpeg",1,1,1,2,"Instruments",2,1,"right","left",0.671999931,0,0,1,0,NA,NA,NA,NA,NA,NA,NA,NA,NA,NA,NA,NA,NA,NA,NA,NA,NA,NA,NA,NA,NA,NA,NA,NA
"403","stim/objects/HouseObjects/vacuumcleaner2.png",294,45,287,0.9,"stim/61.jpeg",6,1,3,1,"HouseObjects",1,1,"left","left",0.578999996,1,1,1,0,142,45,1,0.9,1,"stim/61.jpeg",6,1,"stim/61.jpeg",1,"left",0.947999954,4,1,1.912999868,1,1.076999903,142,1,1,1,1,1,0
"349","stim/objects/HouseObjects/pan.png",295,45,288,0.9,"stim/62.jpeg",6,2,3,2,"HouseObjects",1,2,"left","left",0.56099987,1,1,1,0,NA,NA,NA,NA,NA,NA,NA,NA,NA,NA,NA,NA,NA,NA,NA,NA,NA,NA,NA,NA,NA,NA,NA,NA
"311","stim/objects/HouseObjects/lintroller.png",296,45,289,0.9,"stim/62.jpeg",6,2,3,2,"HouseObjects",1,3,"left","left",0.474999905,1,1,1,0,NA,NA,NA,NA,NA,NA,NA,NA,NA,NA,NA,NA,NA,NA,NA,NA,NA,NA,NA,NA,NA,NA,NA,NA
"267","stim/objects/HouseObjects/glassmop2.png",297,45,290,0.7,"stim/43.jpeg",4,3,2,1,"HouseObjects",1,3,"left","left",0.553999901,1,1,1,0,145,45,1,0.7,1,"stim/43.jpeg",4,3,"stim/43.jpeg",3,"right",1.368999958,2,4,6.361999989,3,1.381000042,145,0,0,NA,1,NA,0
"554","stim/objects/Instruments/tambourine2.png",298,45,291,0.1,"stim/64.jpeg",6,4,3,1,"Instruments",2,4,"right","left",0.5400002,0,0,1,0,177,45,1,0.1,2,"stim/64.jpeg",6,4,"stim/64.jpeg",4,"left",2.597000122,3,2,1.888000011,3,1.131000042,177,1,0,0,0,0,0
"404","stim/objects/HouseObjects/wateringcan.png",299,45,292,0.3,"stim/31.jpeg",3,1,2,1,"HouseObjects",1,1,"left","right",0.519000053,0,0,1,0,26,45,1,0.3,1,"stim/31.jpeg",3,1,"stim/31.jpeg",1,"right",0.960000038,2,4,2.044999838,1,2.625,26,0,0,NA,1,NA,0
"558","stim/objects/Instruments/triangle2.png",300,45,293,0.1,"stim/62.jpeg",6,2,3,1,"Instruments",2,2,"right","left",0.506999969,0,0,1,0,164,45,1,0.1,2,"stim/62.jpeg",6,2,"stim/62.jpeg",2,"left",0.97300005,4,3,2.171000004,3,1.093999863,164,1,0,0,0,0,0
"527","stim/objects/Instruments/oboe.png",301,45,294,0.9,"stim/53.jpeg",5,3,3,2,"Instruments",2,3,"right","right",0.572000027,1,1,1,0,NA,NA,NA,NA,NA,NA,NA,NA,NA,NA,NA,NA,NA,NA,NA,NA,NA,NA,NA,NA,NA,NA,NA,NA
"421","stim/objects/Instruments/frenchhorn.png",302,45,295,0.5,"stim/22.jpeg",2,2,1,2,"Instruments",2,4,"right","left",0.529000044,0,0,1,0,NA,NA,NA,NA,NA,NA,NA,NA,NA,NA,NA,NA,NA,NA,NA,NA,NA,NA,NA,NA,NA,NA,NA,NA
"448","stim/objects/Instruments/laud.png",303,45,296,0.7,"stim/32.jpeg",3,2,2,2,"Instruments",2,2,"right","right",0.525000095,1,1,1,0,NA,NA,NA,NA,NA,NA,NA,NA,NA,NA,NA,NA,NA,NA,NA,NA,NA,NA,NA,NA,NA,NA,NA,NA
"420","stim/objects/Instruments/flutetrans2.png",304,45,297,0.7,"stim/33.jpeg",3,3,2,1,"Instruments",2,1,"right","right",0.59100008,1,1,1,0,25,45,1,0.7,2,"stim/33.jpeg",3,3,"stim/33.jpeg",1,"left",0.982000113,2,3,4.946000099,1,2.31099987,25,1,1,1,1,1,0
"512","stim/objects/Instruments/musicstand.png",305,45,298,0.9,"stim/52.jpeg",5,2,3,2,"Instruments",2,4,"right","right",0.595000029,1,1,1,0,NA,NA,NA,NA,NA,NA,NA,NA,NA,NA,NA,NA,NA,NA,NA,NA,NA,NA,NA,NA,NA,NA,NA,NA
"475","stim/objects/Instruments/metronome.png",306,45,299,0.9,"stim/51.jpeg",5,1,3,2,"Instruments",2,1,"right","right",0.496000051,1,1,1,0,NA,NA,NA,NA,NA,NA,NA,NA,NA,NA,NA,NA,NA,NA,NA,NA,NA,NA,NA,NA,NA,NA,NA,NA
"361","stim/objects/HouseObjects/pitcher.png",307,45,300,0.9,"stim/63.jpeg",6,3,3,2,"HouseObjects",1,3,"left","left",0.475999832,1,1,1,0,NA,NA,NA,NA,NA,NA,NA,NA,NA,NA,NA,NA,NA,NA,NA,NA,NA,NA,NA,NA,NA,NA,NA,NA
"247","stim/objects/HouseObjects/dishsoap.png",308,45,301,0.5,"stim/14.jpeg",1,4,1,2,"HouseObjects",1,1,"left","left",0.458999872,1,1,1,0,NA,NA,NA,NA,NA,NA,NA,NA,NA,NA,NA,NA,NA,NA,NA,NA,NA,NA,NA,NA,NA,NA,NA,NA
"328","stim/objects/HouseObjects/match.png",309,45,302,0.9,"stim/62.jpeg",6,2,3,2,"HouseObjects",1,4,"left","left",0.480000019,1,1,1,0,NA,NA,NA,NA,NA,NA,NA,NA,NA,NA,NA,NA,NA,NA,NA,NA,NA,NA,NA,NA,NA,NA,NA,NA
"350","stim/objects/HouseObjects/pan.png",310,45,303,0.9,"stim/64.jpeg",6,4,3,2,"HouseObjects",1,2,"left","left",0.492000103,1,1,1,0,NA,NA,NA,NA,NA,NA,NA,NA,NA,NA,NA,NA,NA,NA,NA,NA,NA,NA,NA,NA,NA,NA,NA,NA
"407","stim/objects/Instruments/drums.png",311,45,304,0.5,"stim/11.jpeg",1,1,1,2,"Instruments",2,3,"right","left",0.480999947,0,0,1,0,NA,NA,NA,NA,NA,NA,NA,NA,NA,NA,NA,NA,NA,NA,NA,NA,NA,NA,NA,NA,NA,NA,NA,NA
"250","stim/objects/HouseObjects/doormat.png",312,45,305,0.5,"stim/14.jpeg",1,4,1,2,"HouseObjects",1,4,"left","right",0.540999889,0,0,1,0,NA,NA,NA,NA,NA,NA,NA,NA,NA,NA,NA,NA,NA,NA,NA,NA,NA,NA,NA,NA,NA,NA,NA,NA
"396","stim/objects/HouseObjects/thermometer.png",313,45,306,0.3,"stim/31.jpeg",3,1,2,1,"HouseObjects",1,1,"left","right",0.478999853,0,0,1,0,196,45,1,0.3,1,"stim/31.jpeg",3,1,"stim/31.jpeg",1,"right",0.812000036,3,4,1.282000065,3,1.345999956,196,0,0,NA,0,NA,0
"476","stim/objects/Instruments/metronome.png",314,45,307,0.9,"stim/53.jpeg",5,3,3,2,"Instruments",2,2,"right","right",0.493000031,1,1,1,0,NA,NA,NA,NA,NA,NA,NA,NA,NA,NA,NA,NA,NA,NA,NA,NA,NA,NA,NA,NA,NA,NA,NA,NA
"494","stim/objects/Instruments/musicsheet.png",315,45,308,0.9,"stim/53.jpeg",5,3,3,2,"Instruments",2,3,"right","right",0.565000057,1,1,1,0,NA,NA,NA,NA,NA,NA,NA,NA,NA,NA,NA,NA,NA,NA,NA,NA,NA,NA,NA,NA,NA,NA,NA,NA
"425","stim/objects/Instruments/gong.png",316,45,309,0.5,"stim/23.jpeg",2,3,1,2,"Instruments",2,2,"right","left",0.482999802,0,0,1,0,NA,NA,NA,NA,NA,NA,NA,NA,NA,NA,NA,NA,NA,NA,NA,NA,NA,NA,NA,NA,NA,NA,NA,NA
"258","stim/objects/HouseObjects/flyswatter2.png",317,45,310,0.7,"stim/44.jpeg",4,4,2,1,"HouseObjects",1,1,"left","left",0.651000023,1,1,1,0,88,45,1,0.7,1,"stim/44.jpeg",4,4,"stim/44.jpeg",1,"left",1.277999878,3,4,2.796000004,4,1.354000092,88,1,1,1,0,0,0
"287","stim/objects/HouseObjects/key.png",318,45,311,0.7,"stim/42.jpeg",4,2,2,2,"HouseObjects",1,1,"left","left",0.559999943,1,1,1,0,NA,NA,NA,NA,NA,NA,NA,NA,NA,NA,NA,NA,NA,NA,NA,NA,NA,NA,NA,NA,NA,NA,NA,NA
"495","stim/objects/Instruments/musicsheet.png",319,45,312,0.9,"stim/54.jpeg",5,4,3,2,"Instruments",2,1,"right","right",0.519999981,1,1,1,0,NA,NA,NA,NA,NA,NA,NA,NA,NA,NA,NA,NA,NA,NA,NA,NA,NA,NA,NA,NA,NA,NA,NA,NA
"313","stim/objects/HouseObjects/lintroller.png",320,45,313,0.9,"stim/62.jpeg",6,2,3,2,"HouseObjects",1,3,"left","left",0.452000141,1,1,1,0,NA,NA,NA,NA,NA,NA,NA,NA,NA,NA,NA,NA,NA,NA,NA,NA,NA,NA,NA,NA,NA,NA,NA,NA
"513","stim/objects/Instruments/musicstand.png",321,45,314,0.9,"stim/51.jpeg",5,1,3,2,"Instruments",2,4,"right","right",0.438999891,1,1,1,0,NA,NA,NA,NA,NA,NA,NA,NA,NA,NA,NA,NA,NA,NA,NA,NA,NA,NA,NA,NA,NA,NA,NA,NA
"362","stim/objects/HouseObjects/pitcher.png",322,45,315,0.9,"stim/61.jpeg",6,1,3,2,"HouseObjects",1,1,"left","left",0.503000021,1,1,1,0,NA,NA,NA,NA,NA,NA,NA,NA,NA,NA,NA,NA,NA,NA,NA,NA,NA,NA,NA,NA,NA,NA,NA,NA
"363","stim/objects/HouseObjects/pitcher.png",323,45,316,0.9,"stim/62.jpeg",6,2,3,2,"HouseObjects",1,4,"left","left",0.474000216,1,1,1,0,NA,NA,NA,NA,NA,NA,NA,NA,NA,NA,NA,NA,NA,NA,NA,NA,NA,NA,NA,NA,NA,NA,NA,NA
"550","stim/objects/Instruments/saxophone2.png",324,45,317,0.9,"stim/54.jpeg",5,4,3,1,"Instruments",2,1,"right","right",0.473999977,1,1,1,0,40,45,1,0.9,2,"stim/54.jpeg",5,4,"stim/54.jpeg",1,"right",0.981999874,2,3,3.118999958,3,3.171999931,40,0,0,NA,0,NA,0
"477","stim/objects/Instruments/metronome.png",325,45,318,0.9,"stim/54.jpeg",5,4,3,2,"Instruments",2,1,"right","right",0.467999935,1,1,1,0,NA,NA,NA,NA,NA,NA,NA,NA,NA,NA,NA,NA,NA,NA,NA,NA,NA,NA,NA,NA,NA,NA,NA,NA
"496","stim/objects/Instruments/musicsheet.png",326,45,319,0.9,"stim/54.jpeg",5,4,3,2,"Instruments",2,2,"right","right",0.410000086,1,1,1,0,NA,NA,NA,NA,NA,NA,NA,NA,NA,NA,NA,NA,NA,NA,NA,NA,NA,NA,NA,NA,NA,NA,NA,NA
"275","stim/objects/HouseObjects/handvacuum.png",327,45,320,0.7,"stim/43.jpeg",4,3,2,2,"HouseObjects",1,4,"left","left",0.427000046,1,1,1,0,NA,NA,NA,NA,NA,NA,NA,NA,NA,NA,NA,NA,NA,NA,NA,NA,NA,NA,NA,NA,NA,NA,NA,NA
"422","stim/objects/Instruments/frenchhorn.png",328,45,321,0.5,"stim/23.jpeg",2,3,1,2,"Instruments",2,4,"right","left",0.441999912,0,0,1,0,NA,NA,NA,NA,NA,NA,NA,NA,NA,NA,NA,NA,NA,NA,NA,NA,NA,NA,NA,NA,NA,NA,NA,NA
"265","stim/objects/HouseObjects/glassmop.png",329,45,322,0.5,"stim/22.jpeg",2,2,1,2,"HouseObjects",1,1,"left","right",0.480000019,0,0,1,0,NA,NA,NA,NA,NA,NA,NA,NA,NA,NA,NA,NA,NA,NA,NA,NA,NA,NA,NA,NA,NA,NA,NA,NA
"279","stim/objects/HouseObjects/iron.png",330,45,323,0.7,"stim/44.jpeg",4,4,2,2,"HouseObjects",1,3,"left","left",0.485999823,1,1,1,0,NA,NA,NA,NA,NA,NA,NA,NA,NA,NA,NA,NA,NA,NA,NA,NA,NA,NA,NA,NA,NA,NA,NA,NA
"246","stim/objects/HouseObjects/cushion2.png",331,45,324,0.3,"stim/33.jpeg",3,3,2,1,"HouseObjects",1,4,"left","left",0.457999945,1,1,1,0,78,45,1,0.3,1,"stim/33.jpeg",3,3,"stim/33.jpeg",4,"left",1.311999798,3,1,1.768999815,1,2.068000078,78,1,0,0,0,0,0
"497","stim/objects/Instruments/musicsheet.png",332,45,325,0.9,"stim/54.jpeg",5,4,3,2,"Instruments",2,2,"right","right",0.56799984,1,1,1,0,NA,NA,NA,NA,NA,NA,NA,NA,NA,NA,NA,NA,NA,NA,NA,NA,NA,NA,NA,NA,NA,NA,NA,NA
"455","stim/objects/Instruments/maraca2.png",333,45,326,0.3,"stim/43.jpeg",4,3,2,1,"Instruments",2,2,"right","left",0.481999874,0,0,1,0,38,45,1,0.3,2,"stim/43.jpeg",4,3,"stim/43.jpeg",2,"left",1.102999926,3,4,2.823999882,2,2.970999956,38,1,0,0,1,1,0
"296","stim/objects/HouseObjects/knife.png",334,45,327,0.9,"stim/63.jpeg",6,3,3,2,"HouseObjects",1,2,"left","left",0.641000032,1,1,1,0,NA,NA,NA,NA,NA,NA,NA,NA,NA,NA,NA,NA,NA,NA,NA,NA,NA,NA,NA,NA,NA,NA,NA,NA
"364","stim/objects/HouseObjects/pitcher.png",335,45,328,0.9,"stim/63.jpeg",6,3,3,2,"HouseObjects",1,2,"left","left",0.473999977,1,1,1,0,NA,NA,NA,NA,NA,NA,NA,NA,NA,NA,NA,NA,NA,NA,NA,NA,NA,NA,NA,NA,NA,NA,NA,NA
"459","stim/objects/Instruments/marimba.png",336,45,329,0.9,"stim/53.jpeg",5,3,3,2,"Instruments",2,3,"right","left",0.780999899,0,0,1,0,NA,NA,NA,NA,NA,NA,NA,NA,NA,NA,NA,NA,NA,NA,NA,NA,NA,NA,NA,NA,NA,NA,NA,NA
"514","stim/objects/Instruments/musicstand.png",337,45,330,0.9,"stim/54.jpeg",5,4,3,2,"Instruments",2,4,"right","right",0.412000179,1,1,1,0,NA,NA,NA,NA,NA,NA,NA,NA,NA,NA,NA,NA,NA,NA,NA,NA,NA,NA,NA,NA,NA,NA,NA,NA
"351","stim/objects/HouseObjects/pan.png",338,45,331,0.9,"stim/61.jpeg",6,1,3,2,"HouseObjects",1,4,"left","left",0.478000164,1,1,1,0,NA,NA,NA,NA,NA,NA,NA,NA,NA,NA,NA,NA,NA,NA,NA,NA,NA,NA,NA,NA,NA,NA,NA,NA
"293","stim/objects/HouseObjects/knife.png",339,45,332,0.9,"stim/63.jpeg",6,3,3,2,"HouseObjects",1,1,"left","left",0.454999924,1,1,1,0,NA,NA,NA,NA,NA,NA,NA,NA,NA,NA,NA,NA,NA,NA,NA,NA,NA,NA,NA,NA,NA,NA,NA,NA
"551","stim/objects/Instruments/speaker.png",340,45,333,0.5,"stim/24.jpeg",2,4,1,1,"Instruments",2,1,"right","right",0.605000019,1,1,1,0,175,45,1,0.5,2,"stim/24.jpeg",2,4,"stim/24.jpeg",1,"left",3.878000021,3,2,2.410000086,2,1.792000055,175,1,0,0,0,0,0
"329","stim/objects/HouseObjects/match.png",341,45,334,0.9,"stim/64.jpeg",6,4,3,2,"HouseObjects",1,3,"left","left",0.427999973,1,1,1,0,NA,NA,NA,NA,NA,NA,NA,NA,NA,NA,NA,NA,NA,NA,NA,NA,NA,NA,NA,NA,NA,NA,NA,NA
"314","stim/objects/HouseObjects/lintroller.png",342,45,335,0.9,"stim/64.jpeg",6,4,3,2,"HouseObjects",1,4,"left","left",0.626999855,1,1,1,0,NA,NA,NA,NA,NA,NA,NA,NA,NA,NA,NA,NA,NA,NA,NA,NA,NA,NA,NA,NA,NA,NA,NA,NA
"297","stim/objects/HouseObjects/knife.png",343,45,336,0.9,"stim/61.jpeg",6,1,3,2,"HouseObjects",1,2,"left","left",0.542999983,1,1,1,0,NA,NA,NA,NA,NA,NA,NA,NA,NA,NA,NA,NA,NA,NA,NA,NA,NA,NA,NA,NA,NA,NA,NA,NA
"341","stim/objects/HouseObjects/match2.png",344,45,337,0.1,"stim/53.jpeg",5,3,3,1,"HouseObjects",1,3,"left","right",0.58100009,0,0,1,0,59,45,1,0.1,1,"stim/53.jpeg",5,3,"stim/53.jpeg",3,"right",0.970000029,2,2,3.829999924,3,1.879999876,59,0,0,NA,1,NA,0
"515","stim/objects/Instruments/musicstand.png",345,45,338,0.9,"stim/51.jpeg",5,1,3,2,"Instruments",2,4,"right","",NA,0,0,1,0,NA,NA,NA,NA,NA,NA,NA,NA,NA,NA,NA,NA,NA,NA,NA,NA,NA,NA,NA,NA,NA,NA,NA,NA
"315","stim/objects/HouseObjects/lintroller.png",346,45,339,0.9,"stim/61.jpeg",6,1,3,2,"HouseObjects",1,3,"left","left",0.523000002,1,1,1,0,NA,NA,NA,NA,NA,NA,NA,NA,NA,NA,NA,NA,NA,NA,NA,NA,NA,NA,NA,NA,NA,NA,NA,NA
"400","stim/objects/HouseObjects/towel.png",347,45,340,0.3,"stim/33.jpeg",3,3,2,1,"HouseObjects",1,4,"left","right",0.506000042,0,0,1,0,13,45,1,0.3,1,"stim/33.jpeg",3,3,"stim/33.jpeg",4,"left",2.476000071,3,2,2.654999733,3,3.042999983,13,1,0,0,0,0,0
"365","stim/objects/HouseObjects/pitcher.png",348,45,341,0.9,"stim/62.jpeg",6,2,3,2,"HouseObjects",1,3,"left","left",0.572999954,1,1,1,0,NA,NA,NA,NA,NA,NA,NA,NA,NA,NA,NA,NA,NA,NA,NA,NA,NA,NA,NA,NA,NA,NA,NA,NA
"376","stim/objects/HouseObjects/recyclingbin.png",349,45,342,0.5,"stim/13.jpeg",1,3,1,1,"HouseObjects",1,4,"left","right",0.747999907,0,0,1,0,138,45,1,0.5,1,"stim/13.jpeg",1,3,"stim/13.jpeg",4,"right",1.184999943,3,2,1.912999868,3,1.536000013,138,0,0,NA,0,NA,0
"366","stim/objects/HouseObjects/pitcher.png",350,45,343,0.9,"stim/64.jpeg",6,4,3,2,"HouseObjects",1,4,"left","left",0.613000154,1,1,1,0,NA,NA,NA,NA,NA,NA,NA,NA,NA,NA,NA,NA,NA,NA,NA,NA,NA,NA,NA,NA,NA,NA,NA,NA
"274","stim/objects/HouseObjects/handbrush2.png",351,45,344,0.7,"stim/41.jpeg",4,1,2,1,"HouseObjects",1,1,"left","left",0.788000107,1,1,1,0,129,45,1,0.7,1,"stim/41.jpeg",4,1,"stim/41.jpeg",1,"right",1.21600008,1,3,2.737999916,1,1.042999983,129,0,0,NA,1,NA,0
"412","stim/objects/Instruments/electricguitar.png",352,45,345,0.5,"stim/13.jpeg",1,3,1,2,"Instruments",2,3,"right","left",0.729000092,0,0,1,0,NA,NA,NA,NA,NA,NA,NA,NA,NA,NA,NA,NA,NA,NA,NA,NA,NA,NA,NA,NA,NA,NA,NA,NA
"298","stim/objects/HouseObjects/knife.png",353,45,346,0.9,"stim/63.jpeg",6,3,3,2,"HouseObjects",1,4,"left","left",0.679999828,1,1,1,0,NA,NA,NA,NA,NA,NA,NA,NA,NA,NA,NA,NA,NA,NA,NA,NA,NA,NA,NA,NA,NA,NA,NA,NA
"553","stim/objects/Instruments/tambourine.png",354,45,347,0.5,"stim/21.jpeg",2,1,1,1,"Instruments",2,2,"right","right",0.723999977,1,1,1,0,102,45,1,0.5,2,"stim/21.jpeg",2,1,"stim/21.jpeg",2,"right",0.91899991,1,2,1.544999838,2,1.733999729,102,0,0,NA,1,NA,0
"280","stim/objects/HouseObjects/iron.png",355,45,348,0.7,"stim/41.jpeg",4,1,2,2,"HouseObjects",1,4,"left","right",0.511000156,0,0,1,0,NA,NA,NA,NA,NA,NA,NA,NA,NA,NA,NA,NA,NA,NA,NA,NA,NA,NA,NA,NA,NA,NA,NA,NA
"367","stim/objects/HouseObjects/pitcher.png",356,45,349,0.9,"stim/64.jpeg",6,4,3,2,"HouseObjects",1,2,"left","left",0.522000074,1,1,1,0,NA,NA,NA,NA,NA,NA,NA,NA,NA,NA,NA,NA,NA,NA,NA,NA,NA,NA,NA,NA,NA,NA,NA,NA
"330","stim/objects/HouseObjects/match.png",357,45,350,0.9,"stim/63.jpeg",6,3,3,2,"HouseObjects",1,1,"left","left",0.626999855,1,1,1,0,NA,NA,NA,NA,NA,NA,NA,NA,NA,NA,NA,NA,NA,NA,NA,NA,NA,NA,NA,NA,NA,NA,NA,NA
"552","stim/objects/Instruments/speaker2.png",358,45,351,0.1,"stim/63.jpeg",6,3,3,1,"Instruments",2,2,"right","left",0.65899992,0,0,1,0,143,45,1,0.1,2,"stim/63.jpeg",6,3,"stim/63.jpeg",2,"right",0.954999924,1,2,1.434999704,3,1.398999929,143,0,0,NA,0,NA,0
"282","stim/objects/HouseObjects/iron2.png",359,45,352,0.7,"stim/43.jpeg",4,3,2,1,"HouseObjects",1,2,"left","left",0.779999971,1,1,1,0,106,45,1,0.7,1,"stim/43.jpeg",4,3,"stim/43.jpeg",2,"right",1.021999836,2,1,1.276000023,3,1.489999771,106,0,0,NA,0,NA,0
"271","stim/objects/HouseObjects/handbrush.png",360,45,353,0.7,"stim/41.jpeg",4,1,2,2,"HouseObjects",1,2,"left","left",0.741999865,1,1,1,0,NA,NA,NA,NA,NA,NA,NA,NA,NA,NA,NA,NA,NA,NA,NA,NA,NA,NA,NA,NA,NA,NA,NA,NA
"530","stim/objects/Instruments/oboe.png",361,45,354,0.9,"stim/54.jpeg",5,4,3,2,"Instruments",2,2,"right","right",0.59100008,1,1,1,0,NA,NA,NA,NA,NA,NA,NA,NA,NA,NA,NA,NA,NA,NA,NA,NA,NA,NA,NA,NA,NA,NA,NA,NA
"561","stim/objects/Instruments/trumpet.png",362,45,355,0.7,"stim/32.jpeg",3,2,2,1,"Instruments",2,2,"right","left",0.641000032,0,0,1,0,185,45,1,0.7,2,"stim/32.jpeg",3,2,"stim/32.jpeg",2,"left",1.06099987,3,1,1.31099987,1,1.112999916,185,1,0,0,0,0,0
"290","stim/objects/HouseObjects/key2.png",363,45,356,0.7,"stim/41.jpeg",4,1,2,1,"HouseObjects",1,1,"left","left",0.634000063,1,1,1,0,152,45,1,0.7,1,"stim/41.jpeg",4,1,"stim/41.jpeg",1,"right",0.919999838,4,2,2.133999825,3,1.786000013,152,0,0,NA,0,NA,0
"332","stim/objects/HouseObjects/match.png",364,45,357,0.9,"stim/63.jpeg",6,3,3,2,"HouseObjects",1,2,"left","left",0.705000162,1,1,1,0,NA,NA,NA,NA,NA,NA,NA,NA,NA,NA,NA,NA,NA,NA,NA,NA,NA,NA,NA,NA,NA,NA,NA,NA
"270","stim/objects/HouseObjects/hairdryer2.png",365,45,358,0.7,"stim/44.jpeg",4,4,2,1,"HouseObjects",1,3,"left","left",0.572000027,1,1,1,0,16,45,1,0.7,1,"stim/44.jpeg",4,4,"stim/44.jpeg",3,"left",1.776000023,3,3,2.846999884,3,3.625,16,1,0,0,1,1,0
"380","stim/objects/HouseObjects/rubbergloves.png",366,45,359,0.5,"stim/11.jpeg",1,1,1,1,"HouseObjects",1,4,"left","right",0.569999933,0,0,1,0,1,45,1,0.5,1,"stim/11.jpeg",1,1,"stim/11.jpeg",4,"right",1.465000153,3,3,6.726999998,3,4.489999771,1,0,0,NA,0,NA,0
"516","stim/objects/Instruments/musicstand.png",367,45,360,0.9,"stim/53.jpeg",5,3,3,2,"Instruments",2,2,"right","right",0.47300005,1,1,1,0,NA,NA,NA,NA,NA,NA,NA,NA,NA,NA,NA,NA,NA,NA,NA,NA,NA,NA,NA,NA,NA,NA,NA,NA
"445","stim/objects/Instruments/keyboard.png",368,45,361,0.7,"stim/31.jpeg",3,1,2,2,"Instruments",2,3,"right","left",0.513999939,0,0,1,0,NA,NA,NA,NA,NA,NA,NA,NA,NA,NA,NA,NA,NA,NA,NA,NA,NA,NA,NA,NA,NA,NA,NA,NA
"369","stim/objects/HouseObjects/pitcher.png",369,45,362,0.9,"stim/63.jpeg",6,3,3,2,"HouseObjects",1,3,"left","left",0.632999897,1,1,1,0,NA,NA,NA,NA,NA,NA,NA,NA,NA,NA,NA,NA,NA,NA,NA,NA,NA,NA,NA,NA,NA,NA,NA,NA
"499","stim/objects/Instruments/musicsheet.png",370,45,363,0.9,"stim/52.jpeg",5,2,3,2,"Instruments",2,2,"right","right",0.513000011,1,1,1,0,NA,NA,NA,NA,NA,NA,NA,NA,NA,NA,NA,NA,NA,NA,NA,NA,NA,NA,NA,NA,NA,NA,NA,NA
"454","stim/objects/Instruments/maraca.png",371,45,364,0.7,"stim/34.jpeg",3,4,2,2,"Instruments",2,2,"right","right",0.4599998,1,1,1,0,NA,NA,NA,NA,NA,NA,NA,NA,NA,NA,NA,NA,NA,NA,NA,NA,NA,NA,NA,NA,NA,NA,NA,NA
"358","stim/objects/HouseObjects/pan2.png",372,45,365,0.1,"stim/54.jpeg",5,4,3,1,"HouseObjects",1,3,"left","right",0.575000048,0,0,1,0,6,45,1,0.1,1,"stim/54.jpeg",5,4,"stim/54.jpeg",3,"left",1.563999891,4,1,3.177999973,1,4.771999836,6,1,0,0,0,0,0
"268","stim/objects/HouseObjects/hairdryer.png",373,45,366,0.5,"stim/24.jpeg",2,4,1,2,"HouseObjects",1,2,"left","right",0.475999832,0,0,1,0,NA,NA,NA,NA,NA,NA,NA,NA,NA,NA,NA,NA,NA,NA,NA,NA,NA,NA,NA,NA,NA,NA,NA,NA
"405","stim/objects/HouseObjects/wateringcan2.png",374,45,367,0.9,"stim/62.jpeg",6,2,3,1,"HouseObjects",1,4,"left","left",0.493000031,1,1,1,0,63,45,1,0.9,1,"stim/62.jpeg",6,2,"stim/62.jpeg",4,"right",1.064999819,1,1,2.083999872,1,1.279000044,63,0,0,NA,0,NA,0
"370","stim/objects/HouseObjects/pitcher.png",375,45,368,0.9,"stim/62.jpeg",6,2,3,2,"HouseObjects",1,4,"left","left",0.505000114,1,1,1,0,NA,NA,NA,NA,NA,NA,NA,NA,NA,NA,NA,NA,NA,NA,NA,NA,NA,NA,NA,NA,NA,NA,NA,NA
"479","stim/objects/Instruments/metronome.png",376,45,369,0.9,"stim/52.jpeg",5,2,3,2,"Instruments",2,1,"right","right",0.630999804,1,1,1,0,NA,NA,NA,NA,NA,NA,NA,NA,NA,NA,NA,NA,NA,NA,NA,NA,NA,NA,NA,NA,NA,NA,NA,NA
"333","stim/objects/HouseObjects/match.png",377,45,370,0.9,"stim/63.jpeg",6,3,3,2,"HouseObjects",1,1,"left","left",0.707999945,1,1,1,0,NA,NA,NA,NA,NA,NA,NA,NA,NA,NA,NA,NA,NA,NA,NA,NA,NA,NA,NA,NA,NA,NA,NA,NA
"281","stim/objects/HouseObjects/iron.png",378,45,371,0.7,"stim/43.jpeg",4,3,2,2,"HouseObjects",1,3,"left","left",0.650000095,1,1,1,0,NA,NA,NA,NA,NA,NA,NA,NA,NA,NA,NA,NA,NA,NA,NA,NA,NA,NA,NA,NA,NA,NA,NA,NA
"559","stim/objects/Instruments/trombone.png",379,45,372,0.5,"stim/24.jpeg",2,4,1,1,"Instruments",2,1,"right","right",0.60800004,1,1,1,0,92,45,1,0.5,2,"stim/24.jpeg",2,4,"stim/24.jpeg",1,"right",0.808999777,3,3,1.397000074,4,2.505999804,92,0,0,NA,0,NA,0
"269","stim/objects/HouseObjects/hairdryer.png",380,45,373,0.5,"stim/23.jpeg",2,3,1,2,"HouseObjects",1,4,"left","left",0.544999838,1,1,1,0,NA,NA,NA,NA,NA,NA,NA,NA,NA,NA,NA,NA,NA,NA,NA,NA,NA,NA,NA,NA,NA,NA,NA,NA
"524","stim/objects/Instruments/oboe.png",381,45,374,0.9,"stim/54.jpeg",5,4,3,2,"Instruments",2,2,"right","right",0.53399992,1,1,1,0,NA,NA,NA,NA,NA,NA,NA,NA,NA,NA,NA,NA,NA,NA,NA,NA,NA,NA,NA,NA,NA,NA,NA,NA
"557","stim/objects/Instruments/triangle.png",382,45,375,0.5,"stim/23.jpeg",2,3,1,1,"Instruments",2,2,"right","left",0.453999996,0,0,1,0,168,45,1,0.5,2,"stim/23.jpeg",2,3,"stim/23.jpeg",2,"left",0.858999968,3,2,1.531999826,2,1.791000128,168,1,0,0,1,1,0
"545","stim/objects/Instruments/record_player.png",383,45,376,0.5,"stim/11.jpeg",1,1,1,1,"Instruments",2,3,"right","left",0.513999939,0,0,1,0,170,45,1,0.5,1,"stim/11.jpeg",1,1,"stim/11.jpeg",3,"right",1.651000023,2,3,1.131999969,4,1.342999935,170,0,0,NA,0,NA,0
"288","stim/objects/HouseObjects/key.png",384,45,377,0.7,"stim/41.jpeg",4,1,2,2,"HouseObjects",1,3,"left","right",0.746999979,0,0,1,0,NA,NA,NA,NA,NA,NA,NA,NA,NA,NA,NA,NA,NA,NA,NA,NA,NA,NA,NA,NA,NA,NA,NA,NA
"502","stim/objects/Instruments/musicsheet.png",385,45,378,0.9,"stim/52.jpeg",5,2,3,2,"Instruments",2,4,"right","right",0.53399992,1,1,1,0,NA,NA,NA,NA,NA,NA,NA,NA,NA,NA,NA,NA,NA,NA,NA,NA,NA,NA,NA,NA,NA,NA,NA,NA
"439","stim/objects/Instruments/harp2.png",386,45,379,0.3,"stim/43.jpeg",4,3,2,1,"Instruments",2,4,"right","left",0.60800004,0,0,1,0,178,45,1,0.3,2,"stim/43.jpeg",4,3,"stim/43.jpeg",4,"right",0.96999979,2,3,1.119999886,3,1.329999924,178,0,1,NA,0,NA,0
"292","stim/objects/HouseObjects/knife.png",387,45,380,0.9,"stim/62.jpeg",6,2,3,2,"HouseObjects",1,4,"left","left",0.674000025,1,1,1,0,NA,NA,NA,NA,NA,NA,NA,NA,NA,NA,NA,NA,NA,NA,NA,NA,NA,NA,NA,NA,NA,NA,NA,NA
"567","stim/objects/Instruments/vuvuzela.png",388,45,381,0.7,"stim/31.jpeg",3,1,2,1,"Instruments",2,3,"right","right",0.67200017,1,1,1,0,184,45,1,0.7,2,"stim/31.jpeg",3,1,"stim/31.jpeg",3,"left",1.381000042,4,3,1.677999973,1,1.924999952,184,1,0,0,0,0,0
"452","stim/objects/Instruments/maraca.png",389,45,382,0.7,"stim/31.jpeg",3,1,2,2,"Instruments",2,1,"right","right",0.447999954,1,1,1,0,NA,NA,NA,NA,NA,NA,NA,NA,NA,NA,NA,NA,NA,NA,NA,NA,NA,NA,NA,NA,NA,NA,NA,NA
"253","stim/objects/HouseObjects/dustpan.png",390,45,383,0.5,"stim/12.jpeg",1,2,1,2,"HouseObjects",1,3,"left","right",0.463000059,0,0,1,0,NA,NA,NA,NA,NA,NA,NA,NA,NA,NA,NA,NA,NA,NA,NA,NA,NA,NA,NA,NA,NA,NA,NA,NA
"289","stim/objects/HouseObjects/key.png",391,45,384,0.7,"stim/43.jpeg",4,3,2,2,"HouseObjects",1,3,"left","right",0.486999989,0,0,1,0,NA,NA,NA,NA,NA,NA,NA,NA,NA,NA,NA,NA,NA,NA,NA,NA,NA,NA,NA,NA,NA,NA,NA,NA
"565","stim/objects/Instruments/violin.png",392,45,385,0.7,"stim/34.jpeg",3,4,2,1,"Instruments",2,4,"right","right",0.572000027,1,1,1,0,169,45,1,0.7,2,"stim/34.jpeg",3,4,"stim/34.jpeg",4,"left",1.16899991,3,2,1.536000013,3,1.134000063,169,1,0,0,0,0,0
"480","stim/objects/Instruments/metronome.png",393,45,386,0.9,"stim/53.jpeg",5,3,3,2,"Instruments",2,3,"right","right",0.538000107,1,1,1,0,NA,NA,NA,NA,NA,NA,NA,NA,NA,NA,NA,NA,NA,NA,NA,NA,NA,NA,NA,NA,NA,NA,NA,NA
"430","stim/objects/Instruments/guitarcase.png",394,45,387,0.5,"stim/21.jpeg",2,1,1,2,"Instruments",2,1,"right","right",0.582000017,1,1,1,0,NA,NA,NA,NA,NA,NA,NA,NA,NA,NA,NA,NA,NA,NA,NA,NA,NA,NA,NA,NA,NA,NA,NA,NA
"375","stim/objects/HouseObjects/pitcher2.png",395,45,388,0.1,"stim/51.jpeg",5,1,3,1,"HouseObjects",1,1,"left","right",0.509000063,0,0,1,0,51,45,1,0.1,1,"stim/51.jpeg",5,1,"stim/51.jpeg",1,"right",0.994999886,1,1,2.431999922,1,2.559000015,51,0,1,NA,1,NA,0
"532","stim/objects/Instruments/oboe.png",396,45,389,0.9,"stim/53.jpeg",5,3,3,2,"Instruments",2,2,"right","right",0.53399992,1,1,1,0,NA,NA,NA,NA,NA,NA,NA,NA,NA,NA,NA,NA,NA,NA,NA,NA,NA,NA,NA,NA,NA,NA,NA,NA
"481","stim/objects/Instruments/metronome.png",397,45,390,0.9,"stim/54.jpeg",5,4,3,2,"Instruments",2,2,"right","right",0.394000053,1,1,1,0,NA,NA,NA,NA,NA,NA,NA,NA,NA,NA,NA,NA,NA,NA,NA,NA,NA,NA,NA,NA,NA,NA,NA,NA
"570","stim/objects/Instruments/xylophone2.png",398,45,391,0.1,"stim/64.jpeg",6,4,3,1,"Instruments",2,4,"right","left",0.51699996,0,0,1,0,135,45,1,0.1,2,"stim/64.jpeg",6,4,"stim/64.jpeg",4,"right",0.758999825,2,3,1.555999994,3,1.324999809,135,0,0,NA,0,NA,0
"462","stim/objects/Instruments/marimba.png",399,45,392,0.9,"stim/52.jpeg",5,2,3,2,"Instruments",2,3,"right","right",0.515000105,1,1,1,0,NA,NA,NA,NA,NA,NA,NA,NA,NA,NA,NA,NA,NA,NA,NA,NA,NA,NA,NA,NA,NA,NA,NA,NA
"336","stim/objects/HouseObjects/match.png",400,45,393,0.9,"stim/61.jpeg",6,1,3,2,"HouseObjects",1,1,"left","left",0.654000044,1,1,1,0,NA,NA,NA,NA,NA,NA,NA,NA,NA,NA,NA,NA,NA,NA,NA,NA,NA,NA,NA,NA,NA,NA,NA,NA
"523","stim/objects/Instruments/musicstand2.png",401,45,394,0.9,"stim/52.jpeg",5,2,3,1,"Instruments",2,4,"right","right",0.540999889,1,1,1,0,173,45,1,0.9,2,"stim/52.jpeg",5,2,"stim/52.jpeg",4,"left",1.10199976,2,3,2.850999832,4,1.404999733,173,1,0,0,1,1,0
"368","stim/objects/HouseObjects/pitcher.png",402,45,395,0.9,"stim/62.jpeg",6,2,3,2,"HouseObjects",1,1,"left","left",0.457999945,1,1,1,0,NA,NA,NA,NA,NA,NA,NA,NA,NA,NA,NA,NA,NA,NA,NA,NA,NA,NA,NA,NA,NA,NA,NA,NA
"434","stim/objects/Instruments/harmonica.png",403,45,396,0.5,"stim/22.jpeg",2,2,1,2,"Instruments",2,3,"right","left",0.496999979,0,0,1,0,NA,NA,NA,NA,NA,NA,NA,NA,NA,NA,NA,NA,NA,NA,NA,NA,NA,NA,NA,NA,NA,NA,NA,NA
"347","stim/objects/HouseObjects/pan.png",404,45,397,0.9,"stim/63.jpeg",6,3,3,2,"HouseObjects",1,1,"left","left",0.5400002,1,1,1,0,NA,NA,NA,NA,NA,NA,NA,NA,NA,NA,NA,NA,NA,NA,NA,NA,NA,NA,NA,NA,NA,NA,NA,NA
"251","stim/objects/HouseObjects/doormat.png",405,45,398,0.5,"stim/11.jpeg",1,1,1,2,"HouseObjects",1,1,"left","left",0.601999998,1,1,1,0,NA,NA,NA,NA,NA,NA,NA,NA,NA,NA,NA,NA,NA,NA,NA,NA,NA,NA,NA,NA,NA,NA,NA,NA
"283","stim/objects/HouseObjects/ironingboard.png",406,45,399,0.7,"stim/44.jpeg",4,4,2,2,"HouseObjects",1,2,"left","left",0.763000011,1,1,1,0,NA,NA,NA,NA,NA,NA,NA,NA,NA,NA,NA,NA,NA,NA,NA,NA,NA,NA,NA,NA,NA,NA,NA,NA
"533","stim/objects/Instruments/oboe.png",407,45,400,0.9,"stim/53.jpeg",5,3,3,2,"Instruments",2,1,"right","right",0.615999937,1,1,1,0,NA,NA,NA,NA,NA,NA,NA,NA,NA,NA,NA,NA,NA,NA,NA,NA,NA,NA,NA,NA,NA,NA,NA,NA
"547","stim/objects/Instruments/record.png",408,45,401,0.5,"stim/14.jpeg",1,4,1,1,"Instruments",2,1,"right","right",0.475000143,1,1,1,0,71,45,1,0.5,1,"stim/14.jpeg",1,4,"stim/14.jpeg",1,"right",1.642999887,1,4,3.163000107,4,2.124000072,71,0,1,NA,0,NA,0
"310","stim/objects/HouseObjects/lintroller.png",409,45,402,0.9,"stim/63.jpeg",6,3,3,2,"HouseObjects",1,1,"left","left",0.542999983,1,1,1,0,NA,NA,NA,NA,NA,NA,NA,NA,NA,NA,NA,NA,NA,NA,NA,NA,NA,NA,NA,NA,NA,NA,NA,NA
"392","stim/objects/HouseObjects/spraybottle.png",410,45,403,0.5,"stim/24.jpeg",2,4,1,1,"HouseObjects",1,3,"left","left",0.538000107,1,1,1,0,161,45,1,0.5,2,"stim/24.jpeg",2,4,"stim/24.jpeg",3,"right",1.239999771,4,3,1.16899991,3,1.523999929,161,0,0,NA,1,NA,0
"503","stim/objects/Instruments/musicsheet.png",411,45,404,0.9,"stim/51.jpeg",5,1,3,2,"Instruments",2,4,"right","right",0.500999928,1,1,1,0,NA,NA,NA,NA,NA,NA,NA,NA,NA,NA,NA,NA,NA,NA,NA,NA,NA,NA,NA,NA,NA,NA,NA,NA
"300","stim/objects/HouseObjects/knife.png",412,45,405,0.9,"stim/63.jpeg",6,3,3,2,"HouseObjects",1,1,"left","left",0.450999975,1,1,1,0,NA,NA,NA,NA,NA,NA,NA,NA,NA,NA,NA,NA,NA,NA,NA,NA,NA,NA,NA,NA,NA,NA,NA,NA
"458","stim/objects/Instruments/marimba.png",413,45,406,0.9,"stim/53.jpeg",5,3,3,2,"Instruments",2,2,"right","right",0.717999935,1,1,1,0,NA,NA,NA,NA,NA,NA,NA,NA,NA,NA,NA,NA,NA,NA,NA,NA,NA,NA,NA,NA,NA,NA,NA,NA
"417","stim/objects/Instruments/flute2.png",414,45,407,0.7,"stim/32.jpeg",3,2,2,1,"Instruments",2,2,"right","left",0.542000055,0,0,1,0,96,45,1,0.7,2,"stim/32.jpeg",3,2,"stim/32.jpeg",2,"right",4.552000046,1,1,2.102999926,3,1.694000006,96,0,0,NA,0,NA,0
"511","stim/objects/Instruments/musicstand.png",415,45,408,0.9,"stim/51.jpeg",5,1,3,2,"Instruments",2,3,"right","left",0.845000029,0,0,1,0,NA,NA,NA,NA,NA,NA,NA,NA,NA,NA,NA,NA,NA,NA,NA,NA,NA,NA,NA,NA,NA,NA,NA,NA
"305","stim/objects/HouseObjects/knife.png",416,45,409,0.9,"stim/61.jpeg",6,1,3,2,"HouseObjects",1,3,"left","right",0.882000208,0,0,1,0,NA,NA,NA,NA,NA,NA,NA,NA,NA,NA,NA,NA,NA,NA,NA,NA,NA,NA,NA,NA,NA,NA,NA,NA
"518","stim/objects/Instruments/musicstand.png",417,45,410,0.9,"stim/51.jpeg",5,1,3,2,"Instruments",2,3,"right","right",0.571999788,1,1,1,0,NA,NA,NA,NA,NA,NA,NA,NA,NA,NA,NA,NA,NA,NA,NA,NA,NA,NA,NA,NA,NA,NA,NA,NA
"506","stim/objects/Instruments/musicsheet2.png",418,45,411,0.9,"stim/51.jpeg",5,1,3,1,"Instruments",2,3,"right","right",0.485000134,1,1,1,0,156,45,1,0.9,2,"stim/51.jpeg",5,1,"stim/51.jpeg",3,"left",0.734999895,4,4,2.687999725,4,2.104999781,156,1,0,0,0,0,0
"324","stim/objects/HouseObjects/lintroller2.png",419,45,412,0.1,"stim/52.jpeg",5,2,3,1,"HouseObjects",1,3,"left","right",0.461999893,0,0,1,0,37,45,1,0.1,1,"stim/52.jpeg",5,2,"stim/52.jpeg",3,"right",0.853999853,1,1,2.339999914,3,1.221999884,37,0,0,NA,1,NA,0
"489","stim/objects/Instruments/metronome2.png",420,45,413,0.9,"stim/54.jpeg",5,4,3,1,"Instruments",2,3,"right","right",0.612999916,1,1,1,0,174,45,1,0.9,2,"stim/54.jpeg",5,4,"stim/54.jpeg",3,"left",0.987999916,4,4,4.522999763,3,1.582999945,174,1,1,1,1,1,0
"278","stim/objects/HouseObjects/handvacuum2.png",421,45,414,0.7,"stim/42.jpeg",4,2,2,1,"HouseObjects",1,4,"left","left",0.572000027,1,1,1,0,118,45,1,0.7,1,"stim/42.jpeg",4,2,"stim/42.jpeg",4,"left",0.878000021,4,2,2.332000017,3,1.271999836,118,1,1,1,0,0,0
"464","stim/objects/Instruments/marimba.png",422,45,415,0.9,"stim/52.jpeg",5,2,3,2,"Instruments",2,2,"right","right",0.507000208,1,1,1,0,NA,NA,NA,NA,NA,NA,NA,NA,NA,NA,NA,NA,NA,NA,NA,NA,NA,NA,NA,NA,NA,NA,NA,NA
"390","stim/objects/HouseObjects/sponge.png",423,45,416,0.5,"stim/23.jpeg",2,3,1,1,"HouseObjects",1,3,"left","left",0.555999994,1,1,1,0,60,45,1,0.5,2,"stim/23.jpeg",2,3,"stim/23.jpeg",3,"left",0.963999987,3,2,1.58100009,3,2.271999836,60,1,0,0,1,1,0
"243","stim/objects/HouseObjects/coffee2.png",424,45,417,0.3,"stim/32.jpeg",3,2,2,1,"HouseObjects",1,2,"left","left",0.59800005,1,1,1,0,132,45,1,0.3,1,"stim/32.jpeg",3,2,"stim/32.jpeg",2,"left",1.037999868,4,2,1.704999924,3,1.222999811,132,1,1,1,0,0,0
"294","stim/objects/HouseObjects/knife.png",425,45,418,0.9,"stim/64.jpeg",6,4,3,2,"HouseObjects",1,2,"left","left",0.596999884,1,1,1,0,NA,NA,NA,NA,NA,NA,NA,NA,NA,NA,NA,NA,NA,NA,NA,NA,NA,NA,NA,NA,NA,NA,NA,NA
"320","stim/objects/HouseObjects/lintroller.png",426,45,419,0.9,"stim/61.jpeg",6,1,3,2,"HouseObjects",1,2,"left","left",0.471999884,1,1,1,0,NA,NA,NA,NA,NA,NA,NA,NA,NA,NA,NA,NA,NA,NA,NA,NA,NA,NA,NA,NA,NA,NA,NA,NA
"427","stim/objects/Instruments/grandpiano.png",427,45,420,0.5,"stim/24.jpeg",2,4,1,2,"Instruments",2,1,"right","right",0.522000074,1,1,1,0,NA,NA,NA,NA,NA,NA,NA,NA,NA,NA,NA,NA,NA,NA,NA,NA,NA,NA,NA,NA,NA,NA,NA,NA
"383","stim/objects/HouseObjects/rug2.png",428,45,421,0.1,"stim/51.jpeg",5,1,3,1,"HouseObjects",1,2,"left","right",0.476999998,0,0,1,0,62,45,1,0.1,1,"stim/51.jpeg",5,1,"stim/51.jpeg",2,"right",1.378000021,1,1,2.839999914,1,1.89199996,62,0,1,NA,0,NA,0
"389","stim/objects/HouseObjects/scale2.png",429,45,422,0.9,"stim/62.jpeg",6,2,3,1,"HouseObjects",1,3,"left","left",0.556999922,1,1,1,0,61,45,1,0.9,1,"stim/62.jpeg",6,2,"stim/62.jpeg",3,"left",1.079999924,4,1,2.394999981,3,2.069000006,61,1,0,0,1,1,0
"277","stim/objects/HouseObjects/handvacuum.png",430,45,423,0.7,"stim/44.jpeg",4,4,2,2,"HouseObjects",1,2,"left","left",0.540999889,1,1,1,0,NA,NA,NA,NA,NA,NA,NA,NA,NA,NA,NA,NA,NA,NA,NA,NA,NA,NA,NA,NA,NA,NA,NA,NA
"321","stim/objects/HouseObjects/lintroller.png",431,45,424,0.9,"stim/63.jpeg",6,3,3,2,"HouseObjects",1,4,"left","left",0.52699995,1,1,1,0,NA,NA,NA,NA,NA,NA,NA,NA,NA,NA,NA,NA,NA,NA,NA,NA,NA,NA,NA,NA,NA,NA,NA,NA
"519","stim/objects/Instruments/musicstand.png",432,45,425,0.9,"stim/54.jpeg",5,4,3,2,"Instruments",2,3,"right","right",0.519999981,1,1,1,0,NA,NA,NA,NA,NA,NA,NA,NA,NA,NA,NA,NA,NA,NA,NA,NA,NA,NA,NA,NA,NA,NA,NA,NA
"466","stim/objects/Instruments/marimba.png",433,45,426,0.9,"stim/51.jpeg",5,1,3,2,"Instruments",2,3,"right","right",0.490999937,1,1,1,0,NA,NA,NA,NA,NA,NA,NA,NA,NA,NA,NA,NA,NA,NA,NA,NA,NA,NA,NA,NA,NA,NA,NA,NA
"415","stim/objects/Instruments/flute.png",434,45,427,0.5,"stim/14.jpeg",1,4,1,2,"Instruments",2,3,"right","left",0.419000149,0,0,1,0,NA,NA,NA,NA,NA,NA,NA,NA,NA,NA,NA,NA,NA,NA,NA,NA,NA,NA,NA,NA,NA,NA,NA,NA
"372","stim/objects/HouseObjects/pitcher.png",435,45,428,0.9,"stim/61.jpeg",6,1,3,2,"HouseObjects",1,3,"left","left",0.506000042,1,1,1,0,NA,NA,NA,NA,NA,NA,NA,NA,NA,NA,NA,NA,NA,NA,NA,NA,NA,NA,NA,NA,NA,NA,NA,NA
"323","stim/objects/HouseObjects/lintroller.png",436,45,429,0.9,"stim/61.jpeg",6,1,3,2,"HouseObjects",1,1,"left","left",0.547999859,1,1,1,0,NA,NA,NA,NA,NA,NA,NA,NA,NA,NA,NA,NA,NA,NA,NA,NA,NA,NA,NA,NA,NA,NA,NA,NA
"337","stim/objects/HouseObjects/match.png",437,45,430,0.9,"stim/61.jpeg",6,1,3,2,"HouseObjects",1,3,"left","left",0.486000061,1,1,1,0,NA,NA,NA,NA,NA,NA,NA,NA,NA,NA,NA,NA,NA,NA,NA,NA,NA,NA,NA,NA,NA,NA,NA,NA
"528","stim/objects/Instruments/oboe.png",438,45,431,0.9,"stim/53.jpeg",5,3,3,2,"Instruments",2,4,"right","right",0.444000006,1,1,1,0,NA,NA,NA,NA,NA,NA,NA,NA,NA,NA,NA,NA,NA,NA,NA,NA,NA,NA,NA,NA,NA,NA,NA,NA
"377","stim/objects/HouseObjects/recyclingbin2.png",439,45,432,0.1,"stim/52.jpeg",5,2,3,1,"HouseObjects",1,3,"left","right",0.817000151,0,0,1,0,123,45,1,0.1,1,"stim/52.jpeg",5,2,"stim/52.jpeg",3,"left",0.937000036,4,3,2.835999727,3,1.640000105,123,1,0,0,1,1,0
"261","stim/objects/HouseObjects/garbagebin2.png",440,45,433,0.7,"stim/41.jpeg",4,1,2,1,"HouseObjects",1,1,"left","left",0.579999924,1,1,1,0,66,45,1,0.7,1,"stim/41.jpeg",4,1,"stim/41.jpeg",1,"right",1.058999777,1,3,5.881999731,4,2.111999989,66,0,0,NA,0,NA,0
"286","stim/objects/HouseObjects/ironingboard2.png",441,45,434,0.7,"stim/44.jpeg",4,4,2,1,"HouseObjects",1,1,"left","left",0.368000031,1,1,1,0,153,45,1,0.7,1,"stim/44.jpeg",4,4,"stim/44.jpeg",1,"right",0.958999872,2,3,1.610999823,3,0.644999743,153,0,0,NA,0,NA,0
"517","stim/objects/Instruments/musicstand.png",442,45,435,0.9,"stim/52.jpeg",5,2,3,2,"Instruments",2,2,"right","right",0.493999958,1,1,1,0,NA,NA,NA,NA,NA,NA,NA,NA,NA,NA,NA,NA,NA,NA,NA,NA,NA,NA,NA,NA,NA,NA,NA,NA
"556","stim/objects/Instruments/timbal2.png",443,45,436,0.1,"stim/61.jpeg",6,1,3,1,"Instruments",2,2,"right","right",0.378000021,1,1,1,0,200,45,1,0.1,2,"stim/61.jpeg",6,1,"stim/61.jpeg",2,"left",0.809999943,3,2,1.785000086,4,1.740999937,200,1,0,0,0,0,0
"469","stim/objects/Instruments/marimba.png",444,45,437,0.9,"stim/54.jpeg",5,4,3,2,"Instruments",2,2,"right","right",0.577000141,1,1,1,0,NA,NA,NA,NA,NA,NA,NA,NA,NA,NA,NA,NA,NA,NA,NA,NA,NA,NA,NA,NA,NA,NA,NA,NA
"295","stim/objects/HouseObjects/knife.png",445,45,438,0.9,"stim/62.jpeg",6,2,3,2,"HouseObjects",1,3,"left","left",0.481999874,1,1,1,0,NA,NA,NA,NA,NA,NA,NA,NA,NA,NA,NA,NA,NA,NA,NA,NA,NA,NA,NA,NA,NA,NA,NA,NA
"339","stim/objects/HouseObjects/match.png",446,45,439,0.9,"stim/64.jpeg",6,4,3,2,"HouseObjects",1,1,"left","left",0.6650002,1,1,1,0,NA,NA,NA,NA,NA,NA,NA,NA,NA,NA,NA,NA,NA,NA,NA,NA,NA,NA,NA,NA,NA,NA,NA,NA
"504","stim/objects/Instruments/musicsheet.png",447,45,440,0.9,"stim/53.jpeg",5,3,3,2,"Instruments",2,1,"right","right",0.661000013,1,1,1,0,NA,NA,NA,NA,NA,NA,NA,NA,NA,NA,NA,NA,NA,NA,NA,NA,NA,NA,NA,NA,NA,NA,NA,NA
"386","stim/objects/HouseObjects/saw.png",448,45,441,0.5,"stim/21.jpeg",2,1,1,1,"HouseObjects",1,1,"left","right",0.559000015,0,0,1,0,32,45,1,0.5,2,"stim/21.jpeg",2,1,"stim/21.jpeg",1,"left",0.968999863,4,3,2.998000145,3,2.447999954,32,1,0,0,0,0,0
"319","stim/objects/HouseObjects/lintroller.png",449,45,442,0.9,"stim/61.jpeg",6,1,3,2,"HouseObjects",1,4,"left","left",0.549999952,1,1,1,0,NA,NA,NA,NA,NA,NA,NA,NA,NA,NA,NA,NA,NA,NA,NA,NA,NA,NA,NA,NA,NA,NA,NA,NA
"391","stim/objects/HouseObjects/sponge2.png",450,45,443,0.9,"stim/63.jpeg",6,3,3,1,"HouseObjects",1,4,"left","left",0.50999999,1,1,1,0,54,45,1,0.9,1,"stim/63.jpeg",6,3,"stim/63.jpeg",4,"left",1.04399991,3,2,2.218999863,4,1.492000103,54,1,0,0,1,1,0
"505","stim/objects/Instruments/musicsheet.png",451,45,444,0.9,"stim/52.jpeg",5,2,3,2,"Instruments",2,4,"right","right",0.503999949,1,1,1,0,NA,NA,NA,NA,NA,NA,NA,NA,NA,NA,NA,NA,NA,NA,NA,NA,NA,NA,NA,NA,NA,NA,NA,NA
"444","stim/objects/Instruments/keyboard.png",452,45,445,0.7,"stim/32.jpeg",3,2,2,2,"Instruments",2,3,"right","left",0.436999798,0,0,1,0,NA,NA,NA,NA,NA,NA,NA,NA,NA,NA,NA,NA,NA,NA,NA,NA,NA,NA,NA,NA,NA,NA,NA,NA
"463","stim/objects/Instruments/marimba.png",453,45,446,0.9,"stim/54.jpeg",5,4,3,2,"Instruments",2,3,"right","right",0.486999989,1,1,1,0,NA,NA,NA,NA,NA,NA,NA,NA,NA,NA,NA,NA,NA,NA,NA,NA,NA,NA,NA,NA,NA,NA,NA,NA
"276","stim/objects/HouseObjects/handvacuum.png",454,45,447,0.7,"stim/42.jpeg",4,2,2,2,"HouseObjects",1,1,"left","left",0.509000063,1,1,1,0,NA,NA,NA,NA,NA,NA,NA,NA,NA,NA,NA,NA,NA,NA,NA,NA,NA,NA,NA,NA,NA,NA,NA,NA
"542","stim/objects/Instruments/panflute2.png",455,45,448,0.9,"stim/54.jpeg",5,4,3,1,"Instruments",2,3,"right","right",0.51699996,1,1,1,0,176,45,1,0.9,2,"stim/54.jpeg",5,4,"stim/54.jpeg",3,"left",1.473999739,4,4,2.155999899,1,1.200999975,176,1,1,1,0,0,0
"441","stim/objects/Instruments/hihat.png",456,45,449,0.7,"stim/32.jpeg",3,2,2,2,"Instruments",2,2,"right","left",0.639000177,0,0,1,0,NA,NA,NA,NA,NA,NA,NA,NA,NA,NA,NA,NA,NA,NA,NA,NA,NA,NA,NA,NA,NA,NA,NA,NA
"536","stim/objects/Instruments/oboe.png",457,45,450,0.9,"stim/51.jpeg",5,1,3,2,"Instruments",2,1,"right","right",0.467000008,1,1,1,0,NA,NA,NA,NA,NA,NA,NA,NA,NA,NA,NA,NA,NA,NA,NA,NA,NA,NA,NA,NA,NA,NA,NA,NA
"419","stim/objects/Instruments/flutetrans.png",458,45,451,0.5,"stim/11.jpeg",1,1,1,2,"Instruments",2,3,"right","right",0.572000027,1,1,1,0,NA,NA,NA,NA,NA,NA,NA,NA,NA,NA,NA,NA,NA,NA,NA,NA,NA,NA,NA,NA,NA,NA,NA,NA
"478","stim/objects/Instruments/metronome.png",459,45,452,0.9,"stim/53.jpeg",5,3,3,2,"Instruments",2,2,"right","right",0.520999908,1,1,1,0,NA,NA,NA,NA,NA,NA,NA,NA,NA,NA,NA,NA,NA,NA,NA,NA,NA,NA,NA,NA,NA,NA,NA,NA
"242","stim/objects/HouseObjects/coffee.png",460,45,453,0.5,"stim/11.jpeg",1,1,1,2,"HouseObjects",1,2,"left","left",0.588000059,1,1,1,0,NA,NA,NA,NA,NA,NA,NA,NA,NA,NA,NA,NA,NA,NA,NA,NA,NA,NA,NA,NA,NA,NA,NA,NA
"529","stim/objects/Instruments/oboe.png",461,45,454,0.9,"stim/52.jpeg",5,2,3,2,"Instruments",2,2,"right","right",0.508999825,1,1,1,0,NA,NA,NA,NA,NA,NA,NA,NA,NA,NA,NA,NA,NA,NA,NA,NA,NA,NA,NA,NA,NA,NA,NA,NA
"438","stim/objects/Instruments/harp.png",462,45,455,0.7,"stim/33.jpeg",3,3,2,2,"Instruments",2,2,"right","right",0.458000183,1,1,1,0,NA,NA,NA,NA,NA,NA,NA,NA,NA,NA,NA,NA,NA,NA,NA,NA,NA,NA,NA,NA,NA,NA,NA,NA
"470","stim/objects/Instruments/marimba.png",463,45,456,0.9,"stim/52.jpeg",5,2,3,2,"Instruments",2,3,"right","right",0.487999916,1,1,1,0,NA,NA,NA,NA,NA,NA,NA,NA,NA,NA,NA,NA,NA,NA,NA,NA,NA,NA,NA,NA,NA,NA,NA,NA
"356","stim/objects/HouseObjects/pan.png",464,45,457,0.9,"stim/62.jpeg",6,2,3,2,"HouseObjects",1,4,"left","left",0.440999985,1,1,1,0,NA,NA,NA,NA,NA,NA,NA,NA,NA,NA,NA,NA,NA,NA,NA,NA,NA,NA,NA,NA,NA,NA,NA,NA
"248","stim/objects/HouseObjects/dishsoap.png",465,45,458,0.5,"stim/13.jpeg",1,3,1,2,"HouseObjects",1,4,"left","right",0.502999783,0,0,1,0,NA,NA,NA,NA,NA,NA,NA,NA,NA,NA,NA,NA,NA,NA,NA,NA,NA,NA,NA,NA,NA,NA,NA,NA
"423","stim/objects/Instruments/frenchhorn2.png",466,45,459,0.3,"stim/42.jpeg",4,2,2,1,"Instruments",2,1,"right","left",0.606000185,0,0,1,0,134,45,1,0.3,2,"stim/42.jpeg",4,2,"stim/42.jpeg",1,"right",0.746000051,1,3,2.371999979,3,0.99399972,134,0,0,NA,0,NA,0
