"","obj_file","X.x","participant.x","trialN.x","trial_cond","scn_file.x","scn_cat","scn_inst","scn_condition","fillers","obj_cat","obj_cat_num","quadrant","corr_ans","key_resp_trial.keys","key_resp_trial.rt","trial_acc","trial_acc_manual","group.x","practice","X.y","participant.y","OvsN","PE_level","object_cat","scn_file.y","corr_scn_cat","corr_scn_inst","scn_file.1","corr_loc","key_resp_id.keys","key_resp_id.rt","key_resp_conf.keys","key_resp_assoc.keys","key_resp_assoc.rt","key_resp_loc.keys","key_resp_loc.rt","trialN.y","id_acc","assoc.acc","cond_assoc","loc.acc","cond_loc","group.y"
"162","stim/objects/Instruments/record2.png",1,33,1,0.7,"stim/43.jpeg",4,3,2,NA,"Instruments",1,4,"left","",NA,0,0,1,1,NA,NA,NA,NA,NA,NA,NA,NA,NA,NA,NA,NA,NA,NA,NA,NA,NA,NA,NA,NA,NA,NA,NA,NA
"66","stim/objects/HouseObjects/scale2.png",2,33,2,0.9,"stim/53.jpeg",5,3,3,NA,"HouseObjects",2,2,"right","right",0.539999962,1,1,1,1,NA,NA,NA,NA,NA,NA,NA,NA,NA,NA,NA,NA,NA,NA,NA,NA,NA,NA,NA,NA,NA,NA,NA,NA
"126","stim/objects/Instruments/panflute2.png",3,33,3,0.7,"stim/41.jpeg",4,1,2,NA,"Instruments",1,2,"left","left",0.559999943,1,1,1,1,NA,NA,NA,NA,NA,NA,NA,NA,NA,NA,NA,NA,NA,NA,NA,NA,NA,NA,NA,NA,NA,NA,NA,NA
"150","stim/objects/Instruments/record_player2.png",4,33,4,0.7,"stim/44.jpeg",4,4,2,NA,"Instruments",1,1,"left","left",0.612999916,1,1,1,1,NA,NA,NA,NA,NA,NA,NA,NA,NA,NA,NA,NA,NA,NA,NA,NA,NA,NA,NA,NA,NA,NA,NA,NA
"217","stim/objects/Instruments/trumpet.png",5,33,5,0.3,"stim/33.jpeg",3,3,2,NA,"Instruments",1,3,"left","right",0.595999956,0,0,1,1,NA,NA,NA,NA,NA,NA,NA,NA,NA,NA,NA,NA,NA,NA,NA,NA,NA,NA,NA,NA,NA,NA,NA,NA
"33","stim/objects/HouseObjects/safetypin.png",6,33,6,0.5,"stim/21.jpeg",2,1,1,NA,"HouseObjects",2,3,"right","left",0.744999886,0,0,1,1,NA,NA,NA,NA,NA,NA,NA,NA,NA,NA,NA,NA,NA,NA,NA,NA,NA,NA,NA,NA,NA,NA,NA,NA
"9","stim/objects/HouseObjects/remote.png",7,33,7,0.5,"stim/12.jpeg",1,2,1,NA,"HouseObjects",2,2,"right","",NA,0,0,1,1,NA,NA,NA,NA,NA,NA,NA,NA,NA,NA,NA,NA,NA,NA,NA,NA,NA,NA,NA,NA,NA,NA,NA,NA
"105","stim/objects/HouseObjects/thermometer.png",8,33,8,0.7,"stim/33.jpeg",3,3,2,NA,"HouseObjects",2,1,"right","left",0.499999762,0,0,1,1,NA,NA,NA,NA,NA,NA,NA,NA,NA,NA,NA,NA,NA,NA,NA,NA,NA,NA,NA,NA,NA,NA,NA,NA
"67","stim/objects/HouseObjects/scale2.png",9,33,9,0.9,"stim/53.jpeg",5,3,3,NA,"HouseObjects",2,1,"right","right",0.504999876,1,1,1,1,NA,NA,NA,NA,NA,NA,NA,NA,NA,NA,NA,NA,NA,NA,NA,NA,NA,NA,NA,NA,NA,NA,NA,NA
"61","stim/objects/HouseObjects/scale.png",10,33,10,0.5,"stim/23.jpeg",2,3,1,NA,"HouseObjects",2,2,"right","right",0.63499999,1,1,1,1,NA,NA,NA,NA,NA,NA,NA,NA,NA,NA,NA,NA,NA,NA,NA,NA,NA,NA,NA,NA,NA,NA,NA,NA
"38","stim/objects/HouseObjects/safetypin2.png",11,33,11,0.9,"stim/51.jpeg",5,1,3,NA,"HouseObjects",2,1,"right","left",0.456999779,0,0,1,1,NA,NA,NA,NA,NA,NA,NA,NA,NA,NA,NA,NA,NA,NA,NA,NA,NA,NA,NA,NA,NA,NA,NA,NA
"196","stim/objects/Instruments/triangle2.png",12,33,12,0.9,"stim/61.jpeg",6,1,3,NA,"Instruments",1,4,"left","left",0.63499999,1,1,1,1,NA,NA,NA,NA,NA,NA,NA,NA,NA,NA,NA,NA,NA,NA,NA,NA,NA,NA,NA,NA,NA,NA,NA,NA
"80","stim/objects/HouseObjects/sponge2.png",13,33,13,0.9,"stim/54.jpeg",5,4,3,NA,"HouseObjects",2,1,"right","right",0.469000101,1,1,1,1,NA,NA,NA,NA,NA,NA,NA,NA,NA,NA,NA,NA,NA,NA,NA,NA,NA,NA,NA,NA,NA,NA,NA,NA
"10","stim/objects/HouseObjects/remote.png",14,33,14,0.5,"stim/12.jpeg",1,2,1,NA,"HouseObjects",2,1,"right","left",0.657999992,0,0,1,1,NA,NA,NA,NA,NA,NA,NA,NA,NA,NA,NA,NA,NA,NA,NA,NA,NA,NA,NA,NA,NA,NA,NA,NA
"120","stim/objects/HouseObjects/thread2.png",15,33,15,0.1,"stim/64.jpeg",6,4,3,NA,"HouseObjects",2,4,"right","left",0.547999859,0,0,1,1,NA,NA,NA,NA,NA,NA,NA,NA,NA,NA,NA,NA,NA,NA,NA,NA,NA,NA,NA,NA,NA,NA,NA,NA
"34","stim/objects/HouseObjects/safetypin.png",16,33,16,0.5,"stim/21.jpeg",2,1,1,NA,"HouseObjects",2,4,"right","right",0.532999754,1,1,1,1,NA,NA,NA,NA,NA,NA,NA,NA,NA,NA,NA,NA,NA,NA,NA,NA,NA,NA,NA,NA,NA,NA,NA,NA
"62","stim/objects/HouseObjects/scale.png",17,33,17,0.5,"stim/23.jpeg",2,3,1,NA,"HouseObjects",2,4,"right","left",0.441999912,0,0,1,1,NA,NA,NA,NA,NA,NA,NA,NA,NA,NA,NA,NA,NA,NA,NA,NA,NA,NA,NA,NA,NA,NA,NA,NA
"208","stim/objects/Instruments/trombone2.png",18,33,18,0.9,"stim/62.jpeg",6,2,3,NA,"Instruments",1,1,"left","left",0.58100009,1,1,1,1,NA,NA,NA,NA,NA,NA,NA,NA,NA,NA,NA,NA,NA,NA,NA,NA,NA,NA,NA,NA,NA,NA,NA,NA
"106","stim/objects/HouseObjects/thermometer.png",19,33,19,0.7,"stim/33.jpeg",3,3,2,NA,"HouseObjects",2,4,"right","right",0.536000013,1,1,1,1,NA,NA,NA,NA,NA,NA,NA,NA,NA,NA,NA,NA,NA,NA,NA,NA,NA,NA,NA,NA,NA,NA,NA,NA
"175","stim/objects/Instruments/speaker.png",20,33,20,0.5,"stim/22.jpeg",2,2,1,NA,"Instruments",1,1,"left","left",0.742999792,1,1,1,1,NA,NA,NA,NA,NA,NA,NA,NA,NA,NA,NA,NA,NA,NA,NA,NA,NA,NA,NA,NA,NA,NA,NA,NA
"1","stim/objects/HouseObjects/recyclingbin.png",21,33,21,0.5,"stim/11.jpeg",1,1,1,NA,"HouseObjects",2,1,"right","left",0.710999966,0,0,1,1,NA,NA,NA,NA,NA,NA,NA,NA,NA,NA,NA,NA,NA,NA,NA,NA,NA,NA,NA,NA,NA,NA,NA,NA
"81","stim/objects/HouseObjects/sponge2.png",22,33,22,0.9,"stim/54.jpeg",5,4,3,NA,"HouseObjects",2,2,"right","right",0.488999844,1,1,1,1,NA,NA,NA,NA,NA,NA,NA,NA,NA,NA,NA,NA,NA,NA,NA,NA,NA,NA,NA,NA,NA,NA,NA,NA
"75","stim/objects/HouseObjects/sponge.png",23,33,23,0.5,"stim/24.jpeg",2,4,1,NA,"HouseObjects",2,2,"right","right",0.694000006,1,1,1,1,NA,NA,NA,NA,NA,NA,NA,NA,NA,NA,NA,NA,NA,NA,NA,NA,NA,NA,NA,NA,NA,NA,NA,NA
"76","stim/objects/HouseObjects/sponge.png",24,33,24,0.5,"stim/24.jpeg",2,4,1,NA,"HouseObjects",2,2,"right","right",0.421999931,1,1,1,1,NA,NA,NA,NA,NA,NA,NA,NA,NA,NA,NA,NA,NA,NA,NA,NA,NA,NA,NA,NA,NA,NA,NA,NA
"169","stim/objects/Instruments/saxophone.png",25,33,25,0.5,"stim/21.jpeg",2,1,1,NA,"Instruments",1,2,"left","left",0.503999949,1,1,1,1,NA,NA,NA,NA,NA,NA,NA,NA,NA,NA,NA,NA,NA,NA,NA,NA,NA,NA,NA,NA,NA,NA,NA,NA
"209","stim/objects/Instruments/trombone2.png",26,33,26,0.9,"stim/62.jpeg",6,2,3,NA,"Instruments",1,1,"left","left",0.557999849,1,1,1,1,NA,NA,NA,NA,NA,NA,NA,NA,NA,NA,NA,NA,NA,NA,NA,NA,NA,NA,NA,NA,NA,NA,NA,NA
"52","stim/objects/HouseObjects/saw2.png",27,33,27,0.9,"stim/52.jpeg",5,2,3,NA,"HouseObjects",2,3,"right","right",0.581999779,1,1,1,1,NA,NA,NA,NA,NA,NA,NA,NA,NA,NA,NA,NA,NA,NA,NA,NA,NA,NA,NA,NA,NA,NA,NA,NA
"170","stim/objects/Instruments/saxophone.png",28,33,28,0.5,"stim/21.jpeg",2,1,1,NA,"Instruments",1,4,"left","right",0.683999777,0,0,1,1,NA,NA,NA,NA,NA,NA,NA,NA,NA,NA,NA,NA,NA,NA,NA,NA,NA,NA,NA,NA,NA,NA,NA,NA
"187","stim/objects/Instruments/timbal.png",29,33,29,0.5,"stim/24.jpeg",2,4,1,NA,"Instruments",1,3,"left","right",0.720999956,0,0,1,1,NA,NA,NA,NA,NA,NA,NA,NA,NA,NA,NA,NA,NA,NA,NA,NA,NA,NA,NA,NA,NA,NA,NA,NA
"89","stim/objects/HouseObjects/spraybottle.png",30,33,30,0.7,"stim/31.jpeg",3,1,2,NA,"HouseObjects",2,2,"right","left",0.780999899,0,0,1,1,NA,NA,NA,NA,NA,NA,NA,NA,NA,NA,NA,NA,NA,NA,NA,NA,NA,NA,NA,NA,NA,NA,NA,NA
"220","stim/objects/Instruments/trumpet2.png",31,33,31,0.9,"stim/63.jpeg",6,3,3,NA,"Instruments",1,3,"left","left",0.811999798,1,1,1,1,NA,NA,NA,NA,NA,NA,NA,NA,NA,NA,NA,NA,NA,NA,NA,NA,NA,NA,NA,NA,NA,NA,NA,NA
"188","stim/objects/Instruments/timbal.png",32,33,32,0.5,"stim/24.jpeg",2,4,1,NA,"Instruments",1,3,"left","right",0.730999947,0,0,1,1,NA,NA,NA,NA,NA,NA,NA,NA,NA,NA,NA,NA,NA,NA,NA,NA,NA,NA,NA,NA,NA,NA,NA,NA
"39","stim/objects/HouseObjects/safetypin2.png",33,33,33,0.9,"stim/51.jpeg",5,1,3,NA,"HouseObjects",2,1,"right","right",0.853000164,1,1,1,1,NA,NA,NA,NA,NA,NA,NA,NA,NA,NA,NA,NA,NA,NA,NA,NA,NA,NA,NA,NA,NA,NA,NA,NA
"6","stim/objects/HouseObjects/recyclingbin2.png",34,33,34,0.3,"stim/41.jpeg",4,1,2,NA,"HouseObjects",2,3,"right","left",0.735999823,0,0,1,1,NA,NA,NA,NA,NA,NA,NA,NA,NA,NA,NA,NA,NA,NA,NA,NA,NA,NA,NA,NA,NA,NA,NA,NA
"127","stim/objects/Instruments/panflute2.png",35,33,35,0.7,"stim/41.jpeg",4,1,2,NA,"Instruments",1,3,"left","left",0.536999941,1,1,1,1,NA,NA,NA,NA,NA,NA,NA,NA,NA,NA,NA,NA,NA,NA,NA,NA,NA,NA,NA,NA,NA,NA,NA,NA
"151","stim/objects/Instruments/record_player2.png",36,33,36,0.7,"stim/44.jpeg",4,4,2,NA,"Instruments",1,4,"left","left",0.85199976,1,1,1,1,NA,NA,NA,NA,NA,NA,NA,NA,NA,NA,NA,NA,NA,NA,NA,NA,NA,NA,NA,NA,NA,NA,NA,NA
"157","stim/objects/Instruments/record.png",37,33,37,0.5,"stim/13.jpeg",1,3,1,NA,"Instruments",1,1,"left","right",0.660999775,0,0,1,1,NA,NA,NA,NA,NA,NA,NA,NA,NA,NA,NA,NA,NA,NA,NA,NA,NA,NA,NA,NA,NA,NA,NA,NA
"193","stim/objects/Instruments/triangle.png",38,33,38,0.3,"stim/31.jpeg",3,1,2,NA,"Instruments",1,2,"left","left",0.530999899,1,1,1,1,NA,NA,NA,NA,NA,NA,NA,NA,NA,NA,NA,NA,NA,NA,NA,NA,NA,NA,NA,NA,NA,NA,NA,NA
"221","stim/objects/Instruments/trumpet2.png",39,33,39,0.9,"stim/63.jpeg",6,3,3,NA,"Instruments",1,2,"left","left",0.553999901,1,1,1,1,NA,NA,NA,NA,NA,NA,NA,NA,NA,NA,NA,NA,NA,NA,NA,NA,NA,NA,NA,NA,NA,NA,NA,NA
"232","stim/objects/Instruments/tuba2.png",40,33,40,0.9,"stim/64.jpeg",6,4,3,NA,"Instruments",1,3,"left","left",0.650999784,1,1,1,1,NA,NA,NA,NA,NA,NA,NA,NA,NA,NA,NA,NA,NA,NA,NA,NA,NA,NA,NA,NA,NA,NA,NA,NA
"133","stim/objects/Instruments/pipepiano.png",41,33,41,0.5,"stim/12.jpeg",1,2,1,NA,"Instruments",1,3,"left","right",0.654999971,0,0,1,1,NA,NA,NA,NA,NA,NA,NA,NA,NA,NA,NA,NA,NA,NA,NA,NA,NA,NA,NA,NA,NA,NA,NA,NA
"163","stim/objects/Instruments/record2.png",42,33,42,0.7,"stim/43.jpeg",4,3,2,NA,"Instruments",1,3,"left","right",0.415999889,0,0,1,1,NA,NA,NA,NA,NA,NA,NA,NA,NA,NA,NA,NA,NA,NA,NA,NA,NA,NA,NA,NA,NA,NA,NA,NA
"97","stim/objects/HouseObjects/teapot.png",43,33,43,0.7,"stim/32.jpeg",3,2,2,NA,"HouseObjects",2,4,"right","right",0.627000093,1,1,1,1,NA,NA,NA,NA,NA,NA,NA,NA,NA,NA,NA,NA,NA,NA,NA,NA,NA,NA,NA,NA,NA,NA,NA,NA
"113","stim/objects/HouseObjects/thread.png",44,33,44,0.7,"stim/34.jpeg",3,4,2,NA,"HouseObjects",2,2,"right","left",0.638000011,0,0,1,1,NA,NA,NA,NA,NA,NA,NA,NA,NA,NA,NA,NA,NA,NA,NA,NA,NA,NA,NA,NA,NA,NA,NA,NA
"82","stim/objects/HouseObjects/sponge2.png",45,33,45,0.9,"stim/54.jpeg",5,4,3,NA,"HouseObjects",2,2,"right","right",0.66899991,1,1,1,1,NA,NA,NA,NA,NA,NA,NA,NA,NA,NA,NA,NA,NA,NA,NA,NA,NA,NA,NA,NA,NA,NA,NA,NA
"22","stim/objects/HouseObjects/rubbergloves2.png",46,33,46,0.3,"stim/43.jpeg",4,3,2,NA,"HouseObjects",2,4,"right","left",0.65199995,0,0,1,1,NA,NA,NA,NA,NA,NA,NA,NA,NA,NA,NA,NA,NA,NA,NA,NA,NA,NA,NA,NA,NA,NA,NA,NA
"63","stim/objects/HouseObjects/scale.png",47,33,47,0.5,"stim/23.jpeg",2,3,1,NA,"HouseObjects",2,3,"right","left",0.849999905,0,0,1,1,NA,NA,NA,NA,NA,NA,NA,NA,NA,NA,NA,NA,NA,NA,NA,NA,NA,NA,NA,NA,NA,NA,NA,NA
"229","stim/objects/Instruments/tuba.png",48,33,48,0.3,"stim/34.jpeg",3,4,2,NA,"Instruments",1,3,"left","right",0.55099988,0,0,1,1,NA,NA,NA,NA,NA,NA,NA,NA,NA,NA,NA,NA,NA,NA,NA,NA,NA,NA,NA,NA,NA,NA,NA,NA
"205","stim/objects/Instruments/trombone.png",49,33,49,0.3,"stim/32.jpeg",3,2,2,NA,"Instruments",1,2,"left","",NA,0,0,1,1,NA,NA,NA,NA,NA,NA,NA,NA,NA,NA,NA,NA,NA,NA,NA,NA,NA,NA,NA,NA,NA,NA,NA,NA
"40","stim/objects/HouseObjects/safetypin2.png",50,33,50,0.9,"stim/51.jpeg",5,1,3,NA,"HouseObjects",2,3,"right","right",0.635999918,1,1,1,1,NA,NA,NA,NA,NA,NA,NA,NA,NA,NA,NA,NA,NA,NA,NA,NA,NA,NA,NA,NA,NA,NA,NA,NA
"2","stim/objects/HouseObjects/recyclingbin.png",51,33,51,0.5,"stim/11.jpeg",1,1,1,NA,"HouseObjects",2,2,"right","left",0.638000011,0,0,1,1,NA,NA,NA,NA,NA,NA,NA,NA,NA,NA,NA,NA,NA,NA,NA,NA,NA,NA,NA,NA,NA,NA,NA,NA
"41","stim/objects/HouseObjects/safetypin2.png",52,33,52,0.9,"stim/51.jpeg",5,1,3,NA,"HouseObjects",2,2,"right","right",0.588999748,1,1,1,1,NA,NA,NA,NA,NA,NA,NA,NA,NA,NA,NA,NA,NA,NA,NA,NA,NA,NA,NA,NA,NA,NA,NA,NA
"222","stim/objects/Instruments/trumpet2.png",53,33,53,0.9,"stim/63.jpeg",6,3,3,NA,"Instruments",1,3,"left","left",0.580999851,1,1,1,1,NA,NA,NA,NA,NA,NA,NA,NA,NA,NA,NA,NA,NA,NA,NA,NA,NA,NA,NA,NA,NA,NA,NA,NA
"98","stim/objects/HouseObjects/teapot.png",54,33,54,0.7,"stim/32.jpeg",3,2,2,NA,"HouseObjects",2,1,"right","right",0.61199975,1,1,1,1,NA,NA,NA,NA,NA,NA,NA,NA,NA,NA,NA,NA,NA,NA,NA,NA,NA,NA,NA,NA,NA,NA,NA,NA
"17","stim/objects/HouseObjects/rubbergloves.png",55,33,55,0.5,"stim/13.jpeg",1,3,1,NA,"HouseObjects",2,3,"right","left",0.629999876,0,0,1,1,NA,NA,NA,NA,NA,NA,NA,NA,NA,NA,NA,NA,NA,NA,NA,NA,NA,NA,NA,NA,NA,NA,NA,NA
"128","stim/objects/Instruments/panflute2.png",56,33,56,0.7,"stim/41.jpeg",4,1,2,NA,"Instruments",1,1,"left","left",0.65199995,1,1,1,1,NA,NA,NA,NA,NA,NA,NA,NA,NA,NA,NA,NA,NA,NA,NA,NA,NA,NA,NA,NA,NA,NA,NA,NA
"11","stim/objects/HouseObjects/remote.png",57,33,57,0.5,"stim/12.jpeg",1,2,1,NA,"HouseObjects",2,3,"right","right",0.582000017,1,1,1,1,NA,NA,NA,NA,NA,NA,NA,NA,NA,NA,NA,NA,NA,NA,NA,NA,NA,NA,NA,NA,NA,NA,NA,NA
"223","stim/objects/Instruments/trumpet2.png",58,33,58,0.9,"stim/63.jpeg",6,3,3,NA,"Instruments",1,3,"left","left",0.553999901,1,1,1,1,NA,NA,NA,NA,NA,NA,NA,NA,NA,NA,NA,NA,NA,NA,NA,NA,NA,NA,NA,NA,NA,NA,NA,NA
"210","stim/objects/Instruments/trombone2.png",59,33,59,0.9,"stim/62.jpeg",6,2,3,NA,"Instruments",1,1,"left","left",0.601999998,1,1,1,1,NA,NA,NA,NA,NA,NA,NA,NA,NA,NA,NA,NA,NA,NA,NA,NA,NA,NA,NA,NA,NA,NA,NA,NA
"12","stim/objects/HouseObjects/remote.png",60,33,60,0.5,"stim/12.jpeg",1,2,1,NA,"HouseObjects",2,2,"right","right",0.571999788,1,1,1,1,NA,NA,NA,NA,NA,NA,NA,NA,NA,NA,NA,NA,NA,NA,NA,NA,NA,NA,NA,NA,NA,NA,NA,NA
"158","stim/objects/Instruments/record.png",61,33,61,0.5,"stim/13.jpeg",1,3,1,NA,"Instruments",1,3,"left","right",0.770999908,0,0,1,1,NA,NA,NA,NA,NA,NA,NA,NA,NA,NA,NA,NA,NA,NA,NA,NA,NA,NA,NA,NA,NA,NA,NA,NA
"107","stim/objects/HouseObjects/thermometer.png",62,33,62,0.7,"stim/33.jpeg",3,3,2,NA,"HouseObjects",2,4,"right","left",0.529000044,0,0,1,1,NA,NA,NA,NA,NA,NA,NA,NA,NA,NA,NA,NA,NA,NA,NA,NA,NA,NA,NA,NA,NA,NA,NA,NA
"189","stim/objects/Instruments/timbal.png",63,33,63,0.5,"stim/24.jpeg",2,4,1,NA,"Instruments",1,4,"left","right",0.563999891,0,0,1,1,NA,NA,NA,NA,NA,NA,NA,NA,NA,NA,NA,NA,NA,NA,NA,NA,NA,NA,NA,NA,NA,NA,NA,NA
"164","stim/objects/Instruments/record2.png",64,33,64,0.7,"stim/43.jpeg",4,3,2,NA,"Instruments",1,1,"left","left",0.620999813,1,1,1,1,NA,NA,NA,NA,NA,NA,NA,NA,NA,NA,NA,NA,NA,NA,NA,NA,NA,NA,NA,NA,NA,NA,NA,NA
"23","stim/objects/HouseObjects/rubbergloves2.png",65,33,65,0.3,"stim/43.jpeg",4,3,2,NA,"HouseObjects",2,4,"right","left",0.623999834,0,0,1,1,NA,NA,NA,NA,NA,NA,NA,NA,NA,NA,NA,NA,NA,NA,NA,NA,NA,NA,NA,NA,NA,NA,NA,NA
"42","stim/objects/HouseObjects/safetypin2.png",66,33,66,0.9,"stim/51.jpeg",5,1,3,NA,"HouseObjects",2,3,"right","right",0.866999865,1,1,1,1,NA,NA,NA,NA,NA,NA,NA,NA,NA,NA,NA,NA,NA,NA,NA,NA,NA,NA,NA,NA,NA,NA,NA,NA
"176","stim/objects/Instruments/speaker.png",67,33,67,0.5,"stim/22.jpeg",2,2,1,NA,"Instruments",1,4,"left","right",0.63499999,0,0,1,1,NA,NA,NA,NA,NA,NA,NA,NA,NA,NA,NA,NA,NA,NA,NA,NA,NA,NA,NA,NA,NA,NA,NA,NA
"180","stim/objects/Instruments/speaker2.png",68,33,68,0.1,"stim/52.jpeg",5,2,3,NA,"Instruments",1,3,"left","right",0.597999811,0,0,1,1,NA,NA,NA,NA,NA,NA,NA,NA,NA,NA,NA,NA,NA,NA,NA,NA,NA,NA,NA,NA,NA,NA,NA,NA
"7","stim/objects/HouseObjects/recyclingbin2.png",69,33,69,0.3,"stim/41.jpeg",4,1,2,NA,"HouseObjects",2,4,"right","left",0.569999933,0,0,1,1,NA,NA,NA,NA,NA,NA,NA,NA,NA,NA,NA,NA,NA,NA,NA,NA,NA,NA,NA,NA,NA,NA,NA,NA
"197","stim/objects/Instruments/triangle2.png",70,33,70,0.9,"stim/61.jpeg",6,1,3,NA,"Instruments",1,4,"left","left",0.704999924,1,1,1,1,NA,NA,NA,NA,NA,NA,NA,NA,NA,NA,NA,NA,NA,NA,NA,NA,NA,NA,NA,NA,NA,NA,NA,NA
"181","stim/objects/Instruments/tambourine.png",71,33,71,0.5,"stim/23.jpeg",2,3,1,NA,"Instruments",1,1,"left","right",0.467000008,0,0,1,1,NA,NA,NA,NA,NA,NA,NA,NA,NA,NA,NA,NA,NA,NA,NA,NA,NA,NA,NA,NA,NA,NA,NA,NA
"43","stim/objects/HouseObjects/safetypin2.png",72,33,72,0.9,"stim/51.jpeg",5,1,3,NA,"HouseObjects",2,4,"right","right",0.815000057,1,1,1,1,NA,NA,NA,NA,NA,NA,NA,NA,NA,NA,NA,NA,NA,NA,NA,NA,NA,NA,NA,NA,NA,NA,NA,NA
"64","stim/objects/HouseObjects/scale.png",73,33,73,0.5,"stim/23.jpeg",2,3,1,NA,"HouseObjects",2,1,"right","left",0.634999752,0,0,1,1,NA,NA,NA,NA,NA,NA,NA,NA,NA,NA,NA,NA,NA,NA,NA,NA,NA,NA,NA,NA,NA,NA,NA,NA
"152","stim/objects/Instruments/record_player2.png",74,33,74,0.7,"stim/44.jpeg",4,4,2,NA,"Instruments",1,2,"left","left",0.703999996,1,1,1,1,NA,NA,NA,NA,NA,NA,NA,NA,NA,NA,NA,NA,NA,NA,NA,NA,NA,NA,NA,NA,NA,NA,NA,NA
"114","stim/objects/HouseObjects/thread.png",75,33,75,0.7,"stim/34.jpeg",3,4,2,NA,"HouseObjects",2,3,"right","right",0.569999933,1,1,1,1,NA,NA,NA,NA,NA,NA,NA,NA,NA,NA,NA,NA,NA,NA,NA,NA,NA,NA,NA,NA,NA,NA,NA,NA
"165","stim/objects/Instruments/record2.png",76,33,76,0.7,"stim/43.jpeg",4,3,2,NA,"Instruments",1,1,"left","left",0.636999846,1,1,1,1,NA,NA,NA,NA,NA,NA,NA,NA,NA,NA,NA,NA,NA,NA,NA,NA,NA,NA,NA,NA,NA,NA,NA,NA
"138","stim/objects/Instruments/pipepiano2.png",77,33,77,0.7,"stim/42.jpeg",4,2,2,NA,"Instruments",1,1,"left","",NA,0,0,1,1,NA,NA,NA,NA,NA,NA,NA,NA,NA,NA,NA,NA,NA,NA,NA,NA,NA,NA,NA,NA,NA,NA,NA,NA
"182","stim/objects/Instruments/tambourine.png",78,33,78,0.5,"stim/23.jpeg",2,3,1,NA,"Instruments",1,4,"left","right",0.349999905,0,0,1,1,NA,NA,NA,NA,NA,NA,NA,NA,NA,NA,NA,NA,NA,NA,NA,NA,NA,NA,NA,NA,NA,NA,NA,NA
"159","stim/objects/Instruments/record.png",79,33,79,0.5,"stim/13.jpeg",1,3,1,NA,"Instruments",1,1,"left","right",0.59800005,0,0,1,1,NA,NA,NA,NA,NA,NA,NA,NA,NA,NA,NA,NA,NA,NA,NA,NA,NA,NA,NA,NA,NA,NA,NA,NA
"25","stim/objects/HouseObjects/rug.png",80,33,80,0.5,"stim/14.jpeg",1,4,1,NA,"HouseObjects",2,2,"right","left",0.491999865,0,0,1,1,NA,NA,NA,NA,NA,NA,NA,NA,NA,NA,NA,NA,NA,NA,NA,NA,NA,NA,NA,NA,NA,NA,NA,NA
"198","stim/objects/Instruments/triangle2.png",81,33,81,0.9,"stim/61.jpeg",6,1,3,NA,"Instruments",1,2,"left","left",0.532999992,1,1,1,1,NA,NA,NA,NA,NA,NA,NA,NA,NA,NA,NA,NA,NA,NA,NA,NA,NA,NA,NA,NA,NA,NA,NA,NA
"8","stim/objects/HouseObjects/recyclingbin2.png",82,33,82,0.3,"stim/41.jpeg",4,1,2,NA,"HouseObjects",2,4,"right","left",0.541000128,0,0,1,1,NA,NA,NA,NA,NA,NA,NA,NA,NA,NA,NA,NA,NA,NA,NA,NA,NA,NA,NA,NA,NA,NA,NA,NA
"166","stim/objects/Instruments/record2.png",83,33,83,0.7,"stim/43.jpeg",4,3,2,NA,"Instruments",1,2,"left","",NA,0,0,1,1,NA,NA,NA,NA,NA,NA,NA,NA,NA,NA,NA,NA,NA,NA,NA,NA,NA,NA,NA,NA,NA,NA,NA,NA
"171","stim/objects/Instruments/saxophone.png",84,33,84,0.5,"stim/21.jpeg",2,1,1,NA,"Instruments",1,3,"left","right",0.525000095,0,0,1,1,NA,NA,NA,NA,NA,NA,NA,NA,NA,NA,NA,NA,NA,NA,NA,NA,NA,NA,NA,NA,NA,NA,NA,NA
"129","stim/objects/Instruments/panflute2.png",85,33,85,0.7,"stim/41.jpeg",4,1,2,NA,"Instruments",1,1,"left","left",0.752999783,1,1,1,1,NA,NA,NA,NA,NA,NA,NA,NA,NA,NA,NA,NA,NA,NA,NA,NA,NA,NA,NA,NA,NA,NA,NA,NA
"68","stim/objects/HouseObjects/scale2.png",86,33,86,0.9,"stim/53.jpeg",5,3,3,NA,"HouseObjects",2,3,"right","right",0.590999842,1,1,1,1,NA,NA,NA,NA,NA,NA,NA,NA,NA,NA,NA,NA,NA,NA,NA,NA,NA,NA,NA,NA,NA,NA,NA,NA
"224","stim/objects/Instruments/trumpet2.png",87,33,87,0.9,"stim/63.jpeg",6,3,3,NA,"Instruments",1,3,"left","left",0.535000086,1,1,1,1,NA,NA,NA,NA,NA,NA,NA,NA,NA,NA,NA,NA,NA,NA,NA,NA,NA,NA,NA,NA,NA,NA,NA,NA
"14","stim/objects/HouseObjects/remote2.png",88,33,88,0.3,"stim/42.jpeg",4,2,2,NA,"HouseObjects",2,2,"right","left",0.488000154,0,0,1,1,NA,NA,NA,NA,NA,NA,NA,NA,NA,NA,NA,NA,NA,NA,NA,NA,NA,NA,NA,NA,NA,NA,NA,NA
"225","stim/objects/Instruments/trumpet2.png",89,33,89,0.9,"stim/63.jpeg",6,3,3,NA,"Instruments",1,4,"left","left",0.557999849,1,1,1,1,NA,NA,NA,NA,NA,NA,NA,NA,NA,NA,NA,NA,NA,NA,NA,NA,NA,NA,NA,NA,NA,NA,NA,NA
"130","stim/objects/Instruments/panflute2.png",90,33,90,0.7,"stim/41.jpeg",4,1,2,NA,"Instruments",1,2,"left","right",0.639999866,0,0,1,1,NA,NA,NA,NA,NA,NA,NA,NA,NA,NA,NA,NA,NA,NA,NA,NA,NA,NA,NA,NA,NA,NA,NA,NA
"199","stim/objects/Instruments/triangle2.png",91,33,91,0.9,"stim/61.jpeg",6,1,3,NA,"Instruments",1,3,"left","left",0.615999937,1,1,1,1,NA,NA,NA,NA,NA,NA,NA,NA,NA,NA,NA,NA,NA,NA,NA,NA,NA,NA,NA,NA,NA,NA,NA,NA
"69","stim/objects/HouseObjects/scale2.png",92,33,92,0.9,"stim/53.jpeg",5,3,3,NA,"HouseObjects",2,2,"right","right",0.555999994,1,1,1,1,NA,NA,NA,NA,NA,NA,NA,NA,NA,NA,NA,NA,NA,NA,NA,NA,NA,NA,NA,NA,NA,NA,NA,NA
"233","stim/objects/Instruments/tuba2.png",93,33,93,0.9,"stim/64.jpeg",6,4,3,NA,"Instruments",1,2,"left","left",0.585999966,1,1,1,1,NA,NA,NA,NA,NA,NA,NA,NA,NA,NA,NA,NA,NA,NA,NA,NA,NA,NA,NA,NA,NA,NA,NA,NA
"83","stim/objects/HouseObjects/sponge2.png",94,33,94,0.9,"stim/54.jpeg",5,4,3,NA,"HouseObjects",2,1,"right","right",0.546999931,1,1,1,1,NA,NA,NA,NA,NA,NA,NA,NA,NA,NA,NA,NA,NA,NA,NA,NA,NA,NA,NA,NA,NA,NA,NA,NA
"53","stim/objects/HouseObjects/saw2.png",95,33,95,0.9,"stim/52.jpeg",5,2,3,NA,"HouseObjects",2,2,"right","left",0.613999844,0,0,1,1,NA,NA,NA,NA,NA,NA,NA,NA,NA,NA,NA,NA,NA,NA,NA,NA,NA,NA,NA,NA,NA,NA,NA,NA
"35","stim/objects/HouseObjects/safetypin.png",96,33,96,0.5,"stim/21.jpeg",2,1,1,NA,"HouseObjects",2,3,"right","left",0.714999914,0,0,1,1,NA,NA,NA,NA,NA,NA,NA,NA,NA,NA,NA,NA,NA,NA,NA,NA,NA,NA,NA,NA,NA,NA,NA,NA
"211","stim/objects/Instruments/trombone2.png",97,33,97,0.9,"stim/62.jpeg",6,2,3,NA,"Instruments",1,1,"left","left",0.634999752,1,1,1,1,NA,NA,NA,NA,NA,NA,NA,NA,NA,NA,NA,NA,NA,NA,NA,NA,NA,NA,NA,NA,NA,NA,NA,NA
"131","stim/objects/Instruments/panflute2.png",98,33,98,0.7,"stim/41.jpeg",4,1,2,NA,"Instruments",1,1,"left","right",0.623999834,0,0,1,1,NA,NA,NA,NA,NA,NA,NA,NA,NA,NA,NA,NA,NA,NA,NA,NA,NA,NA,NA,NA,NA,NA,NA,NA
"230","stim/objects/Instruments/tuba.png",99,33,99,0.3,"stim/34.jpeg",3,4,2,NA,"Instruments",1,3,"left","right",0.667999983,0,0,1,1,NA,NA,NA,NA,NA,NA,NA,NA,NA,NA,NA,NA,NA,NA,NA,NA,NA,NA,NA,NA,NA,NA,NA,NA
"90","stim/objects/HouseObjects/spraybottle.png",100,33,100,0.7,"stim/31.jpeg",3,1,2,NA,"HouseObjects",2,2,"right","right",0.869999886,1,1,1,1,NA,NA,NA,NA,NA,NA,NA,NA,NA,NA,NA,NA,NA,NA,NA,NA,NA,NA,NA,NA,NA,NA,NA,NA
"26","stim/objects/HouseObjects/rug.png",101,33,101,0.5,"stim/14.jpeg",1,4,1,NA,"HouseObjects",2,1,"right","left",0.864000082,0,0,1,1,NA,NA,NA,NA,NA,NA,NA,NA,NA,NA,NA,NA,NA,NA,NA,NA,NA,NA,NA,NA,NA,NA,NA,NA
"132","stim/objects/Instruments/panflute2.png",102,33,102,0.7,"stim/41.jpeg",4,1,2,NA,"Instruments",1,2,"left","",NA,0,0,1,1,NA,NA,NA,NA,NA,NA,NA,NA,NA,NA,NA,NA,NA,NA,NA,NA,NA,NA,NA,NA,NA,NA,NA,NA
"47","stim/objects/HouseObjects/saw.png",103,33,103,0.5,"stim/22.jpeg",2,2,1,NA,"HouseObjects",2,1,"right","left",0.611000061,0,0,1,1,NA,NA,NA,NA,NA,NA,NA,NA,NA,NA,NA,NA,NA,NA,NA,NA,NA,NA,NA,NA,NA,NA,NA,NA
"13","stim/objects/HouseObjects/remote.png",104,33,104,0.5,"stim/12.jpeg",1,2,1,NA,"HouseObjects",2,2,"right","right",0.701999903,1,1,1,1,NA,NA,NA,NA,NA,NA,NA,NA,NA,NA,NA,NA,NA,NA,NA,NA,NA,NA,NA,NA,NA,NA,NA,NA
"77","stim/objects/HouseObjects/sponge.png",105,33,105,0.5,"stim/24.jpeg",2,4,1,NA,"HouseObjects",2,1,"right","right",0.680000067,1,1,1,1,NA,NA,NA,NA,NA,NA,NA,NA,NA,NA,NA,NA,NA,NA,NA,NA,NA,NA,NA,NA,NA,NA,NA,NA
"212","stim/objects/Instruments/trombone2.png",106,33,106,0.9,"stim/62.jpeg",6,2,3,NA,"Instruments",1,4,"left","left",0.520999908,1,1,1,1,NA,NA,NA,NA,NA,NA,NA,NA,NA,NA,NA,NA,NA,NA,NA,NA,NA,NA,NA,NA,NA,NA,NA,NA
"183","stim/objects/Instruments/tambourine.png",107,33,107,0.5,"stim/23.jpeg",2,3,1,NA,"Instruments",1,3,"left","right",0.513999939,0,0,1,1,NA,NA,NA,NA,NA,NA,NA,NA,NA,NA,NA,NA,NA,NA,NA,NA,NA,NA,NA,NA,NA,NA,NA,NA
"200","stim/objects/Instruments/triangle2.png",108,33,108,0.9,"stim/61.jpeg",6,1,3,NA,"Instruments",1,2,"left","left",0.51699996,1,1,1,1,NA,NA,NA,NA,NA,NA,NA,NA,NA,NA,NA,NA,NA,NA,NA,NA,NA,NA,NA,NA,NA,NA,NA,NA
"30","stim/objects/HouseObjects/rug2.png",109,33,109,0.3,"stim/44.jpeg",4,4,2,NA,"HouseObjects",2,1,"right","left",0.640000105,0,0,1,1,NA,NA,NA,NA,NA,NA,NA,NA,NA,NA,NA,NA,NA,NA,NA,NA,NA,NA,NA,NA,NA,NA,NA,NA
"121","stim/objects/Instruments/panflute.png",110,33,110,0.5,"stim/11.jpeg",1,1,1,NA,"Instruments",1,1,"left","right",0.635999918,0,0,1,1,NA,NA,NA,NA,NA,NA,NA,NA,NA,NA,NA,NA,NA,NA,NA,NA,NA,NA,NA,NA,NA,NA,NA,NA
"15","stim/objects/HouseObjects/remote2.png",111,33,111,0.3,"stim/42.jpeg",4,2,2,NA,"HouseObjects",2,2,"right","left",0.504999876,0,0,1,1,NA,NA,NA,NA,NA,NA,NA,NA,NA,NA,NA,NA,NA,NA,NA,NA,NA,NA,NA,NA,NA,NA,NA,NA
"54","stim/objects/HouseObjects/saw2.png",112,33,112,0.9,"stim/52.jpeg",5,2,3,NA,"HouseObjects",2,2,"right","right",0.562999964,1,1,1,1,NA,NA,NA,NA,NA,NA,NA,NA,NA,NA,NA,NA,NA,NA,NA,NA,NA,NA,NA,NA,NA,NA,NA,NA
"213","stim/objects/Instruments/trombone2.png",113,33,113,0.9,"stim/62.jpeg",6,2,3,NA,"Instruments",1,1,"left","left",0.605999947,1,1,1,1,NA,NA,NA,NA,NA,NA,NA,NA,NA,NA,NA,NA,NA,NA,NA,NA,NA,NA,NA,NA,NA,NA,NA,NA
"91","stim/objects/HouseObjects/spraybottle.png",114,33,114,0.7,"stim/31.jpeg",3,1,2,NA,"HouseObjects",2,3,"right","right",0.601999998,1,1,1,1,NA,NA,NA,NA,NA,NA,NA,NA,NA,NA,NA,NA,NA,NA,NA,NA,NA,NA,NA,NA,NA,NA,NA,NA
"145","stim/objects/Instruments/record_player.png",115,33,115,0.5,"stim/14.jpeg",1,4,1,NA,"Instruments",1,3,"left","left",0.666000128,1,1,1,1,NA,NA,NA,NA,NA,NA,NA,NA,NA,NA,NA,NA,NA,NA,NA,NA,NA,NA,NA,NA,NA,NA,NA,NA
"172","stim/objects/Instruments/saxophone.png",116,33,116,0.5,"stim/21.jpeg",2,1,1,NA,"Instruments",1,4,"left","right",0.787999868,0,0,1,1,NA,NA,NA,NA,NA,NA,NA,NA,NA,NA,NA,NA,NA,NA,NA,NA,NA,NA,NA,NA,NA,NA,NA,NA
"31","stim/objects/HouseObjects/rug2.png",117,33,117,0.3,"stim/44.jpeg",4,4,2,NA,"HouseObjects",2,4,"right","left",0.545999765,0,0,1,1,NA,NA,NA,NA,NA,NA,NA,NA,NA,NA,NA,NA,NA,NA,NA,NA,NA,NA,NA,NA,NA,NA,NA,NA
"16","stim/objects/HouseObjects/remote2.png",118,33,118,0.3,"stim/42.jpeg",4,2,2,NA,"HouseObjects",2,3,"right","left",0.634000063,0,0,1,1,NA,NA,NA,NA,NA,NA,NA,NA,NA,NA,NA,NA,NA,NA,NA,NA,NA,NA,NA,NA,NA,NA,NA,NA
"48","stim/objects/HouseObjects/saw.png",119,33,119,0.5,"stim/22.jpeg",2,2,1,NA,"HouseObjects",2,3,"right","right",0.56799984,1,1,1,1,NA,NA,NA,NA,NA,NA,NA,NA,NA,NA,NA,NA,NA,NA,NA,NA,NA,NA,NA,NA,NA,NA,NA,NA
"194","stim/objects/Instruments/triangle.png",120,33,120,0.3,"stim/31.jpeg",3,1,2,NA,"Instruments",1,2,"left","left",0.480000019,1,1,1,1,NA,NA,NA,NA,NA,NA,NA,NA,NA,NA,NA,NA,NA,NA,NA,NA,NA,NA,NA,NA,NA,NA,NA,NA
"206","stim/objects/Instruments/trombone.png",121,33,121,0.3,"stim/32.jpeg",3,2,2,NA,"Instruments",1,2,"left","right",0.68599987,0,0,1,1,NA,NA,NA,NA,NA,NA,NA,NA,NA,NA,NA,NA,NA,NA,NA,NA,NA,NA,NA,NA,NA,NA,NA,NA
"70","stim/objects/HouseObjects/scale2.png",122,33,122,0.9,"stim/53.jpeg",5,3,3,NA,"HouseObjects",2,1,"right","right",0.638000011,1,1,1,1,NA,NA,NA,NA,NA,NA,NA,NA,NA,NA,NA,NA,NA,NA,NA,NA,NA,NA,NA,NA,NA,NA,NA,NA
"27","stim/objects/HouseObjects/rug.png",123,33,123,0.5,"stim/14.jpeg",1,4,1,NA,"HouseObjects",2,1,"right","left",0.564999819,0,0,1,1,NA,NA,NA,NA,NA,NA,NA,NA,NA,NA,NA,NA,NA,NA,NA,NA,NA,NA,NA,NA,NA,NA,NA,NA
"49","stim/objects/HouseObjects/saw.png",124,33,124,0.5,"stim/22.jpeg",2,2,1,NA,"HouseObjects",2,1,"right","right",0.75999999,1,1,1,1,NA,NA,NA,NA,NA,NA,NA,NA,NA,NA,NA,NA,NA,NA,NA,NA,NA,NA,NA,NA,NA,NA,NA,NA
"139","stim/objects/Instruments/pipepiano2.png",125,33,125,0.7,"stim/42.jpeg",4,2,2,NA,"Instruments",1,2,"left","left",0.41899991,1,1,1,1,NA,NA,NA,NA,NA,NA,NA,NA,NA,NA,NA,NA,NA,NA,NA,NA,NA,NA,NA,NA,NA,NA,NA,NA
"140","stim/objects/Instruments/pipepiano2.png",126,33,126,0.7,"stim/42.jpeg",4,2,2,NA,"Instruments",1,1,"left","left",0.61500001,1,1,1,1,NA,NA,NA,NA,NA,NA,NA,NA,NA,NA,NA,NA,NA,NA,NA,NA,NA,NA,NA,NA,NA,NA,NA,NA
"44","stim/objects/HouseObjects/safetypin2.png",127,33,127,0.9,"stim/51.jpeg",5,1,3,NA,"HouseObjects",2,4,"right","right",0.367999792,1,1,1,1,NA,NA,NA,NA,NA,NA,NA,NA,NA,NA,NA,NA,NA,NA,NA,NA,NA,NA,NA,NA,NA,NA,NA,NA
"3","stim/objects/HouseObjects/recyclingbin.png",128,33,128,0.5,"stim/11.jpeg",1,1,1,NA,"HouseObjects",2,3,"right","left",0.414999962,0,0,1,1,NA,NA,NA,NA,NA,NA,NA,NA,NA,NA,NA,NA,NA,NA,NA,NA,NA,NA,NA,NA,NA,NA,NA,NA
"99","stim/objects/HouseObjects/teapot.png",129,33,129,0.7,"stim/32.jpeg",3,2,2,NA,"HouseObjects",2,3,"right","right",0.513999939,1,1,1,1,NA,NA,NA,NA,NA,NA,NA,NA,NA,NA,NA,NA,NA,NA,NA,NA,NA,NA,NA,NA,NA,NA,NA,NA
"92","stim/objects/HouseObjects/spraybottle.png",130,33,130,0.7,"stim/31.jpeg",3,1,2,NA,"HouseObjects",2,1,"right","left",0.398999929,0,0,1,1,NA,NA,NA,NA,NA,NA,NA,NA,NA,NA,NA,NA,NA,NA,NA,NA,NA,NA,NA,NA,NA,NA,NA,NA
"84","stim/objects/HouseObjects/sponge2.png",131,33,131,0.9,"stim/54.jpeg",5,4,3,NA,"HouseObjects",2,1,"right","right",0.579999924,1,1,1,1,NA,NA,NA,NA,NA,NA,NA,NA,NA,NA,NA,NA,NA,NA,NA,NA,NA,NA,NA,NA,NA,NA,NA,NA
"93","stim/objects/HouseObjects/spraybottle.png",132,33,132,0.7,"stim/31.jpeg",3,1,2,NA,"HouseObjects",2,4,"right","left",0.571000099,0,0,1,1,NA,NA,NA,NA,NA,NA,NA,NA,NA,NA,NA,NA,NA,NA,NA,NA,NA,NA,NA,NA,NA,NA,NA,NA
"207","stim/objects/Instruments/trombone.png",133,33,133,0.3,"stim/32.jpeg",3,2,2,NA,"Instruments",1,3,"left","left",0.648999929,1,1,1,1,NA,NA,NA,NA,NA,NA,NA,NA,NA,NA,NA,NA,NA,NA,NA,NA,NA,NA,NA,NA,NA,NA,NA,NA
"55","stim/objects/HouseObjects/saw2.png",134,33,134,0.9,"stim/52.jpeg",5,2,3,NA,"HouseObjects",2,1,"right","right",0.618999958,1,1,1,1,NA,NA,NA,NA,NA,NA,NA,NA,NA,NA,NA,NA,NA,NA,NA,NA,NA,NA,NA,NA,NA,NA,NA,NA
"56","stim/objects/HouseObjects/saw2.png",135,33,135,0.9,"stim/52.jpeg",5,2,3,NA,"HouseObjects",2,4,"right","right",0.618000031,1,1,1,1,NA,NA,NA,NA,NA,NA,NA,NA,NA,NA,NA,NA,NA,NA,NA,NA,NA,NA,NA,NA,NA,NA,NA,NA
"167","stim/objects/Instruments/record2.png",136,33,136,0.7,"stim/43.jpeg",4,3,2,NA,"Instruments",1,1,"left","left",0.667999983,1,1,1,1,NA,NA,NA,NA,NA,NA,NA,NA,NA,NA,NA,NA,NA,NA,NA,NA,NA,NA,NA,NA,NA,NA,NA,NA
"96","stim/objects/HouseObjects/spraybottle2.png",137,33,137,0.1,"stim/61.jpeg",6,1,3,NA,"HouseObjects",2,2,"right","left",0.578999996,0,0,1,1,NA,NA,NA,NA,NA,NA,NA,NA,NA,NA,NA,NA,NA,NA,NA,NA,NA,NA,NA,NA,NA,NA,NA,NA
"177","stim/objects/Instruments/speaker.png",138,33,138,0.5,"stim/22.jpeg",2,2,1,NA,"Instruments",1,4,"left","right",0.625,0,0,1,1,NA,NA,NA,NA,NA,NA,NA,NA,NA,NA,NA,NA,NA,NA,NA,NA,NA,NA,NA,NA,NA,NA,NA,NA
"190","stim/objects/Instruments/timbal.png",139,33,139,0.5,"stim/24.jpeg",2,4,1,NA,"Instruments",1,1,"left","",NA,0,0,1,1,NA,NA,NA,NA,NA,NA,NA,NA,NA,NA,NA,NA,NA,NA,NA,NA,NA,NA,NA,NA,NA,NA,NA,NA
"122","stim/objects/Instruments/panflute.png",140,33,140,0.5,"stim/11.jpeg",1,1,1,NA,"Instruments",1,1,"left","left",0.431999922,1,1,1,1,NA,NA,NA,NA,NA,NA,NA,NA,NA,NA,NA,NA,NA,NA,NA,NA,NA,NA,NA,NA,NA,NA,NA,NA
"168","stim/objects/Instruments/record2.png",141,33,141,0.7,"stim/43.jpeg",4,3,2,NA,"Instruments",1,3,"left","right",0.553999901,0,0,1,1,NA,NA,NA,NA,NA,NA,NA,NA,NA,NA,NA,NA,NA,NA,NA,NA,NA,NA,NA,NA,NA,NA,NA,NA
"36","stim/objects/HouseObjects/safetypin.png",142,33,142,0.5,"stim/21.jpeg",2,1,1,NA,"HouseObjects",2,3,"right","left",0.617999792,0,0,1,1,NA,NA,NA,NA,NA,NA,NA,NA,NA,NA,NA,NA,NA,NA,NA,NA,NA,NA,NA,NA,NA,NA,NA,NA
"234","stim/objects/Instruments/tuba2.png",143,33,143,0.9,"stim/64.jpeg",6,4,3,NA,"Instruments",1,1,"left","left",0.470999956,1,1,1,1,NA,NA,NA,NA,NA,NA,NA,NA,NA,NA,NA,NA,NA,NA,NA,NA,NA,NA,NA,NA,NA,NA,NA,NA
"201","stim/objects/Instruments/triangle2.png",144,33,144,0.9,"stim/61.jpeg",6,1,3,NA,"Instruments",1,4,"left","left",0.497999907,1,1,1,1,NA,NA,NA,NA,NA,NA,NA,NA,NA,NA,NA,NA,NA,NA,NA,NA,NA,NA,NA,NA,NA,NA,NA,NA
"85","stim/objects/HouseObjects/sponge2.png",145,33,145,0.9,"stim/54.jpeg",5,4,3,NA,"HouseObjects",2,3,"right","right",0.54399991,1,1,1,1,NA,NA,NA,NA,NA,NA,NA,NA,NA,NA,NA,NA,NA,NA,NA,NA,NA,NA,NA,NA,NA,NA,NA,NA
"71","stim/objects/HouseObjects/scale2.png",146,33,146,0.9,"stim/53.jpeg",5,3,3,NA,"HouseObjects",2,2,"right","right",0.513999939,1,1,1,1,NA,NA,NA,NA,NA,NA,NA,NA,NA,NA,NA,NA,NA,NA,NA,NA,NA,NA,NA,NA,NA,NA,NA,NA
"108","stim/objects/HouseObjects/thermometer.png",147,33,147,0.7,"stim/33.jpeg",3,3,2,NA,"HouseObjects",2,4,"right","left",0.714999914,0,0,1,1,NA,NA,NA,NA,NA,NA,NA,NA,NA,NA,NA,NA,NA,NA,NA,NA,NA,NA,NA,NA,NA,NA,NA,NA
"94","stim/objects/HouseObjects/spraybottle.png",148,33,148,0.7,"stim/31.jpeg",3,1,2,NA,"HouseObjects",2,4,"right","right",0.381000042,1,1,1,1,NA,NA,NA,NA,NA,NA,NA,NA,NA,NA,NA,NA,NA,NA,NA,NA,NA,NA,NA,NA,NA,NA,NA,NA
"146","stim/objects/Instruments/record_player.png",149,33,149,0.5,"stim/14.jpeg",1,4,1,NA,"Instruments",1,4,"left","left",0.795000076,1,1,1,1,NA,NA,NA,NA,NA,NA,NA,NA,NA,NA,NA,NA,NA,NA,NA,NA,NA,NA,NA,NA,NA,NA,NA,NA
"57","stim/objects/HouseObjects/saw2.png",150,33,150,0.9,"stim/52.jpeg",5,2,3,NA,"HouseObjects",2,3,"right","right",0.487999916,1,1,1,1,NA,NA,NA,NA,NA,NA,NA,NA,NA,NA,NA,NA,NA,NA,NA,NA,NA,NA,NA,NA,NA,NA,NA,NA
"202","stim/objects/Instruments/triangle2.png",151,33,151,0.9,"stim/61.jpeg",6,1,3,NA,"Instruments",1,3,"left","left",0.478999853,1,1,1,1,NA,NA,NA,NA,NA,NA,NA,NA,NA,NA,NA,NA,NA,NA,NA,NA,NA,NA,NA,NA,NA,NA,NA,NA
"78","stim/objects/HouseObjects/sponge.png",152,33,152,0.5,"stim/24.jpeg",2,4,1,NA,"HouseObjects",2,2,"right","right",0.654000044,1,1,1,1,NA,NA,NA,NA,NA,NA,NA,NA,NA,NA,NA,NA,NA,NA,NA,NA,NA,NA,NA,NA,NA,NA,NA,NA
"235","stim/objects/Instruments/tuba2.png",153,33,153,0.9,"stim/64.jpeg",6,4,3,NA,"Instruments",1,3,"left","left",0.600999832,1,1,1,1,NA,NA,NA,NA,NA,NA,NA,NA,NA,NA,NA,NA,NA,NA,NA,NA,NA,NA,NA,NA,NA,NA,NA,NA
"18","stim/objects/HouseObjects/rubbergloves.png",154,33,154,0.5,"stim/13.jpeg",1,3,1,NA,"HouseObjects",2,2,"right","right",0.671000004,1,1,1,1,NA,NA,NA,NA,NA,NA,NA,NA,NA,NA,NA,NA,NA,NA,NA,NA,NA,NA,NA,NA,NA,NA,NA,NA
"45","stim/objects/HouseObjects/safetypin2.png",155,33,155,0.9,"stim/51.jpeg",5,1,3,NA,"HouseObjects",2,2,"right","right",0.534999847,1,1,1,1,NA,NA,NA,NA,NA,NA,NA,NA,NA,NA,NA,NA,NA,NA,NA,NA,NA,NA,NA,NA,NA,NA,NA,NA
"50","stim/objects/HouseObjects/saw.png",156,33,156,0.5,"stim/22.jpeg",2,2,1,NA,"HouseObjects",2,2,"right","left",0.619999886,0,0,1,1,NA,NA,NA,NA,NA,NA,NA,NA,NA,NA,NA,NA,NA,NA,NA,NA,NA,NA,NA,NA,NA,NA,NA,NA
"58","stim/objects/HouseObjects/saw2.png",157,33,157,0.9,"stim/52.jpeg",5,2,3,NA,"HouseObjects",2,4,"right","right",0.434000015,1,1,1,1,NA,NA,NA,NA,NA,NA,NA,NA,NA,NA,NA,NA,NA,NA,NA,NA,NA,NA,NA,NA,NA,NA,NA,NA
"24","stim/objects/HouseObjects/rubbergloves2.png",158,33,158,0.3,"stim/43.jpeg",4,3,2,NA,"HouseObjects",2,3,"right","left",0.648999929,0,0,1,1,NA,NA,NA,NA,NA,NA,NA,NA,NA,NA,NA,NA,NA,NA,NA,NA,NA,NA,NA,NA,NA,NA,NA,NA
"109","stim/objects/HouseObjects/thermometer.png",159,33,159,0.7,"stim/33.jpeg",3,3,2,NA,"HouseObjects",2,2,"right","right",0.632999897,1,1,1,1,NA,NA,NA,NA,NA,NA,NA,NA,NA,NA,NA,NA,NA,NA,NA,NA,NA,NA,NA,NA,NA,NA,NA,NA
"59","stim/objects/HouseObjects/saw2.png",160,33,160,0.9,"stim/52.jpeg",5,2,3,NA,"HouseObjects",2,3,"right","left",0.662999868,0,0,1,1,NA,NA,NA,NA,NA,NA,NA,NA,NA,NA,NA,NA,NA,NA,NA,NA,NA,NA,NA,NA,NA,NA,NA,NA
"123","stim/objects/Instruments/panflute.png",161,33,161,0.5,"stim/11.jpeg",1,1,1,NA,"Instruments",1,2,"left","right",0.582999945,0,0,1,1,NA,NA,NA,NA,NA,NA,NA,NA,NA,NA,NA,NA,NA,NA,NA,NA,NA,NA,NA,NA,NA,NA,NA,NA
"192","stim/objects/Instruments/timbal2.png",162,33,162,0.1,"stim/54.jpeg",5,4,3,NA,"Instruments",1,1,"left","right",0.55099988,0,0,1,1,NA,NA,NA,NA,NA,NA,NA,NA,NA,NA,NA,NA,NA,NA,NA,NA,NA,NA,NA,NA,NA,NA,NA,NA
"153","stim/objects/Instruments/record_player2.png",163,33,163,0.7,"stim/44.jpeg",4,4,2,NA,"Instruments",1,1,"left","left",0.597999811,1,1,1,1,NA,NA,NA,NA,NA,NA,NA,NA,NA,NA,NA,NA,NA,NA,NA,NA,NA,NA,NA,NA,NA,NA,NA,NA
"100","stim/objects/HouseObjects/teapot.png",164,33,164,0.7,"stim/32.jpeg",3,2,2,NA,"HouseObjects",2,4,"right","right",0.592000008,1,1,1,1,NA,NA,NA,NA,NA,NA,NA,NA,NA,NA,NA,NA,NA,NA,NA,NA,NA,NA,NA,NA,NA,NA,NA,NA
"186","stim/objects/Instruments/tambourine2.png",165,33,165,0.1,"stim/53.jpeg",5,3,3,NA,"Instruments",1,4,"left","left",0.633999825,1,1,1,1,NA,NA,NA,NA,NA,NA,NA,NA,NA,NA,NA,NA,NA,NA,NA,NA,NA,NA,NA,NA,NA,NA,NA,NA
"86","stim/objects/HouseObjects/sponge2.png",166,33,166,0.9,"stim/54.jpeg",5,4,3,NA,"HouseObjects",2,4,"right","right",0.463999748,1,1,1,1,NA,NA,NA,NA,NA,NA,NA,NA,NA,NA,NA,NA,NA,NA,NA,NA,NA,NA,NA,NA,NA,NA,NA,NA
"184","stim/objects/Instruments/tambourine.png",167,33,167,0.5,"stim/23.jpeg",2,3,1,NA,"Instruments",1,4,"left","left",0.585999727,1,1,1,1,NA,NA,NA,NA,NA,NA,NA,NA,NA,NA,NA,NA,NA,NA,NA,NA,NA,NA,NA,NA,NA,NA,NA,NA
"191","stim/objects/Instruments/timbal.png",168,33,168,0.5,"stim/24.jpeg",2,4,1,NA,"Instruments",1,2,"left","right",0.838999748,0,0,1,1,NA,NA,NA,NA,NA,NA,NA,NA,NA,NA,NA,NA,NA,NA,NA,NA,NA,NA,NA,NA,NA,NA,NA,NA
"218","stim/objects/Instruments/trumpet.png",169,33,169,0.3,"stim/33.jpeg",3,3,2,NA,"Instruments",1,4,"left","right",0.582000017,0,0,1,1,NA,NA,NA,NA,NA,NA,NA,NA,NA,NA,NA,NA,NA,NA,NA,NA,NA,NA,NA,NA,NA,NA,NA,NA
"236","stim/objects/Instruments/tuba2.png",170,33,170,0.9,"stim/64.jpeg",6,4,3,NA,"Instruments",1,3,"left","left",0.483999729,1,1,1,1,NA,NA,NA,NA,NA,NA,NA,NA,NA,NA,NA,NA,NA,NA,NA,NA,NA,NA,NA,NA,NA,NA,NA,NA
"104","stim/objects/HouseObjects/teapot2.png",171,33,171,0.1,"stim/62.jpeg",6,2,3,NA,"HouseObjects",2,1,"right","right",0.513000011,1,1,1,1,NA,NA,NA,NA,NA,NA,NA,NA,NA,NA,NA,NA,NA,NA,NA,NA,NA,NA,NA,NA,NA,NA,NA,NA
"141","stim/objects/Instruments/pipepiano2.png",172,33,172,0.7,"stim/42.jpeg",4,2,2,NA,"Instruments",1,4,"left","left",0.512999773,1,1,1,1,NA,NA,NA,NA,NA,NA,NA,NA,NA,NA,NA,NA,NA,NA,NA,NA,NA,NA,NA,NA,NA,NA,NA,NA
"134","stim/objects/Instruments/pipepiano.png",173,33,173,0.5,"stim/12.jpeg",1,2,1,NA,"Instruments",1,1,"left","right",0.456999779,0,0,1,1,NA,NA,NA,NA,NA,NA,NA,NA,NA,NA,NA,NA,NA,NA,NA,NA,NA,NA,NA,NA,NA,NA,NA,NA
"214","stim/objects/Instruments/trombone2.png",174,33,174,0.9,"stim/62.jpeg",6,2,3,NA,"Instruments",1,4,"left","left",0.619999886,1,1,1,1,NA,NA,NA,NA,NA,NA,NA,NA,NA,NA,NA,NA,NA,NA,NA,NA,NA,NA,NA,NA,NA,NA,NA,NA
"28","stim/objects/HouseObjects/rug.png",175,33,175,0.5,"stim/14.jpeg",1,4,1,NA,"HouseObjects",2,3,"right","right",0.52699995,1,1,1,1,NA,NA,NA,NA,NA,NA,NA,NA,NA,NA,NA,NA,NA,NA,NA,NA,NA,NA,NA,NA,NA,NA,NA,NA
"160","stim/objects/Instruments/record.png",176,33,176,0.5,"stim/13.jpeg",1,3,1,NA,"Instruments",1,3,"left","right",0.802999973,0,0,1,1,NA,NA,NA,NA,NA,NA,NA,NA,NA,NA,NA,NA,NA,NA,NA,NA,NA,NA,NA,NA,NA,NA,NA,NA
"115","stim/objects/HouseObjects/thread.png",177,33,177,0.7,"stim/34.jpeg",3,4,2,NA,"HouseObjects",2,4,"right","left",0.580999851,0,0,1,1,NA,NA,NA,NA,NA,NA,NA,NA,NA,NA,NA,NA,NA,NA,NA,NA,NA,NA,NA,NA,NA,NA,NA,NA
"19","stim/objects/HouseObjects/rubbergloves.png",178,33,178,0.5,"stim/13.jpeg",1,3,1,NA,"HouseObjects",2,3,"right","right",0.747999907,1,1,1,1,NA,NA,NA,NA,NA,NA,NA,NA,NA,NA,NA,NA,NA,NA,NA,NA,NA,NA,NA,NA,NA,NA,NA,NA
"178","stim/objects/Instruments/speaker.png",179,33,179,0.5,"stim/22.jpeg",2,2,1,NA,"Instruments",1,1,"left","left",0.698999882,1,1,1,1,NA,NA,NA,NA,NA,NA,NA,NA,NA,NA,NA,NA,NA,NA,NA,NA,NA,NA,NA,NA,NA,NA,NA,NA
"87","stim/objects/HouseObjects/sponge2.png",180,33,180,0.9,"stim/54.jpeg",5,4,3,NA,"HouseObjects",2,4,"right","right",0.528999805,1,1,1,1,NA,NA,NA,NA,NA,NA,NA,NA,NA,NA,NA,NA,NA,NA,NA,NA,NA,NA,NA,NA,NA,NA,NA,NA
"237","stim/objects/Instruments/tuba2.png",181,33,181,0.9,"stim/64.jpeg",6,4,3,NA,"Instruments",1,2,"left","left",0.523000002,1,1,1,1,NA,NA,NA,NA,NA,NA,NA,NA,NA,NA,NA,NA,NA,NA,NA,NA,NA,NA,NA,NA,NA,NA,NA,NA
"226","stim/objects/Instruments/trumpet2.png",182,33,182,0.9,"stim/63.jpeg",6,3,3,NA,"Instruments",1,4,"left","left",0.571999788,1,1,1,1,NA,NA,NA,NA,NA,NA,NA,NA,NA,NA,NA,NA,NA,NA,NA,NA,NA,NA,NA,NA,NA,NA,NA,NA
"95","stim/objects/HouseObjects/spraybottle.png",183,33,183,0.7,"stim/31.jpeg",3,1,2,NA,"HouseObjects",2,3,"right","left",0.847999811,0,0,1,1,NA,NA,NA,NA,NA,NA,NA,NA,NA,NA,NA,NA,NA,NA,NA,NA,NA,NA,NA,NA,NA,NA,NA,NA
"101","stim/objects/HouseObjects/teapot.png",184,33,184,0.7,"stim/32.jpeg",3,2,2,NA,"HouseObjects",2,1,"right","right",0.483999968,1,1,1,1,NA,NA,NA,NA,NA,NA,NA,NA,NA,NA,NA,NA,NA,NA,NA,NA,NA,NA,NA,NA,NA,NA,NA,NA
"29","stim/objects/HouseObjects/rug.png",185,33,185,0.5,"stim/14.jpeg",1,4,1,NA,"HouseObjects",2,4,"right","left",0.576999903,0,0,1,1,NA,NA,NA,NA,NA,NA,NA,NA,NA,NA,NA,NA,NA,NA,NA,NA,NA,NA,NA,NA,NA,NA,NA,NA
"195","stim/objects/Instruments/triangle.png",186,33,186,0.3,"stim/31.jpeg",3,1,2,NA,"Instruments",1,3,"left","right",0.607000113,0,0,1,1,NA,NA,NA,NA,NA,NA,NA,NA,NA,NA,NA,NA,NA,NA,NA,NA,NA,NA,NA,NA,NA,NA,NA,NA
"116","stim/objects/HouseObjects/thread.png",187,33,187,0.7,"stim/34.jpeg",3,4,2,NA,"HouseObjects",2,4,"right","left",0.595999956,0,0,1,1,NA,NA,NA,NA,NA,NA,NA,NA,NA,NA,NA,NA,NA,NA,NA,NA,NA,NA,NA,NA,NA,NA,NA,NA
"72","stim/objects/HouseObjects/scale2.png",188,33,188,0.9,"stim/53.jpeg",5,3,3,NA,"HouseObjects",2,1,"right","left",0.549999952,0,0,1,1,NA,NA,NA,NA,NA,NA,NA,NA,NA,NA,NA,NA,NA,NA,NA,NA,NA,NA,NA,NA,NA,NA,NA,NA
"110","stim/objects/HouseObjects/thermometer.png",189,33,189,0.7,"stim/33.jpeg",3,3,2,NA,"HouseObjects",2,1,"right","right",0.501999855,1,1,1,1,NA,NA,NA,NA,NA,NA,NA,NA,NA,NA,NA,NA,NA,NA,NA,NA,NA,NA,NA,NA,NA,NA,NA,NA
"238","stim/objects/Instruments/tuba2.png",190,33,190,0.9,"stim/64.jpeg",6,4,3,NA,"Instruments",1,2,"left","left",0.582999706,1,1,1,1,NA,NA,NA,NA,NA,NA,NA,NA,NA,NA,NA,NA,NA,NA,NA,NA,NA,NA,NA,NA,NA,NA,NA,NA
"37","stim/objects/HouseObjects/safetypin.png",191,33,191,0.5,"stim/21.jpeg",2,1,1,NA,"HouseObjects",2,4,"right","right",0.59499979,1,1,1,1,NA,NA,NA,NA,NA,NA,NA,NA,NA,NA,NA,NA,NA,NA,NA,NA,NA,NA,NA,NA,NA,NA,NA,NA
"112","stim/objects/HouseObjects/thermometer2.png",192,33,192,0.1,"stim/63.jpeg",6,3,3,NA,"HouseObjects",2,4,"right","left",0.703999996,0,0,1,1,NA,NA,NA,NA,NA,NA,NA,NA,NA,NA,NA,NA,NA,NA,NA,NA,NA,NA,NA,NA,NA,NA,NA,NA
"51","stim/objects/HouseObjects/saw.png",193,33,193,0.5,"stim/22.jpeg",2,2,1,NA,"HouseObjects",2,1,"right","right",0.432999849,1,1,1,1,NA,NA,NA,NA,NA,NA,NA,NA,NA,NA,NA,NA,NA,NA,NA,NA,NA,NA,NA,NA,NA,NA,NA,NA
"102","stim/objects/HouseObjects/teapot.png",194,33,194,0.7,"stim/32.jpeg",3,2,2,NA,"HouseObjects",2,1,"right","left",0.513999939,0,0,1,1,NA,NA,NA,NA,NA,NA,NA,NA,NA,NA,NA,NA,NA,NA,NA,NA,NA,NA,NA,NA,NA,NA,NA,NA
"154","stim/objects/Instruments/record_player2.png",195,33,195,0.7,"stim/44.jpeg",4,4,2,NA,"Instruments",1,1,"left","right",0.443999767,0,0,1,1,NA,NA,NA,NA,NA,NA,NA,NA,NA,NA,NA,NA,NA,NA,NA,NA,NA,NA,NA,NA,NA,NA,NA,NA
"227","stim/objects/Instruments/trumpet2.png",196,33,196,0.9,"stim/63.jpeg",6,3,3,NA,"Instruments",1,2,"left","left",0.541999817,1,1,1,1,NA,NA,NA,NA,NA,NA,NA,NA,NA,NA,NA,NA,NA,NA,NA,NA,NA,NA,NA,NA,NA,NA,NA,NA
"142","stim/objects/Instruments/pipepiano2.png",197,33,197,0.7,"stim/42.jpeg",4,2,2,NA,"Instruments",1,3,"left","right",0.669999838,0,0,1,1,NA,NA,NA,NA,NA,NA,NA,NA,NA,NA,NA,NA,NA,NA,NA,NA,NA,NA,NA,NA,NA,NA,NA,NA
"111","stim/objects/HouseObjects/thermometer.png",198,33,198,0.7,"stim/33.jpeg",3,3,2,NA,"HouseObjects",2,2,"right","left",0.483999968,0,0,1,1,NA,NA,NA,NA,NA,NA,NA,NA,NA,NA,NA,NA,NA,NA,NA,NA,NA,NA,NA,NA,NA,NA,NA,NA
"20","stim/objects/HouseObjects/rubbergloves.png",199,33,199,0.5,"stim/13.jpeg",1,3,1,NA,"HouseObjects",2,4,"right","right",0.70299983,1,1,1,1,NA,NA,NA,NA,NA,NA,NA,NA,NA,NA,NA,NA,NA,NA,NA,NA,NA,NA,NA,NA,NA,NA,NA,NA
"215","stim/objects/Instruments/trombone2.png",200,33,200,0.9,"stim/62.jpeg",6,2,3,NA,"Instruments",1,4,"left","left",0.679999828,1,1,1,1,NA,NA,NA,NA,NA,NA,NA,NA,NA,NA,NA,NA,NA,NA,NA,NA,NA,NA,NA,NA,NA,NA,NA,NA
"143","stim/objects/Instruments/pipepiano2.png",201,33,201,0.7,"stim/42.jpeg",4,2,2,NA,"Instruments",1,3,"left","left",0.703999758,1,1,1,1,NA,NA,NA,NA,NA,NA,NA,NA,NA,NA,NA,NA,NA,NA,NA,NA,NA,NA,NA,NA,NA,NA,NA,NA
"174","stim/objects/Instruments/saxophone2.png",202,33,202,0.1,"stim/51.jpeg",5,1,3,NA,"Instruments",1,4,"left","right",0.450000048,0,0,1,1,NA,NA,NA,NA,NA,NA,NA,NA,NA,NA,NA,NA,NA,NA,NA,NA,NA,NA,NA,NA,NA,NA,NA,NA
"239","stim/objects/Instruments/tuba2.png",203,33,203,0.9,"stim/64.jpeg",6,4,3,NA,"Instruments",1,4,"left","left",0.555000067,1,1,1,1,NA,NA,NA,NA,NA,NA,NA,NA,NA,NA,NA,NA,NA,NA,NA,NA,NA,NA,NA,NA,NA,NA,NA,NA
"155","stim/objects/Instruments/record_player2.png",204,33,204,0.7,"stim/44.jpeg",4,4,2,NA,"Instruments",1,1,"left","left",0.546999931,1,1,1,1,NA,NA,NA,NA,NA,NA,NA,NA,NA,NA,NA,NA,NA,NA,NA,NA,NA,NA,NA,NA,NA,NA,NA,NA
"228","stim/objects/Instruments/trumpet2.png",205,33,205,0.9,"stim/63.jpeg",6,3,3,NA,"Instruments",1,1,"left","right",0.503000021,0,0,1,1,NA,NA,NA,NA,NA,NA,NA,NA,NA,NA,NA,NA,NA,NA,NA,NA,NA,NA,NA,NA,NA,NA,NA,NA
"88","stim/objects/HouseObjects/sponge2.png",206,33,206,0.9,"stim/54.jpeg",5,4,3,NA,"HouseObjects",2,3,"right","left",0.509000063,0,0,1,1,NA,NA,NA,NA,NA,NA,NA,NA,NA,NA,NA,NA,NA,NA,NA,NA,NA,NA,NA,NA,NA,NA,NA,NA
"219","stim/objects/Instruments/trumpet.png",207,33,207,0.3,"stim/33.jpeg",3,3,2,NA,"Instruments",1,1,"left","right",0.621000051,0,0,1,1,NA,NA,NA,NA,NA,NA,NA,NA,NA,NA,NA,NA,NA,NA,NA,NA,NA,NA,NA,NA,NA,NA,NA,NA
"117","stim/objects/HouseObjects/thread.png",208,33,208,0.7,"stim/34.jpeg",3,4,2,NA,"HouseObjects",2,2,"right","right",0.447999954,1,1,1,1,NA,NA,NA,NA,NA,NA,NA,NA,NA,NA,NA,NA,NA,NA,NA,NA,NA,NA,NA,NA,NA,NA,NA,NA
"185","stim/objects/Instruments/tambourine.png",209,33,209,0.5,"stim/23.jpeg",2,3,1,NA,"Instruments",1,4,"left","left",0.734999895,1,1,1,1,NA,NA,NA,NA,NA,NA,NA,NA,NA,NA,NA,NA,NA,NA,NA,NA,NA,NA,NA,NA,NA,NA,NA,NA
"144","stim/objects/Instruments/pipepiano2.png",210,33,210,0.7,"stim/42.jpeg",4,2,2,NA,"Instruments",1,4,"left","left",0.683000088,1,1,1,1,NA,NA,NA,NA,NA,NA,NA,NA,NA,NA,NA,NA,NA,NA,NA,NA,NA,NA,NA,NA,NA,NA,NA,NA
"135","stim/objects/Instruments/pipepiano.png",211,33,211,0.5,"stim/12.jpeg",1,2,1,NA,"Instruments",1,4,"left","right",0.579999924,0,0,1,1,NA,NA,NA,NA,NA,NA,NA,NA,NA,NA,NA,NA,NA,NA,NA,NA,NA,NA,NA,NA,NA,NA,NA,NA
"79","stim/objects/HouseObjects/sponge.png",212,33,212,0.5,"stim/24.jpeg",2,4,1,NA,"HouseObjects",2,2,"right","right",0.595999956,1,1,1,1,NA,NA,NA,NA,NA,NA,NA,NA,NA,NA,NA,NA,NA,NA,NA,NA,NA,NA,NA,NA,NA,NA,NA,NA
"136","stim/objects/Instruments/pipepiano.png",213,33,213,0.5,"stim/12.jpeg",1,2,1,NA,"Instruments",1,4,"left","right",0.711999893,0,0,1,1,NA,NA,NA,NA,NA,NA,NA,NA,NA,NA,NA,NA,NA,NA,NA,NA,NA,NA,NA,NA,NA,NA,NA,NA
"4","stim/objects/HouseObjects/recyclingbin.png",214,33,214,0.5,"stim/11.jpeg",1,1,1,NA,"HouseObjects",2,2,"right","left",0.470999956,0,0,1,1,NA,NA,NA,NA,NA,NA,NA,NA,NA,NA,NA,NA,NA,NA,NA,NA,NA,NA,NA,NA,NA,NA,NA,NA
"21","stim/objects/HouseObjects/rubbergloves.png",215,33,215,0.5,"stim/13.jpeg",1,3,1,NA,"HouseObjects",2,1,"right","right",0.602999926,1,1,1,1,NA,NA,NA,NA,NA,NA,NA,NA,NA,NA,NA,NA,NA,NA,NA,NA,NA,NA,NA,NA,NA,NA,NA,NA
"73","stim/objects/HouseObjects/scale2.png",216,33,216,0.9,"stim/53.jpeg",5,3,3,NA,"HouseObjects",2,2,"right","left",0.511999846,0,0,1,1,NA,NA,NA,NA,NA,NA,NA,NA,NA,NA,NA,NA,NA,NA,NA,NA,NA,NA,NA,NA,NA,NA,NA,NA
"74","stim/objects/HouseObjects/scale2.png",217,33,217,0.9,"stim/53.jpeg",5,3,3,NA,"HouseObjects",2,1,"right","",NA,0,0,1,1,NA,NA,NA,NA,NA,NA,NA,NA,NA,NA,NA,NA,NA,NA,NA,NA,NA,NA,NA,NA,NA,NA,NA,NA
"156","stim/objects/Instruments/record_player2.png",218,33,218,0.7,"stim/44.jpeg",4,4,2,NA,"Instruments",1,3,"left","right",0.673000097,0,0,1,1,NA,NA,NA,NA,NA,NA,NA,NA,NA,NA,NA,NA,NA,NA,NA,NA,NA,NA,NA,NA,NA,NA,NA,NA
"137","stim/objects/Instruments/pipepiano.png",219,33,219,0.5,"stim/12.jpeg",1,2,1,NA,"Instruments",1,2,"left","",NA,0,0,1,1,NA,NA,NA,NA,NA,NA,NA,NA,NA,NA,NA,NA,NA,NA,NA,NA,NA,NA,NA,NA,NA,NA,NA,NA
"5","stim/objects/HouseObjects/recyclingbin.png",220,33,220,0.5,"stim/11.jpeg",1,1,1,NA,"HouseObjects",2,2,"right","left",0.208999872,0,0,1,1,NA,NA,NA,NA,NA,NA,NA,NA,NA,NA,NA,NA,NA,NA,NA,NA,NA,NA,NA,NA,NA,NA,NA,NA
"240","stim/objects/Instruments/tuba2.png",221,33,221,0.9,"stim/64.jpeg",6,4,3,NA,"Instruments",1,3,"left","left",0.818999767,1,1,1,1,NA,NA,NA,NA,NA,NA,NA,NA,NA,NA,NA,NA,NA,NA,NA,NA,NA,NA,NA,NA,NA,NA,NA,NA
"46","stim/objects/HouseObjects/safetypin2.png",222,33,222,0.9,"stim/51.jpeg",5,1,3,NA,"HouseObjects",2,4,"right","right",0.5,1,1,1,1,NA,NA,NA,NA,NA,NA,NA,NA,NA,NA,NA,NA,NA,NA,NA,NA,NA,NA,NA,NA,NA,NA,NA,NA
"203","stim/objects/Instruments/triangle2.png",223,33,223,0.9,"stim/61.jpeg",6,1,3,NA,"Instruments",1,2,"left","left",0.674999952,1,1,1,1,NA,NA,NA,NA,NA,NA,NA,NA,NA,NA,NA,NA,NA,NA,NA,NA,NA,NA,NA,NA,NA,NA,NA,NA
"124","stim/objects/Instruments/panflute.png",224,33,224,0.5,"stim/11.jpeg",1,1,1,NA,"Instruments",1,2,"left","left",0.681999922,1,1,1,1,NA,NA,NA,NA,NA,NA,NA,NA,NA,NA,NA,NA,NA,NA,NA,NA,NA,NA,NA,NA,NA,NA,NA,NA
"125","stim/objects/Instruments/panflute.png",225,33,225,0.5,"stim/11.jpeg",1,1,1,NA,"Instruments",1,4,"left","right",0.437999725,0,0,1,1,NA,NA,NA,NA,NA,NA,NA,NA,NA,NA,NA,NA,NA,NA,NA,NA,NA,NA,NA,NA,NA,NA,NA,NA
"231","stim/objects/Instruments/tuba.png",226,33,226,0.3,"stim/34.jpeg",3,4,2,NA,"Instruments",1,2,"left","right",0.663000107,0,0,1,1,NA,NA,NA,NA,NA,NA,NA,NA,NA,NA,NA,NA,NA,NA,NA,NA,NA,NA,NA,NA,NA,NA,NA,NA
"118","stim/objects/HouseObjects/thread.png",227,33,227,0.7,"stim/34.jpeg",3,4,2,NA,"HouseObjects",2,4,"right","right",0.343999863,1,1,1,1,NA,NA,NA,NA,NA,NA,NA,NA,NA,NA,NA,NA,NA,NA,NA,NA,NA,NA,NA,NA,NA,NA,NA,NA
"216","stim/objects/Instruments/trombone2.png",228,33,228,0.9,"stim/62.jpeg",6,2,3,NA,"Instruments",1,1,"left","left",0.461999893,1,1,1,1,NA,NA,NA,NA,NA,NA,NA,NA,NA,NA,NA,NA,NA,NA,NA,NA,NA,NA,NA,NA,NA,NA,NA,NA
"173","stim/objects/Instruments/saxophone.png",229,33,229,0.5,"stim/21.jpeg",2,1,1,NA,"Instruments",1,3,"left","right",0.614000082,0,0,1,1,NA,NA,NA,NA,NA,NA,NA,NA,NA,NA,NA,NA,NA,NA,NA,NA,NA,NA,NA,NA,NA,NA,NA,NA
"32","stim/objects/HouseObjects/rug2.png",230,33,230,0.3,"stim/44.jpeg",4,4,2,NA,"HouseObjects",2,2,"right","left",0.855999947,0,0,1,1,NA,NA,NA,NA,NA,NA,NA,NA,NA,NA,NA,NA,NA,NA,NA,NA,NA,NA,NA,NA,NA,NA,NA,NA
"103","stim/objects/HouseObjects/teapot.png",231,33,231,0.7,"stim/32.jpeg",3,2,2,NA,"HouseObjects",2,3,"right","left",0.593999863,0,0,1,1,NA,NA,NA,NA,NA,NA,NA,NA,NA,NA,NA,NA,NA,NA,NA,NA,NA,NA,NA,NA,NA,NA,NA,NA
"179","stim/objects/Instruments/speaker.png",232,33,232,0.5,"stim/22.jpeg",2,2,1,NA,"Instruments",1,3,"left","left",0.453999996,1,1,1,1,NA,NA,NA,NA,NA,NA,NA,NA,NA,NA,NA,NA,NA,NA,NA,NA,NA,NA,NA,NA,NA,NA,NA,NA
"147","stim/objects/Instruments/record_player.png",233,33,233,0.5,"stim/14.jpeg",1,4,1,NA,"Instruments",1,4,"left","right",0.648000002,0,0,1,1,NA,NA,NA,NA,NA,NA,NA,NA,NA,NA,NA,NA,NA,NA,NA,NA,NA,NA,NA,NA,NA,NA,NA,NA
"148","stim/objects/Instruments/record_player.png",234,33,234,0.5,"stim/14.jpeg",1,4,1,NA,"Instruments",1,4,"left","left",0.73300004,1,1,1,1,NA,NA,NA,NA,NA,NA,NA,NA,NA,NA,NA,NA,NA,NA,NA,NA,NA,NA,NA,NA,NA,NA,NA,NA
"161","stim/objects/Instruments/record.png",235,33,235,0.5,"stim/13.jpeg",1,3,1,NA,"Instruments",1,2,"left","right",0.616999865,0,0,1,1,NA,NA,NA,NA,NA,NA,NA,NA,NA,NA,NA,NA,NA,NA,NA,NA,NA,NA,NA,NA,NA,NA,NA,NA
"204","stim/objects/Instruments/triangle2.png",236,33,236,0.9,"stim/61.jpeg",6,1,3,NA,"Instruments",1,3,"left","left",0.470999718,1,1,1,1,NA,NA,NA,NA,NA,NA,NA,NA,NA,NA,NA,NA,NA,NA,NA,NA,NA,NA,NA,NA,NA,NA,NA,NA
"119","stim/objects/HouseObjects/thread.png",237,33,237,0.7,"stim/34.jpeg",3,4,2,NA,"HouseObjects",2,3,"right","",NA,0,0,1,1,NA,NA,NA,NA,NA,NA,NA,NA,NA,NA,NA,NA,NA,NA,NA,NA,NA,NA,NA,NA,NA,NA,NA,NA
"65","stim/objects/HouseObjects/scale.png",238,33,238,0.5,"stim/23.jpeg",2,3,1,NA,"HouseObjects",2,4,"right","left",0.648000002,0,0,1,1,NA,NA,NA,NA,NA,NA,NA,NA,NA,NA,NA,NA,NA,NA,NA,NA,NA,NA,NA,NA,NA,NA,NA,NA
"149","stim/objects/Instruments/record_player.png",239,33,239,0.5,"stim/14.jpeg",1,4,1,NA,"Instruments",1,1,"left","right",0.677999973,0,0,1,1,NA,NA,NA,NA,NA,NA,NA,NA,NA,NA,NA,NA,NA,NA,NA,NA,NA,NA,NA,NA,NA,NA,NA,NA
"60","stim/objects/HouseObjects/saw2.png",240,33,240,0.9,"stim/52.jpeg",5,2,3,NA,"HouseObjects",2,2,"right","right",0.481999874,1,1,1,1,NA,NA,NA,NA,NA,NA,NA,NA,NA,NA,NA,NA,NA,NA,NA,NA,NA,NA,NA,NA,NA,NA,NA,NA
"279","stim/objects/HouseObjects/coffee3.png",248,33,241,0.7,"stim/31.jpeg",3,1,2,2,"HouseObjects",2,4,"right","",NA,0,0,1,0,NA,NA,NA,NA,NA,NA,NA,NA,NA,NA,NA,NA,NA,NA,NA,NA,NA,NA,NA,NA,NA,NA,NA,NA
"275","stim/objects/HouseObjects/clothespin3.png",249,33,242,0.7,"stim/32.jpeg",3,2,2,2,"HouseObjects",2,1,"right","left",0.248999834,0,0,1,0,NA,NA,NA,NA,NA,NA,NA,NA,NA,NA,NA,NA,NA,NA,NA,NA,NA,NA,NA,NA,NA,NA,NA,NA
"408","stim/objects/Instruments/accordion4.png",250,33,243,0.3,"stim/32.jpeg",3,2,2,1,"Instruments",1,4,"left","right",0.380999804,0,0,1,0,187,33,1,0.3,1,"stim/32.jpeg",3,2,"stim/32.jpeg",4,"left",0.832000256,3,2,0.421000242,1,0.503000021,187,1,1,1,0,0,1
"507","stim/objects/Instruments/gong3.png",251,33,244,0.9,"stim/63.jpeg",6,3,3,2,"Instruments",1,4,"left","left",0.635999918,1,1,1,0,NA,NA,NA,NA,NA,NA,NA,NA,NA,NA,NA,NA,NA,NA,NA,NA,NA,NA,NA,NA,NA,NA,NA,NA
"325","stim/objects/HouseObjects/flyswatter3.png",252,33,245,0.9,"stim/53.jpeg",5,3,3,2,"HouseObjects",2,2,"right","right",0.600999832,1,1,1,0,NA,NA,NA,NA,NA,NA,NA,NA,NA,NA,NA,NA,NA,NA,NA,NA,NA,NA,NA,NA,NA,NA,NA,NA
"359","stim/objects/HouseObjects/glass3.png",253,33,246,0.9,"stim/52.jpeg",5,2,3,2,"HouseObjects",2,4,"right","right",0.521999836,1,1,1,0,NA,NA,NA,NA,NA,NA,NA,NA,NA,NA,NA,NA,NA,NA,NA,NA,NA,NA,NA,NA,NA,NA,NA,NA
"308","stim/objects/HouseObjects/dustpan3.png",254,33,247,0.9,"stim/52.jpeg",5,2,3,2,"HouseObjects",2,3,"right","left",0.434000015,0,0,1,0,NA,NA,NA,NA,NA,NA,NA,NA,NA,NA,NA,NA,NA,NA,NA,NA,NA,NA,NA,NA,NA,NA,NA,NA
"280","stim/objects/HouseObjects/coffee3.png",255,33,248,0.7,"stim/33.jpeg",3,3,2,2,"HouseObjects",2,1,"right","right",0.461999893,1,1,1,0,NA,NA,NA,NA,NA,NA,NA,NA,NA,NA,NA,NA,NA,NA,NA,NA,NA,NA,NA,NA,NA,NA,NA,NA
"402","stim/objects/HouseObjects/vacuumcleaner3.png",256,33,249,0.7,"stim/31.jpeg",3,1,2,1,"HouseObjects",2,3,"right","left",0.269999981,0,0,1,0,3,33,1,0.7,2,"stim/31.jpeg",3,1,"stim/31.jpeg",3,"left",2.460000038,4,1,3.458000183,3,1.702000141,3,1,1,1,1,1,1
"360","stim/objects/HouseObjects/glass3.png",257,33,250,0.9,"stim/51.jpeg",5,1,3,2,"HouseObjects",2,3,"right","right",0.549999952,1,1,1,0,NA,NA,NA,NA,NA,NA,NA,NA,NA,NA,NA,NA,NA,NA,NA,NA,NA,NA,NA,NA,NA,NA,NA,NA
"474","stim/objects/Instruments/flutetrans3.png",258,33,251,0.9,"stim/61.jpeg",6,1,3,2,"Instruments",1,3,"left","left",0.539000034,1,1,1,0,NA,NA,NA,NA,NA,NA,NA,NA,NA,NA,NA,NA,NA,NA,NA,NA,NA,NA,NA,NA,NA,NA,NA,NA
"557","stim/objects/Instruments/metronome3.png",259,33,252,0.5,"stim/24.jpeg",2,4,1,1,"Instruments",1,2,"left","right",0.568000078,0,0,1,0,42,33,1,0.5,2,"stim/24.jpeg",2,4,"stim/24.jpeg",2,"left",1.752000093,4,3,3.031000137,2,1.184000254,42,1,0,0,1,1,1
"475","stim/objects/Instruments/flutetrans3.png",260,33,253,0.9,"stim/63.jpeg",6,3,3,2,"Instruments",1,4,"left","left",0.548000097,1,1,1,0,NA,NA,NA,NA,NA,NA,NA,NA,NA,NA,NA,NA,NA,NA,NA,NA,NA,NA,NA,NA,NA,NA,NA,NA
"276","stim/objects/HouseObjects/clothespin3.png",261,33,254,0.7,"stim/31.jpeg",3,1,2,2,"HouseObjects",2,1,"right","right",0.376999855,1,1,1,0,NA,NA,NA,NA,NA,NA,NA,NA,NA,NA,NA,NA,NA,NA,NA,NA,NA,NA,NA,NA,NA,NA,NA,NA
"326","stim/objects/HouseObjects/flyswatter3.png",262,33,255,0.9,"stim/52.jpeg",5,2,3,2,"HouseObjects",2,1,"right","right",0.634000063,1,1,1,0,NA,NA,NA,NA,NA,NA,NA,NA,NA,NA,NA,NA,NA,NA,NA,NA,NA,NA,NA,NA,NA,NA,NA,NA
"341","stim/objects/HouseObjects/flyswatter4.png",263,33,256,0.9,"stim/51.jpeg",5,1,3,1,"HouseObjects",2,1,"right","right",0.56799984,1,1,1,0,157,33,1,0.9,2,"stim/51.jpeg",5,1,"stim/51.jpeg",1,"right",0.843000174,4,3,1.003000259,1,0.451000214,157,0,0,NA,1,NA,1
"395","stim/objects/HouseObjects/match4.png",264,33,257,0.1,"stim/63.jpeg",6,3,3,1,"HouseObjects",2,2,"right","left",0.390000105,0,0,1,0,81,33,1,0.1,2,"stim/63.jpeg",6,3,"stim/63.jpeg",2,"right",1.459000111,2,3,0.554000139,1,0.626000166,81,0,1,NA,0,NA,1
"566","stim/objects/Instruments/violin4.png",265,33,258,0.9,"stim/64.jpeg",6,4,3,1,"Instruments",1,3,"left","left",0.519999981,1,1,1,0,19,33,1,0.9,1,"stim/64.jpeg",6,4,"stim/64.jpeg",3,"left",1.419000149,3,4,0.835000277,2,1.20600009,19,1,1,1,0,0,1
"291","stim/objects/HouseObjects/doormat3.png",266,33,259,0.9,"stim/54.jpeg",5,4,3,2,"HouseObjects",2,3,"right","right",0.388999939,1,1,1,0,NA,NA,NA,NA,NA,NA,NA,NA,NA,NA,NA,NA,NA,NA,NA,NA,NA,NA,NA,NA,NA,NA,NA,NA
"244","stim/objects/HouseObjects/ballofstring3.png",267,33,260,0.5,"stim/12.jpeg",1,2,1,2,"HouseObjects",2,4,"right","left",0.720999956,0,0,1,0,NA,NA,NA,NA,NA,NA,NA,NA,NA,NA,NA,NA,NA,NA,NA,NA,NA,NA,NA,NA,NA,NA,NA,NA
"384","stim/objects/HouseObjects/iron3.png",268,33,261,0.5,"stim/12.jpeg",1,2,1,1,"HouseObjects",2,2,"right","right",0.638000011,1,1,1,0,191,33,1,0.5,1,"stim/12.jpeg",1,2,"stim/12.jpeg",2,"right",0.918000221,3,4,0.337000132,1,0.613000154,191,0,0,NA,0,NA,1
"415","stim/objects/Instruments/banjo3.png",269,33,262,0.5,"stim/11.jpeg",1,1,1,2,"Instruments",1,2,"left","left",0.586999893,1,1,1,0,NA,NA,NA,NA,NA,NA,NA,NA,NA,NA,NA,NA,NA,NA,NA,NA,NA,NA,NA,NA,NA,NA,NA,NA
"274","stim/objects/HouseObjects/clothesdryingrack4.png",270,33,263,0.3,"stim/43.jpeg",4,3,2,1,"HouseObjects",2,2,"right","right",0.63499999,1,1,1,0,101,33,1,0.3,2,"stim/43.jpeg",4,3,"stim/43.jpeg",2,"left",1.662000179,4,3,0.409000158,2,0.720000267,101,1,1,1,1,1,1
"457","stim/objects/Instruments/flute3.png",271,33,264,0.9,"stim/64.jpeg",6,4,3,2,"Instruments",1,4,"left","left",0.512000084,1,1,1,0,NA,NA,NA,NA,NA,NA,NA,NA,NA,NA,NA,NA,NA,NA,NA,NA,NA,NA,NA,NA,NA,NA,NA,NA
"549","stim/objects/Instruments/keyboard3.png",272,33,265,0.5,"stim/13.jpeg",1,3,1,1,"Instruments",1,2,"left","right",0.376999855,0,0,1,0,2,33,1,0.5,1,"stim/13.jpeg",1,3,"stim/13.jpeg",2,"right",3.097000122,2,2,2.294000149,1,2.059000254,2,0,0,NA,0,NA,1
"559","stim/objects/Instruments/musicsheet3.png",273,33,266,0.5,"stim/21.jpeg",2,1,1,1,"Instruments",1,1,"left","left",0.495999813,1,1,1,0,162,33,1,0.5,2,"stim/21.jpeg",2,1,"stim/21.jpeg",1,"right",1.220999956,4,3,0.469000101,2,0.301000118,162,0,0,NA,0,NA,1
"458","stim/objects/Instruments/flute3.png",274,33,267,0.9,"stim/64.jpeg",6,4,3,2,"Instruments",1,3,"left","left",0.57799983,1,1,1,0,NA,NA,NA,NA,NA,NA,NA,NA,NA,NA,NA,NA,NA,NA,NA,NA,NA,NA,NA,NA,NA,NA,NA,NA
"412","stim/objects/Instruments/balalaika3.png",275,33,268,0.5,"stim/14.jpeg",1,4,1,2,"Instruments",1,1,"left","right",0.500999928,0,0,1,0,NA,NA,NA,NA,NA,NA,NA,NA,NA,NA,NA,NA,NA,NA,NA,NA,NA,NA,NA,NA,NA,NA,NA,NA
"342","stim/objects/HouseObjects/garbagebin3.png",276,33,269,0.9,"stim/53.jpeg",5,3,3,2,"HouseObjects",2,4,"right","left",0.532999992,0,0,1,0,NA,NA,NA,NA,NA,NA,NA,NA,NA,NA,NA,NA,NA,NA,NA,NA,NA,NA,NA,NA,NA,NA,NA,NA
"506","stim/objects/Instruments/frenchhorn4.png",277,33,270,0.1,"stim/53.jpeg",5,3,3,1,"Instruments",1,4,"left","right",0.532999992,0,0,1,0,195,33,1,0.1,1,"stim/53.jpeg",5,3,"stim/53.jpeg",4,"left",0.965000153,3,2,0.906000376,1,0.536000252,195,1,0,0,0,0,1
"452","stim/objects/Instruments/electricguitar3.png",278,33,271,0.7,"stim/43.jpeg",4,3,2,2,"Instruments",1,4,"left","left",0.605000019,1,1,1,0,NA,NA,NA,NA,NA,NA,NA,NA,NA,NA,NA,NA,NA,NA,NA,NA,NA,NA,NA,NA,NA,NA,NA,NA
"492","stim/objects/Instruments/frenchhorn3.png",279,33,272,0.9,"stim/64.jpeg",6,4,3,2,"Instruments",1,3,"left","right",0.53399992,0,0,1,0,NA,NA,NA,NA,NA,NA,NA,NA,NA,NA,NA,NA,NA,NA,NA,NA,NA,NA,NA,NA,NA,NA,NA,NA
"404","stim/objects/HouseObjects/wateringcan3.png",280,33,273,0.7,"stim/32.jpeg",3,2,2,1,"HouseObjects",2,3,"right","left",0.599999905,0,0,1,0,100,33,1,0.7,2,"stim/32.jpeg",3,2,"stim/32.jpeg",3,"left",1.394000292,4,2,1.275000095,1,1.502000332,100,1,1,1,0,0,1
"440","stim/objects/Instruments/doublebass3.png",281,33,274,0.7,"stim/42.jpeg",4,2,2,2,"Instruments",1,2,"left","left",0.565000057,1,1,1,0,NA,NA,NA,NA,NA,NA,NA,NA,NA,NA,NA,NA,NA,NA,NA,NA,NA,NA,NA,NA,NA,NA,NA,NA
"400","stim/objects/HouseObjects/towel3.png",282,33,275,0.7,"stim/34.jpeg",3,4,2,1,"HouseObjects",2,2,"right","right",0.523999929,1,1,1,0,58,33,1,0.7,2,"stim/34.jpeg",3,4,"stim/34.jpeg",2,"left",1.552000046,3,4,0.904000044,2,0.805999994,58,1,1,1,1,1,1
"459","stim/objects/Instruments/flute3.png",283,33,276,0.9,"stim/62.jpeg",6,2,3,2,"Instruments",1,3,"left","left",0.684999943,1,1,1,0,NA,NA,NA,NA,NA,NA,NA,NA,NA,NA,NA,NA,NA,NA,NA,NA,NA,NA,NA,NA,NA,NA,NA,NA
"509","stim/objects/Instruments/gong3.png",284,33,277,0.9,"stim/63.jpeg",6,3,3,2,"Instruments",1,4,"left","left",0.51699996,1,1,1,0,NA,NA,NA,NA,NA,NA,NA,NA,NA,NA,NA,NA,NA,NA,NA,NA,NA,NA,NA,NA,NA,NA,NA,NA
"418","stim/objects/Instruments/bassdrum3.png",285,33,278,0.5,"stim/12.jpeg",1,2,1,2,"Instruments",1,4,"left","left",0.680000067,1,1,1,0,NA,NA,NA,NA,NA,NA,NA,NA,NA,NA,NA,NA,NA,NA,NA,NA,NA,NA,NA,NA,NA,NA,NA,NA
"433","stim/objects/Instruments/cornet3.png",286,33,279,0.5,"stim/24.jpeg",2,4,1,2,"Instruments",1,3,"left","right",0.572000027,0,0,1,0,NA,NA,NA,NA,NA,NA,NA,NA,NA,NA,NA,NA,NA,NA,NA,NA,NA,NA,NA,NA,NA,NA,NA,NA
"307","stim/objects/HouseObjects/doormat4.png",287,33,280,0.9,"stim/53.jpeg",5,3,3,1,"HouseObjects",2,1,"right","right",0.562999725,1,1,1,0,113,33,1,0.9,2,"stim/53.jpeg",5,3,"stim/53.jpeg",1,"right",1.704000235,3,3,0.658000231,3,0.207000017,113,0,1,NA,0,NA,1
"477","stim/objects/Instruments/flutetrans3.png",288,33,281,0.9,"stim/64.jpeg",6,4,3,2,"Instruments",1,2,"left","left",0.617999792,1,1,1,0,NA,NA,NA,NA,NA,NA,NA,NA,NA,NA,NA,NA,NA,NA,NA,NA,NA,NA,NA,NA,NA,NA,NA,NA
"362","stim/objects/HouseObjects/glass3.png",289,33,282,0.9,"stim/53.jpeg",5,3,3,2,"HouseObjects",2,3,"right","left",0.411999941,0,0,1,0,NA,NA,NA,NA,NA,NA,NA,NA,NA,NA,NA,NA,NA,NA,NA,NA,NA,NA,NA,NA,NA,NA,NA,NA
"343","stim/objects/HouseObjects/garbagebin3.png",290,33,283,0.9,"stim/54.jpeg",5,4,3,2,"HouseObjects",2,3,"right","right",0.587999821,1,1,1,0,NA,NA,NA,NA,NA,NA,NA,NA,NA,NA,NA,NA,NA,NA,NA,NA,NA,NA,NA,NA,NA,NA,NA,NA
"293","stim/objects/HouseObjects/doormat3.png",291,33,284,0.9,"stim/54.jpeg",5,4,3,2,"HouseObjects",2,4,"right","right",0.447999954,1,1,1,0,NA,NA,NA,NA,NA,NA,NA,NA,NA,NA,NA,NA,NA,NA,NA,NA,NA,NA,NA,NA,NA,NA,NA,NA
"493","stim/objects/Instruments/frenchhorn3.png",292,33,285,0.9,"stim/63.jpeg",6,3,3,2,"Instruments",1,3,"left","left",0.480999708,1,1,1,0,NA,NA,NA,NA,NA,NA,NA,NA,NA,NA,NA,NA,NA,NA,NA,NA,NA,NA,NA,NA,NA,NA,NA,NA
"524","stim/objects/Instruments/grandpiano3.png",293,33,286,0.9,"stim/61.jpeg",6,1,3,2,"Instruments",1,1,"left","left",0.614000082,1,1,1,0,NA,NA,NA,NA,NA,NA,NA,NA,NA,NA,NA,NA,NA,NA,NA,NA,NA,NA,NA,NA,NA,NA,NA,NA
"424","stim/objects/Instruments/cello3.png",294,33,287,0.5,"stim/21.jpeg",2,1,1,2,"Instruments",1,4,"left","right",0.636999846,0,0,1,0,NA,NA,NA,NA,NA,NA,NA,NA,NA,NA,NA,NA,NA,NA,NA,NA,NA,NA,NA,NA,NA,NA,NA,NA
"363","stim/objects/HouseObjects/glass3.png",295,33,288,0.9,"stim/54.jpeg",5,4,3,2,"HouseObjects",2,2,"right","left",0.39199996,0,0,1,0,NA,NA,NA,NA,NA,NA,NA,NA,NA,NA,NA,NA,NA,NA,NA,NA,NA,NA,NA,NA,NA,NA,NA,NA
"377","stim/objects/HouseObjects/glassmop4.png",296,33,289,0.9,"stim/54.jpeg",5,4,3,1,"HouseObjects",2,3,"right","right",0.500999928,1,1,1,0,95,33,1,0.9,2,"stim/54.jpeg",5,4,"stim/54.jpeg",3,"left",1.144000053,3,3,1.820000172,2,1.036000252,95,1,0,0,0,0,1
"552","stim/objects/Instruments/laud4.png",297,33,290,0.9,"stim/61.jpeg",6,1,3,1,"Instruments",1,2,"left","left",0.460999966,1,1,1,0,166,33,1,0.9,1,"stim/61.jpeg",6,1,"stim/61.jpeg",2,"right",0.736000061,2,3,0.601999998,1,0.554000139,166,0,0,NA,0,NA,1
"551","stim/objects/Instruments/laud3.png",298,33,291,0.5,"stim/21.jpeg",2,1,1,1,"Instruments",1,1,"left","right",0.514999866,0,0,1,0,47,33,1,0.5,2,"stim/21.jpeg",2,1,"stim/21.jpeg",1,"right",0.953000307,4,4,1.002000093,4,0.634000063,47,0,0,NA,0,NA,1
"447","stim/objects/Instruments/drums4.png",299,33,292,0.7,"stim/43.jpeg",4,3,2,1,"Instruments",1,4,"left","left",0.501999855,1,1,1,0,96,33,1,0.7,1,"stim/43.jpeg",4,3,"stim/43.jpeg",4,"left",1.328000307,4,1,1.075000286,3,0.955000162,96,1,0,0,0,0,1
"526","stim/objects/Instruments/grandpiano3.png",300,33,293,0.9,"stim/63.jpeg",6,3,3,2,"Instruments",1,3,"left","left",0.467999935,1,1,1,0,NA,NA,NA,NA,NA,NA,NA,NA,NA,NA,NA,NA,NA,NA,NA,NA,NA,NA,NA,NA,NA,NA,NA,NA
"510","stim/objects/Instruments/gong3.png",301,33,294,0.9,"stim/62.jpeg",6,2,3,2,"Instruments",1,4,"left","right",0.582000017,0,0,1,0,NA,NA,NA,NA,NA,NA,NA,NA,NA,NA,NA,NA,NA,NA,NA,NA,NA,NA,NA,NA,NA,NA,NA,NA
"527","stim/objects/Instruments/grandpiano3.png",302,33,295,0.9,"stim/62.jpeg",6,2,3,2,"Instruments",1,2,"left","left",0.700999737,1,1,1,0,NA,NA,NA,NA,NA,NA,NA,NA,NA,NA,NA,NA,NA,NA,NA,NA,NA,NA,NA,NA,NA,NA,NA,NA
"290","stim/objects/HouseObjects/dishsoap4.png",303,33,296,0.3,"stim/43.jpeg",4,3,2,1,"HouseObjects",2,1,"right","right",0.527999878,1,1,1,0,26,33,1,0.3,2,"stim/43.jpeg",4,3,"stim/43.jpeg",1,"right",2.887000322,2,3,0.487000227,2,0.412000179,26,0,1,NA,0,NA,1
"311","stim/objects/HouseObjects/dustpan3.png",304,33,297,0.9,"stim/52.jpeg",5,2,3,2,"HouseObjects",2,4,"right","left",0.56799984,0,0,1,0,NA,NA,NA,NA,NA,NA,NA,NA,NA,NA,NA,NA,NA,NA,NA,NA,NA,NA,NA,NA,NA,NA,NA,NA
"528","stim/objects/Instruments/grandpiano3.png",305,33,298,0.9,"stim/63.jpeg",6,3,3,2,"Instruments",1,1,"left","left",0.569999933,1,1,1,0,NA,NA,NA,NA,NA,NA,NA,NA,NA,NA,NA,NA,NA,NA,NA,NA,NA,NA,NA,NA,NA,NA,NA,NA
"266","stim/objects/HouseObjects/bucket3.png",306,33,299,0.5,"stim/21.jpeg",2,1,1,2,"HouseObjects",2,4,"right","right",0.322999954,1,1,1,0,NA,NA,NA,NA,NA,NA,NA,NA,NA,NA,NA,NA,NA,NA,NA,NA,NA,NA,NA,NA,NA,NA,NA,NA
"328","stim/objects/HouseObjects/flyswatter3.png",307,33,300,0.9,"stim/52.jpeg",5,2,3,2,"HouseObjects",2,1,"right","left",0.478999853,0,0,1,0,NA,NA,NA,NA,NA,NA,NA,NA,NA,NA,NA,NA,NA,NA,NA,NA,NA,NA,NA,NA,NA,NA,NA,NA
"386","stim/objects/HouseObjects/ironingboard3.png",308,33,301,0.5,"stim/24.jpeg",2,4,1,1,"HouseObjects",2,1,"right","left",0.411999941,0,0,1,0,5,33,1,0.5,2,"stim/24.jpeg",2,4,"stim/24.jpeg",1,"left",1.327000141,4,3,3.923000097,1,1.51699996,5,1,0,0,1,1,1
"312","stim/objects/HouseObjects/dustpan3.png",309,33,302,0.9,"stim/51.jpeg",5,1,3,2,"HouseObjects",2,4,"right","right",0.766000032,1,1,1,0,NA,NA,NA,NA,NA,NA,NA,NA,NA,NA,NA,NA,NA,NA,NA,NA,NA,NA,NA,NA,NA,NA,NA,NA
"255","stim/objects/HouseObjects/bleachbottle4.png",310,33,303,0.7,"stim/33.jpeg",3,3,2,1,"HouseObjects",2,2,"right","right",0.642999887,1,1,1,0,38,33,1,0.7,2,"stim/33.jpeg",3,3,"stim/33.jpeg",2,"left",1.230000019,3,4,1.168000221,2,1.087000132,38,1,0,0,1,1,1
"388","stim/objects/HouseObjects/key3.png",311,33,304,0.5,"stim/21.jpeg",2,1,1,1,"HouseObjects",2,4,"right","left",0.585000038,0,0,1,0,169,33,1,0.5,2,"stim/21.jpeg",2,1,"stim/21.jpeg",4,"right",1.218000174,4,3,0.687000275,2,0.300000191,169,0,0,NA,0,NA,1
"570","stim/objects/Instruments/xylophone4.png",312,33,305,0.9,"stim/62.jpeg",6,2,3,1,"Instruments",1,4,"left","left",0.635999918,1,1,1,0,17,33,1,0.9,1,"stim/62.jpeg",6,2,"stim/62.jpeg",4,"left",1.336000204,3,4,2.570000172,4,1.757000208,17,1,0,0,1,1,1
"434","stim/objects/Instruments/cornet3.png",313,33,306,0.5,"stim/23.jpeg",2,3,1,2,"Instruments",1,3,"left","right",0.411000013,0,0,1,0,NA,NA,NA,NA,NA,NA,NA,NA,NA,NA,NA,NA,NA,NA,NA,NA,NA,NA,NA,NA,NA,NA,NA,NA
"329","stim/objects/HouseObjects/flyswatter3.png",314,33,307,0.9,"stim/54.jpeg",5,4,3,2,"HouseObjects",2,4,"right","left",0.625999928,0,0,1,0,NA,NA,NA,NA,NA,NA,NA,NA,NA,NA,NA,NA,NA,NA,NA,NA,NA,NA,NA,NA,NA,NA,NA,NA
"250","stim/objects/HouseObjects/basket3.png",315,33,308,0.5,"stim/13.jpeg",1,3,1,2,"HouseObjects",2,3,"right","right",0.70299983,1,1,1,0,NA,NA,NA,NA,NA,NA,NA,NA,NA,NA,NA,NA,NA,NA,NA,NA,NA,NA,NA,NA,NA,NA,NA,NA
"478","stim/objects/Instruments/flutetrans3.png",316,33,309,0.9,"stim/64.jpeg",6,4,3,2,"Instruments",1,3,"left","left",0.622999907,1,1,1,0,NA,NA,NA,NA,NA,NA,NA,NA,NA,NA,NA,NA,NA,NA,NA,NA,NA,NA,NA,NA,NA,NA,NA,NA
"479","stim/objects/Instruments/flutetrans3.png",317,33,310,0.9,"stim/61.jpeg",6,1,3,2,"Instruments",1,3,"left","left",0.515999794,1,1,1,0,NA,NA,NA,NA,NA,NA,NA,NA,NA,NA,NA,NA,NA,NA,NA,NA,NA,NA,NA,NA,NA,NA,NA,NA
"262","stim/objects/HouseObjects/broom3.png",318,33,311,0.5,"stim/24.jpeg",2,4,1,2,"HouseObjects",2,4,"right","right",0.595999956,1,1,1,0,NA,NA,NA,NA,NA,NA,NA,NA,NA,NA,NA,NA,NA,NA,NA,NA,NA,NA,NA,NA,NA,NA,NA,NA
"494","stim/objects/Instruments/frenchhorn3.png",319,33,312,0.9,"stim/61.jpeg",6,1,3,2,"Instruments",1,1,"left","left",0.63499999,1,1,1,0,NA,NA,NA,NA,NA,NA,NA,NA,NA,NA,NA,NA,NA,NA,NA,NA,NA,NA,NA,NA,NA,NA,NA,NA
"417","stim/objects/Instruments/banjo4.png",320,33,313,0.3,"stim/31.jpeg",3,1,2,1,"Instruments",1,3,"left","right",0.450000048,0,0,1,0,193,33,1,0.3,1,"stim/31.jpeg",3,1,"stim/31.jpeg",3,"right",1.34100008,2,1,1.387000322,1,0.177000046,193,0,1,NA,0,NA,1
"512","stim/objects/Instruments/gong3.png",321,33,314,0.9,"stim/64.jpeg",6,4,3,2,"Instruments",1,1,"left","right",0.580999851,0,0,1,0,NA,NA,NA,NA,NA,NA,NA,NA,NA,NA,NA,NA,NA,NA,NA,NA,NA,NA,NA,NA,NA,NA,NA,NA
"529","stim/objects/Instruments/grandpiano3.png",322,33,315,0.9,"stim/63.jpeg",6,3,3,2,"Instruments",1,3,"left","left",0.687000036,1,1,1,0,NA,NA,NA,NA,NA,NA,NA,NA,NA,NA,NA,NA,NA,NA,NA,NA,NA,NA,NA,NA,NA,NA,NA,NA
"421","stim/objects/Instruments/bassguitar3.png",323,33,316,0.5,"stim/23.jpeg",2,3,1,2,"Instruments",1,4,"left","right",0.535000086,0,0,1,0,NA,NA,NA,NA,NA,NA,NA,NA,NA,NA,NA,NA,NA,NA,NA,NA,NA,NA,NA,NA,NA,NA,NA,NA
"254","stim/objects/HouseObjects/bleachbottle3.png",324,33,317,0.5,"stim/14.jpeg",1,4,1,2,"HouseObjects",2,3,"right","left",0.831999779,0,0,1,0,NA,NA,NA,NA,NA,NA,NA,NA,NA,NA,NA,NA,NA,NA,NA,NA,NA,NA,NA,NA,NA,NA,NA,NA
"462","stim/objects/Instruments/flute3.png",325,33,318,0.9,"stim/62.jpeg",6,2,3,2,"Instruments",1,3,"left","left",0.696000099,1,1,1,0,NA,NA,NA,NA,NA,NA,NA,NA,NA,NA,NA,NA,NA,NA,NA,NA,NA,NA,NA,NA,NA,NA,NA,NA
"383","stim/objects/HouseObjects/handvacuum4.png",326,33,319,0.9,"stim/53.jpeg",5,3,3,1,"HouseObjects",2,3,"right","right",0.55099988,1,1,1,0,173,33,1,0.9,2,"stim/53.jpeg",5,3,"stim/53.jpeg",3,"left",0.75,4,1,1.345000029,1,0.284000158,173,1,0,0,0,0,1
"560","stim/objects/Instruments/musicsheet4.png",327,33,320,0.9,"stim/61.jpeg",6,1,3,1,"Instruments",1,1,"left","left",0.614000082,1,1,1,0,67,33,1,0.9,1,"stim/61.jpeg",6,1,"stim/61.jpeg",1,"left",1.070000172,4,3,0.443000317,1,3.004000187,67,1,0,0,1,1,1
"285","stim/objects/HouseObjects/cushion3.png",328,33,321,0.7,"stim/33.jpeg",3,3,2,2,"HouseObjects",2,1,"right","right",0.664999723,1,1,1,0,NA,NA,NA,NA,NA,NA,NA,NA,NA,NA,NA,NA,NA,NA,NA,NA,NA,NA,NA,NA,NA,NA,NA,NA
"544","stim/objects/Instruments/harmonica4.png",329,33,322,0.1,"stim/53.jpeg",5,3,3,1,"Instruments",1,3,"left","right",0.627999783,0,0,1,0,89,33,1,0.1,1,"stim/53.jpeg",5,3,"stim/53.jpeg",3,"left",1.509000063,2,1,0.676000357,1,0.538000107,89,1,0,0,0,0,1
"294","stim/objects/HouseObjects/doormat3.png",330,33,323,0.9,"stim/52.jpeg",5,2,3,2,"HouseObjects",2,2,"right","left",0.491999865,0,0,1,0,NA,NA,NA,NA,NA,NA,NA,NA,NA,NA,NA,NA,NA,NA,NA,NA,NA,NA,NA,NA,NA,NA,NA,NA
"480","stim/objects/Instruments/flutetrans3.png",331,33,324,0.9,"stim/62.jpeg",6,2,3,2,"Instruments",1,2,"left","left",0.622999907,1,1,1,0,NA,NA,NA,NA,NA,NA,NA,NA,NA,NA,NA,NA,NA,NA,NA,NA,NA,NA,NA,NA,NA,NA,NA,NA
"390","stim/objects/HouseObjects/knife3.png",332,33,325,0.5,"stim/22.jpeg",2,2,1,1,"HouseObjects",2,2,"right","",NA,0,0,1,0,69,33,1,0.5,2,"stim/22.jpeg",2,2,"stim/22.jpeg",2,"right",1.669000149,3,4,0.802000284,3,0.343000174,69,0,0,NA,0,NA,1
"392","stim/objects/HouseObjects/lintroller3.png",333,33,326,0.5,"stim/23.jpeg",2,3,1,1,"HouseObjects",2,3,"right","right",0.654999733,1,1,1,0,87,33,1,0.5,2,"stim/23.jpeg",2,3,"stim/23.jpeg",3,"right",0.878000259,3,4,0.514000177,3,0.601999998,87,0,0,NA,1,NA,1
"295","stim/objects/HouseObjects/doormat3.png",334,33,327,0.9,"stim/53.jpeg",5,3,3,2,"HouseObjects",2,2,"right","left",0.390000105,0,0,1,0,NA,NA,NA,NA,NA,NA,NA,NA,NA,NA,NA,NA,NA,NA,NA,NA,NA,NA,NA,NA,NA,NA,NA,NA
"513","stim/objects/Instruments/gong3.png",335,33,328,0.9,"stim/63.jpeg",6,3,3,2,"Instruments",1,4,"left","left",0.529999971,1,1,1,0,NA,NA,NA,NA,NA,NA,NA,NA,NA,NA,NA,NA,NA,NA,NA,NA,NA,NA,NA,NA,NA,NA,NA,NA
"382","stim/objects/HouseObjects/handvacuum3.png",336,33,329,0.5,"stim/11.jpeg",1,1,1,1,"HouseObjects",2,4,"right","left",0.765999794,0,0,1,0,83,33,1,0.5,1,"stim/11.jpeg",1,1,"stim/11.jpeg",4,"right",1.007000208,4,4,0.493000031,4,0.319000244,83,0,0,NA,1,NA,1
"444","stim/objects/Instruments/drums3.png",337,33,330,0.7,"stim/44.jpeg",4,4,2,2,"Instruments",1,4,"left","left",0.735000134,1,1,1,0,NA,NA,NA,NA,NA,NA,NA,NA,NA,NA,NA,NA,NA,NA,NA,NA,NA,NA,NA,NA,NA,NA,NA,NA
"495","stim/objects/Instruments/frenchhorn3.png",338,33,331,0.9,"stim/64.jpeg",6,4,3,2,"Instruments",1,3,"left","left",0.584000111,1,1,1,0,NA,NA,NA,NA,NA,NA,NA,NA,NA,NA,NA,NA,NA,NA,NA,NA,NA,NA,NA,NA,NA,NA,NA,NA
"378","stim/objects/HouseObjects/hairdryer3.png",339,33,332,0.5,"stim/13.jpeg",1,3,1,1,"HouseObjects",2,1,"right","right",0.562000036,1,1,1,0,56,33,1,0.5,1,"stim/13.jpeg",1,3,"stim/13.jpeg",1,"right",1.720000267,3,2,0.509000063,1,0.37100029,56,0,0,NA,1,NA,1
"514","stim/objects/Instruments/gong3.png",340,33,333,0.9,"stim/64.jpeg",6,4,3,2,"Instruments",1,2,"left","left",0.576999903,1,1,1,0,NA,NA,NA,NA,NA,NA,NA,NA,NA,NA,NA,NA,NA,NA,NA,NA,NA,NA,NA,NA,NA,NA,NA,NA
"420","stim/objects/Instruments/bassdrum4.png",341,33,334,0.3,"stim/32.jpeg",3,2,2,1,"Instruments",1,3,"left","right",0.746000051,0,0,1,0,132,33,1,0.3,1,"stim/32.jpeg",3,2,"stim/32.jpeg",3,"right",1.413000107,2,2,1.117000103,2,0.469000101,132,0,1,NA,0,NA,1
"268","stim/objects/HouseObjects/clock3.png",342,33,335,0.5,"stim/23.jpeg",2,3,1,2,"HouseObjects",2,4,"right","left",0.467000008,0,0,1,0,NA,NA,NA,NA,NA,NA,NA,NA,NA,NA,NA,NA,NA,NA,NA,NA,NA,NA,NA,NA,NA,NA,NA,NA
"443","stim/objects/Instruments/doublebass4.png",343,33,336,0.7,"stim/42.jpeg",4,2,2,1,"Instruments",1,4,"left","right",0.480999947,0,0,1,0,107,33,1,0.7,1,"stim/42.jpeg",4,2,"stim/42.jpeg",4,"left",0.894000053,4,3,0.502000332,1,4.084000111,107,1,0,0,0,0,1
"422","stim/objects/Instruments/bassguitar3.png",344,33,337,0.5,"stim/24.jpeg",2,4,1,2,"Instruments",1,2,"left","left",0.677000046,1,1,1,0,NA,NA,NA,NA,NA,NA,NA,NA,NA,NA,NA,NA,NA,NA,NA,NA,NA,NA,NA,NA,NA,NA,NA,NA
"464","stim/objects/Instruments/flute3.png",345,33,338,0.9,"stim/64.jpeg",6,4,3,2,"Instruments",1,4,"left","left",0.60800004,1,1,1,0,NA,NA,NA,NA,NA,NA,NA,NA,NA,NA,NA,NA,NA,NA,NA,NA,NA,NA,NA,NA,NA,NA,NA,NA
"423","stim/objects/Instruments/bassguitar4.png",346,33,339,0.7,"stim/44.jpeg",4,4,2,1,"Instruments",1,1,"left","right",0.434999943,0,0,1,0,45,33,1,0.7,1,"stim/44.jpeg",4,4,"stim/44.jpeg",1,"left",1.037000179,3,3,0.842000246,4,0.666000128,45,1,0,0,0,0,1
"385","stim/objects/HouseObjects/iron4.png",347,33,340,0.9,"stim/54.jpeg",5,4,3,1,"HouseObjects",2,2,"right","right",0.404999971,1,1,1,0,94,33,1,0.9,2,"stim/54.jpeg",5,4,"stim/54.jpeg",2,"left",1.310000181,3,3,1.440999985,1,1.784000158,94,1,0,0,0,0,1
"397","stim/objects/HouseObjects/pan4.png",348,33,341,0.1,"stim/64.jpeg",6,4,3,1,"HouseObjects",2,2,"right","left",0.546999931,0,0,1,0,52,33,1,0.1,2,"stim/64.jpeg",6,4,"stim/64.jpeg",2,"left",1.085000277,3,4,0.643000126,2,1.210999966,52,1,1,1,1,1,1
"365","stim/objects/HouseObjects/glass3.png",349,33,342,0.9,"stim/52.jpeg",5,2,3,2,"HouseObjects",2,2,"right","right",0.546999931,1,1,1,0,NA,NA,NA,NA,NA,NA,NA,NA,NA,NA,NA,NA,NA,NA,NA,NA,NA,NA,NA,NA,NA,NA,NA,NA
"429","stim/objects/Instruments/chime4.png",350,33,343,0.7,"stim/42.jpeg",4,2,2,1,"Instruments",1,4,"left","right",0.717000008,0,0,1,0,59,33,1,0.7,1,"stim/42.jpeg",4,2,"stim/42.jpeg",4,"left",2.50999999,3,2,0.586000204,2,2.054000139,59,1,1,1,0,0,1
"562","stim/objects/Instruments/musicstand4.png",351,33,344,0.9,"stim/62.jpeg",6,2,3,1,"Instruments",1,2,"left","left",0.552999735,1,1,1,0,14,33,1,0.9,1,"stim/62.jpeg",6,2,"stim/62.jpeg",2,"right",1.753000259,2,3,1.760000229,1,1.109000206,14,0,0,NA,0,NA,1
"568","stim/objects/Instruments/vuvuzela4.png",352,33,345,0.9,"stim/61.jpeg",6,1,3,1,"Instruments",1,4,"left","right",0.559000015,0,0,1,0,8,33,1,0.9,1,"stim/61.jpeg",6,1,"stim/61.jpeg",4,"left",1.686000109,3,2,3.918000221,3,1.401000023,8,1,0,0,0,0,1
"366","stim/objects/HouseObjects/glass3.png",353,33,346,0.9,"stim/53.jpeg",5,3,3,2,"HouseObjects",2,2,"right","right",0.424999952,1,1,1,0,NA,NA,NA,NA,NA,NA,NA,NA,NA,NA,NA,NA,NA,NA,NA,NA,NA,NA,NA,NA,NA,NA,NA,NA
"553","stim/objects/Instruments/maraca3.png",354,33,347,0.5,"stim/22.jpeg",2,2,1,1,"Instruments",1,3,"left","left",0.503999949,1,1,1,0,88,33,1,0.5,2,"stim/22.jpeg",2,2,"stim/22.jpeg",3,"left",1.226000071,4,2,1.928000212,3,1.102000237,88,1,1,1,1,1,1
"367","stim/objects/HouseObjects/glass3.png",355,33,348,0.9,"stim/52.jpeg",5,2,3,2,"HouseObjects",2,1,"right","right",0.732999802,1,1,1,0,NA,NA,NA,NA,NA,NA,NA,NA,NA,NA,NA,NA,NA,NA,NA,NA,NA,NA,NA,NA,NA,NA,NA,NA
"483","stim/objects/Instruments/flutetrans3.png",356,33,349,0.9,"stim/62.jpeg",6,2,3,2,"Instruments",1,3,"left","left",0.504999876,1,1,1,0,NA,NA,NA,NA,NA,NA,NA,NA,NA,NA,NA,NA,NA,NA,NA,NA,NA,NA,NA,NA,NA,NA,NA,NA
"261","stim/objects/HouseObjects/bottle4.png",357,33,350,0.3,"stim/43.jpeg",4,3,2,1,"HouseObjects",2,3,"right","right",0.394999981,1,1,1,0,137,33,1,0.3,2,"stim/43.jpeg",4,3,"stim/43.jpeg",3,"left",0.936000109,4,1,0.692000151,3,0.935000181,137,1,0,0,1,1,1
"346","stim/objects/HouseObjects/garbagebin3.png",358,33,351,0.9,"stim/54.jpeg",5,4,3,2,"HouseObjects",2,3,"right","left",0.437000036,0,0,1,0,NA,NA,NA,NA,NA,NA,NA,NA,NA,NA,NA,NA,NA,NA,NA,NA,NA,NA,NA,NA,NA,NA,NA,NA
"406","stim/objects/Instruments/accordion3.png",359,33,352,0.5,"stim/12.jpeg",1,2,1,2,"Instruments",1,4,"left","left",0.639999866,1,1,1,0,NA,NA,NA,NA,NA,NA,NA,NA,NA,NA,NA,NA,NA,NA,NA,NA,NA,NA,NA,NA,NA,NA,NA,NA
"330","stim/objects/HouseObjects/flyswatter3.png",360,33,353,0.9,"stim/54.jpeg",5,4,3,2,"HouseObjects",2,3,"right","right",0.463999987,1,1,1,0,NA,NA,NA,NA,NA,NA,NA,NA,NA,NA,NA,NA,NA,NA,NA,NA,NA,NA,NA,NA,NA,NA,NA,NA
"391","stim/objects/HouseObjects/knife4.png",361,33,354,0.1,"stim/61.jpeg",6,1,3,1,"HouseObjects",2,3,"right","left",0.750999928,0,0,1,0,15,33,1,0.1,2,"stim/61.jpeg",6,1,"stim/61.jpeg",3,"right",1.520000219,4,4,2.121999979,4,0.584000111,15,0,0,NA,0,NA,1
"532","stim/objects/Instruments/grandpiano3.png",362,33,355,0.9,"stim/64.jpeg",6,4,3,2,"Instruments",1,3,"left","right",0.263999939,0,0,1,0,NA,NA,NA,NA,NA,NA,NA,NA,NA,NA,NA,NA,NA,NA,NA,NA,NA,NA,NA,NA,NA,NA,NA,NA
"541","stim/objects/Instruments/guitarcase3.png",363,33,356,0.5,"stim/13.jpeg",1,3,1,1,"Instruments",1,1,"left","right",0.799000025,0,0,1,0,39,33,1,0.5,1,"stim/13.jpeg",1,3,"stim/13.jpeg",1,"left",1.23300004,3,2,2.720000267,2,0.885000229,39,1,0,0,0,0,1
"543","stim/objects/Instruments/harmonica3.png",364,33,357,0.5,"stim/14.jpeg",1,4,1,1,"Instruments",1,3,"left","left",0.789000034,1,1,1,0,86,33,1,0.5,1,"stim/14.jpeg",1,4,"stim/14.jpeg",3,"right",1.236000299,4,3,0.321000099,4,0.670000315,86,0,0,NA,0,NA,1
"270","stim/objects/HouseObjects/clock4.png",365,33,358,0.3,"stim/42.jpeg",4,2,2,1,"HouseObjects",2,2,"right","left",0.848999977,0,0,1,0,34,33,1,0.3,2,"stim/42.jpeg",4,2,"stim/42.jpeg",2,"right",0.903000116,4,4,0.659000158,1,0.881999969,34,0,0,NA,0,NA,1
"533","stim/objects/Instruments/grandpiano3.png",366,33,359,0.9,"stim/61.jpeg",6,1,3,2,"Instruments",1,4,"left","",NA,0,0,1,0,NA,NA,NA,NA,NA,NA,NA,NA,NA,NA,NA,NA,NA,NA,NA,NA,NA,NA,NA,NA,NA,NA,NA,NA
"496","stim/objects/Instruments/frenchhorn3.png",367,33,360,0.9,"stim/61.jpeg",6,1,3,2,"Instruments",1,4,"left","left",0.463999987,1,1,1,0,NA,NA,NA,NA,NA,NA,NA,NA,NA,NA,NA,NA,NA,NA,NA,NA,NA,NA,NA,NA,NA,NA,NA,NA
"281","stim/objects/HouseObjects/coffee3.png",368,33,361,0.7,"stim/32.jpeg",3,2,2,2,"HouseObjects",2,2,"right","right",0.596999884,1,1,1,0,NA,NA,NA,NA,NA,NA,NA,NA,NA,NA,NA,NA,NA,NA,NA,NA,NA,NA,NA,NA,NA,NA,NA,NA
"484","stim/objects/Instruments/flutetrans3.png",369,33,362,0.9,"stim/63.jpeg",6,3,3,2,"Instruments",1,1,"left","left",0.349999905,1,1,1,0,NA,NA,NA,NA,NA,NA,NA,NA,NA,NA,NA,NA,NA,NA,NA,NA,NA,NA,NA,NA,NA,NA,NA,NA
"567","stim/objects/Instruments/vuvuzela3.png",370,33,363,0.3,"stim/34.jpeg",3,4,2,1,"Instruments",1,4,"left","right",0.532999992,0,0,1,0,129,33,1,0.3,1,"stim/34.jpeg",3,4,"stim/34.jpeg",4,"right",2.611000299,2,3,0.45600009,1,0.354000092,129,0,0,NA,0,NA,1
"456","stim/objects/Instruments/flute3.png",371,33,364,0.9,"stim/63.jpeg",6,3,3,2,"Instruments",1,3,"left","left",0.153000116,1,1,1,0,NA,NA,NA,NA,NA,NA,NA,NA,NA,NA,NA,NA,NA,NA,NA,NA,NA,NA,NA,NA,NA,NA,NA,NA
"380","stim/objects/HouseObjects/handbrush3.png",372,33,365,0.5,"stim/14.jpeg",1,4,1,1,"HouseObjects",2,2,"right","right",0.613999844,1,1,1,0,93,33,1,0.5,1,"stim/14.jpeg",1,4,"stim/14.jpeg",2,"right",0.935000181,3,2,0.535000086,2,0.735000134,93,0,0,NA,1,NA,1
"248","stim/objects/HouseObjects/barbecuelighter3.png",373,33,366,0.5,"stim/13.jpeg",1,3,1,2,"HouseObjects",2,3,"right","left",0.498999834,0,0,1,0,NA,NA,NA,NA,NA,NA,NA,NA,NA,NA,NA,NA,NA,NA,NA,NA,NA,NA,NA,NA,NA,NA,NA,NA
"439","stim/objects/Instruments/cymbal4.png",374,33,367,0.7,"stim/41.jpeg",4,1,2,1,"Instruments",1,2,"left","left",0.578999996,1,1,1,0,35,33,1,0.7,1,"stim/41.jpeg",4,1,"stim/41.jpeg",2,"left",2.135000229,4,3,1.953999996,1,1.034000158,35,1,0,0,0,0,1
"348","stim/objects/HouseObjects/garbagebin3.png",375,33,368,0.9,"stim/51.jpeg",5,1,3,2,"HouseObjects",2,1,"right","right",0.382999897,1,1,1,0,NA,NA,NA,NA,NA,NA,NA,NA,NA,NA,NA,NA,NA,NA,NA,NA,NA,NA,NA,NA,NA,NA,NA,NA
"545","stim/objects/Instruments/harp3.png",376,33,369,0.5,"stim/11.jpeg",1,1,1,1,"Instruments",1,2,"left","right",0.665999889,0,0,1,0,183,33,1,0.5,1,"stim/11.jpeg",1,1,"stim/11.jpeg",2,"left",1.269000053,3,2,0.241000175,1,0.736000299,183,1,0,0,0,0,1
"473","stim/objects/Instruments/flutetrans3.png",377,33,370,0.9,"stim/61.jpeg",6,1,3,2,"Instruments",1,2,"left","left",0.555999756,1,1,1,0,NA,NA,NA,NA,NA,NA,NA,NA,NA,NA,NA,NA,NA,NA,NA,NA,NA,NA,NA,NA,NA,NA,NA,NA
"379","stim/objects/HouseObjects/hairdryer4.png",378,33,371,0.9,"stim/51.jpeg",5,1,3,1,"HouseObjects",2,4,"right","right",0.496999979,1,1,1,0,102,33,1,0.9,2,"stim/51.jpeg",5,1,"stim/51.jpeg",4,"left",1.058000088,3,2,0.387000322,2,1.186000109,102,1,0,0,0,0,1
"256","stim/objects/HouseObjects/blender3.png",379,33,372,0.5,"stim/22.jpeg",2,2,1,2,"HouseObjects",2,2,"right","right",0.47699976,1,1,1,0,NA,NA,NA,NA,NA,NA,NA,NA,NA,NA,NA,NA,NA,NA,NA,NA,NA,NA,NA,NA,NA,NA,NA,NA
"436","stim/objects/Instruments/cymbal3.png",380,33,373,0.7,"stim/43.jpeg",4,3,2,2,"Instruments",1,3,"left","left",0.455999851,1,1,1,0,NA,NA,NA,NA,NA,NA,NA,NA,NA,NA,NA,NA,NA,NA,NA,NA,NA,NA,NA,NA,NA,NA,NA,NA
"463","stim/objects/Instruments/flute3.png",381,33,374,0.9,"stim/63.jpeg",6,3,3,2,"Instruments",1,1,"left","left",0.582000017,1,1,1,0,NA,NA,NA,NA,NA,NA,NA,NA,NA,NA,NA,NA,NA,NA,NA,NA,NA,NA,NA,NA,NA,NA,NA,NA
"349","stim/objects/HouseObjects/garbagebin3.png",382,33,375,0.9,"stim/52.jpeg",5,2,3,2,"HouseObjects",2,2,"right","right",0.450000048,1,1,1,0,NA,NA,NA,NA,NA,NA,NA,NA,NA,NA,NA,NA,NA,NA,NA,NA,NA,NA,NA,NA,NA,NA,NA,NA
"498","stim/objects/Instruments/frenchhorn3.png",383,33,376,0.9,"stim/61.jpeg",6,1,3,2,"Instruments",1,1,"left","left",0.573999882,1,1,1,0,NA,NA,NA,NA,NA,NA,NA,NA,NA,NA,NA,NA,NA,NA,NA,NA,NA,NA,NA,NA,NA,NA,NA,NA
"309","stim/objects/HouseObjects/dustpan3.png",384,33,377,0.9,"stim/51.jpeg",5,1,3,2,"HouseObjects",2,2,"right","right",0.381999969,1,1,1,0,NA,NA,NA,NA,NA,NA,NA,NA,NA,NA,NA,NA,NA,NA,NA,NA,NA,NA,NA,NA,NA,NA,NA,NA
"249","stim/objects/HouseObjects/barbecuelighter4.png",385,33,378,0.7,"stim/31.jpeg",3,1,2,1,"HouseObjects",2,1,"right","left",0.546000004,0,0,1,0,120,33,1,0.7,2,"stim/31.jpeg",3,1,"stim/31.jpeg",1,"right",1.192000151,2,3,0.425000191,1,0.605000019,120,0,0,NA,1,NA,1
"405","stim/objects/HouseObjects/wateringcan4.png",386,33,379,0.1,"stim/64.jpeg",6,4,3,1,"HouseObjects",2,2,"right","left",0.624000072,0,0,1,0,91,33,1,0.1,2,"stim/64.jpeg",6,4,"stim/64.jpeg",2,"right",0.852000237,2,3,0.493000031,2,1.205000162,91,0,0,NA,1,NA,1
"299","stim/objects/HouseObjects/doormat3.png",387,33,380,0.9,"stim/53.jpeg",5,3,3,2,"HouseObjects",2,2,"right","right",0.496999979,1,1,1,0,NA,NA,NA,NA,NA,NA,NA,NA,NA,NA,NA,NA,NA,NA,NA,NA,NA,NA,NA,NA,NA,NA,NA,NA
"482","stim/objects/Instruments/flutetrans3.png",388,33,381,0.9,"stim/64.jpeg",6,4,3,2,"Instruments",1,1,"left","left",0.630999804,1,1,1,0,NA,NA,NA,NA,NA,NA,NA,NA,NA,NA,NA,NA,NA,NA,NA,NA,NA,NA,NA,NA,NA,NA,NA,NA
"292","stim/objects/HouseObjects/doormat3.png",389,33,382,0.9,"stim/52.jpeg",5,2,3,2,"HouseObjects",2,3,"right","right",0.512000084,1,1,1,0,NA,NA,NA,NA,NA,NA,NA,NA,NA,NA,NA,NA,NA,NA,NA,NA,NA,NA,NA,NA,NA,NA,NA,NA
"351","stim/objects/HouseObjects/garbagebin3.png",390,33,383,0.9,"stim/53.jpeg",5,3,3,2,"HouseObjects",2,4,"right","left",0.414999962,0,0,1,0,NA,NA,NA,NA,NA,NA,NA,NA,NA,NA,NA,NA,NA,NA,NA,NA,NA,NA,NA,NA,NA,NA,NA,NA
"490","stim/objects/Instruments/frenchhorn3.png",391,33,384,0.9,"stim/63.jpeg",6,3,3,2,"Instruments",1,4,"left","left",0.697000027,1,1,1,0,NA,NA,NA,NA,NA,NA,NA,NA,NA,NA,NA,NA,NA,NA,NA,NA,NA,NA,NA,NA,NA,NA,NA,NA
"472","stim/objects/Instruments/flute4.png",392,33,385,0.1,"stim/51.jpeg",5,1,3,1,"Instruments",1,3,"left","right",0.485999823,0,0,1,0,152,33,1,0.1,1,"stim/51.jpeg",5,1,"stim/51.jpeg",3,"right",1.06400013,4,4,0.709000111,4,0.227000237,152,0,0,NA,0,NA,1
"491","stim/objects/Instruments/frenchhorn3.png",393,33,386,0.9,"stim/62.jpeg",6,2,3,2,"Instruments",1,4,"left","left",0.496999979,1,1,1,0,NA,NA,NA,NA,NA,NA,NA,NA,NA,NA,NA,NA,NA,NA,NA,NA,NA,NA,NA,NA,NA,NA,NA,NA
"265","stim/objects/HouseObjects/bucket3.png",394,33,387,0.5,"stim/22.jpeg",2,2,1,2,"HouseObjects",2,3,"right","right",0.512999773,1,1,1,0,NA,NA,NA,NA,NA,NA,NA,NA,NA,NA,NA,NA,NA,NA,NA,NA,NA,NA,NA,NA,NA,NA,NA,NA
"500","stim/objects/Instruments/frenchhorn3.png",395,33,388,0.9,"stim/64.jpeg",6,4,3,2,"Instruments",1,1,"left","left",0.551999807,1,1,1,0,NA,NA,NA,NA,NA,NA,NA,NA,NA,NA,NA,NA,NA,NA,NA,NA,NA,NA,NA,NA,NA,NA,NA,NA
"324","stim/objects/HouseObjects/dustpan4.png",396,33,389,0.9,"stim/54.jpeg",5,4,3,1,"HouseObjects",2,2,"right","right",0.477999926,1,1,1,0,154,33,1,0.9,2,"stim/54.jpeg",5,4,"stim/54.jpeg",2,"right",0.765000105,3,4,0.400000095,4,0.664999962,154,0,1,NA,0,NA,1
"260","stim/objects/HouseObjects/bottle3.png",397,33,390,0.5,"stim/23.jpeg",2,3,1,2,"HouseObjects",2,3,"right","left",0.279000044,0,0,1,0,NA,NA,NA,NA,NA,NA,NA,NA,NA,NA,NA,NA,NA,NA,NA,NA,NA,NA,NA,NA,NA,NA,NA,NA
"283","stim/objects/HouseObjects/cushion3.png",398,33,391,0.7,"stim/34.jpeg",3,4,2,2,"HouseObjects",2,1,"right","right",0.574999809,1,1,1,0,NA,NA,NA,NA,NA,NA,NA,NA,NA,NA,NA,NA,NA,NA,NA,NA,NA,NA,NA,NA,NA,NA,NA,NA
"288","stim/objects/HouseObjects/dishsoap3.png",399,33,392,0.7,"stim/34.jpeg",3,4,2,2,"HouseObjects",2,4,"right","right",0.635999918,1,1,1,0,NA,NA,NA,NA,NA,NA,NA,NA,NA,NA,NA,NA,NA,NA,NA,NA,NA,NA,NA,NA,NA,NA,NA,NA
"352","stim/objects/HouseObjects/garbagebin3.png",400,33,393,0.9,"stim/52.jpeg",5,2,3,2,"HouseObjects",2,4,"right","left",0.368000031,0,0,1,0,NA,NA,NA,NA,NA,NA,NA,NA,NA,NA,NA,NA,NA,NA,NA,NA,NA,NA,NA,NA,NA,NA,NA,NA
"542","stim/objects/Instruments/guitarcase4.png",401,33,394,0.1,"stim/52.jpeg",5,2,3,1,"Instruments",1,2,"left","right",0.548999786,0,0,1,0,73,33,1,0.1,1,"stim/52.jpeg",5,2,"stim/52.jpeg",2,"left",0.970000267,3,2,0.428000212,1,0.410000086,73,1,1,1,0,0,1
"282","stim/objects/HouseObjects/coffee4.png",402,33,395,0.3,"stim/41.jpeg",4,1,2,1,"HouseObjects",2,3,"right","left",0.546000004,0,0,1,0,57,33,1,0.3,2,"stim/41.jpeg",4,1,"stim/41.jpeg",3,"left",1.663000107,3,1,1.275000095,1,0.553000212,57,1,1,1,0,0,1
"264","stim/objects/HouseObjects/broom4.png",403,33,396,0.3,"stim/44.jpeg",4,4,2,1,"HouseObjects",2,2,"right","right",0.413999796,1,1,1,0,21,33,1,0.3,2,"stim/44.jpeg",4,4,"stim/44.jpeg",2,"left",2.163000345,4,1,2.7900002,4,1.686000347,21,1,0,0,0,0,1
"368","stim/objects/HouseObjects/glass3.png",404,33,397,0.9,"stim/51.jpeg",5,1,3,2,"HouseObjects",2,3,"right","left",0.427999973,0,0,1,0,NA,NA,NA,NA,NA,NA,NA,NA,NA,NA,NA,NA,NA,NA,NA,NA,NA,NA,NA,NA,NA,NA,NA,NA
"501","stim/objects/Instruments/frenchhorn3.png",405,33,398,0.9,"stim/64.jpeg",6,4,3,2,"Instruments",1,3,"left","left",0.538999796,1,1,1,0,NA,NA,NA,NA,NA,NA,NA,NA,NA,NA,NA,NA,NA,NA,NA,NA,NA,NA,NA,NA,NA,NA,NA,NA
"414","stim/objects/Instruments/balalaika4.png",406,33,399,0.3,"stim/34.jpeg",3,4,2,1,"Instruments",1,2,"left","right",0.737999916,0,0,1,0,4,33,1,0.3,1,"stim/34.jpeg",3,4,"stim/34.jpeg",2,"left",1.570000172,4,3,1.322000265,4,2.649000168,4,1,0,0,0,0,1
"445","stim/objects/Instruments/drums3.png",407,33,400,0.7,"stim/43.jpeg",4,3,2,2,"Instruments",1,3,"left","right",0.523999929,0,0,1,0,NA,NA,NA,NA,NA,NA,NA,NA,NA,NA,NA,NA,NA,NA,NA,NA,NA,NA,NA,NA,NA,NA,NA,NA
"284","stim/objects/HouseObjects/cushion3.png",408,33,401,0.7,"stim/32.jpeg",3,2,2,2,"HouseObjects",2,1,"right","left",0.527999878,0,0,1,0,NA,NA,NA,NA,NA,NA,NA,NA,NA,NA,NA,NA,NA,NA,NA,NA,NA,NA,NA,NA,NA,NA,NA,NA
"335","stim/objects/HouseObjects/flyswatter3.png",409,33,402,0.9,"stim/53.jpeg",5,3,3,2,"HouseObjects",2,3,"right","right",0.745000124,1,1,1,0,NA,NA,NA,NA,NA,NA,NA,NA,NA,NA,NA,NA,NA,NA,NA,NA,NA,NA,NA,NA,NA,NA,NA,NA
"502","stim/objects/Instruments/frenchhorn3.png",410,33,403,0.9,"stim/62.jpeg",6,2,3,2,"Instruments",1,2,"left","right",0.500999928,0,0,1,0,NA,NA,NA,NA,NA,NA,NA,NA,NA,NA,NA,NA,NA,NA,NA,NA,NA,NA,NA,NA,NA,NA,NA,NA
"453","stim/objects/Instruments/electricguitar3.png",411,33,404,0.7,"stim/42.jpeg",4,2,2,2,"Instruments",1,1,"left","left",0.700999975,1,1,1,0,NA,NA,NA,NA,NA,NA,NA,NA,NA,NA,NA,NA,NA,NA,NA,NA,NA,NA,NA,NA,NA,NA,NA,NA
"301","stim/objects/HouseObjects/doormat3.png",412,33,405,0.9,"stim/53.jpeg",5,3,3,2,"HouseObjects",2,4,"right","right",0.505999804,1,1,1,0,NA,NA,NA,NA,NA,NA,NA,NA,NA,NA,NA,NA,NA,NA,NA,NA,NA,NA,NA,NA,NA,NA,NA,NA
"302","stim/objects/HouseObjects/doormat3.png",413,33,406,0.9,"stim/51.jpeg",5,1,3,2,"HouseObjects",2,3,"right","",NA,0,0,1,0,NA,NA,NA,NA,NA,NA,NA,NA,NA,NA,NA,NA,NA,NA,NA,NA,NA,NA,NA,NA,NA,NA,NA,NA
"449","stim/objects/Instruments/electricdrumset3.png",414,33,407,0.7,"stim/44.jpeg",4,4,2,2,"Instruments",1,1,"left","",NA,0,0,1,0,NA,NA,NA,NA,NA,NA,NA,NA,NA,NA,NA,NA,NA,NA,NA,NA,NA,NA,NA,NA,NA,NA,NA,NA
"353","stim/objects/HouseObjects/garbagebin3.png",415,33,408,0.9,"stim/51.jpeg",5,1,3,2,"HouseObjects",2,4,"right","right",0.628999949,1,1,1,0,NA,NA,NA,NA,NA,NA,NA,NA,NA,NA,NA,NA,NA,NA,NA,NA,NA,NA,NA,NA,NA,NA,NA,NA
"565","stim/objects/Instruments/violin3.png",416,33,409,0.3,"stim/33.jpeg",3,3,2,1,"Instruments",1,1,"left","left",0.618999958,1,1,1,0,159,33,1,0.3,1,"stim/33.jpeg",3,3,"stim/33.jpeg",1,"left",1.122000217,3,2,0.647000074,1,0.498000145,159,1,0,0,1,1,1
"523","stim/objects/Instruments/gong4.png",417,33,410,0.1,"stim/54.jpeg",5,4,3,1,"Instruments",1,2,"left","right",0.559000015,0,0,1,0,112,33,1,0.1,1,"stim/54.jpeg",5,4,"stim/54.jpeg",2,"left",1.085000038,4,2,1.837000132,3,1.140000343,112,1,0,0,0,0,1
"525","stim/objects/Instruments/grandpiano3.png",418,33,411,0.9,"stim/64.jpeg",6,4,3,2,"Instruments",1,4,"left","left",0.812000036,1,1,1,0,NA,NA,NA,NA,NA,NA,NA,NA,NA,NA,NA,NA,NA,NA,NA,NA,NA,NA,NA,NA,NA,NA,NA,NA
"460","stim/objects/Instruments/flute3.png",419,33,412,0.9,"stim/63.jpeg",6,3,3,2,"Instruments",1,2,"left","right",0.75999999,0,0,1,0,NA,NA,NA,NA,NA,NA,NA,NA,NA,NA,NA,NA,NA,NA,NA,NA,NA,NA,NA,NA,NA,NA,NA,NA
"364","stim/objects/HouseObjects/glass3.png",420,33,413,0.9,"stim/54.jpeg",5,4,3,2,"HouseObjects",2,3,"right","left",0.789000034,0,0,1,0,NA,NA,NA,NA,NA,NA,NA,NA,NA,NA,NA,NA,NA,NA,NA,NA,NA,NA,NA,NA,NA,NA,NA,NA
"259","stim/objects/HouseObjects/bottle3.png",421,33,414,0.5,"stim/24.jpeg",2,4,1,2,"HouseObjects",2,1,"right","right",0.760999918,1,1,1,0,NA,NA,NA,NA,NA,NA,NA,NA,NA,NA,NA,NA,NA,NA,NA,NA,NA,NA,NA,NA,NA,NA,NA,NA
"289","stim/objects/HouseObjects/dishsoap3.png",422,33,415,0.7,"stim/33.jpeg",3,3,2,2,"HouseObjects",2,4,"right","left",0.573999882,0,0,1,0,NA,NA,NA,NA,NA,NA,NA,NA,NA,NA,NA,NA,NA,NA,NA,NA,NA,NA,NA,NA,NA,NA,NA,NA
"372","stim/objects/HouseObjects/glass3.png",423,33,416,0.9,"stim/54.jpeg",5,4,3,2,"HouseObjects",2,1,"right","right",0.490999937,1,1,1,0,NA,NA,NA,NA,NA,NA,NA,NA,NA,NA,NA,NA,NA,NA,NA,NA,NA,NA,NA,NA,NA,NA,NA,NA
"461","stim/objects/Instruments/flute3.png",424,33,417,0.9,"stim/61.jpeg",6,1,3,2,"Instruments",1,1,"left","left",0.360999823,1,1,1,0,NA,NA,NA,NA,NA,NA,NA,NA,NA,NA,NA,NA,NA,NA,NA,NA,NA,NA,NA,NA,NA,NA,NA,NA
"426","stim/objects/Instruments/cello4.png",425,33,418,0.7,"stim/41.jpeg",4,1,2,1,"Instruments",1,1,"left","right",0.447999954,0,0,1,0,164,33,1,0.7,1,"stim/41.jpeg",4,1,"stim/41.jpeg",1,"left",1.343000174,2,1,0.471000195,1,0.763000011,164,1,1,1,1,1,1
"286","stim/objects/HouseObjects/cushion4.png",426,33,419,0.3,"stim/42.jpeg",4,2,2,1,"HouseObjects",2,2,"right","left",0.546000004,0,0,1,0,30,33,1,0.3,2,"stim/42.jpeg",4,2,"stim/42.jpeg",2,"right",1.487000227,3,4,0.71200037,3,0.633000135,30,0,0,NA,0,NA,1
"337","stim/objects/HouseObjects/flyswatter3.png",427,33,420,0.9,"stim/54.jpeg",5,4,3,2,"HouseObjects",2,2,"right","right",0.513000011,1,1,1,0,NA,NA,NA,NA,NA,NA,NA,NA,NA,NA,NA,NA,NA,NA,NA,NA,NA,NA,NA,NA,NA,NA,NA,NA
"300","stim/objects/HouseObjects/doormat3.png",428,33,421,0.9,"stim/52.jpeg",5,2,3,2,"HouseObjects",2,1,"right","right",0.503000021,1,1,1,0,NA,NA,NA,NA,NA,NA,NA,NA,NA,NA,NA,NA,NA,NA,NA,NA,NA,NA,NA,NA,NA,NA,NA,NA
"511","stim/objects/Instruments/gong3.png",429,33,422,0.9,"stim/62.jpeg",6,2,3,2,"Instruments",1,2,"left","left",0.321999788,1,1,1,0,NA,NA,NA,NA,NA,NA,NA,NA,NA,NA,NA,NA,NA,NA,NA,NA,NA,NA,NA,NA,NA,NA,NA,NA
"278","stim/objects/HouseObjects/clothespin4.png",430,33,423,0.3,"stim/44.jpeg",4,4,2,1,"HouseObjects",2,4,"right","right",0.448999882,1,1,1,0,184,33,1,0.3,2,"stim/44.jpeg",4,4,"stim/44.jpeg",4,"left",1.110000134,4,3,1.070000172,4,1.653000116,184,1,0,0,1,1,1
"253","stim/objects/HouseObjects/bleachbottle3.png",431,33,424,0.5,"stim/11.jpeg",1,1,1,2,"HouseObjects",2,1,"right","left",0.446999788,0,0,1,0,NA,NA,NA,NA,NA,NA,NA,NA,NA,NA,NA,NA,NA,NA,NA,NA,NA,NA,NA,NA,NA,NA,NA,NA
"427","stim/objects/Instruments/chime3.png",432,33,425,0.5,"stim/21.jpeg",2,1,1,2,"Instruments",1,2,"left","right",0.502000093,0,0,1,0,NA,NA,NA,NA,NA,NA,NA,NA,NA,NA,NA,NA,NA,NA,NA,NA,NA,NA,NA,NA,NA,NA,NA,NA
"313","stim/objects/HouseObjects/dustpan3.png",433,33,426,0.9,"stim/53.jpeg",5,3,3,2,"HouseObjects",2,4,"right","right",0.512000084,1,1,1,0,NA,NA,NA,NA,NA,NA,NA,NA,NA,NA,NA,NA,NA,NA,NA,NA,NA,NA,NA,NA,NA,NA,NA,NA
"393","stim/objects/HouseObjects/lintroller4.png",434,33,427,0.1,"stim/62.jpeg",6,2,3,1,"HouseObjects",2,4,"right","left",0.388000011,0,0,1,0,53,33,1,0.1,2,"stim/62.jpeg",6,2,"stim/62.jpeg",4,"left",1.910000086,4,3,0.771000147,2,0.537000179,53,1,0,0,0,0,1
"273","stim/objects/HouseObjects/clothesdryingrack3.png",435,33,428,0.7,"stim/34.jpeg",3,4,2,2,"HouseObjects",2,3,"right","right",0.568999767,1,1,1,0,NA,NA,NA,NA,NA,NA,NA,NA,NA,NA,NA,NA,NA,NA,NA,NA,NA,NA,NA,NA,NA,NA,NA,NA
"246","stim/objects/HouseObjects/ballofstring4.png",436,33,429,0.7,"stim/34.jpeg",3,4,2,1,"HouseObjects",2,4,"right","left",0.362999916,0,0,1,0,182,33,1,0.7,2,"stim/34.jpeg",3,4,"stim/34.jpeg",4,"left",0.918000221,4,3,0.693000317,2,1.770000219,182,1,0,0,0,0,1
"504","stim/objects/Instruments/frenchhorn3.png",437,33,430,0.9,"stim/63.jpeg",6,3,3,2,"Instruments",1,1,"left","right",0.411999941,0,0,1,0,NA,NA,NA,NA,NA,NA,NA,NA,NA,NA,NA,NA,NA,NA,NA,NA,NA,NA,NA,NA,NA,NA,NA,NA
"518","stim/objects/Instruments/gong3.png",438,33,431,0.9,"stim/64.jpeg",6,4,3,2,"Instruments",1,1,"left","left",0.65899992,1,1,1,0,NA,NA,NA,NA,NA,NA,NA,NA,NA,NA,NA,NA,NA,NA,NA,NA,NA,NA,NA,NA,NA,NA,NA,NA
"318","stim/objects/HouseObjects/dustpan3.png",439,33,432,0.9,"stim/51.jpeg",5,1,3,2,"HouseObjects",2,2,"right","right",0.470000029,1,1,1,0,NA,NA,NA,NA,NA,NA,NA,NA,NA,NA,NA,NA,NA,NA,NA,NA,NA,NA,NA,NA,NA,NA,NA,NA
"355","stim/objects/HouseObjects/garbagebin3.png",440,33,433,0.9,"stim/54.jpeg",5,4,3,2,"HouseObjects",2,3,"right","left",0.713999748,0,0,1,0,NA,NA,NA,NA,NA,NA,NA,NA,NA,NA,NA,NA,NA,NA,NA,NA,NA,NA,NA,NA,NA,NA,NA,NA
"344","stim/objects/HouseObjects/garbagebin3.png",441,33,434,0.9,"stim/53.jpeg",5,3,3,2,"HouseObjects",2,4,"right","right",0.328999996,1,1,1,0,NA,NA,NA,NA,NA,NA,NA,NA,NA,NA,NA,NA,NA,NA,NA,NA,NA,NA,NA,NA,NA,NA,NA,NA
"277","stim/objects/HouseObjects/clothespin3.png",442,33,435,0.7,"stim/34.jpeg",3,4,2,2,"HouseObjects",2,4,"right","right",0.457999945,1,1,1,0,NA,NA,NA,NA,NA,NA,NA,NA,NA,NA,NA,NA,NA,NA,NA,NA,NA,NA,NA,NA,NA,NA,NA,NA
"257","stim/objects/HouseObjects/blender3.png",443,33,436,0.5,"stim/23.jpeg",2,3,1,2,"HouseObjects",2,2,"right","left",0.612999916,0,0,1,0,NA,NA,NA,NA,NA,NA,NA,NA,NA,NA,NA,NA,NA,NA,NA,NA,NA,NA,NA,NA,NA,NA,NA,NA
"428","stim/objects/Instruments/chime3.png",444,33,437,0.5,"stim/22.jpeg",2,2,1,2,"Instruments",1,1,"left","right",0.494999886,0,0,1,0,NA,NA,NA,NA,NA,NA,NA,NA,NA,NA,NA,NA,NA,NA,NA,NA,NA,NA,NA,NA,NA,NA,NA,NA
"451","stim/objects/Instruments/electricdrumset4.png",445,33,438,0.7,"stim/44.jpeg",4,4,2,1,"Instruments",1,3,"left","left",0.506999731,1,1,1,0,118,33,1,0.7,1,"stim/44.jpeg",4,4,"stim/44.jpeg",3,"right",0.934000015,2,2,0.426000357,2,0.253000259,118,0,0,NA,0,NA,1
"466","stim/objects/Instruments/flute3.png",446,33,439,0.9,"stim/62.jpeg",6,2,3,2,"Instruments",1,1,"left","left",0.566999912,1,1,1,0,NA,NA,NA,NA,NA,NA,NA,NA,NA,NA,NA,NA,NA,NA,NA,NA,NA,NA,NA,NA,NA,NA,NA,NA
"530","stim/objects/Instruments/grandpiano3.png",447,33,440,0.9,"stim/61.jpeg",6,1,3,2,"Instruments",1,1,"left","right",0.366999865,0,0,1,0,NA,NA,NA,NA,NA,NA,NA,NA,NA,NA,NA,NA,NA,NA,NA,NA,NA,NA,NA,NA,NA,NA,NA,NA
"531","stim/objects/Instruments/grandpiano3.png",448,33,441,0.9,"stim/61.jpeg",6,1,3,2,"Instruments",1,1,"left","left",0.557999849,1,1,1,0,NA,NA,NA,NA,NA,NA,NA,NA,NA,NA,NA,NA,NA,NA,NA,NA,NA,NA,NA,NA,NA,NA,NA,NA
"320","stim/objects/HouseObjects/dustpan3.png",449,33,442,0.9,"stim/53.jpeg",5,3,3,2,"HouseObjects",2,4,"right","left",0.597999811,0,0,1,0,NA,NA,NA,NA,NA,NA,NA,NA,NA,NA,NA,NA,NA,NA,NA,NA,NA,NA,NA,NA,NA,NA,NA,NA
"314","stim/objects/HouseObjects/dustpan3.png",450,33,443,0.9,"stim/52.jpeg",5,2,3,2,"HouseObjects",2,1,"right","right",0.519999981,1,1,1,0,NA,NA,NA,NA,NA,NA,NA,NA,NA,NA,NA,NA,NA,NA,NA,NA,NA,NA,NA,NA,NA,NA,NA,NA
"441","stim/objects/Instruments/doublebass3.png",451,33,444,0.7,"stim/44.jpeg",4,4,2,2,"Instruments",1,2,"left","left",0.529999733,1,1,1,0,NA,NA,NA,NA,NA,NA,NA,NA,NA,NA,NA,NA,NA,NA,NA,NA,NA,NA,NA,NA,NA,NA,NA,NA
"258","stim/objects/HouseObjects/blender4.png",452,33,445,0.3,"stim/42.jpeg",4,2,2,1,"HouseObjects",2,2,"right","left",0.545999765,0,0,1,0,97,33,1,0.3,2,"stim/42.jpeg",4,2,"stim/42.jpeg",2,"left",1.445000172,4,3,0.492000103,2,1.721000195,97,1,0,0,1,1,1
"241","stim/objects/HouseObjects/ashtray3.png",453,33,446,0.5,"stim/14.jpeg",1,4,1,2,"HouseObjects",2,1,"right","right",0.40199995,1,1,1,0,NA,NA,NA,NA,NA,NA,NA,NA,NA,NA,NA,NA,NA,NA,NA,NA,NA,NA,NA,NA,NA,NA,NA,NA
"315","stim/objects/HouseObjects/dustpan3.png",454,33,447,0.9,"stim/53.jpeg",5,3,3,2,"HouseObjects",2,1,"right","right",0.678999901,1,1,1,0,NA,NA,NA,NA,NA,NA,NA,NA,NA,NA,NA,NA,NA,NA,NA,NA,NA,NA,NA,NA,NA,NA,NA,NA
"535","stim/objects/Instruments/grandpiano3.png",455,33,448,0.9,"stim/63.jpeg",6,3,3,2,"Instruments",1,3,"left","left",0.381999969,1,1,1,0,NA,NA,NA,NA,NA,NA,NA,NA,NA,NA,NA,NA,NA,NA,NA,NA,NA,NA,NA,NA,NA,NA,NA,NA
"520","stim/objects/Instruments/gong3.png",456,33,449,0.9,"stim/61.jpeg",6,1,3,2,"Instruments",1,1,"left","right",0.246999979,0,0,1,0,NA,NA,NA,NA,NA,NA,NA,NA,NA,NA,NA,NA,NA,NA,NA,NA,NA,NA,NA,NA,NA,NA,NA,NA
"481","stim/objects/Instruments/flutetrans3.png",457,33,450,0.9,"stim/62.jpeg",6,2,3,2,"Instruments",1,4,"left","left",0.511999846,1,1,1,0,NA,NA,NA,NA,NA,NA,NA,NA,NA,NA,NA,NA,NA,NA,NA,NA,NA,NA,NA,NA,NA,NA,NA,NA
"505","stim/objects/Instruments/frenchhorn3.png",458,33,451,0.9,"stim/62.jpeg",6,2,3,2,"Instruments",1,2,"left","left",0.523000002,1,1,1,0,NA,NA,NA,NA,NA,NA,NA,NA,NA,NA,NA,NA,NA,NA,NA,NA,NA,NA,NA,NA,NA,NA,NA,NA
"374","stim/objects/HouseObjects/glass3.png",459,33,452,0.9,"stim/54.jpeg",5,4,3,2,"HouseObjects",2,1,"right","right",0.532999992,1,1,1,0,NA,NA,NA,NA,NA,NA,NA,NA,NA,NA,NA,NA,NA,NA,NA,NA,NA,NA,NA,NA,NA,NA,NA,NA
"287","stim/objects/HouseObjects/dishsoap3.png",460,33,453,0.7,"stim/31.jpeg",3,1,2,2,"HouseObjects",2,1,"right","left",0.638999701,0,0,1,0,NA,NA,NA,NA,NA,NA,NA,NA,NA,NA,NA,NA,NA,NA,NA,NA,NA,NA,NA,NA,NA,NA,NA,NA
"503","stim/objects/Instruments/frenchhorn3.png",461,33,454,0.9,"stim/61.jpeg",6,1,3,2,"Instruments",1,3,"left","left",0.654000044,1,1,1,0,NA,NA,NA,NA,NA,NA,NA,NA,NA,NA,NA,NA,NA,NA,NA,NA,NA,NA,NA,NA,NA,NA,NA,NA
"455","stim/objects/Instruments/electricguitar4.png",462,33,455,0.7,"stim/41.jpeg",4,1,2,1,"Instruments",1,3,"left","right",0.747999907,0,0,1,0,104,33,1,0.7,1,"stim/41.jpeg",4,1,"stim/41.jpeg",3,"right",0.701000214,2,2,0.562999964,2,0.268000126,104,0,0,NA,0,NA,1
"419","stim/objects/Instruments/bassdrum3.png",463,33,456,0.5,"stim/11.jpeg",1,1,1,2,"Instruments",1,3,"left","left",0.596999884,1,1,1,0,NA,NA,NA,NA,NA,NA,NA,NA,NA,NA,NA,NA,NA,NA,NA,NA,NA,NA,NA,NA,NA,NA,NA,NA
"247","stim/objects/HouseObjects/barbecuelighter3.png",464,33,457,0.5,"stim/12.jpeg",1,2,1,2,"HouseObjects",2,1,"right","left",0.569999933,0,0,1,0,NA,NA,NA,NA,NA,NA,NA,NA,NA,NA,NA,NA,NA,NA,NA,NA,NA,NA,NA,NA,NA,NA,NA,NA
"354","stim/objects/HouseObjects/garbagebin3.png",465,33,458,0.9,"stim/53.jpeg",5,3,3,2,"HouseObjects",2,3,"right","right",0.579999924,1,1,1,0,NA,NA,NA,NA,NA,NA,NA,NA,NA,NA,NA,NA,NA,NA,NA,NA,NA,NA,NA,NA,NA,NA,NA,NA
"554","stim/objects/Instruments/maraca4.png",466,33,459,0.9,"stim/62.jpeg",6,2,3,1,"Instruments",1,4,"left","left",0.570999861,1,1,1,0,176,33,1,0.9,1,"stim/62.jpeg",6,2,"stim/62.jpeg",4,"left",1.085000277,4,2,1.309000015,3,1.154000044,176,1,1,1,0,0,1
