"","participant","trial_index","trial_cond","scn_file","scn_cat","scn_inst","scn_condition","fillers","obj_cat","obj_cat_num","obj_file","quadrant","corr_ans","key_resp_trial.keys","key_resp_trial.rt","trial_acc","trial_acc_manual","group"
"1",54,1,0.5,"stim/34.jpeg",3,4,1,NA,"HouseObjects",1,"stim/objects/HouseObjects/scale.png",2,"left","",NA,0,0,0
"2",54,2,0.9,"stim/12.jpeg",1,2,3,NA,"Instruments",2,"stim/objects/Instruments/triangle2.png",2,"right","right",0.617999792,1,1,0
"3",54,3,0.3,"stim/54.jpeg",5,4,2,NA,"HouseObjects",1,"stim/objects/HouseObjects/wateringcan.png",2,"left","right",0.617000103,0,0,0
"4",54,4,0.7,"stim/52.jpeg",5,2,2,NA,"Instruments",2,"stim/objects/Instruments/violin.png",4,"right","right",0.600999832,1,1,0
"5",54,5,0.7,"stim/51.jpeg",5,1,2,NA,"Instruments",2,"stim/objects/Instruments/tuba.png",2,"right","right",0.612999916,1,1,0
"6",54,6,0.9,"stim/11.jpeg",1,1,3,NA,"Instruments",2,"stim/objects/Instruments/timbal2.png",1,"right","right",0.542999983,1,1,0
"7",54,7,0.9,"stim/24.jpeg",2,4,3,NA,"HouseObjects",1,"stim/objects/HouseObjects/wateringcan2.png",1,"left","left",0.653000116,1,1,0
"8",54,8,0.5,"stim/41.jpeg",4,1,1,NA,"Instruments",2,"stim/objects/Instruments/timbal.png",2,"right","right",0.478999853,1,1,0
"9",54,9,0.7,"stim/51.jpeg",5,1,2,NA,"Instruments",2,"stim/objects/Instruments/tuba.png",1,"right","right",0.552999973,1,1,0
"10",54,10,0.9,"stim/24.jpeg",2,4,3,NA,"HouseObjects",1,"stim/objects/HouseObjects/wateringcan2.png",3,"left","left",0.468999863,1,1,0
"11",54,11,0.5,"stim/32.jpeg",3,2,1,NA,"HouseObjects",1,"stim/objects/HouseObjects/safetypin.png",3,"left","right",0.628999949,0,0,0
"12",54,12,0.5,"stim/44.jpeg",4,4,1,NA,"HouseObjects",1,"stim/objects/HouseObjects/thermometer.png",3,"left","right",0.618000031,0,0,0
"13",54,13,0.5,"stim/33.jpeg",3,3,1,NA,"Instruments",2,"stim/objects/Instruments/speaker.png",1,"right","left",0.676000118,0,0,0
"14",54,14,0.3,"stim/52.jpeg",5,2,2,NA,"HouseObjects",1,"stim/objects/HouseObjects/towel.png",2,"left","right",0.638999939,0,0,0
"15",54,15,0.5,"stim/41.jpeg",4,1,1,NA,"HouseObjects",1,"stim/objects/HouseObjects/sponge.png",3,"left","right",0.619999886,0,0,0
"16",54,16,0.9,"stim/13.jpeg",1,3,3,NA,"Instruments",2,"stim/objects/Instruments/trombone2.png",4,"right","right",0.595999956,1,1,0
"17",54,17,0.1,"stim/24.jpeg",2,4,3,NA,"Instruments",2,"stim/objects/Instruments/xylophone2.png",3,"right","left",0.565000057,0,0,0
"18",54,18,0.9,"stim/24.jpeg",2,4,3,NA,"HouseObjects",1,"stim/objects/HouseObjects/wateringcan2.png",4,"left","left",0.616000175,1,1,0
"19",54,19,0.5,"stim/34.jpeg",3,4,1,NA,"Instruments",2,"stim/objects/Instruments/tambourine.png",1,"right","right",0.494999886,1,1,0
"20",54,20,0.5,"stim/33.jpeg",3,3,1,NA,"HouseObjects",1,"stim/objects/HouseObjects/saw.png",1,"left","right",0.468999863,0,0,0
"21",54,21,0.5,"stim/41.jpeg",4,1,1,NA,"Instruments",2,"stim/objects/Instruments/timbal.png",1,"right","right",0.640000105,1,1,0
"22",54,22,0.5,"stim/42.jpeg",4,2,1,NA,"HouseObjects",1,"stim/objects/HouseObjects/spraybottle.png",4,"left","right",0.653000116,0,0,0
"23",54,23,0.7,"stim/61.jpeg",6,1,2,NA,"HouseObjects",1,"stim/objects/HouseObjects/rug2.png",2,"left","left",0.619000196,1,1,0
"24",54,24,0.7,"stim/61.jpeg",6,1,2,NA,"HouseObjects",1,"stim/objects/HouseObjects/rug2.png",3,"left","left",0.457999945,1,1,0
"25",54,25,0.5,"stim/44.jpeg",4,4,1,NA,"HouseObjects",1,"stim/objects/HouseObjects/thermometer.png",2,"left","right",0.539000034,0,0,0
"26",54,26,0.5,"stim/34.jpeg",3,4,1,NA,"Instruments",2,"stim/objects/Instruments/tambourine.png",1,"right","right",0.555000067,1,1,0
"27",54,27,0.7,"stim/63.jpeg",6,3,2,NA,"HouseObjects",1,"stim/objects/HouseObjects/saw2.png",3,"left","left",0.618999958,1,1,0
"28",54,28,0.3,"stim/52.jpeg",5,2,2,NA,"HouseObjects",1,"stim/objects/HouseObjects/towel.png",4,"left","right",0.576999903,0,0,0
"29",54,29,0.3,"stim/61.jpeg",6,1,2,NA,"Instruments",2,"stim/objects/Instruments/record_player2.png",1,"right","left",0.542000055,0,0,0
"30",54,30,0.5,"stim/33.jpeg",3,3,1,NA,"HouseObjects",1,"stim/objects/HouseObjects/saw.png",3,"left","right",0.594000101,0,0,0
"31",54,31,0.9,"stim/11.jpeg",1,1,3,NA,"Instruments",2,"stim/objects/Instruments/timbal2.png",1,"right","right",0.523999929,1,1,0
"32",54,32,0.7,"stim/54.jpeg",5,4,2,NA,"Instruments",2,"stim/objects/Instruments/xylophone.png",4,"right","",NA,0,0,0
"33",54,33,0.7,"stim/61.jpeg",6,1,2,NA,"HouseObjects",1,"stim/objects/HouseObjects/rug2.png",2,"left","left",0.541000128,1,1,0
"34",54,34,0.9,"stim/12.jpeg",1,2,3,NA,"Instruments",2,"stim/objects/Instruments/triangle2.png",4,"right","right",0.519000053,1,1,0
"35",54,35,0.9,"stim/21.jpeg",2,1,3,NA,"HouseObjects",1,"stim/objects/HouseObjects/thread2.png",4,"left","left",0.588000059,1,1,0
"36",54,36,0.7,"stim/52.jpeg",5,2,2,NA,"Instruments",2,"stim/objects/Instruments/violin.png",2,"right","right",0.482000113,1,1,0
"37",54,37,0.7,"stim/61.jpeg",6,1,2,NA,"HouseObjects",1,"stim/objects/HouseObjects/rug2.png",1,"left","left",0.583999872,1,1,0
"38",54,38,0.9,"stim/22.jpeg",2,2,3,NA,"HouseObjects",1,"stim/objects/HouseObjects/towel2.png",3,"left","left",0.529999971,1,1,0
"39",54,39,0.5,"stim/34.jpeg",3,4,1,NA,"Instruments",2,"stim/objects/Instruments/tambourine.png",4,"right","",NA,0,0,0
"40",54,40,0.5,"stim/32.jpeg",3,2,1,NA,"Instruments",2,"stim/objects/Instruments/saxophone.png",3,"right","right",0.432999849,1,1,0
"41",54,41,0.7,"stim/52.jpeg",5,2,2,NA,"Instruments",2,"stim/objects/Instruments/violin.png",2,"right","left",0.473999977,0,0,0
"42",54,42,0.5,"stim/33.jpeg",3,3,1,NA,"HouseObjects",1,"stim/objects/HouseObjects/saw.png",1,"left","right",0.588000059,0,0,0
"43",54,43,0.9,"stim/14.jpeg",1,4,3,NA,"Instruments",2,"stim/objects/Instruments/trumpet2.png",1,"right","right",0.552000046,1,1,0
"44",54,44,0.9,"stim/13.jpeg",1,3,3,NA,"Instruments",2,"stim/objects/Instruments/trombone2.png",2,"right","right",0.565000057,1,1,0
"45",54,45,0.9,"stim/13.jpeg",1,3,3,NA,"Instruments",2,"stim/objects/Instruments/trombone2.png",2,"right","right",0.417999983,1,1,0
"46",54,46,0.7,"stim/52.jpeg",5,2,2,NA,"Instruments",2,"stim/objects/Instruments/violin.png",4,"right","right",0.585000038,1,1,0
"47",54,47,0.9,"stim/11.jpeg",1,1,3,NA,"Instruments",2,"stim/objects/Instruments/timbal2.png",1,"right","right",0.47300005,1,1,0
"48",54,48,0.3,"stim/64.jpeg",6,4,2,NA,"Instruments",2,"stim/objects/Instruments/tambourine2.png",1,"right","left",0.650000095,0,0,0
"49",54,49,0.5,"stim/42.jpeg",4,2,1,NA,"HouseObjects",1,"stim/objects/HouseObjects/spraybottle.png",2,"left","right",0.552000046,0,0,0
"50",54,50,0.9,"stim/11.jpeg",1,1,3,NA,"Instruments",2,"stim/objects/Instruments/timbal2.png",4,"right","right",0.542999983,1,1,0
"51",54,51,0.3,"stim/63.jpeg",6,3,2,NA,"Instruments",2,"stim/objects/Instruments/speaker2.png",1,"right","left",0.592000008,0,0,0
"52",54,52,0.9,"stim/11.jpeg",1,1,3,NA,"Instruments",2,"stim/objects/Instruments/timbal2.png",2,"right","right",0.521000147,1,1,0
"53",54,53,0.3,"stim/63.jpeg",6,3,2,NA,"Instruments",2,"stim/objects/Instruments/speaker2.png",3,"right","left",0.576999903,0,0,0
"54",54,54,0.3,"stim/64.jpeg",6,4,2,NA,"Instruments",2,"stim/objects/Instruments/tambourine2.png",4,"right","left",0.610000134,0,0,0
"55",54,55,0.9,"stim/21.jpeg",2,1,3,NA,"HouseObjects",1,"stim/objects/HouseObjects/thread2.png",2,"left","left",0.569999933,1,1,0
"56",54,56,0.7,"stim/52.jpeg",5,2,2,NA,"Instruments",2,"stim/objects/Instruments/violin.png",3,"right","right",0.549999952,1,1,0
"57",54,57,0.9,"stim/14.jpeg",1,4,3,NA,"Instruments",2,"stim/objects/Instruments/trumpet2.png",3,"right","right",0.482000113,1,1,0
"58",54,58,0.5,"stim/31.jpeg",3,1,1,NA,"Instruments",2,"stim/objects/Instruments/record_player.png",4,"right","right",0.88499999,1,1,0
"59",54,59,0.5,"stim/44.jpeg",4,4,1,NA,"Instruments",2,"stim/objects/Instruments/trumpet.png",4,"right","right",0.552999973,1,1,0
"60",54,60,0.7,"stim/53.jpeg",5,3,2,NA,"Instruments",2,"stim/objects/Instruments/vuvuzela.png",1,"right","right",0.643000126,1,1,0
"61",54,61,0.5,"stim/41.jpeg",4,1,1,NA,"HouseObjects",1,"stim/objects/HouseObjects/sponge.png",4,"left","",NA,0,0,0
"62",54,62,0.7,"stim/61.jpeg",6,1,2,NA,"HouseObjects",1,"stim/objects/HouseObjects/rug2.png",3,"left","left",0.718000174,1,1,0
"63",54,63,0.5,"stim/43.jpeg",4,3,1,NA,"HouseObjects",1,"stim/objects/HouseObjects/teapot.png",2,"left","right",0.627000093,0,0,0
"64",54,64,0.9,"stim/12.jpeg",1,2,3,NA,"Instruments",2,"stim/objects/Instruments/triangle2.png",1,"right","right",0.55099988,1,1,0
"65",54,65,0.1,"stim/23.jpeg",2,3,3,NA,"Instruments",2,"stim/objects/Instruments/vuvuzela2.png",2,"right","left",0.545000076,0,0,0
"66",54,66,0.1,"stim/14.jpeg",1,4,3,NA,"HouseObjects",1,"stim/objects/HouseObjects/thermometer2.png",3,"left","right",0.49000001,0,0,0
"67",54,67,0.3,"stim/62.jpeg",6,2,2,NA,"Instruments",2,"stim/objects/Instruments/saxophone2.png",4,"right","left",0.624000072,0,0,0
"68",54,68,0.9,"stim/23.jpeg",2,3,3,NA,"HouseObjects",1,"stim/objects/HouseObjects/vacuumcleaner2.png",3,"left","left",0.540999889,1,1,0
"69",54,69,0.9,"stim/12.jpeg",1,2,3,NA,"Instruments",2,"stim/objects/Instruments/triangle2.png",3,"right","right",0.522000074,1,1,0
"70",54,70,0.9,"stim/24.jpeg",2,4,3,NA,"HouseObjects",1,"stim/objects/HouseObjects/wateringcan2.png",4,"left","left",0.499000072,1,1,0
"71",54,71,0.5,"stim/43.jpeg",4,3,1,NA,"Instruments",2,"stim/objects/Instruments/trombone.png",4,"right","right",0.613000154,1,1,0
"72",54,72,0.3,"stim/54.jpeg",5,4,2,NA,"HouseObjects",1,"stim/objects/HouseObjects/wateringcan.png",3,"left","right",0.569000006,0,0,0
"73",54,73,0.9,"stim/22.jpeg",2,2,3,NA,"HouseObjects",1,"stim/objects/HouseObjects/towel2.png",2,"left","left",0.545000076,1,1,0
"74",54,74,0.3,"stim/53.jpeg",5,3,2,NA,"HouseObjects",1,"stim/objects/HouseObjects/vacuumcleaner.png",3,"left","right",0.542999983,0,0,0
"75",54,75,0.5,"stim/32.jpeg",3,2,1,NA,"Instruments",2,"stim/objects/Instruments/saxophone.png",1,"right","right",0.63499999,1,1,0
"76",54,76,0.5,"stim/33.jpeg",3,3,1,NA,"HouseObjects",1,"stim/objects/HouseObjects/saw.png",2,"left","left",0.786000013,1,1,0
"77",54,77,0.9,"stim/23.jpeg",2,3,3,NA,"HouseObjects",1,"stim/objects/HouseObjects/vacuumcleaner2.png",1,"left","left",0.542999983,1,1,0
"78",54,78,0.9,"stim/13.jpeg",1,3,3,NA,"Instruments",2,"stim/objects/Instruments/trombone2.png",3,"right","right",0.536000013,1,1,0
"79",54,79,0.7,"stim/54.jpeg",5,4,2,NA,"Instruments",2,"stim/objects/Instruments/xylophone.png",1,"right","left",0.807999849,0,0,0
"80",54,80,0.5,"stim/32.jpeg",3,2,1,NA,"HouseObjects",1,"stim/objects/HouseObjects/safetypin.png",4,"left","right",0.758000135,0,0,0
"81",54,81,0.7,"stim/53.jpeg",5,3,2,NA,"Instruments",2,"stim/objects/Instruments/vuvuzela.png",1,"right","right",0.548000097,1,1,0
"82",54,82,0.7,"stim/64.jpeg",6,4,2,NA,"HouseObjects",1,"stim/objects/HouseObjects/scale2.png",4,"left","left",0.504999876,1,1,0
"83",54,83,0.7,"stim/51.jpeg",5,1,2,NA,"Instruments",2,"stim/objects/Instruments/tuba.png",2,"right","right",0.572999954,1,1,0
"84",54,84,0.5,"stim/34.jpeg",3,4,1,NA,"HouseObjects",1,"stim/objects/HouseObjects/scale.png",2,"left","right",0.588999987,0,0,0
"85",54,85,0.9,"stim/21.jpeg",2,1,3,NA,"HouseObjects",1,"stim/objects/HouseObjects/thread2.png",4,"left","left",0.552000046,1,1,0
"86",54,86,0.5,"stim/42.jpeg",4,2,1,NA,"Instruments",2,"stim/objects/Instruments/triangle.png",2,"right","left",0.768999815,0,0,0
"87",54,87,0.5,"stim/34.jpeg",3,4,1,NA,"Instruments",2,"stim/objects/Instruments/tambourine.png",1,"right","right",0.756999969,1,1,0
"88",54,88,0.5,"stim/44.jpeg",4,4,1,NA,"Instruments",2,"stim/objects/Instruments/trumpet.png",2,"right","right",0.680999994,1,1,0
"89",54,89,0.3,"stim/61.jpeg",6,1,2,NA,"Instruments",2,"stim/objects/Instruments/record_player2.png",1,"right","left",0.559000015,0,0,0
"90",54,90,0.7,"stim/51.jpeg",5,1,2,NA,"Instruments",2,"stim/objects/Instruments/tuba.png",2,"right","right",0.453999996,1,1,0
"91",54,91,0.9,"stim/13.jpeg",1,3,3,NA,"Instruments",2,"stim/objects/Instruments/trombone2.png",2,"right","right",0.524999857,1,1,0
"92",54,92,0.7,"stim/62.jpeg",6,2,2,NA,"HouseObjects",1,"stim/objects/HouseObjects/safetypin2.png",1,"left","left",0.671999931,1,1,0
"93",54,93,0.5,"stim/31.jpeg",3,1,1,NA,"HouseObjects",1,"stim/objects/HouseObjects/rug.png",3,"left","right",0.569000006,0,0,0
"94",54,94,0.9,"stim/11.jpeg",1,1,3,NA,"Instruments",2,"stim/objects/Instruments/timbal2.png",1,"right","right",0.563999891,1,1,0
"95",54,95,0.9,"stim/24.jpeg",2,4,3,NA,"HouseObjects",1,"stim/objects/HouseObjects/wateringcan2.png",1,"left","left",0.510999918,1,1,0
"96",54,96,0.5,"stim/43.jpeg",4,3,1,NA,"Instruments",2,"stim/objects/Instruments/trombone.png",3,"right","right",0.671000004,1,1,0
"97",54,97,0.9,"stim/12.jpeg",1,2,3,NA,"Instruments",2,"stim/objects/Instruments/triangle2.png",3,"right","right",0.564999819,1,1,0
"98",54,98,0.7,"stim/51.jpeg",5,1,2,NA,"Instruments",2,"stim/objects/Instruments/tuba.png",1,"right","right",0.59100008,1,1,0
"99",54,99,0.5,"stim/33.jpeg",3,3,1,NA,"Instruments",2,"stim/objects/Instruments/speaker.png",3,"right","right",0.606000185,1,1,0
"100",54,100,0.3,"stim/51.jpeg",5,1,2,NA,"HouseObjects",1,"stim/objects/HouseObjects/thread.png",2,"left","right",0.510999918,0,0,0
"101",54,101,0.1,"stim/12.jpeg",1,2,3,NA,"HouseObjects",1,"stim/objects/HouseObjects/spraybottle2.png",3,"left","right",0.518000126,0,0,0
"102",54,102,0.7,"stim/52.jpeg",5,2,2,NA,"Instruments",2,"stim/objects/Instruments/violin.png",3,"right","right",0.550000191,1,1,0
"103",54,103,0.5,"stim/31.jpeg",3,1,1,NA,"Instruments",2,"stim/objects/Instruments/record_player.png",1,"right","left",0.809999943,0,0,0
"104",54,104,0.5,"stim/42.jpeg",4,2,1,NA,"HouseObjects",1,"stim/objects/HouseObjects/spraybottle.png",4,"left","left",0.766000032,1,1,0
"105",54,105,0.7,"stim/64.jpeg",6,4,2,NA,"HouseObjects",1,"stim/objects/HouseObjects/scale2.png",4,"left","left",0.575000048,1,1,0
"106",54,106,0.7,"stim/54.jpeg",5,4,2,NA,"Instruments",2,"stim/objects/Instruments/xylophone.png",2,"right","left",0.657999992,0,0,0
"107",54,107,0.5,"stim/44.jpeg",4,4,1,NA,"Instruments",2,"stim/objects/Instruments/trumpet.png",3,"right","right",0.705000162,1,1,0
"108",54,108,0.9,"stim/22.jpeg",2,2,3,NA,"HouseObjects",1,"stim/objects/HouseObjects/towel2.png",3,"left","left",0.572000027,1,1,0
"109",54,109,0.3,"stim/63.jpeg",6,3,2,NA,"Instruments",2,"stim/objects/Instruments/speaker2.png",4,"right","left",0.585999966,0,0,0
"110",54,110,0.7,"stim/64.jpeg",6,4,2,NA,"HouseObjects",1,"stim/objects/HouseObjects/scale2.png",4,"left","left",0.578000069,1,1,0
"111",54,111,0.9,"stim/14.jpeg",1,4,3,NA,"Instruments",2,"stim/objects/Instruments/trumpet2.png",3,"right","right",0.580000162,1,1,0
"112",54,112,0.5,"stim/33.jpeg",3,3,1,NA,"Instruments",2,"stim/objects/Instruments/speaker.png",3,"right","left",0.809999943,0,0,0
"113",54,113,0.7,"stim/62.jpeg",6,2,2,NA,"HouseObjects",1,"stim/objects/HouseObjects/safetypin2.png",1,"left","left",0.572000027,1,1,0
"114",54,114,0.9,"stim/11.jpeg",1,1,3,NA,"Instruments",2,"stim/objects/Instruments/timbal2.png",1,"right","right",0.431999922,1,1,0
"115",54,115,0.5,"stim/32.jpeg",3,2,1,NA,"Instruments",2,"stim/objects/Instruments/saxophone.png",4,"right","left",0.610000134,0,0,0
"116",54,116,0.9,"stim/22.jpeg",2,2,3,NA,"HouseObjects",1,"stim/objects/HouseObjects/towel2.png",2,"left","left",0.510999918,1,1,0
"117",54,117,0.5,"stim/43.jpeg",4,3,1,NA,"HouseObjects",1,"stim/objects/HouseObjects/teapot.png",4,"left","right",0.555999994,0,0,0
"118",54,118,0.5,"stim/32.jpeg",3,2,1,NA,"Instruments",2,"stim/objects/Instruments/saxophone.png",1,"right","right",0.693000078,1,1,0
"119",54,119,0.7,"stim/62.jpeg",6,2,2,NA,"HouseObjects",1,"stim/objects/HouseObjects/safetypin2.png",2,"left","left",0.559999943,1,1,0
"120",54,120,0.7,"stim/54.jpeg",5,4,2,NA,"Instruments",2,"stim/objects/Instruments/xylophone.png",3,"right","right",0.506000042,1,1,0
"121",54,121,0.7,"stim/63.jpeg",6,3,2,NA,"HouseObjects",1,"stim/objects/HouseObjects/saw2.png",2,"left","left",0.579999924,1,1,0
"122",54,122,0.7,"stim/63.jpeg",6,3,2,NA,"HouseObjects",1,"stim/objects/HouseObjects/saw2.png",4,"left","left",0.555999994,1,1,0
"123",54,123,0.5,"stim/44.jpeg",4,4,1,NA,"Instruments",2,"stim/objects/Instruments/trumpet.png",3,"right","right",0.55700016,1,1,0
"124",54,124,0.5,"stim/43.jpeg",4,3,1,NA,"HouseObjects",1,"stim/objects/HouseObjects/teapot.png",4,"left","right",0.530999899,0,0,0
"125",54,125,0.3,"stim/51.jpeg",5,1,2,NA,"HouseObjects",1,"stim/objects/HouseObjects/thread.png",4,"left","right",0.570999861,0,0,0
"126",54,126,0.5,"stim/41.jpeg",4,1,1,NA,"Instruments",2,"stim/objects/Instruments/timbal.png",2,"right","right",0.789000034,1,1,0
"127",54,127,0.9,"stim/21.jpeg",2,1,3,NA,"HouseObjects",1,"stim/objects/HouseObjects/thread2.png",1,"left","left",0.572000027,1,1,0
"128",54,128,0.7,"stim/62.jpeg",6,2,2,NA,"HouseObjects",1,"stim/objects/HouseObjects/safetypin2.png",4,"left","left",0.595000029,1,1,0
"129",54,129,0.7,"stim/63.jpeg",6,3,2,NA,"HouseObjects",1,"stim/objects/HouseObjects/saw2.png",4,"left","left",0.56799984,1,1,0
"130",54,130,0.9,"stim/24.jpeg",2,4,3,NA,"HouseObjects",1,"stim/objects/HouseObjects/wateringcan2.png",3,"left","left",0.536999941,1,1,0
"131",54,131,0.7,"stim/53.jpeg",5,3,2,NA,"Instruments",2,"stim/objects/Instruments/vuvuzela.png",2,"right","right",0.562000036,1,1,0
"132",54,132,0.5,"stim/44.jpeg",4,4,1,NA,"HouseObjects",1,"stim/objects/HouseObjects/thermometer.png",2,"left","right",0.631999969,0,0,0
"133",54,133,0.9,"stim/22.jpeg",2,2,3,NA,"HouseObjects",1,"stim/objects/HouseObjects/towel2.png",1,"left","left",0.489000082,1,1,0
"134",54,134,0.3,"stim/62.jpeg",6,2,2,NA,"Instruments",2,"stim/objects/Instruments/saxophone2.png",4,"right","left",0.539000034,0,0,0
"135",54,135,0.5,"stim/32.jpeg",3,2,1,NA,"HouseObjects",1,"stim/objects/HouseObjects/safetypin.png",1,"left","right",0.687999964,0,0,0
"136",54,136,0.5,"stim/31.jpeg",3,1,1,NA,"HouseObjects",1,"stim/objects/HouseObjects/rug.png",3,"left","right",0.664000034,0,0,0
"137",54,137,0.9,"stim/22.jpeg",2,2,3,NA,"HouseObjects",1,"stim/objects/HouseObjects/towel2.png",4,"left","left",0.470000029,1,1,0
"138",54,138,0.9,"stim/14.jpeg",1,4,3,NA,"Instruments",2,"stim/objects/Instruments/trumpet2.png",3,"right","right",0.550000191,1,1,0
"139",54,139,0.5,"stim/44.jpeg",4,4,1,NA,"Instruments",2,"stim/objects/Instruments/trumpet.png",1,"right","right",0.587000132,1,1,0
"140",54,140,0.7,"stim/54.jpeg",5,4,2,NA,"Instruments",2,"stim/objects/Instruments/xylophone.png",1,"right","right",0.592999935,1,1,0
"141",54,141,0.7,"stim/51.jpeg",5,1,2,NA,"Instruments",2,"stim/objects/Instruments/tuba.png",3,"right","right",0.585999966,1,1,0
"142",54,142,0.3,"stim/62.jpeg",6,2,2,NA,"Instruments",2,"stim/objects/Instruments/saxophone2.png",3,"right","left",0.527000189,0,0,0
"143",54,143,0.1,"stim/11.jpeg",1,1,3,NA,"HouseObjects",1,"stim/objects/HouseObjects/sponge2.png",2,"left","right",0.548000097,0,0,0
"144",54,144,0.5,"stim/42.jpeg",4,2,1,NA,"HouseObjects",1,"stim/objects/HouseObjects/spraybottle.png",4,"left","right",0.707000017,0,0,0
"145",54,145,0.5,"stim/41.jpeg",4,1,1,NA,"HouseObjects",1,"stim/objects/HouseObjects/sponge.png",2,"left","right",0.558000088,0,0,0
"146",54,146,0.5,"stim/43.jpeg",4,3,1,NA,"HouseObjects",1,"stim/objects/HouseObjects/teapot.png",4,"left","left",0.821999788,1,1,0
"147",54,147,0.1,"stim/21.jpeg",2,1,3,NA,"Instruments",2,"stim/objects/Instruments/tuba2.png",1,"right","left",0.51699996,0,0,0
"148",54,148,0.5,"stim/42.jpeg",4,2,1,NA,"Instruments",2,"stim/objects/Instruments/triangle.png",3,"right","right",0.789999962,1,1,0
"149",54,149,0.9,"stim/23.jpeg",2,3,3,NA,"HouseObjects",1,"stim/objects/HouseObjects/vacuumcleaner2.png",4,"left","left",0.505000114,1,1,0
"150",54,150,0.7,"stim/61.jpeg",6,1,2,NA,"HouseObjects",1,"stim/objects/HouseObjects/rug2.png",3,"left","left",0.566999912,1,1,0
"151",54,151,0.9,"stim/24.jpeg",2,4,3,NA,"HouseObjects",1,"stim/objects/HouseObjects/wateringcan2.png",2,"left","left",0.493999958,1,1,0
"152",54,152,0.7,"stim/53.jpeg",5,3,2,NA,"Instruments",2,"stim/objects/Instruments/vuvuzela.png",4,"right","right",0.534000158,1,1,0
"153",54,153,0.5,"stim/34.jpeg",3,4,1,NA,"HouseObjects",1,"stim/objects/HouseObjects/scale.png",3,"left","right",0.686000109,0,0,0
"154",54,154,0.5,"stim/42.jpeg",4,2,1,NA,"HouseObjects",1,"stim/objects/HouseObjects/spraybottle.png",4,"left","right",0.707999945,0,0,0
"155",54,155,0.9,"stim/22.jpeg",2,2,3,NA,"HouseObjects",1,"stim/objects/HouseObjects/towel2.png",3,"left","left",0.553999901,1,1,0
"156",54,156,0.5,"stim/34.jpeg",3,4,1,NA,"HouseObjects",1,"stim/objects/HouseObjects/scale.png",4,"left","left",0.776000023,1,1,0
"157",54,157,0.5,"stim/32.jpeg",3,2,1,NA,"Instruments",2,"stim/objects/Instruments/saxophone.png",1,"right","right",0.620999813,1,1,0
"158",54,158,0.9,"stim/21.jpeg",2,1,3,NA,"HouseObjects",1,"stim/objects/HouseObjects/thread2.png",2,"left","left",0.506999969,1,1,0
"159",54,159,0.5,"stim/44.jpeg",4,4,1,NA,"HouseObjects",1,"stim/objects/HouseObjects/thermometer.png",1,"left","right",0.590000153,0,0,0
"160",54,160,0.9,"stim/23.jpeg",2,3,3,NA,"HouseObjects",1,"stim/objects/HouseObjects/vacuumcleaner2.png",1,"left","left",0.552000046,1,1,0
"161",54,161,0.9,"stim/14.jpeg",1,4,3,NA,"Instruments",2,"stim/objects/Instruments/trumpet2.png",3,"right","right",0.505000114,1,1,0
"162",54,162,0.9,"stim/13.jpeg",1,3,3,NA,"Instruments",2,"stim/objects/Instruments/trombone2.png",4,"right","right",0.588999987,1,1,0
"163",54,163,0.5,"stim/31.jpeg",3,1,1,NA,"HouseObjects",1,"stim/objects/HouseObjects/rug.png",2,"left","left",0.789999962,1,1,0
"164",54,164,0.5,"stim/41.jpeg",4,1,1,NA,"Instruments",2,"stim/objects/Instruments/timbal.png",2,"right","right",0.602999926,1,1,0
"165",54,165,0.5,"stim/33.jpeg",3,3,1,NA,"Instruments",2,"stim/objects/Instruments/speaker.png",2,"right","left",0.68900013,0,0,0
"166",54,166,0.5,"stim/31.jpeg",3,1,1,NA,"Instruments",2,"stim/objects/Instruments/record_player.png",1,"right","left",0.743000031,0,0,0
"167",54,167,0.9,"stim/22.jpeg",2,2,3,NA,"HouseObjects",1,"stim/objects/HouseObjects/towel2.png",2,"left","left",0.572000027,1,1,0
"168",54,168,0.9,"stim/12.jpeg",1,2,3,NA,"Instruments",2,"stim/objects/Instruments/triangle2.png",1,"right","right",0.536999941,1,1,0
"169",54,169,0.9,"stim/24.jpeg",2,4,3,NA,"HouseObjects",1,"stim/objects/HouseObjects/wateringcan2.png",2,"left","left",0.509000063,1,1,0
"170",54,170,0.5,"stim/42.jpeg",4,2,1,NA,"Instruments",2,"stim/objects/Instruments/triangle.png",2,"right","",NA,0,0,0
"171",54,171,0.7,"stim/54.jpeg",5,4,2,NA,"Instruments",2,"stim/objects/Instruments/xylophone.png",1,"right","right",0.589999914,1,1,0
"172",54,172,0.5,"stim/43.jpeg",4,3,1,NA,"Instruments",2,"stim/objects/Instruments/trombone.png",4,"right","left",0.802999973,0,0,0
"173",54,173,0.7,"stim/64.jpeg",6,4,2,NA,"HouseObjects",1,"stim/objects/HouseObjects/scale2.png",2,"left","left",0.546999931,1,1,0
"174",54,174,0.7,"stim/64.jpeg",6,4,2,NA,"HouseObjects",1,"stim/objects/HouseObjects/scale2.png",4,"left","left",0.509000063,1,1,0
"175",54,175,0.9,"stim/12.jpeg",1,2,3,NA,"Instruments",2,"stim/objects/Instruments/triangle2.png",3,"right","right",0.594000101,1,1,0
"176",54,176,0.9,"stim/23.jpeg",2,3,3,NA,"HouseObjects",1,"stim/objects/HouseObjects/vacuumcleaner2.png",4,"left","left",0.556999922,1,1,0
"177",54,177,0.5,"stim/31.jpeg",3,1,1,NA,"Instruments",2,"stim/objects/Instruments/record_player.png",1,"right","left",0.676000118,0,0,0
"178",54,178,0.7,"stim/62.jpeg",6,2,2,NA,"HouseObjects",1,"stim/objects/HouseObjects/safetypin2.png",3,"left","left",0.555999994,1,1,0
"179",54,179,0.9,"stim/13.jpeg",1,3,3,NA,"Instruments",2,"stim/objects/Instruments/trombone2.png",2,"right","right",0.569999933,1,1,0
"180",54,180,0.5,"stim/44.jpeg",4,4,1,NA,"HouseObjects",1,"stim/objects/HouseObjects/thermometer.png",3,"left","right",0.592000008,0,0,0
"181",54,181,0.5,"stim/32.jpeg",3,2,1,NA,"HouseObjects",1,"stim/objects/HouseObjects/safetypin.png",4,"left","right",0.671000004,0,0,0
"182",54,182,0.9,"stim/14.jpeg",1,4,3,NA,"Instruments",2,"stim/objects/Instruments/trumpet2.png",2,"right","right",0.601999998,1,1,0
"183",54,183,0.5,"stim/43.jpeg",4,3,1,NA,"Instruments",2,"stim/objects/Instruments/trombone.png",3,"right","left",0.858999968,0,0,0
"184",54,184,0.9,"stim/13.jpeg",1,3,3,NA,"Instruments",2,"stim/objects/Instruments/trombone2.png",3,"right","right",0.657999992,1,1,0
"185",54,185,0.7,"stim/64.jpeg",6,4,2,NA,"HouseObjects",1,"stim/objects/HouseObjects/scale2.png",2,"left","left",0.549999952,1,1,0
"186",54,186,0.7,"stim/63.jpeg",6,3,2,NA,"HouseObjects",1,"stim/objects/HouseObjects/saw2.png",3,"left","left",0.470999956,1,1,0
"187",54,187,0.5,"stim/41.jpeg",4,1,1,NA,"HouseObjects",1,"stim/objects/HouseObjects/sponge.png",3,"left","right",0.723999977,0,0,0
"188",54,188,0.7,"stim/52.jpeg",5,2,2,NA,"Instruments",2,"stim/objects/Instruments/violin.png",2,"right","right",0.611000061,1,1,0
"189",54,189,0.7,"stim/51.jpeg",5,1,2,NA,"Instruments",2,"stim/objects/Instruments/tuba.png",1,"right","right",0.620000124,1,1,0
"190",54,190,0.5,"stim/41.jpeg",4,1,1,NA,"HouseObjects",1,"stim/objects/HouseObjects/sponge.png",4,"left","right",0.677999973,0,0,0
"191",54,191,0.9,"stim/11.jpeg",1,1,3,NA,"Instruments",2,"stim/objects/Instruments/timbal2.png",2,"right","right",0.587000132,1,1,0
"192",54,192,0.7,"stim/63.jpeg",6,3,2,NA,"HouseObjects",1,"stim/objects/HouseObjects/saw2.png",3,"left","left",0.556999922,1,1,0
"193",54,193,0.5,"stim/41.jpeg",4,1,1,NA,"Instruments",2,"stim/objects/Instruments/timbal.png",4,"right","right",0.598999977,1,1,0
"194",54,194,0.9,"stim/21.jpeg",2,1,3,NA,"HouseObjects",1,"stim/objects/HouseObjects/thread2.png",4,"left","left",0.546000004,1,1,0
"195",54,195,0.9,"stim/11.jpeg",1,1,3,NA,"Instruments",2,"stim/objects/Instruments/timbal2.png",4,"right","right",0.479000092,1,1,0
"196",54,196,0.5,"stim/31.jpeg",3,1,1,NA,"Instruments",2,"stim/objects/Instruments/record_player.png",2,"right","left",0.611000061,0,0,0
"197",54,197,0.9,"stim/23.jpeg",2,3,3,NA,"HouseObjects",1,"stim/objects/HouseObjects/vacuumcleaner2.png",4,"left","left",0.518000126,1,1,0
"198",54,198,0.9,"stim/12.jpeg",1,2,3,NA,"Instruments",2,"stim/objects/Instruments/triangle2.png",1,"right","right",0.575000048,1,1,0
"199",54,199,0.9,"stim/12.jpeg",1,2,3,NA,"Instruments",2,"stim/objects/Instruments/triangle2.png",1,"right","right",0.524999857,1,1,0
"200",54,200,0.7,"stim/54.jpeg",5,4,2,NA,"Instruments",2,"stim/objects/Instruments/xylophone.png",1,"right","right",0.660000086,1,1,0
"201",54,201,0.3,"stim/64.jpeg",6,4,2,NA,"Instruments",2,"stim/objects/Instruments/tambourine2.png",3,"right","left",0.536000013,0,0,0
"202",54,202,0.5,"stim/43.jpeg",4,3,1,NA,"HouseObjects",1,"stim/objects/HouseObjects/teapot.png",2,"left","left",0.690000057,1,1,0
"203",54,203,0.7,"stim/61.jpeg",6,1,2,NA,"HouseObjects",1,"stim/objects/HouseObjects/rug2.png",1,"left","left",0.598999977,1,1,0
"204",54,204,0.5,"stim/34.jpeg",3,4,1,NA,"HouseObjects",1,"stim/objects/HouseObjects/scale.png",3,"left","left",0.659999847,1,1,0
"205",54,205,0.7,"stim/64.jpeg",6,4,2,NA,"HouseObjects",1,"stim/objects/HouseObjects/scale2.png",3,"left","left",0.595000029,1,1,0
"206",54,206,0.7,"stim/63.jpeg",6,3,2,NA,"HouseObjects",1,"stim/objects/HouseObjects/saw2.png",4,"left","left",0.549999952,1,1,0
"207",54,207,0.3,"stim/61.jpeg",6,1,2,NA,"Instruments",2,"stim/objects/Instruments/record_player2.png",3,"right","left",0.489000082,0,0,0
"208",54,208,0.3,"stim/54.jpeg",5,4,2,NA,"HouseObjects",1,"stim/objects/HouseObjects/wateringcan.png",2,"left","right",0.868999958,0,0,0
"209",54,209,0.5,"stim/33.jpeg",3,3,1,NA,"HouseObjects",1,"stim/objects/HouseObjects/saw.png",3,"left","left",0.671000004,1,1,0
"210",54,210,0.9,"stim/21.jpeg",2,1,3,NA,"HouseObjects",1,"stim/objects/HouseObjects/thread2.png",1,"left","left",0.539000034,1,1,0
"211",54,211,0.9,"stim/23.jpeg",2,3,3,NA,"HouseObjects",1,"stim/objects/HouseObjects/vacuumcleaner2.png",3,"left","left",0.559000015,1,1,0
"212",54,212,0.3,"stim/52.jpeg",5,2,2,NA,"HouseObjects",1,"stim/objects/HouseObjects/towel.png",1,"left","right",0.631000042,0,0,0
"213",54,213,0.7,"stim/53.jpeg",5,3,2,NA,"Instruments",2,"stim/objects/Instruments/vuvuzela.png",2,"right","right",0.607000113,1,1,0
"214",54,214,0.9,"stim/23.jpeg",2,3,3,NA,"HouseObjects",1,"stim/objects/HouseObjects/vacuumcleaner2.png",2,"left","left",0.502999783,1,1,0
"215",54,215,0.5,"stim/32.jpeg",3,2,1,NA,"HouseObjects",1,"stim/objects/HouseObjects/safetypin.png",3,"left","right",0.744999886,0,0,0
"216",54,216,0.3,"stim/53.jpeg",5,3,2,NA,"HouseObjects",1,"stim/objects/HouseObjects/vacuumcleaner.png",4,"left","right",0.770999908,0,0,0
"217",54,217,0.9,"stim/14.jpeg",1,4,3,NA,"Instruments",2,"stim/objects/Instruments/trumpet2.png",2,"right","right",0.578999996,1,1,0
"218",54,218,0.3,"stim/51.jpeg",5,1,2,NA,"HouseObjects",1,"stim/objects/HouseObjects/thread.png",1,"left","right",0.697999954,0,0,0
"219",54,219,0.9,"stim/24.jpeg",2,4,3,NA,"HouseObjects",1,"stim/objects/HouseObjects/wateringcan2.png",4,"left","left",0.553999901,1,1,0
"220",54,220,0.5,"stim/43.jpeg",4,3,1,NA,"Instruments",2,"stim/objects/Instruments/trombone.png",4,"right","left",0.653000116,0,0,0
"221",54,221,0.9,"stim/23.jpeg",2,3,3,NA,"HouseObjects",1,"stim/objects/HouseObjects/vacuumcleaner2.png",4,"left","left",0.539999962,1,1,0
"222",54,222,0.9,"stim/22.jpeg",2,2,3,NA,"HouseObjects",1,"stim/objects/HouseObjects/towel2.png",4,"left","left",0.552999973,1,1,0
"223",54,223,0.5,"stim/33.jpeg",3,3,1,NA,"Instruments",2,"stim/objects/Instruments/speaker.png",1,"right","left",0.601999998,0,0,0
"224",54,224,0.9,"stim/21.jpeg",2,1,3,NA,"HouseObjects",1,"stim/objects/HouseObjects/thread2.png",4,"left","left",0.510999918,1,1,0
"225",54,225,0.9,"stim/14.jpeg",1,4,3,NA,"Instruments",2,"stim/objects/Instruments/trumpet2.png",4,"right","right",0.605999947,1,1,0
"226",54,226,0.7,"stim/62.jpeg",6,2,2,NA,"HouseObjects",1,"stim/objects/HouseObjects/safetypin2.png",3,"left","left",0.570000172,1,1,0
"227",54,227,0.5,"stim/34.jpeg",3,4,1,NA,"Instruments",2,"stim/objects/Instruments/tambourine.png",2,"right","left",0.572999954,0,0,0
"228",54,228,0.5,"stim/42.jpeg",4,2,1,NA,"Instruments",2,"stim/objects/Instruments/triangle.png",1,"right","right",0.804000139,1,1,0
"229",54,229,0.7,"stim/53.jpeg",5,3,2,NA,"Instruments",2,"stim/objects/Instruments/vuvuzela.png",1,"right","right",0.561999798,1,1,0
"230",54,230,0.9,"stim/14.jpeg",1,4,3,NA,"Instruments",2,"stim/objects/Instruments/trumpet2.png",1,"right","right",0.493999958,1,1,0
"231",54,231,0.1,"stim/13.jpeg",1,3,3,NA,"HouseObjects",1,"stim/objects/HouseObjects/teapot2.png",1,"left","right",0.519999981,0,0,0
"232",54,232,0.5,"stim/31.jpeg",3,1,1,NA,"HouseObjects",1,"stim/objects/HouseObjects/rug.png",1,"left","left",0.615999937,1,1,0
"233",54,233,0.7,"stim/53.jpeg",5,3,2,NA,"Instruments",2,"stim/objects/Instruments/vuvuzela.png",4,"right","right",0.743000031,1,1,0
"234",54,234,0.3,"stim/53.jpeg",5,3,2,NA,"HouseObjects",1,"stim/objects/HouseObjects/vacuumcleaner.png",3,"left","right",0.509000063,0,0,0
"235",54,235,0.7,"stim/62.jpeg",6,2,2,NA,"HouseObjects",1,"stim/objects/HouseObjects/safetypin2.png",2,"left","left",0.522000074,1,1,0
"236",54,236,0.5,"stim/42.jpeg",4,2,1,NA,"Instruments",2,"stim/objects/Instruments/triangle.png",1,"right","right",0.627000093,1,1,0
"237",54,237,0.9,"stim/13.jpeg",1,3,3,NA,"Instruments",2,"stim/objects/Instruments/trombone2.png",3,"right","right",0.568000078,1,1,0
"238",54,238,0.5,"stim/31.jpeg",3,1,1,NA,"HouseObjects",1,"stim/objects/HouseObjects/rug.png",2,"left","left",0.565999985,1,1,0
"239",54,239,0.9,"stim/21.jpeg",2,1,3,NA,"HouseObjects",1,"stim/objects/HouseObjects/thread2.png",2,"left","left",0.521000147,1,1,0
"240",54,240,0.1,"stim/22.jpeg",2,2,3,NA,"Instruments",2,"stim/objects/Instruments/violin2.png",4,"right","left",0.523999929,0,0,0
