"","obj_file","X.x","participant.x","trialN.x","trial_cond","scn_file.x","scn_cat","scn_inst","scn_condition","fillers","obj_cat","obj_cat_num","quadrant","corr_ans","key_resp_trial.keys","key_resp_trial.rt","trial_acc","trial_acc_manual","group.x","practice","X.y","participant.y","OvsN","PE_level","object_cat","scn_file.y","corr_scn_cat","corr_scn_inst","scn_file.1","corr_loc","key_resp_id.keys","key_resp_id.rt","key_resp_conf.keys","key_resp_assoc.keys","key_resp_assoc.rt","key_resp_loc.keys","key_resp_loc.rt","trialN.y","id_acc","assoc.acc","cond_assoc","loc.acc","cond_loc","group.y"
"37","stim/objects/HouseObjects/scale.png",1,54,1,0.5,"stim/34.jpeg",3,4,1,NA,"HouseObjects",1,2,"left","",NA,0,0,0,1,NA,NA,NA,NA,NA,NA,NA,NA,NA,NA,NA,NA,NA,NA,NA,NA,NA,NA,NA,NA,NA,NA,NA,NA
"172","stim/objects/Instruments/triangle2.png",2,54,2,0.9,"stim/12.jpeg",1,2,3,NA,"Instruments",2,2,"right","right",0.617999792,1,1,0,1,NA,NA,NA,NA,NA,NA,NA,NA,NA,NA,NA,NA,NA,NA,NA,NA,NA,NA,NA,NA,NA,NA,NA,NA
"109","stim/objects/HouseObjects/wateringcan.png",3,54,3,0.3,"stim/54.jpeg",5,4,2,NA,"HouseObjects",1,2,"left","right",0.617000103,0,0,0,1,NA,NA,NA,NA,NA,NA,NA,NA,NA,NA,NA,NA,NA,NA,NA,NA,NA,NA,NA,NA,NA,NA,NA,NA
"217","stim/objects/Instruments/violin.png",4,54,4,0.7,"stim/52.jpeg",5,2,2,NA,"Instruments",2,4,"right","right",0.600999832,1,1,0,1,NA,NA,NA,NA,NA,NA,NA,NA,NA,NA,NA,NA,NA,NA,NA,NA,NA,NA,NA,NA,NA,NA,NA,NA
"209","stim/objects/Instruments/tuba.png",5,54,5,0.7,"stim/51.jpeg",5,1,2,NA,"Instruments",2,2,"right","right",0.612999916,1,1,0,1,NA,NA,NA,NA,NA,NA,NA,NA,NA,NA,NA,NA,NA,NA,NA,NA,NA,NA,NA,NA,NA,NA,NA,NA
"158","stim/objects/Instruments/timbal2.png",6,54,6,0.9,"stim/11.jpeg",1,1,3,NA,"Instruments",2,1,"right","right",0.542999983,1,1,0,1,NA,NA,NA,NA,NA,NA,NA,NA,NA,NA,NA,NA,NA,NA,NA,NA,NA,NA,NA,NA,NA,NA,NA,NA
"112","stim/objects/HouseObjects/wateringcan2.png",7,54,7,0.9,"stim/24.jpeg",2,4,3,NA,"HouseObjects",1,1,"left","left",0.653000116,1,1,0,1,NA,NA,NA,NA,NA,NA,NA,NA,NA,NA,NA,NA,NA,NA,NA,NA,NA,NA,NA,NA,NA,NA,NA,NA
"153","stim/objects/Instruments/timbal.png",8,54,8,0.5,"stim/41.jpeg",4,1,1,NA,"Instruments",2,2,"right","right",0.478999853,1,1,0,1,NA,NA,NA,NA,NA,NA,NA,NA,NA,NA,NA,NA,NA,NA,NA,NA,NA,NA,NA,NA,NA,NA,NA,NA
"210","stim/objects/Instruments/tuba.png",9,54,9,0.7,"stim/51.jpeg",5,1,2,NA,"Instruments",2,1,"right","right",0.552999973,1,1,0,1,NA,NA,NA,NA,NA,NA,NA,NA,NA,NA,NA,NA,NA,NA,NA,NA,NA,NA,NA,NA,NA,NA,NA,NA
"113","stim/objects/HouseObjects/wateringcan2.png",10,54,10,0.9,"stim/24.jpeg",2,4,3,NA,"HouseObjects",1,3,"left","left",0.468999863,1,1,0,1,NA,NA,NA,NA,NA,NA,NA,NA,NA,NA,NA,NA,NA,NA,NA,NA,NA,NA,NA,NA,NA,NA,NA,NA
"13","stim/objects/HouseObjects/safetypin.png",11,54,11,0.5,"stim/32.jpeg",3,2,1,NA,"HouseObjects",1,3,"left","right",0.628999949,0,0,0,1,NA,NA,NA,NA,NA,NA,NA,NA,NA,NA,NA,NA,NA,NA,NA,NA,NA,NA,NA,NA,NA,NA,NA,NA
"67","stim/objects/HouseObjects/thermometer.png",12,54,12,0.5,"stim/44.jpeg",4,4,1,NA,"HouseObjects",1,3,"left","right",0.618000031,0,0,0,1,NA,NA,NA,NA,NA,NA,NA,NA,NA,NA,NA,NA,NA,NA,NA,NA,NA,NA,NA,NA,NA,NA,NA,NA
"137","stim/objects/Instruments/speaker.png",13,54,13,0.5,"stim/33.jpeg",3,3,1,NA,"Instruments",2,1,"right","left",0.676000118,0,0,0,1,NA,NA,NA,NA,NA,NA,NA,NA,NA,NA,NA,NA,NA,NA,NA,NA,NA,NA,NA,NA,NA,NA,NA,NA
"85","stim/objects/HouseObjects/towel.png",14,54,14,0.3,"stim/52.jpeg",5,2,2,NA,"HouseObjects",1,2,"left","right",0.638999939,0,0,0,1,NA,NA,NA,NA,NA,NA,NA,NA,NA,NA,NA,NA,NA,NA,NA,NA,NA,NA,NA,NA,NA,NA,NA,NA
"49","stim/objects/HouseObjects/sponge.png",15,54,15,0.5,"stim/41.jpeg",4,1,1,NA,"HouseObjects",1,3,"left","right",0.619999886,0,0,0,1,NA,NA,NA,NA,NA,NA,NA,NA,NA,NA,NA,NA,NA,NA,NA,NA,NA,NA,NA,NA,NA,NA,NA,NA
"186","stim/objects/Instruments/trombone2.png",16,54,16,0.9,"stim/13.jpeg",1,3,3,NA,"Instruments",2,4,"right","right",0.595999956,1,1,0,1,NA,NA,NA,NA,NA,NA,NA,NA,NA,NA,NA,NA,NA,NA,NA,NA,NA,NA,NA,NA,NA,NA,NA,NA
"240","stim/objects/Instruments/xylophone2.png",17,54,17,0.1,"stim/24.jpeg",2,4,3,NA,"Instruments",2,3,"right","left",0.565000057,0,0,0,1,NA,NA,NA,NA,NA,NA,NA,NA,NA,NA,NA,NA,NA,NA,NA,NA,NA,NA,NA,NA,NA,NA,NA,NA
"114","stim/objects/HouseObjects/wateringcan2.png",18,54,18,0.9,"stim/24.jpeg",2,4,3,NA,"HouseObjects",1,4,"left","left",0.616000175,1,1,0,1,NA,NA,NA,NA,NA,NA,NA,NA,NA,NA,NA,NA,NA,NA,NA,NA,NA,NA,NA,NA,NA,NA,NA,NA
"145","stim/objects/Instruments/tambourine.png",19,54,19,0.5,"stim/34.jpeg",3,4,1,NA,"Instruments",2,1,"right","right",0.494999886,1,1,0,1,NA,NA,NA,NA,NA,NA,NA,NA,NA,NA,NA,NA,NA,NA,NA,NA,NA,NA,NA,NA,NA,NA,NA,NA
"25","stim/objects/HouseObjects/saw.png",20,54,20,0.5,"stim/33.jpeg",3,3,1,NA,"HouseObjects",1,1,"left","right",0.468999863,0,0,0,1,NA,NA,NA,NA,NA,NA,NA,NA,NA,NA,NA,NA,NA,NA,NA,NA,NA,NA,NA,NA,NA,NA,NA,NA
"154","stim/objects/Instruments/timbal.png",21,54,21,0.5,"stim/41.jpeg",4,1,1,NA,"Instruments",2,1,"right","right",0.640000105,1,1,0,1,NA,NA,NA,NA,NA,NA,NA,NA,NA,NA,NA,NA,NA,NA,NA,NA,NA,NA,NA,NA,NA,NA,NA,NA
"55","stim/objects/HouseObjects/spraybottle.png",22,54,22,0.5,"stim/42.jpeg",4,2,1,NA,"HouseObjects",1,4,"left","right",0.653000116,0,0,0,1,NA,NA,NA,NA,NA,NA,NA,NA,NA,NA,NA,NA,NA,NA,NA,NA,NA,NA,NA,NA,NA,NA,NA,NA
"6","stim/objects/HouseObjects/rug2.png",23,54,23,0.7,"stim/61.jpeg",6,1,2,NA,"HouseObjects",1,2,"left","left",0.619000196,1,1,0,1,NA,NA,NA,NA,NA,NA,NA,NA,NA,NA,NA,NA,NA,NA,NA,NA,NA,NA,NA,NA,NA,NA,NA,NA
"7","stim/objects/HouseObjects/rug2.png",24,54,24,0.7,"stim/61.jpeg",6,1,2,NA,"HouseObjects",1,3,"left","left",0.457999945,1,1,0,1,NA,NA,NA,NA,NA,NA,NA,NA,NA,NA,NA,NA,NA,NA,NA,NA,NA,NA,NA,NA,NA,NA,NA,NA
"68","stim/objects/HouseObjects/thermometer.png",25,54,25,0.5,"stim/44.jpeg",4,4,1,NA,"HouseObjects",1,2,"left","right",0.539000034,0,0,0,1,NA,NA,NA,NA,NA,NA,NA,NA,NA,NA,NA,NA,NA,NA,NA,NA,NA,NA,NA,NA,NA,NA,NA,NA
"146","stim/objects/Instruments/tambourine.png",26,54,26,0.5,"stim/34.jpeg",3,4,1,NA,"Instruments",2,1,"right","right",0.555000067,1,1,0,1,NA,NA,NA,NA,NA,NA,NA,NA,NA,NA,NA,NA,NA,NA,NA,NA,NA,NA,NA,NA,NA,NA,NA,NA
"30","stim/objects/HouseObjects/saw2.png",27,54,27,0.7,"stim/63.jpeg",6,3,2,NA,"HouseObjects",1,3,"left","left",0.618999958,1,1,0,1,NA,NA,NA,NA,NA,NA,NA,NA,NA,NA,NA,NA,NA,NA,NA,NA,NA,NA,NA,NA,NA,NA,NA,NA
"86","stim/objects/HouseObjects/towel.png",28,54,28,0.3,"stim/52.jpeg",5,2,2,NA,"HouseObjects",1,4,"left","right",0.576999903,0,0,0,1,NA,NA,NA,NA,NA,NA,NA,NA,NA,NA,NA,NA,NA,NA,NA,NA,NA,NA,NA,NA,NA,NA,NA,NA
"126","stim/objects/Instruments/record_player2.png",29,54,29,0.3,"stim/61.jpeg",6,1,2,NA,"Instruments",2,1,"right","left",0.542000055,0,0,0,1,NA,NA,NA,NA,NA,NA,NA,NA,NA,NA,NA,NA,NA,NA,NA,NA,NA,NA,NA,NA,NA,NA,NA,NA
"26","stim/objects/HouseObjects/saw.png",30,54,30,0.5,"stim/33.jpeg",3,3,1,NA,"HouseObjects",1,3,"left","right",0.594000101,0,0,0,1,NA,NA,NA,NA,NA,NA,NA,NA,NA,NA,NA,NA,NA,NA,NA,NA,NA,NA,NA,NA,NA,NA,NA,NA
"159","stim/objects/Instruments/timbal2.png",31,54,31,0.9,"stim/11.jpeg",1,1,3,NA,"Instruments",2,1,"right","right",0.523999929,1,1,0,1,NA,NA,NA,NA,NA,NA,NA,NA,NA,NA,NA,NA,NA,NA,NA,NA,NA,NA,NA,NA,NA,NA,NA,NA
"233","stim/objects/Instruments/xylophone.png",32,54,32,0.7,"stim/54.jpeg",5,4,2,NA,"Instruments",2,4,"right","",NA,0,0,0,1,NA,NA,NA,NA,NA,NA,NA,NA,NA,NA,NA,NA,NA,NA,NA,NA,NA,NA,NA,NA,NA,NA,NA,NA
"8","stim/objects/HouseObjects/rug2.png",33,54,33,0.7,"stim/61.jpeg",6,1,2,NA,"HouseObjects",1,2,"left","left",0.541000128,1,1,0,1,NA,NA,NA,NA,NA,NA,NA,NA,NA,NA,NA,NA,NA,NA,NA,NA,NA,NA,NA,NA,NA,NA,NA,NA
"173","stim/objects/Instruments/triangle2.png",34,54,34,0.9,"stim/12.jpeg",1,2,3,NA,"Instruments",2,4,"right","right",0.519000053,1,1,0,1,NA,NA,NA,NA,NA,NA,NA,NA,NA,NA,NA,NA,NA,NA,NA,NA,NA,NA,NA,NA,NA,NA,NA,NA
"76","stim/objects/HouseObjects/thread2.png",35,54,35,0.9,"stim/21.jpeg",2,1,3,NA,"HouseObjects",1,4,"left","left",0.588000059,1,1,0,1,NA,NA,NA,NA,NA,NA,NA,NA,NA,NA,NA,NA,NA,NA,NA,NA,NA,NA,NA,NA,NA,NA,NA,NA
"218","stim/objects/Instruments/violin.png",36,54,36,0.7,"stim/52.jpeg",5,2,2,NA,"Instruments",2,2,"right","right",0.482000113,1,1,0,1,NA,NA,NA,NA,NA,NA,NA,NA,NA,NA,NA,NA,NA,NA,NA,NA,NA,NA,NA,NA,NA,NA,NA,NA
"9","stim/objects/HouseObjects/rug2.png",37,54,37,0.7,"stim/61.jpeg",6,1,2,NA,"HouseObjects",1,1,"left","left",0.583999872,1,1,0,1,NA,NA,NA,NA,NA,NA,NA,NA,NA,NA,NA,NA,NA,NA,NA,NA,NA,NA,NA,NA,NA,NA,NA,NA
"88","stim/objects/HouseObjects/towel2.png",38,54,38,0.9,"stim/22.jpeg",2,2,3,NA,"HouseObjects",1,3,"left","left",0.529999971,1,1,0,1,NA,NA,NA,NA,NA,NA,NA,NA,NA,NA,NA,NA,NA,NA,NA,NA,NA,NA,NA,NA,NA,NA,NA,NA
"147","stim/objects/Instruments/tambourine.png",39,54,39,0.5,"stim/34.jpeg",3,4,1,NA,"Instruments",2,4,"right","",NA,0,0,0,1,NA,NA,NA,NA,NA,NA,NA,NA,NA,NA,NA,NA,NA,NA,NA,NA,NA,NA,NA,NA,NA,NA,NA,NA
"129","stim/objects/Instruments/saxophone.png",40,54,40,0.5,"stim/32.jpeg",3,2,1,NA,"Instruments",2,3,"right","right",0.432999849,1,1,0,1,NA,NA,NA,NA,NA,NA,NA,NA,NA,NA,NA,NA,NA,NA,NA,NA,NA,NA,NA,NA,NA,NA,NA,NA
"219","stim/objects/Instruments/violin.png",41,54,41,0.7,"stim/52.jpeg",5,2,2,NA,"Instruments",2,2,"right","left",0.473999977,0,0,0,1,NA,NA,NA,NA,NA,NA,NA,NA,NA,NA,NA,NA,NA,NA,NA,NA,NA,NA,NA,NA,NA,NA,NA,NA
"27","stim/objects/HouseObjects/saw.png",42,54,42,0.5,"stim/33.jpeg",3,3,1,NA,"HouseObjects",1,1,"left","right",0.588000059,0,0,0,1,NA,NA,NA,NA,NA,NA,NA,NA,NA,NA,NA,NA,NA,NA,NA,NA,NA,NA,NA,NA,NA,NA,NA,NA
"200","stim/objects/Instruments/trumpet2.png",43,54,43,0.9,"stim/14.jpeg",1,4,3,NA,"Instruments",2,1,"right","right",0.552000046,1,1,0,1,NA,NA,NA,NA,NA,NA,NA,NA,NA,NA,NA,NA,NA,NA,NA,NA,NA,NA,NA,NA,NA,NA,NA,NA
"187","stim/objects/Instruments/trombone2.png",44,54,44,0.9,"stim/13.jpeg",1,3,3,NA,"Instruments",2,2,"right","right",0.565000057,1,1,0,1,NA,NA,NA,NA,NA,NA,NA,NA,NA,NA,NA,NA,NA,NA,NA,NA,NA,NA,NA,NA,NA,NA,NA,NA
"188","stim/objects/Instruments/trombone2.png",45,54,45,0.9,"stim/13.jpeg",1,3,3,NA,"Instruments",2,2,"right","right",0.417999983,1,1,0,1,NA,NA,NA,NA,NA,NA,NA,NA,NA,NA,NA,NA,NA,NA,NA,NA,NA,NA,NA,NA,NA,NA,NA,NA
"220","stim/objects/Instruments/violin.png",46,54,46,0.7,"stim/52.jpeg",5,2,2,NA,"Instruments",2,4,"right","right",0.585000038,1,1,0,1,NA,NA,NA,NA,NA,NA,NA,NA,NA,NA,NA,NA,NA,NA,NA,NA,NA,NA,NA,NA,NA,NA,NA,NA
"160","stim/objects/Instruments/timbal2.png",47,54,47,0.9,"stim/11.jpeg",1,1,3,NA,"Instruments",2,1,"right","right",0.47300005,1,1,0,1,NA,NA,NA,NA,NA,NA,NA,NA,NA,NA,NA,NA,NA,NA,NA,NA,NA,NA,NA,NA,NA,NA,NA,NA
"150","stim/objects/Instruments/tambourine2.png",48,54,48,0.3,"stim/64.jpeg",6,4,2,NA,"Instruments",2,1,"right","left",0.650000095,0,0,0,1,NA,NA,NA,NA,NA,NA,NA,NA,NA,NA,NA,NA,NA,NA,NA,NA,NA,NA,NA,NA,NA,NA,NA,NA
"56","stim/objects/HouseObjects/spraybottle.png",49,54,49,0.5,"stim/42.jpeg",4,2,1,NA,"HouseObjects",1,2,"left","right",0.552000046,0,0,0,1,NA,NA,NA,NA,NA,NA,NA,NA,NA,NA,NA,NA,NA,NA,NA,NA,NA,NA,NA,NA,NA,NA,NA,NA
"161","stim/objects/Instruments/timbal2.png",50,54,50,0.9,"stim/11.jpeg",1,1,3,NA,"Instruments",2,4,"right","right",0.542999983,1,1,0,1,NA,NA,NA,NA,NA,NA,NA,NA,NA,NA,NA,NA,NA,NA,NA,NA,NA,NA,NA,NA,NA,NA,NA,NA
"142","stim/objects/Instruments/speaker2.png",51,54,51,0.3,"stim/63.jpeg",6,3,2,NA,"Instruments",2,1,"right","left",0.592000008,0,0,0,1,NA,NA,NA,NA,NA,NA,NA,NA,NA,NA,NA,NA,NA,NA,NA,NA,NA,NA,NA,NA,NA,NA,NA,NA
"162","stim/objects/Instruments/timbal2.png",52,54,52,0.9,"stim/11.jpeg",1,1,3,NA,"Instruments",2,2,"right","right",0.521000147,1,1,0,1,NA,NA,NA,NA,NA,NA,NA,NA,NA,NA,NA,NA,NA,NA,NA,NA,NA,NA,NA,NA,NA,NA,NA,NA
"143","stim/objects/Instruments/speaker2.png",53,54,53,0.3,"stim/63.jpeg",6,3,2,NA,"Instruments",2,3,"right","left",0.576999903,0,0,0,1,NA,NA,NA,NA,NA,NA,NA,NA,NA,NA,NA,NA,NA,NA,NA,NA,NA,NA,NA,NA,NA,NA,NA,NA
"151","stim/objects/Instruments/tambourine2.png",54,54,54,0.3,"stim/64.jpeg",6,4,2,NA,"Instruments",2,4,"right","left",0.610000134,0,0,0,1,NA,NA,NA,NA,NA,NA,NA,NA,NA,NA,NA,NA,NA,NA,NA,NA,NA,NA,NA,NA,NA,NA,NA,NA
"77","stim/objects/HouseObjects/thread2.png",55,54,55,0.9,"stim/21.jpeg",2,1,3,NA,"HouseObjects",1,2,"left","left",0.569999933,1,1,0,1,NA,NA,NA,NA,NA,NA,NA,NA,NA,NA,NA,NA,NA,NA,NA,NA,NA,NA,NA,NA,NA,NA,NA,NA
"221","stim/objects/Instruments/violin.png",56,54,56,0.7,"stim/52.jpeg",5,2,2,NA,"Instruments",2,3,"right","right",0.549999952,1,1,0,1,NA,NA,NA,NA,NA,NA,NA,NA,NA,NA,NA,NA,NA,NA,NA,NA,NA,NA,NA,NA,NA,NA,NA,NA
"201","stim/objects/Instruments/trumpet2.png",57,54,57,0.9,"stim/14.jpeg",1,4,3,NA,"Instruments",2,3,"right","right",0.482000113,1,1,0,1,NA,NA,NA,NA,NA,NA,NA,NA,NA,NA,NA,NA,NA,NA,NA,NA,NA,NA,NA,NA,NA,NA,NA,NA
"121","stim/objects/Instruments/record_player.png",58,54,58,0.5,"stim/31.jpeg",3,1,1,NA,"Instruments",2,4,"right","right",0.88499999,1,1,0,1,NA,NA,NA,NA,NA,NA,NA,NA,NA,NA,NA,NA,NA,NA,NA,NA,NA,NA,NA,NA,NA,NA,NA,NA
"195","stim/objects/Instruments/trumpet.png",59,54,59,0.5,"stim/44.jpeg",4,4,1,NA,"Instruments",2,4,"right","right",0.552999973,1,1,0,1,NA,NA,NA,NA,NA,NA,NA,NA,NA,NA,NA,NA,NA,NA,NA,NA,NA,NA,NA,NA,NA,NA,NA,NA
"225","stim/objects/Instruments/vuvuzela.png",60,54,60,0.7,"stim/53.jpeg",5,3,2,NA,"Instruments",2,1,"right","right",0.643000126,1,1,0,1,NA,NA,NA,NA,NA,NA,NA,NA,NA,NA,NA,NA,NA,NA,NA,NA,NA,NA,NA,NA,NA,NA,NA,NA
"50","stim/objects/HouseObjects/sponge.png",61,54,61,0.5,"stim/41.jpeg",4,1,1,NA,"HouseObjects",1,4,"left","",NA,0,0,0,1,NA,NA,NA,NA,NA,NA,NA,NA,NA,NA,NA,NA,NA,NA,NA,NA,NA,NA,NA,NA,NA,NA,NA,NA
"10","stim/objects/HouseObjects/rug2.png",62,54,62,0.7,"stim/61.jpeg",6,1,2,NA,"HouseObjects",1,3,"left","left",0.718000174,1,1,0,1,NA,NA,NA,NA,NA,NA,NA,NA,NA,NA,NA,NA,NA,NA,NA,NA,NA,NA,NA,NA,NA,NA,NA,NA
"61","stim/objects/HouseObjects/teapot.png",63,54,63,0.5,"stim/43.jpeg",4,3,1,NA,"HouseObjects",1,2,"left","right",0.627000093,0,0,0,1,NA,NA,NA,NA,NA,NA,NA,NA,NA,NA,NA,NA,NA,NA,NA,NA,NA,NA,NA,NA,NA,NA,NA,NA
"174","stim/objects/Instruments/triangle2.png",64,54,64,0.9,"stim/12.jpeg",1,2,3,NA,"Instruments",2,1,"right","right",0.55099988,1,1,0,1,NA,NA,NA,NA,NA,NA,NA,NA,NA,NA,NA,NA,NA,NA,NA,NA,NA,NA,NA,NA,NA,NA,NA,NA
"232","stim/objects/Instruments/vuvuzela2.png",65,54,65,0.1,"stim/23.jpeg",2,3,3,NA,"Instruments",2,2,"right","left",0.545000076,0,0,0,1,NA,NA,NA,NA,NA,NA,NA,NA,NA,NA,NA,NA,NA,NA,NA,NA,NA,NA,NA,NA,NA,NA,NA,NA
"72","stim/objects/HouseObjects/thermometer2.png",66,54,66,0.1,"stim/14.jpeg",1,4,3,NA,"HouseObjects",1,3,"left","right",0.49000001,0,0,0,1,NA,NA,NA,NA,NA,NA,NA,NA,NA,NA,NA,NA,NA,NA,NA,NA,NA,NA,NA,NA,NA,NA,NA,NA
"134","stim/objects/Instruments/saxophone2.png",67,54,67,0.3,"stim/62.jpeg",6,2,2,NA,"Instruments",2,4,"right","left",0.624000072,0,0,0,1,NA,NA,NA,NA,NA,NA,NA,NA,NA,NA,NA,NA,NA,NA,NA,NA,NA,NA,NA,NA,NA,NA,NA,NA
"100","stim/objects/HouseObjects/vacuumcleaner2.png",68,54,68,0.9,"stim/23.jpeg",2,3,3,NA,"HouseObjects",1,3,"left","left",0.540999889,1,1,0,1,NA,NA,NA,NA,NA,NA,NA,NA,NA,NA,NA,NA,NA,NA,NA,NA,NA,NA,NA,NA,NA,NA,NA,NA
"175","stim/objects/Instruments/triangle2.png",69,54,69,0.9,"stim/12.jpeg",1,2,3,NA,"Instruments",2,3,"right","right",0.522000074,1,1,0,1,NA,NA,NA,NA,NA,NA,NA,NA,NA,NA,NA,NA,NA,NA,NA,NA,NA,NA,NA,NA,NA,NA,NA,NA
"115","stim/objects/HouseObjects/wateringcan2.png",70,54,70,0.9,"stim/24.jpeg",2,4,3,NA,"HouseObjects",1,4,"left","left",0.499000072,1,1,0,1,NA,NA,NA,NA,NA,NA,NA,NA,NA,NA,NA,NA,NA,NA,NA,NA,NA,NA,NA,NA,NA,NA,NA,NA
"181","stim/objects/Instruments/trombone.png",71,54,71,0.5,"stim/43.jpeg",4,3,1,NA,"Instruments",2,4,"right","right",0.613000154,1,1,0,1,NA,NA,NA,NA,NA,NA,NA,NA,NA,NA,NA,NA,NA,NA,NA,NA,NA,NA,NA,NA,NA,NA,NA,NA
"110","stim/objects/HouseObjects/wateringcan.png",72,54,72,0.3,"stim/54.jpeg",5,4,2,NA,"HouseObjects",1,3,"left","right",0.569000006,0,0,0,1,NA,NA,NA,NA,NA,NA,NA,NA,NA,NA,NA,NA,NA,NA,NA,NA,NA,NA,NA,NA,NA,NA,NA,NA
"89","stim/objects/HouseObjects/towel2.png",73,54,73,0.9,"stim/22.jpeg",2,2,3,NA,"HouseObjects",1,2,"left","left",0.545000076,1,1,0,1,NA,NA,NA,NA,NA,NA,NA,NA,NA,NA,NA,NA,NA,NA,NA,NA,NA,NA,NA,NA,NA,NA,NA,NA
"97","stim/objects/HouseObjects/vacuumcleaner.png",74,54,74,0.3,"stim/53.jpeg",5,3,2,NA,"HouseObjects",1,3,"left","right",0.542999983,0,0,0,1,NA,NA,NA,NA,NA,NA,NA,NA,NA,NA,NA,NA,NA,NA,NA,NA,NA,NA,NA,NA,NA,NA,NA,NA
"130","stim/objects/Instruments/saxophone.png",75,54,75,0.5,"stim/32.jpeg",3,2,1,NA,"Instruments",2,1,"right","right",0.63499999,1,1,0,1,NA,NA,NA,NA,NA,NA,NA,NA,NA,NA,NA,NA,NA,NA,NA,NA,NA,NA,NA,NA,NA,NA,NA,NA
"28","stim/objects/HouseObjects/saw.png",76,54,76,0.5,"stim/33.jpeg",3,3,1,NA,"HouseObjects",1,2,"left","left",0.786000013,1,1,0,1,NA,NA,NA,NA,NA,NA,NA,NA,NA,NA,NA,NA,NA,NA,NA,NA,NA,NA,NA,NA,NA,NA,NA,NA
"101","stim/objects/HouseObjects/vacuumcleaner2.png",77,54,77,0.9,"stim/23.jpeg",2,3,3,NA,"HouseObjects",1,1,"left","left",0.542999983,1,1,0,1,NA,NA,NA,NA,NA,NA,NA,NA,NA,NA,NA,NA,NA,NA,NA,NA,NA,NA,NA,NA,NA,NA,NA,NA
"189","stim/objects/Instruments/trombone2.png",78,54,78,0.9,"stim/13.jpeg",1,3,3,NA,"Instruments",2,3,"right","right",0.536000013,1,1,0,1,NA,NA,NA,NA,NA,NA,NA,NA,NA,NA,NA,NA,NA,NA,NA,NA,NA,NA,NA,NA,NA,NA,NA,NA
"234","stim/objects/Instruments/xylophone.png",79,54,79,0.7,"stim/54.jpeg",5,4,2,NA,"Instruments",2,1,"right","left",0.807999849,0,0,0,1,NA,NA,NA,NA,NA,NA,NA,NA,NA,NA,NA,NA,NA,NA,NA,NA,NA,NA,NA,NA,NA,NA,NA,NA
"14","stim/objects/HouseObjects/safetypin.png",80,54,80,0.5,"stim/32.jpeg",3,2,1,NA,"HouseObjects",1,4,"left","right",0.758000135,0,0,0,1,NA,NA,NA,NA,NA,NA,NA,NA,NA,NA,NA,NA,NA,NA,NA,NA,NA,NA,NA,NA,NA,NA,NA,NA
"226","stim/objects/Instruments/vuvuzela.png",81,54,81,0.7,"stim/53.jpeg",5,3,2,NA,"Instruments",2,1,"right","right",0.548000097,1,1,0,1,NA,NA,NA,NA,NA,NA,NA,NA,NA,NA,NA,NA,NA,NA,NA,NA,NA,NA,NA,NA,NA,NA,NA,NA
"42","stim/objects/HouseObjects/scale2.png",82,54,82,0.7,"stim/64.jpeg",6,4,2,NA,"HouseObjects",1,4,"left","left",0.504999876,1,1,0,1,NA,NA,NA,NA,NA,NA,NA,NA,NA,NA,NA,NA,NA,NA,NA,NA,NA,NA,NA,NA,NA,NA,NA,NA
"211","stim/objects/Instruments/tuba.png",83,54,83,0.7,"stim/51.jpeg",5,1,2,NA,"Instruments",2,2,"right","right",0.572999954,1,1,0,1,NA,NA,NA,NA,NA,NA,NA,NA,NA,NA,NA,NA,NA,NA,NA,NA,NA,NA,NA,NA,NA,NA,NA,NA
"38","stim/objects/HouseObjects/scale.png",84,54,84,0.5,"stim/34.jpeg",3,4,1,NA,"HouseObjects",1,2,"left","right",0.588999987,0,0,0,1,NA,NA,NA,NA,NA,NA,NA,NA,NA,NA,NA,NA,NA,NA,NA,NA,NA,NA,NA,NA,NA,NA,NA,NA
"78","stim/objects/HouseObjects/thread2.png",85,54,85,0.9,"stim/21.jpeg",2,1,3,NA,"HouseObjects",1,4,"left","left",0.552000046,1,1,0,1,NA,NA,NA,NA,NA,NA,NA,NA,NA,NA,NA,NA,NA,NA,NA,NA,NA,NA,NA,NA,NA,NA,NA,NA
"167","stim/objects/Instruments/triangle.png",86,54,86,0.5,"stim/42.jpeg",4,2,1,NA,"Instruments",2,2,"right","left",0.768999815,0,0,0,1,NA,NA,NA,NA,NA,NA,NA,NA,NA,NA,NA,NA,NA,NA,NA,NA,NA,NA,NA,NA,NA,NA,NA,NA
"148","stim/objects/Instruments/tambourine.png",87,54,87,0.5,"stim/34.jpeg",3,4,1,NA,"Instruments",2,1,"right","right",0.756999969,1,1,0,1,NA,NA,NA,NA,NA,NA,NA,NA,NA,NA,NA,NA,NA,NA,NA,NA,NA,NA,NA,NA,NA,NA,NA,NA
"196","stim/objects/Instruments/trumpet.png",88,54,88,0.5,"stim/44.jpeg",4,4,1,NA,"Instruments",2,2,"right","right",0.680999994,1,1,0,1,NA,NA,NA,NA,NA,NA,NA,NA,NA,NA,NA,NA,NA,NA,NA,NA,NA,NA,NA,NA,NA,NA,NA,NA
"127","stim/objects/Instruments/record_player2.png",89,54,89,0.3,"stim/61.jpeg",6,1,2,NA,"Instruments",2,1,"right","left",0.559000015,0,0,0,1,NA,NA,NA,NA,NA,NA,NA,NA,NA,NA,NA,NA,NA,NA,NA,NA,NA,NA,NA,NA,NA,NA,NA,NA
"212","stim/objects/Instruments/tuba.png",90,54,90,0.7,"stim/51.jpeg",5,1,2,NA,"Instruments",2,2,"right","right",0.453999996,1,1,0,1,NA,NA,NA,NA,NA,NA,NA,NA,NA,NA,NA,NA,NA,NA,NA,NA,NA,NA,NA,NA,NA,NA,NA,NA
"190","stim/objects/Instruments/trombone2.png",91,54,91,0.9,"stim/13.jpeg",1,3,3,NA,"Instruments",2,2,"right","right",0.524999857,1,1,0,1,NA,NA,NA,NA,NA,NA,NA,NA,NA,NA,NA,NA,NA,NA,NA,NA,NA,NA,NA,NA,NA,NA,NA,NA
"18","stim/objects/HouseObjects/safetypin2.png",92,54,92,0.7,"stim/62.jpeg",6,2,2,NA,"HouseObjects",1,1,"left","left",0.671999931,1,1,0,1,NA,NA,NA,NA,NA,NA,NA,NA,NA,NA,NA,NA,NA,NA,NA,NA,NA,NA,NA,NA,NA,NA,NA,NA
"1","stim/objects/HouseObjects/rug.png",93,54,93,0.5,"stim/31.jpeg",3,1,1,NA,"HouseObjects",1,3,"left","right",0.569000006,0,0,0,1,NA,NA,NA,NA,NA,NA,NA,NA,NA,NA,NA,NA,NA,NA,NA,NA,NA,NA,NA,NA,NA,NA,NA,NA
"163","stim/objects/Instruments/timbal2.png",94,54,94,0.9,"stim/11.jpeg",1,1,3,NA,"Instruments",2,1,"right","right",0.563999891,1,1,0,1,NA,NA,NA,NA,NA,NA,NA,NA,NA,NA,NA,NA,NA,NA,NA,NA,NA,NA,NA,NA,NA,NA,NA,NA
"116","stim/objects/HouseObjects/wateringcan2.png",95,54,95,0.9,"stim/24.jpeg",2,4,3,NA,"HouseObjects",1,1,"left","left",0.510999918,1,1,0,1,NA,NA,NA,NA,NA,NA,NA,NA,NA,NA,NA,NA,NA,NA,NA,NA,NA,NA,NA,NA,NA,NA,NA,NA
"182","stim/objects/Instruments/trombone.png",96,54,96,0.5,"stim/43.jpeg",4,3,1,NA,"Instruments",2,3,"right","right",0.671000004,1,1,0,1,NA,NA,NA,NA,NA,NA,NA,NA,NA,NA,NA,NA,NA,NA,NA,NA,NA,NA,NA,NA,NA,NA,NA,NA
"176","stim/objects/Instruments/triangle2.png",97,54,97,0.9,"stim/12.jpeg",1,2,3,NA,"Instruments",2,3,"right","right",0.564999819,1,1,0,1,NA,NA,NA,NA,NA,NA,NA,NA,NA,NA,NA,NA,NA,NA,NA,NA,NA,NA,NA,NA,NA,NA,NA,NA
"213","stim/objects/Instruments/tuba.png",98,54,98,0.7,"stim/51.jpeg",5,1,2,NA,"Instruments",2,1,"right","right",0.59100008,1,1,0,1,NA,NA,NA,NA,NA,NA,NA,NA,NA,NA,NA,NA,NA,NA,NA,NA,NA,NA,NA,NA,NA,NA,NA,NA
"138","stim/objects/Instruments/speaker.png",99,54,99,0.5,"stim/33.jpeg",3,3,1,NA,"Instruments",2,3,"right","right",0.606000185,1,1,0,1,NA,NA,NA,NA,NA,NA,NA,NA,NA,NA,NA,NA,NA,NA,NA,NA,NA,NA,NA,NA,NA,NA,NA,NA
"73","stim/objects/HouseObjects/thread.png",100,54,100,0.3,"stim/51.jpeg",5,1,2,NA,"HouseObjects",1,2,"left","right",0.510999918,0,0,0,1,NA,NA,NA,NA,NA,NA,NA,NA,NA,NA,NA,NA,NA,NA,NA,NA,NA,NA,NA,NA,NA,NA,NA,NA
"60","stim/objects/HouseObjects/spraybottle2.png",101,54,101,0.1,"stim/12.jpeg",1,2,3,NA,"HouseObjects",1,3,"left","right",0.518000126,0,0,0,1,NA,NA,NA,NA,NA,NA,NA,NA,NA,NA,NA,NA,NA,NA,NA,NA,NA,NA,NA,NA,NA,NA,NA,NA
"222","stim/objects/Instruments/violin.png",102,54,102,0.7,"stim/52.jpeg",5,2,2,NA,"Instruments",2,3,"right","right",0.550000191,1,1,0,1,NA,NA,NA,NA,NA,NA,NA,NA,NA,NA,NA,NA,NA,NA,NA,NA,NA,NA,NA,NA,NA,NA,NA,NA
"122","stim/objects/Instruments/record_player.png",103,54,103,0.5,"stim/31.jpeg",3,1,1,NA,"Instruments",2,1,"right","left",0.809999943,0,0,0,1,NA,NA,NA,NA,NA,NA,NA,NA,NA,NA,NA,NA,NA,NA,NA,NA,NA,NA,NA,NA,NA,NA,NA,NA
"57","stim/objects/HouseObjects/spraybottle.png",104,54,104,0.5,"stim/42.jpeg",4,2,1,NA,"HouseObjects",1,4,"left","left",0.766000032,1,1,0,1,NA,NA,NA,NA,NA,NA,NA,NA,NA,NA,NA,NA,NA,NA,NA,NA,NA,NA,NA,NA,NA,NA,NA,NA
"43","stim/objects/HouseObjects/scale2.png",105,54,105,0.7,"stim/64.jpeg",6,4,2,NA,"HouseObjects",1,4,"left","left",0.575000048,1,1,0,1,NA,NA,NA,NA,NA,NA,NA,NA,NA,NA,NA,NA,NA,NA,NA,NA,NA,NA,NA,NA,NA,NA,NA,NA
"235","stim/objects/Instruments/xylophone.png",106,54,106,0.7,"stim/54.jpeg",5,4,2,NA,"Instruments",2,2,"right","left",0.657999992,0,0,0,1,NA,NA,NA,NA,NA,NA,NA,NA,NA,NA,NA,NA,NA,NA,NA,NA,NA,NA,NA,NA,NA,NA,NA,NA
"197","stim/objects/Instruments/trumpet.png",107,54,107,0.5,"stim/44.jpeg",4,4,1,NA,"Instruments",2,3,"right","right",0.705000162,1,1,0,1,NA,NA,NA,NA,NA,NA,NA,NA,NA,NA,NA,NA,NA,NA,NA,NA,NA,NA,NA,NA,NA,NA,NA,NA
"90","stim/objects/HouseObjects/towel2.png",108,54,108,0.9,"stim/22.jpeg",2,2,3,NA,"HouseObjects",1,3,"left","left",0.572000027,1,1,0,1,NA,NA,NA,NA,NA,NA,NA,NA,NA,NA,NA,NA,NA,NA,NA,NA,NA,NA,NA,NA,NA,NA,NA,NA
"144","stim/objects/Instruments/speaker2.png",109,54,109,0.3,"stim/63.jpeg",6,3,2,NA,"Instruments",2,4,"right","left",0.585999966,0,0,0,1,NA,NA,NA,NA,NA,NA,NA,NA,NA,NA,NA,NA,NA,NA,NA,NA,NA,NA,NA,NA,NA,NA,NA,NA
"44","stim/objects/HouseObjects/scale2.png",110,54,110,0.7,"stim/64.jpeg",6,4,2,NA,"HouseObjects",1,4,"left","left",0.578000069,1,1,0,1,NA,NA,NA,NA,NA,NA,NA,NA,NA,NA,NA,NA,NA,NA,NA,NA,NA,NA,NA,NA,NA,NA,NA,NA
"202","stim/objects/Instruments/trumpet2.png",111,54,111,0.9,"stim/14.jpeg",1,4,3,NA,"Instruments",2,3,"right","right",0.580000162,1,1,0,1,NA,NA,NA,NA,NA,NA,NA,NA,NA,NA,NA,NA,NA,NA,NA,NA,NA,NA,NA,NA,NA,NA,NA,NA
"139","stim/objects/Instruments/speaker.png",112,54,112,0.5,"stim/33.jpeg",3,3,1,NA,"Instruments",2,3,"right","left",0.809999943,0,0,0,1,NA,NA,NA,NA,NA,NA,NA,NA,NA,NA,NA,NA,NA,NA,NA,NA,NA,NA,NA,NA,NA,NA,NA,NA
"19","stim/objects/HouseObjects/safetypin2.png",113,54,113,0.7,"stim/62.jpeg",6,2,2,NA,"HouseObjects",1,1,"left","left",0.572000027,1,1,0,1,NA,NA,NA,NA,NA,NA,NA,NA,NA,NA,NA,NA,NA,NA,NA,NA,NA,NA,NA,NA,NA,NA,NA,NA
"164","stim/objects/Instruments/timbal2.png",114,54,114,0.9,"stim/11.jpeg",1,1,3,NA,"Instruments",2,1,"right","right",0.431999922,1,1,0,1,NA,NA,NA,NA,NA,NA,NA,NA,NA,NA,NA,NA,NA,NA,NA,NA,NA,NA,NA,NA,NA,NA,NA,NA
"131","stim/objects/Instruments/saxophone.png",115,54,115,0.5,"stim/32.jpeg",3,2,1,NA,"Instruments",2,4,"right","left",0.610000134,0,0,0,1,NA,NA,NA,NA,NA,NA,NA,NA,NA,NA,NA,NA,NA,NA,NA,NA,NA,NA,NA,NA,NA,NA,NA,NA
"91","stim/objects/HouseObjects/towel2.png",116,54,116,0.9,"stim/22.jpeg",2,2,3,NA,"HouseObjects",1,2,"left","left",0.510999918,1,1,0,1,NA,NA,NA,NA,NA,NA,NA,NA,NA,NA,NA,NA,NA,NA,NA,NA,NA,NA,NA,NA,NA,NA,NA,NA
"62","stim/objects/HouseObjects/teapot.png",117,54,117,0.5,"stim/43.jpeg",4,3,1,NA,"HouseObjects",1,4,"left","right",0.555999994,0,0,0,1,NA,NA,NA,NA,NA,NA,NA,NA,NA,NA,NA,NA,NA,NA,NA,NA,NA,NA,NA,NA,NA,NA,NA,NA
"132","stim/objects/Instruments/saxophone.png",118,54,118,0.5,"stim/32.jpeg",3,2,1,NA,"Instruments",2,1,"right","right",0.693000078,1,1,0,1,NA,NA,NA,NA,NA,NA,NA,NA,NA,NA,NA,NA,NA,NA,NA,NA,NA,NA,NA,NA,NA,NA,NA,NA
"20","stim/objects/HouseObjects/safetypin2.png",119,54,119,0.7,"stim/62.jpeg",6,2,2,NA,"HouseObjects",1,2,"left","left",0.559999943,1,1,0,1,NA,NA,NA,NA,NA,NA,NA,NA,NA,NA,NA,NA,NA,NA,NA,NA,NA,NA,NA,NA,NA,NA,NA,NA
"236","stim/objects/Instruments/xylophone.png",120,54,120,0.7,"stim/54.jpeg",5,4,2,NA,"Instruments",2,3,"right","right",0.506000042,1,1,0,1,NA,NA,NA,NA,NA,NA,NA,NA,NA,NA,NA,NA,NA,NA,NA,NA,NA,NA,NA,NA,NA,NA,NA,NA
"31","stim/objects/HouseObjects/saw2.png",121,54,121,0.7,"stim/63.jpeg",6,3,2,NA,"HouseObjects",1,2,"left","left",0.579999924,1,1,0,1,NA,NA,NA,NA,NA,NA,NA,NA,NA,NA,NA,NA,NA,NA,NA,NA,NA,NA,NA,NA,NA,NA,NA,NA
"32","stim/objects/HouseObjects/saw2.png",122,54,122,0.7,"stim/63.jpeg",6,3,2,NA,"HouseObjects",1,4,"left","left",0.555999994,1,1,0,1,NA,NA,NA,NA,NA,NA,NA,NA,NA,NA,NA,NA,NA,NA,NA,NA,NA,NA,NA,NA,NA,NA,NA,NA
"198","stim/objects/Instruments/trumpet.png",123,54,123,0.5,"stim/44.jpeg",4,4,1,NA,"Instruments",2,3,"right","right",0.55700016,1,1,0,1,NA,NA,NA,NA,NA,NA,NA,NA,NA,NA,NA,NA,NA,NA,NA,NA,NA,NA,NA,NA,NA,NA,NA,NA
"63","stim/objects/HouseObjects/teapot.png",124,54,124,0.5,"stim/43.jpeg",4,3,1,NA,"HouseObjects",1,4,"left","right",0.530999899,0,0,0,1,NA,NA,NA,NA,NA,NA,NA,NA,NA,NA,NA,NA,NA,NA,NA,NA,NA,NA,NA,NA,NA,NA,NA,NA
"74","stim/objects/HouseObjects/thread.png",125,54,125,0.3,"stim/51.jpeg",5,1,2,NA,"HouseObjects",1,4,"left","right",0.570999861,0,0,0,1,NA,NA,NA,NA,NA,NA,NA,NA,NA,NA,NA,NA,NA,NA,NA,NA,NA,NA,NA,NA,NA,NA,NA,NA
"155","stim/objects/Instruments/timbal.png",126,54,126,0.5,"stim/41.jpeg",4,1,1,NA,"Instruments",2,2,"right","right",0.789000034,1,1,0,1,NA,NA,NA,NA,NA,NA,NA,NA,NA,NA,NA,NA,NA,NA,NA,NA,NA,NA,NA,NA,NA,NA,NA,NA
"79","stim/objects/HouseObjects/thread2.png",127,54,127,0.9,"stim/21.jpeg",2,1,3,NA,"HouseObjects",1,1,"left","left",0.572000027,1,1,0,1,NA,NA,NA,NA,NA,NA,NA,NA,NA,NA,NA,NA,NA,NA,NA,NA,NA,NA,NA,NA,NA,NA,NA,NA
"21","stim/objects/HouseObjects/safetypin2.png",128,54,128,0.7,"stim/62.jpeg",6,2,2,NA,"HouseObjects",1,4,"left","left",0.595000029,1,1,0,1,NA,NA,NA,NA,NA,NA,NA,NA,NA,NA,NA,NA,NA,NA,NA,NA,NA,NA,NA,NA,NA,NA,NA,NA
"33","stim/objects/HouseObjects/saw2.png",129,54,129,0.7,"stim/63.jpeg",6,3,2,NA,"HouseObjects",1,4,"left","left",0.56799984,1,1,0,1,NA,NA,NA,NA,NA,NA,NA,NA,NA,NA,NA,NA,NA,NA,NA,NA,NA,NA,NA,NA,NA,NA,NA,NA
"117","stim/objects/HouseObjects/wateringcan2.png",130,54,130,0.9,"stim/24.jpeg",2,4,3,NA,"HouseObjects",1,3,"left","left",0.536999941,1,1,0,1,NA,NA,NA,NA,NA,NA,NA,NA,NA,NA,NA,NA,NA,NA,NA,NA,NA,NA,NA,NA,NA,NA,NA,NA
"227","stim/objects/Instruments/vuvuzela.png",131,54,131,0.7,"stim/53.jpeg",5,3,2,NA,"Instruments",2,2,"right","right",0.562000036,1,1,0,1,NA,NA,NA,NA,NA,NA,NA,NA,NA,NA,NA,NA,NA,NA,NA,NA,NA,NA,NA,NA,NA,NA,NA,NA
"69","stim/objects/HouseObjects/thermometer.png",132,54,132,0.5,"stim/44.jpeg",4,4,1,NA,"HouseObjects",1,2,"left","right",0.631999969,0,0,0,1,NA,NA,NA,NA,NA,NA,NA,NA,NA,NA,NA,NA,NA,NA,NA,NA,NA,NA,NA,NA,NA,NA,NA,NA
"92","stim/objects/HouseObjects/towel2.png",133,54,133,0.9,"stim/22.jpeg",2,2,3,NA,"HouseObjects",1,1,"left","left",0.489000082,1,1,0,1,NA,NA,NA,NA,NA,NA,NA,NA,NA,NA,NA,NA,NA,NA,NA,NA,NA,NA,NA,NA,NA,NA,NA,NA
"135","stim/objects/Instruments/saxophone2.png",134,54,134,0.3,"stim/62.jpeg",6,2,2,NA,"Instruments",2,4,"right","left",0.539000034,0,0,0,1,NA,NA,NA,NA,NA,NA,NA,NA,NA,NA,NA,NA,NA,NA,NA,NA,NA,NA,NA,NA,NA,NA,NA,NA
"15","stim/objects/HouseObjects/safetypin.png",135,54,135,0.5,"stim/32.jpeg",3,2,1,NA,"HouseObjects",1,1,"left","right",0.687999964,0,0,0,1,NA,NA,NA,NA,NA,NA,NA,NA,NA,NA,NA,NA,NA,NA,NA,NA,NA,NA,NA,NA,NA,NA,NA,NA
"2","stim/objects/HouseObjects/rug.png",136,54,136,0.5,"stim/31.jpeg",3,1,1,NA,"HouseObjects",1,3,"left","right",0.664000034,0,0,0,1,NA,NA,NA,NA,NA,NA,NA,NA,NA,NA,NA,NA,NA,NA,NA,NA,NA,NA,NA,NA,NA,NA,NA,NA
"93","stim/objects/HouseObjects/towel2.png",137,54,137,0.9,"stim/22.jpeg",2,2,3,NA,"HouseObjects",1,4,"left","left",0.470000029,1,1,0,1,NA,NA,NA,NA,NA,NA,NA,NA,NA,NA,NA,NA,NA,NA,NA,NA,NA,NA,NA,NA,NA,NA,NA,NA
"203","stim/objects/Instruments/trumpet2.png",138,54,138,0.9,"stim/14.jpeg",1,4,3,NA,"Instruments",2,3,"right","right",0.550000191,1,1,0,1,NA,NA,NA,NA,NA,NA,NA,NA,NA,NA,NA,NA,NA,NA,NA,NA,NA,NA,NA,NA,NA,NA,NA,NA
"199","stim/objects/Instruments/trumpet.png",139,54,139,0.5,"stim/44.jpeg",4,4,1,NA,"Instruments",2,1,"right","right",0.587000132,1,1,0,1,NA,NA,NA,NA,NA,NA,NA,NA,NA,NA,NA,NA,NA,NA,NA,NA,NA,NA,NA,NA,NA,NA,NA,NA
"237","stim/objects/Instruments/xylophone.png",140,54,140,0.7,"stim/54.jpeg",5,4,2,NA,"Instruments",2,1,"right","right",0.592999935,1,1,0,1,NA,NA,NA,NA,NA,NA,NA,NA,NA,NA,NA,NA,NA,NA,NA,NA,NA,NA,NA,NA,NA,NA,NA,NA
"214","stim/objects/Instruments/tuba.png",141,54,141,0.7,"stim/51.jpeg",5,1,2,NA,"Instruments",2,3,"right","right",0.585999966,1,1,0,1,NA,NA,NA,NA,NA,NA,NA,NA,NA,NA,NA,NA,NA,NA,NA,NA,NA,NA,NA,NA,NA,NA,NA,NA
"136","stim/objects/Instruments/saxophone2.png",142,54,142,0.3,"stim/62.jpeg",6,2,2,NA,"Instruments",2,3,"right","left",0.527000189,0,0,0,1,NA,NA,NA,NA,NA,NA,NA,NA,NA,NA,NA,NA,NA,NA,NA,NA,NA,NA,NA,NA,NA,NA,NA,NA
"54","stim/objects/HouseObjects/sponge2.png",143,54,143,0.1,"stim/11.jpeg",1,1,3,NA,"HouseObjects",1,2,"left","right",0.548000097,0,0,0,1,NA,NA,NA,NA,NA,NA,NA,NA,NA,NA,NA,NA,NA,NA,NA,NA,NA,NA,NA,NA,NA,NA,NA,NA
"58","stim/objects/HouseObjects/spraybottle.png",144,54,144,0.5,"stim/42.jpeg",4,2,1,NA,"HouseObjects",1,4,"left","right",0.707000017,0,0,0,1,NA,NA,NA,NA,NA,NA,NA,NA,NA,NA,NA,NA,NA,NA,NA,NA,NA,NA,NA,NA,NA,NA,NA,NA
"51","stim/objects/HouseObjects/sponge.png",145,54,145,0.5,"stim/41.jpeg",4,1,1,NA,"HouseObjects",1,2,"left","right",0.558000088,0,0,0,1,NA,NA,NA,NA,NA,NA,NA,NA,NA,NA,NA,NA,NA,NA,NA,NA,NA,NA,NA,NA,NA,NA,NA,NA
"64","stim/objects/HouseObjects/teapot.png",146,54,146,0.5,"stim/43.jpeg",4,3,1,NA,"HouseObjects",1,4,"left","left",0.821999788,1,1,0,1,NA,NA,NA,NA,NA,NA,NA,NA,NA,NA,NA,NA,NA,NA,NA,NA,NA,NA,NA,NA,NA,NA,NA,NA
"216","stim/objects/Instruments/tuba2.png",147,54,147,0.1,"stim/21.jpeg",2,1,3,NA,"Instruments",2,1,"right","left",0.51699996,0,0,0,1,NA,NA,NA,NA,NA,NA,NA,NA,NA,NA,NA,NA,NA,NA,NA,NA,NA,NA,NA,NA,NA,NA,NA,NA
"168","stim/objects/Instruments/triangle.png",148,54,148,0.5,"stim/42.jpeg",4,2,1,NA,"Instruments",2,3,"right","right",0.789999962,1,1,0,1,NA,NA,NA,NA,NA,NA,NA,NA,NA,NA,NA,NA,NA,NA,NA,NA,NA,NA,NA,NA,NA,NA,NA,NA
"102","stim/objects/HouseObjects/vacuumcleaner2.png",149,54,149,0.9,"stim/23.jpeg",2,3,3,NA,"HouseObjects",1,4,"left","left",0.505000114,1,1,0,1,NA,NA,NA,NA,NA,NA,NA,NA,NA,NA,NA,NA,NA,NA,NA,NA,NA,NA,NA,NA,NA,NA,NA,NA
"11","stim/objects/HouseObjects/rug2.png",150,54,150,0.7,"stim/61.jpeg",6,1,2,NA,"HouseObjects",1,3,"left","left",0.566999912,1,1,0,1,NA,NA,NA,NA,NA,NA,NA,NA,NA,NA,NA,NA,NA,NA,NA,NA,NA,NA,NA,NA,NA,NA,NA,NA
"118","stim/objects/HouseObjects/wateringcan2.png",151,54,151,0.9,"stim/24.jpeg",2,4,3,NA,"HouseObjects",1,2,"left","left",0.493999958,1,1,0,1,NA,NA,NA,NA,NA,NA,NA,NA,NA,NA,NA,NA,NA,NA,NA,NA,NA,NA,NA,NA,NA,NA,NA,NA
"228","stim/objects/Instruments/vuvuzela.png",152,54,152,0.7,"stim/53.jpeg",5,3,2,NA,"Instruments",2,4,"right","right",0.534000158,1,1,0,1,NA,NA,NA,NA,NA,NA,NA,NA,NA,NA,NA,NA,NA,NA,NA,NA,NA,NA,NA,NA,NA,NA,NA,NA
"39","stim/objects/HouseObjects/scale.png",153,54,153,0.5,"stim/34.jpeg",3,4,1,NA,"HouseObjects",1,3,"left","right",0.686000109,0,0,0,1,NA,NA,NA,NA,NA,NA,NA,NA,NA,NA,NA,NA,NA,NA,NA,NA,NA,NA,NA,NA,NA,NA,NA,NA
"59","stim/objects/HouseObjects/spraybottle.png",154,54,154,0.5,"stim/42.jpeg",4,2,1,NA,"HouseObjects",1,4,"left","right",0.707999945,0,0,0,1,NA,NA,NA,NA,NA,NA,NA,NA,NA,NA,NA,NA,NA,NA,NA,NA,NA,NA,NA,NA,NA,NA,NA,NA
"94","stim/objects/HouseObjects/towel2.png",155,54,155,0.9,"stim/22.jpeg",2,2,3,NA,"HouseObjects",1,3,"left","left",0.553999901,1,1,0,1,NA,NA,NA,NA,NA,NA,NA,NA,NA,NA,NA,NA,NA,NA,NA,NA,NA,NA,NA,NA,NA,NA,NA,NA
"40","stim/objects/HouseObjects/scale.png",156,54,156,0.5,"stim/34.jpeg",3,4,1,NA,"HouseObjects",1,4,"left","left",0.776000023,1,1,0,1,NA,NA,NA,NA,NA,NA,NA,NA,NA,NA,NA,NA,NA,NA,NA,NA,NA,NA,NA,NA,NA,NA,NA,NA
"133","stim/objects/Instruments/saxophone.png",157,54,157,0.5,"stim/32.jpeg",3,2,1,NA,"Instruments",2,1,"right","right",0.620999813,1,1,0,1,NA,NA,NA,NA,NA,NA,NA,NA,NA,NA,NA,NA,NA,NA,NA,NA,NA,NA,NA,NA,NA,NA,NA,NA
"80","stim/objects/HouseObjects/thread2.png",158,54,158,0.9,"stim/21.jpeg",2,1,3,NA,"HouseObjects",1,2,"left","left",0.506999969,1,1,0,1,NA,NA,NA,NA,NA,NA,NA,NA,NA,NA,NA,NA,NA,NA,NA,NA,NA,NA,NA,NA,NA,NA,NA,NA
"70","stim/objects/HouseObjects/thermometer.png",159,54,159,0.5,"stim/44.jpeg",4,4,1,NA,"HouseObjects",1,1,"left","right",0.590000153,0,0,0,1,NA,NA,NA,NA,NA,NA,NA,NA,NA,NA,NA,NA,NA,NA,NA,NA,NA,NA,NA,NA,NA,NA,NA,NA
"103","stim/objects/HouseObjects/vacuumcleaner2.png",160,54,160,0.9,"stim/23.jpeg",2,3,3,NA,"HouseObjects",1,1,"left","left",0.552000046,1,1,0,1,NA,NA,NA,NA,NA,NA,NA,NA,NA,NA,NA,NA,NA,NA,NA,NA,NA,NA,NA,NA,NA,NA,NA,NA
"204","stim/objects/Instruments/trumpet2.png",161,54,161,0.9,"stim/14.jpeg",1,4,3,NA,"Instruments",2,3,"right","right",0.505000114,1,1,0,1,NA,NA,NA,NA,NA,NA,NA,NA,NA,NA,NA,NA,NA,NA,NA,NA,NA,NA,NA,NA,NA,NA,NA,NA
"191","stim/objects/Instruments/trombone2.png",162,54,162,0.9,"stim/13.jpeg",1,3,3,NA,"Instruments",2,4,"right","right",0.588999987,1,1,0,1,NA,NA,NA,NA,NA,NA,NA,NA,NA,NA,NA,NA,NA,NA,NA,NA,NA,NA,NA,NA,NA,NA,NA,NA
"3","stim/objects/HouseObjects/rug.png",163,54,163,0.5,"stim/31.jpeg",3,1,1,NA,"HouseObjects",1,2,"left","left",0.789999962,1,1,0,1,NA,NA,NA,NA,NA,NA,NA,NA,NA,NA,NA,NA,NA,NA,NA,NA,NA,NA,NA,NA,NA,NA,NA,NA
"156","stim/objects/Instruments/timbal.png",164,54,164,0.5,"stim/41.jpeg",4,1,1,NA,"Instruments",2,2,"right","right",0.602999926,1,1,0,1,NA,NA,NA,NA,NA,NA,NA,NA,NA,NA,NA,NA,NA,NA,NA,NA,NA,NA,NA,NA,NA,NA,NA,NA
"140","stim/objects/Instruments/speaker.png",165,54,165,0.5,"stim/33.jpeg",3,3,1,NA,"Instruments",2,2,"right","left",0.68900013,0,0,0,1,NA,NA,NA,NA,NA,NA,NA,NA,NA,NA,NA,NA,NA,NA,NA,NA,NA,NA,NA,NA,NA,NA,NA,NA
"123","stim/objects/Instruments/record_player.png",166,54,166,0.5,"stim/31.jpeg",3,1,1,NA,"Instruments",2,1,"right","left",0.743000031,0,0,0,1,NA,NA,NA,NA,NA,NA,NA,NA,NA,NA,NA,NA,NA,NA,NA,NA,NA,NA,NA,NA,NA,NA,NA,NA
"95","stim/objects/HouseObjects/towel2.png",167,54,167,0.9,"stim/22.jpeg",2,2,3,NA,"HouseObjects",1,2,"left","left",0.572000027,1,1,0,1,NA,NA,NA,NA,NA,NA,NA,NA,NA,NA,NA,NA,NA,NA,NA,NA,NA,NA,NA,NA,NA,NA,NA,NA
"177","stim/objects/Instruments/triangle2.png",168,54,168,0.9,"stim/12.jpeg",1,2,3,NA,"Instruments",2,1,"right","right",0.536999941,1,1,0,1,NA,NA,NA,NA,NA,NA,NA,NA,NA,NA,NA,NA,NA,NA,NA,NA,NA,NA,NA,NA,NA,NA,NA,NA
"119","stim/objects/HouseObjects/wateringcan2.png",169,54,169,0.9,"stim/24.jpeg",2,4,3,NA,"HouseObjects",1,2,"left","left",0.509000063,1,1,0,1,NA,NA,NA,NA,NA,NA,NA,NA,NA,NA,NA,NA,NA,NA,NA,NA,NA,NA,NA,NA,NA,NA,NA,NA
"169","stim/objects/Instruments/triangle.png",170,54,170,0.5,"stim/42.jpeg",4,2,1,NA,"Instruments",2,2,"right","",NA,0,0,0,1,NA,NA,NA,NA,NA,NA,NA,NA,NA,NA,NA,NA,NA,NA,NA,NA,NA,NA,NA,NA,NA,NA,NA,NA
"238","stim/objects/Instruments/xylophone.png",171,54,171,0.7,"stim/54.jpeg",5,4,2,NA,"Instruments",2,1,"right","right",0.589999914,1,1,0,1,NA,NA,NA,NA,NA,NA,NA,NA,NA,NA,NA,NA,NA,NA,NA,NA,NA,NA,NA,NA,NA,NA,NA,NA
"183","stim/objects/Instruments/trombone.png",172,54,172,0.5,"stim/43.jpeg",4,3,1,NA,"Instruments",2,4,"right","left",0.802999973,0,0,0,1,NA,NA,NA,NA,NA,NA,NA,NA,NA,NA,NA,NA,NA,NA,NA,NA,NA,NA,NA,NA,NA,NA,NA,NA
"45","stim/objects/HouseObjects/scale2.png",173,54,173,0.7,"stim/64.jpeg",6,4,2,NA,"HouseObjects",1,2,"left","left",0.546999931,1,1,0,1,NA,NA,NA,NA,NA,NA,NA,NA,NA,NA,NA,NA,NA,NA,NA,NA,NA,NA,NA,NA,NA,NA,NA,NA
"46","stim/objects/HouseObjects/scale2.png",174,54,174,0.7,"stim/64.jpeg",6,4,2,NA,"HouseObjects",1,4,"left","left",0.509000063,1,1,0,1,NA,NA,NA,NA,NA,NA,NA,NA,NA,NA,NA,NA,NA,NA,NA,NA,NA,NA,NA,NA,NA,NA,NA,NA
"178","stim/objects/Instruments/triangle2.png",175,54,175,0.9,"stim/12.jpeg",1,2,3,NA,"Instruments",2,3,"right","right",0.594000101,1,1,0,1,NA,NA,NA,NA,NA,NA,NA,NA,NA,NA,NA,NA,NA,NA,NA,NA,NA,NA,NA,NA,NA,NA,NA,NA
"104","stim/objects/HouseObjects/vacuumcleaner2.png",176,54,176,0.9,"stim/23.jpeg",2,3,3,NA,"HouseObjects",1,4,"left","left",0.556999922,1,1,0,1,NA,NA,NA,NA,NA,NA,NA,NA,NA,NA,NA,NA,NA,NA,NA,NA,NA,NA,NA,NA,NA,NA,NA,NA
"124","stim/objects/Instruments/record_player.png",177,54,177,0.5,"stim/31.jpeg",3,1,1,NA,"Instruments",2,1,"right","left",0.676000118,0,0,0,1,NA,NA,NA,NA,NA,NA,NA,NA,NA,NA,NA,NA,NA,NA,NA,NA,NA,NA,NA,NA,NA,NA,NA,NA
"22","stim/objects/HouseObjects/safetypin2.png",178,54,178,0.7,"stim/62.jpeg",6,2,2,NA,"HouseObjects",1,3,"left","left",0.555999994,1,1,0,1,NA,NA,NA,NA,NA,NA,NA,NA,NA,NA,NA,NA,NA,NA,NA,NA,NA,NA,NA,NA,NA,NA,NA,NA
"192","stim/objects/Instruments/trombone2.png",179,54,179,0.9,"stim/13.jpeg",1,3,3,NA,"Instruments",2,2,"right","right",0.569999933,1,1,0,1,NA,NA,NA,NA,NA,NA,NA,NA,NA,NA,NA,NA,NA,NA,NA,NA,NA,NA,NA,NA,NA,NA,NA,NA
"71","stim/objects/HouseObjects/thermometer.png",180,54,180,0.5,"stim/44.jpeg",4,4,1,NA,"HouseObjects",1,3,"left","right",0.592000008,0,0,0,1,NA,NA,NA,NA,NA,NA,NA,NA,NA,NA,NA,NA,NA,NA,NA,NA,NA,NA,NA,NA,NA,NA,NA,NA
"16","stim/objects/HouseObjects/safetypin.png",181,54,181,0.5,"stim/32.jpeg",3,2,1,NA,"HouseObjects",1,4,"left","right",0.671000004,0,0,0,1,NA,NA,NA,NA,NA,NA,NA,NA,NA,NA,NA,NA,NA,NA,NA,NA,NA,NA,NA,NA,NA,NA,NA,NA
"205","stim/objects/Instruments/trumpet2.png",182,54,182,0.9,"stim/14.jpeg",1,4,3,NA,"Instruments",2,2,"right","right",0.601999998,1,1,0,1,NA,NA,NA,NA,NA,NA,NA,NA,NA,NA,NA,NA,NA,NA,NA,NA,NA,NA,NA,NA,NA,NA,NA,NA
"184","stim/objects/Instruments/trombone.png",183,54,183,0.5,"stim/43.jpeg",4,3,1,NA,"Instruments",2,3,"right","left",0.858999968,0,0,0,1,NA,NA,NA,NA,NA,NA,NA,NA,NA,NA,NA,NA,NA,NA,NA,NA,NA,NA,NA,NA,NA,NA,NA,NA
"193","stim/objects/Instruments/trombone2.png",184,54,184,0.9,"stim/13.jpeg",1,3,3,NA,"Instruments",2,3,"right","right",0.657999992,1,1,0,1,NA,NA,NA,NA,NA,NA,NA,NA,NA,NA,NA,NA,NA,NA,NA,NA,NA,NA,NA,NA,NA,NA,NA,NA
"47","stim/objects/HouseObjects/scale2.png",185,54,185,0.7,"stim/64.jpeg",6,4,2,NA,"HouseObjects",1,2,"left","left",0.549999952,1,1,0,1,NA,NA,NA,NA,NA,NA,NA,NA,NA,NA,NA,NA,NA,NA,NA,NA,NA,NA,NA,NA,NA,NA,NA,NA
"34","stim/objects/HouseObjects/saw2.png",186,54,186,0.7,"stim/63.jpeg",6,3,2,NA,"HouseObjects",1,3,"left","left",0.470999956,1,1,0,1,NA,NA,NA,NA,NA,NA,NA,NA,NA,NA,NA,NA,NA,NA,NA,NA,NA,NA,NA,NA,NA,NA,NA,NA
"52","stim/objects/HouseObjects/sponge.png",187,54,187,0.5,"stim/41.jpeg",4,1,1,NA,"HouseObjects",1,3,"left","right",0.723999977,0,0,0,1,NA,NA,NA,NA,NA,NA,NA,NA,NA,NA,NA,NA,NA,NA,NA,NA,NA,NA,NA,NA,NA,NA,NA,NA
"223","stim/objects/Instruments/violin.png",188,54,188,0.7,"stim/52.jpeg",5,2,2,NA,"Instruments",2,2,"right","right",0.611000061,1,1,0,1,NA,NA,NA,NA,NA,NA,NA,NA,NA,NA,NA,NA,NA,NA,NA,NA,NA,NA,NA,NA,NA,NA,NA,NA
"215","stim/objects/Instruments/tuba.png",189,54,189,0.7,"stim/51.jpeg",5,1,2,NA,"Instruments",2,1,"right","right",0.620000124,1,1,0,1,NA,NA,NA,NA,NA,NA,NA,NA,NA,NA,NA,NA,NA,NA,NA,NA,NA,NA,NA,NA,NA,NA,NA,NA
"53","stim/objects/HouseObjects/sponge.png",190,54,190,0.5,"stim/41.jpeg",4,1,1,NA,"HouseObjects",1,4,"left","right",0.677999973,0,0,0,1,NA,NA,NA,NA,NA,NA,NA,NA,NA,NA,NA,NA,NA,NA,NA,NA,NA,NA,NA,NA,NA,NA,NA,NA
"165","stim/objects/Instruments/timbal2.png",191,54,191,0.9,"stim/11.jpeg",1,1,3,NA,"Instruments",2,2,"right","right",0.587000132,1,1,0,1,NA,NA,NA,NA,NA,NA,NA,NA,NA,NA,NA,NA,NA,NA,NA,NA,NA,NA,NA,NA,NA,NA,NA,NA
"35","stim/objects/HouseObjects/saw2.png",192,54,192,0.7,"stim/63.jpeg",6,3,2,NA,"HouseObjects",1,3,"left","left",0.556999922,1,1,0,1,NA,NA,NA,NA,NA,NA,NA,NA,NA,NA,NA,NA,NA,NA,NA,NA,NA,NA,NA,NA,NA,NA,NA,NA
"157","stim/objects/Instruments/timbal.png",193,54,193,0.5,"stim/41.jpeg",4,1,1,NA,"Instruments",2,4,"right","right",0.598999977,1,1,0,1,NA,NA,NA,NA,NA,NA,NA,NA,NA,NA,NA,NA,NA,NA,NA,NA,NA,NA,NA,NA,NA,NA,NA,NA
"81","stim/objects/HouseObjects/thread2.png",194,54,194,0.9,"stim/21.jpeg",2,1,3,NA,"HouseObjects",1,4,"left","left",0.546000004,1,1,0,1,NA,NA,NA,NA,NA,NA,NA,NA,NA,NA,NA,NA,NA,NA,NA,NA,NA,NA,NA,NA,NA,NA,NA,NA
"166","stim/objects/Instruments/timbal2.png",195,54,195,0.9,"stim/11.jpeg",1,1,3,NA,"Instruments",2,4,"right","right",0.479000092,1,1,0,1,NA,NA,NA,NA,NA,NA,NA,NA,NA,NA,NA,NA,NA,NA,NA,NA,NA,NA,NA,NA,NA,NA,NA,NA
"125","stim/objects/Instruments/record_player.png",196,54,196,0.5,"stim/31.jpeg",3,1,1,NA,"Instruments",2,2,"right","left",0.611000061,0,0,0,1,NA,NA,NA,NA,NA,NA,NA,NA,NA,NA,NA,NA,NA,NA,NA,NA,NA,NA,NA,NA,NA,NA,NA,NA
"105","stim/objects/HouseObjects/vacuumcleaner2.png",197,54,197,0.9,"stim/23.jpeg",2,3,3,NA,"HouseObjects",1,4,"left","left",0.518000126,1,1,0,1,NA,NA,NA,NA,NA,NA,NA,NA,NA,NA,NA,NA,NA,NA,NA,NA,NA,NA,NA,NA,NA,NA,NA,NA
"179","stim/objects/Instruments/triangle2.png",198,54,198,0.9,"stim/12.jpeg",1,2,3,NA,"Instruments",2,1,"right","right",0.575000048,1,1,0,1,NA,NA,NA,NA,NA,NA,NA,NA,NA,NA,NA,NA,NA,NA,NA,NA,NA,NA,NA,NA,NA,NA,NA,NA
"180","stim/objects/Instruments/triangle2.png",199,54,199,0.9,"stim/12.jpeg",1,2,3,NA,"Instruments",2,1,"right","right",0.524999857,1,1,0,1,NA,NA,NA,NA,NA,NA,NA,NA,NA,NA,NA,NA,NA,NA,NA,NA,NA,NA,NA,NA,NA,NA,NA,NA
"239","stim/objects/Instruments/xylophone.png",200,54,200,0.7,"stim/54.jpeg",5,4,2,NA,"Instruments",2,1,"right","right",0.660000086,1,1,0,1,NA,NA,NA,NA,NA,NA,NA,NA,NA,NA,NA,NA,NA,NA,NA,NA,NA,NA,NA,NA,NA,NA,NA,NA
"152","stim/objects/Instruments/tambourine2.png",201,54,201,0.3,"stim/64.jpeg",6,4,2,NA,"Instruments",2,3,"right","left",0.536000013,0,0,0,1,NA,NA,NA,NA,NA,NA,NA,NA,NA,NA,NA,NA,NA,NA,NA,NA,NA,NA,NA,NA,NA,NA,NA,NA
"65","stim/objects/HouseObjects/teapot.png",202,54,202,0.5,"stim/43.jpeg",4,3,1,NA,"HouseObjects",1,2,"left","left",0.690000057,1,1,0,1,NA,NA,NA,NA,NA,NA,NA,NA,NA,NA,NA,NA,NA,NA,NA,NA,NA,NA,NA,NA,NA,NA,NA,NA
"12","stim/objects/HouseObjects/rug2.png",203,54,203,0.7,"stim/61.jpeg",6,1,2,NA,"HouseObjects",1,1,"left","left",0.598999977,1,1,0,1,NA,NA,NA,NA,NA,NA,NA,NA,NA,NA,NA,NA,NA,NA,NA,NA,NA,NA,NA,NA,NA,NA,NA,NA
"41","stim/objects/HouseObjects/scale.png",204,54,204,0.5,"stim/34.jpeg",3,4,1,NA,"HouseObjects",1,3,"left","left",0.659999847,1,1,0,1,NA,NA,NA,NA,NA,NA,NA,NA,NA,NA,NA,NA,NA,NA,NA,NA,NA,NA,NA,NA,NA,NA,NA,NA
"48","stim/objects/HouseObjects/scale2.png",205,54,205,0.7,"stim/64.jpeg",6,4,2,NA,"HouseObjects",1,3,"left","left",0.595000029,1,1,0,1,NA,NA,NA,NA,NA,NA,NA,NA,NA,NA,NA,NA,NA,NA,NA,NA,NA,NA,NA,NA,NA,NA,NA,NA
"36","stim/objects/HouseObjects/saw2.png",206,54,206,0.7,"stim/63.jpeg",6,3,2,NA,"HouseObjects",1,4,"left","left",0.549999952,1,1,0,1,NA,NA,NA,NA,NA,NA,NA,NA,NA,NA,NA,NA,NA,NA,NA,NA,NA,NA,NA,NA,NA,NA,NA,NA
"128","stim/objects/Instruments/record_player2.png",207,54,207,0.3,"stim/61.jpeg",6,1,2,NA,"Instruments",2,3,"right","left",0.489000082,0,0,0,1,NA,NA,NA,NA,NA,NA,NA,NA,NA,NA,NA,NA,NA,NA,NA,NA,NA,NA,NA,NA,NA,NA,NA,NA
"111","stim/objects/HouseObjects/wateringcan.png",208,54,208,0.3,"stim/54.jpeg",5,4,2,NA,"HouseObjects",1,2,"left","right",0.868999958,0,0,0,1,NA,NA,NA,NA,NA,NA,NA,NA,NA,NA,NA,NA,NA,NA,NA,NA,NA,NA,NA,NA,NA,NA,NA,NA
"29","stim/objects/HouseObjects/saw.png",209,54,209,0.5,"stim/33.jpeg",3,3,1,NA,"HouseObjects",1,3,"left","left",0.671000004,1,1,0,1,NA,NA,NA,NA,NA,NA,NA,NA,NA,NA,NA,NA,NA,NA,NA,NA,NA,NA,NA,NA,NA,NA,NA,NA
"82","stim/objects/HouseObjects/thread2.png",210,54,210,0.9,"stim/21.jpeg",2,1,3,NA,"HouseObjects",1,1,"left","left",0.539000034,1,1,0,1,NA,NA,NA,NA,NA,NA,NA,NA,NA,NA,NA,NA,NA,NA,NA,NA,NA,NA,NA,NA,NA,NA,NA,NA
"106","stim/objects/HouseObjects/vacuumcleaner2.png",211,54,211,0.9,"stim/23.jpeg",2,3,3,NA,"HouseObjects",1,3,"left","left",0.559000015,1,1,0,1,NA,NA,NA,NA,NA,NA,NA,NA,NA,NA,NA,NA,NA,NA,NA,NA,NA,NA,NA,NA,NA,NA,NA,NA
"87","stim/objects/HouseObjects/towel.png",212,54,212,0.3,"stim/52.jpeg",5,2,2,NA,"HouseObjects",1,1,"left","right",0.631000042,0,0,0,1,NA,NA,NA,NA,NA,NA,NA,NA,NA,NA,NA,NA,NA,NA,NA,NA,NA,NA,NA,NA,NA,NA,NA,NA
"229","stim/objects/Instruments/vuvuzela.png",213,54,213,0.7,"stim/53.jpeg",5,3,2,NA,"Instruments",2,2,"right","right",0.607000113,1,1,0,1,NA,NA,NA,NA,NA,NA,NA,NA,NA,NA,NA,NA,NA,NA,NA,NA,NA,NA,NA,NA,NA,NA,NA,NA
"107","stim/objects/HouseObjects/vacuumcleaner2.png",214,54,214,0.9,"stim/23.jpeg",2,3,3,NA,"HouseObjects",1,2,"left","left",0.502999783,1,1,0,1,NA,NA,NA,NA,NA,NA,NA,NA,NA,NA,NA,NA,NA,NA,NA,NA,NA,NA,NA,NA,NA,NA,NA,NA
"17","stim/objects/HouseObjects/safetypin.png",215,54,215,0.5,"stim/32.jpeg",3,2,1,NA,"HouseObjects",1,3,"left","right",0.744999886,0,0,0,1,NA,NA,NA,NA,NA,NA,NA,NA,NA,NA,NA,NA,NA,NA,NA,NA,NA,NA,NA,NA,NA,NA,NA,NA
"98","stim/objects/HouseObjects/vacuumcleaner.png",216,54,216,0.3,"stim/53.jpeg",5,3,2,NA,"HouseObjects",1,4,"left","right",0.770999908,0,0,0,1,NA,NA,NA,NA,NA,NA,NA,NA,NA,NA,NA,NA,NA,NA,NA,NA,NA,NA,NA,NA,NA,NA,NA,NA
"206","stim/objects/Instruments/trumpet2.png",217,54,217,0.9,"stim/14.jpeg",1,4,3,NA,"Instruments",2,2,"right","right",0.578999996,1,1,0,1,NA,NA,NA,NA,NA,NA,NA,NA,NA,NA,NA,NA,NA,NA,NA,NA,NA,NA,NA,NA,NA,NA,NA,NA
"75","stim/objects/HouseObjects/thread.png",218,54,218,0.3,"stim/51.jpeg",5,1,2,NA,"HouseObjects",1,1,"left","right",0.697999954,0,0,0,1,NA,NA,NA,NA,NA,NA,NA,NA,NA,NA,NA,NA,NA,NA,NA,NA,NA,NA,NA,NA,NA,NA,NA,NA
"120","stim/objects/HouseObjects/wateringcan2.png",219,54,219,0.9,"stim/24.jpeg",2,4,3,NA,"HouseObjects",1,4,"left","left",0.553999901,1,1,0,1,NA,NA,NA,NA,NA,NA,NA,NA,NA,NA,NA,NA,NA,NA,NA,NA,NA,NA,NA,NA,NA,NA,NA,NA
"185","stim/objects/Instruments/trombone.png",220,54,220,0.5,"stim/43.jpeg",4,3,1,NA,"Instruments",2,4,"right","left",0.653000116,0,0,0,1,NA,NA,NA,NA,NA,NA,NA,NA,NA,NA,NA,NA,NA,NA,NA,NA,NA,NA,NA,NA,NA,NA,NA,NA
"108","stim/objects/HouseObjects/vacuumcleaner2.png",221,54,221,0.9,"stim/23.jpeg",2,3,3,NA,"HouseObjects",1,4,"left","left",0.539999962,1,1,0,1,NA,NA,NA,NA,NA,NA,NA,NA,NA,NA,NA,NA,NA,NA,NA,NA,NA,NA,NA,NA,NA,NA,NA,NA
"96","stim/objects/HouseObjects/towel2.png",222,54,222,0.9,"stim/22.jpeg",2,2,3,NA,"HouseObjects",1,4,"left","left",0.552999973,1,1,0,1,NA,NA,NA,NA,NA,NA,NA,NA,NA,NA,NA,NA,NA,NA,NA,NA,NA,NA,NA,NA,NA,NA,NA,NA
"141","stim/objects/Instruments/speaker.png",223,54,223,0.5,"stim/33.jpeg",3,3,1,NA,"Instruments",2,1,"right","left",0.601999998,0,0,0,1,NA,NA,NA,NA,NA,NA,NA,NA,NA,NA,NA,NA,NA,NA,NA,NA,NA,NA,NA,NA,NA,NA,NA,NA
"83","stim/objects/HouseObjects/thread2.png",224,54,224,0.9,"stim/21.jpeg",2,1,3,NA,"HouseObjects",1,4,"left","left",0.510999918,1,1,0,1,NA,NA,NA,NA,NA,NA,NA,NA,NA,NA,NA,NA,NA,NA,NA,NA,NA,NA,NA,NA,NA,NA,NA,NA
"207","stim/objects/Instruments/trumpet2.png",225,54,225,0.9,"stim/14.jpeg",1,4,3,NA,"Instruments",2,4,"right","right",0.605999947,1,1,0,1,NA,NA,NA,NA,NA,NA,NA,NA,NA,NA,NA,NA,NA,NA,NA,NA,NA,NA,NA,NA,NA,NA,NA,NA
"23","stim/objects/HouseObjects/safetypin2.png",226,54,226,0.7,"stim/62.jpeg",6,2,2,NA,"HouseObjects",1,3,"left","left",0.570000172,1,1,0,1,NA,NA,NA,NA,NA,NA,NA,NA,NA,NA,NA,NA,NA,NA,NA,NA,NA,NA,NA,NA,NA,NA,NA,NA
"149","stim/objects/Instruments/tambourine.png",227,54,227,0.5,"stim/34.jpeg",3,4,1,NA,"Instruments",2,2,"right","left",0.572999954,0,0,0,1,NA,NA,NA,NA,NA,NA,NA,NA,NA,NA,NA,NA,NA,NA,NA,NA,NA,NA,NA,NA,NA,NA,NA,NA
"170","stim/objects/Instruments/triangle.png",228,54,228,0.5,"stim/42.jpeg",4,2,1,NA,"Instruments",2,1,"right","right",0.804000139,1,1,0,1,NA,NA,NA,NA,NA,NA,NA,NA,NA,NA,NA,NA,NA,NA,NA,NA,NA,NA,NA,NA,NA,NA,NA,NA
"230","stim/objects/Instruments/vuvuzela.png",229,54,229,0.7,"stim/53.jpeg",5,3,2,NA,"Instruments",2,1,"right","right",0.561999798,1,1,0,1,NA,NA,NA,NA,NA,NA,NA,NA,NA,NA,NA,NA,NA,NA,NA,NA,NA,NA,NA,NA,NA,NA,NA,NA
"208","stim/objects/Instruments/trumpet2.png",230,54,230,0.9,"stim/14.jpeg",1,4,3,NA,"Instruments",2,1,"right","right",0.493999958,1,1,0,1,NA,NA,NA,NA,NA,NA,NA,NA,NA,NA,NA,NA,NA,NA,NA,NA,NA,NA,NA,NA,NA,NA,NA,NA
"66","stim/objects/HouseObjects/teapot2.png",231,54,231,0.1,"stim/13.jpeg",1,3,3,NA,"HouseObjects",1,1,"left","right",0.519999981,0,0,0,1,NA,NA,NA,NA,NA,NA,NA,NA,NA,NA,NA,NA,NA,NA,NA,NA,NA,NA,NA,NA,NA,NA,NA,NA
"4","stim/objects/HouseObjects/rug.png",232,54,232,0.5,"stim/31.jpeg",3,1,1,NA,"HouseObjects",1,1,"left","left",0.615999937,1,1,0,1,NA,NA,NA,NA,NA,NA,NA,NA,NA,NA,NA,NA,NA,NA,NA,NA,NA,NA,NA,NA,NA,NA,NA,NA
"231","stim/objects/Instruments/vuvuzela.png",233,54,233,0.7,"stim/53.jpeg",5,3,2,NA,"Instruments",2,4,"right","right",0.743000031,1,1,0,1,NA,NA,NA,NA,NA,NA,NA,NA,NA,NA,NA,NA,NA,NA,NA,NA,NA,NA,NA,NA,NA,NA,NA,NA
"99","stim/objects/HouseObjects/vacuumcleaner.png",234,54,234,0.3,"stim/53.jpeg",5,3,2,NA,"HouseObjects",1,3,"left","right",0.509000063,0,0,0,1,NA,NA,NA,NA,NA,NA,NA,NA,NA,NA,NA,NA,NA,NA,NA,NA,NA,NA,NA,NA,NA,NA,NA,NA
"24","stim/objects/HouseObjects/safetypin2.png",235,54,235,0.7,"stim/62.jpeg",6,2,2,NA,"HouseObjects",1,2,"left","left",0.522000074,1,1,0,1,NA,NA,NA,NA,NA,NA,NA,NA,NA,NA,NA,NA,NA,NA,NA,NA,NA,NA,NA,NA,NA,NA,NA,NA
"171","stim/objects/Instruments/triangle.png",236,54,236,0.5,"stim/42.jpeg",4,2,1,NA,"Instruments",2,1,"right","right",0.627000093,1,1,0,1,NA,NA,NA,NA,NA,NA,NA,NA,NA,NA,NA,NA,NA,NA,NA,NA,NA,NA,NA,NA,NA,NA,NA,NA
"194","stim/objects/Instruments/trombone2.png",237,54,237,0.9,"stim/13.jpeg",1,3,3,NA,"Instruments",2,3,"right","right",0.568000078,1,1,0,1,NA,NA,NA,NA,NA,NA,NA,NA,NA,NA,NA,NA,NA,NA,NA,NA,NA,NA,NA,NA,NA,NA,NA,NA
"5","stim/objects/HouseObjects/rug.png",238,54,238,0.5,"stim/31.jpeg",3,1,1,NA,"HouseObjects",1,2,"left","left",0.565999985,1,1,0,1,NA,NA,NA,NA,NA,NA,NA,NA,NA,NA,NA,NA,NA,NA,NA,NA,NA,NA,NA,NA,NA,NA,NA,NA
"84","stim/objects/HouseObjects/thread2.png",239,54,239,0.9,"stim/21.jpeg",2,1,3,NA,"HouseObjects",1,2,"left","left",0.521000147,1,1,0,1,NA,NA,NA,NA,NA,NA,NA,NA,NA,NA,NA,NA,NA,NA,NA,NA,NA,NA,NA,NA,NA,NA,NA,NA
"224","stim/objects/Instruments/violin2.png",240,54,240,0.1,"stim/22.jpeg",2,2,3,NA,"Instruments",2,4,"right","left",0.523999929,0,0,0,1,NA,NA,NA,NA,NA,NA,NA,NA,NA,NA,NA,NA,NA,NA,NA,NA,NA,NA,NA,NA,NA,NA,NA,NA
"291","stim/objects/HouseObjects/doormat.png",248,54,241,0.9,"stim/21.jpeg",2,1,3,2,"HouseObjects",1,2,"left","left",0.680000067,1,1,1,0,NA,NA,NA,NA,NA,NA,NA,NA,NA,NA,NA,NA,NA,NA,NA,NA,NA,NA,NA,NA,NA,NA,NA,NA
"256","stim/objects/HouseObjects/blender.png",249,54,242,0.5,"stim/43.jpeg",4,3,1,2,"HouseObjects",1,3,"left","left",0.871999979,1,1,1,0,NA,NA,NA,NA,NA,NA,NA,NA,NA,NA,NA,NA,NA,NA,NA,NA,NA,NA,NA,NA,NA,NA,NA,NA
"436","stim/objects/Instruments/cymbal.png",250,54,243,0.7,"stim/51.jpeg",5,1,2,2,"Instruments",2,3,"right","right",0.851999998,1,1,1,0,NA,NA,NA,NA,NA,NA,NA,NA,NA,NA,NA,NA,NA,NA,NA,NA,NA,NA,NA,NA,NA,NA,NA,NA
"308","stim/objects/HouseObjects/dustpan.png",251,54,244,0.9,"stim/21.jpeg",2,1,3,2,"HouseObjects",1,3,"left","left",0.572999954,1,1,1,0,NA,NA,NA,NA,NA,NA,NA,NA,NA,NA,NA,NA,NA,NA,NA,NA,NA,NA,NA,NA,NA,NA,NA,NA
"287","stim/objects/HouseObjects/dishsoap.png",252,54,245,0.7,"stim/63.jpeg",6,3,2,2,"HouseObjects",1,4,"left","left",0.671000004,1,1,1,0,NA,NA,NA,NA,NA,NA,NA,NA,NA,NA,NA,NA,NA,NA,NA,NA,NA,NA,NA,NA,NA,NA,NA,NA
"473","stim/objects/Instruments/flutetrans.png",253,54,246,0.9,"stim/14.jpeg",1,4,3,2,"Instruments",2,3,"right","right",0.602999926,1,1,1,0,NA,NA,NA,NA,NA,NA,NA,NA,NA,NA,NA,NA,NA,NA,NA,NA,NA,NA,NA,NA,NA,NA,NA,NA
"359","stim/objects/HouseObjects/glass.png",254,54,247,0.9,"stim/22.jpeg",2,2,3,2,"HouseObjects",1,4,"left","left",0.526000023,1,1,1,0,NA,NA,NA,NA,NA,NA,NA,NA,NA,NA,NA,NA,NA,NA,NA,NA,NA,NA,NA,NA,NA,NA,NA,NA
"309","stim/objects/HouseObjects/dustpan.png",255,54,248,0.9,"stim/21.jpeg",2,1,3,2,"HouseObjects",1,3,"left","left",0.552000046,1,1,1,0,NA,NA,NA,NA,NA,NA,NA,NA,NA,NA,NA,NA,NA,NA,NA,NA,NA,NA,NA,NA,NA,NA,NA,NA
"561","stim/objects/Instruments/musicstand.png",256,54,249,0.7,"stim/52.jpeg",5,2,2,1,"Instruments",2,2,"right","right",0.551000118,1,1,1,0,67,54,1,0.7,2,"stim/52.jpeg",5,2,"stim/52.jpeg",2,"left",1.31099987,4,2,4.743000031,1,2.625999928,67,1,1,1,0,0,0
"421","stim/objects/Instruments/bassguitar.png",257,54,250,0.5,"stim/43.jpeg",4,3,1,2,"Instruments",2,4,"right","left",0.654999971,0,0,1,0,NA,NA,NA,NA,NA,NA,NA,NA,NA,NA,NA,NA,NA,NA,NA,NA,NA,NA,NA,NA,NA,NA,NA,NA
"456","stim/objects/Instruments/flute.png",258,54,251,0.9,"stim/12.jpeg",1,2,3,2,"Instruments",2,2,"right","right",0.618000031,1,1,1,0,NA,NA,NA,NA,NA,NA,NA,NA,NA,NA,NA,NA,NA,NA,NA,NA,NA,NA,NA,NA,NA,NA,NA,NA
"292","stim/objects/HouseObjects/doormat.png",259,54,252,0.9,"stim/22.jpeg",2,2,3,2,"HouseObjects",1,4,"left","left",0.521999836,1,1,1,0,NA,NA,NA,NA,NA,NA,NA,NA,NA,NA,NA,NA,NA,NA,NA,NA,NA,NA,NA,NA,NA,NA,NA,NA
"311","stim/objects/HouseObjects/dustpan.png",260,54,253,0.9,"stim/24.jpeg",2,4,3,2,"HouseObjects",1,1,"left","left",0.492000103,1,1,1,0,NA,NA,NA,NA,NA,NA,NA,NA,NA,NA,NA,NA,NA,NA,NA,NA,NA,NA,NA,NA,NA,NA,NA,NA
"325","stim/objects/HouseObjects/flyswatter.png",261,54,254,0.9,"stim/24.jpeg",2,4,3,2,"HouseObjects",1,1,"left","left",0.503000021,1,1,1,0,NA,NA,NA,NA,NA,NA,NA,NA,NA,NA,NA,NA,NA,NA,NA,NA,NA,NA,NA,NA,NA,NA,NA,NA
"326","stim/objects/HouseObjects/flyswatter.png",262,54,255,0.9,"stim/22.jpeg",2,2,3,2,"HouseObjects",1,3,"left","left",0.50999999,1,1,1,0,NA,NA,NA,NA,NA,NA,NA,NA,NA,NA,NA,NA,NA,NA,NA,NA,NA,NA,NA,NA,NA,NA,NA,NA
"259","stim/objects/HouseObjects/bottle.png",263,54,256,0.5,"stim/41.jpeg",4,1,1,2,"HouseObjects",1,2,"left","right",0.484999895,0,0,1,0,NA,NA,NA,NA,NA,NA,NA,NA,NA,NA,NA,NA,NA,NA,NA,NA,NA,NA,NA,NA,NA,NA,NA,NA
"507","stim/objects/Instruments/gong.png",264,54,257,0.9,"stim/14.jpeg",1,4,3,2,"Instruments",2,4,"right","right",0.587000132,1,1,1,0,NA,NA,NA,NA,NA,NA,NA,NA,NA,NA,NA,NA,NA,NA,NA,NA,NA,NA,NA,NA,NA,NA,NA,NA
"327","stim/objects/HouseObjects/flyswatter.png",265,54,258,0.9,"stim/21.jpeg",2,1,3,2,"HouseObjects",1,1,"left","left",0.506000042,1,1,1,0,NA,NA,NA,NA,NA,NA,NA,NA,NA,NA,NA,NA,NA,NA,NA,NA,NA,NA,NA,NA,NA,NA,NA,NA
"508","stim/objects/Instruments/gong.png",266,54,259,0.9,"stim/11.jpeg",1,1,3,2,"Instruments",2,2,"right","right",0.663000107,1,1,1,0,NA,NA,NA,NA,NA,NA,NA,NA,NA,NA,NA,NA,NA,NA,NA,NA,NA,NA,NA,NA,NA,NA,NA,NA
"312","stim/objects/HouseObjects/dustpan.png",267,54,260,0.9,"stim/21.jpeg",2,1,3,2,"HouseObjects",1,4,"left","left",0.506999969,1,1,1,0,NA,NA,NA,NA,NA,NA,NA,NA,NA,NA,NA,NA,NA,NA,NA,NA,NA,NA,NA,NA,NA,NA,NA,NA
"268","stim/objects/HouseObjects/clock.png",268,54,261,0.5,"stim/44.jpeg",4,4,1,2,"HouseObjects",1,1,"left","right",0.710000038,0,0,1,0,NA,NA,NA,NA,NA,NA,NA,NA,NA,NA,NA,NA,NA,NA,NA,NA,NA,NA,NA,NA,NA,NA,NA,NA
"423","stim/objects/Instruments/bassguitar2.png",269,54,262,0.3,"stim/62.jpeg",6,2,2,1,"Instruments",2,3,"right","left",0.519000053,0,0,1,0,125,54,1,0.3,2,"stim/62.jpeg",6,2,"stim/62.jpeg",3,"left",1.154000044,3,4,2.615999937,2,3.614999771,125,1,0,0,0,0,0
"457","stim/objects/Instruments/flute.png",270,54,263,0.9,"stim/12.jpeg",1,2,3,2,"Instruments",2,4,"right","right",0.642000198,1,1,1,0,NA,NA,NA,NA,NA,NA,NA,NA,NA,NA,NA,NA,NA,NA,NA,NA,NA,NA,NA,NA,NA,NA,NA,NA
"279","stim/objects/HouseObjects/coffee.png",271,54,264,0.7,"stim/61.jpeg",6,1,2,2,"HouseObjects",1,1,"left","left",0.570000172,1,1,1,0,NA,NA,NA,NA,NA,NA,NA,NA,NA,NA,NA,NA,NA,NA,NA,NA,NA,NA,NA,NA,NA,NA,NA,NA
"429","stim/objects/Instruments/chime2.png",272,54,265,0.3,"stim/64.jpeg",6,4,2,1,"Instruments",2,1,"right","left",0.607999802,0,0,1,0,126,54,1,0.3,2,"stim/64.jpeg",6,4,"stim/64.jpeg",1,"right",1.530999899,1,4,3.399999857,2,1.625,126,0,1,NA,0,NA,0
"375","stim/objects/HouseObjects/glass2.png",273,54,266,0.1,"stim/11.jpeg",1,1,3,1,"HouseObjects",1,4,"left","right",0.607000113,0,0,1,0,77,54,1,0.1,1,"stim/11.jpeg",1,1,"stim/11.jpeg",4,"left",0.897000074,4,3,4.177000046,3,2.097999811,77,1,0,0,0,0,0
"440","stim/objects/Instruments/doublebass.png",274,54,267,0.7,"stim/54.jpeg",5,4,2,2,"Instruments",2,2,"right","right",0.688999891,1,1,1,0,NA,NA,NA,NA,NA,NA,NA,NA,NA,NA,NA,NA,NA,NA,NA,NA,NA,NA,NA,NA,NA,NA,NA,NA
"293","stim/objects/HouseObjects/doormat.png",275,54,268,0.9,"stim/21.jpeg",2,1,3,2,"HouseObjects",1,2,"left","left",0.555000067,1,1,1,0,NA,NA,NA,NA,NA,NA,NA,NA,NA,NA,NA,NA,NA,NA,NA,NA,NA,NA,NA,NA,NA,NA,NA,NA
"524","stim/objects/Instruments/grandpiano.png",276,54,269,0.9,"stim/14.jpeg",1,4,3,2,"Instruments",2,4,"right","right",0.56099987,1,1,1,0,NA,NA,NA,NA,NA,NA,NA,NA,NA,NA,NA,NA,NA,NA,NA,NA,NA,NA,NA,NA,NA,NA,NA,NA
"453","stim/objects/Instruments/electricguitar.png",277,54,270,0.7,"stim/54.jpeg",5,4,2,2,"Instruments",2,1,"right","right",0.656000137,1,1,1,0,NA,NA,NA,NA,NA,NA,NA,NA,NA,NA,NA,NA,NA,NA,NA,NA,NA,NA,NA,NA,NA,NA,NA,NA
"448","stim/objects/Instruments/electricdrumset.png",278,54,271,0.7,"stim/54.jpeg",5,4,2,2,"Instruments",2,1,"right","right",0.526000023,1,1,1,0,NA,NA,NA,NA,NA,NA,NA,NA,NA,NA,NA,NA,NA,NA,NA,NA,NA,NA,NA,NA,NA,NA,NA,NA
"402","stim/objects/HouseObjects/remote.png",279,54,272,0.3,"stim/54.jpeg",5,4,2,1,"HouseObjects",1,3,"left","right",0.575999975,0,0,1,0,97,54,1,0.3,1,"stim/54.jpeg",5,4,"stim/54.jpeg",3,"right",1.255999804,1,4,5.907999754,3,2.17599988,97,0,1,NA,1,NA,0
"417","stim/objects/Instruments/banjo2.png",280,54,273,0.7,"stim/52.jpeg",5,2,2,1,"Instruments",2,1,"right","right",0.63499999,1,1,1,0,144,54,1,0.7,2,"stim/52.jpeg",5,2,"stim/52.jpeg",1,"right",1.358999968,1,2,3.210999966,2,2.593999863,144,0,1,NA,0,NA,0
"342","stim/objects/HouseObjects/garbagebin.png",281,54,274,0.9,"stim/21.jpeg",2,1,3,2,"HouseObjects",1,3,"left","left",0.523000002,1,1,1,0,NA,NA,NA,NA,NA,NA,NA,NA,NA,NA,NA,NA,NA,NA,NA,NA,NA,NA,NA,NA,NA,NA,NA,NA
"414","stim/objects/Instruments/balalaika2.png",282,54,275,0.7,"stim/51.jpeg",5,1,2,1,"Instruments",2,3,"right","right",0.576000214,1,1,1,0,158,54,1,0.7,2,"stim/51.jpeg",5,1,"stim/51.jpeg",3,"right",1.113999844,2,2,2.108999968,2,4.854000092,158,0,0,NA,0,NA,0
"509","stim/objects/Instruments/gong.png",283,54,276,0.9,"stim/14.jpeg",1,4,3,2,"Instruments",2,4,"right","right",0.621999979,1,1,1,0,NA,NA,NA,NA,NA,NA,NA,NA,NA,NA,NA,NA,NA,NA,NA,NA,NA,NA,NA,NA,NA,NA,NA,NA
"360","stim/objects/HouseObjects/glass.png",284,54,277,0.9,"stim/21.jpeg",2,1,3,2,"HouseObjects",1,1,"left","left",0.492000103,1,1,1,0,NA,NA,NA,NA,NA,NA,NA,NA,NA,NA,NA,NA,NA,NA,NA,NA,NA,NA,NA,NA,NA,NA,NA,NA
"525","stim/objects/Instruments/grandpiano.png",285,54,278,0.9,"stim/12.jpeg",1,2,3,2,"Instruments",2,2,"right","right",0.664999962,1,1,1,0,NA,NA,NA,NA,NA,NA,NA,NA,NA,NA,NA,NA,NA,NA,NA,NA,NA,NA,NA,NA,NA,NA,NA,NA
"361","stim/objects/HouseObjects/glass.png",286,54,279,0.9,"stim/22.jpeg",2,2,3,2,"HouseObjects",1,2,"left","left",0.50999999,1,1,1,0,NA,NA,NA,NA,NA,NA,NA,NA,NA,NA,NA,NA,NA,NA,NA,NA,NA,NA,NA,NA,NA,NA,NA,NA
"441","stim/objects/Instruments/doublebass.png",287,54,280,0.7,"stim/51.jpeg",5,1,2,2,"Instruments",2,4,"right","right",0.583000183,1,1,1,0,NA,NA,NA,NA,NA,NA,NA,NA,NA,NA,NA,NA,NA,NA,NA,NA,NA,NA,NA,NA,NA,NA,NA,NA
"474","stim/objects/Instruments/flutetrans.png",288,54,281,0.9,"stim/13.jpeg",1,3,3,2,"Instruments",2,2,"right","right",0.503999949,1,1,1,0,NA,NA,NA,NA,NA,NA,NA,NA,NA,NA,NA,NA,NA,NA,NA,NA,NA,NA,NA,NA,NA,NA,NA,NA
"542","stim/objects/Instruments/guitarcase2.png",289,54,282,0.9,"stim/14.jpeg",1,4,3,1,"Instruments",2,4,"right","right",0.460000038,1,1,1,0,82,54,1,0.9,2,"stim/14.jpeg",1,4,"stim/14.jpeg",4,"right",0.981999874,2,4,2.492999792,2,1.56099987,82,0,1,NA,0,NA,0
"406","stim/objects/Instruments/accordion.png",290,54,283,0.5,"stim/31.jpeg",3,1,1,2,"Instruments",2,4,"right","left",0.785000086,0,0,1,0,NA,NA,NA,NA,NA,NA,NA,NA,NA,NA,NA,NA,NA,NA,NA,NA,NA,NA,NA,NA,NA,NA,NA,NA
"510","stim/objects/Instruments/gong.png",291,54,284,0.9,"stim/12.jpeg",1,2,3,2,"Instruments",2,1,"right","right",0.480000019,1,1,1,0,NA,NA,NA,NA,NA,NA,NA,NA,NA,NA,NA,NA,NA,NA,NA,NA,NA,NA,NA,NA,NA,NA,NA,NA
"247","stim/objects/HouseObjects/barbecuelighter.png",292,54,285,0.5,"stim/33.jpeg",3,3,1,2,"HouseObjects",1,2,"left","left",0.638999939,1,1,1,0,NA,NA,NA,NA,NA,NA,NA,NA,NA,NA,NA,NA,NA,NA,NA,NA,NA,NA,NA,NA,NA,NA,NA,NA
"475","stim/objects/Instruments/flutetrans.png",293,54,286,0.9,"stim/13.jpeg",1,3,3,2,"Instruments",2,4,"right","right",0.539999962,1,1,1,0,NA,NA,NA,NA,NA,NA,NA,NA,NA,NA,NA,NA,NA,NA,NA,NA,NA,NA,NA,NA,NA,NA,NA,NA
"380","stim/objects/HouseObjects/handbrush.png",294,54,287,0.5,"stim/31.jpeg",3,1,1,1,"HouseObjects",1,4,"left","left",0.607000113,1,1,1,0,172,54,1,0.5,1,"stim/31.jpeg",3,1,"stim/31.jpeg",4,"right",1.710999727,1,3,2.144000053,2,5.802999973,172,0,0,NA,0,NA,0
"412","stim/objects/Instruments/balalaika.png",295,54,288,0.5,"stim/33.jpeg",3,3,1,2,"Instruments",2,4,"right","left",0.506999969,0,0,1,0,NA,NA,NA,NA,NA,NA,NA,NA,NA,NA,NA,NA,NA,NA,NA,NA,NA,NA,NA,NA,NA,NA,NA,NA
"398","stim/objects/HouseObjects/pitcher.png",296,54,289,0.3,"stim/52.jpeg",5,2,2,1,"HouseObjects",1,2,"left","right",0.569000006,0,0,1,0,159,54,1,0.3,1,"stim/52.jpeg",5,2,"stim/52.jpeg",2,"right",0.909999847,1,1,4.958999872,2,2.097000122,159,0,0,NA,1,NA,0
"384","stim/objects/HouseObjects/iron.png",297,54,290,0.5,"stim/33.jpeg",3,3,1,1,"HouseObjects",1,2,"left","left",0.576999903,1,1,1,0,99,54,1,0.5,1,"stim/33.jpeg",3,3,"stim/33.jpeg",2,"left",1.075999737,3,1,4.978999853,3,3.587999821,99,1,0,0,0,0,0
"358","stim/objects/HouseObjects/garbagebin2.png",298,54,291,0.1,"stim/14.jpeg",1,4,3,1,"HouseObjects",1,3,"left","right",0.489000082,0,0,1,0,197,54,1,0.1,1,"stim/14.jpeg",1,4,"stim/14.jpeg",3,"right",1.92599988,2,4,3.11199975,2,1.671999931,197,0,1,NA,0,NA,0
"295","stim/objects/HouseObjects/doormat.png",299,54,292,0.9,"stim/24.jpeg",2,4,3,2,"HouseObjects",1,2,"left","left",0.503000021,1,1,1,0,NA,NA,NA,NA,NA,NA,NA,NA,NA,NA,NA,NA,NA,NA,NA,NA,NA,NA,NA,NA,NA,NA,NA,NA
"363","stim/objects/HouseObjects/glass.png",300,54,293,0.9,"stim/23.jpeg",2,3,3,2,"HouseObjects",1,3,"left","left",0.517999887,1,1,1,0,NA,NA,NA,NA,NA,NA,NA,NA,NA,NA,NA,NA,NA,NA,NA,NA,NA,NA,NA,NA,NA,NA,NA,NA
"393","stim/objects/HouseObjects/lintroller2.png",301,54,294,0.9,"stim/24.jpeg",2,4,3,1,"HouseObjects",1,4,"left","left",0.520000219,1,1,1,0,87,54,1,0.9,1,"stim/24.jpeg",2,4,"stim/24.jpeg",4,"left",1.5,2,4,2.56099987,3,3.457000017,87,1,1,1,0,0,0
"523","stim/objects/Instruments/gong2.png",302,54,295,0.9,"stim/12.jpeg",1,2,3,1,"Instruments",2,2,"right","right",0.517000198,1,1,1,0,36,54,1,0.9,2,"stim/12.jpeg",1,2,"stim/12.jpeg",2,"left",1.552000046,2,2,3.166000128,2,1.453000069,36,1,1,1,1,1,0
"314","stim/objects/HouseObjects/dustpan.png",303,54,296,0.9,"stim/22.jpeg",2,2,3,2,"HouseObjects",1,1,"left","left",0.527000189,1,1,1,0,NA,NA,NA,NA,NA,NA,NA,NA,NA,NA,NA,NA,NA,NA,NA,NA,NA,NA,NA,NA,NA,NA,NA,NA
"444","stim/objects/Instruments/drums.png",304,54,297,0.7,"stim/52.jpeg",5,2,2,2,"Instruments",2,1,"right","right",0.572999954,1,1,1,0,NA,NA,NA,NA,NA,NA,NA,NA,NA,NA,NA,NA,NA,NA,NA,NA,NA,NA,NA,NA,NA,NA,NA,NA
"455","stim/objects/Instruments/electricguitar2.png",305,54,298,0.3,"stim/63.jpeg",6,3,2,1,"Instruments",2,1,"right","left",0.531000137,0,0,1,0,22,54,1,0.3,2,"stim/63.jpeg",6,3,"stim/63.jpeg",1,"left",1.357999802,2,4,4.091999769,2,4.286999941,22,1,0,0,0,0,0
"559","stim/objects/Instruments/musicsheet.png",306,54,299,0.5,"stim/44.jpeg",4,4,1,1,"Instruments",2,2,"right","right",0.640000105,1,1,1,0,119,54,1,0.5,2,"stim/44.jpeg",4,4,"stim/44.jpeg",2,"right",1.076999903,1,3,3.708999872,4,2.968999863,119,0,0,NA,0,NA,0
"569","stim/objects/Instruments/record.png",307,54,300,0.7,"stim/52.jpeg",5,2,2,1,"Instruments",2,3,"right","right",0.592999935,1,1,1,0,108,54,1,0.7,2,"stim/52.jpeg",5,2,"stim/52.jpeg",3,"left",1.285999775,3,2,2.512000084,2,2.490999937,108,1,1,1,0,0,0
"557","stim/objects/Instruments/metronome.png",308,54,301,0.5,"stim/43.jpeg",4,3,1,1,"Instruments",2,3,"right","right",0.765000105,1,1,1,0,143,54,1,0.5,2,"stim/43.jpeg",4,3,"stim/43.jpeg",3,"left",1.322999716,2,3,3.607999802,3,1.835999727,143,1,1,1,1,1,0
"386","stim/objects/HouseObjects/ironingboard.png",309,54,302,0.5,"stim/41.jpeg",4,1,1,1,"HouseObjects",1,3,"left","right",0.701000214,0,0,1,0,69,54,1,0.5,2,"stim/41.jpeg",4,1,"stim/41.jpeg",3,"left",1.016000032,3,4,5.224999905,2,5.40199995,69,1,0,0,0,0,0
"459","stim/objects/Instruments/flute.png",310,54,303,0.9,"stim/14.jpeg",1,4,3,2,"Instruments",2,4,"right","right",0.819000006,1,1,1,0,NA,NA,NA,NA,NA,NA,NA,NA,NA,NA,NA,NA,NA,NA,NA,NA,NA,NA,NA,NA,NA,NA,NA,NA
"445","stim/objects/Instruments/drums.png",311,54,304,0.7,"stim/51.jpeg",5,1,2,2,"Instruments",2,2,"right","right",0.651000023,1,1,1,0,NA,NA,NA,NA,NA,NA,NA,NA,NA,NA,NA,NA,NA,NA,NA,NA,NA,NA,NA,NA,NA,NA,NA,NA
"296","stim/objects/HouseObjects/doormat.png",312,54,305,0.9,"stim/22.jpeg",2,2,3,2,"HouseObjects",1,1,"left","left",0.536999941,1,1,1,0,NA,NA,NA,NA,NA,NA,NA,NA,NA,NA,NA,NA,NA,NA,NA,NA,NA,NA,NA,NA,NA,NA,NA,NA
"270","stim/objects/HouseObjects/clock2.png",313,54,306,0.7,"stim/64.jpeg",6,4,2,1,"HouseObjects",1,1,"left","left",0.524999857,1,1,1,0,153,54,1,0.7,1,"stim/64.jpeg",6,4,"stim/64.jpeg",1,"left",1.159999847,3,3,3.457999945,3,1.829999924,153,1,0,0,0,0,0
"297","stim/objects/HouseObjects/doormat.png",314,54,307,0.9,"stim/22.jpeg",2,2,3,2,"HouseObjects",1,2,"left","left",0.65199995,1,1,1,0,NA,NA,NA,NA,NA,NA,NA,NA,NA,NA,NA,NA,NA,NA,NA,NA,NA,NA,NA,NA,NA,NA,NA,NA
"427","stim/objects/Instruments/chime.png",315,54,308,0.5,"stim/41.jpeg",4,1,1,2,"Instruments",2,2,"right","right",0.792999983,1,1,1,0,NA,NA,NA,NA,NA,NA,NA,NA,NA,NA,NA,NA,NA,NA,NA,NA,NA,NA,NA,NA,NA,NA,NA,NA
"492","stim/objects/Instruments/frenchhorn.png",316,54,309,0.9,"stim/13.jpeg",1,3,3,2,"Instruments",2,2,"right","right",0.578000069,1,1,1,0,NA,NA,NA,NA,NA,NA,NA,NA,NA,NA,NA,NA,NA,NA,NA,NA,NA,NA,NA,NA,NA,NA,NA,NA
"526","stim/objects/Instruments/grandpiano.png",317,54,310,0.9,"stim/13.jpeg",1,3,3,2,"Instruments",2,4,"right","right",0.674999952,1,1,1,0,NA,NA,NA,NA,NA,NA,NA,NA,NA,NA,NA,NA,NA,NA,NA,NA,NA,NA,NA,NA,NA,NA,NA,NA
"378","stim/objects/HouseObjects/hairdryer.png",318,54,311,0.5,"stim/34.jpeg",3,4,1,1,"HouseObjects",1,3,"left","left",0.656999826,1,1,1,0,62,54,1,0.5,1,"stim/34.jpeg",3,4,"stim/34.jpeg",3,"right",1.486000061,2,3,3.082000017,2,2.324999809,62,0,0,NA,0,NA,0
"567","stim/objects/Instruments/pipepiano.png",319,54,312,0.7,"stim/51.jpeg",5,1,2,1,"Instruments",2,4,"right","right",0.588000059,1,1,1,0,196,54,1,0.7,2,"stim/51.jpeg",5,1,"stim/51.jpeg",4,"left",1.302999973,4,2,6.274999857,2,5.519999981,196,1,0,0,0,0,0
"543","stim/objects/Instruments/harmonica.png",320,54,313,0.5,"stim/33.jpeg",3,3,1,1,"Instruments",2,3,"right","left",0.642999887,0,0,1,0,152,54,1,0.5,1,"stim/33.jpeg",3,3,"stim/33.jpeg",3,"right",1.282999992,1,4,2.94299984,3,5.485999823,152,0,0,NA,1,NA,0
"527","stim/objects/Instruments/grandpiano.png",321,54,314,0.9,"stim/13.jpeg",1,3,3,2,"Instruments",2,4,"right","right",0.557999849,1,1,1,0,NA,NA,NA,NA,NA,NA,NA,NA,NA,NA,NA,NA,NA,NA,NA,NA,NA,NA,NA,NA,NA,NA,NA,NA
"419","stim/objects/Instruments/bassdrum.png",322,54,315,0.5,"stim/31.jpeg",3,1,1,2,"Instruments",2,1,"right","left",0.687999964,0,0,1,0,NA,NA,NA,NA,NA,NA,NA,NA,NA,NA,NA,NA,NA,NA,NA,NA,NA,NA,NA,NA,NA,NA,NA,NA
"493","stim/objects/Instruments/frenchhorn.png",323,54,316,0.9,"stim/11.jpeg",1,1,3,2,"Instruments",2,4,"right","right",0.539000034,1,1,1,0,NA,NA,NA,NA,NA,NA,NA,NA,NA,NA,NA,NA,NA,NA,NA,NA,NA,NA,NA,NA,NA,NA,NA,NA
"415","stim/objects/Instruments/banjo.png",324,54,317,0.5,"stim/34.jpeg",3,4,1,2,"Instruments",2,3,"right","left",0.64199996,0,0,1,0,NA,NA,NA,NA,NA,NA,NA,NA,NA,NA,NA,NA,NA,NA,NA,NA,NA,NA,NA,NA,NA,NA,NA,NA
"258","stim/objects/HouseObjects/blender2.png",325,54,318,0.7,"stim/64.jpeg",6,4,2,1,"HouseObjects",1,2,"left","left",0.538000107,1,1,1,0,194,54,1,0.7,1,"stim/64.jpeg",6,4,"stim/64.jpeg",2,"left",1.453999758,3,2,3.574999809,2,1.726999998,194,1,0,0,1,1,0
"254","stim/objects/HouseObjects/bleachbottle.png",326,54,319,0.5,"stim/32.jpeg",3,2,1,2,"HouseObjects",1,3,"left","right",0.770999908,0,0,1,0,NA,NA,NA,NA,NA,NA,NA,NA,NA,NA,NA,NA,NA,NA,NA,NA,NA,NA,NA,NA,NA,NA,NA,NA
"324","stim/objects/HouseObjects/dustpan2.png",327,54,320,0.1,"stim/12.jpeg",1,2,3,1,"HouseObjects",1,2,"left","right",0.504999876,0,0,1,0,178,54,1,0.1,1,"stim/12.jpeg",1,2,"stim/12.jpeg",2,"left",1.358999968,2,3,3.241999865,2,2.194999933,178,1,0,0,1,1,0
"447","stim/objects/Instruments/drums2.png",328,54,321,0.3,"stim/61.jpeg",6,1,2,1,"Instruments",2,3,"right","left",0.519999981,0,0,1,0,21,54,1,0.3,2,"stim/61.jpeg",6,1,"stim/61.jpeg",3,"left",1.160999775,3,1,7.041999817,2,1.206999779,21,1,1,1,0,0,0
"290","stim/objects/HouseObjects/dishsoap2.png",329,54,322,0.7,"stim/61.jpeg",6,1,2,1,"HouseObjects",1,1,"left","left",0.565999985,1,1,1,0,86,54,1,0.7,1,"stim/61.jpeg",6,1,"stim/61.jpeg",1,"left",1.392999887,3,2,2.940999746,1,2.71999979,86,1,0,0,1,1,0
"495","stim/objects/Instruments/frenchhorn.png",330,54,323,0.9,"stim/11.jpeg",1,1,3,2,"Instruments",2,3,"right","right",0.509000063,1,1,1,0,NA,NA,NA,NA,NA,NA,NA,NA,NA,NA,NA,NA,NA,NA,NA,NA,NA,NA,NA,NA,NA,NA,NA,NA
"330","stim/objects/HouseObjects/flyswatter.png",331,54,324,0.9,"stim/23.jpeg",2,3,3,2,"HouseObjects",1,4,"left","left",0.518000126,1,1,1,0,NA,NA,NA,NA,NA,NA,NA,NA,NA,NA,NA,NA,NA,NA,NA,NA,NA,NA,NA,NA,NA,NA,NA,NA
"403","stim/objects/HouseObjects/remote2.png",332,54,325,0.9,"stim/21.jpeg",2,1,3,1,"HouseObjects",1,2,"left","left",0.578999996,1,1,1,0,84,54,1,0.9,1,"stim/21.jpeg",2,1,"stim/21.jpeg",2,"right",1.190999985,2,1,2.506999731,3,2.138000011,84,0,1,NA,0,NA,0
"241","stim/objects/HouseObjects/ashtray.png",333,54,326,0.5,"stim/31.jpeg",3,1,1,2,"HouseObjects",1,1,"left","",NA,0,0,1,0,NA,NA,NA,NA,NA,NA,NA,NA,NA,NA,NA,NA,NA,NA,NA,NA,NA,NA,NA,NA,NA,NA,NA,NA
"477","stim/objects/Instruments/flutetrans.png",334,54,327,0.9,"stim/11.jpeg",1,1,3,2,"Instruments",2,2,"right","right",0.504999876,1,1,1,0,NA,NA,NA,NA,NA,NA,NA,NA,NA,NA,NA,NA,NA,NA,NA,NA,NA,NA,NA,NA,NA,NA,NA,NA
"331","stim/objects/HouseObjects/flyswatter.png",335,54,328,0.9,"stim/22.jpeg",2,2,3,2,"HouseObjects",1,2,"left","left",0.575000048,1,1,1,0,NA,NA,NA,NA,NA,NA,NA,NA,NA,NA,NA,NA,NA,NA,NA,NA,NA,NA,NA,NA,NA,NA,NA,NA
"528","stim/objects/Instruments/grandpiano.png",336,54,329,0.9,"stim/11.jpeg",1,1,3,2,"Instruments",2,1,"right","right",0.539000034,1,1,1,0,NA,NA,NA,NA,NA,NA,NA,NA,NA,NA,NA,NA,NA,NA,NA,NA,NA,NA,NA,NA,NA,NA,NA,NA
"496","stim/objects/Instruments/frenchhorn.png",337,54,330,0.9,"stim/14.jpeg",1,4,3,2,"Instruments",2,1,"right","right",0.5,1,1,1,0,NA,NA,NA,NA,NA,NA,NA,NA,NA,NA,NA,NA,NA,NA,NA,NA,NA,NA,NA,NA,NA,NA,NA,NA
"409","stim/objects/Instruments/acousticguitar.png",338,54,331,0.5,"stim/32.jpeg",3,2,1,2,"Instruments",2,3,"right","",NA,0,0,1,0,NA,NA,NA,NA,NA,NA,NA,NA,NA,NA,NA,NA,NA,NA,NA,NA,NA,NA,NA,NA,NA,NA,NA,NA
"344","stim/objects/HouseObjects/garbagebin.png",339,54,332,0.9,"stim/23.jpeg",2,3,3,2,"HouseObjects",1,3,"left","left",0.55099988,1,1,1,0,NA,NA,NA,NA,NA,NA,NA,NA,NA,NA,NA,NA,NA,NA,NA,NA,NA,NA,NA,NA,NA,NA,NA,NA
"345","stim/objects/HouseObjects/garbagebin.png",340,54,333,0.9,"stim/23.jpeg",2,3,3,2,"HouseObjects",1,2,"left","left",0.501000166,1,1,1,0,NA,NA,NA,NA,NA,NA,NA,NA,NA,NA,NA,NA,NA,NA,NA,NA,NA,NA,NA,NA,NA,NA,NA,NA
"514","stim/objects/Instruments/gong.png",341,54,334,0.9,"stim/11.jpeg",1,1,3,2,"Instruments",2,1,"right","right",0.442000151,1,1,1,0,NA,NA,NA,NA,NA,NA,NA,NA,NA,NA,NA,NA,NA,NA,NA,NA,NA,NA,NA,NA,NA,NA,NA,NA
"365","stim/objects/HouseObjects/glass.png",342,54,335,0.9,"stim/23.jpeg",2,3,3,2,"HouseObjects",1,4,"left","left",0.47300005,1,1,1,0,NA,NA,NA,NA,NA,NA,NA,NA,NA,NA,NA,NA,NA,NA,NA,NA,NA,NA,NA,NA,NA,NA,NA,NA
"439","stim/objects/Instruments/cymbal2.png",343,54,336,0.3,"stim/63.jpeg",6,3,2,1,"Instruments",2,3,"right","left",0.519999981,0,0,1,0,122,54,1,0.3,2,"stim/63.jpeg",6,3,"stim/63.jpeg",3,"left",1.618000031,2,3,2.809000015,3,1.777999878,122,1,1,1,1,1,0
"298","stim/objects/HouseObjects/doormat.png",344,54,337,0.9,"stim/23.jpeg",2,3,3,2,"HouseObjects",1,3,"left","left",0.527999878,1,1,1,0,NA,NA,NA,NA,NA,NA,NA,NA,NA,NA,NA,NA,NA,NA,NA,NA,NA,NA,NA,NA,NA,NA,NA,NA
"413","stim/objects/Instruments/balalaika.png",345,54,338,0.5,"stim/32.jpeg",3,2,1,2,"Instruments",2,1,"right","right",0.637000084,1,1,1,0,NA,NA,NA,NA,NA,NA,NA,NA,NA,NA,NA,NA,NA,NA,NA,NA,NA,NA,NA,NA,NA,NA,NA,NA
"284","stim/objects/HouseObjects/cushion.png",346,54,339,0.7,"stim/61.jpeg",6,1,2,2,"HouseObjects",1,4,"left","left",0.587000132,1,1,1,0,NA,NA,NA,NA,NA,NA,NA,NA,NA,NA,NA,NA,NA,NA,NA,NA,NA,NA,NA,NA,NA,NA,NA,NA
"244","stim/objects/HouseObjects/ballofstring.png",347,54,340,0.5,"stim/32.jpeg",3,2,1,2,"HouseObjects",1,3,"left","right",0.595000029,0,0,1,0,NA,NA,NA,NA,NA,NA,NA,NA,NA,NA,NA,NA,NA,NA,NA,NA,NA,NA,NA,NA,NA,NA,NA,NA
"478","stim/objects/Instruments/flutetrans.png",348,54,341,0.9,"stim/11.jpeg",1,1,3,2,"Instruments",2,3,"right","right",0.627000093,1,1,1,0,NA,NA,NA,NA,NA,NA,NA,NA,NA,NA,NA,NA,NA,NA,NA,NA,NA,NA,NA,NA,NA,NA,NA,NA
"246","stim/objects/HouseObjects/ballofstring2.png",349,54,342,0.3,"stim/53.jpeg",5,3,2,1,"HouseObjects",1,3,"left","right",0.671999931,0,0,1,0,88,54,1,0.3,1,"stim/53.jpeg",5,3,"stim/53.jpeg",3,"right",1.121000051,2,4,3.726000071,2,3.360999823,88,0,0,NA,0,NA,0
"366","stim/objects/HouseObjects/glass.png",350,54,343,0.9,"stim/24.jpeg",2,4,3,2,"HouseObjects",1,4,"left","left",0.474999905,1,1,1,0,NA,NA,NA,NA,NA,NA,NA,NA,NA,NA,NA,NA,NA,NA,NA,NA,NA,NA,NA,NA,NA,NA,NA,NA
"443","stim/objects/Instruments/doublebass2.png",351,54,344,0.3,"stim/64.jpeg",6,4,2,1,"Instruments",2,2,"right","left",0.544000149,0,0,1,0,155,54,1,0.3,2,"stim/64.jpeg",6,4,"stim/64.jpeg",2,"left",0.978999853,3,4,3.450999975,3,3.31099987,155,1,1,1,0,0,0
"432","stim/objects/Instruments/clarinet2.png",352,54,345,0.3,"stim/61.jpeg",6,1,2,1,"Instruments",2,3,"right","left",0.493999958,0,0,1,0,18,54,1,0.3,2,"stim/61.jpeg",6,1,"stim/61.jpeg",3,"left",2.010999918,2,3,5.904000044,2,1.171999931,18,1,0,0,0,0,0
"479","stim/objects/Instruments/flutetrans.png",353,54,346,0.9,"stim/14.jpeg",1,4,3,2,"Instruments",2,4,"right","right",0.562000036,1,1,1,0,NA,NA,NA,NA,NA,NA,NA,NA,NA,NA,NA,NA,NA,NA,NA,NA,NA,NA,NA,NA,NA,NA,NA,NA
"497","stim/objects/Instruments/frenchhorn.png",354,54,347,0.9,"stim/12.jpeg",1,2,3,2,"Instruments",2,2,"right","right",0.588999987,1,1,1,0,NA,NA,NA,NA,NA,NA,NA,NA,NA,NA,NA,NA,NA,NA,NA,NA,NA,NA,NA,NA,NA,NA,NA,NA
"249","stim/objects/HouseObjects/barbecuelighter2.png",355,54,348,0.3,"stim/54.jpeg",5,4,2,1,"HouseObjects",1,1,"left","right",0.539999962,0,0,1,0,101,54,1,0.3,1,"stim/54.jpeg",5,4,"stim/54.jpeg",1,"left",1.709000111,2,3,5.341999769,3,2.259999752,101,1,0,0,0,0,0
"515","stim/objects/Instruments/gong.png",356,54,349,0.9,"stim/13.jpeg",1,3,3,2,"Instruments",2,3,"right","right",0.593999863,1,1,1,0,NA,NA,NA,NA,NA,NA,NA,NA,NA,NA,NA,NA,NA,NA,NA,NA,NA,NA,NA,NA,NA,NA,NA,NA
"462","stim/objects/Instruments/flute.png",357,54,350,0.9,"stim/11.jpeg",1,1,3,2,"Instruments",2,2,"right","right",0.559000015,1,1,1,0,NA,NA,NA,NA,NA,NA,NA,NA,NA,NA,NA,NA,NA,NA,NA,NA,NA,NA,NA,NA,NA,NA,NA,NA
"346","stim/objects/HouseObjects/garbagebin.png",358,54,351,0.9,"stim/21.jpeg",2,1,3,2,"HouseObjects",1,3,"left","left",0.522000074,1,1,1,0,NA,NA,NA,NA,NA,NA,NA,NA,NA,NA,NA,NA,NA,NA,NA,NA,NA,NA,NA,NA,NA,NA,NA,NA
"307","stim/objects/HouseObjects/doormat2.png",359,54,352,0.1,"stim/11.jpeg",1,1,3,1,"HouseObjects",1,4,"left","right",0.531000137,0,0,1,0,54,54,1,0.1,1,"stim/11.jpeg",1,1,"stim/11.jpeg",4,"right",3.786999941,1,2,1.927000046,3,1.621999979,54,0,0,NA,0,NA,0
"347","stim/objects/HouseObjects/garbagebin.png",360,54,353,0.9,"stim/23.jpeg",2,3,3,2,"HouseObjects",1,1,"left","left",0.49000001,1,1,1,0,NA,NA,NA,NA,NA,NA,NA,NA,NA,NA,NA,NA,NA,NA,NA,NA,NA,NA,NA,NA,NA,NA,NA,NA
"348","stim/objects/HouseObjects/garbagebin.png",361,54,354,0.9,"stim/24.jpeg",2,4,3,2,"HouseObjects",1,1,"left","right",0.490999937,0,0,1,0,NA,NA,NA,NA,NA,NA,NA,NA,NA,NA,NA,NA,NA,NA,NA,NA,NA,NA,NA,NA,NA,NA,NA,NA
"472","stim/objects/Instruments/flute2.png",362,54,355,0.9,"stim/13.jpeg",1,3,3,1,"Instruments",2,3,"right","right",0.579999924,1,1,1,0,16,54,1,0.9,2,"stim/13.jpeg",1,3,"stim/13.jpeg",3,"left",1.602999926,3,3,2.940999746,2,1.767999887,16,1,1,1,0,0,0
"516","stim/objects/Instruments/gong.png",363,54,356,0.9,"stim/11.jpeg",1,1,3,2,"Instruments",2,3,"right","right",0.470000029,1,1,1,0,NA,NA,NA,NA,NA,NA,NA,NA,NA,NA,NA,NA,NA,NA,NA,NA,NA,NA,NA,NA,NA,NA,NA,NA
"299","stim/objects/HouseObjects/doormat.png",364,54,357,0.9,"stim/21.jpeg",2,1,3,2,"HouseObjects",1,3,"left","left",0.551999807,1,1,1,0,NA,NA,NA,NA,NA,NA,NA,NA,NA,NA,NA,NA,NA,NA,NA,NA,NA,NA,NA,NA,NA,NA,NA,NA
"480","stim/objects/Instruments/flutetrans.png",365,54,358,0.9,"stim/14.jpeg",1,4,3,2,"Instruments",2,4,"right","right",0.496000051,1,1,1,0,NA,NA,NA,NA,NA,NA,NA,NA,NA,NA,NA,NA,NA,NA,NA,NA,NA,NA,NA,NA,NA,NA,NA,NA
"517","stim/objects/Instruments/gong.png",366,54,359,0.9,"stim/12.jpeg",1,2,3,2,"Instruments",2,4,"right","right",0.539000034,1,1,1,0,NA,NA,NA,NA,NA,NA,NA,NA,NA,NA,NA,NA,NA,NA,NA,NA,NA,NA,NA,NA,NA,NA,NA,NA
"481","stim/objects/Instruments/flutetrans.png",367,54,360,0.9,"stim/12.jpeg",1,2,3,2,"Instruments",2,1,"right","right",0.437000036,1,1,1,0,NA,NA,NA,NA,NA,NA,NA,NA,NA,NA,NA,NA,NA,NA,NA,NA,NA,NA,NA,NA,NA,NA,NA,NA
"424","stim/objects/Instruments/cello.png",368,54,361,0.5,"stim/43.jpeg",4,3,1,2,"Instruments",2,2,"right","left",0.583999872,0,0,1,0,NA,NA,NA,NA,NA,NA,NA,NA,NA,NA,NA,NA,NA,NA,NA,NA,NA,NA,NA,NA,NA,NA,NA,NA
"265","stim/objects/HouseObjects/bucket.png",369,54,362,0.5,"stim/43.jpeg",4,3,1,2,"HouseObjects",1,3,"left","left",0.744000196,1,1,1,0,NA,NA,NA,NA,NA,NA,NA,NA,NA,NA,NA,NA,NA,NA,NA,NA,NA,NA,NA,NA,NA,NA,NA,NA
"399","stim/objects/HouseObjects/pitcher2.png",370,54,363,0.9,"stim/23.jpeg",2,3,3,1,"HouseObjects",1,2,"left","left",0.575000048,1,1,1,0,114,54,1,0.9,1,"stim/23.jpeg",2,3,"stim/23.jpeg",2,"right",1.282000065,1,3,3.609999895,3,2.736999989,114,0,1,NA,0,NA,0
"529","stim/objects/Instruments/grandpiano.png",371,54,364,0.9,"stim/12.jpeg",1,2,3,2,"Instruments",2,2,"right","right",0.557999849,1,1,1,0,NA,NA,NA,NA,NA,NA,NA,NA,NA,NA,NA,NA,NA,NA,NA,NA,NA,NA,NA,NA,NA,NA,NA,NA
"349","stim/objects/HouseObjects/garbagebin.png",372,54,365,0.9,"stim/21.jpeg",2,1,3,2,"HouseObjects",1,3,"left","left",0.508999825,1,1,1,0,NA,NA,NA,NA,NA,NA,NA,NA,NA,NA,NA,NA,NA,NA,NA,NA,NA,NA,NA,NA,NA,NA,NA,NA
"499","stim/objects/Instruments/frenchhorn.png",373,54,366,0.9,"stim/11.jpeg",1,1,3,2,"Instruments",2,2,"right","right",0.594000101,1,1,1,0,NA,NA,NA,NA,NA,NA,NA,NA,NA,NA,NA,NA,NA,NA,NA,NA,NA,NA,NA,NA,NA,NA,NA,NA
"396","stim/objects/HouseObjects/pan.png",374,54,367,0.3,"stim/51.jpeg",5,1,2,1,"HouseObjects",1,4,"left","right",0.602999926,0,0,1,0,115,54,1,0.3,1,"stim/51.jpeg",5,1,"stim/51.jpeg",4,"left",0.950000048,4,3,7.414000034,3,2.819999933,115,1,0,0,0,0,0
"500","stim/objects/Instruments/frenchhorn.png",375,54,368,0.9,"stim/14.jpeg",1,4,3,2,"Instruments",2,1,"right","right",0.505999804,1,1,1,0,NA,NA,NA,NA,NA,NA,NA,NA,NA,NA,NA,NA,NA,NA,NA,NA,NA,NA,NA,NA,NA,NA,NA,NA
"385","stim/objects/HouseObjects/iron2.png",376,54,369,0.1,"stim/12.jpeg",1,2,3,1,"HouseObjects",1,4,"left","right",0.443000078,0,0,1,0,171,54,1,0.1,1,"stim/12.jpeg",1,2,"stim/12.jpeg",4,"right",1.245999813,1,1,2.176000118,2,1.305000067,171,0,0,NA,0,NA,0
"382","stim/objects/HouseObjects/handvacuum.png",377,54,370,0.5,"stim/32.jpeg",3,2,1,1,"HouseObjects",1,2,"left","right",0.785000086,0,0,1,0,44,54,1,0.5,1,"stim/32.jpeg",3,2,"stim/32.jpeg",2,"right",1.286999941,2,4,3.944000006,1,1.937999964,44,0,0,NA,0,NA,0
"483","stim/objects/Instruments/flutetrans.png",378,54,371,0.9,"stim/11.jpeg",1,1,3,2,"Instruments",2,2,"right","right",0.554000139,1,1,1,0,NA,NA,NA,NA,NA,NA,NA,NA,NA,NA,NA,NA,NA,NA,NA,NA,NA,NA,NA,NA,NA,NA,NA,NA
"316","stim/objects/HouseObjects/dustpan.png",379,54,372,0.9,"stim/23.jpeg",2,3,3,2,"HouseObjects",1,4,"left","left",0.543000221,1,1,1,0,NA,NA,NA,NA,NA,NA,NA,NA,NA,NA,NA,NA,NA,NA,NA,NA,NA,NA,NA,NA,NA,NA,NA,NA
"332","stim/objects/HouseObjects/flyswatter.png",380,54,373,0.9,"stim/21.jpeg",2,1,3,2,"HouseObjects",1,3,"left","left",0.443000078,1,1,1,0,NA,NA,NA,NA,NA,NA,NA,NA,NA,NA,NA,NA,NA,NA,NA,NA,NA,NA,NA,NA,NA,NA,NA,NA
"530","stim/objects/Instruments/grandpiano.png",381,54,374,0.9,"stim/11.jpeg",1,1,3,2,"Instruments",2,3,"right","right",0.455999851,1,1,1,0,NA,NA,NA,NA,NA,NA,NA,NA,NA,NA,NA,NA,NA,NA,NA,NA,NA,NA,NA,NA,NA,NA,NA,NA
"451","stim/objects/Instruments/electricdrumset2.png",382,54,375,0.3,"stim/62.jpeg",6,2,2,1,"Instruments",2,4,"right","left",0.57799983,0,0,1,0,162,54,1,0.3,2,"stim/62.jpeg",6,2,"stim/62.jpeg",4,"left",1.557999849,3,4,2.25999999,2,1.608999968,162,1,0,0,0,0,0
"267","stim/objects/HouseObjects/bucket2.png",383,54,376,0.7,"stim/63.jpeg",6,3,2,1,"HouseObjects",1,4,"left","left",0.454999924,1,1,1,0,98,54,1,0.7,1,"stim/63.jpeg",6,3,"stim/63.jpeg",4,"left",1.178999901,3,2,3.50999999,3,2.904999971,98,1,0,0,0,0,0
"276","stim/objects/HouseObjects/clothespin.png",384,54,377,0.7,"stim/63.jpeg",6,3,2,2,"HouseObjects",1,2,"left","left",0.391000032,1,1,1,0,NA,NA,NA,NA,NA,NA,NA,NA,NA,NA,NA,NA,NA,NA,NA,NA,NA,NA,NA,NA,NA,NA,NA,NA
"333","stim/objects/HouseObjects/flyswatter.png",385,54,378,0.9,"stim/21.jpeg",2,1,3,2,"HouseObjects",1,3,"left","left",0.724999905,1,1,1,0,NA,NA,NA,NA,NA,NA,NA,NA,NA,NA,NA,NA,NA,NA,NA,NA,NA,NA,NA,NA,NA,NA,NA,NA
"434","stim/objects/Instruments/cornet.png",386,54,379,0.5,"stim/43.jpeg",4,3,1,2,"Instruments",2,4,"right","right",0.44299984,1,1,1,0,NA,NA,NA,NA,NA,NA,NA,NA,NA,NA,NA,NA,NA,NA,NA,NA,NA,NA,NA,NA,NA,NA,NA,NA
"272","stim/objects/HouseObjects/clothesdryingrack.png",387,54,380,0.7,"stim/61.jpeg",6,1,2,2,"HouseObjects",1,2,"left","left",0.471000195,1,1,1,0,NA,NA,NA,NA,NA,NA,NA,NA,NA,NA,NA,NA,NA,NA,NA,NA,NA,NA,NA,NA,NA,NA,NA,NA
"518","stim/objects/Instruments/gong.png",388,54,381,0.9,"stim/13.jpeg",1,3,3,2,"Instruments",2,4,"right","right",0.560000181,1,1,1,0,NA,NA,NA,NA,NA,NA,NA,NA,NA,NA,NA,NA,NA,NA,NA,NA,NA,NA,NA,NA,NA,NA,NA,NA
"428","stim/objects/Instruments/chime.png",389,54,382,0.5,"stim/44.jpeg",4,4,1,2,"Instruments",2,1,"right","right",0.609999895,1,1,1,0,NA,NA,NA,NA,NA,NA,NA,NA,NA,NA,NA,NA,NA,NA,NA,NA,NA,NA,NA,NA,NA,NA,NA,NA
"433","stim/objects/Instruments/cornet.png",390,54,383,0.5,"stim/42.jpeg",4,2,1,2,"Instruments",2,3,"right","left",0.787000179,0,0,1,0,NA,NA,NA,NA,NA,NA,NA,NA,NA,NA,NA,NA,NA,NA,NA,NA,NA,NA,NA,NA,NA,NA,NA,NA
"549","stim/objects/Instruments/keyboard.png",391,54,384,0.5,"stim/32.jpeg",3,2,1,1,"Instruments",2,2,"right","",NA,0,0,1,0,145,54,1,0.5,1,"stim/32.jpeg",3,2,"stim/32.jpeg",2,"left",1.559999943,2,3,1.914999962,3,3.018999815,145,1,0,0,0,0,0
"544","stim/objects/Instruments/harmonica2.png",392,54,385,0.9,"stim/11.jpeg",1,1,3,1,"Instruments",2,3,"right","right",0.56400013,1,1,1,0,14,54,1,0.9,2,"stim/11.jpeg",1,1,"stim/11.jpeg",3,"left",2.138999939,2,3,4.549000025,3,2.438999891,14,1,0,0,1,1,0
"283","stim/objects/HouseObjects/cushion.png",393,54,386,0.7,"stim/64.jpeg",6,4,2,2,"HouseObjects",1,3,"left","left",0.573000193,1,1,1,0,NA,NA,NA,NA,NA,NA,NA,NA,NA,NA,NA,NA,NA,NA,NA,NA,NA,NA,NA,NA,NA,NA,NA,NA
"452","stim/objects/Instruments/electricguitar.png",394,54,387,0.7,"stim/53.jpeg",5,3,2,2,"Instruments",2,4,"right","right",0.641000032,1,1,1,0,NA,NA,NA,NA,NA,NA,NA,NA,NA,NA,NA,NA,NA,NA,NA,NA,NA,NA,NA,NA,NA,NA,NA,NA
"391","stim/objects/HouseObjects/knife2.png",395,54,388,0.9,"stim/23.jpeg",2,3,3,1,"HouseObjects",1,3,"left","left",0.498999834,1,1,1,0,190,54,1,0.9,1,"stim/23.jpeg",2,3,"stim/23.jpeg",3,"left",1.199999809,4,1,3.792999744,3,1.595999956,190,1,0,0,1,1,0
"430","stim/objects/Instruments/clarinet.png",396,54,389,0.5,"stim/41.jpeg",4,1,1,2,"Instruments",2,4,"right","right",0.616999865,1,1,1,0,NA,NA,NA,NA,NA,NA,NA,NA,NA,NA,NA,NA,NA,NA,NA,NA,NA,NA,NA,NA,NA,NA,NA,NA
"506","stim/objects/Instruments/frenchhorn2.png",397,54,390,0.9,"stim/11.jpeg",1,1,3,1,"Instruments",2,1,"right","right",0.590999842,1,1,1,0,176,54,1,0.9,2,"stim/11.jpeg",1,1,"stim/11.jpeg",1,"left",1.118999958,4,1,6.331999779,1,3.371000051,176,1,1,1,1,1,0
"400","stim/objects/HouseObjects/recyclingbin.png",398,54,391,0.3,"stim/53.jpeg",5,3,2,1,"HouseObjects",1,1,"left","right",0.554999828,0,0,1,0,188,54,1,0.3,1,"stim/53.jpeg",5,3,"stim/53.jpeg",1,"left",1.34499979,3,3,2.535999775,3,1.763999939,188,1,1,1,0,0,0
"404","stim/objects/HouseObjects/rubbergloves.png",399,54,392,0.3,"stim/51.jpeg",5,1,2,1,"HouseObjects",1,1,"left","right",0.599999905,0,0,1,0,163,54,1,0.3,1,"stim/51.jpeg",5,1,"stim/51.jpeg",1,"left",1.174999952,3,1,5.508999825,3,2.65199995,163,1,1,1,0,0,0
"418","stim/objects/Instruments/bassdrum.png",400,54,393,0.5,"stim/34.jpeg",3,4,1,2,"Instruments",2,3,"right","left",0.671000004,0,0,1,0,NA,NA,NA,NA,NA,NA,NA,NA,NA,NA,NA,NA,NA,NA,NA,NA,NA,NA,NA,NA,NA,NA,NA,NA
"437","stim/objects/Instruments/cymbal.png",401,54,394,0.7,"stim/54.jpeg",5,4,2,2,"Instruments",2,3,"right","right",0.555999994,1,1,1,0,NA,NA,NA,NA,NA,NA,NA,NA,NA,NA,NA,NA,NA,NA,NA,NA,NA,NA,NA,NA,NA,NA,NA,NA
"498","stim/objects/Instruments/frenchhorn.png",402,54,395,0.9,"stim/12.jpeg",1,2,3,2,"Instruments",2,1,"right","right",0.532999992,1,1,1,0,NA,NA,NA,NA,NA,NA,NA,NA,NA,NA,NA,NA,NA,NA,NA,NA,NA,NA,NA,NA,NA,NA,NA,NA
"341","stim/objects/HouseObjects/flyswatter2.png",403,54,396,0.1,"stim/13.jpeg",1,3,3,1,"HouseObjects",1,3,"left","right",0.457000017,0,0,1,0,2,54,1,0.1,1,"stim/13.jpeg",1,3,"stim/13.jpeg",3,"left",3.329999924,2,2,6.289000034,4,5.296000004,2,1,0,0,0,0,0
"318","stim/objects/HouseObjects/dustpan.png",404,54,397,0.9,"stim/22.jpeg",2,2,3,2,"HouseObjects",1,3,"left","left",0.516000032,1,1,1,0,NA,NA,NA,NA,NA,NA,NA,NA,NA,NA,NA,NA,NA,NA,NA,NA,NA,NA,NA,NA,NA,NA,NA,NA
"546","stim/objects/Instruments/harp2.png",405,54,398,0.9,"stim/12.jpeg",1,2,3,1,"Instruments",2,2,"right","right",0.618999958,1,1,1,0,142,54,1,0.9,2,"stim/12.jpeg",1,2,"stim/12.jpeg",2,"left",1.197999954,3,2,3.090999842,2,1.361000061,142,1,1,1,1,1,0
"534","stim/objects/Instruments/grandpiano.png",406,54,399,0.9,"stim/14.jpeg",1,4,3,2,"Instruments",2,2,"right","right",0.472000122,1,1,1,0,NA,NA,NA,NA,NA,NA,NA,NA,NA,NA,NA,NA,NA,NA,NA,NA,NA,NA,NA,NA,NA,NA,NA,NA
"548","stim/objects/Instruments/hihat2.png",407,54,400,0.9,"stim/13.jpeg",1,3,3,1,"Instruments",2,3,"right","right",0.443000078,1,1,1,0,140,54,1,0.9,2,"stim/13.jpeg",1,3,"stim/13.jpeg",3,"left",1.074999809,4,1,4.406999826,2,1.238999844,140,1,0,0,0,0,0
"269","stim/objects/HouseObjects/clock.png",408,54,401,0.5,"stim/43.jpeg",4,3,1,2,"HouseObjects",1,1,"left","right",0.720000029,0,0,1,0,NA,NA,NA,NA,NA,NA,NA,NA,NA,NA,NA,NA,NA,NA,NA,NA,NA,NA,NA,NA,NA,NA,NA,NA
"257","stim/objects/HouseObjects/blender.png",409,54,402,0.5,"stim/44.jpeg",4,4,1,2,"HouseObjects",1,2,"left","right",0.666000128,0,0,1,0,NA,NA,NA,NA,NA,NA,NA,NA,NA,NA,NA,NA,NA,NA,NA,NA,NA,NA,NA,NA,NA,NA,NA,NA
"328","stim/objects/HouseObjects/flyswatter.png",410,54,403,0.9,"stim/24.jpeg",2,4,3,2,"HouseObjects",1,4,"left","left",0.588000059,1,1,1,0,NA,NA,NA,NA,NA,NA,NA,NA,NA,NA,NA,NA,NA,NA,NA,NA,NA,NA,NA,NA,NA,NA,NA,NA
"552","stim/objects/Instruments/laud2.png",411,54,404,0.1,"stim/23.jpeg",2,3,3,1,"Instruments",2,4,"right","left",0.41899991,0,0,1,0,118,54,1,0.1,2,"stim/23.jpeg",2,3,"stim/23.jpeg",4,"right",1.540999889,2,4,2.095999956,3,2.585999966,118,0,0,NA,0,NA,0
"319","stim/objects/HouseObjects/dustpan.png",412,54,405,0.9,"stim/22.jpeg",2,2,3,2,"HouseObjects",1,1,"left","left",0.444999933,1,1,1,0,NA,NA,NA,NA,NA,NA,NA,NA,NA,NA,NA,NA,NA,NA,NA,NA,NA,NA,NA,NA,NA,NA,NA,NA
"562","stim/objects/Instruments/musicstand2.png",413,54,406,0.1,"stim/24.jpeg",2,4,3,1,"Instruments",2,3,"right","left",0.542999983,0,0,1,0,164,54,1,0.1,2,"stim/24.jpeg",2,4,"stim/24.jpeg",3,"right",1.579999924,1,2,2.842999935,3,3.820999861,164,0,0,NA,1,NA,0
"377","stim/objects/HouseObjects/glassmop2.png",414,54,407,0.1,"stim/12.jpeg",1,2,3,1,"HouseObjects",1,3,"left","right",0.510999918,0,0,1,0,38,54,1,0.1,1,"stim/12.jpeg",1,2,"stim/12.jpeg",3,"right",1.221999884,3,4,3.868000031,3,2.592999935,38,0,0,NA,1,NA,0
"554","stim/objects/Instruments/maraca2.png",415,54,408,0.1,"stim/24.jpeg",2,4,3,1,"Instruments",2,4,"right","left",0.503999949,0,0,1,0,138,54,1,0.1,2,"stim/24.jpeg",2,4,"stim/24.jpeg",4,"right",1.421000004,2,3,2.241999865,4,4.970999956,138,0,0,NA,1,NA,0
"277","stim/objects/HouseObjects/clothespin.png",416,54,409,0.7,"stim/62.jpeg",6,2,2,2,"HouseObjects",1,2,"left","left",0.532000065,1,1,1,0,NA,NA,NA,NA,NA,NA,NA,NA,NA,NA,NA,NA,NA,NA,NA,NA,NA,NA,NA,NA,NA,NA,NA,NA
"490","stim/objects/Instruments/frenchhorn.png",417,54,410,0.9,"stim/13.jpeg",1,3,3,2,"Instruments",2,1,"right","right",0.49000001,1,1,1,0,NA,NA,NA,NA,NA,NA,NA,NA,NA,NA,NA,NA,NA,NA,NA,NA,NA,NA,NA,NA,NA,NA,NA,NA
"568","stim/objects/Instruments/pipepiano2.png",418,54,411,0.1,"stim/23.jpeg",2,3,3,1,"Instruments",2,3,"right","left",0.45600009,0,0,1,0,200,54,1,0.1,2,"stim/23.jpeg",2,3,"stim/23.jpeg",3,"right",2.733999968,1,2,3.215999842,3,3.143999815,200,0,0,NA,1,NA,0
"511","stim/objects/Instruments/gong.png",419,54,412,0.9,"stim/12.jpeg",1,2,3,2,"Instruments",2,2,"right","right",0.467000008,1,1,1,0,NA,NA,NA,NA,NA,NA,NA,NA,NA,NA,NA,NA,NA,NA,NA,NA,NA,NA,NA,NA,NA,NA,NA,NA
"431","stim/objects/Instruments/clarinet.png",420,54,413,0.5,"stim/42.jpeg",4,2,1,2,"Instruments",2,2,"right","right",0.588000059,1,1,1,0,NA,NA,NA,NA,NA,NA,NA,NA,NA,NA,NA,NA,NA,NA,NA,NA,NA,NA,NA,NA,NA,NA,NA,NA
"278","stim/objects/HouseObjects/clothespin2.png",421,54,414,0.7,"stim/62.jpeg",6,2,2,1,"HouseObjects",1,4,"left","left",0.470000029,1,1,1,0,103,54,1,0.7,1,"stim/62.jpeg",6,2,"stim/62.jpeg",4,"right",1.416999817,1,2,3.630999804,3,3.148999929,103,0,1,NA,0,NA,0
"458","stim/objects/Instruments/flute.png",422,54,415,0.9,"stim/13.jpeg",1,3,3,2,"Instruments",2,3,"right","right",0.559000015,1,1,1,0,NA,NA,NA,NA,NA,NA,NA,NA,NA,NA,NA,NA,NA,NA,NA,NA,NA,NA,NA,NA,NA,NA,NA,NA
"512","stim/objects/Instruments/gong.png",423,54,416,0.9,"stim/13.jpeg",1,3,3,2,"Instruments",2,2,"right","right",0.473999977,1,1,1,0,NA,NA,NA,NA,NA,NA,NA,NA,NA,NA,NA,NA,NA,NA,NA,NA,NA,NA,NA,NA,NA,NA,NA,NA
"288","stim/objects/HouseObjects/dishsoap.png",424,54,417,0.7,"stim/62.jpeg",6,2,2,2,"HouseObjects",1,1,"left","left",0.549000025,1,1,1,0,NA,NA,NA,NA,NA,NA,NA,NA,NA,NA,NA,NA,NA,NA,NA,NA,NA,NA,NA,NA,NA,NA,NA,NA
"383","stim/objects/HouseObjects/handvacuum2.png",425,54,418,0.1,"stim/11.jpeg",1,1,3,1,"HouseObjects",1,2,"left","right",0.771999836,0,0,1,0,83,54,1,0.1,1,"stim/11.jpeg",1,1,"stim/11.jpeg",2,"left",1.239999771,3,3,3.644000053,3,2.003999949,83,1,0,0,0,0,0
"280","stim/objects/HouseObjects/coffee.png",426,54,419,0.7,"stim/64.jpeg",6,4,2,2,"HouseObjects",1,2,"left","left",0.492000103,1,1,1,0,NA,NA,NA,NA,NA,NA,NA,NA,NA,NA,NA,NA,NA,NA,NA,NA,NA,NA,NA,NA,NA,NA,NA,NA
"329","stim/objects/HouseObjects/flyswatter.png",427,54,420,0.9,"stim/22.jpeg",2,2,3,2,"HouseObjects",1,1,"left","left",0.52699995,1,1,1,0,NA,NA,NA,NA,NA,NA,NA,NA,NA,NA,NA,NA,NA,NA,NA,NA,NA,NA,NA,NA,NA,NA,NA,NA
"491","stim/objects/Instruments/frenchhorn.png",428,54,421,0.9,"stim/12.jpeg",1,2,3,2,"Instruments",2,3,"right","left",0.444000006,0,0,1,0,NA,NA,NA,NA,NA,NA,NA,NA,NA,NA,NA,NA,NA,NA,NA,NA,NA,NA,NA,NA,NA,NA,NA,NA
"271","stim/objects/HouseObjects/clothesdryingrack.png",429,54,422,0.7,"stim/62.jpeg",6,2,2,2,"HouseObjects",1,4,"left","left",0.572000027,1,1,1,0,NA,NA,NA,NA,NA,NA,NA,NA,NA,NA,NA,NA,NA,NA,NA,NA,NA,NA,NA,NA,NA,NA,NA,NA
"570","stim/objects/Instruments/record2.png",430,54,423,0.1,"stim/24.jpeg",2,4,3,1,"Instruments",2,3,"right","left",0.480000019,0,0,1,0,94,54,1,0.1,2,"stim/24.jpeg",2,4,"stim/24.jpeg",3,"left",1.123999834,4,3,6.773000002,3,2.323999882,94,1,0,0,1,1,0
"300","stim/objects/HouseObjects/doormat.png",431,54,424,0.9,"stim/23.jpeg",2,3,3,2,"HouseObjects",1,2,"left","left",0.437000036,1,1,1,0,NA,NA,NA,NA,NA,NA,NA,NA,NA,NA,NA,NA,NA,NA,NA,NA,NA,NA,NA,NA,NA,NA,NA,NA
"286","stim/objects/HouseObjects/cushion2.png",432,54,425,0.7,"stim/64.jpeg",6,4,2,1,"HouseObjects",1,3,"left","left",0.571999788,1,1,1,0,141,54,1,0.7,1,"stim/64.jpeg",6,4,"stim/64.jpeg",3,"left",1.04399991,4,3,3.211999893,3,1.593999863,141,1,0,0,1,1,0
"245","stim/objects/HouseObjects/ballofstring.png",433,54,426,0.5,"stim/33.jpeg",3,3,1,2,"HouseObjects",1,1,"left","left",0.625,1,1,1,0,NA,NA,NA,NA,NA,NA,NA,NA,NA,NA,NA,NA,NA,NA,NA,NA,NA,NA,NA,NA,NA,NA,NA,NA
"260","stim/objects/HouseObjects/bottle.png",434,54,427,0.5,"stim/44.jpeg",4,4,1,2,"HouseObjects",1,2,"left","right",0.489000082,0,0,1,0,NA,NA,NA,NA,NA,NA,NA,NA,NA,NA,NA,NA,NA,NA,NA,NA,NA,NA,NA,NA,NA,NA,NA,NA
"450","stim/objects/Instruments/electricdrumset.png",435,54,428,0.7,"stim/53.jpeg",5,3,2,2,"Instruments",2,2,"right","right",0.539999962,1,1,1,0,NA,NA,NA,NA,NA,NA,NA,NA,NA,NA,NA,NA,NA,NA,NA,NA,NA,NA,NA,NA,NA,NA,NA,NA
"263","stim/objects/HouseObjects/broom.png",436,54,429,0.5,"stim/41.jpeg",4,1,1,2,"HouseObjects",1,4,"left","right",0.570999861,0,0,1,0,NA,NA,NA,NA,NA,NA,NA,NA,NA,NA,NA,NA,NA,NA,NA,NA,NA,NA,NA,NA,NA,NA,NA,NA
"376","stim/objects/HouseObjects/glassmop.png",437,54,430,0.5,"stim/33.jpeg",3,3,1,1,"HouseObjects",1,1,"left","left",0.509000063,1,1,1,0,179,54,1,0.5,1,"stim/33.jpeg",3,3,"stim/33.jpeg",1,"left",1.196000099,3,3,5.108999968,3,4.053999901,179,1,1,1,0,0,0
"464","stim/objects/Instruments/flute.png",438,54,431,0.9,"stim/11.jpeg",1,1,3,2,"Instruments",2,4,"right","right",0.523000002,1,1,1,0,NA,NA,NA,NA,NA,NA,NA,NA,NA,NA,NA,NA,NA,NA,NA,NA,NA,NA,NA,NA,NA,NA,NA,NA
"253","stim/objects/HouseObjects/bleachbottle.png",439,54,432,0.5,"stim/31.jpeg",3,1,1,2,"HouseObjects",1,3,"left","left",0.676000118,1,1,1,0,NA,NA,NA,NA,NA,NA,NA,NA,NA,NA,NA,NA,NA,NA,NA,NA,NA,NA,NA,NA,NA,NA,NA,NA
"364","stim/objects/HouseObjects/glass.png",440,54,433,0.9,"stim/21.jpeg",2,1,3,2,"HouseObjects",1,1,"left","right",0.473999977,0,0,1,0,NA,NA,NA,NA,NA,NA,NA,NA,NA,NA,NA,NA,NA,NA,NA,NA,NA,NA,NA,NA,NA,NA,NA,NA
"513","stim/objects/Instruments/gong.png",441,54,434,0.9,"stim/11.jpeg",1,1,3,2,"Instruments",2,4,"right","right",0.605000019,1,1,1,0,NA,NA,NA,NA,NA,NA,NA,NA,NA,NA,NA,NA,NA,NA,NA,NA,NA,NA,NA,NA,NA,NA,NA,NA
"533","stim/objects/Instruments/grandpiano.png",442,54,435,0.9,"stim/12.jpeg",1,2,3,2,"Instruments",2,3,"right","right",0.612999916,1,1,1,0,NA,NA,NA,NA,NA,NA,NA,NA,NA,NA,NA,NA,NA,NA,NA,NA,NA,NA,NA,NA,NA,NA,NA,NA
"334","stim/objects/HouseObjects/flyswatter.png",443,54,436,0.9,"stim/21.jpeg",2,1,3,2,"HouseObjects",1,1,"left","left",0.50999999,1,1,1,0,NA,NA,NA,NA,NA,NA,NA,NA,NA,NA,NA,NA,NA,NA,NA,NA,NA,NA,NA,NA,NA,NA,NA,NA
"289","stim/objects/HouseObjects/dishsoap.png",444,54,437,0.7,"stim/61.jpeg",6,1,2,2,"HouseObjects",1,3,"left","left",0.523000002,1,1,1,0,NA,NA,NA,NA,NA,NA,NA,NA,NA,NA,NA,NA,NA,NA,NA,NA,NA,NA,NA,NA,NA,NA,NA,NA
"248","stim/objects/HouseObjects/barbecuelighter.png",445,54,438,0.5,"stim/34.jpeg",3,4,1,2,"HouseObjects",1,1,"left","left",0.437999964,1,1,1,0,NA,NA,NA,NA,NA,NA,NA,NA,NA,NA,NA,NA,NA,NA,NA,NA,NA,NA,NA,NA,NA,NA,NA,NA
"449","stim/objects/Instruments/electricdrumset.png",446,54,439,0.7,"stim/52.jpeg",5,2,2,2,"Instruments",2,3,"right","right",0.555999994,1,1,1,0,NA,NA,NA,NA,NA,NA,NA,NA,NA,NA,NA,NA,NA,NA,NA,NA,NA,NA,NA,NA,NA,NA,NA,NA
"252","stim/objects/HouseObjects/basket2.png",447,54,440,0.3,"stim/51.jpeg",5,1,2,1,"HouseObjects",1,3,"left","right",0.832999945,0,0,1,0,55,54,1,0.3,1,"stim/51.jpeg",5,1,"stim/51.jpeg",3,"left",1.276999712,2,2,4.607999802,3,4.172999859,55,1,0,0,1,1,0
"387","stim/objects/HouseObjects/ironingboard2.png",448,54,441,0.9,"stim/21.jpeg",2,1,3,1,"HouseObjects",1,4,"left","left",0.490999937,1,1,1,0,24,54,1,0.9,1,"stim/21.jpeg",2,1,"stim/21.jpeg",4,"left",1.174999952,3,2,5.31400013,4,3.297999859,24,1,0,0,1,1,0
"343","stim/objects/HouseObjects/garbagebin.png",449,54,442,0.9,"stim/24.jpeg",2,4,3,2,"HouseObjects",1,1,"left","left",0.493999958,1,1,1,0,NA,NA,NA,NA,NA,NA,NA,NA,NA,NA,NA,NA,NA,NA,NA,NA,NA,NA,NA,NA,NA,NA,NA,NA
"494","stim/objects/Instruments/frenchhorn.png",450,54,443,0.9,"stim/13.jpeg",1,3,3,2,"Instruments",2,1,"right","right",0.598999977,1,1,1,0,NA,NA,NA,NA,NA,NA,NA,NA,NA,NA,NA,NA,NA,NA,NA,NA,NA,NA,NA,NA,NA,NA,NA,NA
"551","stim/objects/Instruments/laud.png",451,54,444,0.5,"stim/44.jpeg",4,4,1,1,"Instruments",2,1,"right","right",0.613999844,1,1,1,0,187,54,1,0.5,2,"stim/44.jpeg",4,4,"stim/44.jpeg",1,"right",1.32400012,1,3,6.205000162,4,1.805000067,187,0,0,NA,0,NA,0
"305","stim/objects/HouseObjects/doormat.png",452,54,445,0.9,"stim/24.jpeg",2,4,3,2,"HouseObjects",1,2,"left","left",0.54399991,1,1,1,0,NA,NA,NA,NA,NA,NA,NA,NA,NA,NA,NA,NA,NA,NA,NA,NA,NA,NA,NA,NA,NA,NA,NA,NA
"460","stim/objects/Instruments/flute.png",453,54,446,0.9,"stim/14.jpeg",1,4,3,2,"Instruments",2,4,"right","right",0.532999992,1,1,1,0,NA,NA,NA,NA,NA,NA,NA,NA,NA,NA,NA,NA,NA,NA,NA,NA,NA,NA,NA,NA,NA,NA,NA,NA
"425","stim/objects/Instruments/cello.png",454,54,447,0.5,"stim/44.jpeg",4,4,1,2,"Instruments",2,4,"right","right",0.628000021,1,1,1,0,NA,NA,NA,NA,NA,NA,NA,NA,NA,NA,NA,NA,NA,NA,NA,NA,NA,NA,NA,NA,NA,NA,NA,NA
"519","stim/objects/Instruments/gong.png",455,54,448,0.9,"stim/14.jpeg",1,4,3,2,"Instruments",2,3,"right","right",0.593000174,1,1,1,0,NA,NA,NA,NA,NA,NA,NA,NA,NA,NA,NA,NA,NA,NA,NA,NA,NA,NA,NA,NA,NA,NA,NA,NA
"502","stim/objects/Instruments/frenchhorn.png",456,54,449,0.9,"stim/13.jpeg",1,3,3,2,"Instruments",2,1,"right","right",0.503000021,1,1,1,0,NA,NA,NA,NA,NA,NA,NA,NA,NA,NA,NA,NA,NA,NA,NA,NA,NA,NA,NA,NA,NA,NA,NA,NA
"264","stim/objects/HouseObjects/broom2.png",457,54,450,0.7,"stim/62.jpeg",6,2,2,1,"HouseObjects",1,2,"left","left",0.490999937,1,1,1,0,186,54,1,0.7,1,"stim/62.jpeg",6,2,"stim/62.jpeg",2,"left",1.226999998,3,1,3.525000095,2,2.243000031,186,1,0,0,1,1,0
"367","stim/objects/HouseObjects/glass.png",458,54,451,0.9,"stim/21.jpeg",2,1,3,2,"HouseObjects",1,1,"left","left",0.459000111,1,1,1,0,NA,NA,NA,NA,NA,NA,NA,NA,NA,NA,NA,NA,NA,NA,NA,NA,NA,NA,NA,NA,NA,NA,NA,NA
"250","stim/objects/HouseObjects/basket.png",459,54,452,0.5,"stim/31.jpeg",3,1,1,2,"HouseObjects",1,3,"left","left",0.622999907,1,1,1,0,NA,NA,NA,NA,NA,NA,NA,NA,NA,NA,NA,NA,NA,NA,NA,NA,NA,NA,NA,NA,NA,NA,NA,NA
"266","stim/objects/HouseObjects/bucket.png",460,54,453,0.5,"stim/42.jpeg",4,2,1,2,"HouseObjects",1,4,"left","",NA,0,0,1,0,NA,NA,NA,NA,NA,NA,NA,NA,NA,NA,NA,NA,NA,NA,NA,NA,NA,NA,NA,NA,NA,NA,NA,NA
"555","stim/objects/Instruments/marimba.png",461,54,454,0.5,"stim/42.jpeg",4,2,1,1,"Instruments",2,4,"right","left",0.759000063,0,0,1,0,154,54,1,0.5,2,"stim/42.jpeg",4,2,"stim/42.jpeg",4,"left",1.023999929,3,4,3.223999977,4,1.653000116,154,1,0,0,1,1,0
"373","stim/objects/HouseObjects/glass.png",462,54,455,0.9,"stim/23.jpeg",2,3,3,2,"HouseObjects",1,1,"left","left",0.518999815,1,1,1,0,NA,NA,NA,NA,NA,NA,NA,NA,NA,NA,NA,NA,NA,NA,NA,NA,NA,NA,NA,NA,NA,NA,NA,NA
"354","stim/objects/HouseObjects/garbagebin.png",463,54,456,0.9,"stim/23.jpeg",2,3,3,2,"HouseObjects",1,3,"left","left",0.559000015,1,1,1,0,NA,NA,NA,NA,NA,NA,NA,NA,NA,NA,NA,NA,NA,NA,NA,NA,NA,NA,NA,NA,NA,NA,NA,NA
"442","stim/objects/Instruments/doublebass.png",464,54,457,0.7,"stim/52.jpeg",5,2,2,2,"Instruments",2,2,"right","right",0.577000141,1,1,1,0,NA,NA,NA,NA,NA,NA,NA,NA,NA,NA,NA,NA,NA,NA,NA,NA,NA,NA,NA,NA,NA,NA,NA,NA
"397","stim/objects/HouseObjects/pan2.png",465,54,458,0.9,"stim/22.jpeg",2,2,3,1,"HouseObjects",1,3,"left","left",0.46600008,1,1,1,0,191,54,1,0.9,1,"stim/22.jpeg",2,2,"stim/22.jpeg",3,"left",1.260999918,2,4,2.085999966,3,2.088999987,191,1,0,0,1,1,0
"336","stim/objects/HouseObjects/flyswatter.png",466,54,459,0.9,"stim/23.jpeg",2,3,3,2,"HouseObjects",1,3,"left","left",0.50999999,1,1,1,0,NA,NA,NA,NA,NA,NA,NA,NA,NA,NA,NA,NA,NA,NA,NA,NA,NA,NA,NA,NA,NA,NA,NA,NA
"565","stim/objects/Instruments/panflute.png",467,54,460,0.7,"stim/54.jpeg",5,4,2,1,"Instruments",2,4,"right","right",0.601999998,1,1,1,0,66,54,1,0.7,2,"stim/54.jpeg",5,4,"stim/54.jpeg",4,"left",0.973999977,4,4,5.009000063,3,5.371999741,66,1,1,1,0,0,0
