"","obj_file","X.x","participant.x","trialN.x","trial_cond","scn_file.x","scn_cat","scn_inst","scn_condition","fillers","obj_cat","obj_cat_num","quadrant","corr_ans","key_resp_trial.keys","key_resp_trial.rt","trial_acc","trial_acc_manual","group.x","practice","X.y","participant.y","OvsN","PE_level","object_cat","scn_file.y","corr_scn_cat","corr_scn_inst","scn_file.1","corr_loc","key_resp_id.keys","key_resp_id.rt","key_resp_conf.keys","key_resp_assoc.keys","key_resp_assoc.rt","key_resp_loc.keys","key_resp_loc.rt","trialN.y","id_acc","assoc.acc","cond_assoc","loc.acc","cond_loc","group.y"
"105","stim/objects/HouseObjects/handbrush.png",1,21,1,0.7,"stim/53.jpeg",5,3,2,NA,"HouseObjects",2,3,"right","",NA,0,0,1,1,NA,NA,NA,NA,NA,NA,NA,NA,NA,NA,NA,NA,NA,NA,NA,NA,NA,NA,NA,NA,NA,NA,NA,NA
"150","stim/objects/Instruments/electricguitar2.png",2,21,2,0.7,"stim/63.jpeg",6,3,2,NA,"Instruments",1,2,"left","left",0.504000187,1,1,1,1,NA,NA,NA,NA,NA,NA,NA,NA,NA,NA,NA,NA,NA,NA,NA,NA,NA,NA,NA,NA,NA,NA,NA,NA
"162","stim/objects/Instruments/flute2.png",3,21,3,0.7,"stim/64.jpeg",6,4,2,NA,"Instruments",1,4,"left","left",0.565000296,1,1,1,1,NA,NA,NA,NA,NA,NA,NA,NA,NA,NA,NA,NA,NA,NA,NA,NA,NA,NA,NA,NA,NA,NA,NA,NA
"208","stim/objects/Instruments/harmonica2.png",4,21,4,0.9,"stim/22.jpeg",2,2,3,NA,"Instruments",1,1,"left","left",0.630000114,1,1,1,1,NA,NA,NA,NA,NA,NA,NA,NA,NA,NA,NA,NA,NA,NA,NA,NA,NA,NA,NA,NA,NA,NA,NA,NA
"175","stim/objects/Instruments/frenchhorn.png",5,21,5,0.5,"stim/42.jpeg",4,2,1,NA,"Instruments",1,3,"left","right",0.677000284,0,0,1,1,NA,NA,NA,NA,NA,NA,NA,NA,NA,NA,NA,NA,NA,NA,NA,NA,NA,NA,NA,NA,NA,NA,NA,NA
"80","stim/objects/HouseObjects/glass2.png",6,21,6,0.9,"stim/14.jpeg",1,4,3,NA,"HouseObjects",2,2,"right","right",0.788000107,1,1,1,1,NA,NA,NA,NA,NA,NA,NA,NA,NA,NA,NA,NA,NA,NA,NA,NA,NA,NA,NA,NA,NA,NA,NA,NA
"30","stim/objects/HouseObjects/doormat2.png",7,21,7,0.3,"stim/64.jpeg",6,4,2,NA,"HouseObjects",2,4,"right","left",0.679000378,0,0,1,1,NA,NA,NA,NA,NA,NA,NA,NA,NA,NA,NA,NA,NA,NA,NA,NA,NA,NA,NA,NA,NA,NA,NA,NA
"38","stim/objects/HouseObjects/dustpan2.png",8,21,8,0.9,"stim/11.jpeg",1,1,3,NA,"HouseObjects",2,1,"right","",NA,0,0,1,1,NA,NA,NA,NA,NA,NA,NA,NA,NA,NA,NA,NA,NA,NA,NA,NA,NA,NA,NA,NA,NA,NA,NA,NA
"217","stim/objects/Instruments/harp.png",9,21,9,0.3,"stim/53.jpeg",5,3,2,NA,"Instruments",1,1,"left","right",0.512000084,0,0,1,1,NA,NA,NA,NA,NA,NA,NA,NA,NA,NA,NA,NA,NA,NA,NA,NA,NA,NA,NA,NA,NA,NA,NA,NA
"169","stim/objects/Instruments/flutetrans.png",10,21,10,0.5,"stim/41.jpeg",4,1,1,NA,"Instruments",1,2,"left","right",0.67200017,0,0,1,1,NA,NA,NA,NA,NA,NA,NA,NA,NA,NA,NA,NA,NA,NA,NA,NA,NA,NA,NA,NA,NA,NA,NA,NA
"229","stim/objects/Instruments/hihat.png",11,21,11,0.3,"stim/54.jpeg",5,4,2,NA,"Instruments",1,2,"left","right",0.481000185,0,0,1,1,NA,NA,NA,NA,NA,NA,NA,NA,NA,NA,NA,NA,NA,NA,NA,NA,NA,NA,NA,NA,NA,NA,NA,NA
"81","stim/objects/HouseObjects/glass2.png",12,21,12,0.9,"stim/14.jpeg",1,4,3,NA,"HouseObjects",2,1,"right","",NA,0,0,1,1,NA,NA,NA,NA,NA,NA,NA,NA,NA,NA,NA,NA,NA,NA,NA,NA,NA,NA,NA,NA,NA,NA,NA,NA
"97","stim/objects/HouseObjects/hairdryer.png",13,21,13,0.7,"stim/52.jpeg",5,2,2,NA,"HouseObjects",2,3,"right","right",0.411000252,1,1,1,1,NA,NA,NA,NA,NA,NA,NA,NA,NA,NA,NA,NA,NA,NA,NA,NA,NA,NA,NA,NA,NA,NA,NA,NA
"232","stim/objects/Instruments/hihat2.png",14,21,14,0.9,"stim/24.jpeg",2,4,3,NA,"Instruments",1,4,"left","left",0.446000099,1,1,1,1,NA,NA,NA,NA,NA,NA,NA,NA,NA,NA,NA,NA,NA,NA,NA,NA,NA,NA,NA,NA,NA,NA,NA,NA
"17","stim/objects/HouseObjects/dishsoap.png",15,21,15,0.5,"stim/33.jpeg",3,3,1,NA,"HouseObjects",2,2,"right","right",0.409000158,1,1,1,1,NA,NA,NA,NA,NA,NA,NA,NA,NA,NA,NA,NA,NA,NA,NA,NA,NA,NA,NA,NA,NA,NA,NA,NA
"89","stim/objects/HouseObjects/glassmop.png",16,21,16,0.7,"stim/51.jpeg",5,1,2,NA,"HouseObjects",2,1,"right","right",0.554000139,1,1,1,1,NA,NA,NA,NA,NA,NA,NA,NA,NA,NA,NA,NA,NA,NA,NA,NA,NA,NA,NA,NA,NA,NA,NA,NA
"220","stim/objects/Instruments/harp2.png",17,21,17,0.9,"stim/23.jpeg",2,3,3,NA,"Instruments",1,1,"left","left",0.40500021,1,1,1,1,NA,NA,NA,NA,NA,NA,NA,NA,NA,NA,NA,NA,NA,NA,NA,NA,NA,NA,NA,NA,NA,NA,NA,NA
"98","stim/objects/HouseObjects/hairdryer.png",18,21,18,0.7,"stim/52.jpeg",5,2,2,NA,"HouseObjects",2,2,"right","right",0.423000097,1,1,1,1,NA,NA,NA,NA,NA,NA,NA,NA,NA,NA,NA,NA,NA,NA,NA,NA,NA,NA,NA,NA,NA,NA,NA,NA
"99","stim/objects/HouseObjects/hairdryer.png",19,21,19,0.7,"stim/52.jpeg",5,2,2,NA,"HouseObjects",2,2,"right","right",0.429000139,1,1,1,1,NA,NA,NA,NA,NA,NA,NA,NA,NA,NA,NA,NA,NA,NA,NA,NA,NA,NA,NA,NA,NA,NA,NA,NA
"106","stim/objects/HouseObjects/handbrush.png",20,21,20,0.7,"stim/53.jpeg",5,3,2,NA,"HouseObjects",2,2,"right","left",0.526000261,0,0,1,1,NA,NA,NA,NA,NA,NA,NA,NA,NA,NA,NA,NA,NA,NA,NA,NA,NA,NA,NA,NA,NA,NA,NA,NA
"163","stim/objects/Instruments/flute2.png",21,21,21,0.7,"stim/64.jpeg",6,4,2,NA,"Instruments",1,2,"left","left",0.48900032,1,1,1,1,NA,NA,NA,NA,NA,NA,NA,NA,NA,NA,NA,NA,NA,NA,NA,NA,NA,NA,NA,NA,NA,NA,NA,NA
"25","stim/objects/HouseObjects/doormat.png",22,21,22,0.5,"stim/34.jpeg",3,4,1,NA,"HouseObjects",2,1,"right","right",0.749000072,1,1,1,1,NA,NA,NA,NA,NA,NA,NA,NA,NA,NA,NA,NA,NA,NA,NA,NA,NA,NA,NA,NA,NA,NA,NA,NA
"61","stim/objects/HouseObjects/garbagebin.png",23,21,23,0.5,"stim/43.jpeg",4,3,1,NA,"HouseObjects",2,1,"right","right",0.44900012,1,1,1,1,NA,NA,NA,NA,NA,NA,NA,NA,NA,NA,NA,NA,NA,NA,NA,NA,NA,NA,NA,NA,NA,NA,NA,NA
"52","stim/objects/HouseObjects/flyswatter2.png",24,21,24,0.9,"stim/12.jpeg",1,2,3,NA,"HouseObjects",2,2,"right","right",0.48900032,1,1,1,1,NA,NA,NA,NA,NA,NA,NA,NA,NA,NA,NA,NA,NA,NA,NA,NA,NA,NA,NA,NA,NA,NA,NA,NA
"218","stim/objects/Instruments/harp.png",25,21,25,0.3,"stim/53.jpeg",5,3,2,NA,"Instruments",1,1,"left","right",0.500000238,0,0,1,1,NA,NA,NA,NA,NA,NA,NA,NA,NA,NA,NA,NA,NA,NA,NA,NA,NA,NA,NA,NA,NA,NA,NA,NA
"164","stim/objects/Instruments/flute2.png",26,21,26,0.7,"stim/64.jpeg",6,4,2,NA,"Instruments",1,4,"left","left",0.502000332,1,1,1,1,NA,NA,NA,NA,NA,NA,NA,NA,NA,NA,NA,NA,NA,NA,NA,NA,NA,NA,NA,NA,NA,NA,NA,NA
"22","stim/objects/HouseObjects/dishsoap2.png",27,21,27,0.3,"stim/63.jpeg",6,3,2,NA,"HouseObjects",2,4,"right","left",0.524000168,0,0,1,1,NA,NA,NA,NA,NA,NA,NA,NA,NA,NA,NA,NA,NA,NA,NA,NA,NA,NA,NA,NA,NA,NA,NA,NA
"151","stim/objects/Instruments/electricguitar2.png",28,21,28,0.7,"stim/63.jpeg",6,3,2,NA,"Instruments",1,3,"left","left",0.679000139,1,1,1,1,NA,NA,NA,NA,NA,NA,NA,NA,NA,NA,NA,NA,NA,NA,NA,NA,NA,NA,NA,NA,NA,NA,NA,NA
"90","stim/objects/HouseObjects/glassmop.png",29,21,29,0.7,"stim/51.jpeg",5,1,2,NA,"HouseObjects",2,3,"right","right",0.446000099,1,1,1,1,NA,NA,NA,NA,NA,NA,NA,NA,NA,NA,NA,NA,NA,NA,NA,NA,NA,NA,NA,NA,NA,NA,NA,NA
"176","stim/objects/Instruments/frenchhorn.png",30,21,30,0.5,"stim/42.jpeg",4,2,1,NA,"Instruments",1,4,"left","left",0.584000111,1,1,1,1,NA,NA,NA,NA,NA,NA,NA,NA,NA,NA,NA,NA,NA,NA,NA,NA,NA,NA,NA,NA,NA,NA,NA,NA
"138","stim/objects/Instruments/electricdrumset2.png",31,21,31,0.7,"stim/62.jpeg",6,2,2,NA,"Instruments",1,1,"left","left",0.592000008,1,1,1,1,NA,NA,NA,NA,NA,NA,NA,NA,NA,NA,NA,NA,NA,NA,NA,NA,NA,NA,NA,NA,NA,NA,NA,NA
"47","stim/objects/HouseObjects/flyswatter.png",32,21,32,0.5,"stim/42.jpeg",4,2,1,NA,"HouseObjects",2,2,"right","right",0.478000164,1,1,1,1,NA,NA,NA,NA,NA,NA,NA,NA,NA,NA,NA,NA,NA,NA,NA,NA,NA,NA,NA,NA,NA,NA,NA,NA
"53","stim/objects/HouseObjects/flyswatter2.png",33,21,33,0.9,"stim/12.jpeg",1,2,3,NA,"HouseObjects",2,4,"right","right",0.561000109,1,1,1,1,NA,NA,NA,NA,NA,NA,NA,NA,NA,NA,NA,NA,NA,NA,NA,NA,NA,NA,NA,NA,NA,NA,NA,NA
"91","stim/objects/HouseObjects/glassmop.png",34,21,34,0.7,"stim/51.jpeg",5,1,2,NA,"HouseObjects",2,4,"right","right",0.533000231,1,1,1,1,NA,NA,NA,NA,NA,NA,NA,NA,NA,NA,NA,NA,NA,NA,NA,NA,NA,NA,NA,NA,NA,NA,NA,NA
"54","stim/objects/HouseObjects/flyswatter2.png",35,21,35,0.9,"stim/12.jpeg",1,2,3,NA,"HouseObjects",2,3,"right","right",0.611999989,1,1,1,1,NA,NA,NA,NA,NA,NA,NA,NA,NA,NA,NA,NA,NA,NA,NA,NA,NA,NA,NA,NA,NA,NA,NA,NA
"221","stim/objects/Instruments/harp2.png",36,21,36,0.9,"stim/23.jpeg",2,3,3,NA,"Instruments",1,1,"left","left",0.526000261,1,1,1,1,NA,NA,NA,NA,NA,NA,NA,NA,NA,NA,NA,NA,NA,NA,NA,NA,NA,NA,NA,NA,NA,NA,NA,NA
"92","stim/objects/HouseObjects/glassmop.png",37,21,37,0.7,"stim/51.jpeg",5,1,2,NA,"HouseObjects",2,2,"right","left",0.796000242,0,0,1,1,NA,NA,NA,NA,NA,NA,NA,NA,NA,NA,NA,NA,NA,NA,NA,NA,NA,NA,NA,NA,NA,NA,NA,NA
"26","stim/objects/HouseObjects/doormat.png",38,21,38,0.5,"stim/34.jpeg",3,4,1,NA,"HouseObjects",2,1,"right","",NA,0,0,1,1,NA,NA,NA,NA,NA,NA,NA,NA,NA,NA,NA,NA,NA,NA,NA,NA,NA,NA,NA,NA,NA,NA,NA,NA
"145","stim/objects/Instruments/electricguitar.png",39,21,39,0.5,"stim/33.jpeg",3,3,1,NA,"Instruments",1,4,"left","left",0.71900034,1,1,1,1,NA,NA,NA,NA,NA,NA,NA,NA,NA,NA,NA,NA,NA,NA,NA,NA,NA,NA,NA,NA,NA,NA,NA,NA
"33","stim/objects/HouseObjects/dustpan.png",40,21,40,0.5,"stim/41.jpeg",4,1,1,NA,"HouseObjects",2,1,"right","left",0.752000093,0,0,1,1,NA,NA,NA,NA,NA,NA,NA,NA,NA,NA,NA,NA,NA,NA,NA,NA,NA,NA,NA,NA,NA,NA,NA,NA
"139","stim/objects/Instruments/electricdrumset2.png",41,21,41,0.7,"stim/62.jpeg",6,2,2,NA,"Instruments",1,4,"left","left",0.660000086,1,1,1,1,NA,NA,NA,NA,NA,NA,NA,NA,NA,NA,NA,NA,NA,NA,NA,NA,NA,NA,NA,NA,NA,NA,NA,NA
"55","stim/objects/HouseObjects/flyswatter2.png",42,21,42,0.9,"stim/12.jpeg",1,2,3,NA,"HouseObjects",2,1,"right","right",0.471000195,1,1,1,1,NA,NA,NA,NA,NA,NA,NA,NA,NA,NA,NA,NA,NA,NA,NA,NA,NA,NA,NA,NA,NA,NA,NA,NA
"121","stim/objects/Instruments/drums.png",43,21,43,0.5,"stim/31.jpeg",3,1,1,NA,"Instruments",1,1,"left","left",0.471000195,1,1,1,1,NA,NA,NA,NA,NA,NA,NA,NA,NA,NA,NA,NA,NA,NA,NA,NA,NA,NA,NA,NA,NA,NA,NA,NA
"56","stim/objects/HouseObjects/flyswatter2.png",44,21,44,0.9,"stim/12.jpeg",1,2,3,NA,"HouseObjects",2,2,"right","right",0.5400002,1,1,1,1,NA,NA,NA,NA,NA,NA,NA,NA,NA,NA,NA,NA,NA,NA,NA,NA,NA,NA,NA,NA,NA,NA,NA,NA
"62","stim/objects/HouseObjects/garbagebin.png",45,21,45,0.5,"stim/43.jpeg",4,3,1,NA,"HouseObjects",2,1,"right","",NA,0,0,1,1,NA,NA,NA,NA,NA,NA,NA,NA,NA,NA,NA,NA,NA,NA,NA,NA,NA,NA,NA,NA,NA,NA,NA,NA
"222","stim/objects/Instruments/harp2.png",46,21,46,0.9,"stim/23.jpeg",2,3,3,NA,"Instruments",1,4,"left","left",0.476000309,1,1,1,1,NA,NA,NA,NA,NA,NA,NA,NA,NA,NA,NA,NA,NA,NA,NA,NA,NA,NA,NA,NA,NA,NA,NA,NA
"107","stim/objects/HouseObjects/handbrush.png",47,21,47,0.7,"stim/53.jpeg",5,3,2,NA,"HouseObjects",2,3,"right","right",0.608000278,1,1,1,1,NA,NA,NA,NA,NA,NA,NA,NA,NA,NA,NA,NA,NA,NA,NA,NA,NA,NA,NA,NA,NA,NA,NA,NA
"205","stim/objects/Instruments/harmonica.png",48,21,48,0.3,"stim/52.jpeg",5,2,2,NA,"Instruments",1,1,"left","left",0.705000162,1,1,1,1,NA,NA,NA,NA,NA,NA,NA,NA,NA,NA,NA,NA,NA,NA,NA,NA,NA,NA,NA,NA,NA,NA,NA,NA
"108","stim/objects/HouseObjects/handbrush.png",49,21,49,0.7,"stim/53.jpeg",5,3,2,NA,"HouseObjects",2,3,"right","right",0.549999952,1,1,1,1,NA,NA,NA,NA,NA,NA,NA,NA,NA,NA,NA,NA,NA,NA,NA,NA,NA,NA,NA,NA,NA,NA,NA,NA
"146","stim/objects/Instruments/electricguitar.png",50,21,50,0.5,"stim/33.jpeg",3,3,1,NA,"Instruments",1,3,"left","",NA,0,0,1,1,NA,NA,NA,NA,NA,NA,NA,NA,NA,NA,NA,NA,NA,NA,NA,NA,NA,NA,NA,NA,NA,NA,NA,NA
"27","stim/objects/HouseObjects/doormat.png",51,21,51,0.5,"stim/34.jpeg",3,4,1,NA,"HouseObjects",2,1,"right","left",0.233000278,0,0,1,1,NA,NA,NA,NA,NA,NA,NA,NA,NA,NA,NA,NA,NA,NA,NA,NA,NA,NA,NA,NA,NA,NA,NA,NA
"165","stim/objects/Instruments/flute2.png",52,21,52,0.7,"stim/64.jpeg",6,4,2,NA,"Instruments",1,1,"left","left",0.515000105,1,1,1,1,NA,NA,NA,NA,NA,NA,NA,NA,NA,NA,NA,NA,NA,NA,NA,NA,NA,NA,NA,NA,NA,NA,NA,NA
"100","stim/objects/HouseObjects/hairdryer.png",53,21,53,0.7,"stim/52.jpeg",5,2,2,NA,"HouseObjects",2,4,"right","right",0.609000206,1,1,1,1,NA,NA,NA,NA,NA,NA,NA,NA,NA,NA,NA,NA,NA,NA,NA,NA,NA,NA,NA,NA,NA,NA,NA,NA
"126","stim/objects/Instruments/drums2.png",54,21,54,0.7,"stim/61.jpeg",6,1,2,NA,"Instruments",1,4,"left","left",0.543000221,1,1,1,1,NA,NA,NA,NA,NA,NA,NA,NA,NA,NA,NA,NA,NA,NA,NA,NA,NA,NA,NA,NA,NA,NA,NA,NA
"140","stim/objects/Instruments/electricdrumset2.png",55,21,55,0.7,"stim/62.jpeg",6,2,2,NA,"Instruments",1,4,"left","left",0.501000166,1,1,1,1,NA,NA,NA,NA,NA,NA,NA,NA,NA,NA,NA,NA,NA,NA,NA,NA,NA,NA,NA,NA,NA,NA,NA,NA
"75","stim/objects/HouseObjects/glass.png",56,21,56,0.5,"stim/44.jpeg",4,4,1,NA,"HouseObjects",2,4,"right","left",0.565000296,0,0,1,1,NA,NA,NA,NA,NA,NA,NA,NA,NA,NA,NA,NA,NA,NA,NA,NA,NA,NA,NA,NA,NA,NA,NA,NA
"66","stim/objects/HouseObjects/garbagebin2.png",57,21,57,0.9,"stim/13.jpeg",1,3,3,NA,"HouseObjects",2,1,"right","right",0.479000092,1,1,1,1,NA,NA,NA,NA,NA,NA,NA,NA,NA,NA,NA,NA,NA,NA,NA,NA,NA,NA,NA,NA,NA,NA,NA,NA
"181","stim/objects/Instruments/gong.png",58,21,58,0.5,"stim/43.jpeg",4,3,1,NA,"Instruments",1,2,"left","right",0.395000219,0,0,1,1,NA,NA,NA,NA,NA,NA,NA,NA,NA,NA,NA,NA,NA,NA,NA,NA,NA,NA,NA,NA,NA,NA,NA,NA
"127","stim/objects/Instruments/drums2.png",59,21,59,0.7,"stim/61.jpeg",6,1,2,NA,"Instruments",1,1,"left","right",0.395000219,0,0,1,1,NA,NA,NA,NA,NA,NA,NA,NA,NA,NA,NA,NA,NA,NA,NA,NA,NA,NA,NA,NA,NA,NA,NA,NA
"63","stim/objects/HouseObjects/garbagebin.png",60,21,60,0.5,"stim/43.jpeg",4,3,1,NA,"HouseObjects",2,3,"right","left",0.625,0,0,1,1,NA,NA,NA,NA,NA,NA,NA,NA,NA,NA,NA,NA,NA,NA,NA,NA,NA,NA,NA,NA,NA,NA,NA,NA
"67","stim/objects/HouseObjects/garbagebin2.png",61,21,61,0.9,"stim/13.jpeg",1,3,3,NA,"HouseObjects",2,1,"right","left",0.656000137,0,0,1,1,NA,NA,NA,NA,NA,NA,NA,NA,NA,NA,NA,NA,NA,NA,NA,NA,NA,NA,NA,NA,NA,NA,NA,NA
"166","stim/objects/Instruments/flute2.png",62,21,62,0.7,"stim/64.jpeg",6,4,2,NA,"Instruments",1,2,"left","left",0.501000166,1,1,1,1,NA,NA,NA,NA,NA,NA,NA,NA,NA,NA,NA,NA,NA,NA,NA,NA,NA,NA,NA,NA,NA,NA,NA,NA
"152","stim/objects/Instruments/electricguitar2.png",63,21,63,0.7,"stim/63.jpeg",6,3,2,NA,"Instruments",1,1,"left","left",0.611000061,1,1,1,1,NA,NA,NA,NA,NA,NA,NA,NA,NA,NA,NA,NA,NA,NA,NA,NA,NA,NA,NA,NA,NA,NA,NA,NA
"82","stim/objects/HouseObjects/glass2.png",64,21,64,0.9,"stim/14.jpeg",1,4,3,NA,"HouseObjects",2,4,"right","right",0.526000261,1,1,1,1,NA,NA,NA,NA,NA,NA,NA,NA,NA,NA,NA,NA,NA,NA,NA,NA,NA,NA,NA,NA,NA,NA,NA,NA
"18","stim/objects/HouseObjects/dishsoap.png",65,21,65,0.5,"stim/33.jpeg",3,3,1,NA,"HouseObjects",2,3,"right","left",0.662000179,0,0,1,1,NA,NA,NA,NA,NA,NA,NA,NA,NA,NA,NA,NA,NA,NA,NA,NA,NA,NA,NA,NA,NA,NA,NA,NA
"1","stim/objects/HouseObjects/coffee.png",66,21,66,0.5,"stim/31.jpeg",3,1,1,NA,"HouseObjects",2,1,"right","right",0.549000263,1,1,1,1,NA,NA,NA,NA,NA,NA,NA,NA,NA,NA,NA,NA,NA,NA,NA,NA,NA,NA,NA,NA,NA,NA,NA,NA
"2","stim/objects/HouseObjects/coffee.png",67,21,67,0.5,"stim/31.jpeg",3,1,1,NA,"HouseObjects",2,4,"right","left",0.787000179,0,0,1,1,NA,NA,NA,NA,NA,NA,NA,NA,NA,NA,NA,NA,NA,NA,NA,NA,NA,NA,NA,NA,NA,NA,NA,NA
"83","stim/objects/HouseObjects/glass2.png",68,21,68,0.9,"stim/14.jpeg",1,4,3,NA,"HouseObjects",2,3,"right","right",0.75999999,1,1,1,1,NA,NA,NA,NA,NA,NA,NA,NA,NA,NA,NA,NA,NA,NA,NA,NA,NA,NA,NA,NA,NA,NA,NA,NA
"219","stim/objects/Instruments/harp.png",69,21,69,0.3,"stim/53.jpeg",5,3,2,NA,"Instruments",1,4,"left","right",0.63800025,0,0,1,1,NA,NA,NA,NA,NA,NA,NA,NA,NA,NA,NA,NA,NA,NA,NA,NA,NA,NA,NA,NA,NA,NA,NA,NA
"157","stim/objects/Instruments/flute.png",70,21,70,0.5,"stim/34.jpeg",3,4,1,NA,"Instruments",1,1,"left","right",0.81400013,0,0,1,1,NA,NA,NA,NA,NA,NA,NA,NA,NA,NA,NA,NA,NA,NA,NA,NA,NA,NA,NA,NA,NA,NA,NA,NA
"9","stim/objects/HouseObjects/cushion.png",71,21,71,0.5,"stim/32.jpeg",3,2,1,NA,"HouseObjects",2,3,"right","left",0.697000265,0,0,1,1,NA,NA,NA,NA,NA,NA,NA,NA,NA,NA,NA,NA,NA,NA,NA,NA,NA,NA,NA,NA,NA,NA,NA,NA
"187","stim/objects/Instruments/grandpiano.png",72,21,72,0.5,"stim/44.jpeg",4,4,1,NA,"Instruments",1,4,"left","right",0.811000109,0,0,1,1,NA,NA,NA,NA,NA,NA,NA,NA,NA,NA,NA,NA,NA,NA,NA,NA,NA,NA,NA,NA,NA,NA,NA,NA
"39","stim/objects/HouseObjects/dustpan2.png",73,21,73,0.9,"stim/11.jpeg",1,1,3,NA,"HouseObjects",2,3,"right","right",0.545000076,1,1,1,1,NA,NA,NA,NA,NA,NA,NA,NA,NA,NA,NA,NA,NA,NA,NA,NA,NA,NA,NA,NA,NA,NA,NA,NA
"128","stim/objects/Instruments/drums2.png",74,21,74,0.7,"stim/61.jpeg",6,1,2,NA,"Instruments",1,1,"left","left",0.54700017,1,1,1,1,NA,NA,NA,NA,NA,NA,NA,NA,NA,NA,NA,NA,NA,NA,NA,NA,NA,NA,NA,NA,NA,NA,NA,NA
"40","stim/objects/HouseObjects/dustpan2.png",75,21,75,0.9,"stim/11.jpeg",1,1,3,NA,"HouseObjects",2,4,"right","right",0.580000162,1,1,1,1,NA,NA,NA,NA,NA,NA,NA,NA,NA,NA,NA,NA,NA,NA,NA,NA,NA,NA,NA,NA,NA,NA,NA,NA
"206","stim/objects/Instruments/harmonica.png",76,21,76,0.3,"stim/52.jpeg",5,2,2,NA,"Instruments",1,1,"left","right",0.485000134,0,0,1,1,NA,NA,NA,NA,NA,NA,NA,NA,NA,NA,NA,NA,NA,NA,NA,NA,NA,NA,NA,NA,NA,NA,NA,NA
"129","stim/objects/Instruments/drums2.png",77,21,77,0.7,"stim/61.jpeg",6,1,2,NA,"Instruments",1,1,"left","left",0.548000097,1,1,1,1,NA,NA,NA,NA,NA,NA,NA,NA,NA,NA,NA,NA,NA,NA,NA,NA,NA,NA,NA,NA,NA,NA,NA,NA
"28","stim/objects/HouseObjects/doormat.png",78,21,78,0.5,"stim/34.jpeg",3,4,1,NA,"HouseObjects",2,3,"right","right",0.407000303,1,1,1,1,NA,NA,NA,NA,NA,NA,NA,NA,NA,NA,NA,NA,NA,NA,NA,NA,NA,NA,NA,NA,NA,NA,NA,NA
"153","stim/objects/Instruments/electricguitar2.png",79,21,79,0.7,"stim/63.jpeg",6,3,2,NA,"Instruments",1,2,"left","left",0.449000359,1,1,1,1,NA,NA,NA,NA,NA,NA,NA,NA,NA,NA,NA,NA,NA,NA,NA,NA,NA,NA,NA,NA,NA,NA,NA,NA
"133","stim/objects/Instruments/electricdrumset.png",80,21,80,0.5,"stim/32.jpeg",3,2,1,NA,"Instruments",1,4,"left","left",0.493000031,1,1,1,1,NA,NA,NA,NA,NA,NA,NA,NA,NA,NA,NA,NA,NA,NA,NA,NA,NA,NA,NA,NA,NA,NA,NA,NA
"192","stim/objects/Instruments/grandpiano2.png",81,21,81,0.1,"stim/14.jpeg",1,4,3,NA,"Instruments",1,2,"left","right",0.383000135,0,0,1,1,NA,NA,NA,NA,NA,NA,NA,NA,NA,NA,NA,NA,NA,NA,NA,NA,NA,NA,NA,NA,NA,NA,NA,NA
"34","stim/objects/HouseObjects/dustpan.png",82,21,82,0.5,"stim/41.jpeg",4,1,1,NA,"HouseObjects",2,4,"right","right",0.458000183,1,1,1,1,NA,NA,NA,NA,NA,NA,NA,NA,NA,NA,NA,NA,NA,NA,NA,NA,NA,NA,NA,NA,NA,NA,NA,NA
"3","stim/objects/HouseObjects/coffee.png",83,21,83,0.5,"stim/31.jpeg",3,1,1,NA,"HouseObjects",2,2,"right","left",0.560000181,0,0,1,1,NA,NA,NA,NA,NA,NA,NA,NA,NA,NA,NA,NA,NA,NA,NA,NA,NA,NA,NA,NA,NA,NA,NA,NA
"158","stim/objects/Instruments/flute.png",84,21,84,0.5,"stim/34.jpeg",3,4,1,NA,"Instruments",1,3,"left","left",0.4150002,1,1,1,1,NA,NA,NA,NA,NA,NA,NA,NA,NA,NA,NA,NA,NA,NA,NA,NA,NA,NA,NA,NA,NA,NA,NA,NA
"188","stim/objects/Instruments/grandpiano.png",85,21,85,0.5,"stim/44.jpeg",4,4,1,NA,"Instruments",1,3,"left","right",0.371000051,0,0,1,1,NA,NA,NA,NA,NA,NA,NA,NA,NA,NA,NA,NA,NA,NA,NA,NA,NA,NA,NA,NA,NA,NA,NA,NA
"209","stim/objects/Instruments/harmonica2.png",86,21,86,0.9,"stim/22.jpeg",2,2,3,NA,"Instruments",1,4,"left","left",0.59100008,1,1,1,1,NA,NA,NA,NA,NA,NA,NA,NA,NA,NA,NA,NA,NA,NA,NA,NA,NA,NA,NA,NA,NA,NA,NA,NA
"41","stim/objects/HouseObjects/dustpan2.png",87,21,87,0.9,"stim/11.jpeg",1,1,3,NA,"HouseObjects",2,2,"right","right",0.549000263,1,1,1,1,NA,NA,NA,NA,NA,NA,NA,NA,NA,NA,NA,NA,NA,NA,NA,NA,NA,NA,NA,NA,NA,NA,NA,NA
"170","stim/objects/Instruments/flutetrans.png",88,21,88,0.5,"stim/41.jpeg",4,1,1,NA,"Instruments",1,4,"left","left",0.575000286,1,1,1,1,NA,NA,NA,NA,NA,NA,NA,NA,NA,NA,NA,NA,NA,NA,NA,NA,NA,NA,NA,NA,NA,NA,NA,NA
"196","stim/objects/Instruments/guitarcase2.png",89,21,89,0.9,"stim/21.jpeg",2,1,3,NA,"Instruments",1,1,"left","right",0.60400033,0,0,1,1,NA,NA,NA,NA,NA,NA,NA,NA,NA,NA,NA,NA,NA,NA,NA,NA,NA,NA,NA,NA,NA,NA,NA,NA
"42","stim/objects/HouseObjects/dustpan2.png",90,21,90,0.9,"stim/11.jpeg",1,1,3,NA,"HouseObjects",2,4,"right","left",0.377000093,0,0,1,1,NA,NA,NA,NA,NA,NA,NA,NA,NA,NA,NA,NA,NA,NA,NA,NA,NA,NA,NA,NA,NA,NA,NA,NA
"171","stim/objects/Instruments/flutetrans.png",91,21,91,0.5,"stim/41.jpeg",4,1,1,NA,"Instruments",1,2,"left","left",0.755000114,1,1,1,1,NA,NA,NA,NA,NA,NA,NA,NA,NA,NA,NA,NA,NA,NA,NA,NA,NA,NA,NA,NA,NA,NA,NA,NA
"76","stim/objects/HouseObjects/glass.png",92,21,92,0.5,"stim/44.jpeg",4,4,1,NA,"HouseObjects",2,1,"right","left",0.829000235,0,0,1,1,NA,NA,NA,NA,NA,NA,NA,NA,NA,NA,NA,NA,NA,NA,NA,NA,NA,NA,NA,NA,NA,NA,NA,NA
"64","stim/objects/HouseObjects/garbagebin.png",93,21,93,0.5,"stim/43.jpeg",4,3,1,NA,"HouseObjects",2,4,"right","left",0.890000105,0,0,1,1,NA,NA,NA,NA,NA,NA,NA,NA,NA,NA,NA,NA,NA,NA,NA,NA,NA,NA,NA,NA,NA,NA,NA,NA
"233","stim/objects/Instruments/hihat2.png",94,21,94,0.9,"stim/24.jpeg",2,4,3,NA,"Instruments",1,4,"left","left",0.627000093,1,1,1,1,NA,NA,NA,NA,NA,NA,NA,NA,NA,NA,NA,NA,NA,NA,NA,NA,NA,NA,NA,NA,NA,NA,NA,NA
"68","stim/objects/HouseObjects/garbagebin2.png",95,21,95,0.9,"stim/13.jpeg",1,3,3,NA,"HouseObjects",2,2,"right","right",0.469000101,1,1,1,1,NA,NA,NA,NA,NA,NA,NA,NA,NA,NA,NA,NA,NA,NA,NA,NA,NA,NA,NA,NA,NA,NA,NA,NA
"120","stim/objects/HouseObjects/handvacuum2.png",96,21,96,0.1,"stim/24.jpeg",2,4,3,NA,"HouseObjects",2,3,"right","left",0.54700017,0,0,1,1,NA,NA,NA,NA,NA,NA,NA,NA,NA,NA,NA,NA,NA,NA,NA,NA,NA,NA,NA,NA,NA,NA,NA,NA
"48","stim/objects/HouseObjects/flyswatter.png",97,21,97,0.5,"stim/42.jpeg",4,2,1,NA,"HouseObjects",2,2,"right","",NA,0,0,1,1,NA,NA,NA,NA,NA,NA,NA,NA,NA,NA,NA,NA,NA,NA,NA,NA,NA,NA,NA,NA,NA,NA,NA,NA
"210","stim/objects/Instruments/harmonica2.png",98,21,98,0.9,"stim/22.jpeg",2,2,3,NA,"Instruments",1,2,"left","right",0.427000284,0,0,1,1,NA,NA,NA,NA,NA,NA,NA,NA,NA,NA,NA,NA,NA,NA,NA,NA,NA,NA,NA,NA,NA,NA,NA,NA
"130","stim/objects/Instruments/drums2.png",99,21,99,0.7,"stim/61.jpeg",6,1,2,NA,"Instruments",1,3,"left","left",0.503000259,1,1,1,1,NA,NA,NA,NA,NA,NA,NA,NA,NA,NA,NA,NA,NA,NA,NA,NA,NA,NA,NA,NA,NA,NA,NA,NA
"69","stim/objects/HouseObjects/garbagebin2.png",100,21,100,0.9,"stim/13.jpeg",1,3,3,NA,"HouseObjects",2,2,"right","right",0.504000187,1,1,1,1,NA,NA,NA,NA,NA,NA,NA,NA,NA,NA,NA,NA,NA,NA,NA,NA,NA,NA,NA,NA,NA,NA,NA,NA
"43","stim/objects/HouseObjects/dustpan2.png",101,21,101,0.9,"stim/11.jpeg",1,1,3,NA,"HouseObjects",2,4,"right","right",0.623000145,1,1,1,1,NA,NA,NA,NA,NA,NA,NA,NA,NA,NA,NA,NA,NA,NA,NA,NA,NA,NA,NA,NA,NA,NA,NA,NA
"197","stim/objects/Instruments/guitarcase2.png",102,21,102,0.9,"stim/21.jpeg",2,1,3,NA,"Instruments",1,2,"left","left",0.53000021,1,1,1,1,NA,NA,NA,NA,NA,NA,NA,NA,NA,NA,NA,NA,NA,NA,NA,NA,NA,NA,NA,NA,NA,NA,NA,NA
"177","stim/objects/Instruments/frenchhorn.png",103,21,103,0.5,"stim/42.jpeg",4,2,1,NA,"Instruments",1,3,"left","right",0.611000061,0,0,1,1,NA,NA,NA,NA,NA,NA,NA,NA,NA,NA,NA,NA,NA,NA,NA,NA,NA,NA,NA,NA,NA,NA,NA,NA
"49","stim/objects/HouseObjects/flyswatter.png",104,21,104,0.5,"stim/42.jpeg",4,2,1,NA,"HouseObjects",2,3,"right","left",0.626000166,0,0,1,1,NA,NA,NA,NA,NA,NA,NA,NA,NA,NA,NA,NA,NA,NA,NA,NA,NA,NA,NA,NA,NA,NA,NA,NA
"113","stim/objects/HouseObjects/handvacuum.png",105,21,105,0.7,"stim/54.jpeg",5,4,2,NA,"HouseObjects",2,2,"right","right",0.752000093,1,1,1,1,NA,NA,NA,NA,NA,NA,NA,NA,NA,NA,NA,NA,NA,NA,NA,NA,NA,NA,NA,NA,NA,NA,NA,NA
"223","stim/objects/Instruments/harp2.png",106,21,106,0.9,"stim/23.jpeg",2,3,3,NA,"Instruments",1,3,"left","left",0.488000154,1,1,1,1,NA,NA,NA,NA,NA,NA,NA,NA,NA,NA,NA,NA,NA,NA,NA,NA,NA,NA,NA,NA,NA,NA,NA,NA
"93","stim/objects/HouseObjects/glassmop.png",107,21,107,0.7,"stim/51.jpeg",5,1,2,NA,"HouseObjects",2,4,"right","right",0.552000284,1,1,1,1,NA,NA,NA,NA,NA,NA,NA,NA,NA,NA,NA,NA,NA,NA,NA,NA,NA,NA,NA,NA,NA,NA,NA,NA
"211","stim/objects/Instruments/harmonica2.png",108,21,108,0.9,"stim/22.jpeg",2,2,3,NA,"Instruments",1,4,"left","left",0.628999949,1,1,1,1,NA,NA,NA,NA,NA,NA,NA,NA,NA,NA,NA,NA,NA,NA,NA,NA,NA,NA,NA,NA,NA,NA,NA,NA
"77","stim/objects/HouseObjects/glass.png",109,21,109,0.5,"stim/44.jpeg",4,4,1,NA,"HouseObjects",2,3,"right","left",0.554000139,0,0,1,1,NA,NA,NA,NA,NA,NA,NA,NA,NA,NA,NA,NA,NA,NA,NA,NA,NA,NA,NA,NA,NA,NA,NA,NA
"10","stim/objects/HouseObjects/cushion.png",110,21,110,0.5,"stim/32.jpeg",3,2,1,NA,"HouseObjects",2,1,"right","left",0.554000139,0,0,1,1,NA,NA,NA,NA,NA,NA,NA,NA,NA,NA,NA,NA,NA,NA,NA,NA,NA,NA,NA,NA,NA,NA,NA,NA
"212","stim/objects/Instruments/harmonica2.png",111,21,111,0.9,"stim/22.jpeg",2,2,3,NA,"Instruments",1,2,"left","left",0.623000145,1,1,1,1,NA,NA,NA,NA,NA,NA,NA,NA,NA,NA,NA,NA,NA,NA,NA,NA,NA,NA,NA,NA,NA,NA,NA,NA
"31","stim/objects/HouseObjects/doormat2.png",112,21,112,0.3,"stim/64.jpeg",6,4,2,NA,"HouseObjects",2,1,"right","left",0.544000149,0,0,1,1,NA,NA,NA,NA,NA,NA,NA,NA,NA,NA,NA,NA,NA,NA,NA,NA,NA,NA,NA,NA,NA,NA,NA,NA
"131","stim/objects/Instruments/drums2.png",113,21,113,0.7,"stim/61.jpeg",6,1,2,NA,"Instruments",1,4,"left","right",0.435000181,0,0,1,1,NA,NA,NA,NA,NA,NA,NA,NA,NA,NA,NA,NA,NA,NA,NA,NA,NA,NA,NA,NA,NA,NA,NA,NA
"114","stim/objects/HouseObjects/handvacuum.png",114,21,114,0.7,"stim/54.jpeg",5,4,2,NA,"HouseObjects",2,4,"right","right",0.624000311,1,1,1,1,NA,NA,NA,NA,NA,NA,NA,NA,NA,NA,NA,NA,NA,NA,NA,NA,NA,NA,NA,NA,NA,NA,NA,NA
"70","stim/objects/HouseObjects/garbagebin2.png",115,21,115,0.9,"stim/13.jpeg",1,3,3,NA,"HouseObjects",2,3,"right","right",0.625000238,1,1,1,1,NA,NA,NA,NA,NA,NA,NA,NA,NA,NA,NA,NA,NA,NA,NA,NA,NA,NA,NA,NA,NA,NA,NA,NA
"115","stim/objects/HouseObjects/handvacuum.png",116,21,116,0.7,"stim/54.jpeg",5,4,2,NA,"HouseObjects",2,3,"right","right",0.700000286,1,1,1,1,NA,NA,NA,NA,NA,NA,NA,NA,NA,NA,NA,NA,NA,NA,NA,NA,NA,NA,NA,NA,NA,NA,NA,NA
"4","stim/objects/HouseObjects/coffee.png",117,21,117,0.5,"stim/31.jpeg",3,1,1,NA,"HouseObjects",2,3,"right","right",0.849000216,1,1,1,1,NA,NA,NA,NA,NA,NA,NA,NA,NA,NA,NA,NA,NA,NA,NA,NA,NA,NA,NA,NA,NA,NA,NA,NA
"134","stim/objects/Instruments/electricdrumset.png",118,21,118,0.5,"stim/32.jpeg",3,2,1,NA,"Instruments",1,4,"left","left",0.70600009,1,1,1,1,NA,NA,NA,NA,NA,NA,NA,NA,NA,NA,NA,NA,NA,NA,NA,NA,NA,NA,NA,NA,NA,NA,NA,NA
"116","stim/objects/HouseObjects/handvacuum.png",119,21,119,0.7,"stim/54.jpeg",5,4,2,NA,"HouseObjects",2,1,"right","right",0.571000099,1,1,1,1,NA,NA,NA,NA,NA,NA,NA,NA,NA,NA,NA,NA,NA,NA,NA,NA,NA,NA,NA,NA,NA,NA,NA,NA
"207","stim/objects/Instruments/harmonica.png",120,21,120,0.3,"stim/52.jpeg",5,2,2,NA,"Instruments",1,2,"left","right",0.657000065,0,0,1,1,NA,NA,NA,NA,NA,NA,NA,NA,NA,NA,NA,NA,NA,NA,NA,NA,NA,NA,NA,NA,NA,NA,NA,NA
"141","stim/objects/Instruments/electricdrumset2.png",121,21,121,0.7,"stim/62.jpeg",6,2,2,NA,"Instruments",1,3,"left","left",0.559000254,1,1,1,1,NA,NA,NA,NA,NA,NA,NA,NA,NA,NA,NA,NA,NA,NA,NA,NA,NA,NA,NA,NA,NA,NA,NA,NA
"224","stim/objects/Instruments/harp2.png",122,21,122,0.9,"stim/23.jpeg",2,3,3,NA,"Instruments",1,3,"left","left",0.56400013,1,1,1,1,NA,NA,NA,NA,NA,NA,NA,NA,NA,NA,NA,NA,NA,NA,NA,NA,NA,NA,NA,NA,NA,NA,NA,NA
"57","stim/objects/HouseObjects/flyswatter2.png",123,21,123,0.9,"stim/12.jpeg",1,2,3,NA,"HouseObjects",2,2,"right","right",0.549000025,1,1,1,1,NA,NA,NA,NA,NA,NA,NA,NA,NA,NA,NA,NA,NA,NA,NA,NA,NA,NA,NA,NA,NA,NA,NA,NA
"19","stim/objects/HouseObjects/dishsoap.png",124,21,124,0.5,"stim/33.jpeg",3,3,1,NA,"HouseObjects",2,3,"right","left",0.574000359,0,0,1,1,NA,NA,NA,NA,NA,NA,NA,NA,NA,NA,NA,NA,NA,NA,NA,NA,NA,NA,NA,NA,NA,NA,NA,NA
"112","stim/objects/HouseObjects/handbrush2.png",125,21,125,0.1,"stim/23.jpeg",2,3,3,NA,"HouseObjects",2,4,"right","left",0.532000065,0,0,1,1,NA,NA,NA,NA,NA,NA,NA,NA,NA,NA,NA,NA,NA,NA,NA,NA,NA,NA,NA,NA,NA,NA,NA,NA
"132","stim/objects/Instruments/drums2.png",126,21,126,0.7,"stim/61.jpeg",6,1,2,NA,"Instruments",1,2,"left","left",0.571000099,1,1,1,1,NA,NA,NA,NA,NA,NA,NA,NA,NA,NA,NA,NA,NA,NA,NA,NA,NA,NA,NA,NA,NA,NA,NA,NA
"35","stim/objects/HouseObjects/dustpan.png",127,21,127,0.5,"stim/41.jpeg",4,1,1,NA,"HouseObjects",2,1,"right","right",0.535000086,1,1,1,1,NA,NA,NA,NA,NA,NA,NA,NA,NA,NA,NA,NA,NA,NA,NA,NA,NA,NA,NA,NA,NA,NA,NA,NA
"36","stim/objects/HouseObjects/dustpan.png",128,21,128,0.5,"stim/41.jpeg",4,1,1,NA,"HouseObjects",2,4,"right","left",0.45600009,0,0,1,1,NA,NA,NA,NA,NA,NA,NA,NA,NA,NA,NA,NA,NA,NA,NA,NA,NA,NA,NA,NA,NA,NA,NA,NA
"23","stim/objects/HouseObjects/dishsoap2.png",129,21,129,0.3,"stim/63.jpeg",6,3,2,NA,"HouseObjects",2,2,"right","left",0.515000343,0,0,1,1,NA,NA,NA,NA,NA,NA,NA,NA,NA,NA,NA,NA,NA,NA,NA,NA,NA,NA,NA,NA,NA,NA,NA,NA
"58","stim/objects/HouseObjects/flyswatter2.png",130,21,130,0.9,"stim/12.jpeg",1,2,3,NA,"HouseObjects",2,4,"right","right",0.474000216,1,1,1,1,NA,NA,NA,NA,NA,NA,NA,NA,NA,NA,NA,NA,NA,NA,NA,NA,NA,NA,NA,NA,NA,NA,NA,NA
"94","stim/objects/HouseObjects/glassmop.png",131,21,131,0.7,"stim/51.jpeg",5,1,2,NA,"HouseObjects",2,3,"right","right",0.572000027,1,1,1,1,NA,NA,NA,NA,NA,NA,NA,NA,NA,NA,NA,NA,NA,NA,NA,NA,NA,NA,NA,NA,NA,NA,NA,NA
"147","stim/objects/Instruments/electricguitar.png",132,21,132,0.5,"stim/33.jpeg",3,3,1,NA,"Instruments",1,1,"left","left",0.604000092,1,1,1,1,NA,NA,NA,NA,NA,NA,NA,NA,NA,NA,NA,NA,NA,NA,NA,NA,NA,NA,NA,NA,NA,NA,NA,NA
"189","stim/objects/Instruments/grandpiano.png",133,21,133,0.5,"stim/44.jpeg",4,4,1,NA,"Instruments",1,2,"left","right",0.394000053,0,0,1,1,NA,NA,NA,NA,NA,NA,NA,NA,NA,NA,NA,NA,NA,NA,NA,NA,NA,NA,NA,NA,NA,NA,NA,NA
"234","stim/objects/Instruments/hihat2.png",134,21,134,0.9,"stim/24.jpeg",2,4,3,NA,"Instruments",1,4,"left","left",0.430000067,1,1,1,1,NA,NA,NA,NA,NA,NA,NA,NA,NA,NA,NA,NA,NA,NA,NA,NA,NA,NA,NA,NA,NA,NA,NA,NA
"198","stim/objects/Instruments/guitarcase2.png",135,21,135,0.9,"stim/21.jpeg",2,1,3,NA,"Instruments",1,2,"left","left",0.526000023,1,1,1,1,NA,NA,NA,NA,NA,NA,NA,NA,NA,NA,NA,NA,NA,NA,NA,NA,NA,NA,NA,NA,NA,NA,NA,NA
"101","stim/objects/HouseObjects/hairdryer.png",136,21,136,0.7,"stim/52.jpeg",5,2,2,NA,"HouseObjects",2,3,"right","right",0.459000111,1,1,1,1,NA,NA,NA,NA,NA,NA,NA,NA,NA,NA,NA,NA,NA,NA,NA,NA,NA,NA,NA,NA,NA,NA,NA,NA
"95","stim/objects/HouseObjects/glassmop.png",137,21,137,0.7,"stim/51.jpeg",5,1,2,NA,"HouseObjects",2,4,"right","right",0.487000227,1,1,1,1,NA,NA,NA,NA,NA,NA,NA,NA,NA,NA,NA,NA,NA,NA,NA,NA,NA,NA,NA,NA,NA,NA,NA,NA
"135","stim/objects/Instruments/electricdrumset.png",138,21,138,0.5,"stim/32.jpeg",3,2,1,NA,"Instruments",1,4,"left","right",0.493999958,0,0,1,1,NA,NA,NA,NA,NA,NA,NA,NA,NA,NA,NA,NA,NA,NA,NA,NA,NA,NA,NA,NA,NA,NA,NA,NA
"117","stim/objects/HouseObjects/handvacuum.png",139,21,139,0.7,"stim/54.jpeg",5,4,2,NA,"HouseObjects",2,4,"right","left",0.517000198,0,0,1,1,NA,NA,NA,NA,NA,NA,NA,NA,NA,NA,NA,NA,NA,NA,NA,NA,NA,NA,NA,NA,NA,NA,NA,NA
"136","stim/objects/Instruments/electricdrumset.png",140,21,140,0.5,"stim/32.jpeg",3,2,1,NA,"Instruments",1,3,"left","right",0.327000141,0,0,1,1,NA,NA,NA,NA,NA,NA,NA,NA,NA,NA,NA,NA,NA,NA,NA,NA,NA,NA,NA,NA,NA,NA,NA,NA
"213","stim/objects/Instruments/harmonica2.png",141,21,141,0.9,"stim/22.jpeg",2,2,3,NA,"Instruments",1,3,"left","left",0.508000135,1,1,1,1,NA,NA,NA,NA,NA,NA,NA,NA,NA,NA,NA,NA,NA,NA,NA,NA,NA,NA,NA,NA,NA,NA,NA,NA
"148","stim/objects/Instruments/electricguitar.png",142,21,142,0.5,"stim/33.jpeg",3,3,1,NA,"Instruments",1,4,"left","right",0.444000244,0,0,1,1,NA,NA,NA,NA,NA,NA,NA,NA,NA,NA,NA,NA,NA,NA,NA,NA,NA,NA,NA,NA,NA,NA,NA,NA
"96","stim/objects/HouseObjects/glassmop2.png",143,21,143,0.1,"stim/21.jpeg",2,1,3,NA,"HouseObjects",2,3,"right","left",0.531000137,0,0,1,1,NA,NA,NA,NA,NA,NA,NA,NA,NA,NA,NA,NA,NA,NA,NA,NA,NA,NA,NA,NA,NA,NA,NA,NA
"190","stim/objects/Instruments/grandpiano.png",144,21,144,0.5,"stim/44.jpeg",4,4,1,NA,"Instruments",1,3,"left","right",0.626000166,0,0,1,1,NA,NA,NA,NA,NA,NA,NA,NA,NA,NA,NA,NA,NA,NA,NA,NA,NA,NA,NA,NA,NA,NA,NA,NA
"199","stim/objects/Instruments/guitarcase2.png",145,21,145,0.9,"stim/21.jpeg",2,1,3,NA,"Instruments",1,1,"left","left",0.543000221,1,1,1,1,NA,NA,NA,NA,NA,NA,NA,NA,NA,NA,NA,NA,NA,NA,NA,NA,NA,NA,NA,NA,NA,NA,NA,NA
"102","stim/objects/HouseObjects/hairdryer.png",146,21,146,0.7,"stim/52.jpeg",5,2,2,NA,"HouseObjects",2,3,"right","right",0.644000053,1,1,1,1,NA,NA,NA,NA,NA,NA,NA,NA,NA,NA,NA,NA,NA,NA,NA,NA,NA,NA,NA,NA,NA,NA,NA,NA
"230","stim/objects/Instruments/hihat.png",147,21,147,0.3,"stim/54.jpeg",5,4,2,NA,"Instruments",1,2,"left","right",0.642000198,0,0,1,1,NA,NA,NA,NA,NA,NA,NA,NA,NA,NA,NA,NA,NA,NA,NA,NA,NA,NA,NA,NA,NA,NA,NA,NA
"44","stim/objects/HouseObjects/dustpan2.png",148,21,148,0.9,"stim/11.jpeg",1,1,3,NA,"HouseObjects",2,3,"right","right",0.556000233,1,1,1,1,NA,NA,NA,NA,NA,NA,NA,NA,NA,NA,NA,NA,NA,NA,NA,NA,NA,NA,NA,NA,NA,NA,NA,NA
"154","stim/objects/Instruments/electricguitar2.png",149,21,149,0.7,"stim/63.jpeg",6,3,2,NA,"Instruments",1,3,"left","left",0.535000086,1,1,1,1,NA,NA,NA,NA,NA,NA,NA,NA,NA,NA,NA,NA,NA,NA,NA,NA,NA,NA,NA,NA,NA,NA,NA,NA
"71","stim/objects/HouseObjects/garbagebin2.png",150,21,150,0.9,"stim/13.jpeg",1,3,3,NA,"HouseObjects",2,4,"right","right",0.393000364,1,1,1,1,NA,NA,NA,NA,NA,NA,NA,NA,NA,NA,NA,NA,NA,NA,NA,NA,NA,NA,NA,NA,NA,NA,NA,NA
"45","stim/objects/HouseObjects/dustpan2.png",151,21,151,0.9,"stim/11.jpeg",1,1,3,NA,"HouseObjects",2,1,"right","right",0.584000111,1,1,1,1,NA,NA,NA,NA,NA,NA,NA,NA,NA,NA,NA,NA,NA,NA,NA,NA,NA,NA,NA,NA,NA,NA,NA,NA
"235","stim/objects/Instruments/hihat2.png",152,21,152,0.9,"stim/24.jpeg",2,4,3,NA,"Instruments",1,3,"left","left",0.430000067,1,1,1,1,NA,NA,NA,NA,NA,NA,NA,NA,NA,NA,NA,NA,NA,NA,NA,NA,NA,NA,NA,NA,NA,NA,NA,NA
"186","stim/objects/Instruments/gong2.png",153,21,153,0.1,"stim/13.jpeg",1,3,3,NA,"Instruments",1,2,"left","right",0.576000214,0,0,1,1,NA,NA,NA,NA,NA,NA,NA,NA,NA,NA,NA,NA,NA,NA,NA,NA,NA,NA,NA,NA,NA,NA,NA,NA
"109","stim/objects/HouseObjects/handbrush.png",154,21,154,0.7,"stim/53.jpeg",5,3,2,NA,"HouseObjects",2,1,"right","right",0.620000124,1,1,1,1,NA,NA,NA,NA,NA,NA,NA,NA,NA,NA,NA,NA,NA,NA,NA,NA,NA,NA,NA,NA,NA,NA,NA,NA
"46","stim/objects/HouseObjects/dustpan2.png",155,21,155,0.9,"stim/11.jpeg",1,1,3,NA,"HouseObjects",2,2,"right","right",0.532000303,1,1,1,1,NA,NA,NA,NA,NA,NA,NA,NA,NA,NA,NA,NA,NA,NA,NA,NA,NA,NA,NA,NA,NA,NA,NA,NA
"200","stim/objects/Instruments/guitarcase2.png",156,21,156,0.9,"stim/21.jpeg",2,1,3,NA,"Instruments",1,2,"left","left",0.565000296,1,1,1,1,NA,NA,NA,NA,NA,NA,NA,NA,NA,NA,NA,NA,NA,NA,NA,NA,NA,NA,NA,NA,NA,NA,NA,NA
"214","stim/objects/Instruments/harmonica2.png",157,21,157,0.9,"stim/22.jpeg",2,2,3,NA,"Instruments",1,3,"left","right",0.383000135,0,0,1,1,NA,NA,NA,NA,NA,NA,NA,NA,NA,NA,NA,NA,NA,NA,NA,NA,NA,NA,NA,NA,NA,NA,NA,NA
"201","stim/objects/Instruments/guitarcase2.png",158,21,158,0.9,"stim/21.jpeg",2,1,3,NA,"Instruments",1,1,"left","left",0.508000135,1,1,1,1,NA,NA,NA,NA,NA,NA,NA,NA,NA,NA,NA,NA,NA,NA,NA,NA,NA,NA,NA,NA,NA,NA,NA,NA
"20","stim/objects/HouseObjects/dishsoap.png",159,21,159,0.5,"stim/33.jpeg",3,3,1,NA,"HouseObjects",2,4,"right","right",0.69900012,1,1,1,1,NA,NA,NA,NA,NA,NA,NA,NA,NA,NA,NA,NA,NA,NA,NA,NA,NA,NA,NA,NA,NA,NA,NA,NA
"84","stim/objects/HouseObjects/glass2.png",160,21,160,0.9,"stim/14.jpeg",1,4,3,NA,"HouseObjects",2,3,"right","right",0.595999956,1,1,1,1,NA,NA,NA,NA,NA,NA,NA,NA,NA,NA,NA,NA,NA,NA,NA,NA,NA,NA,NA,NA,NA,NA,NA,NA
"236","stim/objects/Instruments/hihat2.png",161,21,161,0.9,"stim/24.jpeg",2,4,3,NA,"Instruments",1,1,"left","left",0.486000299,1,1,1,1,NA,NA,NA,NA,NA,NA,NA,NA,NA,NA,NA,NA,NA,NA,NA,NA,NA,NA,NA,NA,NA,NA,NA,NA
"103","stim/objects/HouseObjects/hairdryer.png",162,21,162,0.7,"stim/52.jpeg",5,2,2,NA,"HouseObjects",2,1,"right","right",0.549000263,1,1,1,1,NA,NA,NA,NA,NA,NA,NA,NA,NA,NA,NA,NA,NA,NA,NA,NA,NA,NA,NA,NA,NA,NA,NA,NA
"118","stim/objects/HouseObjects/handvacuum.png",163,21,163,0.7,"stim/54.jpeg",5,4,2,NA,"HouseObjects",2,4,"right","right",0.627000332,1,1,1,1,NA,NA,NA,NA,NA,NA,NA,NA,NA,NA,NA,NA,NA,NA,NA,NA,NA,NA,NA,NA,NA,NA,NA,NA
"178","stim/objects/Instruments/frenchhorn.png",164,21,164,0.5,"stim/42.jpeg",4,2,1,NA,"Instruments",1,2,"left","left",0.407000065,1,1,1,1,NA,NA,NA,NA,NA,NA,NA,NA,NA,NA,NA,NA,NA,NA,NA,NA,NA,NA,NA,NA,NA,NA,NA,NA
"6","stim/objects/HouseObjects/coffee2.png",165,21,165,0.3,"stim/61.jpeg",6,1,2,NA,"HouseObjects",2,2,"right","left",0.512000084,0,0,1,1,NA,NA,NA,NA,NA,NA,NA,NA,NA,NA,NA,NA,NA,NA,NA,NA,NA,NA,NA,NA,NA,NA,NA,NA
"122","stim/objects/Instruments/drums.png",166,21,166,0.5,"stim/31.jpeg",3,1,1,NA,"Instruments",1,2,"left","left",0.509000063,1,1,1,1,NA,NA,NA,NA,NA,NA,NA,NA,NA,NA,NA,NA,NA,NA,NA,NA,NA,NA,NA,NA,NA,NA,NA,NA
"193","stim/objects/Instruments/guitarcase.png",167,21,167,0.3,"stim/51.jpeg",5,1,2,NA,"Instruments",1,3,"left","right",0.40500021,0,0,1,1,NA,NA,NA,NA,NA,NA,NA,NA,NA,NA,NA,NA,NA,NA,NA,NA,NA,NA,NA,NA,NA,NA,NA,NA
"65","stim/objects/HouseObjects/garbagebin.png",168,21,168,0.5,"stim/43.jpeg",4,3,1,NA,"HouseObjects",2,3,"right","right",0.516000271,1,1,1,1,NA,NA,NA,NA,NA,NA,NA,NA,NA,NA,NA,NA,NA,NA,NA,NA,NA,NA,NA,NA,NA,NA,NA,NA
"104","stim/objects/HouseObjects/hairdryer2.png",169,21,169,0.1,"stim/22.jpeg",2,2,3,NA,"HouseObjects",2,2,"right","right",0.684000254,1,1,1,1,NA,NA,NA,NA,NA,NA,NA,NA,NA,NA,NA,NA,NA,NA,NA,NA,NA,NA,NA,NA,NA,NA,NA,NA
"123","stim/objects/Instruments/drums.png",170,21,170,0.5,"stim/31.jpeg",3,1,1,NA,"Instruments",1,1,"left","left",0.39800024,1,1,1,1,NA,NA,NA,NA,NA,NA,NA,NA,NA,NA,NA,NA,NA,NA,NA,NA,NA,NA,NA,NA,NA,NA,NA,NA
"237","stim/objects/Instruments/hihat2.png",171,21,171,0.9,"stim/24.jpeg",2,4,3,NA,"Instruments",1,2,"left","left",0.490000248,1,1,1,1,NA,NA,NA,NA,NA,NA,NA,NA,NA,NA,NA,NA,NA,NA,NA,NA,NA,NA,NA,NA,NA,NA,NA,NA
"182","stim/objects/Instruments/gong.png",172,21,172,0.5,"stim/43.jpeg",4,3,1,NA,"Instruments",1,4,"left","right",0.495000124,0,0,1,1,NA,NA,NA,NA,NA,NA,NA,NA,NA,NA,NA,NA,NA,NA,NA,NA,NA,NA,NA,NA,NA,NA,NA,NA
"21","stim/objects/HouseObjects/dishsoap.png",173,21,173,0.5,"stim/33.jpeg",3,3,1,NA,"HouseObjects",2,3,"right","left",0.407000065,0,0,1,1,NA,NA,NA,NA,NA,NA,NA,NA,NA,NA,NA,NA,NA,NA,NA,NA,NA,NA,NA,NA,NA,NA,NA,NA
"159","stim/objects/Instruments/flute.png",174,21,174,0.5,"stim/34.jpeg",3,4,1,NA,"Instruments",1,3,"left","left",0.42200017,1,1,1,1,NA,NA,NA,NA,NA,NA,NA,NA,NA,NA,NA,NA,NA,NA,NA,NA,NA,NA,NA,NA,NA,NA,NA,NA
"225","stim/objects/Instruments/harp2.png",175,21,175,0.9,"stim/23.jpeg",2,3,3,NA,"Instruments",1,2,"left","left",0.668000221,1,1,1,1,NA,NA,NA,NA,NA,NA,NA,NA,NA,NA,NA,NA,NA,NA,NA,NA,NA,NA,NA,NA,NA,NA,NA,NA
"191","stim/objects/Instruments/grandpiano.png",176,21,176,0.5,"stim/44.jpeg",4,4,1,NA,"Instruments",1,2,"left","",NA,0,0,1,1,NA,NA,NA,NA,NA,NA,NA,NA,NA,NA,NA,NA,NA,NA,NA,NA,NA,NA,NA,NA,NA,NA,NA,NA
"5","stim/objects/HouseObjects/coffee.png",177,21,177,0.5,"stim/31.jpeg",3,1,1,NA,"HouseObjects",2,1,"right","left",0.525000095,0,0,1,1,NA,NA,NA,NA,NA,NA,NA,NA,NA,NA,NA,NA,NA,NA,NA,NA,NA,NA,NA,NA,NA,NA,NA,NA
"14","stim/objects/HouseObjects/cushion2.png",178,21,178,0.3,"stim/62.jpeg",6,2,2,NA,"HouseObjects",2,2,"right","left",0.719000101,0,0,1,1,NA,NA,NA,NA,NA,NA,NA,NA,NA,NA,NA,NA,NA,NA,NA,NA,NA,NA,NA,NA,NA,NA,NA,NA
"202","stim/objects/Instruments/guitarcase2.png",179,21,179,0.9,"stim/21.jpeg",2,1,3,NA,"Instruments",1,4,"left","left",0.527000189,1,1,1,1,NA,NA,NA,NA,NA,NA,NA,NA,NA,NA,NA,NA,NA,NA,NA,NA,NA,NA,NA,NA,NA,NA,NA,NA
"142","stim/objects/Instruments/electricdrumset2.png",180,21,180,0.7,"stim/62.jpeg",6,2,2,NA,"Instruments",1,3,"left","left",0.394000292,1,1,1,1,NA,NA,NA,NA,NA,NA,NA,NA,NA,NA,NA,NA,NA,NA,NA,NA,NA,NA,NA,NA,NA,NA,NA,NA
"149","stim/objects/Instruments/electricguitar.png",181,21,181,0.5,"stim/33.jpeg",3,3,1,NA,"Instruments",1,1,"left","left",0.524000168,1,1,1,1,NA,NA,NA,NA,NA,NA,NA,NA,NA,NA,NA,NA,NA,NA,NA,NA,NA,NA,NA,NA,NA,NA,NA,NA
"32","stim/objects/HouseObjects/doormat2.png",182,21,182,0.3,"stim/64.jpeg",6,4,2,NA,"HouseObjects",2,2,"right","left",0.51699996,0,0,1,1,NA,NA,NA,NA,NA,NA,NA,NA,NA,NA,NA,NA,NA,NA,NA,NA,NA,NA,NA,NA,NA,NA,NA,NA
"15","stim/objects/HouseObjects/cushion2.png",183,21,183,0.3,"stim/62.jpeg",6,2,2,NA,"HouseObjects",2,1,"right","left",0.543000221,0,0,1,1,NA,NA,NA,NA,NA,NA,NA,NA,NA,NA,NA,NA,NA,NA,NA,NA,NA,NA,NA,NA,NA,NA,NA,NA
"11","stim/objects/HouseObjects/cushion.png",184,21,184,0.5,"stim/32.jpeg",3,2,1,NA,"HouseObjects",2,1,"right","right",0.379000187,1,1,1,1,NA,NA,NA,NA,NA,NA,NA,NA,NA,NA,NA,NA,NA,NA,NA,NA,NA,NA,NA,NA,NA,NA,NA,NA
"85","stim/objects/HouseObjects/glass2.png",185,21,185,0.9,"stim/14.jpeg",1,4,3,NA,"HouseObjects",2,3,"right","left",0.584000111,0,0,1,1,NA,NA,NA,NA,NA,NA,NA,NA,NA,NA,NA,NA,NA,NA,NA,NA,NA,NA,NA,NA,NA,NA,NA,NA
"238","stim/objects/Instruments/hihat2.png",186,21,186,0.9,"stim/24.jpeg",2,4,3,NA,"Instruments",1,1,"left","left",0.436000109,1,1,1,1,NA,NA,NA,NA,NA,NA,NA,NA,NA,NA,NA,NA,NA,NA,NA,NA,NA,NA,NA,NA,NA,NA,NA,NA
"231","stim/objects/Instruments/hihat.png",187,21,187,0.3,"stim/54.jpeg",5,4,2,NA,"Instruments",1,1,"left","right",0.526000023,0,0,1,1,NA,NA,NA,NA,NA,NA,NA,NA,NA,NA,NA,NA,NA,NA,NA,NA,NA,NA,NA,NA,NA,NA,NA,NA
"160","stim/objects/Instruments/flute.png",188,21,188,0.5,"stim/34.jpeg",3,4,1,NA,"Instruments",1,2,"left","left",0.670000315,1,1,1,1,NA,NA,NA,NA,NA,NA,NA,NA,NA,NA,NA,NA,NA,NA,NA,NA,NA,NA,NA,NA,NA,NA,NA,NA
"124","stim/objects/Instruments/drums.png",189,21,189,0.5,"stim/31.jpeg",3,1,1,NA,"Instruments",1,2,"left","right",0.409000158,0,0,1,1,NA,NA,NA,NA,NA,NA,NA,NA,NA,NA,NA,NA,NA,NA,NA,NA,NA,NA,NA,NA,NA,NA,NA,NA
"172","stim/objects/Instruments/flutetrans.png",190,21,190,0.5,"stim/41.jpeg",4,1,1,NA,"Instruments",1,2,"left","left",0.88100028,1,1,1,1,NA,NA,NA,NA,NA,NA,NA,NA,NA,NA,NA,NA,NA,NA,NA,NA,NA,NA,NA,NA,NA,NA,NA,NA
"173","stim/objects/Instruments/flutetrans.png",191,21,191,0.5,"stim/41.jpeg",4,1,1,NA,"Instruments",1,1,"left","right",0.605000019,0,0,1,1,NA,NA,NA,NA,NA,NA,NA,NA,NA,NA,NA,NA,NA,NA,NA,NA,NA,NA,NA,NA,NA,NA,NA,NA
"110","stim/objects/HouseObjects/handbrush.png",192,21,192,0.7,"stim/53.jpeg",5,3,2,NA,"HouseObjects",2,2,"right","right",0.482000113,1,1,1,1,NA,NA,NA,NA,NA,NA,NA,NA,NA,NA,NA,NA,NA,NA,NA,NA,NA,NA,NA,NA,NA,NA,NA,NA
"37","stim/objects/HouseObjects/dustpan.png",193,21,193,0.5,"stim/41.jpeg",4,1,1,NA,"HouseObjects",2,4,"right","right",0.458000183,1,1,1,1,NA,NA,NA,NA,NA,NA,NA,NA,NA,NA,NA,NA,NA,NA,NA,NA,NA,NA,NA,NA,NA,NA,NA,NA
"215","stim/objects/Instruments/harmonica2.png",194,21,194,0.9,"stim/22.jpeg",2,2,3,NA,"Instruments",1,3,"left","left",0.502000332,1,1,1,1,NA,NA,NA,NA,NA,NA,NA,NA,NA,NA,NA,NA,NA,NA,NA,NA,NA,NA,NA,NA,NA,NA,NA,NA
"59","stim/objects/HouseObjects/flyswatter2.png",195,21,195,0.9,"stim/12.jpeg",1,2,3,NA,"HouseObjects",2,4,"right","right",0.514000177,1,1,1,1,NA,NA,NA,NA,NA,NA,NA,NA,NA,NA,NA,NA,NA,NA,NA,NA,NA,NA,NA,NA,NA,NA,NA,NA
"167","stim/objects/Instruments/flute2.png",196,21,196,0.7,"stim/64.jpeg",6,4,2,NA,"Instruments",1,4,"left","left",0.509000301,1,1,1,1,NA,NA,NA,NA,NA,NA,NA,NA,NA,NA,NA,NA,NA,NA,NA,NA,NA,NA,NA,NA,NA,NA,NA,NA
"194","stim/objects/Instruments/guitarcase.png",197,21,197,0.3,"stim/51.jpeg",5,1,2,NA,"Instruments",1,1,"left","right",0.473000288,0,0,1,1,NA,NA,NA,NA,NA,NA,NA,NA,NA,NA,NA,NA,NA,NA,NA,NA,NA,NA,NA,NA,NA,NA,NA,NA
"161","stim/objects/Instruments/flute.png",198,21,198,0.5,"stim/34.jpeg",3,4,1,NA,"Instruments",1,2,"left","left",0.499000311,1,1,1,1,NA,NA,NA,NA,NA,NA,NA,NA,NA,NA,NA,NA,NA,NA,NA,NA,NA,NA,NA,NA,NA,NA,NA,NA
"143","stim/objects/Instruments/electricdrumset2.png",199,21,199,0.7,"stim/62.jpeg",6,2,2,NA,"Instruments",1,2,"left","left",0.457000017,1,1,1,1,NA,NA,NA,NA,NA,NA,NA,NA,NA,NA,NA,NA,NA,NA,NA,NA,NA,NA,NA,NA,NA,NA,NA,NA
"137","stim/objects/Instruments/electricdrumset.png",200,21,200,0.5,"stim/32.jpeg",3,2,1,NA,"Instruments",1,2,"left","right",0.531000376,0,0,1,1,NA,NA,NA,NA,NA,NA,NA,NA,NA,NA,NA,NA,NA,NA,NA,NA,NA,NA,NA,NA,NA,NA,NA,NA
"239","stim/objects/Instruments/hihat2.png",201,21,201,0.9,"stim/24.jpeg",2,4,3,NA,"Instruments",1,3,"left","left",0.476000309,1,1,1,1,NA,NA,NA,NA,NA,NA,NA,NA,NA,NA,NA,NA,NA,NA,NA,NA,NA,NA,NA,NA,NA,NA,NA,NA
"24","stim/objects/HouseObjects/dishsoap2.png",202,21,202,0.3,"stim/63.jpeg",6,3,2,NA,"HouseObjects",2,4,"right","left",0.517000198,0,0,1,1,NA,NA,NA,NA,NA,NA,NA,NA,NA,NA,NA,NA,NA,NA,NA,NA,NA,NA,NA,NA,NA,NA,NA,NA
"226","stim/objects/Instruments/harp2.png",203,21,203,0.9,"stim/23.jpeg",2,3,3,NA,"Instruments",1,1,"left","left",0.71600008,1,1,1,1,NA,NA,NA,NA,NA,NA,NA,NA,NA,NA,NA,NA,NA,NA,NA,NA,NA,NA,NA,NA,NA,NA,NA,NA
"12","stim/objects/HouseObjects/cushion.png",204,21,204,0.5,"stim/32.jpeg",3,2,1,NA,"HouseObjects",2,1,"right","right",0.583000183,1,1,1,1,NA,NA,NA,NA,NA,NA,NA,NA,NA,NA,NA,NA,NA,NA,NA,NA,NA,NA,NA,NA,NA,NA,NA,NA
"174","stim/objects/Instruments/flutetrans2.png",205,21,205,0.1,"stim/11.jpeg",1,1,3,NA,"Instruments",1,3,"left","right",0.601000071,0,0,1,1,NA,NA,NA,NA,NA,NA,NA,NA,NA,NA,NA,NA,NA,NA,NA,NA,NA,NA,NA,NA,NA,NA,NA,NA
"203","stim/objects/Instruments/guitarcase2.png",206,21,206,0.9,"stim/21.jpeg",2,1,3,NA,"Instruments",1,1,"left","left",0.459000349,1,1,1,1,NA,NA,NA,NA,NA,NA,NA,NA,NA,NA,NA,NA,NA,NA,NA,NA,NA,NA,NA,NA,NA,NA,NA,NA
"216","stim/objects/Instruments/harmonica2.png",207,21,207,0.9,"stim/22.jpeg",2,2,3,NA,"Instruments",1,4,"left","left",0.47300005,1,1,1,1,NA,NA,NA,NA,NA,NA,NA,NA,NA,NA,NA,NA,NA,NA,NA,NA,NA,NA,NA,NA,NA,NA,NA,NA
"7","stim/objects/HouseObjects/coffee2.png",208,21,208,0.3,"stim/61.jpeg",6,1,2,NA,"HouseObjects",2,3,"right","left",0.476999998,0,0,1,1,NA,NA,NA,NA,NA,NA,NA,NA,NA,NA,NA,NA,NA,NA,NA,NA,NA,NA,NA,NA,NA,NA,NA,NA
"86","stim/objects/HouseObjects/glass2.png",209,21,209,0.9,"stim/14.jpeg",1,4,3,NA,"HouseObjects",2,4,"right","right",0.57400012,1,1,1,1,NA,NA,NA,NA,NA,NA,NA,NA,NA,NA,NA,NA,NA,NA,NA,NA,NA,NA,NA,NA,NA,NA,NA,NA
"78","stim/objects/HouseObjects/glass.png",210,21,210,0.5,"stim/44.jpeg",4,4,1,NA,"HouseObjects",2,2,"right","right",0.380000114,1,1,1,1,NA,NA,NA,NA,NA,NA,NA,NA,NA,NA,NA,NA,NA,NA,NA,NA,NA,NA,NA,NA,NA,NA,NA,NA
"111","stim/objects/HouseObjects/handbrush.png",211,21,211,0.7,"stim/53.jpeg",5,3,2,NA,"HouseObjects",2,3,"right","left",0.448000193,0,0,1,1,NA,NA,NA,NA,NA,NA,NA,NA,NA,NA,NA,NA,NA,NA,NA,NA,NA,NA,NA,NA,NA,NA,NA,NA
"155","stim/objects/Instruments/electricguitar2.png",212,21,212,0.7,"stim/63.jpeg",6,3,2,NA,"Instruments",1,4,"left","left",0.509000301,1,1,1,1,NA,NA,NA,NA,NA,NA,NA,NA,NA,NA,NA,NA,NA,NA,NA,NA,NA,NA,NA,NA,NA,NA,NA,NA
"156","stim/objects/Instruments/electricguitar2.png",213,21,213,0.7,"stim/63.jpeg",6,3,2,NA,"Instruments",1,2,"left","right",0.460000277,0,0,1,1,NA,NA,NA,NA,NA,NA,NA,NA,NA,NA,NA,NA,NA,NA,NA,NA,NA,NA,NA,NA,NA,NA,NA,NA
"180","stim/objects/Instruments/frenchhorn2.png",214,21,214,0.1,"stim/12.jpeg",1,2,3,NA,"Instruments",1,3,"left","right",0.601000071,0,0,1,1,NA,NA,NA,NA,NA,NA,NA,NA,NA,NA,NA,NA,NA,NA,NA,NA,NA,NA,NA,NA,NA,NA,NA,NA
"144","stim/objects/Instruments/electricdrumset2.png",215,21,215,0.7,"stim/62.jpeg",6,2,2,NA,"Instruments",1,3,"left","",NA,0,0,1,1,NA,NA,NA,NA,NA,NA,NA,NA,NA,NA,NA,NA,NA,NA,NA,NA,NA,NA,NA,NA,NA,NA,NA,NA
"240","stim/objects/Instruments/hihat2.png",216,21,216,0.9,"stim/24.jpeg",2,4,3,NA,"Instruments",1,1,"left","left",0.460000277,1,1,1,1,NA,NA,NA,NA,NA,NA,NA,NA,NA,NA,NA,NA,NA,NA,NA,NA,NA,NA,NA,NA,NA,NA,NA,NA
"50","stim/objects/HouseObjects/flyswatter.png",217,21,217,0.5,"stim/42.jpeg",4,2,1,NA,"HouseObjects",2,2,"right","right",0.378999949,1,1,1,1,NA,NA,NA,NA,NA,NA,NA,NA,NA,NA,NA,NA,NA,NA,NA,NA,NA,NA,NA,NA,NA,NA,NA,NA
"183","stim/objects/Instruments/gong.png",218,21,218,0.5,"stim/43.jpeg",4,3,1,NA,"Instruments",1,2,"left","left",0.559000254,1,1,1,1,NA,NA,NA,NA,NA,NA,NA,NA,NA,NA,NA,NA,NA,NA,NA,NA,NA,NA,NA,NA,NA,NA,NA,NA
"51","stim/objects/HouseObjects/flyswatter.png",219,21,219,0.5,"stim/42.jpeg",4,2,1,NA,"HouseObjects",2,4,"right","left",0.553000212,0,0,1,1,NA,NA,NA,NA,NA,NA,NA,NA,NA,NA,NA,NA,NA,NA,NA,NA,NA,NA,NA,NA,NA,NA,NA,NA
"195","stim/objects/Instruments/guitarcase.png",220,21,220,0.3,"stim/51.jpeg",5,1,2,NA,"Instruments",1,1,"left","right",0.543000221,0,0,1,1,NA,NA,NA,NA,NA,NA,NA,NA,NA,NA,NA,NA,NA,NA,NA,NA,NA,NA,NA,NA,NA,NA,NA,NA
"168","stim/objects/Instruments/flute2.png",221,21,221,0.7,"stim/64.jpeg",6,4,2,NA,"Instruments",1,3,"left","left",0.359000206,1,1,1,1,NA,NA,NA,NA,NA,NA,NA,NA,NA,NA,NA,NA,NA,NA,NA,NA,NA,NA,NA,NA,NA,NA,NA,NA
"184","stim/objects/Instruments/gong.png",222,21,222,0.5,"stim/43.jpeg",4,3,1,NA,"Instruments",1,4,"left","left",0.401000023,1,1,1,1,NA,NA,NA,NA,NA,NA,NA,NA,NA,NA,NA,NA,NA,NA,NA,NA,NA,NA,NA,NA,NA,NA,NA,NA
"87","stim/objects/HouseObjects/glass2.png",223,21,223,0.9,"stim/14.jpeg",1,4,3,NA,"HouseObjects",2,2,"right","right",0.436000109,1,1,1,1,NA,NA,NA,NA,NA,NA,NA,NA,NA,NA,NA,NA,NA,NA,NA,NA,NA,NA,NA,NA,NA,NA,NA,NA
"227","stim/objects/Instruments/harp2.png",224,21,224,0.9,"stim/23.jpeg",2,3,3,NA,"Instruments",1,4,"left","left",0.515000105,1,1,1,1,NA,NA,NA,NA,NA,NA,NA,NA,NA,NA,NA,NA,NA,NA,NA,NA,NA,NA,NA,NA,NA,NA,NA,NA
"79","stim/objects/HouseObjects/glass.png",225,21,225,0.5,"stim/44.jpeg",4,4,1,NA,"HouseObjects",2,3,"right","left",0.579000235,0,0,1,1,NA,NA,NA,NA,NA,NA,NA,NA,NA,NA,NA,NA,NA,NA,NA,NA,NA,NA,NA,NA,NA,NA,NA,NA
"228","stim/objects/Instruments/harp2.png",226,21,226,0.9,"stim/23.jpeg",2,3,3,NA,"Instruments",1,4,"left","right",0.380000114,0,0,1,1,NA,NA,NA,NA,NA,NA,NA,NA,NA,NA,NA,NA,NA,NA,NA,NA,NA,NA,NA,NA,NA,NA,NA,NA
"125","stim/objects/Instruments/drums.png",227,21,227,0.5,"stim/31.jpeg",3,1,1,NA,"Instruments",1,2,"left","left",0.348000288,1,1,1,1,NA,NA,NA,NA,NA,NA,NA,NA,NA,NA,NA,NA,NA,NA,NA,NA,NA,NA,NA,NA,NA,NA,NA,NA
"72","stim/objects/HouseObjects/garbagebin2.png",228,21,228,0.9,"stim/13.jpeg",1,3,3,NA,"HouseObjects",2,3,"right","right",0.521000147,1,1,1,1,NA,NA,NA,NA,NA,NA,NA,NA,NA,NA,NA,NA,NA,NA,NA,NA,NA,NA,NA,NA,NA,NA,NA,NA
"8","stim/objects/HouseObjects/coffee2.png",229,21,229,0.3,"stim/61.jpeg",6,1,2,NA,"HouseObjects",2,3,"right","left",0.375000238,0,0,1,1,NA,NA,NA,NA,NA,NA,NA,NA,NA,NA,NA,NA,NA,NA,NA,NA,NA,NA,NA,NA,NA,NA,NA,NA
"29","stim/objects/HouseObjects/doormat.png",230,21,230,0.5,"stim/34.jpeg",3,4,1,NA,"HouseObjects",2,3,"right","right",0.595000267,1,1,1,1,NA,NA,NA,NA,NA,NA,NA,NA,NA,NA,NA,NA,NA,NA,NA,NA,NA,NA,NA,NA,NA,NA,NA,NA
"204","stim/objects/Instruments/guitarcase2.png",231,21,231,0.9,"stim/21.jpeg",2,1,3,NA,"Instruments",1,2,"left","left",0.419000149,1,1,1,1,NA,NA,NA,NA,NA,NA,NA,NA,NA,NA,NA,NA,NA,NA,NA,NA,NA,NA,NA,NA,NA,NA,NA,NA
"13","stim/objects/HouseObjects/cushion.png",232,21,232,0.5,"stim/32.jpeg",3,2,1,NA,"HouseObjects",2,4,"right","right",0.421000242,1,1,1,1,NA,NA,NA,NA,NA,NA,NA,NA,NA,NA,NA,NA,NA,NA,NA,NA,NA,NA,NA,NA,NA,NA,NA,NA
"16","stim/objects/HouseObjects/cushion2.png",233,21,233,0.3,"stim/62.jpeg",6,2,2,NA,"HouseObjects",2,4,"right","left",0.568000078,0,0,1,1,NA,NA,NA,NA,NA,NA,NA,NA,NA,NA,NA,NA,NA,NA,NA,NA,NA,NA,NA,NA,NA,NA,NA,NA
"73","stim/objects/HouseObjects/garbagebin2.png",234,21,234,0.9,"stim/13.jpeg",1,3,3,NA,"HouseObjects",2,3,"right","right",0.625,1,1,1,1,NA,NA,NA,NA,NA,NA,NA,NA,NA,NA,NA,NA,NA,NA,NA,NA,NA,NA,NA,NA,NA,NA,NA,NA
"185","stim/objects/Instruments/gong.png",235,21,235,0.5,"stim/43.jpeg",4,3,1,NA,"Instruments",1,1,"left","left",0.75,1,1,1,1,NA,NA,NA,NA,NA,NA,NA,NA,NA,NA,NA,NA,NA,NA,NA,NA,NA,NA,NA,NA,NA,NA,NA,NA
"74","stim/objects/HouseObjects/garbagebin2.png",236,21,236,0.9,"stim/13.jpeg",1,3,3,NA,"HouseObjects",2,1,"right","left",0.641000271,0,0,1,1,NA,NA,NA,NA,NA,NA,NA,NA,NA,NA,NA,NA,NA,NA,NA,NA,NA,NA,NA,NA,NA,NA,NA,NA
"60","stim/objects/HouseObjects/flyswatter2.png",237,21,237,0.9,"stim/12.jpeg",1,2,3,NA,"HouseObjects",2,1,"right","right",0.637000084,1,1,1,1,NA,NA,NA,NA,NA,NA,NA,NA,NA,NA,NA,NA,NA,NA,NA,NA,NA,NA,NA,NA,NA,NA,NA,NA
"119","stim/objects/HouseObjects/handvacuum.png",238,21,238,0.7,"stim/54.jpeg",5,4,2,NA,"HouseObjects",2,1,"right","right",0.468000174,1,1,1,1,NA,NA,NA,NA,NA,NA,NA,NA,NA,NA,NA,NA,NA,NA,NA,NA,NA,NA,NA,NA,NA,NA,NA,NA
"88","stim/objects/HouseObjects/glass2.png",239,21,239,0.9,"stim/14.jpeg",1,4,3,NA,"HouseObjects",2,1,"right","right",0.489000082,1,1,1,1,NA,NA,NA,NA,NA,NA,NA,NA,NA,NA,NA,NA,NA,NA,NA,NA,NA,NA,NA,NA,NA,NA,NA,NA
"179","stim/objects/Instruments/frenchhorn.png",240,21,240,0.5,"stim/42.jpeg",4,2,1,NA,"Instruments",1,4,"left","right",0.707000256,0,0,1,1,NA,NA,NA,NA,NA,NA,NA,NA,NA,NA,NA,NA,NA,NA,NA,NA,NA,NA,NA,NA,NA,NA,NA,NA
"560","stim/objects/Instruments/trombone4.png",248,21,241,0.9,"stim/21.jpeg",2,1,3,1,"Instruments",1,2,"left","left",0.377000093,1,1,1,0,60,21,1,0.9,1,"stim/21.jpeg",2,1,"stim/21.jpeg",2,"right",0.893000126,2,3,0.605999947,2,0.90500021,60,0,0,NA,1,NA,1
"409","stim/objects/Instruments/acousticguitar3.png",249,21,242,0.5,"stim/33.jpeg",3,3,1,2,"Instruments",1,1,"left","right",0.494000196,0,0,1,0,NA,NA,NA,NA,NA,NA,NA,NA,NA,NA,NA,NA,NA,NA,NA,NA,NA,NA,NA,NA,NA,NA,NA,NA
"398","stim/objects/HouseObjects/thread3.png",250,21,243,0.7,"stim/53.jpeg",5,3,2,1,"HouseObjects",2,1,"right","left",0.57400012,0,0,1,0,54,21,1,0.7,2,"stim/53.jpeg",5,3,"stim/53.jpeg",1,"left",1.339999914,4,4,1.383000135,3,2.101999998,54,1,0,0,0,0,1
"253","stim/objects/HouseObjects/bleachbottle3.png",251,21,244,0.5,"stim/31.jpeg",3,1,1,2,"HouseObjects",2,4,"right","left",0.552000284,0,0,1,0,NA,NA,NA,NA,NA,NA,NA,NA,NA,NA,NA,NA,NA,NA,NA,NA,NA,NA,NA,NA,NA,NA,NA,NA
"524","stim/objects/Instruments/oboe3.png",252,21,245,0.9,"stim/22.jpeg",2,2,3,2,"Instruments",1,2,"left","left",0.607000113,1,1,1,0,NA,NA,NA,NA,NA,NA,NA,NA,NA,NA,NA,NA,NA,NA,NA,NA,NA,NA,NA,NA,NA,NA,NA,NA
"507","stim/objects/Instruments/musicstand3.png",253,21,246,0.9,"stim/23.jpeg",2,3,3,2,"Instruments",1,1,"left","left",0.510000229,1,1,1,0,NA,NA,NA,NA,NA,NA,NA,NA,NA,NA,NA,NA,NA,NA,NA,NA,NA,NA,NA,NA,NA,NA,NA,NA
"427","stim/objects/Instruments/chime3.png",254,21,247,0.5,"stim/41.jpeg",4,1,1,2,"Instruments",1,2,"left","right",0.478000164,0,0,1,0,NA,NA,NA,NA,NA,NA,NA,NA,NA,NA,NA,NA,NA,NA,NA,NA,NA,NA,NA,NA,NA,NA,NA,NA
"457","stim/objects/Instruments/marimba3.png",255,21,248,0.9,"stim/22.jpeg",2,2,3,2,"Instruments",1,3,"left","left",0.478000164,1,1,1,0,NA,NA,NA,NA,NA,NA,NA,NA,NA,NA,NA,NA,NA,NA,NA,NA,NA,NA,NA,NA,NA,NA,NA,NA
"360","stim/objects/HouseObjects/pitcher3.png",256,21,249,0.9,"stim/14.jpeg",1,4,3,2,"HouseObjects",2,2,"right","left",0.512000322,0,0,1,0,NA,NA,NA,NA,NA,NA,NA,NA,NA,NA,NA,NA,NA,NA,NA,NA,NA,NA,NA,NA,NA,NA,NA,NA
"394","stim/objects/HouseObjects/teapot3.png",257,21,250,0.5,"stim/44.jpeg",4,4,1,1,"HouseObjects",2,3,"right","right",0.607000113,1,1,1,0,74,21,1,0.5,2,"stim/44.jpeg",4,4,"stim/44.jpeg",3,"left",2.674999952,4,3,2.756999969,4,1.513000011,74,1,0,0,0,0,1
"406","stim/objects/Instruments/accordion3.png",258,21,251,0.5,"stim/32.jpeg",3,2,1,2,"Instruments",1,1,"left","left",0.596000195,1,1,1,0,NA,NA,NA,NA,NA,NA,NA,NA,NA,NA,NA,NA,NA,NA,NA,NA,NA,NA,NA,NA,NA,NA,NA,NA
"441","stim/objects/Instruments/doublebass3.png",259,21,252,0.7,"stim/62.jpeg",6,2,2,2,"Instruments",1,3,"left","left",0.603000164,1,1,1,0,NA,NA,NA,NA,NA,NA,NA,NA,NA,NA,NA,NA,NA,NA,NA,NA,NA,NA,NA,NA,NA,NA,NA,NA
"451","stim/objects/Instruments/laud4.png",260,21,253,0.7,"stim/64.jpeg",6,4,2,1,"Instruments",1,2,"left","left",0.625000238,1,1,1,0,110,21,1,0.7,1,"stim/64.jpeg",6,4,"stim/64.jpeg",2,"right",1.155999899,2,4,0.804000139,3,0.99000001,110,0,1,NA,0,NA,1
"247","stim/objects/HouseObjects/barbecuelighter3.png",261,21,254,0.5,"stim/33.jpeg",3,3,1,2,"HouseObjects",2,1,"right","right",0.552000284,1,1,1,0,NA,NA,NA,NA,NA,NA,NA,NA,NA,NA,NA,NA,NA,NA,NA,NA,NA,NA,NA,NA,NA,NA,NA,NA
"325","stim/objects/HouseObjects/match3.png",262,21,255,0.9,"stim/13.jpeg",1,3,3,2,"HouseObjects",2,4,"right","right",0.668000221,1,1,1,0,NA,NA,NA,NA,NA,NA,NA,NA,NA,NA,NA,NA,NA,NA,NA,NA,NA,NA,NA,NA,NA,NA,NA,NA
"410","stim/objects/Instruments/acousticguitar3.png",263,21,256,0.5,"stim/32.jpeg",3,2,1,2,"Instruments",1,2,"left","left",0.616000175,1,1,1,0,NA,NA,NA,NA,NA,NA,NA,NA,NA,NA,NA,NA,NA,NA,NA,NA,NA,NA,NA,NA,NA,NA,NA,NA
"490","stim/objects/Instruments/musicsheet3.png",264,21,257,0.9,"stim/22.jpeg",2,2,3,2,"Instruments",1,2,"left","right",0.708000183,0,0,1,0,NA,NA,NA,NA,NA,NA,NA,NA,NA,NA,NA,NA,NA,NA,NA,NA,NA,NA,NA,NA,NA,NA,NA,NA
"308","stim/objects/HouseObjects/lintroller3.png",265,21,258,0.9,"stim/13.jpeg",1,3,3,2,"HouseObjects",2,4,"right","right",0.80700016,1,1,1,0,NA,NA,NA,NA,NA,NA,NA,NA,NA,NA,NA,NA,NA,NA,NA,NA,NA,NA,NA,NA,NA,NA,NA,NA
"287","stim/objects/HouseObjects/key3.png",266,21,259,0.7,"stim/54.jpeg",5,4,2,2,"HouseObjects",2,2,"right","left",0.56400013,0,0,1,0,NA,NA,NA,NA,NA,NA,NA,NA,NA,NA,NA,NA,NA,NA,NA,NA,NA,NA,NA,NA,NA,NA,NA,NA
"361","stim/objects/HouseObjects/pitcher3.png",267,21,260,0.9,"stim/12.jpeg",1,2,3,2,"HouseObjects",2,1,"right","right",0.611000061,1,1,1,0,NA,NA,NA,NA,NA,NA,NA,NA,NA,NA,NA,NA,NA,NA,NA,NA,NA,NA,NA,NA,NA,NA,NA,NA
"246","stim/objects/HouseObjects/ballofstring4.png",268,21,261,0.7,"stim/54.jpeg",5,4,2,1,"HouseObjects",2,3,"right","right",0.599000216,1,1,1,0,111,21,1,0.7,2,"stim/54.jpeg",5,4,"stim/54.jpeg",3,"left",1.07400012,4,4,1.653000116,3,0.950000048,111,1,1,1,1,1,1
"458","stim/objects/Instruments/marimba3.png",269,21,262,0.9,"stim/24.jpeg",2,4,3,2,"Instruments",1,4,"left","left",0.581000328,1,1,1,0,NA,NA,NA,NA,NA,NA,NA,NA,NA,NA,NA,NA,NA,NA,NA,NA,NA,NA,NA,NA,NA,NA,NA,NA
"401","stim/objects/HouseObjects/towel4.png",270,21,263,0.1,"stim/22.jpeg",2,2,3,1,"HouseObjects",2,2,"right","left",0.463000298,0,0,1,0,193,21,1,0.1,2,"stim/22.jpeg",2,2,"stim/22.jpeg",2,"right",1.375999928,2,4,1.036999941,1,0.878999949,193,0,0,NA,0,NA,1
"278","stim/objects/HouseObjects/clothespin4.png",271,21,264,0.3,"stim/64.jpeg",6,4,2,1,"HouseObjects",2,1,"right","left",0.576000214,0,0,1,0,83,21,1,0.3,2,"stim/64.jpeg",6,4,"stim/64.jpeg",1,"left",1.458000183,3,2,0.806999922,4,0.733999968,83,1,0,0,0,0,1
"395","stim/objects/HouseObjects/teapot4.png",272,21,265,0.1,"stim/23.jpeg",2,3,3,1,"HouseObjects",2,2,"right","left",0.647000313,0,0,1,0,106,21,1,0.1,2,"stim/23.jpeg",2,3,"stim/23.jpeg",2,"left",1.424999952,4,4,2.036000013,3,2.226000071,106,1,0,0,0,0,1
"526","stim/objects/Instruments/oboe3.png",273,21,266,0.9,"stim/23.jpeg",2,3,3,2,"Instruments",1,3,"left","left",0.673000097,1,1,1,0,NA,NA,NA,NA,NA,NA,NA,NA,NA,NA,NA,NA,NA,NA,NA,NA,NA,NA,NA,NA,NA,NA,NA,NA
"399","stim/objects/HouseObjects/thread4.png",274,21,267,0.1,"stim/21.jpeg",2,1,3,1,"HouseObjects",2,3,"right","left",0.498000145,0,0,1,0,195,21,1,0.1,2,"stim/21.jpeg",2,1,"stim/21.jpeg",3,"left",0.843999863,4,4,0.759000063,2,0.684000015,195,1,0,0,0,0,1
"268","stim/objects/HouseObjects/clock3.png",275,21,268,0.5,"stim/42.jpeg",4,2,1,2,"HouseObjects",2,4,"right","right",0.730000257,1,1,1,0,NA,NA,NA,NA,NA,NA,NA,NA,NA,NA,NA,NA,NA,NA,NA,NA,NA,NA,NA,NA,NA,NA,NA,NA
"436","stim/objects/Instruments/cymbal3.png",276,21,269,0.7,"stim/62.jpeg",6,2,2,2,"Instruments",1,4,"left","left",0.593000174,1,1,1,0,NA,NA,NA,NA,NA,NA,NA,NA,NA,NA,NA,NA,NA,NA,NA,NA,NA,NA,NA,NA,NA,NA,NA,NA
"380","stim/objects/HouseObjects/rubbergloves3.png",277,21,270,0.5,"stim/34.jpeg",3,4,1,1,"HouseObjects",2,3,"right","right",0.734000206,1,1,1,0,15,21,1,0.5,1,"stim/34.jpeg",3,4,"stim/34.jpeg",3,"left",1.065000057,4,2,7.81400013,3,2.56400013,15,1,0,0,1,1,1
"433","stim/objects/Instruments/cornet3.png",278,21,271,0.5,"stim/43.jpeg",4,3,1,2,"Instruments",1,3,"left","right",0.694000244,0,0,1,0,NA,NA,NA,NA,NA,NA,NA,NA,NA,NA,NA,NA,NA,NA,NA,NA,NA,NA,NA,NA,NA,NA,NA,NA
"292","stim/objects/HouseObjects/knife3.png",279,21,272,0.9,"stim/14.jpeg",1,4,3,2,"HouseObjects",2,4,"right","right",0.656000137,1,1,1,0,NA,NA,NA,NA,NA,NA,NA,NA,NA,NA,NA,NA,NA,NA,NA,NA,NA,NA,NA,NA,NA,NA,NA,NA
"309","stim/objects/HouseObjects/lintroller3.png",280,21,273,0.9,"stim/12.jpeg",1,2,3,2,"HouseObjects",2,1,"right","right",0.555000067,1,1,1,0,NA,NA,NA,NA,NA,NA,NA,NA,NA,NA,NA,NA,NA,NA,NA,NA,NA,NA,NA,NA,NA,NA,NA,NA
"527","stim/objects/Instruments/oboe3.png",281,21,274,0.9,"stim/24.jpeg",2,4,3,2,"Instruments",1,4,"left","left",0.542000055,1,1,1,0,NA,NA,NA,NA,NA,NA,NA,NA,NA,NA,NA,NA,NA,NA,NA,NA,NA,NA,NA,NA,NA,NA,NA,NA
"528","stim/objects/Instruments/oboe3.png",282,21,275,0.9,"stim/24.jpeg",2,4,3,2,"Instruments",1,1,"left","left",0.576000214,1,1,1,0,NA,NA,NA,NA,NA,NA,NA,NA,NA,NA,NA,NA,NA,NA,NA,NA,NA,NA,NA,NA,NA,NA,NA,NA
"283","stim/objects/HouseObjects/ironingboard3.png",283,21,276,0.7,"stim/52.jpeg",5,2,2,2,"HouseObjects",2,3,"right","right",0.692000151,1,1,1,0,NA,NA,NA,NA,NA,NA,NA,NA,NA,NA,NA,NA,NA,NA,NA,NA,NA,NA,NA,NA,NA,NA,NA,NA
"408","stim/objects/Instruments/accordion4.png",284,21,277,0.3,"stim/52.jpeg",5,2,2,1,"Instruments",1,1,"left","right",0.649000168,0,0,1,0,13,21,1,0.3,1,"stim/52.jpeg",5,2,"stim/52.jpeg",1,"left",0.888000011,4,2,2.150000095,1,0.638000011,13,1,1,1,1,1,1
"492","stim/objects/Instruments/musicsheet3.png",285,21,278,0.9,"stim/23.jpeg",2,3,3,2,"Instruments",1,4,"left","left",0.520000219,1,1,1,0,NA,NA,NA,NA,NA,NA,NA,NA,NA,NA,NA,NA,NA,NA,NA,NA,NA,NA,NA,NA,NA,NA,NA,NA
"362","stim/objects/HouseObjects/pitcher3.png",286,21,279,0.9,"stim/11.jpeg",1,1,3,2,"HouseObjects",2,2,"right","right",0.55700016,1,1,1,0,NA,NA,NA,NA,NA,NA,NA,NA,NA,NA,NA,NA,NA,NA,NA,NA,NA,NA,NA,NA,NA,NA,NA,NA
"459","stim/objects/Instruments/marimba3.png",287,21,280,0.9,"stim/24.jpeg",2,4,3,2,"Instruments",1,4,"left","right",0.507000208,0,0,1,0,NA,NA,NA,NA,NA,NA,NA,NA,NA,NA,NA,NA,NA,NA,NA,NA,NA,NA,NA,NA,NA,NA,NA,NA
"252","stim/objects/HouseObjects/basket4.png",288,21,281,0.7,"stim/52.jpeg",5,2,2,1,"HouseObjects",2,2,"right","right",0.725000143,1,1,1,0,120,21,1,0.7,2,"stim/52.jpeg",5,2,"stim/52.jpeg",2,"left",2.284000158,4,3,3.75,4,1.666999817,120,1,0,0,0,0,1
"310","stim/objects/HouseObjects/lintroller3.png",289,21,282,0.9,"stim/13.jpeg",1,3,3,2,"HouseObjects",2,2,"right","right",0.751000166,1,1,1,0,NA,NA,NA,NA,NA,NA,NA,NA,NA,NA,NA,NA,NA,NA,NA,NA,NA,NA,NA,NA,NA,NA,NA,NA
"311","stim/objects/HouseObjects/lintroller3.png",290,21,283,0.9,"stim/14.jpeg",1,4,3,2,"HouseObjects",2,1,"right","right",0.851000071,1,1,1,0,NA,NA,NA,NA,NA,NA,NA,NA,NA,NA,NA,NA,NA,NA,NA,NA,NA,NA,NA,NA,NA,NA,NA,NA
"435","stim/objects/Instruments/cornet4.png",291,21,284,0.7,"stim/64.jpeg",6,4,2,1,"Instruments",1,1,"left","left",0.546000004,1,1,1,0,146,21,1,0.7,1,"stim/64.jpeg",6,4,"stim/64.jpeg",1,"left",1.79399991,4,1,0.825999975,1,1.574999809,146,1,0,0,1,1,1
"461","stim/objects/Instruments/marimba3.png",292,21,285,0.9,"stim/23.jpeg",2,3,3,2,"Instruments",1,4,"left","left",0.586000204,1,1,1,0,NA,NA,NA,NA,NA,NA,NA,NA,NA,NA,NA,NA,NA,NA,NA,NA,NA,NA,NA,NA,NA,NA,NA,NA
"327","stim/objects/HouseObjects/match3.png",293,21,286,0.9,"stim/11.jpeg",1,1,3,2,"HouseObjects",2,1,"right","right",0.651000023,1,1,1,0,NA,NA,NA,NA,NA,NA,NA,NA,NA,NA,NA,NA,NA,NA,NA,NA,NA,NA,NA,NA,NA,NA,NA,NA
"261","stim/objects/HouseObjects/bottle4.png",294,21,287,0.3,"stim/63.jpeg",6,3,2,1,"HouseObjects",2,2,"right","left",0.565000296,0,0,1,0,187,21,1,0.3,2,"stim/63.jpeg",6,3,"stim/63.jpeg",2,"left",0.907999992,4,3,0.677999973,2,0.625999928,187,1,1,1,1,1,1
"293","stim/objects/HouseObjects/knife3.png",295,21,288,0.9,"stim/12.jpeg",1,2,3,2,"HouseObjects",2,1,"right","right",0.525000095,1,1,1,0,NA,NA,NA,NA,NA,NA,NA,NA,NA,NA,NA,NA,NA,NA,NA,NA,NA,NA,NA,NA,NA,NA,NA,NA
"344","stim/objects/HouseObjects/pan3.png",296,21,289,0.9,"stim/12.jpeg",1,2,3,2,"HouseObjects",2,1,"right","right",0.636000156,1,1,1,0,NA,NA,NA,NA,NA,NA,NA,NA,NA,NA,NA,NA,NA,NA,NA,NA,NA,NA,NA,NA,NA,NA,NA,NA
"509","stim/objects/Instruments/musicstand3.png",297,21,290,0.9,"stim/21.jpeg",2,1,3,2,"Instruments",1,3,"left","left",0.617000103,1,1,1,0,NA,NA,NA,NA,NA,NA,NA,NA,NA,NA,NA,NA,NA,NA,NA,NA,NA,NA,NA,NA,NA,NA,NA,NA
"475","stim/objects/Instruments/metronome3.png",298,21,291,0.9,"stim/21.jpeg",2,1,3,2,"Instruments",1,4,"left","right",0.605000019,0,0,1,0,NA,NA,NA,NA,NA,NA,NA,NA,NA,NA,NA,NA,NA,NA,NA,NA,NA,NA,NA,NA,NA,NA,NA,NA
"328","stim/objects/HouseObjects/match3.png",299,21,292,0.9,"stim/14.jpeg",1,4,3,2,"HouseObjects",2,3,"right","right",0.558000088,1,1,1,0,NA,NA,NA,NA,NA,NA,NA,NA,NA,NA,NA,NA,NA,NA,NA,NA,NA,NA,NA,NA,NA,NA,NA,NA
"387","stim/objects/HouseObjects/saw4.png",300,21,293,0.1,"stim/23.jpeg",2,3,3,1,"HouseObjects",2,2,"right","left",0.553000212,0,0,1,0,53,21,1,0.1,2,"stim/23.jpeg",2,3,"stim/23.jpeg",2,"left",0.89199996,4,3,1.690999985,3,0.845999956,53,1,1,1,0,0,1
"244","stim/objects/HouseObjects/ballofstring3.png",301,21,294,0.5,"stim/31.jpeg",3,1,1,2,"HouseObjects",2,3,"right","right",0.626000166,1,1,1,0,NA,NA,NA,NA,NA,NA,NA,NA,NA,NA,NA,NA,NA,NA,NA,NA,NA,NA,NA,NA,NA,NA,NA,NA
"364","stim/objects/HouseObjects/pitcher3.png",302,21,295,0.9,"stim/14.jpeg",1,4,3,2,"HouseObjects",2,1,"right","right",0.527000189,1,1,1,0,NA,NA,NA,NA,NA,NA,NA,NA,NA,NA,NA,NA,NA,NA,NA,NA,NA,NA,NA,NA,NA,NA,NA,NA
"462","stim/objects/Instruments/marimba3.png",303,21,296,0.9,"stim/23.jpeg",2,3,3,2,"Instruments",1,3,"left","left",0.63100028,1,1,1,0,NA,NA,NA,NA,NA,NA,NA,NA,NA,NA,NA,NA,NA,NA,NA,NA,NA,NA,NA,NA,NA,NA,NA,NA
"294","stim/objects/HouseObjects/knife3.png",304,21,297,0.9,"stim/14.jpeg",1,4,3,2,"HouseObjects",2,2,"right","right",0.667000055,1,1,1,0,NA,NA,NA,NA,NA,NA,NA,NA,NA,NA,NA,NA,NA,NA,NA,NA,NA,NA,NA,NA,NA,NA,NA,NA
"493","stim/objects/Instruments/musicsheet3.png",305,21,298,0.9,"stim/21.jpeg",2,1,3,2,"Instruments",1,4,"left","left",0.47300005,1,1,1,0,NA,NA,NA,NA,NA,NA,NA,NA,NA,NA,NA,NA,NA,NA,NA,NA,NA,NA,NA,NA,NA,NA,NA,NA
"476","stim/objects/Instruments/metronome3.png",306,21,299,0.9,"stim/23.jpeg",2,3,3,2,"Instruments",1,4,"left","left",0.450000286,1,1,1,0,NA,NA,NA,NA,NA,NA,NA,NA,NA,NA,NA,NA,NA,NA,NA,NA,NA,NA,NA,NA,NA,NA,NA,NA
"365","stim/objects/HouseObjects/pitcher3.png",307,21,300,0.9,"stim/12.jpeg",1,2,3,2,"HouseObjects",2,2,"right","right",0.476999998,1,1,1,0,NA,NA,NA,NA,NA,NA,NA,NA,NA,NA,NA,NA,NA,NA,NA,NA,NA,NA,NA,NA,NA,NA,NA,NA
"376","stim/objects/HouseObjects/recyclingbin3.png",308,21,301,0.5,"stim/32.jpeg",3,2,1,1,"HouseObjects",2,3,"right","left",0.640000343,0,0,1,0,160,21,1,0.5,1,"stim/32.jpeg",3,2,"stim/32.jpeg",3,"right",0.84499979,4,3,0.690999985,4,0.539999962,160,0,0,NA,0,NA,1
"511","stim/objects/Instruments/musicstand3.png",309,21,302,0.9,"stim/24.jpeg",2,4,3,2,"Instruments",1,3,"left","left",0.514000177,1,1,1,0,NA,NA,NA,NA,NA,NA,NA,NA,NA,NA,NA,NA,NA,NA,NA,NA,NA,NA,NA,NA,NA,NA,NA,NA
"259","stim/objects/HouseObjects/bottle3.png",310,21,303,0.5,"stim/44.jpeg",4,4,1,2,"HouseObjects",2,2,"right","right",0.521000147,1,1,1,0,NA,NA,NA,NA,NA,NA,NA,NA,NA,NA,NA,NA,NA,NA,NA,NA,NA,NA,NA,NA,NA,NA,NA,NA
"312","stim/objects/HouseObjects/lintroller3.png",311,21,304,0.9,"stim/14.jpeg",1,4,3,2,"HouseObjects",2,2,"right","right",0.711000204,1,1,1,0,NA,NA,NA,NA,NA,NA,NA,NA,NA,NA,NA,NA,NA,NA,NA,NA,NA,NA,NA,NA,NA,NA,NA,NA
"329","stim/objects/HouseObjects/match3.png",312,21,305,0.9,"stim/13.jpeg",1,3,3,2,"HouseObjects",2,4,"right","right",0.611000299,1,1,1,0,NA,NA,NA,NA,NA,NA,NA,NA,NA,NA,NA,NA,NA,NA,NA,NA,NA,NA,NA,NA,NA,NA,NA,NA
"472","stim/objects/Instruments/marimba4.png",313,21,306,0.1,"stim/11.jpeg",1,1,3,1,"Instruments",1,4,"left","right",0.663000345,0,0,1,0,154,21,1,0.1,1,"stim/11.jpeg",1,1,"stim/11.jpeg",4,"right",2.288000107,3,4,0.792999983,1,1.005000114,154,0,0,NA,0,NA,1
"567","stim/objects/Instruments/vuvuzela3.png",314,21,307,0.3,"stim/54.jpeg",5,4,2,1,"Instruments",1,4,"left","right",0.414000273,0,0,1,0,108,21,1,0.3,1,"stim/54.jpeg",5,4,"stim/54.jpeg",4,"left",0.973999977,2,3,0.837000132,3,1.118999958,108,1,0,0,0,0,1
"345","stim/objects/HouseObjects/pan3.png",315,21,308,0.9,"stim/13.jpeg",1,3,3,2,"HouseObjects",2,3,"right","right",0.673000097,1,1,1,0,NA,NA,NA,NA,NA,NA,NA,NA,NA,NA,NA,NA,NA,NA,NA,NA,NA,NA,NA,NA,NA,NA,NA,NA
"403","stim/objects/HouseObjects/vacuumcleaner4.png",316,21,309,0.1,"stim/23.jpeg",2,3,3,1,"HouseObjects",2,4,"right","",NA,0,0,1,0,69,21,1,0.1,2,"stim/23.jpeg",2,3,"stim/23.jpeg",4,"left",0.791000128,4,1,2.134000063,2,2.308000088,69,1,0,0,0,0,1
"491","stim/objects/Instruments/musicsheet3.png",317,21,310,0.9,"stim/22.jpeg",2,2,3,2,"Instruments",1,3,"left","left",0.496000051,1,1,1,0,NA,NA,NA,NA,NA,NA,NA,NA,NA,NA,NA,NA,NA,NA,NA,NA,NA,NA,NA,NA,NA,NA,NA,NA
"258","stim/objects/HouseObjects/blender4.png",318,21,311,0.3,"stim/62.jpeg",6,2,2,1,"HouseObjects",2,1,"right","left",0.60800004,0,0,1,0,191,21,1,0.3,2,"stim/62.jpeg",6,2,"stim/62.jpeg",1,"right",4.221999884,3,1,0.805999994,3,1.48300004,191,0,0,NA,0,NA,1
"346","stim/objects/HouseObjects/pan3.png",319,21,312,0.9,"stim/13.jpeg",1,3,3,2,"HouseObjects",2,4,"right","right",0.560000181,1,1,1,0,NA,NA,NA,NA,NA,NA,NA,NA,NA,NA,NA,NA,NA,NA,NA,NA,NA,NA,NA,NA,NA,NA,NA,NA
"529","stim/objects/Instruments/oboe3.png",320,21,313,0.9,"stim/21.jpeg",2,1,3,2,"Instruments",1,1,"left","left",0.578999996,1,1,1,0,NA,NA,NA,NA,NA,NA,NA,NA,NA,NA,NA,NA,NA,NA,NA,NA,NA,NA,NA,NA,NA,NA,NA,NA
"391","stim/objects/HouseObjects/sponge4.png",321,21,314,0.1,"stim/21.jpeg",2,1,3,1,"HouseObjects",2,3,"right","left",0.484000206,0,0,1,0,129,21,1,0.1,2,"stim/21.jpeg",2,1,"stim/21.jpeg",3,"right",1.053999901,3,4,1.282999992,3,0.851999998,129,0,0,NA,1,NA,1
"288","stim/objects/HouseObjects/key3.png",322,21,315,0.7,"stim/53.jpeg",5,3,2,2,"HouseObjects",2,2,"right","right",0.601000309,1,1,1,0,NA,NA,NA,NA,NA,NA,NA,NA,NA,NA,NA,NA,NA,NA,NA,NA,NA,NA,NA,NA,NA,NA,NA,NA
"242","stim/objects/HouseObjects/ashtray3.png",323,21,316,0.5,"stim/31.jpeg",3,1,1,2,"HouseObjects",2,4,"right","left",0.789000273,0,0,1,0,NA,NA,NA,NA,NA,NA,NA,NA,NA,NA,NA,NA,NA,NA,NA,NA,NA,NA,NA,NA,NA,NA,NA,NA
"313","stim/objects/HouseObjects/lintroller3.png",324,21,317,0.9,"stim/12.jpeg",1,2,3,2,"HouseObjects",2,4,"right","right",0.630000114,1,1,1,0,NA,NA,NA,NA,NA,NA,NA,NA,NA,NA,NA,NA,NA,NA,NA,NA,NA,NA,NA,NA,NA,NA,NA,NA
"262","stim/objects/HouseObjects/broom3.png",325,21,318,0.5,"stim/41.jpeg",4,1,1,2,"HouseObjects",2,4,"right","right",0.548000097,1,1,1,0,NA,NA,NA,NA,NA,NA,NA,NA,NA,NA,NA,NA,NA,NA,NA,NA,NA,NA,NA,NA,NA,NA,NA,NA
"489","stim/objects/Instruments/metronome4.png",326,21,319,0.1,"stim/12.jpeg",1,2,3,1,"Instruments",1,4,"left","right",0.562000275,0,0,1,0,73,21,1,0.1,1,"stim/12.jpeg",1,2,"stim/12.jpeg",4,"right",1.143000126,3,1,0.922999859,4,1.144999981,73,0,0,NA,1,NA,1
"477","stim/objects/Instruments/metronome3.png",327,21,320,0.9,"stim/22.jpeg",2,2,3,2,"Instruments",1,1,"left","left",0.519000053,1,1,1,0,NA,NA,NA,NA,NA,NA,NA,NA,NA,NA,NA,NA,NA,NA,NA,NA,NA,NA,NA,NA,NA,NA,NA,NA
"460","stim/objects/Instruments/marimba3.png",328,21,321,0.9,"stim/24.jpeg",2,4,3,2,"Instruments",1,4,"left","left",0.521000147,1,1,1,0,NA,NA,NA,NA,NA,NA,NA,NA,NA,NA,NA,NA,NA,NA,NA,NA,NA,NA,NA,NA,NA,NA,NA,NA
"381","stim/objects/HouseObjects/rubbergloves4.png",329,21,322,0.9,"stim/12.jpeg",1,2,3,1,"HouseObjects",2,2,"right","right",0.573000193,1,1,1,0,105,21,1,0.9,2,"stim/12.jpeg",1,2,"stim/12.jpeg",2,"left",0.753000021,4,4,4.875999928,1,2.069000006,105,1,0,0,0,0,1
"245","stim/objects/HouseObjects/ballofstring3.png",330,21,323,0.5,"stim/32.jpeg",3,2,1,2,"HouseObjects",2,3,"right","left",0.498000145,0,0,1,0,NA,NA,NA,NA,NA,NA,NA,NA,NA,NA,NA,NA,NA,NA,NA,NA,NA,NA,NA,NA,NA,NA,NA,NA
"551","stim/objects/Instruments/speaker3.png",331,21,324,0.5,"stim/41.jpeg",4,1,1,1,"Instruments",1,4,"left","right",0.602000237,0,0,1,0,149,21,1,0.5,2,"stim/41.jpeg",4,1,"stim/41.jpeg",4,"left",0.93900013,4,1,3.786000013,1,2.472999811,149,1,1,1,0,0,1
"332","stim/objects/HouseObjects/match3.png",332,21,325,0.9,"stim/12.jpeg",1,2,3,2,"HouseObjects",2,1,"right","right",0.51300025,1,1,1,0,NA,NA,NA,NA,NA,NA,NA,NA,NA,NA,NA,NA,NA,NA,NA,NA,NA,NA,NA,NA,NA,NA,NA,NA
"463","stim/objects/Instruments/marimba3.png",333,21,326,0.9,"stim/24.jpeg",2,4,3,2,"Instruments",1,1,"left","left",0.539999962,1,1,1,0,NA,NA,NA,NA,NA,NA,NA,NA,NA,NA,NA,NA,NA,NA,NA,NA,NA,NA,NA,NA,NA,NA,NA,NA
"530","stim/objects/Instruments/oboe3.png",334,21,327,0.9,"stim/23.jpeg",2,3,3,2,"Instruments",1,2,"left","left",0.526000023,1,1,1,0,NA,NA,NA,NA,NA,NA,NA,NA,NA,NA,NA,NA,NA,NA,NA,NA,NA,NA,NA,NA,NA,NA,NA,NA
"444","stim/objects/Instruments/keyboard3.png",335,21,328,0.7,"stim/64.jpeg",6,4,2,2,"Instruments",1,2,"left","left",0.652000189,1,1,1,0,NA,NA,NA,NA,NA,NA,NA,NA,NA,NA,NA,NA,NA,NA,NA,NA,NA,NA,NA,NA,NA,NA,NA,NA
"388","stim/objects/HouseObjects/scale3.png",336,21,329,0.5,"stim/41.jpeg",4,1,1,1,"HouseObjects",2,1,"right","right",0.49600029,1,1,1,0,189,21,1,0.5,2,"stim/41.jpeg",4,1,"stim/41.jpeg",1,"left",10.26699996,4,4,3.582000017,1,1.919000149,189,1,0,0,1,1,1
"290","stim/objects/HouseObjects/key4.png",337,21,330,0.3,"stim/63.jpeg",6,3,2,1,"HouseObjects",2,1,"right","left",0.506999969,0,0,1,0,150,21,1,0.3,2,"stim/63.jpeg",6,3,"stim/63.jpeg",1,"right",0.889999866,4,3,0.779999971,2,0.398000002,150,0,1,NA,0,NA,1
"464","stim/objects/Instruments/marimba3.png",338,21,331,0.9,"stim/21.jpeg",2,1,3,2,"Instruments",1,2,"left","left",0.569000006,1,1,1,0,NA,NA,NA,NA,NA,NA,NA,NA,NA,NA,NA,NA,NA,NA,NA,NA,NA,NA,NA,NA,NA,NA,NA,NA
"506","stim/objects/Instruments/musicsheet4.png",339,21,332,0.1,"stim/13.jpeg",1,3,3,1,"Instruments",1,1,"left","right",0.70600009,0,0,1,0,118,21,1,0.1,1,"stim/13.jpeg",1,3,"stim/13.jpeg",1,"left",1.006000042,4,2,5.681999922,1,1.717000008,118,1,0,0,1,1,1
"559","stim/objects/Instruments/trombone3.png",340,21,333,0.5,"stim/41.jpeg",4,1,1,1,"Instruments",1,3,"left","left",0.657999992,1,1,1,0,9,21,1,0.5,2,"stim/41.jpeg",4,1,"stim/41.jpeg",3,"left",0.826000214,4,3,8.371000051,3,4.669000149,9,1,0,0,1,1,1
"562","stim/objects/Instruments/trumpet4.png",341,21,334,0.9,"stim/22.jpeg",2,2,3,1,"Instruments",1,4,"left","right",0.481000185,0,0,1,0,87,21,1,0.9,1,"stim/22.jpeg",2,2,"stim/22.jpeg",4,"right",1.305999994,2,1,0.815000057,3,0.859000206,87,0,0,NA,0,NA,1
"523","stim/objects/Instruments/musicstand4.png",342,21,335,0.1,"stim/14.jpeg",1,4,3,1,"Instruments",1,2,"left","right",0.81400013,0,0,1,0,162,21,1,0.1,1,"stim/14.jpeg",1,4,"stim/14.jpeg",2,"right",1.292000055,4,2,0.506000042,4,0.445999861,162,0,0,NA,0,NA,1
"421","stim/objects/Instruments/bassguitar3.png",343,21,336,0.5,"stim/44.jpeg",4,4,1,2,"Instruments",1,2,"left","left",0.718000174,1,1,1,0,NA,NA,NA,NA,NA,NA,NA,NA,NA,NA,NA,NA,NA,NA,NA,NA,NA,NA,NA,NA,NA,NA,NA,NA
"315","stim/objects/HouseObjects/lintroller3.png",344,21,337,0.9,"stim/12.jpeg",1,2,3,2,"HouseObjects",2,3,"right","left",0.546000242,0,0,1,0,NA,NA,NA,NA,NA,NA,NA,NA,NA,NA,NA,NA,NA,NA,NA,NA,NA,NA,NA,NA,NA,NA,NA,NA
"333","stim/objects/HouseObjects/match3.png",345,21,338,0.9,"stim/14.jpeg",1,4,3,2,"HouseObjects",2,2,"right","right",0.549000263,1,1,1,0,NA,NA,NA,NA,NA,NA,NA,NA,NA,NA,NA,NA,NA,NA,NA,NA,NA,NA,NA,NA,NA,NA,NA,NA
"424","stim/objects/Instruments/cello3.png",346,21,339,0.5,"stim/44.jpeg",4,4,1,2,"Instruments",1,3,"left","left",0.709000111,1,1,1,0,NA,NA,NA,NA,NA,NA,NA,NA,NA,NA,NA,NA,NA,NA,NA,NA,NA,NA,NA,NA,NA,NA,NA,NA
"478","stim/objects/Instruments/metronome3.png",347,21,340,0.9,"stim/22.jpeg",2,2,3,2,"Instruments",1,3,"left","right",0.544000149,0,0,1,0,NA,NA,NA,NA,NA,NA,NA,NA,NA,NA,NA,NA,NA,NA,NA,NA,NA,NA,NA,NA,NA,NA,NA,NA
"439","stim/objects/Instruments/cymbal4.png",348,21,341,0.7,"stim/61.jpeg",6,1,2,1,"Instruments",1,1,"left","left",0.605999947,1,1,1,0,78,21,1,0.7,1,"stim/61.jpeg",6,1,"stim/61.jpeg",1,"right",1.093999863,1,2,1.06799984,2,2.967999935,78,0,0,NA,0,NA,1
"543","stim/objects/Instruments/pipepiano3.png",349,21,342,0.5,"stim/34.jpeg",3,4,1,1,"Instruments",1,2,"left","left",0.812000275,1,1,1,0,62,21,1,0.5,1,"stim/34.jpeg",3,4,"stim/34.jpeg",2,"left",0.876999855,4,2,6.778999805,2,3.345999956,62,1,0,0,1,1,1
"547","stim/objects/Instruments/record3.png",350,21,343,0.5,"stim/31.jpeg",3,1,1,1,"Instruments",1,4,"left","right",0.628000259,0,0,1,0,169,21,1,0.5,1,"stim/31.jpeg",3,1,"stim/31.jpeg",4,"left",1.486999989,4,2,1.779999971,1,0.760999918,169,1,0,0,0,0,1
"348","stim/objects/HouseObjects/pan3.png",351,21,344,0.9,"stim/11.jpeg",1,1,3,2,"HouseObjects",2,2,"right","right",0.795000315,1,1,1,0,NA,NA,NA,NA,NA,NA,NA,NA,NA,NA,NA,NA,NA,NA,NA,NA,NA,NA,NA,NA,NA,NA,NA,NA
"324","stim/objects/HouseObjects/lintroller4.png",352,21,345,0.9,"stim/14.jpeg",1,4,3,1,"HouseObjects",2,4,"right","right",0.475000143,1,1,1,0,113,21,1,0.9,2,"stim/14.jpeg",1,4,"stim/14.jpeg",4,"right",8.873000145,3,2,0.763000011,1,0.527000189,113,0,0,NA,0,NA,1
"466","stim/objects/Instruments/marimba3.png",353,21,346,0.9,"stim/23.jpeg",2,3,3,2,"Instruments",1,2,"left","left",0.565000057,1,1,1,0,NA,NA,NA,NA,NA,NA,NA,NA,NA,NA,NA,NA,NA,NA,NA,NA,NA,NA,NA,NA,NA,NA,NA,NA
"298","stim/objects/HouseObjects/knife3.png",354,21,347,0.9,"stim/11.jpeg",1,1,3,2,"HouseObjects",2,3,"right","left",0.565000057,0,0,1,0,NA,NA,NA,NA,NA,NA,NA,NA,NA,NA,NA,NA,NA,NA,NA,NA,NA,NA,NA,NA,NA,NA,NA,NA
"260","stim/objects/HouseObjects/bottle3.png",355,21,348,0.5,"stim/43.jpeg",4,3,1,2,"HouseObjects",2,4,"right","right",0.646000147,1,1,1,0,NA,NA,NA,NA,NA,NA,NA,NA,NA,NA,NA,NA,NA,NA,NA,NA,NA,NA,NA,NA,NA,NA,NA,NA
"467","stim/objects/Instruments/marimba3.png",356,21,349,0.9,"stim/21.jpeg",2,1,3,2,"Instruments",1,3,"left","left",0.585000038,1,1,1,0,NA,NA,NA,NA,NA,NA,NA,NA,NA,NA,NA,NA,NA,NA,NA,NA,NA,NA,NA,NA,NA,NA,NA,NA
"331","stim/objects/HouseObjects/match3.png",357,21,350,0.9,"stim/12.jpeg",1,2,3,2,"HouseObjects",2,2,"right","right",0.663000107,1,1,1,0,NA,NA,NA,NA,NA,NA,NA,NA,NA,NA,NA,NA,NA,NA,NA,NA,NA,NA,NA,NA,NA,NA,NA,NA
"366","stim/objects/HouseObjects/pitcher3.png",358,21,351,0.9,"stim/11.jpeg",1,1,3,2,"HouseObjects",2,1,"right","",NA,0,0,1,0,NA,NA,NA,NA,NA,NA,NA,NA,NA,NA,NA,NA,NA,NA,NA,NA,NA,NA,NA,NA,NA,NA,NA,NA
"382","stim/objects/HouseObjects/rug3.png",359,21,352,0.5,"stim/31.jpeg",3,1,1,1,"HouseObjects",2,4,"right","left",0.765000105,0,0,1,0,96,21,1,0.5,1,"stim/31.jpeg",3,1,"stim/31.jpeg",4,"left",1.121999979,4,4,4.107000113,4,3.470999956,96,1,0,0,1,1,1
"558","stim/objects/Instruments/triangle4.png",360,21,353,0.9,"stim/24.jpeg",2,4,3,1,"Instruments",1,3,"left","left",0.481000185,1,1,1,0,176,21,1,0.9,1,"stim/24.jpeg",2,4,"stim/24.jpeg",3,"left",0.860000134,4,1,1.467000008,1,1.167999983,176,1,0,0,0,0,1
"349","stim/objects/HouseObjects/pan3.png",361,21,354,0.9,"stim/12.jpeg",1,2,3,2,"HouseObjects",2,3,"right","left",0.707000017,0,0,1,0,NA,NA,NA,NA,NA,NA,NA,NA,NA,NA,NA,NA,NA,NA,NA,NA,NA,NA,NA,NA,NA,NA,NA,NA
"445","stim/objects/Instruments/keyboard3.png",362,21,355,0.7,"stim/61.jpeg",6,1,2,2,"Instruments",1,1,"left","left",0.529000044,1,1,1,0,NA,NA,NA,NA,NA,NA,NA,NA,NA,NA,NA,NA,NA,NA,NA,NA,NA,NA,NA,NA,NA,NA,NA,NA
"550","stim/objects/Instruments/saxophone4.png",363,21,356,0.1,"stim/12.jpeg",1,2,3,1,"Instruments",1,4,"left","right",0.528000116,0,0,1,0,119,21,1,0.1,1,"stim/12.jpeg",1,2,"stim/12.jpeg",4,"left",2.89199996,4,4,1.26699996,3,0.815000057,119,1,0,0,0,0,1
"570","stim/objects/Instruments/xylophone4.png",364,21,357,0.9,"stim/22.jpeg",2,2,3,1,"Instruments",1,4,"left","right",0.592000246,0,0,1,0,121,21,1,0.9,1,"stim/22.jpeg",2,2,"stim/22.jpeg",4,"right",1.743999958,2,3,0.950999975,4,0.933000088,121,0,0,NA,1,NA,1
"367","stim/objects/HouseObjects/pitcher3.png",365,21,358,0.9,"stim/12.jpeg",1,2,3,2,"HouseObjects",2,2,"right","left",0.517000198,0,0,1,0,NA,NA,NA,NA,NA,NA,NA,NA,NA,NA,NA,NA,NA,NA,NA,NA,NA,NA,NA,NA,NA,NA,NA,NA
"496","stim/objects/Instruments/musicsheet3.png",366,21,359,0.9,"stim/24.jpeg",2,4,3,2,"Instruments",1,2,"left","left",0.553000212,1,1,1,0,NA,NA,NA,NA,NA,NA,NA,NA,NA,NA,NA,NA,NA,NA,NA,NA,NA,NA,NA,NA,NA,NA,NA,NA
"564","stim/objects/Instruments/tuba4.png",367,21,360,0.9,"stim/23.jpeg",2,3,3,1,"Instruments",1,3,"left","right",0.894000292,0,0,1,0,98,21,1,0.9,1,"stim/23.jpeg",2,3,"stim/23.jpeg",3,"left",0.834000111,4,2,1.001999855,3,0.680999994,98,1,0,0,1,1,1
"347","stim/objects/HouseObjects/pan3.png",368,21,361,0.9,"stim/11.jpeg",1,1,3,2,"HouseObjects",2,4,"right","right",0.447000265,1,1,1,0,NA,NA,NA,NA,NA,NA,NA,NA,NA,NA,NA,NA,NA,NA,NA,NA,NA,NA,NA,NA,NA,NA,NA,NA
"566","stim/objects/Instruments/violin4.png",369,21,362,0.9,"stim/24.jpeg",2,4,3,1,"Instruments",1,3,"left","left",0.512000322,1,1,1,0,48,21,1,0.9,1,"stim/24.jpeg",2,4,"stim/24.jpeg",3,"left",0.898000002,3,2,2.549999952,3,1.003999949,48,1,0,0,1,1,1
"449","stim/objects/Instruments/laud3.png",370,21,363,0.7,"stim/64.jpeg",6,4,2,2,"Instruments",1,3,"left","left",0.517000198,1,1,1,0,NA,NA,NA,NA,NA,NA,NA,NA,NA,NA,NA,NA,NA,NA,NA,NA,NA,NA,NA,NA,NA,NA,NA,NA
"404","stim/objects/HouseObjects/wateringcan3.png",371,21,364,0.7,"stim/52.jpeg",5,2,2,1,"HouseObjects",2,4,"right","right",0.539000273,1,1,1,0,132,21,1,0.7,2,"stim/52.jpeg",5,2,"stim/52.jpeg",4,"right",1.398999929,2,3,0.709000111,4,0.513000011,132,0,0,NA,1,NA,1
"299","stim/objects/HouseObjects/knife3.png",372,21,365,0.9,"stim/11.jpeg",1,1,3,2,"HouseObjects",2,3,"right","left",0.460000277,0,0,1,0,NA,NA,NA,NA,NA,NA,NA,NA,NA,NA,NA,NA,NA,NA,NA,NA,NA,NA,NA,NA,NA,NA,NA,NA
"335","stim/objects/HouseObjects/match3.png",373,21,366,0.9,"stim/14.jpeg",1,4,3,2,"HouseObjects",2,2,"right","right",0.514000177,1,1,1,0,NA,NA,NA,NA,NA,NA,NA,NA,NA,NA,NA,NA,NA,NA,NA,NA,NA,NA,NA,NA,NA,NA,NA,NA
"263","stim/objects/HouseObjects/broom3.png",374,21,367,0.5,"stim/44.jpeg",4,4,1,2,"HouseObjects",2,4,"right","right",0.509000063,1,1,1,0,NA,NA,NA,NA,NA,NA,NA,NA,NA,NA,NA,NA,NA,NA,NA,NA,NA,NA,NA,NA,NA,NA,NA,NA
"569","stim/objects/Instruments/xylophone3.png",375,21,368,0.3,"stim/51.jpeg",5,1,2,1,"Instruments",1,1,"left","right",0.618000031,0,0,1,0,174,21,1,0.3,1,"stim/51.jpeg",5,1,"stim/51.jpeg",1,"left",0.989000082,3,4,0.608999968,3,0.746000051,174,1,0,0,0,0,1
"430","stim/objects/Instruments/clarinet3.png",376,21,369,0.5,"stim/42.jpeg",4,2,1,2,"Instruments",1,2,"left","right",0.859000206,0,0,1,0,NA,NA,NA,NA,NA,NA,NA,NA,NA,NA,NA,NA,NA,NA,NA,NA,NA,NA,NA,NA,NA,NA,NA,NA
"316","stim/objects/HouseObjects/lintroller3.png",377,21,370,0.9,"stim/11.jpeg",1,1,3,2,"HouseObjects",2,3,"right","",NA,0,0,1,0,NA,NA,NA,NA,NA,NA,NA,NA,NA,NA,NA,NA,NA,NA,NA,NA,NA,NA,NA,NA,NA,NA,NA,NA
"440","stim/objects/Instruments/doublebass3.png",378,21,371,0.7,"stim/64.jpeg",6,4,2,2,"Instruments",1,3,"left","left",0.572000265,1,1,1,0,NA,NA,NA,NA,NA,NA,NA,NA,NA,NA,NA,NA,NA,NA,NA,NA,NA,NA,NA,NA,NA,NA,NA,NA
"568","stim/objects/Instruments/vuvuzela4.png",379,21,372,0.9,"stim/21.jpeg",2,1,3,1,"Instruments",1,2,"left","left",0.57400012,1,1,1,0,125,21,1,0.9,1,"stim/21.jpeg",2,1,"stim/21.jpeg",2,"right",1.410000086,2,1,0.781999826,2,1.231999874,125,0,1,NA,1,NA,1
"494","stim/objects/Instruments/musicsheet3.png",380,21,373,0.9,"stim/23.jpeg",2,3,3,2,"Instruments",1,1,"left","left",0.527000189,1,1,1,0,NA,NA,NA,NA,NA,NA,NA,NA,NA,NA,NA,NA,NA,NA,NA,NA,NA,NA,NA,NA,NA,NA,NA,NA
"549","stim/objects/Instruments/saxophone3.png",381,21,374,0.5,"stim/33.jpeg",3,3,1,1,"Instruments",1,3,"left","left",0.563000202,1,1,1,0,170,21,1,0.5,1,"stim/33.jpeg",3,3,"stim/33.jpeg",3,"left",1.094000101,3,4,0.919000149,3,1.779999971,170,1,0,0,1,1,1
"422","stim/objects/Instruments/bassguitar3.png",382,21,375,0.5,"stim/43.jpeg",4,3,1,2,"Instruments",1,4,"left","right",0.475000143,0,0,1,0,NA,NA,NA,NA,NA,NA,NA,NA,NA,NA,NA,NA,NA,NA,NA,NA,NA,NA,NA,NA,NA,NA,NA,NA
"289","stim/objects/HouseObjects/key3.png",383,21,376,0.7,"stim/51.jpeg",5,1,2,2,"HouseObjects",2,3,"right","right",0.664000034,1,1,1,0,NA,NA,NA,NA,NA,NA,NA,NA,NA,NA,NA,NA,NA,NA,NA,NA,NA,NA,NA,NA,NA,NA,NA,NA
"497","stim/objects/Instruments/musicsheet3.png",384,21,377,0.9,"stim/23.jpeg",2,3,3,2,"Instruments",1,1,"left","left",0.571000099,1,1,1,0,NA,NA,NA,NA,NA,NA,NA,NA,NA,NA,NA,NA,NA,NA,NA,NA,NA,NA,NA,NA,NA,NA,NA,NA
"353","stim/objects/HouseObjects/pan3.png",385,21,378,0.9,"stim/14.jpeg",1,4,3,2,"HouseObjects",2,3,"right","right",0.533000231,1,1,1,0,NA,NA,NA,NA,NA,NA,NA,NA,NA,NA,NA,NA,NA,NA,NA,NA,NA,NA,NA,NA,NA,NA,NA,NA
"533","stim/objects/Instruments/oboe3.png",386,21,379,0.9,"stim/23.jpeg",2,3,3,2,"Instruments",1,3,"left","left",0.641000271,1,1,1,0,NA,NA,NA,NA,NA,NA,NA,NA,NA,NA,NA,NA,NA,NA,NA,NA,NA,NA,NA,NA,NA,NA,NA,NA
"336","stim/objects/HouseObjects/match3.png",387,21,380,0.9,"stim/11.jpeg",1,1,3,2,"HouseObjects",2,1,"right","right",0.532999992,1,1,1,0,NA,NA,NA,NA,NA,NA,NA,NA,NA,NA,NA,NA,NA,NA,NA,NA,NA,NA,NA,NA,NA,NA,NA,NA
"557","stim/objects/Instruments/triangle3.png",388,21,381,0.5,"stim/44.jpeg",4,4,1,1,"Instruments",1,1,"left","left",0.627000093,1,1,1,0,32,21,1,0.5,2,"stim/44.jpeg",4,4,"stim/44.jpeg",1,"left",2.61500001,3,2,4.378999949,3,3.927000046,32,1,0,0,0,0,1
"397","stim/objects/HouseObjects/thermometer4.png",389,21,382,0.1,"stim/24.jpeg",2,4,3,1,"HouseObjects",2,1,"right","right",0.698000193,1,1,1,0,163,21,1,0.1,2,"stim/24.jpeg",2,4,"stim/24.jpeg",1,"left",1.45600009,3,1,0.822000027,3,0.753000021,163,1,0,0,0,0,1
"479","stim/objects/Instruments/metronome3.png",390,21,383,0.9,"stim/24.jpeg",2,4,3,2,"Instruments",1,1,"left","left",0.660000086,1,1,1,0,NA,NA,NA,NA,NA,NA,NA,NA,NA,NA,NA,NA,NA,NA,NA,NA,NA,NA,NA,NA,NA,NA,NA,NA
"473","stim/objects/Instruments/metronome3.png",391,21,384,0.9,"stim/21.jpeg",2,1,3,2,"Instruments",1,2,"left","left",0.720000029,1,1,1,0,NA,NA,NA,NA,NA,NA,NA,NA,NA,NA,NA,NA,NA,NA,NA,NA,NA,NA,NA,NA,NA,NA,NA,NA
"342","stim/objects/HouseObjects/pan3.png",392,21,385,0.9,"stim/11.jpeg",1,1,3,2,"HouseObjects",2,1,"right","right",0.52300024,1,1,1,0,NA,NA,NA,NA,NA,NA,NA,NA,NA,NA,NA,NA,NA,NA,NA,NA,NA,NA,NA,NA,NA,NA,NA,NA
"508","stim/objects/Instruments/musicstand3.png",393,21,386,0.9,"stim/21.jpeg",2,1,3,2,"Instruments",1,3,"left","left",0.516000271,1,1,1,0,NA,NA,NA,NA,NA,NA,NA,NA,NA,NA,NA,NA,NA,NA,NA,NA,NA,NA,NA,NA,NA,NA,NA,NA
"437","stim/objects/Instruments/cymbal3.png",394,21,387,0.7,"stim/63.jpeg",6,3,2,2,"Instruments",1,1,"left","",NA,0,0,1,0,NA,NA,NA,NA,NA,NA,NA,NA,NA,NA,NA,NA,NA,NA,NA,NA,NA,NA,NA,NA,NA,NA,NA,NA
"291","stim/objects/HouseObjects/knife3.png",395,21,388,0.9,"stim/13.jpeg",1,3,3,2,"HouseObjects",2,1,"right","left",0.474000216,0,0,1,0,NA,NA,NA,NA,NA,NA,NA,NA,NA,NA,NA,NA,NA,NA,NA,NA,NA,NA,NA,NA,NA,NA,NA,NA
"254","stim/objects/HouseObjects/bleachbottle3.png",396,21,389,0.5,"stim/34.jpeg",3,4,1,2,"HouseObjects",2,3,"right","left",0.667999983,0,0,1,0,NA,NA,NA,NA,NA,NA,NA,NA,NA,NA,NA,NA,NA,NA,NA,NA,NA,NA,NA,NA,NA,NA,NA,NA
"390","stim/objects/HouseObjects/sponge3.png",397,21,390,0.5,"stim/42.jpeg",4,2,1,1,"HouseObjects",2,2,"right","right",0.616000175,1,1,1,0,190,21,1,0.5,2,"stim/42.jpeg",4,2,"stim/42.jpeg",2,"left",1.218000174,3,2,0.717000008,4,0.413000107,190,1,1,1,0,0,1
"554","stim/objects/Instruments/tambourine4.png",398,21,391,0.9,"stim/22.jpeg",2,2,3,1,"Instruments",1,2,"left","left",0.632000208,1,1,1,0,72,21,1,0.9,1,"stim/22.jpeg",2,2,"stim/22.jpeg",2,"left",0.787999868,4,2,3.419999838,2,1.236000061,72,1,1,1,1,1,1
"468","stim/objects/Instruments/marimba3.png",399,21,392,0.9,"stim/22.jpeg",2,2,3,2,"Instruments",1,2,"left","left",0.499000072,1,1,1,0,NA,NA,NA,NA,NA,NA,NA,NA,NA,NA,NA,NA,NA,NA,NA,NA,NA,NA,NA,NA,NA,NA,NA,NA
"534","stim/objects/Instruments/oboe3.png",400,21,393,0.9,"stim/21.jpeg",2,1,3,2,"Instruments",1,2,"left","left",0.636000156,1,1,1,0,NA,NA,NA,NA,NA,NA,NA,NA,NA,NA,NA,NA,NA,NA,NA,NA,NA,NA,NA,NA,NA,NA,NA,NA
"243","stim/objects/HouseObjects/ashtray4.png",401,21,394,0.7,"stim/53.jpeg",5,3,2,1,"HouseObjects",2,3,"right","right",0.639000177,1,1,1,0,4,21,1,0.7,2,"stim/53.jpeg",5,3,"stim/53.jpeg",3,"left",0.937999964,4,2,3.519999981,1,1.694000006,4,1,0,0,0,0,1
"548","stim/objects/Instruments/record4.png",402,21,395,0.1,"stim/14.jpeg",1,4,3,1,"Instruments",1,3,"left","right",0.735000134,0,0,1,0,161,21,1,0.1,1,"stim/14.jpeg",1,4,"stim/14.jpeg",3,"left",0.99000001,4,4,1.389000177,1,0.855999947,161,1,1,1,0,0,1
"350","stim/objects/HouseObjects/pan3.png",403,21,396,0.9,"stim/13.jpeg",1,3,3,2,"HouseObjects",2,3,"right","right",0.560000181,1,1,1,0,NA,NA,NA,NA,NA,NA,NA,NA,NA,NA,NA,NA,NA,NA,NA,NA,NA,NA,NA,NA,NA,NA,NA,NA
"375","stim/objects/HouseObjects/pitcher4.png",404,21,397,0.9,"stim/13.jpeg",1,3,3,1,"HouseObjects",2,3,"right","right",0.509000301,1,1,1,0,114,21,1,0.9,2,"stim/13.jpeg",1,3,"stim/13.jpeg",3,"left",2.618999958,2,4,1.104000092,3,0.98300004,114,1,0,0,1,1,1
"267","stim/objects/HouseObjects/bucket4.png",405,21,398,0.3,"stim/61.jpeg",6,1,2,1,"HouseObjects",2,3,"right","left",0.497000217,0,0,1,0,66,21,1,0.3,2,"stim/61.jpeg",6,1,"stim/61.jpeg",3,"right",0.729000092,3,3,0.887000084,2,3.172999859,66,0,0,NA,0,NA,1
"354","stim/objects/HouseObjects/pan3.png",406,21,399,0.9,"stim/12.jpeg",1,2,3,2,"HouseObjects",2,4,"right","right",0.466000319,1,1,1,0,NA,NA,NA,NA,NA,NA,NA,NA,NA,NA,NA,NA,NA,NA,NA,NA,NA,NA,NA,NA,NA,NA,NA,NA
"280","stim/objects/HouseObjects/iron3.png",407,21,400,0.7,"stim/52.jpeg",5,2,2,2,"HouseObjects",2,4,"right","right",0.536000252,1,1,1,0,NA,NA,NA,NA,NA,NA,NA,NA,NA,NA,NA,NA,NA,NA,NA,NA,NA,NA,NA,NA,NA,NA,NA,NA
"352","stim/objects/HouseObjects/pan3.png",408,21,401,0.9,"stim/14.jpeg",1,4,3,2,"HouseObjects",2,3,"right","left",0.441000223,0,0,1,0,NA,NA,NA,NA,NA,NA,NA,NA,NA,NA,NA,NA,NA,NA,NA,NA,NA,NA,NA,NA,NA,NA,NA,NA
"359","stim/objects/HouseObjects/pitcher3.png",409,21,402,0.9,"stim/11.jpeg",1,1,3,2,"HouseObjects",2,4,"right","right",0.542000294,1,1,1,0,NA,NA,NA,NA,NA,NA,NA,NA,NA,NA,NA,NA,NA,NA,NA,NA,NA,NA,NA,NA,NA,NA,NA,NA
"337","stim/objects/HouseObjects/match3.png",410,21,403,0.9,"stim/11.jpeg",1,1,3,2,"HouseObjects",2,2,"right","right",0.441000223,1,1,1,0,NA,NA,NA,NA,NA,NA,NA,NA,NA,NA,NA,NA,NA,NA,NA,NA,NA,NA,NA,NA,NA,NA,NA,NA
"389","stim/objects/HouseObjects/scale4.png",411,21,404,0.1,"stim/24.jpeg",2,4,3,1,"HouseObjects",2,2,"right","left",0.600000381,0,0,1,0,24,21,1,0.1,2,"stim/24.jpeg",2,4,"stim/24.jpeg",2,"left",1.003999949,4,2,5.906000137,3,1.013999939,24,1,0,0,0,0,1
"378","stim/objects/HouseObjects/remote3.png",412,21,405,0.5,"stim/33.jpeg",3,3,1,1,"HouseObjects",2,2,"right","right",0.497000217,1,1,1,0,192,21,1,0.5,1,"stim/33.jpeg",3,3,"stim/33.jpeg",2,"right",1.045000076,3,1,1.023000002,3,0.472000122,192,0,0,NA,0,NA,1
"355","stim/objects/HouseObjects/pan3.png",413,21,406,0.9,"stim/12.jpeg",1,2,3,2,"HouseObjects",2,1,"right","right",0.713999987,1,1,1,0,NA,NA,NA,NA,NA,NA,NA,NA,NA,NA,NA,NA,NA,NA,NA,NA,NA,NA,NA,NA,NA,NA,NA,NA
"553","stim/objects/Instruments/tambourine3.png",414,21,407,0.5,"stim/42.jpeg",4,2,1,1,"Instruments",1,3,"left","right",0.544000149,0,0,1,0,92,21,1,0.5,2,"stim/42.jpeg",4,2,"stim/42.jpeg",3,"left",0.761000156,4,3,0.698999882,2,1.269999981,92,1,0,0,0,0,1
"402","stim/objects/HouseObjects/vacuumcleaner3.png",415,21,408,0.7,"stim/51.jpeg",5,1,2,1,"HouseObjects",2,1,"right","right",0.650000095,1,1,1,0,200,21,1,0.7,2,"stim/51.jpeg",5,1,"stim/51.jpeg",1,"left",0.970999956,4,4,1.482999802,3,1.09100008,200,1,0,0,0,0,1
"250","stim/objects/HouseObjects/basket3.png",416,21,409,0.5,"stim/34.jpeg",3,4,1,2,"HouseObjects",2,1,"right","left",0.593000174,0,0,1,0,NA,NA,NA,NA,NA,NA,NA,NA,NA,NA,NA,NA,NA,NA,NA,NA,NA,NA,NA,NA,NA,NA,NA,NA
"300","stim/objects/HouseObjects/knife3.png",417,21,410,0.9,"stim/14.jpeg",1,4,3,2,"HouseObjects",2,1,"right","right",0.569000244,1,1,1,0,NA,NA,NA,NA,NA,NA,NA,NA,NA,NA,NA,NA,NA,NA,NA,NA,NA,NA,NA,NA,NA,NA,NA,NA
"484","stim/objects/Instruments/metronome3.png",418,21,411,0.9,"stim/23.jpeg",2,3,3,2,"Instruments",1,2,"left","left",0.695000172,1,1,1,0,NA,NA,NA,NA,NA,NA,NA,NA,NA,NA,NA,NA,NA,NA,NA,NA,NA,NA,NA,NA,NA,NA,NA,NA
"307","stim/objects/HouseObjects/knife4.png",419,21,412,0.9,"stim/13.jpeg",1,3,3,1,"HouseObjects",2,2,"right","right",0.299000263,1,1,1,0,159,21,1,0.9,2,"stim/13.jpeg",1,3,"stim/13.jpeg",2,"left",1.818000078,1,1,2.021999836,3,0.697999954,159,1,0,0,0,0,1
"542","stim/objects/Instruments/panflute4.png",420,21,413,0.1,"stim/12.jpeg",1,2,3,1,"Instruments",1,3,"left","right",0.416000128,0,0,1,0,23,21,1,0.1,1,"stim/12.jpeg",1,2,"stim/12.jpeg",3,"left",1.09100008,4,2,6.837000132,3,0.990999937,23,1,1,1,1,1,1
"447","stim/objects/Instruments/keyboard4.png",421,21,414,0.7,"stim/63.jpeg",6,3,2,1,"Instruments",1,2,"left","left",0.528000116,1,1,1,0,52,21,1,0.7,1,"stim/63.jpeg",6,3,"stim/63.jpeg",2,"left",0.813000202,4,3,6.84800005,2,2.355999947,52,1,1,1,1,1,1
"248","stim/objects/HouseObjects/barbecuelighter3.png",422,21,415,0.5,"stim/32.jpeg",3,2,1,2,"HouseObjects",2,3,"right","left",0.532000065,0,0,1,0,NA,NA,NA,NA,NA,NA,NA,NA,NA,NA,NA,NA,NA,NA,NA,NA,NA,NA,NA,NA,NA,NA,NA,NA
"442","stim/objects/Instruments/doublebass3.png",423,21,416,0.7,"stim/63.jpeg",6,3,2,2,"Instruments",1,2,"left","left",0.611999989,1,1,1,0,NA,NA,NA,NA,NA,NA,NA,NA,NA,NA,NA,NA,NA,NA,NA,NA,NA,NA,NA,NA,NA,NA,NA,NA
"301","stim/objects/HouseObjects/knife3.png",424,21,417,0.9,"stim/14.jpeg",1,4,3,2,"HouseObjects",2,3,"right","right",0.383000135,1,1,1,0,NA,NA,NA,NA,NA,NA,NA,NA,NA,NA,NA,NA,NA,NA,NA,NA,NA,NA,NA,NA,NA,NA,NA,NA
"368","stim/objects/HouseObjects/pitcher3.png",425,21,418,0.9,"stim/14.jpeg",1,4,3,2,"HouseObjects",2,4,"right","right",0.482000351,1,1,1,0,NA,NA,NA,NA,NA,NA,NA,NA,NA,NA,NA,NA,NA,NA,NA,NA,NA,NA,NA,NA,NA,NA,NA,NA
"302","stim/objects/HouseObjects/knife3.png",426,21,419,0.9,"stim/13.jpeg",1,3,3,2,"HouseObjects",2,4,"right","right",0.602000237,1,1,1,0,NA,NA,NA,NA,NA,NA,NA,NA,NA,NA,NA,NA,NA,NA,NA,NA,NA,NA,NA,NA,NA,NA,NA,NA
"546","stim/objects/Instruments/record_player4.png",427,21,420,0.1,"stim/11.jpeg",1,1,3,1,"Instruments",1,1,"left","left",0.607000113,1,1,1,0,112,21,1,0.1,1,"stim/11.jpeg",1,1,"stim/11.jpeg",1,"left",3.24000001,4,2,6.551000118,2,1.542999983,112,1,0,0,0,0,1
"270","stim/objects/HouseObjects/clock4.png",428,21,421,0.3,"stim/62.jpeg",6,2,2,1,"HouseObjects",2,2,"right","left",0.570000172,0,0,1,0,177,21,1,0.3,2,"stim/62.jpeg",6,2,"stim/62.jpeg",2,"right",1.052999973,2,3,0.571999788,4,0.513999939,177,0,0,NA,0,NA,1
"510","stim/objects/Instruments/musicstand3.png",429,21,422,0.9,"stim/23.jpeg",2,3,3,2,"Instruments",1,3,"left","right",0.806000233,0,0,1,0,NA,NA,NA,NA,NA,NA,NA,NA,NA,NA,NA,NA,NA,NA,NA,NA,NA,NA,NA,NA,NA,NA,NA,NA
"498","stim/objects/Instruments/musicsheet3.png",430,21,423,0.9,"stim/22.jpeg",2,2,3,2,"Instruments",1,4,"left","left",0.498000145,1,1,1,0,NA,NA,NA,NA,NA,NA,NA,NA,NA,NA,NA,NA,NA,NA,NA,NA,NA,NA,NA,NA,NA,NA,NA,NA
"453","stim/objects/Instruments/maraca3.png",431,21,424,0.7,"stim/63.jpeg",6,3,2,2,"Instruments",1,3,"left","left",0.440000296,1,1,1,0,NA,NA,NA,NA,NA,NA,NA,NA,NA,NA,NA,NA,NA,NA,NA,NA,NA,NA,NA,NA,NA,NA,NA,NA
"501","stim/objects/Instruments/musicsheet3.png",432,21,425,0.9,"stim/23.jpeg",2,3,3,2,"Instruments",1,1,"left","right",0.392000198,0,0,1,0,NA,NA,NA,NA,NA,NA,NA,NA,NA,NA,NA,NA,NA,NA,NA,NA,NA,NA,NA,NA,NA,NA,NA,NA
"500","stim/objects/Instruments/musicsheet3.png",433,21,426,0.9,"stim/21.jpeg",2,1,3,2,"Instruments",1,3,"left","left",0.451000214,1,1,1,0,NA,NA,NA,NA,NA,NA,NA,NA,NA,NA,NA,NA,NA,NA,NA,NA,NA,NA,NA,NA,NA,NA,NA,NA
"295","stim/objects/HouseObjects/knife3.png",434,21,427,0.9,"stim/12.jpeg",1,2,3,2,"HouseObjects",2,2,"right","right",0.407000065,1,1,1,0,NA,NA,NA,NA,NA,NA,NA,NA,NA,NA,NA,NA,NA,NA,NA,NA,NA,NA,NA,NA,NA,NA,NA,NA
"330","stim/objects/HouseObjects/match3.png",435,21,428,0.9,"stim/14.jpeg",1,4,3,2,"HouseObjects",2,3,"right","right",0.612000227,1,1,1,0,NA,NA,NA,NA,NA,NA,NA,NA,NA,NA,NA,NA,NA,NA,NA,NA,NA,NA,NA,NA,NA,NA,NA,NA
"423","stim/objects/Instruments/bassguitar4.png",436,21,429,0.7,"stim/64.jpeg",6,4,2,1,"Instruments",1,1,"left","left",0.806000233,1,1,1,0,168,21,1,0.7,1,"stim/64.jpeg",6,4,"stim/64.jpeg",1,"right",1.188999891,3,1,0.937000036,2,0.873999834,168,0,0,NA,0,NA,1
"407","stim/objects/Instruments/accordion3.png",437,21,430,0.5,"stim/31.jpeg",3,1,1,2,"Instruments",1,1,"left","left",0.585000277,1,1,1,0,NA,NA,NA,NA,NA,NA,NA,NA,NA,NA,NA,NA,NA,NA,NA,NA,NA,NA,NA,NA,NA,NA,NA,NA
"317","stim/objects/HouseObjects/lintroller3.png",438,21,431,0.9,"stim/11.jpeg",1,1,3,2,"HouseObjects",2,4,"right","right",0.315000057,1,1,1,0,NA,NA,NA,NA,NA,NA,NA,NA,NA,NA,NA,NA,NA,NA,NA,NA,NA,NA,NA,NA,NA,NA,NA,NA
"241","stim/objects/HouseObjects/ashtray3.png",439,21,432,0.5,"stim/34.jpeg",3,4,1,2,"HouseObjects",2,2,"right","left",0.538000107,0,0,1,0,NA,NA,NA,NA,NA,NA,NA,NA,NA,NA,NA,NA,NA,NA,NA,NA,NA,NA,NA,NA,NA,NA,NA,NA
"487","stim/objects/Instruments/metronome3.png",440,21,433,0.9,"stim/23.jpeg",2,3,3,2,"Instruments",1,3,"left","left",0.473000288,1,1,1,0,NA,NA,NA,NA,NA,NA,NA,NA,NA,NA,NA,NA,NA,NA,NA,NA,NA,NA,NA,NA,NA,NA,NA,NA
"535","stim/objects/Instruments/oboe3.png",441,21,434,0.9,"stim/24.jpeg",2,4,3,2,"Instruments",1,4,"left","left",0.637000084,1,1,1,0,NA,NA,NA,NA,NA,NA,NA,NA,NA,NA,NA,NA,NA,NA,NA,NA,NA,NA,NA,NA,NA,NA,NA,NA
"512","stim/objects/Instruments/musicstand3.png",442,21,435,0.9,"stim/22.jpeg",2,2,3,2,"Instruments",1,1,"left","right",0.77300024,0,0,1,0,NA,NA,NA,NA,NA,NA,NA,NA,NA,NA,NA,NA,NA,NA,NA,NA,NA,NA,NA,NA,NA,NA,NA,NA
"284","stim/objects/HouseObjects/ironingboard3.png",443,21,436,0.7,"stim/53.jpeg",5,3,2,2,"HouseObjects",2,2,"right","right",0.539000273,1,1,1,0,NA,NA,NA,NA,NA,NA,NA,NA,NA,NA,NA,NA,NA,NA,NA,NA,NA,NA,NA,NA,NA,NA,NA,NA
"279","stim/objects/HouseObjects/iron3.png",444,21,437,0.7,"stim/51.jpeg",5,1,2,2,"HouseObjects",2,3,"right","right",0.457000256,1,1,1,0,NA,NA,NA,NA,NA,NA,NA,NA,NA,NA,NA,NA,NA,NA,NA,NA,NA,NA,NA,NA,NA,NA,NA,NA
"482","stim/objects/Instruments/metronome3.png",445,21,438,0.9,"stim/22.jpeg",2,2,3,2,"Instruments",1,1,"left","left",0.529000282,1,1,1,0,NA,NA,NA,NA,NA,NA,NA,NA,NA,NA,NA,NA,NA,NA,NA,NA,NA,NA,NA,NA,NA,NA,NA,NA
"485","stim/objects/Instruments/metronome3.png",446,21,439,0.9,"stim/23.jpeg",2,3,3,2,"Instruments",1,4,"left","left",0.58100009,1,1,1,0,NA,NA,NA,NA,NA,NA,NA,NA,NA,NA,NA,NA,NA,NA,NA,NA,NA,NA,NA,NA,NA,NA,NA,NA
"314","stim/objects/HouseObjects/lintroller3.png",447,21,440,0.9,"stim/11.jpeg",1,1,3,2,"HouseObjects",2,2,"right","right",0.562000036,1,1,1,0,NA,NA,NA,NA,NA,NA,NA,NA,NA,NA,NA,NA,NA,NA,NA,NA,NA,NA,NA,NA,NA,NA,NA,NA
"483","stim/objects/Instruments/metronome3.png",448,21,441,0.9,"stim/21.jpeg",2,1,3,2,"Instruments",1,3,"left","left",0.528000116,1,1,1,0,NA,NA,NA,NA,NA,NA,NA,NA,NA,NA,NA,NA,NA,NA,NA,NA,NA,NA,NA,NA,NA,NA,NA,NA
"286","stim/objects/HouseObjects/ironingboard4.png",449,21,442,0.3,"stim/62.jpeg",6,2,2,1,"HouseObjects",2,1,"right","left",0.549999952,0,0,1,0,135,21,1,0.3,2,"stim/62.jpeg",6,2,"stim/62.jpeg",1,"left",1.164999962,3,2,0.957999945,2,1.774999857,135,1,1,1,0,0,1
"255","stim/objects/HouseObjects/bleachbottle4.png",450,21,443,0.7,"stim/53.jpeg",5,3,2,1,"HouseObjects",2,1,"right","right",0.55700016,1,1,1,0,173,21,1,0.7,2,"stim/53.jpeg",5,3,"stim/53.jpeg",1,"left",1.019999981,3,1,3.120000124,1,1.039999962,173,1,0,0,1,1,1
"532","stim/objects/Instruments/oboe3.png",451,21,444,0.9,"stim/22.jpeg",2,2,3,2,"Instruments",1,1,"left","right",0.486000061,0,0,1,0,NA,NA,NA,NA,NA,NA,NA,NA,NA,NA,NA,NA,NA,NA,NA,NA,NA,NA,NA,NA,NA,NA,NA,NA
"363","stim/objects/HouseObjects/pitcher3.png",452,21,445,0.9,"stim/13.jpeg",1,3,3,2,"HouseObjects",2,2,"right","right",0.555000067,1,1,1,0,NA,NA,NA,NA,NA,NA,NA,NA,NA,NA,NA,NA,NA,NA,NA,NA,NA,NA,NA,NA,NA,NA,NA,NA
"502","stim/objects/Instruments/musicsheet3.png",453,21,446,0.9,"stim/21.jpeg",2,1,3,2,"Instruments",1,3,"left","right",0.494000196,0,0,1,0,NA,NA,NA,NA,NA,NA,NA,NA,NA,NA,NA,NA,NA,NA,NA,NA,NA,NA,NA,NA,NA,NA,NA,NA
"386","stim/objects/HouseObjects/saw3.png",454,21,447,0.5,"stim/44.jpeg",4,4,1,1,"HouseObjects",2,2,"right","right",0.52699995,1,1,1,0,90,21,1,0.5,2,"stim/44.jpeg",4,4,"stim/44.jpeg",2,"left",0.828999996,3,2,3.269999981,1,1.586999893,90,1,0,0,0,0,1
"319","stim/objects/HouseObjects/lintroller3.png",455,21,448,0.9,"stim/12.jpeg",1,2,3,2,"HouseObjects",2,1,"right","right",0.59100008,1,1,1,0,NA,NA,NA,NA,NA,NA,NA,NA,NA,NA,NA,NA,NA,NA,NA,NA,NA,NA,NA,NA,NA,NA,NA,NA
"322","stim/objects/HouseObjects/lintroller3.png",456,21,449,0.9,"stim/11.jpeg",1,1,3,2,"HouseObjects",2,1,"right","right",0.525000095,1,1,1,0,NA,NA,NA,NA,NA,NA,NA,NA,NA,NA,NA,NA,NA,NA,NA,NA,NA,NA,NA,NA,NA,NA,NA,NA
"296","stim/objects/HouseObjects/knife3.png",457,21,450,0.9,"stim/11.jpeg",1,1,3,2,"HouseObjects",2,4,"right","right",0.524000168,1,1,1,0,NA,NA,NA,NA,NA,NA,NA,NA,NA,NA,NA,NA,NA,NA,NA,NA,NA,NA,NA,NA,NA,NA,NA,NA
"448","stim/objects/Instruments/laud3.png",458,21,451,0.7,"stim/62.jpeg",6,2,2,2,"Instruments",1,3,"left","left",0.641000271,1,1,1,0,NA,NA,NA,NA,NA,NA,NA,NA,NA,NA,NA,NA,NA,NA,NA,NA,NA,NA,NA,NA,NA,NA,NA,NA
"385","stim/objects/HouseObjects/safetypin4.png",459,21,452,0.9,"stim/14.jpeg",1,4,3,1,"HouseObjects",2,1,"right","right",0.750000238,1,1,1,0,101,21,1,0.9,2,"stim/14.jpeg",1,4,"stim/14.jpeg",1,"left",2.444000006,4,3,1.054999828,1,2.027999878,101,1,0,0,1,1,1
"256","stim/objects/HouseObjects/blender3.png",460,21,453,0.5,"stim/42.jpeg",4,2,1,2,"HouseObjects",2,1,"right","right",0.806000233,1,1,1,0,NA,NA,NA,NA,NA,NA,NA,NA,NA,NA,NA,NA,NA,NA,NA,NA,NA,NA,NA,NA,NA,NA,NA,NA
"271","stim/objects/HouseObjects/clothesdryingrack3.png",461,21,454,0.7,"stim/53.jpeg",5,3,2,2,"HouseObjects",2,3,"right","right",0.45600009,1,1,1,0,NA,NA,NA,NA,NA,NA,NA,NA,NA,NA,NA,NA,NA,NA,NA,NA,NA,NA,NA,NA,NA,NA,NA,NA
"465","stim/objects/Instruments/marimba3.png",462,21,455,0.9,"stim/22.jpeg",2,2,3,2,"Instruments",1,1,"left","left",0.601999998,1,1,1,0,NA,NA,NA,NA,NA,NA,NA,NA,NA,NA,NA,NA,NA,NA,NA,NA,NA,NA,NA,NA,NA,NA,NA,NA
"514","stim/objects/Instruments/musicstand3.png",463,21,456,0.9,"stim/24.jpeg",2,4,3,2,"Instruments",1,3,"left","right",0.604000092,0,0,1,0,NA,NA,NA,NA,NA,NA,NA,NA,NA,NA,NA,NA,NA,NA,NA,NA,NA,NA,NA,NA,NA,NA,NA,NA
"563","stim/objects/Instruments/tuba3.png",464,21,457,0.3,"stim/52.jpeg",5,2,2,1,"Instruments",1,4,"left","right",0.490000248,0,0,1,0,151,21,1,0.3,1,"stim/52.jpeg",5,2,"stim/52.jpeg",4,"left",2.857000113,4,1,1.89199996,3,2.430999994,151,1,0,0,0,0,1
"414","stim/objects/Instruments/balalaika4.png",465,21,458,0.3,"stim/54.jpeg",5,4,2,1,"Instruments",1,4,"left","right",0.445000172,0,0,1,0,123,21,1,0.3,1,"stim/54.jpeg",5,4,"stim/54.jpeg",4,"left",1.213999987,4,4,2.21600008,2,1.171999931,123,1,1,1,0,0,1
"277","stim/objects/HouseObjects/clothespin3.png",466,21,459,0.7,"stim/51.jpeg",5,1,2,2,"HouseObjects",2,2,"right","right",0.693000078,1,1,1,0,NA,NA,NA,NA,NA,NA,NA,NA,NA,NA,NA,NA,NA,NA,NA,NA,NA,NA,NA,NA,NA,NA,NA,NA
