"","obj_file","X.x","participant.x","trialN.x","trial_cond","scn_file.x","scn_cat","scn_inst","scn_condition","fillers","obj_cat","obj_cat_num","quadrant","corr_ans","key_resp_trial.keys","key_resp_trial.rt","trial_acc","trial_acc_manual","group.x","practice","X.y","participant.y","OvsN","PE_level","object_cat","scn_file.y","corr_scn_cat","corr_scn_inst","scn_file.1","corr_loc","key_resp_id.keys","key_resp_id.rt","key_resp_conf.keys","key_resp_assoc.keys","key_resp_assoc.rt","key_resp_loc.keys","key_resp_loc.rt","trialN.y","id_acc","assoc.acc","cond_assoc","loc.acc","cond_loc","group.y"
"13","stim/objects/HouseObjects/ballofstring.png",1,10,1,0.5,"stim/12.jpeg",1,2,1,NA,"HouseObjects",1,2,"left","",NA,0,0,1,1,NA,NA,NA,NA,NA,NA,NA,NA,NA,NA,NA,NA,NA,NA,NA,NA,NA,NA,NA,NA,NA,NA,NA,NA
"224","stim/objects/Instruments/cornet2.png",2,10,2,0.1,"stim/62.jpeg",6,2,3,NA,"Instruments",2,1,"right","left",0.638000011,0,0,1,1,NA,NA,NA,NA,NA,NA,NA,NA,NA,NA,NA,NA,NA,NA,NA,NA,NA,NA,NA,NA,NA,NA,NA,NA
"209","stim/objects/Instruments/clarinet.png",3,10,3,0.7,"stim/31.jpeg",3,1,2,NA,"Instruments",2,4,"right","left",0.83100009,0,0,1,1,NA,NA,NA,NA,NA,NA,NA,NA,NA,NA,NA,NA,NA,NA,NA,NA,NA,NA,NA,NA,NA,NA,NA,NA
"85","stim/objects/HouseObjects/clock.png",4,10,4,0.3,"stim/32.jpeg",3,2,2,NA,"HouseObjects",1,3,"left","",NA,0,0,1,1,NA,NA,NA,NA,NA,NA,NA,NA,NA,NA,NA,NA,NA,NA,NA,NA,NA,NA,NA,NA,NA,NA,NA,NA
"88","stim/objects/HouseObjects/clock2.png",5,10,5,0.9,"stim/62.jpeg",6,2,3,NA,"HouseObjects",1,3,"left","left",0.549000025,1,1,1,1,NA,NA,NA,NA,NA,NA,NA,NA,NA,NA,NA,NA,NA,NA,NA,NA,NA,NA,NA,NA,NA,NA,NA,NA
"153","stim/objects/Instruments/bassdrum.png",6,10,6,0.5,"stim/21.jpeg",2,1,1,NA,"Instruments",2,4,"right","right",0.434999943,1,1,1,1,NA,NA,NA,NA,NA,NA,NA,NA,NA,NA,NA,NA,NA,NA,NA,NA,NA,NA,NA,NA,NA,NA,NA,NA
"210","stim/objects/Instruments/clarinet.png",7,10,7,0.7,"stim/31.jpeg",3,1,2,NA,"Instruments",2,3,"right","right",0.745000124,1,1,1,1,NA,NA,NA,NA,NA,NA,NA,NA,NA,NA,NA,NA,NA,NA,NA,NA,NA,NA,NA,NA,NA,NA,NA,NA
"89","stim/objects/HouseObjects/clock2.png",8,10,8,0.9,"stim/62.jpeg",6,2,3,NA,"HouseObjects",1,1,"left","left",0.599999905,1,1,1,1,NA,NA,NA,NA,NA,NA,NA,NA,NA,NA,NA,NA,NA,NA,NA,NA,NA,NA,NA,NA,NA,NA,NA,NA
"233","stim/objects/Instruments/doublebass.png",9,10,9,0.7,"stim/34.jpeg",3,4,2,NA,"Instruments",2,4,"right","right",0.434999943,1,1,1,1,NA,NA,NA,NA,NA,NA,NA,NA,NA,NA,NA,NA,NA,NA,NA,NA,NA,NA,NA,NA,NA,NA,NA,NA
"121","stim/objects/Instruments/accordion.png",10,10,10,0.5,"stim/11.jpeg",1,1,1,NA,"Instruments",2,3,"right","right",0.799000025,1,1,1,1,NA,NA,NA,NA,NA,NA,NA,NA,NA,NA,NA,NA,NA,NA,NA,NA,NA,NA,NA,NA,NA,NA,NA,NA
"195","stim/objects/Instruments/chime.png",11,10,11,0.5,"stim/24.jpeg",2,4,1,NA,"Instruments",2,1,"right","",NA,0,0,1,1,NA,NA,NA,NA,NA,NA,NA,NA,NA,NA,NA,NA,NA,NA,NA,NA,NA,NA,NA,NA,NA,NA,NA,NA
"109","stim/objects/HouseObjects/clothespin.png",12,10,12,0.3,"stim/34.jpeg",3,4,2,NA,"HouseObjects",1,1,"left","right",0.621999979,0,0,1,1,NA,NA,NA,NA,NA,NA,NA,NA,NA,NA,NA,NA,NA,NA,NA,NA,NA,NA,NA,NA,NA,NA,NA,NA
"154","stim/objects/Instruments/bassdrum.png",13,10,13,0.5,"stim/21.jpeg",2,1,1,NA,"Instruments",2,2,"right","left",0.700999975,0,0,1,1,NA,NA,NA,NA,NA,NA,NA,NA,NA,NA,NA,NA,NA,NA,NA,NA,NA,NA,NA,NA,NA,NA,NA,NA
"217","stim/objects/Instruments/cornet.png",14,10,14,0.7,"stim/32.jpeg",3,2,2,NA,"Instruments",2,2,"right","right",0.517999887,1,1,1,1,NA,NA,NA,NA,NA,NA,NA,NA,NA,NA,NA,NA,NA,NA,NA,NA,NA,NA,NA,NA,NA,NA,NA,NA
"100","stim/objects/HouseObjects/clothesdryingrack2.png",15,10,15,0.9,"stim/63.jpeg",6,3,3,NA,"HouseObjects",1,4,"left","left",0.528000116,1,1,1,1,NA,NA,NA,NA,NA,NA,NA,NA,NA,NA,NA,NA,NA,NA,NA,NA,NA,NA,NA,NA,NA,NA,NA,NA
"97","stim/objects/HouseObjects/clothesdryingrack.png",16,10,16,0.3,"stim/33.jpeg",3,3,2,NA,"HouseObjects",1,3,"left","right",0.563999891,0,0,1,1,NA,NA,NA,NA,NA,NA,NA,NA,NA,NA,NA,NA,NA,NA,NA,NA,NA,NA,NA,NA,NA,NA,NA,NA
"112","stim/objects/HouseObjects/clothespin2.png",17,10,17,0.9,"stim/64.jpeg",6,4,3,NA,"HouseObjects",1,4,"left","left",0.629999876,1,1,1,1,NA,NA,NA,NA,NA,NA,NA,NA,NA,NA,NA,NA,NA,NA,NA,NA,NA,NA,NA,NA,NA,NA,NA,NA
"6","stim/objects/HouseObjects/ashtray2.png",18,10,18,0.7,"stim/41.jpeg",4,1,2,NA,"HouseObjects",1,2,"left","",NA,0,0,1,1,NA,NA,NA,NA,NA,NA,NA,NA,NA,NA,NA,NA,NA,NA,NA,NA,NA,NA,NA,NA,NA,NA,NA,NA
"211","stim/objects/Instruments/clarinet.png",19,10,19,0.7,"stim/31.jpeg",3,1,2,NA,"Instruments",2,1,"right","",NA,0,0,1,1,NA,NA,NA,NA,NA,NA,NA,NA,NA,NA,NA,NA,NA,NA,NA,NA,NA,NA,NA,NA,NA,NA,NA,NA
"172","stim/objects/Instruments/bassguitar2.png",20,10,20,0.9,"stim/52.jpeg",5,2,3,NA,"Instruments",2,3,"right","",NA,0,0,1,1,NA,NA,NA,NA,NA,NA,NA,NA,NA,NA,NA,NA,NA,NA,NA,NA,NA,NA,NA,NA,NA,NA,NA,NA
"158","stim/objects/Instruments/bassdrum2.png",21,10,21,0.9,"stim/51.jpeg",5,1,3,NA,"Instruments",2,4,"right","right",0.656999826,1,1,1,1,NA,NA,NA,NA,NA,NA,NA,NA,NA,NA,NA,NA,NA,NA,NA,NA,NA,NA,NA,NA,NA,NA,NA,NA
"54","stim/objects/HouseObjects/bleachbottle2.png",22,10,22,0.1,"stim/51.jpeg",5,1,3,NA,"HouseObjects",1,1,"left","right",0.638000011,0,0,1,1,NA,NA,NA,NA,NA,NA,NA,NA,NA,NA,NA,NA,NA,NA,NA,NA,NA,NA,NA,NA,NA,NA,NA,NA
"73","stim/objects/HouseObjects/bucket.png",23,10,23,0.3,"stim/31.jpeg",3,1,2,NA,"HouseObjects",1,1,"left","right",0.578000069,0,0,1,1,NA,NA,NA,NA,NA,NA,NA,NA,NA,NA,NA,NA,NA,NA,NA,NA,NA,NA,NA,NA,NA,NA,NA,NA
"134","stim/objects/Instruments/acousticguitar2.png",24,10,24,0.3,"stim/42.jpeg",4,2,2,NA,"Instruments",2,4,"right","left",0.631000042,0,0,1,1,NA,NA,NA,NA,NA,NA,NA,NA,NA,NA,NA,NA,NA,NA,NA,NA,NA,NA,NA,NA,NA,NA,NA,NA
"234","stim/objects/Instruments/doublebass.png",25,10,25,0.7,"stim/34.jpeg",3,4,2,NA,"Instruments",2,3,"right","right",0.59800005,1,1,1,1,NA,NA,NA,NA,NA,NA,NA,NA,NA,NA,NA,NA,NA,NA,NA,NA,NA,NA,NA,NA,NA,NA,NA,NA
"122","stim/objects/Instruments/accordion.png",26,10,26,0.5,"stim/11.jpeg",1,1,1,NA,"Instruments",2,3,"right","",NA,0,0,1,1,NA,NA,NA,NA,NA,NA,NA,NA,NA,NA,NA,NA,NA,NA,NA,NA,NA,NA,NA,NA,NA,NA,NA,NA
"137","stim/objects/Instruments/balalaika.png",27,10,27,0.5,"stim/13.jpeg",1,3,1,NA,"Instruments",2,2,"right","",NA,0,0,1,1,NA,NA,NA,NA,NA,NA,NA,NA,NA,NA,NA,NA,NA,NA,NA,NA,NA,NA,NA,NA,NA,NA,NA,NA
"18","stim/objects/HouseObjects/ballofstring2.png",28,10,28,0.7,"stim/42.jpeg",4,2,2,NA,"HouseObjects",1,4,"left","",NA,0,0,1,1,NA,NA,NA,NA,NA,NA,NA,NA,NA,NA,NA,NA,NA,NA,NA,NA,NA,NA,NA,NA,NA,NA,NA,NA
"186","stim/objects/Instruments/cello2.png",29,10,29,0.9,"stim/53.jpeg",5,3,3,NA,"Instruments",2,2,"right","right",0.618000031,1,1,1,1,NA,NA,NA,NA,NA,NA,NA,NA,NA,NA,NA,NA,NA,NA,NA,NA,NA,NA,NA,NA,NA,NA,NA,NA
"235","stim/objects/Instruments/doublebass.png",30,10,30,0.7,"stim/34.jpeg",3,4,2,NA,"Instruments",2,3,"right","right",0.552999973,1,1,1,1,NA,NA,NA,NA,NA,NA,NA,NA,NA,NA,NA,NA,NA,NA,NA,NA,NA,NA,NA,NA,NA,NA,NA,NA
"173","stim/objects/Instruments/bassguitar2.png",31,10,31,0.9,"stim/52.jpeg",5,2,3,NA,"Instruments",2,3,"right","",NA,0,0,1,1,NA,NA,NA,NA,NA,NA,NA,NA,NA,NA,NA,NA,NA,NA,NA,NA,NA,NA,NA,NA,NA,NA,NA,NA
"74","stim/objects/HouseObjects/bucket.png",32,10,32,0.3,"stim/31.jpeg",3,1,2,NA,"HouseObjects",1,3,"left","",NA,0,0,1,1,NA,NA,NA,NA,NA,NA,NA,NA,NA,NA,NA,NA,NA,NA,NA,NA,NA,NA,NA,NA,NA,NA,NA,NA
"76","stim/objects/HouseObjects/bucket2.png",33,10,33,0.9,"stim/61.jpeg",6,1,3,NA,"HouseObjects",1,1,"left","left",0.625999928,1,1,1,1,NA,NA,NA,NA,NA,NA,NA,NA,NA,NA,NA,NA,NA,NA,NA,NA,NA,NA,NA,NA,NA,NA,NA,NA
"30","stim/objects/HouseObjects/barbecuelighter2.png",34,10,34,0.7,"stim/43.jpeg",4,3,2,NA,"HouseObjects",1,1,"left","left",0.52699995,1,1,1,1,NA,NA,NA,NA,NA,NA,NA,NA,NA,NA,NA,NA,NA,NA,NA,NA,NA,NA,NA,NA,NA,NA,NA,NA
"66","stim/objects/HouseObjects/bottle2.png",35,10,35,0.1,"stim/53.jpeg",5,3,3,NA,"HouseObjects",1,2,"left","right",0.496999979,0,0,1,1,NA,NA,NA,NA,NA,NA,NA,NA,NA,NA,NA,NA,NA,NA,NA,NA,NA,NA,NA,NA,NA,NA,NA,NA
"49","stim/objects/HouseObjects/bleachbottle.png",36,10,36,0.5,"stim/21.jpeg",2,1,1,NA,"HouseObjects",1,4,"left","left",0.880000114,1,1,1,1,NA,NA,NA,NA,NA,NA,NA,NA,NA,NA,NA,NA,NA,NA,NA,NA,NA,NA,NA,NA,NA,NA,NA,NA
"218","stim/objects/Instruments/cornet.png",37,10,37,0.7,"stim/32.jpeg",3,2,2,NA,"Instruments",2,3,"right","right",0.622999907,1,1,1,1,NA,NA,NA,NA,NA,NA,NA,NA,NA,NA,NA,NA,NA,NA,NA,NA,NA,NA,NA,NA,NA,NA,NA,NA
"212","stim/objects/Instruments/clarinet.png",38,10,38,0.7,"stim/31.jpeg",3,1,2,NA,"Instruments",2,4,"right","right",0.505000114,1,1,1,1,NA,NA,NA,NA,NA,NA,NA,NA,NA,NA,NA,NA,NA,NA,NA,NA,NA,NA,NA,NA,NA,NA,NA,NA
"55","stim/objects/HouseObjects/blender.png",39,10,39,0.5,"stim/22.jpeg",2,2,1,NA,"HouseObjects",1,3,"left","left",0.664000034,1,1,1,1,NA,NA,NA,NA,NA,NA,NA,NA,NA,NA,NA,NA,NA,NA,NA,NA,NA,NA,NA,NA,NA,NA,NA,NA
"42","stim/objects/HouseObjects/basket2.png",40,10,40,0.7,"stim/44.jpeg",4,4,2,NA,"HouseObjects",1,3,"left","left",0.804999828,1,1,1,1,NA,NA,NA,NA,NA,NA,NA,NA,NA,NA,NA,NA,NA,NA,NA,NA,NA,NA,NA,NA,NA,NA,NA,NA
"181","stim/objects/Instruments/cello.png",41,10,41,0.5,"stim/23.jpeg",2,3,1,NA,"Instruments",2,2,"right","left",0.601999998,0,0,1,1,NA,NA,NA,NA,NA,NA,NA,NA,NA,NA,NA,NA,NA,NA,NA,NA,NA,NA,NA,NA,NA,NA,NA,NA
"19","stim/objects/HouseObjects/ballofstring2.png",42,10,42,0.7,"stim/42.jpeg",4,2,2,NA,"HouseObjects",1,2,"left","left",0.71999979,1,1,1,1,NA,NA,NA,NA,NA,NA,NA,NA,NA,NA,NA,NA,NA,NA,NA,NA,NA,NA,NA,NA,NA,NA,NA,NA
"110","stim/objects/HouseObjects/clothespin.png",43,10,43,0.3,"stim/34.jpeg",3,4,2,NA,"HouseObjects",1,4,"left","right",0.570999861,0,0,1,1,NA,NA,NA,NA,NA,NA,NA,NA,NA,NA,NA,NA,NA,NA,NA,NA,NA,NA,NA,NA,NA,NA,NA,NA
"219","stim/objects/Instruments/cornet.png",44,10,44,0.7,"stim/32.jpeg",3,2,2,NA,"Instruments",2,2,"right","right",0.654999971,1,1,1,1,NA,NA,NA,NA,NA,NA,NA,NA,NA,NA,NA,NA,NA,NA,NA,NA,NA,NA,NA,NA,NA,NA,NA,NA
"159","stim/objects/Instruments/bassdrum2.png",45,10,45,0.9,"stim/51.jpeg",5,1,3,NA,"Instruments",2,1,"right","right",0.611000061,1,1,1,1,NA,NA,NA,NA,NA,NA,NA,NA,NA,NA,NA,NA,NA,NA,NA,NA,NA,NA,NA,NA,NA,NA,NA,NA
"1","stim/objects/HouseObjects/ashtray.png",46,10,46,0.5,"stim/11.jpeg",1,1,1,NA,"HouseObjects",1,2,"left","",NA,0,0,1,1,NA,NA,NA,NA,NA,NA,NA,NA,NA,NA,NA,NA,NA,NA,NA,NA,NA,NA,NA,NA,NA,NA,NA,NA
"126","stim/objects/Instruments/accordion2.png",47,10,47,0.3,"stim/41.jpeg",4,1,2,NA,"Instruments",2,1,"right","left",0.565000057,0,0,1,1,NA,NA,NA,NA,NA,NA,NA,NA,NA,NA,NA,NA,NA,NA,NA,NA,NA,NA,NA,NA,NA,NA,NA,NA
"61","stim/objects/HouseObjects/bottle.png",48,10,48,0.5,"stim/23.jpeg",2,3,1,NA,"HouseObjects",1,1,"left","left",0.687000036,1,1,1,1,NA,NA,NA,NA,NA,NA,NA,NA,NA,NA,NA,NA,NA,NA,NA,NA,NA,NA,NA,NA,NA,NA,NA,NA
"150","stim/objects/Instruments/banjo2.png",49,10,49,0.3,"stim/44.jpeg",4,4,2,NA,"Instruments",2,3,"right","left",0.65500021,0,0,1,1,NA,NA,NA,NA,NA,NA,NA,NA,NA,NA,NA,NA,NA,NA,NA,NA,NA,NA,NA,NA,NA,NA,NA,NA
"187","stim/objects/Instruments/cello2.png",50,10,50,0.9,"stim/53.jpeg",5,3,3,NA,"Instruments",2,2,"right","right",0.54700017,1,1,1,1,NA,NA,NA,NA,NA,NA,NA,NA,NA,NA,NA,NA,NA,NA,NA,NA,NA,NA,NA,NA,NA,NA,NA,NA
"67","stim/objects/HouseObjects/broom.png",51,10,51,0.5,"stim/24.jpeg",2,4,1,NA,"HouseObjects",1,3,"left","left",0.659999847,1,1,1,1,NA,NA,NA,NA,NA,NA,NA,NA,NA,NA,NA,NA,NA,NA,NA,NA,NA,NA,NA,NA,NA,NA,NA,NA
"56","stim/objects/HouseObjects/blender.png",52,10,52,0.5,"stim/22.jpeg",2,2,1,NA,"HouseObjects",1,2,"left","left",0.605999947,1,1,1,1,NA,NA,NA,NA,NA,NA,NA,NA,NA,NA,NA,NA,NA,NA,NA,NA,NA,NA,NA,NA,NA,NA,NA,NA
"236","stim/objects/Instruments/doublebass.png",53,10,53,0.7,"stim/34.jpeg",3,4,2,NA,"Instruments",2,1,"right","right",0.560000181,1,1,1,1,NA,NA,NA,NA,NA,NA,NA,NA,NA,NA,NA,NA,NA,NA,NA,NA,NA,NA,NA,NA,NA,NA,NA,NA
"62","stim/objects/HouseObjects/bottle.png",54,10,54,0.5,"stim/23.jpeg",2,3,1,NA,"HouseObjects",1,3,"left","left",0.489000082,1,1,1,1,NA,NA,NA,NA,NA,NA,NA,NA,NA,NA,NA,NA,NA,NA,NA,NA,NA,NA,NA,NA,NA,NA,NA,NA
"31","stim/objects/HouseObjects/barbecuelighter2.png",55,10,55,0.7,"stim/43.jpeg",4,3,2,NA,"HouseObjects",1,2,"left","right",0.816999912,0,0,1,1,NA,NA,NA,NA,NA,NA,NA,NA,NA,NA,NA,NA,NA,NA,NA,NA,NA,NA,NA,NA,NA,NA,NA,NA
"151","stim/objects/Instruments/banjo2.png",56,10,56,0.3,"stim/44.jpeg",4,4,2,NA,"Instruments",2,1,"right","right",0.727999926,1,1,1,1,NA,NA,NA,NA,NA,NA,NA,NA,NA,NA,NA,NA,NA,NA,NA,NA,NA,NA,NA,NA,NA,NA,NA,NA
"43","stim/objects/HouseObjects/basket2.png",57,10,57,0.7,"stim/44.jpeg",4,4,2,NA,"HouseObjects",1,1,"left","right",0.622999907,0,0,1,1,NA,NA,NA,NA,NA,NA,NA,NA,NA,NA,NA,NA,NA,NA,NA,NA,NA,NA,NA,NA,NA,NA,NA,NA
"68","stim/objects/HouseObjects/broom.png",58,10,58,0.5,"stim/24.jpeg",2,4,1,NA,"HouseObjects",1,4,"left","left",0.592000008,1,1,1,1,NA,NA,NA,NA,NA,NA,NA,NA,NA,NA,NA,NA,NA,NA,NA,NA,NA,NA,NA,NA,NA,NA,NA,NA
"155","stim/objects/Instruments/bassdrum.png",59,10,59,0.5,"stim/21.jpeg",2,1,1,NA,"Instruments",2,1,"right","left",0.769999981,0,0,1,1,NA,NA,NA,NA,NA,NA,NA,NA,NA,NA,NA,NA,NA,NA,NA,NA,NA,NA,NA,NA,NA,NA,NA,NA
"86","stim/objects/HouseObjects/clock.png",60,10,60,0.3,"stim/32.jpeg",3,2,2,NA,"HouseObjects",1,2,"left","right",0.486999989,0,0,1,1,NA,NA,NA,NA,NA,NA,NA,NA,NA,NA,NA,NA,NA,NA,NA,NA,NA,NA,NA,NA,NA,NA,NA,NA
"196","stim/objects/Instruments/chime.png",61,10,61,0.5,"stim/24.jpeg",2,4,1,NA,"Instruments",2,1,"right","left",0.599999905,0,0,1,1,NA,NA,NA,NA,NA,NA,NA,NA,NA,NA,NA,NA,NA,NA,NA,NA,NA,NA,NA,NA,NA,NA,NA,NA
"145","stim/objects/Instruments/banjo.png",62,10,62,0.5,"stim/14.jpeg",1,4,1,NA,"Instruments",2,3,"right","",NA,0,0,1,1,NA,NA,NA,NA,NA,NA,NA,NA,NA,NA,NA,NA,NA,NA,NA,NA,NA,NA,NA,NA,NA,NA,NA,NA
"14","stim/objects/HouseObjects/ballofstring.png",63,10,63,0.5,"stim/12.jpeg",1,2,1,NA,"HouseObjects",1,1,"left","right",0.662000179,0,0,1,1,NA,NA,NA,NA,NA,NA,NA,NA,NA,NA,NA,NA,NA,NA,NA,NA,NA,NA,NA,NA,NA,NA,NA,NA
"182","stim/objects/Instruments/cello.png",64,10,64,0.5,"stim/23.jpeg",2,3,1,NA,"Instruments",2,4,"right","left",0.756000042,0,0,1,1,NA,NA,NA,NA,NA,NA,NA,NA,NA,NA,NA,NA,NA,NA,NA,NA,NA,NA,NA,NA,NA,NA,NA,NA
"200","stim/objects/Instruments/chime2.png",65,10,65,0.9,"stim/54.jpeg",5,4,3,NA,"Instruments",2,4,"right","right",0.570999861,1,1,1,1,NA,NA,NA,NA,NA,NA,NA,NA,NA,NA,NA,NA,NA,NA,NA,NA,NA,NA,NA,NA,NA,NA,NA,NA
"127","stim/objects/Instruments/accordion2.png",66,10,66,0.3,"stim/41.jpeg",4,1,2,NA,"Instruments",2,3,"right","right",0.693000078,1,1,1,1,NA,NA,NA,NA,NA,NA,NA,NA,NA,NA,NA,NA,NA,NA,NA,NA,NA,NA,NA,NA,NA,NA,NA,NA
"57","stim/objects/HouseObjects/blender.png",67,10,67,0.5,"stim/22.jpeg",2,2,1,NA,"HouseObjects",1,4,"left","left",0.489000082,1,1,1,1,NA,NA,NA,NA,NA,NA,NA,NA,NA,NA,NA,NA,NA,NA,NA,NA,NA,NA,NA,NA,NA,NA,NA,NA
"69","stim/objects/HouseObjects/broom.png",68,10,68,0.5,"stim/24.jpeg",2,4,1,NA,"HouseObjects",1,4,"left","left",0.378000021,1,1,1,1,NA,NA,NA,NA,NA,NA,NA,NA,NA,NA,NA,NA,NA,NA,NA,NA,NA,NA,NA,NA,NA,NA,NA,NA
"167","stim/objects/Instruments/bassguitar.png",69,10,69,0.5,"stim/22.jpeg",2,2,1,NA,"Instruments",2,1,"right","right",0.524999857,1,1,1,1,NA,NA,NA,NA,NA,NA,NA,NA,NA,NA,NA,NA,NA,NA,NA,NA,NA,NA,NA,NA,NA,NA,NA,NA
"135","stim/objects/Instruments/acousticguitar2.png",70,10,70,0.3,"stim/42.jpeg",4,2,2,NA,"Instruments",2,2,"right","right",0.838000059,1,1,1,1,NA,NA,NA,NA,NA,NA,NA,NA,NA,NA,NA,NA,NA,NA,NA,NA,NA,NA,NA,NA,NA,NA,NA,NA
"188","stim/objects/Instruments/cello2.png",71,10,71,0.9,"stim/53.jpeg",5,3,3,NA,"Instruments",2,1,"right","right",0.529999971,1,1,1,1,NA,NA,NA,NA,NA,NA,NA,NA,NA,NA,NA,NA,NA,NA,NA,NA,NA,NA,NA,NA,NA,NA,NA,NA
"113","stim/objects/HouseObjects/clothespin2.png",72,10,72,0.9,"stim/64.jpeg",6,4,3,NA,"HouseObjects",1,4,"left","left",0.551999807,1,1,1,1,NA,NA,NA,NA,NA,NA,NA,NA,NA,NA,NA,NA,NA,NA,NA,NA,NA,NA,NA,NA,NA,NA,NA,NA
"15","stim/objects/HouseObjects/ballofstring.png",73,10,73,0.5,"stim/12.jpeg",1,2,1,NA,"HouseObjects",1,3,"left","",NA,0,0,1,1,NA,NA,NA,NA,NA,NA,NA,NA,NA,NA,NA,NA,NA,NA,NA,NA,NA,NA,NA,NA,NA,NA,NA,NA
"77","stim/objects/HouseObjects/bucket2.png",74,10,74,0.9,"stim/61.jpeg",6,1,3,NA,"HouseObjects",1,2,"left","left",0.582999945,1,1,1,1,NA,NA,NA,NA,NA,NA,NA,NA,NA,NA,NA,NA,NA,NA,NA,NA,NA,NA,NA,NA,NA,NA,NA,NA
"32","stim/objects/HouseObjects/barbecuelighter2.png",75,10,75,0.7,"stim/43.jpeg",4,3,2,NA,"HouseObjects",1,4,"left","right",0.703999996,0,0,1,1,NA,NA,NA,NA,NA,NA,NA,NA,NA,NA,NA,NA,NA,NA,NA,NA,NA,NA,NA,NA,NA,NA,NA,NA
"197","stim/objects/Instruments/chime.png",76,10,76,0.5,"stim/24.jpeg",2,4,1,NA,"Instruments",2,1,"right","left",0.555999994,0,0,1,1,NA,NA,NA,NA,NA,NA,NA,NA,NA,NA,NA,NA,NA,NA,NA,NA,NA,NA,NA,NA,NA,NA,NA,NA
"7","stim/objects/HouseObjects/ashtray2.png",77,10,77,0.7,"stim/41.jpeg",4,1,2,NA,"HouseObjects",1,2,"left","",NA,0,0,1,1,NA,NA,NA,NA,NA,NA,NA,NA,NA,NA,NA,NA,NA,NA,NA,NA,NA,NA,NA,NA,NA,NA,NA,NA
"37","stim/objects/HouseObjects/basket.png",78,10,78,0.5,"stim/14.jpeg",1,4,1,NA,"HouseObjects",1,3,"left","left",0.84800005,1,1,1,1,NA,NA,NA,NA,NA,NA,NA,NA,NA,NA,NA,NA,NA,NA,NA,NA,NA,NA,NA,NA,NA,NA,NA,NA
"72","stim/objects/HouseObjects/broom2.png",79,10,79,0.1,"stim/54.jpeg",5,4,3,NA,"HouseObjects",1,4,"left","right",0.625,0,0,1,1,NA,NA,NA,NA,NA,NA,NA,NA,NA,NA,NA,NA,NA,NA,NA,NA,NA,NA,NA,NA,NA,NA,NA,NA
"183","stim/objects/Instruments/cello.png",80,10,80,0.5,"stim/23.jpeg",2,3,1,NA,"Instruments",2,4,"right","left",0.563999891,0,0,1,1,NA,NA,NA,NA,NA,NA,NA,NA,NA,NA,NA,NA,NA,NA,NA,NA,NA,NA,NA,NA,NA,NA,NA,NA
"201","stim/objects/Instruments/chime2.png",81,10,81,0.9,"stim/54.jpeg",5,4,3,NA,"Instruments",2,2,"right","right",0.792000055,1,1,1,1,NA,NA,NA,NA,NA,NA,NA,NA,NA,NA,NA,NA,NA,NA,NA,NA,NA,NA,NA,NA,NA,NA,NA,NA
"16","stim/objects/HouseObjects/ballofstring.png",82,10,82,0.5,"stim/12.jpeg",1,2,1,NA,"HouseObjects",1,2,"left","left",0.743999958,1,1,1,1,NA,NA,NA,NA,NA,NA,NA,NA,NA,NA,NA,NA,NA,NA,NA,NA,NA,NA,NA,NA,NA,NA,NA,NA
"129","stim/objects/Instruments/acousticguitar.png",83,10,83,0.5,"stim/12.jpeg",1,2,1,NA,"Instruments",2,2,"right","",NA,0,0,1,1,NA,NA,NA,NA,NA,NA,NA,NA,NA,NA,NA,NA,NA,NA,NA,NA,NA,NA,NA,NA,NA,NA,NA,NA
"20","stim/objects/HouseObjects/ballofstring2.png",84,10,84,0.7,"stim/42.jpeg",4,2,2,NA,"HouseObjects",1,2,"left","",NA,0,0,1,1,NA,NA,NA,NA,NA,NA,NA,NA,NA,NA,NA,NA,NA,NA,NA,NA,NA,NA,NA,NA,NA,NA,NA,NA
"8","stim/objects/HouseObjects/ashtray2.png",85,10,85,0.7,"stim/41.jpeg",4,1,2,NA,"HouseObjects",1,2,"left","left",0.769999981,1,1,1,1,NA,NA,NA,NA,NA,NA,NA,NA,NA,NA,NA,NA,NA,NA,NA,NA,NA,NA,NA,NA,NA,NA,NA,NA
"202","stim/objects/Instruments/chime2.png",86,10,86,0.9,"stim/54.jpeg",5,4,3,NA,"Instruments",2,3,"right","",NA,0,0,1,1,NA,NA,NA,NA,NA,NA,NA,NA,NA,NA,NA,NA,NA,NA,NA,NA,NA,NA,NA,NA,NA,NA,NA,NA
"213","stim/objects/Instruments/clarinet.png",87,10,87,0.7,"stim/31.jpeg",3,1,2,NA,"Instruments",2,1,"right","",NA,0,0,1,1,NA,NA,NA,NA,NA,NA,NA,NA,NA,NA,NA,NA,NA,NA,NA,NA,NA,NA,NA,NA,NA,NA,NA,NA
"142","stim/objects/Instruments/balalaika2.png",88,10,88,0.3,"stim/43.jpeg",4,3,2,NA,"Instruments",2,3,"right","left",0.68599987,0,0,1,1,NA,NA,NA,NA,NA,NA,NA,NA,NA,NA,NA,NA,NA,NA,NA,NA,NA,NA,NA,NA,NA,NA,NA,NA
"9","stim/objects/HouseObjects/ashtray2.png",89,10,89,0.7,"stim/41.jpeg",4,1,2,NA,"HouseObjects",1,4,"left","",NA,0,0,1,1,NA,NA,NA,NA,NA,NA,NA,NA,NA,NA,NA,NA,NA,NA,NA,NA,NA,NA,NA,NA,NA,NA,NA,NA
"203","stim/objects/Instruments/chime2.png",90,10,90,0.9,"stim/54.jpeg",5,4,3,NA,"Instruments",2,3,"right","right",0.874000072,1,1,1,1,NA,NA,NA,NA,NA,NA,NA,NA,NA,NA,NA,NA,NA,NA,NA,NA,NA,NA,NA,NA,NA,NA,NA,NA
"160","stim/objects/Instruments/bassdrum2.png",91,10,91,0.9,"stim/51.jpeg",5,1,3,NA,"Instruments",2,2,"right","right",0.551000118,1,1,1,1,NA,NA,NA,NA,NA,NA,NA,NA,NA,NA,NA,NA,NA,NA,NA,NA,NA,NA,NA,NA,NA,NA,NA,NA
"204","stim/objects/Instruments/chime2.png",92,10,92,0.9,"stim/54.jpeg",5,4,3,NA,"Instruments",2,1,"right","right",0.551999807,1,1,1,1,NA,NA,NA,NA,NA,NA,NA,NA,NA,NA,NA,NA,NA,NA,NA,NA,NA,NA,NA,NA,NA,NA,NA,NA
"58","stim/objects/HouseObjects/blender.png",93,10,93,0.5,"stim/22.jpeg",2,2,1,NA,"HouseObjects",1,2,"left","left",0.502000093,1,1,1,1,NA,NA,NA,NA,NA,NA,NA,NA,NA,NA,NA,NA,NA,NA,NA,NA,NA,NA,NA,NA,NA,NA,NA,NA
"240","stim/objects/Instruments/doublebass2.png",94,10,94,0.1,"stim/64.jpeg",6,4,3,NA,"Instruments",2,3,"right","",NA,0,0,1,1,NA,NA,NA,NA,NA,NA,NA,NA,NA,NA,NA,NA,NA,NA,NA,NA,NA,NA,NA,NA,NA,NA,NA,NA
"10","stim/objects/HouseObjects/ashtray2.png",95,10,95,0.7,"stim/41.jpeg",4,1,2,NA,"HouseObjects",1,2,"left","left",0.527999878,1,1,1,1,NA,NA,NA,NA,NA,NA,NA,NA,NA,NA,NA,NA,NA,NA,NA,NA,NA,NA,NA,NA,NA,NA,NA,NA
"78","stim/objects/HouseObjects/bucket2.png",96,10,96,0.9,"stim/61.jpeg",6,1,3,NA,"HouseObjects",1,4,"left","left",0.515999794,1,1,1,1,NA,NA,NA,NA,NA,NA,NA,NA,NA,NA,NA,NA,NA,NA,NA,NA,NA,NA,NA,NA,NA,NA,NA,NA
"161","stim/objects/Instruments/bassdrum2.png",97,10,97,0.9,"stim/51.jpeg",5,1,3,NA,"Instruments",2,4,"right","right",0.484999895,1,1,1,1,NA,NA,NA,NA,NA,NA,NA,NA,NA,NA,NA,NA,NA,NA,NA,NA,NA,NA,NA,NA,NA,NA,NA,NA
"146","stim/objects/Instruments/banjo.png",98,10,98,0.5,"stim/14.jpeg",1,4,1,NA,"Instruments",2,3,"right","right",0.810000181,1,1,1,1,NA,NA,NA,NA,NA,NA,NA,NA,NA,NA,NA,NA,NA,NA,NA,NA,NA,NA,NA,NA,NA,NA,NA,NA
"168","stim/objects/Instruments/bassguitar.png",99,10,99,0.5,"stim/22.jpeg",2,2,1,NA,"Instruments",2,1,"right","left",0.789000034,0,0,1,1,NA,NA,NA,NA,NA,NA,NA,NA,NA,NA,NA,NA,NA,NA,NA,NA,NA,NA,NA,NA,NA,NA,NA,NA
"143","stim/objects/Instruments/balalaika2.png",100,10,100,0.3,"stim/43.jpeg",4,3,2,NA,"Instruments",2,2,"right","left",0.597999811,0,0,1,1,NA,NA,NA,NA,NA,NA,NA,NA,NA,NA,NA,NA,NA,NA,NA,NA,NA,NA,NA,NA,NA,NA,NA,NA
"33","stim/objects/HouseObjects/barbecuelighter2.png",101,10,101,0.7,"stim/43.jpeg",4,3,2,NA,"HouseObjects",1,2,"left","right",0.453999996,0,0,1,1,NA,NA,NA,NA,NA,NA,NA,NA,NA,NA,NA,NA,NA,NA,NA,NA,NA,NA,NA,NA,NA,NA,NA,NA
"237","stim/objects/Instruments/doublebass.png",102,10,102,0.7,"stim/34.jpeg",3,4,2,NA,"Instruments",2,4,"right","right",0.552999973,1,1,1,1,NA,NA,NA,NA,NA,NA,NA,NA,NA,NA,NA,NA,NA,NA,NA,NA,NA,NA,NA,NA,NA,NA,NA,NA
"238","stim/objects/Instruments/doublebass.png",103,10,103,0.7,"stim/34.jpeg",3,4,2,NA,"Instruments",2,3,"right","right",0.499000072,1,1,1,1,NA,NA,NA,NA,NA,NA,NA,NA,NA,NA,NA,NA,NA,NA,NA,NA,NA,NA,NA,NA,NA,NA,NA,NA
"130","stim/objects/Instruments/acousticguitar.png",104,10,104,0.5,"stim/12.jpeg",1,2,1,NA,"Instruments",2,3,"right","",NA,0,0,1,1,NA,NA,NA,NA,NA,NA,NA,NA,NA,NA,NA,NA,NA,NA,NA,NA,NA,NA,NA,NA,NA,NA,NA,NA
"216","stim/objects/Instruments/clarinet2.png",105,10,105,0.1,"stim/61.jpeg",6,1,3,NA,"Instruments",2,4,"right","left",0.589999914,0,0,1,1,NA,NA,NA,NA,NA,NA,NA,NA,NA,NA,NA,NA,NA,NA,NA,NA,NA,NA,NA,NA,NA,NA,NA,NA
"184","stim/objects/Instruments/cello.png",106,10,106,0.5,"stim/23.jpeg",2,3,1,NA,"Instruments",2,3,"right","left",0.598999977,0,0,1,1,NA,NA,NA,NA,NA,NA,NA,NA,NA,NA,NA,NA,NA,NA,NA,NA,NA,NA,NA,NA,NA,NA,NA,NA
"232","stim/objects/Instruments/cymbal2.png",107,10,107,0.1,"stim/63.jpeg",6,3,3,NA,"Instruments",2,4,"right","left",0.554999828,0,0,1,1,NA,NA,NA,NA,NA,NA,NA,NA,NA,NA,NA,NA,NA,NA,NA,NA,NA,NA,NA,NA,NA,NA,NA,NA
"21","stim/objects/HouseObjects/ballofstring2.png",108,10,108,0.7,"stim/42.jpeg",4,2,2,NA,"HouseObjects",1,2,"left","left",0.68900013,1,1,1,1,NA,NA,NA,NA,NA,NA,NA,NA,NA,NA,NA,NA,NA,NA,NA,NA,NA,NA,NA,NA,NA,NA,NA,NA
"79","stim/objects/HouseObjects/bucket2.png",109,10,109,0.9,"stim/61.jpeg",6,1,3,NA,"HouseObjects",1,2,"left","left",0.485999823,1,1,1,1,NA,NA,NA,NA,NA,NA,NA,NA,NA,NA,NA,NA,NA,NA,NA,NA,NA,NA,NA,NA,NA,NA,NA,NA
"220","stim/objects/Instruments/cornet.png",110,10,110,0.7,"stim/32.jpeg",3,2,2,NA,"Instruments",2,1,"right","right",0.532999992,1,1,1,1,NA,NA,NA,NA,NA,NA,NA,NA,NA,NA,NA,NA,NA,NA,NA,NA,NA,NA,NA,NA,NA,NA,NA,NA
"80","stim/objects/HouseObjects/bucket2.png",111,10,111,0.9,"stim/61.jpeg",6,1,3,NA,"HouseObjects",1,3,"left","left",0.752000093,1,1,1,1,NA,NA,NA,NA,NA,NA,NA,NA,NA,NA,NA,NA,NA,NA,NA,NA,NA,NA,NA,NA,NA,NA,NA,NA
"221","stim/objects/Instruments/cornet.png",112,10,112,0.7,"stim/32.jpeg",3,2,2,NA,"Instruments",2,1,"right","right",0.522000074,1,1,1,1,NA,NA,NA,NA,NA,NA,NA,NA,NA,NA,NA,NA,NA,NA,NA,NA,NA,NA,NA,NA,NA,NA,NA,NA
"44","stim/objects/HouseObjects/basket2.png",113,10,113,0.7,"stim/44.jpeg",4,4,2,NA,"HouseObjects",1,3,"left","left",0.625999928,1,1,1,1,NA,NA,NA,NA,NA,NA,NA,NA,NA,NA,NA,NA,NA,NA,NA,NA,NA,NA,NA,NA,NA,NA,NA,NA
"22","stim/objects/HouseObjects/ballofstring2.png",114,10,114,0.7,"stim/42.jpeg",4,2,2,NA,"HouseObjects",1,3,"left","left",0.671999931,1,1,1,1,NA,NA,NA,NA,NA,NA,NA,NA,NA,NA,NA,NA,NA,NA,NA,NA,NA,NA,NA,NA,NA,NA,NA,NA
"152","stim/objects/Instruments/banjo2.png",115,10,115,0.3,"stim/44.jpeg",4,4,2,NA,"Instruments",2,4,"right","left",0.722000122,0,0,1,1,NA,NA,NA,NA,NA,NA,NA,NA,NA,NA,NA,NA,NA,NA,NA,NA,NA,NA,NA,NA,NA,NA,NA,NA
"11","stim/objects/HouseObjects/ashtray2.png",116,10,116,0.7,"stim/41.jpeg",4,1,2,NA,"HouseObjects",1,4,"left","left",0.65199995,1,1,1,1,NA,NA,NA,NA,NA,NA,NA,NA,NA,NA,NA,NA,NA,NA,NA,NA,NA,NA,NA,NA,NA,NA,NA,NA
"90","stim/objects/HouseObjects/clock2.png",117,10,117,0.9,"stim/62.jpeg",6,2,3,NA,"HouseObjects",1,3,"left","left",0.549999952,1,1,1,1,NA,NA,NA,NA,NA,NA,NA,NA,NA,NA,NA,NA,NA,NA,NA,NA,NA,NA,NA,NA,NA,NA,NA,NA
"162","stim/objects/Instruments/bassdrum2.png",118,10,118,0.9,"stim/51.jpeg",5,1,3,NA,"Instruments",2,3,"right","right",0.627000093,1,1,1,1,NA,NA,NA,NA,NA,NA,NA,NA,NA,NA,NA,NA,NA,NA,NA,NA,NA,NA,NA,NA,NA,NA,NA,NA
"34","stim/objects/HouseObjects/barbecuelighter2.png",119,10,119,0.7,"stim/43.jpeg",4,3,2,NA,"HouseObjects",1,2,"left","right",0.487999916,0,0,1,1,NA,NA,NA,NA,NA,NA,NA,NA,NA,NA,NA,NA,NA,NA,NA,NA,NA,NA,NA,NA,NA,NA,NA,NA
"147","stim/objects/Instruments/banjo.png",120,10,120,0.5,"stim/14.jpeg",1,4,1,NA,"Instruments",2,2,"right","right",0.820000172,1,1,1,1,NA,NA,NA,NA,NA,NA,NA,NA,NA,NA,NA,NA,NA,NA,NA,NA,NA,NA,NA,NA,NA,NA,NA,NA
"111","stim/objects/HouseObjects/clothespin.png",121,10,121,0.3,"stim/34.jpeg",3,4,2,NA,"HouseObjects",1,1,"left","right",0.540999889,0,0,1,1,NA,NA,NA,NA,NA,NA,NA,NA,NA,NA,NA,NA,NA,NA,NA,NA,NA,NA,NA,NA,NA,NA,NA,NA
"123","stim/objects/Instruments/accordion.png",122,10,122,0.5,"stim/11.jpeg",1,1,1,NA,"Instruments",2,3,"right","left",0.697999954,0,0,1,1,NA,NA,NA,NA,NA,NA,NA,NA,NA,NA,NA,NA,NA,NA,NA,NA,NA,NA,NA,NA,NA,NA,NA,NA
"138","stim/objects/Instruments/balalaika.png",123,10,123,0.5,"stim/13.jpeg",1,3,1,NA,"Instruments",2,2,"right","right",0.590999842,1,1,1,1,NA,NA,NA,NA,NA,NA,NA,NA,NA,NA,NA,NA,NA,NA,NA,NA,NA,NA,NA,NA,NA,NA,NA,NA
"144","stim/objects/Instruments/balalaika2.png",124,10,124,0.3,"stim/43.jpeg",4,3,2,NA,"Instruments",2,1,"right","left",0.45299983,0,0,1,1,NA,NA,NA,NA,NA,NA,NA,NA,NA,NA,NA,NA,NA,NA,NA,NA,NA,NA,NA,NA,NA,NA,NA,NA
"174","stim/objects/Instruments/bassguitar2.png",125,10,125,0.9,"stim/52.jpeg",5,2,3,NA,"Instruments",2,1,"right","",NA,0,0,1,1,NA,NA,NA,NA,NA,NA,NA,NA,NA,NA,NA,NA,NA,NA,NA,NA,NA,NA,NA,NA,NA,NA,NA,NA
"35","stim/objects/HouseObjects/barbecuelighter2.png",126,10,126,0.7,"stim/43.jpeg",4,3,2,NA,"HouseObjects",1,4,"left","left",0.815999985,1,1,1,1,NA,NA,NA,NA,NA,NA,NA,NA,NA,NA,NA,NA,NA,NA,NA,NA,NA,NA,NA,NA,NA,NA,NA,NA
"63","stim/objects/HouseObjects/bottle.png",127,10,127,0.5,"stim/23.jpeg",2,3,1,NA,"HouseObjects",1,1,"left","left",0.564999819,1,1,1,1,NA,NA,NA,NA,NA,NA,NA,NA,NA,NA,NA,NA,NA,NA,NA,NA,NA,NA,NA,NA,NA,NA,NA,NA
"101","stim/objects/HouseObjects/clothesdryingrack2.png",128,10,128,0.9,"stim/63.jpeg",6,3,3,NA,"HouseObjects",1,2,"left","left",0.583999872,1,1,1,1,NA,NA,NA,NA,NA,NA,NA,NA,NA,NA,NA,NA,NA,NA,NA,NA,NA,NA,NA,NA,NA,NA,NA,NA
"185","stim/objects/Instruments/cello.png",129,10,129,0.5,"stim/23.jpeg",2,3,1,NA,"Instruments",2,4,"right","left",0.454999924,0,0,1,1,NA,NA,NA,NA,NA,NA,NA,NA,NA,NA,NA,NA,NA,NA,NA,NA,NA,NA,NA,NA,NA,NA,NA,NA
"91","stim/objects/HouseObjects/clock2.png",130,10,130,0.9,"stim/62.jpeg",6,2,3,NA,"HouseObjects",1,4,"left","left",0.470000029,1,1,1,1,NA,NA,NA,NA,NA,NA,NA,NA,NA,NA,NA,NA,NA,NA,NA,NA,NA,NA,NA,NA,NA,NA,NA,NA
"189","stim/objects/Instruments/cello2.png",131,10,131,0.9,"stim/53.jpeg",5,3,3,NA,"Instruments",2,1,"right","right",0.611999989,1,1,1,1,NA,NA,NA,NA,NA,NA,NA,NA,NA,NA,NA,NA,NA,NA,NA,NA,NA,NA,NA,NA,NA,NA,NA,NA
"25","stim/objects/HouseObjects/barbecuelighter.png",132,10,132,0.5,"stim/13.jpeg",1,3,1,NA,"HouseObjects",1,4,"left","",NA,0,0,1,1,NA,NA,NA,NA,NA,NA,NA,NA,NA,NA,NA,NA,NA,NA,NA,NA,NA,NA,NA,NA,NA,NA,NA,NA
"87","stim/objects/HouseObjects/clock.png",133,10,133,0.3,"stim/32.jpeg",3,2,2,NA,"HouseObjects",1,4,"left","right",0.453999996,0,0,1,1,NA,NA,NA,NA,NA,NA,NA,NA,NA,NA,NA,NA,NA,NA,NA,NA,NA,NA,NA,NA,NA,NA,NA,NA
"92","stim/objects/HouseObjects/clock2.png",134,10,134,0.9,"stim/62.jpeg",6,2,3,NA,"HouseObjects",1,4,"left","left",0.491000175,1,1,1,1,NA,NA,NA,NA,NA,NA,NA,NA,NA,NA,NA,NA,NA,NA,NA,NA,NA,NA,NA,NA,NA,NA,NA,NA
"23","stim/objects/HouseObjects/ballofstring2.png",135,10,135,0.7,"stim/42.jpeg",4,2,2,NA,"HouseObjects",1,4,"left","left",0.641000032,1,1,1,1,NA,NA,NA,NA,NA,NA,NA,NA,NA,NA,NA,NA,NA,NA,NA,NA,NA,NA,NA,NA,NA,NA,NA,NA
"205","stim/objects/Instruments/chime2.png",136,10,136,0.9,"stim/54.jpeg",5,4,3,NA,"Instruments",2,4,"right","right",0.875,1,1,1,1,NA,NA,NA,NA,NA,NA,NA,NA,NA,NA,NA,NA,NA,NA,NA,NA,NA,NA,NA,NA,NA,NA,NA,NA
"102","stim/objects/HouseObjects/clothesdryingrack2.png",137,10,137,0.9,"stim/63.jpeg",6,3,3,NA,"HouseObjects",1,2,"left","left",0.498000145,1,1,1,1,NA,NA,NA,NA,NA,NA,NA,NA,NA,NA,NA,NA,NA,NA,NA,NA,NA,NA,NA,NA,NA,NA,NA,NA
"38","stim/objects/HouseObjects/basket.png",138,10,138,0.5,"stim/14.jpeg",1,4,1,NA,"HouseObjects",1,2,"left","",NA,0,0,1,1,NA,NA,NA,NA,NA,NA,NA,NA,NA,NA,NA,NA,NA,NA,NA,NA,NA,NA,NA,NA,NA,NA,NA,NA
"93","stim/objects/HouseObjects/clock2.png",139,10,139,0.9,"stim/62.jpeg",6,2,3,NA,"HouseObjects",1,2,"left","left",0.555999994,1,1,1,1,NA,NA,NA,NA,NA,NA,NA,NA,NA,NA,NA,NA,NA,NA,NA,NA,NA,NA,NA,NA,NA,NA,NA,NA
"175","stim/objects/Instruments/bassguitar2.png",140,10,140,0.9,"stim/52.jpeg",5,2,3,NA,"Instruments",2,1,"right","right",0.743999958,1,1,1,1,NA,NA,NA,NA,NA,NA,NA,NA,NA,NA,NA,NA,NA,NA,NA,NA,NA,NA,NA,NA,NA,NA,NA,NA
"50","stim/objects/HouseObjects/bleachbottle.png",141,10,141,0.5,"stim/21.jpeg",2,1,1,NA,"HouseObjects",1,3,"left","left",0.593999863,1,1,1,1,NA,NA,NA,NA,NA,NA,NA,NA,NA,NA,NA,NA,NA,NA,NA,NA,NA,NA,NA,NA,NA,NA,NA,NA
"190","stim/objects/Instruments/cello2.png",142,10,142,0.9,"stim/53.jpeg",5,3,3,NA,"Instruments",2,4,"right","right",0.578999996,1,1,1,1,NA,NA,NA,NA,NA,NA,NA,NA,NA,NA,NA,NA,NA,NA,NA,NA,NA,NA,NA,NA,NA,NA,NA,NA
"39","stim/objects/HouseObjects/basket.png",143,10,143,0.5,"stim/14.jpeg",1,4,1,NA,"HouseObjects",1,4,"left","left",0.576000214,1,1,1,1,NA,NA,NA,NA,NA,NA,NA,NA,NA,NA,NA,NA,NA,NA,NA,NA,NA,NA,NA,NA,NA,NA,NA,NA
"169","stim/objects/Instruments/bassguitar.png",144,10,144,0.5,"stim/22.jpeg",2,2,1,NA,"Instruments",2,2,"right","left",0.556999922,0,0,1,1,NA,NA,NA,NA,NA,NA,NA,NA,NA,NA,NA,NA,NA,NA,NA,NA,NA,NA,NA,NA,NA,NA,NA,NA
"176","stim/objects/Instruments/bassguitar2.png",145,10,145,0.9,"stim/52.jpeg",5,2,3,NA,"Instruments",2,1,"right","right",0.544000149,1,1,1,1,NA,NA,NA,NA,NA,NA,NA,NA,NA,NA,NA,NA,NA,NA,NA,NA,NA,NA,NA,NA,NA,NA,NA,NA
"45","stim/objects/HouseObjects/basket2.png",146,10,146,0.7,"stim/44.jpeg",4,4,2,NA,"HouseObjects",1,4,"left","left",0.548000097,1,1,1,1,NA,NA,NA,NA,NA,NA,NA,NA,NA,NA,NA,NA,NA,NA,NA,NA,NA,NA,NA,NA,NA,NA,NA,NA
"225","stim/objects/Instruments/cymbal.png",147,10,147,0.7,"stim/33.jpeg",3,3,2,NA,"Instruments",2,1,"right","right",0.561000109,1,1,1,1,NA,NA,NA,NA,NA,NA,NA,NA,NA,NA,NA,NA,NA,NA,NA,NA,NA,NA,NA,NA,NA,NA,NA,NA
"206","stim/objects/Instruments/chime2.png",148,10,148,0.9,"stim/54.jpeg",5,4,3,NA,"Instruments",2,4,"right","right",0.621999979,1,1,1,1,NA,NA,NA,NA,NA,NA,NA,NA,NA,NA,NA,NA,NA,NA,NA,NA,NA,NA,NA,NA,NA,NA,NA,NA
"214","stim/objects/Instruments/clarinet.png",149,10,149,0.7,"stim/31.jpeg",3,1,2,NA,"Instruments",2,1,"right","right",0.539000034,1,1,1,1,NA,NA,NA,NA,NA,NA,NA,NA,NA,NA,NA,NA,NA,NA,NA,NA,NA,NA,NA,NA,NA,NA,NA,NA
"26","stim/objects/HouseObjects/barbecuelighter.png",150,10,150,0.5,"stim/13.jpeg",1,3,1,NA,"HouseObjects",1,1,"left","right",0.697999954,0,0,1,1,NA,NA,NA,NA,NA,NA,NA,NA,NA,NA,NA,NA,NA,NA,NA,NA,NA,NA,NA,NA,NA,NA,NA,NA
"226","stim/objects/Instruments/cymbal.png",151,10,151,0.7,"stim/33.jpeg",3,3,2,NA,"Instruments",2,1,"right","right",0.694999933,1,1,1,1,NA,NA,NA,NA,NA,NA,NA,NA,NA,NA,NA,NA,NA,NA,NA,NA,NA,NA,NA,NA,NA,NA,NA,NA
"40","stim/objects/HouseObjects/basket.png",152,10,152,0.5,"stim/14.jpeg",1,4,1,NA,"HouseObjects",1,3,"left","",NA,0,0,1,1,NA,NA,NA,NA,NA,NA,NA,NA,NA,NA,NA,NA,NA,NA,NA,NA,NA,NA,NA,NA,NA,NA,NA,NA
"103","stim/objects/HouseObjects/clothesdryingrack2.png",153,10,153,0.9,"stim/63.jpeg",6,3,3,NA,"HouseObjects",1,1,"left","left",0.523999929,1,1,1,1,NA,NA,NA,NA,NA,NA,NA,NA,NA,NA,NA,NA,NA,NA,NA,NA,NA,NA,NA,NA,NA,NA,NA,NA
"46","stim/objects/HouseObjects/basket2.png",154,10,154,0.7,"stim/44.jpeg",4,4,2,NA,"HouseObjects",1,2,"left","left",0.559000015,1,1,1,1,NA,NA,NA,NA,NA,NA,NA,NA,NA,NA,NA,NA,NA,NA,NA,NA,NA,NA,NA,NA,NA,NA,NA,NA
"139","stim/objects/Instruments/balalaika.png",155,10,155,0.5,"stim/13.jpeg",1,3,1,NA,"Instruments",2,4,"right","",NA,0,0,1,1,NA,NA,NA,NA,NA,NA,NA,NA,NA,NA,NA,NA,NA,NA,NA,NA,NA,NA,NA,NA,NA,NA,NA,NA
"177","stim/objects/Instruments/bassguitar2.png",156,10,156,0.9,"stim/52.jpeg",5,2,3,NA,"Instruments",2,3,"right","right",0.526000023,1,1,1,1,NA,NA,NA,NA,NA,NA,NA,NA,NA,NA,NA,NA,NA,NA,NA,NA,NA,NA,NA,NA,NA,NA,NA,NA
"191","stim/objects/Instruments/cello2.png",157,10,157,0.9,"stim/53.jpeg",5,3,3,NA,"Instruments",2,2,"right","right",0.57400012,1,1,1,1,NA,NA,NA,NA,NA,NA,NA,NA,NA,NA,NA,NA,NA,NA,NA,NA,NA,NA,NA,NA,NA,NA,NA,NA
"131","stim/objects/Instruments/acousticguitar.png",158,10,158,0.5,"stim/12.jpeg",1,2,1,NA,"Instruments",2,3,"right","right",0.762000084,1,1,1,1,NA,NA,NA,NA,NA,NA,NA,NA,NA,NA,NA,NA,NA,NA,NA,NA,NA,NA,NA,NA,NA,NA,NA,NA
"222","stim/objects/Instruments/cornet.png",159,10,159,0.7,"stim/32.jpeg",3,2,2,NA,"Instruments",2,1,"right","right",0.558000088,1,1,1,1,NA,NA,NA,NA,NA,NA,NA,NA,NA,NA,NA,NA,NA,NA,NA,NA,NA,NA,NA,NA,NA,NA,NA,NA
"2","stim/objects/HouseObjects/ashtray.png",160,10,160,0.5,"stim/11.jpeg",1,1,1,NA,"HouseObjects",1,2,"left","right",0.693000078,0,0,1,1,NA,NA,NA,NA,NA,NA,NA,NA,NA,NA,NA,NA,NA,NA,NA,NA,NA,NA,NA,NA,NA,NA,NA,NA
"136","stim/objects/Instruments/acousticguitar2.png",161,10,161,0.3,"stim/42.jpeg",4,2,2,NA,"Instruments",2,3,"right","left",0.502000093,0,0,1,1,NA,NA,NA,NA,NA,NA,NA,NA,NA,NA,NA,NA,NA,NA,NA,NA,NA,NA,NA,NA,NA,NA,NA,NA
"178","stim/objects/Instruments/bassguitar2.png",162,10,162,0.9,"stim/52.jpeg",5,2,3,NA,"Instruments",2,2,"right","right",0.680000067,1,1,1,1,NA,NA,NA,NA,NA,NA,NA,NA,NA,NA,NA,NA,NA,NA,NA,NA,NA,NA,NA,NA,NA,NA,NA,NA
"227","stim/objects/Instruments/cymbal.png",163,10,163,0.7,"stim/33.jpeg",3,3,2,NA,"Instruments",2,3,"right","right",0.571000099,1,1,1,1,NA,NA,NA,NA,NA,NA,NA,NA,NA,NA,NA,NA,NA,NA,NA,NA,NA,NA,NA,NA,NA,NA,NA,NA
"94","stim/objects/HouseObjects/clock2.png",164,10,164,0.9,"stim/62.jpeg",6,2,3,NA,"HouseObjects",1,1,"left","left",0.595999956,1,1,1,1,NA,NA,NA,NA,NA,NA,NA,NA,NA,NA,NA,NA,NA,NA,NA,NA,NA,NA,NA,NA,NA,NA,NA,NA
"81","stim/objects/HouseObjects/bucket2.png",165,10,165,0.9,"stim/61.jpeg",6,1,3,NA,"HouseObjects",1,2,"left","left",0.53000021,1,1,1,1,NA,NA,NA,NA,NA,NA,NA,NA,NA,NA,NA,NA,NA,NA,NA,NA,NA,NA,NA,NA,NA,NA,NA,NA
"27","stim/objects/HouseObjects/barbecuelighter.png",166,10,166,0.5,"stim/13.jpeg",1,3,1,NA,"HouseObjects",1,1,"left","left",0.691999912,1,1,1,1,NA,NA,NA,NA,NA,NA,NA,NA,NA,NA,NA,NA,NA,NA,NA,NA,NA,NA,NA,NA,NA,NA,NA,NA
"3","stim/objects/HouseObjects/ashtray.png",167,10,167,0.5,"stim/11.jpeg",1,1,1,NA,"HouseObjects",1,4,"left","left",0.570999861,1,1,1,1,NA,NA,NA,NA,NA,NA,NA,NA,NA,NA,NA,NA,NA,NA,NA,NA,NA,NA,NA,NA,NA,NA,NA,NA
"51","stim/objects/HouseObjects/bleachbottle.png",168,10,168,0.5,"stim/21.jpeg",2,1,1,NA,"HouseObjects",1,1,"left","left",0.601000071,1,1,1,1,NA,NA,NA,NA,NA,NA,NA,NA,NA,NA,NA,NA,NA,NA,NA,NA,NA,NA,NA,NA,NA,NA,NA,NA
"64","stim/objects/HouseObjects/bottle.png",169,10,169,0.5,"stim/23.jpeg",2,3,1,NA,"HouseObjects",1,1,"left","left",0.377000093,1,1,1,1,NA,NA,NA,NA,NA,NA,NA,NA,NA,NA,NA,NA,NA,NA,NA,NA,NA,NA,NA,NA,NA,NA,NA,NA
"124","stim/objects/Instruments/accordion.png",170,10,170,0.5,"stim/11.jpeg",1,1,1,NA,"Instruments",2,2,"right","left",0.474999905,0,0,1,1,NA,NA,NA,NA,NA,NA,NA,NA,NA,NA,NA,NA,NA,NA,NA,NA,NA,NA,NA,NA,NA,NA,NA,NA
"95","stim/objects/HouseObjects/clock2.png",171,10,171,0.9,"stim/62.jpeg",6,2,3,NA,"HouseObjects",1,4,"left","left",0.489000082,1,1,1,1,NA,NA,NA,NA,NA,NA,NA,NA,NA,NA,NA,NA,NA,NA,NA,NA,NA,NA,NA,NA,NA,NA,NA,NA
"179","stim/objects/Instruments/bassguitar2.png",172,10,172,0.9,"stim/52.jpeg",5,2,3,NA,"Instruments",2,3,"right","right",0.532999992,1,1,1,1,NA,NA,NA,NA,NA,NA,NA,NA,NA,NA,NA,NA,NA,NA,NA,NA,NA,NA,NA,NA,NA,NA,NA,NA
"228","stim/objects/Instruments/cymbal.png",173,10,173,0.7,"stim/33.jpeg",3,3,2,NA,"Instruments",2,1,"right","",NA,0,0,1,1,NA,NA,NA,NA,NA,NA,NA,NA,NA,NA,NA,NA,NA,NA,NA,NA,NA,NA,NA,NA,NA,NA,NA,NA
"98","stim/objects/HouseObjects/clothesdryingrack.png",174,10,174,0.3,"stim/33.jpeg",3,3,2,NA,"HouseObjects",1,1,"left","right",0.415999889,0,0,1,1,NA,NA,NA,NA,NA,NA,NA,NA,NA,NA,NA,NA,NA,NA,NA,NA,NA,NA,NA,NA,NA,NA,NA,NA
"114","stim/objects/HouseObjects/clothespin2.png",175,10,175,0.9,"stim/64.jpeg",6,4,3,NA,"HouseObjects",1,2,"left","left",0.5,1,1,1,1,NA,NA,NA,NA,NA,NA,NA,NA,NA,NA,NA,NA,NA,NA,NA,NA,NA,NA,NA,NA,NA,NA,NA,NA
"192","stim/objects/Instruments/cello2.png",176,10,176,0.9,"stim/53.jpeg",5,3,3,NA,"Instruments",2,2,"right","right",0.468999863,1,1,1,1,NA,NA,NA,NA,NA,NA,NA,NA,NA,NA,NA,NA,NA,NA,NA,NA,NA,NA,NA,NA,NA,NA,NA,NA
"148","stim/objects/Instruments/banjo.png",177,10,177,0.5,"stim/14.jpeg",1,4,1,NA,"Instruments",2,1,"right","right",0.680999994,1,1,1,1,NA,NA,NA,NA,NA,NA,NA,NA,NA,NA,NA,NA,NA,NA,NA,NA,NA,NA,NA,NA,NA,NA,NA,NA
"82","stim/objects/HouseObjects/bucket2.png",178,10,178,0.9,"stim/61.jpeg",6,1,3,NA,"HouseObjects",1,2,"left","left",0.484999895,1,1,1,1,NA,NA,NA,NA,NA,NA,NA,NA,NA,NA,NA,NA,NA,NA,NA,NA,NA,NA,NA,NA,NA,NA,NA,NA
"132","stim/objects/Instruments/acousticguitar.png",179,10,179,0.5,"stim/12.jpeg",1,2,1,NA,"Instruments",2,2,"right","right",0.588000059,1,1,1,1,NA,NA,NA,NA,NA,NA,NA,NA,NA,NA,NA,NA,NA,NA,NA,NA,NA,NA,NA,NA,NA,NA,NA,NA
"17","stim/objects/HouseObjects/ballofstring.png",180,10,180,0.5,"stim/12.jpeg",1,2,1,NA,"HouseObjects",1,4,"left","right",0.566999912,0,0,1,1,NA,NA,NA,NA,NA,NA,NA,NA,NA,NA,NA,NA,NA,NA,NA,NA,NA,NA,NA,NA,NA,NA,NA,NA
"207","stim/objects/Instruments/chime2.png",181,10,181,0.9,"stim/54.jpeg",5,4,3,NA,"Instruments",2,2,"right","right",0.748000145,1,1,1,1,NA,NA,NA,NA,NA,NA,NA,NA,NA,NA,NA,NA,NA,NA,NA,NA,NA,NA,NA,NA,NA,NA,NA,NA
"104","stim/objects/HouseObjects/clothesdryingrack2.png",182,10,182,0.9,"stim/63.jpeg",6,3,3,NA,"HouseObjects",1,4,"left","left",0.526000023,1,1,1,1,NA,NA,NA,NA,NA,NA,NA,NA,NA,NA,NA,NA,NA,NA,NA,NA,NA,NA,NA,NA,NA,NA,NA,NA
"229","stim/objects/Instruments/cymbal.png",183,10,183,0.7,"stim/33.jpeg",3,3,2,NA,"Instruments",2,3,"right","right",0.590999842,1,1,1,1,NA,NA,NA,NA,NA,NA,NA,NA,NA,NA,NA,NA,NA,NA,NA,NA,NA,NA,NA,NA,NA,NA,NA,NA
"105","stim/objects/HouseObjects/clothesdryingrack2.png",184,10,184,0.9,"stim/63.jpeg",6,3,3,NA,"HouseObjects",1,3,"left","left",0.482000113,1,1,1,1,NA,NA,NA,NA,NA,NA,NA,NA,NA,NA,NA,NA,NA,NA,NA,NA,NA,NA,NA,NA,NA,NA,NA,NA
"215","stim/objects/Instruments/clarinet.png",185,10,185,0.7,"stim/31.jpeg",3,1,2,NA,"Instruments",2,3,"right","right",0.526000023,1,1,1,1,NA,NA,NA,NA,NA,NA,NA,NA,NA,NA,NA,NA,NA,NA,NA,NA,NA,NA,NA,NA,NA,NA,NA,NA
"52","stim/objects/HouseObjects/bleachbottle.png",186,10,186,0.5,"stim/21.jpeg",2,1,1,NA,"HouseObjects",1,1,"left","left",0.575999975,1,1,1,1,NA,NA,NA,NA,NA,NA,NA,NA,NA,NA,NA,NA,NA,NA,NA,NA,NA,NA,NA,NA,NA,NA,NA,NA
"70","stim/objects/HouseObjects/broom.png",187,10,187,0.5,"stim/24.jpeg",2,4,1,NA,"HouseObjects",1,2,"left","left",0.678999901,1,1,1,1,NA,NA,NA,NA,NA,NA,NA,NA,NA,NA,NA,NA,NA,NA,NA,NA,NA,NA,NA,NA,NA,NA,NA,NA
"133","stim/objects/Instruments/acousticguitar.png",188,10,188,0.5,"stim/12.jpeg",1,2,1,NA,"Instruments",2,4,"right","left",0.772000074,0,0,1,1,NA,NA,NA,NA,NA,NA,NA,NA,NA,NA,NA,NA,NA,NA,NA,NA,NA,NA,NA,NA,NA,NA,NA,NA
"163","stim/objects/Instruments/bassdrum2.png",189,10,189,0.9,"stim/51.jpeg",5,1,3,NA,"Instruments",2,1,"right","right",0.562000036,1,1,1,1,NA,NA,NA,NA,NA,NA,NA,NA,NA,NA,NA,NA,NA,NA,NA,NA,NA,NA,NA,NA,NA,NA,NA,NA
"115","stim/objects/HouseObjects/clothespin2.png",190,10,190,0.9,"stim/64.jpeg",6,4,3,NA,"HouseObjects",1,1,"left","left",0.493999958,1,1,1,1,NA,NA,NA,NA,NA,NA,NA,NA,NA,NA,NA,NA,NA,NA,NA,NA,NA,NA,NA,NA,NA,NA,NA,NA
"47","stim/objects/HouseObjects/basket2.png",191,10,191,0.7,"stim/44.jpeg",4,4,2,NA,"HouseObjects",1,1,"left","left",0.764999866,1,1,1,1,NA,NA,NA,NA,NA,NA,NA,NA,NA,NA,NA,NA,NA,NA,NA,NA,NA,NA,NA,NA,NA,NA,NA,NA
"116","stim/objects/HouseObjects/clothespin2.png",192,10,192,0.9,"stim/64.jpeg",6,4,3,NA,"HouseObjects",1,3,"left","left",0.767000198,1,1,1,1,NA,NA,NA,NA,NA,NA,NA,NA,NA,NA,NA,NA,NA,NA,NA,NA,NA,NA,NA,NA,NA,NA,NA,NA
"230","stim/objects/Instruments/cymbal.png",193,10,193,0.7,"stim/33.jpeg",3,3,2,NA,"Instruments",2,2,"right","right",0.460999966,1,1,1,1,NA,NA,NA,NA,NA,NA,NA,NA,NA,NA,NA,NA,NA,NA,NA,NA,NA,NA,NA,NA,NA,NA,NA,NA
"41","stim/objects/HouseObjects/basket.png",194,10,194,0.5,"stim/14.jpeg",1,4,1,NA,"HouseObjects",1,4,"left","",NA,0,0,1,1,NA,NA,NA,NA,NA,NA,NA,NA,NA,NA,NA,NA,NA,NA,NA,NA,NA,NA,NA,NA,NA,NA,NA,NA
"99","stim/objects/HouseObjects/clothesdryingrack.png",195,10,195,0.3,"stim/33.jpeg",3,3,2,NA,"HouseObjects",1,4,"left","right",0.493000031,0,0,1,1,NA,NA,NA,NA,NA,NA,NA,NA,NA,NA,NA,NA,NA,NA,NA,NA,NA,NA,NA,NA,NA,NA,NA,NA
"83","stim/objects/HouseObjects/bucket2.png",196,10,196,0.9,"stim/61.jpeg",6,1,3,NA,"HouseObjects",1,2,"left","",NA,0,0,1,1,NA,NA,NA,NA,NA,NA,NA,NA,NA,NA,NA,NA,NA,NA,NA,NA,NA,NA,NA,NA,NA,NA,NA,NA
"164","stim/objects/Instruments/bassdrum2.png",197,10,197,0.9,"stim/51.jpeg",5,1,3,NA,"Instruments",2,3,"right","left",0.871999979,0,0,1,1,NA,NA,NA,NA,NA,NA,NA,NA,NA,NA,NA,NA,NA,NA,NA,NA,NA,NA,NA,NA,NA,NA,NA,NA
"125","stim/objects/Instruments/accordion.png",198,10,198,0.5,"stim/11.jpeg",1,1,1,NA,"Instruments",2,4,"right","left",0.747999907,0,0,1,1,NA,NA,NA,NA,NA,NA,NA,NA,NA,NA,NA,NA,NA,NA,NA,NA,NA,NA,NA,NA,NA,NA,NA,NA
"208","stim/objects/Instruments/chime2.png",199,10,199,0.9,"stim/54.jpeg",5,4,3,NA,"Instruments",2,2,"right","right",0.541000128,1,1,1,1,NA,NA,NA,NA,NA,NA,NA,NA,NA,NA,NA,NA,NA,NA,NA,NA,NA,NA,NA,NA,NA,NA,NA,NA
"106","stim/objects/HouseObjects/clothesdryingrack2.png",200,10,200,0.9,"stim/63.jpeg",6,3,3,NA,"HouseObjects",1,4,"left","left",0.476000071,1,1,1,1,NA,NA,NA,NA,NA,NA,NA,NA,NA,NA,NA,NA,NA,NA,NA,NA,NA,NA,NA,NA,NA,NA,NA,NA
"48","stim/objects/HouseObjects/basket2.png",201,10,201,0.7,"stim/44.jpeg",4,4,2,NA,"HouseObjects",1,3,"left","left",0.619999886,1,1,1,1,NA,NA,NA,NA,NA,NA,NA,NA,NA,NA,NA,NA,NA,NA,NA,NA,NA,NA,NA,NA,NA,NA,NA,NA
"140","stim/objects/Instruments/balalaika.png",202,10,202,0.5,"stim/13.jpeg",1,3,1,NA,"Instruments",2,3,"right","left",0.632999897,0,0,1,1,NA,NA,NA,NA,NA,NA,NA,NA,NA,NA,NA,NA,NA,NA,NA,NA,NA,NA,NA,NA,NA,NA,NA,NA
"170","stim/objects/Instruments/bassguitar.png",203,10,203,0.5,"stim/22.jpeg",2,2,1,NA,"Instruments",2,1,"right","left",0.59800005,0,0,1,1,NA,NA,NA,NA,NA,NA,NA,NA,NA,NA,NA,NA,NA,NA,NA,NA,NA,NA,NA,NA,NA,NA,NA,NA
"156","stim/objects/Instruments/bassdrum.png",204,10,204,0.5,"stim/21.jpeg",2,1,1,NA,"Instruments",2,2,"right","left",0.539999962,0,0,1,1,NA,NA,NA,NA,NA,NA,NA,NA,NA,NA,NA,NA,NA,NA,NA,NA,NA,NA,NA,NA,NA,NA,NA,NA
"84","stim/objects/HouseObjects/bucket2.png",205,10,205,0.9,"stim/61.jpeg",6,1,3,NA,"HouseObjects",1,3,"left","left",0.542000055,1,1,1,1,NA,NA,NA,NA,NA,NA,NA,NA,NA,NA,NA,NA,NA,NA,NA,NA,NA,NA,NA,NA,NA,NA,NA,NA
"4","stim/objects/HouseObjects/ashtray.png",206,10,206,0.5,"stim/11.jpeg",1,1,1,NA,"HouseObjects",1,2,"left","left",0.570999861,1,1,1,1,NA,NA,NA,NA,NA,NA,NA,NA,NA,NA,NA,NA,NA,NA,NA,NA,NA,NA,NA,NA,NA,NA,NA,NA
"71","stim/objects/HouseObjects/broom.png",207,10,207,0.5,"stim/24.jpeg",2,4,1,NA,"HouseObjects",1,4,"left","left",0.454999924,1,1,1,1,NA,NA,NA,NA,NA,NA,NA,NA,NA,NA,NA,NA,NA,NA,NA,NA,NA,NA,NA,NA,NA,NA,NA,NA
"24","stim/objects/HouseObjects/ballofstring2.png",208,10,208,0.7,"stim/42.jpeg",4,2,2,NA,"HouseObjects",1,3,"left","left",0.625,1,1,1,1,NA,NA,NA,NA,NA,NA,NA,NA,NA,NA,NA,NA,NA,NA,NA,NA,NA,NA,NA,NA,NA,NA,NA,NA
"107","stim/objects/HouseObjects/clothesdryingrack2.png",209,10,209,0.9,"stim/63.jpeg",6,3,3,NA,"HouseObjects",1,2,"left","",NA,0,0,1,1,NA,NA,NA,NA,NA,NA,NA,NA,NA,NA,NA,NA,NA,NA,NA,NA,NA,NA,NA,NA,NA,NA,NA,NA
"231","stim/objects/Instruments/cymbal.png",210,10,210,0.7,"stim/33.jpeg",3,3,2,NA,"Instruments",2,2,"right","right",0.558000088,1,1,1,1,NA,NA,NA,NA,NA,NA,NA,NA,NA,NA,NA,NA,NA,NA,NA,NA,NA,NA,NA,NA,NA,NA,NA,NA
"75","stim/objects/HouseObjects/bucket.png",211,10,211,0.3,"stim/31.jpeg",3,1,2,NA,"HouseObjects",1,2,"left","",NA,0,0,1,1,NA,NA,NA,NA,NA,NA,NA,NA,NA,NA,NA,NA,NA,NA,NA,NA,NA,NA,NA,NA,NA,NA,NA,NA
"117","stim/objects/HouseObjects/clothespin2.png",212,10,212,0.9,"stim/64.jpeg",6,4,3,NA,"HouseObjects",1,1,"left","left",0.536999941,1,1,1,1,NA,NA,NA,NA,NA,NA,NA,NA,NA,NA,NA,NA,NA,NA,NA,NA,NA,NA,NA,NA,NA,NA,NA,NA
"193","stim/objects/Instruments/cello2.png",213,10,213,0.9,"stim/53.jpeg",5,3,3,NA,"Instruments",2,3,"right","right",0.619999886,1,1,1,1,NA,NA,NA,NA,NA,NA,NA,NA,NA,NA,NA,NA,NA,NA,NA,NA,NA,NA,NA,NA,NA,NA,NA,NA
"118","stim/objects/HouseObjects/clothespin2.png",214,10,214,0.9,"stim/64.jpeg",6,4,3,NA,"HouseObjects",1,3,"left","left",0.470999956,1,1,1,1,NA,NA,NA,NA,NA,NA,NA,NA,NA,NA,NA,NA,NA,NA,NA,NA,NA,NA,NA,NA,NA,NA,NA,NA
"149","stim/objects/Instruments/banjo.png",215,10,215,0.5,"stim/14.jpeg",1,4,1,NA,"Instruments",2,1,"right","left",0.420000076,0,0,1,1,NA,NA,NA,NA,NA,NA,NA,NA,NA,NA,NA,NA,NA,NA,NA,NA,NA,NA,NA,NA,NA,NA,NA,NA
"165","stim/objects/Instruments/bassdrum2.png",216,10,216,0.9,"stim/51.jpeg",5,1,3,NA,"Instruments",2,1,"right","right",0.51699996,1,1,1,1,NA,NA,NA,NA,NA,NA,NA,NA,NA,NA,NA,NA,NA,NA,NA,NA,NA,NA,NA,NA,NA,NA,NA,NA
"180","stim/objects/Instruments/bassguitar2.png",217,10,217,0.9,"stim/52.jpeg",5,2,3,NA,"Instruments",2,4,"right","right",0.633000135,1,1,1,1,NA,NA,NA,NA,NA,NA,NA,NA,NA,NA,NA,NA,NA,NA,NA,NA,NA,NA,NA,NA,NA,NA,NA,NA
"12","stim/objects/HouseObjects/ashtray2.png",218,10,218,0.7,"stim/41.jpeg",4,1,2,NA,"HouseObjects",1,4,"left","left",0.490999937,1,1,1,1,NA,NA,NA,NA,NA,NA,NA,NA,NA,NA,NA,NA,NA,NA,NA,NA,NA,NA,NA,NA,NA,NA,NA,NA
"171","stim/objects/Instruments/bassguitar.png",219,10,219,0.5,"stim/22.jpeg",2,2,1,NA,"Instruments",2,1,"right","left",0.666000128,0,0,1,1,NA,NA,NA,NA,NA,NA,NA,NA,NA,NA,NA,NA,NA,NA,NA,NA,NA,NA,NA,NA,NA,NA,NA,NA
"166","stim/objects/Instruments/bassdrum2.png",220,10,220,0.9,"stim/51.jpeg",5,1,3,NA,"Instruments",2,1,"right","right",0.526000023,1,1,1,1,NA,NA,NA,NA,NA,NA,NA,NA,NA,NA,NA,NA,NA,NA,NA,NA,NA,NA,NA,NA,NA,NA,NA,NA
"194","stim/objects/Instruments/cello2.png",221,10,221,0.9,"stim/53.jpeg",5,3,3,NA,"Instruments",2,1,"right","right",0.523000002,1,1,1,1,NA,NA,NA,NA,NA,NA,NA,NA,NA,NA,NA,NA,NA,NA,NA,NA,NA,NA,NA,NA,NA,NA,NA,NA
"223","stim/objects/Instruments/cornet.png",222,10,222,0.7,"stim/32.jpeg",3,2,2,NA,"Instruments",2,4,"right","right",0.59800005,1,1,1,1,NA,NA,NA,NA,NA,NA,NA,NA,NA,NA,NA,NA,NA,NA,NA,NA,NA,NA,NA,NA,NA,NA,NA,NA
"53","stim/objects/HouseObjects/bleachbottle.png",223,10,223,0.5,"stim/21.jpeg",2,1,1,NA,"HouseObjects",1,1,"left","left",0.725000143,1,1,1,1,NA,NA,NA,NA,NA,NA,NA,NA,NA,NA,NA,NA,NA,NA,NA,NA,NA,NA,NA,NA,NA,NA,NA,NA
"198","stim/objects/Instruments/chime.png",224,10,224,0.5,"stim/24.jpeg",2,4,1,NA,"Instruments",2,4,"right","left",0.587000132,0,0,1,1,NA,NA,NA,NA,NA,NA,NA,NA,NA,NA,NA,NA,NA,NA,NA,NA,NA,NA,NA,NA,NA,NA,NA,NA
"96","stim/objects/HouseObjects/clock2.png",225,10,225,0.9,"stim/62.jpeg",6,2,3,NA,"HouseObjects",1,3,"left","left",0.674000025,1,1,1,1,NA,NA,NA,NA,NA,NA,NA,NA,NA,NA,NA,NA,NA,NA,NA,NA,NA,NA,NA,NA,NA,NA,NA,NA
"157","stim/objects/Instruments/bassdrum.png",226,10,226,0.5,"stim/21.jpeg",2,1,1,NA,"Instruments",2,1,"right","left",0.835999966,0,0,1,1,NA,NA,NA,NA,NA,NA,NA,NA,NA,NA,NA,NA,NA,NA,NA,NA,NA,NA,NA,NA,NA,NA,NA,NA
"199","stim/objects/Instruments/chime.png",227,10,227,0.5,"stim/24.jpeg",2,4,1,NA,"Instruments",2,3,"right","",NA,0,0,1,1,NA,NA,NA,NA,NA,NA,NA,NA,NA,NA,NA,NA,NA,NA,NA,NA,NA,NA,NA,NA,NA,NA,NA,NA
"128","stim/objects/Instruments/accordion2.png",228,10,228,0.3,"stim/41.jpeg",4,1,2,NA,"Instruments",2,2,"right","left",0.582999945,0,0,1,1,NA,NA,NA,NA,NA,NA,NA,NA,NA,NA,NA,NA,NA,NA,NA,NA,NA,NA,NA,NA,NA,NA,NA,NA
"60","stim/objects/HouseObjects/blender2.png",229,10,229,0.1,"stim/52.jpeg",5,2,3,NA,"HouseObjects",1,3,"left","left",0.720999956,1,1,1,1,NA,NA,NA,NA,NA,NA,NA,NA,NA,NA,NA,NA,NA,NA,NA,NA,NA,NA,NA,NA,NA,NA,NA,NA
"65","stim/objects/HouseObjects/bottle.png",230,10,230,0.5,"stim/23.jpeg",2,3,1,NA,"HouseObjects",1,2,"left","left",0.605999947,1,1,1,1,NA,NA,NA,NA,NA,NA,NA,NA,NA,NA,NA,NA,NA,NA,NA,NA,NA,NA,NA,NA,NA,NA,NA,NA
"28","stim/objects/HouseObjects/barbecuelighter.png",231,10,231,0.5,"stim/13.jpeg",1,3,1,NA,"HouseObjects",1,3,"left","right",0.685000181,0,0,1,1,NA,NA,NA,NA,NA,NA,NA,NA,NA,NA,NA,NA,NA,NA,NA,NA,NA,NA,NA,NA,NA,NA,NA,NA
"59","stim/objects/HouseObjects/blender.png",232,10,232,0.5,"stim/22.jpeg",2,2,1,NA,"HouseObjects",1,3,"left","left",0.568000078,1,1,1,1,NA,NA,NA,NA,NA,NA,NA,NA,NA,NA,NA,NA,NA,NA,NA,NA,NA,NA,NA,NA,NA,NA,NA,NA
"36","stim/objects/HouseObjects/barbecuelighter2.png",233,10,233,0.7,"stim/43.jpeg",4,3,2,NA,"HouseObjects",1,4,"left","",NA,0,0,1,1,NA,NA,NA,NA,NA,NA,NA,NA,NA,NA,NA,NA,NA,NA,NA,NA,NA,NA,NA,NA,NA,NA,NA,NA
"239","stim/objects/Instruments/doublebass.png",234,10,234,0.7,"stim/34.jpeg",3,4,2,NA,"Instruments",2,4,"right","right",0.476999998,1,1,1,1,NA,NA,NA,NA,NA,NA,NA,NA,NA,NA,NA,NA,NA,NA,NA,NA,NA,NA,NA,NA,NA,NA,NA,NA
"29","stim/objects/HouseObjects/barbecuelighter.png",235,10,235,0.5,"stim/13.jpeg",1,3,1,NA,"HouseObjects",1,3,"left","right",0.680999994,0,0,1,1,NA,NA,NA,NA,NA,NA,NA,NA,NA,NA,NA,NA,NA,NA,NA,NA,NA,NA,NA,NA,NA,NA,NA,NA
"5","stim/objects/HouseObjects/ashtray.png",236,10,236,0.5,"stim/11.jpeg",1,1,1,NA,"HouseObjects",1,4,"left","right",0.625999928,0,0,1,1,NA,NA,NA,NA,NA,NA,NA,NA,NA,NA,NA,NA,NA,NA,NA,NA,NA,NA,NA,NA,NA,NA,NA,NA
"141","stim/objects/Instruments/balalaika.png",237,10,237,0.5,"stim/13.jpeg",1,3,1,NA,"Instruments",2,4,"right","right",0.552999973,1,1,1,1,NA,NA,NA,NA,NA,NA,NA,NA,NA,NA,NA,NA,NA,NA,NA,NA,NA,NA,NA,NA,NA,NA,NA,NA
"119","stim/objects/HouseObjects/clothespin2.png",238,10,238,0.9,"stim/64.jpeg",6,4,3,NA,"HouseObjects",1,3,"left","left",0.506999969,1,1,1,1,NA,NA,NA,NA,NA,NA,NA,NA,NA,NA,NA,NA,NA,NA,NA,NA,NA,NA,NA,NA,NA,NA,NA,NA
"108","stim/objects/HouseObjects/clothesdryingrack2.png",239,10,239,0.9,"stim/63.jpeg",6,3,3,NA,"HouseObjects",1,4,"left","left",0.472999811,1,1,1,1,NA,NA,NA,NA,NA,NA,NA,NA,NA,NA,NA,NA,NA,NA,NA,NA,NA,NA,NA,NA,NA,NA,NA,NA
"120","stim/objects/HouseObjects/clothespin2.png",240,10,240,0.9,"stim/64.jpeg",6,4,3,NA,"HouseObjects",1,1,"left","left",0.500999928,1,1,1,1,NA,NA,NA,NA,NA,NA,NA,NA,NA,NA,NA,NA,NA,NA,NA,NA,NA,NA,NA,NA,NA,NA,NA,NA
"250","stim/objects/HouseObjects/doormat.png",248,10,241,0.5,"stim/11.jpeg",1,1,1,2,"HouseObjects",1,1,"left","",NA,0,0,1,0,NA,NA,NA,NA,NA,NA,NA,NA,NA,NA,NA,NA,NA,NA,NA,NA,NA,NA,NA,NA,NA,NA,NA,NA
"265","stim/objects/HouseObjects/glassmop.png",249,10,242,0.5,"stim/22.jpeg",2,2,1,2,"HouseObjects",1,1,"left","left",0.534000158,1,1,1,0,NA,NA,NA,NA,NA,NA,NA,NA,NA,NA,NA,NA,NA,NA,NA,NA,NA,NA,NA,NA,NA,NA,NA,NA
"568","stim/objects/Instruments/vuvuzela2.png",250,10,243,0.1,"stim/63.jpeg",6,3,3,1,"Instruments",2,2,"right","left",0.526000023,0,0,1,0,147,10,1,0.1,2,"stim/63.jpeg",6,3,"stim/63.jpeg",2,"right",1.000999928,3,2,2.527999878,3,1.527999878,147,0,0,NA,0,NA,1
"417","stim/objects/Instruments/flute2.png",251,10,244,0.7,"stim/32.jpeg",3,2,2,1,"Instruments",2,2,"right","right",0.503000021,1,1,1,0,105,10,1,0.7,2,"stim/32.jpeg",3,2,"stim/32.jpeg",2,"left",1.556999922,2,1,2.822000027,1,2.326999903,105,1,0,0,0,0,1
"508","stim/objects/Instruments/musicstand.png",252,10,245,0.9,"stim/52.jpeg",5,2,3,2,"Instruments",2,3,"right","right",0.542000055,1,1,1,0,NA,NA,NA,NA,NA,NA,NA,NA,NA,NA,NA,NA,NA,NA,NA,NA,NA,NA,NA,NA,NA,NA,NA,NA
"381","stim/objects/HouseObjects/rubbergloves2.png",253,10,246,0.1,"stim/54.jpeg",5,4,3,1,"HouseObjects",1,1,"left","right",0.510999918,0,0,1,0,65,10,1,0.1,1,"stim/54.jpeg",5,4,"stim/54.jpeg",1,"right",1.132999897,2,1,2.065999985,1,3.286999941,65,0,0,NA,1,NA,1
"474","stim/objects/Instruments/metronome.png",254,10,247,0.9,"stim/54.jpeg",5,4,3,2,"Instruments",2,1,"right","right",0.454999924,1,1,1,0,NA,NA,NA,NA,NA,NA,NA,NA,NA,NA,NA,NA,NA,NA,NA,NA,NA,NA,NA,NA,NA,NA,NA,NA
"341","stim/objects/HouseObjects/match2.png",255,10,248,0.1,"stim/53.jpeg",5,3,3,1,"HouseObjects",1,3,"left","right",0.539000034,0,0,1,0,176,10,1,0.1,1,"stim/53.jpeg",5,3,"stim/53.jpeg",3,"left",1.161000013,4,4,2.365999937,3,0.963999987,176,1,0,0,1,1,1
"244","stim/objects/HouseObjects/cushion.png",256,10,249,0.5,"stim/13.jpeg",1,3,1,2,"HouseObjects",1,3,"left","right",0.82400012,0,0,1,0,NA,NA,NA,NA,NA,NA,NA,NA,NA,NA,NA,NA,NA,NA,NA,NA,NA,NA,NA,NA,NA,NA,NA,NA
"509","stim/objects/Instruments/musicstand.png",257,10,250,0.9,"stim/51.jpeg",5,1,3,2,"Instruments",2,4,"right","left",0.803999901,0,0,1,0,NA,NA,NA,NA,NA,NA,NA,NA,NA,NA,NA,NA,NA,NA,NA,NA,NA,NA,NA,NA,NA,NA,NA,NA
"247","stim/objects/HouseObjects/dishsoap.png",258,10,251,0.5,"stim/13.jpeg",1,3,1,2,"HouseObjects",1,4,"left","left",0.526000023,1,1,1,0,NA,NA,NA,NA,NA,NA,NA,NA,NA,NA,NA,NA,NA,NA,NA,NA,NA,NA,NA,NA,NA,NA,NA,NA
"490","stim/objects/Instruments/musicsheet.png",259,10,252,0.9,"stim/51.jpeg",5,1,3,2,"Instruments",2,2,"right","left",0.569999933,0,0,1,0,NA,NA,NA,NA,NA,NA,NA,NA,NA,NA,NA,NA,NA,NA,NA,NA,NA,NA,NA,NA,NA,NA,NA,NA
"385","stim/objects/HouseObjects/safetypin2.png",260,10,253,0.1,"stim/52.jpeg",5,2,3,1,"HouseObjects",1,4,"left","left",0.491999865,1,1,1,0,14,10,1,0.1,1,"stim/52.jpeg",5,2,"stim/52.jpeg",4,"left",0.832000017,4,4,2.174999952,3,5.226000071,14,1,0,0,0,0,1
"325","stim/objects/HouseObjects/match.png",261,10,254,0.9,"stim/61.jpeg",6,1,3,2,"HouseObjects",1,1,"left","left",0.496999979,1,1,1,0,NA,NA,NA,NA,NA,NA,NA,NA,NA,NA,NA,NA,NA,NA,NA,NA,NA,NA,NA,NA,NA,NA,NA,NA
"475","stim/objects/Instruments/metronome.png",262,10,255,0.9,"stim/53.jpeg",5,3,3,2,"Instruments",2,3,"right","left",0.434000015,0,0,1,0,NA,NA,NA,NA,NA,NA,NA,NA,NA,NA,NA,NA,NA,NA,NA,NA,NA,NA,NA,NA,NA,NA,NA,NA
"456","stim/objects/Instruments/marimba.png",263,10,256,0.9,"stim/51.jpeg",5,1,3,2,"Instruments",2,3,"right","left",0.43599987,0,0,1,0,NA,NA,NA,NA,NA,NA,NA,NA,NA,NA,NA,NA,NA,NA,NA,NA,NA,NA,NA,NA,NA,NA,NA,NA
"489","stim/objects/Instruments/metronome2.png",264,10,257,0.9,"stim/54.jpeg",5,4,3,1,"Instruments",2,3,"right","left",0.500999928,0,0,1,0,63,10,1,0.9,2,"stim/54.jpeg",5,4,"stim/54.jpeg",3,"right",2.15199995,3,1,2.635999918,2,0.286999941,63,0,0,NA,0,NA,1
"275","stim/objects/HouseObjects/handvacuum.png",265,10,258,0.7,"stim/43.jpeg",4,3,2,2,"HouseObjects",1,4,"left","left",0.48300004,1,1,1,0,NA,NA,NA,NA,NA,NA,NA,NA,NA,NA,NA,NA,NA,NA,NA,NA,NA,NA,NA,NA,NA,NA,NA,NA
"261","stim/objects/HouseObjects/garbagebin2.png",266,10,259,0.7,"stim/41.jpeg",4,1,2,1,"HouseObjects",1,1,"left","left",0.376999855,1,1,1,0,152,10,1,0.7,1,"stim/41.jpeg",4,1,"stim/41.jpeg",1,"left",1.089999914,3,4,3.907999992,3,1.074999809,152,1,0,0,0,0,1
"343","stim/objects/HouseObjects/pan.png",267,10,260,0.9,"stim/62.jpeg",6,2,3,2,"HouseObjects",1,2,"left","left",0.352999926,1,1,1,0,NA,NA,NA,NA,NA,NA,NA,NA,NA,NA,NA,NA,NA,NA,NA,NA,NA,NA,NA,NA,NA,NA,NA,NA
"380","stim/objects/HouseObjects/rubbergloves.png",268,10,261,0.5,"stim/11.jpeg",1,1,1,1,"HouseObjects",1,4,"left","left",0.563999891,1,1,1,0,48,10,1,0.5,1,"stim/11.jpeg",1,1,"stim/11.jpeg",4,"left",1.169999838,2,1,2.736000061,4,2.937999964,48,1,1,1,1,1,1
"268","stim/objects/HouseObjects/hairdryer.png",269,10,262,0.5,"stim/24.jpeg",2,4,1,2,"HouseObjects",1,2,"left","left",0.308000088,1,1,1,0,NA,NA,NA,NA,NA,NA,NA,NA,NA,NA,NA,NA,NA,NA,NA,NA,NA,NA,NA,NA,NA,NA,NA,NA
"269","stim/objects/HouseObjects/hairdryer.png",270,10,263,0.5,"stim/23.jpeg",2,3,1,2,"HouseObjects",1,4,"left","left",0.256000042,1,1,1,0,NA,NA,NA,NA,NA,NA,NA,NA,NA,NA,NA,NA,NA,NA,NA,NA,NA,NA,NA,NA,NA,NA,NA,NA
"359","stim/objects/HouseObjects/pitcher.png",271,10,264,0.9,"stim/63.jpeg",6,3,3,2,"HouseObjects",1,2,"left","left",0.493000031,1,1,1,0,NA,NA,NA,NA,NA,NA,NA,NA,NA,NA,NA,NA,NA,NA,NA,NA,NA,NA,NA,NA,NA,NA,NA,NA
"525","stim/objects/Instruments/oboe.png",272,10,265,0.9,"stim/53.jpeg",5,3,3,2,"Instruments",2,4,"right","left",0.320000172,0,0,1,0,NA,NA,NA,NA,NA,NA,NA,NA,NA,NA,NA,NA,NA,NA,NA,NA,NA,NA,NA,NA,NA,NA,NA,NA
"344","stim/objects/HouseObjects/pan.png",273,10,266,0.9,"stim/63.jpeg",6,3,3,2,"HouseObjects",1,1,"left","left",0.271999836,1,1,1,0,NA,NA,NA,NA,NA,NA,NA,NA,NA,NA,NA,NA,NA,NA,NA,NA,NA,NA,NA,NA,NA,NA,NA,NA
"433","stim/objects/Instruments/harmonica.png",274,10,267,0.5,"stim/22.jpeg",2,2,1,2,"Instruments",2,3,"right","left",0.529000044,0,0,1,0,NA,NA,NA,NA,NA,NA,NA,NA,NA,NA,NA,NA,NA,NA,NA,NA,NA,NA,NA,NA,NA,NA,NA,NA
"379","stim/objects/HouseObjects/remote2.png",275,10,268,0.1,"stim/53.jpeg",5,3,3,1,"HouseObjects",1,1,"left","left",0.350000143,1,1,1,0,148,10,1,0.1,1,"stim/53.jpeg",5,3,"stim/53.jpeg",1,"right",0.98300004,1,2,3.445999861,3,1.922999859,148,0,0,NA,0,NA,1
"360","stim/objects/HouseObjects/pitcher.png",276,10,269,0.9,"stim/61.jpeg",6,1,3,2,"HouseObjects",1,3,"left","left",0.421000004,1,1,1,0,NA,NA,NA,NA,NA,NA,NA,NA,NA,NA,NA,NA,NA,NA,NA,NA,NA,NA,NA,NA,NA,NA,NA,NA
"563","stim/objects/Instruments/tuba.png",277,10,270,0.7,"stim/33.jpeg",3,3,2,1,"Instruments",2,4,"right","left",0.440999985,0,0,1,0,172,10,1,0.7,2,"stim/33.jpeg",3,3,"stim/33.jpeg",4,"left",1.111999989,4,3,1.79399991,3,1.515999794,172,1,1,1,0,0,1
"412","stim/objects/Instruments/electricguitar.png",278,10,271,0.5,"stim/12.jpeg",1,2,1,2,"Instruments",2,2,"right","left",0.490999937,0,0,1,0,NA,NA,NA,NA,NA,NA,NA,NA,NA,NA,NA,NA,NA,NA,NA,NA,NA,NA,NA,NA,NA,NA,NA,NA
"361","stim/objects/HouseObjects/pitcher.png",279,10,272,0.9,"stim/61.jpeg",6,1,3,2,"HouseObjects",1,3,"left","left",0.510999918,1,1,1,0,NA,NA,NA,NA,NA,NA,NA,NA,NA,NA,NA,NA,NA,NA,NA,NA,NA,NA,NA,NA,NA,NA,NA,NA
"569","stim/objects/Instruments/xylophone.png",280,10,273,0.7,"stim/32.jpeg",3,2,2,1,"Instruments",2,2,"right","",NA,0,0,1,0,117,10,1,0.7,2,"stim/32.jpeg",3,2,"stim/32.jpeg",2,"right",1.129999876,2,4,2.598999977,1,2.243999958,117,0,0,NA,0,NA,1
"492","stim/objects/Instruments/musicsheet.png",281,10,274,0.9,"stim/52.jpeg",5,2,3,2,"Instruments",2,2,"right","",NA,0,0,1,0,NA,NA,NA,NA,NA,NA,NA,NA,NA,NA,NA,NA,NA,NA,NA,NA,NA,NA,NA,NA,NA,NA,NA,NA
"309","stim/objects/HouseObjects/lintroller.png",282,10,275,0.9,"stim/64.jpeg",6,4,3,2,"HouseObjects",1,3,"left","left",0.381000042,1,1,1,0,NA,NA,NA,NA,NA,NA,NA,NA,NA,NA,NA,NA,NA,NA,NA,NA,NA,NA,NA,NA,NA,NA,NA,NA
"458","stim/objects/Instruments/marimba.png",283,10,276,0.9,"stim/51.jpeg",5,1,3,2,"Instruments",2,3,"right","right",0.478000164,1,1,1,0,NA,NA,NA,NA,NA,NA,NA,NA,NA,NA,NA,NA,NA,NA,NA,NA,NA,NA,NA,NA,NA,NA,NA,NA
"362","stim/objects/HouseObjects/pitcher.png",284,10,277,0.9,"stim/63.jpeg",6,3,3,2,"HouseObjects",1,3,"left","left",0.559999943,1,1,1,0,NA,NA,NA,NA,NA,NA,NA,NA,NA,NA,NA,NA,NA,NA,NA,NA,NA,NA,NA,NA,NA,NA,NA,NA
"436","stim/objects/Instruments/harp.png",285,10,278,0.7,"stim/31.jpeg",3,1,2,2,"Instruments",2,3,"right","right",0.741999865,1,1,1,0,NA,NA,NA,NA,NA,NA,NA,NA,NA,NA,NA,NA,NA,NA,NA,NA,NA,NA,NA,NA,NA,NA,NA,NA
"546","stim/objects/Instruments/record_player2.png",286,10,279,0.9,"stim/53.jpeg",5,3,3,1,"Instruments",2,2,"right","right",0.470000029,1,1,1,0,94,10,1,0.9,2,"stim/53.jpeg",5,3,"stim/53.jpeg",2,"left",1.26699996,3,3,4.794999838,2,2.652999878,94,1,1,1,1,1,1
"326","stim/objects/HouseObjects/match.png",287,10,280,0.9,"stim/64.jpeg",6,4,3,2,"HouseObjects",1,1,"left","right",0.641000032,0,0,1,0,NA,NA,NA,NA,NA,NA,NA,NA,NA,NA,NA,NA,NA,NA,NA,NA,NA,NA,NA,NA,NA,NA,NA,NA
"526","stim/objects/Instruments/oboe.png",288,10,281,0.9,"stim/51.jpeg",5,1,3,2,"Instruments",2,3,"right","right",0.710000038,1,1,1,0,NA,NA,NA,NA,NA,NA,NA,NA,NA,NA,NA,NA,NA,NA,NA,NA,NA,NA,NA,NA,NA,NA,NA,NA
"327","stim/objects/HouseObjects/match.png",289,10,282,0.9,"stim/62.jpeg",6,2,3,2,"HouseObjects",1,4,"left","left",0.503000021,1,1,1,0,NA,NA,NA,NA,NA,NA,NA,NA,NA,NA,NA,NA,NA,NA,NA,NA,NA,NA,NA,NA,NA,NA,NA,NA
"557","stim/objects/Instruments/triangle.png",290,10,283,0.5,"stim/23.jpeg",2,3,1,1,"Instruments",2,2,"right","left",0.781000137,0,0,1,0,183,10,1,0.5,2,"stim/23.jpeg",2,3,"stim/23.jpeg",2,"right",1.508999825,3,1,3.629999876,1,2.859999895,183,0,0,NA,0,NA,1
"292","stim/objects/HouseObjects/knife.png",291,10,284,0.9,"stim/63.jpeg",6,3,3,2,"HouseObjects",1,1,"left","left",0.486999989,1,1,1,0,NA,NA,NA,NA,NA,NA,NA,NA,NA,NA,NA,NA,NA,NA,NA,NA,NA,NA,NA,NA,NA,NA,NA,NA
"427","stim/objects/Instruments/grandpiano.png",292,10,285,0.5,"stim/21.jpeg",2,1,1,2,"Instruments",2,3,"right","left",0.532000065,0,0,1,0,NA,NA,NA,NA,NA,NA,NA,NA,NA,NA,NA,NA,NA,NA,NA,NA,NA,NA,NA,NA,NA,NA,NA,NA
"310","stim/objects/HouseObjects/lintroller.png",293,10,286,0.9,"stim/62.jpeg",6,2,3,2,"HouseObjects",1,3,"left","left",0.46600008,1,1,1,0,NA,NA,NA,NA,NA,NA,NA,NA,NA,NA,NA,NA,NA,NA,NA,NA,NA,NA,NA,NA,NA,NA,NA,NA
"424","stim/objects/Instruments/gong.png",294,10,287,0.5,"stim/23.jpeg",2,3,1,2,"Instruments",2,2,"right","right",0.681999922,1,1,1,0,NA,NA,NA,NA,NA,NA,NA,NA,NA,NA,NA,NA,NA,NA,NA,NA,NA,NA,NA,NA,NA,NA,NA,NA
"329","stim/objects/HouseObjects/match.png",295,10,288,0.9,"stim/61.jpeg",6,1,3,2,"HouseObjects",1,3,"left","left",0.440999985,1,1,1,0,NA,NA,NA,NA,NA,NA,NA,NA,NA,NA,NA,NA,NA,NA,NA,NA,NA,NA,NA,NA,NA,NA,NA,NA
"476","stim/objects/Instruments/metronome.png",296,10,289,0.9,"stim/53.jpeg",5,3,3,2,"Instruments",2,2,"right","right",0.572999954,1,1,1,0,NA,NA,NA,NA,NA,NA,NA,NA,NA,NA,NA,NA,NA,NA,NA,NA,NA,NA,NA,NA,NA,NA,NA,NA
"459","stim/objects/Instruments/marimba.png",297,10,290,0.9,"stim/53.jpeg",5,3,3,2,"Instruments",2,1,"right","right",0.536999941,1,1,1,0,NA,NA,NA,NA,NA,NA,NA,NA,NA,NA,NA,NA,NA,NA,NA,NA,NA,NA,NA,NA,NA,NA,NA,NA
"266","stim/objects/HouseObjects/glassmop.png",298,10,291,0.5,"stim/23.jpeg",2,3,1,2,"HouseObjects",1,3,"left","left",0.671000004,1,1,1,0,NA,NA,NA,NA,NA,NA,NA,NA,NA,NA,NA,NA,NA,NA,NA,NA,NA,NA,NA,NA,NA,NA,NA,NA
"363","stim/objects/HouseObjects/pitcher.png",299,10,292,0.9,"stim/64.jpeg",6,4,3,2,"HouseObjects",1,2,"left","",NA,0,0,1,0,NA,NA,NA,NA,NA,NA,NA,NA,NA,NA,NA,NA,NA,NA,NA,NA,NA,NA,NA,NA,NA,NA,NA,NA
"425","stim/objects/Instruments/gong.png",300,10,293,0.5,"stim/24.jpeg",2,4,1,2,"Instruments",2,2,"right","left",0.694000006,0,0,1,0,NA,NA,NA,NA,NA,NA,NA,NA,NA,NA,NA,NA,NA,NA,NA,NA,NA,NA,NA,NA,NA,NA,NA,NA
"440","stim/objects/Instruments/hihat.png",301,10,294,0.7,"stim/31.jpeg",3,1,2,2,"Instruments",2,4,"right","left",0.470000029,0,0,1,0,NA,NA,NA,NA,NA,NA,NA,NA,NA,NA,NA,NA,NA,NA,NA,NA,NA,NA,NA,NA,NA,NA,NA,NA
"493","stim/objects/Instruments/musicsheet.png",302,10,295,0.9,"stim/52.jpeg",5,2,3,2,"Instruments",2,4,"right","left",0.593000174,0,0,1,0,NA,NA,NA,NA,NA,NA,NA,NA,NA,NA,NA,NA,NA,NA,NA,NA,NA,NA,NA,NA,NA,NA,NA,NA
"494","stim/objects/Instruments/musicsheet.png",303,10,296,0.9,"stim/54.jpeg",5,4,3,2,"Instruments",2,2,"right","right",0.572999954,1,1,1,0,NA,NA,NA,NA,NA,NA,NA,NA,NA,NA,NA,NA,NA,NA,NA,NA,NA,NA,NA,NA,NA,NA,NA,NA
"364","stim/objects/HouseObjects/pitcher.png",304,10,297,0.9,"stim/62.jpeg",6,2,3,2,"HouseObjects",1,1,"left","left",0.508000135,1,1,1,0,NA,NA,NA,NA,NA,NA,NA,NA,NA,NA,NA,NA,NA,NA,NA,NA,NA,NA,NA,NA,NA,NA,NA,NA
"510","stim/objects/Instruments/musicstand.png",305,10,298,0.9,"stim/54.jpeg",5,4,3,2,"Instruments",2,3,"right","right",0.470000029,1,1,1,0,NA,NA,NA,NA,NA,NA,NA,NA,NA,NA,NA,NA,NA,NA,NA,NA,NA,NA,NA,NA,NA,NA,NA,NA
"345","stim/objects/HouseObjects/pan.png",306,10,299,0.9,"stim/61.jpeg",6,1,3,2,"HouseObjects",1,1,"left","left",0.416000128,1,1,1,0,NA,NA,NA,NA,NA,NA,NA,NA,NA,NA,NA,NA,NA,NA,NA,NA,NA,NA,NA,NA,NA,NA,NA,NA
"527","stim/objects/Instruments/oboe.png",307,10,300,0.9,"stim/51.jpeg",5,1,3,2,"Instruments",2,3,"right","right",0.549000025,1,1,1,0,NA,NA,NA,NA,NA,NA,NA,NA,NA,NA,NA,NA,NA,NA,NA,NA,NA,NA,NA,NA,NA,NA,NA,NA
"449","stim/objects/Instruments/laud.png",308,10,301,0.7,"stim/34.jpeg",3,4,2,2,"Instruments",2,3,"right","right",0.596999884,1,1,1,0,NA,NA,NA,NA,NA,NA,NA,NA,NA,NA,NA,NA,NA,NA,NA,NA,NA,NA,NA,NA,NA,NA,NA,NA
"392","stim/objects/HouseObjects/spraybottle.png",309,10,302,0.5,"stim/24.jpeg",2,4,1,1,"HouseObjects",1,3,"left","left",0.578999996,1,1,1,0,34,10,1,0.5,2,"stim/24.jpeg",2,4,"stim/24.jpeg",3,"left",1.647000074,2,1,5.165999889,2,3.980000019,34,1,0,0,0,0,1
"365","stim/objects/HouseObjects/pitcher.png",310,10,303,0.9,"stim/61.jpeg",6,1,3,2,"HouseObjects",1,1,"left","right",0.5,0,0,1,0,NA,NA,NA,NA,NA,NA,NA,NA,NA,NA,NA,NA,NA,NA,NA,NA,NA,NA,NA,NA,NA,NA,NA,NA
"566","stim/objects/Instruments/violin2.png",311,10,304,0.1,"stim/62.jpeg",6,2,3,1,"Instruments",2,4,"right","left",0.587000132,0,0,1,0,177,10,1,0.1,2,"stim/62.jpeg",6,2,"stim/62.jpeg",4,"left",1.066999912,3,3,1.795999765,1,1.797999859,177,1,0,0,0,0,1
"512","stim/objects/Instruments/musicstand.png",312,10,305,0.9,"stim/54.jpeg",5,4,3,2,"Instruments",2,4,"right","right",0.517000198,1,1,1,0,NA,NA,NA,NA,NA,NA,NA,NA,NA,NA,NA,NA,NA,NA,NA,NA,NA,NA,NA,NA,NA,NA,NA,NA
"252","stim/objects/HouseObjects/doormat2.png",313,10,306,0.3,"stim/31.jpeg",3,1,2,1,"HouseObjects",1,3,"left","right",0.55099988,0,0,1,0,26,10,1,0.3,1,"stim/31.jpeg",3,1,"stim/31.jpeg",3,"left",2.082999706,2,4,3.599999905,1,3.645999908,26,1,0,0,0,0,1
"242","stim/objects/HouseObjects/coffee.png",314,10,307,0.5,"stim/11.jpeg",1,1,1,2,"HouseObjects",1,2,"left","left",0.49000001,1,1,1,0,NA,NA,NA,NA,NA,NA,NA,NA,NA,NA,NA,NA,NA,NA,NA,NA,NA,NA,NA,NA,NA,NA,NA,NA
"346","stim/objects/HouseObjects/pan.png",315,10,308,0.9,"stim/64.jpeg",6,4,3,2,"HouseObjects",1,1,"left","",NA,0,0,1,0,NA,NA,NA,NA,NA,NA,NA,NA,NA,NA,NA,NA,NA,NA,NA,NA,NA,NA,NA,NA,NA,NA,NA,NA
"477","stim/objects/Instruments/metronome.png",316,10,309,0.9,"stim/53.jpeg",5,3,3,2,"Instruments",2,2,"right","right",0.384000063,1,1,1,0,NA,NA,NA,NA,NA,NA,NA,NA,NA,NA,NA,NA,NA,NA,NA,NA,NA,NA,NA,NA,NA,NA,NA,NA
"551","stim/objects/Instruments/speaker.png",317,10,310,0.5,"stim/24.jpeg",2,4,1,1,"Instruments",2,1,"right","left",0.558000088,0,0,1,0,155,10,1,0.5,2,"stim/24.jpeg",2,4,"stim/24.jpeg",1,"right",0.941999912,3,3,1.512999773,4,0.812999725,155,0,0,NA,0,NA,1
"528","stim/objects/Instruments/oboe.png",318,10,311,0.9,"stim/53.jpeg",5,3,3,2,"Instruments",2,1,"right","right",0.56400013,1,1,1,0,NA,NA,NA,NA,NA,NA,NA,NA,NA,NA,NA,NA,NA,NA,NA,NA,NA,NA,NA,NA,NA,NA,NA,NA
"358","stim/objects/HouseObjects/pan2.png",319,10,312,0.1,"stim/54.jpeg",5,4,3,1,"HouseObjects",1,3,"left","right",0.638999939,0,0,1,0,149,10,1,0.1,1,"stim/54.jpeg",5,4,"stim/54.jpeg",3,"left",2.322999954,3,1,3.572999954,2,1.051999807,149,1,0,0,0,0,1
"448","stim/objects/Instruments/laud.png",320,10,313,0.7,"stim/33.jpeg",3,3,2,2,"Instruments",2,3,"right","right",0.802000046,1,1,1,0,NA,NA,NA,NA,NA,NA,NA,NA,NA,NA,NA,NA,NA,NA,NA,NA,NA,NA,NA,NA,NA,NA,NA,NA
"529","stim/objects/Instruments/oboe.png",321,10,314,0.9,"stim/51.jpeg",5,1,3,2,"Instruments",2,1,"right","right",0.555999994,1,1,1,0,NA,NA,NA,NA,NA,NA,NA,NA,NA,NA,NA,NA,NA,NA,NA,NA,NA,NA,NA,NA,NA,NA,NA,NA
"495","stim/objects/Instruments/musicsheet.png",322,10,315,0.9,"stim/53.jpeg",5,3,3,2,"Instruments",2,3,"right","right",0.467999935,1,1,1,0,NA,NA,NA,NA,NA,NA,NA,NA,NA,NA,NA,NA,NA,NA,NA,NA,NA,NA,NA,NA,NA,NA,NA,NA
"366","stim/objects/HouseObjects/pitcher.png",323,10,316,0.9,"stim/62.jpeg",6,2,3,2,"HouseObjects",1,3,"left","left",0.510999918,1,1,1,0,NA,NA,NA,NA,NA,NA,NA,NA,NA,NA,NA,NA,NA,NA,NA,NA,NA,NA,NA,NA,NA,NA,NA,NA
"271","stim/objects/HouseObjects/handbrush.png",324,10,317,0.7,"stim/41.jpeg",4,1,2,2,"HouseObjects",1,2,"left","left",0.728000164,1,1,1,0,NA,NA,NA,NA,NA,NA,NA,NA,NA,NA,NA,NA,NA,NA,NA,NA,NA,NA,NA,NA,NA,NA,NA,NA
"330","stim/objects/HouseObjects/match.png",325,10,318,0.9,"stim/62.jpeg",6,2,3,2,"HouseObjects",1,3,"left","left",0.492000103,1,1,1,0,NA,NA,NA,NA,NA,NA,NA,NA,NA,NA,NA,NA,NA,NA,NA,NA,NA,NA,NA,NA,NA,NA,NA,NA
"390","stim/objects/HouseObjects/sponge.png",326,10,319,0.5,"stim/23.jpeg",2,3,1,1,"HouseObjects",1,3,"left","left",0.563999891,1,1,1,0,11,10,1,0.5,2,"stim/23.jpeg",2,3,"stim/23.jpeg",3,"left",0.880999804,4,1,4.040999889,1,3.036000013,11,1,0,0,0,0,1
"462","stim/objects/Instruments/marimba.png",327,10,320,0.9,"stim/53.jpeg",5,3,3,2,"Instruments",2,2,"right","right",0.572999954,1,1,1,0,NA,NA,NA,NA,NA,NA,NA,NA,NA,NA,NA,NA,NA,NA,NA,NA,NA,NA,NA,NA,NA,NA,NA,NA
"331","stim/objects/HouseObjects/match.png",328,10,321,0.9,"stim/63.jpeg",6,3,3,2,"HouseObjects",1,1,"left","left",0.488999844,1,1,1,0,NA,NA,NA,NA,NA,NA,NA,NA,NA,NA,NA,NA,NA,NA,NA,NA,NA,NA,NA,NA,NA,NA,NA,NA
"556","stim/objects/Instruments/timbal2.png",329,10,322,0.1,"stim/61.jpeg",6,1,3,1,"Instruments",2,2,"right","left",0.359999895,0,0,1,0,194,10,1,0.1,2,"stim/61.jpeg",6,1,"stim/61.jpeg",2,"right",1.129999876,2,2,1.262999773,1,2.458999872,194,0,0,NA,0,NA,1
"513","stim/objects/Instruments/musicstand.png",330,10,323,0.9,"stim/53.jpeg",5,3,3,2,"Instruments",2,3,"right","right",0.566999912,1,1,1,0,NA,NA,NA,NA,NA,NA,NA,NA,NA,NA,NA,NA,NA,NA,NA,NA,NA,NA,NA,NA,NA,NA,NA,NA
"437","stim/objects/Instruments/harp.png",331,10,324,0.7,"stim/33.jpeg",3,3,2,2,"Instruments",2,2,"right","right",0.440999985,1,1,1,0,NA,NA,NA,NA,NA,NA,NA,NA,NA,NA,NA,NA,NA,NA,NA,NA,NA,NA,NA,NA,NA,NA,NA,NA
"541","stim/objects/Instruments/panflute.png",332,10,325,0.5,"stim/12.jpeg",1,2,1,1,"Instruments",2,1,"right","left",0.546000004,0,0,1,0,43,10,1,0.5,1,"stim/12.jpeg",1,2,"stim/12.jpeg",1,"left",1.214999914,4,3,2.855999947,4,1.256999969,43,1,0,0,0,0,1
"398","stim/objects/HouseObjects/thread.png",333,10,326,0.3,"stim/32.jpeg",3,2,2,1,"HouseObjects",1,1,"left","right",0.521999836,0,0,1,0,143,10,1,0.3,1,"stim/32.jpeg",3,2,"stim/32.jpeg",1,"left",1.652999878,4,1,2.547999859,4,2.520999908,143,1,0,0,0,0,1
"274","stim/objects/HouseObjects/handbrush2.png",334,10,327,0.7,"stim/41.jpeg",4,1,2,1,"HouseObjects",1,1,"left","left",0.548000097,1,1,1,0,107,10,1,0.7,1,"stim/41.jpeg",4,1,"stim/41.jpeg",1,"left",1.231999874,2,2,3.152999878,3,1.791999817,107,1,0,0,0,0,1
"396","stim/objects/HouseObjects/thermometer.png",335,10,328,0.3,"stim/31.jpeg",3,1,2,1,"HouseObjects",1,1,"left","right",0.556999922,0,0,1,0,64,10,1,0.3,1,"stim/31.jpeg",3,1,"stim/31.jpeg",1,"left",2.040999889,2,4,2.341999769,2,3.684999943,64,1,0,0,0,0,1
"429","stim/objects/Instruments/grandpiano2.png",336,10,329,0.3,"stim/44.jpeg",4,4,2,1,"Instruments",2,4,"right","left",0.636999846,0,0,1,0,134,10,1,0.3,2,"stim/44.jpeg",4,4,"stim/44.jpeg",4,"right",0.766000032,1,4,2.323999882,4,1.769999981,134,0,1,NA,1,NA,1
"347","stim/objects/HouseObjects/pan.png",337,10,330,0.9,"stim/62.jpeg",6,2,3,2,"HouseObjects",1,4,"left","left",0.453000069,1,1,1,0,NA,NA,NA,NA,NA,NA,NA,NA,NA,NA,NA,NA,NA,NA,NA,NA,NA,NA,NA,NA,NA,NA,NA,NA
"312","stim/objects/HouseObjects/lintroller.png",338,10,331,0.9,"stim/62.jpeg",6,2,3,2,"HouseObjects",1,1,"left","left",0.404000044,1,1,1,0,NA,NA,NA,NA,NA,NA,NA,NA,NA,NA,NA,NA,NA,NA,NA,NA,NA,NA,NA,NA,NA,NA,NA,NA
"479","stim/objects/Instruments/metronome.png",339,10,332,0.9,"stim/52.jpeg",5,2,3,2,"Instruments",2,4,"right","left",0.710000038,0,0,1,0,NA,NA,NA,NA,NA,NA,NA,NA,NA,NA,NA,NA,NA,NA,NA,NA,NA,NA,NA,NA,NA,NA,NA,NA
"262","stim/objects/HouseObjects/glass.png",340,10,333,0.5,"stim/22.jpeg",2,2,1,2,"HouseObjects",1,4,"left","left",0.618999958,1,1,1,0,NA,NA,NA,NA,NA,NA,NA,NA,NA,NA,NA,NA,NA,NA,NA,NA,NA,NA,NA,NA,NA,NA,NA,NA
"253","stim/objects/HouseObjects/dustpan.png",341,10,334,0.5,"stim/12.jpeg",1,2,1,2,"HouseObjects",1,3,"left","right",0.771000147,0,0,1,0,NA,NA,NA,NA,NA,NA,NA,NA,NA,NA,NA,NA,NA,NA,NA,NA,NA,NA,NA,NA,NA,NA,NA,NA
"415","stim/objects/Instruments/flute.png",342,10,335,0.5,"stim/14.jpeg",1,4,1,2,"Instruments",2,3,"right","left",0.828999996,0,0,1,0,NA,NA,NA,NA,NA,NA,NA,NA,NA,NA,NA,NA,NA,NA,NA,NA,NA,NA,NA,NA,NA,NA,NA,NA
"294","stim/objects/HouseObjects/knife.png",343,10,336,0.9,"stim/62.jpeg",6,2,3,2,"HouseObjects",1,4,"left","left",0.477999926,1,1,1,0,NA,NA,NA,NA,NA,NA,NA,NA,NA,NA,NA,NA,NA,NA,NA,NA,NA,NA,NA,NA,NA,NA,NA,NA
"561","stim/objects/Instruments/trumpet.png",344,10,337,0.7,"stim/32.jpeg",3,2,2,1,"Instruments",2,2,"right","right",0.518000126,1,1,1,0,169,10,1,0.7,2,"stim/32.jpeg",3,2,"stim/32.jpeg",2,"left",1.25999999,4,3,2.165999889,4,3.035000086,169,1,0,0,0,0,1
"452","stim/objects/Instruments/maraca.png",345,10,338,0.7,"stim/31.jpeg",3,1,2,2,"Instruments",2,1,"right","right",0.369999886,1,1,1,0,NA,NA,NA,NA,NA,NA,NA,NA,NA,NA,NA,NA,NA,NA,NA,NA,NA,NA,NA,NA,NA,NA,NA,NA
"295","stim/objects/HouseObjects/knife.png",346,10,339,0.9,"stim/64.jpeg",6,4,3,2,"HouseObjects",1,4,"left","left",0.477999926,1,1,1,0,NA,NA,NA,NA,NA,NA,NA,NA,NA,NA,NA,NA,NA,NA,NA,NA,NA,NA,NA,NA,NA,NA,NA,NA
"530","stim/objects/Instruments/oboe.png",347,10,340,0.9,"stim/54.jpeg",5,4,3,2,"Instruments",2,3,"right","left",0.546999931,0,0,1,0,NA,NA,NA,NA,NA,NA,NA,NA,NA,NA,NA,NA,NA,NA,NA,NA,NA,NA,NA,NA,NA,NA,NA,NA
"258","stim/objects/HouseObjects/flyswatter2.png",348,10,341,0.7,"stim/44.jpeg",4,4,2,1,"HouseObjects",1,1,"left","left",0.595000029,1,1,1,0,188,10,1,0.7,1,"stim/44.jpeg",4,4,"stim/44.jpeg",1,"left",1.063999891,2,1,3.320999861,4,2.461999893,188,1,0,0,0,0,1
"453","stim/objects/Instruments/maraca.png",349,10,342,0.7,"stim/34.jpeg",3,4,2,2,"Instruments",2,2,"right","right",0.480999947,1,1,1,0,NA,NA,NA,NA,NA,NA,NA,NA,NA,NA,NA,NA,NA,NA,NA,NA,NA,NA,NA,NA,NA,NA,NA,NA
"384","stim/objects/HouseObjects/safetypin.png",350,10,343,0.5,"stim/13.jpeg",1,3,1,1,"HouseObjects",1,1,"left","",NA,0,0,1,0,154,10,1,0.5,1,"stim/13.jpeg",1,3,"stim/13.jpeg",1,"right",1.357999802,1,3,2.427000046,3,1.006000042,154,0,1,NA,0,NA,1
"279","stim/objects/HouseObjects/iron.png",351,10,344,0.7,"stim/43.jpeg",4,3,2,2,"HouseObjects",1,3,"left","right",0.600000143,0,0,1,0,NA,NA,NA,NA,NA,NA,NA,NA,NA,NA,NA,NA,NA,NA,NA,NA,NA,NA,NA,NA,NA,NA,NA,NA
"497","stim/objects/Instruments/musicsheet.png",352,10,345,0.9,"stim/51.jpeg",5,1,3,2,"Instruments",2,4,"right","right",0.532999992,1,1,1,0,NA,NA,NA,NA,NA,NA,NA,NA,NA,NA,NA,NA,NA,NA,NA,NA,NA,NA,NA,NA,NA,NA,NA,NA
"498","stim/objects/Instruments/musicsheet.png",353,10,346,0.9,"stim/52.jpeg",5,2,3,2,"Instruments",2,2,"right","right",0.430999994,1,1,1,0,NA,NA,NA,NA,NA,NA,NA,NA,NA,NA,NA,NA,NA,NA,NA,NA,NA,NA,NA,NA,NA,NA,NA,NA
"532","stim/objects/Instruments/oboe.png",354,10,347,0.9,"stim/54.jpeg",5,4,3,2,"Instruments",2,1,"right","right",0.482000113,1,1,1,0,NA,NA,NA,NA,NA,NA,NA,NA,NA,NA,NA,NA,NA,NA,NA,NA,NA,NA,NA,NA,NA,NA,NA,NA
"367","stim/objects/HouseObjects/pitcher.png",355,10,348,0.9,"stim/63.jpeg",6,3,3,2,"HouseObjects",1,4,"left","left",0.582999945,1,1,1,0,NA,NA,NA,NA,NA,NA,NA,NA,NA,NA,NA,NA,NA,NA,NA,NA,NA,NA,NA,NA,NA,NA,NA,NA
"409","stim/objects/Instruments/electricdrumset.png",356,10,349,0.5,"stim/12.jpeg",1,2,1,2,"Instruments",2,1,"right","left",0.539999962,0,0,1,0,NA,NA,NA,NA,NA,NA,NA,NA,NA,NA,NA,NA,NA,NA,NA,NA,NA,NA,NA,NA,NA,NA,NA,NA
"547","stim/objects/Instruments/record.png",357,10,350,0.5,"stim/14.jpeg",1,4,1,1,"Instruments",2,1,"right","right",0.632000208,1,1,1,0,198,10,1,0.5,1,"stim/14.jpeg",1,4,"stim/14.jpeg",1,"left",1.901000023,4,3,2.394999981,4,1.433000088,198,1,0,0,0,0,1
"515","stim/objects/Instruments/musicstand.png",358,10,351,0.9,"stim/54.jpeg",5,4,3,2,"Instruments",2,3,"right","right",0.641000032,1,1,1,0,NA,NA,NA,NA,NA,NA,NA,NA,NA,NA,NA,NA,NA,NA,NA,NA,NA,NA,NA,NA,NA,NA,NA,NA
"506","stim/objects/Instruments/musicsheet2.png",359,10,352,0.9,"stim/51.jpeg",5,1,3,1,"Instruments",2,3,"right","right",0.58100009,1,1,1,0,60,10,1,0.9,2,"stim/51.jpeg",5,1,"stim/51.jpeg",3,"right",1.930999994,2,1,4.948999882,2,3.246999979,60,0,1,NA,0,NA,1
"460","stim/objects/Instruments/marimba.png",360,10,353,0.9,"stim/53.jpeg",5,3,3,2,"Instruments",2,4,"right","right",0.447999954,1,1,1,0,NA,NA,NA,NA,NA,NA,NA,NA,NA,NA,NA,NA,NA,NA,NA,NA,NA,NA,NA,NA,NA,NA,NA,NA
"442","stim/objects/Instruments/hihat.png",361,10,354,0.7,"stim/32.jpeg",3,2,2,2,"Instruments",2,2,"right","right",0.470999956,1,1,1,0,NA,NA,NA,NA,NA,NA,NA,NA,NA,NA,NA,NA,NA,NA,NA,NA,NA,NA,NA,NA,NA,NA,NA,NA
"480","stim/objects/Instruments/metronome.png",362,10,355,0.9,"stim/53.jpeg",5,3,3,2,"Instruments",2,1,"right","right",0.883999825,1,1,1,0,NA,NA,NA,NA,NA,NA,NA,NA,NA,NA,NA,NA,NA,NA,NA,NA,NA,NA,NA,NA,NA,NA,NA,NA
"481","stim/objects/Instruments/metronome.png",363,10,356,0.9,"stim/52.jpeg",5,2,3,2,"Instruments",2,1,"right","right",0.727999926,1,1,1,0,NA,NA,NA,NA,NA,NA,NA,NA,NA,NA,NA,NA,NA,NA,NA,NA,NA,NA,NA,NA,NA,NA,NA,NA
"332","stim/objects/HouseObjects/match.png",364,10,357,0.9,"stim/63.jpeg",6,3,3,2,"HouseObjects",1,1,"left","",NA,0,0,1,0,NA,NA,NA,NA,NA,NA,NA,NA,NA,NA,NA,NA,NA,NA,NA,NA,NA,NA,NA,NA,NA,NA,NA,NA
"278","stim/objects/HouseObjects/handvacuum2.png",365,10,358,0.7,"stim/42.jpeg",4,2,2,1,"HouseObjects",1,4,"left","",NA,0,0,1,0,146,10,1,0.7,1,"stim/42.jpeg",4,2,"stim/42.jpeg",4,"left",0.984999895,3,3,4.003999949,4,1.751999855,146,1,0,0,1,1,1
"559","stim/objects/Instruments/trombone.png",366,10,359,0.5,"stim/24.jpeg",2,4,1,1,"Instruments",2,1,"right","right",0.467999935,1,1,1,0,61,10,1,0.5,2,"stim/24.jpeg",2,4,"stim/24.jpeg",1,"right",1.540999889,2,3,4.549999952,1,1.660999775,61,0,0,NA,1,NA,1
"516","stim/objects/Instruments/musicstand.png",367,10,360,0.9,"stim/54.jpeg",5,4,3,2,"Instruments",2,4,"right","left",0.604000092,0,0,1,0,NA,NA,NA,NA,NA,NA,NA,NA,NA,NA,NA,NA,NA,NA,NA,NA,NA,NA,NA,NA,NA,NA,NA,NA
"334","stim/objects/HouseObjects/match.png",368,10,361,0.9,"stim/64.jpeg",6,4,3,2,"HouseObjects",1,3,"left","",NA,0,0,1,0,NA,NA,NA,NA,NA,NA,NA,NA,NA,NA,NA,NA,NA,NA,NA,NA,NA,NA,NA,NA,NA,NA,NA,NA
"313","stim/objects/HouseObjects/lintroller.png",369,10,362,0.9,"stim/61.jpeg",6,1,3,2,"HouseObjects",1,2,"left","left",0.441999912,1,1,1,0,NA,NA,NA,NA,NA,NA,NA,NA,NA,NA,NA,NA,NA,NA,NA,NA,NA,NA,NA,NA,NA,NA,NA,NA
"314","stim/objects/HouseObjects/lintroller.png",370,10,363,0.9,"stim/64.jpeg",6,4,3,2,"HouseObjects",1,4,"left","left",0.486000061,1,1,1,0,NA,NA,NA,NA,NA,NA,NA,NA,NA,NA,NA,NA,NA,NA,NA,NA,NA,NA,NA,NA,NA,NA,NA,NA
"507","stim/objects/Instruments/musicstand.png",371,10,364,0.9,"stim/51.jpeg",5,1,3,2,"Instruments",2,4,"right","right",0.644999981,1,1,1,0,NA,NA,NA,NA,NA,NA,NA,NA,NA,NA,NA,NA,NA,NA,NA,NA,NA,NA,NA,NA,NA,NA,NA,NA
"256","stim/objects/HouseObjects/flyswatter.png",372,10,365,0.5,"stim/23.jpeg",2,3,1,2,"HouseObjects",1,4,"left","left",0.552999973,1,1,1,0,NA,NA,NA,NA,NA,NA,NA,NA,NA,NA,NA,NA,NA,NA,NA,NA,NA,NA,NA,NA,NA,NA,NA,NA
"311","stim/objects/HouseObjects/lintroller.png",373,10,366,0.9,"stim/63.jpeg",6,3,3,2,"HouseObjects",1,1,"left","",NA,0,0,1,0,NA,NA,NA,NA,NA,NA,NA,NA,NA,NA,NA,NA,NA,NA,NA,NA,NA,NA,NA,NA,NA,NA,NA,NA
"473","stim/objects/Instruments/metronome.png",374,10,367,0.9,"stim/51.jpeg",5,1,3,2,"Instruments",2,1,"right","right",0.454999924,1,1,1,0,NA,NA,NA,NA,NA,NA,NA,NA,NA,NA,NA,NA,NA,NA,NA,NA,NA,NA,NA,NA,NA,NA,NA,NA
"284","stim/objects/HouseObjects/ironingboard.png",375,10,368,0.7,"stim/41.jpeg",4,1,2,2,"HouseObjects",1,4,"left","left",0.611000061,1,1,1,0,NA,NA,NA,NA,NA,NA,NA,NA,NA,NA,NA,NA,NA,NA,NA,NA,NA,NA,NA,NA,NA,NA,NA,NA
"291","stim/objects/HouseObjects/knife.png",376,10,369,0.9,"stim/63.jpeg",6,3,3,2,"HouseObjects",1,4,"left","left",0.503999949,1,1,1,0,NA,NA,NA,NA,NA,NA,NA,NA,NA,NA,NA,NA,NA,NA,NA,NA,NA,NA,NA,NA,NA,NA,NA,NA
"560","stim/objects/Instruments/trombone2.png",377,10,370,0.1,"stim/63.jpeg",6,3,3,1,"Instruments",2,4,"right","left",0.393999815,0,0,1,0,82,10,1,0.1,2,"stim/63.jpeg",6,3,"stim/63.jpeg",4,"right",1.36500001,3,4,1.836999893,3,1.530999899,82,0,0,NA,0,NA,1
"251","stim/objects/HouseObjects/doormat.png",378,10,371,0.5,"stim/14.jpeg",1,4,1,2,"HouseObjects",1,4,"left","left",0.822000027,1,1,1,0,NA,NA,NA,NA,NA,NA,NA,NA,NA,NA,NA,NA,NA,NA,NA,NA,NA,NA,NA,NA,NA,NA,NA,NA
"408","stim/objects/Instruments/drums2.png",379,10,372,0.7,"stim/33.jpeg",3,3,2,1,"Instruments",2,1,"right","right",0.476000071,1,1,1,0,22,10,1,0.7,2,"stim/33.jpeg",3,3,"stim/33.jpeg",1,"left",1.220999718,1,4,5.849999905,1,2.400999784,22,1,0,0,1,1,1
"335","stim/objects/HouseObjects/match.png",380,10,373,0.9,"stim/63.jpeg",6,3,3,2,"HouseObjects",1,2,"left","left",0.539000034,1,1,1,0,NA,NA,NA,NA,NA,NA,NA,NA,NA,NA,NA,NA,NA,NA,NA,NA,NA,NA,NA,NA,NA,NA,NA,NA
"342","stim/objects/HouseObjects/pan.png",381,10,374,0.9,"stim/63.jpeg",6,3,3,2,"HouseObjects",1,4,"left","left",0.548000097,1,1,1,0,NA,NA,NA,NA,NA,NA,NA,NA,NA,NA,NA,NA,NA,NA,NA,NA,NA,NA,NA,NA,NA,NA,NA,NA
"285","stim/objects/HouseObjects/ironingboard.png",382,10,375,0.7,"stim/42.jpeg",4,2,2,2,"HouseObjects",1,1,"left","left",0.601000071,1,1,1,0,NA,NA,NA,NA,NA,NA,NA,NA,NA,NA,NA,NA,NA,NA,NA,NA,NA,NA,NA,NA,NA,NA,NA,NA
"411","stim/objects/Instruments/electricdrumset2.png",383,10,376,0.7,"stim/34.jpeg",3,4,2,1,"Instruments",2,1,"right","right",0.535000086,1,1,1,0,111,10,1,0.7,2,"stim/34.jpeg",3,4,"stim/34.jpeg",1,"left",1.029999971,4,4,2.18599987,2,1.504999876,111,1,1,1,0,0,1
"370","stim/objects/HouseObjects/pitcher.png",384,10,377,0.9,"stim/64.jpeg",6,4,3,2,"HouseObjects",1,4,"left","left",0.562999964,1,1,1,0,NA,NA,NA,NA,NA,NA,NA,NA,NA,NA,NA,NA,NA,NA,NA,NA,NA,NA,NA,NA,NA,NA,NA,NA
"491","stim/objects/Instruments/musicsheet.png",385,10,378,0.9,"stim/54.jpeg",5,4,3,2,"Instruments",2,1,"right","right",0.506999969,1,1,1,0,NA,NA,NA,NA,NA,NA,NA,NA,NA,NA,NA,NA,NA,NA,NA,NA,NA,NA,NA,NA,NA,NA,NA,NA
"243","stim/objects/HouseObjects/coffee2.png",386,10,379,0.3,"stim/32.jpeg",3,2,2,1,"HouseObjects",1,2,"left","right",0.567000151,0,0,1,0,142,10,1,0.3,1,"stim/32.jpeg",3,2,"stim/32.jpeg",2,"left",0.947999954,4,1,2.279000044,3,5.064999819,142,1,0,0,0,0,1
"457","stim/objects/Instruments/marimba.png",387,10,380,0.9,"stim/54.jpeg",5,4,3,2,"Instruments",2,2,"right","right",0.465999842,1,1,1,0,NA,NA,NA,NA,NA,NA,NA,NA,NA,NA,NA,NA,NA,NA,NA,NA,NA,NA,NA,NA,NA,NA,NA,NA
"348","stim/objects/HouseObjects/pan.png",388,10,381,0.9,"stim/62.jpeg",6,2,3,2,"HouseObjects",1,3,"left","left",0.65199995,1,1,1,0,NA,NA,NA,NA,NA,NA,NA,NA,NA,NA,NA,NA,NA,NA,NA,NA,NA,NA,NA,NA,NA,NA,NA,NA
"414","stim/objects/Instruments/electricguitar2.png",389,10,382,0.7,"stim/31.jpeg",3,1,2,1,"Instruments",2,1,"right","",NA,0,0,1,0,91,10,1,0.7,2,"stim/31.jpeg",3,1,"stim/31.jpeg",1,"right",1.821999788,2,4,4.734999895,4,4.517999887,91,0,0,NA,0,NA,1
"496","stim/objects/Instruments/musicsheet.png",390,10,383,0.9,"stim/54.jpeg",5,4,3,2,"Instruments",2,3,"right","right",0.787000179,1,1,1,0,NA,NA,NA,NA,NA,NA,NA,NA,NA,NA,NA,NA,NA,NA,NA,NA,NA,NA,NA,NA,NA,NA,NA,NA
"336","stim/objects/HouseObjects/match.png",391,10,384,0.9,"stim/62.jpeg",6,2,3,2,"HouseObjects",1,1,"left","",NA,0,0,1,0,NA,NA,NA,NA,NA,NA,NA,NA,NA,NA,NA,NA,NA,NA,NA,NA,NA,NA,NA,NA,NA,NA,NA,NA
"483","stim/objects/Instruments/metronome.png",392,10,385,0.9,"stim/54.jpeg",5,4,3,2,"Instruments",2,1,"right","",NA,0,0,1,0,NA,NA,NA,NA,NA,NA,NA,NA,NA,NA,NA,NA,NA,NA,NA,NA,NA,NA,NA,NA,NA,NA,NA,NA
"324","stim/objects/HouseObjects/lintroller2.png",393,10,386,0.1,"stim/52.jpeg",5,2,3,1,"HouseObjects",1,3,"left","",NA,0,0,1,0,92,10,1,0.1,1,"stim/52.jpeg",5,2,"stim/52.jpeg",3,"left",0.933000088,4,2,4.032999992,4,2.147999763,92,1,1,1,0,0,1
"287","stim/objects/HouseObjects/key.png",394,10,387,0.7,"stim/43.jpeg",4,3,2,2,"HouseObjects",1,3,"left","right",0.387000084,0,0,1,0,NA,NA,NA,NA,NA,NA,NA,NA,NA,NA,NA,NA,NA,NA,NA,NA,NA,NA,NA,NA,NA,NA,NA,NA
"307","stim/objects/HouseObjects/knife2.png",395,10,388,0.1,"stim/51.jpeg",5,1,3,1,"HouseObjects",1,3,"left","",NA,0,0,1,0,45,10,1,0.1,1,"stim/51.jpeg",5,1,"stim/51.jpeg",3,"right",1.500999928,4,1,2.571999788,3,2.421000004,45,0,1,NA,1,NA,1
"394","stim/objects/HouseObjects/teapot.png",396,10,389,0.5,"stim/21.jpeg",2,1,1,1,"HouseObjects",1,4,"left","",NA,0,0,1,0,193,10,1,0.5,2,"stim/21.jpeg",2,1,"stim/21.jpeg",4,"right",0.746999979,4,2,2.312999964,2,1.362999916,193,0,0,NA,0,NA,1
"254","stim/objects/HouseObjects/dustpan.png",397,10,390,0.5,"stim/11.jpeg",1,1,1,2,"HouseObjects",1,4,"left","",NA,0,0,1,0,NA,NA,NA,NA,NA,NA,NA,NA,NA,NA,NA,NA,NA,NA,NA,NA,NA,NA,NA,NA,NA,NA,NA,NA
"308","stim/objects/HouseObjects/lintroller.png",398,10,391,0.9,"stim/61.jpeg",6,1,3,2,"HouseObjects",1,3,"left","left",0.673000097,1,1,1,0,NA,NA,NA,NA,NA,NA,NA,NA,NA,NA,NA,NA,NA,NA,NA,NA,NA,NA,NA,NA,NA,NA,NA,NA
"533","stim/objects/Instruments/oboe.png",399,10,392,0.9,"stim/51.jpeg",5,1,3,2,"Instruments",2,4,"right","",NA,0,0,1,0,NA,NA,NA,NA,NA,NA,NA,NA,NA,NA,NA,NA,NA,NA,NA,NA,NA,NA,NA,NA,NA,NA,NA,NA
"432","stim/objects/Instruments/guitarcase2.png",400,10,393,0.3,"stim/41.jpeg",4,1,2,1,"Instruments",2,4,"right","left",0.765000105,0,0,1,0,110,10,1,0.3,2,"stim/41.jpeg",4,1,"stim/41.jpeg",4,"left",2.316999912,1,3,3.753999949,2,1.922999859,110,1,0,0,0,0,1
"391","stim/objects/HouseObjects/sponge2.png",401,10,394,0.9,"stim/63.jpeg",6,3,3,1,"HouseObjects",1,4,"left","left",0.541000128,1,1,1,0,29,10,1,0.9,1,"stim/63.jpeg",6,3,"stim/63.jpeg",4,"left",1.097000122,3,1,2.268000126,4,5.637000084,29,1,0,0,1,1,1
"371","stim/objects/HouseObjects/pitcher.png",402,10,395,0.9,"stim/64.jpeg",6,4,3,2,"HouseObjects",1,3,"left","left",0.487000227,1,1,1,0,NA,NA,NA,NA,NA,NA,NA,NA,NA,NA,NA,NA,NA,NA,NA,NA,NA,NA,NA,NA,NA,NA,NA,NA
"249","stim/objects/HouseObjects/dishsoap2.png",403,10,396,0.3,"stim/34.jpeg",3,4,2,1,"HouseObjects",1,1,"left","right",0.799999952,0,0,1,0,20,10,1,0.3,1,"stim/34.jpeg",3,4,"stim/34.jpeg",1,"left",1.285000086,2,3,2.481999874,1,2.650000095,20,1,0,0,1,1,1
"349","stim/objects/HouseObjects/pan.png",404,10,397,0.9,"stim/63.jpeg",6,3,3,2,"HouseObjects",1,1,"left","left",0.599999905,1,1,1,0,NA,NA,NA,NA,NA,NA,NA,NA,NA,NA,NA,NA,NA,NA,NA,NA,NA,NA,NA,NA,NA,NA,NA,NA
"540","stim/objects/Instruments/oboe2.png",405,10,398,0.9,"stim/53.jpeg",5,3,3,1,"Instruments",2,4,"right","right",0.634000063,1,1,1,0,70,10,1,0.9,2,"stim/53.jpeg",5,3,"stim/53.jpeg",4,"right",0.932999849,2,4,3.296999931,3,2.184999943,70,0,0,NA,0,NA,1
"413","stim/objects/Instruments/electricguitar.png",406,10,399,0.5,"stim/13.jpeg",1,3,1,2,"Instruments",2,3,"right","left",0.8349998,0,0,1,0,NA,NA,NA,NA,NA,NA,NA,NA,NA,NA,NA,NA,NA,NA,NA,NA,NA,NA,NA,NA,NA,NA,NA,NA
"283","stim/objects/HouseObjects/ironingboard.png",407,10,400,0.7,"stim/44.jpeg",4,4,2,2,"HouseObjects",1,2,"left","left",0.731999874,1,1,1,0,NA,NA,NA,NA,NA,NA,NA,NA,NA,NA,NA,NA,NA,NA,NA,NA,NA,NA,NA,NA,NA,NA,NA,NA
"272","stim/objects/HouseObjects/handbrush.png",408,10,401,0.7,"stim/43.jpeg",4,3,2,2,"HouseObjects",1,2,"left","left",0.691999912,1,1,1,0,NA,NA,NA,NA,NA,NA,NA,NA,NA,NA,NA,NA,NA,NA,NA,NA,NA,NA,NA,NA,NA,NA,NA,NA
"257","stim/objects/HouseObjects/flyswatter.png",409,10,402,0.5,"stim/24.jpeg",2,4,1,2,"HouseObjects",1,2,"left","left",0.579999924,1,1,1,0,NA,NA,NA,NA,NA,NA,NA,NA,NA,NA,NA,NA,NA,NA,NA,NA,NA,NA,NA,NA,NA,NA,NA,NA
"484","stim/objects/Instruments/metronome.png",410,10,403,0.9,"stim/52.jpeg",5,2,3,2,"Instruments",2,3,"right","right",0.70600009,1,1,1,0,NA,NA,NA,NA,NA,NA,NA,NA,NA,NA,NA,NA,NA,NA,NA,NA,NA,NA,NA,NA,NA,NA,NA,NA
"328","stim/objects/HouseObjects/match.png",411,10,404,0.9,"stim/61.jpeg",6,1,3,2,"HouseObjects",1,2,"left","left",0.578000069,1,1,1,0,NA,NA,NA,NA,NA,NA,NA,NA,NA,NA,NA,NA,NA,NA,NA,NA,NA,NA,NA,NA,NA,NA,NA,NA
"536","stim/objects/Instruments/oboe.png",412,10,405,0.9,"stim/53.jpeg",5,3,3,2,"Instruments",2,2,"right","right",0.608999968,1,1,1,0,NA,NA,NA,NA,NA,NA,NA,NA,NA,NA,NA,NA,NA,NA,NA,NA,NA,NA,NA,NA,NA,NA,NA,NA
"267","stim/objects/HouseObjects/glassmop2.png",413,10,406,0.7,"stim/43.jpeg",4,3,2,1,"HouseObjects",1,3,"left","left",0.802000046,1,1,1,0,49,10,1,0.7,1,"stim/43.jpeg",4,3,"stim/43.jpeg",3,"right",1.275000095,2,3,5.138000011,3,1.813999891,49,0,1,NA,1,NA,1
"378","stim/objects/HouseObjects/remote.png",414,10,407,0.5,"stim/14.jpeg",1,4,1,1,"HouseObjects",1,1,"left","left",0.595000029,1,1,1,0,141,10,1,0.5,1,"stim/14.jpeg",1,4,"stim/14.jpeg",1,"right",0.707999945,3,3,3.467999935,3,1.366999865,141,0,0,NA,0,NA,1
"564","stim/objects/Instruments/tuba2.png",415,10,408,0.1,"stim/61.jpeg",6,1,3,1,"Instruments",2,2,"right","left",0.713999987,0,0,1,0,9,10,1,0.1,2,"stim/61.jpeg",6,1,"stim/61.jpeg",2,"right",1.641000032,3,3,2.981999874,2,4.112999916,9,0,0,NA,1,NA,1
"500","stim/objects/Instruments/musicsheet.png",416,10,409,0.9,"stim/53.jpeg",5,3,3,2,"Instruments",2,1,"right","right",0.63499999,1,1,1,0,NA,NA,NA,NA,NA,NA,NA,NA,NA,NA,NA,NA,NA,NA,NA,NA,NA,NA,NA,NA,NA,NA,NA,NA
"300","stim/objects/HouseObjects/knife.png",417,10,410,0.9,"stim/62.jpeg",6,2,3,2,"HouseObjects",1,1,"left","left",0.65899992,1,1,1,0,NA,NA,NA,NA,NA,NA,NA,NA,NA,NA,NA,NA,NA,NA,NA,NA,NA,NA,NA,NA,NA,NA,NA,NA
"466","stim/objects/Instruments/marimba.png",418,10,411,0.9,"stim/54.jpeg",5,4,3,2,"Instruments",2,3,"right","right",0.613000154,1,1,1,0,NA,NA,NA,NA,NA,NA,NA,NA,NA,NA,NA,NA,NA,NA,NA,NA,NA,NA,NA,NA,NA,NA,NA,NA
"482","stim/objects/Instruments/metronome.png",419,10,412,0.9,"stim/52.jpeg",5,2,3,2,"Instruments",2,3,"right","left",0.579999924,0,0,1,0,NA,NA,NA,NA,NA,NA,NA,NA,NA,NA,NA,NA,NA,NA,NA,NA,NA,NA,NA,NA,NA,NA,NA,NA
"467","stim/objects/Instruments/marimba.png",420,10,413,0.9,"stim/51.jpeg",5,1,3,2,"Instruments",2,3,"right","right",0.572000027,1,1,1,0,NA,NA,NA,NA,NA,NA,NA,NA,NA,NA,NA,NA,NA,NA,NA,NA,NA,NA,NA,NA,NA,NA,NA,NA
"451","stim/objects/Instruments/laud2.png",421,10,414,0.3,"stim/42.jpeg",4,2,2,1,"Instruments",2,3,"right","left",0.758000135,0,0,1,0,1,10,1,0.3,2,"stim/42.jpeg",4,2,"stim/42.jpeg",3,"right",2.27699995,1,1,20.50300002,3,37.01199985,1,0,0,NA,1,NA,1
"503","stim/objects/Instruments/musicsheet.png",422,10,415,0.9,"stim/54.jpeg",5,4,3,2,"Instruments",2,2,"right","right",0.736999989,1,1,1,0,NA,NA,NA,NA,NA,NA,NA,NA,NA,NA,NA,NA,NA,NA,NA,NA,NA,NA,NA,NA,NA,NA,NA,NA
"302","stim/objects/HouseObjects/knife.png",423,10,416,0.9,"stim/62.jpeg",6,2,3,2,"HouseObjects",1,4,"left","",NA,0,0,1,0,NA,NA,NA,NA,NA,NA,NA,NA,NA,NA,NA,NA,NA,NA,NA,NA,NA,NA,NA,NA,NA,NA,NA,NA
"468","stim/objects/Instruments/marimba.png",424,10,417,0.9,"stim/53.jpeg",5,3,3,2,"Instruments",2,3,"right","right",0.607000113,1,1,1,0,NA,NA,NA,NA,NA,NA,NA,NA,NA,NA,NA,NA,NA,NA,NA,NA,NA,NA,NA,NA,NA,NA,NA,NA
"485","stim/objects/Instruments/metronome.png",425,10,418,0.9,"stim/54.jpeg",5,4,3,2,"Instruments",2,1,"right","right",0.424000025,1,1,1,0,NA,NA,NA,NA,NA,NA,NA,NA,NA,NA,NA,NA,NA,NA,NA,NA,NA,NA,NA,NA,NA,NA,NA,NA
"501","stim/objects/Instruments/musicsheet.png",426,10,419,0.9,"stim/53.jpeg",5,3,3,2,"Instruments",2,1,"right","right",0.488000154,1,1,1,0,NA,NA,NA,NA,NA,NA,NA,NA,NA,NA,NA,NA,NA,NA,NA,NA,NA,NA,NA,NA,NA,NA,NA,NA
"317","stim/objects/HouseObjects/lintroller.png",427,10,420,0.9,"stim/64.jpeg",6,4,3,2,"HouseObjects",1,2,"left","left",0.529999971,1,1,1,0,NA,NA,NA,NA,NA,NA,NA,NA,NA,NA,NA,NA,NA,NA,NA,NA,NA,NA,NA,NA,NA,NA,NA,NA
"245","stim/objects/HouseObjects/cushion.png",428,10,421,0.5,"stim/12.jpeg",1,2,1,2,"HouseObjects",1,4,"left","",NA,0,0,1,0,NA,NA,NA,NA,NA,NA,NA,NA,NA,NA,NA,NA,NA,NA,NA,NA,NA,NA,NA,NA,NA,NA,NA,NA
"517","stim/objects/Instruments/musicstand.png",429,10,422,0.9,"stim/51.jpeg",5,1,3,2,"Instruments",2,3,"right","right",0.632999897,1,1,1,0,NA,NA,NA,NA,NA,NA,NA,NA,NA,NA,NA,NA,NA,NA,NA,NA,NA,NA,NA,NA,NA,NA,NA,NA
"511","stim/objects/Instruments/musicstand.png",430,10,423,0.9,"stim/52.jpeg",5,2,3,2,"Instruments",2,2,"right","right",0.592999935,1,1,1,0,NA,NA,NA,NA,NA,NA,NA,NA,NA,NA,NA,NA,NA,NA,NA,NA,NA,NA,NA,NA,NA,NA,NA,NA
"351","stim/objects/HouseObjects/pan.png",431,10,424,0.9,"stim/61.jpeg",6,1,3,2,"HouseObjects",1,1,"left","left",0.648999929,1,1,1,0,NA,NA,NA,NA,NA,NA,NA,NA,NA,NA,NA,NA,NA,NA,NA,NA,NA,NA,NA,NA,NA,NA,NA,NA
"246","stim/objects/HouseObjects/cushion2.png",432,10,425,0.3,"stim/33.jpeg",3,3,2,1,"HouseObjects",1,4,"left","right",0.524999857,0,0,1,0,123,10,1,0.3,1,"stim/33.jpeg",3,3,"stim/33.jpeg",4,"left",1.530999899,2,3,2.377000093,4,2.618999958,123,1,1,1,1,1,1
"297","stim/objects/HouseObjects/knife.png",433,10,426,0.9,"stim/61.jpeg",6,1,3,2,"HouseObjects",1,2,"left","left",0.549000025,1,1,1,0,NA,NA,NA,NA,NA,NA,NA,NA,NA,NA,NA,NA,NA,NA,NA,NA,NA,NA,NA,NA,NA,NA,NA,NA
"430","stim/objects/Instruments/guitarcase.png",434,10,427,0.5,"stim/22.jpeg",2,2,1,2,"Instruments",2,2,"right","left",0.578999996,0,0,1,0,NA,NA,NA,NA,NA,NA,NA,NA,NA,NA,NA,NA,NA,NA,NA,NA,NA,NA,NA,NA,NA,NA,NA,NA
"538","stim/objects/Instruments/oboe.png",435,10,428,0.9,"stim/53.jpeg",5,3,3,2,"Instruments",2,3,"right","right",0.497999907,1,1,1,0,NA,NA,NA,NA,NA,NA,NA,NA,NA,NA,NA,NA,NA,NA,NA,NA,NA,NA,NA,NA,NA,NA,NA,NA
"523","stim/objects/Instruments/musicstand2.png",436,10,429,0.9,"stim/52.jpeg",5,2,3,1,"Instruments",2,4,"right","right",0.571000099,1,1,1,0,35,10,1,0.9,2,"stim/52.jpeg",5,2,"stim/52.jpeg",4,"left",2.836999893,3,2,3.835999966,3,1.930000067,35,1,1,1,0,0,1
"383","stim/objects/HouseObjects/rug2.png",437,10,430,0.1,"stim/51.jpeg",5,1,3,1,"HouseObjects",1,2,"left","right",0.567000151,0,0,1,0,88,10,1,0.1,1,"stim/51.jpeg",5,1,"stim/51.jpeg",2,"right",0.75999999,3,3,1.947999954,4,1.715999842,88,0,0,NA,0,NA,1
"472","stim/objects/Instruments/marimba2.png",438,10,431,0.9,"stim/53.jpeg",5,3,3,1,"Instruments",2,1,"right","right",0.437999964,1,1,1,0,98,10,1,0.9,2,"stim/53.jpeg",5,3,"stim/53.jpeg",1,"left",1.30099988,2,3,1.392999887,3,2.400999784,98,1,1,1,0,0,1
"386","stim/objects/HouseObjects/saw.png",439,10,432,0.5,"stim/21.jpeg",2,1,1,1,"HouseObjects",1,1,"left","left",0.496000051,1,1,1,0,56,10,1,0.5,2,"stim/21.jpeg",2,1,"stim/21.jpeg",1,"left",0.95299983,4,4,3.787999868,3,2.068000078,56,1,0,0,0,0,1
"400","stim/objects/HouseObjects/towel.png",440,10,433,0.3,"stim/33.jpeg",3,3,2,1,"HouseObjects",1,4,"left","right",0.571000099,0,0,1,0,75,10,1,0.3,1,"stim/33.jpeg",3,3,"stim/33.jpeg",4,"right",1.262999773,1,4,5.43599987,4,2.200999975,75,0,0,NA,1,NA,1
"426","stim/objects/Instruments/gong2.png",441,10,434,0.3,"stim/43.jpeg",4,3,2,1,"Instruments",2,4,"right","left",0.670000076,0,0,1,0,51,10,1,0.3,2,"stim/43.jpeg",4,3,"stim/43.jpeg",4,"right",1.349999905,1,3,3.95299983,4,3.06799984,51,0,1,NA,1,NA,1
"439","stim/objects/Instruments/harp2.png",442,10,435,0.3,"stim/43.jpeg",4,3,2,1,"Instruments",2,4,"right","right",0.640000105,1,1,1,0,104,10,1,0.3,2,"stim/43.jpeg",4,3,"stim/43.jpeg",4,"right",0.823999882,3,3,1.424000025,2,1.588999987,104,0,1,NA,0,NA,1
"519","stim/objects/Instruments/musicstand.png",443,10,436,0.9,"stim/53.jpeg",5,3,3,2,"Instruments",2,4,"right","right",0.601000071,1,1,1,0,NA,NA,NA,NA,NA,NA,NA,NA,NA,NA,NA,NA,NA,NA,NA,NA,NA,NA,NA,NA,NA,NA,NA,NA
"416","stim/objects/Instruments/flute.png",444,10,437,0.5,"stim/13.jpeg",1,3,1,2,"Instruments",2,2,"right","right",0.600999832,1,1,1,0,NA,NA,NA,NA,NA,NA,NA,NA,NA,NA,NA,NA,NA,NA,NA,NA,NA,NA,NA,NA,NA,NA,NA,NA
"350","stim/objects/HouseObjects/pan.png",445,10,438,0.9,"stim/64.jpeg",6,4,3,2,"HouseObjects",1,4,"left","left",0.743000031,1,1,1,0,NA,NA,NA,NA,NA,NA,NA,NA,NA,NA,NA,NA,NA,NA,NA,NA,NA,NA,NA,NA,NA,NA,NA,NA
"281","stim/objects/HouseObjects/iron.png",446,10,439,0.7,"stim/41.jpeg",4,1,2,2,"HouseObjects",1,4,"left","right",0.754000187,0,0,1,0,NA,NA,NA,NA,NA,NA,NA,NA,NA,NA,NA,NA,NA,NA,NA,NA,NA,NA,NA,NA,NA,NA,NA,NA
"461","stim/objects/Instruments/marimba.png",447,10,440,0.9,"stim/54.jpeg",5,4,3,2,"Instruments",2,4,"right","right",0.730000019,1,1,1,0,NA,NA,NA,NA,NA,NA,NA,NA,NA,NA,NA,NA,NA,NA,NA,NA,NA,NA,NA,NA,NA,NA,NA,NA
"373","stim/objects/HouseObjects/pitcher.png",448,10,441,0.9,"stim/61.jpeg",6,1,3,2,"HouseObjects",1,2,"left","left",0.552000046,1,1,1,0,NA,NA,NA,NA,NA,NA,NA,NA,NA,NA,NA,NA,NA,NA,NA,NA,NA,NA,NA,NA,NA,NA,NA,NA
"454","stim/objects/Instruments/maraca.png",449,10,442,0.7,"stim/33.jpeg",3,3,2,2,"Instruments",2,4,"right","right",0.583999872,1,1,1,0,NA,NA,NA,NA,NA,NA,NA,NA,NA,NA,NA,NA,NA,NA,NA,NA,NA,NA,NA,NA,NA,NA,NA,NA
"431","stim/objects/Instruments/guitarcase.png",450,10,443,0.5,"stim/21.jpeg",2,1,1,2,"Instruments",2,1,"right","left",0.600000143,0,0,1,0,NA,NA,NA,NA,NA,NA,NA,NA,NA,NA,NA,NA,NA,NA,NA,NA,NA,NA,NA,NA,NA,NA,NA,NA
"353","stim/objects/HouseObjects/pan.png",451,10,444,0.9,"stim/64.jpeg",6,4,3,2,"HouseObjects",1,1,"left","left",0.511999846,1,1,1,0,NA,NA,NA,NA,NA,NA,NA,NA,NA,NA,NA,NA,NA,NA,NA,NA,NA,NA,NA,NA,NA,NA,NA,NA
"318","stim/objects/HouseObjects/lintroller.png",452,10,445,0.9,"stim/61.jpeg",6,1,3,2,"HouseObjects",1,1,"left","left",0.559000015,1,1,1,0,NA,NA,NA,NA,NA,NA,NA,NA,NA,NA,NA,NA,NA,NA,NA,NA,NA,NA,NA,NA,NA,NA,NA,NA
"514","stim/objects/Instruments/musicstand.png",453,10,446,0.9,"stim/53.jpeg",5,3,3,2,"Instruments",2,1,"right","right",0.503999949,1,1,1,0,NA,NA,NA,NA,NA,NA,NA,NA,NA,NA,NA,NA,NA,NA,NA,NA,NA,NA,NA,NA,NA,NA,NA,NA
"402","stim/objects/HouseObjects/vacuumcleaner.png",454,10,447,0.3,"stim/34.jpeg",3,4,2,1,"HouseObjects",1,3,"left","right",0.555999994,0,0,1,0,33,10,1,0.3,1,"stim/34.jpeg",3,4,"stim/34.jpeg",3,"left",1.053999901,3,1,3.815999985,4,3.741999865,33,1,0,0,0,0,1
"552","stim/objects/Instruments/speaker2.png",455,10,448,0.1,"stim/63.jpeg",6,3,3,1,"Instruments",2,2,"right","left",0.646999836,0,0,1,0,150,10,1,0.1,2,"stim/63.jpeg",6,3,"stim/63.jpeg",2,"right",1.029000044,3,1,3.720000029,1,1.743999958,150,0,0,NA,0,NA,1
"478","stim/objects/Instruments/metronome.png",456,10,449,0.9,"stim/51.jpeg",5,1,3,2,"Instruments",2,3,"right","right",0.546999931,1,1,1,0,NA,NA,NA,NA,NA,NA,NA,NA,NA,NA,NA,NA,NA,NA,NA,NA,NA,NA,NA,NA,NA,NA,NA,NA
"464","stim/objects/Instruments/marimba.png",457,10,450,0.9,"stim/52.jpeg",5,2,3,2,"Instruments",2,2,"right","right",0.414000034,1,1,1,0,NA,NA,NA,NA,NA,NA,NA,NA,NA,NA,NA,NA,NA,NA,NA,NA,NA,NA,NA,NA,NA,NA,NA,NA
"282","stim/objects/HouseObjects/iron2.png",458,10,451,0.7,"stim/43.jpeg",4,3,2,1,"HouseObjects",1,2,"left","left",0.708000183,1,1,1,0,81,10,1,0.7,1,"stim/43.jpeg",4,3,"stim/43.jpeg",2,"right",0.980999947,2,1,2.198999882,1,3.71999979,81,0,0,NA,0,NA,1
"372","stim/objects/HouseObjects/pitcher.png",459,10,452,0.9,"stim/64.jpeg",6,4,3,2,"HouseObjects",1,4,"left","left",0.521999836,1,1,1,0,NA,NA,NA,NA,NA,NA,NA,NA,NA,NA,NA,NA,NA,NA,NA,NA,NA,NA,NA,NA,NA,NA,NA,NA
"539","stim/objects/Instruments/oboe.png",460,10,453,0.9,"stim/54.jpeg",5,4,3,2,"Instruments",2,2,"right","right",0.518000126,1,1,1,0,NA,NA,NA,NA,NA,NA,NA,NA,NA,NA,NA,NA,NA,NA,NA,NA,NA,NA,NA,NA,NA,NA,NA,NA
"399","stim/objects/HouseObjects/thread2.png",461,10,454,0.9,"stim/63.jpeg",6,3,3,1,"HouseObjects",1,3,"left","left",0.457000017,1,1,1,0,166,10,1,0.9,1,"stim/63.jpeg",6,3,"stim/63.jpeg",3,"right",0.94299984,3,2,2.947999954,3,2.191999912,166,0,0,NA,1,NA,1
"403","stim/objects/HouseObjects/vacuumcleaner2.png",462,10,455,0.9,"stim/61.jpeg",6,1,3,1,"HouseObjects",1,1,"left","left",0.515000105,1,1,1,0,189,10,1,0.9,1,"stim/61.jpeg",6,1,"stim/61.jpeg",1,"right",0.84100008,3,2,2.974999905,2,1.542999983,189,0,0,NA,0,NA,1
"304","stim/objects/HouseObjects/knife.png",463,10,456,0.9,"stim/64.jpeg",6,4,3,2,"HouseObjects",1,2,"left","left",0.574999809,1,1,1,0,NA,NA,NA,NA,NA,NA,NA,NA,NA,NA,NA,NA,NA,NA,NA,NA,NA,NA,NA,NA,NA,NA,NA,NA
"355","stim/objects/HouseObjects/pan.png",464,10,457,0.9,"stim/64.jpeg",6,4,3,2,"HouseObjects",1,2,"left","left",0.387000084,1,1,1,0,NA,NA,NA,NA,NA,NA,NA,NA,NA,NA,NA,NA,NA,NA,NA,NA,NA,NA,NA,NA,NA,NA,NA,NA
"276","stim/objects/HouseObjects/handvacuum.png",465,10,458,0.7,"stim/42.jpeg",4,2,2,2,"HouseObjects",1,1,"left","left",0.576999903,1,1,1,0,NA,NA,NA,NA,NA,NA,NA,NA,NA,NA,NA,NA,NA,NA,NA,NA,NA,NA,NA,NA,NA,NA,NA,NA
"545","stim/objects/Instruments/record_player.png",466,10,459,0.5,"stim/11.jpeg",1,1,1,1,"Instruments",2,3,"right","left",0.490999937,0,0,1,0,89,10,1,0.5,1,"stim/11.jpeg",1,1,"stim/11.jpeg",3,"right",1.315999985,3,2,2.365999937,1,2.062999964,89,0,0,NA,0,NA,1
"320","stim/objects/HouseObjects/lintroller.png",467,10,460,0.9,"stim/64.jpeg",6,4,3,2,"HouseObjects",1,2,"left","left",0.544999838,1,1,1,0,NA,NA,NA,NA,NA,NA,NA,NA,NA,NA,NA,NA,NA,NA,NA,NA,NA,NA,NA,NA,NA,NA,NA,NA
"263","stim/objects/HouseObjects/glass.png",468,10,461,0.5,"stim/21.jpeg",2,1,1,2,"HouseObjects",1,3,"left","left",0.813999891,1,1,1,0,NA,NA,NA,NA,NA,NA,NA,NA,NA,NA,NA,NA,NA,NA,NA,NA,NA,NA,NA,NA,NA,NA,NA,NA
"531","stim/objects/Instruments/oboe.png",469,10,462,0.9,"stim/52.jpeg",5,2,3,2,"Instruments",2,2,"right","right",0.599999905,1,1,1,0,NA,NA,NA,NA,NA,NA,NA,NA,NA,NA,NA,NA,NA,NA,NA,NA,NA,NA,NA,NA,NA,NA,NA,NA
"339","stim/objects/HouseObjects/match.png",470,10,463,0.9,"stim/64.jpeg",6,4,3,2,"HouseObjects",1,4,"left","left",0.548000097,1,1,1,0,NA,NA,NA,NA,NA,NA,NA,NA,NA,NA,NA,NA,NA,NA,NA,NA,NA,NA,NA,NA,NA,NA,NA,NA
