"","obj_file","X.x","participant.x","trialN.x","trial_cond","scn_file.x","scn_cat","scn_inst","scn_condition","fillers","obj_cat","obj_cat_num","quadrant","corr_ans","key_resp_trial.keys","key_resp_trial.rt","trial_acc","trial_acc_manual","group.x","practice","X.y","participant.y","OvsN","PE_level","object_cat","scn_file.y","corr_scn_cat","corr_scn_inst","scn_file.1","corr_loc","key_resp_id.keys","key_resp_id.rt","key_resp_conf.keys","key_resp_assoc.keys","key_resp_assoc.rt","key_resp_loc.keys","key_resp_loc.rt","trialN.y","id_acc","assoc.acc","cond_assoc","loc.acc","cond_loc","group.y"
"169","stim/objects/Instruments/flutetrans.png",1,16,1,0.5,"stim/41.jpeg",4,1,1,NA,"Instruments",1,2,"left","",NA,0,0,1,1,NA,NA,NA,NA,NA,NA,NA,NA,NA,NA,NA,NA,NA,NA,NA,NA,NA,NA,NA,NA,NA,NA,NA,NA
"14","stim/objects/HouseObjects/cushion2.png",2,16,2,0.3,"stim/62.jpeg",6,2,2,NA,"HouseObjects",2,1,"right","",NA,0,0,1,1,NA,NA,NA,NA,NA,NA,NA,NA,NA,NA,NA,NA,NA,NA,NA,NA,NA,NA,NA,NA,NA,NA,NA,NA
"66","stim/objects/HouseObjects/garbagebin2.png",3,16,3,0.9,"stim/13.jpeg",1,3,3,NA,"HouseObjects",2,3,"right","",NA,0,0,1,1,NA,NA,NA,NA,NA,NA,NA,NA,NA,NA,NA,NA,NA,NA,NA,NA,NA,NA,NA,NA,NA,NA,NA,NA
"157","stim/objects/Instruments/flute.png",4,16,4,0.5,"stim/34.jpeg",3,4,1,NA,"Instruments",1,3,"left","",NA,0,0,1,1,NA,NA,NA,NA,NA,NA,NA,NA,NA,NA,NA,NA,NA,NA,NA,NA,NA,NA,NA,NA,NA,NA,NA,NA
"33","stim/objects/HouseObjects/dustpan.png",5,16,5,0.5,"stim/41.jpeg",4,1,1,NA,"HouseObjects",2,4,"right","",NA,0,0,1,1,NA,NA,NA,NA,NA,NA,NA,NA,NA,NA,NA,NA,NA,NA,NA,NA,NA,NA,NA,NA,NA,NA,NA,NA
"15","stim/objects/HouseObjects/cushion2.png",6,16,6,0.3,"stim/62.jpeg",6,2,2,NA,"HouseObjects",2,2,"right","left",0.602999926,0,0,1,1,NA,NA,NA,NA,NA,NA,NA,NA,NA,NA,NA,NA,NA,NA,NA,NA,NA,NA,NA,NA,NA,NA,NA,NA
"121","stim/objects/Instruments/drums.png",7,16,7,0.5,"stim/31.jpeg",3,1,1,NA,"Instruments",1,2,"left","left",0.657000065,1,1,1,1,NA,NA,NA,NA,NA,NA,NA,NA,NA,NA,NA,NA,NA,NA,NA,NA,NA,NA,NA,NA,NA,NA,NA,NA
"38","stim/objects/HouseObjects/dustpan2.png",8,16,8,0.9,"stim/11.jpeg",1,1,3,NA,"HouseObjects",2,3,"right","right",0.697999954,1,1,1,1,NA,NA,NA,NA,NA,NA,NA,NA,NA,NA,NA,NA,NA,NA,NA,NA,NA,NA,NA,NA,NA,NA,NA,NA
"89","stim/objects/HouseObjects/glassmop.png",9,16,9,0.7,"stim/51.jpeg",5,1,2,NA,"HouseObjects",2,3,"right","",NA,0,0,1,1,NA,NA,NA,NA,NA,NA,NA,NA,NA,NA,NA,NA,NA,NA,NA,NA,NA,NA,NA,NA,NA,NA,NA,NA
"96","stim/objects/HouseObjects/glassmop2.png",10,16,10,0.1,"stim/21.jpeg",2,1,3,NA,"HouseObjects",2,3,"right","left",0.414000034,0,0,1,1,NA,NA,NA,NA,NA,NA,NA,NA,NA,NA,NA,NA,NA,NA,NA,NA,NA,NA,NA,NA,NA,NA,NA,NA
"220","stim/objects/Instruments/harp2.png",11,16,11,0.9,"stim/23.jpeg",2,3,3,NA,"Instruments",1,2,"left","left",0.558000088,1,1,1,1,NA,NA,NA,NA,NA,NA,NA,NA,NA,NA,NA,NA,NA,NA,NA,NA,NA,NA,NA,NA,NA,NA,NA,NA
"217","stim/objects/Instruments/harp.png",12,16,12,0.3,"stim/53.jpeg",5,3,2,NA,"Instruments",1,1,"left","right",0.582999945,0,0,1,1,NA,NA,NA,NA,NA,NA,NA,NA,NA,NA,NA,NA,NA,NA,NA,NA,NA,NA,NA,NA,NA,NA,NA,NA
"61","stim/objects/HouseObjects/garbagebin.png",13,16,13,0.5,"stim/43.jpeg",4,3,1,NA,"HouseObjects",2,1,"right","left",0.728999853,0,0,1,1,NA,NA,NA,NA,NA,NA,NA,NA,NA,NA,NA,NA,NA,NA,NA,NA,NA,NA,NA,NA,NA,NA,NA,NA
"175","stim/objects/Instruments/frenchhorn.png",14,16,14,0.5,"stim/42.jpeg",4,2,1,NA,"Instruments",1,3,"left","left",0.737999916,1,1,1,1,NA,NA,NA,NA,NA,NA,NA,NA,NA,NA,NA,NA,NA,NA,NA,NA,NA,NA,NA,NA,NA,NA,NA,NA
"105","stim/objects/HouseObjects/handbrush.png",15,16,15,0.7,"stim/53.jpeg",5,3,2,NA,"HouseObjects",2,3,"right","right",0.759000063,1,1,1,1,NA,NA,NA,NA,NA,NA,NA,NA,NA,NA,NA,NA,NA,NA,NA,NA,NA,NA,NA,NA,NA,NA,NA,NA
"205","stim/objects/Instruments/harmonica.png",16,16,16,0.3,"stim/52.jpeg",5,2,2,NA,"Instruments",1,2,"left","right",0.478999853,0,0,1,1,NA,NA,NA,NA,NA,NA,NA,NA,NA,NA,NA,NA,NA,NA,NA,NA,NA,NA,NA,NA,NA,NA,NA,NA
"221","stim/objects/Instruments/harp2.png",17,16,17,0.9,"stim/23.jpeg",2,3,3,NA,"Instruments",1,4,"left","left",0.595999956,1,1,1,1,NA,NA,NA,NA,NA,NA,NA,NA,NA,NA,NA,NA,NA,NA,NA,NA,NA,NA,NA,NA,NA,NA,NA,NA
"34","stim/objects/HouseObjects/dustpan.png",18,16,18,0.5,"stim/41.jpeg",4,1,1,NA,"HouseObjects",2,1,"right","right",0.523999929,1,1,1,1,NA,NA,NA,NA,NA,NA,NA,NA,NA,NA,NA,NA,NA,NA,NA,NA,NA,NA,NA,NA,NA,NA,NA,NA
"158","stim/objects/Instruments/flute.png",19,16,19,0.5,"stim/34.jpeg",3,4,1,NA,"Instruments",1,3,"left","right",0.661999941,0,0,1,1,NA,NA,NA,NA,NA,NA,NA,NA,NA,NA,NA,NA,NA,NA,NA,NA,NA,NA,NA,NA,NA,NA,NA,NA
"193","stim/objects/Instruments/guitarcase.png",20,16,20,0.3,"stim/51.jpeg",5,1,2,NA,"Instruments",1,1,"left","right",0.632999897,0,0,1,1,NA,NA,NA,NA,NA,NA,NA,NA,NA,NA,NA,NA,NA,NA,NA,NA,NA,NA,NA,NA,NA,NA,NA,NA
"122","stim/objects/Instruments/drums.png",21,16,21,0.5,"stim/31.jpeg",3,1,1,NA,"Instruments",1,1,"left","left",0.61500001,1,1,1,1,NA,NA,NA,NA,NA,NA,NA,NA,NA,NA,NA,NA,NA,NA,NA,NA,NA,NA,NA,NA,NA,NA,NA,NA
"145","stim/objects/Instruments/electricguitar.png",22,16,22,0.5,"stim/33.jpeg",3,3,1,NA,"Instruments",1,3,"left","left",0.56799984,1,1,1,1,NA,NA,NA,NA,NA,NA,NA,NA,NA,NA,NA,NA,NA,NA,NA,NA,NA,NA,NA,NA,NA,NA,NA,NA
"232","stim/objects/Instruments/hihat2.png",23,16,23,0.9,"stim/24.jpeg",2,4,3,NA,"Instruments",1,3,"left","left",0.671000004,1,1,1,1,NA,NA,NA,NA,NA,NA,NA,NA,NA,NA,NA,NA,NA,NA,NA,NA,NA,NA,NA,NA,NA,NA,NA,NA
"52","stim/objects/HouseObjects/flyswatter2.png",24,16,24,0.9,"stim/12.jpeg",1,2,3,NA,"HouseObjects",2,2,"right","right",0.582999945,1,1,1,1,NA,NA,NA,NA,NA,NA,NA,NA,NA,NA,NA,NA,NA,NA,NA,NA,NA,NA,NA,NA,NA,NA,NA,NA
"25","stim/objects/HouseObjects/doormat.png",25,16,25,0.5,"stim/34.jpeg",3,4,1,NA,"HouseObjects",2,1,"right","right",0.744999886,1,1,1,1,NA,NA,NA,NA,NA,NA,NA,NA,NA,NA,NA,NA,NA,NA,NA,NA,NA,NA,NA,NA,NA,NA,NA,NA
"106","stim/objects/HouseObjects/handbrush.png",26,16,26,0.7,"stim/53.jpeg",5,3,2,NA,"HouseObjects",2,3,"right","",NA,0,0,1,1,NA,NA,NA,NA,NA,NA,NA,NA,NA,NA,NA,NA,NA,NA,NA,NA,NA,NA,NA,NA,NA,NA,NA,NA
"17","stim/objects/HouseObjects/dishsoap.png",27,16,27,0.5,"stim/33.jpeg",3,3,1,NA,"HouseObjects",2,3,"right","right",0.617000103,1,1,1,1,NA,NA,NA,NA,NA,NA,NA,NA,NA,NA,NA,NA,NA,NA,NA,NA,NA,NA,NA,NA,NA,NA,NA,NA
"75","stim/objects/HouseObjects/glass.png",28,16,28,0.5,"stim/44.jpeg",4,4,1,NA,"HouseObjects",2,4,"right","",NA,0,0,1,1,NA,NA,NA,NA,NA,NA,NA,NA,NA,NA,NA,NA,NA,NA,NA,NA,NA,NA,NA,NA,NA,NA,NA,NA
"6","stim/objects/HouseObjects/coffee2.png",29,16,29,0.3,"stim/61.jpeg",6,1,2,NA,"HouseObjects",2,2,"right","left",0.605999947,0,0,1,1,NA,NA,NA,NA,NA,NA,NA,NA,NA,NA,NA,NA,NA,NA,NA,NA,NA,NA,NA,NA,NA,NA,NA,NA
"159","stim/objects/Instruments/flute.png",30,16,30,0.5,"stim/34.jpeg",3,4,1,NA,"Instruments",1,1,"left","left",0.720000029,1,1,1,1,NA,NA,NA,NA,NA,NA,NA,NA,NA,NA,NA,NA,NA,NA,NA,NA,NA,NA,NA,NA,NA,NA,NA,NA
"67","stim/objects/HouseObjects/garbagebin2.png",31,16,31,0.9,"stim/13.jpeg",1,3,3,NA,"HouseObjects",2,3,"right","right",0.597000122,1,1,1,1,NA,NA,NA,NA,NA,NA,NA,NA,NA,NA,NA,NA,NA,NA,NA,NA,NA,NA,NA,NA,NA,NA,NA,NA
"9","stim/objects/HouseObjects/cushion.png",32,16,32,0.5,"stim/32.jpeg",3,2,1,NA,"HouseObjects",2,1,"right","right",0.523000002,1,1,1,1,NA,NA,NA,NA,NA,NA,NA,NA,NA,NA,NA,NA,NA,NA,NA,NA,NA,NA,NA,NA,NA,NA,NA,NA
"104","stim/objects/HouseObjects/hairdryer2.png",33,16,33,0.1,"stim/22.jpeg",2,2,3,NA,"HouseObjects",2,2,"right","left",0.749000072,0,0,1,1,NA,NA,NA,NA,NA,NA,NA,NA,NA,NA,NA,NA,NA,NA,NA,NA,NA,NA,NA,NA,NA,NA,NA,NA
"80","stim/objects/HouseObjects/glass2.png",34,16,34,0.9,"stim/14.jpeg",1,4,3,NA,"HouseObjects",2,2,"right","left",0.340999842,0,0,1,1,NA,NA,NA,NA,NA,NA,NA,NA,NA,NA,NA,NA,NA,NA,NA,NA,NA,NA,NA,NA,NA,NA,NA,NA
"187","stim/objects/Instruments/grandpiano.png",35,16,35,0.5,"stim/44.jpeg",4,4,1,NA,"Instruments",1,2,"left","right",0.609000206,0,0,1,1,NA,NA,NA,NA,NA,NA,NA,NA,NA,NA,NA,NA,NA,NA,NA,NA,NA,NA,NA,NA,NA,NA,NA,NA
"233","stim/objects/Instruments/hihat2.png",36,16,36,0.9,"stim/24.jpeg",2,4,3,NA,"Instruments",1,1,"left","left",0.51699996,1,1,1,1,NA,NA,NA,NA,NA,NA,NA,NA,NA,NA,NA,NA,NA,NA,NA,NA,NA,NA,NA,NA,NA,NA,NA,NA
"160","stim/objects/Instruments/flute.png",37,16,37,0.5,"stim/34.jpeg",3,4,1,NA,"Instruments",1,2,"left","right",0.801999807,0,0,1,1,NA,NA,NA,NA,NA,NA,NA,NA,NA,NA,NA,NA,NA,NA,NA,NA,NA,NA,NA,NA,NA,NA,NA,NA
"18","stim/objects/HouseObjects/dishsoap.png",38,16,38,0.5,"stim/33.jpeg",3,3,1,NA,"HouseObjects",2,3,"right","left",0.568000078,0,0,1,1,NA,NA,NA,NA,NA,NA,NA,NA,NA,NA,NA,NA,NA,NA,NA,NA,NA,NA,NA,NA,NA,NA,NA,NA
"76","stim/objects/HouseObjects/glass.png",39,16,39,0.5,"stim/44.jpeg",4,4,1,NA,"HouseObjects",2,2,"right","right",0.687999964,1,1,1,1,NA,NA,NA,NA,NA,NA,NA,NA,NA,NA,NA,NA,NA,NA,NA,NA,NA,NA,NA,NA,NA,NA,NA,NA
"170","stim/objects/Instruments/flutetrans.png",40,16,40,0.5,"stim/41.jpeg",4,1,1,NA,"Instruments",1,1,"left","right",0.70299983,0,0,1,1,NA,NA,NA,NA,NA,NA,NA,NA,NA,NA,NA,NA,NA,NA,NA,NA,NA,NA,NA,NA,NA,NA,NA,NA
"62","stim/objects/HouseObjects/garbagebin.png",41,16,41,0.5,"stim/43.jpeg",4,3,1,NA,"HouseObjects",2,4,"right","left",0.677000046,0,0,1,1,NA,NA,NA,NA,NA,NA,NA,NA,NA,NA,NA,NA,NA,NA,NA,NA,NA,NA,NA,NA,NA,NA,NA,NA
"53","stim/objects/HouseObjects/flyswatter2.png",42,16,42,0.9,"stim/12.jpeg",1,2,3,NA,"HouseObjects",2,1,"right","right",0.605000019,1,1,1,1,NA,NA,NA,NA,NA,NA,NA,NA,NA,NA,NA,NA,NA,NA,NA,NA,NA,NA,NA,NA,NA,NA,NA,NA
"54","stim/objects/HouseObjects/flyswatter2.png",43,16,43,0.9,"stim/12.jpeg",1,2,3,NA,"HouseObjects",2,4,"right","right",0.75,1,1,1,1,NA,NA,NA,NA,NA,NA,NA,NA,NA,NA,NA,NA,NA,NA,NA,NA,NA,NA,NA,NA,NA,NA,NA,NA
"188","stim/objects/Instruments/grandpiano.png",44,16,44,0.5,"stim/44.jpeg",4,4,1,NA,"Instruments",1,3,"left","left",0.702000141,1,1,1,1,NA,NA,NA,NA,NA,NA,NA,NA,NA,NA,NA,NA,NA,NA,NA,NA,NA,NA,NA,NA,NA,NA,NA,NA
"30","stim/objects/HouseObjects/doormat2.png",45,16,45,0.3,"stim/64.jpeg",6,4,2,NA,"HouseObjects",2,4,"right","left",0.624000072,0,0,1,1,NA,NA,NA,NA,NA,NA,NA,NA,NA,NA,NA,NA,NA,NA,NA,NA,NA,NA,NA,NA,NA,NA,NA,NA
"150","stim/objects/Instruments/electricguitar2.png",46,16,46,0.7,"stim/63.jpeg",6,3,2,NA,"Instruments",1,3,"left","",NA,0,0,1,1,NA,NA,NA,NA,NA,NA,NA,NA,NA,NA,NA,NA,NA,NA,NA,NA,NA,NA,NA,NA,NA,NA,NA,NA
"196","stim/objects/Instruments/guitarcase2.png",47,16,47,0.9,"stim/21.jpeg",2,1,3,NA,"Instruments",1,1,"left","right",0.302000046,0,0,1,1,NA,NA,NA,NA,NA,NA,NA,NA,NA,NA,NA,NA,NA,NA,NA,NA,NA,NA,NA,NA,NA,NA,NA,NA
"19","stim/objects/HouseObjects/dishsoap.png",48,16,48,0.5,"stim/33.jpeg",3,3,1,NA,"HouseObjects",2,4,"right","right",0.631000042,1,1,1,1,NA,NA,NA,NA,NA,NA,NA,NA,NA,NA,NA,NA,NA,NA,NA,NA,NA,NA,NA,NA,NA,NA,NA,NA
"81","stim/objects/HouseObjects/glass2.png",49,16,49,0.9,"stim/14.jpeg",1,4,3,NA,"HouseObjects",2,1,"right","right",0.610000134,1,1,1,1,NA,NA,NA,NA,NA,NA,NA,NA,NA,NA,NA,NA,NA,NA,NA,NA,NA,NA,NA,NA,NA,NA,NA,NA
"162","stim/objects/Instruments/flute2.png",50,16,50,0.7,"stim/64.jpeg",6,4,2,NA,"Instruments",1,2,"left","left",0.674999952,1,1,1,1,NA,NA,NA,NA,NA,NA,NA,NA,NA,NA,NA,NA,NA,NA,NA,NA,NA,NA,NA,NA,NA,NA,NA,NA
"82","stim/objects/HouseObjects/glass2.png",51,16,51,0.9,"stim/14.jpeg",1,4,3,NA,"HouseObjects",2,3,"right","right",0.523999929,1,1,1,1,NA,NA,NA,NA,NA,NA,NA,NA,NA,NA,NA,NA,NA,NA,NA,NA,NA,NA,NA,NA,NA,NA,NA,NA
"229","stim/objects/Instruments/hihat.png",52,16,52,0.3,"stim/54.jpeg",5,4,2,NA,"Instruments",1,2,"left","right",0.618000031,0,0,1,1,NA,NA,NA,NA,NA,NA,NA,NA,NA,NA,NA,NA,NA,NA,NA,NA,NA,NA,NA,NA,NA,NA,NA,NA
"138","stim/objects/Instruments/electricdrumset2.png",53,16,53,0.7,"stim/62.jpeg",6,2,2,NA,"Instruments",1,3,"left","right",0.785000086,0,0,1,1,NA,NA,NA,NA,NA,NA,NA,NA,NA,NA,NA,NA,NA,NA,NA,NA,NA,NA,NA,NA,NA,NA,NA,NA
"176","stim/objects/Instruments/frenchhorn.png",54,16,54,0.5,"stim/42.jpeg",4,2,1,NA,"Instruments",1,4,"left","right",0.632999897,0,0,1,1,NA,NA,NA,NA,NA,NA,NA,NA,NA,NA,NA,NA,NA,NA,NA,NA,NA,NA,NA,NA,NA,NA,NA,NA
"194","stim/objects/Instruments/guitarcase.png",55,16,55,0.3,"stim/51.jpeg",5,1,2,NA,"Instruments",1,1,"left","right",0.620000124,0,0,1,1,NA,NA,NA,NA,NA,NA,NA,NA,NA,NA,NA,NA,NA,NA,NA,NA,NA,NA,NA,NA,NA,NA,NA,NA
"39","stim/objects/HouseObjects/dustpan2.png",56,16,56,0.9,"stim/11.jpeg",1,1,3,NA,"HouseObjects",2,2,"right","right",0.555000067,1,1,1,1,NA,NA,NA,NA,NA,NA,NA,NA,NA,NA,NA,NA,NA,NA,NA,NA,NA,NA,NA,NA,NA,NA,NA,NA
"139","stim/objects/Instruments/electricdrumset2.png",57,16,57,0.7,"stim/62.jpeg",6,2,2,NA,"Instruments",1,2,"left","left",0.822999954,1,1,1,1,NA,NA,NA,NA,NA,NA,NA,NA,NA,NA,NA,NA,NA,NA,NA,NA,NA,NA,NA,NA,NA,NA,NA,NA
"7","stim/objects/HouseObjects/coffee2.png",58,16,58,0.3,"stim/61.jpeg",6,1,2,NA,"HouseObjects",2,3,"right","",NA,0,0,1,1,NA,NA,NA,NA,NA,NA,NA,NA,NA,NA,NA,NA,NA,NA,NA,NA,NA,NA,NA,NA,NA,NA,NA,NA
"234","stim/objects/Instruments/hihat2.png",59,16,59,0.9,"stim/24.jpeg",2,4,3,NA,"Instruments",1,1,"left","right",0.664999962,0,0,1,1,NA,NA,NA,NA,NA,NA,NA,NA,NA,NA,NA,NA,NA,NA,NA,NA,NA,NA,NA,NA,NA,NA,NA,NA
"8","stim/objects/HouseObjects/coffee2.png",60,16,60,0.3,"stim/61.jpeg",6,1,2,NA,"HouseObjects",2,3,"right","",NA,0,0,1,1,NA,NA,NA,NA,NA,NA,NA,NA,NA,NA,NA,NA,NA,NA,NA,NA,NA,NA,NA,NA,NA,NA,NA,NA
"163","stim/objects/Instruments/flute2.png",61,16,61,0.7,"stim/64.jpeg",6,4,2,NA,"Instruments",1,1,"left","left",0.77699995,1,1,1,1,NA,NA,NA,NA,NA,NA,NA,NA,NA,NA,NA,NA,NA,NA,NA,NA,NA,NA,NA,NA,NA,NA,NA,NA
"31","stim/objects/HouseObjects/doormat2.png",62,16,62,0.3,"stim/64.jpeg",6,4,2,NA,"HouseObjects",2,1,"right","",NA,0,0,1,1,NA,NA,NA,NA,NA,NA,NA,NA,NA,NA,NA,NA,NA,NA,NA,NA,NA,NA,NA,NA,NA,NA,NA,NA
"55","stim/objects/HouseObjects/flyswatter2.png",63,16,63,0.9,"stim/12.jpeg",1,2,3,NA,"HouseObjects",2,4,"right","right",0.713000059,1,1,1,1,NA,NA,NA,NA,NA,NA,NA,NA,NA,NA,NA,NA,NA,NA,NA,NA,NA,NA,NA,NA,NA,NA,NA,NA
"56","stim/objects/HouseObjects/flyswatter2.png",64,16,64,0.9,"stim/12.jpeg",1,2,3,NA,"HouseObjects",2,3,"right","right",0.678999901,1,1,1,1,NA,NA,NA,NA,NA,NA,NA,NA,NA,NA,NA,NA,NA,NA,NA,NA,NA,NA,NA,NA,NA,NA,NA,NA
"174","stim/objects/Instruments/flutetrans2.png",65,16,65,0.1,"stim/11.jpeg",1,1,3,NA,"Instruments",1,3,"left","right",0.571000099,0,0,1,1,NA,NA,NA,NA,NA,NA,NA,NA,NA,NA,NA,NA,NA,NA,NA,NA,NA,NA,NA,NA,NA,NA,NA,NA
"126","stim/objects/Instruments/drums2.png",66,16,66,0.7,"stim/61.jpeg",6,1,2,NA,"Instruments",1,1,"left","",NA,0,0,1,1,NA,NA,NA,NA,NA,NA,NA,NA,NA,NA,NA,NA,NA,NA,NA,NA,NA,NA,NA,NA,NA,NA,NA,NA
"164","stim/objects/Instruments/flute2.png",67,16,67,0.7,"stim/64.jpeg",6,4,2,NA,"Instruments",1,4,"left","left",0.690000057,1,1,1,1,NA,NA,NA,NA,NA,NA,NA,NA,NA,NA,NA,NA,NA,NA,NA,NA,NA,NA,NA,NA,NA,NA,NA,NA
"83","stim/objects/HouseObjects/glass2.png",68,16,68,0.9,"stim/14.jpeg",1,4,3,NA,"HouseObjects",2,3,"right","right",0.585999966,1,1,1,1,NA,NA,NA,NA,NA,NA,NA,NA,NA,NA,NA,NA,NA,NA,NA,NA,NA,NA,NA,NA,NA,NA,NA,NA
"151","stim/objects/Instruments/electricguitar2.png",69,16,69,0.7,"stim/63.jpeg",6,3,2,NA,"Instruments",1,2,"left","left",0.740999937,1,1,1,1,NA,NA,NA,NA,NA,NA,NA,NA,NA,NA,NA,NA,NA,NA,NA,NA,NA,NA,NA,NA,NA,NA,NA,NA
"26","stim/objects/HouseObjects/doormat.png",70,16,70,0.5,"stim/34.jpeg",3,4,1,NA,"HouseObjects",2,1,"right","right",0.447000027,1,1,1,1,NA,NA,NA,NA,NA,NA,NA,NA,NA,NA,NA,NA,NA,NA,NA,NA,NA,NA,NA,NA,NA,NA,NA,NA
"107","stim/objects/HouseObjects/handbrush.png",71,16,71,0.7,"stim/53.jpeg",5,3,2,NA,"HouseObjects",2,2,"right","right",0.74000001,1,1,1,1,NA,NA,NA,NA,NA,NA,NA,NA,NA,NA,NA,NA,NA,NA,NA,NA,NA,NA,NA,NA,NA,NA,NA,NA
"192","stim/objects/Instruments/grandpiano2.png",72,16,72,0.1,"stim/14.jpeg",1,4,3,NA,"Instruments",1,2,"left","right",0.515000105,0,0,1,1,NA,NA,NA,NA,NA,NA,NA,NA,NA,NA,NA,NA,NA,NA,NA,NA,NA,NA,NA,NA,NA,NA,NA,NA
"127","stim/objects/Instruments/drums2.png",73,16,73,0.7,"stim/61.jpeg",6,1,2,NA,"Instruments",1,4,"left","right",0.396999836,0,0,1,1,NA,NA,NA,NA,NA,NA,NA,NA,NA,NA,NA,NA,NA,NA,NA,NA,NA,NA,NA,NA,NA,NA,NA,NA
"35","stim/objects/HouseObjects/dustpan.png",74,16,74,0.5,"stim/41.jpeg",4,1,1,NA,"HouseObjects",2,1,"right","right",0.677999973,1,1,1,1,NA,NA,NA,NA,NA,NA,NA,NA,NA,NA,NA,NA,NA,NA,NA,NA,NA,NA,NA,NA,NA,NA,NA,NA
"235","stim/objects/Instruments/hihat2.png",75,16,75,0.9,"stim/24.jpeg",2,4,3,NA,"Instruments",1,2,"left","left",0.583000183,1,1,1,1,NA,NA,NA,NA,NA,NA,NA,NA,NA,NA,NA,NA,NA,NA,NA,NA,NA,NA,NA,NA,NA,NA,NA,NA
"146","stim/objects/Instruments/electricguitar.png",76,16,76,0.5,"stim/33.jpeg",3,3,1,NA,"Instruments",1,4,"left","",NA,0,0,1,1,NA,NA,NA,NA,NA,NA,NA,NA,NA,NA,NA,NA,NA,NA,NA,NA,NA,NA,NA,NA,NA,NA,NA,NA
"113","stim/objects/HouseObjects/handvacuum.png",77,16,77,0.7,"stim/54.jpeg",5,4,2,NA,"HouseObjects",2,3,"right","right",0.463999987,1,1,1,1,NA,NA,NA,NA,NA,NA,NA,NA,NA,NA,NA,NA,NA,NA,NA,NA,NA,NA,NA,NA,NA,NA,NA,NA
"197","stim/objects/Instruments/guitarcase2.png",78,16,78,0.9,"stim/21.jpeg",2,1,3,NA,"Instruments",1,4,"left","right",0.444999933,0,0,1,1,NA,NA,NA,NA,NA,NA,NA,NA,NA,NA,NA,NA,NA,NA,NA,NA,NA,NA,NA,NA,NA,NA,NA,NA
"114","stim/objects/HouseObjects/handvacuum.png",79,16,79,0.7,"stim/54.jpeg",5,4,2,NA,"HouseObjects",2,4,"right","right",0.680999994,1,1,1,1,NA,NA,NA,NA,NA,NA,NA,NA,NA,NA,NA,NA,NA,NA,NA,NA,NA,NA,NA,NA,NA,NA,NA,NA
"189","stim/objects/Instruments/grandpiano.png",80,16,80,0.5,"stim/44.jpeg",4,4,1,NA,"Instruments",1,3,"left","right",0.715000153,0,0,1,1,NA,NA,NA,NA,NA,NA,NA,NA,NA,NA,NA,NA,NA,NA,NA,NA,NA,NA,NA,NA,NA,NA,NA,NA
"230","stim/objects/Instruments/hihat.png",81,16,81,0.3,"stim/54.jpeg",5,4,2,NA,"Instruments",1,2,"left","right",0.571000099,0,0,1,1,NA,NA,NA,NA,NA,NA,NA,NA,NA,NA,NA,NA,NA,NA,NA,NA,NA,NA,NA,NA,NA,NA,NA,NA
"236","stim/objects/Instruments/hihat2.png",82,16,82,0.9,"stim/24.jpeg",2,4,3,NA,"Instruments",1,4,"left","left",0.710999966,1,1,1,1,NA,NA,NA,NA,NA,NA,NA,NA,NA,NA,NA,NA,NA,NA,NA,NA,NA,NA,NA,NA,NA,NA,NA,NA
"90","stim/objects/HouseObjects/glassmop.png",83,16,83,0.7,"stim/51.jpeg",5,1,2,NA,"HouseObjects",2,3,"right","right",0.640000105,1,1,1,1,NA,NA,NA,NA,NA,NA,NA,NA,NA,NA,NA,NA,NA,NA,NA,NA,NA,NA,NA,NA,NA,NA,NA,NA
"222","stim/objects/Instruments/harp2.png",84,16,84,0.9,"stim/23.jpeg",2,3,3,NA,"Instruments",1,1,"left","left",0.621000051,1,1,1,1,NA,NA,NA,NA,NA,NA,NA,NA,NA,NA,NA,NA,NA,NA,NA,NA,NA,NA,NA,NA,NA,NA,NA,NA
"40","stim/objects/HouseObjects/dustpan2.png",85,16,85,0.9,"stim/11.jpeg",1,1,3,NA,"HouseObjects",2,1,"right","right",0.595000029,1,1,1,1,NA,NA,NA,NA,NA,NA,NA,NA,NA,NA,NA,NA,NA,NA,NA,NA,NA,NA,NA,NA,NA,NA,NA,NA
"147","stim/objects/Instruments/electricguitar.png",86,16,86,0.5,"stim/33.jpeg",3,3,1,NA,"Instruments",1,4,"left","left",0.827000141,1,1,1,1,NA,NA,NA,NA,NA,NA,NA,NA,NA,NA,NA,NA,NA,NA,NA,NA,NA,NA,NA,NA,NA,NA,NA,NA
"206","stim/objects/Instruments/harmonica.png",87,16,87,0.3,"stim/52.jpeg",5,2,2,NA,"Instruments",1,1,"left","right",0.606999874,0,0,1,1,NA,NA,NA,NA,NA,NA,NA,NA,NA,NA,NA,NA,NA,NA,NA,NA,NA,NA,NA,NA,NA,NA,NA,NA
"32","stim/objects/HouseObjects/doormat2.png",88,16,88,0.3,"stim/64.jpeg",6,4,2,NA,"HouseObjects",2,2,"right","left",0.837000132,0,0,1,1,NA,NA,NA,NA,NA,NA,NA,NA,NA,NA,NA,NA,NA,NA,NA,NA,NA,NA,NA,NA,NA,NA,NA,NA
"112","stim/objects/HouseObjects/handbrush2.png",89,16,89,0.1,"stim/23.jpeg",2,3,3,NA,"HouseObjects",2,4,"right","left",0.818000078,0,0,1,1,NA,NA,NA,NA,NA,NA,NA,NA,NA,NA,NA,NA,NA,NA,NA,NA,NA,NA,NA,NA,NA,NA,NA,NA
"41","stim/objects/HouseObjects/dustpan2.png",90,16,90,0.9,"stim/11.jpeg",1,1,3,NA,"HouseObjects",2,4,"right","right",0.664999962,1,1,1,1,NA,NA,NA,NA,NA,NA,NA,NA,NA,NA,NA,NA,NA,NA,NA,NA,NA,NA,NA,NA,NA,NA,NA,NA
"223","stim/objects/Instruments/harp2.png",91,16,91,0.9,"stim/23.jpeg",2,3,3,NA,"Instruments",1,4,"left","left",0.576999903,1,1,1,1,NA,NA,NA,NA,NA,NA,NA,NA,NA,NA,NA,NA,NA,NA,NA,NA,NA,NA,NA,NA,NA,NA,NA,NA
"10","stim/objects/HouseObjects/cushion.png",92,16,92,0.5,"stim/32.jpeg",3,2,1,NA,"HouseObjects",2,1,"right","right",0.834000111,1,1,1,1,NA,NA,NA,NA,NA,NA,NA,NA,NA,NA,NA,NA,NA,NA,NA,NA,NA,NA,NA,NA,NA,NA,NA,NA
"198","stim/objects/Instruments/guitarcase2.png",93,16,93,0.9,"stim/21.jpeg",2,1,3,NA,"Instruments",1,1,"left","right",0.644999981,0,0,1,1,NA,NA,NA,NA,NA,NA,NA,NA,NA,NA,NA,NA,NA,NA,NA,NA,NA,NA,NA,NA,NA,NA,NA,NA
"27","stim/objects/HouseObjects/doormat.png",94,16,94,0.5,"stim/34.jpeg",3,4,1,NA,"HouseObjects",2,3,"right","right",0.764999866,1,1,1,1,NA,NA,NA,NA,NA,NA,NA,NA,NA,NA,NA,NA,NA,NA,NA,NA,NA,NA,NA,NA,NA,NA,NA,NA
"165","stim/objects/Instruments/flute2.png",95,16,95,0.7,"stim/64.jpeg",6,4,2,NA,"Instruments",1,4,"left","right",0.694000006,0,0,1,1,NA,NA,NA,NA,NA,NA,NA,NA,NA,NA,NA,NA,NA,NA,NA,NA,NA,NA,NA,NA,NA,NA,NA,NA
"84","stim/objects/HouseObjects/glass2.png",96,16,96,0.9,"stim/14.jpeg",1,4,3,NA,"HouseObjects",2,4,"right","right",0.40500021,1,1,1,1,NA,NA,NA,NA,NA,NA,NA,NA,NA,NA,NA,NA,NA,NA,NA,NA,NA,NA,NA,NA,NA,NA,NA,NA
"47","stim/objects/HouseObjects/flyswatter.png",97,16,97,0.5,"stim/42.jpeg",4,2,1,NA,"HouseObjects",2,3,"right","right",0.632999897,1,1,1,1,NA,NA,NA,NA,NA,NA,NA,NA,NA,NA,NA,NA,NA,NA,NA,NA,NA,NA,NA,NA,NA,NA,NA,NA
"108","stim/objects/HouseObjects/handbrush.png",98,16,98,0.7,"stim/53.jpeg",5,3,2,NA,"HouseObjects",2,1,"right","left",0.685000181,0,0,1,1,NA,NA,NA,NA,NA,NA,NA,NA,NA,NA,NA,NA,NA,NA,NA,NA,NA,NA,NA,NA,NA,NA,NA,NA
"152","stim/objects/Instruments/electricguitar2.png",99,16,99,0.7,"stim/63.jpeg",6,3,2,NA,"Instruments",1,1,"left","",NA,0,0,1,1,NA,NA,NA,NA,NA,NA,NA,NA,NA,NA,NA,NA,NA,NA,NA,NA,NA,NA,NA,NA,NA,NA,NA,NA
"1","stim/objects/HouseObjects/coffee.png",100,16,100,0.5,"stim/31.jpeg",3,1,1,NA,"HouseObjects",2,2,"right","right",0.412999868,1,1,1,1,NA,NA,NA,NA,NA,NA,NA,NA,NA,NA,NA,NA,NA,NA,NA,NA,NA,NA,NA,NA,NA,NA,NA,NA
"68","stim/objects/HouseObjects/garbagebin2.png",101,16,101,0.9,"stim/13.jpeg",1,3,3,NA,"HouseObjects",2,1,"right","right",0.726000071,1,1,1,1,NA,NA,NA,NA,NA,NA,NA,NA,NA,NA,NA,NA,NA,NA,NA,NA,NA,NA,NA,NA,NA,NA,NA,NA
"224","stim/objects/Instruments/harp2.png",102,16,102,0.9,"stim/23.jpeg",2,3,3,NA,"Instruments",1,4,"left","left",0.782000065,1,1,1,1,NA,NA,NA,NA,NA,NA,NA,NA,NA,NA,NA,NA,NA,NA,NA,NA,NA,NA,NA,NA,NA,NA,NA,NA
"2","stim/objects/HouseObjects/coffee.png",103,16,103,0.5,"stim/31.jpeg",3,1,1,NA,"HouseObjects",2,3,"right","right",0.641000032,1,1,1,1,NA,NA,NA,NA,NA,NA,NA,NA,NA,NA,NA,NA,NA,NA,NA,NA,NA,NA,NA,NA,NA,NA,NA,NA
"115","stim/objects/HouseObjects/handvacuum.png",104,16,104,0.7,"stim/54.jpeg",5,4,2,NA,"HouseObjects",2,4,"right","right",0.654999971,1,1,1,1,NA,NA,NA,NA,NA,NA,NA,NA,NA,NA,NA,NA,NA,NA,NA,NA,NA,NA,NA,NA,NA,NA,NA,NA
"128","stim/objects/Instruments/drums2.png",105,16,105,0.7,"stim/61.jpeg",6,1,2,NA,"Instruments",1,2,"left","right",0.491000175,0,0,1,1,NA,NA,NA,NA,NA,NA,NA,NA,NA,NA,NA,NA,NA,NA,NA,NA,NA,NA,NA,NA,NA,NA,NA,NA
"63","stim/objects/HouseObjects/garbagebin.png",106,16,106,0.5,"stim/43.jpeg",4,3,1,NA,"HouseObjects",2,3,"right","right",0.648000002,1,1,1,1,NA,NA,NA,NA,NA,NA,NA,NA,NA,NA,NA,NA,NA,NA,NA,NA,NA,NA,NA,NA,NA,NA,NA,NA
"177","stim/objects/Instruments/frenchhorn.png",107,16,107,0.5,"stim/42.jpeg",4,2,1,NA,"Instruments",1,2,"left","",NA,0,0,1,1,NA,NA,NA,NA,NA,NA,NA,NA,NA,NA,NA,NA,NA,NA,NA,NA,NA,NA,NA,NA,NA,NA,NA,NA
"181","stim/objects/Instruments/gong.png",108,16,108,0.5,"stim/43.jpeg",4,3,1,NA,"Instruments",1,4,"left","right",0.622999907,0,0,1,1,NA,NA,NA,NA,NA,NA,NA,NA,NA,NA,NA,NA,NA,NA,NA,NA,NA,NA,NA,NA,NA,NA,NA,NA
"225","stim/objects/Instruments/harp2.png",109,16,109,0.9,"stim/23.jpeg",2,3,3,NA,"Instruments",1,1,"left","left",0.595000029,1,1,1,1,NA,NA,NA,NA,NA,NA,NA,NA,NA,NA,NA,NA,NA,NA,NA,NA,NA,NA,NA,NA,NA,NA,NA,NA
"97","stim/objects/HouseObjects/hairdryer.png",110,16,110,0.7,"stim/52.jpeg",5,2,2,NA,"HouseObjects",2,1,"right","right",0.690000057,1,1,1,1,NA,NA,NA,NA,NA,NA,NA,NA,NA,NA,NA,NA,NA,NA,NA,NA,NA,NA,NA,NA,NA,NA,NA,NA
"28","stim/objects/HouseObjects/doormat.png",111,16,111,0.5,"stim/34.jpeg",3,4,1,NA,"HouseObjects",2,1,"right","right",0.777999878,1,1,1,1,NA,NA,NA,NA,NA,NA,NA,NA,NA,NA,NA,NA,NA,NA,NA,NA,NA,NA,NA,NA,NA,NA,NA,NA
"153","stim/objects/Instruments/electricguitar2.png",112,16,112,0.7,"stim/63.jpeg",6,3,2,NA,"Instruments",1,4,"left","left",0.782999992,1,1,1,1,NA,NA,NA,NA,NA,NA,NA,NA,NA,NA,NA,NA,NA,NA,NA,NA,NA,NA,NA,NA,NA,NA,NA,NA
"98","stim/objects/HouseObjects/hairdryer.png",113,16,113,0.7,"stim/52.jpeg",5,2,2,NA,"HouseObjects",2,2,"right","right",0.708999872,1,1,1,1,NA,NA,NA,NA,NA,NA,NA,NA,NA,NA,NA,NA,NA,NA,NA,NA,NA,NA,NA,NA,NA,NA,NA,NA
"48","stim/objects/HouseObjects/flyswatter.png",114,16,114,0.5,"stim/42.jpeg",4,2,1,NA,"HouseObjects",2,2,"right","left",0.451000214,0,0,1,1,NA,NA,NA,NA,NA,NA,NA,NA,NA,NA,NA,NA,NA,NA,NA,NA,NA,NA,NA,NA,NA,NA,NA,NA
"140","stim/objects/Instruments/electricdrumset2.png",115,16,115,0.7,"stim/62.jpeg",6,2,2,NA,"Instruments",1,3,"left","right",0.809999943,0,0,1,1,NA,NA,NA,NA,NA,NA,NA,NA,NA,NA,NA,NA,NA,NA,NA,NA,NA,NA,NA,NA,NA,NA,NA,NA
"231","stim/objects/Instruments/hihat.png",116,16,116,0.3,"stim/54.jpeg",5,4,2,NA,"Instruments",1,1,"left","right",0.65899992,0,0,1,1,NA,NA,NA,NA,NA,NA,NA,NA,NA,NA,NA,NA,NA,NA,NA,NA,NA,NA,NA,NA,NA,NA,NA,NA
"36","stim/objects/HouseObjects/dustpan.png",117,16,117,0.5,"stim/41.jpeg",4,1,1,NA,"HouseObjects",2,4,"right","right",0.571999788,1,1,1,1,NA,NA,NA,NA,NA,NA,NA,NA,NA,NA,NA,NA,NA,NA,NA,NA,NA,NA,NA,NA,NA,NA,NA,NA
"166","stim/objects/Instruments/flute2.png",118,16,118,0.7,"stim/64.jpeg",6,4,2,NA,"Instruments",1,3,"left","left",0.798999786,1,1,1,1,NA,NA,NA,NA,NA,NA,NA,NA,NA,NA,NA,NA,NA,NA,NA,NA,NA,NA,NA,NA,NA,NA,NA,NA
"42","stim/objects/HouseObjects/dustpan2.png",119,16,119,0.9,"stim/11.jpeg",1,1,3,NA,"HouseObjects",2,2,"right","right",0.654999971,1,1,1,1,NA,NA,NA,NA,NA,NA,NA,NA,NA,NA,NA,NA,NA,NA,NA,NA,NA,NA,NA,NA,NA,NA,NA,NA
"167","stim/objects/Instruments/flute2.png",120,16,120,0.7,"stim/64.jpeg",6,4,2,NA,"Instruments",1,4,"left","right",0.64199996,0,0,1,1,NA,NA,NA,NA,NA,NA,NA,NA,NA,NA,NA,NA,NA,NA,NA,NA,NA,NA,NA,NA,NA,NA,NA,NA
"22","stim/objects/HouseObjects/dishsoap2.png",121,16,121,0.3,"stim/63.jpeg",6,3,2,NA,"HouseObjects",2,2,"right","right",0.79399991,1,1,1,1,NA,NA,NA,NA,NA,NA,NA,NA,NA,NA,NA,NA,NA,NA,NA,NA,NA,NA,NA,NA,NA,NA,NA,NA
"161","stim/objects/Instruments/flute.png",122,16,122,0.5,"stim/34.jpeg",3,4,1,NA,"Instruments",1,2,"left","right",0.737999916,0,0,1,1,NA,NA,NA,NA,NA,NA,NA,NA,NA,NA,NA,NA,NA,NA,NA,NA,NA,NA,NA,NA,NA,NA,NA,NA
"237","stim/objects/Instruments/hihat2.png",123,16,123,0.9,"stim/24.jpeg",2,4,3,NA,"Instruments",1,1,"left","left",0.617000103,1,1,1,1,NA,NA,NA,NA,NA,NA,NA,NA,NA,NA,NA,NA,NA,NA,NA,NA,NA,NA,NA,NA,NA,NA,NA,NA
"178","stim/objects/Instruments/frenchhorn.png",124,16,124,0.5,"stim/42.jpeg",4,2,1,NA,"Instruments",1,3,"left","right",0.506000042,0,0,1,1,NA,NA,NA,NA,NA,NA,NA,NA,NA,NA,NA,NA,NA,NA,NA,NA,NA,NA,NA,NA,NA,NA,NA,NA
"208","stim/objects/Instruments/harmonica2.png",125,16,125,0.9,"stim/22.jpeg",2,2,3,NA,"Instruments",1,1,"left","left",0.671000004,1,1,1,1,NA,NA,NA,NA,NA,NA,NA,NA,NA,NA,NA,NA,NA,NA,NA,NA,NA,NA,NA,NA,NA,NA,NA,NA
"29","stim/objects/HouseObjects/doormat.png",126,16,126,0.5,"stim/34.jpeg",3,4,1,NA,"HouseObjects",2,3,"right","",NA,0,0,1,1,NA,NA,NA,NA,NA,NA,NA,NA,NA,NA,NA,NA,NA,NA,NA,NA,NA,NA,NA,NA,NA,NA,NA,NA
"182","stim/objects/Instruments/gong.png",127,16,127,0.5,"stim/43.jpeg",4,3,1,NA,"Instruments",1,1,"left","right",0.70600009,0,0,1,1,NA,NA,NA,NA,NA,NA,NA,NA,NA,NA,NA,NA,NA,NA,NA,NA,NA,NA,NA,NA,NA,NA,NA,NA
"91","stim/objects/HouseObjects/glassmop.png",128,16,128,0.7,"stim/51.jpeg",5,1,2,NA,"HouseObjects",2,4,"right","right",0.58100009,1,1,1,1,NA,NA,NA,NA,NA,NA,NA,NA,NA,NA,NA,NA,NA,NA,NA,NA,NA,NA,NA,NA,NA,NA,NA,NA
"92","stim/objects/HouseObjects/glassmop.png",129,16,129,0.7,"stim/51.jpeg",5,1,2,NA,"HouseObjects",2,4,"right","right",0.724000216,1,1,1,1,NA,NA,NA,NA,NA,NA,NA,NA,NA,NA,NA,NA,NA,NA,NA,NA,NA,NA,NA,NA,NA,NA,NA,NA
"209","stim/objects/Instruments/harmonica2.png",130,16,130,0.9,"stim/22.jpeg",2,2,3,NA,"Instruments",1,2,"left","left",0.681999922,1,1,1,1,NA,NA,NA,NA,NA,NA,NA,NA,NA,NA,NA,NA,NA,NA,NA,NA,NA,NA,NA,NA,NA,NA,NA,NA
"57","stim/objects/HouseObjects/flyswatter2.png",131,16,131,0.9,"stim/12.jpeg",1,2,3,NA,"HouseObjects",2,2,"right","right",0.721000195,1,1,1,1,NA,NA,NA,NA,NA,NA,NA,NA,NA,NA,NA,NA,NA,NA,NA,NA,NA,NA,NA,NA,NA,NA,NA,NA
"116","stim/objects/HouseObjects/handvacuum.png",132,16,132,0.7,"stim/54.jpeg",5,4,2,NA,"HouseObjects",2,1,"right","",NA,0,0,1,1,NA,NA,NA,NA,NA,NA,NA,NA,NA,NA,NA,NA,NA,NA,NA,NA,NA,NA,NA,NA,NA,NA,NA,NA
"199","stim/objects/Instruments/guitarcase2.png",133,16,133,0.9,"stim/21.jpeg",2,1,3,NA,"Instruments",1,2,"left","left",0.625,1,1,1,1,NA,NA,NA,NA,NA,NA,NA,NA,NA,NA,NA,NA,NA,NA,NA,NA,NA,NA,NA,NA,NA,NA,NA,NA
"148","stim/objects/Instruments/electricguitar.png",134,16,134,0.5,"stim/33.jpeg",3,3,1,NA,"Instruments",1,1,"left","right",0.700000048,0,0,1,1,NA,NA,NA,NA,NA,NA,NA,NA,NA,NA,NA,NA,NA,NA,NA,NA,NA,NA,NA,NA,NA,NA,NA,NA
"37","stim/objects/HouseObjects/dustpan.png",135,16,135,0.5,"stim/41.jpeg",4,1,1,NA,"HouseObjects",2,4,"right","right",0.774999857,1,1,1,1,NA,NA,NA,NA,NA,NA,NA,NA,NA,NA,NA,NA,NA,NA,NA,NA,NA,NA,NA,NA,NA,NA,NA,NA
"141","stim/objects/Instruments/electricdrumset2.png",136,16,136,0.7,"stim/62.jpeg",6,2,2,NA,"Instruments",1,4,"left","right",0.656999826,0,0,1,1,NA,NA,NA,NA,NA,NA,NA,NA,NA,NA,NA,NA,NA,NA,NA,NA,NA,NA,NA,NA,NA,NA,NA,NA
"99","stim/objects/HouseObjects/hairdryer.png",137,16,137,0.7,"stim/52.jpeg",5,2,2,NA,"HouseObjects",2,4,"right","right",0.671999931,1,1,1,1,NA,NA,NA,NA,NA,NA,NA,NA,NA,NA,NA,NA,NA,NA,NA,NA,NA,NA,NA,NA,NA,NA,NA,NA
"3","stim/objects/HouseObjects/coffee.png",138,16,138,0.5,"stim/31.jpeg",3,1,1,NA,"HouseObjects",2,1,"right","",NA,0,0,1,1,NA,NA,NA,NA,NA,NA,NA,NA,NA,NA,NA,NA,NA,NA,NA,NA,NA,NA,NA,NA,NA,NA,NA,NA
"58","stim/objects/HouseObjects/flyswatter2.png",139,16,139,0.9,"stim/12.jpeg",1,2,3,NA,"HouseObjects",2,2,"right","right",0.59100008,1,1,1,1,NA,NA,NA,NA,NA,NA,NA,NA,NA,NA,NA,NA,NA,NA,NA,NA,NA,NA,NA,NA,NA,NA,NA,NA
"238","stim/objects/Instruments/hihat2.png",140,16,140,0.9,"stim/24.jpeg",2,4,3,NA,"Instruments",1,4,"left","left",0.633000135,1,1,1,1,NA,NA,NA,NA,NA,NA,NA,NA,NA,NA,NA,NA,NA,NA,NA,NA,NA,NA,NA,NA,NA,NA,NA,NA
"69","stim/objects/HouseObjects/garbagebin2.png",141,16,141,0.9,"stim/13.jpeg",1,3,3,NA,"HouseObjects",2,4,"right","right",0.674999952,1,1,1,1,NA,NA,NA,NA,NA,NA,NA,NA,NA,NA,NA,NA,NA,NA,NA,NA,NA,NA,NA,NA,NA,NA,NA,NA
"210","stim/objects/Instruments/harmonica2.png",142,16,142,0.9,"stim/22.jpeg",2,2,3,NA,"Instruments",1,3,"left","",NA,0,0,1,1,NA,NA,NA,NA,NA,NA,NA,NA,NA,NA,NA,NA,NA,NA,NA,NA,NA,NA,NA,NA,NA,NA,NA,NA
"117","stim/objects/HouseObjects/handvacuum.png",143,16,143,0.7,"stim/54.jpeg",5,4,2,NA,"HouseObjects",2,4,"right","",NA,0,0,1,1,NA,NA,NA,NA,NA,NA,NA,NA,NA,NA,NA,NA,NA,NA,NA,NA,NA,NA,NA,NA,NA,NA,NA,NA
"11","stim/objects/HouseObjects/cushion.png",144,16,144,0.5,"stim/32.jpeg",3,2,1,NA,"HouseObjects",2,1,"right","",NA,0,0,1,1,NA,NA,NA,NA,NA,NA,NA,NA,NA,NA,NA,NA,NA,NA,NA,NA,NA,NA,NA,NA,NA,NA,NA,NA
"142","stim/objects/Instruments/electricdrumset2.png",145,16,145,0.7,"stim/62.jpeg",6,2,2,NA,"Instruments",1,4,"left","right",0.632999897,0,0,1,1,NA,NA,NA,NA,NA,NA,NA,NA,NA,NA,NA,NA,NA,NA,NA,NA,NA,NA,NA,NA,NA,NA,NA,NA
"64","stim/objects/HouseObjects/garbagebin.png",146,16,146,0.5,"stim/43.jpeg",4,3,1,NA,"HouseObjects",2,1,"right","right",0.628000021,1,1,1,1,NA,NA,NA,NA,NA,NA,NA,NA,NA,NA,NA,NA,NA,NA,NA,NA,NA,NA,NA,NA,NA,NA,NA,NA
"123","stim/objects/Instruments/drums.png",147,16,147,0.5,"stim/31.jpeg",3,1,1,NA,"Instruments",1,2,"left","right",0.663999796,0,0,1,1,NA,NA,NA,NA,NA,NA,NA,NA,NA,NA,NA,NA,NA,NA,NA,NA,NA,NA,NA,NA,NA,NA,NA,NA
"186","stim/objects/Instruments/gong2.png",148,16,148,0.1,"stim/13.jpeg",1,3,3,NA,"Instruments",1,2,"left","right",0.470000029,0,0,1,1,NA,NA,NA,NA,NA,NA,NA,NA,NA,NA,NA,NA,NA,NA,NA,NA,NA,NA,NA,NA,NA,NA,NA,NA
"12","stim/objects/HouseObjects/cushion.png",149,16,149,0.5,"stim/32.jpeg",3,2,1,NA,"HouseObjects",2,4,"right","right",0.743999958,1,1,1,1,NA,NA,NA,NA,NA,NA,NA,NA,NA,NA,NA,NA,NA,NA,NA,NA,NA,NA,NA,NA,NA,NA,NA,NA
"100","stim/objects/HouseObjects/hairdryer.png",150,16,150,0.7,"stim/52.jpeg",5,2,2,NA,"HouseObjects",2,3,"right","",NA,0,0,1,1,NA,NA,NA,NA,NA,NA,NA,NA,NA,NA,NA,NA,NA,NA,NA,NA,NA,NA,NA,NA,NA,NA,NA,NA
"211","stim/objects/Instruments/harmonica2.png",151,16,151,0.9,"stim/22.jpeg",2,2,3,NA,"Instruments",1,3,"left","right",0.690000057,0,0,1,1,NA,NA,NA,NA,NA,NA,NA,NA,NA,NA,NA,NA,NA,NA,NA,NA,NA,NA,NA,NA,NA,NA,NA,NA
"239","stim/objects/Instruments/hihat2.png",152,16,152,0.9,"stim/24.jpeg",2,4,3,NA,"Instruments",1,4,"left","left",0.655999899,1,1,1,1,NA,NA,NA,NA,NA,NA,NA,NA,NA,NA,NA,NA,NA,NA,NA,NA,NA,NA,NA,NA,NA,NA,NA,NA
"200","stim/objects/Instruments/guitarcase2.png",153,16,153,0.9,"stim/21.jpeg",2,1,3,NA,"Instruments",1,2,"left","left",0.649000168,1,1,1,1,NA,NA,NA,NA,NA,NA,NA,NA,NA,NA,NA,NA,NA,NA,NA,NA,NA,NA,NA,NA,NA,NA,NA,NA
"85","stim/objects/HouseObjects/glass2.png",154,16,154,0.9,"stim/14.jpeg",1,4,3,NA,"HouseObjects",2,1,"right","right",0.551000118,1,1,1,1,NA,NA,NA,NA,NA,NA,NA,NA,NA,NA,NA,NA,NA,NA,NA,NA,NA,NA,NA,NA,NA,NA,NA,NA
"124","stim/objects/Instruments/drums.png",155,16,155,0.5,"stim/31.jpeg",3,1,1,NA,"Instruments",1,2,"left","left",0.721999884,1,1,1,1,NA,NA,NA,NA,NA,NA,NA,NA,NA,NA,NA,NA,NA,NA,NA,NA,NA,NA,NA,NA,NA,NA,NA,NA
"77","stim/objects/HouseObjects/glass.png",156,16,156,0.5,"stim/44.jpeg",4,4,1,NA,"HouseObjects",2,3,"right","right",0.739000082,1,1,1,1,NA,NA,NA,NA,NA,NA,NA,NA,NA,NA,NA,NA,NA,NA,NA,NA,NA,NA,NA,NA,NA,NA,NA,NA
"43","stim/objects/HouseObjects/dustpan2.png",157,16,157,0.9,"stim/11.jpeg",1,1,3,NA,"HouseObjects",2,1,"right","right",0.609000206,1,1,1,1,NA,NA,NA,NA,NA,NA,NA,NA,NA,NA,NA,NA,NA,NA,NA,NA,NA,NA,NA,NA,NA,NA,NA,NA
"120","stim/objects/HouseObjects/handvacuum2.png",158,16,158,0.1,"stim/24.jpeg",2,4,3,NA,"HouseObjects",2,3,"right","left",0.640000105,0,0,1,1,NA,NA,NA,NA,NA,NA,NA,NA,NA,NA,NA,NA,NA,NA,NA,NA,NA,NA,NA,NA,NA,NA,NA,NA
"201","stim/objects/Instruments/guitarcase2.png",159,16,159,0.9,"stim/21.jpeg",2,1,3,NA,"Instruments",1,1,"left","left",0.617000103,1,1,1,1,NA,NA,NA,NA,NA,NA,NA,NA,NA,NA,NA,NA,NA,NA,NA,NA,NA,NA,NA,NA,NA,NA,NA,NA
"23","stim/objects/HouseObjects/dishsoap2.png",160,16,160,0.3,"stim/63.jpeg",6,3,2,NA,"HouseObjects",2,4,"right","left",0.565000057,0,0,1,1,NA,NA,NA,NA,NA,NA,NA,NA,NA,NA,NA,NA,NA,NA,NA,NA,NA,NA,NA,NA,NA,NA,NA,NA
"129","stim/objects/Instruments/drums2.png",161,16,161,0.7,"stim/61.jpeg",6,1,2,NA,"Instruments",1,1,"left","left",0.545000076,1,1,1,1,NA,NA,NA,NA,NA,NA,NA,NA,NA,NA,NA,NA,NA,NA,NA,NA,NA,NA,NA,NA,NA,NA,NA,NA
"154","stim/objects/Instruments/electricguitar2.png",162,16,162,0.7,"stim/63.jpeg",6,3,2,NA,"Instruments",1,2,"left","left",0.556999922,1,1,1,1,NA,NA,NA,NA,NA,NA,NA,NA,NA,NA,NA,NA,NA,NA,NA,NA,NA,NA,NA,NA,NA,NA,NA,NA
"49","stim/objects/HouseObjects/flyswatter.png",163,16,163,0.5,"stim/42.jpeg",4,2,1,NA,"HouseObjects",2,2,"right","",NA,0,0,1,1,NA,NA,NA,NA,NA,NA,NA,NA,NA,NA,NA,NA,NA,NA,NA,NA,NA,NA,NA,NA,NA,NA,NA,NA
"65","stim/objects/HouseObjects/garbagebin.png",164,16,164,0.5,"stim/43.jpeg",4,3,1,NA,"HouseObjects",2,3,"right","right",0.605000019,1,1,1,1,NA,NA,NA,NA,NA,NA,NA,NA,NA,NA,NA,NA,NA,NA,NA,NA,NA,NA,NA,NA,NA,NA,NA,NA
"143","stim/objects/Instruments/electricdrumset2.png",165,16,165,0.7,"stim/62.jpeg",6,2,2,NA,"Instruments",1,1,"left","left",0.53399992,1,1,1,1,NA,NA,NA,NA,NA,NA,NA,NA,NA,NA,NA,NA,NA,NA,NA,NA,NA,NA,NA,NA,NA,NA,NA,NA
"155","stim/objects/Instruments/electricguitar2.png",166,16,166,0.7,"stim/63.jpeg",6,3,2,NA,"Instruments",1,2,"left","left",0.589999914,1,1,1,1,NA,NA,NA,NA,NA,NA,NA,NA,NA,NA,NA,NA,NA,NA,NA,NA,NA,NA,NA,NA,NA,NA,NA,NA
"101","stim/objects/HouseObjects/hairdryer.png",167,16,167,0.7,"stim/52.jpeg",5,2,2,NA,"HouseObjects",2,2,"right","right",0.553999901,1,1,1,1,NA,NA,NA,NA,NA,NA,NA,NA,NA,NA,NA,NA,NA,NA,NA,NA,NA,NA,NA,NA,NA,NA,NA,NA
"212","stim/objects/Instruments/harmonica2.png",168,16,168,0.9,"stim/22.jpeg",2,2,3,NA,"Instruments",1,4,"left","right",0.428000212,0,0,1,1,NA,NA,NA,NA,NA,NA,NA,NA,NA,NA,NA,NA,NA,NA,NA,NA,NA,NA,NA,NA,NA,NA,NA,NA
"86","stim/objects/HouseObjects/glass2.png",169,16,169,0.9,"stim/14.jpeg",1,4,3,NA,"HouseObjects",2,2,"right","right",0.509000063,1,1,1,1,NA,NA,NA,NA,NA,NA,NA,NA,NA,NA,NA,NA,NA,NA,NA,NA,NA,NA,NA,NA,NA,NA,NA,NA
"144","stim/objects/Instruments/electricdrumset2.png",170,16,170,0.7,"stim/62.jpeg",6,2,2,NA,"Instruments",1,3,"left","right",0.483999968,0,0,1,1,NA,NA,NA,NA,NA,NA,NA,NA,NA,NA,NA,NA,NA,NA,NA,NA,NA,NA,NA,NA,NA,NA,NA,NA
"183","stim/objects/Instruments/gong.png",171,16,171,0.5,"stim/43.jpeg",4,3,1,NA,"Instruments",1,4,"left","right",0.000999928,0,0,1,1,NA,NA,NA,NA,NA,NA,NA,NA,NA,NA,NA,NA,NA,NA,NA,NA,NA,NA,NA,NA,NA,NA,NA,NA
"156","stim/objects/Instruments/electricguitar2.png",172,16,172,0.7,"stim/63.jpeg",6,3,2,NA,"Instruments",1,3,"left","left",0.546000004,1,1,1,1,NA,NA,NA,NA,NA,NA,NA,NA,NA,NA,NA,NA,NA,NA,NA,NA,NA,NA,NA,NA,NA,NA,NA,NA
"226","stim/objects/Instruments/harp2.png",173,16,173,0.9,"stim/23.jpeg",2,3,3,NA,"Instruments",1,3,"left","",NA,0,0,1,1,NA,NA,NA,NA,NA,NA,NA,NA,NA,NA,NA,NA,NA,NA,NA,NA,NA,NA,NA,NA,NA,NA,NA,NA
"227","stim/objects/Instruments/harp2.png",174,16,174,0.9,"stim/23.jpeg",2,3,3,NA,"Instruments",1,3,"left","left",0.476000071,1,1,1,1,NA,NA,NA,NA,NA,NA,NA,NA,NA,NA,NA,NA,NA,NA,NA,NA,NA,NA,NA,NA,NA,NA,NA,NA
"213","stim/objects/Instruments/harmonica2.png",175,16,175,0.9,"stim/22.jpeg",2,2,3,NA,"Instruments",1,4,"left","left",0.688999891,1,1,1,1,NA,NA,NA,NA,NA,NA,NA,NA,NA,NA,NA,NA,NA,NA,NA,NA,NA,NA,NA,NA,NA,NA,NA,NA
"133","stim/objects/Instruments/electricdrumset.png",176,16,176,0.5,"stim/32.jpeg",3,2,1,NA,"Instruments",1,3,"left","left",0.392999887,1,1,1,1,NA,NA,NA,NA,NA,NA,NA,NA,NA,NA,NA,NA,NA,NA,NA,NA,NA,NA,NA,NA,NA,NA,NA,NA
"214","stim/objects/Instruments/harmonica2.png",177,16,177,0.9,"stim/22.jpeg",2,2,3,NA,"Instruments",1,2,"left","left",0.480999947,1,1,1,1,NA,NA,NA,NA,NA,NA,NA,NA,NA,NA,NA,NA,NA,NA,NA,NA,NA,NA,NA,NA,NA,NA,NA,NA
"195","stim/objects/Instruments/guitarcase.png",178,16,178,0.3,"stim/51.jpeg",5,1,2,NA,"Instruments",1,3,"left","left",0.527999878,1,1,1,1,NA,NA,NA,NA,NA,NA,NA,NA,NA,NA,NA,NA,NA,NA,NA,NA,NA,NA,NA,NA,NA,NA,NA,NA
"87","stim/objects/HouseObjects/glass2.png",179,16,179,0.9,"stim/14.jpeg",1,4,3,NA,"HouseObjects",2,4,"right","right",0.536000013,1,1,1,1,NA,NA,NA,NA,NA,NA,NA,NA,NA,NA,NA,NA,NA,NA,NA,NA,NA,NA,NA,NA,NA,NA,NA,NA
"125","stim/objects/Instruments/drums.png",180,16,180,0.5,"stim/31.jpeg",3,1,1,NA,"Instruments",1,1,"left","right",0.631000042,0,0,1,1,NA,NA,NA,NA,NA,NA,NA,NA,NA,NA,NA,NA,NA,NA,NA,NA,NA,NA,NA,NA,NA,NA,NA,NA
"134","stim/objects/Instruments/electricdrumset.png",181,16,181,0.5,"stim/32.jpeg",3,2,1,NA,"Instruments",1,4,"left","left",0.799999952,1,1,1,1,NA,NA,NA,NA,NA,NA,NA,NA,NA,NA,NA,NA,NA,NA,NA,NA,NA,NA,NA,NA,NA,NA,NA,NA
"180","stim/objects/Instruments/frenchhorn2.png",182,16,182,0.1,"stim/12.jpeg",1,2,3,NA,"Instruments",1,3,"left","right",0.544000149,0,0,1,1,NA,NA,NA,NA,NA,NA,NA,NA,NA,NA,NA,NA,NA,NA,NA,NA,NA,NA,NA,NA,NA,NA,NA,NA
"202","stim/objects/Instruments/guitarcase2.png",183,16,183,0.9,"stim/21.jpeg",2,1,3,NA,"Instruments",1,2,"left","left",0.597000122,1,1,1,1,NA,NA,NA,NA,NA,NA,NA,NA,NA,NA,NA,NA,NA,NA,NA,NA,NA,NA,NA,NA,NA,NA,NA,NA
"109","stim/objects/HouseObjects/handbrush.png",184,16,184,0.7,"stim/53.jpeg",5,3,2,NA,"HouseObjects",2,3,"right","right",0.597999811,1,1,1,1,NA,NA,NA,NA,NA,NA,NA,NA,NA,NA,NA,NA,NA,NA,NA,NA,NA,NA,NA,NA,NA,NA,NA,NA
"4","stim/objects/HouseObjects/coffee.png",185,16,185,0.5,"stim/31.jpeg",3,1,1,NA,"HouseObjects",2,4,"right","left",0.710999966,0,0,1,1,NA,NA,NA,NA,NA,NA,NA,NA,NA,NA,NA,NA,NA,NA,NA,NA,NA,NA,NA,NA,NA,NA,NA,NA
"130","stim/objects/Instruments/drums2.png",186,16,186,0.7,"stim/61.jpeg",6,1,2,NA,"Instruments",1,1,"left","left",0.593000174,1,1,1,1,NA,NA,NA,NA,NA,NA,NA,NA,NA,NA,NA,NA,NA,NA,NA,NA,NA,NA,NA,NA,NA,NA,NA,NA
"135","stim/objects/Instruments/electricdrumset.png",187,16,187,0.5,"stim/32.jpeg",3,2,1,NA,"Instruments",1,4,"left","left",0.575999975,1,1,1,1,NA,NA,NA,NA,NA,NA,NA,NA,NA,NA,NA,NA,NA,NA,NA,NA,NA,NA,NA,NA,NA,NA,NA,NA
"93","stim/objects/HouseObjects/glassmop.png",188,16,188,0.7,"stim/51.jpeg",5,1,2,NA,"HouseObjects",2,1,"right","right",0.664000034,1,1,1,1,NA,NA,NA,NA,NA,NA,NA,NA,NA,NA,NA,NA,NA,NA,NA,NA,NA,NA,NA,NA,NA,NA,NA,NA
"136","stim/objects/Instruments/electricdrumset.png",189,16,189,0.5,"stim/32.jpeg",3,2,1,NA,"Instruments",1,2,"left","left",0.622999907,1,1,1,1,NA,NA,NA,NA,NA,NA,NA,NA,NA,NA,NA,NA,NA,NA,NA,NA,NA,NA,NA,NA,NA,NA,NA,NA
"190","stim/objects/Instruments/grandpiano.png",190,16,190,0.5,"stim/44.jpeg",4,4,1,NA,"Instruments",1,4,"left","right",0.639000177,0,0,1,1,NA,NA,NA,NA,NA,NA,NA,NA,NA,NA,NA,NA,NA,NA,NA,NA,NA,NA,NA,NA,NA,NA,NA,NA
"88","stim/objects/HouseObjects/glass2.png",191,16,191,0.9,"stim/14.jpeg",1,4,3,NA,"HouseObjects",2,3,"right","right",0.509000063,1,1,1,1,NA,NA,NA,NA,NA,NA,NA,NA,NA,NA,NA,NA,NA,NA,NA,NA,NA,NA,NA,NA,NA,NA,NA,NA
"218","stim/objects/Instruments/harp.png",192,16,192,0.3,"stim/53.jpeg",5,3,2,NA,"Instruments",1,4,"left","right",0.50999999,0,0,1,1,NA,NA,NA,NA,NA,NA,NA,NA,NA,NA,NA,NA,NA,NA,NA,NA,NA,NA,NA,NA,NA,NA,NA,NA
"110","stim/objects/HouseObjects/handbrush.png",193,16,193,0.7,"stim/53.jpeg",5,3,2,NA,"HouseObjects",2,3,"right","right",0.642000198,1,1,1,1,NA,NA,NA,NA,NA,NA,NA,NA,NA,NA,NA,NA,NA,NA,NA,NA,NA,NA,NA,NA,NA,NA,NA,NA
"184","stim/objects/Instruments/gong.png",194,16,194,0.5,"stim/43.jpeg",4,3,1,NA,"Instruments",1,2,"left","right",0.819000006,0,0,1,1,NA,NA,NA,NA,NA,NA,NA,NA,NA,NA,NA,NA,NA,NA,NA,NA,NA,NA,NA,NA,NA,NA,NA,NA
"185","stim/objects/Instruments/gong.png",195,16,195,0.5,"stim/43.jpeg",4,3,1,NA,"Instruments",1,2,"left","right",0.528000116,0,0,1,1,NA,NA,NA,NA,NA,NA,NA,NA,NA,NA,NA,NA,NA,NA,NA,NA,NA,NA,NA,NA,NA,NA,NA,NA
"191","stim/objects/Instruments/grandpiano.png",196,16,196,0.5,"stim/44.jpeg",4,4,1,NA,"Instruments",1,2,"left","",NA,0,0,1,1,NA,NA,NA,NA,NA,NA,NA,NA,NA,NA,NA,NA,NA,NA,NA,NA,NA,NA,NA,NA,NA,NA,NA,NA
"78","stim/objects/HouseObjects/glass.png",197,16,197,0.5,"stim/44.jpeg",4,4,1,NA,"HouseObjects",2,3,"right","right",0.638999939,1,1,1,1,NA,NA,NA,NA,NA,NA,NA,NA,NA,NA,NA,NA,NA,NA,NA,NA,NA,NA,NA,NA,NA,NA,NA,NA
"102","stim/objects/HouseObjects/hairdryer.png",198,16,198,0.7,"stim/52.jpeg",5,2,2,NA,"HouseObjects",2,3,"right","right",0.694999933,1,1,1,1,NA,NA,NA,NA,NA,NA,NA,NA,NA,NA,NA,NA,NA,NA,NA,NA,NA,NA,NA,NA,NA,NA,NA,NA
"59","stim/objects/HouseObjects/flyswatter2.png",199,16,199,0.9,"stim/12.jpeg",1,2,3,NA,"HouseObjects",2,4,"right","right",0.401000023,1,1,1,1,NA,NA,NA,NA,NA,NA,NA,NA,NA,NA,NA,NA,NA,NA,NA,NA,NA,NA,NA,NA,NA,NA,NA,NA
"215","stim/objects/Instruments/harmonica2.png",200,16,200,0.9,"stim/22.jpeg",2,2,3,NA,"Instruments",1,4,"left","left",0.611000061,1,1,1,1,NA,NA,NA,NA,NA,NA,NA,NA,NA,NA,NA,NA,NA,NA,NA,NA,NA,NA,NA,NA,NA,NA,NA,NA
"240","stim/objects/Instruments/hihat2.png",201,16,201,0.9,"stim/24.jpeg",2,4,3,NA,"Instruments",1,3,"left","left",0.596999884,1,1,1,1,NA,NA,NA,NA,NA,NA,NA,NA,NA,NA,NA,NA,NA,NA,NA,NA,NA,NA,NA,NA,NA,NA,NA,NA
"70","stim/objects/HouseObjects/garbagebin2.png",202,16,202,0.9,"stim/13.jpeg",1,3,3,NA,"HouseObjects",2,1,"right","right",0.532000065,1,1,1,1,NA,NA,NA,NA,NA,NA,NA,NA,NA,NA,NA,NA,NA,NA,NA,NA,NA,NA,NA,NA,NA,NA,NA,NA
"71","stim/objects/HouseObjects/garbagebin2.png",203,16,203,0.9,"stim/13.jpeg",1,3,3,NA,"HouseObjects",2,3,"right","right",0.493999958,1,1,1,1,NA,NA,NA,NA,NA,NA,NA,NA,NA,NA,NA,NA,NA,NA,NA,NA,NA,NA,NA,NA,NA,NA,NA,NA
"203","stim/objects/Instruments/guitarcase2.png",204,16,204,0.9,"stim/21.jpeg",2,1,3,NA,"Instruments",1,2,"left","left",0.620999813,1,1,1,1,NA,NA,NA,NA,NA,NA,NA,NA,NA,NA,NA,NA,NA,NA,NA,NA,NA,NA,NA,NA,NA,NA,NA,NA
"171","stim/objects/Instruments/flutetrans.png",205,16,205,0.5,"stim/41.jpeg",4,1,1,NA,"Instruments",1,2,"left","right",0.63499999,0,0,1,1,NA,NA,NA,NA,NA,NA,NA,NA,NA,NA,NA,NA,NA,NA,NA,NA,NA,NA,NA,NA,NA,NA,NA,NA
"72","stim/objects/HouseObjects/garbagebin2.png",206,16,206,0.9,"stim/13.jpeg",1,3,3,NA,"HouseObjects",2,2,"right","right",0.441999912,1,1,1,1,NA,NA,NA,NA,NA,NA,NA,NA,NA,NA,NA,NA,NA,NA,NA,NA,NA,NA,NA,NA,NA,NA,NA,NA
"73","stim/objects/HouseObjects/garbagebin2.png",207,16,207,0.9,"stim/13.jpeg",1,3,3,NA,"HouseObjects",2,2,"right","right",0.365999937,1,1,1,1,NA,NA,NA,NA,NA,NA,NA,NA,NA,NA,NA,NA,NA,NA,NA,NA,NA,NA,NA,NA,NA,NA,NA,NA
"79","stim/objects/HouseObjects/glass.png",208,16,208,0.5,"stim/44.jpeg",4,4,1,NA,"HouseObjects",2,1,"right","left",0.784000158,0,0,1,1,NA,NA,NA,NA,NA,NA,NA,NA,NA,NA,NA,NA,NA,NA,NA,NA,NA,NA,NA,NA,NA,NA,NA,NA
"172","stim/objects/Instruments/flutetrans.png",209,16,209,0.5,"stim/41.jpeg",4,1,1,NA,"Instruments",1,4,"left","right",0.678000212,0,0,1,1,NA,NA,NA,NA,NA,NA,NA,NA,NA,NA,NA,NA,NA,NA,NA,NA,NA,NA,NA,NA,NA,NA,NA,NA
"219","stim/objects/Instruments/harp.png",210,16,210,0.3,"stim/53.jpeg",5,3,2,NA,"Instruments",1,1,"left","right",0.654000044,0,0,1,1,NA,NA,NA,NA,NA,NA,NA,NA,NA,NA,NA,NA,NA,NA,NA,NA,NA,NA,NA,NA,NA,NA,NA,NA
"16","stim/objects/HouseObjects/cushion2.png",211,16,211,0.3,"stim/62.jpeg",6,2,2,NA,"HouseObjects",2,4,"right","left",0.807999849,0,0,1,1,NA,NA,NA,NA,NA,NA,NA,NA,NA,NA,NA,NA,NA,NA,NA,NA,NA,NA,NA,NA,NA,NA,NA,NA
"111","stim/objects/HouseObjects/handbrush.png",212,16,212,0.7,"stim/53.jpeg",5,3,2,NA,"HouseObjects",2,2,"right","",NA,0,0,1,1,NA,NA,NA,NA,NA,NA,NA,NA,NA,NA,NA,NA,NA,NA,NA,NA,NA,NA,NA,NA,NA,NA,NA,NA
"74","stim/objects/HouseObjects/garbagebin2.png",213,16,213,0.9,"stim/13.jpeg",1,3,3,NA,"HouseObjects",2,1,"right","right",0.516000032,1,1,1,1,NA,NA,NA,NA,NA,NA,NA,NA,NA,NA,NA,NA,NA,NA,NA,NA,NA,NA,NA,NA,NA,NA,NA,NA
"168","stim/objects/Instruments/flute2.png",214,16,214,0.7,"stim/64.jpeg",6,4,2,NA,"Instruments",1,2,"left","left",0.597999811,1,1,1,1,NA,NA,NA,NA,NA,NA,NA,NA,NA,NA,NA,NA,NA,NA,NA,NA,NA,NA,NA,NA,NA,NA,NA,NA
"50","stim/objects/HouseObjects/flyswatter.png",215,16,215,0.5,"stim/42.jpeg",4,2,1,NA,"HouseObjects",2,2,"right","right",0.556999922,1,1,1,1,NA,NA,NA,NA,NA,NA,NA,NA,NA,NA,NA,NA,NA,NA,NA,NA,NA,NA,NA,NA,NA,NA,NA,NA
"216","stim/objects/Instruments/harmonica2.png",216,16,216,0.9,"stim/22.jpeg",2,2,3,NA,"Instruments",1,3,"left","left",0.59100008,1,1,1,1,NA,NA,NA,NA,NA,NA,NA,NA,NA,NA,NA,NA,NA,NA,NA,NA,NA,NA,NA,NA,NA,NA,NA,NA
"20","stim/objects/HouseObjects/dishsoap.png",217,16,217,0.5,"stim/33.jpeg",3,3,1,NA,"HouseObjects",2,2,"right","",NA,0,0,1,1,NA,NA,NA,NA,NA,NA,NA,NA,NA,NA,NA,NA,NA,NA,NA,NA,NA,NA,NA,NA,NA,NA,NA,NA
"44","stim/objects/HouseObjects/dustpan2.png",218,16,218,0.9,"stim/11.jpeg",1,1,3,NA,"HouseObjects",2,4,"right","right",0.595000029,1,1,1,1,NA,NA,NA,NA,NA,NA,NA,NA,NA,NA,NA,NA,NA,NA,NA,NA,NA,NA,NA,NA,NA,NA,NA,NA
"118","stim/objects/HouseObjects/handvacuum.png",219,16,219,0.7,"stim/54.jpeg",5,4,2,NA,"HouseObjects",2,2,"right","right",0.717999935,1,1,1,1,NA,NA,NA,NA,NA,NA,NA,NA,NA,NA,NA,NA,NA,NA,NA,NA,NA,NA,NA,NA,NA,NA,NA,NA
"119","stim/objects/HouseObjects/handvacuum.png",220,16,220,0.7,"stim/54.jpeg",5,4,2,NA,"HouseObjects",2,1,"right","right",0.539999962,1,1,1,1,NA,NA,NA,NA,NA,NA,NA,NA,NA,NA,NA,NA,NA,NA,NA,NA,NA,NA,NA,NA,NA,NA,NA,NA
"131","stim/objects/Instruments/drums2.png",221,16,221,0.7,"stim/61.jpeg",6,1,2,NA,"Instruments",1,3,"left","left",0.545000076,1,1,1,1,NA,NA,NA,NA,NA,NA,NA,NA,NA,NA,NA,NA,NA,NA,NA,NA,NA,NA,NA,NA,NA,NA,NA,NA
"103","stim/objects/HouseObjects/hairdryer.png",222,16,222,0.7,"stim/52.jpeg",5,2,2,NA,"HouseObjects",2,3,"right","right",0.682999849,1,1,1,1,NA,NA,NA,NA,NA,NA,NA,NA,NA,NA,NA,NA,NA,NA,NA,NA,NA,NA,NA,NA,NA,NA,NA,NA
"24","stim/objects/HouseObjects/dishsoap2.png",223,16,223,0.3,"stim/63.jpeg",6,3,2,NA,"HouseObjects",2,4,"right","right",0.450999975,1,1,1,1,NA,NA,NA,NA,NA,NA,NA,NA,NA,NA,NA,NA,NA,NA,NA,NA,NA,NA,NA,NA,NA,NA,NA,NA
"5","stim/objects/HouseObjects/coffee.png",224,16,224,0.5,"stim/31.jpeg",3,1,1,NA,"HouseObjects",2,1,"right","left",0.512000084,0,0,1,1,NA,NA,NA,NA,NA,NA,NA,NA,NA,NA,NA,NA,NA,NA,NA,NA,NA,NA,NA,NA,NA,NA,NA,NA
"207","stim/objects/Instruments/harmonica.png",225,16,225,0.3,"stim/52.jpeg",5,2,2,NA,"Instruments",1,1,"left","right",0.50999999,0,0,1,1,NA,NA,NA,NA,NA,NA,NA,NA,NA,NA,NA,NA,NA,NA,NA,NA,NA,NA,NA,NA,NA,NA,NA,NA
"45","stim/objects/HouseObjects/dustpan2.png",226,16,226,0.9,"stim/11.jpeg",1,1,3,NA,"HouseObjects",2,4,"right","right",0.422999859,1,1,1,1,NA,NA,NA,NA,NA,NA,NA,NA,NA,NA,NA,NA,NA,NA,NA,NA,NA,NA,NA,NA,NA,NA,NA,NA
"132","stim/objects/Instruments/drums2.png",227,16,227,0.7,"stim/61.jpeg",6,1,2,NA,"Instruments",1,4,"left","right",0.804000139,0,0,1,1,NA,NA,NA,NA,NA,NA,NA,NA,NA,NA,NA,NA,NA,NA,NA,NA,NA,NA,NA,NA,NA,NA,NA,NA
"137","stim/objects/Instruments/electricdrumset.png",228,16,228,0.5,"stim/32.jpeg",3,2,1,NA,"Instruments",1,4,"left","right",0.608999968,0,0,1,1,NA,NA,NA,NA,NA,NA,NA,NA,NA,NA,NA,NA,NA,NA,NA,NA,NA,NA,NA,NA,NA,NA,NA,NA
"179","stim/objects/Instruments/frenchhorn.png",229,16,229,0.5,"stim/42.jpeg",4,2,1,NA,"Instruments",1,4,"left","right",0.645999908,0,0,1,1,NA,NA,NA,NA,NA,NA,NA,NA,NA,NA,NA,NA,NA,NA,NA,NA,NA,NA,NA,NA,NA,NA,NA,NA
"13","stim/objects/HouseObjects/cushion.png",230,16,230,0.5,"stim/32.jpeg",3,2,1,NA,"HouseObjects",2,3,"right","right",0.799000025,1,1,1,1,NA,NA,NA,NA,NA,NA,NA,NA,NA,NA,NA,NA,NA,NA,NA,NA,NA,NA,NA,NA,NA,NA,NA,NA
"149","stim/objects/Instruments/electricguitar.png",231,16,231,0.5,"stim/33.jpeg",3,3,1,NA,"Instruments",1,1,"left","left",0.694999933,1,1,1,1,NA,NA,NA,NA,NA,NA,NA,NA,NA,NA,NA,NA,NA,NA,NA,NA,NA,NA,NA,NA,NA,NA,NA,NA
"21","stim/objects/HouseObjects/dishsoap.png",232,16,232,0.5,"stim/33.jpeg",3,3,1,NA,"HouseObjects",2,3,"right","left",0.563999891,0,0,1,1,NA,NA,NA,NA,NA,NA,NA,NA,NA,NA,NA,NA,NA,NA,NA,NA,NA,NA,NA,NA,NA,NA,NA,NA
"173","stim/objects/Instruments/flutetrans.png",233,16,233,0.5,"stim/41.jpeg",4,1,1,NA,"Instruments",1,2,"left","right",0.479000092,0,0,1,1,NA,NA,NA,NA,NA,NA,NA,NA,NA,NA,NA,NA,NA,NA,NA,NA,NA,NA,NA,NA,NA,NA,NA,NA
"51","stim/objects/HouseObjects/flyswatter.png",234,16,234,0.5,"stim/42.jpeg",4,2,1,NA,"HouseObjects",2,4,"right","right",0.508999825,1,1,1,1,NA,NA,NA,NA,NA,NA,NA,NA,NA,NA,NA,NA,NA,NA,NA,NA,NA,NA,NA,NA,NA,NA,NA,NA
"228","stim/objects/Instruments/harp2.png",235,16,235,0.9,"stim/23.jpeg",2,3,3,NA,"Instruments",1,1,"left","left",0.500999928,1,1,1,1,NA,NA,NA,NA,NA,NA,NA,NA,NA,NA,NA,NA,NA,NA,NA,NA,NA,NA,NA,NA,NA,NA,NA,NA
"204","stim/objects/Instruments/guitarcase2.png",236,16,236,0.9,"stim/21.jpeg",2,1,3,NA,"Instruments",1,1,"left","left",0.444000006,1,1,1,1,NA,NA,NA,NA,NA,NA,NA,NA,NA,NA,NA,NA,NA,NA,NA,NA,NA,NA,NA,NA,NA,NA,NA,NA
"46","stim/objects/HouseObjects/dustpan2.png",237,16,237,0.9,"stim/11.jpeg",1,1,3,NA,"HouseObjects",2,3,"right","right",0.641000032,1,1,1,1,NA,NA,NA,NA,NA,NA,NA,NA,NA,NA,NA,NA,NA,NA,NA,NA,NA,NA,NA,NA,NA,NA,NA,NA
"94","stim/objects/HouseObjects/glassmop.png",238,16,238,0.7,"stim/51.jpeg",5,1,2,NA,"HouseObjects",2,2,"right","right",0.501000166,1,1,1,1,NA,NA,NA,NA,NA,NA,NA,NA,NA,NA,NA,NA,NA,NA,NA,NA,NA,NA,NA,NA,NA,NA,NA,NA
"60","stim/objects/HouseObjects/flyswatter2.png",239,16,239,0.9,"stim/12.jpeg",1,2,3,NA,"HouseObjects",2,1,"right","right",0.544999838,1,1,1,1,NA,NA,NA,NA,NA,NA,NA,NA,NA,NA,NA,NA,NA,NA,NA,NA,NA,NA,NA,NA,NA,NA,NA,NA
"95","stim/objects/HouseObjects/glassmop.png",240,16,240,0.7,"stim/51.jpeg",5,1,2,NA,"HouseObjects",2,4,"right","right",0.484999895,1,1,1,1,NA,NA,NA,NA,NA,NA,NA,NA,NA,NA,NA,NA,NA,NA,NA,NA,NA,NA,NA,NA,NA,NA,NA,NA
"507","stim/objects/Instruments/musicstand3.png",248,16,241,0.9,"stim/21.jpeg",2,1,3,2,"Instruments",1,3,"left","",NA,0,0,1,0,NA,NA,NA,NA,NA,NA,NA,NA,NA,NA,NA,NA,NA,NA,NA,NA,NA,NA,NA,NA,NA,NA,NA,NA
"308","stim/objects/HouseObjects/lintroller3.png",249,16,242,0.9,"stim/11.jpeg",1,1,3,2,"HouseObjects",2,4,"right","right",0.645999908,1,1,1,0,NA,NA,NA,NA,NA,NA,NA,NA,NA,NA,NA,NA,NA,NA,NA,NA,NA,NA,NA,NA,NA,NA,NA,NA
"359","stim/objects/HouseObjects/pitcher3.png",250,16,243,0.9,"stim/13.jpeg",1,3,3,2,"HouseObjects",2,4,"right","right",0.577000141,1,1,1,0,NA,NA,NA,NA,NA,NA,NA,NA,NA,NA,NA,NA,NA,NA,NA,NA,NA,NA,NA,NA,NA,NA,NA,NA
"246","stim/objects/HouseObjects/ballofstring4.png",251,16,244,0.7,"stim/54.jpeg",5,4,2,1,"HouseObjects",2,3,"right","right",0.724999905,1,1,1,0,123,16,1,0.7,2,"stim/54.jpeg",5,4,"stim/54.jpeg",3,"right",0.888999939,3,1,1.09100008,3,0.71600008,123,0,0,NA,1,NA,1
"325","stim/objects/HouseObjects/match3.png",252,16,245,0.9,"stim/14.jpeg",1,4,3,2,"HouseObjects",2,2,"right","right",0.674000025,1,1,1,0,NA,NA,NA,NA,NA,NA,NA,NA,NA,NA,NA,NA,NA,NA,NA,NA,NA,NA,NA,NA,NA,NA,NA,NA
"452","stim/objects/Instruments/maraca3.png",253,16,246,0.7,"stim/62.jpeg",6,2,2,2,"Instruments",1,1,"left","left",0.52699995,1,1,1,0,NA,NA,NA,NA,NA,NA,NA,NA,NA,NA,NA,NA,NA,NA,NA,NA,NA,NA,NA,NA,NA,NA,NA,NA
"283","stim/objects/HouseObjects/ironingboard3.png",254,16,247,0.7,"stim/53.jpeg",5,3,2,2,"HouseObjects",2,2,"right","right",0.610999823,1,1,1,0,NA,NA,NA,NA,NA,NA,NA,NA,NA,NA,NA,NA,NA,NA,NA,NA,NA,NA,NA,NA,NA,NA,NA,NA
"456","stim/objects/Instruments/marimba3.png",255,16,248,0.9,"stim/21.jpeg",2,1,3,2,"Instruments",1,3,"left","left",0.573000193,1,1,1,0,NA,NA,NA,NA,NA,NA,NA,NA,NA,NA,NA,NA,NA,NA,NA,NA,NA,NA,NA,NA,NA,NA,NA,NA
"268","stim/objects/HouseObjects/clock3.png",256,16,249,0.5,"stim/43.jpeg",4,3,1,2,"HouseObjects",2,1,"right","left",0.745000124,0,0,1,0,NA,NA,NA,NA,NA,NA,NA,NA,NA,NA,NA,NA,NA,NA,NA,NA,NA,NA,NA,NA,NA,NA,NA,NA
"564","stim/objects/Instruments/tuba4.png",257,16,250,0.9,"stim/23.jpeg",2,3,3,1,"Instruments",1,3,"left","left",0.544999838,1,1,1,0,162,16,1,0.9,1,"stim/23.jpeg",2,3,"stim/23.jpeg",3,"right",0.860000134,2,2,1.729000092,1,0.644999981,162,0,0,NA,0,NA,1
"551","stim/objects/Instruments/speaker3.png",258,16,251,0.5,"stim/41.jpeg",4,1,1,1,"Instruments",1,4,"left","",NA,0,0,1,0,57,16,1,0.5,2,"stim/41.jpeg",4,1,"stim/41.jpeg",4,"right",1.157999992,1,2,1.353999853,1,1.013000011,57,0,0,NA,0,NA,1
"473","stim/objects/Instruments/metronome3.png",259,16,252,0.9,"stim/22.jpeg",2,2,3,2,"Instruments",1,4,"left","right",0.644999981,0,0,1,0,NA,NA,NA,NA,NA,NA,NA,NA,NA,NA,NA,NA,NA,NA,NA,NA,NA,NA,NA,NA,NA,NA,NA,NA
"474","stim/objects/Instruments/metronome3.png",260,16,253,0.9,"stim/21.jpeg",2,1,3,2,"Instruments",1,1,"left","left",0.598999977,1,1,1,0,NA,NA,NA,NA,NA,NA,NA,NA,NA,NA,NA,NA,NA,NA,NA,NA,NA,NA,NA,NA,NA,NA,NA,NA
"439","stim/objects/Instruments/cymbal4.png",261,16,254,0.7,"stim/61.jpeg",6,1,2,1,"Instruments",1,1,"left","left",0.586999893,1,1,1,0,65,16,1,0.7,1,"stim/61.jpeg",6,1,"stim/61.jpeg",1,"left",1.284000158,4,1,7.888999939,1,1.797999859,65,1,1,1,1,1,1
"291","stim/objects/HouseObjects/knife3.png",262,16,255,0.9,"stim/14.jpeg",1,4,3,2,"HouseObjects",2,4,"right","right",0.572999954,1,1,1,0,NA,NA,NA,NA,NA,NA,NA,NA,NA,NA,NA,NA,NA,NA,NA,NA,NA,NA,NA,NA,NA,NA,NA,NA
"475","stim/objects/Instruments/metronome3.png",263,16,256,0.9,"stim/22.jpeg",2,2,3,2,"Instruments",1,1,"left","left",0.613000154,1,1,1,0,NA,NA,NA,NA,NA,NA,NA,NA,NA,NA,NA,NA,NA,NA,NA,NA,NA,NA,NA,NA,NA,NA,NA,NA
"415","stim/objects/Instruments/banjo3.png",264,16,257,0.5,"stim/34.jpeg",3,4,1,2,"Instruments",1,3,"left","right",0.831999779,0,0,1,0,NA,NA,NA,NA,NA,NA,NA,NA,NA,NA,NA,NA,NA,NA,NA,NA,NA,NA,NA,NA,NA,NA,NA,NA
"343","stim/objects/HouseObjects/pan3.png",265,16,258,0.9,"stim/12.jpeg",1,2,3,2,"HouseObjects",2,1,"right","right",0.703999996,1,1,1,0,NA,NA,NA,NA,NA,NA,NA,NA,NA,NA,NA,NA,NA,NA,NA,NA,NA,NA,NA,NA,NA,NA,NA,NA
"427","stim/objects/Instruments/chime3.png",266,16,259,0.5,"stim/41.jpeg",4,1,1,2,"Instruments",1,2,"left","right",0.799000025,0,0,1,0,NA,NA,NA,NA,NA,NA,NA,NA,NA,NA,NA,NA,NA,NA,NA,NA,NA,NA,NA,NA,NA,NA,NA,NA
"490","stim/objects/Instruments/musicsheet3.png",267,16,260,0.9,"stim/23.jpeg",2,3,3,2,"Instruments",1,1,"left","left",0.541000128,1,1,1,0,NA,NA,NA,NA,NA,NA,NA,NA,NA,NA,NA,NA,NA,NA,NA,NA,NA,NA,NA,NA,NA,NA,NA,NA
"476","stim/objects/Instruments/metronome3.png",268,16,261,0.9,"stim/23.jpeg",2,3,3,2,"Instruments",1,4,"left","",NA,0,0,1,0,NA,NA,NA,NA,NA,NA,NA,NA,NA,NA,NA,NA,NA,NA,NA,NA,NA,NA,NA,NA,NA,NA,NA,NA
"457","stim/objects/Instruments/marimba3.png",269,16,262,0.9,"stim/23.jpeg",2,3,3,2,"Instruments",1,4,"left","left",0.521000147,1,1,1,0,NA,NA,NA,NA,NA,NA,NA,NA,NA,NA,NA,NA,NA,NA,NA,NA,NA,NA,NA,NA,NA,NA,NA,NA
"508","stim/objects/Instruments/musicstand3.png",270,16,263,0.9,"stim/24.jpeg",2,4,3,2,"Instruments",1,3,"left","left",0.611000061,1,1,1,0,NA,NA,NA,NA,NA,NA,NA,NA,NA,NA,NA,NA,NA,NA,NA,NA,NA,NA,NA,NA,NA,NA,NA,NA
"491","stim/objects/Instruments/musicsheet3.png",271,16,264,0.9,"stim/24.jpeg",2,4,3,2,"Instruments",1,2,"left","left",0.585999966,1,1,1,0,NA,NA,NA,NA,NA,NA,NA,NA,NA,NA,NA,NA,NA,NA,NA,NA,NA,NA,NA,NA,NA,NA,NA,NA
"379","stim/objects/HouseObjects/remote4.png",272,16,265,0.9,"stim/11.jpeg",1,1,3,1,"HouseObjects",2,1,"right","",NA,0,0,1,0,194,16,1,0.9,2,"stim/11.jpeg",1,1,"stim/11.jpeg",1,"right",1.100999832,1,1,0.737999916,1,0.677999973,194,0,1,NA,1,NA,1
"543","stim/objects/Instruments/pipepiano3.png",273,16,266,0.5,"stim/34.jpeg",3,4,1,1,"Instruments",1,2,"left","right",0.79399991,0,0,1,0,187,16,1,0.5,1,"stim/34.jpeg",3,4,"stim/34.jpeg",2,"left",1.871999979,4,3,1.606999874,2,1.917999983,187,1,0,0,1,1,1
"243","stim/objects/HouseObjects/ashtray4.png",274,16,267,0.7,"stim/53.jpeg",5,3,2,1,"HouseObjects",2,3,"right","right",0.618999958,1,1,1,0,186,16,1,0.7,2,"stim/53.jpeg",5,3,"stim/53.jpeg",3,"left",0.778000116,4,3,1.483999968,2,1.746999979,186,1,1,1,0,0,1
"416","stim/objects/Instruments/banjo3.png",275,16,268,0.5,"stim/31.jpeg",3,1,1,2,"Instruments",1,1,"left","left",0.667000055,1,1,1,0,NA,NA,NA,NA,NA,NA,NA,NA,NA,NA,NA,NA,NA,NA,NA,NA,NA,NA,NA,NA,NA,NA,NA,NA
"327","stim/objects/HouseObjects/match3.png",276,16,269,0.9,"stim/14.jpeg",1,4,3,2,"HouseObjects",2,3,"right","right",0.555999994,1,1,1,0,NA,NA,NA,NA,NA,NA,NA,NA,NA,NA,NA,NA,NA,NA,NA,NA,NA,NA,NA,NA,NA,NA,NA,NA
"383","stim/objects/HouseObjects/rug4.png",277,16,270,0.9,"stim/13.jpeg",1,3,3,1,"HouseObjects",2,2,"right","right",0.573999882,1,1,1,0,22,16,1,0.9,2,"stim/13.jpeg",1,3,"stim/13.jpeg",2,"left",1.753999949,3,1,4.401000023,3,2.532999992,22,1,0,0,0,0,1
"287","stim/objects/HouseObjects/key3.png",278,16,271,0.7,"stim/53.jpeg",5,3,2,2,"HouseObjects",2,2,"right","right",0.450000048,1,1,1,0,NA,NA,NA,NA,NA,NA,NA,NA,NA,NA,NA,NA,NA,NA,NA,NA,NA,NA,NA,NA,NA,NA,NA,NA
"477","stim/objects/Instruments/metronome3.png",279,16,272,0.9,"stim/21.jpeg",2,1,3,2,"Instruments",1,2,"left","right",0.569000006,0,0,1,0,NA,NA,NA,NA,NA,NA,NA,NA,NA,NA,NA,NA,NA,NA,NA,NA,NA,NA,NA,NA,NA,NA,NA,NA
"424","stim/objects/Instruments/cello3.png",280,16,273,0.5,"stim/44.jpeg",4,4,1,2,"Instruments",1,3,"left","right",0.615999937,0,0,1,0,NA,NA,NA,NA,NA,NA,NA,NA,NA,NA,NA,NA,NA,NA,NA,NA,NA,NA,NA,NA,NA,NA,NA,NA
"328","stim/objects/HouseObjects/match3.png",281,16,274,0.9,"stim/11.jpeg",1,1,3,2,"HouseObjects",2,2,"right","right",0.703999996,1,1,1,0,NA,NA,NA,NA,NA,NA,NA,NA,NA,NA,NA,NA,NA,NA,NA,NA,NA,NA,NA,NA,NA,NA,NA,NA
"492","stim/objects/Instruments/musicsheet3.png",282,16,275,0.9,"stim/23.jpeg",2,3,3,2,"Instruments",1,1,"left","left",0.595000029,1,1,1,0,NA,NA,NA,NA,NA,NA,NA,NA,NA,NA,NA,NA,NA,NA,NA,NA,NA,NA,NA,NA,NA,NA,NA,NA
"396","stim/objects/HouseObjects/thermometer3.png",283,16,276,0.7,"stim/52.jpeg",5,2,2,1,"HouseObjects",2,2,"right","right",0.701999903,1,1,1,0,108,16,1,0.7,2,"stim/52.jpeg",5,2,"stim/52.jpeg",2,"right",1.078000069,2,1,1.428999901,4,1.671999931,108,0,0,NA,0,NA,1
"542","stim/objects/Instruments/panflute4.png",284,16,277,0.1,"stim/12.jpeg",1,2,3,1,"Instruments",1,3,"left","right",0.573999882,0,0,1,0,7,16,1,0.1,1,"stim/12.jpeg",1,2,"stim/12.jpeg",3,"right",3.592999935,2,1,2.097000122,2,1.845999956,7,0,0,NA,0,NA,1
"256","stim/objects/HouseObjects/blender3.png",285,16,278,0.5,"stim/42.jpeg",4,2,1,2,"HouseObjects",2,1,"right","",NA,0,0,1,0,NA,NA,NA,NA,NA,NA,NA,NA,NA,NA,NA,NA,NA,NA,NA,NA,NA,NA,NA,NA,NA,NA,NA,NA
"494","stim/objects/Instruments/musicsheet3.png",286,16,279,0.9,"stim/23.jpeg",2,3,3,2,"Instruments",1,4,"left","right",0.674000025,0,0,1,0,NA,NA,NA,NA,NA,NA,NA,NA,NA,NA,NA,NA,NA,NA,NA,NA,NA,NA,NA,NA,NA,NA,NA,NA
"478","stim/objects/Instruments/metronome3.png",287,16,280,0.9,"stim/24.jpeg",2,4,3,2,"Instruments",1,1,"left","left",0.618999958,1,1,1,0,NA,NA,NA,NA,NA,NA,NA,NA,NA,NA,NA,NA,NA,NA,NA,NA,NA,NA,NA,NA,NA,NA,NA,NA
"329","stim/objects/HouseObjects/match3.png",288,16,281,0.9,"stim/12.jpeg",1,2,3,2,"HouseObjects",2,2,"right","right",0.565999985,1,1,1,0,NA,NA,NA,NA,NA,NA,NA,NA,NA,NA,NA,NA,NA,NA,NA,NA,NA,NA,NA,NA,NA,NA,NA,NA
"344","stim/objects/HouseObjects/pan3.png",289,16,282,0.9,"stim/11.jpeg",1,1,3,2,"HouseObjects",2,1,"right","",NA,0,0,1,0,NA,NA,NA,NA,NA,NA,NA,NA,NA,NA,NA,NA,NA,NA,NA,NA,NA,NA,NA,NA,NA,NA,NA,NA
"330","stim/objects/HouseObjects/match3.png",290,16,283,0.9,"stim/13.jpeg",1,3,3,2,"HouseObjects",2,4,"right","right",0.44900012,1,1,1,0,NA,NA,NA,NA,NA,NA,NA,NA,NA,NA,NA,NA,NA,NA,NA,NA,NA,NA,NA,NA,NA,NA,NA,NA
"479","stim/objects/Instruments/metronome3.png",291,16,284,0.9,"stim/23.jpeg",2,3,3,2,"Instruments",1,2,"left","right",0.502000093,0,0,1,0,NA,NA,NA,NA,NA,NA,NA,NA,NA,NA,NA,NA,NA,NA,NA,NA,NA,NA,NA,NA,NA,NA,NA,NA
"292","stim/objects/HouseObjects/knife3.png",292,16,285,0.9,"stim/11.jpeg",1,1,3,2,"HouseObjects",2,4,"right","right",0.77699995,1,1,1,0,NA,NA,NA,NA,NA,NA,NA,NA,NA,NA,NA,NA,NA,NA,NA,NA,NA,NA,NA,NA,NA,NA,NA,NA
"380","stim/objects/HouseObjects/rubbergloves3.png",293,16,286,0.5,"stim/34.jpeg",3,4,1,1,"HouseObjects",2,3,"right","left",0.703999996,0,0,1,0,72,16,1,0.5,1,"stim/34.jpeg",3,4,"stim/34.jpeg",3,"right",0.795000076,3,1,1.944000006,1,2.594000101,72,0,0,NA,0,NA,1
"509","stim/objects/Instruments/musicstand3.png",294,16,287,0.9,"stim/23.jpeg",2,3,3,2,"Instruments",1,4,"left","left",0.606999874,1,1,1,0,NA,NA,NA,NA,NA,NA,NA,NA,NA,NA,NA,NA,NA,NA,NA,NA,NA,NA,NA,NA,NA,NA,NA,NA
"495","stim/objects/Instruments/musicsheet3.png",295,16,288,0.9,"stim/24.jpeg",2,4,3,2,"Instruments",1,2,"left","left",0.653999805,1,1,1,0,NA,NA,NA,NA,NA,NA,NA,NA,NA,NA,NA,NA,NA,NA,NA,NA,NA,NA,NA,NA,NA,NA,NA,NA
"265","stim/objects/HouseObjects/bucket3.png",296,16,289,0.5,"stim/41.jpeg",4,1,1,2,"HouseObjects",2,2,"right","right",0.596999884,1,1,1,0,NA,NA,NA,NA,NA,NA,NA,NA,NA,NA,NA,NA,NA,NA,NA,NA,NA,NA,NA,NA,NA,NA,NA,NA
"250","stim/objects/HouseObjects/basket3.png",297,16,290,0.5,"stim/33.jpeg",3,3,1,2,"HouseObjects",2,4,"right","right",0.801000118,1,1,1,0,NA,NA,NA,NA,NA,NA,NA,NA,NA,NA,NA,NA,NA,NA,NA,NA,NA,NA,NA,NA,NA,NA,NA,NA
"510","stim/objects/Instruments/musicstand3.png",298,16,291,0.9,"stim/21.jpeg",2,1,3,2,"Instruments",1,2,"left","left",0.589999914,1,1,1,0,NA,NA,NA,NA,NA,NA,NA,NA,NA,NA,NA,NA,NA,NA,NA,NA,NA,NA,NA,NA,NA,NA,NA,NA
"511","stim/objects/Instruments/musicstand3.png",299,16,292,0.9,"stim/24.jpeg",2,4,3,2,"Instruments",1,3,"left","left",0.523999929,1,1,1,0,NA,NA,NA,NA,NA,NA,NA,NA,NA,NA,NA,NA,NA,NA,NA,NA,NA,NA,NA,NA,NA,NA,NA,NA
"384","stim/objects/HouseObjects/safetypin3.png",300,16,293,0.5,"stim/32.jpeg",3,2,1,1,"HouseObjects",2,3,"right","",NA,0,0,1,0,110,16,1,0.5,1,"stim/32.jpeg",3,2,"stim/32.jpeg",3,"left",2.338999987,3,3,2.691000223,2,0.74000001,110,1,0,0,0,0,1
"432","stim/objects/Instruments/clarinet4.png",301,16,294,0.7,"stim/63.jpeg",6,3,2,1,"Instruments",1,4,"left","left",0.618999958,1,1,1,0,24,16,1,0.7,1,"stim/63.jpeg",6,3,"stim/63.jpeg",4,"left",1.100999832,4,4,4.407999992,2,4.345000029,24,1,0,0,0,0,1
"512","stim/objects/Instruments/musicstand3.png",302,16,295,0.9,"stim/23.jpeg",2,3,3,2,"Instruments",1,1,"left","left",0.595000029,1,1,1,0,NA,NA,NA,NA,NA,NA,NA,NA,NA,NA,NA,NA,NA,NA,NA,NA,NA,NA,NA,NA,NA,NA,NA,NA
"290","stim/objects/HouseObjects/key4.png",303,16,296,0.3,"stim/63.jpeg",6,3,2,1,"HouseObjects",2,1,"right","left",0.532000065,0,0,1,0,2,16,1,0.3,2,"stim/63.jpeg",6,3,"stim/63.jpeg",1,"right",5.129999876,2,1,7.059000015,4,4.41899991,2,0,0,NA,0,NA,1
"417","stim/objects/Instruments/banjo4.png",304,16,297,0.3,"stim/51.jpeg",5,1,2,1,"Instruments",1,3,"left","right",0.834000111,0,0,1,0,77,16,1,0.3,1,"stim/51.jpeg",5,1,"stim/51.jpeg",3,"right",0.926000118,2,3,6.976000071,1,1.148999929,77,0,0,NA,0,NA,1
"458","stim/objects/Instruments/marimba3.png",305,16,298,0.9,"stim/23.jpeg",2,3,3,2,"Instruments",1,3,"left","left",0.564999819,1,1,1,0,NA,NA,NA,NA,NA,NA,NA,NA,NA,NA,NA,NA,NA,NA,NA,NA,NA,NA,NA,NA,NA,NA,NA,NA
"271","stim/objects/HouseObjects/clothesdryingrack3.png",306,16,299,0.7,"stim/51.jpeg",5,1,2,2,"HouseObjects",2,2,"right","right",0.518999815,1,1,1,0,NA,NA,NA,NA,NA,NA,NA,NA,NA,NA,NA,NA,NA,NA,NA,NA,NA,NA,NA,NA,NA,NA,NA,NA
"526","stim/objects/Instruments/oboe3.png",307,16,300,0.9,"stim/22.jpeg",2,2,3,2,"Instruments",1,1,"left","left",0.601999998,1,1,1,0,NA,NA,NA,NA,NA,NA,NA,NA,NA,NA,NA,NA,NA,NA,NA,NA,NA,NA,NA,NA,NA,NA,NA,NA
"241","stim/objects/HouseObjects/ashtray3.png",308,16,301,0.5,"stim/31.jpeg",3,1,1,2,"HouseObjects",2,4,"right","",NA,0,0,1,0,NA,NA,NA,NA,NA,NA,NA,NA,NA,NA,NA,NA,NA,NA,NA,NA,NA,NA,NA,NA,NA,NA,NA,NA
"293","stim/objects/HouseObjects/knife3.png",309,16,302,0.9,"stim/13.jpeg",1,3,3,2,"HouseObjects",2,4,"right","right",0.521999836,1,1,1,0,NA,NA,NA,NA,NA,NA,NA,NA,NA,NA,NA,NA,NA,NA,NA,NA,NA,NA,NA,NA,NA,NA,NA,NA
"513","stim/objects/Instruments/musicstand3.png",310,16,303,0.9,"stim/21.jpeg",2,1,3,2,"Instruments",1,2,"left","left",0.71999979,1,1,1,0,NA,NA,NA,NA,NA,NA,NA,NA,NA,NA,NA,NA,NA,NA,NA,NA,NA,NA,NA,NA,NA,NA,NA,NA
"480","stim/objects/Instruments/metronome3.png",311,16,304,0.9,"stim/24.jpeg",2,4,3,2,"Instruments",1,3,"left","right",0.642999887,0,0,1,0,NA,NA,NA,NA,NA,NA,NA,NA,NA,NA,NA,NA,NA,NA,NA,NA,NA,NA,NA,NA,NA,NA,NA,NA
"481","stim/objects/Instruments/metronome3.png",312,16,305,0.9,"stim/23.jpeg",2,3,3,2,"Instruments",1,3,"left","left",0.61500001,1,1,1,0,NA,NA,NA,NA,NA,NA,NA,NA,NA,NA,NA,NA,NA,NA,NA,NA,NA,NA,NA,NA,NA,NA,NA,NA
"311","stim/objects/HouseObjects/lintroller3.png",313,16,306,0.9,"stim/14.jpeg",1,4,3,2,"HouseObjects",2,2,"right","right",0.55700016,1,1,1,0,NA,NA,NA,NA,NA,NA,NA,NA,NA,NA,NA,NA,NA,NA,NA,NA,NA,NA,NA,NA,NA,NA,NA,NA
"361","stim/objects/HouseObjects/pitcher3.png",314,16,307,0.9,"stim/11.jpeg",1,1,3,2,"HouseObjects",2,1,"right","right",0.529999971,1,1,1,0,NA,NA,NA,NA,NA,NA,NA,NA,NA,NA,NA,NA,NA,NA,NA,NA,NA,NA,NA,NA,NA,NA,NA,NA
"405","stim/objects/HouseObjects/wateringcan4.png",315,16,308,0.1,"stim/24.jpeg",2,4,3,1,"HouseObjects",2,4,"right","left",0.524000168,0,0,1,0,1,16,1,0.1,2,"stim/24.jpeg",2,4,"stim/24.jpeg",4,"left",4.333000183,3,4,12.15799999,4,3.497999907,1,1,1,1,1,1,1
"448","stim/objects/Instruments/laud3.png",316,16,309,0.7,"stim/61.jpeg",6,1,2,2,"Instruments",1,3,"left","left",0.446999788,1,1,1,0,NA,NA,NA,NA,NA,NA,NA,NA,NA,NA,NA,NA,NA,NA,NA,NA,NA,NA,NA,NA,NA,NA,NA,NA
"341","stim/objects/HouseObjects/match4.png",317,16,310,0.9,"stim/11.jpeg",1,1,3,1,"HouseObjects",2,2,"right","right",0.645999908,1,1,1,0,122,16,1,0.9,2,"stim/11.jpeg",1,1,"stim/11.jpeg",2,"right",0.758000135,4,1,0.910000086,1,0.899999857,122,0,1,NA,0,NA,1
"346","stim/objects/HouseObjects/pan3.png",318,16,311,0.9,"stim/12.jpeg",1,2,3,2,"HouseObjects",2,4,"right","right",0.518000126,1,1,1,0,NA,NA,NA,NA,NA,NA,NA,NA,NA,NA,NA,NA,NA,NA,NA,NA,NA,NA,NA,NA,NA,NA,NA,NA
"460","stim/objects/Instruments/marimba3.png",319,16,312,0.9,"stim/22.jpeg",2,2,3,2,"Instruments",1,4,"left","right",0.524000168,0,0,1,0,NA,NA,NA,NA,NA,NA,NA,NA,NA,NA,NA,NA,NA,NA,NA,NA,NA,NA,NA,NA,NA,NA,NA,NA
"267","stim/objects/HouseObjects/bucket4.png",320,16,313,0.3,"stim/61.jpeg",6,1,2,1,"HouseObjects",2,3,"right","left",0.496999979,0,0,1,0,200,16,1,0.3,2,"stim/61.jpeg",6,1,"stim/61.jpeg",3,"right",0.894999981,2,3,0.904000044,2,0.825000048,200,0,0,NA,0,NA,1
"279","stim/objects/HouseObjects/iron3.png",321,16,314,0.7,"stim/53.jpeg",5,3,2,2,"HouseObjects",2,3,"right","right",0.614000082,1,1,1,0,NA,NA,NA,NA,NA,NA,NA,NA,NA,NA,NA,NA,NA,NA,NA,NA,NA,NA,NA,NA,NA,NA,NA,NA
"390","stim/objects/HouseObjects/sponge3.png",322,16,315,0.5,"stim/42.jpeg",4,2,1,1,"HouseObjects",2,2,"right","left",0.704000235,0,0,1,0,135,16,1,0.5,2,"stim/42.jpeg",4,2,"stim/42.jpeg",2,"left",0.921000004,4,2,3.723999977,4,2.048000097,135,1,1,1,0,0,1
"280","stim/objects/HouseObjects/iron3.png",323,16,316,0.7,"stim/52.jpeg",5,2,2,2,"HouseObjects",2,4,"right","right",0.80700016,1,1,1,0,NA,NA,NA,NA,NA,NA,NA,NA,NA,NA,NA,NA,NA,NA,NA,NA,NA,NA,NA,NA,NA,NA,NA,NA
"493","stim/objects/Instruments/musicsheet3.png",324,16,317,0.9,"stim/22.jpeg",2,2,3,2,"Instruments",1,3,"left","left",0.542000055,1,1,1,0,NA,NA,NA,NA,NA,NA,NA,NA,NA,NA,NA,NA,NA,NA,NA,NA,NA,NA,NA,NA,NA,NA,NA,NA
"506","stim/objects/Instruments/musicsheet4.png",325,16,318,0.1,"stim/13.jpeg",1,3,3,1,"Instruments",1,1,"left","right",0.46600008,0,0,1,0,183,16,1,0.1,1,"stim/13.jpeg",1,3,"stim/13.jpeg",1,"left",1.013999939,4,1,1.470999956,2,0.907999992,183,1,0,0,0,0,1
"312","stim/objects/HouseObjects/lintroller3.png",326,16,319,0.9,"stim/13.jpeg",1,3,3,2,"HouseObjects",2,3,"right","left",0.447000027,0,0,1,0,NA,NA,NA,NA,NA,NA,NA,NA,NA,NA,NA,NA,NA,NA,NA,NA,NA,NA,NA,NA,NA,NA,NA,NA
"527","stim/objects/Instruments/oboe3.png",327,16,320,0.9,"stim/24.jpeg",2,4,3,2,"Instruments",1,1,"left","right",0.401000023,0,0,1,0,NA,NA,NA,NA,NA,NA,NA,NA,NA,NA,NA,NA,NA,NA,NA,NA,NA,NA,NA,NA,NA,NA,NA,NA
"313","stim/objects/HouseObjects/lintroller3.png",328,16,321,0.9,"stim/11.jpeg",1,1,3,2,"HouseObjects",2,2,"right","right",0.56799984,1,1,1,0,NA,NA,NA,NA,NA,NA,NA,NA,NA,NA,NA,NA,NA,NA,NA,NA,NA,NA,NA,NA,NA,NA,NA,NA
"364","stim/objects/HouseObjects/pitcher3.png",329,16,322,0.9,"stim/12.jpeg",1,2,3,2,"HouseObjects",2,1,"right","right",0.588999987,1,1,1,0,NA,NA,NA,NA,NA,NA,NA,NA,NA,NA,NA,NA,NA,NA,NA,NA,NA,NA,NA,NA,NA,NA,NA,NA
"418","stim/objects/Instruments/bassdrum3.png",330,16,323,0.5,"stim/31.jpeg",3,1,1,2,"Instruments",1,3,"left","",NA,0,0,1,0,NA,NA,NA,NA,NA,NA,NA,NA,NA,NA,NA,NA,NA,NA,NA,NA,NA,NA,NA,NA,NA,NA,NA,NA
"365","stim/objects/HouseObjects/pitcher3.png",331,16,324,0.9,"stim/14.jpeg",1,4,3,2,"HouseObjects",2,2,"right","right",0.566999912,1,1,1,0,NA,NA,NA,NA,NA,NA,NA,NA,NA,NA,NA,NA,NA,NA,NA,NA,NA,NA,NA,NA,NA,NA,NA,NA
"408","stim/objects/Instruments/accordion4.png",332,16,325,0.3,"stim/52.jpeg",5,2,2,1,"Instruments",1,1,"left","right",0.727999926,0,0,1,0,32,16,1,0.3,1,"stim/52.jpeg",5,2,"stim/52.jpeg",1,"right",1.197999954,2,3,3.153999805,1,0.981999874,32,0,0,NA,1,NA,1
"438","stim/objects/Instruments/cymbal3.png",333,16,326,0.7,"stim/61.jpeg",6,1,2,2,"Instruments",1,4,"left","left",0.628999949,1,1,1,0,NA,NA,NA,NA,NA,NA,NA,NA,NA,NA,NA,NA,NA,NA,NA,NA,NA,NA,NA,NA,NA,NA,NA,NA
"421","stim/objects/Instruments/bassguitar3.png",334,16,327,0.5,"stim/44.jpeg",4,4,1,2,"Instruments",1,2,"left","left",0.609999895,1,1,1,0,NA,NA,NA,NA,NA,NA,NA,NA,NA,NA,NA,NA,NA,NA,NA,NA,NA,NA,NA,NA,NA,NA,NA,NA
"314","stim/objects/HouseObjects/lintroller3.png",335,16,328,0.9,"stim/12.jpeg",1,2,3,2,"HouseObjects",2,1,"right","right",0.563999891,1,1,1,0,NA,NA,NA,NA,NA,NA,NA,NA,NA,NA,NA,NA,NA,NA,NA,NA,NA,NA,NA,NA,NA,NA,NA,NA
"482","stim/objects/Instruments/metronome3.png",336,16,329,0.9,"stim/22.jpeg",2,2,3,2,"Instruments",1,3,"left","left",0.589999914,1,1,1,0,NA,NA,NA,NA,NA,NA,NA,NA,NA,NA,NA,NA,NA,NA,NA,NA,NA,NA,NA,NA,NA,NA,NA,NA
"347","stim/objects/HouseObjects/pan3.png",337,16,330,0.9,"stim/13.jpeg",1,3,3,2,"HouseObjects",2,3,"right","right",0.587000132,1,1,1,0,NA,NA,NA,NA,NA,NA,NA,NA,NA,NA,NA,NA,NA,NA,NA,NA,NA,NA,NA,NA,NA,NA,NA,NA
"366","stim/objects/HouseObjects/pitcher3.png",338,16,331,0.9,"stim/12.jpeg",1,2,3,2,"HouseObjects",2,2,"right","right",0.790999889,1,1,1,0,NA,NA,NA,NA,NA,NA,NA,NA,NA,NA,NA,NA,NA,NA,NA,NA,NA,NA,NA,NA,NA,NA,NA,NA
"331","stim/objects/HouseObjects/match3.png",339,16,332,0.9,"stim/12.jpeg",1,2,3,2,"HouseObjects",2,1,"right","right",0.65199995,1,1,1,0,NA,NA,NA,NA,NA,NA,NA,NA,NA,NA,NA,NA,NA,NA,NA,NA,NA,NA,NA,NA,NA,NA,NA,NA
"294","stim/objects/HouseObjects/knife3.png",340,16,333,0.9,"stim/12.jpeg",1,2,3,2,"HouseObjects",2,1,"right","right",0.677999973,1,1,1,0,NA,NA,NA,NA,NA,NA,NA,NA,NA,NA,NA,NA,NA,NA,NA,NA,NA,NA,NA,NA,NA,NA,NA,NA
"385","stim/objects/HouseObjects/safetypin4.png",341,16,334,0.9,"stim/14.jpeg",1,4,3,1,"HouseObjects",2,1,"right","right",0.576999903,1,1,1,0,27,16,1,0.9,2,"stim/14.jpeg",1,4,"stim/14.jpeg",1,"right",1.767999887,1,2,1.897000074,1,1.152000189,27,0,0,NA,1,NA,1
"395","stim/objects/HouseObjects/teapot4.png",342,16,335,0.1,"stim/23.jpeg",2,3,3,1,"HouseObjects",2,2,"right","right",0.394000053,1,1,1,0,199,16,1,0.1,2,"stim/23.jpeg",2,3,"stim/23.jpeg",2,"right",0.713000059,1,1,0.760999918,3,1.032000065,199,0,0,NA,0,NA,1
"528","stim/objects/Instruments/oboe3.png",343,16,336,0.9,"stim/24.jpeg",2,4,3,2,"Instruments",1,4,"left","left",0.634000063,1,1,1,0,NA,NA,NA,NA,NA,NA,NA,NA,NA,NA,NA,NA,NA,NA,NA,NA,NA,NA,NA,NA,NA,NA,NA,NA
"529","stim/objects/Instruments/oboe3.png",344,16,337,0.9,"stim/23.jpeg",2,3,3,2,"Instruments",1,2,"left","left",0.565000057,1,1,1,0,NA,NA,NA,NA,NA,NA,NA,NA,NA,NA,NA,NA,NA,NA,NA,NA,NA,NA,NA,NA,NA,NA,NA,NA
"440","stim/objects/Instruments/doublebass3.png",345,16,338,0.7,"stim/62.jpeg",6,2,2,2,"Instruments",1,3,"left","left",0.75999999,1,1,1,0,NA,NA,NA,NA,NA,NA,NA,NA,NA,NA,NA,NA,NA,NA,NA,NA,NA,NA,NA,NA,NA,NA,NA,NA
"315","stim/objects/HouseObjects/lintroller3.png",346,16,339,0.9,"stim/14.jpeg",1,4,3,2,"HouseObjects",2,2,"right","",NA,0,0,1,0,NA,NA,NA,NA,NA,NA,NA,NA,NA,NA,NA,NA,NA,NA,NA,NA,NA,NA,NA,NA,NA,NA,NA,NA
"316","stim/objects/HouseObjects/lintroller3.png",347,16,340,0.9,"stim/14.jpeg",1,4,3,2,"HouseObjects",2,1,"right","",NA,0,0,1,0,NA,NA,NA,NA,NA,NA,NA,NA,NA,NA,NA,NA,NA,NA,NA,NA,NA,NA,NA,NA,NA,NA,NA,NA
"566","stim/objects/Instruments/violin4.png",348,16,341,0.9,"stim/24.jpeg",2,4,3,1,"Instruments",1,3,"left","",NA,0,0,1,0,151,16,1,0.9,1,"stim/24.jpeg",2,4,"stim/24.jpeg",3,"right",0.772000074,3,2,0.802000046,1,0.934999943,151,0,0,NA,0,NA,1
"540","stim/objects/Instruments/oboe4.png",349,16,342,0.1,"stim/11.jpeg",1,1,3,1,"Instruments",1,4,"left","right",0.503000021,0,0,1,0,175,16,1,0.1,1,"stim/11.jpeg",1,1,"stim/11.jpeg",4,"right",1.380999804,3,1,2.848999977,2,1.065000057,175,0,1,NA,0,NA,1
"295","stim/objects/HouseObjects/knife3.png",350,16,343,0.9,"stim/12.jpeg",1,2,3,2,"HouseObjects",2,3,"right","right",0.539000034,1,1,1,0,NA,NA,NA,NA,NA,NA,NA,NA,NA,NA,NA,NA,NA,NA,NA,NA,NA,NA,NA,NA,NA,NA,NA,NA
"541","stim/objects/Instruments/panflute3.png",351,16,344,0.5,"stim/33.jpeg",3,3,1,1,"Instruments",1,2,"left","left",0.554999828,1,1,1,0,62,16,1,0.5,1,"stim/33.jpeg",3,3,"stim/33.jpeg",2,"right",1.069999933,1,4,1.166999817,1,0.847000122,62,0,0,NA,0,NA,1
"317","stim/objects/HouseObjects/lintroller3.png",352,16,345,0.9,"stim/11.jpeg",1,1,3,2,"HouseObjects",2,3,"right","right",0.474999905,1,1,1,0,NA,NA,NA,NA,NA,NA,NA,NA,NA,NA,NA,NA,NA,NA,NA,NA,NA,NA,NA,NA,NA,NA,NA,NA
"333","stim/objects/HouseObjects/match3.png",353,16,346,0.9,"stim/13.jpeg",1,3,3,2,"HouseObjects",2,4,"right","right",0.578999996,1,1,1,0,NA,NA,NA,NA,NA,NA,NA,NA,NA,NA,NA,NA,NA,NA,NA,NA,NA,NA,NA,NA,NA,NA,NA,NA
"254","stim/objects/HouseObjects/bleachbottle3.png",354,16,347,0.5,"stim/34.jpeg",3,4,1,2,"HouseObjects",2,3,"right","right",0.544000149,1,1,1,0,NA,NA,NA,NA,NA,NA,NA,NA,NA,NA,NA,NA,NA,NA,NA,NA,NA,NA,NA,NA,NA,NA,NA,NA
"278","stim/objects/HouseObjects/clothespin4.png",355,16,348,0.3,"stim/64.jpeg",6,4,2,1,"HouseObjects",2,1,"right","left",0.660999775,0,0,1,0,178,16,1,0.3,2,"stim/64.jpeg",6,4,"stim/64.jpeg",1,"left",1.376999855,2,4,3.223999977,2,2.768000126,178,1,1,1,0,0,1
"553","stim/objects/Instruments/tambourine3.png",356,16,349,0.5,"stim/42.jpeg",4,2,1,1,"Instruments",1,3,"left","right",0.792000055,0,0,1,0,174,16,1,0.5,2,"stim/42.jpeg",4,2,"stim/42.jpeg",3,"left",0.976999998,4,1,4.135999918,2,1.434000015,174,1,0,0,0,0,1
"258","stim/objects/HouseObjects/blender4.png",357,16,350,0.3,"stim/62.jpeg",6,2,2,1,"HouseObjects",2,1,"right","right",0.713000059,1,1,1,0,179,16,1,0.3,2,"stim/62.jpeg",6,2,"stim/62.jpeg",1,"left",1.963999987,3,4,2.973999977,3,3.357000113,179,1,0,0,0,0,1
"530","stim/objects/Instruments/oboe3.png",358,16,351,0.9,"stim/21.jpeg",2,1,3,2,"Instruments",1,1,"left","right",0.453000069,0,0,1,0,NA,NA,NA,NA,NA,NA,NA,NA,NA,NA,NA,NA,NA,NA,NA,NA,NA,NA,NA,NA,NA,NA,NA,NA
"247","stim/objects/HouseObjects/barbecuelighter3.png",359,16,352,0.5,"stim/32.jpeg",3,2,1,2,"HouseObjects",2,3,"right","",NA,0,0,1,0,NA,NA,NA,NA,NA,NA,NA,NA,NA,NA,NA,NA,NA,NA,NA,NA,NA,NA,NA,NA,NA,NA,NA,NA
"334","stim/objects/HouseObjects/match3.png",360,16,353,0.9,"stim/12.jpeg",1,2,3,2,"HouseObjects",2,3,"right","right",0.693000078,1,1,1,0,NA,NA,NA,NA,NA,NA,NA,NA,NA,NA,NA,NA,NA,NA,NA,NA,NA,NA,NA,NA,NA,NA,NA,NA
"369","stim/objects/HouseObjects/pitcher3.png",361,16,354,0.9,"stim/12.jpeg",1,2,3,2,"HouseObjects",2,2,"right","right",0.521000147,1,1,1,0,NA,NA,NA,NA,NA,NA,NA,NA,NA,NA,NA,NA,NA,NA,NA,NA,NA,NA,NA,NA,NA,NA,NA,NA
"497","stim/objects/Instruments/musicsheet3.png",362,16,355,0.9,"stim/22.jpeg",2,2,3,2,"Instruments",1,4,"left","left",0.661000013,1,1,1,0,NA,NA,NA,NA,NA,NA,NA,NA,NA,NA,NA,NA,NA,NA,NA,NA,NA,NA,NA,NA,NA,NA,NA,NA
"483","stim/objects/Instruments/metronome3.png",363,16,356,0.9,"stim/24.jpeg",2,4,3,2,"Instruments",1,1,"left","left",0.571000099,1,1,1,0,NA,NA,NA,NA,NA,NA,NA,NA,NA,NA,NA,NA,NA,NA,NA,NA,NA,NA,NA,NA,NA,NA,NA,NA
"255","stim/objects/HouseObjects/bleachbottle4.png",364,16,357,0.7,"stim/53.jpeg",5,3,2,1,"HouseObjects",2,1,"right","right",0.552999973,1,1,1,0,165,16,1,0.7,2,"stim/53.jpeg",5,3,"stim/53.jpeg",1,"left",1.135999918,2,1,2.647000074,4,1.99000001,165,1,0,0,0,0,1
"307","stim/objects/HouseObjects/knife4.png",365,16,358,0.9,"stim/13.jpeg",1,3,3,1,"HouseObjects",2,2,"right","right",0.518000126,1,1,1,0,161,16,1,0.9,2,"stim/13.jpeg",1,3,"stim/13.jpeg",2,"right",0.957999945,4,1,0.67200017,1,1.528999805,161,0,0,NA,0,NA,1
"498","stim/objects/Instruments/musicsheet3.png",366,16,359,0.9,"stim/24.jpeg",2,4,3,2,"Instruments",1,1,"left","right",0.772000074,0,0,1,0,NA,NA,NA,NA,NA,NA,NA,NA,NA,NA,NA,NA,NA,NA,NA,NA,NA,NA,NA,NA,NA,NA,NA,NA
"565","stim/objects/Instruments/violin3.png",367,16,360,0.3,"stim/53.jpeg",5,3,2,1,"Instruments",1,2,"left","right",0.578999996,0,0,1,0,89,16,1,0.3,1,"stim/53.jpeg",5,3,"stim/53.jpeg",2,"right",1.119999886,1,4,3.351999998,4,2.336999893,89,0,0,NA,0,NA,1
"348","stim/objects/HouseObjects/pan3.png",368,16,361,0.9,"stim/14.jpeg",1,4,3,2,"HouseObjects",2,3,"right","right",0.542999983,1,1,1,0,NA,NA,NA,NA,NA,NA,NA,NA,NA,NA,NA,NA,NA,NA,NA,NA,NA,NA,NA,NA,NA,NA,NA,NA
"484","stim/objects/Instruments/metronome3.png",369,16,362,0.9,"stim/21.jpeg",2,1,3,2,"Instruments",1,3,"left","left",0.561000109,1,1,1,0,NA,NA,NA,NA,NA,NA,NA,NA,NA,NA,NA,NA,NA,NA,NA,NA,NA,NA,NA,NA,NA,NA,NA,NA
"499","stim/objects/Instruments/musicsheet3.png",370,16,363,0.9,"stim/21.jpeg",2,1,3,2,"Instruments",1,4,"left","left",0.50999999,1,1,1,0,NA,NA,NA,NA,NA,NA,NA,NA,NA,NA,NA,NA,NA,NA,NA,NA,NA,NA,NA,NA,NA,NA,NA,NA
"441","stim/objects/Instruments/doublebass3.png",371,16,364,0.7,"stim/63.jpeg",6,3,2,2,"Instruments",1,2,"left","left",0.617000103,1,1,1,0,NA,NA,NA,NA,NA,NA,NA,NA,NA,NA,NA,NA,NA,NA,NA,NA,NA,NA,NA,NA,NA,NA,NA,NA
"420","stim/objects/Instruments/bassdrum4.png",372,16,365,0.3,"stim/52.jpeg",5,2,2,1,"Instruments",1,2,"left","right",0.556999922,0,0,1,0,118,16,1,0.3,1,"stim/52.jpeg",5,2,"stim/52.jpeg",2,"left",2.436000109,2,1,2.202000141,2,3.140999794,118,1,0,0,1,1,1
"500","stim/objects/Instruments/musicsheet3.png",373,16,366,0.9,"stim/23.jpeg",2,3,3,2,"Instruments",1,1,"left","left",0.743000031,1,1,1,0,NA,NA,NA,NA,NA,NA,NA,NA,NA,NA,NA,NA,NA,NA,NA,NA,NA,NA,NA,NA,NA,NA,NA,NA
"552","stim/objects/Instruments/speaker4.png",374,16,367,0.9,"stim/21.jpeg",2,1,3,1,"Instruments",1,2,"left","left",0.578999996,1,1,1,0,14,16,1,0.9,1,"stim/21.jpeg",2,1,"stim/21.jpeg",2,"left",0.955999851,4,1,1.5,1,1.232000113,14,1,1,1,0,0,1
"472","stim/objects/Instruments/marimba4.png",375,16,368,0.1,"stim/11.jpeg",1,1,3,1,"Instruments",1,4,"left","right",0.590000153,0,0,1,0,50,16,1,0.1,1,"stim/11.jpeg",1,1,"stim/11.jpeg",4,"right",1.322999954,2,1,3.946000099,1,1.185000181,50,0,1,NA,0,NA,1
"556","stim/objects/Instruments/timbal4.png",376,16,369,0.9,"stim/23.jpeg",2,3,3,1,"Instruments",1,1,"left","right",0.478000164,0,0,1,0,35,16,1,0.9,1,"stim/23.jpeg",2,3,"stim/23.jpeg",1,"left",1.149000168,4,2,5.55700016,2,3.255000114,35,1,0,0,0,0,1
"335","stim/objects/HouseObjects/match3.png",377,16,370,0.9,"stim/11.jpeg",1,1,3,2,"HouseObjects",2,3,"right","right",0.605000019,1,1,1,0,NA,NA,NA,NA,NA,NA,NA,NA,NA,NA,NA,NA,NA,NA,NA,NA,NA,NA,NA,NA,NA,NA,NA,NA
"244","stim/objects/HouseObjects/ballofstring3.png",378,16,371,0.5,"stim/31.jpeg",3,1,1,2,"HouseObjects",2,3,"right","left",0.79399991,0,0,1,0,NA,NA,NA,NA,NA,NA,NA,NA,NA,NA,NA,NA,NA,NA,NA,NA,NA,NA,NA,NA,NA,NA,NA,NA
"342","stim/objects/HouseObjects/pan3.png",379,16,372,0.9,"stim/12.jpeg",1,2,3,2,"HouseObjects",2,3,"right","right",0.516000032,1,1,1,0,NA,NA,NA,NA,NA,NA,NA,NA,NA,NA,NA,NA,NA,NA,NA,NA,NA,NA,NA,NA,NA,NA,NA,NA
"297","stim/objects/HouseObjects/knife3.png",380,16,373,0.9,"stim/12.jpeg",1,2,3,2,"HouseObjects",2,1,"right","right",0.47300005,1,1,1,0,NA,NA,NA,NA,NA,NA,NA,NA,NA,NA,NA,NA,NA,NA,NA,NA,NA,NA,NA,NA,NA,NA,NA,NA
"545","stim/objects/Instruments/record_player3.png",381,16,374,0.5,"stim/32.jpeg",3,2,1,1,"Instruments",1,1,"left","left",0.773000002,1,1,1,0,171,16,1,0.5,1,"stim/32.jpeg",3,2,"stim/32.jpeg",1,"right",1.210000038,1,3,2.042000055,1,1.608999968,171,0,0,NA,1,NA,1
"444","stim/objects/Instruments/keyboard3.png",382,16,375,0.7,"stim/63.jpeg",6,3,2,2,"Instruments",1,2,"left","left",0.625,1,1,1,0,NA,NA,NA,NA,NA,NA,NA,NA,NA,NA,NA,NA,NA,NA,NA,NA,NA,NA,NA,NA,NA,NA,NA,NA
"272","stim/objects/HouseObjects/clothesdryingrack3.png",383,16,376,0.7,"stim/54.jpeg",5,4,2,2,"HouseObjects",2,1,"right","right",0.536000013,1,1,1,0,NA,NA,NA,NA,NA,NA,NA,NA,NA,NA,NA,NA,NA,NA,NA,NA,NA,NA,NA,NA,NA,NA,NA,NA
"517","stim/objects/Instruments/musicstand3.png",384,16,377,0.9,"stim/22.jpeg",2,2,3,2,"Instruments",1,4,"left","left",0.826999903,1,1,1,0,NA,NA,NA,NA,NA,NA,NA,NA,NA,NA,NA,NA,NA,NA,NA,NA,NA,NA,NA,NA,NA,NA,NA,NA
"259","stim/objects/HouseObjects/bottle3.png",385,16,378,0.5,"stim/43.jpeg",4,3,1,2,"HouseObjects",2,4,"right","left",0.744999886,0,0,1,0,NA,NA,NA,NA,NA,NA,NA,NA,NA,NA,NA,NA,NA,NA,NA,NA,NA,NA,NA,NA,NA,NA,NA,NA
"462","stim/objects/Instruments/marimba3.png",386,16,379,0.9,"stim/23.jpeg",2,3,3,2,"Instruments",1,2,"left","left",0.478999853,1,1,1,0,NA,NA,NA,NA,NA,NA,NA,NA,NA,NA,NA,NA,NA,NA,NA,NA,NA,NA,NA,NA,NA,NA,NA,NA
"447","stim/objects/Instruments/keyboard4.png",387,16,380,0.7,"stim/63.jpeg",6,3,2,1,"Instruments",1,2,"left","left",0.680000067,1,1,1,0,68,16,1,0.7,1,"stim/63.jpeg",6,3,"stim/63.jpeg",2,"left",1.264999866,4,4,4.255999804,1,1.727999926,68,1,0,0,0,0,1
"332","stim/objects/HouseObjects/match3.png",388,16,381,0.9,"stim/13.jpeg",1,3,3,2,"HouseObjects",2,2,"right","right",0.502000093,1,1,1,0,NA,NA,NA,NA,NA,NA,NA,NA,NA,NA,NA,NA,NA,NA,NA,NA,NA,NA,NA,NA,NA,NA,NA,NA
"463","stim/objects/Instruments/marimba3.png",389,16,382,0.9,"stim/24.jpeg",2,4,3,2,"Instruments",1,4,"left","right",0.505999804,0,0,1,0,NA,NA,NA,NA,NA,NA,NA,NA,NA,NA,NA,NA,NA,NA,NA,NA,NA,NA,NA,NA,NA,NA,NA,NA
"350","stim/objects/HouseObjects/pan3.png",390,16,383,0.9,"stim/11.jpeg",1,1,3,2,"HouseObjects",2,4,"right","right",0.418000221,1,1,1,0,NA,NA,NA,NA,NA,NA,NA,NA,NA,NA,NA,NA,NA,NA,NA,NA,NA,NA,NA,NA,NA,NA,NA,NA
"284","stim/objects/HouseObjects/ironingboard3.png",391,16,384,0.7,"stim/52.jpeg",5,2,2,2,"HouseObjects",2,3,"right","right",0.509000063,1,1,1,0,NA,NA,NA,NA,NA,NA,NA,NA,NA,NA,NA,NA,NA,NA,NA,NA,NA,NA,NA,NA,NA,NA,NA,NA
"518","stim/objects/Instruments/musicstand3.png",392,16,385,0.9,"stim/22.jpeg",2,2,3,2,"Instruments",1,1,"left","left",0.636999846,1,1,1,0,NA,NA,NA,NA,NA,NA,NA,NA,NA,NA,NA,NA,NA,NA,NA,NA,NA,NA,NA,NA,NA,NA,NA,NA
"360","stim/objects/HouseObjects/pitcher3.png",393,16,386,0.9,"stim/14.jpeg",1,4,3,2,"HouseObjects",2,4,"right","right",0.493999958,1,1,1,0,NA,NA,NA,NA,NA,NA,NA,NA,NA,NA,NA,NA,NA,NA,NA,NA,NA,NA,NA,NA,NA,NA,NA,NA
"275","stim/objects/HouseObjects/clothespin3.png",394,16,387,0.7,"stim/54.jpeg",5,4,2,2,"HouseObjects",2,4,"right","right",0.467000008,1,1,1,0,NA,NA,NA,NA,NA,NA,NA,NA,NA,NA,NA,NA,NA,NA,NA,NA,NA,NA,NA,NA,NA,NA,NA,NA
"376","stim/objects/HouseObjects/recyclingbin3.png",395,16,388,0.5,"stim/32.jpeg",3,2,1,1,"HouseObjects",2,3,"right","left",0.598999977,0,0,1,0,116,16,1,0.5,1,"stim/32.jpeg",3,2,"stim/32.jpeg",3,"right",0.937999964,2,3,0.914999962,2,1.643000126,116,0,0,NA,0,NA,1
"296","stim/objects/HouseObjects/knife3.png",396,16,389,0.9,"stim/11.jpeg",1,1,3,2,"HouseObjects",2,3,"right","right",0.585999966,1,1,1,0,NA,NA,NA,NA,NA,NA,NA,NA,NA,NA,NA,NA,NA,NA,NA,NA,NA,NA,NA,NA,NA,NA,NA,NA
"368","stim/objects/HouseObjects/pitcher3.png",397,16,390,0.9,"stim/11.jpeg",1,1,3,2,"HouseObjects",2,2,"right","right",0.610000134,1,1,1,0,NA,NA,NA,NA,NA,NA,NA,NA,NA,NA,NA,NA,NA,NA,NA,NA,NA,NA,NA,NA,NA,NA,NA,NA
"546","stim/objects/Instruments/record_player4.png",398,16,391,0.1,"stim/11.jpeg",1,1,3,1,"Instruments",1,1,"left","right",0.745000124,0,0,1,0,146,16,1,0.1,1,"stim/11.jpeg",1,1,"stim/11.jpeg",1,"left",0.990999937,4,2,4.092999935,2,1.531000137,146,1,0,0,0,0,1
"455","stim/objects/Instruments/maraca4.png",399,16,392,0.7,"stim/61.jpeg",6,1,2,1,"Instruments",1,4,"left","left",0.596999884,1,1,1,0,105,16,1,0.7,1,"stim/61.jpeg",6,1,"stim/61.jpeg",4,"right",1.013000011,3,4,2.054999828,1,1.06099987,105,0,0,NA,0,NA,1
"449","stim/objects/Instruments/laud3.png",400,16,393,0.7,"stim/62.jpeg",6,2,2,2,"Instruments",1,3,"left","left",0.613000154,1,1,1,0,NA,NA,NA,NA,NA,NA,NA,NA,NA,NA,NA,NA,NA,NA,NA,NA,NA,NA,NA,NA,NA,NA,NA,NA
"270","stim/objects/HouseObjects/clock4.png",401,16,394,0.3,"stim/62.jpeg",6,2,2,1,"HouseObjects",2,2,"right","right",0.680000067,1,1,1,0,60,16,1,0.3,2,"stim/62.jpeg",6,2,"stim/62.jpeg",2,"right",1.993000031,2,3,2.795000076,1,1.243999958,60,0,0,NA,0,NA,1
"485","stim/objects/Instruments/metronome3.png",402,16,395,0.9,"stim/22.jpeg",2,2,3,2,"Instruments",1,1,"left","left",0.799999952,1,1,1,0,NA,NA,NA,NA,NA,NA,NA,NA,NA,NA,NA,NA,NA,NA,NA,NA,NA,NA,NA,NA,NA,NA,NA,NA
"371","stim/objects/HouseObjects/pitcher3.png",403,16,396,0.9,"stim/13.jpeg",1,3,3,2,"HouseObjects",2,3,"right","right",0.7900002,1,1,1,0,NA,NA,NA,NA,NA,NA,NA,NA,NA,NA,NA,NA,NA,NA,NA,NA,NA,NA,NA,NA,NA,NA,NA,NA
"358","stim/objects/HouseObjects/pan4.png",404,16,397,0.9,"stim/12.jpeg",1,2,3,1,"HouseObjects",2,4,"right","right",0.615999937,1,1,1,0,195,16,1,0.9,2,"stim/12.jpeg",1,2,"stim/12.jpeg",4,"right",1.010999918,3,3,0.795000076,3,1.131000042,195,0,0,NA,0,NA,1
"414","stim/objects/Instruments/balalaika4.png",405,16,398,0.3,"stim/54.jpeg",5,4,2,1,"Instruments",1,4,"left","right",0.605999947,0,0,1,0,155,16,1,0.3,1,"stim/54.jpeg",5,4,"stim/54.jpeg",4,"left",0.80700016,4,1,2.108999968,3,2.198999882,155,1,0,0,0,0,1
"299","stim/objects/HouseObjects/knife3.png",406,16,399,0.9,"stim/14.jpeg",1,4,3,2,"HouseObjects",2,3,"right","right",0.760999918,1,1,1,0,NA,NA,NA,NA,NA,NA,NA,NA,NA,NA,NA,NA,NA,NA,NA,NA,NA,NA,NA,NA,NA,NA,NA,NA
"461","stim/objects/Instruments/marimba3.png",407,16,400,0.9,"stim/23.jpeg",2,3,3,2,"Instruments",1,1,"left","left",0.583000183,1,1,1,0,NA,NA,NA,NA,NA,NA,NA,NA,NA,NA,NA,NA,NA,NA,NA,NA,NA,NA,NA,NA,NA,NA,NA,NA
"407","stim/objects/Instruments/accordion3.png",408,16,401,0.5,"stim/32.jpeg",3,2,1,2,"Instruments",1,1,"left","",NA,0,0,1,0,NA,NA,NA,NA,NA,NA,NA,NA,NA,NA,NA,NA,NA,NA,NA,NA,NA,NA,NA,NA,NA,NA,NA,NA
"548","stim/objects/Instruments/record4.png",409,16,402,0.1,"stim/14.jpeg",1,4,3,1,"Instruments",1,3,"left","right",0.6650002,0,0,1,0,127,16,1,0.1,1,"stim/14.jpeg",1,4,"stim/14.jpeg",3,"left",1.873999834,3,3,4.414999962,2,2.075000048,127,1,0,0,0,0,1
"321","stim/objects/HouseObjects/lintroller3.png",410,16,403,0.9,"stim/13.jpeg",1,3,3,2,"HouseObjects",2,4,"right","right",0.64199996,1,1,1,0,NA,NA,NA,NA,NA,NA,NA,NA,NA,NA,NA,NA,NA,NA,NA,NA,NA,NA,NA,NA,NA,NA,NA,NA
"489","stim/objects/Instruments/metronome4.png",411,16,404,0.1,"stim/12.jpeg",1,2,3,1,"Instruments",1,4,"left","right",0.626000166,0,0,1,0,119,16,1,0.1,1,"stim/12.jpeg",1,2,"stim/12.jpeg",4,"right",1.392000198,1,3,0.955000162,3,1.433000088,119,0,0,NA,0,NA,1
"318","stim/objects/HouseObjects/lintroller3.png",412,16,405,0.9,"stim/13.jpeg",1,3,3,2,"HouseObjects",2,4,"right","right",0.71600008,1,1,1,0,NA,NA,NA,NA,NA,NA,NA,NA,NA,NA,NA,NA,NA,NA,NA,NA,NA,NA,NA,NA,NA,NA,NA,NA
"411","stim/objects/Instruments/acousticguitar4.png",413,16,406,0.3,"stim/53.jpeg",5,3,2,1,"Instruments",1,3,"left","right",0.781999826,0,0,1,0,133,16,1,0.3,1,"stim/53.jpeg",5,3,"stim/53.jpeg",3,"right",0.707000017,1,3,1.490999937,2,1.17599988,133,0,1,NA,0,NA,1
"309","stim/objects/HouseObjects/lintroller3.png",414,16,407,0.9,"stim/14.jpeg",1,4,3,2,"HouseObjects",2,1,"right","right",0.65199995,1,1,1,0,NA,NA,NA,NA,NA,NA,NA,NA,NA,NA,NA,NA,NA,NA,NA,NA,NA,NA,NA,NA,NA,NA,NA,NA
"547","stim/objects/Instruments/record3.png",415,16,408,0.5,"stim/31.jpeg",3,1,1,1,"Instruments",1,4,"left","",NA,0,0,1,0,128,16,1,0.5,1,"stim/31.jpeg",3,1,"stim/31.jpeg",4,"left",1.289999962,2,3,6.187999964,3,1.67200017,128,1,0,0,0,0,1
"349","stim/objects/HouseObjects/pan3.png",416,16,409,0.9,"stim/14.jpeg",1,4,3,2,"HouseObjects",2,3,"right","right",0.551000118,1,1,1,0,NA,NA,NA,NA,NA,NA,NA,NA,NA,NA,NA,NA,NA,NA,NA,NA,NA,NA,NA,NA,NA,NA,NA,NA
"285","stim/objects/HouseObjects/ironingboard3.png",417,16,410,0.7,"stim/54.jpeg",5,4,2,2,"HouseObjects",2,4,"right","right",0.605000019,1,1,1,0,NA,NA,NA,NA,NA,NA,NA,NA,NA,NA,NA,NA,NA,NA,NA,NA,NA,NA,NA,NA,NA,NA,NA,NA
"386","stim/objects/HouseObjects/saw3.png",418,16,411,0.5,"stim/44.jpeg",4,4,1,1,"HouseObjects",2,2,"right","left",0.528000116,0,0,1,0,153,16,1,0.5,2,"stim/44.jpeg",4,4,"stim/44.jpeg",2,"right",0.58100009,1,3,1.503000021,2,1.088999987,153,0,0,NA,1,NA,1
"388","stim/objects/HouseObjects/scale3.png",419,16,412,0.5,"stim/41.jpeg",4,1,1,1,"HouseObjects",2,1,"right","right",0.849999905,1,1,1,0,78,16,1,0.5,2,"stim/41.jpeg",4,1,"stim/41.jpeg",1,"left",1.515000105,4,1,4.107000113,3,2.737999916,78,1,1,1,0,0,1
"274","stim/objects/HouseObjects/clothesdryingrack4.png",420,16,413,0.3,"stim/63.jpeg",6,3,2,1,"HouseObjects",2,3,"right","left",0.644999981,0,0,1,0,81,16,1,0.3,2,"stim/63.jpeg",6,3,"stim/63.jpeg",3,"left",1.256000042,4,1,8.371000051,3,3.377000093,81,1,0,0,1,1,1
"525","stim/objects/Instruments/oboe3.png",421,16,414,0.9,"stim/23.jpeg",2,3,3,2,"Instruments",1,3,"left","left",0.648999929,1,1,1,0,NA,NA,NA,NA,NA,NA,NA,NA,NA,NA,NA,NA,NA,NA,NA,NA,NA,NA,NA,NA,NA,NA,NA,NA
"436","stim/objects/Instruments/cymbal3.png",422,16,415,0.7,"stim/63.jpeg",6,3,2,2,"Instruments",1,1,"left","left",0.592999935,1,1,1,0,NA,NA,NA,NA,NA,NA,NA,NA,NA,NA,NA,NA,NA,NA,NA,NA,NA,NA,NA,NA,NA,NA,NA,NA
"535","stim/objects/Instruments/oboe3.png",423,16,416,0.9,"stim/23.jpeg",2,3,3,2,"Instruments",1,3,"left","left",0.521999836,1,1,1,0,NA,NA,NA,NA,NA,NA,NA,NA,NA,NA,NA,NA,NA,NA,NA,NA,NA,NA,NA,NA,NA,NA,NA,NA
"437","stim/objects/Instruments/cymbal3.png",424,16,417,0.7,"stim/62.jpeg",6,2,2,2,"Instruments",1,4,"left","",NA,0,0,1,0,NA,NA,NA,NA,NA,NA,NA,NA,NA,NA,NA,NA,NA,NA,NA,NA,NA,NA,NA,NA,NA,NA,NA,NA
"310","stim/objects/HouseObjects/lintroller3.png",425,16,418,0.9,"stim/12.jpeg",1,2,3,2,"HouseObjects",2,3,"right","right",0.59800005,1,1,1,0,NA,NA,NA,NA,NA,NA,NA,NA,NA,NA,NA,NA,NA,NA,NA,NA,NA,NA,NA,NA,NA,NA,NA,NA
"536","stim/objects/Instruments/oboe3.png",426,16,419,0.9,"stim/24.jpeg",2,4,3,2,"Instruments",1,4,"left","right",0.541999817,0,0,1,0,NA,NA,NA,NA,NA,NA,NA,NA,NA,NA,NA,NA,NA,NA,NA,NA,NA,NA,NA,NA,NA,NA,NA,NA
"404","stim/objects/HouseObjects/wateringcan3.png",427,16,420,0.7,"stim/52.jpeg",5,2,2,1,"HouseObjects",2,4,"right","right",0.65199995,1,1,1,0,83,16,1,0.7,2,"stim/52.jpeg",5,2,"stim/52.jpeg",4,"right",0.859000206,1,1,1.451999903,3,2.319000006,83,0,0,NA,0,NA,1
"319","stim/objects/HouseObjects/lintroller3.png",428,16,421,0.9,"stim/11.jpeg",1,1,3,2,"HouseObjects",2,1,"right","right",0.696000099,1,1,1,0,NA,NA,NA,NA,NA,NA,NA,NA,NA,NA,NA,NA,NA,NA,NA,NA,NA,NA,NA,NA,NA,NA,NA,NA
"352","stim/objects/HouseObjects/pan3.png",429,16,422,0.9,"stim/13.jpeg",1,3,3,2,"HouseObjects",2,3,"right","right",0.724999905,1,1,1,0,NA,NA,NA,NA,NA,NA,NA,NA,NA,NA,NA,NA,NA,NA,NA,NA,NA,NA,NA,NA,NA,NA,NA,NA
"502","stim/objects/Instruments/musicsheet3.png",430,16,423,0.9,"stim/21.jpeg",2,1,3,2,"Instruments",1,4,"left","left",0.674999952,1,1,1,0,NA,NA,NA,NA,NA,NA,NA,NA,NA,NA,NA,NA,NA,NA,NA,NA,NA,NA,NA,NA,NA,NA,NA,NA
"300","stim/objects/HouseObjects/knife3.png",431,16,424,0.9,"stim/13.jpeg",1,3,3,2,"HouseObjects",2,2,"right","right",0.605999947,1,1,1,0,NA,NA,NA,NA,NA,NA,NA,NA,NA,NA,NA,NA,NA,NA,NA,NA,NA,NA,NA,NA,NA,NA,NA,NA
"377","stim/objects/HouseObjects/recyclingbin4.png",432,16,425,0.9,"stim/14.jpeg",1,4,3,1,"HouseObjects",2,3,"right","right",0.510999918,1,1,1,0,76,16,1,0.9,2,"stim/14.jpeg",1,4,"stim/14.jpeg",3,"left",2.48300004,4,3,3.198000193,3,2.046000004,76,1,0,0,1,1,1
"464","stim/objects/Instruments/marimba3.png",433,16,426,0.9,"stim/21.jpeg",2,1,3,2,"Instruments",1,2,"left","left",0.763999939,1,1,1,0,NA,NA,NA,NA,NA,NA,NA,NA,NA,NA,NA,NA,NA,NA,NA,NA,NA,NA,NA,NA,NA,NA,NA,NA
"252","stim/objects/HouseObjects/basket4.png",434,16,427,0.7,"stim/52.jpeg",5,2,2,1,"HouseObjects",2,2,"right","right",0.696000099,1,1,1,0,59,16,1,0.7,2,"stim/52.jpeg",5,2,"stim/52.jpeg",2,"left",1.512000084,4,3,1.792999983,4,3.842000008,59,1,0,0,0,0,1
"298","stim/objects/HouseObjects/knife3.png",435,16,428,0.9,"stim/13.jpeg",1,3,3,2,"HouseObjects",2,1,"right","right",0.535000086,1,1,1,0,NA,NA,NA,NA,NA,NA,NA,NA,NA,NA,NA,NA,NA,NA,NA,NA,NA,NA,NA,NA,NA,NA,NA,NA
"459","stim/objects/Instruments/marimba3.png",436,16,429,0.9,"stim/22.jpeg",2,2,3,2,"Instruments",1,2,"left","left",0.669999838,1,1,1,0,NA,NA,NA,NA,NA,NA,NA,NA,NA,NA,NA,NA,NA,NA,NA,NA,NA,NA,NA,NA,NA,NA,NA,NA
"465","stim/objects/Instruments/marimba3.png",437,16,430,0.9,"stim/24.jpeg",2,4,3,2,"Instruments",1,4,"left","right",0.440000057,0,0,1,0,NA,NA,NA,NA,NA,NA,NA,NA,NA,NA,NA,NA,NA,NA,NA,NA,NA,NA,NA,NA,NA,NA,NA,NA
"345","stim/objects/HouseObjects/pan3.png",438,16,431,0.9,"stim/14.jpeg",1,4,3,2,"HouseObjects",2,3,"right","right",0.52699995,1,1,1,0,NA,NA,NA,NA,NA,NA,NA,NA,NA,NA,NA,NA,NA,NA,NA,NA,NA,NA,NA,NA,NA,NA,NA,NA
"563","stim/objects/Instruments/tuba3.png",439,16,432,0.3,"stim/52.jpeg",5,2,2,1,"Instruments",1,4,"left","right",0.627999783,0,0,1,0,143,16,1,0.3,1,"stim/52.jpeg",5,2,"stim/52.jpeg",4,"right",0.973999977,2,1,3.598999977,2,0.907999992,143,0,0,NA,0,NA,1
"433","stim/objects/Instruments/cornet3.png",440,16,433,0.5,"stim/44.jpeg",4,4,1,2,"Instruments",1,4,"left","right",0.829999924,0,0,1,0,NA,NA,NA,NA,NA,NA,NA,NA,NA,NA,NA,NA,NA,NA,NA,NA,NA,NA,NA,NA,NA,NA,NA,NA
"496","stim/objects/Instruments/musicsheet3.png",441,16,434,0.9,"stim/21.jpeg",2,1,3,2,"Instruments",1,3,"left","left",0.677999973,1,1,1,0,NA,NA,NA,NA,NA,NA,NA,NA,NA,NA,NA,NA,NA,NA,NA,NA,NA,NA,NA,NA,NA,NA,NA,NA
"288","stim/objects/HouseObjects/key3.png",442,16,435,0.7,"stim/54.jpeg",5,4,2,2,"HouseObjects",2,2,"right","right",0.513999939,1,1,1,0,NA,NA,NA,NA,NA,NA,NA,NA,NA,NA,NA,NA,NA,NA,NA,NA,NA,NA,NA,NA,NA,NA,NA,NA
"425","stim/objects/Instruments/cello3.png",443,16,436,0.5,"stim/41.jpeg",4,1,1,2,"Instruments",1,4,"left","left",0.844000101,1,1,1,0,NA,NA,NA,NA,NA,NA,NA,NA,NA,NA,NA,NA,NA,NA,NA,NA,NA,NA,NA,NA,NA,NA,NA,NA
"423","stim/objects/Instruments/bassguitar4.png",444,16,437,0.7,"stim/64.jpeg",6,4,2,1,"Instruments",1,1,"left","left",0.61500001,1,1,1,0,91,16,1,0.7,1,"stim/64.jpeg",6,4,"stim/64.jpeg",1,"right",0.917999983,1,1,3.489000082,3,2.25999999,91,0,0,NA,0,NA,1
"531","stim/objects/Instruments/oboe3.png",445,16,438,0.9,"stim/22.jpeg",2,2,3,2,"Instruments",1,4,"left","",NA,0,0,1,0,NA,NA,NA,NA,NA,NA,NA,NA,NA,NA,NA,NA,NA,NA,NA,NA,NA,NA,NA,NA,NA,NA,NA,NA
"399","stim/objects/HouseObjects/thread4.png",446,16,439,0.1,"stim/21.jpeg",2,1,3,1,"HouseObjects",2,3,"right","left",0.825999975,0,0,1,0,98,16,1,0.1,2,"stim/21.jpeg",2,1,"stim/21.jpeg",3,"left",0.963000059,4,2,5.097999811,3,1.93900013,98,1,0,0,1,1,1
"486","stim/objects/Instruments/metronome3.png",447,16,440,0.9,"stim/21.jpeg",2,1,3,2,"Instruments",1,4,"left","left",0.54700017,1,1,1,0,NA,NA,NA,NA,NA,NA,NA,NA,NA,NA,NA,NA,NA,NA,NA,NA,NA,NA,NA,NA,NA,NA,NA,NA
"303","stim/objects/HouseObjects/knife3.png",448,16,441,0.9,"stim/12.jpeg",1,2,3,2,"HouseObjects",2,2,"right","right",0.604000092,1,1,1,0,NA,NA,NA,NA,NA,NA,NA,NA,NA,NA,NA,NA,NA,NA,NA,NA,NA,NA,NA,NA,NA,NA,NA,NA
"276","stim/objects/HouseObjects/clothespin3.png",449,16,442,0.7,"stim/52.jpeg",5,2,2,2,"HouseObjects",2,1,"right","right",0.576999903,1,1,1,0,NA,NA,NA,NA,NA,NA,NA,NA,NA,NA,NA,NA,NA,NA,NA,NA,NA,NA,NA,NA,NA,NA,NA,NA
"435","stim/objects/Instruments/cornet4.png",450,16,443,0.7,"stim/64.jpeg",6,4,2,1,"Instruments",1,1,"left","left",0.565000057,1,1,1,0,164,16,1,0.7,1,"stim/64.jpeg",6,4,"stim/64.jpeg",1,"right",0.909999847,4,3,1.931999922,4,2.478000164,164,0,0,NA,0,NA,1
"355","stim/objects/HouseObjects/pan3.png",451,16,444,0.9,"stim/11.jpeg",1,1,3,2,"HouseObjects",2,2,"right","",NA,0,0,1,0,NA,NA,NA,NA,NA,NA,NA,NA,NA,NA,NA,NA,NA,NA,NA,NA,NA,NA,NA,NA,NA,NA,NA,NA
"263","stim/objects/HouseObjects/broom3.png",452,16,445,0.5,"stim/44.jpeg",4,4,1,2,"HouseObjects",2,4,"right","right",0.491000175,1,1,1,0,NA,NA,NA,NA,NA,NA,NA,NA,NA,NA,NA,NA,NA,NA,NA,NA,NA,NA,NA,NA,NA,NA,NA,NA
"393","stim/objects/HouseObjects/spraybottle4.png",453,16,446,0.1,"stim/22.jpeg",2,2,3,1,"HouseObjects",2,1,"right","right",0.575999975,1,1,1,0,144,16,1,0.1,2,"stim/22.jpeg",2,2,"stim/22.jpeg",1,"left",1.200000048,2,4,3.292000055,3,2.516000032,144,1,0,0,0,0,1
"257","stim/objects/HouseObjects/blender3.png",454,16,447,0.5,"stim/43.jpeg",4,3,1,2,"HouseObjects",2,2,"right","left",0.600000143,0,0,1,0,NA,NA,NA,NA,NA,NA,NA,NA,NA,NA,NA,NA,NA,NA,NA,NA,NA,NA,NA,NA,NA,NA,NA,NA
"516","stim/objects/Instruments/musicstand3.png",455,16,448,0.9,"stim/24.jpeg",2,4,3,2,"Instruments",1,3,"left","left",0.59800005,1,1,1,0,NA,NA,NA,NA,NA,NA,NA,NA,NA,NA,NA,NA,NA,NA,NA,NA,NA,NA,NA,NA,NA,NA,NA,NA
"467","stim/objects/Instruments/marimba3.png",456,16,449,0.9,"stim/24.jpeg",2,4,3,2,"Instruments",1,1,"left","left",0.578999996,1,1,1,0,NA,NA,NA,NA,NA,NA,NA,NA,NA,NA,NA,NA,NA,NA,NA,NA,NA,NA,NA,NA,NA,NA,NA,NA
"398","stim/objects/HouseObjects/thread3.png",457,16,450,0.7,"stim/53.jpeg",5,3,2,1,"HouseObjects",2,1,"right","",NA,0,0,1,0,181,16,1,0.7,2,"stim/53.jpeg",5,3,"stim/53.jpeg",1,"right",1.04399991,2,1,2.76699996,1,2.09100008,181,0,0,NA,1,NA,1
"504","stim/objects/Instruments/musicsheet3.png",458,16,451,0.9,"stim/24.jpeg",2,4,3,2,"Instruments",1,2,"left","right",0.55099988,0,0,1,0,NA,NA,NA,NA,NA,NA,NA,NA,NA,NA,NA,NA,NA,NA,NA,NA,NA,NA,NA,NA,NA,NA,NA,NA
"471","stim/objects/Instruments/marimba3.png",459,16,452,0.9,"stim/22.jpeg",2,2,3,2,"Instruments",1,3,"left","left",0.592999935,1,1,1,0,NA,NA,NA,NA,NA,NA,NA,NA,NA,NA,NA,NA,NA,NA,NA,NA,NA,NA,NA,NA,NA,NA,NA,NA
"519","stim/objects/Instruments/musicstand3.png",460,16,453,0.9,"stim/22.jpeg",2,2,3,2,"Instruments",1,1,"left","left",0.491999865,1,1,1,0,NA,NA,NA,NA,NA,NA,NA,NA,NA,NA,NA,NA,NA,NA,NA,NA,NA,NA,NA,NA,NA,NA,NA,NA
"302","stim/objects/HouseObjects/knife3.png",461,16,454,0.9,"stim/14.jpeg",1,4,3,2,"HouseObjects",2,2,"right","right",0.583000183,1,1,1,0,NA,NA,NA,NA,NA,NA,NA,NA,NA,NA,NA,NA,NA,NA,NA,NA,NA,NA,NA,NA,NA,NA,NA,NA
"419","stim/objects/Instruments/bassdrum3.png",462,16,455,0.5,"stim/32.jpeg",3,2,1,2,"Instruments",1,1,"left","left",0.634000063,1,1,1,0,NA,NA,NA,NA,NA,NA,NA,NA,NA,NA,NA,NA,NA,NA,NA,NA,NA,NA,NA,NA,NA,NA,NA,NA
"253","stim/objects/HouseObjects/bleachbottle3.png",463,16,456,0.5,"stim/31.jpeg",3,1,1,2,"HouseObjects",2,4,"right","left",0.578000069,0,0,1,0,NA,NA,NA,NA,NA,NA,NA,NA,NA,NA,NA,NA,NA,NA,NA,NA,NA,NA,NA,NA,NA,NA,NA,NA
"374","stim/objects/HouseObjects/pitcher3.png",464,16,457,0.9,"stim/12.jpeg",1,2,3,2,"HouseObjects",2,4,"right","right",0.569000006,1,1,1,0,NA,NA,NA,NA,NA,NA,NA,NA,NA,NA,NA,NA,NA,NA,NA,NA,NA,NA,NA,NA,NA,NA,NA,NA
"261","stim/objects/HouseObjects/bottle4.png",465,16,458,0.3,"stim/63.jpeg",6,3,2,1,"HouseObjects",2,2,"right","left",0.707999945,0,0,1,0,167,16,1,0.3,2,"stim/63.jpeg",6,3,"stim/63.jpeg",2,"left",1.31799984,2,3,1.838999987,2,3.260999918,167,1,1,1,1,1,1
"570","stim/objects/Instruments/xylophone4.png",466,16,459,0.9,"stim/22.jpeg",2,2,3,1,"Instruments",1,4,"left","left",0.552000046,1,1,1,0,31,16,1,0.9,1,"stim/22.jpeg",2,2,"stim/22.jpeg",4,"left",1.515999794,4,2,3.99000001,2,1.461999893,31,1,1,1,0,0,1
"501","stim/objects/Instruments/musicsheet3.png",467,16,460,0.9,"stim/21.jpeg",2,1,3,2,"Instruments",1,3,"left","left",0.536000013,1,1,1,0,NA,NA,NA,NA,NA,NA,NA,NA,NA,NA,NA,NA,NA,NA,NA,NA,NA,NA,NA,NA,NA,NA,NA,NA
"434","stim/objects/Instruments/cornet3.png",468,16,461,0.5,"stim/43.jpeg",4,3,1,2,"Instruments",1,3,"left","left",0.609000206,1,1,1,0,NA,NA,NA,NA,NA,NA,NA,NA,NA,NA,NA,NA,NA,NA,NA,NA,NA,NA,NA,NA,NA,NA,NA,NA
"429","stim/objects/Instruments/chime4.png",469,16,462,0.7,"stim/62.jpeg",6,2,2,1,"Instruments",1,4,"left","left",0.738999844,1,1,1,0,157,16,1,0.7,1,"stim/62.jpeg",6,2,"stim/62.jpeg",4,"right",1.120000124,1,1,2.786999941,3,0.805999994,157,0,0,NA,0,NA,1
