"","participant","trial_index","trial_cond","scn_file","scn_cat","scn_inst","scn_condition","fillers","obj_cat","obj_cat_num","obj_file","quadrant","corr_ans","key_resp_trial.keys","key_resp_trial.rt","trial_acc","trial_acc_manual","group"
"1",59,1,0.3,"stim/53.jpeg",5,3,2,NA,"HouseObjects",1,"stim/objects/HouseObjects/vacuumcleaner.png",3,"left","",NA,0,0,0
"2",59,2,0.9,"stim/22.jpeg",2,2,3,NA,"HouseObjects",1,"stim/objects/HouseObjects/towel2.png",2,"left","",NA,0,0,0
"3",59,3,0.9,"stim/24.jpeg",2,4,3,NA,"HouseObjects",1,"stim/objects/HouseObjects/wateringcan2.png",1,"left","left",0.622999907,1,1,0
"4",59,4,0.9,"stim/13.jpeg",1,3,3,NA,"Instruments",2,"stim/objects/Instruments/trombone2.png",2,"right","right",0.641000032,1,1,0
"5",59,5,0.5,"stim/44.jpeg",4,4,1,NA,"HouseObjects",1,"stim/objects/HouseObjects/thermometer.png",1,"left","left",0.779000044,1,1,0
"6",59,6,0.3,"stim/51.jpeg",5,1,2,NA,"HouseObjects",1,"stim/objects/HouseObjects/thread.png",2,"left","",NA,0,0,0
"7",59,7,0.9,"stim/23.jpeg",2,3,3,NA,"HouseObjects",1,"stim/objects/HouseObjects/vacuumcleaner2.png",4,"left","",NA,0,0,0
"8",59,8,0.5,"stim/43.jpeg",4,3,1,NA,"Instruments",2,"stim/objects/Instruments/trombone.png",4,"right","right",0.815999985,1,1,0
"9",59,9,0.9,"stim/22.jpeg",2,2,3,NA,"HouseObjects",1,"stim/objects/HouseObjects/towel2.png",3,"left","",NA,0,0,0
"10",59,10,0.9,"stim/22.jpeg",2,2,3,NA,"HouseObjects",1,"stim/objects/HouseObjects/towel2.png",3,"left","left",0.812000036,1,1,0
"11",59,11,0.7,"stim/52.jpeg",5,2,2,NA,"Instruments",2,"stim/objects/Instruments/violin.png",2,"right","",NA,0,0,0
"12",59,12,0.1,"stim/21.jpeg",2,1,3,NA,"Instruments",2,"stim/objects/Instruments/tuba2.png",1,"right","left",0.697999954,0,0,0
"13",59,13,0.5,"stim/42.jpeg",4,2,1,NA,"HouseObjects",1,"stim/objects/HouseObjects/spraybottle.png",4,"left","",NA,0,0,0
"14",59,14,0.5,"stim/34.jpeg",3,4,1,NA,"HouseObjects",1,"stim/objects/HouseObjects/scale.png",4,"left","left",0.881000042,1,1,0
"15",59,15,0.5,"stim/31.jpeg",3,1,1,NA,"Instruments",2,"stim/objects/Instruments/record_player.png",1,"right","left",0.648000002,0,0,0
"16",59,16,0.3,"stim/61.jpeg",6,1,2,NA,"Instruments",2,"stim/objects/Instruments/record_player2.png",1,"right","left",0.825999975,0,0,0
"17",59,17,0.3,"stim/62.jpeg",6,2,2,NA,"Instruments",2,"stim/objects/Instruments/saxophone2.png",4,"right","left",0.70600009,0,0,0
"18",59,18,0.5,"stim/41.jpeg",4,1,1,NA,"HouseObjects",1,"stim/objects/HouseObjects/sponge.png",4,"left","left",0.690000057,1,1,0
"19",59,19,0.9,"stim/24.jpeg",2,4,3,NA,"HouseObjects",1,"stim/objects/HouseObjects/wateringcan2.png",1,"left","left",0.611000061,1,1,0
"20",59,20,0.9,"stim/22.jpeg",2,2,3,NA,"HouseObjects",1,"stim/objects/HouseObjects/towel2.png",2,"left","left",0.614000082,1,1,0
"21",59,21,0.7,"stim/52.jpeg",5,2,2,NA,"Instruments",2,"stim/objects/Instruments/violin.png",4,"right","",NA,0,0,0
"22",59,22,0.5,"stim/41.jpeg",4,1,1,NA,"HouseObjects",1,"stim/objects/HouseObjects/sponge.png",3,"left","left",0.838999987,1,1,0
"23",59,23,0.5,"stim/32.jpeg",3,2,1,NA,"HouseObjects",1,"stim/objects/HouseObjects/safetypin.png",3,"left","left",0.72300005,1,1,0
"24",59,24,0.7,"stim/51.jpeg",5,1,2,NA,"Instruments",2,"stim/objects/Instruments/tuba.png",1,"right","right",0.714999914,1,1,0
"25",59,25,0.5,"stim/44.jpeg",4,4,1,NA,"Instruments",2,"stim/objects/Instruments/trumpet.png",3,"right","left",0.763999939,0,0,0
"26",59,26,0.9,"stim/14.jpeg",1,4,3,NA,"Instruments",2,"stim/objects/Instruments/trumpet2.png",3,"right","right",0.774999857,1,1,0
"27",59,27,0.9,"stim/21.jpeg",2,1,3,NA,"HouseObjects",1,"stim/objects/HouseObjects/thread2.png",2,"left","left",0.542999983,1,1,0
"28",59,28,0.5,"stim/34.jpeg",3,4,1,NA,"HouseObjects",1,"stim/objects/HouseObjects/scale.png",2,"left","left",0.630000114,1,1,0
"29",59,29,0.9,"stim/23.jpeg",2,3,3,NA,"HouseObjects",1,"stim/objects/HouseObjects/vacuumcleaner2.png",3,"left","left",0.562000036,1,1,0
"30",59,30,0.7,"stim/54.jpeg",5,4,2,NA,"Instruments",2,"stim/objects/Instruments/xylophone.png",1,"right","right",0.612999916,1,1,0
"31",59,31,0.7,"stim/63.jpeg",6,3,2,NA,"HouseObjects",1,"stim/objects/HouseObjects/saw2.png",3,"left","left",0.551000118,1,1,0
"32",59,32,0.5,"stim/43.jpeg",4,3,1,NA,"Instruments",2,"stim/objects/Instruments/trombone.png",3,"right","left",0.726999998,0,0,0
"33",59,33,0.7,"stim/51.jpeg",5,1,2,NA,"Instruments",2,"stim/objects/Instruments/tuba.png",1,"right","left",0.770999908,0,0,0
"34",59,34,0.7,"stim/61.jpeg",6,1,2,NA,"HouseObjects",1,"stim/objects/HouseObjects/rug2.png",1,"left","left",0.713999987,1,1,0
"35",59,35,0.7,"stim/63.jpeg",6,3,2,NA,"HouseObjects",1,"stim/objects/HouseObjects/saw2.png",4,"left","left",0.604000092,1,1,0
"36",59,36,0.5,"stim/32.jpeg",3,2,1,NA,"HouseObjects",1,"stim/objects/HouseObjects/safetypin.png",4,"left","right",0.713999987,0,0,0
"37",59,37,0.9,"stim/11.jpeg",1,1,3,NA,"Instruments",2,"stim/objects/Instruments/timbal2.png",4,"right","right",0.657999992,1,1,0
"38",59,38,0.1,"stim/12.jpeg",1,2,3,NA,"HouseObjects",1,"stim/objects/HouseObjects/spraybottle2.png",3,"left","right",0.805000067,0,0,0
"39",59,39,0.7,"stim/62.jpeg",6,2,2,NA,"HouseObjects",1,"stim/objects/HouseObjects/safetypin2.png",2,"left","left",0.593999863,1,1,0
"40",59,40,0.3,"stim/63.jpeg",6,3,2,NA,"Instruments",2,"stim/objects/Instruments/speaker2.png",1,"right","left",0.661999941,0,0,0
"41",59,41,0.7,"stim/63.jpeg",6,3,2,NA,"HouseObjects",1,"stim/objects/HouseObjects/saw2.png",4,"left","left",0.611000061,1,1,0
"42",59,42,0.1,"stim/24.jpeg",2,4,3,NA,"Instruments",2,"stim/objects/Instruments/xylophone2.png",3,"right","left",0.667999983,0,0,0
"43",59,43,0.5,"stim/43.jpeg",4,3,1,NA,"Instruments",2,"stim/objects/Instruments/trombone.png",4,"right","left",0.742999792,0,0,0
"44",59,44,0.5,"stim/33.jpeg",3,3,1,NA,"HouseObjects",1,"stim/objects/HouseObjects/saw.png",1,"left","",NA,0,0,0
"45",59,45,0.9,"stim/12.jpeg",1,2,3,NA,"Instruments",2,"stim/objects/Instruments/triangle2.png",1,"right","right",0.862999916,1,1,0
"46",59,46,0.9,"stim/12.jpeg",1,2,3,NA,"Instruments",2,"stim/objects/Instruments/triangle2.png",1,"right","right",0.631000042,1,1,0
"47",59,47,0.7,"stim/52.jpeg",5,2,2,NA,"Instruments",2,"stim/objects/Instruments/violin.png",4,"right","",NA,0,0,0
"48",59,48,0.7,"stim/63.jpeg",6,3,2,NA,"HouseObjects",1,"stim/objects/HouseObjects/saw2.png",3,"left","left",0.578999996,1,1,0
"49",59,49,0.3,"stim/51.jpeg",5,1,2,NA,"HouseObjects",1,"stim/objects/HouseObjects/thread.png",1,"left","right",0.619000196,0,0,0
"50",59,50,0.7,"stim/62.jpeg",6,2,2,NA,"HouseObjects",1,"stim/objects/HouseObjects/safetypin2.png",3,"left","left",0.510999918,1,1,0
"51",59,51,0.3,"stim/62.jpeg",6,2,2,NA,"Instruments",2,"stim/objects/Instruments/saxophone2.png",3,"right","left",0.520999908,0,0,0
"52",59,52,0.9,"stim/22.jpeg",2,2,3,NA,"HouseObjects",1,"stim/objects/HouseObjects/towel2.png",4,"left","left",0.842999935,1,1,0
"53",59,53,0.9,"stim/11.jpeg",1,1,3,NA,"Instruments",2,"stim/objects/Instruments/timbal2.png",4,"right","right",0.59100008,1,1,0
"54",59,54,0.7,"stim/53.jpeg",5,3,2,NA,"Instruments",2,"stim/objects/Instruments/vuvuzela.png",1,"right","left",0.826999903,0,0,0
"55",59,55,0.7,"stim/61.jpeg",6,1,2,NA,"HouseObjects",1,"stim/objects/HouseObjects/rug2.png",2,"left","left",0.537999868,1,1,0
"56",59,56,0.5,"stim/44.jpeg",4,4,1,NA,"Instruments",2,"stim/objects/Instruments/trumpet.png",1,"right","right",0.607000113,1,1,0
"57",59,57,0.5,"stim/33.jpeg",3,3,1,NA,"HouseObjects",1,"stim/objects/HouseObjects/saw.png",3,"left","left",0.585000038,1,1,0
"58",59,58,0.7,"stim/53.jpeg",5,3,2,NA,"Instruments",2,"stim/objects/Instruments/vuvuzela.png",1,"right","right",0.59499979,1,1,0
"59",59,59,0.5,"stim/43.jpeg",4,3,1,NA,"Instruments",2,"stim/objects/Instruments/trombone.png",3,"right","right",0.708999872,1,1,0
"60",59,60,0.9,"stim/23.jpeg",2,3,3,NA,"HouseObjects",1,"stim/objects/HouseObjects/vacuumcleaner2.png",3,"left","left",0.400000095,1,1,0
"61",59,61,0.9,"stim/11.jpeg",1,1,3,NA,"Instruments",2,"stim/objects/Instruments/timbal2.png",1,"right","right",0.566999912,1,1,0
"62",59,62,0.3,"stim/54.jpeg",5,4,2,NA,"HouseObjects",1,"stim/objects/HouseObjects/wateringcan.png",3,"left","",NA,0,0,0
"63",59,63,0.3,"stim/64.jpeg",6,4,2,NA,"Instruments",2,"stim/objects/Instruments/tambourine2.png",1,"right","left",0.447000027,0,0,0
"64",59,64,0.7,"stim/54.jpeg",5,4,2,NA,"Instruments",2,"stim/objects/Instruments/xylophone.png",2,"right","right",0.763999939,1,1,0
"65",59,65,0.5,"stim/41.jpeg",4,1,1,NA,"HouseObjects",1,"stim/objects/HouseObjects/sponge.png",2,"left","",NA,0,0,0
"66",59,66,0.7,"stim/51.jpeg",5,1,2,NA,"Instruments",2,"stim/objects/Instruments/tuba.png",3,"right","left",0.746000051,0,0,0
"67",59,67,0.5,"stim/31.jpeg",3,1,1,NA,"Instruments",2,"stim/objects/Instruments/record_player.png",2,"right","left",0.579999924,0,0,0
"68",59,68,0.3,"stim/63.jpeg",6,3,2,NA,"Instruments",2,"stim/objects/Instruments/speaker2.png",4,"right","left",0.595999956,0,0,0
"69",59,69,0.5,"stim/32.jpeg",3,2,1,NA,"Instruments",2,"stim/objects/Instruments/saxophone.png",1,"right","left",0.68200016,0,0,0
"70",59,70,0.9,"stim/13.jpeg",1,3,3,NA,"Instruments",2,"stim/objects/Instruments/trombone2.png",2,"right","right",0.653999805,1,1,0
"71",59,71,0.9,"stim/21.jpeg",2,1,3,NA,"HouseObjects",1,"stim/objects/HouseObjects/thread2.png",1,"left","left",0.430999994,1,1,0
"72",59,72,0.3,"stim/62.jpeg",6,2,2,NA,"Instruments",2,"stim/objects/Instruments/saxophone2.png",4,"right","left",0.614000082,0,0,0
"73",59,73,0.7,"stim/52.jpeg",5,2,2,NA,"Instruments",2,"stim/objects/Instruments/violin.png",3,"right","right",0.614000082,1,1,0
"74",59,74,0.7,"stim/53.jpeg",5,3,2,NA,"Instruments",2,"stim/objects/Instruments/vuvuzela.png",4,"right","right",0.655999899,1,1,0
"75",59,75,0.9,"stim/11.jpeg",1,1,3,NA,"Instruments",2,"stim/objects/Instruments/timbal2.png",1,"right","right",0.67599988,1,1,0
"76",59,76,0.5,"stim/31.jpeg",3,1,1,NA,"Instruments",2,"stim/objects/Instruments/record_player.png",1,"right","left",0.523000002,0,0,0
"77",59,77,0.5,"stim/41.jpeg",4,1,1,NA,"Instruments",2,"stim/objects/Instruments/timbal.png",2,"right","right",0.845000029,1,1,0
"78",59,78,0.9,"stim/23.jpeg",2,3,3,NA,"HouseObjects",1,"stim/objects/HouseObjects/vacuumcleaner2.png",4,"left","left",0.492000103,1,1,0
"79",59,79,0.9,"stim/12.jpeg",1,2,3,NA,"Instruments",2,"stim/objects/Instruments/triangle2.png",1,"right","right",0.562000036,1,1,0
"80",59,80,0.9,"stim/13.jpeg",1,3,3,NA,"Instruments",2,"stim/objects/Instruments/trombone2.png",3,"right","right",0.611999989,1,1,0
"81",59,81,0.7,"stim/62.jpeg",6,2,2,NA,"HouseObjects",1,"stim/objects/HouseObjects/safetypin2.png",2,"left","left",0.582999945,1,1,0
"82",59,82,0.9,"stim/21.jpeg",2,1,3,NA,"HouseObjects",1,"stim/objects/HouseObjects/thread2.png",4,"left","left",0.634000063,1,1,0
"83",59,83,0.7,"stim/54.jpeg",5,4,2,NA,"Instruments",2,"stim/objects/Instruments/xylophone.png",1,"right","right",0.689999819,1,1,0
"84",59,84,0.5,"stim/32.jpeg",3,2,1,NA,"Instruments",2,"stim/objects/Instruments/saxophone.png",1,"right","left",0.596999884,0,0,0
"85",59,85,0.3,"stim/64.jpeg",6,4,2,NA,"Instruments",2,"stim/objects/Instruments/tambourine2.png",4,"right","left",0.519000053,0,0,0
"86",59,86,0.1,"stim/11.jpeg",1,1,3,NA,"HouseObjects",1,"stim/objects/HouseObjects/sponge2.png",2,"left","right",0.58100009,0,0,0
"87",59,87,0.5,"stim/42.jpeg",4,2,1,NA,"Instruments",2,"stim/objects/Instruments/triangle.png",1,"right","right",0.765000105,1,1,0
"88",59,88,0.7,"stim/64.jpeg",6,4,2,NA,"HouseObjects",1,"stim/objects/HouseObjects/scale2.png",2,"left","right",0.717000008,0,0,0
"89",59,89,0.1,"stim/13.jpeg",1,3,3,NA,"HouseObjects",1,"stim/objects/HouseObjects/teapot2.png",1,"left","left",0.475000143,1,1,0
"90",59,90,0.7,"stim/61.jpeg",6,1,2,NA,"HouseObjects",1,"stim/objects/HouseObjects/rug2.png",2,"left","right",0.631000042,0,0,0
"91",59,91,0.7,"stim/52.jpeg",5,2,2,NA,"Instruments",2,"stim/objects/Instruments/violin.png",2,"right","right",0.585000038,1,1,0
"92",59,92,0.3,"stim/64.jpeg",6,4,2,NA,"Instruments",2,"stim/objects/Instruments/tambourine2.png",3,"right","left",0.599000216,0,0,0
"93",59,93,0.9,"stim/22.jpeg",2,2,3,NA,"HouseObjects",1,"stim/objects/HouseObjects/towel2.png",3,"left","left",0.697999954,1,1,0
"94",59,94,0.5,"stim/31.jpeg",3,1,1,NA,"Instruments",2,"stim/objects/Instruments/record_player.png",1,"right","right",0.825999975,1,1,0
"95",59,95,0.7,"stim/63.jpeg",6,3,2,NA,"HouseObjects",1,"stim/objects/HouseObjects/saw2.png",2,"left","left",0.583999872,1,1,0
"96",59,96,0.5,"stim/33.jpeg",3,3,1,NA,"Instruments",2,"stim/objects/Instruments/speaker.png",1,"right","left",0.645999908,0,0,0
"97",59,97,0.5,"stim/42.jpeg",4,2,1,NA,"HouseObjects",1,"stim/objects/HouseObjects/spraybottle.png",4,"left","right",0.936000109,0,0,0
"98",59,98,0.5,"stim/34.jpeg",3,4,1,NA,"HouseObjects",1,"stim/objects/HouseObjects/scale.png",3,"left","left",0.592000008,1,1,0
"99",59,99,0.7,"stim/51.jpeg",5,1,2,NA,"Instruments",2,"stim/objects/Instruments/tuba.png",2,"right","right",0.528999805,1,1,0
"100",59,100,0.5,"stim/43.jpeg",4,3,1,NA,"HouseObjects",1,"stim/objects/HouseObjects/teapot.png",4,"left","right",0.715000153,0,0,0
"101",59,101,0.9,"stim/24.jpeg",2,4,3,NA,"HouseObjects",1,"stim/objects/HouseObjects/wateringcan2.png",2,"left","left",0.576999903,1,1,0
"102",59,102,0.7,"stim/64.jpeg",6,4,2,NA,"HouseObjects",1,"stim/objects/HouseObjects/scale2.png",4,"left","left",0.71600008,1,1,0
"103",59,103,0.5,"stim/32.jpeg",3,2,1,NA,"HouseObjects",1,"stim/objects/HouseObjects/safetypin.png",3,"left","left",0.729000092,1,1,0
"104",59,104,0.5,"stim/31.jpeg",3,1,1,NA,"HouseObjects",1,"stim/objects/HouseObjects/rug.png",2,"left","left",0.525000095,1,1,0
"105",59,105,0.5,"stim/44.jpeg",4,4,1,NA,"HouseObjects",1,"stim/objects/HouseObjects/thermometer.png",3,"left","left",0.663000107,1,1,0
"106",59,106,0.9,"stim/14.jpeg",1,4,3,NA,"Instruments",2,"stim/objects/Instruments/trumpet2.png",2,"right","right",0.696000099,1,1,0
"107",59,107,0.5,"stim/42.jpeg",4,2,1,NA,"Instruments",2,"stim/objects/Instruments/triangle.png",1,"right","left",0.463999987,0,0,0
"108",59,108,0.7,"stim/53.jpeg",5,3,2,NA,"Instruments",2,"stim/objects/Instruments/vuvuzela.png",1,"right","right",0.529000044,1,1,0
"109",59,109,0.7,"stim/53.jpeg",5,3,2,NA,"Instruments",2,"stim/objects/Instruments/vuvuzela.png",2,"right","right",0.526000023,1,1,0
"110",59,110,0.7,"stim/64.jpeg",6,4,2,NA,"HouseObjects",1,"stim/objects/HouseObjects/scale2.png",4,"left","left",0.581999779,1,1,0
"111",59,111,0.9,"stim/23.jpeg",2,3,3,NA,"HouseObjects",1,"stim/objects/HouseObjects/vacuumcleaner2.png",2,"left","left",0.582999945,1,1,0
"112",59,112,0.5,"stim/32.jpeg",3,2,1,NA,"HouseObjects",1,"stim/objects/HouseObjects/safetypin.png",1,"left","left",0.680999994,1,1,0
"113",59,113,0.3,"stim/54.jpeg",5,4,2,NA,"HouseObjects",1,"stim/objects/HouseObjects/wateringcan.png",2,"left","right",0.697000027,0,0,0
"114",59,114,0.7,"stim/62.jpeg",6,2,2,NA,"HouseObjects",1,"stim/objects/HouseObjects/safetypin2.png",1,"left","left",0.603000164,1,1,0
"115",59,115,0.9,"stim/22.jpeg",2,2,3,NA,"HouseObjects",1,"stim/objects/HouseObjects/towel2.png",1,"left","left",0.483999968,1,1,0
"116",59,116,0.9,"stim/21.jpeg",2,1,3,NA,"HouseObjects",1,"stim/objects/HouseObjects/thread2.png",4,"left","left",0.578000069,1,1,0
"117",59,117,0.5,"stim/31.jpeg",3,1,1,NA,"HouseObjects",1,"stim/objects/HouseObjects/rug.png",2,"left","left",0.671000004,1,1,0
"118",59,118,0.9,"stim/11.jpeg",1,1,3,NA,"Instruments",2,"stim/objects/Instruments/timbal2.png",2,"right","right",0.631999969,1,1,0
"119",59,119,0.1,"stim/23.jpeg",2,3,3,NA,"Instruments",2,"stim/objects/Instruments/vuvuzela2.png",2,"right","left",0.592999935,0,0,0
"120",59,120,0.9,"stim/13.jpeg",1,3,3,NA,"Instruments",2,"stim/objects/Instruments/trombone2.png",2,"right","right",0.437999964,1,1,0
"121",59,121,0.5,"stim/43.jpeg",4,3,1,NA,"HouseObjects",1,"stim/objects/HouseObjects/teapot.png",2,"left","left",0.832000017,1,1,0
"122",59,122,0.7,"stim/61.jpeg",6,1,2,NA,"HouseObjects",1,"stim/objects/HouseObjects/rug2.png",3,"left","left",0.61500001,1,1,0
"123",59,123,0.3,"stim/52.jpeg",5,2,2,NA,"HouseObjects",1,"stim/objects/HouseObjects/towel.png",4,"left","right",0.567000151,0,0,0
"124",59,124,0.1,"stim/14.jpeg",1,4,3,NA,"HouseObjects",1,"stim/objects/HouseObjects/thermometer2.png",3,"left","right",0.688000202,0,0,0
"125",59,125,0.9,"stim/11.jpeg",1,1,3,NA,"Instruments",2,"stim/objects/Instruments/timbal2.png",1,"right","right",0.498000145,1,1,0
"126",59,126,0.9,"stim/14.jpeg",1,4,3,NA,"Instruments",2,"stim/objects/Instruments/trumpet2.png",1,"right","right",0.430999994,1,1,0
"127",59,127,0.9,"stim/24.jpeg",2,4,3,NA,"HouseObjects",1,"stim/objects/HouseObjects/wateringcan2.png",4,"left","left",0.506000042,1,1,0
"128",59,128,0.9,"stim/11.jpeg",1,1,3,NA,"Instruments",2,"stim/objects/Instruments/timbal2.png",2,"right","right",0.559999943,1,1,0
"129",59,129,0.9,"stim/14.jpeg",1,4,3,NA,"Instruments",2,"stim/objects/Instruments/trumpet2.png",3,"right","right",0.54700017,1,1,0
"130",59,130,0.5,"stim/44.jpeg",4,4,1,NA,"HouseObjects",1,"stim/objects/HouseObjects/thermometer.png",2,"left","left",0.765000105,1,1,0
"131",59,131,0.7,"stim/64.jpeg",6,4,2,NA,"HouseObjects",1,"stim/objects/HouseObjects/scale2.png",3,"left","left",0.617000103,1,1,0
"132",59,132,0.7,"stim/53.jpeg",5,3,2,NA,"Instruments",2,"stim/objects/Instruments/vuvuzela.png",2,"right","right",0.59800005,1,1,0
"133",59,133,0.5,"stim/42.jpeg",4,2,1,NA,"HouseObjects",1,"stim/objects/HouseObjects/spraybottle.png",4,"left","left",0.644000053,1,1,0
"134",59,134,0.5,"stim/32.jpeg",3,2,1,NA,"HouseObjects",1,"stim/objects/HouseObjects/safetypin.png",4,"left","left",0.580999851,1,1,0
"135",59,135,0.5,"stim/31.jpeg",3,1,1,NA,"HouseObjects",1,"stim/objects/HouseObjects/rug.png",3,"left","left",0.499000072,1,1,0
"136",59,136,0.3,"stim/51.jpeg",5,1,2,NA,"HouseObjects",1,"stim/objects/HouseObjects/thread.png",4,"left","left",0.845999956,1,1,0
"137",59,137,0.7,"stim/51.jpeg",5,1,2,NA,"Instruments",2,"stim/objects/Instruments/tuba.png",2,"right","right",0.530999899,1,1,0
"138",59,138,0.5,"stim/33.jpeg",3,3,1,NA,"Instruments",2,"stim/objects/Instruments/speaker.png",2,"right","left",0.631000042,0,0,0
"139",59,139,0.7,"stim/51.jpeg",5,1,2,NA,"Instruments",2,"stim/objects/Instruments/tuba.png",1,"right","right",0.700000048,1,1,0
"140",59,140,0.5,"stim/42.jpeg",4,2,1,NA,"HouseObjects",1,"stim/objects/HouseObjects/spraybottle.png",2,"left","left",0.601000071,1,1,0
"141",59,141,0.7,"stim/63.jpeg",6,3,2,NA,"HouseObjects",1,"stim/objects/HouseObjects/saw2.png",3,"left","left",0.575999975,1,1,0
"142",59,142,0.3,"stim/61.jpeg",6,1,2,NA,"Instruments",2,"stim/objects/Instruments/record_player2.png",3,"right","left",0.496999979,0,0,0
"143",59,143,0.5,"stim/41.jpeg",4,1,1,NA,"HouseObjects",1,"stim/objects/HouseObjects/sponge.png",3,"left","left",0.694000006,1,1,0
"144",59,144,0.9,"stim/21.jpeg",2,1,3,NA,"HouseObjects",1,"stim/objects/HouseObjects/thread2.png",2,"left","right",0.515999794,0,0,0
"145",59,145,0.3,"stim/61.jpeg",6,1,2,NA,"Instruments",2,"stim/objects/Instruments/record_player2.png",1,"right","left",0.638000011,0,0,0
"146",59,146,0.9,"stim/12.jpeg",1,2,3,NA,"Instruments",2,"stim/objects/Instruments/triangle2.png",4,"right","right",0.726000071,1,1,0
"147",59,147,0.5,"stim/32.jpeg",3,2,1,NA,"Instruments",2,"stim/objects/Instruments/saxophone.png",3,"right","left",0.677000046,0,0,0
"148",59,148,0.9,"stim/12.jpeg",1,2,3,NA,"Instruments",2,"stim/objects/Instruments/triangle2.png",3,"right","right",0.598999977,1,1,0
"149",59,149,0.7,"stim/54.jpeg",5,4,2,NA,"Instruments",2,"stim/objects/Instruments/xylophone.png",4,"right","left",0.532999992,0,0,0
"150",59,150,0.5,"stim/44.jpeg",4,4,1,NA,"HouseObjects",1,"stim/objects/HouseObjects/thermometer.png",2,"left","left",0.701999903,1,1,0
"151",59,151,0.5,"stim/42.jpeg",4,2,1,NA,"Instruments",2,"stim/objects/Instruments/triangle.png",3,"right","left",0.546999931,0,0,0
"152",59,152,0.9,"stim/22.jpeg",2,2,3,NA,"HouseObjects",1,"stim/objects/HouseObjects/towel2.png",4,"left","left",0.560000181,1,1,0
"153",59,153,0.5,"stim/32.jpeg",3,2,1,NA,"Instruments",2,"stim/objects/Instruments/saxophone.png",1,"right","left",0.613999844,0,0,0
"154",59,154,0.9,"stim/13.jpeg",1,3,3,NA,"Instruments",2,"stim/objects/Instruments/trombone2.png",4,"right","right",0.697999954,1,1,0
"155",59,155,0.9,"stim/21.jpeg",2,1,3,NA,"HouseObjects",1,"stim/objects/HouseObjects/thread2.png",4,"left","left",0.549999952,1,1,0
"156",59,156,0.5,"stim/44.jpeg",4,4,1,NA,"Instruments",2,"stim/objects/Instruments/trumpet.png",4,"right","left",0.860000134,0,0,0
"157",59,157,0.9,"stim/14.jpeg",1,4,3,NA,"Instruments",2,"stim/objects/Instruments/trumpet2.png",3,"right","left",0.557999849,0,0,0
"158",59,158,0.7,"stim/54.jpeg",5,4,2,NA,"Instruments",2,"stim/objects/Instruments/xylophone.png",1,"right","right",0.642999887,1,1,0
"159",59,159,0.9,"stim/11.jpeg",1,1,3,NA,"Instruments",2,"stim/objects/Instruments/timbal2.png",1,"right","right",0.935000181,1,1,0
"160",59,160,0.5,"stim/34.jpeg",3,4,1,NA,"Instruments",2,"stim/objects/Instruments/tambourine.png",1,"right","left",0.531000137,0,0,0
"161",59,161,0.5,"stim/33.jpeg",3,3,1,NA,"HouseObjects",1,"stim/objects/HouseObjects/saw.png",2,"left","right",0.851999998,0,0,0
"162",59,162,0.5,"stim/33.jpeg",3,3,1,NA,"Instruments",2,"stim/objects/Instruments/speaker.png",1,"right","left",0.742000103,0,0,0
"163",59,163,0.5,"stim/42.jpeg",4,2,1,NA,"HouseObjects",1,"stim/objects/HouseObjects/spraybottle.png",4,"left","left",0.611999989,1,1,0
"164",59,164,0.9,"stim/24.jpeg",2,4,3,NA,"HouseObjects",1,"stim/objects/HouseObjects/wateringcan2.png",3,"left","left",0.536000013,1,1,0
"165",59,165,0.9,"stim/13.jpeg",1,3,3,NA,"Instruments",2,"stim/objects/Instruments/trombone2.png",4,"right","right",0.832999945,1,1,0
"166",59,166,0.3,"stim/52.jpeg",5,2,2,NA,"HouseObjects",1,"stim/objects/HouseObjects/towel.png",2,"left","right",0.763000011,0,0,0
"167",59,167,0.5,"stim/43.jpeg",4,3,1,NA,"HouseObjects",1,"stim/objects/HouseObjects/teapot.png",4,"left","left",0.711999893,1,1,0
"168",59,168,0.5,"stim/34.jpeg",3,4,1,NA,"HouseObjects",1,"stim/objects/HouseObjects/scale.png",3,"left","left",0.611000061,1,1,0
"169",59,169,0.7,"stim/61.jpeg",6,1,2,NA,"HouseObjects",1,"stim/objects/HouseObjects/rug2.png",1,"left","left",0.612999916,1,1,0
"170",59,170,0.5,"stim/44.jpeg",4,4,1,NA,"Instruments",2,"stim/objects/Instruments/trumpet.png",3,"right","left",0.562999964,0,0,0
"171",59,171,0.5,"stim/31.jpeg",3,1,1,NA,"Instruments",2,"stim/objects/Instruments/record_player.png",4,"right","left",0.887000084,0,0,0
"172",59,172,0.9,"stim/12.jpeg",1,2,3,NA,"Instruments",2,"stim/objects/Instruments/triangle2.png",2,"right","right",0.763000011,1,1,0
"173",59,173,0.3,"stim/54.jpeg",5,4,2,NA,"HouseObjects",1,"stim/objects/HouseObjects/wateringcan.png",2,"left","right",0.721999884,0,0,0
"174",59,174,0.5,"stim/43.jpeg",4,3,1,NA,"HouseObjects",1,"stim/objects/HouseObjects/teapot.png",2,"left","left",0.829999924,1,1,0
"175",59,175,0.9,"stim/24.jpeg",2,4,3,NA,"HouseObjects",1,"stim/objects/HouseObjects/wateringcan2.png",3,"left","left",0.513000011,1,1,0
"176",59,176,0.5,"stim/41.jpeg",4,1,1,NA,"Instruments",2,"stim/objects/Instruments/timbal.png",2,"right","left",0.645999908,0,0,0
"177",59,177,0.3,"stim/53.jpeg",5,3,2,NA,"HouseObjects",1,"stim/objects/HouseObjects/vacuumcleaner.png",4,"left","right",0.65199995,0,0,0
"178",59,178,0.7,"stim/62.jpeg",6,2,2,NA,"HouseObjects",1,"stim/objects/HouseObjects/safetypin2.png",3,"left","left",0.648999929,1,1,0
"179",59,179,0.7,"stim/54.jpeg",5,4,2,NA,"Instruments",2,"stim/objects/Instruments/xylophone.png",1,"right","right",0.855999947,1,1,0
"180",59,180,0.7,"stim/52.jpeg",5,2,2,NA,"Instruments",2,"stim/objects/Instruments/violin.png",2,"right","right",0.626000166,1,1,0
"181",59,181,0.5,"stim/41.jpeg",4,1,1,NA,"Instruments",2,"stim/objects/Instruments/timbal.png",1,"right","left",0.812999964,0,0,0
"182",59,182,0.5,"stim/33.jpeg",3,3,1,NA,"Instruments",2,"stim/objects/Instruments/speaker.png",3,"right","left",0.725000143,0,0,0
"183",59,183,0.9,"stim/14.jpeg",1,4,3,NA,"Instruments",2,"stim/objects/Instruments/trumpet2.png",2,"right","right",0.628999949,1,1,0
"184",59,184,0.5,"stim/41.jpeg",4,1,1,NA,"Instruments",2,"stim/objects/Instruments/timbal.png",4,"right","left",0.763999939,0,0,0
"185",59,185,0.9,"stim/13.jpeg",1,3,3,NA,"Instruments",2,"stim/objects/Instruments/trombone2.png",3,"right","right",0.74000001,1,1,0
"186",59,186,0.7,"stim/54.jpeg",5,4,2,NA,"Instruments",2,"stim/objects/Instruments/xylophone.png",3,"right","right",0.6650002,1,1,0
"187",59,187,0.9,"stim/12.jpeg",1,2,3,NA,"Instruments",2,"stim/objects/Instruments/triangle2.png",3,"right","right",0.521000147,1,1,0
"188",59,188,0.9,"stim/21.jpeg",2,1,3,NA,"HouseObjects",1,"stim/objects/HouseObjects/thread2.png",2,"left","left",0.609999895,1,1,0
"189",59,189,0.9,"stim/24.jpeg",2,4,3,NA,"HouseObjects",1,"stim/objects/HouseObjects/wateringcan2.png",4,"left","left",0.483999968,1,1,0
"190",59,190,0.9,"stim/21.jpeg",2,1,3,NA,"HouseObjects",1,"stim/objects/HouseObjects/thread2.png",4,"left","left",0.475000143,1,1,0
"191",59,191,0.5,"stim/33.jpeg",3,3,1,NA,"HouseObjects",1,"stim/objects/HouseObjects/saw.png",1,"left","left",0.696999788,1,1,0
"192",59,192,0.9,"stim/24.jpeg",2,4,3,NA,"HouseObjects",1,"stim/objects/HouseObjects/wateringcan2.png",4,"left","left",0.599999905,1,1,0
"193",59,193,0.5,"stim/43.jpeg",4,3,1,NA,"Instruments",2,"stim/objects/Instruments/trombone.png",4,"right","right",0.662000179,1,1,0
"194",59,194,0.9,"stim/22.jpeg",2,2,3,NA,"HouseObjects",1,"stim/objects/HouseObjects/towel2.png",2,"left","left",0.565000057,1,1,0
"195",59,195,0.9,"stim/13.jpeg",1,3,3,NA,"Instruments",2,"stim/objects/Instruments/trombone2.png",2,"right","right",0.570999861,1,1,0
"196",59,196,0.5,"stim/31.jpeg",3,1,1,NA,"HouseObjects",1,"stim/objects/HouseObjects/rug.png",3,"left","left",0.52699995,1,1,0
"197",59,197,0.9,"stim/21.jpeg",2,1,3,NA,"HouseObjects",1,"stim/objects/HouseObjects/thread2.png",1,"left","left",0.548000097,1,1,0
"198",59,198,0.5,"stim/33.jpeg",3,3,1,NA,"Instruments",2,"stim/objects/Instruments/speaker.png",3,"right","left",0.595000029,0,0,0
"199",59,199,0.5,"stim/33.jpeg",3,3,1,NA,"HouseObjects",1,"stim/objects/HouseObjects/saw.png",3,"left","left",0.849999905,1,1,0
"200",59,200,0.1,"stim/22.jpeg",2,2,3,NA,"Instruments",2,"stim/objects/Instruments/violin2.png",4,"right","left",0.554000139,0,0,0
"201",59,201,0.7,"stim/64.jpeg",6,4,2,NA,"HouseObjects",1,"stim/objects/HouseObjects/scale2.png",2,"left","left",0.652000189,1,1,0
"202",59,202,0.3,"stim/53.jpeg",5,3,2,NA,"HouseObjects",1,"stim/objects/HouseObjects/vacuumcleaner.png",3,"left","left",0.496000051,1,1,0
"203",59,203,0.5,"stim/31.jpeg",3,1,1,NA,"HouseObjects",1,"stim/objects/HouseObjects/rug.png",1,"left","left",0.582000017,1,1,0
"204",59,204,0.9,"stim/11.jpeg",1,1,3,NA,"Instruments",2,"stim/objects/Instruments/timbal2.png",1,"right","left",0.5849998,0,0,0
"205",59,205,0.5,"stim/42.jpeg",4,2,1,NA,"Instruments",2,"stim/objects/Instruments/triangle.png",2,"right","left",0.921000004,0,0,0
"206",59,206,0.5,"stim/44.jpeg",4,4,1,NA,"HouseObjects",1,"stim/objects/HouseObjects/thermometer.png",3,"left","left",0.809999943,1,1,0
"207",59,207,0.7,"stim/62.jpeg",6,2,2,NA,"HouseObjects",1,"stim/objects/HouseObjects/safetypin2.png",1,"left","left",0.616000175,1,1,0
"208",59,208,0.9,"stim/24.jpeg",2,4,3,NA,"HouseObjects",1,"stim/objects/HouseObjects/wateringcan2.png",2,"left","left",0.569999933,1,1,0
"209",59,209,0.9,"stim/23.jpeg",2,3,3,NA,"HouseObjects",1,"stim/objects/HouseObjects/vacuumcleaner2.png",1,"left","left",0.684000015,1,1,0
"210",59,210,0.7,"stim/63.jpeg",6,3,2,NA,"HouseObjects",1,"stim/objects/HouseObjects/saw2.png",4,"left","left",0.565000057,1,1,0
"211",59,211,0.7,"stim/61.jpeg",6,1,2,NA,"HouseObjects",1,"stim/objects/HouseObjects/rug2.png",3,"left","right",0.678999901,0,0,0
"212",59,212,0.9,"stim/13.jpeg",1,3,3,NA,"Instruments",2,"stim/objects/Instruments/trombone2.png",3,"right","right",0.559999943,1,1,0
"213",59,213,0.7,"stim/52.jpeg",5,2,2,NA,"Instruments",2,"stim/objects/Instruments/violin.png",3,"right","right",0.75,1,1,0
"214",59,214,0.7,"stim/62.jpeg",6,2,2,NA,"HouseObjects",1,"stim/objects/HouseObjects/safetypin2.png",4,"left","left",0.512000084,1,1,0
"215",59,215,0.9,"stim/12.jpeg",1,2,3,NA,"Instruments",2,"stim/objects/Instruments/triangle2.png",3,"right","right",0.517000198,1,1,0
"216",59,216,0.7,"stim/51.jpeg",5,1,2,NA,"Instruments",2,"stim/objects/Instruments/tuba.png",2,"right","right",0.582000017,1,1,0
"217",59,217,0.3,"stim/52.jpeg",5,2,2,NA,"HouseObjects",1,"stim/objects/HouseObjects/towel.png",1,"left","right",0.640999794,0,0,0
"218",59,218,0.5,"stim/41.jpeg",4,1,1,NA,"Instruments",2,"stim/objects/Instruments/timbal.png",2,"right","right",0.605999947,1,1,0
"219",59,219,0.5,"stim/44.jpeg",4,4,1,NA,"Instruments",2,"stim/objects/Instruments/trumpet.png",2,"right","left",0.58100009,0,0,0
"220",59,220,0.7,"stim/64.jpeg",6,4,2,NA,"HouseObjects",1,"stim/objects/HouseObjects/scale2.png",4,"left","left",0.530999899,1,1,0
"221",59,221,0.5,"stim/34.jpeg",3,4,1,NA,"HouseObjects",1,"stim/objects/HouseObjects/scale.png",2,"left","left",0.568000078,1,1,0
"222",59,222,0.9,"stim/14.jpeg",1,4,3,NA,"Instruments",2,"stim/objects/Instruments/trumpet2.png",1,"right","right",0.545000076,1,1,0
"223",59,223,0.5,"stim/34.jpeg",3,4,1,NA,"Instruments",2,"stim/objects/Instruments/tambourine.png",1,"right","left",0.563000202,0,0,0
"224",59,224,0.5,"stim/43.jpeg",4,3,1,NA,"HouseObjects",1,"stim/objects/HouseObjects/teapot.png",4,"left","left",0.682999849,1,1,0
"225",59,225,0.9,"stim/12.jpeg",1,2,3,NA,"Instruments",2,"stim/objects/Instruments/triangle2.png",1,"right","right",0.523000002,1,1,0
"226",59,226,0.5,"stim/32.jpeg",3,2,1,NA,"Instruments",2,"stim/objects/Instruments/saxophone.png",4,"right","left",0.638999939,0,0,0
"227",59,227,0.7,"stim/53.jpeg",5,3,2,NA,"Instruments",2,"stim/objects/Instruments/vuvuzela.png",4,"right","right",0.510999918,1,1,0
"228",59,228,0.5,"stim/34.jpeg",3,4,1,NA,"Instruments",2,"stim/objects/Instruments/tambourine.png",1,"right","left",0.528000116,0,0,0
"229",59,229,0.5,"stim/34.jpeg",3,4,1,NA,"Instruments",2,"stim/objects/Instruments/tambourine.png",2,"right","left",0.627000093,0,0,0
"230",59,230,0.9,"stim/14.jpeg",1,4,3,NA,"Instruments",2,"stim/objects/Instruments/trumpet2.png",3,"right","left",0.618000031,0,0,0
"231",59,231,0.9,"stim/23.jpeg",2,3,3,NA,"HouseObjects",1,"stim/objects/HouseObjects/vacuumcleaner2.png",4,"left","left",0.518000126,1,1,0
"232",59,232,0.9,"stim/23.jpeg",2,3,3,NA,"HouseObjects",1,"stim/objects/HouseObjects/vacuumcleaner2.png",4,"left","left",0.508999825,1,1,0
"233",59,233,0.5,"stim/42.jpeg",4,2,1,NA,"Instruments",2,"stim/objects/Instruments/triangle.png",2,"right","right",0.625,1,1,0
"234",59,234,0.9,"stim/23.jpeg",2,3,3,NA,"HouseObjects",1,"stim/objects/HouseObjects/vacuumcleaner2.png",1,"left","left",0.430000067,1,1,0
"235",59,235,0.3,"stim/63.jpeg",6,3,2,NA,"Instruments",2,"stim/objects/Instruments/speaker2.png",3,"right","left",0.628000021,0,0,0
"236",59,236,0.9,"stim/14.jpeg",1,4,3,NA,"Instruments",2,"stim/objects/Instruments/trumpet2.png",4,"right","right",0.546000004,1,1,0
"237",59,237,0.7,"stim/61.jpeg",6,1,2,NA,"HouseObjects",1,"stim/objects/HouseObjects/rug2.png",3,"left","left",0.562000036,1,1,0
"238",59,238,0.5,"stim/41.jpeg",4,1,1,NA,"HouseObjects",1,"stim/objects/HouseObjects/sponge.png",4,"left","left",0.697999954,1,1,0
"239",59,239,0.5,"stim/34.jpeg",3,4,1,NA,"Instruments",2,"stim/objects/Instruments/tambourine.png",4,"right","left",0.491999865,0,0,0
"240",59,240,0.7,"stim/64.jpeg",6,4,2,NA,"HouseObjects",1,"stim/objects/HouseObjects/scale2.png",4,"left","left",0.581999779,1,1,0
