"","obj_file","X.x","participant.x","trialN.x","trial_cond","scn_file.x","scn_cat","scn_inst","scn_condition","fillers","obj_cat","obj_cat_num","quadrant","corr_ans","key_resp_trial.keys","key_resp_trial.rt","trial_acc","trial_acc_manual","group.x","practice","X.y","participant.y","OvsN","PE_level","object_cat","scn_file.y","corr_scn_cat","corr_scn_inst","scn_file.1","corr_loc","key_resp_id.keys","key_resp_id.rt","key_resp_conf.keys","key_resp_assoc.keys","key_resp_assoc.rt","key_resp_loc.keys","key_resp_loc.rt","trialN.y","id_acc","assoc.acc","cond_assoc","loc.acc","cond_loc","group.y"
"97","stim/objects/HouseObjects/vacuumcleaner.png",1,59,1,0.3,"stim/53.jpeg",5,3,2,NA,"HouseObjects",1,3,"left","",NA,0,0,0,1,NA,NA,NA,NA,NA,NA,NA,NA,NA,NA,NA,NA,NA,NA,NA,NA,NA,NA,NA,NA,NA,NA,NA,NA
"88","stim/objects/HouseObjects/towel2.png",2,59,2,0.9,"stim/22.jpeg",2,2,3,NA,"HouseObjects",1,2,"left","",NA,0,0,0,1,NA,NA,NA,NA,NA,NA,NA,NA,NA,NA,NA,NA,NA,NA,NA,NA,NA,NA,NA,NA,NA,NA,NA,NA
"112","stim/objects/HouseObjects/wateringcan2.png",3,59,3,0.9,"stim/24.jpeg",2,4,3,NA,"HouseObjects",1,1,"left","left",0.622999907,1,1,0,1,NA,NA,NA,NA,NA,NA,NA,NA,NA,NA,NA,NA,NA,NA,NA,NA,NA,NA,NA,NA,NA,NA,NA,NA
"186","stim/objects/Instruments/trombone2.png",4,59,4,0.9,"stim/13.jpeg",1,3,3,NA,"Instruments",2,2,"right","right",0.641000032,1,1,0,1,NA,NA,NA,NA,NA,NA,NA,NA,NA,NA,NA,NA,NA,NA,NA,NA,NA,NA,NA,NA,NA,NA,NA,NA
"67","stim/objects/HouseObjects/thermometer.png",5,59,5,0.5,"stim/44.jpeg",4,4,1,NA,"HouseObjects",1,1,"left","left",0.779000044,1,1,0,1,NA,NA,NA,NA,NA,NA,NA,NA,NA,NA,NA,NA,NA,NA,NA,NA,NA,NA,NA,NA,NA,NA,NA,NA
"73","stim/objects/HouseObjects/thread.png",6,59,6,0.3,"stim/51.jpeg",5,1,2,NA,"HouseObjects",1,2,"left","",NA,0,0,0,1,NA,NA,NA,NA,NA,NA,NA,NA,NA,NA,NA,NA,NA,NA,NA,NA,NA,NA,NA,NA,NA,NA,NA,NA
"100","stim/objects/HouseObjects/vacuumcleaner2.png",7,59,7,0.9,"stim/23.jpeg",2,3,3,NA,"HouseObjects",1,4,"left","",NA,0,0,0,1,NA,NA,NA,NA,NA,NA,NA,NA,NA,NA,NA,NA,NA,NA,NA,NA,NA,NA,NA,NA,NA,NA,NA,NA
"181","stim/objects/Instruments/trombone.png",8,59,8,0.5,"stim/43.jpeg",4,3,1,NA,"Instruments",2,4,"right","right",0.815999985,1,1,0,1,NA,NA,NA,NA,NA,NA,NA,NA,NA,NA,NA,NA,NA,NA,NA,NA,NA,NA,NA,NA,NA,NA,NA,NA
"89","stim/objects/HouseObjects/towel2.png",9,59,9,0.9,"stim/22.jpeg",2,2,3,NA,"HouseObjects",1,3,"left","",NA,0,0,0,1,NA,NA,NA,NA,NA,NA,NA,NA,NA,NA,NA,NA,NA,NA,NA,NA,NA,NA,NA,NA,NA,NA,NA,NA
"90","stim/objects/HouseObjects/towel2.png",10,59,10,0.9,"stim/22.jpeg",2,2,3,NA,"HouseObjects",1,3,"left","left",0.812000036,1,1,0,1,NA,NA,NA,NA,NA,NA,NA,NA,NA,NA,NA,NA,NA,NA,NA,NA,NA,NA,NA,NA,NA,NA,NA,NA
"217","stim/objects/Instruments/violin.png",11,59,11,0.7,"stim/52.jpeg",5,2,2,NA,"Instruments",2,2,"right","",NA,0,0,0,1,NA,NA,NA,NA,NA,NA,NA,NA,NA,NA,NA,NA,NA,NA,NA,NA,NA,NA,NA,NA,NA,NA,NA,NA
"216","stim/objects/Instruments/tuba2.png",12,59,12,0.1,"stim/21.jpeg",2,1,3,NA,"Instruments",2,1,"right","left",0.697999954,0,0,0,1,NA,NA,NA,NA,NA,NA,NA,NA,NA,NA,NA,NA,NA,NA,NA,NA,NA,NA,NA,NA,NA,NA,NA,NA
"55","stim/objects/HouseObjects/spraybottle.png",13,59,13,0.5,"stim/42.jpeg",4,2,1,NA,"HouseObjects",1,4,"left","",NA,0,0,0,1,NA,NA,NA,NA,NA,NA,NA,NA,NA,NA,NA,NA,NA,NA,NA,NA,NA,NA,NA,NA,NA,NA,NA,NA
"37","stim/objects/HouseObjects/scale.png",14,59,14,0.5,"stim/34.jpeg",3,4,1,NA,"HouseObjects",1,4,"left","left",0.881000042,1,1,0,1,NA,NA,NA,NA,NA,NA,NA,NA,NA,NA,NA,NA,NA,NA,NA,NA,NA,NA,NA,NA,NA,NA,NA,NA
"121","stim/objects/Instruments/record_player.png",15,59,15,0.5,"stim/31.jpeg",3,1,1,NA,"Instruments",2,1,"right","left",0.648000002,0,0,0,1,NA,NA,NA,NA,NA,NA,NA,NA,NA,NA,NA,NA,NA,NA,NA,NA,NA,NA,NA,NA,NA,NA,NA,NA
"126","stim/objects/Instruments/record_player2.png",16,59,16,0.3,"stim/61.jpeg",6,1,2,NA,"Instruments",2,1,"right","left",0.825999975,0,0,0,1,NA,NA,NA,NA,NA,NA,NA,NA,NA,NA,NA,NA,NA,NA,NA,NA,NA,NA,NA,NA,NA,NA,NA,NA
"134","stim/objects/Instruments/saxophone2.png",17,59,17,0.3,"stim/62.jpeg",6,2,2,NA,"Instruments",2,4,"right","left",0.70600009,0,0,0,1,NA,NA,NA,NA,NA,NA,NA,NA,NA,NA,NA,NA,NA,NA,NA,NA,NA,NA,NA,NA,NA,NA,NA,NA
"49","stim/objects/HouseObjects/sponge.png",18,59,18,0.5,"stim/41.jpeg",4,1,1,NA,"HouseObjects",1,4,"left","left",0.690000057,1,1,0,1,NA,NA,NA,NA,NA,NA,NA,NA,NA,NA,NA,NA,NA,NA,NA,NA,NA,NA,NA,NA,NA,NA,NA,NA
"113","stim/objects/HouseObjects/wateringcan2.png",19,59,19,0.9,"stim/24.jpeg",2,4,3,NA,"HouseObjects",1,1,"left","left",0.611000061,1,1,0,1,NA,NA,NA,NA,NA,NA,NA,NA,NA,NA,NA,NA,NA,NA,NA,NA,NA,NA,NA,NA,NA,NA,NA,NA
"91","stim/objects/HouseObjects/towel2.png",20,59,20,0.9,"stim/22.jpeg",2,2,3,NA,"HouseObjects",1,2,"left","left",0.614000082,1,1,0,1,NA,NA,NA,NA,NA,NA,NA,NA,NA,NA,NA,NA,NA,NA,NA,NA,NA,NA,NA,NA,NA,NA,NA,NA
"218","stim/objects/Instruments/violin.png",21,59,21,0.7,"stim/52.jpeg",5,2,2,NA,"Instruments",2,4,"right","",NA,0,0,0,1,NA,NA,NA,NA,NA,NA,NA,NA,NA,NA,NA,NA,NA,NA,NA,NA,NA,NA,NA,NA,NA,NA,NA,NA
"50","stim/objects/HouseObjects/sponge.png",22,59,22,0.5,"stim/41.jpeg",4,1,1,NA,"HouseObjects",1,3,"left","left",0.838999987,1,1,0,1,NA,NA,NA,NA,NA,NA,NA,NA,NA,NA,NA,NA,NA,NA,NA,NA,NA,NA,NA,NA,NA,NA,NA,NA
"13","stim/objects/HouseObjects/safetypin.png",23,59,23,0.5,"stim/32.jpeg",3,2,1,NA,"HouseObjects",1,3,"left","left",0.72300005,1,1,0,1,NA,NA,NA,NA,NA,NA,NA,NA,NA,NA,NA,NA,NA,NA,NA,NA,NA,NA,NA,NA,NA,NA,NA,NA
"209","stim/objects/Instruments/tuba.png",24,59,24,0.7,"stim/51.jpeg",5,1,2,NA,"Instruments",2,1,"right","right",0.714999914,1,1,0,1,NA,NA,NA,NA,NA,NA,NA,NA,NA,NA,NA,NA,NA,NA,NA,NA,NA,NA,NA,NA,NA,NA,NA,NA
"195","stim/objects/Instruments/trumpet.png",25,59,25,0.5,"stim/44.jpeg",4,4,1,NA,"Instruments",2,3,"right","left",0.763999939,0,0,0,1,NA,NA,NA,NA,NA,NA,NA,NA,NA,NA,NA,NA,NA,NA,NA,NA,NA,NA,NA,NA,NA,NA,NA,NA
"200","stim/objects/Instruments/trumpet2.png",26,59,26,0.9,"stim/14.jpeg",1,4,3,NA,"Instruments",2,3,"right","right",0.774999857,1,1,0,1,NA,NA,NA,NA,NA,NA,NA,NA,NA,NA,NA,NA,NA,NA,NA,NA,NA,NA,NA,NA,NA,NA,NA,NA
"76","stim/objects/HouseObjects/thread2.png",27,59,27,0.9,"stim/21.jpeg",2,1,3,NA,"HouseObjects",1,2,"left","left",0.542999983,1,1,0,1,NA,NA,NA,NA,NA,NA,NA,NA,NA,NA,NA,NA,NA,NA,NA,NA,NA,NA,NA,NA,NA,NA,NA,NA
"38","stim/objects/HouseObjects/scale.png",28,59,28,0.5,"stim/34.jpeg",3,4,1,NA,"HouseObjects",1,2,"left","left",0.630000114,1,1,0,1,NA,NA,NA,NA,NA,NA,NA,NA,NA,NA,NA,NA,NA,NA,NA,NA,NA,NA,NA,NA,NA,NA,NA,NA
"101","stim/objects/HouseObjects/vacuumcleaner2.png",29,59,29,0.9,"stim/23.jpeg",2,3,3,NA,"HouseObjects",1,3,"left","left",0.562000036,1,1,0,1,NA,NA,NA,NA,NA,NA,NA,NA,NA,NA,NA,NA,NA,NA,NA,NA,NA,NA,NA,NA,NA,NA,NA,NA
"233","stim/objects/Instruments/xylophone.png",30,59,30,0.7,"stim/54.jpeg",5,4,2,NA,"Instruments",2,1,"right","right",0.612999916,1,1,0,1,NA,NA,NA,NA,NA,NA,NA,NA,NA,NA,NA,NA,NA,NA,NA,NA,NA,NA,NA,NA,NA,NA,NA,NA
"30","stim/objects/HouseObjects/saw2.png",31,59,31,0.7,"stim/63.jpeg",6,3,2,NA,"HouseObjects",1,3,"left","left",0.551000118,1,1,0,1,NA,NA,NA,NA,NA,NA,NA,NA,NA,NA,NA,NA,NA,NA,NA,NA,NA,NA,NA,NA,NA,NA,NA,NA
"182","stim/objects/Instruments/trombone.png",32,59,32,0.5,"stim/43.jpeg",4,3,1,NA,"Instruments",2,3,"right","left",0.726999998,0,0,0,1,NA,NA,NA,NA,NA,NA,NA,NA,NA,NA,NA,NA,NA,NA,NA,NA,NA,NA,NA,NA,NA,NA,NA,NA
"210","stim/objects/Instruments/tuba.png",33,59,33,0.7,"stim/51.jpeg",5,1,2,NA,"Instruments",2,1,"right","left",0.770999908,0,0,0,1,NA,NA,NA,NA,NA,NA,NA,NA,NA,NA,NA,NA,NA,NA,NA,NA,NA,NA,NA,NA,NA,NA,NA,NA
"6","stim/objects/HouseObjects/rug2.png",34,59,34,0.7,"stim/61.jpeg",6,1,2,NA,"HouseObjects",1,1,"left","left",0.713999987,1,1,0,1,NA,NA,NA,NA,NA,NA,NA,NA,NA,NA,NA,NA,NA,NA,NA,NA,NA,NA,NA,NA,NA,NA,NA,NA
"31","stim/objects/HouseObjects/saw2.png",35,59,35,0.7,"stim/63.jpeg",6,3,2,NA,"HouseObjects",1,4,"left","left",0.604000092,1,1,0,1,NA,NA,NA,NA,NA,NA,NA,NA,NA,NA,NA,NA,NA,NA,NA,NA,NA,NA,NA,NA,NA,NA,NA,NA
"14","stim/objects/HouseObjects/safetypin.png",36,59,36,0.5,"stim/32.jpeg",3,2,1,NA,"HouseObjects",1,4,"left","right",0.713999987,0,0,0,1,NA,NA,NA,NA,NA,NA,NA,NA,NA,NA,NA,NA,NA,NA,NA,NA,NA,NA,NA,NA,NA,NA,NA,NA
"158","stim/objects/Instruments/timbal2.png",37,59,37,0.9,"stim/11.jpeg",1,1,3,NA,"Instruments",2,4,"right","right",0.657999992,1,1,0,1,NA,NA,NA,NA,NA,NA,NA,NA,NA,NA,NA,NA,NA,NA,NA,NA,NA,NA,NA,NA,NA,NA,NA,NA
"60","stim/objects/HouseObjects/spraybottle2.png",38,59,38,0.1,"stim/12.jpeg",1,2,3,NA,"HouseObjects",1,3,"left","right",0.805000067,0,0,0,1,NA,NA,NA,NA,NA,NA,NA,NA,NA,NA,NA,NA,NA,NA,NA,NA,NA,NA,NA,NA,NA,NA,NA,NA
"18","stim/objects/HouseObjects/safetypin2.png",39,59,39,0.7,"stim/62.jpeg",6,2,2,NA,"HouseObjects",1,2,"left","left",0.593999863,1,1,0,1,NA,NA,NA,NA,NA,NA,NA,NA,NA,NA,NA,NA,NA,NA,NA,NA,NA,NA,NA,NA,NA,NA,NA,NA
"142","stim/objects/Instruments/speaker2.png",40,59,40,0.3,"stim/63.jpeg",6,3,2,NA,"Instruments",2,1,"right","left",0.661999941,0,0,0,1,NA,NA,NA,NA,NA,NA,NA,NA,NA,NA,NA,NA,NA,NA,NA,NA,NA,NA,NA,NA,NA,NA,NA,NA
"32","stim/objects/HouseObjects/saw2.png",41,59,41,0.7,"stim/63.jpeg",6,3,2,NA,"HouseObjects",1,4,"left","left",0.611000061,1,1,0,1,NA,NA,NA,NA,NA,NA,NA,NA,NA,NA,NA,NA,NA,NA,NA,NA,NA,NA,NA,NA,NA,NA,NA,NA
"240","stim/objects/Instruments/xylophone2.png",42,59,42,0.1,"stim/24.jpeg",2,4,3,NA,"Instruments",2,3,"right","left",0.667999983,0,0,0,1,NA,NA,NA,NA,NA,NA,NA,NA,NA,NA,NA,NA,NA,NA,NA,NA,NA,NA,NA,NA,NA,NA,NA,NA
"183","stim/objects/Instruments/trombone.png",43,59,43,0.5,"stim/43.jpeg",4,3,1,NA,"Instruments",2,4,"right","left",0.742999792,0,0,0,1,NA,NA,NA,NA,NA,NA,NA,NA,NA,NA,NA,NA,NA,NA,NA,NA,NA,NA,NA,NA,NA,NA,NA,NA
"25","stim/objects/HouseObjects/saw.png",44,59,44,0.5,"stim/33.jpeg",3,3,1,NA,"HouseObjects",1,1,"left","",NA,0,0,0,1,NA,NA,NA,NA,NA,NA,NA,NA,NA,NA,NA,NA,NA,NA,NA,NA,NA,NA,NA,NA,NA,NA,NA,NA
"172","stim/objects/Instruments/triangle2.png",45,59,45,0.9,"stim/12.jpeg",1,2,3,NA,"Instruments",2,1,"right","right",0.862999916,1,1,0,1,NA,NA,NA,NA,NA,NA,NA,NA,NA,NA,NA,NA,NA,NA,NA,NA,NA,NA,NA,NA,NA,NA,NA,NA
"173","stim/objects/Instruments/triangle2.png",46,59,46,0.9,"stim/12.jpeg",1,2,3,NA,"Instruments",2,1,"right","right",0.631000042,1,1,0,1,NA,NA,NA,NA,NA,NA,NA,NA,NA,NA,NA,NA,NA,NA,NA,NA,NA,NA,NA,NA,NA,NA,NA,NA
"219","stim/objects/Instruments/violin.png",47,59,47,0.7,"stim/52.jpeg",5,2,2,NA,"Instruments",2,4,"right","",NA,0,0,0,1,NA,NA,NA,NA,NA,NA,NA,NA,NA,NA,NA,NA,NA,NA,NA,NA,NA,NA,NA,NA,NA,NA,NA,NA
"33","stim/objects/HouseObjects/saw2.png",48,59,48,0.7,"stim/63.jpeg",6,3,2,NA,"HouseObjects",1,3,"left","left",0.578999996,1,1,0,1,NA,NA,NA,NA,NA,NA,NA,NA,NA,NA,NA,NA,NA,NA,NA,NA,NA,NA,NA,NA,NA,NA,NA,NA
"74","stim/objects/HouseObjects/thread.png",49,59,49,0.3,"stim/51.jpeg",5,1,2,NA,"HouseObjects",1,1,"left","right",0.619000196,0,0,0,1,NA,NA,NA,NA,NA,NA,NA,NA,NA,NA,NA,NA,NA,NA,NA,NA,NA,NA,NA,NA,NA,NA,NA,NA
"19","stim/objects/HouseObjects/safetypin2.png",50,59,50,0.7,"stim/62.jpeg",6,2,2,NA,"HouseObjects",1,3,"left","left",0.510999918,1,1,0,1,NA,NA,NA,NA,NA,NA,NA,NA,NA,NA,NA,NA,NA,NA,NA,NA,NA,NA,NA,NA,NA,NA,NA,NA
"135","stim/objects/Instruments/saxophone2.png",51,59,51,0.3,"stim/62.jpeg",6,2,2,NA,"Instruments",2,3,"right","left",0.520999908,0,0,0,1,NA,NA,NA,NA,NA,NA,NA,NA,NA,NA,NA,NA,NA,NA,NA,NA,NA,NA,NA,NA,NA,NA,NA,NA
"92","stim/objects/HouseObjects/towel2.png",52,59,52,0.9,"stim/22.jpeg",2,2,3,NA,"HouseObjects",1,4,"left","left",0.842999935,1,1,0,1,NA,NA,NA,NA,NA,NA,NA,NA,NA,NA,NA,NA,NA,NA,NA,NA,NA,NA,NA,NA,NA,NA,NA,NA
"159","stim/objects/Instruments/timbal2.png",53,59,53,0.9,"stim/11.jpeg",1,1,3,NA,"Instruments",2,4,"right","right",0.59100008,1,1,0,1,NA,NA,NA,NA,NA,NA,NA,NA,NA,NA,NA,NA,NA,NA,NA,NA,NA,NA,NA,NA,NA,NA,NA,NA
"225","stim/objects/Instruments/vuvuzela.png",54,59,54,0.7,"stim/53.jpeg",5,3,2,NA,"Instruments",2,1,"right","left",0.826999903,0,0,0,1,NA,NA,NA,NA,NA,NA,NA,NA,NA,NA,NA,NA,NA,NA,NA,NA,NA,NA,NA,NA,NA,NA,NA,NA
"7","stim/objects/HouseObjects/rug2.png",55,59,55,0.7,"stim/61.jpeg",6,1,2,NA,"HouseObjects",1,2,"left","left",0.537999868,1,1,0,1,NA,NA,NA,NA,NA,NA,NA,NA,NA,NA,NA,NA,NA,NA,NA,NA,NA,NA,NA,NA,NA,NA,NA,NA
"196","stim/objects/Instruments/trumpet.png",56,59,56,0.5,"stim/44.jpeg",4,4,1,NA,"Instruments",2,1,"right","right",0.607000113,1,1,0,1,NA,NA,NA,NA,NA,NA,NA,NA,NA,NA,NA,NA,NA,NA,NA,NA,NA,NA,NA,NA,NA,NA,NA,NA
"26","stim/objects/HouseObjects/saw.png",57,59,57,0.5,"stim/33.jpeg",3,3,1,NA,"HouseObjects",1,3,"left","left",0.585000038,1,1,0,1,NA,NA,NA,NA,NA,NA,NA,NA,NA,NA,NA,NA,NA,NA,NA,NA,NA,NA,NA,NA,NA,NA,NA,NA
"226","stim/objects/Instruments/vuvuzela.png",58,59,58,0.7,"stim/53.jpeg",5,3,2,NA,"Instruments",2,1,"right","right",0.59499979,1,1,0,1,NA,NA,NA,NA,NA,NA,NA,NA,NA,NA,NA,NA,NA,NA,NA,NA,NA,NA,NA,NA,NA,NA,NA,NA
"184","stim/objects/Instruments/trombone.png",59,59,59,0.5,"stim/43.jpeg",4,3,1,NA,"Instruments",2,3,"right","right",0.708999872,1,1,0,1,NA,NA,NA,NA,NA,NA,NA,NA,NA,NA,NA,NA,NA,NA,NA,NA,NA,NA,NA,NA,NA,NA,NA,NA
"102","stim/objects/HouseObjects/vacuumcleaner2.png",60,59,60,0.9,"stim/23.jpeg",2,3,3,NA,"HouseObjects",1,3,"left","left",0.400000095,1,1,0,1,NA,NA,NA,NA,NA,NA,NA,NA,NA,NA,NA,NA,NA,NA,NA,NA,NA,NA,NA,NA,NA,NA,NA,NA
"160","stim/objects/Instruments/timbal2.png",61,59,61,0.9,"stim/11.jpeg",1,1,3,NA,"Instruments",2,1,"right","right",0.566999912,1,1,0,1,NA,NA,NA,NA,NA,NA,NA,NA,NA,NA,NA,NA,NA,NA,NA,NA,NA,NA,NA,NA,NA,NA,NA,NA
"109","stim/objects/HouseObjects/wateringcan.png",62,59,62,0.3,"stim/54.jpeg",5,4,2,NA,"HouseObjects",1,3,"left","",NA,0,0,0,1,NA,NA,NA,NA,NA,NA,NA,NA,NA,NA,NA,NA,NA,NA,NA,NA,NA,NA,NA,NA,NA,NA,NA,NA
"150","stim/objects/Instruments/tambourine2.png",63,59,63,0.3,"stim/64.jpeg",6,4,2,NA,"Instruments",2,1,"right","left",0.447000027,0,0,0,1,NA,NA,NA,NA,NA,NA,NA,NA,NA,NA,NA,NA,NA,NA,NA,NA,NA,NA,NA,NA,NA,NA,NA,NA
"234","stim/objects/Instruments/xylophone.png",64,59,64,0.7,"stim/54.jpeg",5,4,2,NA,"Instruments",2,2,"right","right",0.763999939,1,1,0,1,NA,NA,NA,NA,NA,NA,NA,NA,NA,NA,NA,NA,NA,NA,NA,NA,NA,NA,NA,NA,NA,NA,NA,NA
"51","stim/objects/HouseObjects/sponge.png",65,59,65,0.5,"stim/41.jpeg",4,1,1,NA,"HouseObjects",1,2,"left","",NA,0,0,0,1,NA,NA,NA,NA,NA,NA,NA,NA,NA,NA,NA,NA,NA,NA,NA,NA,NA,NA,NA,NA,NA,NA,NA,NA
"211","stim/objects/Instruments/tuba.png",66,59,66,0.7,"stim/51.jpeg",5,1,2,NA,"Instruments",2,3,"right","left",0.746000051,0,0,0,1,NA,NA,NA,NA,NA,NA,NA,NA,NA,NA,NA,NA,NA,NA,NA,NA,NA,NA,NA,NA,NA,NA,NA,NA
"122","stim/objects/Instruments/record_player.png",67,59,67,0.5,"stim/31.jpeg",3,1,1,NA,"Instruments",2,2,"right","left",0.579999924,0,0,0,1,NA,NA,NA,NA,NA,NA,NA,NA,NA,NA,NA,NA,NA,NA,NA,NA,NA,NA,NA,NA,NA,NA,NA,NA
"143","stim/objects/Instruments/speaker2.png",68,59,68,0.3,"stim/63.jpeg",6,3,2,NA,"Instruments",2,4,"right","left",0.595999956,0,0,0,1,NA,NA,NA,NA,NA,NA,NA,NA,NA,NA,NA,NA,NA,NA,NA,NA,NA,NA,NA,NA,NA,NA,NA,NA
"129","stim/objects/Instruments/saxophone.png",69,59,69,0.5,"stim/32.jpeg",3,2,1,NA,"Instruments",2,1,"right","left",0.68200016,0,0,0,1,NA,NA,NA,NA,NA,NA,NA,NA,NA,NA,NA,NA,NA,NA,NA,NA,NA,NA,NA,NA,NA,NA,NA,NA
"187","stim/objects/Instruments/trombone2.png",70,59,70,0.9,"stim/13.jpeg",1,3,3,NA,"Instruments",2,2,"right","right",0.653999805,1,1,0,1,NA,NA,NA,NA,NA,NA,NA,NA,NA,NA,NA,NA,NA,NA,NA,NA,NA,NA,NA,NA,NA,NA,NA,NA
"77","stim/objects/HouseObjects/thread2.png",71,59,71,0.9,"stim/21.jpeg",2,1,3,NA,"HouseObjects",1,1,"left","left",0.430999994,1,1,0,1,NA,NA,NA,NA,NA,NA,NA,NA,NA,NA,NA,NA,NA,NA,NA,NA,NA,NA,NA,NA,NA,NA,NA,NA
"136","stim/objects/Instruments/saxophone2.png",72,59,72,0.3,"stim/62.jpeg",6,2,2,NA,"Instruments",2,4,"right","left",0.614000082,0,0,0,1,NA,NA,NA,NA,NA,NA,NA,NA,NA,NA,NA,NA,NA,NA,NA,NA,NA,NA,NA,NA,NA,NA,NA,NA
"220","stim/objects/Instruments/violin.png",73,59,73,0.7,"stim/52.jpeg",5,2,2,NA,"Instruments",2,3,"right","right",0.614000082,1,1,0,1,NA,NA,NA,NA,NA,NA,NA,NA,NA,NA,NA,NA,NA,NA,NA,NA,NA,NA,NA,NA,NA,NA,NA,NA
"227","stim/objects/Instruments/vuvuzela.png",74,59,74,0.7,"stim/53.jpeg",5,3,2,NA,"Instruments",2,4,"right","right",0.655999899,1,1,0,1,NA,NA,NA,NA,NA,NA,NA,NA,NA,NA,NA,NA,NA,NA,NA,NA,NA,NA,NA,NA,NA,NA,NA,NA
"161","stim/objects/Instruments/timbal2.png",75,59,75,0.9,"stim/11.jpeg",1,1,3,NA,"Instruments",2,1,"right","right",0.67599988,1,1,0,1,NA,NA,NA,NA,NA,NA,NA,NA,NA,NA,NA,NA,NA,NA,NA,NA,NA,NA,NA,NA,NA,NA,NA,NA
"123","stim/objects/Instruments/record_player.png",76,59,76,0.5,"stim/31.jpeg",3,1,1,NA,"Instruments",2,1,"right","left",0.523000002,0,0,0,1,NA,NA,NA,NA,NA,NA,NA,NA,NA,NA,NA,NA,NA,NA,NA,NA,NA,NA,NA,NA,NA,NA,NA,NA
"153","stim/objects/Instruments/timbal.png",77,59,77,0.5,"stim/41.jpeg",4,1,1,NA,"Instruments",2,2,"right","right",0.845000029,1,1,0,1,NA,NA,NA,NA,NA,NA,NA,NA,NA,NA,NA,NA,NA,NA,NA,NA,NA,NA,NA,NA,NA,NA,NA,NA
"103","stim/objects/HouseObjects/vacuumcleaner2.png",78,59,78,0.9,"stim/23.jpeg",2,3,3,NA,"HouseObjects",1,4,"left","left",0.492000103,1,1,0,1,NA,NA,NA,NA,NA,NA,NA,NA,NA,NA,NA,NA,NA,NA,NA,NA,NA,NA,NA,NA,NA,NA,NA,NA
"174","stim/objects/Instruments/triangle2.png",79,59,79,0.9,"stim/12.jpeg",1,2,3,NA,"Instruments",2,1,"right","right",0.562000036,1,1,0,1,NA,NA,NA,NA,NA,NA,NA,NA,NA,NA,NA,NA,NA,NA,NA,NA,NA,NA,NA,NA,NA,NA,NA,NA
"188","stim/objects/Instruments/trombone2.png",80,59,80,0.9,"stim/13.jpeg",1,3,3,NA,"Instruments",2,3,"right","right",0.611999989,1,1,0,1,NA,NA,NA,NA,NA,NA,NA,NA,NA,NA,NA,NA,NA,NA,NA,NA,NA,NA,NA,NA,NA,NA,NA,NA
"20","stim/objects/HouseObjects/safetypin2.png",81,59,81,0.7,"stim/62.jpeg",6,2,2,NA,"HouseObjects",1,2,"left","left",0.582999945,1,1,0,1,NA,NA,NA,NA,NA,NA,NA,NA,NA,NA,NA,NA,NA,NA,NA,NA,NA,NA,NA,NA,NA,NA,NA,NA
"78","stim/objects/HouseObjects/thread2.png",82,59,82,0.9,"stim/21.jpeg",2,1,3,NA,"HouseObjects",1,4,"left","left",0.634000063,1,1,0,1,NA,NA,NA,NA,NA,NA,NA,NA,NA,NA,NA,NA,NA,NA,NA,NA,NA,NA,NA,NA,NA,NA,NA,NA
"235","stim/objects/Instruments/xylophone.png",83,59,83,0.7,"stim/54.jpeg",5,4,2,NA,"Instruments",2,1,"right","right",0.689999819,1,1,0,1,NA,NA,NA,NA,NA,NA,NA,NA,NA,NA,NA,NA,NA,NA,NA,NA,NA,NA,NA,NA,NA,NA,NA,NA
"130","stim/objects/Instruments/saxophone.png",84,59,84,0.5,"stim/32.jpeg",3,2,1,NA,"Instruments",2,1,"right","left",0.596999884,0,0,0,1,NA,NA,NA,NA,NA,NA,NA,NA,NA,NA,NA,NA,NA,NA,NA,NA,NA,NA,NA,NA,NA,NA,NA,NA
"151","stim/objects/Instruments/tambourine2.png",85,59,85,0.3,"stim/64.jpeg",6,4,2,NA,"Instruments",2,4,"right","left",0.519000053,0,0,0,1,NA,NA,NA,NA,NA,NA,NA,NA,NA,NA,NA,NA,NA,NA,NA,NA,NA,NA,NA,NA,NA,NA,NA,NA
"54","stim/objects/HouseObjects/sponge2.png",86,59,86,0.1,"stim/11.jpeg",1,1,3,NA,"HouseObjects",1,2,"left","right",0.58100009,0,0,0,1,NA,NA,NA,NA,NA,NA,NA,NA,NA,NA,NA,NA,NA,NA,NA,NA,NA,NA,NA,NA,NA,NA,NA,NA
"167","stim/objects/Instruments/triangle.png",87,59,87,0.5,"stim/42.jpeg",4,2,1,NA,"Instruments",2,1,"right","right",0.765000105,1,1,0,1,NA,NA,NA,NA,NA,NA,NA,NA,NA,NA,NA,NA,NA,NA,NA,NA,NA,NA,NA,NA,NA,NA,NA,NA
"42","stim/objects/HouseObjects/scale2.png",88,59,88,0.7,"stim/64.jpeg",6,4,2,NA,"HouseObjects",1,2,"left","right",0.717000008,0,0,0,1,NA,NA,NA,NA,NA,NA,NA,NA,NA,NA,NA,NA,NA,NA,NA,NA,NA,NA,NA,NA,NA,NA,NA,NA
"66","stim/objects/HouseObjects/teapot2.png",89,59,89,0.1,"stim/13.jpeg",1,3,3,NA,"HouseObjects",1,1,"left","left",0.475000143,1,1,0,1,NA,NA,NA,NA,NA,NA,NA,NA,NA,NA,NA,NA,NA,NA,NA,NA,NA,NA,NA,NA,NA,NA,NA,NA
"8","stim/objects/HouseObjects/rug2.png",90,59,90,0.7,"stim/61.jpeg",6,1,2,NA,"HouseObjects",1,2,"left","right",0.631000042,0,0,0,1,NA,NA,NA,NA,NA,NA,NA,NA,NA,NA,NA,NA,NA,NA,NA,NA,NA,NA,NA,NA,NA,NA,NA,NA
"221","stim/objects/Instruments/violin.png",91,59,91,0.7,"stim/52.jpeg",5,2,2,NA,"Instruments",2,2,"right","right",0.585000038,1,1,0,1,NA,NA,NA,NA,NA,NA,NA,NA,NA,NA,NA,NA,NA,NA,NA,NA,NA,NA,NA,NA,NA,NA,NA,NA
"152","stim/objects/Instruments/tambourine2.png",92,59,92,0.3,"stim/64.jpeg",6,4,2,NA,"Instruments",2,3,"right","left",0.599000216,0,0,0,1,NA,NA,NA,NA,NA,NA,NA,NA,NA,NA,NA,NA,NA,NA,NA,NA,NA,NA,NA,NA,NA,NA,NA,NA
"93","stim/objects/HouseObjects/towel2.png",93,59,93,0.9,"stim/22.jpeg",2,2,3,NA,"HouseObjects",1,3,"left","left",0.697999954,1,1,0,1,NA,NA,NA,NA,NA,NA,NA,NA,NA,NA,NA,NA,NA,NA,NA,NA,NA,NA,NA,NA,NA,NA,NA,NA
"124","stim/objects/Instruments/record_player.png",94,59,94,0.5,"stim/31.jpeg",3,1,1,NA,"Instruments",2,1,"right","right",0.825999975,1,1,0,1,NA,NA,NA,NA,NA,NA,NA,NA,NA,NA,NA,NA,NA,NA,NA,NA,NA,NA,NA,NA,NA,NA,NA,NA
"34","stim/objects/HouseObjects/saw2.png",95,59,95,0.7,"stim/63.jpeg",6,3,2,NA,"HouseObjects",1,2,"left","left",0.583999872,1,1,0,1,NA,NA,NA,NA,NA,NA,NA,NA,NA,NA,NA,NA,NA,NA,NA,NA,NA,NA,NA,NA,NA,NA,NA,NA
"137","stim/objects/Instruments/speaker.png",96,59,96,0.5,"stim/33.jpeg",3,3,1,NA,"Instruments",2,1,"right","left",0.645999908,0,0,0,1,NA,NA,NA,NA,NA,NA,NA,NA,NA,NA,NA,NA,NA,NA,NA,NA,NA,NA,NA,NA,NA,NA,NA,NA
"56","stim/objects/HouseObjects/spraybottle.png",97,59,97,0.5,"stim/42.jpeg",4,2,1,NA,"HouseObjects",1,4,"left","right",0.936000109,0,0,0,1,NA,NA,NA,NA,NA,NA,NA,NA,NA,NA,NA,NA,NA,NA,NA,NA,NA,NA,NA,NA,NA,NA,NA,NA
"39","stim/objects/HouseObjects/scale.png",98,59,98,0.5,"stim/34.jpeg",3,4,1,NA,"HouseObjects",1,3,"left","left",0.592000008,1,1,0,1,NA,NA,NA,NA,NA,NA,NA,NA,NA,NA,NA,NA,NA,NA,NA,NA,NA,NA,NA,NA,NA,NA,NA,NA
"212","stim/objects/Instruments/tuba.png",99,59,99,0.7,"stim/51.jpeg",5,1,2,NA,"Instruments",2,2,"right","right",0.528999805,1,1,0,1,NA,NA,NA,NA,NA,NA,NA,NA,NA,NA,NA,NA,NA,NA,NA,NA,NA,NA,NA,NA,NA,NA,NA,NA
"61","stim/objects/HouseObjects/teapot.png",100,59,100,0.5,"stim/43.jpeg",4,3,1,NA,"HouseObjects",1,4,"left","right",0.715000153,0,0,0,1,NA,NA,NA,NA,NA,NA,NA,NA,NA,NA,NA,NA,NA,NA,NA,NA,NA,NA,NA,NA,NA,NA,NA,NA
"114","stim/objects/HouseObjects/wateringcan2.png",101,59,101,0.9,"stim/24.jpeg",2,4,3,NA,"HouseObjects",1,2,"left","left",0.576999903,1,1,0,1,NA,NA,NA,NA,NA,NA,NA,NA,NA,NA,NA,NA,NA,NA,NA,NA,NA,NA,NA,NA,NA,NA,NA,NA
"43","stim/objects/HouseObjects/scale2.png",102,59,102,0.7,"stim/64.jpeg",6,4,2,NA,"HouseObjects",1,4,"left","left",0.71600008,1,1,0,1,NA,NA,NA,NA,NA,NA,NA,NA,NA,NA,NA,NA,NA,NA,NA,NA,NA,NA,NA,NA,NA,NA,NA,NA
"15","stim/objects/HouseObjects/safetypin.png",103,59,103,0.5,"stim/32.jpeg",3,2,1,NA,"HouseObjects",1,3,"left","left",0.729000092,1,1,0,1,NA,NA,NA,NA,NA,NA,NA,NA,NA,NA,NA,NA,NA,NA,NA,NA,NA,NA,NA,NA,NA,NA,NA,NA
"1","stim/objects/HouseObjects/rug.png",104,59,104,0.5,"stim/31.jpeg",3,1,1,NA,"HouseObjects",1,2,"left","left",0.525000095,1,1,0,1,NA,NA,NA,NA,NA,NA,NA,NA,NA,NA,NA,NA,NA,NA,NA,NA,NA,NA,NA,NA,NA,NA,NA,NA
"68","stim/objects/HouseObjects/thermometer.png",105,59,105,0.5,"stim/44.jpeg",4,4,1,NA,"HouseObjects",1,3,"left","left",0.663000107,1,1,0,1,NA,NA,NA,NA,NA,NA,NA,NA,NA,NA,NA,NA,NA,NA,NA,NA,NA,NA,NA,NA,NA,NA,NA,NA
"201","stim/objects/Instruments/trumpet2.png",106,59,106,0.9,"stim/14.jpeg",1,4,3,NA,"Instruments",2,2,"right","right",0.696000099,1,1,0,1,NA,NA,NA,NA,NA,NA,NA,NA,NA,NA,NA,NA,NA,NA,NA,NA,NA,NA,NA,NA,NA,NA,NA,NA
"168","stim/objects/Instruments/triangle.png",107,59,107,0.5,"stim/42.jpeg",4,2,1,NA,"Instruments",2,1,"right","left",0.463999987,0,0,0,1,NA,NA,NA,NA,NA,NA,NA,NA,NA,NA,NA,NA,NA,NA,NA,NA,NA,NA,NA,NA,NA,NA,NA,NA
"228","stim/objects/Instruments/vuvuzela.png",108,59,108,0.7,"stim/53.jpeg",5,3,2,NA,"Instruments",2,1,"right","right",0.529000044,1,1,0,1,NA,NA,NA,NA,NA,NA,NA,NA,NA,NA,NA,NA,NA,NA,NA,NA,NA,NA,NA,NA,NA,NA,NA,NA
"229","stim/objects/Instruments/vuvuzela.png",109,59,109,0.7,"stim/53.jpeg",5,3,2,NA,"Instruments",2,2,"right","right",0.526000023,1,1,0,1,NA,NA,NA,NA,NA,NA,NA,NA,NA,NA,NA,NA,NA,NA,NA,NA,NA,NA,NA,NA,NA,NA,NA,NA
"44","stim/objects/HouseObjects/scale2.png",110,59,110,0.7,"stim/64.jpeg",6,4,2,NA,"HouseObjects",1,4,"left","left",0.581999779,1,1,0,1,NA,NA,NA,NA,NA,NA,NA,NA,NA,NA,NA,NA,NA,NA,NA,NA,NA,NA,NA,NA,NA,NA,NA,NA
"104","stim/objects/HouseObjects/vacuumcleaner2.png",111,59,111,0.9,"stim/23.jpeg",2,3,3,NA,"HouseObjects",1,2,"left","left",0.582999945,1,1,0,1,NA,NA,NA,NA,NA,NA,NA,NA,NA,NA,NA,NA,NA,NA,NA,NA,NA,NA,NA,NA,NA,NA,NA,NA
"16","stim/objects/HouseObjects/safetypin.png",112,59,112,0.5,"stim/32.jpeg",3,2,1,NA,"HouseObjects",1,1,"left","left",0.680999994,1,1,0,1,NA,NA,NA,NA,NA,NA,NA,NA,NA,NA,NA,NA,NA,NA,NA,NA,NA,NA,NA,NA,NA,NA,NA,NA
"110","stim/objects/HouseObjects/wateringcan.png",113,59,113,0.3,"stim/54.jpeg",5,4,2,NA,"HouseObjects",1,2,"left","right",0.697000027,0,0,0,1,NA,NA,NA,NA,NA,NA,NA,NA,NA,NA,NA,NA,NA,NA,NA,NA,NA,NA,NA,NA,NA,NA,NA,NA
"21","stim/objects/HouseObjects/safetypin2.png",114,59,114,0.7,"stim/62.jpeg",6,2,2,NA,"HouseObjects",1,1,"left","left",0.603000164,1,1,0,1,NA,NA,NA,NA,NA,NA,NA,NA,NA,NA,NA,NA,NA,NA,NA,NA,NA,NA,NA,NA,NA,NA,NA,NA
"94","stim/objects/HouseObjects/towel2.png",115,59,115,0.9,"stim/22.jpeg",2,2,3,NA,"HouseObjects",1,1,"left","left",0.483999968,1,1,0,1,NA,NA,NA,NA,NA,NA,NA,NA,NA,NA,NA,NA,NA,NA,NA,NA,NA,NA,NA,NA,NA,NA,NA,NA
"79","stim/objects/HouseObjects/thread2.png",116,59,116,0.9,"stim/21.jpeg",2,1,3,NA,"HouseObjects",1,4,"left","left",0.578000069,1,1,0,1,NA,NA,NA,NA,NA,NA,NA,NA,NA,NA,NA,NA,NA,NA,NA,NA,NA,NA,NA,NA,NA,NA,NA,NA
"2","stim/objects/HouseObjects/rug.png",117,59,117,0.5,"stim/31.jpeg",3,1,1,NA,"HouseObjects",1,2,"left","left",0.671000004,1,1,0,1,NA,NA,NA,NA,NA,NA,NA,NA,NA,NA,NA,NA,NA,NA,NA,NA,NA,NA,NA,NA,NA,NA,NA,NA
"162","stim/objects/Instruments/timbal2.png",118,59,118,0.9,"stim/11.jpeg",1,1,3,NA,"Instruments",2,2,"right","right",0.631999969,1,1,0,1,NA,NA,NA,NA,NA,NA,NA,NA,NA,NA,NA,NA,NA,NA,NA,NA,NA,NA,NA,NA,NA,NA,NA,NA
"232","stim/objects/Instruments/vuvuzela2.png",119,59,119,0.1,"stim/23.jpeg",2,3,3,NA,"Instruments",2,2,"right","left",0.592999935,0,0,0,1,NA,NA,NA,NA,NA,NA,NA,NA,NA,NA,NA,NA,NA,NA,NA,NA,NA,NA,NA,NA,NA,NA,NA,NA
"189","stim/objects/Instruments/trombone2.png",120,59,120,0.9,"stim/13.jpeg",1,3,3,NA,"Instruments",2,2,"right","right",0.437999964,1,1,0,1,NA,NA,NA,NA,NA,NA,NA,NA,NA,NA,NA,NA,NA,NA,NA,NA,NA,NA,NA,NA,NA,NA,NA,NA
"62","stim/objects/HouseObjects/teapot.png",121,59,121,0.5,"stim/43.jpeg",4,3,1,NA,"HouseObjects",1,2,"left","left",0.832000017,1,1,0,1,NA,NA,NA,NA,NA,NA,NA,NA,NA,NA,NA,NA,NA,NA,NA,NA,NA,NA,NA,NA,NA,NA,NA,NA
"9","stim/objects/HouseObjects/rug2.png",122,59,122,0.7,"stim/61.jpeg",6,1,2,NA,"HouseObjects",1,3,"left","left",0.61500001,1,1,0,1,NA,NA,NA,NA,NA,NA,NA,NA,NA,NA,NA,NA,NA,NA,NA,NA,NA,NA,NA,NA,NA,NA,NA,NA
"85","stim/objects/HouseObjects/towel.png",123,59,123,0.3,"stim/52.jpeg",5,2,2,NA,"HouseObjects",1,4,"left","right",0.567000151,0,0,0,1,NA,NA,NA,NA,NA,NA,NA,NA,NA,NA,NA,NA,NA,NA,NA,NA,NA,NA,NA,NA,NA,NA,NA,NA
"72","stim/objects/HouseObjects/thermometer2.png",124,59,124,0.1,"stim/14.jpeg",1,4,3,NA,"HouseObjects",1,3,"left","right",0.688000202,0,0,0,1,NA,NA,NA,NA,NA,NA,NA,NA,NA,NA,NA,NA,NA,NA,NA,NA,NA,NA,NA,NA,NA,NA,NA,NA
"163","stim/objects/Instruments/timbal2.png",125,59,125,0.9,"stim/11.jpeg",1,1,3,NA,"Instruments",2,1,"right","right",0.498000145,1,1,0,1,NA,NA,NA,NA,NA,NA,NA,NA,NA,NA,NA,NA,NA,NA,NA,NA,NA,NA,NA,NA,NA,NA,NA,NA
"202","stim/objects/Instruments/trumpet2.png",126,59,126,0.9,"stim/14.jpeg",1,4,3,NA,"Instruments",2,1,"right","right",0.430999994,1,1,0,1,NA,NA,NA,NA,NA,NA,NA,NA,NA,NA,NA,NA,NA,NA,NA,NA,NA,NA,NA,NA,NA,NA,NA,NA
"115","stim/objects/HouseObjects/wateringcan2.png",127,59,127,0.9,"stim/24.jpeg",2,4,3,NA,"HouseObjects",1,4,"left","left",0.506000042,1,1,0,1,NA,NA,NA,NA,NA,NA,NA,NA,NA,NA,NA,NA,NA,NA,NA,NA,NA,NA,NA,NA,NA,NA,NA,NA
"164","stim/objects/Instruments/timbal2.png",128,59,128,0.9,"stim/11.jpeg",1,1,3,NA,"Instruments",2,2,"right","right",0.559999943,1,1,0,1,NA,NA,NA,NA,NA,NA,NA,NA,NA,NA,NA,NA,NA,NA,NA,NA,NA,NA,NA,NA,NA,NA,NA,NA
"203","stim/objects/Instruments/trumpet2.png",129,59,129,0.9,"stim/14.jpeg",1,4,3,NA,"Instruments",2,3,"right","right",0.54700017,1,1,0,1,NA,NA,NA,NA,NA,NA,NA,NA,NA,NA,NA,NA,NA,NA,NA,NA,NA,NA,NA,NA,NA,NA,NA,NA
"69","stim/objects/HouseObjects/thermometer.png",130,59,130,0.5,"stim/44.jpeg",4,4,1,NA,"HouseObjects",1,2,"left","left",0.765000105,1,1,0,1,NA,NA,NA,NA,NA,NA,NA,NA,NA,NA,NA,NA,NA,NA,NA,NA,NA,NA,NA,NA,NA,NA,NA,NA
"45","stim/objects/HouseObjects/scale2.png",131,59,131,0.7,"stim/64.jpeg",6,4,2,NA,"HouseObjects",1,3,"left","left",0.617000103,1,1,0,1,NA,NA,NA,NA,NA,NA,NA,NA,NA,NA,NA,NA,NA,NA,NA,NA,NA,NA,NA,NA,NA,NA,NA,NA
"230","stim/objects/Instruments/vuvuzela.png",132,59,132,0.7,"stim/53.jpeg",5,3,2,NA,"Instruments",2,2,"right","right",0.59800005,1,1,0,1,NA,NA,NA,NA,NA,NA,NA,NA,NA,NA,NA,NA,NA,NA,NA,NA,NA,NA,NA,NA,NA,NA,NA,NA
"57","stim/objects/HouseObjects/spraybottle.png",133,59,133,0.5,"stim/42.jpeg",4,2,1,NA,"HouseObjects",1,4,"left","left",0.644000053,1,1,0,1,NA,NA,NA,NA,NA,NA,NA,NA,NA,NA,NA,NA,NA,NA,NA,NA,NA,NA,NA,NA,NA,NA,NA,NA
"17","stim/objects/HouseObjects/safetypin.png",134,59,134,0.5,"stim/32.jpeg",3,2,1,NA,"HouseObjects",1,4,"left","left",0.580999851,1,1,0,1,NA,NA,NA,NA,NA,NA,NA,NA,NA,NA,NA,NA,NA,NA,NA,NA,NA,NA,NA,NA,NA,NA,NA,NA
"3","stim/objects/HouseObjects/rug.png",135,59,135,0.5,"stim/31.jpeg",3,1,1,NA,"HouseObjects",1,3,"left","left",0.499000072,1,1,0,1,NA,NA,NA,NA,NA,NA,NA,NA,NA,NA,NA,NA,NA,NA,NA,NA,NA,NA,NA,NA,NA,NA,NA,NA
"75","stim/objects/HouseObjects/thread.png",136,59,136,0.3,"stim/51.jpeg",5,1,2,NA,"HouseObjects",1,4,"left","left",0.845999956,1,1,0,1,NA,NA,NA,NA,NA,NA,NA,NA,NA,NA,NA,NA,NA,NA,NA,NA,NA,NA,NA,NA,NA,NA,NA,NA
"213","stim/objects/Instruments/tuba.png",137,59,137,0.7,"stim/51.jpeg",5,1,2,NA,"Instruments",2,2,"right","right",0.530999899,1,1,0,1,NA,NA,NA,NA,NA,NA,NA,NA,NA,NA,NA,NA,NA,NA,NA,NA,NA,NA,NA,NA,NA,NA,NA,NA
"138","stim/objects/Instruments/speaker.png",138,59,138,0.5,"stim/33.jpeg",3,3,1,NA,"Instruments",2,2,"right","left",0.631000042,0,0,0,1,NA,NA,NA,NA,NA,NA,NA,NA,NA,NA,NA,NA,NA,NA,NA,NA,NA,NA,NA,NA,NA,NA,NA,NA
"214","stim/objects/Instruments/tuba.png",139,59,139,0.7,"stim/51.jpeg",5,1,2,NA,"Instruments",2,1,"right","right",0.700000048,1,1,0,1,NA,NA,NA,NA,NA,NA,NA,NA,NA,NA,NA,NA,NA,NA,NA,NA,NA,NA,NA,NA,NA,NA,NA,NA
"58","stim/objects/HouseObjects/spraybottle.png",140,59,140,0.5,"stim/42.jpeg",4,2,1,NA,"HouseObjects",1,2,"left","left",0.601000071,1,1,0,1,NA,NA,NA,NA,NA,NA,NA,NA,NA,NA,NA,NA,NA,NA,NA,NA,NA,NA,NA,NA,NA,NA,NA,NA
"35","stim/objects/HouseObjects/saw2.png",141,59,141,0.7,"stim/63.jpeg",6,3,2,NA,"HouseObjects",1,3,"left","left",0.575999975,1,1,0,1,NA,NA,NA,NA,NA,NA,NA,NA,NA,NA,NA,NA,NA,NA,NA,NA,NA,NA,NA,NA,NA,NA,NA,NA
"127","stim/objects/Instruments/record_player2.png",142,59,142,0.3,"stim/61.jpeg",6,1,2,NA,"Instruments",2,3,"right","left",0.496999979,0,0,0,1,NA,NA,NA,NA,NA,NA,NA,NA,NA,NA,NA,NA,NA,NA,NA,NA,NA,NA,NA,NA,NA,NA,NA,NA
"52","stim/objects/HouseObjects/sponge.png",143,59,143,0.5,"stim/41.jpeg",4,1,1,NA,"HouseObjects",1,3,"left","left",0.694000006,1,1,0,1,NA,NA,NA,NA,NA,NA,NA,NA,NA,NA,NA,NA,NA,NA,NA,NA,NA,NA,NA,NA,NA,NA,NA,NA
"80","stim/objects/HouseObjects/thread2.png",144,59,144,0.9,"stim/21.jpeg",2,1,3,NA,"HouseObjects",1,2,"left","right",0.515999794,0,0,0,1,NA,NA,NA,NA,NA,NA,NA,NA,NA,NA,NA,NA,NA,NA,NA,NA,NA,NA,NA,NA,NA,NA,NA,NA
"128","stim/objects/Instruments/record_player2.png",145,59,145,0.3,"stim/61.jpeg",6,1,2,NA,"Instruments",2,1,"right","left",0.638000011,0,0,0,1,NA,NA,NA,NA,NA,NA,NA,NA,NA,NA,NA,NA,NA,NA,NA,NA,NA,NA,NA,NA,NA,NA,NA,NA
"175","stim/objects/Instruments/triangle2.png",146,59,146,0.9,"stim/12.jpeg",1,2,3,NA,"Instruments",2,4,"right","right",0.726000071,1,1,0,1,NA,NA,NA,NA,NA,NA,NA,NA,NA,NA,NA,NA,NA,NA,NA,NA,NA,NA,NA,NA,NA,NA,NA,NA
"131","stim/objects/Instruments/saxophone.png",147,59,147,0.5,"stim/32.jpeg",3,2,1,NA,"Instruments",2,3,"right","left",0.677000046,0,0,0,1,NA,NA,NA,NA,NA,NA,NA,NA,NA,NA,NA,NA,NA,NA,NA,NA,NA,NA,NA,NA,NA,NA,NA,NA
"176","stim/objects/Instruments/triangle2.png",148,59,148,0.9,"stim/12.jpeg",1,2,3,NA,"Instruments",2,3,"right","right",0.598999977,1,1,0,1,NA,NA,NA,NA,NA,NA,NA,NA,NA,NA,NA,NA,NA,NA,NA,NA,NA,NA,NA,NA,NA,NA,NA,NA
"236","stim/objects/Instruments/xylophone.png",149,59,149,0.7,"stim/54.jpeg",5,4,2,NA,"Instruments",2,4,"right","left",0.532999992,0,0,0,1,NA,NA,NA,NA,NA,NA,NA,NA,NA,NA,NA,NA,NA,NA,NA,NA,NA,NA,NA,NA,NA,NA,NA,NA
"70","stim/objects/HouseObjects/thermometer.png",150,59,150,0.5,"stim/44.jpeg",4,4,1,NA,"HouseObjects",1,2,"left","left",0.701999903,1,1,0,1,NA,NA,NA,NA,NA,NA,NA,NA,NA,NA,NA,NA,NA,NA,NA,NA,NA,NA,NA,NA,NA,NA,NA,NA
"169","stim/objects/Instruments/triangle.png",151,59,151,0.5,"stim/42.jpeg",4,2,1,NA,"Instruments",2,3,"right","left",0.546999931,0,0,0,1,NA,NA,NA,NA,NA,NA,NA,NA,NA,NA,NA,NA,NA,NA,NA,NA,NA,NA,NA,NA,NA,NA,NA,NA
"95","stim/objects/HouseObjects/towel2.png",152,59,152,0.9,"stim/22.jpeg",2,2,3,NA,"HouseObjects",1,4,"left","left",0.560000181,1,1,0,1,NA,NA,NA,NA,NA,NA,NA,NA,NA,NA,NA,NA,NA,NA,NA,NA,NA,NA,NA,NA,NA,NA,NA,NA
"132","stim/objects/Instruments/saxophone.png",153,59,153,0.5,"stim/32.jpeg",3,2,1,NA,"Instruments",2,1,"right","left",0.613999844,0,0,0,1,NA,NA,NA,NA,NA,NA,NA,NA,NA,NA,NA,NA,NA,NA,NA,NA,NA,NA,NA,NA,NA,NA,NA,NA
"190","stim/objects/Instruments/trombone2.png",154,59,154,0.9,"stim/13.jpeg",1,3,3,NA,"Instruments",2,4,"right","right",0.697999954,1,1,0,1,NA,NA,NA,NA,NA,NA,NA,NA,NA,NA,NA,NA,NA,NA,NA,NA,NA,NA,NA,NA,NA,NA,NA,NA
"81","stim/objects/HouseObjects/thread2.png",155,59,155,0.9,"stim/21.jpeg",2,1,3,NA,"HouseObjects",1,4,"left","left",0.549999952,1,1,0,1,NA,NA,NA,NA,NA,NA,NA,NA,NA,NA,NA,NA,NA,NA,NA,NA,NA,NA,NA,NA,NA,NA,NA,NA
"197","stim/objects/Instruments/trumpet.png",156,59,156,0.5,"stim/44.jpeg",4,4,1,NA,"Instruments",2,4,"right","left",0.860000134,0,0,0,1,NA,NA,NA,NA,NA,NA,NA,NA,NA,NA,NA,NA,NA,NA,NA,NA,NA,NA,NA,NA,NA,NA,NA,NA
"204","stim/objects/Instruments/trumpet2.png",157,59,157,0.9,"stim/14.jpeg",1,4,3,NA,"Instruments",2,3,"right","left",0.557999849,0,0,0,1,NA,NA,NA,NA,NA,NA,NA,NA,NA,NA,NA,NA,NA,NA,NA,NA,NA,NA,NA,NA,NA,NA,NA,NA
"237","stim/objects/Instruments/xylophone.png",158,59,158,0.7,"stim/54.jpeg",5,4,2,NA,"Instruments",2,1,"right","right",0.642999887,1,1,0,1,NA,NA,NA,NA,NA,NA,NA,NA,NA,NA,NA,NA,NA,NA,NA,NA,NA,NA,NA,NA,NA,NA,NA,NA
"165","stim/objects/Instruments/timbal2.png",159,59,159,0.9,"stim/11.jpeg",1,1,3,NA,"Instruments",2,1,"right","right",0.935000181,1,1,0,1,NA,NA,NA,NA,NA,NA,NA,NA,NA,NA,NA,NA,NA,NA,NA,NA,NA,NA,NA,NA,NA,NA,NA,NA
"145","stim/objects/Instruments/tambourine.png",160,59,160,0.5,"stim/34.jpeg",3,4,1,NA,"Instruments",2,1,"right","left",0.531000137,0,0,0,1,NA,NA,NA,NA,NA,NA,NA,NA,NA,NA,NA,NA,NA,NA,NA,NA,NA,NA,NA,NA,NA,NA,NA,NA
"27","stim/objects/HouseObjects/saw.png",161,59,161,0.5,"stim/33.jpeg",3,3,1,NA,"HouseObjects",1,2,"left","right",0.851999998,0,0,0,1,NA,NA,NA,NA,NA,NA,NA,NA,NA,NA,NA,NA,NA,NA,NA,NA,NA,NA,NA,NA,NA,NA,NA,NA
"139","stim/objects/Instruments/speaker.png",162,59,162,0.5,"stim/33.jpeg",3,3,1,NA,"Instruments",2,1,"right","left",0.742000103,0,0,0,1,NA,NA,NA,NA,NA,NA,NA,NA,NA,NA,NA,NA,NA,NA,NA,NA,NA,NA,NA,NA,NA,NA,NA,NA
"59","stim/objects/HouseObjects/spraybottle.png",163,59,163,0.5,"stim/42.jpeg",4,2,1,NA,"HouseObjects",1,4,"left","left",0.611999989,1,1,0,1,NA,NA,NA,NA,NA,NA,NA,NA,NA,NA,NA,NA,NA,NA,NA,NA,NA,NA,NA,NA,NA,NA,NA,NA
"116","stim/objects/HouseObjects/wateringcan2.png",164,59,164,0.9,"stim/24.jpeg",2,4,3,NA,"HouseObjects",1,3,"left","left",0.536000013,1,1,0,1,NA,NA,NA,NA,NA,NA,NA,NA,NA,NA,NA,NA,NA,NA,NA,NA,NA,NA,NA,NA,NA,NA,NA,NA
"191","stim/objects/Instruments/trombone2.png",165,59,165,0.9,"stim/13.jpeg",1,3,3,NA,"Instruments",2,4,"right","right",0.832999945,1,1,0,1,NA,NA,NA,NA,NA,NA,NA,NA,NA,NA,NA,NA,NA,NA,NA,NA,NA,NA,NA,NA,NA,NA,NA,NA
"86","stim/objects/HouseObjects/towel.png",166,59,166,0.3,"stim/52.jpeg",5,2,2,NA,"HouseObjects",1,2,"left","right",0.763000011,0,0,0,1,NA,NA,NA,NA,NA,NA,NA,NA,NA,NA,NA,NA,NA,NA,NA,NA,NA,NA,NA,NA,NA,NA,NA,NA
"63","stim/objects/HouseObjects/teapot.png",167,59,167,0.5,"stim/43.jpeg",4,3,1,NA,"HouseObjects",1,4,"left","left",0.711999893,1,1,0,1,NA,NA,NA,NA,NA,NA,NA,NA,NA,NA,NA,NA,NA,NA,NA,NA,NA,NA,NA,NA,NA,NA,NA,NA
"40","stim/objects/HouseObjects/scale.png",168,59,168,0.5,"stim/34.jpeg",3,4,1,NA,"HouseObjects",1,3,"left","left",0.611000061,1,1,0,1,NA,NA,NA,NA,NA,NA,NA,NA,NA,NA,NA,NA,NA,NA,NA,NA,NA,NA,NA,NA,NA,NA,NA,NA
"10","stim/objects/HouseObjects/rug2.png",169,59,169,0.7,"stim/61.jpeg",6,1,2,NA,"HouseObjects",1,1,"left","left",0.612999916,1,1,0,1,NA,NA,NA,NA,NA,NA,NA,NA,NA,NA,NA,NA,NA,NA,NA,NA,NA,NA,NA,NA,NA,NA,NA,NA
"198","stim/objects/Instruments/trumpet.png",170,59,170,0.5,"stim/44.jpeg",4,4,1,NA,"Instruments",2,3,"right","left",0.562999964,0,0,0,1,NA,NA,NA,NA,NA,NA,NA,NA,NA,NA,NA,NA,NA,NA,NA,NA,NA,NA,NA,NA,NA,NA,NA,NA
"125","stim/objects/Instruments/record_player.png",171,59,171,0.5,"stim/31.jpeg",3,1,1,NA,"Instruments",2,4,"right","left",0.887000084,0,0,0,1,NA,NA,NA,NA,NA,NA,NA,NA,NA,NA,NA,NA,NA,NA,NA,NA,NA,NA,NA,NA,NA,NA,NA,NA
"177","stim/objects/Instruments/triangle2.png",172,59,172,0.9,"stim/12.jpeg",1,2,3,NA,"Instruments",2,2,"right","right",0.763000011,1,1,0,1,NA,NA,NA,NA,NA,NA,NA,NA,NA,NA,NA,NA,NA,NA,NA,NA,NA,NA,NA,NA,NA,NA,NA,NA
"111","stim/objects/HouseObjects/wateringcan.png",173,59,173,0.3,"stim/54.jpeg",5,4,2,NA,"HouseObjects",1,2,"left","right",0.721999884,0,0,0,1,NA,NA,NA,NA,NA,NA,NA,NA,NA,NA,NA,NA,NA,NA,NA,NA,NA,NA,NA,NA,NA,NA,NA,NA
"64","stim/objects/HouseObjects/teapot.png",174,59,174,0.5,"stim/43.jpeg",4,3,1,NA,"HouseObjects",1,2,"left","left",0.829999924,1,1,0,1,NA,NA,NA,NA,NA,NA,NA,NA,NA,NA,NA,NA,NA,NA,NA,NA,NA,NA,NA,NA,NA,NA,NA,NA
"117","stim/objects/HouseObjects/wateringcan2.png",175,59,175,0.9,"stim/24.jpeg",2,4,3,NA,"HouseObjects",1,3,"left","left",0.513000011,1,1,0,1,NA,NA,NA,NA,NA,NA,NA,NA,NA,NA,NA,NA,NA,NA,NA,NA,NA,NA,NA,NA,NA,NA,NA,NA
"154","stim/objects/Instruments/timbal.png",176,59,176,0.5,"stim/41.jpeg",4,1,1,NA,"Instruments",2,2,"right","left",0.645999908,0,0,0,1,NA,NA,NA,NA,NA,NA,NA,NA,NA,NA,NA,NA,NA,NA,NA,NA,NA,NA,NA,NA,NA,NA,NA,NA
"98","stim/objects/HouseObjects/vacuumcleaner.png",177,59,177,0.3,"stim/53.jpeg",5,3,2,NA,"HouseObjects",1,4,"left","right",0.65199995,0,0,0,1,NA,NA,NA,NA,NA,NA,NA,NA,NA,NA,NA,NA,NA,NA,NA,NA,NA,NA,NA,NA,NA,NA,NA,NA
"22","stim/objects/HouseObjects/safetypin2.png",178,59,178,0.7,"stim/62.jpeg",6,2,2,NA,"HouseObjects",1,3,"left","left",0.648999929,1,1,0,1,NA,NA,NA,NA,NA,NA,NA,NA,NA,NA,NA,NA,NA,NA,NA,NA,NA,NA,NA,NA,NA,NA,NA,NA
"238","stim/objects/Instruments/xylophone.png",179,59,179,0.7,"stim/54.jpeg",5,4,2,NA,"Instruments",2,1,"right","right",0.855999947,1,1,0,1,NA,NA,NA,NA,NA,NA,NA,NA,NA,NA,NA,NA,NA,NA,NA,NA,NA,NA,NA,NA,NA,NA,NA,NA
"222","stim/objects/Instruments/violin.png",180,59,180,0.7,"stim/52.jpeg",5,2,2,NA,"Instruments",2,2,"right","right",0.626000166,1,1,0,1,NA,NA,NA,NA,NA,NA,NA,NA,NA,NA,NA,NA,NA,NA,NA,NA,NA,NA,NA,NA,NA,NA,NA,NA
"155","stim/objects/Instruments/timbal.png",181,59,181,0.5,"stim/41.jpeg",4,1,1,NA,"Instruments",2,1,"right","left",0.812999964,0,0,0,1,NA,NA,NA,NA,NA,NA,NA,NA,NA,NA,NA,NA,NA,NA,NA,NA,NA,NA,NA,NA,NA,NA,NA,NA
"140","stim/objects/Instruments/speaker.png",182,59,182,0.5,"stim/33.jpeg",3,3,1,NA,"Instruments",2,3,"right","left",0.725000143,0,0,0,1,NA,NA,NA,NA,NA,NA,NA,NA,NA,NA,NA,NA,NA,NA,NA,NA,NA,NA,NA,NA,NA,NA,NA,NA
"205","stim/objects/Instruments/trumpet2.png",183,59,183,0.9,"stim/14.jpeg",1,4,3,NA,"Instruments",2,2,"right","right",0.628999949,1,1,0,1,NA,NA,NA,NA,NA,NA,NA,NA,NA,NA,NA,NA,NA,NA,NA,NA,NA,NA,NA,NA,NA,NA,NA,NA
"156","stim/objects/Instruments/timbal.png",184,59,184,0.5,"stim/41.jpeg",4,1,1,NA,"Instruments",2,4,"right","left",0.763999939,0,0,0,1,NA,NA,NA,NA,NA,NA,NA,NA,NA,NA,NA,NA,NA,NA,NA,NA,NA,NA,NA,NA,NA,NA,NA,NA
"192","stim/objects/Instruments/trombone2.png",185,59,185,0.9,"stim/13.jpeg",1,3,3,NA,"Instruments",2,3,"right","right",0.74000001,1,1,0,1,NA,NA,NA,NA,NA,NA,NA,NA,NA,NA,NA,NA,NA,NA,NA,NA,NA,NA,NA,NA,NA,NA,NA,NA
"239","stim/objects/Instruments/xylophone.png",186,59,186,0.7,"stim/54.jpeg",5,4,2,NA,"Instruments",2,3,"right","right",0.6650002,1,1,0,1,NA,NA,NA,NA,NA,NA,NA,NA,NA,NA,NA,NA,NA,NA,NA,NA,NA,NA,NA,NA,NA,NA,NA,NA
"178","stim/objects/Instruments/triangle2.png",187,59,187,0.9,"stim/12.jpeg",1,2,3,NA,"Instruments",2,3,"right","right",0.521000147,1,1,0,1,NA,NA,NA,NA,NA,NA,NA,NA,NA,NA,NA,NA,NA,NA,NA,NA,NA,NA,NA,NA,NA,NA,NA,NA
"82","stim/objects/HouseObjects/thread2.png",188,59,188,0.9,"stim/21.jpeg",2,1,3,NA,"HouseObjects",1,2,"left","left",0.609999895,1,1,0,1,NA,NA,NA,NA,NA,NA,NA,NA,NA,NA,NA,NA,NA,NA,NA,NA,NA,NA,NA,NA,NA,NA,NA,NA
"118","stim/objects/HouseObjects/wateringcan2.png",189,59,189,0.9,"stim/24.jpeg",2,4,3,NA,"HouseObjects",1,4,"left","left",0.483999968,1,1,0,1,NA,NA,NA,NA,NA,NA,NA,NA,NA,NA,NA,NA,NA,NA,NA,NA,NA,NA,NA,NA,NA,NA,NA,NA
"83","stim/objects/HouseObjects/thread2.png",190,59,190,0.9,"stim/21.jpeg",2,1,3,NA,"HouseObjects",1,4,"left","left",0.475000143,1,1,0,1,NA,NA,NA,NA,NA,NA,NA,NA,NA,NA,NA,NA,NA,NA,NA,NA,NA,NA,NA,NA,NA,NA,NA,NA
"28","stim/objects/HouseObjects/saw.png",191,59,191,0.5,"stim/33.jpeg",3,3,1,NA,"HouseObjects",1,1,"left","left",0.696999788,1,1,0,1,NA,NA,NA,NA,NA,NA,NA,NA,NA,NA,NA,NA,NA,NA,NA,NA,NA,NA,NA,NA,NA,NA,NA,NA
"119","stim/objects/HouseObjects/wateringcan2.png",192,59,192,0.9,"stim/24.jpeg",2,4,3,NA,"HouseObjects",1,4,"left","left",0.599999905,1,1,0,1,NA,NA,NA,NA,NA,NA,NA,NA,NA,NA,NA,NA,NA,NA,NA,NA,NA,NA,NA,NA,NA,NA,NA,NA
"185","stim/objects/Instruments/trombone.png",193,59,193,0.5,"stim/43.jpeg",4,3,1,NA,"Instruments",2,4,"right","right",0.662000179,1,1,0,1,NA,NA,NA,NA,NA,NA,NA,NA,NA,NA,NA,NA,NA,NA,NA,NA,NA,NA,NA,NA,NA,NA,NA,NA
"96","stim/objects/HouseObjects/towel2.png",194,59,194,0.9,"stim/22.jpeg",2,2,3,NA,"HouseObjects",1,2,"left","left",0.565000057,1,1,0,1,NA,NA,NA,NA,NA,NA,NA,NA,NA,NA,NA,NA,NA,NA,NA,NA,NA,NA,NA,NA,NA,NA,NA,NA
"193","stim/objects/Instruments/trombone2.png",195,59,195,0.9,"stim/13.jpeg",1,3,3,NA,"Instruments",2,2,"right","right",0.570999861,1,1,0,1,NA,NA,NA,NA,NA,NA,NA,NA,NA,NA,NA,NA,NA,NA,NA,NA,NA,NA,NA,NA,NA,NA,NA,NA
"4","stim/objects/HouseObjects/rug.png",196,59,196,0.5,"stim/31.jpeg",3,1,1,NA,"HouseObjects",1,3,"left","left",0.52699995,1,1,0,1,NA,NA,NA,NA,NA,NA,NA,NA,NA,NA,NA,NA,NA,NA,NA,NA,NA,NA,NA,NA,NA,NA,NA,NA
"84","stim/objects/HouseObjects/thread2.png",197,59,197,0.9,"stim/21.jpeg",2,1,3,NA,"HouseObjects",1,1,"left","left",0.548000097,1,1,0,1,NA,NA,NA,NA,NA,NA,NA,NA,NA,NA,NA,NA,NA,NA,NA,NA,NA,NA,NA,NA,NA,NA,NA,NA
"141","stim/objects/Instruments/speaker.png",198,59,198,0.5,"stim/33.jpeg",3,3,1,NA,"Instruments",2,3,"right","left",0.595000029,0,0,0,1,NA,NA,NA,NA,NA,NA,NA,NA,NA,NA,NA,NA,NA,NA,NA,NA,NA,NA,NA,NA,NA,NA,NA,NA
"29","stim/objects/HouseObjects/saw.png",199,59,199,0.5,"stim/33.jpeg",3,3,1,NA,"HouseObjects",1,3,"left","left",0.849999905,1,1,0,1,NA,NA,NA,NA,NA,NA,NA,NA,NA,NA,NA,NA,NA,NA,NA,NA,NA,NA,NA,NA,NA,NA,NA,NA
"224","stim/objects/Instruments/violin2.png",200,59,200,0.1,"stim/22.jpeg",2,2,3,NA,"Instruments",2,4,"right","left",0.554000139,0,0,0,1,NA,NA,NA,NA,NA,NA,NA,NA,NA,NA,NA,NA,NA,NA,NA,NA,NA,NA,NA,NA,NA,NA,NA,NA
"46","stim/objects/HouseObjects/scale2.png",201,59,201,0.7,"stim/64.jpeg",6,4,2,NA,"HouseObjects",1,2,"left","left",0.652000189,1,1,0,1,NA,NA,NA,NA,NA,NA,NA,NA,NA,NA,NA,NA,NA,NA,NA,NA,NA,NA,NA,NA,NA,NA,NA,NA
"99","stim/objects/HouseObjects/vacuumcleaner.png",202,59,202,0.3,"stim/53.jpeg",5,3,2,NA,"HouseObjects",1,3,"left","left",0.496000051,1,1,0,1,NA,NA,NA,NA,NA,NA,NA,NA,NA,NA,NA,NA,NA,NA,NA,NA,NA,NA,NA,NA,NA,NA,NA,NA
"5","stim/objects/HouseObjects/rug.png",203,59,203,0.5,"stim/31.jpeg",3,1,1,NA,"HouseObjects",1,1,"left","left",0.582000017,1,1,0,1,NA,NA,NA,NA,NA,NA,NA,NA,NA,NA,NA,NA,NA,NA,NA,NA,NA,NA,NA,NA,NA,NA,NA,NA
"166","stim/objects/Instruments/timbal2.png",204,59,204,0.9,"stim/11.jpeg",1,1,3,NA,"Instruments",2,1,"right","left",0.5849998,0,0,0,1,NA,NA,NA,NA,NA,NA,NA,NA,NA,NA,NA,NA,NA,NA,NA,NA,NA,NA,NA,NA,NA,NA,NA,NA
"170","stim/objects/Instruments/triangle.png",205,59,205,0.5,"stim/42.jpeg",4,2,1,NA,"Instruments",2,2,"right","left",0.921000004,0,0,0,1,NA,NA,NA,NA,NA,NA,NA,NA,NA,NA,NA,NA,NA,NA,NA,NA,NA,NA,NA,NA,NA,NA,NA,NA
"71","stim/objects/HouseObjects/thermometer.png",206,59,206,0.5,"stim/44.jpeg",4,4,1,NA,"HouseObjects",1,3,"left","left",0.809999943,1,1,0,1,NA,NA,NA,NA,NA,NA,NA,NA,NA,NA,NA,NA,NA,NA,NA,NA,NA,NA,NA,NA,NA,NA,NA,NA
"23","stim/objects/HouseObjects/safetypin2.png",207,59,207,0.7,"stim/62.jpeg",6,2,2,NA,"HouseObjects",1,1,"left","left",0.616000175,1,1,0,1,NA,NA,NA,NA,NA,NA,NA,NA,NA,NA,NA,NA,NA,NA,NA,NA,NA,NA,NA,NA,NA,NA,NA,NA
"120","stim/objects/HouseObjects/wateringcan2.png",208,59,208,0.9,"stim/24.jpeg",2,4,3,NA,"HouseObjects",1,2,"left","left",0.569999933,1,1,0,1,NA,NA,NA,NA,NA,NA,NA,NA,NA,NA,NA,NA,NA,NA,NA,NA,NA,NA,NA,NA,NA,NA,NA,NA
"105","stim/objects/HouseObjects/vacuumcleaner2.png",209,59,209,0.9,"stim/23.jpeg",2,3,3,NA,"HouseObjects",1,1,"left","left",0.684000015,1,1,0,1,NA,NA,NA,NA,NA,NA,NA,NA,NA,NA,NA,NA,NA,NA,NA,NA,NA,NA,NA,NA,NA,NA,NA,NA
"36","stim/objects/HouseObjects/saw2.png",210,59,210,0.7,"stim/63.jpeg",6,3,2,NA,"HouseObjects",1,4,"left","left",0.565000057,1,1,0,1,NA,NA,NA,NA,NA,NA,NA,NA,NA,NA,NA,NA,NA,NA,NA,NA,NA,NA,NA,NA,NA,NA,NA,NA
"11","stim/objects/HouseObjects/rug2.png",211,59,211,0.7,"stim/61.jpeg",6,1,2,NA,"HouseObjects",1,3,"left","right",0.678999901,0,0,0,1,NA,NA,NA,NA,NA,NA,NA,NA,NA,NA,NA,NA,NA,NA,NA,NA,NA,NA,NA,NA,NA,NA,NA,NA
"194","stim/objects/Instruments/trombone2.png",212,59,212,0.9,"stim/13.jpeg",1,3,3,NA,"Instruments",2,3,"right","right",0.559999943,1,1,0,1,NA,NA,NA,NA,NA,NA,NA,NA,NA,NA,NA,NA,NA,NA,NA,NA,NA,NA,NA,NA,NA,NA,NA,NA
"223","stim/objects/Instruments/violin.png",213,59,213,0.7,"stim/52.jpeg",5,2,2,NA,"Instruments",2,3,"right","right",0.75,1,1,0,1,NA,NA,NA,NA,NA,NA,NA,NA,NA,NA,NA,NA,NA,NA,NA,NA,NA,NA,NA,NA,NA,NA,NA,NA
"24","stim/objects/HouseObjects/safetypin2.png",214,59,214,0.7,"stim/62.jpeg",6,2,2,NA,"HouseObjects",1,4,"left","left",0.512000084,1,1,0,1,NA,NA,NA,NA,NA,NA,NA,NA,NA,NA,NA,NA,NA,NA,NA,NA,NA,NA,NA,NA,NA,NA,NA,NA
"179","stim/objects/Instruments/triangle2.png",215,59,215,0.9,"stim/12.jpeg",1,2,3,NA,"Instruments",2,3,"right","right",0.517000198,1,1,0,1,NA,NA,NA,NA,NA,NA,NA,NA,NA,NA,NA,NA,NA,NA,NA,NA,NA,NA,NA,NA,NA,NA,NA,NA
"215","stim/objects/Instruments/tuba.png",216,59,216,0.7,"stim/51.jpeg",5,1,2,NA,"Instruments",2,2,"right","right",0.582000017,1,1,0,1,NA,NA,NA,NA,NA,NA,NA,NA,NA,NA,NA,NA,NA,NA,NA,NA,NA,NA,NA,NA,NA,NA,NA,NA
"87","stim/objects/HouseObjects/towel.png",217,59,217,0.3,"stim/52.jpeg",5,2,2,NA,"HouseObjects",1,1,"left","right",0.640999794,0,0,0,1,NA,NA,NA,NA,NA,NA,NA,NA,NA,NA,NA,NA,NA,NA,NA,NA,NA,NA,NA,NA,NA,NA,NA,NA
"157","stim/objects/Instruments/timbal.png",218,59,218,0.5,"stim/41.jpeg",4,1,1,NA,"Instruments",2,2,"right","right",0.605999947,1,1,0,1,NA,NA,NA,NA,NA,NA,NA,NA,NA,NA,NA,NA,NA,NA,NA,NA,NA,NA,NA,NA,NA,NA,NA,NA
"199","stim/objects/Instruments/trumpet.png",219,59,219,0.5,"stim/44.jpeg",4,4,1,NA,"Instruments",2,2,"right","left",0.58100009,0,0,0,1,NA,NA,NA,NA,NA,NA,NA,NA,NA,NA,NA,NA,NA,NA,NA,NA,NA,NA,NA,NA,NA,NA,NA,NA
"47","stim/objects/HouseObjects/scale2.png",220,59,220,0.7,"stim/64.jpeg",6,4,2,NA,"HouseObjects",1,4,"left","left",0.530999899,1,1,0,1,NA,NA,NA,NA,NA,NA,NA,NA,NA,NA,NA,NA,NA,NA,NA,NA,NA,NA,NA,NA,NA,NA,NA,NA
"41","stim/objects/HouseObjects/scale.png",221,59,221,0.5,"stim/34.jpeg",3,4,1,NA,"HouseObjects",1,2,"left","left",0.568000078,1,1,0,1,NA,NA,NA,NA,NA,NA,NA,NA,NA,NA,NA,NA,NA,NA,NA,NA,NA,NA,NA,NA,NA,NA,NA,NA
"206","stim/objects/Instruments/trumpet2.png",222,59,222,0.9,"stim/14.jpeg",1,4,3,NA,"Instruments",2,1,"right","right",0.545000076,1,1,0,1,NA,NA,NA,NA,NA,NA,NA,NA,NA,NA,NA,NA,NA,NA,NA,NA,NA,NA,NA,NA,NA,NA,NA,NA
"146","stim/objects/Instruments/tambourine.png",223,59,223,0.5,"stim/34.jpeg",3,4,1,NA,"Instruments",2,1,"right","left",0.563000202,0,0,0,1,NA,NA,NA,NA,NA,NA,NA,NA,NA,NA,NA,NA,NA,NA,NA,NA,NA,NA,NA,NA,NA,NA,NA,NA
"65","stim/objects/HouseObjects/teapot.png",224,59,224,0.5,"stim/43.jpeg",4,3,1,NA,"HouseObjects",1,4,"left","left",0.682999849,1,1,0,1,NA,NA,NA,NA,NA,NA,NA,NA,NA,NA,NA,NA,NA,NA,NA,NA,NA,NA,NA,NA,NA,NA,NA,NA
"180","stim/objects/Instruments/triangle2.png",225,59,225,0.9,"stim/12.jpeg",1,2,3,NA,"Instruments",2,1,"right","right",0.523000002,1,1,0,1,NA,NA,NA,NA,NA,NA,NA,NA,NA,NA,NA,NA,NA,NA,NA,NA,NA,NA,NA,NA,NA,NA,NA,NA
"133","stim/objects/Instruments/saxophone.png",226,59,226,0.5,"stim/32.jpeg",3,2,1,NA,"Instruments",2,4,"right","left",0.638999939,0,0,0,1,NA,NA,NA,NA,NA,NA,NA,NA,NA,NA,NA,NA,NA,NA,NA,NA,NA,NA,NA,NA,NA,NA,NA,NA
"231","stim/objects/Instruments/vuvuzela.png",227,59,227,0.7,"stim/53.jpeg",5,3,2,NA,"Instruments",2,4,"right","right",0.510999918,1,1,0,1,NA,NA,NA,NA,NA,NA,NA,NA,NA,NA,NA,NA,NA,NA,NA,NA,NA,NA,NA,NA,NA,NA,NA,NA
"147","stim/objects/Instruments/tambourine.png",228,59,228,0.5,"stim/34.jpeg",3,4,1,NA,"Instruments",2,1,"right","left",0.528000116,0,0,0,1,NA,NA,NA,NA,NA,NA,NA,NA,NA,NA,NA,NA,NA,NA,NA,NA,NA,NA,NA,NA,NA,NA,NA,NA
"148","stim/objects/Instruments/tambourine.png",229,59,229,0.5,"stim/34.jpeg",3,4,1,NA,"Instruments",2,2,"right","left",0.627000093,0,0,0,1,NA,NA,NA,NA,NA,NA,NA,NA,NA,NA,NA,NA,NA,NA,NA,NA,NA,NA,NA,NA,NA,NA,NA,NA
"207","stim/objects/Instruments/trumpet2.png",230,59,230,0.9,"stim/14.jpeg",1,4,3,NA,"Instruments",2,3,"right","left",0.618000031,0,0,0,1,NA,NA,NA,NA,NA,NA,NA,NA,NA,NA,NA,NA,NA,NA,NA,NA,NA,NA,NA,NA,NA,NA,NA,NA
"106","stim/objects/HouseObjects/vacuumcleaner2.png",231,59,231,0.9,"stim/23.jpeg",2,3,3,NA,"HouseObjects",1,4,"left","left",0.518000126,1,1,0,1,NA,NA,NA,NA,NA,NA,NA,NA,NA,NA,NA,NA,NA,NA,NA,NA,NA,NA,NA,NA,NA,NA,NA,NA
"107","stim/objects/HouseObjects/vacuumcleaner2.png",232,59,232,0.9,"stim/23.jpeg",2,3,3,NA,"HouseObjects",1,4,"left","left",0.508999825,1,1,0,1,NA,NA,NA,NA,NA,NA,NA,NA,NA,NA,NA,NA,NA,NA,NA,NA,NA,NA,NA,NA,NA,NA,NA,NA
"171","stim/objects/Instruments/triangle.png",233,59,233,0.5,"stim/42.jpeg",4,2,1,NA,"Instruments",2,2,"right","right",0.625,1,1,0,1,NA,NA,NA,NA,NA,NA,NA,NA,NA,NA,NA,NA,NA,NA,NA,NA,NA,NA,NA,NA,NA,NA,NA,NA
"108","stim/objects/HouseObjects/vacuumcleaner2.png",234,59,234,0.9,"stim/23.jpeg",2,3,3,NA,"HouseObjects",1,1,"left","left",0.430000067,1,1,0,1,NA,NA,NA,NA,NA,NA,NA,NA,NA,NA,NA,NA,NA,NA,NA,NA,NA,NA,NA,NA,NA,NA,NA,NA
"144","stim/objects/Instruments/speaker2.png",235,59,235,0.3,"stim/63.jpeg",6,3,2,NA,"Instruments",2,3,"right","left",0.628000021,0,0,0,1,NA,NA,NA,NA,NA,NA,NA,NA,NA,NA,NA,NA,NA,NA,NA,NA,NA,NA,NA,NA,NA,NA,NA,NA
"208","stim/objects/Instruments/trumpet2.png",236,59,236,0.9,"stim/14.jpeg",1,4,3,NA,"Instruments",2,4,"right","right",0.546000004,1,1,0,1,NA,NA,NA,NA,NA,NA,NA,NA,NA,NA,NA,NA,NA,NA,NA,NA,NA,NA,NA,NA,NA,NA,NA,NA
"12","stim/objects/HouseObjects/rug2.png",237,59,237,0.7,"stim/61.jpeg",6,1,2,NA,"HouseObjects",1,3,"left","left",0.562000036,1,1,0,1,NA,NA,NA,NA,NA,NA,NA,NA,NA,NA,NA,NA,NA,NA,NA,NA,NA,NA,NA,NA,NA,NA,NA,NA
"53","stim/objects/HouseObjects/sponge.png",238,59,238,0.5,"stim/41.jpeg",4,1,1,NA,"HouseObjects",1,4,"left","left",0.697999954,1,1,0,1,NA,NA,NA,NA,NA,NA,NA,NA,NA,NA,NA,NA,NA,NA,NA,NA,NA,NA,NA,NA,NA,NA,NA,NA
"149","stim/objects/Instruments/tambourine.png",239,59,239,0.5,"stim/34.jpeg",3,4,1,NA,"Instruments",2,4,"right","left",0.491999865,0,0,0,1,NA,NA,NA,NA,NA,NA,NA,NA,NA,NA,NA,NA,NA,NA,NA,NA,NA,NA,NA,NA,NA,NA,NA,NA
"48","stim/objects/HouseObjects/scale2.png",240,59,240,0.7,"stim/64.jpeg",6,4,2,NA,"HouseObjects",1,4,"left","left",0.581999779,1,1,0,1,NA,NA,NA,NA,NA,NA,NA,NA,NA,NA,NA,NA,NA,NA,NA,NA,NA,NA,NA,NA,NA,NA,NA,NA
"274","stim/objects/HouseObjects/clothesdryingrack2.png",248,59,241,0.7,"stim/61.jpeg",6,1,2,1,"HouseObjects",1,4,"left","left",0.763999939,1,1,1,0,167,59,1,0.7,1,"stim/61.jpeg",6,1,"stim/61.jpeg",4,"right",1.011999846,1,3,1.246000051,3,1.01699996,167,0,0,NA,0,NA,0
"342","stim/objects/HouseObjects/garbagebin.png",249,59,242,0.9,"stim/21.jpeg",2,1,3,2,"HouseObjects",1,1,"left","left",0.631999969,1,1,1,0,NA,NA,NA,NA,NA,NA,NA,NA,NA,NA,NA,NA,NA,NA,NA,NA,NA,NA,NA,NA,NA,NA,NA,NA
"549","stim/objects/Instruments/keyboard.png",250,59,243,0.5,"stim/32.jpeg",3,2,1,1,"Instruments",2,2,"right","left",0.684000015,0,0,1,0,163,59,1,0.5,1,"stim/32.jpeg",3,2,"stim/32.jpeg",2,"right",0.660999775,1,2,1.06099987,3,1.605999947,163,0,1,NA,0,NA,0
"421","stim/objects/Instruments/bassguitar.png",251,59,244,0.5,"stim/42.jpeg",4,2,1,2,"Instruments",2,4,"right","left",0.721999884,0,0,1,0,NA,NA,NA,NA,NA,NA,NA,NA,NA,NA,NA,NA,NA,NA,NA,NA,NA,NA,NA,NA,NA,NA,NA,NA
"291","stim/objects/HouseObjects/doormat.png",252,59,245,0.9,"stim/21.jpeg",2,1,3,2,"HouseObjects",1,3,"left","left",0.496000051,1,1,1,0,NA,NA,NA,NA,NA,NA,NA,NA,NA,NA,NA,NA,NA,NA,NA,NA,NA,NA,NA,NA,NA,NA,NA,NA
"524","stim/objects/Instruments/grandpiano.png",253,59,246,0.9,"stim/13.jpeg",1,3,3,2,"Instruments",2,4,"right","right",0.573999882,1,1,1,0,NA,NA,NA,NA,NA,NA,NA,NA,NA,NA,NA,NA,NA,NA,NA,NA,NA,NA,NA,NA,NA,NA,NA,NA
"252","stim/objects/HouseObjects/basket2.png",254,59,247,0.3,"stim/51.jpeg",5,1,2,1,"HouseObjects",1,3,"left","left",0.760999918,1,1,1,0,30,59,1,0.3,1,"stim/51.jpeg",5,1,"stim/51.jpeg",3,"left",1.940999985,4,2,2.379999876,2,1.625,30,1,0,0,0,0,0
"526","stim/objects/Instruments/grandpiano.png",255,59,248,0.9,"stim/12.jpeg",1,2,3,2,"Instruments",2,2,"right","right",0.542999983,1,1,1,0,NA,NA,NA,NA,NA,NA,NA,NA,NA,NA,NA,NA,NA,NA,NA,NA,NA,NA,NA,NA,NA,NA,NA,NA
"490","stim/objects/Instruments/frenchhorn.png",256,59,249,0.9,"stim/14.jpeg",1,4,3,2,"Instruments",2,1,"right","right",0.755000114,1,1,1,0,NA,NA,NA,NA,NA,NA,NA,NA,NA,NA,NA,NA,NA,NA,NA,NA,NA,NA,NA,NA,NA,NA,NA,NA
"507","stim/objects/Instruments/gong.png",257,59,250,0.9,"stim/11.jpeg",1,1,3,2,"Instruments",2,4,"right","right",0.613999844,1,1,1,0,NA,NA,NA,NA,NA,NA,NA,NA,NA,NA,NA,NA,NA,NA,NA,NA,NA,NA,NA,NA,NA,NA,NA,NA
"473","stim/objects/Instruments/flutetrans.png",258,59,251,0.9,"stim/14.jpeg",1,4,3,2,"Instruments",2,4,"right","right",0.514999866,1,1,1,0,NA,NA,NA,NA,NA,NA,NA,NA,NA,NA,NA,NA,NA,NA,NA,NA,NA,NA,NA,NA,NA,NA,NA,NA
"385","stim/objects/HouseObjects/iron2.png",259,59,252,0.1,"stim/12.jpeg",1,2,3,1,"HouseObjects",1,4,"left","right",0.713999987,0,0,1,0,114,59,1,0.1,1,"stim/12.jpeg",1,2,"stim/12.jpeg",4,"left",1.863999844,2,3,1.604000092,2,1.586999893,114,1,0,0,0,0,0
"381","stim/objects/HouseObjects/handbrush2.png",260,59,253,0.1,"stim/14.jpeg",1,4,3,1,"HouseObjects",1,2,"left","right",0.546000004,0,0,1,0,33,59,1,0.1,1,"stim/14.jpeg",1,4,"stim/14.jpeg",2,"right",1.257999897,2,3,2.461999893,4,1.529999971,33,0,0,NA,0,NA,0
"568","stim/objects/Instruments/pipepiano2.png",261,59,254,0.1,"stim/23.jpeg",2,3,3,1,"Instruments",2,3,"right","left",0.476999998,0,0,1,0,15,59,1,0.1,2,"stim/23.jpeg",2,3,"stim/23.jpeg",3,"left",0.885999918,3,1,4.417000055,1,1.191999912,15,1,0,0,0,0,0
"474","stim/objects/Instruments/flutetrans.png",262,59,255,0.9,"stim/12.jpeg",1,2,3,2,"Instruments",2,1,"right","right",0.569999933,1,1,1,0,NA,NA,NA,NA,NA,NA,NA,NA,NA,NA,NA,NA,NA,NA,NA,NA,NA,NA,NA,NA,NA,NA,NA,NA
"279","stim/objects/HouseObjects/coffee.png",263,59,256,0.7,"stim/61.jpeg",6,1,2,2,"HouseObjects",1,1,"left","left",0.794999838,1,1,1,0,NA,NA,NA,NA,NA,NA,NA,NA,NA,NA,NA,NA,NA,NA,NA,NA,NA,NA,NA,NA,NA,NA,NA,NA
"475","stim/objects/Instruments/flutetrans.png",264,59,257,0.9,"stim/14.jpeg",1,4,3,2,"Instruments",2,1,"right","right",0.601000071,1,1,1,0,NA,NA,NA,NA,NA,NA,NA,NA,NA,NA,NA,NA,NA,NA,NA,NA,NA,NA,NA,NA,NA,NA,NA,NA
"309","stim/objects/HouseObjects/dustpan.png",265,59,258,0.9,"stim/23.jpeg",2,3,3,2,"HouseObjects",1,1,"left","left",0.508000135,1,1,1,0,NA,NA,NA,NA,NA,NA,NA,NA,NA,NA,NA,NA,NA,NA,NA,NA,NA,NA,NA,NA,NA,NA,NA,NA
"426","stim/objects/Instruments/cello2.png",266,59,259,0.3,"stim/63.jpeg",6,3,2,1,"Instruments",2,4,"right","left",0.562000036,0,0,1,0,18,59,1,0.3,2,"stim/63.jpeg",6,3,"stim/63.jpeg",4,"left",1.495999813,4,4,3.150999784,3,4.181999922,18,1,0,0,0,0,0
"541","stim/objects/Instruments/guitarcase.png",267,59,260,0.5,"stim/32.jpeg",3,2,1,1,"Instruments",2,2,"right","left",0.636000156,0,0,1,0,51,59,1,0.5,1,"stim/32.jpeg",3,2,"stim/32.jpeg",2,"left",1.424000025,3,2,2.16899991,2,2.062999725,51,1,1,1,1,1,0
"343","stim/objects/HouseObjects/garbagebin.png",268,59,261,0.9,"stim/21.jpeg",2,1,3,2,"HouseObjects",1,3,"left","left",0.513999939,1,1,1,0,NA,NA,NA,NA,NA,NA,NA,NA,NA,NA,NA,NA,NA,NA,NA,NA,NA,NA,NA,NA,NA,NA,NA,NA
"292","stim/objects/HouseObjects/doormat.png",269,59,262,0.9,"stim/23.jpeg",2,3,3,2,"HouseObjects",1,3,"left","left",0.407000065,1,1,1,0,NA,NA,NA,NA,NA,NA,NA,NA,NA,NA,NA,NA,NA,NA,NA,NA,NA,NA,NA,NA,NA,NA,NA,NA
"307","stim/objects/HouseObjects/doormat2.png",270,59,263,0.1,"stim/11.jpeg",1,1,3,1,"HouseObjects",1,4,"left","right",0.478000164,0,0,1,0,142,59,1,0.1,1,"stim/11.jpeg",1,1,"stim/11.jpeg",4,"right",0.52699995,2,3,1.493999958,4,1.881000042,142,0,0,NA,1,NA,0
"448","stim/objects/Instruments/electricdrumset.png",271,59,264,0.7,"stim/52.jpeg",5,2,2,2,"Instruments",2,3,"right","right",0.801000118,1,1,1,0,NA,NA,NA,NA,NA,NA,NA,NA,NA,NA,NA,NA,NA,NA,NA,NA,NA,NA,NA,NA,NA,NA,NA,NA
"249","stim/objects/HouseObjects/barbecuelighter2.png",272,59,265,0.3,"stim/54.jpeg",5,4,2,1,"HouseObjects",1,1,"left","right",0.679000139,0,0,1,0,84,59,1,0.3,1,"stim/54.jpeg",5,4,"stim/54.jpeg",1,"right",0.529999971,1,2,1.401000023,1,1.747999907,84,0,0,NA,1,NA,0
"558","stim/objects/Instruments/metronome2.png",273,59,266,0.1,"stim/22.jpeg",2,2,3,1,"Instruments",2,3,"right","left",0.520999908,0,0,1,0,182,59,1,0.1,2,"stim/22.jpeg",2,2,"stim/22.jpeg",3,"left",1.135999918,3,3,1.319999933,3,1.337999821,182,1,0,0,1,1,0
"383","stim/objects/HouseObjects/handvacuum2.png",274,59,267,0.1,"stim/11.jpeg",1,1,3,1,"HouseObjects",1,2,"left","right",0.657999992,0,0,1,0,178,59,1,0.1,1,"stim/11.jpeg",1,1,"stim/11.jpeg",2,"left",1.359999895,4,1,2.735999823,3,2.914999962,178,1,1,1,0,0,0
"509","stim/objects/Instruments/gong.png",275,59,268,0.9,"stim/11.jpeg",1,1,3,2,"Instruments",2,3,"right","left",0.924000025,0,0,1,0,NA,NA,NA,NA,NA,NA,NA,NA,NA,NA,NA,NA,NA,NA,NA,NA,NA,NA,NA,NA,NA,NA,NA,NA
"559","stim/objects/Instruments/musicsheet.png",276,59,269,0.5,"stim/44.jpeg",4,4,1,1,"Instruments",2,2,"right","left",0.71600008,0,0,1,0,96,59,1,0.5,2,"stim/44.jpeg",4,4,"stim/44.jpeg",2,"right",0.872999907,2,4,2.038000107,3,1.556999922,96,0,1,NA,0,NA,0
"311","stim/objects/HouseObjects/dustpan.png",277,59,270,0.9,"stim/21.jpeg",2,1,3,2,"HouseObjects",1,2,"left","left",0.60800004,1,1,1,0,NA,NA,NA,NA,NA,NA,NA,NA,NA,NA,NA,NA,NA,NA,NA,NA,NA,NA,NA,NA,NA,NA,NA,NA
"398","stim/objects/HouseObjects/pitcher.png",278,59,271,0.3,"stim/52.jpeg",5,2,2,1,"HouseObjects",1,2,"left","right",0.5849998,0,0,1,0,157,59,1,0.3,1,"stim/52.jpeg",5,2,"stim/52.jpeg",2,"right",1.277999878,1,2,1.773000002,2,1.398000002,157,0,1,NA,1,NA,0
"402","stim/objects/HouseObjects/remote.png",279,59,272,0.3,"stim/54.jpeg",5,4,2,1,"HouseObjects",1,3,"left","right",0.73300004,0,0,1,0,116,59,1,0.3,1,"stim/54.jpeg",5,4,"stim/54.jpeg",3,"right",1.564999819,2,1,2.006000042,1,3.746999979,116,0,0,NA,0,NA,0
"328","stim/objects/HouseObjects/flyswatter.png",280,59,273,0.9,"stim/22.jpeg",2,2,3,2,"HouseObjects",1,2,"left","left",0.726000071,1,1,1,0,NA,NA,NA,NA,NA,NA,NA,NA,NA,NA,NA,NA,NA,NA,NA,NA,NA,NA,NA,NA,NA,NA,NA,NA
"544","stim/objects/Instruments/harmonica2.png",281,59,274,0.9,"stim/11.jpeg",1,1,3,1,"Instruments",2,3,"right","right",0.592999935,1,1,1,0,122,59,1,0.9,2,"stim/11.jpeg",1,1,"stim/11.jpeg",3,"right",0.643999815,1,3,1.603999853,4,1.947999954,122,0,0,NA,0,NA,0
"511","stim/objects/Instruments/gong.png",282,59,275,0.9,"stim/14.jpeg",1,4,3,2,"Instruments",2,4,"right","right",0.512000084,1,1,1,0,NA,NA,NA,NA,NA,NA,NA,NA,NA,NA,NA,NA,NA,NA,NA,NA,NA,NA,NA,NA,NA,NA,NA,NA
"361","stim/objects/HouseObjects/glass.png",283,59,276,0.9,"stim/24.jpeg",2,4,3,2,"HouseObjects",1,1,"left","left",0.578999996,1,1,1,0,NA,NA,NA,NA,NA,NA,NA,NA,NA,NA,NA,NA,NA,NA,NA,NA,NA,NA,NA,NA,NA,NA,NA,NA
"512","stim/objects/Instruments/gong.png",284,59,277,0.9,"stim/12.jpeg",1,2,3,2,"Instruments",2,2,"right","right",0.66899991,1,1,1,0,NA,NA,NA,NA,NA,NA,NA,NA,NA,NA,NA,NA,NA,NA,NA,NA,NA,NA,NA,NA,NA,NA,NA,NA
"550","stim/objects/Instruments/keyboard2.png",285,59,278,0.9,"stim/14.jpeg",1,4,3,1,"Instruments",2,2,"right","right",0.648000002,1,1,1,0,169,59,1,0.9,2,"stim/14.jpeg",1,4,"stim/14.jpeg",2,"right",0.57799983,1,1,1.556999922,2,1.881999731,169,0,0,NA,1,NA,0
"476","stim/objects/Instruments/flutetrans.png",286,59,279,0.9,"stim/13.jpeg",1,3,3,2,"Instruments",2,2,"right","right",0.5,1,1,1,0,NA,NA,NA,NA,NA,NA,NA,NA,NA,NA,NA,NA,NA,NA,NA,NA,NA,NA,NA,NA,NA,NA,NA,NA
"404","stim/objects/HouseObjects/rubbergloves.png",287,59,280,0.3,"stim/51.jpeg",5,1,2,1,"HouseObjects",1,1,"left","left",0.464999914,1,1,1,0,144,59,1,0.3,1,"stim/51.jpeg",5,1,"stim/51.jpeg",1,"right",0.777999878,2,3,1.552999973,3,1.264999866,144,0,0,NA,0,NA,0
"378","stim/objects/HouseObjects/hairdryer.png",288,59,281,0.5,"stim/34.jpeg",3,4,1,1,"HouseObjects",1,3,"left","left",0.731999874,1,1,1,0,176,59,1,0.5,1,"stim/34.jpeg",3,4,"stim/34.jpeg",3,"right",0.61500001,2,3,1.101999998,3,1.634000063,176,0,0,NA,1,NA,0
"313","stim/objects/HouseObjects/dustpan.png",289,59,282,0.9,"stim/22.jpeg",2,2,3,2,"HouseObjects",1,3,"left","left",0.506000042,1,1,1,0,NA,NA,NA,NA,NA,NA,NA,NA,NA,NA,NA,NA,NA,NA,NA,NA,NA,NA,NA,NA,NA,NA,NA,NA
"403","stim/objects/HouseObjects/remote2.png",290,59,283,0.9,"stim/21.jpeg",2,1,3,1,"HouseObjects",1,2,"left","left",0.457999945,1,1,1,0,62,59,1,0.9,1,"stim/21.jpeg",2,1,"stim/21.jpeg",2,"right",0.55099988,2,2,1.720000029,1,1.073999882,62,0,0,NA,0,NA,0
"477","stim/objects/Instruments/flutetrans.png",291,59,284,0.9,"stim/12.jpeg",1,2,3,2,"Instruments",2,3,"right","right",0.56799984,1,1,1,0,NA,NA,NA,NA,NA,NA,NA,NA,NA,NA,NA,NA,NA,NA,NA,NA,NA,NA,NA,NA,NA,NA,NA,NA
"329","stim/objects/HouseObjects/flyswatter.png",292,59,285,0.9,"stim/21.jpeg",2,1,3,2,"HouseObjects",1,3,"left","left",0.680000067,1,1,1,0,NA,NA,NA,NA,NA,NA,NA,NA,NA,NA,NA,NA,NA,NA,NA,NA,NA,NA,NA,NA,NA,NA,NA,NA
"250","stim/objects/HouseObjects/basket.png",293,59,286,0.5,"stim/34.jpeg",3,4,1,2,"HouseObjects",1,4,"left","left",0.895999908,1,1,1,0,NA,NA,NA,NA,NA,NA,NA,NA,NA,NA,NA,NA,NA,NA,NA,NA,NA,NA,NA,NA,NA,NA,NA,NA
"287","stim/objects/HouseObjects/dishsoap.png",294,59,287,0.7,"stim/61.jpeg",6,1,2,2,"HouseObjects",1,3,"left","left",0.578999996,1,1,1,0,NA,NA,NA,NA,NA,NA,NA,NA,NA,NA,NA,NA,NA,NA,NA,NA,NA,NA,NA,NA,NA,NA,NA,NA
"390","stim/objects/HouseObjects/knife.png",295,59,288,0.5,"stim/43.jpeg",4,3,1,1,"HouseObjects",1,1,"left","left",0.842000008,1,1,1,0,35,59,1,0.5,2,"stim/43.jpeg",4,3,"stim/43.jpeg",1,"right",1.378999949,2,2,2.694999933,3,2.015999794,35,0,0,NA,0,NA,0
"396","stim/objects/HouseObjects/pan.png",296,59,289,0.3,"stim/51.jpeg",5,1,2,1,"HouseObjects",1,4,"left","right",0.815999985,0,0,1,0,166,59,1,0.3,1,"stim/51.jpeg",5,1,"stim/51.jpeg",4,"right",0.568000078,1,1,1.479999781,2,1.664999723,166,0,1,NA,0,NA,0
"443","stim/objects/Instruments/doublebass2.png",297,59,290,0.3,"stim/64.jpeg",6,4,2,1,"Instruments",2,2,"right","left",0.571999788,0,0,1,0,6,59,1,0.3,2,"stim/64.jpeg",6,4,"stim/64.jpeg",2,"right",2.369999886,1,3,5.187000036,2,3.013999939,6,0,0,NA,1,NA,0
"478","stim/objects/Instruments/flutetrans.png",298,59,291,0.9,"stim/13.jpeg",1,3,3,2,"Instruments",2,2,"right","right",0.830000162,1,1,1,0,NA,NA,NA,NA,NA,NA,NA,NA,NA,NA,NA,NA,NA,NA,NA,NA,NA,NA,NA,NA,NA,NA,NA,NA
"288","stim/objects/HouseObjects/dishsoap.png",299,59,292,0.7,"stim/62.jpeg",6,2,2,2,"HouseObjects",1,1,"left","left",0.651000023,1,1,1,0,NA,NA,NA,NA,NA,NA,NA,NA,NA,NA,NA,NA,NA,NA,NA,NA,NA,NA,NA,NA,NA,NA,NA,NA
"416","stim/objects/Instruments/banjo.png",300,59,293,0.5,"stim/33.jpeg",3,3,1,2,"Instruments",2,2,"right","right",0.572999954,1,1,1,0,NA,NA,NA,NA,NA,NA,NA,NA,NA,NA,NA,NA,NA,NA,NA,NA,NA,NA,NA,NA,NA,NA,NA,NA
"347","stim/objects/HouseObjects/garbagebin.png",301,59,294,0.9,"stim/24.jpeg",2,4,3,2,"HouseObjects",1,1,"left","left",0.506000042,1,1,1,0,NA,NA,NA,NA,NA,NA,NA,NA,NA,NA,NA,NA,NA,NA,NA,NA,NA,NA,NA,NA,NA,NA,NA,NA
"418","stim/objects/Instruments/bassdrum.png",302,59,295,0.5,"stim/34.jpeg",3,4,1,2,"Instruments",2,3,"right","left",0.598999977,0,0,1,0,NA,NA,NA,NA,NA,NA,NA,NA,NA,NA,NA,NA,NA,NA,NA,NA,NA,NA,NA,NA,NA,NA,NA,NA
"433","stim/objects/Instruments/cornet.png",303,59,296,0.5,"stim/43.jpeg",4,3,1,2,"Instruments",2,4,"right","left",0.648000002,0,0,1,0,NA,NA,NA,NA,NA,NA,NA,NA,NA,NA,NA,NA,NA,NA,NA,NA,NA,NA,NA,NA,NA,NA,NA,NA
"491","stim/objects/Instruments/frenchhorn.png",304,59,297,0.9,"stim/11.jpeg",1,1,3,2,"Instruments",2,2,"right","right",0.697999954,1,1,1,0,NA,NA,NA,NA,NA,NA,NA,NA,NA,NA,NA,NA,NA,NA,NA,NA,NA,NA,NA,NA,NA,NA,NA,NA
"457","stim/objects/Instruments/flute.png",305,59,298,0.9,"stim/13.jpeg",1,3,3,2,"Instruments",2,4,"right","right",0.569999933,1,1,1,0,NA,NA,NA,NA,NA,NA,NA,NA,NA,NA,NA,NA,NA,NA,NA,NA,NA,NA,NA,NA,NA,NA,NA,NA
"295","stim/objects/HouseObjects/doormat.png",306,59,299,0.9,"stim/21.jpeg",2,1,3,2,"HouseObjects",1,2,"left","left",0.512000084,1,1,1,0,NA,NA,NA,NA,NA,NA,NA,NA,NA,NA,NA,NA,NA,NA,NA,NA,NA,NA,NA,NA,NA,NA,NA,NA
"283","stim/objects/HouseObjects/cushion.png",307,59,300,0.7,"stim/62.jpeg",6,2,2,2,"HouseObjects",1,3,"left","left",0.619000196,1,1,1,0,NA,NA,NA,NA,NA,NA,NA,NA,NA,NA,NA,NA,NA,NA,NA,NA,NA,NA,NA,NA,NA,NA,NA,NA
"348","stim/objects/HouseObjects/garbagebin.png",308,59,301,0.9,"stim/23.jpeg",2,3,3,2,"HouseObjects",1,1,"left","left",0.414000034,1,1,1,0,NA,NA,NA,NA,NA,NA,NA,NA,NA,NA,NA,NA,NA,NA,NA,NA,NA,NA,NA,NA,NA,NA,NA,NA
"492","stim/objects/Instruments/frenchhorn.png",309,59,302,0.9,"stim/14.jpeg",1,4,3,2,"Instruments",2,1,"right","right",0.54399991,1,1,1,0,NA,NA,NA,NA,NA,NA,NA,NA,NA,NA,NA,NA,NA,NA,NA,NA,NA,NA,NA,NA,NA,NA,NA,NA
"513","stim/objects/Instruments/gong.png",310,59,303,0.9,"stim/14.jpeg",1,4,3,2,"Instruments",2,1,"right","right",0.416999817,1,1,1,0,NA,NA,NA,NA,NA,NA,NA,NA,NA,NA,NA,NA,NA,NA,NA,NA,NA,NA,NA,NA,NA,NA,NA,NA
"479","stim/objects/Instruments/flutetrans.png",311,59,304,0.9,"stim/12.jpeg",1,2,3,2,"Instruments",2,4,"right","right",0.864000082,1,1,1,0,NA,NA,NA,NA,NA,NA,NA,NA,NA,NA,NA,NA,NA,NA,NA,NA,NA,NA,NA,NA,NA,NA,NA,NA
"493","stim/objects/Instruments/frenchhorn.png",312,59,305,0.9,"stim/14.jpeg",1,4,3,2,"Instruments",2,1,"right","right",0.48300004,1,1,1,0,NA,NA,NA,NA,NA,NA,NA,NA,NA,NA,NA,NA,NA,NA,NA,NA,NA,NA,NA,NA,NA,NA,NA,NA
"458","stim/objects/Instruments/flute.png",313,59,306,0.9,"stim/11.jpeg",1,1,3,2,"Instruments",2,1,"right","right",0.551000118,1,1,1,0,NA,NA,NA,NA,NA,NA,NA,NA,NA,NA,NA,NA,NA,NA,NA,NA,NA,NA,NA,NA,NA,NA,NA,NA
"314","stim/objects/HouseObjects/dustpan.png",314,59,307,0.9,"stim/23.jpeg",2,3,3,2,"HouseObjects",1,4,"left","left",0.595999956,1,1,1,0,NA,NA,NA,NA,NA,NA,NA,NA,NA,NA,NA,NA,NA,NA,NA,NA,NA,NA,NA,NA,NA,NA,NA,NA
"432","stim/objects/Instruments/clarinet2.png",315,59,308,0.3,"stim/61.jpeg",6,1,2,1,"Instruments",2,3,"right","left",0.492000103,0,0,1,0,29,59,1,0.3,2,"stim/61.jpeg",6,1,"stim/61.jpeg",3,"left",1.700000048,2,3,1.510999918,2,2.496999741,29,1,0,0,0,0,0
"540","stim/objects/Instruments/grandpiano2.png",316,59,309,0.9,"stim/13.jpeg",1,3,3,1,"Instruments",2,1,"right","right",0.589999914,1,1,1,0,113,59,1,0.9,2,"stim/13.jpeg",1,3,"stim/13.jpeg",1,"right",0.689999819,2,3,2.118999958,2,1.530999899,113,0,1,NA,0,NA,0
"480","stim/objects/Instruments/flutetrans.png",317,59,310,0.9,"stim/12.jpeg",1,2,3,2,"Instruments",2,1,"right","right",0.69900012,1,1,1,0,NA,NA,NA,NA,NA,NA,NA,NA,NA,NA,NA,NA,NA,NA,NA,NA,NA,NA,NA,NA,NA,NA,NA,NA
"435","stim/objects/Instruments/cornet2.png",318,59,311,0.3,"stim/62.jpeg",6,2,2,1,"Instruments",2,2,"right","left",0.559999943,0,0,1,0,85,59,1,0.3,2,"stim/62.jpeg",6,2,"stim/62.jpeg",2,"right",2.227999926,1,4,2.368999958,3,2.628999949,85,0,0,NA,0,NA,0
"514","stim/objects/Instruments/gong.png",319,59,312,0.9,"stim/13.jpeg",1,3,3,2,"Instruments",2,2,"right","left",0.498999834,0,0,1,0,NA,NA,NA,NA,NA,NA,NA,NA,NA,NA,NA,NA,NA,NA,NA,NA,NA,NA,NA,NA,NA,NA,NA,NA
"444","stim/objects/Instruments/drums.png",320,59,313,0.7,"stim/53.jpeg",5,3,2,2,"Instruments",2,2,"right","right",0.645999908,1,1,1,0,NA,NA,NA,NA,NA,NA,NA,NA,NA,NA,NA,NA,NA,NA,NA,NA,NA,NA,NA,NA,NA,NA,NA,NA
"555","stim/objects/Instruments/marimba.png",321,59,314,0.5,"stim/42.jpeg",4,2,1,1,"Instruments",2,4,"right","right",0.721999884,1,1,1,0,102,59,1,0.5,2,"stim/42.jpeg",4,2,"stim/42.jpeg",4,"right",1.174000025,2,4,6.447000027,2,2.597999811,102,0,0,NA,0,NA,0
"481","stim/objects/Instruments/flutetrans.png",322,59,315,0.9,"stim/11.jpeg",1,1,3,2,"Instruments",2,3,"right","right",0.621999979,1,1,1,0,NA,NA,NA,NA,NA,NA,NA,NA,NA,NA,NA,NA,NA,NA,NA,NA,NA,NA,NA,NA,NA,NA,NA,NA
"459","stim/objects/Instruments/flute.png",323,59,316,0.9,"stim/12.jpeg",1,2,3,2,"Instruments",2,2,"right","right",0.516000032,1,1,1,0,NA,NA,NA,NA,NA,NA,NA,NA,NA,NA,NA,NA,NA,NA,NA,NA,NA,NA,NA,NA,NA,NA,NA,NA
"330","stim/objects/HouseObjects/flyswatter.png",324,59,317,0.9,"stim/22.jpeg",2,2,3,2,"HouseObjects",1,1,"left","left",0.522000074,1,1,1,0,NA,NA,NA,NA,NA,NA,NA,NA,NA,NA,NA,NA,NA,NA,NA,NA,NA,NA,NA,NA,NA,NA,NA,NA
"351","stim/objects/HouseObjects/garbagebin.png",325,59,318,0.9,"stim/24.jpeg",2,4,3,2,"HouseObjects",1,1,"left","left",0.592000008,1,1,1,0,NA,NA,NA,NA,NA,NA,NA,NA,NA,NA,NA,NA,NA,NA,NA,NA,NA,NA,NA,NA,NA,NA,NA,NA
"341","stim/objects/HouseObjects/flyswatter2.png",326,59,319,0.1,"stim/13.jpeg",1,3,3,1,"HouseObjects",1,3,"left","right",0.618000031,0,0,1,0,192,59,1,0.1,1,"stim/13.jpeg",1,3,"stim/13.jpeg",3,"right",0.611000061,2,3,1.599999905,1,2.662999868,192,0,1,NA,0,NA,0
"528","stim/objects/Instruments/grandpiano.png",327,59,320,0.9,"stim/12.jpeg",1,2,3,2,"Instruments",2,2,"right","right",0.628999949,1,1,1,0,NA,NA,NA,NA,NA,NA,NA,NA,NA,NA,NA,NA,NA,NA,NA,NA,NA,NA,NA,NA,NA,NA,NA,NA
"247","stim/objects/HouseObjects/barbecuelighter.png",328,59,321,0.5,"stim/34.jpeg",3,4,1,2,"HouseObjects",1,1,"left","left",0.625999928,1,1,1,0,NA,NA,NA,NA,NA,NA,NA,NA,NA,NA,NA,NA,NA,NA,NA,NA,NA,NA,NA,NA,NA,NA,NA,NA
"363","stim/objects/HouseObjects/glass.png",329,59,322,0.9,"stim/24.jpeg",2,4,3,2,"HouseObjects",1,4,"left","left",0.578999996,1,1,1,0,NA,NA,NA,NA,NA,NA,NA,NA,NA,NA,NA,NA,NA,NA,NA,NA,NA,NA,NA,NA,NA,NA,NA,NA
"345","stim/objects/HouseObjects/garbagebin.png",330,59,323,0.9,"stim/22.jpeg",2,2,3,2,"HouseObjects",1,2,"left","left",0.416999817,1,1,1,0,NA,NA,NA,NA,NA,NA,NA,NA,NA,NA,NA,NA,NA,NA,NA,NA,NA,NA,NA,NA,NA,NA,NA,NA
"516","stim/objects/Instruments/gong.png",331,59,324,0.9,"stim/13.jpeg",1,3,3,2,"Instruments",2,2,"right","right",0.493999958,1,1,1,0,NA,NA,NA,NA,NA,NA,NA,NA,NA,NA,NA,NA,NA,NA,NA,NA,NA,NA,NA,NA,NA,NA,NA,NA
"316","stim/objects/HouseObjects/dustpan.png",332,59,325,0.9,"stim/22.jpeg",2,2,3,2,"HouseObjects",1,1,"left","left",0.482000113,1,1,1,0,NA,NA,NA,NA,NA,NA,NA,NA,NA,NA,NA,NA,NA,NA,NA,NA,NA,NA,NA,NA,NA,NA,NA,NA
"427","stim/objects/Instruments/chime.png",333,59,326,0.5,"stim/41.jpeg",4,1,1,2,"Instruments",2,2,"right","right",0.692000151,1,1,1,0,NA,NA,NA,NA,NA,NA,NA,NA,NA,NA,NA,NA,NA,NA,NA,NA,NA,NA,NA,NA,NA,NA,NA,NA
"269","stim/objects/HouseObjects/clock.png",334,59,327,0.5,"stim/43.jpeg",4,3,1,2,"HouseObjects",1,1,"left","left",0.611999989,1,1,1,0,NA,NA,NA,NA,NA,NA,NA,NA,NA,NA,NA,NA,NA,NA,NA,NA,NA,NA,NA,NA,NA,NA,NA,NA
"460","stim/objects/Instruments/flute.png",335,59,328,0.9,"stim/13.jpeg",1,3,3,2,"Instruments",2,3,"right","right",0.677000046,1,1,1,0,NA,NA,NA,NA,NA,NA,NA,NA,NA,NA,NA,NA,NA,NA,NA,NA,NA,NA,NA,NA,NA,NA,NA,NA
"434","stim/objects/Instruments/cornet.png",336,59,329,0.5,"stim/42.jpeg",4,2,1,2,"Instruments",2,3,"right","left",0.447000027,0,0,1,0,NA,NA,NA,NA,NA,NA,NA,NA,NA,NA,NA,NA,NA,NA,NA,NA,NA,NA,NA,NA,NA,NA,NA,NA
"346","stim/objects/HouseObjects/garbagebin.png",337,59,330,0.9,"stim/23.jpeg",2,3,3,2,"HouseObjects",1,2,"left","left",0.535000086,1,1,1,0,NA,NA,NA,NA,NA,NA,NA,NA,NA,NA,NA,NA,NA,NA,NA,NA,NA,NA,NA,NA,NA,NA,NA,NA
"296","stim/objects/HouseObjects/doormat.png",338,59,331,0.9,"stim/24.jpeg",2,4,3,2,"HouseObjects",1,2,"left","left",0.582999945,1,1,1,0,NA,NA,NA,NA,NA,NA,NA,NA,NA,NA,NA,NA,NA,NA,NA,NA,NA,NA,NA,NA,NA,NA,NA,NA
"352","stim/objects/HouseObjects/garbagebin.png",339,59,332,0.9,"stim/22.jpeg",2,2,3,2,"HouseObjects",1,2,"left","left",0.496999979,1,1,1,0,NA,NA,NA,NA,NA,NA,NA,NA,NA,NA,NA,NA,NA,NA,NA,NA,NA,NA,NA,NA,NA,NA,NA,NA
"364","stim/objects/HouseObjects/glass.png",340,59,333,0.9,"stim/21.jpeg",2,1,3,2,"HouseObjects",1,1,"left","left",0.597999811,1,1,1,0,NA,NA,NA,NA,NA,NA,NA,NA,NA,NA,NA,NA,NA,NA,NA,NA,NA,NA,NA,NA,NA,NA,NA,NA
"286","stim/objects/HouseObjects/cushion2.png",341,59,334,0.7,"stim/64.jpeg",6,4,2,1,"HouseObjects",1,3,"left","left",0.496000051,1,1,1,0,158,59,1,0.7,1,"stim/64.jpeg",6,4,"stim/64.jpeg",3,"right",0.99399972,1,4,2.714999914,4,2.731999874,158,0,1,NA,0,NA,0
"547","stim/objects/Instruments/hihat.png",342,59,335,0.5,"stim/31.jpeg",3,1,1,1,"Instruments",2,4,"right","left",0.676000118,0,0,1,0,65,59,1,0.5,1,"stim/31.jpeg",3,1,"stim/31.jpeg",4,"right",0.661000013,3,2,1.829999924,3,2.940999985,65,0,0,NA,0,NA,0
"297","stim/objects/HouseObjects/doormat.png",343,59,336,0.9,"stim/23.jpeg",2,3,3,2,"HouseObjects",1,4,"left","left",0.469000101,1,1,1,0,NA,NA,NA,NA,NA,NA,NA,NA,NA,NA,NA,NA,NA,NA,NA,NA,NA,NA,NA,NA,NA,NA,NA,NA
"331","stim/objects/HouseObjects/flyswatter.png",344,59,337,0.9,"stim/24.jpeg",2,4,3,2,"HouseObjects",1,3,"left","left",0.489000082,1,1,1,0,NA,NA,NA,NA,NA,NA,NA,NA,NA,NA,NA,NA,NA,NA,NA,NA,NA,NA,NA,NA,NA,NA,NA,NA
"317","stim/objects/HouseObjects/dustpan.png",345,59,338,0.9,"stim/24.jpeg",2,4,3,2,"HouseObjects",1,2,"left","left",0.484999895,1,1,1,0,NA,NA,NA,NA,NA,NA,NA,NA,NA,NA,NA,NA,NA,NA,NA,NA,NA,NA,NA,NA,NA,NA,NA,NA
"401","stim/objects/HouseObjects/recyclingbin2.png",346,59,339,0.9,"stim/24.jpeg",2,4,3,1,"HouseObjects",1,1,"left","left",0.388000011,1,1,1,0,172,59,1,0.9,1,"stim/24.jpeg",2,4,"stim/24.jpeg",1,"right",1.795000076,1,2,1.643999815,3,1.470999956,172,0,0,NA,0,NA,0
"436","stim/objects/Instruments/cymbal.png",347,59,340,0.7,"stim/54.jpeg",5,4,2,2,"Instruments",2,3,"right","right",0.61500001,1,1,1,0,NA,NA,NA,NA,NA,NA,NA,NA,NA,NA,NA,NA,NA,NA,NA,NA,NA,NA,NA,NA,NA,NA,NA,NA
"445","stim/objects/Instruments/drums.png",348,59,341,0.7,"stim/51.jpeg",5,1,2,2,"Instruments",2,2,"right","right",0.462999821,1,1,1,0,NA,NA,NA,NA,NA,NA,NA,NA,NA,NA,NA,NA,NA,NA,NA,NA,NA,NA,NA,NA,NA,NA,NA,NA
"452","stim/objects/Instruments/electricguitar.png",349,59,342,0.7,"stim/51.jpeg",5,1,2,2,"Instruments",2,1,"right","right",0.448999882,1,1,1,0,NA,NA,NA,NA,NA,NA,NA,NA,NA,NA,NA,NA,NA,NA,NA,NA,NA,NA,NA,NA,NA,NA,NA,NA
"461","stim/objects/Instruments/flute.png",350,59,343,0.9,"stim/13.jpeg",1,3,3,2,"Instruments",2,2,"right","left",0.532000065,0,0,1,0,NA,NA,NA,NA,NA,NA,NA,NA,NA,NA,NA,NA,NA,NA,NA,NA,NA,NA,NA,NA,NA,NA,NA,NA
"424","stim/objects/Instruments/cello.png",351,59,344,0.5,"stim/44.jpeg",4,4,1,2,"Instruments",2,4,"right","left",0.642999887,0,0,1,0,NA,NA,NA,NA,NA,NA,NA,NA,NA,NA,NA,NA,NA,NA,NA,NA,NA,NA,NA,NA,NA,NA,NA,NA
"262","stim/objects/HouseObjects/broom.png",352,59,345,0.5,"stim/42.jpeg",4,2,1,2,"HouseObjects",1,1,"left","right",0.75999999,0,0,1,0,NA,NA,NA,NA,NA,NA,NA,NA,NA,NA,NA,NA,NA,NA,NA,NA,NA,NA,NA,NA,NA,NA,NA,NA
"382","stim/objects/HouseObjects/handvacuum.png",353,59,346,0.5,"stim/32.jpeg",3,2,1,1,"HouseObjects",1,2,"left","right",0.721000195,0,0,1,0,40,59,1,0.5,1,"stim/32.jpeg",3,2,"stim/32.jpeg",2,"right",1.394999981,2,1,2.564999819,3,1.474999905,40,0,0,NA,0,NA,0
"353","stim/objects/HouseObjects/garbagebin.png",354,59,347,0.9,"stim/24.jpeg",2,4,3,2,"HouseObjects",1,3,"left","left",0.476999998,1,1,1,0,NA,NA,NA,NA,NA,NA,NA,NA,NA,NA,NA,NA,NA,NA,NA,NA,NA,NA,NA,NA,NA,NA,NA,NA
"517","stim/objects/Instruments/gong.png",355,59,348,0.9,"stim/12.jpeg",1,2,3,2,"Instruments",2,2,"right","right",0.55700016,1,1,1,0,NA,NA,NA,NA,NA,NA,NA,NA,NA,NA,NA,NA,NA,NA,NA,NA,NA,NA,NA,NA,NA,NA,NA,NA
"494","stim/objects/Instruments/frenchhorn.png",356,59,349,0.9,"stim/11.jpeg",1,1,3,2,"Instruments",2,3,"right","right",0.496000051,1,1,1,0,NA,NA,NA,NA,NA,NA,NA,NA,NA,NA,NA,NA,NA,NA,NA,NA,NA,NA,NA,NA,NA,NA,NA,NA
"495","stim/objects/Instruments/frenchhorn.png",357,59,350,0.9,"stim/13.jpeg",1,3,3,2,"Instruments",2,1,"right","right",0.427000046,1,1,1,0,NA,NA,NA,NA,NA,NA,NA,NA,NA,NA,NA,NA,NA,NA,NA,NA,NA,NA,NA,NA,NA,NA,NA,NA
"284","stim/objects/HouseObjects/cushion.png",358,59,351,0.7,"stim/64.jpeg",6,4,2,2,"HouseObjects",1,3,"left","left",0.612999916,1,1,1,0,NA,NA,NA,NA,NA,NA,NA,NA,NA,NA,NA,NA,NA,NA,NA,NA,NA,NA,NA,NA,NA,NA,NA,NA
"422","stim/objects/Instruments/bassguitar.png",359,59,352,0.5,"stim/43.jpeg",4,3,1,2,"Instruments",2,4,"right","left",0.623999834,0,0,1,0,NA,NA,NA,NA,NA,NA,NA,NA,NA,NA,NA,NA,NA,NA,NA,NA,NA,NA,NA,NA,NA,NA,NA,NA
"484","stim/objects/Instruments/flutetrans.png",360,59,353,0.9,"stim/11.jpeg",1,1,3,2,"Instruments",2,2,"right","left",0.454999924,0,0,1,0,NA,NA,NA,NA,NA,NA,NA,NA,NA,NA,NA,NA,NA,NA,NA,NA,NA,NA,NA,NA,NA,NA,NA,NA
"264","stim/objects/HouseObjects/broom2.png",361,59,354,0.7,"stim/62.jpeg",6,2,2,1,"HouseObjects",1,2,"left","left",0.565999985,1,1,1,0,54,59,1,0.7,1,"stim/62.jpeg",6,2,"stim/62.jpeg",2,"right",0.736999989,1,3,2.846999884,2,1.373999834,54,0,0,NA,1,NA,0
"462","stim/objects/Instruments/flute.png",362,59,355,0.9,"stim/13.jpeg",1,3,3,2,"Instruments",2,2,"right","right",0.502000093,1,1,1,0,NA,NA,NA,NA,NA,NA,NA,NA,NA,NA,NA,NA,NA,NA,NA,NA,NA,NA,NA,NA,NA,NA,NA,NA
"354","stim/objects/HouseObjects/garbagebin.png",363,59,356,0.9,"stim/23.jpeg",2,3,3,2,"HouseObjects",1,3,"left","left",0.608999968,1,1,1,0,NA,NA,NA,NA,NA,NA,NA,NA,NA,NA,NA,NA,NA,NA,NA,NA,NA,NA,NA,NA,NA,NA,NA,NA
"463","stim/objects/Instruments/flute.png",364,59,357,0.9,"stim/14.jpeg",1,4,3,2,"Instruments",2,4,"right","right",0.611000061,1,1,1,0,NA,NA,NA,NA,NA,NA,NA,NA,NA,NA,NA,NA,NA,NA,NA,NA,NA,NA,NA,NA,NA,NA,NA,NA
"530","stim/objects/Instruments/grandpiano.png",365,59,358,0.9,"stim/12.jpeg",1,2,3,2,"Instruments",2,3,"right","right",0.470999956,1,1,1,0,NA,NA,NA,NA,NA,NA,NA,NA,NA,NA,NA,NA,NA,NA,NA,NA,NA,NA,NA,NA,NA,NA,NA,NA
"265","stim/objects/HouseObjects/bucket.png",366,59,359,0.5,"stim/42.jpeg",4,2,1,2,"HouseObjects",1,4,"left","left",0.460000038,1,1,1,0,NA,NA,NA,NA,NA,NA,NA,NA,NA,NA,NA,NA,NA,NA,NA,NA,NA,NA,NA,NA,NA,NA,NA,NA
"496","stim/objects/Instruments/frenchhorn.png",367,59,360,0.9,"stim/13.jpeg",1,3,3,2,"Instruments",2,2,"right","right",0.592999935,1,1,1,0,NA,NA,NA,NA,NA,NA,NA,NA,NA,NA,NA,NA,NA,NA,NA,NA,NA,NA,NA,NA,NA,NA,NA,NA
"546","stim/objects/Instruments/harp2.png",368,59,361,0.9,"stim/12.jpeg",1,2,3,1,"Instruments",2,2,"right","right",0.512000084,1,1,1,0,70,59,1,0.9,2,"stim/12.jpeg",1,2,"stim/12.jpeg",2,"right",0.924999952,2,4,1.928999901,1,1.72300005,70,0,0,NA,0,NA,0
"359","stim/objects/HouseObjects/glass.png",369,59,362,0.9,"stim/23.jpeg",2,3,3,2,"HouseObjects",1,1,"left","left",0.467999935,1,1,1,0,NA,NA,NA,NA,NA,NA,NA,NA,NA,NA,NA,NA,NA,NA,NA,NA,NA,NA,NA,NA,NA,NA,NA,NA
"515","stim/objects/Instruments/gong.png",370,59,363,0.9,"stim/12.jpeg",1,2,3,2,"Instruments",2,1,"right","right",0.556999922,1,1,1,0,NA,NA,NA,NA,NA,NA,NA,NA,NA,NA,NA,NA,NA,NA,NA,NA,NA,NA,NA,NA,NA,NA,NA,NA
"543","stim/objects/Instruments/harmonica.png",371,59,364,0.5,"stim/33.jpeg",3,3,1,1,"Instruments",2,3,"right","left",0.497999907,0,0,1,0,149,59,1,0.5,1,"stim/33.jpeg",3,3,"stim/33.jpeg",3,"right",0.871000051,1,2,1.444999933,3,2.058000088,149,0,0,NA,1,NA,0
"367","stim/objects/HouseObjects/glass.png",372,59,365,0.9,"stim/24.jpeg",2,4,3,2,"HouseObjects",1,4,"left","left",0.470000029,1,1,1,0,NA,NA,NA,NA,NA,NA,NA,NA,NA,NA,NA,NA,NA,NA,NA,NA,NA,NA,NA,NA,NA,NA,NA,NA
"429","stim/objects/Instruments/chime2.png",373,59,366,0.3,"stim/64.jpeg",6,4,2,1,"Instruments",2,1,"right","left",0.736000061,0,0,1,0,106,59,1,0.3,2,"stim/64.jpeg",6,4,"stim/64.jpeg",1,"right",1.911000013,2,3,1.239999771,2,1.583999872,106,0,0,NA,0,NA,0
"554","stim/objects/Instruments/maraca2.png",374,59,367,0.1,"stim/24.jpeg",2,4,3,1,"Instruments",2,4,"right","left",0.545000076,0,0,1,0,124,59,1,0.1,2,"stim/24.jpeg",2,4,"stim/24.jpeg",4,"right",1.151000023,1,3,1.527999878,3,1.127000093,124,0,0,NA,0,NA,0
"417","stim/objects/Instruments/banjo2.png",375,59,368,0.7,"stim/52.jpeg",5,2,2,1,"Instruments",2,1,"right","right",0.684999943,1,1,1,0,150,59,1,0.7,2,"stim/52.jpeg",5,2,"stim/52.jpeg",1,"right",0.771999836,2,1,2.365999937,3,2.266999722,150,0,0,NA,0,NA,0
"553","stim/objects/Instruments/maraca.png",376,59,369,0.5,"stim/41.jpeg",4,1,1,1,"Instruments",2,3,"right","right",0.644999981,1,1,1,0,185,59,1,0.5,2,"stim/41.jpeg",4,1,"stim/41.jpeg",3,"left",1.434999943,3,3,1.885999918,2,2.411999941,185,1,0,0,0,0,0
"255","stim/objects/HouseObjects/bleachbottle2.png",377,59,370,0.3,"stim/52.jpeg",5,2,2,1,"HouseObjects",1,4,"left","right",0.5,0,0,1,0,105,59,1,0.3,1,"stim/52.jpeg",5,2,"stim/52.jpeg",4,"right",1.029999971,3,1,3.796999931,4,2.309999943,105,0,0,NA,1,NA,0
"498","stim/objects/Instruments/frenchhorn.png",378,59,371,0.9,"stim/14.jpeg",1,4,3,2,"Instruments",2,4,"right","",NA,0,0,1,0,NA,NA,NA,NA,NA,NA,NA,NA,NA,NA,NA,NA,NA,NA,NA,NA,NA,NA,NA,NA,NA,NA,NA,NA
"556","stim/objects/Instruments/marimba2.png",379,59,372,0.1,"stim/21.jpeg",2,1,3,1,"Instruments",2,2,"right","left",0.447999954,0,0,1,0,58,59,1,0.1,2,"stim/21.jpeg",2,1,"stim/21.jpeg",2,"right",1.630999804,2,4,2.578000069,4,2.760999918,58,0,0,NA,0,NA,0
"268","stim/objects/HouseObjects/clock.png",380,59,373,0.5,"stim/44.jpeg",4,4,1,2,"HouseObjects",1,1,"left","left",0.828999996,1,1,1,0,NA,NA,NA,NA,NA,NA,NA,NA,NA,NA,NA,NA,NA,NA,NA,NA,NA,NA,NA,NA,NA,NA,NA,NA
"560","stim/objects/Instruments/musicsheet2.png",381,59,374,0.1,"stim/23.jpeg",2,3,3,1,"Instruments",2,4,"right","left",0.537000179,0,0,1,0,20,59,1,0.1,2,"stim/23.jpeg",2,3,"stim/23.jpeg",4,"left",2.933999777,3,3,1.81400013,1,1.411999941,20,1,1,1,0,0,0
"258","stim/objects/HouseObjects/blender2.png",382,59,375,0.7,"stim/64.jpeg",6,4,2,1,"HouseObjects",1,2,"left","left",0.872999907,1,1,1,0,135,59,1,0.7,1,"stim/64.jpeg",6,4,"stim/64.jpeg",2,"left",0.980000019,3,1,2.229999781,1,1.978999853,135,1,0,0,0,0,0
"423","stim/objects/Instruments/bassguitar2.png",383,59,376,0.3,"stim/62.jpeg",6,2,2,1,"Instruments",2,3,"right","left",0.532999992,0,0,1,0,79,59,1,0.3,2,"stim/62.jpeg",6,2,"stim/62.jpeg",3,"right",1.395999908,2,4,2.052000046,4,1.786000013,79,0,0,NA,0,NA,0
"562","stim/objects/Instruments/musicstand2.png",384,59,377,0.1,"stim/24.jpeg",2,4,3,1,"Instruments",2,3,"right","left",0.530999899,0,0,1,0,156,59,1,0.1,2,"stim/24.jpeg",2,4,"stim/24.jpeg",3,"right",0.678999901,1,3,1.532999992,2,1.949999809,156,0,0,NA,0,NA,0
"358","stim/objects/HouseObjects/garbagebin2.png",385,59,378,0.1,"stim/14.jpeg",1,4,3,1,"HouseObjects",1,3,"left","right",0.578999996,0,0,1,0,44,59,1,0.1,1,"stim/14.jpeg",1,4,"stim/14.jpeg",3,"right",1.11500001,2,3,2.064999819,4,1.762999773,44,0,0,NA,0,NA,0
"369","stim/objects/HouseObjects/glass.png",386,59,379,0.9,"stim/22.jpeg",2,2,3,2,"HouseObjects",1,3,"left","left",0.546000004,1,1,1,0,NA,NA,NA,NA,NA,NA,NA,NA,NA,NA,NA,NA,NA,NA,NA,NA,NA,NA,NA,NA,NA,NA,NA,NA
"376","stim/objects/HouseObjects/glassmop.png",387,59,380,0.5,"stim/33.jpeg",3,3,1,1,"HouseObjects",1,1,"left","right",0.739000082,0,0,1,0,128,59,1,0.5,1,"stim/33.jpeg",3,3,"stim/33.jpeg",1,"right",0.950999737,2,3,1.730000019,2,2.375,128,0,1,NA,0,NA,0
"508","stim/objects/Instruments/gong.png",388,59,381,0.9,"stim/13.jpeg",1,3,3,2,"Instruments",2,3,"right","right",0.532000065,1,1,1,0,NA,NA,NA,NA,NA,NA,NA,NA,NA,NA,NA,NA,NA,NA,NA,NA,NA,NA,NA,NA,NA,NA,NA,NA
"420","stim/objects/Instruments/bassdrum2.png",389,59,382,0.7,"stim/53.jpeg",5,3,2,1,"Instruments",2,2,"right","left",0.532000065,0,0,1,0,7,59,1,0.7,2,"stim/53.jpeg",5,3,"stim/53.jpeg",2,"right",1.463999748,2,4,3.997999907,1,4.462999821,7,0,0,NA,0,NA,0
"253","stim/objects/HouseObjects/bleachbottle.png",390,59,383,0.5,"stim/31.jpeg",3,1,1,2,"HouseObjects",1,3,"left","left",0.601000071,1,1,1,0,NA,NA,NA,NA,NA,NA,NA,NA,NA,NA,NA,NA,NA,NA,NA,NA,NA,NA,NA,NA,NA,NA,NA,NA
"293","stim/objects/HouseObjects/doormat.png",391,59,384,0.9,"stim/24.jpeg",2,4,3,2,"HouseObjects",1,2,"left","left",0.61500001,1,1,1,0,NA,NA,NA,NA,NA,NA,NA,NA,NA,NA,NA,NA,NA,NA,NA,NA,NA,NA,NA,NA,NA,NA,NA,NA
"333","stim/objects/HouseObjects/flyswatter.png",392,59,385,0.9,"stim/21.jpeg",2,1,3,2,"HouseObjects",1,1,"left","left",0.45600009,1,1,1,0,NA,NA,NA,NA,NA,NA,NA,NA,NA,NA,NA,NA,NA,NA,NA,NA,NA,NA,NA,NA,NA,NA,NA,NA
"456","stim/objects/Instruments/flute.png",393,59,386,0.9,"stim/11.jpeg",1,1,3,2,"Instruments",2,1,"right","right",0.523000002,1,1,1,0,NA,NA,NA,NA,NA,NA,NA,NA,NA,NA,NA,NA,NA,NA,NA,NA,NA,NA,NA,NA,NA,NA,NA,NA
"389","stim/objects/HouseObjects/key2.png",394,59,387,0.9,"stim/22.jpeg",2,2,3,1,"HouseObjects",1,3,"left","",NA,0,0,1,0,86,59,1,0.9,1,"stim/22.jpeg",2,2,"stim/22.jpeg",3,"left",2.643000126,2,3,1.328999758,2,1.415999889,86,1,0,0,0,0,0
"360","stim/objects/HouseObjects/glass.png",395,59,388,0.9,"stim/23.jpeg",2,3,3,2,"HouseObjects",1,1,"left","left",0.427999973,1,1,1,0,NA,NA,NA,NA,NA,NA,NA,NA,NA,NA,NA,NA,NA,NA,NA,NA,NA,NA,NA,NA,NA,NA,NA,NA
"486","stim/objects/Instruments/flutetrans.png",396,59,389,0.9,"stim/11.jpeg",1,1,3,2,"Instruments",2,2,"right","right",0.474000216,1,1,1,0,NA,NA,NA,NA,NA,NA,NA,NA,NA,NA,NA,NA,NA,NA,NA,NA,NA,NA,NA,NA,NA,NA,NA,NA
"310","stim/objects/HouseObjects/dustpan.png",397,59,390,0.9,"stim/22.jpeg",2,2,3,2,"HouseObjects",1,1,"left","left",0.461999893,1,1,1,0,NA,NA,NA,NA,NA,NA,NA,NA,NA,NA,NA,NA,NA,NA,NA,NA,NA,NA,NA,NA,NA,NA,NA,NA
"280","stim/objects/HouseObjects/coffee.png",398,59,391,0.7,"stim/64.jpeg",6,4,2,2,"HouseObjects",1,2,"left","left",0.523999929,1,1,1,0,NA,NA,NA,NA,NA,NA,NA,NA,NA,NA,NA,NA,NA,NA,NA,NA,NA,NA,NA,NA,NA,NA,NA,NA
"344","stim/objects/HouseObjects/garbagebin.png",399,59,392,0.9,"stim/23.jpeg",2,3,3,2,"HouseObjects",1,3,"left","left",0.61500001,1,1,1,0,NA,NA,NA,NA,NA,NA,NA,NA,NA,NA,NA,NA,NA,NA,NA,NA,NA,NA,NA,NA,NA,NA,NA,NA
"548","stim/objects/Instruments/hihat2.png",400,59,393,0.9,"stim/13.jpeg",1,3,3,1,"Instruments",2,3,"right","right",0.545000076,1,1,1,0,68,59,1,0.9,2,"stim/13.jpeg",1,3,"stim/13.jpeg",3,"left",1.915999889,2,2,1.112999916,3,1.46999979,68,1,0,0,1,1,0
"332","stim/objects/HouseObjects/flyswatter.png",401,59,394,0.9,"stim/24.jpeg",2,4,3,2,"HouseObjects",1,1,"left","left",0.563999891,1,1,1,0,NA,NA,NA,NA,NA,NA,NA,NA,NA,NA,NA,NA,NA,NA,NA,NA,NA,NA,NA,NA,NA,NA,NA,NA
"400","stim/objects/HouseObjects/recyclingbin.png",402,59,395,0.3,"stim/53.jpeg",5,3,2,1,"HouseObjects",1,1,"left","",NA,0,0,1,0,123,59,1,0.3,1,"stim/53.jpeg",5,3,"stim/53.jpeg",1,"right",1.967000008,2,3,1.651000023,3,3.669999838,123,0,1,NA,0,NA,0
"391","stim/objects/HouseObjects/knife2.png",403,59,396,0.9,"stim/23.jpeg",2,3,3,1,"HouseObjects",1,3,"left","left",0.510999918,1,1,1,0,146,59,1,0.9,1,"stim/23.jpeg",2,3,"stim/23.jpeg",3,"right",1.029999971,2,2,1.355000019,1,2.504999876,146,0,0,NA,0,NA,0
"278","stim/objects/HouseObjects/clothespin2.png",404,59,397,0.7,"stim/62.jpeg",6,2,2,1,"HouseObjects",1,4,"left","left",0.492000103,1,1,1,0,27,59,1,0.7,1,"stim/62.jpeg",6,2,"stim/62.jpeg",4,"left",2.32799983,3,1,2.438999891,4,2.549000025,27,1,0,0,1,1,0
"430","stim/objects/Instruments/clarinet.png",405,59,398,0.5,"stim/42.jpeg",4,2,1,2,"Instruments",2,2,"right","left",0.582999945,0,0,1,0,NA,NA,NA,NA,NA,NA,NA,NA,NA,NA,NA,NA,NA,NA,NA,NA,NA,NA,NA,NA,NA,NA,NA,NA
"489","stim/objects/Instruments/flutetrans2.png",406,59,399,0.9,"stim/14.jpeg",1,4,3,1,"Instruments",2,4,"right","left",0.565999985,0,0,1,0,10,59,1,0.9,2,"stim/14.jpeg",1,4,"stim/14.jpeg",4,"left",0.884000063,4,4,4.198999882,2,2.383999825,10,1,1,1,0,0,0
"273","stim/objects/HouseObjects/clothesdryingrack.png",407,59,400,0.7,"stim/61.jpeg",6,1,2,2,"HouseObjects",1,2,"left","left",0.562999964,1,1,1,0,NA,NA,NA,NA,NA,NA,NA,NA,NA,NA,NA,NA,NA,NA,NA,NA,NA,NA,NA,NA,NA,NA,NA,NA
"275","stim/objects/HouseObjects/clothespin.png",408,59,401,0.7,"stim/64.jpeg",6,4,2,2,"HouseObjects",1,3,"left","left",0.571000099,1,1,1,0,NA,NA,NA,NA,NA,NA,NA,NA,NA,NA,NA,NA,NA,NA,NA,NA,NA,NA,NA,NA,NA,NA,NA,NA
"312","stim/objects/HouseObjects/dustpan.png",409,59,402,0.9,"stim/21.jpeg",2,1,3,2,"HouseObjects",1,4,"left","left",0.565999985,1,1,1,0,NA,NA,NA,NA,NA,NA,NA,NA,NA,NA,NA,NA,NA,NA,NA,NA,NA,NA,NA,NA,NA,NA,NA,NA
"449","stim/objects/Instruments/electricdrumset.png",410,59,403,0.7,"stim/53.jpeg",5,3,2,2,"Instruments",2,2,"right","right",0.56099987,1,1,1,0,NA,NA,NA,NA,NA,NA,NA,NA,NA,NA,NA,NA,NA,NA,NA,NA,NA,NA,NA,NA,NA,NA,NA,NA
"412","stim/objects/Instruments/balalaika.png",411,59,404,0.5,"stim/33.jpeg",3,3,1,2,"Instruments",2,4,"right","left",0.590000153,0,0,1,0,NA,NA,NA,NA,NA,NA,NA,NA,NA,NA,NA,NA,NA,NA,NA,NA,NA,NA,NA,NA,NA,NA,NA,NA
"300","stim/objects/HouseObjects/doormat.png",412,59,405,0.9,"stim/21.jpeg",2,1,3,2,"HouseObjects",1,3,"left","left",0.595999956,1,1,1,0,NA,NA,NA,NA,NA,NA,NA,NA,NA,NA,NA,NA,NA,NA,NA,NA,NA,NA,NA,NA,NA,NA,NA,NA
"437","stim/objects/Instruments/cymbal.png",413,59,406,0.7,"stim/53.jpeg",5,3,2,2,"Instruments",2,4,"right","right",0.848999977,1,1,1,0,NA,NA,NA,NA,NA,NA,NA,NA,NA,NA,NA,NA,NA,NA,NA,NA,NA,NA,NA,NA,NA,NA,NA,NA
"523","stim/objects/Instruments/gong2.png",414,59,407,0.9,"stim/12.jpeg",1,2,3,1,"Instruments",2,2,"right","right",0.485000134,1,1,1,0,26,59,1,0.9,2,"stim/12.jpeg",1,2,"stim/12.jpeg",2,"left",1.115999937,3,3,2.620999813,4,3.108999729,26,1,0,0,0,0,0
"497","stim/objects/Instruments/frenchhorn.png",415,59,408,0.9,"stim/12.jpeg",1,2,3,2,"Instruments",2,1,"right","right",0.596999884,1,1,1,0,NA,NA,NA,NA,NA,NA,NA,NA,NA,NA,NA,NA,NA,NA,NA,NA,NA,NA,NA,NA,NA,NA,NA,NA
"527","stim/objects/Instruments/grandpiano.png",416,59,409,0.9,"stim/12.jpeg",1,2,3,2,"Instruments",2,4,"right","right",0.638000011,1,1,1,0,NA,NA,NA,NA,NA,NA,NA,NA,NA,NA,NA,NA,NA,NA,NA,NA,NA,NA,NA,NA,NA,NA,NA,NA
"362","stim/objects/HouseObjects/glass.png",417,59,410,0.9,"stim/24.jpeg",2,4,3,2,"HouseObjects",1,1,"left","left",0.431999922,1,1,1,0,NA,NA,NA,NA,NA,NA,NA,NA,NA,NA,NA,NA,NA,NA,NA,NA,NA,NA,NA,NA,NA,NA,NA,NA
"397","stim/objects/HouseObjects/pan2.png",418,59,411,0.9,"stim/22.jpeg",2,2,3,1,"HouseObjects",1,3,"left","left",0.328999996,1,1,1,0,173,59,1,0.9,1,"stim/22.jpeg",2,2,"stim/22.jpeg",3,"right",0.945999861,2,3,1.062999964,1,3.095999956,173,0,0,NA,0,NA,0
"301","stim/objects/HouseObjects/doormat.png",419,59,412,0.9,"stim/22.jpeg",2,2,3,2,"HouseObjects",1,4,"left","left",0.335999966,1,1,1,0,NA,NA,NA,NA,NA,NA,NA,NA,NA,NA,NA,NA,NA,NA,NA,NA,NA,NA,NA,NA,NA,NA,NA,NA
"244","stim/objects/HouseObjects/ballofstring.png",420,59,413,0.5,"stim/33.jpeg",3,3,1,2,"HouseObjects",1,1,"left","right",0.457000017,0,0,1,0,NA,NA,NA,NA,NA,NA,NA,NA,NA,NA,NA,NA,NA,NA,NA,NA,NA,NA,NA,NA,NA,NA,NA,NA
"483","stim/objects/Instruments/flutetrans.png",421,59,414,0.9,"stim/13.jpeg",1,3,3,2,"Instruments",2,4,"right","left",0.486999989,0,0,1,0,NA,NA,NA,NA,NA,NA,NA,NA,NA,NA,NA,NA,NA,NA,NA,NA,NA,NA,NA,NA,NA,NA,NA,NA
"464","stim/objects/Instruments/flute.png",422,59,415,0.9,"stim/14.jpeg",1,4,3,2,"Instruments",2,4,"right","right",0.446000099,1,1,1,0,NA,NA,NA,NA,NA,NA,NA,NA,NA,NA,NA,NA,NA,NA,NA,NA,NA,NA,NA,NA,NA,NA,NA,NA
"409","stim/objects/Instruments/acousticguitar.png",423,59,416,0.5,"stim/31.jpeg",3,1,1,2,"Instruments",2,4,"right","left",0.786000013,0,0,1,0,NA,NA,NA,NA,NA,NA,NA,NA,NA,NA,NA,NA,NA,NA,NA,NA,NA,NA,NA,NA,NA,NA,NA,NA
"302","stim/objects/HouseObjects/doormat.png",424,59,417,0.9,"stim/22.jpeg",2,2,3,2,"HouseObjects",1,1,"left","left",0.461999893,1,1,1,0,NA,NA,NA,NA,NA,NA,NA,NA,NA,NA,NA,NA,NA,NA,NA,NA,NA,NA,NA,NA,NA,NA,NA,NA
"441","stim/objects/Instruments/doublebass.png",425,59,418,0.7,"stim/51.jpeg",5,1,2,2,"Instruments",2,4,"right","right",0.530999899,1,1,1,0,NA,NA,NA,NA,NA,NA,NA,NA,NA,NA,NA,NA,NA,NA,NA,NA,NA,NA,NA,NA,NA,NA,NA,NA
"442","stim/objects/Instruments/doublebass.png",426,59,419,0.7,"stim/52.jpeg",5,2,2,2,"Instruments",2,2,"right","right",0.513000011,1,1,1,0,NA,NA,NA,NA,NA,NA,NA,NA,NA,NA,NA,NA,NA,NA,NA,NA,NA,NA,NA,NA,NA,NA,NA,NA
"380","stim/objects/HouseObjects/handbrush.png",427,59,420,0.5,"stim/31.jpeg",3,1,1,1,"HouseObjects",1,4,"left","left",0.644000053,1,1,1,0,151,59,1,0.5,1,"stim/31.jpeg",3,1,"stim/31.jpeg",4,"right",1.45299983,1,4,2.113999844,2,2.678999901,151,0,0,NA,0,NA,0
"324","stim/objects/HouseObjects/dustpan2.png",428,59,421,0.1,"stim/12.jpeg",1,2,3,1,"HouseObjects",1,2,"left","right",0.490999937,0,0,1,0,183,59,1,0.1,1,"stim/12.jpeg",1,2,"stim/12.jpeg",2,"right",0.894000053,2,1,2.361999989,3,4.463999987,183,0,0,NA,0,NA,0
"569","stim/objects/Instruments/record.png",429,59,422,0.7,"stim/52.jpeg",5,2,2,1,"Instruments",2,3,"right","left",0.511000156,0,0,1,0,200,59,1,0.7,2,"stim/52.jpeg",5,2,"stim/52.jpeg",3,"right",0.717999935,2,1,0.994999886,2,1.365999937,200,0,0,NA,0,NA,0
"431","stim/objects/Instruments/clarinet.png",430,59,423,0.5,"stim/41.jpeg",4,1,1,2,"Instruments",2,4,"right","left",0.679000139,0,0,1,0,NA,NA,NA,NA,NA,NA,NA,NA,NA,NA,NA,NA,NA,NA,NA,NA,NA,NA,NA,NA,NA,NA,NA,NA
"357","stim/objects/HouseObjects/garbagebin.png",431,59,424,0.9,"stim/22.jpeg",2,2,3,2,"HouseObjects",1,1,"left","left",0.559999943,1,1,1,0,NA,NA,NA,NA,NA,NA,NA,NA,NA,NA,NA,NA,NA,NA,NA,NA,NA,NA,NA,NA,NA,NA,NA,NA
"254","stim/objects/HouseObjects/bleachbottle.png",432,59,425,0.5,"stim/32.jpeg",3,2,1,2,"HouseObjects",1,3,"left","right",0.677999973,0,0,1,0,NA,NA,NA,NA,NA,NA,NA,NA,NA,NA,NA,NA,NA,NA,NA,NA,NA,NA,NA,NA,NA,NA,NA,NA
"282","stim/objects/HouseObjects/coffee2.png",433,59,426,0.7,"stim/63.jpeg",6,3,2,1,"HouseObjects",1,1,"left","left",0.627000093,1,1,1,0,55,59,1,0.7,1,"stim/63.jpeg",6,3,"stim/63.jpeg",1,"left",1.549999952,4,4,4.846999884,1,1.21999979,55,1,0,0,1,1,0
"335","stim/objects/HouseObjects/flyswatter.png",434,59,427,0.9,"stim/23.jpeg",2,3,3,2,"HouseObjects",1,1,"left","left",0.394000053,1,1,1,0,NA,NA,NA,NA,NA,NA,NA,NA,NA,NA,NA,NA,NA,NA,NA,NA,NA,NA,NA,NA,NA,NA,NA,NA
"246","stim/objects/HouseObjects/ballofstring2.png",435,59,428,0.3,"stim/53.jpeg",5,3,2,1,"HouseObjects",1,3,"left","right",0.589999914,0,0,1,0,196,59,1,0.3,1,"stim/53.jpeg",5,3,"stim/53.jpeg",3,"right",0.621999979,2,3,2.062999964,3,0.703999996,196,0,1,NA,1,NA,0
"349","stim/objects/HouseObjects/garbagebin.png",436,59,429,0.9,"stim/21.jpeg",2,1,3,2,"HouseObjects",1,3,"left","left",0.421000004,1,1,1,0,NA,NA,NA,NA,NA,NA,NA,NA,NA,NA,NA,NA,NA,NA,NA,NA,NA,NA,NA,NA,NA,NA,NA,NA
"392","stim/objects/HouseObjects/lintroller.png",437,59,430,0.5,"stim/44.jpeg",4,4,1,1,"HouseObjects",1,1,"left","left",0.687000036,1,1,1,0,186,59,1,0.5,2,"stim/44.jpeg",4,4,"stim/44.jpeg",1,"right",0.844000101,2,3,1.430999756,1,3.409999847,186,0,0,NA,1,NA,0
"440","stim/objects/Instruments/doublebass.png",438,59,431,0.7,"stim/54.jpeg",5,4,2,2,"Instruments",2,2,"right","right",0.683000088,1,1,1,0,NA,NA,NA,NA,NA,NA,NA,NA,NA,NA,NA,NA,NA,NA,NA,NA,NA,NA,NA,NA,NA,NA,NA,NA
"551","stim/objects/Instruments/laud.png",439,59,432,0.5,"stim/44.jpeg",4,4,1,1,"Instruments",2,1,"right","left",0.565999985,0,0,1,0,159,59,1,0.5,2,"stim/44.jpeg",4,4,"stim/44.jpeg",1,"right",1.213000059,2,3,1.140000105,3,1.06099987,159,0,0,NA,0,NA,0
"355","stim/objects/HouseObjects/garbagebin.png",440,59,433,0.9,"stim/22.jpeg",2,2,3,2,"HouseObjects",1,1,"left","left",0.464000225,1,1,1,0,NA,NA,NA,NA,NA,NA,NA,NA,NA,NA,NA,NA,NA,NA,NA,NA,NA,NA,NA,NA,NA,NA,NA,NA
"318","stim/objects/HouseObjects/dustpan.png",441,59,434,0.9,"stim/23.jpeg",2,3,3,2,"HouseObjects",1,4,"left","left",0.444000006,1,1,1,0,NA,NA,NA,NA,NA,NA,NA,NA,NA,NA,NA,NA,NA,NA,NA,NA,NA,NA,NA,NA,NA,NA,NA,NA
"447","stim/objects/Instruments/drums2.png",442,59,435,0.3,"stim/61.jpeg",6,1,2,1,"Instruments",2,3,"right","left",0.649000168,0,0,1,0,145,59,1,0.3,2,"stim/61.jpeg",6,1,"stim/61.jpeg",3,"right",0.842999935,1,3,2.051999807,3,2.762000084,145,0,0,NA,1,NA,0
"386","stim/objects/HouseObjects/ironingboard.png",443,59,436,0.5,"stim/41.jpeg",4,1,1,1,"HouseObjects",1,3,"left","right",0.613999844,0,0,1,0,24,59,1,0.5,2,"stim/41.jpeg",4,1,"stim/41.jpeg",3,"right",1.540999889,2,1,2.125999928,3,1.973999739,24,0,1,NA,1,NA,0
"466","stim/objects/Instruments/flute.png",444,59,437,0.9,"stim/11.jpeg",1,1,3,2,"Instruments",2,2,"right","left",0.717999935,0,0,1,0,NA,NA,NA,NA,NA,NA,NA,NA,NA,NA,NA,NA,NA,NA,NA,NA,NA,NA,NA,NA,NA,NA,NA,NA
"384","stim/objects/HouseObjects/iron.png",445,59,438,0.5,"stim/33.jpeg",3,3,1,1,"HouseObjects",1,2,"left","left",0.625999928,1,1,1,0,194,59,1,0.5,1,"stim/33.jpeg",3,3,"stim/33.jpeg",2,"right",1.106999874,2,2,1.146999836,2,0.679999828,194,0,0,NA,1,NA,0
"377","stim/objects/HouseObjects/glassmop2.png",446,59,439,0.1,"stim/12.jpeg",1,2,3,1,"HouseObjects",1,3,"left","right",0.525000095,0,0,1,0,115,59,1,0.1,1,"stim/12.jpeg",1,2,"stim/12.jpeg",3,"right",1.3349998,1,1,1.262000084,1,2.281000137,115,0,0,NA,0,NA,0
"315","stim/objects/HouseObjects/dustpan.png",447,59,440,0.9,"stim/23.jpeg",2,3,3,2,"HouseObjects",1,4,"left","left",0.610000134,1,1,1,0,NA,NA,NA,NA,NA,NA,NA,NA,NA,NA,NA,NA,NA,NA,NA,NA,NA,NA,NA,NA,NA,NA,NA,NA
"502","stim/objects/Instruments/frenchhorn.png",448,59,441,0.9,"stim/11.jpeg",1,1,3,2,"Instruments",2,1,"right","",NA,0,0,1,0,NA,NA,NA,NA,NA,NA,NA,NA,NA,NA,NA,NA,NA,NA,NA,NA,NA,NA,NA,NA,NA,NA,NA,NA
"356","stim/objects/HouseObjects/garbagebin.png",449,59,442,0.9,"stim/24.jpeg",2,4,3,2,"HouseObjects",1,3,"left","left",0.460999966,1,1,1,0,NA,NA,NA,NA,NA,NA,NA,NA,NA,NA,NA,NA,NA,NA,NA,NA,NA,NA,NA,NA,NA,NA,NA,NA
"500","stim/objects/Instruments/frenchhorn.png",450,59,443,0.9,"stim/12.jpeg",1,2,3,2,"Instruments",2,3,"right","right",0.569999933,1,1,1,0,NA,NA,NA,NA,NA,NA,NA,NA,NA,NA,NA,NA,NA,NA,NA,NA,NA,NA,NA,NA,NA,NA,NA,NA
"366","stim/objects/HouseObjects/glass.png",451,59,444,0.9,"stim/22.jpeg",2,2,3,2,"HouseObjects",1,3,"left","left",0.463000059,1,1,1,0,NA,NA,NA,NA,NA,NA,NA,NA,NA,NA,NA,NA,NA,NA,NA,NA,NA,NA,NA,NA,NA,NA,NA,NA
"521","stim/objects/Instruments/gong.png",452,59,445,0.9,"stim/14.jpeg",1,4,3,2,"Instruments",2,4,"right","right",0.648000002,1,1,1,0,NA,NA,NA,NA,NA,NA,NA,NA,NA,NA,NA,NA,NA,NA,NA,NA,NA,NA,NA,NA,NA,NA,NA,NA
"453","stim/objects/Instruments/electricguitar.png",453,59,446,0.7,"stim/53.jpeg",5,3,2,2,"Instruments",2,4,"right","right",0.651000023,1,1,1,0,NA,NA,NA,NA,NA,NA,NA,NA,NA,NA,NA,NA,NA,NA,NA,NA,NA,NA,NA,NA,NA,NA,NA,NA
"339","stim/objects/HouseObjects/flyswatter.png",454,59,447,0.9,"stim/24.jpeg",2,4,3,2,"HouseObjects",1,4,"left","left",0.628000021,1,1,1,0,NA,NA,NA,NA,NA,NA,NA,NA,NA,NA,NA,NA,NA,NA,NA,NA,NA,NA,NA,NA,NA,NA,NA,NA
"371","stim/objects/HouseObjects/glass.png",455,59,448,0.9,"stim/21.jpeg",2,1,3,2,"HouseObjects",1,1,"left","left",0.520999908,1,1,1,0,NA,NA,NA,NA,NA,NA,NA,NA,NA,NA,NA,NA,NA,NA,NA,NA,NA,NA,NA,NA,NA,NA,NA,NA
"565","stim/objects/Instruments/panflute.png",456,59,449,0.7,"stim/54.jpeg",5,4,2,1,"Instruments",2,4,"right","right",0.600000143,1,1,1,0,67,59,1,0.7,2,"stim/54.jpeg",5,4,"stim/54.jpeg",4,"right",0.582999945,2,2,2.144999981,2,1.820999861,67,0,0,NA,0,NA,0
"379","stim/objects/HouseObjects/hairdryer2.png",457,59,450,0.1,"stim/13.jpeg",1,3,3,1,"HouseObjects",1,4,"left","right",0.54700017,0,0,1,0,171,59,1,0.1,1,"stim/13.jpeg",1,3,"stim/13.jpeg",4,"right",0.608999968,1,4,1.469000101,2,1.881999969,171,0,0,NA,0,NA,0
"256","stim/objects/HouseObjects/blender.png",458,59,451,0.5,"stim/44.jpeg",4,4,1,2,"HouseObjects",1,2,"left","left",0.746999979,1,1,1,0,NA,NA,NA,NA,NA,NA,NA,NA,NA,NA,NA,NA,NA,NA,NA,NA,NA,NA,NA,NA,NA,NA,NA,NA
"538","stim/objects/Instruments/grandpiano.png",459,59,452,0.9,"stim/14.jpeg",1,4,3,2,"Instruments",2,4,"right","right",0.734999895,1,1,1,0,NA,NA,NA,NA,NA,NA,NA,NA,NA,NA,NA,NA,NA,NA,NA,NA,NA,NA,NA,NA,NA,NA,NA,NA
"241","stim/objects/HouseObjects/ashtray.png",460,59,453,0.5,"stim/31.jpeg",3,1,1,2,"HouseObjects",1,1,"left","left",0.578000069,1,1,1,0,NA,NA,NA,NA,NA,NA,NA,NA,NA,NA,NA,NA,NA,NA,NA,NA,NA,NA,NA,NA,NA,NA,NA,NA
"368","stim/objects/HouseObjects/glass.png",461,59,454,0.9,"stim/21.jpeg",2,1,3,2,"HouseObjects",1,4,"left","",NA,0,0,1,0,NA,NA,NA,NA,NA,NA,NA,NA,NA,NA,NA,NA,NA,NA,NA,NA,NA,NA,NA,NA,NA,NA,NA,NA
"261","stim/objects/HouseObjects/bottle2.png",462,59,455,0.7,"stim/61.jpeg",6,1,2,1,"HouseObjects",1,4,"left","left",0.494999886,1,1,1,0,3,59,1,0.7,1,"stim/61.jpeg",6,1,"stim/61.jpeg",4,"right",1.461999893,2,1,4.088999748,2,2.311000109,3,0,1,NA,0,NA,0
"271","stim/objects/HouseObjects/clothesdryingrack.png",463,59,456,0.7,"stim/63.jpeg",6,3,2,2,"HouseObjects",1,2,"left","left",0.582999945,1,1,1,0,NA,NA,NA,NA,NA,NA,NA,NA,NA,NA,NA,NA,NA,NA,NA,NA,NA,NA,NA,NA,NA,NA,NA,NA
"567","stim/objects/Instruments/pipepiano.png",464,59,457,0.7,"stim/51.jpeg",5,1,2,1,"Instruments",2,4,"right","right",0.703999996,1,1,1,0,189,59,1,0.7,2,"stim/51.jpeg",5,1,"stim/51.jpeg",4,"right",1.092000008,2,2,1.34800005,2,0.940000057,189,0,0,NA,0,NA,0
"414","stim/objects/Instruments/balalaika2.png",465,59,458,0.7,"stim/51.jpeg",5,1,2,1,"Instruments",2,3,"right","right",0.54399991,1,1,1,0,104,59,1,0.7,2,"stim/51.jpeg",5,1,"stim/51.jpeg",3,"left",1.208999872,1,3,2.493000031,3,2.076999903,104,1,0,0,1,1,0
"303","stim/objects/HouseObjects/doormat.png",466,59,459,0.9,"stim/22.jpeg",2,2,3,2,"HouseObjects",1,2,"left","left",0.469000101,1,1,1,0,NA,NA,NA,NA,NA,NA,NA,NA,NA,NA,NA,NA,NA,NA,NA,NA,NA,NA,NA,NA,NA,NA,NA,NA
