"","participant","trialN","trial_cond","scn_file","scn_cat","scn_inst","scn_condition","fillers","obj_cat","obj_cat_num","obj_file","quadrant","corr_ans","key_resp_trial.keys","key_resp_trial.rt","trial_acc","trial_acc_manual","group"
"248",7,241,0.9,"stim/43.jpeg",4,3,3,2,"HouseObjects",1,"stim/objects/HouseObjects/doormat.png",3,"left","",NA,0,0,1
"249",7,242,0.9,"stim/32.jpeg",3,2,3,2,"Instruments",2,"stim/objects/Instruments/grandpiano.png",3,"right","",NA,0,0,1
"250",7,243,0.9,"stim/32.jpeg",3,2,3,2,"Instruments",2,"stim/objects/Instruments/frenchhorn.png",4,"right","right",0.541999817,1,1,1
"251",7,244,0.1,"stim/42.jpeg",4,2,3,1,"Instruments",2,"stim/objects/Instruments/violin2.png",2,"right","left",0.846999884,0,0,1
"252",7,245,0.9,"stim/31.jpeg",3,1,3,2,"Instruments",2,"stim/objects/Instruments/grandpiano.png",2,"right","right",0.681999922,1,1,1
"253",7,246,0.9,"stim/41.jpeg",4,1,3,2,"HouseObjects",1,"stim/objects/HouseObjects/doormat.png",4,"left","left",0.680999994,1,1,1
"254",7,247,0.9,"stim/34.jpeg",3,4,3,2,"Instruments",2,"stim/objects/Instruments/grandpiano.png",1,"right","right",0.649999857,1,1,1
"255",7,248,0.9,"stim/33.jpeg",3,3,3,2,"Instruments",2,"stim/objects/Instruments/frenchhorn.png",3,"right","right",0.477999926,1,1,1
"256",7,249,0.9,"stim/32.jpeg",3,2,3,2,"Instruments",2,"stim/objects/Instruments/flutetrans.png",1,"right","right",0.613000154,1,1,1
"257",7,250,0.9,"stim/42.jpeg",4,2,3,2,"HouseObjects",1,"stim/objects/HouseObjects/garbagebin.png",3,"left","left",0.812999964,1,1,1
"258",7,251,0.3,"stim/24.jpeg",2,4,2,1,"Instruments",2,"stim/objects/Instruments/doublebass2.png",3,"right","left",0.593999863,0,0,1
"259",7,252,0.9,"stim/42.jpeg",4,2,3,1,"HouseObjects",1,"stim/objects/HouseObjects/scale2.png",4,"left","right",0.786999941,0,0,1
"260",7,253,0.1,"stim/44.jpeg",4,4,3,1,"Instruments",2,"stim/objects/Instruments/xylophone2.png",2,"right","left",0.620000124,0,0,1
"261",7,254,0.3,"stim/14.jpeg",1,4,2,1,"HouseObjects",1,"stim/objects/HouseObjects/vacuumcleaner.png",1,"left","left",0.684000015,1,1,1
"262",7,255,0.5,"stim/64.jpeg",6,4,1,1,"Instruments",2,"stim/objects/Instruments/speaker.png",1,"right","right",0.838000059,1,1,1
"263",7,256,0.7,"stim/21.jpeg",2,1,2,2,"HouseObjects",1,"stim/objects/HouseObjects/cushion.png",2,"left","left",0.717000008,1,1,1
"264",7,257,0.9,"stim/43.jpeg",4,3,3,2,"HouseObjects",1,"stim/objects/HouseObjects/flyswatter.png",4,"left","left",0.700999975,1,1,1
"265",7,258,0.7,"stim/11.jpeg",1,1,2,2,"Instruments",2,"stim/objects/Instruments/doublebass.png",1,"right","right",0.817000151,1,1,1
"266",7,259,0.7,"stim/13.jpeg",1,3,2,1,"Instruments",2,"stim/objects/Instruments/accordion2.png",2,"right","right",0.56099987,1,1,1
"267",7,260,0.3,"stim/23.jpeg",2,3,2,1,"Instruments",2,"stim/objects/Instruments/cymbal2.png",4,"right","left",0.628999949,0,0,1
"268",7,261,0.9,"stim/42.jpeg",4,2,3,2,"HouseObjects",1,"stim/objects/HouseObjects/doormat.png",1,"left","left",0.697999954,1,1,1
"269",7,262,0.9,"stim/33.jpeg",3,3,3,2,"Instruments",2,"stim/objects/Instruments/flute.png",1,"right","",NA,0,0,1
"270",7,263,0.3,"stim/11.jpeg",1,1,2,1,"HouseObjects",1,"stim/objects/HouseObjects/wateringcan.png",1,"left","right",0.579999924,0,0,1
"271",7,264,0.9,"stim/41.jpeg",4,1,3,2,"HouseObjects",1,"stim/objects/HouseObjects/glass.png",2,"left","left",0.811000109,1,1,1
"272",7,265,0.5,"stim/51.jpeg",5,1,1,2,"HouseObjects",1,"stim/objects/HouseObjects/basket.png",1,"left","left",0.652999878,1,1,1
"273",7,266,0.9,"stim/42.jpeg",4,2,3,2,"HouseObjects",1,"stim/objects/HouseObjects/flyswatter.png",1,"left","left",0.65199995,1,1,1
"274",7,267,0.5,"stim/51.jpeg",5,1,1,2,"Instruments",2,"stim/objects/Instruments/acousticguitar.png",3,"right","left",0.559999943,0,0,1
"275",7,268,0.9,"stim/42.jpeg",4,2,3,2,"HouseObjects",1,"stim/objects/HouseObjects/garbagebin.png",1,"left","left",0.524000168,1,1,1
"276",7,269,0.1,"stim/33.jpeg",3,3,3,1,"HouseObjects",1,"stim/objects/HouseObjects/hairdryer2.png",3,"left","right",0.704999924,0,0,1
"277",7,270,0.9,"stim/44.jpeg",4,4,3,2,"HouseObjects",1,"stim/objects/HouseObjects/glass.png",3,"left","right",0.758000135,0,0,1
"278",7,271,0.9,"stim/41.jpeg",4,1,3,1,"HouseObjects",1,"stim/objects/HouseObjects/saw2.png",3,"left","left",0.756999969,1,1,1
"279",7,272,0.9,"stim/31.jpeg",3,1,3,2,"Instruments",2,"stim/objects/Instruments/flute.png",4,"right","right",0.549000025,1,1,1
"280",7,273,0.7,"stim/24.jpeg",2,4,2,1,"HouseObjects",1,"stim/objects/HouseObjects/clock2.png",3,"left","left",0.598999977,1,1,1
"281",7,274,0.9,"stim/42.jpeg",4,2,3,2,"HouseObjects",1,"stim/objects/HouseObjects/doormat.png",1,"left","left",0.490999937,1,1,1
"282",7,275,0.5,"stim/61.jpeg",6,1,1,2,"HouseObjects",1,"stim/objects/HouseObjects/broom.png",3,"left","right",0.661000013,0,0,1
"283",7,276,0.5,"stim/51.jpeg",5,1,1,1,"HouseObjects",1,"stim/objects/HouseObjects/handbrush.png",1,"left","left",0.516000032,1,1,1
"284",7,277,0.9,"stim/44.jpeg",4,4,3,2,"HouseObjects",1,"stim/objects/HouseObjects/garbagebin.png",3,"left","left",0.693000078,1,1,1
"285",7,278,0.9,"stim/32.jpeg",3,2,3,1,"Instruments",2,"stim/objects/Instruments/gong2.png",2,"right","right",0.693000078,1,1,1
"286",7,279,0.9,"stim/33.jpeg",3,3,3,2,"Instruments",2,"stim/objects/Instruments/flutetrans.png",3,"right","right",0.507999897,1,1,1
"287",7,280,0.9,"stim/42.jpeg",4,2,3,2,"HouseObjects",1,"stim/objects/HouseObjects/doormat.png",4,"left","right",0.39199996,0,0,1
"288",7,281,0.9,"stim/34.jpeg",3,4,3,2,"Instruments",2,"stim/objects/Instruments/flutetrans.png",3,"right","right",0.574999809,1,1,1
"289",7,282,0.5,"stim/52.jpeg",5,2,1,2,"Instruments",2,"stim/objects/Instruments/balalaika.png",2,"right","left",0.484999895,0,0,1
"290",7,283,0.5,"stim/62.jpeg",6,2,1,1,"Instruments",2,"stim/objects/Instruments/timbal.png",4,"right","right",0.553999901,1,1,1
"291",7,284,0.9,"stim/44.jpeg",4,4,3,2,"HouseObjects",1,"stim/objects/HouseObjects/glass.png",3,"left","left",0.586999893,1,1,1
"292",7,285,0.9,"stim/44.jpeg",4,4,3,2,"HouseObjects",1,"stim/objects/HouseObjects/doormat.png",1,"left","left",0.542999983,1,1,1
"293",7,286,0.7,"stim/14.jpeg",1,4,2,1,"Instruments",2,"stim/objects/Instruments/acousticguitar2.png",4,"right","right",0.482999802,1,1,1
"294",7,287,0.9,"stim/42.jpeg",4,2,3,2,"HouseObjects",1,"stim/objects/HouseObjects/flyswatter.png",2,"left","right",0.539999962,0,0,1
"295",7,288,0.7,"stim/11.jpeg",1,1,2,2,"Instruments",2,"stim/objects/Instruments/drums.png",4,"right","right",0.636000156,1,1,1
"296",7,289,0.9,"stim/43.jpeg",4,3,3,2,"HouseObjects",1,"stim/objects/HouseObjects/dustpan.png",4,"left","left",0.508000135,1,1,1
"297",7,290,0.9,"stim/31.jpeg",3,1,3,2,"Instruments",2,"stim/objects/Instruments/frenchhorn.png",2,"right","right",0.590000153,1,1,1
"298",7,291,0.9,"stim/41.jpeg",4,1,3,2,"HouseObjects",1,"stim/objects/HouseObjects/glass.png",4,"left","left",0.629999876,1,1,1
"299",7,292,0.9,"stim/32.jpeg",3,2,3,2,"Instruments",2,"stim/objects/Instruments/gong.png",4,"right","right",0.651000023,1,1,1
"300",7,293,0.9,"stim/44.jpeg",4,4,3,2,"HouseObjects",1,"stim/objects/HouseObjects/dustpan.png",3,"left","left",0.494999886,1,1,1
"301",7,294,0.9,"stim/42.jpeg",4,2,3,2,"HouseObjects",1,"stim/objects/HouseObjects/flyswatter.png",3,"left","left",0.545000076,1,1,1
"302",7,295,0.9,"stim/44.jpeg",4,4,3,2,"HouseObjects",1,"stim/objects/HouseObjects/glass.png",2,"left","left",0.546999931,1,1,1
"303",7,296,0.3,"stim/13.jpeg",1,3,2,1,"HouseObjects",1,"stim/objects/HouseObjects/ballofstring2.png",3,"left","right",0.598999977,0,0,1
"304",7,297,0.9,"stim/41.jpeg",4,1,3,2,"HouseObjects",1,"stim/objects/HouseObjects/glass.png",2,"left","left",0.575000048,1,1,1
"305",7,298,0.5,"stim/64.jpeg",6,4,1,2,"HouseObjects",1,"stim/objects/HouseObjects/blender.png",1,"left","right",0.58100009,0,0,1
"306",7,299,0.5,"stim/64.jpeg",6,4,1,1,"Instruments",2,"stim/objects/Instruments/trombone.png",1,"right","right",0.61500001,1,1,1
"307",7,300,0.9,"stim/33.jpeg",3,3,3,2,"Instruments",2,"stim/objects/Instruments/flute.png",1,"right","right",0.513000011,1,1,1
"308",7,301,0.9,"stim/34.jpeg",3,4,3,1,"Instruments",2,"stim/objects/Instruments/guitarcase2.png",4,"right","right",0.599000216,1,1,1
"309",7,302,0.7,"stim/11.jpeg",1,1,2,2,"Instruments",2,"stim/objects/Instruments/cymbal.png",4,"right","right",0.582000017,1,1,1
"310",7,303,0.5,"stim/54.jpeg",5,4,1,1,"HouseObjects",1,"stim/objects/HouseObjects/hairdryer.png",3,"left","left",0.569999933,1,1,1
"311",7,304,0.9,"stim/42.jpeg",4,2,3,2,"HouseObjects",1,"stim/objects/HouseObjects/dustpan.png",4,"left","left",0.671999931,1,1,1
"312",7,305,0.7,"stim/13.jpeg",1,3,2,1,"Instruments",2,"stim/objects/Instruments/tuba.png",3,"right","right",0.604000092,1,1,1
"313",7,306,0.9,"stim/32.jpeg",3,2,3,2,"Instruments",2,"stim/objects/Instruments/frenchhorn.png",2,"right","right",0.580000162,1,1,1
"314",7,307,0.9,"stim/41.jpeg",4,1,3,2,"HouseObjects",1,"stim/objects/HouseObjects/dustpan.png",2,"left","left",0.59800005,1,1,1
"315",7,308,0.1,"stim/33.jpeg",3,3,3,1,"HouseObjects",1,"stim/objects/HouseObjects/flyswatter2.png",3,"left","right",0.52699995,0,0,1
"316",7,309,0.9,"stim/41.jpeg",4,1,3,1,"HouseObjects",1,"stim/objects/HouseObjects/vacuumcleaner2.png",2,"left","left",0.539999962,1,1,1
"317",7,310,0.5,"stim/63.jpeg",6,3,1,2,"Instruments",2,"stim/objects/Instruments/cornet.png",1,"right","left",0.779000044,0,0,1
"318",7,311,0.9,"stim/43.jpeg",4,3,3,2,"HouseObjects",1,"stim/objects/HouseObjects/flyswatter.png",4,"left","left",0.624000072,1,1,1
"319",7,312,0.5,"stim/64.jpeg",6,4,1,2,"HouseObjects",1,"stim/objects/HouseObjects/bottle.png",3,"left","right",0.59100008,0,0,1
"320",7,313,0.7,"stim/13.jpeg",1,3,2,2,"Instruments",2,"stim/objects/Instruments/cymbal.png",2,"right","right",0.671000004,1,1,1
"321",7,314,0.9,"stim/43.jpeg",4,3,3,2,"HouseObjects",1,"stim/objects/HouseObjects/doormat.png",1,"left","left",0.592999935,1,1,1
"322",7,315,0.5,"stim/53.jpeg",5,3,1,1,"HouseObjects",1,"stim/objects/HouseObjects/safetypin.png",3,"left","left",0.536999941,1,1,1
"323",7,316,0.9,"stim/34.jpeg",3,4,3,2,"Instruments",2,"stim/objects/Instruments/gong.png",1,"right","right",0.603999853,1,1,1
"324",7,317,0.9,"stim/41.jpeg",4,1,3,2,"HouseObjects",1,"stim/objects/HouseObjects/flyswatter.png",1,"left","left",0.582999945,1,1,1
"325",7,318,0.9,"stim/33.jpeg",3,3,3,2,"Instruments",2,"stim/objects/Instruments/gong.png",3,"right","right",0.582999945,1,1,1
"326",7,319,0.7,"stim/24.jpeg",2,4,2,1,"HouseObjects",1,"stim/objects/HouseObjects/blender2.png",3,"left","left",0.572999954,1,1,1
"327",7,320,0.7,"stim/13.jpeg",1,3,2,2,"Instruments",2,"stim/objects/Instruments/electricdrumset.png",4,"right","right",0.652999878,1,1,1
"328",7,321,0.9,"stim/32.jpeg",3,2,3,1,"Instruments",2,"stim/objects/Instruments/harp2.png",1,"right","right",0.661000013,1,1,1
"329",7,322,0.3,"stim/22.jpeg",2,2,2,1,"Instruments",2,"stim/objects/Instruments/electricdrumset2.png",2,"right","left",0.574999809,0,0,1
"330",7,323,0.7,"stim/23.jpeg",2,3,2,2,"HouseObjects",1,"stim/objects/HouseObjects/clothesdryingrack.png",4,"left","left",0.575999975,1,1,1
"331",7,324,0.9,"stim/33.jpeg",3,3,3,2,"Instruments",2,"stim/objects/Instruments/gong.png",3,"right","right",0.565000057,1,1,1
"332",7,325,0.5,"stim/52.jpeg",5,2,1,1,"HouseObjects",1,"stim/objects/HouseObjects/handvacuum.png",4,"left","left",0.55700016,1,1,1
"333",7,326,0.7,"stim/14.jpeg",1,4,2,1,"Instruments",2,"stim/objects/Instruments/violin.png",2,"right","right",0.595000029,1,1,1
"334",7,327,0.5,"stim/62.jpeg",6,2,1,2,"HouseObjects",1,"stim/objects/HouseObjects/broom.png",2,"left","right",0.623999834,0,0,1
"335",7,328,0.9,"stim/32.jpeg",3,2,3,2,"Instruments",2,"stim/objects/Instruments/flutetrans.png",1,"right","right",0.517999887,1,1,1
"336",7,329,0.5,"stim/62.jpeg",6,2,1,1,"HouseObjects",1,"stim/objects/HouseObjects/scale.png",2,"left","right",0.491000175,0,0,1
"337",7,330,0.9,"stim/43.jpeg",4,3,3,2,"HouseObjects",1,"stim/objects/HouseObjects/glass.png",1,"left","left",0.511000156,1,1,1
"338",7,331,0.9,"stim/34.jpeg",3,4,3,1,"Instruments",2,"stim/objects/Instruments/flutetrans2.png",4,"right","right",0.504999876,1,1,1
"339",7,332,0.7,"stim/13.jpeg",1,3,2,1,"Instruments",2,"stim/objects/Instruments/bassdrum2.png",1,"right","right",0.46999979,1,1,1
"340",7,333,0.9,"stim/41.jpeg",4,1,3,2,"HouseObjects",1,"stim/objects/HouseObjects/garbagebin.png",3,"left","left",0.513000011,1,1,1
"341",7,334,0.3,"stim/23.jpeg",2,3,2,1,"Instruments",2,"stim/objects/Instruments/cello2.png",3,"right","left",0.443000078,0,0,1
"342",7,335,0.9,"stim/42.jpeg",4,2,3,2,"HouseObjects",1,"stim/objects/HouseObjects/glass.png",3,"left","left",0.555000067,1,1,1
"343",7,336,0.7,"stim/13.jpeg",1,3,2,2,"Instruments",2,"stim/objects/Instruments/drums.png",2,"right","right",0.826999903,1,1,1
"344",7,337,0.9,"stim/33.jpeg",3,3,3,2,"Instruments",2,"stim/objects/Instruments/grandpiano.png",3,"right","right",0.628000021,1,1,1
"345",7,338,0.9,"stim/44.jpeg",4,4,3,2,"HouseObjects",1,"stim/objects/HouseObjects/flyswatter.png",3,"left","left",0.549999952,1,1,1
"346",7,339,0.7,"stim/22.jpeg",2,2,2,2,"HouseObjects",1,"stim/objects/HouseObjects/clothespin.png",1,"left","left",0.498000145,1,1,1
"347",7,340,0.9,"stim/42.jpeg",4,2,3,2,"HouseObjects",1,"stim/objects/HouseObjects/glass.png",2,"left","right",0.582999945,0,0,1
"348",7,341,0.5,"stim/61.jpeg",6,1,1,2,"Instruments",2,"stim/objects/Instruments/clarinet.png",4,"right","right",0.555999994,1,1,1
"349",7,342,0.7,"stim/22.jpeg",2,2,2,2,"HouseObjects",1,"stim/objects/HouseObjects/clothesdryingrack.png",1,"left","left",0.506000042,1,1,1
"350",7,343,0.5,"stim/54.jpeg",5,4,1,1,"Instruments",2,"stim/objects/Instruments/harp.png",4,"right","left",0.61500001,0,0,1
"351",7,344,0.9,"stim/44.jpeg",4,4,3,2,"HouseObjects",1,"stim/objects/HouseObjects/glass.png",4,"left","left",0.703999996,1,1,1
"352",7,345,0.1,"stim/41.jpeg",4,1,3,1,"Instruments",2,"stim/objects/Instruments/tuba2.png",3,"right","left",0.723999977,0,0,1
"353",7,346,0.3,"stim/12.jpeg",1,2,2,1,"HouseObjects",1,"stim/objects/HouseObjects/bleachbottle2.png",4,"left","right",0.608999968,0,0,1
"354",7,347,0.3,"stim/21.jpeg",2,1,2,1,"Instruments",2,"stim/objects/Instruments/drums2.png",3,"right","left",0.496000051,0,0,1
"355",7,348,0.9,"stim/34.jpeg",3,4,3,2,"Instruments",2,"stim/objects/Instruments/flute.png",4,"right","right",0.687000036,1,1,1
"356",7,349,0.3,"stim/21.jpeg",2,1,2,1,"Instruments",2,"stim/objects/Instruments/clarinet2.png",1,"right","",NA,0,0,1
"357",7,350,0.7,"stim/23.jpeg",2,3,2,1,"HouseObjects",1,"stim/objects/HouseObjects/coffee2.png",2,"left","left",0.403000116,1,1,1
"358",7,351,0.9,"stim/43.jpeg",4,3,3,2,"HouseObjects",1,"stim/objects/HouseObjects/glass.png",3,"left","left",0.539000034,1,1,1
"359",7,352,0.9,"stim/34.jpeg",3,4,3,2,"Instruments",2,"stim/objects/Instruments/grandpiano.png",4,"right","right",0.563999891,1,1,1
"360",7,353,0.9,"stim/43.jpeg",4,3,3,2,"HouseObjects",1,"stim/objects/HouseObjects/garbagebin.png",3,"left","left",0.782000065,1,1,1
"361",7,354,0.9,"stim/43.jpeg",4,3,3,2,"HouseObjects",1,"stim/objects/HouseObjects/doormat.png",4,"left","left",0.492000103,1,1,1
"362",7,355,0.9,"stim/32.jpeg",3,2,3,2,"Instruments",2,"stim/objects/Instruments/flute.png",4,"right","right",0.690999985,1,1,1
"363",7,356,0.7,"stim/24.jpeg",2,4,2,2,"HouseObjects",1,"stim/objects/HouseObjects/cushion.png",1,"left","left",0.553000212,1,1,1
"364",7,357,0.9,"stim/33.jpeg",3,3,3,2,"Instruments",2,"stim/objects/Instruments/grandpiano.png",2,"right","right",0.769999981,1,1,1
"365",7,358,0.9,"stim/32.jpeg",3,2,3,2,"Instruments",2,"stim/objects/Instruments/grandpiano.png",1,"right","right",0.576999903,1,1,1
"366",7,359,0.5,"stim/52.jpeg",5,2,1,2,"HouseObjects",1,"stim/objects/HouseObjects/ballofstring.png",2,"left","left",0.679000139,1,1,1
"367",7,360,0.9,"stim/34.jpeg",3,4,3,2,"Instruments",2,"stim/objects/Instruments/grandpiano.png",4,"right","right",0.680999994,1,1,1
"368",7,361,0.1,"stim/32.jpeg",3,2,3,1,"HouseObjects",1,"stim/objects/HouseObjects/safetypin2.png",1,"left","left",0.71600008,1,1,1
"369",7,362,0.7,"stim/13.jpeg",1,3,2,2,"Instruments",2,"stim/objects/Instruments/electricguitar.png",2,"right","right",0.702000141,1,1,1
"370",7,363,0.5,"stim/51.jpeg",5,1,1,2,"Instruments",2,"stim/objects/Instruments/bassdrum.png",3,"right","left",0.529999971,0,0,1
"371",7,364,0.7,"stim/22.jpeg",2,2,2,2,"HouseObjects",1,"stim/objects/HouseObjects/dishsoap.png",2,"left","left",0.687999964,1,1,1
"372",7,365,0.5,"stim/63.jpeg",6,3,1,2,"HouseObjects",1,"stim/objects/HouseObjects/clock.png",4,"left","right",0.677000046,0,0,1
"373",7,366,0.9,"stim/41.jpeg",4,1,3,2,"HouseObjects",1,"stim/objects/HouseObjects/flyswatter.png",1,"left","left",0.520999908,1,1,1
"374",7,367,0.9,"stim/42.jpeg",4,2,3,2,"HouseObjects",1,"stim/objects/HouseObjects/flyswatter.png",3,"left","left",0.553999901,1,1,1
"375",7,368,0.9,"stim/44.jpeg",4,4,3,2,"HouseObjects",1,"stim/objects/HouseObjects/garbagebin.png",3,"left","left",0.414999962,1,1,1
"376",7,369,0.9,"stim/34.jpeg",3,4,3,2,"Instruments",2,"stim/objects/Instruments/gong.png",4,"right","right",0.596999884,1,1,1
"377",7,370,0.9,"stim/44.jpeg",4,4,3,2,"HouseObjects",1,"stim/objects/HouseObjects/doormat.png",4,"left","left",0.532999992,1,1,1
"378",7,371,0.5,"stim/54.jpeg",5,4,1,2,"HouseObjects",1,"stim/objects/HouseObjects/basket.png",1,"left","left",0.4599998,1,1,1
"379",7,372,0.9,"stim/44.jpeg",4,4,3,2,"HouseObjects",1,"stim/objects/HouseObjects/doormat.png",2,"left","left",0.528999805,1,1,1
"380",7,373,0.9,"stim/43.jpeg",4,3,3,2,"HouseObjects",1,"stim/objects/HouseObjects/flyswatter.png",1,"left","left",0.477999926,1,1,1
"381",7,374,0.9,"stim/41.jpeg",4,1,3,2,"HouseObjects",1,"stim/objects/HouseObjects/garbagebin.png",4,"left","left",0.476000071,1,1,1
"382",7,375,0.7,"stim/12.jpeg",1,2,2,2,"Instruments",2,"stim/objects/Instruments/drums.png",4,"right","right",0.604000092,1,1,1
"383",7,376,0.9,"stim/31.jpeg",3,1,3,2,"Instruments",2,"stim/objects/Instruments/grandpiano.png",4,"right","right",0.575999975,1,1,1
"384",7,377,0.7,"stim/14.jpeg",1,4,2,2,"Instruments",2,"stim/objects/Instruments/cymbal.png",2,"right","right",0.501999855,1,1,1
"385",7,378,0.9,"stim/33.jpeg",3,3,3,2,"Instruments",2,"stim/objects/Instruments/frenchhorn.png",1,"right","right",0.566999912,1,1,1
"386",7,379,0.1,"stim/44.jpeg",4,4,3,1,"Instruments",2,"stim/objects/Instruments/trumpet2.png",1,"right","left",0.578000069,0,0,1
"387",7,380,0.5,"stim/51.jpeg",5,1,1,2,"HouseObjects",1,"stim/objects/HouseObjects/bleachbottle.png",4,"left","left",0.627000093,1,1,1
"388",7,381,0.9,"stim/41.jpeg",4,1,3,1,"HouseObjects",1,"stim/objects/HouseObjects/teapot2.png",4,"left","left",0.65199995,1,1,1
"389",7,382,0.1,"stim/41.jpeg",4,1,3,1,"Instruments",2,"stim/objects/Instruments/timbal2.png",1,"right","left",0.525000095,0,0,1
"390",7,383,0.9,"stim/32.jpeg",3,2,3,2,"Instruments",2,"stim/objects/Instruments/gong.png",3,"right","right",0.760999918,1,1,1
"391",7,384,0.5,"stim/54.jpeg",5,4,1,2,"HouseObjects",1,"stim/objects/HouseObjects/barbecuelighter.png",2,"left","left",0.52699995,1,1,1
"392",7,385,0.9,"stim/34.jpeg",3,4,3,2,"Instruments",2,"stim/objects/Instruments/frenchhorn.png",1,"right","",NA,0,0,1
"393",7,386,0.9,"stim/34.jpeg",3,4,3,2,"Instruments",2,"stim/objects/Instruments/gong.png",4,"right","left",0.737999916,0,0,1
"394",7,387,0.9,"stim/43.jpeg",4,3,3,2,"HouseObjects",1,"stim/objects/HouseObjects/dustpan.png",2,"left","",NA,0,0,1
"395",7,388,0.9,"stim/31.jpeg",3,1,3,2,"Instruments",2,"stim/objects/Instruments/gong.png",3,"right","right",0.794999838,1,1,1
"396",7,389,0.5,"stim/52.jpeg",5,2,1,2,"HouseObjects",1,"stim/objects/HouseObjects/ashtray.png",3,"left","left",0.769000053,1,1,1
"397",7,390,0.5,"stim/53.jpeg",5,3,1,1,"HouseObjects",1,"stim/objects/HouseObjects/glassmop.png",3,"left","right",0.837999821,0,0,1
"398",7,391,0.5,"stim/63.jpeg",6,3,1,1,"HouseObjects",1,"stim/objects/HouseObjects/sponge.png",1,"left","right",0.729000092,0,0,1
"399",7,392,0.9,"stim/33.jpeg",3,3,3,2,"Instruments",2,"stim/objects/Instruments/gong.png",2,"right","",NA,0,0,1
"400",7,393,0.9,"stim/44.jpeg",4,4,3,2,"HouseObjects",1,"stim/objects/HouseObjects/flyswatter.png",3,"left","left",0.842000008,1,1,1
"401",7,394,0.9,"stim/43.jpeg",4,3,3,2,"HouseObjects",1,"stim/objects/HouseObjects/flyswatter.png",1,"left","left",0.61500001,1,1,1
"402",7,395,0.9,"stim/33.jpeg",3,3,3,2,"Instruments",2,"stim/objects/Instruments/grandpiano.png",2,"right","",NA,0,0,1
"403",7,396,0.5,"stim/63.jpeg",6,3,1,1,"Instruments",2,"stim/objects/Instruments/triangle.png",4,"right","left",0.781000137,0,0,1
"404",7,397,0.9,"stim/43.jpeg",4,3,3,2,"HouseObjects",1,"stim/objects/HouseObjects/garbagebin.png",3,"left","right",0.870000124,0,0,1
"405",7,398,0.9,"stim/42.jpeg",4,2,3,2,"HouseObjects",1,"stim/objects/HouseObjects/garbagebin.png",2,"left","right",0.585000038,0,0,1
"406",7,399,0.9,"stim/31.jpeg",3,1,3,2,"Instruments",2,"stim/objects/Instruments/frenchhorn.png",1,"right","right",0.584000111,1,1,1
"407",7,400,0.5,"stim/64.jpeg",6,4,1,2,"Instruments",2,"stim/objects/Instruments/cello.png",4,"right","right",0.655999899,1,1,1
"408",7,401,0.7,"stim/21.jpeg",2,1,2,2,"HouseObjects",1,"stim/objects/HouseObjects/coffee.png",3,"left","right",0.539000034,0,0,1
"409",7,402,0.3,"stim/11.jpeg",1,1,2,1,"HouseObjects",1,"stim/objects/HouseObjects/thermometer.png",1,"left","right",0.757999897,0,0,1
"410",7,403,0.9,"stim/34.jpeg",3,4,3,2,"Instruments",2,"stim/objects/Instruments/flute.png",2,"right","right",0.707000017,1,1,1
"411",7,404,0.7,"stim/24.jpeg",2,4,2,2,"HouseObjects",1,"stim/objects/HouseObjects/clothespin.png",3,"left","left",0.503000021,1,1,1
"412",7,405,0.5,"stim/62.jpeg",6,2,1,2,"Instruments",2,"stim/objects/Instruments/clarinet.png",2,"right","right",0.552000046,1,1,1
"413",7,406,0.7,"stim/14.jpeg",1,4,2,2,"Instruments",2,"stim/objects/Instruments/electricguitar.png",4,"right","right",0.709000111,1,1,1
"414",7,407,0.9,"stim/44.jpeg",4,4,3,1,"HouseObjects",1,"stim/objects/HouseObjects/towel2.png",3,"left","left",0.653000116,1,1,1
"415",7,408,0.5,"stim/54.jpeg",5,4,1,2,"Instruments",2,"stim/objects/Instruments/bassdrum.png",3,"right","right",0.654999971,1,1,1
"416",7,409,0.1,"stim/31.jpeg",3,1,3,1,"HouseObjects",1,"stim/objects/HouseObjects/handvacuum2.png",2,"left","right",0.779000044,0,0,1
"417",7,410,0.5,"stim/64.jpeg",6,4,1,1,"HouseObjects",1,"stim/objects/HouseObjects/spraybottle.png",3,"left","right",0.618999958,0,0,1
"418",7,411,0.9,"stim/34.jpeg",3,4,3,2,"Instruments",2,"stim/objects/Instruments/grandpiano.png",1,"right","right",0.814999819,1,1,1
"419",7,412,0.9,"stim/43.jpeg",4,3,3,2,"HouseObjects",1,"stim/objects/HouseObjects/dustpan.png",2,"left","left",0.632999897,1,1,1
"420",7,413,0.9,"stim/44.jpeg",4,4,3,2,"HouseObjects",1,"stim/objects/HouseObjects/garbagebin.png",3,"left","right",0.759000063,0,0,1
"421",7,414,0.9,"stim/31.jpeg",3,1,3,1,"Instruments",2,"stim/objects/Instruments/frenchhorn2.png",1,"right","right",0.570000172,1,1,1
"422",7,415,0.9,"stim/32.jpeg",3,2,3,2,"Instruments",2,"stim/objects/Instruments/grandpiano.png",1,"right","right",0.755000114,1,1,1
"423",7,416,0.9,"stim/31.jpeg",3,1,3,2,"Instruments",2,"stim/objects/Instruments/grandpiano.png",3,"right","right",0.710999966,1,1,1
"424",7,417,0.3,"stim/22.jpeg",2,2,2,1,"Instruments",2,"stim/objects/Instruments/bassguitar2.png",4,"right","",NA,0,0,1
"425",7,418,0.1,"stim/32.jpeg",3,2,3,1,"HouseObjects",1,"stim/objects/HouseObjects/dustpan2.png",2,"left","right",0.64199996,0,0,1
"426",7,419,0.9,"stim/33.jpeg",3,3,3,2,"Instruments",2,"stim/objects/Instruments/flute.png",1,"right","right",0.680000067,1,1,1
"427",7,420,0.7,"stim/22.jpeg",2,2,2,1,"HouseObjects",1,"stim/objects/HouseObjects/broom2.png",4,"left","left",0.753999949,1,1,1
"428",7,421,0.9,"stim/33.jpeg",3,3,3,2,"Instruments",2,"stim/objects/Instruments/gong.png",2,"right","right",0.648000002,1,1,1
"429",7,422,0.9,"stim/44.jpeg",4,4,3,2,"HouseObjects",1,"stim/objects/HouseObjects/doormat.png",2,"left","left",0.603999853,1,1,1
"430",7,423,0.3,"stim/22.jpeg",2,2,2,1,"Instruments",2,"stim/objects/Instruments/cornet2.png",4,"right","",NA,0,0,1
"431",7,424,0.9,"stim/41.jpeg",4,1,3,2,"HouseObjects",1,"stim/objects/HouseObjects/glass.png",4,"left","",NA,0,0,1
"432",7,425,0.9,"stim/34.jpeg",3,4,3,2,"Instruments",2,"stim/objects/Instruments/frenchhorn.png",4,"right","right",0.566999912,1,1,1
"433",7,426,0.9,"stim/31.jpeg",3,1,3,1,"Instruments",2,"stim/objects/Instruments/harmonica2.png",1,"right","right",0.523000002,1,1,1
"434",7,427,0.5,"stim/53.jpeg",5,3,1,2,"HouseObjects",1,"stim/objects/HouseObjects/ballofstring.png",3,"left","right",0.521999836,0,0,1
"435",7,428,0.1,"stim/34.jpeg",3,4,3,1,"HouseObjects",1,"stim/objects/HouseObjects/handbrush2.png",3,"left","right",0.478000164,0,0,1
"436",7,429,0.9,"stim/43.jpeg",4,3,3,2,"HouseObjects",1,"stim/objects/HouseObjects/garbagebin.png",3,"left","left",0.616999865,1,1,1
"437",7,430,0.9,"stim/32.jpeg",3,2,3,2,"Instruments",2,"stim/objects/Instruments/frenchhorn.png",1,"right","right",0.656000137,1,1,1
"438",7,431,0.5,"stim/51.jpeg",5,1,1,1,"Instruments",2,"stim/objects/Instruments/hihat.png",2,"right","right",0.575999975,1,1,1
"439",7,432,0.9,"stim/32.jpeg",3,2,3,2,"Instruments",2,"stim/objects/Instruments/frenchhorn.png",2,"right","left",0.8349998,0,0,1
"440",7,433,0.9,"stim/41.jpeg",4,1,3,2,"HouseObjects",1,"stim/objects/HouseObjects/doormat.png",4,"left","left",0.554000139,1,1,1
"441",7,434,0.1,"stim/34.jpeg",3,4,3,1,"HouseObjects",1,"stim/objects/HouseObjects/garbagebin2.png",4,"left","left",0.815000057,1,1,1
"442",7,435,0.9,"stim/43.jpeg",4,3,3,2,"HouseObjects",1,"stim/objects/HouseObjects/doormat.png",3,"left","right",0.861999989,0,0,1
"443",7,436,0.5,"stim/53.jpeg",5,3,1,2,"Instruments",2,"stim/objects/Instruments/banjo.png",4,"right","",NA,0,0,1
"444",7,437,0.9,"stim/44.jpeg",4,4,3,2,"HouseObjects",1,"stim/objects/HouseObjects/dustpan.png",3,"left","left",0.649000168,1,1,1
"445",7,438,0.9,"stim/42.jpeg",4,2,3,2,"HouseObjects",1,"stim/objects/HouseObjects/dustpan.png",1,"left","right",0.548000097,0,0,1
"446",7,439,0.9,"stim/41.jpeg",4,1,3,2,"HouseObjects",1,"stim/objects/HouseObjects/flyswatter.png",1,"left","left",0.540999889,1,1,1
"447",7,440,0.9,"stim/32.jpeg",3,2,3,2,"Instruments",2,"stim/objects/Instruments/gong.png",4,"right","right",0.531000137,1,1,1
"448",7,441,0.9,"stim/33.jpeg",3,3,3,1,"Instruments",2,"stim/objects/Instruments/hihat2.png",3,"right","right",0.495999813,1,1,1
"449",7,442,0.9,"stim/33.jpeg",3,3,3,2,"Instruments",2,"stim/objects/Instruments/flute.png",2,"right","right",0.38499999,1,1,1
"450",7,443,0.9,"stim/34.jpeg",3,4,3,2,"Instruments",2,"stim/objects/Instruments/gong.png",3,"right","right",0.413000107,1,1,1
"451",7,444,0.9,"stim/43.jpeg",4,3,3,1,"HouseObjects",1,"stim/objects/HouseObjects/sponge2.png",4,"left","left",0.592000008,1,1,1
"452",7,445,0.3,"stim/13.jpeg",1,3,2,1,"HouseObjects",1,"stim/objects/HouseObjects/towel.png",1,"left","right",0.573999882,0,0,1
"453",7,446,0.9,"stim/32.jpeg",3,2,3,2,"Instruments",2,"stim/objects/Instruments/flute.png",2,"right","right",0.496000051,1,1,1
"454",7,447,0.3,"stim/11.jpeg",1,1,2,1,"HouseObjects",1,"stim/objects/HouseObjects/basket2.png",2,"left","right",0.601000071,0,0,1
"455",7,448,0.5,"stim/53.jpeg",5,3,1,2,"HouseObjects",1,"stim/objects/HouseObjects/barbecuelighter.png",1,"left","right",0.698999882,0,0,1
"456",7,449,0.1,"stim/42.jpeg",4,2,3,1,"Instruments",2,"stim/objects/Instruments/triangle2.png",1,"right","left",0.844000101,0,0,1
"457",7,450,0.5,"stim/52.jpeg",5,2,1,2,"HouseObjects",1,"stim/objects/HouseObjects/bleachbottle.png",1,"left","left",0.876000166,1,1,1
"458",7,451,0.7,"stim/14.jpeg",1,4,2,2,"Instruments",2,"stim/objects/Instruments/doublebass.png",4,"right","right",0.740999937,1,1,1
"459",7,452,0.3,"stim/24.jpeg",2,4,2,1,"Instruments",2,"stim/objects/Instruments/chime2.png",1,"right","left",0.635999918,0,0,1
"460",7,453,0.9,"stim/42.jpeg",4,2,3,2,"HouseObjects",1,"stim/objects/HouseObjects/dustpan.png",3,"left","left",0.653000116,1,1,1
"461",7,454,0.9,"stim/41.jpeg",4,1,3,2,"HouseObjects",1,"stim/objects/HouseObjects/dustpan.png",2,"left","left",0.568000078,1,1,1
"462",7,455,0.9,"stim/41.jpeg",4,1,3,2,"HouseObjects",1,"stim/objects/HouseObjects/doormat.png",2,"left","left",0.475000143,1,1,1
"463",7,456,0.9,"stim/31.jpeg",3,1,3,2,"Instruments",2,"stim/objects/Instruments/gong.png",4,"right","right",0.580000162,1,1,1
"464",7,457,0.1,"stim/31.jpeg",3,1,3,1,"HouseObjects",1,"stim/objects/HouseObjects/glass2.png",1,"left","right",0.554000139,0,0,1
"465",7,458,0.5,"stim/64.jpeg",6,4,1,2,"Instruments",2,"stim/objects/Instruments/chime.png",1,"right","left",0.618999958,0,0,1
"466",7,459,0.7,"stim/21.jpeg",2,1,2,2,"HouseObjects",1,"stim/objects/HouseObjects/clothesdryingrack.png",1,"left","right",0.646000147,0,0,1
"467",7,460,0.9,"stim/32.jpeg",3,2,3,2,"Instruments",2,"stim/objects/Instruments/flute.png",4,"right","right",0.605999947,1,1,1
"468",7,461,0.9,"stim/42.jpeg",4,2,3,2,"HouseObjects",1,"stim/objects/HouseObjects/garbagebin.png",4,"left","left",0.67200017,1,1,1
"469",7,462,0.5,"stim/62.jpeg",6,2,1,2,"Instruments",2,"stim/objects/Instruments/cornet.png",2,"right","right",0.565999985,1,1,1
"470",7,463,0.7,"stim/23.jpeg",2,3,2,2,"HouseObjects",1,"stim/objects/HouseObjects/clothespin.png",2,"left","left",0.551999807,1,1,1
"471",7,464,0.9,"stim/32.jpeg",3,2,3,2,"Instruments",2,"stim/objects/Instruments/flutetrans.png",4,"right","left",0.670000076,0,0,1
"472",7,465,0.9,"stim/43.jpeg",4,3,3,2,"HouseObjects",1,"stim/objects/HouseObjects/dustpan.png",4,"left","left",0.673000097,1,1,1
"473",7,466,0.9,"stim/34.jpeg",3,4,3,2,"Instruments",2,"stim/objects/Instruments/frenchhorn.png",2,"right","right",0.563000202,1,1,1
"474",7,467,0.7,"stim/23.jpeg",2,3,2,1,"HouseObjects",1,"stim/objects/HouseObjects/bucket2.png",3,"left","left",0.60800004,1,1,1
"475",7,468,0.5,"stim/54.jpeg",5,4,1,2,"Instruments",2,"stim/objects/Instruments/accordion.png",4,"right","left",0.803999901,0,0,1
"476",7,469,0.5,"stim/63.jpeg",6,3,1,2,"Instruments",2,"stim/objects/Instruments/cello.png",1,"right","",NA,0,0,1
"477",7,470,0.1,"stim/32.jpeg",3,2,3,1,"HouseObjects",1,"stim/objects/HouseObjects/glassmop2.png",3,"left","left",0.643999815,1,1,1
"478",7,471,0.9,"stim/32.jpeg",3,2,3,2,"Instruments",2,"stim/objects/Instruments/gong.png",1,"right","left",0.593999863,0,0,1
"479",7,472,0.9,"stim/44.jpeg",4,4,3,2,"HouseObjects",1,"stim/objects/HouseObjects/flyswatter.png",3,"left","left",0.798000097,1,1,1
"480",7,473,0.9,"stim/43.jpeg",4,3,3,1,"HouseObjects",1,"stim/objects/HouseObjects/thread2.png",3,"left","left",0.504999876,1,1,1
"481",7,474,0.9,"stim/44.jpeg",4,4,3,2,"HouseObjects",1,"stim/objects/HouseObjects/dustpan.png",1,"left","left",0.508000135,1,1,1
"482",7,475,0.9,"stim/34.jpeg",3,4,3,1,"Instruments",2,"stim/objects/Instruments/saxophone2.png",2,"right","right",0.650000095,1,1,1
"483",7,476,0.9,"stim/41.jpeg",4,1,3,2,"HouseObjects",1,"stim/objects/HouseObjects/doormat.png",2,"left","left",0.671999931,1,1,1
"484",7,477,0.1,"stim/31.jpeg",3,1,3,1,"HouseObjects",1,"stim/objects/HouseObjects/doormat2.png",1,"left","left",0.762000084,1,1,1
"485",7,478,0.7,"stim/24.jpeg",2,4,2,1,"HouseObjects",1,"stim/objects/HouseObjects/cushion2.png",4,"left","right",0.838000059,0,0,1
"486",7,479,0.5,"stim/52.jpeg",5,2,1,1,"Instruments",2,"stim/objects/Instruments/saxophone.png",2,"right","left",0.590000153,0,0,1
"487",7,480,0.9,"stim/43.jpeg",4,3,3,2,"HouseObjects",1,"stim/objects/HouseObjects/glass.png",2,"left","",NA,0,0,1
"488",7,481,0.9,"stim/33.jpeg",3,3,3,1,"Instruments",2,"stim/objects/Instruments/flute2.png",4,"right","left",0.513999939,0,0,1
"489",7,482,0.9,"stim/32.jpeg",3,2,3,2,"Instruments",2,"stim/objects/Instruments/grandpiano.png",2,"right","right",0.487000227,1,1,1
"490",7,483,0.9,"stim/31.jpeg",3,1,3,2,"Instruments",2,"stim/objects/Instruments/flute.png",2,"right","right",0.480999947,1,1,1
"491",7,484,0.7,"stim/23.jpeg",2,3,2,2,"HouseObjects",1,"stim/objects/HouseObjects/dishsoap.png",1,"left","right",0.468000174,0,0,1
"492",7,485,0.9,"stim/42.jpeg",4,2,3,2,"HouseObjects",1,"stim/objects/HouseObjects/glass.png",4,"left","left",0.483999968,1,1,1
"493",7,486,0.9,"stim/31.jpeg",3,1,3,2,"Instruments",2,"stim/objects/Instruments/flutetrans.png",3,"right","right",0.571000099,1,1,1
"494",7,487,0.5,"stim/51.jpeg",5,1,1,2,"Instruments",2,"stim/objects/Instruments/accordion.png",2,"right","right",0.460999966,1,1,1
"495",7,488,0.5,"stim/63.jpeg",6,3,1,2,"Instruments",2,"stim/objects/Instruments/bassguitar.png",4,"right","right",0.743000031,1,1,1
"496",7,489,0.5,"stim/61.jpeg",6,1,1,1,"Instruments",2,"stim/objects/Instruments/tambourine.png",2,"right","right",0.652000189,1,1,1
"497",7,490,0.5,"stim/61.jpeg",6,1,1,1,"HouseObjects",1,"stim/objects/HouseObjects/teapot.png",1,"left","right",0.536000013,0,0,1
"498",7,491,0.7,"stim/14.jpeg",1,4,2,2,"Instruments",2,"stim/objects/Instruments/electricdrumset.png",2,"right","right",0.795000076,1,1,1
"499",7,492,0.1,"stim/43.jpeg",4,3,3,1,"Instruments",2,"stim/objects/Instruments/trombone2.png",4,"right","left",0.54700017,0,0,1
"500",7,493,0.9,"stim/31.jpeg",3,1,3,2,"Instruments",2,"stim/objects/Instruments/flutetrans.png",3,"right","right",0.664000034,1,1,1
"501",7,494,0.7,"stim/11.jpeg",1,1,2,1,"Instruments",2,"stim/objects/Instruments/vuvuzela.png",2,"right","right",0.572999954,1,1,1
"502",7,495,0.9,"stim/33.jpeg",3,3,3,2,"Instruments",2,"stim/objects/Instruments/frenchhorn.png",4,"right","right",0.825999975,1,1,1
"503",7,496,0.7,"stim/21.jpeg",2,1,2,1,"HouseObjects",1,"stim/objects/HouseObjects/dishsoap2.png",4,"left","left",0.710000038,1,1,1
"504",7,497,0.7,"stim/12.jpeg",1,2,2,1,"Instruments",2,"stim/objects/Instruments/xylophone.png",3,"right","right",0.565999985,1,1,1
"505",7,498,0.7,"stim/22.jpeg",2,2,2,1,"HouseObjects",1,"stim/objects/HouseObjects/clothespin2.png",3,"left","left",0.562000036,1,1,1
"506",7,499,0.3,"stim/23.jpeg",2,3,2,1,"Instruments",2,"stim/objects/Instruments/electricguitar2.png",1,"right","left",0.555000067,0,0,1
"507",7,500,0.9,"stim/34.jpeg",3,4,3,2,"Instruments",2,"stim/objects/Instruments/frenchhorn.png",1,"right","right",0.718000174,1,1,1
"508",7,501,0.7,"stim/11.jpeg",1,1,2,1,"Instruments",2,"stim/objects/Instruments/balalaika2.png",4,"right","right",0.67200017,1,1,1
"509",7,502,0.7,"stim/12.jpeg",1,2,2,2,"Instruments",2,"stim/objects/Instruments/doublebass.png",1,"right","right",0.444999933,1,1,1
"510",7,503,0.7,"stim/12.jpeg",1,2,2,1,"Instruments",2,"stim/objects/Instruments/trumpet.png",4,"right","right",0.51699996,1,1,1
"511",7,504,0.9,"stim/41.jpeg",4,1,3,2,"HouseObjects",1,"stim/objects/HouseObjects/flyswatter.png",1,"left","left",0.517999887,1,1,1
"512",7,505,0.9,"stim/42.jpeg",4,2,3,2,"HouseObjects",1,"stim/objects/HouseObjects/doormat.png",1,"left","left",0.433000088,1,1,1
"513",7,506,0.9,"stim/44.jpeg",4,4,3,2,"HouseObjects",1,"stim/objects/HouseObjects/flyswatter.png",2,"left","left",0.461999893,1,1,1
"514",7,507,0.7,"stim/12.jpeg",1,2,2,2,"Instruments",2,"stim/objects/Instruments/electricdrumset.png",1,"right","right",0.496999979,1,1,1
"515",7,508,0.9,"stim/44.jpeg",4,4,3,2,"HouseObjects",1,"stim/objects/HouseObjects/dustpan.png",2,"left","left",0.566000223,1,1,1
"516",7,509,0.9,"stim/31.jpeg",3,1,3,2,"Instruments",2,"stim/objects/Instruments/flute.png",2,"right","right",0.536000013,1,1,1
"517",7,510,0.5,"stim/52.jpeg",5,2,1,2,"Instruments",2,"stim/objects/Instruments/acousticguitar.png",1,"right","left",0.592999935,0,0,1
"518",7,511,0.9,"stim/31.jpeg",3,1,3,2,"Instruments",2,"stim/objects/Instruments/grandpiano.png",2,"right","right",0.561999798,1,1,1
"519",7,512,0.9,"stim/42.jpeg",4,2,3,1,"HouseObjects",1,"stim/objects/HouseObjects/thermometer2.png",1,"left","left",0.614000082,1,1,1
"520",7,513,0.9,"stim/33.jpeg",3,3,3,2,"Instruments",2,"stim/objects/Instruments/flutetrans.png",3,"right","right",0.633000135,1,1,1
"521",7,514,0.9,"stim/31.jpeg",3,1,3,2,"Instruments",2,"stim/objects/Instruments/flutetrans.png",1,"right","right",0.571000099,1,1,1
"522",7,515,0.1,"stim/43.jpeg",4,3,3,1,"Instruments",2,"stim/objects/Instruments/vuvuzela2.png",3,"right","left",0.512000084,0,0,1
"523",7,516,0.9,"stim/42.jpeg",4,2,3,2,"HouseObjects",1,"stim/objects/HouseObjects/glass.png",2,"left","left",0.551000118,1,1,1
"524",7,517,0.5,"stim/62.jpeg",6,2,1,2,"HouseObjects",1,"stim/objects/HouseObjects/bucket.png",4,"left","right",0.618999958,0,0,1
"525",7,518,0.9,"stim/32.jpeg",3,2,3,2,"Instruments",2,"stim/objects/Instruments/flute.png",2,"right","left",0.72300005,0,0,1
"526",7,519,0.9,"stim/33.jpeg",3,3,3,2,"Instruments",2,"stim/objects/Instruments/frenchhorn.png",1,"right","right",0.641000032,1,1,1
"527",7,520,0.5,"stim/51.jpeg",5,1,1,2,"HouseObjects",1,"stim/objects/HouseObjects/ashtray.png",3,"left","left",0.611000061,1,1,1
"528",7,521,0.5,"stim/52.jpeg",5,2,1,1,"Instruments",2,"stim/objects/Instruments/guitarcase.png",3,"right","left",0.604999781,0,0,1
"529",7,522,0.9,"stim/42.jpeg",4,2,3,1,"HouseObjects",1,"stim/objects/HouseObjects/wateringcan2.png",4,"left","",NA,0,0,1
"530",7,523,0.9,"stim/44.jpeg",4,4,3,2,"HouseObjects",1,"stim/objects/HouseObjects/garbagebin.png",1,"left","left",0.504999876,1,1,1
"531",7,524,0.9,"stim/43.jpeg",4,3,3,2,"HouseObjects",1,"stim/objects/HouseObjects/garbagebin.png",2,"left","left",0.468999863,1,1,1
"532",7,525,0.9,"stim/33.jpeg",3,3,3,2,"Instruments",2,"stim/objects/Instruments/grandpiano.png",4,"right","right",0.775999784,1,1,1
"533",7,526,0.9,"stim/31.jpeg",3,1,3,2,"Instruments",2,"stim/objects/Instruments/gong.png",3,"right","left",0.544000149,0,0,1
"534",7,527,0.1,"stim/43.jpeg",4,3,3,1,"Instruments",2,"stim/objects/Instruments/speaker2.png",1,"right","left",0.478999853,0,0,1
"535",7,528,0.5,"stim/62.jpeg",6,2,1,2,"Instruments",2,"stim/objects/Instruments/bassguitar.png",4,"right","left",0.398999929,0,0,1
"536",7,529,0.5,"stim/63.jpeg",6,3,1,2,"HouseObjects",1,"stim/objects/HouseObjects/bucket.png",2,"left","right",0.509000063,0,0,1
"537",7,530,0.9,"stim/34.jpeg",3,4,3,2,"Instruments",2,"stim/objects/Instruments/flutetrans.png",3,"right","right",0.617000103,1,1,1
"538",7,531,0.3,"stim/14.jpeg",1,4,2,1,"HouseObjects",1,"stim/objects/HouseObjects/barbecuelighter2.png",3,"left","right",0.496999979,0,0,1
"539",7,532,0.7,"stim/21.jpeg",2,1,2,1,"HouseObjects",1,"stim/objects/HouseObjects/bottle2.png",1,"left","right",0.656000137,0,0,1
"540",7,533,0.7,"stim/11.jpeg",1,1,2,2,"Instruments",2,"stim/objects/Instruments/electricguitar.png",2,"right","right",0.592999935,1,1,1
"541",7,534,0.3,"stim/12.jpeg",1,2,2,1,"HouseObjects",1,"stim/objects/HouseObjects/thread.png",3,"left","right",0.629999876,0,0,1
"542",7,535,0.5,"stim/53.jpeg",5,3,1,2,"Instruments",2,"stim/objects/Instruments/balalaika.png",4,"right","left",0.578000069,0,0,1
"543",7,536,0.5,"stim/61.jpeg",6,1,1,2,"Instruments",2,"stim/objects/Instruments/chime.png",3,"right","right",0.636000156,1,1,1
"544",7,537,0.7,"stim/12.jpeg",1,2,2,1,"Instruments",2,"stim/objects/Instruments/banjo2.png",2,"right","right",0.736000061,1,1,1
"545",7,538,0.7,"stim/22.jpeg",2,2,2,2,"HouseObjects",1,"stim/objects/HouseObjects/cushion.png",3,"left","left",0.796000004,1,1,1
"546",7,539,0.9,"stim/34.jpeg",3,4,3,2,"Instruments",2,"stim/objects/Instruments/flutetrans.png",4,"right","right",0.463999987,1,1,1
"547",7,540,0.9,"stim/33.jpeg",3,3,3,1,"Instruments",2,"stim/objects/Instruments/grandpiano2.png",2,"right","right",0.611000061,1,1,1
"548",7,541,0.9,"stim/41.jpeg",4,1,3,2,"HouseObjects",1,"stim/objects/HouseObjects/dustpan.png",2,"left","left",0.546999931,1,1,1
"549",7,542,0.9,"stim/31.jpeg",3,1,3,2,"Instruments",2,"stim/objects/Instruments/gong.png",3,"right","right",0.712000132,1,1,1
"550",7,543,0.5,"stim/64.jpeg",6,4,1,2,"HouseObjects",1,"stim/objects/HouseObjects/clock.png",1,"left","right",0.588000059,0,0,1
"551",7,544,0.1,"stim/44.jpeg",4,4,3,1,"Instruments",2,"stim/objects/Instruments/tambourine2.png",4,"right","left",0.621000051,0,0,1
"552",7,545,0.5,"stim/54.jpeg",5,4,1,2,"Instruments",2,"stim/objects/Instruments/banjo.png",2,"right","left",0.592000008,0,0,1
"553",7,546,0.7,"stim/24.jpeg",2,4,2,2,"HouseObjects",1,"stim/objects/HouseObjects/coffee.png",4,"left","left",0.567000151,1,1,1
"554",7,547,0.5,"stim/61.jpeg",6,1,1,2,"HouseObjects",1,"stim/objects/HouseObjects/bottle.png",2,"left","right",0.575999975,0,0,1
"555",7,548,0.9,"stim/43.jpeg",4,3,3,2,"HouseObjects",1,"stim/objects/HouseObjects/glass.png",4,"left","left",0.649999857,1,1,1
"556",7,549,0.9,"stim/34.jpeg",3,4,3,2,"Instruments",2,"stim/objects/Instruments/flute.png",4,"right","left",0.641000032,0,0,1
"557",7,550,0.9,"stim/44.jpeg",4,4,3,1,"HouseObjects",1,"stim/objects/HouseObjects/spraybottle2.png",1,"left","left",0.539999962,1,1,1
"558",7,551,0.7,"stim/21.jpeg",2,1,2,2,"HouseObjects",1,"stim/objects/HouseObjects/dishsoap.png",3,"left","left",0.50999999,1,1,1
"559",7,552,0.9,"stim/42.jpeg",4,2,3,2,"HouseObjects",1,"stim/objects/HouseObjects/dustpan.png",4,"left","left",0.700999975,1,1,1
"560",7,553,0.9,"stim/33.jpeg",3,3,3,2,"Instruments",2,"stim/objects/Instruments/flutetrans.png",2,"right","left",0.780999899,0,0,1
"561",7,554,0.7,"stim/21.jpeg",2,1,2,1,"HouseObjects",1,"stim/objects/HouseObjects/clothesdryingrack2.png",3,"left","right",0.528000116,0,0,1
"562",7,555,0.3,"stim/12.jpeg",1,2,2,1,"HouseObjects",1,"stim/objects/HouseObjects/ashtray2.png",2,"left","right",0.510999918,0,0,1
"563",7,556,0.7,"stim/23.jpeg",2,3,2,2,"HouseObjects",1,"stim/objects/HouseObjects/coffee.png",3,"left","right",0.74000001,0,0,1
"564",7,557,0.9,"stim/41.jpeg",4,1,3,2,"HouseObjects",1,"stim/objects/HouseObjects/dustpan.png",2,"left","left",0.563999891,1,1,1
"565",7,558,0.5,"stim/61.jpeg",6,1,1,1,"HouseObjects",1,"stim/objects/HouseObjects/saw.png",2,"left","right",0.585000038,0,0,1
"566",7,559,0.9,"stim/31.jpeg",3,1,3,2,"Instruments",2,"stim/objects/Instruments/flute.png",2,"right","right",0.620000124,1,1,1
"567",7,560,0.9,"stim/41.jpeg",4,1,3,2,"HouseObjects",1,"stim/objects/HouseObjects/garbagebin.png",2,"left","left",0.546999931,1,1,1
"568",7,561,0.5,"stim/53.jpeg",5,3,1,1,"Instruments",2,"stim/objects/Instruments/harmonica.png",3,"right","",NA,0,0,1
"569",7,562,0.9,"stim/31.jpeg",3,1,3,2,"Instruments",2,"stim/objects/Instruments/frenchhorn.png",2,"right","right",0.890999794,1,1,1
"570",7,563,0.9,"stim/31.jpeg",3,1,3,2,"Instruments",2,"stim/objects/Instruments/frenchhorn.png",1,"right","right",0.404999971,1,1,1
"571",7,564,0.9,"stim/33.jpeg",3,3,3,2,"Instruments",2,"stim/objects/Instruments/flutetrans.png",2,"right","right",0.498000145,1,1,1
"572",7,565,0.9,"stim/34.jpeg",3,4,3,2,"Instruments",2,"stim/objects/Instruments/flute.png",1,"right","right",0.6650002,1,1,1
"573",7,566,0.9,"stim/32.jpeg",3,2,3,2,"Instruments",2,"stim/objects/Instruments/flutetrans.png",1,"right","right",0.381000042,1,1,1
"574",7,567,0.9,"stim/34.jpeg",3,4,3,2,"Instruments",2,"stim/objects/Instruments/flutetrans.png",4,"right","right",0.470000029,1,1,1
"575",7,568,0.9,"stim/41.jpeg",4,1,3,2,"HouseObjects",1,"stim/objects/HouseObjects/garbagebin.png",4,"left","left",0.575000048,1,1,1
"576",7,569,0.9,"stim/31.jpeg",3,1,3,2,"Instruments",2,"stim/objects/Instruments/flutetrans.png",4,"right","left",0.463000059,0,0,1
"577",7,570,0.5,"stim/63.jpeg",6,3,1,2,"HouseObjects",1,"stim/objects/HouseObjects/blender.png",4,"left","right",0.521999836,0,0,1
