"","obj_file","X.x","participant.x","trialN.x","trial_cond","scn_file.x","scn_cat","scn_inst","scn_condition","fillers","obj_cat","obj_cat_num","quadrant","corr_ans","key_resp_trial.keys","key_resp_trial.rt","trial_acc","trial_acc_manual","group.x","practice","X.y","participant.y","OvsN","PE_level","object_cat","scn_file.y","corr_scn_cat","corr_scn_inst","scn_file.1","corr_loc","key_resp_id.keys","key_resp_id.rt","key_resp_conf.keys","key_resp_assoc.keys","key_resp_assoc.rt","key_resp_loc.keys","key_resp_loc.rt","trialN.y","id_acc","assoc.acc","cond_assoc","loc.acc","cond_loc","group.y"
"200","stim/objects/Instruments/oboe2.png",1,7,1,0.9,"stim/34.jpeg",3,4,3,NA,"Instruments",2,2,"right","",NA,0,0,1,1,NA,NA,NA,NA,NA,NA,NA,NA,NA,NA,NA,NA,NA,NA,NA,NA,NA,NA,NA,NA,NA,NA,NA,NA
"100","stim/objects/HouseObjects/rubbergloves2.png",2,7,2,0.9,"stim/43.jpeg",4,3,3,NA,"HouseObjects",1,1,"left","left",0.683000088,1,1,1,1,NA,NA,NA,NA,NA,NA,NA,NA,NA,NA,NA,NA,NA,NA,NA,NA,NA,NA,NA,NA,NA,NA,NA,NA
"134","stim/objects/Instruments/laud2.png",3,7,3,0.3,"stim/22.jpeg",2,2,2,NA,"Instruments",2,3,"right","left",0.743000031,0,0,1,1,NA,NA,NA,NA,NA,NA,NA,NA,NA,NA,NA,NA,NA,NA,NA,NA,NA,NA,NA,NA,NA,NA,NA,NA
"172","stim/objects/Instruments/musicsheet2.png",4,7,4,0.9,"stim/32.jpeg",3,2,3,NA,"Instruments",2,3,"right","right",0.578999996,1,1,1,1,NA,NA,NA,NA,NA,NA,NA,NA,NA,NA,NA,NA,NA,NA,NA,NA,NA,NA,NA,NA,NA,NA,NA,NA
"6","stim/objects/HouseObjects/iron2.png",5,7,5,0.7,"stim/21.jpeg",2,1,2,NA,"HouseObjects",1,1,"left","left",0.789999962,1,1,1,1,NA,NA,NA,NA,NA,NA,NA,NA,NA,NA,NA,NA,NA,NA,NA,NA,NA,NA,NA,NA,NA,NA,NA,NA
"126","stim/objects/Instruments/keyboard2.png",6,7,6,0.3,"stim/21.jpeg",2,1,2,NA,"Instruments",2,4,"right","left",0.631000042,0,0,1,1,NA,NA,NA,NA,NA,NA,NA,NA,NA,NA,NA,NA,NA,NA,NA,NA,NA,NA,NA,NA,NA,NA,NA,NA
"88","stim/objects/HouseObjects/remote2.png",7,7,7,0.9,"stim/42.jpeg",4,2,3,NA,"HouseObjects",1,3,"left","left",0.704999924,1,1,1,1,NA,NA,NA,NA,NA,NA,NA,NA,NA,NA,NA,NA,NA,NA,NA,NA,NA,NA,NA,NA,NA,NA,NA,NA
"85","stim/objects/HouseObjects/remote.png",8,7,8,0.3,"stim/12.jpeg",1,2,2,NA,"HouseObjects",1,2,"left","right",0.521000147,0,0,1,1,NA,NA,NA,NA,NA,NA,NA,NA,NA,NA,NA,NA,NA,NA,NA,NA,NA,NA,NA,NA,NA,NA,NA,NA
"37","stim/objects/HouseObjects/knife.png",9,7,9,0.5,"stim/54.jpeg",5,4,1,NA,"HouseObjects",1,4,"left","left",0.711999893,1,1,1,1,NA,NA,NA,NA,NA,NA,NA,NA,NA,NA,NA,NA,NA,NA,NA,NA,NA,NA,NA,NA,NA,NA,NA,NA
"233","stim/objects/Instruments/record.png",10,7,10,0.7,"stim/13.jpeg",1,3,2,NA,"Instruments",2,4,"right","right",0.614000082,1,1,1,1,NA,NA,NA,NA,NA,NA,NA,NA,NA,NA,NA,NA,NA,NA,NA,NA,NA,NA,NA,NA,NA,NA,NA,NA
"153","stim/objects/Instruments/metronome.png",11,7,11,0.5,"stim/61.jpeg",6,1,1,NA,"Instruments",2,3,"right","left",0.69900012,0,0,1,1,NA,NA,NA,NA,NA,NA,NA,NA,NA,NA,NA,NA,NA,NA,NA,NA,NA,NA,NA,NA,NA,NA,NA,NA
"38","stim/objects/HouseObjects/knife.png",12,7,12,0.5,"stim/54.jpeg",5,4,1,NA,"HouseObjects",1,4,"left","left",0.758000135,1,1,1,1,NA,NA,NA,NA,NA,NA,NA,NA,NA,NA,NA,NA,NA,NA,NA,NA,NA,NA,NA,NA,NA,NA,NA,NA
"7","stim/objects/HouseObjects/iron2.png",13,7,13,0.7,"stim/21.jpeg",2,1,2,NA,"HouseObjects",1,1,"left","left",0.717000008,1,1,1,1,NA,NA,NA,NA,NA,NA,NA,NA,NA,NA,NA,NA,NA,NA,NA,NA,NA,NA,NA,NA,NA,NA,NA,NA
"8","stim/objects/HouseObjects/iron2.png",14,7,14,0.7,"stim/21.jpeg",2,1,2,NA,"HouseObjects",1,1,"left","left",0.660000086,1,1,1,1,NA,NA,NA,NA,NA,NA,NA,NA,NA,NA,NA,NA,NA,NA,NA,NA,NA,NA,NA,NA,NA,NA,NA,NA
"129","stim/objects/Instruments/laud.png",15,7,15,0.5,"stim/52.jpeg",5,2,1,NA,"Instruments",2,4,"right","left",0.771999836,0,0,1,1,NA,NA,NA,NA,NA,NA,NA,NA,NA,NA,NA,NA,NA,NA,NA,NA,NA,NA,NA,NA,NA,NA,NA,NA
"201","stim/objects/Instruments/oboe2.png",16,7,16,0.9,"stim/34.jpeg",3,4,3,NA,"Instruments",2,3,"right","right",0.654999971,1,1,1,1,NA,NA,NA,NA,NA,NA,NA,NA,NA,NA,NA,NA,NA,NA,NA,NA,NA,NA,NA,NA,NA,NA,NA,NA
"158","stim/objects/Instruments/metronome2.png",17,7,17,0.9,"stim/31.jpeg",3,1,3,NA,"Instruments",2,3,"right","right",0.565000057,1,1,1,1,NA,NA,NA,NA,NA,NA,NA,NA,NA,NA,NA,NA,NA,NA,NA,NA,NA,NA,NA,NA,NA,NA,NA,NA
"25","stim/objects/HouseObjects/key.png",18,7,18,0.5,"stim/53.jpeg",5,3,1,NA,"HouseObjects",1,4,"left","left",0.66899991,1,1,1,1,NA,NA,NA,NA,NA,NA,NA,NA,NA,NA,NA,NA,NA,NA,NA,NA,NA,NA,NA,NA,NA,NA,NA,NA
"234","stim/objects/Instruments/record.png",19,7,19,0.7,"stim/13.jpeg",1,3,2,NA,"Instruments",2,4,"right","right",0.569000006,1,1,1,1,NA,NA,NA,NA,NA,NA,NA,NA,NA,NA,NA,NA,NA,NA,NA,NA,NA,NA,NA,NA,NA,NA,NA,NA
"76","stim/objects/HouseObjects/recyclingbin2.png",20,7,20,0.9,"stim/41.jpeg",4,1,3,NA,"HouseObjects",1,3,"left","left",0.529000044,1,1,1,1,NA,NA,NA,NA,NA,NA,NA,NA,NA,NA,NA,NA,NA,NA,NA,NA,NA,NA,NA,NA,NA,NA,NA,NA
"130","stim/objects/Instruments/laud.png",21,7,21,0.5,"stim/52.jpeg",5,2,1,NA,"Instruments",2,4,"right","left",0.779000044,0,0,1,1,NA,NA,NA,NA,NA,NA,NA,NA,NA,NA,NA,NA,NA,NA,NA,NA,NA,NA,NA,NA,NA,NA,NA,NA
"49","stim/objects/HouseObjects/lintroller.png",22,7,22,0.5,"stim/61.jpeg",6,1,1,NA,"HouseObjects",1,2,"left","right",0.632999897,0,0,1,1,NA,NA,NA,NA,NA,NA,NA,NA,NA,NA,NA,NA,NA,NA,NA,NA,NA,NA,NA,NA,NA,NA,NA,NA
"137","stim/objects/Instruments/maraca.png",23,7,23,0.5,"stim/53.jpeg",5,3,1,NA,"Instruments",2,3,"right","left",0.605000019,0,0,1,1,NA,NA,NA,NA,NA,NA,NA,NA,NA,NA,NA,NA,NA,NA,NA,NA,NA,NA,NA,NA,NA,NA,NA,NA
"66","stim/objects/HouseObjects/pan2.png",24,7,24,0.1,"stim/33.jpeg",3,3,3,NA,"HouseObjects",1,4,"left","right",0.60800004,0,0,1,1,NA,NA,NA,NA,NA,NA,NA,NA,NA,NA,NA,NA,NA,NA,NA,NA,NA,NA,NA,NA,NA,NA,NA,NA
"225","stim/objects/Instruments/record_player.png",25,7,25,0.7,"stim/14.jpeg",1,4,2,NA,"Instruments",2,3,"right","right",0.634000063,1,1,1,1,NA,NA,NA,NA,NA,NA,NA,NA,NA,NA,NA,NA,NA,NA,NA,NA,NA,NA,NA,NA,NA,NA,NA,NA
"226","stim/objects/Instruments/record_player.png",26,7,26,0.7,"stim/14.jpeg",1,4,2,NA,"Instruments",2,2,"right","right",0.674999952,1,1,1,1,NA,NA,NA,NA,NA,NA,NA,NA,NA,NA,NA,NA,NA,NA,NA,NA,NA,NA,NA,NA,NA,NA,NA,NA
"142","stim/objects/Instruments/maraca2.png",27,7,27,0.3,"stim/23.jpeg",2,3,2,NA,"Instruments",2,2,"right","left",0.649999857,0,0,1,1,NA,NA,NA,NA,NA,NA,NA,NA,NA,NA,NA,NA,NA,NA,NA,NA,NA,NA,NA,NA,NA,NA,NA,NA
"209","stim/objects/Instruments/panflute.png",28,7,28,0.7,"stim/11.jpeg",1,1,2,NA,"Instruments",2,2,"right","right",0.598999977,1,1,1,1,NA,NA,NA,NA,NA,NA,NA,NA,NA,NA,NA,NA,NA,NA,NA,NA,NA,NA,NA,NA,NA,NA,NA,NA
"167","stim/objects/Instruments/musicsheet.png",29,7,29,0.5,"stim/62.jpeg",6,2,1,NA,"Instruments",2,1,"right","right",0.592999935,1,1,1,1,NA,NA,NA,NA,NA,NA,NA,NA,NA,NA,NA,NA,NA,NA,NA,NA,NA,NA,NA,NA,NA,NA,NA,NA
"9","stim/objects/HouseObjects/iron2.png",30,7,30,0.7,"stim/21.jpeg",2,1,2,NA,"HouseObjects",1,1,"left","left",0.612999916,1,1,1,1,NA,NA,NA,NA,NA,NA,NA,NA,NA,NA,NA,NA,NA,NA,NA,NA,NA,NA,NA,NA,NA,NA,NA,NA
"72","stim/objects/HouseObjects/pitcher2.png",31,7,31,0.1,"stim/34.jpeg",3,4,3,NA,"HouseObjects",1,3,"left","right",0.630999804,0,0,1,1,NA,NA,NA,NA,NA,NA,NA,NA,NA,NA,NA,NA,NA,NA,NA,NA,NA,NA,NA,NA,NA,NA,NA,NA
"101","stim/objects/HouseObjects/rubbergloves2.png",32,7,32,0.9,"stim/43.jpeg",4,3,3,NA,"HouseObjects",1,2,"left","left",0.588000059,1,1,1,1,NA,NA,NA,NA,NA,NA,NA,NA,NA,NA,NA,NA,NA,NA,NA,NA,NA,NA,NA,NA,NA,NA,NA,NA
"195","stim/objects/Instruments/oboe.png",33,7,33,0.5,"stim/64.jpeg",6,4,1,NA,"Instruments",2,3,"right","right",0.557999849,1,1,1,1,NA,NA,NA,NA,NA,NA,NA,NA,NA,NA,NA,NA,NA,NA,NA,NA,NA,NA,NA,NA,NA,NA,NA,NA
"202","stim/objects/Instruments/oboe2.png",34,7,34,0.9,"stim/34.jpeg",3,4,3,NA,"Instruments",2,4,"right","right",0.61500001,1,1,1,1,NA,NA,NA,NA,NA,NA,NA,NA,NA,NA,NA,NA,NA,NA,NA,NA,NA,NA,NA,NA,NA,NA,NA,NA
"173","stim/objects/Instruments/musicsheet2.png",35,7,35,0.9,"stim/32.jpeg",3,2,3,NA,"Instruments",2,1,"right","right",0.572000027,1,1,1,1,NA,NA,NA,NA,NA,NA,NA,NA,NA,NA,NA,NA,NA,NA,NA,NA,NA,NA,NA,NA,NA,NA,NA,NA
"135","stim/objects/Instruments/laud2.png",36,7,36,0.3,"stim/22.jpeg",2,2,2,NA,"Instruments",2,4,"right","left",0.545000076,0,0,1,1,NA,NA,NA,NA,NA,NA,NA,NA,NA,NA,NA,NA,NA,NA,NA,NA,NA,NA,NA,NA,NA,NA,NA,NA
"159","stim/objects/Instruments/metronome2.png",37,7,37,0.9,"stim/31.jpeg",3,1,3,NA,"Instruments",2,3,"right","right",0.585999966,1,1,1,1,NA,NA,NA,NA,NA,NA,NA,NA,NA,NA,NA,NA,NA,NA,NA,NA,NA,NA,NA,NA,NA,NA,NA,NA
"131","stim/objects/Instruments/laud.png",38,7,38,0.5,"stim/52.jpeg",5,2,1,NA,"Instruments",2,2,"right","left",0.601999998,0,0,1,1,NA,NA,NA,NA,NA,NA,NA,NA,NA,NA,NA,NA,NA,NA,NA,NA,NA,NA,NA,NA,NA,NA,NA,NA
"217","stim/objects/Instruments/pipepiano.png",39,7,39,0.7,"stim/12.jpeg",1,2,2,NA,"Instruments",2,3,"right","right",0.558000088,1,1,1,1,NA,NA,NA,NA,NA,NA,NA,NA,NA,NA,NA,NA,NA,NA,NA,NA,NA,NA,NA,NA,NA,NA,NA,NA
"112","stim/objects/HouseObjects/rug2.png",40,7,40,0.9,"stim/44.jpeg",4,4,3,NA,"HouseObjects",1,4,"left","left",0.586999893,1,1,1,1,NA,NA,NA,NA,NA,NA,NA,NA,NA,NA,NA,NA,NA,NA,NA,NA,NA,NA,NA,NA,NA,NA,NA,NA
"67","stim/objects/HouseObjects/pitcher.png",41,7,41,0.5,"stim/64.jpeg",6,4,1,NA,"HouseObjects",1,3,"left","right",0.792000055,0,0,1,1,NA,NA,NA,NA,NA,NA,NA,NA,NA,NA,NA,NA,NA,NA,NA,NA,NA,NA,NA,NA,NA,NA,NA,NA
"42","stim/objects/HouseObjects/knife2.png",42,7,42,0.7,"stim/24.jpeg",2,4,2,NA,"HouseObjects",1,4,"left","",NA,0,0,1,1,NA,NA,NA,NA,NA,NA,NA,NA,NA,NA,NA,NA,NA,NA,NA,NA,NA,NA,NA,NA,NA,NA,NA,NA
"113","stim/objects/HouseObjects/rug2.png",43,7,43,0.9,"stim/44.jpeg",4,4,3,NA,"HouseObjects",1,2,"left","left",0.664999962,1,1,1,1,NA,NA,NA,NA,NA,NA,NA,NA,NA,NA,NA,NA,NA,NA,NA,NA,NA,NA,NA,NA,NA,NA,NA,NA
"160","stim/objects/Instruments/metronome2.png",44,7,44,0.9,"stim/31.jpeg",3,1,3,NA,"Instruments",2,3,"right","right",0.487999916,1,1,1,1,NA,NA,NA,NA,NA,NA,NA,NA,NA,NA,NA,NA,NA,NA,NA,NA,NA,NA,NA,NA,NA,NA,NA,NA
"55","stim/objects/HouseObjects/match.png",45,7,45,0.5,"stim/62.jpeg",6,2,1,NA,"HouseObjects",1,4,"left","right",0.740999937,0,0,1,1,NA,NA,NA,NA,NA,NA,NA,NA,NA,NA,NA,NA,NA,NA,NA,NA,NA,NA,NA,NA,NA,NA,NA,NA
"127","stim/objects/Instruments/keyboard2.png",46,7,46,0.3,"stim/21.jpeg",2,1,2,NA,"Instruments",2,4,"right","left",0.676000118,0,0,1,1,NA,NA,NA,NA,NA,NA,NA,NA,NA,NA,NA,NA,NA,NA,NA,NA,NA,NA,NA,NA,NA,NA,NA,NA
"196","stim/objects/Instruments/oboe.png",47,7,47,0.5,"stim/64.jpeg",6,4,1,NA,"Instruments",2,2,"right","right",0.730000019,1,1,1,1,NA,NA,NA,NA,NA,NA,NA,NA,NA,NA,NA,NA,NA,NA,NA,NA,NA,NA,NA,NA,NA,NA,NA,NA
"77","stim/objects/HouseObjects/recyclingbin2.png",48,7,48,0.9,"stim/41.jpeg",4,1,3,NA,"HouseObjects",1,1,"left","left",0.544000149,1,1,1,1,NA,NA,NA,NA,NA,NA,NA,NA,NA,NA,NA,NA,NA,NA,NA,NA,NA,NA,NA,NA,NA,NA,NA,NA
"145","stim/objects/Instruments/marimba.png",49,7,49,0.5,"stim/54.jpeg",5,4,1,NA,"Instruments",2,3,"right","left",0.750999928,0,0,1,1,NA,NA,NA,NA,NA,NA,NA,NA,NA,NA,NA,NA,NA,NA,NA,NA,NA,NA,NA,NA,NA,NA,NA,NA
"78","stim/objects/HouseObjects/recyclingbin2.png",50,7,50,0.9,"stim/41.jpeg",4,1,3,NA,"HouseObjects",1,3,"left","left",0.582999945,1,1,1,1,NA,NA,NA,NA,NA,NA,NA,NA,NA,NA,NA,NA,NA,NA,NA,NA,NA,NA,NA,NA,NA,NA,NA,NA
"121","stim/objects/Instruments/keyboard.png",51,7,51,0.5,"stim/51.jpeg",5,1,1,NA,"Instruments",2,4,"right","left",0.578999996,0,0,1,1,NA,NA,NA,NA,NA,NA,NA,NA,NA,NA,NA,NA,NA,NA,NA,NA,NA,NA,NA,NA,NA,NA,NA,NA
"174","stim/objects/Instruments/musicsheet2.png",52,7,52,0.9,"stim/32.jpeg",3,2,3,NA,"Instruments",2,4,"right","right",0.742000103,1,1,1,1,NA,NA,NA,NA,NA,NA,NA,NA,NA,NA,NA,NA,NA,NA,NA,NA,NA,NA,NA,NA,NA,NA,NA,NA
"86","stim/objects/HouseObjects/remote.png",53,7,53,0.3,"stim/12.jpeg",1,2,2,NA,"HouseObjects",1,1,"left","right",0.618999958,0,0,1,1,NA,NA,NA,NA,NA,NA,NA,NA,NA,NA,NA,NA,NA,NA,NA,NA,NA,NA,NA,NA,NA,NA,NA,NA
"175","stim/objects/Instruments/musicsheet2.png",54,7,54,0.9,"stim/32.jpeg",3,2,3,NA,"Instruments",2,4,"right","right",0.46600008,1,1,1,1,NA,NA,NA,NA,NA,NA,NA,NA,NA,NA,NA,NA,NA,NA,NA,NA,NA,NA,NA,NA,NA,NA,NA,NA
"114","stim/objects/HouseObjects/rug2.png",55,7,55,0.9,"stim/44.jpeg",4,4,3,NA,"HouseObjects",1,2,"left","left",0.671000004,1,1,1,1,NA,NA,NA,NA,NA,NA,NA,NA,NA,NA,NA,NA,NA,NA,NA,NA,NA,NA,NA,NA,NA,NA,NA,NA
"68","stim/objects/HouseObjects/pitcher.png",56,7,56,0.5,"stim/64.jpeg",6,4,1,NA,"HouseObjects",1,3,"left","right",0.791000128,0,0,1,1,NA,NA,NA,NA,NA,NA,NA,NA,NA,NA,NA,NA,NA,NA,NA,NA,NA,NA,NA,NA,NA,NA,NA,NA
"89","stim/objects/HouseObjects/remote2.png",57,7,57,0.9,"stim/42.jpeg",4,2,3,NA,"HouseObjects",1,2,"left","left",0.613000154,1,1,1,1,NA,NA,NA,NA,NA,NA,NA,NA,NA,NA,NA,NA,NA,NA,NA,NA,NA,NA,NA,NA,NA,NA,NA,NA
"43","stim/objects/HouseObjects/knife2.png",58,7,58,0.7,"stim/24.jpeg",2,4,2,NA,"HouseObjects",1,3,"left","left",0.638000011,1,1,1,1,NA,NA,NA,NA,NA,NA,NA,NA,NA,NA,NA,NA,NA,NA,NA,NA,NA,NA,NA,NA,NA,NA,NA,NA
"18","stim/objects/HouseObjects/ironingboard2.png",59,7,59,0.7,"stim/22.jpeg",2,2,2,NA,"HouseObjects",1,4,"left","left",0.451999903,1,1,1,1,NA,NA,NA,NA,NA,NA,NA,NA,NA,NA,NA,NA,NA,NA,NA,NA,NA,NA,NA,NA,NA,NA,NA,NA
"168","stim/objects/Instruments/musicsheet.png",60,7,60,0.5,"stim/62.jpeg",6,2,1,NA,"Instruments",2,2,"right","left",0.881000042,0,0,1,1,NA,NA,NA,NA,NA,NA,NA,NA,NA,NA,NA,NA,NA,NA,NA,NA,NA,NA,NA,NA,NA,NA,NA,NA
"102","stim/objects/HouseObjects/rubbergloves2.png",61,7,61,0.9,"stim/43.jpeg",4,3,3,NA,"HouseObjects",1,3,"left","left",0.576999903,1,1,1,1,NA,NA,NA,NA,NA,NA,NA,NA,NA,NA,NA,NA,NA,NA,NA,NA,NA,NA,NA,NA,NA,NA,NA,NA
"13","stim/objects/HouseObjects/ironingboard.png",62,7,62,0.5,"stim/52.jpeg",5,2,1,NA,"HouseObjects",1,2,"left","right",0.524000168,0,0,1,1,NA,NA,NA,NA,NA,NA,NA,NA,NA,NA,NA,NA,NA,NA,NA,NA,NA,NA,NA,NA,NA,NA,NA,NA
"79","stim/objects/HouseObjects/recyclingbin2.png",63,7,63,0.9,"stim/41.jpeg",4,1,3,NA,"HouseObjects",1,1,"left","left",0.523000002,1,1,1,1,NA,NA,NA,NA,NA,NA,NA,NA,NA,NA,NA,NA,NA,NA,NA,NA,NA,NA,NA,NA,NA,NA,NA,NA
"181","stim/objects/Instruments/musicstand.png",64,7,64,0.5,"stim/63.jpeg",6,3,1,NA,"Instruments",2,1,"right","left",0.77699995,0,0,1,1,NA,NA,NA,NA,NA,NA,NA,NA,NA,NA,NA,NA,NA,NA,NA,NA,NA,NA,NA,NA,NA,NA,NA,NA
"161","stim/objects/Instruments/metronome2.png",65,7,65,0.9,"stim/31.jpeg",3,1,3,NA,"Instruments",2,4,"right","",NA,0,0,1,1,NA,NA,NA,NA,NA,NA,NA,NA,NA,NA,NA,NA,NA,NA,NA,NA,NA,NA,NA,NA,NA,NA,NA,NA
"186","stim/objects/Instruments/musicstand2.png",66,7,66,0.9,"stim/33.jpeg",3,3,3,NA,"Instruments",2,2,"right","right",0.757999897,1,1,1,1,NA,NA,NA,NA,NA,NA,NA,NA,NA,NA,NA,NA,NA,NA,NA,NA,NA,NA,NA,NA,NA,NA,NA,NA
"187","stim/objects/Instruments/musicstand2.png",67,7,67,0.9,"stim/33.jpeg",3,3,3,NA,"Instruments",2,3,"right","right",0.610000134,1,1,1,1,NA,NA,NA,NA,NA,NA,NA,NA,NA,NA,NA,NA,NA,NA,NA,NA,NA,NA,NA,NA,NA,NA,NA,NA
"203","stim/objects/Instruments/oboe2.png",68,7,68,0.9,"stim/34.jpeg",3,4,3,NA,"Instruments",2,3,"right","right",0.557999849,1,1,1,1,NA,NA,NA,NA,NA,NA,NA,NA,NA,NA,NA,NA,NA,NA,NA,NA,NA,NA,NA,NA,NA,NA,NA,NA
"210","stim/objects/Instruments/panflute.png",69,7,69,0.7,"stim/11.jpeg",1,1,2,NA,"Instruments",2,1,"right","right",0.656999826,1,1,1,1,NA,NA,NA,NA,NA,NA,NA,NA,NA,NA,NA,NA,NA,NA,NA,NA,NA,NA,NA,NA,NA,NA,NA,NA
"176","stim/objects/Instruments/musicsheet2.png",70,7,70,0.9,"stim/32.jpeg",3,2,3,NA,"Instruments",2,4,"right","right",0.549999952,1,1,1,1,NA,NA,NA,NA,NA,NA,NA,NA,NA,NA,NA,NA,NA,NA,NA,NA,NA,NA,NA,NA,NA,NA,NA,NA
"138","stim/objects/Instruments/maraca.png",71,7,71,0.5,"stim/53.jpeg",5,3,1,NA,"Instruments",2,3,"right","left",0.684000015,0,0,1,1,NA,NA,NA,NA,NA,NA,NA,NA,NA,NA,NA,NA,NA,NA,NA,NA,NA,NA,NA,NA,NA,NA,NA,NA
"1","stim/objects/HouseObjects/iron.png",72,7,72,0.5,"stim/51.jpeg",5,1,1,NA,"HouseObjects",1,3,"left","right",0.487999916,0,0,1,1,NA,NA,NA,NA,NA,NA,NA,NA,NA,NA,NA,NA,NA,NA,NA,NA,NA,NA,NA,NA,NA,NA,NA,NA
"150","stim/objects/Instruments/marimba2.png",73,7,73,0.3,"stim/24.jpeg",2,4,2,NA,"Instruments",2,2,"right","left",0.546000004,0,0,1,1,NA,NA,NA,NA,NA,NA,NA,NA,NA,NA,NA,NA,NA,NA,NA,NA,NA,NA,NA,NA,NA,NA,NA,NA
"14","stim/objects/HouseObjects/ironingboard.png",74,7,74,0.5,"stim/52.jpeg",5,2,1,NA,"HouseObjects",1,2,"left","right",0.540999889,0,0,1,1,NA,NA,NA,NA,NA,NA,NA,NA,NA,NA,NA,NA,NA,NA,NA,NA,NA,NA,NA,NA,NA,NA,NA,NA
"154","stim/objects/Instruments/metronome.png",75,7,75,0.5,"stim/61.jpeg",6,1,1,NA,"Instruments",2,3,"right","right",0.782999992,1,1,1,1,NA,NA,NA,NA,NA,NA,NA,NA,NA,NA,NA,NA,NA,NA,NA,NA,NA,NA,NA,NA,NA,NA,NA,NA
"169","stim/objects/Instruments/musicsheet.png",76,7,76,0.5,"stim/62.jpeg",6,2,1,NA,"Instruments",2,2,"right","right",0.63499999,1,1,1,1,NA,NA,NA,NA,NA,NA,NA,NA,NA,NA,NA,NA,NA,NA,NA,NA,NA,NA,NA,NA,NA,NA,NA,NA
"30","stim/objects/HouseObjects/key2.png",77,7,77,0.7,"stim/23.jpeg",2,3,2,NA,"HouseObjects",1,2,"left","left",0.546999931,1,1,1,1,NA,NA,NA,NA,NA,NA,NA,NA,NA,NA,NA,NA,NA,NA,NA,NA,NA,NA,NA,NA,NA,NA,NA,NA
"146","stim/objects/Instruments/marimba.png",78,7,78,0.5,"stim/54.jpeg",5,4,1,NA,"Instruments",2,2,"right","",NA,0,0,1,1,NA,NA,NA,NA,NA,NA,NA,NA,NA,NA,NA,NA,NA,NA,NA,NA,NA,NA,NA,NA,NA,NA,NA,NA
"155","stim/objects/Instruments/metronome.png",79,7,79,0.5,"stim/61.jpeg",6,1,1,NA,"Instruments",2,1,"right","right",0.690999985,1,1,1,1,NA,NA,NA,NA,NA,NA,NA,NA,NA,NA,NA,NA,NA,NA,NA,NA,NA,NA,NA,NA,NA,NA,NA,NA
"170","stim/objects/Instruments/musicsheet.png",80,7,80,0.5,"stim/62.jpeg",6,2,1,NA,"Instruments",2,1,"right","",NA,0,0,1,1,NA,NA,NA,NA,NA,NA,NA,NA,NA,NA,NA,NA,NA,NA,NA,NA,NA,NA,NA,NA,NA,NA,NA,NA
"235","stim/objects/Instruments/record.png",81,7,81,0.7,"stim/13.jpeg",1,3,2,NA,"Instruments",2,4,"right","right",0.769999981,1,1,1,1,NA,NA,NA,NA,NA,NA,NA,NA,NA,NA,NA,NA,NA,NA,NA,NA,NA,NA,NA,NA,NA,NA,NA,NA
"182","stim/objects/Instruments/musicstand.png",82,7,82,0.5,"stim/63.jpeg",6,3,1,NA,"Instruments",2,4,"right","right",0.614000082,1,1,1,1,NA,NA,NA,NA,NA,NA,NA,NA,NA,NA,NA,NA,NA,NA,NA,NA,NA,NA,NA,NA,NA,NA,NA,NA
"162","stim/objects/Instruments/metronome2.png",83,7,83,0.9,"stim/31.jpeg",3,1,3,NA,"Instruments",2,1,"right","right",0.786000013,1,1,1,1,NA,NA,NA,NA,NA,NA,NA,NA,NA,NA,NA,NA,NA,NA,NA,NA,NA,NA,NA,NA,NA,NA,NA,NA
"211","stim/objects/Instruments/panflute.png",84,7,84,0.7,"stim/11.jpeg",1,1,2,NA,"Instruments",2,1,"right","right",0.611000061,1,1,1,1,NA,NA,NA,NA,NA,NA,NA,NA,NA,NA,NA,NA,NA,NA,NA,NA,NA,NA,NA,NA,NA,NA,NA,NA
"90","stim/objects/HouseObjects/remote2.png",85,7,85,0.9,"stim/42.jpeg",4,2,3,NA,"HouseObjects",1,3,"left","left",0.59800005,1,1,1,1,NA,NA,NA,NA,NA,NA,NA,NA,NA,NA,NA,NA,NA,NA,NA,NA,NA,NA,NA,NA,NA,NA,NA,NA
"80","stim/objects/HouseObjects/recyclingbin2.png",86,7,86,0.9,"stim/41.jpeg",4,1,3,NA,"HouseObjects",1,1,"left","left",0.60800004,1,1,1,1,NA,NA,NA,NA,NA,NA,NA,NA,NA,NA,NA,NA,NA,NA,NA,NA,NA,NA,NA,NA,NA,NA,NA,NA
"19","stim/objects/HouseObjects/ironingboard2.png",87,7,87,0.7,"stim/22.jpeg",2,2,2,NA,"HouseObjects",1,3,"left","left",0.624000072,1,1,1,1,NA,NA,NA,NA,NA,NA,NA,NA,NA,NA,NA,NA,NA,NA,NA,NA,NA,NA,NA,NA,NA,NA,NA,NA
"156","stim/objects/Instruments/metronome.png",88,7,88,0.5,"stim/61.jpeg",6,1,1,NA,"Instruments",2,2,"right","right",0.599999905,1,1,1,1,NA,NA,NA,NA,NA,NA,NA,NA,NA,NA,NA,NA,NA,NA,NA,NA,NA,NA,NA,NA,NA,NA,NA,NA
"128","stim/objects/Instruments/keyboard2.png",89,7,89,0.3,"stim/21.jpeg",2,1,2,NA,"Instruments",2,2,"right","left",0.551999807,0,0,1,1,NA,NA,NA,NA,NA,NA,NA,NA,NA,NA,NA,NA,NA,NA,NA,NA,NA,NA,NA,NA,NA,NA,NA,NA
"132","stim/objects/Instruments/laud.png",90,7,90,0.5,"stim/52.jpeg",5,2,1,NA,"Instruments",2,3,"right","left",0.873999834,0,0,1,1,NA,NA,NA,NA,NA,NA,NA,NA,NA,NA,NA,NA,NA,NA,NA,NA,NA,NA,NA,NA,NA,NA,NA,NA
"236","stim/objects/Instruments/record.png",91,7,91,0.7,"stim/13.jpeg",1,3,2,NA,"Instruments",2,2,"right","right",0.576000214,1,1,1,1,NA,NA,NA,NA,NA,NA,NA,NA,NA,NA,NA,NA,NA,NA,NA,NA,NA,NA,NA,NA,NA,NA,NA,NA
"39","stim/objects/HouseObjects/knife.png",92,7,92,0.5,"stim/54.jpeg",5,4,1,NA,"HouseObjects",1,3,"left","right",0.848999977,0,0,1,1,NA,NA,NA,NA,NA,NA,NA,NA,NA,NA,NA,NA,NA,NA,NA,NA,NA,NA,NA,NA,NA,NA,NA,NA
"10","stim/objects/HouseObjects/iron2.png",93,7,93,0.7,"stim/21.jpeg",2,1,2,NA,"HouseObjects",1,2,"left","",NA,0,0,1,1,NA,NA,NA,NA,NA,NA,NA,NA,NA,NA,NA,NA,NA,NA,NA,NA,NA,NA,NA,NA,NA,NA,NA,NA
"136","stim/objects/Instruments/laud2.png",94,7,94,0.3,"stim/22.jpeg",2,2,2,NA,"Instruments",2,4,"right","left",0.707000017,0,0,1,1,NA,NA,NA,NA,NA,NA,NA,NA,NA,NA,NA,NA,NA,NA,NA,NA,NA,NA,NA,NA,NA,NA,NA,NA
"15","stim/objects/HouseObjects/ironingboard.png",95,7,95,0.5,"stim/52.jpeg",5,2,1,NA,"HouseObjects",1,2,"left","right",0.559000015,0,0,1,1,NA,NA,NA,NA,NA,NA,NA,NA,NA,NA,NA,NA,NA,NA,NA,NA,NA,NA,NA,NA,NA,NA,NA,NA
"232","stim/objects/Instruments/record_player2.png",96,7,96,0.1,"stim/44.jpeg",4,4,3,NA,"Instruments",2,3,"right","left",0.546999931,0,0,1,1,NA,NA,NA,NA,NA,NA,NA,NA,NA,NA,NA,NA,NA,NA,NA,NA,NA,NA,NA,NA,NA,NA,NA,NA
"73","stim/objects/HouseObjects/recyclingbin.png",97,7,97,0.3,"stim/11.jpeg",1,1,2,NA,"HouseObjects",1,4,"left","",NA,0,0,1,1,NA,NA,NA,NA,NA,NA,NA,NA,NA,NA,NA,NA,NA,NA,NA,NA,NA,NA,NA,NA,NA,NA,NA,NA
"97","stim/objects/HouseObjects/rubbergloves.png",98,7,98,0.3,"stim/13.jpeg",1,3,2,NA,"HouseObjects",1,4,"left","right",0.692000151,0,0,1,1,NA,NA,NA,NA,NA,NA,NA,NA,NA,NA,NA,NA,NA,NA,NA,NA,NA,NA,NA,NA,NA,NA,NA,NA
"2","stim/objects/HouseObjects/iron.png",99,7,99,0.5,"stim/51.jpeg",5,1,1,NA,"HouseObjects",1,1,"left","left",0.683000088,1,1,1,1,NA,NA,NA,NA,NA,NA,NA,NA,NA,NA,NA,NA,NA,NA,NA,NA,NA,NA,NA,NA,NA,NA,NA,NA
"40","stim/objects/HouseObjects/knife.png",100,7,100,0.5,"stim/54.jpeg",5,4,1,NA,"HouseObjects",1,1,"left","left",0.515000105,1,1,1,1,NA,NA,NA,NA,NA,NA,NA,NA,NA,NA,NA,NA,NA,NA,NA,NA,NA,NA,NA,NA,NA,NA,NA,NA
"143","stim/objects/Instruments/maraca2.png",101,7,101,0.3,"stim/23.jpeg",2,3,2,NA,"Instruments",2,1,"right","left",0.520999908,0,0,1,1,NA,NA,NA,NA,NA,NA,NA,NA,NA,NA,NA,NA,NA,NA,NA,NA,NA,NA,NA,NA,NA,NA,NA,NA
"44","stim/objects/HouseObjects/knife2.png",102,7,102,0.7,"stim/24.jpeg",2,4,2,NA,"HouseObjects",1,4,"left","left",0.595999956,1,1,1,1,NA,NA,NA,NA,NA,NA,NA,NA,NA,NA,NA,NA,NA,NA,NA,NA,NA,NA,NA,NA,NA,NA,NA,NA
"163","stim/objects/Instruments/metronome2.png",103,7,103,0.9,"stim/31.jpeg",3,1,3,NA,"Instruments",2,2,"right","right",0.72300005,1,1,1,1,NA,NA,NA,NA,NA,NA,NA,NA,NA,NA,NA,NA,NA,NA,NA,NA,NA,NA,NA,NA,NA,NA,NA,NA
"240","stim/objects/Instruments/record2.png",104,7,104,0.1,"stim/43.jpeg",4,3,3,NA,"Instruments",2,3,"right","left",0.622999907,0,0,1,1,NA,NA,NA,NA,NA,NA,NA,NA,NA,NA,NA,NA,NA,NA,NA,NA,NA,NA,NA,NA,NA,NA,NA,NA
"41","stim/objects/HouseObjects/knife.png",105,7,105,0.5,"stim/54.jpeg",5,4,1,NA,"HouseObjects",1,2,"left","left",0.861000061,1,1,1,1,NA,NA,NA,NA,NA,NA,NA,NA,NA,NA,NA,NA,NA,NA,NA,NA,NA,NA,NA,NA,NA,NA,NA,NA
"212","stim/objects/Instruments/panflute.png",106,7,106,0.7,"stim/11.jpeg",1,1,2,NA,"Instruments",2,3,"right","right",0.611999989,1,1,1,1,NA,NA,NA,NA,NA,NA,NA,NA,NA,NA,NA,NA,NA,NA,NA,NA,NA,NA,NA,NA,NA,NA,NA,NA
"144","stim/objects/Instruments/maraca2.png",107,7,107,0.3,"stim/23.jpeg",2,3,2,NA,"Instruments",2,1,"right","left",0.644000053,0,0,1,1,NA,NA,NA,NA,NA,NA,NA,NA,NA,NA,NA,NA,NA,NA,NA,NA,NA,NA,NA,NA,NA,NA,NA,NA
"81","stim/objects/HouseObjects/recyclingbin2.png",108,7,108,0.9,"stim/41.jpeg",4,1,3,NA,"HouseObjects",1,3,"left","left",0.515999794,1,1,1,1,NA,NA,NA,NA,NA,NA,NA,NA,NA,NA,NA,NA,NA,NA,NA,NA,NA,NA,NA,NA,NA,NA,NA,NA
"213","stim/objects/Instruments/panflute.png",109,7,109,0.7,"stim/11.jpeg",1,1,2,NA,"Instruments",2,3,"right","right",0.730999947,1,1,1,1,NA,NA,NA,NA,NA,NA,NA,NA,NA,NA,NA,NA,NA,NA,NA,NA,NA,NA,NA,NA,NA,NA,NA,NA
"74","stim/objects/HouseObjects/recyclingbin.png",110,7,110,0.3,"stim/11.jpeg",1,1,2,NA,"HouseObjects",1,1,"left","right",0.614999771,0,0,1,1,NA,NA,NA,NA,NA,NA,NA,NA,NA,NA,NA,NA,NA,NA,NA,NA,NA,NA,NA,NA,NA,NA,NA,NA
"50","stim/objects/HouseObjects/lintroller.png",111,7,111,0.5,"stim/61.jpeg",6,1,1,NA,"HouseObjects",1,1,"left","right",0.68900013,0,0,1,1,NA,NA,NA,NA,NA,NA,NA,NA,NA,NA,NA,NA,NA,NA,NA,NA,NA,NA,NA,NA,NA,NA,NA,NA
"26","stim/objects/HouseObjects/key.png",112,7,112,0.5,"stim/53.jpeg",5,3,1,NA,"HouseObjects",1,1,"left","left",0.671999931,1,1,1,1,NA,NA,NA,NA,NA,NA,NA,NA,NA,NA,NA,NA,NA,NA,NA,NA,NA,NA,NA,NA,NA,NA,NA,NA
"91","stim/objects/HouseObjects/remote2.png",113,7,113,0.9,"stim/42.jpeg",4,2,3,NA,"HouseObjects",1,1,"left","left",0.572000027,1,1,1,1,NA,NA,NA,NA,NA,NA,NA,NA,NA,NA,NA,NA,NA,NA,NA,NA,NA,NA,NA,NA,NA,NA,NA,NA
"204","stim/objects/Instruments/oboe2.png",114,7,114,0.9,"stim/34.jpeg",3,4,3,NA,"Instruments",2,1,"right","right",0.601999998,1,1,1,1,NA,NA,NA,NA,NA,NA,NA,NA,NA,NA,NA,NA,NA,NA,NA,NA,NA,NA,NA,NA,NA,NA,NA,NA
"92","stim/objects/HouseObjects/remote2.png",115,7,115,0.9,"stim/42.jpeg",4,2,3,NA,"HouseObjects",1,4,"left","left",0.585999966,1,1,1,1,NA,NA,NA,NA,NA,NA,NA,NA,NA,NA,NA,NA,NA,NA,NA,NA,NA,NA,NA,NA,NA,NA,NA,NA
"205","stim/objects/Instruments/oboe2.png",116,7,116,0.9,"stim/34.jpeg",3,4,3,NA,"Instruments",2,2,"right","right",0.559999943,1,1,1,1,NA,NA,NA,NA,NA,NA,NA,NA,NA,NA,NA,NA,NA,NA,NA,NA,NA,NA,NA,NA,NA,NA,NA,NA
"31","stim/objects/HouseObjects/key2.png",117,7,117,0.7,"stim/23.jpeg",2,3,2,NA,"HouseObjects",1,3,"left","left",0.557999849,1,1,1,1,NA,NA,NA,NA,NA,NA,NA,NA,NA,NA,NA,NA,NA,NA,NA,NA,NA,NA,NA,NA,NA,NA,NA,NA
"224","stim/objects/Instruments/pipepiano2.png",118,7,118,0.1,"stim/42.jpeg",4,2,3,NA,"Instruments",2,3,"right","left",0.570000172,0,0,1,1,NA,NA,NA,NA,NA,NA,NA,NA,NA,NA,NA,NA,NA,NA,NA,NA,NA,NA,NA,NA,NA,NA,NA,NA
"115","stim/objects/HouseObjects/rug2.png",119,7,119,0.9,"stim/44.jpeg",4,4,3,NA,"HouseObjects",1,1,"left","right",0.474999905,0,0,1,1,NA,NA,NA,NA,NA,NA,NA,NA,NA,NA,NA,NA,NA,NA,NA,NA,NA,NA,NA,NA,NA,NA,NA,NA
"164","stim/objects/Instruments/metronome2.png",120,7,120,0.9,"stim/31.jpeg",3,1,3,NA,"Instruments",2,1,"right","right",0.536999941,1,1,1,1,NA,NA,NA,NA,NA,NA,NA,NA,NA,NA,NA,NA,NA,NA,NA,NA,NA,NA,NA,NA,NA,NA,NA,NA
"188","stim/objects/Instruments/musicstand2.png",121,7,121,0.9,"stim/33.jpeg",3,3,3,NA,"Instruments",2,2,"right","right",0.734000206,1,1,1,1,NA,NA,NA,NA,NA,NA,NA,NA,NA,NA,NA,NA,NA,NA,NA,NA,NA,NA,NA,NA,NA,NA,NA,NA
"103","stim/objects/HouseObjects/rubbergloves2.png",122,7,122,0.9,"stim/43.jpeg",4,3,3,NA,"HouseObjects",1,2,"left","left",0.651000023,1,1,1,1,NA,NA,NA,NA,NA,NA,NA,NA,NA,NA,NA,NA,NA,NA,NA,NA,NA,NA,NA,NA,NA,NA,NA,NA
"214","stim/objects/Instruments/panflute.png",123,7,123,0.7,"stim/11.jpeg",1,1,2,NA,"Instruments",2,2,"right","right",0.617999792,1,1,1,1,NA,NA,NA,NA,NA,NA,NA,NA,NA,NA,NA,NA,NA,NA,NA,NA,NA,NA,NA,NA,NA,NA,NA,NA
"20","stim/objects/HouseObjects/ironingboard2.png",124,7,124,0.7,"stim/22.jpeg",2,2,2,NA,"HouseObjects",1,1,"left","left",0.40899992,1,1,1,1,NA,NA,NA,NA,NA,NA,NA,NA,NA,NA,NA,NA,NA,NA,NA,NA,NA,NA,NA,NA,NA,NA,NA,NA
"197","stim/objects/Instruments/oboe.png",125,7,125,0.5,"stim/64.jpeg",6,4,1,NA,"Instruments",2,3,"right","right",0.625,1,1,1,1,NA,NA,NA,NA,NA,NA,NA,NA,NA,NA,NA,NA,NA,NA,NA,NA,NA,NA,NA,NA,NA,NA,NA,NA
"165","stim/objects/Instruments/metronome2.png",126,7,126,0.9,"stim/31.jpeg",3,1,3,NA,"Instruments",2,1,"right","right",0.564999819,1,1,1,1,NA,NA,NA,NA,NA,NA,NA,NA,NA,NA,NA,NA,NA,NA,NA,NA,NA,NA,NA,NA,NA,NA,NA,NA
"61","stim/objects/HouseObjects/pan.png",127,7,127,0.5,"stim/63.jpeg",6,3,1,NA,"HouseObjects",1,4,"left","right",0.648999929,0,0,1,1,NA,NA,NA,NA,NA,NA,NA,NA,NA,NA,NA,NA,NA,NA,NA,NA,NA,NA,NA,NA,NA,NA,NA,NA
"3","stim/objects/HouseObjects/iron.png",128,7,128,0.5,"stim/51.jpeg",5,1,1,NA,"HouseObjects",1,1,"left","left",0.734999895,1,1,1,1,NA,NA,NA,NA,NA,NA,NA,NA,NA,NA,NA,NA,NA,NA,NA,NA,NA,NA,NA,NA,NA,NA,NA,NA
"139","stim/objects/Instruments/maraca.png",129,7,129,0.5,"stim/53.jpeg",5,3,1,NA,"Instruments",2,2,"right","left",0.687999964,0,0,1,1,NA,NA,NA,NA,NA,NA,NA,NA,NA,NA,NA,NA,NA,NA,NA,NA,NA,NA,NA,NA,NA,NA,NA,NA
"140","stim/objects/Instruments/maraca.png",130,7,130,0.5,"stim/53.jpeg",5,3,1,NA,"Instruments",2,4,"right","left",0.614000082,0,0,1,1,NA,NA,NA,NA,NA,NA,NA,NA,NA,NA,NA,NA,NA,NA,NA,NA,NA,NA,NA,NA,NA,NA,NA,NA
"116","stim/objects/HouseObjects/rug2.png",131,7,131,0.9,"stim/44.jpeg",4,4,3,NA,"HouseObjects",1,4,"left","left",0.563999891,1,1,1,1,NA,NA,NA,NA,NA,NA,NA,NA,NA,NA,NA,NA,NA,NA,NA,NA,NA,NA,NA,NA,NA,NA,NA,NA
"45","stim/objects/HouseObjects/knife2.png",132,7,132,0.7,"stim/24.jpeg",2,4,2,NA,"HouseObjects",1,2,"left","left",0.642000198,1,1,1,1,NA,NA,NA,NA,NA,NA,NA,NA,NA,NA,NA,NA,NA,NA,NA,NA,NA,NA,NA,NA,NA,NA,NA,NA
"117","stim/objects/HouseObjects/rug2.png",133,7,133,0.9,"stim/44.jpeg",4,4,3,NA,"HouseObjects",1,2,"left","left",0.565000057,1,1,1,1,NA,NA,NA,NA,NA,NA,NA,NA,NA,NA,NA,NA,NA,NA,NA,NA,NA,NA,NA,NA,NA,NA,NA,NA
"69","stim/objects/HouseObjects/pitcher.png",134,7,134,0.5,"stim/64.jpeg",6,4,1,NA,"HouseObjects",1,1,"left","right",0.661000013,0,0,1,1,NA,NA,NA,NA,NA,NA,NA,NA,NA,NA,NA,NA,NA,NA,NA,NA,NA,NA,NA,NA,NA,NA,NA,NA
"189","stim/objects/Instruments/musicstand2.png",135,7,135,0.9,"stim/33.jpeg",3,3,3,NA,"Instruments",2,4,"right","right",0.846999884,1,1,1,1,NA,NA,NA,NA,NA,NA,NA,NA,NA,NA,NA,NA,NA,NA,NA,NA,NA,NA,NA,NA,NA,NA,NA,NA
"183","stim/objects/Instruments/musicstand.png",136,7,136,0.5,"stim/63.jpeg",6,3,1,NA,"Instruments",2,2,"right","right",0.736000061,1,1,1,1,NA,NA,NA,NA,NA,NA,NA,NA,NA,NA,NA,NA,NA,NA,NA,NA,NA,NA,NA,NA,NA,NA,NA,NA
"21","stim/objects/HouseObjects/ironingboard2.png",137,7,137,0.7,"stim/22.jpeg",2,2,2,NA,"HouseObjects",1,4,"left","",NA,0,0,1,1,NA,NA,NA,NA,NA,NA,NA,NA,NA,NA,NA,NA,NA,NA,NA,NA,NA,NA,NA,NA,NA,NA,NA,NA
"118","stim/objects/HouseObjects/rug2.png",138,7,138,0.9,"stim/44.jpeg",4,4,3,NA,"HouseObjects",1,4,"left","left",0.463000059,1,1,1,1,NA,NA,NA,NA,NA,NA,NA,NA,NA,NA,NA,NA,NA,NA,NA,NA,NA,NA,NA,NA,NA,NA,NA,NA
"62","stim/objects/HouseObjects/pan.png",139,7,139,0.5,"stim/63.jpeg",6,3,1,NA,"HouseObjects",1,4,"left","right",0.891000032,0,0,1,1,NA,NA,NA,NA,NA,NA,NA,NA,NA,NA,NA,NA,NA,NA,NA,NA,NA,NA,NA,NA,NA,NA,NA,NA
"218","stim/objects/Instruments/pipepiano.png",140,7,140,0.7,"stim/12.jpeg",1,2,2,NA,"Instruments",2,2,"right","right",0.552000046,1,1,1,1,NA,NA,NA,NA,NA,NA,NA,NA,NA,NA,NA,NA,NA,NA,NA,NA,NA,NA,NA,NA,NA,NA,NA,NA
"184","stim/objects/Instruments/musicstand.png",141,7,141,0.5,"stim/63.jpeg",6,3,1,NA,"Instruments",2,3,"right","right",0.552999973,1,1,1,1,NA,NA,NA,NA,NA,NA,NA,NA,NA,NA,NA,NA,NA,NA,NA,NA,NA,NA,NA,NA,NA,NA,NA,NA
"46","stim/objects/HouseObjects/knife2.png",142,7,142,0.7,"stim/24.jpeg",2,4,2,NA,"HouseObjects",1,3,"left","left",0.559000015,1,1,1,1,NA,NA,NA,NA,NA,NA,NA,NA,NA,NA,NA,NA,NA,NA,NA,NA,NA,NA,NA,NA,NA,NA,NA,NA
"206","stim/objects/Instruments/oboe2.png",143,7,143,0.9,"stim/34.jpeg",3,4,3,NA,"Instruments",2,2,"right","right",0.52699995,1,1,1,1,NA,NA,NA,NA,NA,NA,NA,NA,NA,NA,NA,NA,NA,NA,NA,NA,NA,NA,NA,NA,NA,NA,NA,NA
"147","stim/objects/Instruments/marimba.png",144,7,144,0.5,"stim/54.jpeg",5,4,1,NA,"Instruments",2,3,"right","left",0.48300004,0,0,1,1,NA,NA,NA,NA,NA,NA,NA,NA,NA,NA,NA,NA,NA,NA,NA,NA,NA,NA,NA,NA,NA,NA,NA,NA
"104","stim/objects/HouseObjects/rubbergloves2.png",145,7,145,0.9,"stim/43.jpeg",4,3,3,NA,"HouseObjects",1,4,"left","left",0.65199995,1,1,1,1,NA,NA,NA,NA,NA,NA,NA,NA,NA,NA,NA,NA,NA,NA,NA,NA,NA,NA,NA,NA,NA,NA,NA,NA
"119","stim/objects/HouseObjects/rug2.png",146,7,146,0.9,"stim/44.jpeg",4,4,3,NA,"HouseObjects",1,2,"left","left",0.562999964,1,1,1,1,NA,NA,NA,NA,NA,NA,NA,NA,NA,NA,NA,NA,NA,NA,NA,NA,NA,NA,NA,NA,NA,NA,NA,NA
"177","stim/objects/Instruments/musicsheet2.png",147,7,147,0.9,"stim/32.jpeg",3,2,3,NA,"Instruments",2,3,"right","right",0.573999882,1,1,1,1,NA,NA,NA,NA,NA,NA,NA,NA,NA,NA,NA,NA,NA,NA,NA,NA,NA,NA,NA,NA,NA,NA,NA,NA
"16","stim/objects/HouseObjects/ironingboard.png",148,7,148,0.5,"stim/52.jpeg",5,2,1,NA,"HouseObjects",1,3,"left","left",0.625999928,1,1,1,1,NA,NA,NA,NA,NA,NA,NA,NA,NA,NA,NA,NA,NA,NA,NA,NA,NA,NA,NA,NA,NA,NA,NA,NA
"56","stim/objects/HouseObjects/match.png",149,7,149,0.5,"stim/62.jpeg",6,2,1,NA,"HouseObjects",1,1,"left","right",0.677999973,0,0,1,1,NA,NA,NA,NA,NA,NA,NA,NA,NA,NA,NA,NA,NA,NA,NA,NA,NA,NA,NA,NA,NA,NA,NA,NA
"190","stim/objects/Instruments/musicstand2.png",150,7,150,0.9,"stim/33.jpeg",3,3,3,NA,"Instruments",2,2,"right","right",0.611999989,1,1,1,1,NA,NA,NA,NA,NA,NA,NA,NA,NA,NA,NA,NA,NA,NA,NA,NA,NA,NA,NA,NA,NA,NA,NA,NA
"32","stim/objects/HouseObjects/key2.png",151,7,151,0.7,"stim/23.jpeg",2,3,2,NA,"HouseObjects",1,3,"left","left",0.526000023,1,1,1,1,NA,NA,NA,NA,NA,NA,NA,NA,NA,NA,NA,NA,NA,NA,NA,NA,NA,NA,NA,NA,NA,NA,NA,NA
"93","stim/objects/HouseObjects/remote2.png",152,7,152,0.9,"stim/42.jpeg",4,2,3,NA,"HouseObjects",1,1,"left","left",0.552000046,1,1,1,1,NA,NA,NA,NA,NA,NA,NA,NA,NA,NA,NA,NA,NA,NA,NA,NA,NA,NA,NA,NA,NA,NA,NA,NA
"148","stim/objects/Instruments/marimba.png",153,7,153,0.5,"stim/54.jpeg",5,4,1,NA,"Instruments",2,4,"right","left",0.523999929,0,0,1,1,NA,NA,NA,NA,NA,NA,NA,NA,NA,NA,NA,NA,NA,NA,NA,NA,NA,NA,NA,NA,NA,NA,NA,NA
"109","stim/objects/HouseObjects/rug.png",154,7,154,0.3,"stim/14.jpeg",1,4,2,NA,"HouseObjects",1,2,"left","right",0.604000092,0,0,1,1,NA,NA,NA,NA,NA,NA,NA,NA,NA,NA,NA,NA,NA,NA,NA,NA,NA,NA,NA,NA,NA,NA,NA,NA
"219","stim/objects/Instruments/pipepiano.png",155,7,155,0.7,"stim/12.jpeg",1,2,2,NA,"Instruments",2,1,"right","right",0.536999941,1,1,1,1,NA,NA,NA,NA,NA,NA,NA,NA,NA,NA,NA,NA,NA,NA,NA,NA,NA,NA,NA,NA,NA,NA,NA,NA
"105","stim/objects/HouseObjects/rubbergloves2.png",156,7,156,0.9,"stim/43.jpeg",4,3,3,NA,"HouseObjects",1,4,"left","left",0.549999952,1,1,1,1,NA,NA,NA,NA,NA,NA,NA,NA,NA,NA,NA,NA,NA,NA,NA,NA,NA,NA,NA,NA,NA,NA,NA,NA
"220","stim/objects/Instruments/pipepiano.png",157,7,157,0.7,"stim/12.jpeg",1,2,2,NA,"Instruments",2,2,"right","right",0.521000147,1,1,1,1,NA,NA,NA,NA,NA,NA,NA,NA,NA,NA,NA,NA,NA,NA,NA,NA,NA,NA,NA,NA,NA,NA,NA,NA
"94","stim/objects/HouseObjects/remote2.png",158,7,158,0.9,"stim/42.jpeg",4,2,3,NA,"HouseObjects",1,2,"left","left",0.530999899,1,1,1,1,NA,NA,NA,NA,NA,NA,NA,NA,NA,NA,NA,NA,NA,NA,NA,NA,NA,NA,NA,NA,NA,NA,NA,NA
"178","stim/objects/Instruments/musicsheet2.png",159,7,159,0.9,"stim/32.jpeg",3,2,3,NA,"Instruments",2,4,"right","right",0.598999977,1,1,1,1,NA,NA,NA,NA,NA,NA,NA,NA,NA,NA,NA,NA,NA,NA,NA,NA,NA,NA,NA,NA,NA,NA,NA,NA
"221","stim/objects/Instruments/pipepiano.png",160,7,160,0.7,"stim/12.jpeg",1,2,2,NA,"Instruments",2,3,"right","right",0.584000111,1,1,1,1,NA,NA,NA,NA,NA,NA,NA,NA,NA,NA,NA,NA,NA,NA,NA,NA,NA,NA,NA,NA,NA,NA,NA,NA
"11","stim/objects/HouseObjects/iron2.png",161,7,161,0.7,"stim/21.jpeg",2,1,2,NA,"HouseObjects",1,3,"left","left",0.532000065,1,1,1,1,NA,NA,NA,NA,NA,NA,NA,NA,NA,NA,NA,NA,NA,NA,NA,NA,NA,NA,NA,NA,NA,NA,NA,NA
"227","stim/objects/Instruments/record_player.png",162,7,162,0.7,"stim/14.jpeg",1,4,2,NA,"Instruments",2,3,"right","right",0.618000031,1,1,1,1,NA,NA,NA,NA,NA,NA,NA,NA,NA,NA,NA,NA,NA,NA,NA,NA,NA,NA,NA,NA,NA,NA,NA,NA
"95","stim/objects/HouseObjects/remote2.png",163,7,163,0.9,"stim/42.jpeg",4,2,3,NA,"HouseObjects",1,1,"left","left",0.579999924,1,1,1,1,NA,NA,NA,NA,NA,NA,NA,NA,NA,NA,NA,NA,NA,NA,NA,NA,NA,NA,NA,NA,NA,NA,NA,NA
"106","stim/objects/HouseObjects/rubbergloves2.png",164,7,164,0.9,"stim/43.jpeg",4,3,3,NA,"HouseObjects",1,1,"left","left",0.611999989,1,1,1,1,NA,NA,NA,NA,NA,NA,NA,NA,NA,NA,NA,NA,NA,NA,NA,NA,NA,NA,NA,NA,NA,NA,NA,NA
"27","stim/objects/HouseObjects/key.png",165,7,165,0.5,"stim/53.jpeg",5,3,1,NA,"HouseObjects",1,3,"left","left",0.653999805,1,1,1,1,NA,NA,NA,NA,NA,NA,NA,NA,NA,NA,NA,NA,NA,NA,NA,NA,NA,NA,NA,NA,NA,NA,NA,NA
"237","stim/objects/Instruments/record.png",166,7,166,0.7,"stim/13.jpeg",1,3,2,NA,"Instruments",2,4,"right","right",0.576999903,1,1,1,1,NA,NA,NA,NA,NA,NA,NA,NA,NA,NA,NA,NA,NA,NA,NA,NA,NA,NA,NA,NA,NA,NA,NA,NA
"28","stim/objects/HouseObjects/key.png",167,7,167,0.5,"stim/53.jpeg",5,3,1,NA,"HouseObjects",1,2,"left","left",0.756000042,1,1,1,1,NA,NA,NA,NA,NA,NA,NA,NA,NA,NA,NA,NA,NA,NA,NA,NA,NA,NA,NA,NA,NA,NA,NA,NA
"179","stim/objects/Instruments/musicsheet2.png",168,7,168,0.9,"stim/32.jpeg",3,2,3,NA,"Instruments",2,4,"right","right",0.552000046,1,1,1,1,NA,NA,NA,NA,NA,NA,NA,NA,NA,NA,NA,NA,NA,NA,NA,NA,NA,NA,NA,NA,NA,NA,NA,NA
"82","stim/objects/HouseObjects/recyclingbin2.png",169,7,169,0.9,"stim/41.jpeg",4,1,3,NA,"HouseObjects",1,1,"left","left",0.526000023,1,1,1,1,NA,NA,NA,NA,NA,NA,NA,NA,NA,NA,NA,NA,NA,NA,NA,NA,NA,NA,NA,NA,NA,NA,NA,NA
"122","stim/objects/Instruments/keyboard.png",170,7,170,0.5,"stim/51.jpeg",5,1,1,NA,"Instruments",2,4,"right","left",0.769999981,0,0,1,1,NA,NA,NA,NA,NA,NA,NA,NA,NA,NA,NA,NA,NA,NA,NA,NA,NA,NA,NA,NA,NA,NA,NA,NA
"180","stim/objects/Instruments/musicsheet2.png",171,7,171,0.9,"stim/32.jpeg",3,2,3,NA,"Instruments",2,4,"right","right",0.517000198,1,1,1,1,NA,NA,NA,NA,NA,NA,NA,NA,NA,NA,NA,NA,NA,NA,NA,NA,NA,NA,NA,NA,NA,NA,NA,NA
"51","stim/objects/HouseObjects/lintroller.png",172,7,172,0.5,"stim/61.jpeg",6,1,1,NA,"HouseObjects",1,2,"left","right",0.567000151,0,0,1,1,NA,NA,NA,NA,NA,NA,NA,NA,NA,NA,NA,NA,NA,NA,NA,NA,NA,NA,NA,NA,NA,NA,NA,NA
"198","stim/objects/Instruments/oboe.png",173,7,173,0.5,"stim/64.jpeg",6,4,1,NA,"Instruments",2,1,"right","right",0.485000134,1,1,1,1,NA,NA,NA,NA,NA,NA,NA,NA,NA,NA,NA,NA,NA,NA,NA,NA,NA,NA,NA,NA,NA,NA,NA,NA
"228","stim/objects/Instruments/record_player.png",174,7,174,0.7,"stim/14.jpeg",1,4,2,NA,"Instruments",2,3,"right","right",0.613000154,1,1,1,1,NA,NA,NA,NA,NA,NA,NA,NA,NA,NA,NA,NA,NA,NA,NA,NA,NA,NA,NA,NA,NA,NA,NA,NA
"199","stim/objects/Instruments/oboe.png",175,7,175,0.5,"stim/64.jpeg",6,4,1,NA,"Instruments",2,3,"right","left",0.875,0,0,1,1,NA,NA,NA,NA,NA,NA,NA,NA,NA,NA,NA,NA,NA,NA,NA,NA,NA,NA,NA,NA,NA,NA,NA,NA
"96","stim/objects/HouseObjects/remote2.png",176,7,176,0.9,"stim/42.jpeg",4,2,3,NA,"HouseObjects",1,3,"left","left",0.539000034,1,1,1,1,NA,NA,NA,NA,NA,NA,NA,NA,NA,NA,NA,NA,NA,NA,NA,NA,NA,NA,NA,NA,NA,NA,NA,NA
"238","stim/objects/Instruments/record.png",177,7,177,0.7,"stim/13.jpeg",1,3,2,NA,"Instruments",2,1,"right","right",0.743999958,1,1,1,1,NA,NA,NA,NA,NA,NA,NA,NA,NA,NA,NA,NA,NA,NA,NA,NA,NA,NA,NA,NA,NA,NA,NA,NA
"63","stim/objects/HouseObjects/pan.png",178,7,178,0.5,"stim/63.jpeg",6,3,1,NA,"HouseObjects",1,3,"left","right",0.529999971,0,0,1,1,NA,NA,NA,NA,NA,NA,NA,NA,NA,NA,NA,NA,NA,NA,NA,NA,NA,NA,NA,NA,NA,NA,NA,NA
"29","stim/objects/HouseObjects/key.png",179,7,179,0.5,"stim/53.jpeg",5,3,1,NA,"HouseObjects",1,4,"left","left",0.795000076,1,1,1,1,NA,NA,NA,NA,NA,NA,NA,NA,NA,NA,NA,NA,NA,NA,NA,NA,NA,NA,NA,NA,NA,NA,NA,NA
"22","stim/objects/HouseObjects/ironingboard2.png",180,7,180,0.7,"stim/22.jpeg",2,2,2,NA,"HouseObjects",1,3,"left","left",0.879000187,1,1,1,1,NA,NA,NA,NA,NA,NA,NA,NA,NA,NA,NA,NA,NA,NA,NA,NA,NA,NA,NA,NA,NA,NA,NA,NA
"54","stim/objects/HouseObjects/lintroller2.png",181,7,181,0.1,"stim/31.jpeg",3,1,3,NA,"HouseObjects",1,4,"left","right",0.640000105,0,0,1,1,NA,NA,NA,NA,NA,NA,NA,NA,NA,NA,NA,NA,NA,NA,NA,NA,NA,NA,NA,NA,NA,NA,NA,NA
"141","stim/objects/Instruments/maraca.png",182,7,182,0.5,"stim/53.jpeg",5,3,1,NA,"Instruments",2,2,"right","left",0.59800005,0,0,1,1,NA,NA,NA,NA,NA,NA,NA,NA,NA,NA,NA,NA,NA,NA,NA,NA,NA,NA,NA,NA,NA,NA,NA,NA
"157","stim/objects/Instruments/metronome.png",183,7,183,0.5,"stim/61.jpeg",6,1,1,NA,"Instruments",2,2,"right","right",0.588999987,1,1,1,1,NA,NA,NA,NA,NA,NA,NA,NA,NA,NA,NA,NA,NA,NA,NA,NA,NA,NA,NA,NA,NA,NA,NA,NA
"98","stim/objects/HouseObjects/rubbergloves.png",184,7,184,0.3,"stim/13.jpeg",1,3,2,NA,"HouseObjects",1,1,"left","right",0.664999962,0,0,1,1,NA,NA,NA,NA,NA,NA,NA,NA,NA,NA,NA,NA,NA,NA,NA,NA,NA,NA,NA,NA,NA,NA,NA,NA
"52","stim/objects/HouseObjects/lintroller.png",185,7,185,0.5,"stim/61.jpeg",6,1,1,NA,"HouseObjects",1,4,"left","right",0.444000006,0,0,1,1,NA,NA,NA,NA,NA,NA,NA,NA,NA,NA,NA,NA,NA,NA,NA,NA,NA,NA,NA,NA,NA,NA,NA,NA
"57","stim/objects/HouseObjects/match.png",186,7,186,0.5,"stim/62.jpeg",6,2,1,NA,"HouseObjects",1,3,"left","right",0.587000132,0,0,1,1,NA,NA,NA,NA,NA,NA,NA,NA,NA,NA,NA,NA,NA,NA,NA,NA,NA,NA,NA,NA,NA,NA,NA,NA
"191","stim/objects/Instruments/musicstand2.png",187,7,187,0.9,"stim/33.jpeg",3,3,3,NA,"Instruments",2,1,"right","right",0.540999889,1,1,1,1,NA,NA,NA,NA,NA,NA,NA,NA,NA,NA,NA,NA,NA,NA,NA,NA,NA,NA,NA,NA,NA,NA,NA,NA
"222","stim/objects/Instruments/pipepiano.png",188,7,188,0.7,"stim/12.jpeg",1,2,2,NA,"Instruments",2,1,"right","right",0.501999855,1,1,1,1,NA,NA,NA,NA,NA,NA,NA,NA,NA,NA,NA,NA,NA,NA,NA,NA,NA,NA,NA,NA,NA,NA,NA,NA
"120","stim/objects/HouseObjects/rug2.png",189,7,189,0.9,"stim/44.jpeg",4,4,3,NA,"HouseObjects",1,4,"left","left",0.541999817,1,1,1,1,NA,NA,NA,NA,NA,NA,NA,NA,NA,NA,NA,NA,NA,NA,NA,NA,NA,NA,NA,NA,NA,NA,NA,NA
"123","stim/objects/Instruments/keyboard.png",190,7,190,0.5,"stim/51.jpeg",5,1,1,NA,"Instruments",2,4,"right","left",0.652000189,0,0,1,1,NA,NA,NA,NA,NA,NA,NA,NA,NA,NA,NA,NA,NA,NA,NA,NA,NA,NA,NA,NA,NA,NA,NA,NA
"33","stim/objects/HouseObjects/key2.png",191,7,191,0.7,"stim/23.jpeg",2,3,2,NA,"HouseObjects",1,1,"left","left",0.680999994,1,1,1,1,NA,NA,NA,NA,NA,NA,NA,NA,NA,NA,NA,NA,NA,NA,NA,NA,NA,NA,NA,NA,NA,NA,NA,NA
"151","stim/objects/Instruments/marimba2.png",192,7,192,0.3,"stim/24.jpeg",2,4,2,NA,"Instruments",2,2,"right","left",0.601000071,0,0,1,1,NA,NA,NA,NA,NA,NA,NA,NA,NA,NA,NA,NA,NA,NA,NA,NA,NA,NA,NA,NA,NA,NA,NA,NA
"216","stim/objects/Instruments/panflute2.png",193,7,193,0.1,"stim/41.jpeg",4,1,3,NA,"Instruments",2,1,"right","left",0.605000019,0,0,1,1,NA,NA,NA,NA,NA,NA,NA,NA,NA,NA,NA,NA,NA,NA,NA,NA,NA,NA,NA,NA,NA,NA,NA,NA
"34","stim/objects/HouseObjects/key2.png",194,7,194,0.7,"stim/23.jpeg",2,3,2,NA,"HouseObjects",1,4,"left","left",0.597999811,1,1,1,1,NA,NA,NA,NA,NA,NA,NA,NA,NA,NA,NA,NA,NA,NA,NA,NA,NA,NA,NA,NA,NA,NA,NA,NA
"192","stim/objects/Instruments/musicstand2.png",195,7,195,0.9,"stim/33.jpeg",3,3,3,NA,"Instruments",2,2,"right","right",0.480999947,1,1,1,1,NA,NA,NA,NA,NA,NA,NA,NA,NA,NA,NA,NA,NA,NA,NA,NA,NA,NA,NA,NA,NA,NA,NA,NA
"239","stim/objects/Instruments/record.png",196,7,196,0.7,"stim/13.jpeg",1,3,2,NA,"Instruments",2,1,"right","right",0.542000055,1,1,1,1,NA,NA,NA,NA,NA,NA,NA,NA,NA,NA,NA,NA,NA,NA,NA,NA,NA,NA,NA,NA,NA,NA,NA,NA
"64","stim/objects/HouseObjects/pan.png",197,7,197,0.5,"stim/63.jpeg",6,3,1,NA,"HouseObjects",1,1,"left","right",0.589999914,0,0,1,1,NA,NA,NA,NA,NA,NA,NA,NA,NA,NA,NA,NA,NA,NA,NA,NA,NA,NA,NA,NA,NA,NA,NA,NA
"47","stim/objects/HouseObjects/knife2.png",198,7,198,0.7,"stim/24.jpeg",2,4,2,NA,"HouseObjects",1,4,"left","left",0.542000055,1,1,1,1,NA,NA,NA,NA,NA,NA,NA,NA,NA,NA,NA,NA,NA,NA,NA,NA,NA,NA,NA,NA,NA,NA,NA,NA
"107","stim/objects/HouseObjects/rubbergloves2.png",199,7,199,0.9,"stim/43.jpeg",4,3,3,NA,"HouseObjects",1,3,"left","left",0.618000031,1,1,1,1,NA,NA,NA,NA,NA,NA,NA,NA,NA,NA,NA,NA,NA,NA,NA,NA,NA,NA,NA,NA,NA,NA,NA,NA
"133","stim/objects/Instruments/laud.png",200,7,200,0.5,"stim/52.jpeg",5,2,1,NA,"Instruments",2,2,"right","left",0.755000114,0,0,1,1,NA,NA,NA,NA,NA,NA,NA,NA,NA,NA,NA,NA,NA,NA,NA,NA,NA,NA,NA,NA,NA,NA,NA,NA
"70","stim/objects/HouseObjects/pitcher.png",201,7,201,0.5,"stim/64.jpeg",6,4,1,NA,"HouseObjects",1,4,"left","right",0.546000004,0,0,1,1,NA,NA,NA,NA,NA,NA,NA,NA,NA,NA,NA,NA,NA,NA,NA,NA,NA,NA,NA,NA,NA,NA,NA,NA
"193","stim/objects/Instruments/musicstand2.png",202,7,202,0.9,"stim/33.jpeg",3,3,3,NA,"Instruments",2,2,"right","right",0.504999876,1,1,1,1,NA,NA,NA,NA,NA,NA,NA,NA,NA,NA,NA,NA,NA,NA,NA,NA,NA,NA,NA,NA,NA,NA,NA,NA
"229","stim/objects/Instruments/record_player.png",203,7,203,0.7,"stim/14.jpeg",1,4,2,NA,"Instruments",2,4,"right","right",0.588999987,1,1,1,1,NA,NA,NA,NA,NA,NA,NA,NA,NA,NA,NA,NA,NA,NA,NA,NA,NA,NA,NA,NA,NA,NA,NA,NA
"230","stim/objects/Instruments/record_player.png",204,7,204,0.7,"stim/14.jpeg",1,4,2,NA,"Instruments",2,1,"right","right",0.490999937,1,1,1,1,NA,NA,NA,NA,NA,NA,NA,NA,NA,NA,NA,NA,NA,NA,NA,NA,NA,NA,NA,NA,NA,NA,NA,NA
"108","stim/objects/HouseObjects/rubbergloves2.png",205,7,205,0.9,"stim/43.jpeg",4,3,3,NA,"HouseObjects",1,2,"left","left",0.599999905,1,1,1,1,NA,NA,NA,NA,NA,NA,NA,NA,NA,NA,NA,NA,NA,NA,NA,NA,NA,NA,NA,NA,NA,NA,NA,NA
"4","stim/objects/HouseObjects/iron.png",206,7,206,0.5,"stim/51.jpeg",5,1,1,NA,"HouseObjects",1,1,"left","left",0.565000057,1,1,1,1,NA,NA,NA,NA,NA,NA,NA,NA,NA,NA,NA,NA,NA,NA,NA,NA,NA,NA,NA,NA,NA,NA,NA,NA
"231","stim/objects/Instruments/record_player.png",207,7,207,0.7,"stim/14.jpeg",1,4,2,NA,"Instruments",2,4,"right","right",0.705000162,1,1,1,1,NA,NA,NA,NA,NA,NA,NA,NA,NA,NA,NA,NA,NA,NA,NA,NA,NA,NA,NA,NA,NA,NA,NA,NA
"185","stim/objects/Instruments/musicstand.png",208,7,208,0.5,"stim/63.jpeg",6,3,1,NA,"Instruments",2,1,"right","right",0.631999969,1,1,1,1,NA,NA,NA,NA,NA,NA,NA,NA,NA,NA,NA,NA,NA,NA,NA,NA,NA,NA,NA,NA,NA,NA,NA,NA
"223","stim/objects/Instruments/pipepiano.png",209,7,209,0.7,"stim/12.jpeg",1,2,2,NA,"Instruments",2,1,"right","right",0.491999865,1,1,1,1,NA,NA,NA,NA,NA,NA,NA,NA,NA,NA,NA,NA,NA,NA,NA,NA,NA,NA,NA,NA,NA,NA,NA,NA
"17","stim/objects/HouseObjects/ironingboard.png",210,7,210,0.5,"stim/52.jpeg",5,2,1,NA,"HouseObjects",1,1,"left","right",0.790999889,0,0,1,1,NA,NA,NA,NA,NA,NA,NA,NA,NA,NA,NA,NA,NA,NA,NA,NA,NA,NA,NA,NA,NA,NA,NA,NA
"53","stim/objects/HouseObjects/lintroller.png",211,7,211,0.5,"stim/61.jpeg",6,1,1,NA,"HouseObjects",1,4,"left","right",0.495000124,0,0,1,1,NA,NA,NA,NA,NA,NA,NA,NA,NA,NA,NA,NA,NA,NA,NA,NA,NA,NA,NA,NA,NA,NA,NA,NA
"194","stim/objects/Instruments/musicstand2.png",212,7,212,0.9,"stim/33.jpeg",3,3,3,NA,"Instruments",2,1,"right","right",0.796999931,1,1,1,1,NA,NA,NA,NA,NA,NA,NA,NA,NA,NA,NA,NA,NA,NA,NA,NA,NA,NA,NA,NA,NA,NA,NA,NA
"83","stim/objects/HouseObjects/recyclingbin2.png",213,7,213,0.9,"stim/41.jpeg",4,1,3,NA,"HouseObjects",1,2,"left","left",0.539000034,1,1,1,1,NA,NA,NA,NA,NA,NA,NA,NA,NA,NA,NA,NA,NA,NA,NA,NA,NA,NA,NA,NA,NA,NA,NA,NA
"124","stim/objects/Instruments/keyboard.png",214,7,214,0.5,"stim/51.jpeg",5,1,1,NA,"Instruments",2,1,"right","left",0.664999962,0,0,1,1,NA,NA,NA,NA,NA,NA,NA,NA,NA,NA,NA,NA,NA,NA,NA,NA,NA,NA,NA,NA,NA,NA,NA,NA
"207","stim/objects/Instruments/oboe2.png",215,7,215,0.9,"stim/34.jpeg",3,4,3,NA,"Instruments",2,4,"right","right",0.645000219,1,1,1,1,NA,NA,NA,NA,NA,NA,NA,NA,NA,NA,NA,NA,NA,NA,NA,NA,NA,NA,NA,NA,NA,NA,NA,NA
"48","stim/objects/HouseObjects/knife2.png",216,7,216,0.7,"stim/24.jpeg",2,4,2,NA,"HouseObjects",1,2,"left","left",0.505000114,1,1,1,1,NA,NA,NA,NA,NA,NA,NA,NA,NA,NA,NA,NA,NA,NA,NA,NA,NA,NA,NA,NA,NA,NA,NA,NA
"152","stim/objects/Instruments/marimba2.png",217,7,217,0.3,"stim/24.jpeg",2,4,2,NA,"Instruments",2,3,"right","left",0.51699996,0,0,1,1,NA,NA,NA,NA,NA,NA,NA,NA,NA,NA,NA,NA,NA,NA,NA,NA,NA,NA,NA,NA,NA,NA,NA,NA
"23","stim/objects/HouseObjects/ironingboard2.png",218,7,218,0.7,"stim/22.jpeg",2,2,2,NA,"HouseObjects",1,3,"left","left",0.743999958,1,1,1,1,NA,NA,NA,NA,NA,NA,NA,NA,NA,NA,NA,NA,NA,NA,NA,NA,NA,NA,NA,NA,NA,NA,NA,NA
"99","stim/objects/HouseObjects/rubbergloves.png",219,7,219,0.3,"stim/13.jpeg",1,3,2,NA,"HouseObjects",1,4,"left","right",0.585999966,0,0,1,1,NA,NA,NA,NA,NA,NA,NA,NA,NA,NA,NA,NA,NA,NA,NA,NA,NA,NA,NA,NA,NA,NA,NA,NA
"60","stim/objects/HouseObjects/match2.png",220,7,220,0.1,"stim/32.jpeg",3,2,3,NA,"HouseObjects",1,4,"left","",NA,0,0,1,1,NA,NA,NA,NA,NA,NA,NA,NA,NA,NA,NA,NA,NA,NA,NA,NA,NA,NA,NA,NA,NA,NA,NA,NA
"171","stim/objects/Instruments/musicsheet.png",221,7,221,0.5,"stim/62.jpeg",6,2,1,NA,"Instruments",2,4,"right","",NA,0,0,1,1,NA,NA,NA,NA,NA,NA,NA,NA,NA,NA,NA,NA,NA,NA,NA,NA,NA,NA,NA,NA,NA,NA,NA,NA
"5","stim/objects/HouseObjects/iron.png",222,7,222,0.5,"stim/51.jpeg",5,1,1,NA,"HouseObjects",1,2,"left","right",0.338000059,0,0,1,1,NA,NA,NA,NA,NA,NA,NA,NA,NA,NA,NA,NA,NA,NA,NA,NA,NA,NA,NA,NA,NA,NA,NA,NA
"75","stim/objects/HouseObjects/recyclingbin.png",223,7,223,0.3,"stim/11.jpeg",1,1,2,NA,"HouseObjects",1,2,"left","right",0.551999807,0,0,1,1,NA,NA,NA,NA,NA,NA,NA,NA,NA,NA,NA,NA,NA,NA,NA,NA,NA,NA,NA,NA,NA,NA,NA,NA
"24","stim/objects/HouseObjects/ironingboard2.png",224,7,224,0.7,"stim/22.jpeg",2,2,2,NA,"HouseObjects",1,3,"left","left",0.509000063,1,1,1,1,NA,NA,NA,NA,NA,NA,NA,NA,NA,NA,NA,NA,NA,NA,NA,NA,NA,NA,NA,NA,NA,NA,NA,NA
"149","stim/objects/Instruments/marimba.png",225,7,225,0.5,"stim/54.jpeg",5,4,1,NA,"Instruments",2,2,"right","left",0.535000086,0,0,1,1,NA,NA,NA,NA,NA,NA,NA,NA,NA,NA,NA,NA,NA,NA,NA,NA,NA,NA,NA,NA,NA,NA,NA,NA
"71","stim/objects/HouseObjects/pitcher.png",226,7,226,0.5,"stim/64.jpeg",6,4,1,NA,"HouseObjects",1,4,"left","right",0.467999935,0,0,1,1,NA,NA,NA,NA,NA,NA,NA,NA,NA,NA,NA,NA,NA,NA,NA,NA,NA,NA,NA,NA,NA,NA,NA,NA
"215","stim/objects/Instruments/panflute.png",227,7,227,0.7,"stim/11.jpeg",1,1,2,NA,"Instruments",2,3,"right","right",0.611999989,1,1,1,1,NA,NA,NA,NA,NA,NA,NA,NA,NA,NA,NA,NA,NA,NA,NA,NA,NA,NA,NA,NA,NA,NA,NA,NA
"110","stim/objects/HouseObjects/rug.png",228,7,228,0.3,"stim/14.jpeg",1,4,2,NA,"HouseObjects",1,4,"left","right",0.773000002,0,0,1,1,NA,NA,NA,NA,NA,NA,NA,NA,NA,NA,NA,NA,NA,NA,NA,NA,NA,NA,NA,NA,NA,NA,NA,NA
"12","stim/objects/HouseObjects/iron2.png",229,7,229,0.7,"stim/21.jpeg",2,1,2,NA,"HouseObjects",1,2,"left","left",0.646000147,1,1,1,1,NA,NA,NA,NA,NA,NA,NA,NA,NA,NA,NA,NA,NA,NA,NA,NA,NA,NA,NA,NA,NA,NA,NA,NA
"208","stim/objects/Instruments/oboe2.png",230,7,230,0.9,"stim/34.jpeg",3,4,3,NA,"Instruments",2,1,"right","right",0.482000113,1,1,1,1,NA,NA,NA,NA,NA,NA,NA,NA,NA,NA,NA,NA,NA,NA,NA,NA,NA,NA,NA,NA,NA,NA,NA,NA
"65","stim/objects/HouseObjects/pan.png",231,7,231,0.5,"stim/63.jpeg",6,3,1,NA,"HouseObjects",1,1,"left","right",0.529999971,0,0,1,1,NA,NA,NA,NA,NA,NA,NA,NA,NA,NA,NA,NA,NA,NA,NA,NA,NA,NA,NA,NA,NA,NA,NA,NA
"58","stim/objects/HouseObjects/match.png",232,7,232,0.5,"stim/62.jpeg",6,2,1,NA,"HouseObjects",1,3,"left","right",0.605000019,0,0,1,1,NA,NA,NA,NA,NA,NA,NA,NA,NA,NA,NA,NA,NA,NA,NA,NA,NA,NA,NA,NA,NA,NA,NA,NA
"59","stim/objects/HouseObjects/match.png",233,7,233,0.5,"stim/62.jpeg",6,2,1,NA,"HouseObjects",1,1,"left","right",0.553999901,0,0,1,1,NA,NA,NA,NA,NA,NA,NA,NA,NA,NA,NA,NA,NA,NA,NA,NA,NA,NA,NA,NA,NA,NA,NA,NA
"125","stim/objects/Instruments/keyboard.png",234,7,234,0.5,"stim/51.jpeg",5,1,1,NA,"Instruments",2,1,"right","right",0.750999928,1,1,1,1,NA,NA,NA,NA,NA,NA,NA,NA,NA,NA,NA,NA,NA,NA,NA,NA,NA,NA,NA,NA,NA,NA,NA,NA
"111","stim/objects/HouseObjects/rug.png",235,7,235,0.3,"stim/14.jpeg",1,4,2,NA,"HouseObjects",1,3,"left","right",0.644999981,0,0,1,1,NA,NA,NA,NA,NA,NA,NA,NA,NA,NA,NA,NA,NA,NA,NA,NA,NA,NA,NA,NA,NA,NA,NA,NA
"84","stim/objects/HouseObjects/recyclingbin2.png",236,7,236,0.9,"stim/41.jpeg",4,1,3,NA,"HouseObjects",1,1,"left","left",0.687999964,1,1,1,1,NA,NA,NA,NA,NA,NA,NA,NA,NA,NA,NA,NA,NA,NA,NA,NA,NA,NA,NA,NA,NA,NA,NA,NA
"166","stim/objects/Instruments/metronome2.png",237,7,237,0.9,"stim/31.jpeg",3,1,3,NA,"Instruments",2,2,"right","right",0.569999933,1,1,1,1,NA,NA,NA,NA,NA,NA,NA,NA,NA,NA,NA,NA,NA,NA,NA,NA,NA,NA,NA,NA,NA,NA,NA,NA
"87","stim/objects/HouseObjects/remote.png",238,7,238,0.3,"stim/12.jpeg",1,2,2,NA,"HouseObjects",1,2,"left","right",0.664000034,0,0,1,1,NA,NA,NA,NA,NA,NA,NA,NA,NA,NA,NA,NA,NA,NA,NA,NA,NA,NA,NA,NA,NA,NA,NA,NA
"35","stim/objects/HouseObjects/key2.png",239,7,239,0.7,"stim/23.jpeg",2,3,2,NA,"HouseObjects",1,1,"left","left",0.460999966,1,1,1,1,NA,NA,NA,NA,NA,NA,NA,NA,NA,NA,NA,NA,NA,NA,NA,NA,NA,NA,NA,NA,NA,NA,NA,NA
"36","stim/objects/HouseObjects/key2.png",240,7,240,0.7,"stim/23.jpeg",2,3,2,NA,"HouseObjects",1,2,"left","left",0.451999903,1,1,1,1,NA,NA,NA,NA,NA,NA,NA,NA,NA,NA,NA,NA,NA,NA,NA,NA,NA,NA,NA,NA,NA,NA,NA,NA
"291","stim/objects/HouseObjects/doormat.png",248,7,241,0.9,"stim/43.jpeg",4,3,3,2,"HouseObjects",1,3,"left","",NA,0,0,1,0,NA,NA,NA,NA,NA,NA,NA,NA,NA,NA,NA,NA,NA,NA,NA,NA,NA,NA,NA,NA,NA,NA,NA,NA
"524","stim/objects/Instruments/grandpiano.png",249,7,242,0.9,"stim/32.jpeg",3,2,3,2,"Instruments",2,3,"right","",NA,0,0,1,0,NA,NA,NA,NA,NA,NA,NA,NA,NA,NA,NA,NA,NA,NA,NA,NA,NA,NA,NA,NA,NA,NA,NA,NA
"490","stim/objects/Instruments/frenchhorn.png",250,7,243,0.9,"stim/32.jpeg",3,2,3,2,"Instruments",2,4,"right","right",0.541999817,1,1,1,0,NA,NA,NA,NA,NA,NA,NA,NA,NA,NA,NA,NA,NA,NA,NA,NA,NA,NA,NA,NA,NA,NA,NA,NA
"566","stim/objects/Instruments/violin2.png",251,7,244,0.1,"stim/42.jpeg",4,2,3,1,"Instruments",2,2,"right","left",0.846999884,0,0,1,0,45,7,1,0.1,2,"stim/42.jpeg",4,2,"stim/42.jpeg",2,"right",1.569000244,2,2,5.688000202,1,2.954000235,45,0,1,NA,0,NA,1
"525","stim/objects/Instruments/grandpiano.png",252,7,245,0.9,"stim/31.jpeg",3,1,3,2,"Instruments",2,2,"right","right",0.681999922,1,1,1,0,NA,NA,NA,NA,NA,NA,NA,NA,NA,NA,NA,NA,NA,NA,NA,NA,NA,NA,NA,NA,NA,NA,NA,NA
"292","stim/objects/HouseObjects/doormat.png",253,7,246,0.9,"stim/41.jpeg",4,1,3,2,"HouseObjects",1,4,"left","left",0.680999994,1,1,1,0,NA,NA,NA,NA,NA,NA,NA,NA,NA,NA,NA,NA,NA,NA,NA,NA,NA,NA,NA,NA,NA,NA,NA,NA
"526","stim/objects/Instruments/grandpiano.png",254,7,247,0.9,"stim/34.jpeg",3,4,3,2,"Instruments",2,1,"right","right",0.649999857,1,1,1,0,NA,NA,NA,NA,NA,NA,NA,NA,NA,NA,NA,NA,NA,NA,NA,NA,NA,NA,NA,NA,NA,NA,NA,NA
"491","stim/objects/Instruments/frenchhorn.png",255,7,248,0.9,"stim/33.jpeg",3,3,3,2,"Instruments",2,3,"right","right",0.477999926,1,1,1,0,NA,NA,NA,NA,NA,NA,NA,NA,NA,NA,NA,NA,NA,NA,NA,NA,NA,NA,NA,NA,NA,NA,NA,NA
"473","stim/objects/Instruments/flutetrans.png",256,7,249,0.9,"stim/32.jpeg",3,2,3,2,"Instruments",2,1,"right","right",0.613000154,1,1,1,0,NA,NA,NA,NA,NA,NA,NA,NA,NA,NA,NA,NA,NA,NA,NA,NA,NA,NA,NA,NA,NA,NA,NA,NA
"342","stim/objects/HouseObjects/garbagebin.png",257,7,250,0.9,"stim/42.jpeg",4,2,3,2,"HouseObjects",1,3,"left","left",0.812999964,1,1,1,0,NA,NA,NA,NA,NA,NA,NA,NA,NA,NA,NA,NA,NA,NA,NA,NA,NA,NA,NA,NA,NA,NA,NA,NA
"443","stim/objects/Instruments/doublebass2.png",258,7,251,0.3,"stim/24.jpeg",2,4,2,1,"Instruments",2,3,"right","left",0.593999863,0,0,1,0,92,7,1,0.3,2,"stim/24.jpeg",2,4,"stim/24.jpeg",3,"left",0.718000174,4,3,2.143000126,2,2.927999973,92,1,0,0,0,0,1
"389","stim/objects/HouseObjects/scale2.png",259,7,252,0.9,"stim/42.jpeg",4,2,3,1,"HouseObjects",1,4,"left","right",0.786999941,0,0,1,0,72,7,1,0.9,1,"stim/42.jpeg",4,2,"stim/42.jpeg",4,"left",1.156000137,3,3,1.850000143,3,2.855999947,72,1,0,0,0,0,1
"570","stim/objects/Instruments/xylophone2.png",260,7,253,0.1,"stim/44.jpeg",4,4,3,1,"Instruments",2,2,"right","left",0.620000124,0,0,1,0,144,7,1,0.1,2,"stim/44.jpeg",4,4,"stim/44.jpeg",2,"left",0.784000397,4,3,1.835999966,2,3.690000057,144,1,0,0,1,1,1
"402","stim/objects/HouseObjects/vacuumcleaner.png",261,7,254,0.3,"stim/14.jpeg",1,4,2,1,"HouseObjects",1,1,"left","left",0.684000015,1,1,1,0,145,7,1,0.3,1,"stim/14.jpeg",1,4,"stim/14.jpeg",1,"left",1.120000124,2,3,1.619000196,1,2.369000196,145,1,0,0,1,1,1
"551","stim/objects/Instruments/speaker.png",262,7,255,0.5,"stim/64.jpeg",6,4,1,1,"Instruments",2,1,"right","right",0.838000059,1,1,1,0,147,7,1,0.5,2,"stim/64.jpeg",6,4,"stim/64.jpeg",1,"left",1.082000256,4,2,2.519000053,3,2.187000275,147,1,0,0,0,0,1
"283","stim/objects/HouseObjects/cushion.png",263,7,256,0.7,"stim/21.jpeg",2,1,2,2,"HouseObjects",1,2,"left","left",0.717000008,1,1,1,0,NA,NA,NA,NA,NA,NA,NA,NA,NA,NA,NA,NA,NA,NA,NA,NA,NA,NA,NA,NA,NA,NA,NA,NA
"326","stim/objects/HouseObjects/flyswatter.png",264,7,257,0.9,"stim/43.jpeg",4,3,3,2,"HouseObjects",1,4,"left","left",0.700999975,1,1,1,0,NA,NA,NA,NA,NA,NA,NA,NA,NA,NA,NA,NA,NA,NA,NA,NA,NA,NA,NA,NA,NA,NA,NA,NA
"440","stim/objects/Instruments/doublebass.png",265,7,258,0.7,"stim/11.jpeg",1,1,2,2,"Instruments",2,1,"right","right",0.817000151,1,1,1,0,NA,NA,NA,NA,NA,NA,NA,NA,NA,NA,NA,NA,NA,NA,NA,NA,NA,NA,NA,NA,NA,NA,NA,NA
"408","stim/objects/Instruments/accordion2.png",266,7,259,0.7,"stim/13.jpeg",1,3,2,1,"Instruments",2,2,"right","right",0.56099987,1,1,1,0,152,7,1,0.7,2,"stim/13.jpeg",1,3,"stim/13.jpeg",2,"left",0.830000162,4,2,3.35400033,1,1.686000109,152,1,0,0,0,0,1
"439","stim/objects/Instruments/cymbal2.png",267,7,260,0.3,"stim/23.jpeg",2,3,2,1,"Instruments",2,4,"right","left",0.628999949,0,0,1,0,123,7,1,0.3,2,"stim/23.jpeg",2,3,"stim/23.jpeg",4,"left",0.901000023,4,3,2.507000208,4,1.886000156,123,1,1,1,1,1,1
"294","stim/objects/HouseObjects/doormat.png",268,7,261,0.9,"stim/42.jpeg",4,2,3,2,"HouseObjects",1,1,"left","left",0.697999954,1,1,1,0,NA,NA,NA,NA,NA,NA,NA,NA,NA,NA,NA,NA,NA,NA,NA,NA,NA,NA,NA,NA,NA,NA,NA,NA
"456","stim/objects/Instruments/flute.png",269,7,262,0.9,"stim/33.jpeg",3,3,3,2,"Instruments",2,1,"right","",NA,0,0,1,0,NA,NA,NA,NA,NA,NA,NA,NA,NA,NA,NA,NA,NA,NA,NA,NA,NA,NA,NA,NA,NA,NA,NA,NA
"404","stim/objects/HouseObjects/wateringcan.png",270,7,263,0.3,"stim/11.jpeg",1,1,2,1,"HouseObjects",1,1,"left","right",0.579999924,0,0,1,0,20,7,1,0.3,1,"stim/11.jpeg",1,1,"stim/11.jpeg",1,"right",2.761000156,1,3,2.032000065,1,0.980999947,20,0,0,NA,1,NA,1
"359","stim/objects/HouseObjects/glass.png",271,7,264,0.9,"stim/41.jpeg",4,1,3,2,"HouseObjects",1,2,"left","left",0.811000109,1,1,1,0,NA,NA,NA,NA,NA,NA,NA,NA,NA,NA,NA,NA,NA,NA,NA,NA,NA,NA,NA,NA,NA,NA,NA,NA
"250","stim/objects/HouseObjects/basket.png",272,7,265,0.5,"stim/51.jpeg",5,1,1,2,"HouseObjects",1,1,"left","left",0.652999878,1,1,1,0,NA,NA,NA,NA,NA,NA,NA,NA,NA,NA,NA,NA,NA,NA,NA,NA,NA,NA,NA,NA,NA,NA,NA,NA
"327","stim/objects/HouseObjects/flyswatter.png",273,7,266,0.9,"stim/42.jpeg",4,2,3,2,"HouseObjects",1,1,"left","left",0.65199995,1,1,1,0,NA,NA,NA,NA,NA,NA,NA,NA,NA,NA,NA,NA,NA,NA,NA,NA,NA,NA,NA,NA,NA,NA,NA,NA
"409","stim/objects/Instruments/acousticguitar.png",274,7,267,0.5,"stim/51.jpeg",5,1,1,2,"Instruments",2,3,"right","left",0.559999943,0,0,1,0,NA,NA,NA,NA,NA,NA,NA,NA,NA,NA,NA,NA,NA,NA,NA,NA,NA,NA,NA,NA,NA,NA,NA,NA
"344","stim/objects/HouseObjects/garbagebin.png",275,7,268,0.9,"stim/42.jpeg",4,2,3,2,"HouseObjects",1,1,"left","left",0.524000168,1,1,1,0,NA,NA,NA,NA,NA,NA,NA,NA,NA,NA,NA,NA,NA,NA,NA,NA,NA,NA,NA,NA,NA,NA,NA,NA
"379","stim/objects/HouseObjects/hairdryer2.png",276,7,269,0.1,"stim/33.jpeg",3,3,3,1,"HouseObjects",1,3,"left","right",0.704999924,0,0,1,0,148,7,1,0.1,1,"stim/33.jpeg",3,3,"stim/33.jpeg",3,"left",0.986000299,3,4,2.982000113,1,2.543000221,148,1,0,0,0,0,1
"360","stim/objects/HouseObjects/glass.png",277,7,270,0.9,"stim/44.jpeg",4,4,3,2,"HouseObjects",1,3,"left","right",0.758000135,0,0,1,0,NA,NA,NA,NA,NA,NA,NA,NA,NA,NA,NA,NA,NA,NA,NA,NA,NA,NA,NA,NA,NA,NA,NA,NA
"387","stim/objects/HouseObjects/saw2.png",278,7,271,0.9,"stim/41.jpeg",4,1,3,1,"HouseObjects",1,3,"left","left",0.756999969,1,1,1,0,134,7,1,0.9,1,"stim/41.jpeg",4,1,"stim/41.jpeg",3,"right",1.373000145,3,2,1.952000141,3,1.536000013,134,0,0,NA,1,NA,1
"457","stim/objects/Instruments/flute.png",279,7,272,0.9,"stim/31.jpeg",3,1,3,2,"Instruments",2,4,"right","right",0.549000025,1,1,1,0,NA,NA,NA,NA,NA,NA,NA,NA,NA,NA,NA,NA,NA,NA,NA,NA,NA,NA,NA,NA,NA,NA,NA,NA
"270","stim/objects/HouseObjects/clock2.png",280,7,273,0.7,"stim/24.jpeg",2,4,2,1,"HouseObjects",1,3,"left","left",0.598999977,1,1,1,0,171,7,1,0.7,1,"stim/24.jpeg",2,4,"stim/24.jpeg",3,"left",1.402000189,3,4,3.577000141,1,0.702000141,171,1,1,1,0,0,1
"295","stim/objects/HouseObjects/doormat.png",281,7,274,0.9,"stim/42.jpeg",4,2,3,2,"HouseObjects",1,1,"left","left",0.490999937,1,1,1,0,NA,NA,NA,NA,NA,NA,NA,NA,NA,NA,NA,NA,NA,NA,NA,NA,NA,NA,NA,NA,NA,NA,NA,NA
"262","stim/objects/HouseObjects/broom.png",282,7,275,0.5,"stim/61.jpeg",6,1,1,2,"HouseObjects",1,3,"left","right",0.661000013,0,0,1,0,NA,NA,NA,NA,NA,NA,NA,NA,NA,NA,NA,NA,NA,NA,NA,NA,NA,NA,NA,NA,NA,NA,NA,NA
"380","stim/objects/HouseObjects/handbrush.png",283,7,276,0.5,"stim/51.jpeg",5,1,1,1,"HouseObjects",1,1,"left","left",0.516000032,1,1,1,0,115,7,1,0.5,1,"stim/51.jpeg",5,1,"stim/51.jpeg",1,"left",1.042000294,4,4,3.189000368,1,1.436000347,115,1,0,0,1,1,1
"346","stim/objects/HouseObjects/garbagebin.png",284,7,277,0.9,"stim/44.jpeg",4,4,3,2,"HouseObjects",1,3,"left","left",0.693000078,1,1,1,0,NA,NA,NA,NA,NA,NA,NA,NA,NA,NA,NA,NA,NA,NA,NA,NA,NA,NA,NA,NA,NA,NA,NA,NA
"523","stim/objects/Instruments/gong2.png",285,7,278,0.9,"stim/32.jpeg",3,2,3,1,"Instruments",2,2,"right","right",0.693000078,1,1,1,0,21,7,1,0.9,2,"stim/32.jpeg",3,2,"stim/32.jpeg",2,"right",1.29700017,1,4,3.051000357,4,3.282000303,21,0,0,NA,0,NA,1
"474","stim/objects/Instruments/flutetrans.png",286,7,279,0.9,"stim/33.jpeg",3,3,3,2,"Instruments",2,3,"right","right",0.507999897,1,1,1,0,NA,NA,NA,NA,NA,NA,NA,NA,NA,NA,NA,NA,NA,NA,NA,NA,NA,NA,NA,NA,NA,NA,NA,NA
"296","stim/objects/HouseObjects/doormat.png",287,7,280,0.9,"stim/42.jpeg",4,2,3,2,"HouseObjects",1,4,"left","right",0.39199996,0,0,1,0,NA,NA,NA,NA,NA,NA,NA,NA,NA,NA,NA,NA,NA,NA,NA,NA,NA,NA,NA,NA,NA,NA,NA,NA
"475","stim/objects/Instruments/flutetrans.png",288,7,281,0.9,"stim/34.jpeg",3,4,3,2,"Instruments",2,3,"right","right",0.574999809,1,1,1,0,NA,NA,NA,NA,NA,NA,NA,NA,NA,NA,NA,NA,NA,NA,NA,NA,NA,NA,NA,NA,NA,NA,NA,NA
"412","stim/objects/Instruments/balalaika.png",289,7,282,0.5,"stim/52.jpeg",5,2,1,2,"Instruments",2,2,"right","left",0.484999895,0,0,1,0,NA,NA,NA,NA,NA,NA,NA,NA,NA,NA,NA,NA,NA,NA,NA,NA,NA,NA,NA,NA,NA,NA,NA,NA
"555","stim/objects/Instruments/timbal.png",290,7,283,0.5,"stim/62.jpeg",6,2,1,1,"Instruments",2,4,"right","right",0.553999901,1,1,1,0,190,7,1,0.5,2,"stim/62.jpeg",6,2,"stim/62.jpeg",4,"right",0.925000191,3,3,2.070000172,2,1.140000105,190,0,0,NA,0,NA,1
"361","stim/objects/HouseObjects/glass.png",291,7,284,0.9,"stim/44.jpeg",4,4,3,2,"HouseObjects",1,3,"left","left",0.586999893,1,1,1,0,NA,NA,NA,NA,NA,NA,NA,NA,NA,NA,NA,NA,NA,NA,NA,NA,NA,NA,NA,NA,NA,NA,NA,NA
"297","stim/objects/HouseObjects/doormat.png",292,7,285,0.9,"stim/44.jpeg",4,4,3,2,"HouseObjects",1,1,"left","left",0.542999983,1,1,1,0,NA,NA,NA,NA,NA,NA,NA,NA,NA,NA,NA,NA,NA,NA,NA,NA,NA,NA,NA,NA,NA,NA,NA,NA
"411","stim/objects/Instruments/acousticguitar2.png",293,7,286,0.7,"stim/14.jpeg",1,4,2,1,"Instruments",2,4,"right","right",0.482999802,1,1,1,0,79,7,1,0.7,2,"stim/14.jpeg",1,4,"stim/14.jpeg",4,"right",3.12100029,2,3,1.351000309,4,1.535000086,79,0,0,NA,1,NA,1
"329","stim/objects/HouseObjects/flyswatter.png",294,7,287,0.9,"stim/42.jpeg",4,2,3,2,"HouseObjects",1,2,"left","right",0.539999962,0,0,1,0,NA,NA,NA,NA,NA,NA,NA,NA,NA,NA,NA,NA,NA,NA,NA,NA,NA,NA,NA,NA,NA,NA,NA,NA
"445","stim/objects/Instruments/drums.png",295,7,288,0.7,"stim/11.jpeg",1,1,2,2,"Instruments",2,4,"right","right",0.636000156,1,1,1,0,NA,NA,NA,NA,NA,NA,NA,NA,NA,NA,NA,NA,NA,NA,NA,NA,NA,NA,NA,NA,NA,NA,NA,NA
"308","stim/objects/HouseObjects/dustpan.png",296,7,289,0.9,"stim/43.jpeg",4,3,3,2,"HouseObjects",1,4,"left","left",0.508000135,1,1,1,0,NA,NA,NA,NA,NA,NA,NA,NA,NA,NA,NA,NA,NA,NA,NA,NA,NA,NA,NA,NA,NA,NA,NA,NA
"493","stim/objects/Instruments/frenchhorn.png",297,7,290,0.9,"stim/31.jpeg",3,1,3,2,"Instruments",2,2,"right","right",0.590000153,1,1,1,0,NA,NA,NA,NA,NA,NA,NA,NA,NA,NA,NA,NA,NA,NA,NA,NA,NA,NA,NA,NA,NA,NA,NA,NA
"362","stim/objects/HouseObjects/glass.png",298,7,291,0.9,"stim/41.jpeg",4,1,3,2,"HouseObjects",1,4,"left","left",0.629999876,1,1,1,0,NA,NA,NA,NA,NA,NA,NA,NA,NA,NA,NA,NA,NA,NA,NA,NA,NA,NA,NA,NA,NA,NA,NA,NA
"508","stim/objects/Instruments/gong.png",299,7,292,0.9,"stim/32.jpeg",3,2,3,2,"Instruments",2,4,"right","right",0.651000023,1,1,1,0,NA,NA,NA,NA,NA,NA,NA,NA,NA,NA,NA,NA,NA,NA,NA,NA,NA,NA,NA,NA,NA,NA,NA,NA
"309","stim/objects/HouseObjects/dustpan.png",300,7,293,0.9,"stim/44.jpeg",4,4,3,2,"HouseObjects",1,3,"left","left",0.494999886,1,1,1,0,NA,NA,NA,NA,NA,NA,NA,NA,NA,NA,NA,NA,NA,NA,NA,NA,NA,NA,NA,NA,NA,NA,NA,NA
"330","stim/objects/HouseObjects/flyswatter.png",301,7,294,0.9,"stim/42.jpeg",4,2,3,2,"HouseObjects",1,3,"left","left",0.545000076,1,1,1,0,NA,NA,NA,NA,NA,NA,NA,NA,NA,NA,NA,NA,NA,NA,NA,NA,NA,NA,NA,NA,NA,NA,NA,NA
"363","stim/objects/HouseObjects/glass.png",302,7,295,0.9,"stim/44.jpeg",4,4,3,2,"HouseObjects",1,2,"left","left",0.546999931,1,1,1,0,NA,NA,NA,NA,NA,NA,NA,NA,NA,NA,NA,NA,NA,NA,NA,NA,NA,NA,NA,NA,NA,NA,NA,NA
"246","stim/objects/HouseObjects/ballofstring2.png",303,7,296,0.3,"stim/13.jpeg",1,3,2,1,"HouseObjects",1,3,"left","right",0.598999977,0,0,1,0,14,7,1,0.3,1,"stim/13.jpeg",1,3,"stim/13.jpeg",3,"right",1.414000273,3,3,8.60400033,1,1.343000174,14,0,1,NA,0,NA,1
"364","stim/objects/HouseObjects/glass.png",304,7,297,0.9,"stim/41.jpeg",4,1,3,2,"HouseObjects",1,2,"left","left",0.575000048,1,1,1,0,NA,NA,NA,NA,NA,NA,NA,NA,NA,NA,NA,NA,NA,NA,NA,NA,NA,NA,NA,NA,NA,NA,NA,NA
"256","stim/objects/HouseObjects/blender.png",305,7,298,0.5,"stim/64.jpeg",6,4,1,2,"HouseObjects",1,1,"left","right",0.58100009,0,0,1,0,NA,NA,NA,NA,NA,NA,NA,NA,NA,NA,NA,NA,NA,NA,NA,NA,NA,NA,NA,NA,NA,NA,NA,NA
"559","stim/objects/Instruments/trombone.png",306,7,299,0.5,"stim/64.jpeg",6,4,1,1,"Instruments",2,1,"right","right",0.61500001,1,1,1,0,153,7,1,0.5,2,"stim/64.jpeg",6,4,"stim/64.jpeg",1,"left",0.969000101,2,1,2.352000237,4,1.751000166,153,1,0,0,0,0,1
"458","stim/objects/Instruments/flute.png",307,7,300,0.9,"stim/33.jpeg",3,3,3,2,"Instruments",2,1,"right","right",0.513000011,1,1,1,0,NA,NA,NA,NA,NA,NA,NA,NA,NA,NA,NA,NA,NA,NA,NA,NA,NA,NA,NA,NA,NA,NA,NA,NA
"542","stim/objects/Instruments/guitarcase2.png",308,7,301,0.9,"stim/34.jpeg",3,4,3,1,"Instruments",2,4,"right","right",0.599000216,1,1,1,0,30,7,1,0.9,2,"stim/34.jpeg",3,4,"stim/34.jpeg",4,"left",1.316000223,4,4,3.304000139,4,2.053000212,30,1,1,1,1,1,1
"436","stim/objects/Instruments/cymbal.png",309,7,302,0.7,"stim/11.jpeg",1,1,2,2,"Instruments",2,4,"right","right",0.582000017,1,1,1,0,NA,NA,NA,NA,NA,NA,NA,NA,NA,NA,NA,NA,NA,NA,NA,NA,NA,NA,NA,NA,NA,NA,NA,NA
"378","stim/objects/HouseObjects/hairdryer.png",310,7,303,0.5,"stim/54.jpeg",5,4,1,1,"HouseObjects",1,3,"left","left",0.569999933,1,1,1,0,74,7,1,0.5,1,"stim/54.jpeg",5,4,"stim/54.jpeg",3,"left",1.335999966,3,1,3.752000093,3,5.154000044,74,1,0,0,1,1,1
"311","stim/objects/HouseObjects/dustpan.png",311,7,304,0.9,"stim/42.jpeg",4,2,3,2,"HouseObjects",1,4,"left","left",0.671999931,1,1,1,0,NA,NA,NA,NA,NA,NA,NA,NA,NA,NA,NA,NA,NA,NA,NA,NA,NA,NA,NA,NA,NA,NA,NA,NA
"563","stim/objects/Instruments/tuba.png",312,7,305,0.7,"stim/13.jpeg",1,3,2,1,"Instruments",2,3,"right","right",0.604000092,1,1,1,0,158,7,1,0.7,2,"stim/13.jpeg",1,3,"stim/13.jpeg",3,"right",2.705000162,2,3,1.37100029,1,0.73300004,158,0,1,NA,0,NA,1
"494","stim/objects/Instruments/frenchhorn.png",313,7,306,0.9,"stim/32.jpeg",3,2,3,2,"Instruments",2,2,"right","right",0.580000162,1,1,1,0,NA,NA,NA,NA,NA,NA,NA,NA,NA,NA,NA,NA,NA,NA,NA,NA,NA,NA,NA,NA,NA,NA,NA,NA
"312","stim/objects/HouseObjects/dustpan.png",314,7,307,0.9,"stim/41.jpeg",4,1,3,2,"HouseObjects",1,2,"left","left",0.59800005,1,1,1,0,NA,NA,NA,NA,NA,NA,NA,NA,NA,NA,NA,NA,NA,NA,NA,NA,NA,NA,NA,NA,NA,NA,NA,NA
"341","stim/objects/HouseObjects/flyswatter2.png",315,7,308,0.1,"stim/33.jpeg",3,3,3,1,"HouseObjects",1,3,"left","right",0.52699995,0,0,1,0,76,7,1,0.1,1,"stim/33.jpeg",3,3,"stim/33.jpeg",3,"right",1.087000132,4,1,3.176000118,3,1.785000086,76,0,0,NA,1,NA,1
"403","stim/objects/HouseObjects/vacuumcleaner2.png",316,7,309,0.9,"stim/41.jpeg",4,1,3,1,"HouseObjects",1,2,"left","left",0.539999962,1,1,1,0,39,7,1,0.9,1,"stim/41.jpeg",4,1,"stim/41.jpeg",2,"right",1.376000166,3,2,2.554000139,2,1.535000086,39,0,0,NA,1,NA,1
"433","stim/objects/Instruments/cornet.png",317,7,310,0.5,"stim/63.jpeg",6,3,1,2,"Instruments",2,1,"right","left",0.779000044,0,0,1,0,NA,NA,NA,NA,NA,NA,NA,NA,NA,NA,NA,NA,NA,NA,NA,NA,NA,NA,NA,NA,NA,NA,NA,NA
"331","stim/objects/HouseObjects/flyswatter.png",318,7,311,0.9,"stim/43.jpeg",4,3,3,2,"HouseObjects",1,4,"left","left",0.624000072,1,1,1,0,NA,NA,NA,NA,NA,NA,NA,NA,NA,NA,NA,NA,NA,NA,NA,NA,NA,NA,NA,NA,NA,NA,NA,NA
"260","stim/objects/HouseObjects/bottle.png",319,7,312,0.5,"stim/64.jpeg",6,4,1,2,"HouseObjects",1,3,"left","right",0.59100008,0,0,1,0,NA,NA,NA,NA,NA,NA,NA,NA,NA,NA,NA,NA,NA,NA,NA,NA,NA,NA,NA,NA,NA,NA,NA,NA
"437","stim/objects/Instruments/cymbal.png",320,7,313,0.7,"stim/13.jpeg",1,3,2,2,"Instruments",2,2,"right","right",0.671000004,1,1,1,0,NA,NA,NA,NA,NA,NA,NA,NA,NA,NA,NA,NA,NA,NA,NA,NA,NA,NA,NA,NA,NA,NA,NA,NA
"299","stim/objects/HouseObjects/doormat.png",321,7,314,0.9,"stim/43.jpeg",4,3,3,2,"HouseObjects",1,1,"left","left",0.592999935,1,1,1,0,NA,NA,NA,NA,NA,NA,NA,NA,NA,NA,NA,NA,NA,NA,NA,NA,NA,NA,NA,NA,NA,NA,NA,NA
"384","stim/objects/HouseObjects/safetypin.png",322,7,315,0.5,"stim/53.jpeg",5,3,1,1,"HouseObjects",1,3,"left","left",0.536999941,1,1,1,0,155,7,1,0.5,1,"stim/53.jpeg",5,3,"stim/53.jpeg",3,"left",1.269000292,4,3,1.883000135,3,1.838999987,155,1,1,1,1,1,1
"509","stim/objects/Instruments/gong.png",323,7,316,0.9,"stim/34.jpeg",3,4,3,2,"Instruments",2,1,"right","right",0.603999853,1,1,1,0,NA,NA,NA,NA,NA,NA,NA,NA,NA,NA,NA,NA,NA,NA,NA,NA,NA,NA,NA,NA,NA,NA,NA,NA
"332","stim/objects/HouseObjects/flyswatter.png",324,7,317,0.9,"stim/41.jpeg",4,1,3,2,"HouseObjects",1,1,"left","left",0.582999945,1,1,1,0,NA,NA,NA,NA,NA,NA,NA,NA,NA,NA,NA,NA,NA,NA,NA,NA,NA,NA,NA,NA,NA,NA,NA,NA
"510","stim/objects/Instruments/gong.png",325,7,318,0.9,"stim/33.jpeg",3,3,3,2,"Instruments",2,3,"right","right",0.582999945,1,1,1,0,NA,NA,NA,NA,NA,NA,NA,NA,NA,NA,NA,NA,NA,NA,NA,NA,NA,NA,NA,NA,NA,NA,NA,NA
"258","stim/objects/HouseObjects/blender2.png",326,7,319,0.7,"stim/24.jpeg",2,4,2,1,"HouseObjects",1,3,"left","left",0.572999954,1,1,1,0,15,7,1,0.7,1,"stim/24.jpeg",2,4,"stim/24.jpeg",3,"right",2.695000172,2,3,4.686000109,2,2.651000023,15,0,0,NA,0,NA,1
"448","stim/objects/Instruments/electricdrumset.png",327,7,320,0.7,"stim/13.jpeg",1,3,2,2,"Instruments",2,4,"right","right",0.652999878,1,1,1,0,NA,NA,NA,NA,NA,NA,NA,NA,NA,NA,NA,NA,NA,NA,NA,NA,NA,NA,NA,NA,NA,NA,NA,NA
"546","stim/objects/Instruments/harp2.png",328,7,321,0.9,"stim/32.jpeg",3,2,3,1,"Instruments",2,1,"right","right",0.661000013,1,1,1,0,24,7,1,0.9,2,"stim/32.jpeg",3,2,"stim/32.jpeg",1,"left",1.585000277,3,2,5.722000122,1,3.571000099,24,1,1,1,1,1,1
"451","stim/objects/Instruments/electricdrumset2.png",329,7,322,0.3,"stim/22.jpeg",2,2,2,1,"Instruments",2,2,"right","left",0.574999809,0,0,1,0,42,7,1,0.3,2,"stim/22.jpeg",2,2,"stim/22.jpeg",2,"left",1.232000113,4,4,2.702000141,3,8.527000189,42,1,0,0,0,0,1
"271","stim/objects/HouseObjects/clothesdryingrack.png",330,7,323,0.7,"stim/23.jpeg",2,3,2,2,"HouseObjects",1,4,"left","left",0.575999975,1,1,1,0,NA,NA,NA,NA,NA,NA,NA,NA,NA,NA,NA,NA,NA,NA,NA,NA,NA,NA,NA,NA,NA,NA,NA,NA
"513","stim/objects/Instruments/gong.png",331,7,324,0.9,"stim/33.jpeg",3,3,3,2,"Instruments",2,3,"right","right",0.565000057,1,1,1,0,NA,NA,NA,NA,NA,NA,NA,NA,NA,NA,NA,NA,NA,NA,NA,NA,NA,NA,NA,NA,NA,NA,NA,NA
"382","stim/objects/HouseObjects/handvacuum.png",332,7,325,0.5,"stim/52.jpeg",5,2,1,1,"HouseObjects",1,4,"left","left",0.55700016,1,1,1,0,139,7,1,0.5,1,"stim/52.jpeg",5,2,"stim/52.jpeg",4,"right",0.753000021,4,2,2.549000263,3,3.847000122,139,0,1,NA,0,NA,1
"565","stim/objects/Instruments/violin.png",333,7,326,0.7,"stim/14.jpeg",1,4,2,1,"Instruments",2,2,"right","right",0.595000029,1,1,1,0,73,7,1,0.7,2,"stim/14.jpeg",1,4,"stim/14.jpeg",2,"right",1.487000227,3,4,2.353000164,3,3.952000141,73,0,1,NA,0,NA,1
"263","stim/objects/HouseObjects/broom.png",334,7,327,0.5,"stim/62.jpeg",6,2,1,2,"HouseObjects",1,2,"left","right",0.623999834,0,0,1,0,NA,NA,NA,NA,NA,NA,NA,NA,NA,NA,NA,NA,NA,NA,NA,NA,NA,NA,NA,NA,NA,NA,NA,NA
"476","stim/objects/Instruments/flutetrans.png",335,7,328,0.9,"stim/32.jpeg",3,2,3,2,"Instruments",2,1,"right","right",0.517999887,1,1,1,0,NA,NA,NA,NA,NA,NA,NA,NA,NA,NA,NA,NA,NA,NA,NA,NA,NA,NA,NA,NA,NA,NA,NA,NA
"388","stim/objects/HouseObjects/scale.png",336,7,329,0.5,"stim/62.jpeg",6,2,1,1,"HouseObjects",1,2,"left","right",0.491000175,0,0,1,0,133,7,1,0.5,2,"stim/62.jpeg",6,2,"stim/62.jpeg",2,"right",2.92200017,2,3,0.018000126,4,4.002000093,133,0,0,NA,0,NA,1
"366","stim/objects/HouseObjects/glass.png",337,7,330,0.9,"stim/43.jpeg",4,3,3,2,"HouseObjects",1,1,"left","left",0.511000156,1,1,1,0,NA,NA,NA,NA,NA,NA,NA,NA,NA,NA,NA,NA,NA,NA,NA,NA,NA,NA,NA,NA,NA,NA,NA,NA
"489","stim/objects/Instruments/flutetrans2.png",338,7,331,0.9,"stim/34.jpeg",3,4,3,1,"Instruments",2,4,"right","right",0.504999876,1,1,1,0,100,7,1,0.9,2,"stim/34.jpeg",3,4,"stim/34.jpeg",4,"left",1.440000296,3,2,2.421000004,1,2.82400012,100,1,0,0,0,0,1
"420","stim/objects/Instruments/bassdrum2.png",339,7,332,0.7,"stim/13.jpeg",1,3,2,1,"Instruments",2,1,"right","right",0.46999979,1,1,1,0,135,7,1,0.7,2,"stim/13.jpeg",1,3,"stim/13.jpeg",1,"left",1.453000307,4,4,3.435000181,1,2.709000349,135,1,0,0,1,1,1
"349","stim/objects/HouseObjects/garbagebin.png",340,7,333,0.9,"stim/41.jpeg",4,1,3,2,"HouseObjects",1,3,"left","left",0.513000011,1,1,1,0,NA,NA,NA,NA,NA,NA,NA,NA,NA,NA,NA,NA,NA,NA,NA,NA,NA,NA,NA,NA,NA,NA,NA,NA
"426","stim/objects/Instruments/cello2.png",341,7,334,0.3,"stim/23.jpeg",2,3,2,1,"Instruments",2,3,"right","left",0.443000078,0,0,1,0,157,7,1,0.3,2,"stim/23.jpeg",2,3,"stim/23.jpeg",3,"right",1.269000292,1,2,2.218000174,1,1.119000196,157,0,0,NA,0,NA,1
"367","stim/objects/HouseObjects/glass.png",342,7,335,0.9,"stim/42.jpeg",4,2,3,2,"HouseObjects",1,3,"left","left",0.555000067,1,1,1,0,NA,NA,NA,NA,NA,NA,NA,NA,NA,NA,NA,NA,NA,NA,NA,NA,NA,NA,NA,NA,NA,NA,NA,NA
"446","stim/objects/Instruments/drums.png",343,7,336,0.7,"stim/13.jpeg",1,3,2,2,"Instruments",2,2,"right","right",0.826999903,1,1,1,0,NA,NA,NA,NA,NA,NA,NA,NA,NA,NA,NA,NA,NA,NA,NA,NA,NA,NA,NA,NA,NA,NA,NA,NA
"529","stim/objects/Instruments/grandpiano.png",344,7,337,0.9,"stim/33.jpeg",3,3,3,2,"Instruments",2,3,"right","right",0.628000021,1,1,1,0,NA,NA,NA,NA,NA,NA,NA,NA,NA,NA,NA,NA,NA,NA,NA,NA,NA,NA,NA,NA,NA,NA,NA,NA
"333","stim/objects/HouseObjects/flyswatter.png",345,7,338,0.9,"stim/44.jpeg",4,4,3,2,"HouseObjects",1,3,"left","left",0.549999952,1,1,1,0,NA,NA,NA,NA,NA,NA,NA,NA,NA,NA,NA,NA,NA,NA,NA,NA,NA,NA,NA,NA,NA,NA,NA,NA
"276","stim/objects/HouseObjects/clothespin.png",346,7,339,0.7,"stim/22.jpeg",2,2,2,2,"HouseObjects",1,1,"left","left",0.498000145,1,1,1,0,NA,NA,NA,NA,NA,NA,NA,NA,NA,NA,NA,NA,NA,NA,NA,NA,NA,NA,NA,NA,NA,NA,NA,NA
"368","stim/objects/HouseObjects/glass.png",347,7,340,0.9,"stim/42.jpeg",4,2,3,2,"HouseObjects",1,2,"left","right",0.582999945,0,0,1,0,NA,NA,NA,NA,NA,NA,NA,NA,NA,NA,NA,NA,NA,NA,NA,NA,NA,NA,NA,NA,NA,NA,NA,NA
"430","stim/objects/Instruments/clarinet.png",348,7,341,0.5,"stim/61.jpeg",6,1,1,2,"Instruments",2,4,"right","right",0.555999994,1,1,1,0,NA,NA,NA,NA,NA,NA,NA,NA,NA,NA,NA,NA,NA,NA,NA,NA,NA,NA,NA,NA,NA,NA,NA,NA
"272","stim/objects/HouseObjects/clothesdryingrack.png",349,7,342,0.7,"stim/22.jpeg",2,2,2,2,"HouseObjects",1,1,"left","left",0.506000042,1,1,1,0,NA,NA,NA,NA,NA,NA,NA,NA,NA,NA,NA,NA,NA,NA,NA,NA,NA,NA,NA,NA,NA,NA,NA,NA
"545","stim/objects/Instruments/harp.png",350,7,343,0.5,"stim/54.jpeg",5,4,1,1,"Instruments",2,4,"right","left",0.61500001,0,0,1,0,162,7,1,0.5,1,"stim/54.jpeg",5,4,"stim/54.jpeg",4,"left",0.789000273,4,1,2.27300024,2,2.552000284,162,1,0,0,0,0,1
"369","stim/objects/HouseObjects/glass.png",351,7,344,0.9,"stim/44.jpeg",4,4,3,2,"HouseObjects",1,4,"left","left",0.703999996,1,1,1,0,NA,NA,NA,NA,NA,NA,NA,NA,NA,NA,NA,NA,NA,NA,NA,NA,NA,NA,NA,NA,NA,NA,NA,NA
"564","stim/objects/Instruments/tuba2.png",352,7,345,0.1,"stim/41.jpeg",4,1,3,1,"Instruments",2,3,"right","left",0.723999977,0,0,1,0,19,7,1,0.1,2,"stim/41.jpeg",4,1,"stim/41.jpeg",3,"right",2.335000277,3,1,2.87100029,2,1.11400032,19,0,1,NA,0,NA,1
"255","stim/objects/HouseObjects/bleachbottle2.png",353,7,346,0.3,"stim/12.jpeg",1,2,2,1,"HouseObjects",1,4,"left","right",0.608999968,0,0,1,0,47,7,1,0.3,1,"stim/12.jpeg",1,2,"stim/12.jpeg",4,"right",1.153000355,3,3,3.118000269,4,3.037000179,47,0,0,NA,1,NA,1
"447","stim/objects/Instruments/drums2.png",354,7,347,0.3,"stim/21.jpeg",2,1,2,1,"Instruments",2,3,"right","left",0.496000051,0,0,1,0,77,7,1,0.3,2,"stim/21.jpeg",2,1,"stim/21.jpeg",3,"left",1.852000237,4,1,2.137000322,3,1.709000349,77,1,1,1,1,1,1
"461","stim/objects/Instruments/flute.png",355,7,348,0.9,"stim/34.jpeg",3,4,3,2,"Instruments",2,4,"right","right",0.687000036,1,1,1,0,NA,NA,NA,NA,NA,NA,NA,NA,NA,NA,NA,NA,NA,NA,NA,NA,NA,NA,NA,NA,NA,NA,NA,NA
"432","stim/objects/Instruments/clarinet2.png",356,7,349,0.3,"stim/21.jpeg",2,1,2,1,"Instruments",2,1,"right","",NA,0,0,1,0,38,7,1,0.3,2,"stim/21.jpeg",2,1,"stim/21.jpeg",1,"left",2.404000044,3,1,4.992000103,2,1.792000055,38,1,1,1,0,0,1
"282","stim/objects/HouseObjects/coffee2.png",357,7,350,0.7,"stim/23.jpeg",2,3,2,1,"HouseObjects",1,2,"left","left",0.403000116,1,1,1,0,185,7,1,0.7,1,"stim/23.jpeg",2,3,"stim/23.jpeg",2,"left",0.852000237,3,2,2.38800025,3,2.986000299,185,1,0,0,0,0,1
"370","stim/objects/HouseObjects/glass.png",358,7,351,0.9,"stim/43.jpeg",4,3,3,2,"HouseObjects",1,3,"left","left",0.539000034,1,1,1,0,NA,NA,NA,NA,NA,NA,NA,NA,NA,NA,NA,NA,NA,NA,NA,NA,NA,NA,NA,NA,NA,NA,NA,NA
"530","stim/objects/Instruments/grandpiano.png",359,7,352,0.9,"stim/34.jpeg",3,4,3,2,"Instruments",2,4,"right","right",0.563999891,1,1,1,0,NA,NA,NA,NA,NA,NA,NA,NA,NA,NA,NA,NA,NA,NA,NA,NA,NA,NA,NA,NA,NA,NA,NA,NA
"350","stim/objects/HouseObjects/garbagebin.png",360,7,353,0.9,"stim/43.jpeg",4,3,3,2,"HouseObjects",1,3,"left","left",0.782000065,1,1,1,0,NA,NA,NA,NA,NA,NA,NA,NA,NA,NA,NA,NA,NA,NA,NA,NA,NA,NA,NA,NA,NA,NA,NA,NA
"301","stim/objects/HouseObjects/doormat.png",361,7,354,0.9,"stim/43.jpeg",4,3,3,2,"HouseObjects",1,4,"left","left",0.492000103,1,1,1,0,NA,NA,NA,NA,NA,NA,NA,NA,NA,NA,NA,NA,NA,NA,NA,NA,NA,NA,NA,NA,NA,NA,NA,NA
"462","stim/objects/Instruments/flute.png",362,7,355,0.9,"stim/32.jpeg",3,2,3,2,"Instruments",2,4,"right","right",0.690999985,1,1,1,0,NA,NA,NA,NA,NA,NA,NA,NA,NA,NA,NA,NA,NA,NA,NA,NA,NA,NA,NA,NA,NA,NA,NA,NA
"285","stim/objects/HouseObjects/cushion.png",363,7,356,0.7,"stim/24.jpeg",2,4,2,2,"HouseObjects",1,1,"left","left",0.553000212,1,1,1,0,NA,NA,NA,NA,NA,NA,NA,NA,NA,NA,NA,NA,NA,NA,NA,NA,NA,NA,NA,NA,NA,NA,NA,NA
"531","stim/objects/Instruments/grandpiano.png",364,7,357,0.9,"stim/33.jpeg",3,3,3,2,"Instruments",2,2,"right","right",0.769999981,1,1,1,0,NA,NA,NA,NA,NA,NA,NA,NA,NA,NA,NA,NA,NA,NA,NA,NA,NA,NA,NA,NA,NA,NA,NA,NA
"532","stim/objects/Instruments/grandpiano.png",365,7,358,0.9,"stim/32.jpeg",3,2,3,2,"Instruments",2,1,"right","right",0.576999903,1,1,1,0,NA,NA,NA,NA,NA,NA,NA,NA,NA,NA,NA,NA,NA,NA,NA,NA,NA,NA,NA,NA,NA,NA,NA,NA
"244","stim/objects/HouseObjects/ballofstring.png",366,7,359,0.5,"stim/52.jpeg",5,2,1,2,"HouseObjects",1,2,"left","left",0.679000139,1,1,1,0,NA,NA,NA,NA,NA,NA,NA,NA,NA,NA,NA,NA,NA,NA,NA,NA,NA,NA,NA,NA,NA,NA,NA,NA
"533","stim/objects/Instruments/grandpiano.png",367,7,360,0.9,"stim/34.jpeg",3,4,3,2,"Instruments",2,4,"right","right",0.680999994,1,1,1,0,NA,NA,NA,NA,NA,NA,NA,NA,NA,NA,NA,NA,NA,NA,NA,NA,NA,NA,NA,NA,NA,NA,NA,NA
"385","stim/objects/HouseObjects/safetypin2.png",368,7,361,0.1,"stim/32.jpeg",3,2,3,1,"HouseObjects",1,1,"left","left",0.71600008,1,1,1,0,156,7,1,0.1,1,"stim/32.jpeg",3,2,"stim/32.jpeg",1,"right",1.019000292,2,1,3.857000113,3,1.953000069,156,0,0,NA,0,NA,1
"452","stim/objects/Instruments/electricguitar.png",369,7,362,0.7,"stim/13.jpeg",1,3,2,2,"Instruments",2,2,"right","right",0.702000141,1,1,1,0,NA,NA,NA,NA,NA,NA,NA,NA,NA,NA,NA,NA,NA,NA,NA,NA,NA,NA,NA,NA,NA,NA,NA,NA
"418","stim/objects/Instruments/bassdrum.png",370,7,363,0.5,"stim/51.jpeg",5,1,1,2,"Instruments",2,3,"right","left",0.529999971,0,0,1,0,NA,NA,NA,NA,NA,NA,NA,NA,NA,NA,NA,NA,NA,NA,NA,NA,NA,NA,NA,NA,NA,NA,NA,NA
"287","stim/objects/HouseObjects/dishsoap.png",371,7,364,0.7,"stim/22.jpeg",2,2,2,2,"HouseObjects",1,2,"left","left",0.687999964,1,1,1,0,NA,NA,NA,NA,NA,NA,NA,NA,NA,NA,NA,NA,NA,NA,NA,NA,NA,NA,NA,NA,NA,NA,NA,NA
"268","stim/objects/HouseObjects/clock.png",372,7,365,0.5,"stim/63.jpeg",6,3,1,2,"HouseObjects",1,4,"left","right",0.677000046,0,0,1,0,NA,NA,NA,NA,NA,NA,NA,NA,NA,NA,NA,NA,NA,NA,NA,NA,NA,NA,NA,NA,NA,NA,NA,NA
"334","stim/objects/HouseObjects/flyswatter.png",373,7,366,0.9,"stim/41.jpeg",4,1,3,2,"HouseObjects",1,1,"left","left",0.520999908,1,1,1,0,NA,NA,NA,NA,NA,NA,NA,NA,NA,NA,NA,NA,NA,NA,NA,NA,NA,NA,NA,NA,NA,NA,NA,NA
"335","stim/objects/HouseObjects/flyswatter.png",374,7,367,0.9,"stim/42.jpeg",4,2,3,2,"HouseObjects",1,3,"left","left",0.553999901,1,1,1,0,NA,NA,NA,NA,NA,NA,NA,NA,NA,NA,NA,NA,NA,NA,NA,NA,NA,NA,NA,NA,NA,NA,NA,NA
"351","stim/objects/HouseObjects/garbagebin.png",375,7,368,0.9,"stim/44.jpeg",4,4,3,2,"HouseObjects",1,3,"left","left",0.414999962,1,1,1,0,NA,NA,NA,NA,NA,NA,NA,NA,NA,NA,NA,NA,NA,NA,NA,NA,NA,NA,NA,NA,NA,NA,NA,NA
"516","stim/objects/Instruments/gong.png",376,7,369,0.9,"stim/34.jpeg",3,4,3,2,"Instruments",2,4,"right","right",0.596999884,1,1,1,0,NA,NA,NA,NA,NA,NA,NA,NA,NA,NA,NA,NA,NA,NA,NA,NA,NA,NA,NA,NA,NA,NA,NA,NA
"302","stim/objects/HouseObjects/doormat.png",377,7,370,0.9,"stim/44.jpeg",4,4,3,2,"HouseObjects",1,4,"left","left",0.532999992,1,1,1,0,NA,NA,NA,NA,NA,NA,NA,NA,NA,NA,NA,NA,NA,NA,NA,NA,NA,NA,NA,NA,NA,NA,NA,NA
"251","stim/objects/HouseObjects/basket.png",378,7,371,0.5,"stim/54.jpeg",5,4,1,2,"HouseObjects",1,1,"left","left",0.4599998,1,1,1,0,NA,NA,NA,NA,NA,NA,NA,NA,NA,NA,NA,NA,NA,NA,NA,NA,NA,NA,NA,NA,NA,NA,NA,NA
"293","stim/objects/HouseObjects/doormat.png",379,7,372,0.9,"stim/44.jpeg",4,4,3,2,"HouseObjects",1,2,"left","left",0.528999805,1,1,1,0,NA,NA,NA,NA,NA,NA,NA,NA,NA,NA,NA,NA,NA,NA,NA,NA,NA,NA,NA,NA,NA,NA,NA,NA
"325","stim/objects/HouseObjects/flyswatter.png",380,7,373,0.9,"stim/43.jpeg",4,3,3,2,"HouseObjects",1,1,"left","left",0.477999926,1,1,1,0,NA,NA,NA,NA,NA,NA,NA,NA,NA,NA,NA,NA,NA,NA,NA,NA,NA,NA,NA,NA,NA,NA,NA,NA
"343","stim/objects/HouseObjects/garbagebin.png",381,7,374,0.9,"stim/41.jpeg",4,1,3,2,"HouseObjects",1,4,"left","left",0.476000071,1,1,1,0,NA,NA,NA,NA,NA,NA,NA,NA,NA,NA,NA,NA,NA,NA,NA,NA,NA,NA,NA,NA,NA,NA,NA,NA
"444","stim/objects/Instruments/drums.png",382,7,375,0.7,"stim/12.jpeg",1,2,2,2,"Instruments",2,4,"right","right",0.604000092,1,1,1,0,NA,NA,NA,NA,NA,NA,NA,NA,NA,NA,NA,NA,NA,NA,NA,NA,NA,NA,NA,NA,NA,NA,NA,NA
"527","stim/objects/Instruments/grandpiano.png",383,7,376,0.9,"stim/31.jpeg",3,1,3,2,"Instruments",2,4,"right","right",0.575999975,1,1,1,0,NA,NA,NA,NA,NA,NA,NA,NA,NA,NA,NA,NA,NA,NA,NA,NA,NA,NA,NA,NA,NA,NA,NA,NA
"438","stim/objects/Instruments/cymbal.png",384,7,377,0.7,"stim/14.jpeg",1,4,2,2,"Instruments",2,2,"right","right",0.501999855,1,1,1,0,NA,NA,NA,NA,NA,NA,NA,NA,NA,NA,NA,NA,NA,NA,NA,NA,NA,NA,NA,NA,NA,NA,NA,NA
"498","stim/objects/Instruments/frenchhorn.png",385,7,378,0.9,"stim/33.jpeg",3,3,3,2,"Instruments",2,1,"right","right",0.566999912,1,1,1,0,NA,NA,NA,NA,NA,NA,NA,NA,NA,NA,NA,NA,NA,NA,NA,NA,NA,NA,NA,NA,NA,NA,NA,NA
"562","stim/objects/Instruments/trumpet2.png",386,7,379,0.1,"stim/44.jpeg",4,4,3,1,"Instruments",2,1,"right","left",0.578000069,0,0,1,0,43,7,1,0.1,2,"stim/44.jpeg",4,4,"stim/44.jpeg",1,"left",1.652000189,3,3,7.373000145,2,2.920000076,43,1,0,0,0,0,1
"253","stim/objects/HouseObjects/bleachbottle.png",387,7,380,0.5,"stim/51.jpeg",5,1,1,2,"HouseObjects",1,4,"left","left",0.627000093,1,1,1,0,NA,NA,NA,NA,NA,NA,NA,NA,NA,NA,NA,NA,NA,NA,NA,NA,NA,NA,NA,NA,NA,NA,NA,NA
"395","stim/objects/HouseObjects/teapot2.png",388,7,381,0.9,"stim/41.jpeg",4,1,3,1,"HouseObjects",1,4,"left","left",0.65199995,1,1,1,0,23,7,1,0.9,1,"stim/41.jpeg",4,1,"stim/41.jpeg",4,"left",0.953000307,4,1,3.806000233,4,1.694000244,23,1,1,1,1,1,1
"556","stim/objects/Instruments/timbal2.png",389,7,382,0.1,"stim/41.jpeg",4,1,3,1,"Instruments",2,1,"right","left",0.525000095,0,0,1,0,173,7,1,0.1,2,"stim/41.jpeg",4,1,"stim/41.jpeg",1,"right",1.186000109,4,1,2.520000219,3,2.008000135,173,0,1,NA,0,NA,1
"518","stim/objects/Instruments/gong.png",390,7,383,0.9,"stim/32.jpeg",3,2,3,2,"Instruments",2,3,"right","right",0.760999918,1,1,1,0,NA,NA,NA,NA,NA,NA,NA,NA,NA,NA,NA,NA,NA,NA,NA,NA,NA,NA,NA,NA,NA,NA,NA,NA
"247","stim/objects/HouseObjects/barbecuelighter.png",391,7,384,0.5,"stim/54.jpeg",5,4,1,2,"HouseObjects",1,2,"left","left",0.52699995,1,1,1,0,NA,NA,NA,NA,NA,NA,NA,NA,NA,NA,NA,NA,NA,NA,NA,NA,NA,NA,NA,NA,NA,NA,NA,NA
"500","stim/objects/Instruments/frenchhorn.png",392,7,385,0.9,"stim/34.jpeg",3,4,3,2,"Instruments",2,1,"right","",NA,0,0,1,0,NA,NA,NA,NA,NA,NA,NA,NA,NA,NA,NA,NA,NA,NA,NA,NA,NA,NA,NA,NA,NA,NA,NA,NA
"514","stim/objects/Instruments/gong.png",393,7,386,0.9,"stim/34.jpeg",3,4,3,2,"Instruments",2,4,"right","left",0.737999916,0,0,1,0,NA,NA,NA,NA,NA,NA,NA,NA,NA,NA,NA,NA,NA,NA,NA,NA,NA,NA,NA,NA,NA,NA,NA,NA
"314","stim/objects/HouseObjects/dustpan.png",394,7,387,0.9,"stim/43.jpeg",4,3,3,2,"HouseObjects",1,2,"left","",NA,0,0,1,0,NA,NA,NA,NA,NA,NA,NA,NA,NA,NA,NA,NA,NA,NA,NA,NA,NA,NA,NA,NA,NA,NA,NA,NA
"519","stim/objects/Instruments/gong.png",395,7,388,0.9,"stim/31.jpeg",3,1,3,2,"Instruments",2,3,"right","right",0.794999838,1,1,1,0,NA,NA,NA,NA,NA,NA,NA,NA,NA,NA,NA,NA,NA,NA,NA,NA,NA,NA,NA,NA,NA,NA,NA,NA
"241","stim/objects/HouseObjects/ashtray.png",396,7,389,0.5,"stim/52.jpeg",5,2,1,2,"HouseObjects",1,3,"left","left",0.769000053,1,1,1,0,NA,NA,NA,NA,NA,NA,NA,NA,NA,NA,NA,NA,NA,NA,NA,NA,NA,NA,NA,NA,NA,NA,NA,NA
"376","stim/objects/HouseObjects/glassmop.png",397,7,390,0.5,"stim/53.jpeg",5,3,1,1,"HouseObjects",1,3,"left","right",0.837999821,0,0,1,0,104,7,1,0.5,1,"stim/53.jpeg",5,3,"stim/53.jpeg",3,"right",1.085000038,3,4,0.98300004,3,2.150000334,104,0,0,NA,1,NA,1
"390","stim/objects/HouseObjects/sponge.png",398,7,391,0.5,"stim/63.jpeg",6,3,1,1,"HouseObjects",1,1,"left","right",0.729000092,0,0,1,0,71,7,1,0.5,2,"stim/63.jpeg",6,3,"stim/63.jpeg",1,"left",2.621000051,2,3,2.252000093,1,8.537000179,71,1,1,1,1,1,1
"507","stim/objects/Instruments/gong.png",399,7,392,0.9,"stim/33.jpeg",3,3,3,2,"Instruments",2,2,"right","",NA,0,0,1,0,NA,NA,NA,NA,NA,NA,NA,NA,NA,NA,NA,NA,NA,NA,NA,NA,NA,NA,NA,NA,NA,NA,NA,NA
"337","stim/objects/HouseObjects/flyswatter.png",400,7,393,0.9,"stim/44.jpeg",4,4,3,2,"HouseObjects",1,3,"left","left",0.842000008,1,1,1,0,NA,NA,NA,NA,NA,NA,NA,NA,NA,NA,NA,NA,NA,NA,NA,NA,NA,NA,NA,NA,NA,NA,NA,NA
"328","stim/objects/HouseObjects/flyswatter.png",401,7,394,0.9,"stim/43.jpeg",4,3,3,2,"HouseObjects",1,1,"left","left",0.61500001,1,1,1,0,NA,NA,NA,NA,NA,NA,NA,NA,NA,NA,NA,NA,NA,NA,NA,NA,NA,NA,NA,NA,NA,NA,NA,NA
"538","stim/objects/Instruments/grandpiano.png",402,7,395,0.9,"stim/33.jpeg",3,3,3,2,"Instruments",2,2,"right","",NA,0,0,1,0,NA,NA,NA,NA,NA,NA,NA,NA,NA,NA,NA,NA,NA,NA,NA,NA,NA,NA,NA,NA,NA,NA,NA,NA
"557","stim/objects/Instruments/triangle.png",403,7,396,0.5,"stim/63.jpeg",6,3,1,1,"Instruments",2,4,"right","left",0.781000137,0,0,1,0,141,7,1,0.5,2,"stim/63.jpeg",6,3,"stim/63.jpeg",4,"left",1.318000317,4,4,2.019000292,1,3.55700016,141,1,0,0,0,0,1
"345","stim/objects/HouseObjects/garbagebin.png",404,7,397,0.9,"stim/43.jpeg",4,3,3,2,"HouseObjects",1,3,"left","right",0.870000124,0,0,1,0,NA,NA,NA,NA,NA,NA,NA,NA,NA,NA,NA,NA,NA,NA,NA,NA,NA,NA,NA,NA,NA,NA,NA,NA
"353","stim/objects/HouseObjects/garbagebin.png",405,7,398,0.9,"stim/42.jpeg",4,2,3,2,"HouseObjects",1,2,"left","right",0.585000038,0,0,1,0,NA,NA,NA,NA,NA,NA,NA,NA,NA,NA,NA,NA,NA,NA,NA,NA,NA,NA,NA,NA,NA,NA,NA,NA
"492","stim/objects/Instruments/frenchhorn.png",406,7,399,0.9,"stim/31.jpeg",3,1,3,2,"Instruments",2,1,"right","right",0.584000111,1,1,1,0,NA,NA,NA,NA,NA,NA,NA,NA,NA,NA,NA,NA,NA,NA,NA,NA,NA,NA,NA,NA,NA,NA,NA,NA
"425","stim/objects/Instruments/cello.png",407,7,400,0.5,"stim/64.jpeg",6,4,1,2,"Instruments",2,4,"right","right",0.655999899,1,1,1,0,NA,NA,NA,NA,NA,NA,NA,NA,NA,NA,NA,NA,NA,NA,NA,NA,NA,NA,NA,NA,NA,NA,NA,NA
"279","stim/objects/HouseObjects/coffee.png",408,7,401,0.7,"stim/21.jpeg",2,1,2,2,"HouseObjects",1,3,"left","right",0.539000034,0,0,1,0,NA,NA,NA,NA,NA,NA,NA,NA,NA,NA,NA,NA,NA,NA,NA,NA,NA,NA,NA,NA,NA,NA,NA,NA
"396","stim/objects/HouseObjects/thermometer.png",409,7,402,0.3,"stim/11.jpeg",1,1,2,1,"HouseObjects",1,1,"left","right",0.757999897,0,0,1,0,29,7,1,0.3,1,"stim/11.jpeg",1,1,"stim/11.jpeg",1,"right",1.718000174,3,1,2.151000023,1,1.81400013,29,0,1,NA,1,NA,1
"465","stim/objects/Instruments/flute.png",410,7,403,0.9,"stim/34.jpeg",3,4,3,2,"Instruments",2,2,"right","right",0.707000017,1,1,1,0,NA,NA,NA,NA,NA,NA,NA,NA,NA,NA,NA,NA,NA,NA,NA,NA,NA,NA,NA,NA,NA,NA,NA,NA
"275","stim/objects/HouseObjects/clothespin.png",411,7,404,0.7,"stim/24.jpeg",2,4,2,2,"HouseObjects",1,3,"left","left",0.503000021,1,1,1,0,NA,NA,NA,NA,NA,NA,NA,NA,NA,NA,NA,NA,NA,NA,NA,NA,NA,NA,NA,NA,NA,NA,NA,NA
"431","stim/objects/Instruments/clarinet.png",412,7,405,0.5,"stim/62.jpeg",6,2,1,2,"Instruments",2,2,"right","right",0.552000046,1,1,1,0,NA,NA,NA,NA,NA,NA,NA,NA,NA,NA,NA,NA,NA,NA,NA,NA,NA,NA,NA,NA,NA,NA,NA,NA
"453","stim/objects/Instruments/electricguitar.png",413,7,406,0.7,"stim/14.jpeg",1,4,2,2,"Instruments",2,4,"right","right",0.709000111,1,1,1,0,NA,NA,NA,NA,NA,NA,NA,NA,NA,NA,NA,NA,NA,NA,NA,NA,NA,NA,NA,NA,NA,NA,NA,NA
"401","stim/objects/HouseObjects/towel2.png",414,7,407,0.9,"stim/44.jpeg",4,4,3,1,"HouseObjects",1,3,"left","left",0.653000116,1,1,1,0,195,7,1,0.9,1,"stim/44.jpeg",4,4,"stim/44.jpeg",3,"right",1.125000238,3,2,1.418000221,1,0.65500021,195,0,0,NA,0,NA,1
"419","stim/objects/Instruments/bassdrum.png",415,7,408,0.5,"stim/54.jpeg",5,4,1,2,"Instruments",2,3,"right","right",0.654999971,1,1,1,0,NA,NA,NA,NA,NA,NA,NA,NA,NA,NA,NA,NA,NA,NA,NA,NA,NA,NA,NA,NA,NA,NA,NA,NA
"383","stim/objects/HouseObjects/handvacuum2.png",416,7,409,0.1,"stim/31.jpeg",3,1,3,1,"HouseObjects",1,2,"left","right",0.779000044,0,0,1,0,67,7,1,0.1,1,"stim/31.jpeg",3,1,"stim/31.jpeg",2,"left",1.08100009,3,3,4.154000044,2,3.572000265,67,1,0,0,1,1,1
"392","stim/objects/HouseObjects/spraybottle.png",417,7,410,0.5,"stim/64.jpeg",6,4,1,1,"HouseObjects",1,3,"left","right",0.618999958,0,0,1,0,31,7,1,0.5,2,"stim/64.jpeg",6,4,"stim/64.jpeg",3,"right",1.453000069,3,2,4.055000067,4,4.85400033,31,0,0,NA,0,NA,1
"535","stim/objects/Instruments/grandpiano.png",418,7,411,0.9,"stim/34.jpeg",3,4,3,2,"Instruments",2,1,"right","right",0.814999819,1,1,1,0,NA,NA,NA,NA,NA,NA,NA,NA,NA,NA,NA,NA,NA,NA,NA,NA,NA,NA,NA,NA,NA,NA,NA,NA
"317","stim/objects/HouseObjects/dustpan.png",419,7,412,0.9,"stim/43.jpeg",4,3,3,2,"HouseObjects",1,2,"left","left",0.632999897,1,1,1,0,NA,NA,NA,NA,NA,NA,NA,NA,NA,NA,NA,NA,NA,NA,NA,NA,NA,NA,NA,NA,NA,NA,NA,NA
"352","stim/objects/HouseObjects/garbagebin.png",420,7,413,0.9,"stim/44.jpeg",4,4,3,2,"HouseObjects",1,3,"left","right",0.759000063,0,0,1,0,NA,NA,NA,NA,NA,NA,NA,NA,NA,NA,NA,NA,NA,NA,NA,NA,NA,NA,NA,NA,NA,NA,NA,NA
"506","stim/objects/Instruments/frenchhorn2.png",421,7,414,0.9,"stim/31.jpeg",3,1,3,1,"Instruments",2,1,"right","right",0.570000172,1,1,1,0,1,7,1,0.9,2,"stim/31.jpeg",3,1,"stim/31.jpeg",1,"right",3.328000069,2,1,10.05100012,3,3.105000019,1,0,1,NA,0,NA,1
"536","stim/objects/Instruments/grandpiano.png",422,7,415,0.9,"stim/32.jpeg",3,2,3,2,"Instruments",2,1,"right","right",0.755000114,1,1,1,0,NA,NA,NA,NA,NA,NA,NA,NA,NA,NA,NA,NA,NA,NA,NA,NA,NA,NA,NA,NA,NA,NA,NA,NA
"537","stim/objects/Instruments/grandpiano.png",423,7,416,0.9,"stim/31.jpeg",3,1,3,2,"Instruments",2,3,"right","right",0.710999966,1,1,1,0,NA,NA,NA,NA,NA,NA,NA,NA,NA,NA,NA,NA,NA,NA,NA,NA,NA,NA,NA,NA,NA,NA,NA,NA
"423","stim/objects/Instruments/bassguitar2.png",424,7,417,0.3,"stim/22.jpeg",2,2,2,1,"Instruments",2,4,"right","",NA,0,0,1,0,52,7,1,0.3,2,"stim/22.jpeg",2,2,"stim/22.jpeg",4,"left",1.361999989,4,3,2.544000149,4,5.372000217,52,1,0,0,1,1,1
"324","stim/objects/HouseObjects/dustpan2.png",425,7,418,0.1,"stim/32.jpeg",3,2,3,1,"HouseObjects",1,2,"left","right",0.64199996,0,0,1,0,118,7,1,0.1,1,"stim/32.jpeg",3,2,"stim/32.jpeg",2,"left",1.783000231,2,3,1.453000307,3,3.80700016,118,1,0,0,0,0,1
"467","stim/objects/Instruments/flute.png",426,7,419,0.9,"stim/33.jpeg",3,3,3,2,"Instruments",2,1,"right","right",0.680000067,1,1,1,0,NA,NA,NA,NA,NA,NA,NA,NA,NA,NA,NA,NA,NA,NA,NA,NA,NA,NA,NA,NA,NA,NA,NA,NA
"264","stim/objects/HouseObjects/broom2.png",427,7,420,0.7,"stim/22.jpeg",2,2,2,1,"HouseObjects",1,4,"left","left",0.753999949,1,1,1,0,70,7,1,0.7,1,"stim/22.jpeg",2,2,"stim/22.jpeg",4,"left",0.919000149,4,3,2.387000084,2,6.506000042,70,1,0,0,0,0,1
"517","stim/objects/Instruments/gong.png",428,7,421,0.9,"stim/33.jpeg",3,3,3,2,"Instruments",2,2,"right","right",0.648000002,1,1,1,0,NA,NA,NA,NA,NA,NA,NA,NA,NA,NA,NA,NA,NA,NA,NA,NA,NA,NA,NA,NA,NA,NA,NA,NA
"298","stim/objects/HouseObjects/doormat.png",429,7,422,0.9,"stim/44.jpeg",4,4,3,2,"HouseObjects",1,2,"left","left",0.603999853,1,1,1,0,NA,NA,NA,NA,NA,NA,NA,NA,NA,NA,NA,NA,NA,NA,NA,NA,NA,NA,NA,NA,NA,NA,NA,NA
"435","stim/objects/Instruments/cornet2.png",430,7,423,0.3,"stim/22.jpeg",2,2,2,1,"Instruments",2,4,"right","",NA,0,0,1,0,154,7,1,0.3,2,"stim/22.jpeg",2,2,"stim/22.jpeg",4,"right",1.376000166,2,3,1.286000252,4,2.987000227,154,0,0,NA,1,NA,1
"365","stim/objects/HouseObjects/glass.png",431,7,424,0.9,"stim/41.jpeg",4,1,3,2,"HouseObjects",1,4,"left","",NA,0,0,1,0,NA,NA,NA,NA,NA,NA,NA,NA,NA,NA,NA,NA,NA,NA,NA,NA,NA,NA,NA,NA,NA,NA,NA,NA
"501","stim/objects/Instruments/frenchhorn.png",432,7,425,0.9,"stim/34.jpeg",3,4,3,2,"Instruments",2,4,"right","right",0.566999912,1,1,1,0,NA,NA,NA,NA,NA,NA,NA,NA,NA,NA,NA,NA,NA,NA,NA,NA,NA,NA,NA,NA,NA,NA,NA,NA
"544","stim/objects/Instruments/harmonica2.png",433,7,426,0.9,"stim/31.jpeg",3,1,3,1,"Instruments",2,1,"right","right",0.523000002,1,1,1,0,11,7,1,0.9,2,"stim/31.jpeg",3,1,"stim/31.jpeg",1,"left",1.102000237,4,3,6.496000051,1,1.480000257,11,1,0,0,1,1,1
"245","stim/objects/HouseObjects/ballofstring.png",434,7,427,0.5,"stim/53.jpeg",5,3,1,2,"HouseObjects",1,3,"left","right",0.521999836,0,0,1,0,NA,NA,NA,NA,NA,NA,NA,NA,NA,NA,NA,NA,NA,NA,NA,NA,NA,NA,NA,NA,NA,NA,NA,NA
"381","stim/objects/HouseObjects/handbrush2.png",435,7,428,0.1,"stim/34.jpeg",3,4,3,1,"HouseObjects",1,3,"left","right",0.478000164,0,0,1,0,56,7,1,0.1,1,"stim/34.jpeg",3,4,"stim/34.jpeg",3,"right",1.5400002,3,4,3.313000202,3,5.814000368,56,0,1,NA,1,NA,1
"347","stim/objects/HouseObjects/garbagebin.png",436,7,429,0.9,"stim/43.jpeg",4,3,3,2,"HouseObjects",1,3,"left","left",0.616999865,1,1,1,0,NA,NA,NA,NA,NA,NA,NA,NA,NA,NA,NA,NA,NA,NA,NA,NA,NA,NA,NA,NA,NA,NA,NA,NA
"495","stim/objects/Instruments/frenchhorn.png",437,7,430,0.9,"stim/32.jpeg",3,2,3,2,"Instruments",2,1,"right","right",0.656000137,1,1,1,0,NA,NA,NA,NA,NA,NA,NA,NA,NA,NA,NA,NA,NA,NA,NA,NA,NA,NA,NA,NA,NA,NA,NA,NA
"547","stim/objects/Instruments/hihat.png",438,7,431,0.5,"stim/51.jpeg",5,1,1,1,"Instruments",2,2,"right","right",0.575999975,1,1,1,0,90,7,1,0.5,1,"stim/51.jpeg",5,1,"stim/51.jpeg",2,"right",1.163000345,1,3,2.67200017,2,1.354000092,90,0,0,NA,1,NA,1
"503","stim/objects/Instruments/frenchhorn.png",439,7,432,0.9,"stim/32.jpeg",3,2,3,2,"Instruments",2,2,"right","left",0.8349998,0,0,1,0,NA,NA,NA,NA,NA,NA,NA,NA,NA,NA,NA,NA,NA,NA,NA,NA,NA,NA,NA,NA,NA,NA,NA,NA
"304","stim/objects/HouseObjects/doormat.png",440,7,433,0.9,"stim/41.jpeg",4,1,3,2,"HouseObjects",1,4,"left","left",0.554000139,1,1,1,0,NA,NA,NA,NA,NA,NA,NA,NA,NA,NA,NA,NA,NA,NA,NA,NA,NA,NA,NA,NA,NA,NA,NA,NA
"358","stim/objects/HouseObjects/garbagebin2.png",441,7,434,0.1,"stim/34.jpeg",3,4,3,1,"HouseObjects",1,4,"left","left",0.815000057,1,1,1,0,80,7,1,0.1,1,"stim/34.jpeg",3,4,"stim/34.jpeg",4,"right",1.703000307,1,4,3.738000154,2,4.17200017,80,0,1,NA,0,NA,1
"305","stim/objects/HouseObjects/doormat.png",442,7,435,0.9,"stim/43.jpeg",4,3,3,2,"HouseObjects",1,3,"left","right",0.861999989,0,0,1,0,NA,NA,NA,NA,NA,NA,NA,NA,NA,NA,NA,NA,NA,NA,NA,NA,NA,NA,NA,NA,NA,NA,NA,NA
"415","stim/objects/Instruments/banjo.png",443,7,436,0.5,"stim/53.jpeg",5,3,1,2,"Instruments",2,4,"right","",NA,0,0,1,0,NA,NA,NA,NA,NA,NA,NA,NA,NA,NA,NA,NA,NA,NA,NA,NA,NA,NA,NA,NA,NA,NA,NA,NA
"319","stim/objects/HouseObjects/dustpan.png",444,7,437,0.9,"stim/44.jpeg",4,4,3,2,"HouseObjects",1,3,"left","left",0.649000168,1,1,1,0,NA,NA,NA,NA,NA,NA,NA,NA,NA,NA,NA,NA,NA,NA,NA,NA,NA,NA,NA,NA,NA,NA,NA,NA
"320","stim/objects/HouseObjects/dustpan.png",445,7,438,0.9,"stim/42.jpeg",4,2,3,2,"HouseObjects",1,1,"left","right",0.548000097,0,0,1,0,NA,NA,NA,NA,NA,NA,NA,NA,NA,NA,NA,NA,NA,NA,NA,NA,NA,NA,NA,NA,NA,NA,NA,NA
"338","stim/objects/HouseObjects/flyswatter.png",446,7,439,0.9,"stim/41.jpeg",4,1,3,2,"HouseObjects",1,1,"left","left",0.540999889,1,1,1,0,NA,NA,NA,NA,NA,NA,NA,NA,NA,NA,NA,NA,NA,NA,NA,NA,NA,NA,NA,NA,NA,NA,NA,NA
"511","stim/objects/Instruments/gong.png",447,7,440,0.9,"stim/32.jpeg",3,2,3,2,"Instruments",2,4,"right","right",0.531000137,1,1,1,0,NA,NA,NA,NA,NA,NA,NA,NA,NA,NA,NA,NA,NA,NA,NA,NA,NA,NA,NA,NA,NA,NA,NA,NA
"548","stim/objects/Instruments/hihat2.png",448,7,441,0.9,"stim/33.jpeg",3,3,3,1,"Instruments",2,3,"right","right",0.495999813,1,1,1,0,136,7,1,0.9,2,"stim/33.jpeg",3,3,"stim/33.jpeg",3,"left",1.224000216,4,2,2.454000235,3,1.776000261,136,1,0,0,1,1,1
"459","stim/objects/Instruments/flute.png",449,7,442,0.9,"stim/33.jpeg",3,3,3,2,"Instruments",2,2,"right","right",0.38499999,1,1,1,0,NA,NA,NA,NA,NA,NA,NA,NA,NA,NA,NA,NA,NA,NA,NA,NA,NA,NA,NA,NA,NA,NA,NA,NA
"512","stim/objects/Instruments/gong.png",450,7,443,0.9,"stim/34.jpeg",3,4,3,2,"Instruments",2,3,"right","right",0.413000107,1,1,1,0,NA,NA,NA,NA,NA,NA,NA,NA,NA,NA,NA,NA,NA,NA,NA,NA,NA,NA,NA,NA,NA,NA,NA,NA
"391","stim/objects/HouseObjects/sponge2.png",451,7,444,0.9,"stim/43.jpeg",4,3,3,1,"HouseObjects",1,4,"left","left",0.592000008,1,1,1,0,119,7,1,0.9,1,"stim/43.jpeg",4,3,"stim/43.jpeg",4,"left",0.954000235,4,2,3.527000189,1,3.309000015,119,1,0,0,0,0,1
"400","stim/objects/HouseObjects/towel.png",452,7,445,0.3,"stim/13.jpeg",1,3,2,1,"HouseObjects",1,1,"left","right",0.573999882,0,0,1,0,124,7,1,0.3,1,"stim/13.jpeg",1,3,"stim/13.jpeg",1,"left",1.019000292,4,3,5.43900013,1,1.769999981,124,1,1,1,1,1,1
"460","stim/objects/Instruments/flute.png",453,7,446,0.9,"stim/32.jpeg",3,2,3,2,"Instruments",2,2,"right","right",0.496000051,1,1,1,0,NA,NA,NA,NA,NA,NA,NA,NA,NA,NA,NA,NA,NA,NA,NA,NA,NA,NA,NA,NA,NA,NA,NA,NA
"252","stim/objects/HouseObjects/basket2.png",454,7,447,0.3,"stim/11.jpeg",1,1,2,1,"HouseObjects",1,2,"left","right",0.601000071,0,0,1,0,125,7,1,0.3,1,"stim/11.jpeg",1,1,"stim/11.jpeg",2,"left",1.202000141,3,4,3.536000013,2,1.851000071,125,1,0,0,1,1,1
"248","stim/objects/HouseObjects/barbecuelighter.png",455,7,448,0.5,"stim/53.jpeg",5,3,1,2,"HouseObjects",1,1,"left","right",0.698999882,0,0,1,0,NA,NA,NA,NA,NA,NA,NA,NA,NA,NA,NA,NA,NA,NA,NA,NA,NA,NA,NA,NA,NA,NA,NA,NA
"558","stim/objects/Instruments/triangle2.png",456,7,449,0.1,"stim/42.jpeg",4,2,3,1,"Instruments",2,1,"right","left",0.844000101,0,0,1,0,57,7,1,0.1,2,"stim/42.jpeg",4,2,"stim/42.jpeg",1,"left",1.443000078,4,1,2.603000164,3,3.504000187,57,1,0,0,0,0,1
"254","stim/objects/HouseObjects/bleachbottle.png",457,7,450,0.5,"stim/52.jpeg",5,2,1,2,"HouseObjects",1,1,"left","left",0.876000166,1,1,1,0,NA,NA,NA,NA,NA,NA,NA,NA,NA,NA,NA,NA,NA,NA,NA,NA,NA,NA,NA,NA,NA,NA,NA,NA
"442","stim/objects/Instruments/doublebass.png",458,7,451,0.7,"stim/14.jpeg",1,4,2,2,"Instruments",2,4,"right","right",0.740999937,1,1,1,0,NA,NA,NA,NA,NA,NA,NA,NA,NA,NA,NA,NA,NA,NA,NA,NA,NA,NA,NA,NA,NA,NA,NA,NA
"429","stim/objects/Instruments/chime2.png",459,7,452,0.3,"stim/24.jpeg",2,4,2,1,"Instruments",2,1,"right","left",0.635999918,0,0,1,0,179,7,1,0.3,2,"stim/24.jpeg",2,4,"stim/24.jpeg",1,"left",0.88499999,4,2,1.435000181,1,2.301000118,179,1,0,0,1,1,1
"313","stim/objects/HouseObjects/dustpan.png",460,7,453,0.9,"stim/42.jpeg",4,2,3,2,"HouseObjects",1,3,"left","left",0.653000116,1,1,1,0,NA,NA,NA,NA,NA,NA,NA,NA,NA,NA,NA,NA,NA,NA,NA,NA,NA,NA,NA,NA,NA,NA,NA,NA
"321","stim/objects/HouseObjects/dustpan.png",461,7,454,0.9,"stim/41.jpeg",4,1,3,2,"HouseObjects",1,2,"left","left",0.568000078,1,1,1,0,NA,NA,NA,NA,NA,NA,NA,NA,NA,NA,NA,NA,NA,NA,NA,NA,NA,NA,NA,NA,NA,NA,NA,NA
"300","stim/objects/HouseObjects/doormat.png",462,7,455,0.9,"stim/41.jpeg",4,1,3,2,"HouseObjects",1,2,"left","left",0.475000143,1,1,1,0,NA,NA,NA,NA,NA,NA,NA,NA,NA,NA,NA,NA,NA,NA,NA,NA,NA,NA,NA,NA,NA,NA,NA,NA
"520","stim/objects/Instruments/gong.png",463,7,456,0.9,"stim/31.jpeg",3,1,3,2,"Instruments",2,4,"right","right",0.580000162,1,1,1,0,NA,NA,NA,NA,NA,NA,NA,NA,NA,NA,NA,NA,NA,NA,NA,NA,NA,NA,NA,NA,NA,NA,NA,NA
"375","stim/objects/HouseObjects/glass2.png",464,7,457,0.1,"stim/31.jpeg",3,1,3,1,"HouseObjects",1,1,"left","right",0.554000139,0,0,1,0,188,7,1,0.1,1,"stim/31.jpeg",3,1,"stim/31.jpeg",1,"left",1.338000059,3,2,2.019000292,1,1.21900034,188,1,0,0,1,1,1
"428","stim/objects/Instruments/chime.png",465,7,458,0.5,"stim/64.jpeg",6,4,1,2,"Instruments",2,1,"right","left",0.618999958,0,0,1,0,NA,NA,NA,NA,NA,NA,NA,NA,NA,NA,NA,NA,NA,NA,NA,NA,NA,NA,NA,NA,NA,NA,NA,NA
"273","stim/objects/HouseObjects/clothesdryingrack.png",466,7,459,0.7,"stim/21.jpeg",2,1,2,2,"HouseObjects",1,1,"left","right",0.646000147,0,0,1,0,NA,NA,NA,NA,NA,NA,NA,NA,NA,NA,NA,NA,NA,NA,NA,NA,NA,NA,NA,NA,NA,NA,NA,NA
"463","stim/objects/Instruments/flute.png",467,7,460,0.9,"stim/32.jpeg",3,2,3,2,"Instruments",2,4,"right","right",0.605999947,1,1,1,0,NA,NA,NA,NA,NA,NA,NA,NA,NA,NA,NA,NA,NA,NA,NA,NA,NA,NA,NA,NA,NA,NA,NA,NA
"355","stim/objects/HouseObjects/garbagebin.png",468,7,461,0.9,"stim/42.jpeg",4,2,3,2,"HouseObjects",1,4,"left","left",0.67200017,1,1,1,0,NA,NA,NA,NA,NA,NA,NA,NA,NA,NA,NA,NA,NA,NA,NA,NA,NA,NA,NA,NA,NA,NA,NA,NA
"434","stim/objects/Instruments/cornet.png",469,7,462,0.5,"stim/62.jpeg",6,2,1,2,"Instruments",2,2,"right","right",0.565999985,1,1,1,0,NA,NA,NA,NA,NA,NA,NA,NA,NA,NA,NA,NA,NA,NA,NA,NA,NA,NA,NA,NA,NA,NA,NA,NA
"277","stim/objects/HouseObjects/clothespin.png",470,7,463,0.7,"stim/23.jpeg",2,3,2,2,"HouseObjects",1,2,"left","left",0.551999807,1,1,1,0,NA,NA,NA,NA,NA,NA,NA,NA,NA,NA,NA,NA,NA,NA,NA,NA,NA,NA,NA,NA,NA,NA,NA,NA
"477","stim/objects/Instruments/flutetrans.png",471,7,464,0.9,"stim/32.jpeg",3,2,3,2,"Instruments",2,4,"right","left",0.670000076,0,0,1,0,NA,NA,NA,NA,NA,NA,NA,NA,NA,NA,NA,NA,NA,NA,NA,NA,NA,NA,NA,NA,NA,NA,NA,NA
