"","obj_file","X.x","participant.x","trialN.x","trial_cond","scn_file.x","scn_cat","scn_inst","scn_condition","fillers","obj_cat","obj_cat_num","quadrant","corr_ans","key_resp_trial.keys","key_resp_trial.rt","trial_acc","trial_acc_manual","group.x","practice","X.y","participant.y","OvsN","PE_level","object_cat","scn_file.y","corr_scn_cat","corr_scn_inst","scn_file.1","corr_loc","key_resp_id.keys","key_resp_id.rt","key_resp_conf.keys","key_resp_assoc.keys","key_resp_assoc.rt","key_resp_loc.keys","key_resp_loc.rt","trialN.y","id_acc","assoc.acc","cond_assoc","loc.acc","cond_loc","group.y"
"172","stim/objects/Instruments/musicsheet2.png",1,2,1,0.9,"stim/32.jpeg",3,2,3,NA,"Instruments",2,4,"right","right",0.792999983,1,1,1,1,NA,NA,NA,NA,NA,NA,NA,NA,NA,NA,NA,NA,NA,NA,NA,NA,NA,NA,NA,NA,NA,NA,NA,NA
"100","stim/objects/HouseObjects/rubbergloves2.png",2,2,2,0.9,"stim/43.jpeg",4,3,3,NA,"HouseObjects",1,2,"left","left",0.779999971,1,1,1,1,NA,NA,NA,NA,NA,NA,NA,NA,NA,NA,NA,NA,NA,NA,NA,NA,NA,NA,NA,NA,NA,NA,NA,NA
"181","stim/objects/Instruments/musicstand.png",3,2,3,0.5,"stim/63.jpeg",6,3,1,NA,"Instruments",2,3,"right","left",0.75,0,0,1,1,NA,NA,NA,NA,NA,NA,NA,NA,NA,NA,NA,NA,NA,NA,NA,NA,NA,NA,NA,NA,NA,NA,NA,NA
"30","stim/objects/HouseObjects/key2.png",4,2,4,0.7,"stim/23.jpeg",2,3,2,NA,"HouseObjects",1,3,"left","left",0.795000076,1,1,1,1,NA,NA,NA,NA,NA,NA,NA,NA,NA,NA,NA,NA,NA,NA,NA,NA,NA,NA,NA,NA,NA,NA,NA,NA
"76","stim/objects/HouseObjects/recyclingbin2.png",5,2,5,0.9,"stim/41.jpeg",4,1,3,NA,"HouseObjects",1,3,"left","left",0.531000137,1,1,1,1,NA,NA,NA,NA,NA,NA,NA,NA,NA,NA,NA,NA,NA,NA,NA,NA,NA,NA,NA,NA,NA,NA,NA,NA
"88","stim/objects/HouseObjects/remote2.png",6,2,6,0.9,"stim/42.jpeg",4,2,3,NA,"HouseObjects",1,2,"left","left",0.492000103,1,1,1,1,NA,NA,NA,NA,NA,NA,NA,NA,NA,NA,NA,NA,NA,NA,NA,NA,NA,NA,NA,NA,NA,NA,NA,NA
"158","stim/objects/Instruments/metronome2.png",7,2,7,0.9,"stim/31.jpeg",3,1,3,NA,"Instruments",2,3,"right","right",0.49000001,1,1,1,1,NA,NA,NA,NA,NA,NA,NA,NA,NA,NA,NA,NA,NA,NA,NA,NA,NA,NA,NA,NA,NA,NA,NA,NA
"67","stim/objects/HouseObjects/pitcher.png",8,2,8,0.5,"stim/64.jpeg",6,4,1,NA,"HouseObjects",1,1,"left","",NA,0,0,1,1,NA,NA,NA,NA,NA,NA,NA,NA,NA,NA,NA,NA,NA,NA,NA,NA,NA,NA,NA,NA,NA,NA,NA,NA
"42","stim/objects/HouseObjects/knife2.png",9,2,9,0.7,"stim/24.jpeg",2,4,2,NA,"HouseObjects",1,3,"left","left",0.489000082,1,1,1,1,NA,NA,NA,NA,NA,NA,NA,NA,NA,NA,NA,NA,NA,NA,NA,NA,NA,NA,NA,NA,NA,NA,NA,NA
"209","stim/objects/Instruments/panflute.png",10,2,10,0.7,"stim/11.jpeg",1,1,2,NA,"Instruments",2,2,"right","right",0.731999874,1,1,1,1,NA,NA,NA,NA,NA,NA,NA,NA,NA,NA,NA,NA,NA,NA,NA,NA,NA,NA,NA,NA,NA,NA,NA,NA
"233","stim/objects/Instruments/record.png",11,2,11,0.7,"stim/13.jpeg",1,3,2,NA,"Instruments",2,1,"right","right",0.618999958,1,1,1,1,NA,NA,NA,NA,NA,NA,NA,NA,NA,NA,NA,NA,NA,NA,NA,NA,NA,NA,NA,NA,NA,NA,NA,NA
"225","stim/objects/Instruments/record_player.png",12,2,12,0.7,"stim/14.jpeg",1,4,2,NA,"Instruments",2,3,"right","right",0.578999996,1,1,1,1,NA,NA,NA,NA,NA,NA,NA,NA,NA,NA,NA,NA,NA,NA,NA,NA,NA,NA,NA,NA,NA,NA,NA,NA
"121","stim/objects/Instruments/keyboard.png",13,2,13,0.5,"stim/51.jpeg",5,1,1,NA,"Instruments",2,4,"right","left",0.561999798,0,0,1,1,NA,NA,NA,NA,NA,NA,NA,NA,NA,NA,NA,NA,NA,NA,NA,NA,NA,NA,NA,NA,NA,NA,NA,NA
"186","stim/objects/Instruments/musicstand2.png",14,2,14,0.9,"stim/33.jpeg",3,3,3,NA,"Instruments",2,2,"right","right",0.529000044,1,1,1,1,NA,NA,NA,NA,NA,NA,NA,NA,NA,NA,NA,NA,NA,NA,NA,NA,NA,NA,NA,NA,NA,NA,NA,NA
"200","stim/objects/Instruments/oboe2.png",15,2,15,0.9,"stim/34.jpeg",3,4,3,NA,"Instruments",2,4,"right","right",0.47300005,1,1,1,1,NA,NA,NA,NA,NA,NA,NA,NA,NA,NA,NA,NA,NA,NA,NA,NA,NA,NA,NA,NA,NA,NA,NA,NA
"55","stim/objects/HouseObjects/match.png",16,2,16,0.5,"stim/62.jpeg",6,2,1,NA,"HouseObjects",1,4,"left","left",0.744999886,1,1,1,1,NA,NA,NA,NA,NA,NA,NA,NA,NA,NA,NA,NA,NA,NA,NA,NA,NA,NA,NA,NA,NA,NA,NA,NA
"167","stim/objects/Instruments/musicsheet.png",17,2,17,0.5,"stim/62.jpeg",6,2,1,NA,"Instruments",2,1,"right","left",0.537999868,0,0,1,1,NA,NA,NA,NA,NA,NA,NA,NA,NA,NA,NA,NA,NA,NA,NA,NA,NA,NA,NA,NA,NA,NA,NA,NA
"101","stim/objects/HouseObjects/rubbergloves2.png",18,2,18,0.9,"stim/43.jpeg",4,3,3,NA,"HouseObjects",1,4,"left","left",0.481000185,1,1,1,1,NA,NA,NA,NA,NA,NA,NA,NA,NA,NA,NA,NA,NA,NA,NA,NA,NA,NA,NA,NA,NA,NA,NA,NA
"201","stim/objects/Instruments/oboe2.png",19,2,19,0.9,"stim/34.jpeg",3,4,3,NA,"Instruments",2,1,"right","right",0.513999939,1,1,1,1,NA,NA,NA,NA,NA,NA,NA,NA,NA,NA,NA,NA,NA,NA,NA,NA,NA,NA,NA,NA,NA,NA,NA,NA
"187","stim/objects/Instruments/musicstand2.png",20,2,20,0.9,"stim/33.jpeg",3,3,3,NA,"Instruments",2,1,"right","right",0.44900012,1,1,1,1,NA,NA,NA,NA,NA,NA,NA,NA,NA,NA,NA,NA,NA,NA,NA,NA,NA,NA,NA,NA,NA,NA,NA,NA
"72","stim/objects/HouseObjects/pitcher2.png",21,2,21,0.1,"stim/34.jpeg",3,4,3,NA,"HouseObjects",1,3,"left","right",0.481999874,0,0,1,1,NA,NA,NA,NA,NA,NA,NA,NA,NA,NA,NA,NA,NA,NA,NA,NA,NA,NA,NA,NA,NA,NA,NA,NA
"109","stim/objects/HouseObjects/rug.png",22,2,22,0.3,"stim/14.jpeg",1,4,2,NA,"HouseObjects",1,2,"left","right",0.648000002,0,0,1,1,NA,NA,NA,NA,NA,NA,NA,NA,NA,NA,NA,NA,NA,NA,NA,NA,NA,NA,NA,NA,NA,NA,NA,NA
"234","stim/objects/Instruments/record.png",23,2,23,0.7,"stim/13.jpeg",1,3,2,NA,"Instruments",2,1,"right","right",0.89199996,1,1,1,1,NA,NA,NA,NA,NA,NA,NA,NA,NA,NA,NA,NA,NA,NA,NA,NA,NA,NA,NA,NA,NA,NA,NA,NA
"159","stim/objects/Instruments/metronome2.png",24,2,24,0.9,"stim/31.jpeg",3,1,3,NA,"Instruments",2,4,"right","right",0.563999891,1,1,1,1,NA,NA,NA,NA,NA,NA,NA,NA,NA,NA,NA,NA,NA,NA,NA,NA,NA,NA,NA,NA,NA,NA,NA,NA
"142","stim/objects/Instruments/maraca2.png",25,2,25,0.3,"stim/23.jpeg",2,3,2,NA,"Instruments",2,1,"right","left",0.460999966,0,0,1,1,NA,NA,NA,NA,NA,NA,NA,NA,NA,NA,NA,NA,NA,NA,NA,NA,NA,NA,NA,NA,NA,NA,NA,NA
"160","stim/objects/Instruments/metronome2.png",26,2,26,0.9,"stim/31.jpeg",3,1,3,NA,"Instruments",2,1,"right","right",0.496000051,1,1,1,1,NA,NA,NA,NA,NA,NA,NA,NA,NA,NA,NA,NA,NA,NA,NA,NA,NA,NA,NA,NA,NA,NA,NA,NA
"129","stim/objects/Instruments/laud.png",27,2,27,0.5,"stim/52.jpeg",5,2,1,NA,"Instruments",2,4,"right","left",0.529999971,0,0,1,1,NA,NA,NA,NA,NA,NA,NA,NA,NA,NA,NA,NA,NA,NA,NA,NA,NA,NA,NA,NA,NA,NA,NA,NA
"145","stim/objects/Instruments/marimba.png",28,2,28,0.5,"stim/54.jpeg",5,4,1,NA,"Instruments",2,2,"right","",NA,0,0,1,1,NA,NA,NA,NA,NA,NA,NA,NA,NA,NA,NA,NA,NA,NA,NA,NA,NA,NA,NA,NA,NA,NA,NA,NA
"217","stim/objects/Instruments/pipepiano.png",29,2,29,0.7,"stim/12.jpeg",1,2,2,NA,"Instruments",2,3,"right","right",0.640000105,1,1,1,1,NA,NA,NA,NA,NA,NA,NA,NA,NA,NA,NA,NA,NA,NA,NA,NA,NA,NA,NA,NA,NA,NA,NA,NA
"77","stim/objects/HouseObjects/recyclingbin2.png",30,2,30,0.9,"stim/41.jpeg",4,1,3,NA,"HouseObjects",1,1,"left","left",0.503999949,1,1,1,1,NA,NA,NA,NA,NA,NA,NA,NA,NA,NA,NA,NA,NA,NA,NA,NA,NA,NA,NA,NA,NA,NA,NA,NA
"210","stim/objects/Instruments/panflute.png",31,2,31,0.7,"stim/11.jpeg",1,1,2,NA,"Instruments",2,1,"right","right",0.63499999,1,1,1,1,NA,NA,NA,NA,NA,NA,NA,NA,NA,NA,NA,NA,NA,NA,NA,NA,NA,NA,NA,NA,NA,NA,NA,NA
"18","stim/objects/HouseObjects/ironingboard2.png",32,2,32,0.7,"stim/22.jpeg",2,2,2,NA,"HouseObjects",1,4,"left","left",0.636000156,1,1,1,1,NA,NA,NA,NA,NA,NA,NA,NA,NA,NA,NA,NA,NA,NA,NA,NA,NA,NA,NA,NA,NA,NA,NA,NA
"112","stim/objects/HouseObjects/rug2.png",33,2,33,0.9,"stim/44.jpeg",4,4,3,NA,"HouseObjects",1,1,"left","left",0.477999926,1,1,1,1,NA,NA,NA,NA,NA,NA,NA,NA,NA,NA,NA,NA,NA,NA,NA,NA,NA,NA,NA,NA,NA,NA,NA,NA
"173","stim/objects/Instruments/musicsheet2.png",34,2,34,0.9,"stim/32.jpeg",3,2,3,NA,"Instruments",2,4,"right","right",0.579999924,1,1,1,1,NA,NA,NA,NA,NA,NA,NA,NA,NA,NA,NA,NA,NA,NA,NA,NA,NA,NA,NA,NA,NA,NA,NA,NA
"240","stim/objects/Instruments/record2.png",35,2,35,0.1,"stim/43.jpeg",4,3,3,NA,"Instruments",2,3,"right","left",0.489000082,0,0,1,1,NA,NA,NA,NA,NA,NA,NA,NA,NA,NA,NA,NA,NA,NA,NA,NA,NA,NA,NA,NA,NA,NA,NA,NA
"49","stim/objects/HouseObjects/lintroller.png",36,2,36,0.5,"stim/61.jpeg",6,1,1,NA,"HouseObjects",1,1,"left","",NA,0,0,1,1,NA,NA,NA,NA,NA,NA,NA,NA,NA,NA,NA,NA,NA,NA,NA,NA,NA,NA,NA,NA,NA,NA,NA,NA
"61","stim/objects/HouseObjects/pan.png",37,2,37,0.5,"stim/63.jpeg",6,3,1,NA,"HouseObjects",1,1,"left","right",0.579999924,0,0,1,1,NA,NA,NA,NA,NA,NA,NA,NA,NA,NA,NA,NA,NA,NA,NA,NA,NA,NA,NA,NA,NA,NA,NA,NA
"113","stim/objects/HouseObjects/rug2.png",38,2,38,0.9,"stim/44.jpeg",4,4,3,NA,"HouseObjects",1,4,"left","left",0.47300005,1,1,1,1,NA,NA,NA,NA,NA,NA,NA,NA,NA,NA,NA,NA,NA,NA,NA,NA,NA,NA,NA,NA,NA,NA,NA,NA
"37","stim/objects/HouseObjects/knife.png",39,2,39,0.5,"stim/54.jpeg",5,4,1,NA,"HouseObjects",1,3,"left","left",0.572000027,1,1,1,1,NA,NA,NA,NA,NA,NA,NA,NA,NA,NA,NA,NA,NA,NA,NA,NA,NA,NA,NA,NA,NA,NA,NA,NA
"25","stim/objects/HouseObjects/key.png",40,2,40,0.5,"stim/53.jpeg",5,3,1,NA,"HouseObjects",1,1,"left","left",0.480999947,1,1,1,1,NA,NA,NA,NA,NA,NA,NA,NA,NA,NA,NA,NA,NA,NA,NA,NA,NA,NA,NA,NA,NA,NA,NA,NA
"218","stim/objects/Instruments/pipepiano.png",41,2,41,0.7,"stim/12.jpeg",1,2,2,NA,"Instruments",2,1,"right","right",0.534000158,1,1,1,1,NA,NA,NA,NA,NA,NA,NA,NA,NA,NA,NA,NA,NA,NA,NA,NA,NA,NA,NA,NA,NA,NA,NA,NA
"31","stim/objects/HouseObjects/key2.png",42,2,42,0.7,"stim/23.jpeg",2,3,2,NA,"HouseObjects",1,2,"left","left",0.513999939,1,1,1,1,NA,NA,NA,NA,NA,NA,NA,NA,NA,NA,NA,NA,NA,NA,NA,NA,NA,NA,NA,NA,NA,NA,NA,NA
"202","stim/objects/Instruments/oboe2.png",43,2,43,0.9,"stim/34.jpeg",3,4,3,NA,"Instruments",2,2,"right","right",0.627000093,1,1,1,1,NA,NA,NA,NA,NA,NA,NA,NA,NA,NA,NA,NA,NA,NA,NA,NA,NA,NA,NA,NA,NA,NA,NA,NA
"126","stim/objects/Instruments/keyboard2.png",44,2,44,0.3,"stim/21.jpeg",2,1,2,NA,"Instruments",2,4,"right","left",0.434000015,0,0,1,1,NA,NA,NA,NA,NA,NA,NA,NA,NA,NA,NA,NA,NA,NA,NA,NA,NA,NA,NA,NA,NA,NA,NA,NA
"188","stim/objects/Instruments/musicstand2.png",45,2,45,0.9,"stim/33.jpeg",3,3,3,NA,"Instruments",2,1,"right","right",0.467000008,1,1,1,1,NA,NA,NA,NA,NA,NA,NA,NA,NA,NA,NA,NA,NA,NA,NA,NA,NA,NA,NA,NA,NA,NA,NA,NA
"110","stim/objects/HouseObjects/rug.png",46,2,46,0.3,"stim/14.jpeg",1,4,2,NA,"HouseObjects",1,3,"left","right",0.640000105,0,0,1,1,NA,NA,NA,NA,NA,NA,NA,NA,NA,NA,NA,NA,NA,NA,NA,NA,NA,NA,NA,NA,NA,NA,NA,NA
"203","stim/objects/Instruments/oboe2.png",47,2,47,0.9,"stim/34.jpeg",3,4,3,NA,"Instruments",2,1,"right","right",0.525000095,1,1,1,1,NA,NA,NA,NA,NA,NA,NA,NA,NA,NA,NA,NA,NA,NA,NA,NA,NA,NA,NA,NA,NA,NA,NA,NA
"89","stim/objects/HouseObjects/remote2.png",48,2,48,0.9,"stim/42.jpeg",4,2,3,NA,"HouseObjects",1,1,"left","left",0.453000069,1,1,1,1,NA,NA,NA,NA,NA,NA,NA,NA,NA,NA,NA,NA,NA,NA,NA,NA,NA,NA,NA,NA,NA,NA,NA,NA
"56","stim/objects/HouseObjects/match.png",49,2,49,0.5,"stim/62.jpeg",6,2,1,NA,"HouseObjects",1,1,"left","left",0.576999903,1,1,1,1,NA,NA,NA,NA,NA,NA,NA,NA,NA,NA,NA,NA,NA,NA,NA,NA,NA,NA,NA,NA,NA,NA,NA,NA
"102","stim/objects/HouseObjects/rubbergloves2.png",50,2,50,0.9,"stim/43.jpeg",4,3,3,NA,"HouseObjects",1,2,"left","left",0.510999918,1,1,1,1,NA,NA,NA,NA,NA,NA,NA,NA,NA,NA,NA,NA,NA,NA,NA,NA,NA,NA,NA,NA,NA,NA,NA,NA
"13","stim/objects/HouseObjects/ironingboard.png",51,2,51,0.5,"stim/52.jpeg",5,2,1,NA,"HouseObjects",1,2,"left","right",0.763999939,0,0,1,1,NA,NA,NA,NA,NA,NA,NA,NA,NA,NA,NA,NA,NA,NA,NA,NA,NA,NA,NA,NA,NA,NA,NA,NA
"78","stim/objects/HouseObjects/recyclingbin2.png",52,2,52,0.9,"stim/41.jpeg",4,1,3,NA,"HouseObjects",1,1,"left","left",0.518000126,1,1,1,1,NA,NA,NA,NA,NA,NA,NA,NA,NA,NA,NA,NA,NA,NA,NA,NA,NA,NA,NA,NA,NA,NA,NA,NA
"182","stim/objects/Instruments/musicstand.png",53,2,53,0.5,"stim/63.jpeg",6,3,1,NA,"Instruments",2,1,"right","left",0.741999865,0,0,1,1,NA,NA,NA,NA,NA,NA,NA,NA,NA,NA,NA,NA,NA,NA,NA,NA,NA,NA,NA,NA,NA,NA,NA,NA
"19","stim/objects/HouseObjects/ironingboard2.png",54,2,54,0.7,"stim/22.jpeg",2,2,2,NA,"HouseObjects",1,3,"left","left",0.423999786,1,1,1,1,NA,NA,NA,NA,NA,NA,NA,NA,NA,NA,NA,NA,NA,NA,NA,NA,NA,NA,NA,NA,NA,NA,NA,NA
"161","stim/objects/Instruments/metronome2.png",55,2,55,0.9,"stim/31.jpeg",3,1,3,NA,"Instruments",2,3,"right","right",0.552999973,1,1,1,1,NA,NA,NA,NA,NA,NA,NA,NA,NA,NA,NA,NA,NA,NA,NA,NA,NA,NA,NA,NA,NA,NA,NA,NA
"137","stim/objects/Instruments/maraca.png",56,2,56,0.5,"stim/53.jpeg",5,3,1,NA,"Instruments",2,4,"right","left",0.481999874,0,0,1,1,NA,NA,NA,NA,NA,NA,NA,NA,NA,NA,NA,NA,NA,NA,NA,NA,NA,NA,NA,NA,NA,NA,NA,NA
"134","stim/objects/Instruments/laud2.png",57,2,57,0.3,"stim/22.jpeg",2,2,2,NA,"Instruments",2,3,"right","left",0.468000174,0,0,1,1,NA,NA,NA,NA,NA,NA,NA,NA,NA,NA,NA,NA,NA,NA,NA,NA,NA,NA,NA,NA,NA,NA,NA,NA
"26","stim/objects/HouseObjects/key.png",58,2,58,0.5,"stim/53.jpeg",5,3,1,NA,"HouseObjects",1,4,"left","right",0.592999935,0,0,1,1,NA,NA,NA,NA,NA,NA,NA,NA,NA,NA,NA,NA,NA,NA,NA,NA,NA,NA,NA,NA,NA,NA,NA,NA
"226","stim/objects/Instruments/record_player.png",59,2,59,0.7,"stim/14.jpeg",1,4,2,NA,"Instruments",2,1,"right","right",0.588000059,1,1,1,1,NA,NA,NA,NA,NA,NA,NA,NA,NA,NA,NA,NA,NA,NA,NA,NA,NA,NA,NA,NA,NA,NA,NA,NA
"6","stim/objects/HouseObjects/iron2.png",60,2,60,0.7,"stim/21.jpeg",2,1,2,NA,"HouseObjects",1,1,"left","left",0.447000027,1,1,1,1,NA,NA,NA,NA,NA,NA,NA,NA,NA,NA,NA,NA,NA,NA,NA,NA,NA,NA,NA,NA,NA,NA,NA,NA
"127","stim/objects/Instruments/keyboard2.png",61,2,61,0.3,"stim/21.jpeg",2,1,2,NA,"Instruments",2,2,"right","left",0.536000013,0,0,1,1,NA,NA,NA,NA,NA,NA,NA,NA,NA,NA,NA,NA,NA,NA,NA,NA,NA,NA,NA,NA,NA,NA,NA,NA
"162","stim/objects/Instruments/metronome2.png",62,2,62,0.9,"stim/31.jpeg",3,1,3,NA,"Instruments",2,2,"right","right",0.499000072,1,1,1,1,NA,NA,NA,NA,NA,NA,NA,NA,NA,NA,NA,NA,NA,NA,NA,NA,NA,NA,NA,NA,NA,NA,NA,NA
"20","stim/objects/HouseObjects/ironingboard2.png",63,2,63,0.7,"stim/22.jpeg",2,2,2,NA,"HouseObjects",1,3,"left","left",0.44900012,1,1,1,1,NA,NA,NA,NA,NA,NA,NA,NA,NA,NA,NA,NA,NA,NA,NA,NA,NA,NA,NA,NA,NA,NA,NA,NA
"114","stim/objects/HouseObjects/rug2.png",64,2,64,0.9,"stim/44.jpeg",4,4,3,NA,"HouseObjects",1,4,"left","left",0.498000145,1,1,1,1,NA,NA,NA,NA,NA,NA,NA,NA,NA,NA,NA,NA,NA,NA,NA,NA,NA,NA,NA,NA,NA,NA,NA,NA
"21","stim/objects/HouseObjects/ironingboard2.png",65,2,65,0.7,"stim/22.jpeg",2,2,2,NA,"HouseObjects",1,3,"left","left",0.492000103,1,1,1,1,NA,NA,NA,NA,NA,NA,NA,NA,NA,NA,NA,NA,NA,NA,NA,NA,NA,NA,NA,NA,NA,NA,NA,NA
"79","stim/objects/HouseObjects/recyclingbin2.png",66,2,66,0.9,"stim/41.jpeg",4,1,3,NA,"HouseObjects",1,3,"left","left",0.555999994,1,1,1,1,NA,NA,NA,NA,NA,NA,NA,NA,NA,NA,NA,NA,NA,NA,NA,NA,NA,NA,NA,NA,NA,NA,NA,NA
"219","stim/objects/Instruments/pipepiano.png",67,2,67,0.7,"stim/12.jpeg",1,2,2,NA,"Instruments",2,3,"right","right",0.592999935,1,1,1,1,NA,NA,NA,NA,NA,NA,NA,NA,NA,NA,NA,NA,NA,NA,NA,NA,NA,NA,NA,NA,NA,NA,NA,NA
"43","stim/objects/HouseObjects/knife2.png",68,2,68,0.7,"stim/24.jpeg",2,4,2,NA,"HouseObjects",1,2,"left","left",0.441999912,1,1,1,1,NA,NA,NA,NA,NA,NA,NA,NA,NA,NA,NA,NA,NA,NA,NA,NA,NA,NA,NA,NA,NA,NA,NA,NA
"27","stim/objects/HouseObjects/key.png",69,2,69,0.5,"stim/53.jpeg",5,3,1,NA,"HouseObjects",1,3,"left","right",0.585000038,0,0,1,1,NA,NA,NA,NA,NA,NA,NA,NA,NA,NA,NA,NA,NA,NA,NA,NA,NA,NA,NA,NA,NA,NA,NA,NA
"44","stim/objects/HouseObjects/knife2.png",70,2,70,0.7,"stim/24.jpeg",2,4,2,NA,"HouseObjects",1,4,"left","left",0.463999987,1,1,1,1,NA,NA,NA,NA,NA,NA,NA,NA,NA,NA,NA,NA,NA,NA,NA,NA,NA,NA,NA,NA,NA,NA,NA,NA
"204","stim/objects/Instruments/oboe2.png",71,2,71,0.9,"stim/34.jpeg",3,4,3,NA,"Instruments",2,2,"right","right",0.546999931,1,1,1,1,NA,NA,NA,NA,NA,NA,NA,NA,NA,NA,NA,NA,NA,NA,NA,NA,NA,NA,NA,NA,NA,NA,NA,NA
"163","stim/objects/Instruments/metronome2.png",72,2,72,0.9,"stim/31.jpeg",3,1,3,NA,"Instruments",2,3,"right","right",0.57400012,1,1,1,1,NA,NA,NA,NA,NA,NA,NA,NA,NA,NA,NA,NA,NA,NA,NA,NA,NA,NA,NA,NA,NA,NA,NA,NA
"168","stim/objects/Instruments/musicsheet.png",73,2,73,0.5,"stim/62.jpeg",6,2,1,NA,"Instruments",2,4,"right","left",0.50999999,0,0,1,1,NA,NA,NA,NA,NA,NA,NA,NA,NA,NA,NA,NA,NA,NA,NA,NA,NA,NA,NA,NA,NA,NA,NA,NA
"68","stim/objects/HouseObjects/pitcher.png",74,2,74,0.5,"stim/64.jpeg",6,4,1,NA,"HouseObjects",1,3,"left","left",0.670000076,1,1,1,1,NA,NA,NA,NA,NA,NA,NA,NA,NA,NA,NA,NA,NA,NA,NA,NA,NA,NA,NA,NA,NA,NA,NA,NA
"90","stim/objects/HouseObjects/remote2.png",75,2,75,0.9,"stim/42.jpeg",4,2,3,NA,"HouseObjects",1,3,"left","left",0.528000116,1,1,1,1,NA,NA,NA,NA,NA,NA,NA,NA,NA,NA,NA,NA,NA,NA,NA,NA,NA,NA,NA,NA,NA,NA,NA,NA
"97","stim/objects/HouseObjects/rubbergloves.png",76,2,76,0.3,"stim/13.jpeg",1,3,2,NA,"HouseObjects",1,4,"left","right",0.542999983,0,0,1,1,NA,NA,NA,NA,NA,NA,NA,NA,NA,NA,NA,NA,NA,NA,NA,NA,NA,NA,NA,NA,NA,NA,NA,NA
"235","stim/objects/Instruments/record.png",77,2,77,0.7,"stim/13.jpeg",1,3,2,NA,"Instruments",2,4,"right","left",0.503999949,0,0,1,1,NA,NA,NA,NA,NA,NA,NA,NA,NA,NA,NA,NA,NA,NA,NA,NA,NA,NA,NA,NA,NA,NA,NA,NA
"205","stim/objects/Instruments/oboe2.png",78,2,78,0.9,"stim/34.jpeg",3,4,3,NA,"Instruments",2,2,"right","right",0.507999897,1,1,1,1,NA,NA,NA,NA,NA,NA,NA,NA,NA,NA,NA,NA,NA,NA,NA,NA,NA,NA,NA,NA,NA,NA,NA,NA
"183","stim/objects/Instruments/musicstand.png",79,2,79,0.5,"stim/63.jpeg",6,3,1,NA,"Instruments",2,2,"right","left",0.663000107,0,0,1,1,NA,NA,NA,NA,NA,NA,NA,NA,NA,NA,NA,NA,NA,NA,NA,NA,NA,NA,NA,NA,NA,NA,NA,NA
"220","stim/objects/Instruments/pipepiano.png",80,2,80,0.7,"stim/12.jpeg",1,2,2,NA,"Instruments",2,2,"right","right",0.549000025,1,1,1,1,NA,NA,NA,NA,NA,NA,NA,NA,NA,NA,NA,NA,NA,NA,NA,NA,NA,NA,NA,NA,NA,NA,NA,NA
"135","stim/objects/Instruments/laud2.png",81,2,81,0.3,"stim/22.jpeg",2,2,2,NA,"Instruments",2,4,"right","left",0.532999992,0,0,1,1,NA,NA,NA,NA,NA,NA,NA,NA,NA,NA,NA,NA,NA,NA,NA,NA,NA,NA,NA,NA,NA,NA,NA,NA
"7","stim/objects/HouseObjects/iron2.png",82,2,82,0.7,"stim/21.jpeg",2,1,2,NA,"HouseObjects",1,3,"left","left",0.535000086,1,1,1,1,NA,NA,NA,NA,NA,NA,NA,NA,NA,NA,NA,NA,NA,NA,NA,NA,NA,NA,NA,NA,NA,NA,NA,NA
"32","stim/objects/HouseObjects/key2.png",83,2,83,0.7,"stim/23.jpeg",2,3,2,NA,"HouseObjects",1,3,"left","left",0.593999863,1,1,1,1,NA,NA,NA,NA,NA,NA,NA,NA,NA,NA,NA,NA,NA,NA,NA,NA,NA,NA,NA,NA,NA,NA,NA,NA
"80","stim/objects/HouseObjects/recyclingbin2.png",84,2,84,0.9,"stim/41.jpeg",4,1,3,NA,"HouseObjects",1,3,"left","left",0.623000145,1,1,1,1,NA,NA,NA,NA,NA,NA,NA,NA,NA,NA,NA,NA,NA,NA,NA,NA,NA,NA,NA,NA,NA,NA,NA,NA
"115","stim/objects/HouseObjects/rug2.png",85,2,85,0.9,"stim/44.jpeg",4,4,3,NA,"HouseObjects",1,4,"left","left",0.437000036,1,1,1,1,NA,NA,NA,NA,NA,NA,NA,NA,NA,NA,NA,NA,NA,NA,NA,NA,NA,NA,NA,NA,NA,NA,NA,NA
"150","stim/objects/Instruments/marimba2.png",86,2,86,0.3,"stim/24.jpeg",2,4,2,NA,"Instruments",2,2,"right","left",0.514999866,0,0,1,1,NA,NA,NA,NA,NA,NA,NA,NA,NA,NA,NA,NA,NA,NA,NA,NA,NA,NA,NA,NA,NA,NA,NA,NA
"211","stim/objects/Instruments/panflute.png",87,2,87,0.7,"stim/11.jpeg",1,1,2,NA,"Instruments",2,1,"right","right",0.541000128,1,1,1,1,NA,NA,NA,NA,NA,NA,NA,NA,NA,NA,NA,NA,NA,NA,NA,NA,NA,NA,NA,NA,NA,NA,NA,NA
"116","stim/objects/HouseObjects/rug2.png",88,2,88,0.9,"stim/44.jpeg",4,4,3,NA,"HouseObjects",1,2,"left","left",0.628999949,1,1,1,1,NA,NA,NA,NA,NA,NA,NA,NA,NA,NA,NA,NA,NA,NA,NA,NA,NA,NA,NA,NA,NA,NA,NA,NA
"81","stim/objects/HouseObjects/recyclingbin2.png",89,2,89,0.9,"stim/41.jpeg",4,1,3,NA,"HouseObjects",1,1,"left","left",0.467000008,1,1,1,1,NA,NA,NA,NA,NA,NA,NA,NA,NA,NA,NA,NA,NA,NA,NA,NA,NA,NA,NA,NA,NA,NA,NA,NA
"227","stim/objects/Instruments/record_player.png",90,2,90,0.7,"stim/14.jpeg",1,4,2,NA,"Instruments",2,4,"right","right",0.592000008,1,1,1,1,NA,NA,NA,NA,NA,NA,NA,NA,NA,NA,NA,NA,NA,NA,NA,NA,NA,NA,NA,NA,NA,NA,NA,NA
"57","stim/objects/HouseObjects/match.png",91,2,91,0.5,"stim/62.jpeg",6,2,1,NA,"HouseObjects",1,3,"left","left",0.552000046,1,1,1,1,NA,NA,NA,NA,NA,NA,NA,NA,NA,NA,NA,NA,NA,NA,NA,NA,NA,NA,NA,NA,NA,NA,NA,NA
"22","stim/objects/HouseObjects/ironingboard2.png",92,2,92,0.7,"stim/22.jpeg",2,2,2,NA,"HouseObjects",1,3,"left","left",0.460000038,1,1,1,1,NA,NA,NA,NA,NA,NA,NA,NA,NA,NA,NA,NA,NA,NA,NA,NA,NA,NA,NA,NA,NA,NA,NA,NA
"184","stim/objects/Instruments/musicstand.png",93,2,93,0.5,"stim/63.jpeg",6,3,1,NA,"Instruments",2,4,"right","left",0.542999983,0,0,1,1,NA,NA,NA,NA,NA,NA,NA,NA,NA,NA,NA,NA,NA,NA,NA,NA,NA,NA,NA,NA,NA,NA,NA,NA
"85","stim/objects/HouseObjects/remote.png",94,2,94,0.3,"stim/12.jpeg",1,2,2,NA,"HouseObjects",1,2,"left","right",0.463000059,0,0,1,1,NA,NA,NA,NA,NA,NA,NA,NA,NA,NA,NA,NA,NA,NA,NA,NA,NA,NA,NA,NA,NA,NA,NA,NA
"117","stim/objects/HouseObjects/rug2.png",95,2,95,0.9,"stim/44.jpeg",4,4,3,NA,"HouseObjects",1,2,"left","left",0.476000071,1,1,1,1,NA,NA,NA,NA,NA,NA,NA,NA,NA,NA,NA,NA,NA,NA,NA,NA,NA,NA,NA,NA,NA,NA,NA,NA
"221","stim/objects/Instruments/pipepiano.png",96,2,96,0.7,"stim/12.jpeg",1,2,2,NA,"Instruments",2,1,"right","right",0.529000044,1,1,1,1,NA,NA,NA,NA,NA,NA,NA,NA,NA,NA,NA,NA,NA,NA,NA,NA,NA,NA,NA,NA,NA,NA,NA,NA
"38","stim/objects/HouseObjects/knife.png",97,2,97,0.5,"stim/54.jpeg",5,4,1,NA,"HouseObjects",1,1,"left","right",0.625999928,0,0,1,1,NA,NA,NA,NA,NA,NA,NA,NA,NA,NA,NA,NA,NA,NA,NA,NA,NA,NA,NA,NA,NA,NA,NA,NA
"143","stim/objects/Instruments/maraca2.png",98,2,98,0.3,"stim/23.jpeg",2,3,2,NA,"Instruments",2,2,"right","left",0.503999949,0,0,1,1,NA,NA,NA,NA,NA,NA,NA,NA,NA,NA,NA,NA,NA,NA,NA,NA,NA,NA,NA,NA,NA,NA,NA,NA
"174","stim/objects/Instruments/musicsheet2.png",99,2,99,0.9,"stim/32.jpeg",3,2,3,NA,"Instruments",2,4,"right","right",0.510999918,1,1,1,1,NA,NA,NA,NA,NA,NA,NA,NA,NA,NA,NA,NA,NA,NA,NA,NA,NA,NA,NA,NA,NA,NA,NA,NA
"206","stim/objects/Instruments/oboe2.png",100,2,100,0.9,"stim/34.jpeg",3,4,3,NA,"Instruments",2,3,"right","right",0.51699996,1,1,1,1,NA,NA,NA,NA,NA,NA,NA,NA,NA,NA,NA,NA,NA,NA,NA,NA,NA,NA,NA,NA,NA,NA,NA,NA
"212","stim/objects/Instruments/panflute.png",101,2,101,0.7,"stim/11.jpeg",1,1,2,NA,"Instruments",2,3,"right","right",0.601000071,1,1,1,1,NA,NA,NA,NA,NA,NA,NA,NA,NA,NA,NA,NA,NA,NA,NA,NA,NA,NA,NA,NA,NA,NA,NA,NA
"164","stim/objects/Instruments/metronome2.png",102,2,102,0.9,"stim/31.jpeg",3,1,3,NA,"Instruments",2,1,"right","right",0.44900012,1,1,1,1,NA,NA,NA,NA,NA,NA,NA,NA,NA,NA,NA,NA,NA,NA,NA,NA,NA,NA,NA,NA,NA,NA,NA,NA
"175","stim/objects/Instruments/musicsheet2.png",103,2,103,0.9,"stim/32.jpeg",3,2,3,NA,"Instruments",2,4,"right","right",0.467000008,1,1,1,1,NA,NA,NA,NA,NA,NA,NA,NA,NA,NA,NA,NA,NA,NA,NA,NA,NA,NA,NA,NA,NA,NA,NA,NA
"33","stim/objects/HouseObjects/key2.png",104,2,104,0.7,"stim/23.jpeg",2,3,2,NA,"HouseObjects",1,1,"left","left",0.368999958,1,1,1,1,NA,NA,NA,NA,NA,NA,NA,NA,NA,NA,NA,NA,NA,NA,NA,NA,NA,NA,NA,NA,NA,NA,NA,NA
"169","stim/objects/Instruments/musicsheet.png",105,2,105,0.5,"stim/62.jpeg",6,2,1,NA,"Instruments",2,1,"right","left",0.582999945,0,0,1,1,NA,NA,NA,NA,NA,NA,NA,NA,NA,NA,NA,NA,NA,NA,NA,NA,NA,NA,NA,NA,NA,NA,NA,NA
"146","stim/objects/Instruments/marimba.png",106,2,106,0.5,"stim/54.jpeg",5,4,1,NA,"Instruments",2,3,"right","right",0.537999868,1,1,1,1,NA,NA,NA,NA,NA,NA,NA,NA,NA,NA,NA,NA,NA,NA,NA,NA,NA,NA,NA,NA,NA,NA,NA,NA
"69","stim/objects/HouseObjects/pitcher.png",107,2,107,0.5,"stim/64.jpeg",6,4,1,NA,"HouseObjects",1,4,"left","left",0.506000042,1,1,1,1,NA,NA,NA,NA,NA,NA,NA,NA,NA,NA,NA,NA,NA,NA,NA,NA,NA,NA,NA,NA,NA,NA,NA,NA
"151","stim/objects/Instruments/marimba2.png",108,2,108,0.3,"stim/24.jpeg",2,4,2,NA,"Instruments",2,3,"right","left",0.459000111,0,0,1,1,NA,NA,NA,NA,NA,NA,NA,NA,NA,NA,NA,NA,NA,NA,NA,NA,NA,NA,NA,NA,NA,NA,NA,NA
"14","stim/objects/HouseObjects/ironingboard.png",109,2,109,0.5,"stim/52.jpeg",5,2,1,NA,"HouseObjects",1,3,"left","left",0.361000061,1,1,1,1,NA,NA,NA,NA,NA,NA,NA,NA,NA,NA,NA,NA,NA,NA,NA,NA,NA,NA,NA,NA,NA,NA,NA,NA
"176","stim/objects/Instruments/musicsheet2.png",110,2,110,0.9,"stim/32.jpeg",3,2,3,NA,"Instruments",2,3,"right","right",0.557999849,1,1,1,1,NA,NA,NA,NA,NA,NA,NA,NA,NA,NA,NA,NA,NA,NA,NA,NA,NA,NA,NA,NA,NA,NA,NA,NA
"213","stim/objects/Instruments/panflute.png",111,2,111,0.7,"stim/11.jpeg",1,1,2,NA,"Instruments",2,3,"right","right",0.588000059,1,1,1,1,NA,NA,NA,NA,NA,NA,NA,NA,NA,NA,NA,NA,NA,NA,NA,NA,NA,NA,NA,NA,NA,NA,NA,NA
"73","stim/objects/HouseObjects/recyclingbin.png",112,2,112,0.3,"stim/11.jpeg",1,1,2,NA,"HouseObjects",1,2,"left","right",0.495000124,0,0,1,1,NA,NA,NA,NA,NA,NA,NA,NA,NA,NA,NA,NA,NA,NA,NA,NA,NA,NA,NA,NA,NA,NA,NA,NA
"153","stim/objects/Instruments/metronome.png",113,2,113,0.5,"stim/61.jpeg",6,1,1,NA,"Instruments",2,2,"right","left",0.510999918,0,0,1,1,NA,NA,NA,NA,NA,NA,NA,NA,NA,NA,NA,NA,NA,NA,NA,NA,NA,NA,NA,NA,NA,NA,NA,NA
"228","stim/objects/Instruments/record_player.png",114,2,114,0.7,"stim/14.jpeg",1,4,2,NA,"Instruments",2,4,"right","right",0.623999834,1,1,1,1,NA,NA,NA,NA,NA,NA,NA,NA,NA,NA,NA,NA,NA,NA,NA,NA,NA,NA,NA,NA,NA,NA,NA,NA
"15","stim/objects/HouseObjects/ironingboard.png",115,2,115,0.5,"stim/52.jpeg",5,2,1,NA,"HouseObjects",1,1,"left","left",0.489000082,1,1,1,1,NA,NA,NA,NA,NA,NA,NA,NA,NA,NA,NA,NA,NA,NA,NA,NA,NA,NA,NA,NA,NA,NA,NA,NA
"16","stim/objects/HouseObjects/ironingboard.png",116,2,116,0.5,"stim/52.jpeg",5,2,1,NA,"HouseObjects",1,2,"left","right",0.755000114,0,0,1,1,NA,NA,NA,NA,NA,NA,NA,NA,NA,NA,NA,NA,NA,NA,NA,NA,NA,NA,NA,NA,NA,NA,NA,NA
"1","stim/objects/HouseObjects/iron.png",117,2,117,0.5,"stim/51.jpeg",5,1,1,NA,"HouseObjects",1,3,"left","right",0.845000029,0,0,1,1,NA,NA,NA,NA,NA,NA,NA,NA,NA,NA,NA,NA,NA,NA,NA,NA,NA,NA,NA,NA,NA,NA,NA,NA
"98","stim/objects/HouseObjects/rubbergloves.png",118,2,118,0.3,"stim/13.jpeg",1,3,2,NA,"HouseObjects",1,1,"left","right",0.5400002,0,0,1,1,NA,NA,NA,NA,NA,NA,NA,NA,NA,NA,NA,NA,NA,NA,NA,NA,NA,NA,NA,NA,NA,NA,NA,NA
"189","stim/objects/Instruments/musicstand2.png",119,2,119,0.9,"stim/33.jpeg",3,3,3,NA,"Instruments",2,3,"right","right",0.46600008,1,1,1,1,NA,NA,NA,NA,NA,NA,NA,NA,NA,NA,NA,NA,NA,NA,NA,NA,NA,NA,NA,NA,NA,NA,NA,NA
"190","stim/objects/Instruments/musicstand2.png",120,2,120,0.9,"stim/33.jpeg",3,3,3,NA,"Instruments",2,2,"right","right",0.546000004,1,1,1,1,NA,NA,NA,NA,NA,NA,NA,NA,NA,NA,NA,NA,NA,NA,NA,NA,NA,NA,NA,NA,NA,NA,NA,NA
"34","stim/objects/HouseObjects/key2.png",121,2,121,0.7,"stim/23.jpeg",2,3,2,NA,"HouseObjects",1,2,"left","left",0.602999926,1,1,1,1,NA,NA,NA,NA,NA,NA,NA,NA,NA,NA,NA,NA,NA,NA,NA,NA,NA,NA,NA,NA,NA,NA,NA,NA
"2","stim/objects/HouseObjects/iron.png",122,2,122,0.5,"stim/51.jpeg",5,1,1,NA,"HouseObjects",1,1,"left","right",0.595999956,0,0,1,1,NA,NA,NA,NA,NA,NA,NA,NA,NA,NA,NA,NA,NA,NA,NA,NA,NA,NA,NA,NA,NA,NA,NA,NA
"165","stim/objects/Instruments/metronome2.png",123,2,123,0.9,"stim/31.jpeg",3,1,3,NA,"Instruments",2,2,"right","right",0.493999958,1,1,1,1,NA,NA,NA,NA,NA,NA,NA,NA,NA,NA,NA,NA,NA,NA,NA,NA,NA,NA,NA,NA,NA,NA,NA,NA
"236","stim/objects/Instruments/record.png",124,2,124,0.7,"stim/13.jpeg",1,3,2,NA,"Instruments",2,2,"right","right",0.50999999,1,1,1,1,NA,NA,NA,NA,NA,NA,NA,NA,NA,NA,NA,NA,NA,NA,NA,NA,NA,NA,NA,NA,NA,NA,NA,NA
"122","stim/objects/Instruments/keyboard.png",125,2,125,0.5,"stim/51.jpeg",5,1,1,NA,"Instruments",2,4,"right","right",0.641000032,1,1,1,1,NA,NA,NA,NA,NA,NA,NA,NA,NA,NA,NA,NA,NA,NA,NA,NA,NA,NA,NA,NA,NA,NA,NA,NA
"39","stim/objects/HouseObjects/knife.png",126,2,126,0.5,"stim/54.jpeg",5,4,1,NA,"HouseObjects",1,2,"left","left",0.835999966,1,1,1,1,NA,NA,NA,NA,NA,NA,NA,NA,NA,NA,NA,NA,NA,NA,NA,NA,NA,NA,NA,NA,NA,NA,NA,NA
"118","stim/objects/HouseObjects/rug2.png",127,2,127,0.9,"stim/44.jpeg",4,4,3,NA,"HouseObjects",1,4,"left","left",0.545000076,1,1,1,1,NA,NA,NA,NA,NA,NA,NA,NA,NA,NA,NA,NA,NA,NA,NA,NA,NA,NA,NA,NA,NA,NA,NA,NA
"45","stim/objects/HouseObjects/knife2.png",128,2,128,0.7,"stim/24.jpeg",2,4,2,NA,"HouseObjects",1,3,"left","left",0.487999916,1,1,1,1,NA,NA,NA,NA,NA,NA,NA,NA,NA,NA,NA,NA,NA,NA,NA,NA,NA,NA,NA,NA,NA,NA,NA,NA
"28","stim/objects/HouseObjects/key.png",129,2,129,0.5,"stim/53.jpeg",5,3,1,NA,"HouseObjects",1,4,"left","right",0.601000071,0,0,1,1,NA,NA,NA,NA,NA,NA,NA,NA,NA,NA,NA,NA,NA,NA,NA,NA,NA,NA,NA,NA,NA,NA,NA,NA
"136","stim/objects/Instruments/laud2.png",130,2,130,0.3,"stim/22.jpeg",2,2,2,NA,"Instruments",2,4,"right","left",0.454999924,0,0,1,1,NA,NA,NA,NA,NA,NA,NA,NA,NA,NA,NA,NA,NA,NA,NA,NA,NA,NA,NA,NA,NA,NA,NA,NA
"60","stim/objects/HouseObjects/match2.png",131,2,131,0.1,"stim/32.jpeg",3,2,3,NA,"HouseObjects",1,4,"left","right",0.498000145,0,0,1,1,NA,NA,NA,NA,NA,NA,NA,NA,NA,NA,NA,NA,NA,NA,NA,NA,NA,NA,NA,NA,NA,NA,NA,NA
"74","stim/objects/HouseObjects/recyclingbin.png",132,2,132,0.3,"stim/11.jpeg",1,1,2,NA,"HouseObjects",1,1,"left","right",0.534999847,0,0,1,1,NA,NA,NA,NA,NA,NA,NA,NA,NA,NA,NA,NA,NA,NA,NA,NA,NA,NA,NA,NA,NA,NA,NA,NA
"237","stim/objects/Instruments/record.png",133,2,133,0.7,"stim/13.jpeg",1,3,2,NA,"Instruments",2,4,"right","right",0.45600009,1,1,1,1,NA,NA,NA,NA,NA,NA,NA,NA,NA,NA,NA,NA,NA,NA,NA,NA,NA,NA,NA,NA,NA,NA,NA,NA
"91","stim/objects/HouseObjects/remote2.png",134,2,134,0.9,"stim/42.jpeg",4,2,3,NA,"HouseObjects",1,4,"left","left",0.545000076,1,1,1,1,NA,NA,NA,NA,NA,NA,NA,NA,NA,NA,NA,NA,NA,NA,NA,NA,NA,NA,NA,NA,NA,NA,NA,NA
"185","stim/objects/Instruments/musicstand.png",135,2,135,0.5,"stim/63.jpeg",6,3,1,NA,"Instruments",2,1,"right","",NA,0,0,1,1,NA,NA,NA,NA,NA,NA,NA,NA,NA,NA,NA,NA,NA,NA,NA,NA,NA,NA,NA,NA,NA,NA,NA,NA
"147","stim/objects/Instruments/marimba.png",136,2,136,0.5,"stim/54.jpeg",5,4,1,NA,"Instruments",2,3,"right","right",0.715999842,1,1,1,1,NA,NA,NA,NA,NA,NA,NA,NA,NA,NA,NA,NA,NA,NA,NA,NA,NA,NA,NA,NA,NA,NA,NA,NA
"177","stim/objects/Instruments/musicsheet2.png",137,2,137,0.9,"stim/32.jpeg",3,2,3,NA,"Instruments",2,4,"right","right",0.546000004,1,1,1,1,NA,NA,NA,NA,NA,NA,NA,NA,NA,NA,NA,NA,NA,NA,NA,NA,NA,NA,NA,NA,NA,NA,NA,NA
"224","stim/objects/Instruments/pipepiano2.png",138,2,138,0.1,"stim/42.jpeg",4,2,3,NA,"Instruments",2,3,"right","left",0.523000002,0,0,1,1,NA,NA,NA,NA,NA,NA,NA,NA,NA,NA,NA,NA,NA,NA,NA,NA,NA,NA,NA,NA,NA,NA,NA,NA
"178","stim/objects/Instruments/musicsheet2.png",139,2,139,0.9,"stim/32.jpeg",3,2,3,NA,"Instruments",2,4,"right","right",0.537000179,1,1,1,1,NA,NA,NA,NA,NA,NA,NA,NA,NA,NA,NA,NA,NA,NA,NA,NA,NA,NA,NA,NA,NA,NA,NA,NA
"70","stim/objects/HouseObjects/pitcher.png",140,2,140,0.5,"stim/64.jpeg",6,4,1,NA,"HouseObjects",1,3,"left","left",0.621000051,1,1,1,1,NA,NA,NA,NA,NA,NA,NA,NA,NA,NA,NA,NA,NA,NA,NA,NA,NA,NA,NA,NA,NA,NA,NA,NA
"123","stim/objects/Instruments/keyboard.png",141,2,141,0.5,"stim/51.jpeg",5,1,1,NA,"Instruments",2,4,"right","right",0.679999828,1,1,1,1,NA,NA,NA,NA,NA,NA,NA,NA,NA,NA,NA,NA,NA,NA,NA,NA,NA,NA,NA,NA,NA,NA,NA,NA
"62","stim/objects/HouseObjects/pan.png",142,2,142,0.5,"stim/63.jpeg",6,3,1,NA,"HouseObjects",1,1,"left","left",0.753999949,1,1,1,1,NA,NA,NA,NA,NA,NA,NA,NA,NA,NA,NA,NA,NA,NA,NA,NA,NA,NA,NA,NA,NA,NA,NA,NA
"207","stim/objects/Instruments/oboe2.png",143,2,143,0.9,"stim/34.jpeg",3,4,3,NA,"Instruments",2,4,"right","right",0.54399991,1,1,1,1,NA,NA,NA,NA,NA,NA,NA,NA,NA,NA,NA,NA,NA,NA,NA,NA,NA,NA,NA,NA,NA,NA,NA,NA
"229","stim/objects/Instruments/record_player.png",144,2,144,0.7,"stim/14.jpeg",1,4,2,NA,"Instruments",2,2,"right","right",0.538000107,1,1,1,1,NA,NA,NA,NA,NA,NA,NA,NA,NA,NA,NA,NA,NA,NA,NA,NA,NA,NA,NA,NA,NA,NA,NA,NA
"191","stim/objects/Instruments/musicstand2.png",145,2,145,0.9,"stim/33.jpeg",3,3,3,NA,"Instruments",2,2,"right","right",0.529999971,1,1,1,1,NA,NA,NA,NA,NA,NA,NA,NA,NA,NA,NA,NA,NA,NA,NA,NA,NA,NA,NA,NA,NA,NA,NA,NA
"75","stim/objects/HouseObjects/recyclingbin.png",146,2,146,0.3,"stim/11.jpeg",1,1,2,NA,"HouseObjects",1,4,"left","right",0.491999865,0,0,1,1,NA,NA,NA,NA,NA,NA,NA,NA,NA,NA,NA,NA,NA,NA,NA,NA,NA,NA,NA,NA,NA,NA,NA,NA
"195","stim/objects/Instruments/oboe.png",147,2,147,0.5,"stim/64.jpeg",6,4,1,NA,"Instruments",2,2,"right","left",0.644000053,0,0,1,1,NA,NA,NA,NA,NA,NA,NA,NA,NA,NA,NA,NA,NA,NA,NA,NA,NA,NA,NA,NA,NA,NA,NA,NA
"152","stim/objects/Instruments/marimba2.png",148,2,148,0.3,"stim/24.jpeg",2,4,2,NA,"Instruments",2,2,"right","left",0.56099987,0,0,1,1,NA,NA,NA,NA,NA,NA,NA,NA,NA,NA,NA,NA,NA,NA,NA,NA,NA,NA,NA,NA,NA,NA,NA,NA
"192","stim/objects/Instruments/musicstand2.png",149,2,149,0.9,"stim/33.jpeg",3,3,3,NA,"Instruments",2,2,"right","right",0.460000038,1,1,1,1,NA,NA,NA,NA,NA,NA,NA,NA,NA,NA,NA,NA,NA,NA,NA,NA,NA,NA,NA,NA,NA,NA,NA,NA
"82","stim/objects/HouseObjects/recyclingbin2.png",150,2,150,0.9,"stim/41.jpeg",4,1,3,NA,"HouseObjects",1,1,"left","left",0.494999886,1,1,1,1,NA,NA,NA,NA,NA,NA,NA,NA,NA,NA,NA,NA,NA,NA,NA,NA,NA,NA,NA,NA,NA,NA,NA,NA
"50","stim/objects/HouseObjects/lintroller.png",151,2,151,0.5,"stim/61.jpeg",6,1,1,NA,"HouseObjects",1,2,"left","left",0.592000008,1,1,1,1,NA,NA,NA,NA,NA,NA,NA,NA,NA,NA,NA,NA,NA,NA,NA,NA,NA,NA,NA,NA,NA,NA,NA,NA
"232","stim/objects/Instruments/record_player2.png",152,2,152,0.1,"stim/44.jpeg",4,4,3,NA,"Instruments",2,3,"right","left",0.481000185,0,0,1,1,NA,NA,NA,NA,NA,NA,NA,NA,NA,NA,NA,NA,NA,NA,NA,NA,NA,NA,NA,NA,NA,NA,NA,NA
"154","stim/objects/Instruments/metronome.png",153,2,153,0.5,"stim/61.jpeg",6,1,1,NA,"Instruments",2,3,"right","right",0.914999962,1,1,1,1,NA,NA,NA,NA,NA,NA,NA,NA,NA,NA,NA,NA,NA,NA,NA,NA,NA,NA,NA,NA,NA,NA,NA,NA
"138","stim/objects/Instruments/maraca.png",154,2,154,0.5,"stim/53.jpeg",5,3,1,NA,"Instruments",2,2,"right","right",0.603999853,1,1,1,1,NA,NA,NA,NA,NA,NA,NA,NA,NA,NA,NA,NA,NA,NA,NA,NA,NA,NA,NA,NA,NA,NA,NA,NA
"170","stim/objects/Instruments/musicsheet.png",155,2,155,0.5,"stim/62.jpeg",6,2,1,NA,"Instruments",2,2,"right","left",0.442000151,0,0,1,1,NA,NA,NA,NA,NA,NA,NA,NA,NA,NA,NA,NA,NA,NA,NA,NA,NA,NA,NA,NA,NA,NA,NA,NA
"92","stim/objects/HouseObjects/remote2.png",156,2,156,0.9,"stim/42.jpeg",4,2,3,NA,"HouseObjects",1,1,"left","left",0.526000023,1,1,1,1,NA,NA,NA,NA,NA,NA,NA,NA,NA,NA,NA,NA,NA,NA,NA,NA,NA,NA,NA,NA,NA,NA,NA,NA
"103","stim/objects/HouseObjects/rubbergloves2.png",157,2,157,0.9,"stim/43.jpeg",4,3,3,NA,"HouseObjects",1,3,"left","left",0.823999882,1,1,1,1,NA,NA,NA,NA,NA,NA,NA,NA,NA,NA,NA,NA,NA,NA,NA,NA,NA,NA,NA,NA,NA,NA,NA,NA
"93","stim/objects/HouseObjects/remote2.png",158,2,158,0.9,"stim/42.jpeg",4,2,3,NA,"HouseObjects",1,1,"left","left",0.508000135,1,1,1,1,NA,NA,NA,NA,NA,NA,NA,NA,NA,NA,NA,NA,NA,NA,NA,NA,NA,NA,NA,NA,NA,NA,NA,NA
"46","stim/objects/HouseObjects/knife2.png",159,2,159,0.7,"stim/24.jpeg",2,4,2,NA,"HouseObjects",1,4,"left","left",0.480999947,1,1,1,1,NA,NA,NA,NA,NA,NA,NA,NA,NA,NA,NA,NA,NA,NA,NA,NA,NA,NA,NA,NA,NA,NA,NA,NA
"130","stim/objects/Instruments/laud.png",160,2,160,0.5,"stim/52.jpeg",5,2,1,NA,"Instruments",2,2,"right","right",0.625999928,1,1,1,1,NA,NA,NA,NA,NA,NA,NA,NA,NA,NA,NA,NA,NA,NA,NA,NA,NA,NA,NA,NA,NA,NA,NA,NA
"58","stim/objects/HouseObjects/match.png",161,2,161,0.5,"stim/62.jpeg",6,2,1,NA,"HouseObjects",1,1,"left","left",0.508000135,1,1,1,1,NA,NA,NA,NA,NA,NA,NA,NA,NA,NA,NA,NA,NA,NA,NA,NA,NA,NA,NA,NA,NA,NA,NA,NA
"104","stim/objects/HouseObjects/rubbergloves2.png",162,2,162,0.9,"stim/43.jpeg",4,3,3,NA,"HouseObjects",1,1,"left","left",0.50999999,1,1,1,1,NA,NA,NA,NA,NA,NA,NA,NA,NA,NA,NA,NA,NA,NA,NA,NA,NA,NA,NA,NA,NA,NA,NA,NA
"222","stim/objects/Instruments/pipepiano.png",163,2,163,0.7,"stim/12.jpeg",1,2,2,NA,"Instruments",2,2,"right","right",0.599999905,1,1,1,1,NA,NA,NA,NA,NA,NA,NA,NA,NA,NA,NA,NA,NA,NA,NA,NA,NA,NA,NA,NA,NA,NA,NA,NA
"8","stim/objects/HouseObjects/iron2.png",164,2,164,0.7,"stim/21.jpeg",2,1,2,NA,"HouseObjects",1,2,"left","left",0.541000128,1,1,1,1,NA,NA,NA,NA,NA,NA,NA,NA,NA,NA,NA,NA,NA,NA,NA,NA,NA,NA,NA,NA,NA,NA,NA,NA
"124","stim/objects/Instruments/keyboard.png",165,2,165,0.5,"stim/51.jpeg",5,1,1,NA,"Instruments",2,1,"right","right",0.727999926,1,1,1,1,NA,NA,NA,NA,NA,NA,NA,NA,NA,NA,NA,NA,NA,NA,NA,NA,NA,NA,NA,NA,NA,NA,NA,NA
"208","stim/objects/Instruments/oboe2.png",166,2,166,0.9,"stim/34.jpeg",3,4,3,NA,"Instruments",2,3,"right","right",0.462000132,1,1,1,1,NA,NA,NA,NA,NA,NA,NA,NA,NA,NA,NA,NA,NA,NA,NA,NA,NA,NA,NA,NA,NA,NA,NA,NA
"155","stim/objects/Instruments/metronome.png",167,2,167,0.5,"stim/61.jpeg",6,1,1,NA,"Instruments",2,3,"right","right",0.660000086,1,1,1,1,NA,NA,NA,NA,NA,NA,NA,NA,NA,NA,NA,NA,NA,NA,NA,NA,NA,NA,NA,NA,NA,NA,NA,NA
"119","stim/objects/HouseObjects/rug2.png",168,2,168,0.9,"stim/44.jpeg",4,4,3,NA,"HouseObjects",1,2,"left","left",0.613999844,1,1,1,1,NA,NA,NA,NA,NA,NA,NA,NA,NA,NA,NA,NA,NA,NA,NA,NA,NA,NA,NA,NA,NA,NA,NA,NA
"105","stim/objects/HouseObjects/rubbergloves2.png",169,2,169,0.9,"stim/43.jpeg",4,3,3,NA,"HouseObjects",1,2,"left","left",0.414000034,1,1,1,1,NA,NA,NA,NA,NA,NA,NA,NA,NA,NA,NA,NA,NA,NA,NA,NA,NA,NA,NA,NA,NA,NA,NA,NA
"230","stim/objects/Instruments/record_player.png",170,2,170,0.7,"stim/14.jpeg",1,4,2,NA,"Instruments",2,3,"right","right",0.603000164,1,1,1,1,NA,NA,NA,NA,NA,NA,NA,NA,NA,NA,NA,NA,NA,NA,NA,NA,NA,NA,NA,NA,NA,NA,NA,NA
"86","stim/objects/HouseObjects/remote.png",171,2,171,0.3,"stim/12.jpeg",1,2,2,NA,"HouseObjects",1,2,"left","right",0.499000072,0,0,1,1,NA,NA,NA,NA,NA,NA,NA,NA,NA,NA,NA,NA,NA,NA,NA,NA,NA,NA,NA,NA,NA,NA,NA,NA
"63","stim/objects/HouseObjects/pan.png",172,2,172,0.5,"stim/63.jpeg",6,3,1,NA,"HouseObjects",1,4,"left","left",0.633000135,1,1,1,1,NA,NA,NA,NA,NA,NA,NA,NA,NA,NA,NA,NA,NA,NA,NA,NA,NA,NA,NA,NA,NA,NA,NA,NA
"238","stim/objects/Instruments/record.png",173,2,173,0.7,"stim/13.jpeg",1,3,2,NA,"Instruments",2,4,"right","right",0.542000055,1,1,1,1,NA,NA,NA,NA,NA,NA,NA,NA,NA,NA,NA,NA,NA,NA,NA,NA,NA,NA,NA,NA,NA,NA,NA,NA
"128","stim/objects/Instruments/keyboard2.png",174,2,174,0.3,"stim/21.jpeg",2,1,2,NA,"Instruments",2,4,"right","left",0.527000189,0,0,1,1,NA,NA,NA,NA,NA,NA,NA,NA,NA,NA,NA,NA,NA,NA,NA,NA,NA,NA,NA,NA,NA,NA,NA,NA
"106","stim/objects/HouseObjects/rubbergloves2.png",175,2,175,0.9,"stim/43.jpeg",4,3,3,NA,"HouseObjects",1,3,"left","left",0.48300004,1,1,1,1,NA,NA,NA,NA,NA,NA,NA,NA,NA,NA,NA,NA,NA,NA,NA,NA,NA,NA,NA,NA,NA,NA,NA,NA
"51","stim/objects/HouseObjects/lintroller.png",176,2,176,0.5,"stim/61.jpeg",6,1,1,NA,"HouseObjects",1,4,"left","right",0.537000179,0,0,1,1,NA,NA,NA,NA,NA,NA,NA,NA,NA,NA,NA,NA,NA,NA,NA,NA,NA,NA,NA,NA,NA,NA,NA,NA
"23","stim/objects/HouseObjects/ironingboard2.png",177,2,177,0.7,"stim/22.jpeg",2,2,2,NA,"HouseObjects",1,1,"left","left",0.478999853,1,1,1,1,NA,NA,NA,NA,NA,NA,NA,NA,NA,NA,NA,NA,NA,NA,NA,NA,NA,NA,NA,NA,NA,NA,NA,NA
"9","stim/objects/HouseObjects/iron2.png",178,2,178,0.7,"stim/21.jpeg",2,1,2,NA,"HouseObjects",1,2,"left","left",0.49000001,1,1,1,1,NA,NA,NA,NA,NA,NA,NA,NA,NA,NA,NA,NA,NA,NA,NA,NA,NA,NA,NA,NA,NA,NA,NA,NA
"193","stim/objects/Instruments/musicstand2.png",179,2,179,0.9,"stim/33.jpeg",3,3,3,NA,"Instruments",2,2,"right","right",0.552000046,1,1,1,1,NA,NA,NA,NA,NA,NA,NA,NA,NA,NA,NA,NA,NA,NA,NA,NA,NA,NA,NA,NA,NA,NA,NA,NA
"17","stim/objects/HouseObjects/ironingboard.png",180,2,180,0.5,"stim/52.jpeg",5,2,1,NA,"HouseObjects",1,2,"left","right",0.605000019,0,0,1,1,NA,NA,NA,NA,NA,NA,NA,NA,NA,NA,NA,NA,NA,NA,NA,NA,NA,NA,NA,NA,NA,NA,NA,NA
"94","stim/objects/HouseObjects/remote2.png",181,2,181,0.9,"stim/42.jpeg",4,2,3,NA,"HouseObjects",1,3,"left","left",0.524999857,1,1,1,1,NA,NA,NA,NA,NA,NA,NA,NA,NA,NA,NA,NA,NA,NA,NA,NA,NA,NA,NA,NA,NA,NA,NA,NA
"24","stim/objects/HouseObjects/ironingboard2.png",182,2,182,0.7,"stim/22.jpeg",2,2,2,NA,"HouseObjects",1,4,"left","left",0.480000019,1,1,1,1,NA,NA,NA,NA,NA,NA,NA,NA,NA,NA,NA,NA,NA,NA,NA,NA,NA,NA,NA,NA,NA,NA,NA,NA
"10","stim/objects/HouseObjects/iron2.png",183,2,183,0.7,"stim/21.jpeg",2,1,2,NA,"HouseObjects",1,1,"left","left",0.519999981,1,1,1,1,NA,NA,NA,NA,NA,NA,NA,NA,NA,NA,NA,NA,NA,NA,NA,NA,NA,NA,NA,NA,NA,NA,NA,NA
"144","stim/objects/Instruments/maraca2.png",184,2,184,0.3,"stim/23.jpeg",2,3,2,NA,"Instruments",2,1,"right","left",0.463999987,0,0,1,1,NA,NA,NA,NA,NA,NA,NA,NA,NA,NA,NA,NA,NA,NA,NA,NA,NA,NA,NA,NA,NA,NA,NA,NA
"148","stim/objects/Instruments/marimba.png",185,2,185,0.5,"stim/54.jpeg",5,4,1,NA,"Instruments",2,4,"right","right",0.617000103,1,1,1,1,NA,NA,NA,NA,NA,NA,NA,NA,NA,NA,NA,NA,NA,NA,NA,NA,NA,NA,NA,NA,NA,NA,NA,NA
"47","stim/objects/HouseObjects/knife2.png",186,2,186,0.7,"stim/24.jpeg",2,4,2,NA,"HouseObjects",1,4,"left","left",0.49000001,1,1,1,1,NA,NA,NA,NA,NA,NA,NA,NA,NA,NA,NA,NA,NA,NA,NA,NA,NA,NA,NA,NA,NA,NA,NA,NA
"99","stim/objects/HouseObjects/rubbergloves.png",187,2,187,0.3,"stim/13.jpeg",1,3,2,NA,"HouseObjects",1,4,"left","right",0.517999887,0,0,1,1,NA,NA,NA,NA,NA,NA,NA,NA,NA,NA,NA,NA,NA,NA,NA,NA,NA,NA,NA,NA,NA,NA,NA,NA
"35","stim/objects/HouseObjects/key2.png",188,2,188,0.7,"stim/23.jpeg",2,3,2,NA,"HouseObjects",1,4,"left","left",0.559000015,1,1,1,1,NA,NA,NA,NA,NA,NA,NA,NA,NA,NA,NA,NA,NA,NA,NA,NA,NA,NA,NA,NA,NA,NA,NA,NA
"95","stim/objects/HouseObjects/remote2.png",189,2,189,0.9,"stim/42.jpeg",4,2,3,NA,"HouseObjects",1,2,"left","left",0.501000166,1,1,1,1,NA,NA,NA,NA,NA,NA,NA,NA,NA,NA,NA,NA,NA,NA,NA,NA,NA,NA,NA,NA,NA,NA,NA,NA
"83","stim/objects/HouseObjects/recyclingbin2.png",190,2,190,0.9,"stim/41.jpeg",4,1,3,NA,"HouseObjects",1,2,"left","left",0.497000217,1,1,1,1,NA,NA,NA,NA,NA,NA,NA,NA,NA,NA,NA,NA,NA,NA,NA,NA,NA,NA,NA,NA,NA,NA,NA,NA
"52","stim/objects/HouseObjects/lintroller.png",191,2,191,0.5,"stim/61.jpeg",6,1,1,NA,"HouseObjects",1,4,"left","right",0.551999807,0,0,1,1,NA,NA,NA,NA,NA,NA,NA,NA,NA,NA,NA,NA,NA,NA,NA,NA,NA,NA,NA,NA,NA,NA,NA,NA
"36","stim/objects/HouseObjects/key2.png",192,2,192,0.7,"stim/23.jpeg",2,3,2,NA,"HouseObjects",1,1,"left","left",0.40899992,1,1,1,1,NA,NA,NA,NA,NA,NA,NA,NA,NA,NA,NA,NA,NA,NA,NA,NA,NA,NA,NA,NA,NA,NA,NA,NA
"11","stim/objects/HouseObjects/iron2.png",193,2,193,0.7,"stim/21.jpeg",2,1,2,NA,"HouseObjects",1,1,"left","left",0.595000029,1,1,1,1,NA,NA,NA,NA,NA,NA,NA,NA,NA,NA,NA,NA,NA,NA,NA,NA,NA,NA,NA,NA,NA,NA,NA,NA
"179","stim/objects/Instruments/musicsheet2.png",194,2,194,0.9,"stim/32.jpeg",3,2,3,NA,"Instruments",2,1,"right","right",0.519999981,1,1,1,1,NA,NA,NA,NA,NA,NA,NA,NA,NA,NA,NA,NA,NA,NA,NA,NA,NA,NA,NA,NA,NA,NA,NA,NA
"111","stim/objects/HouseObjects/rug.png",195,2,195,0.3,"stim/14.jpeg",1,4,2,NA,"HouseObjects",1,4,"left","right",0.419999838,0,0,1,1,NA,NA,NA,NA,NA,NA,NA,NA,NA,NA,NA,NA,NA,NA,NA,NA,NA,NA,NA,NA,NA,NA,NA,NA
"216","stim/objects/Instruments/panflute2.png",196,2,196,0.1,"stim/41.jpeg",4,1,3,NA,"Instruments",2,1,"right","left",0.392999887,0,0,1,1,NA,NA,NA,NA,NA,NA,NA,NA,NA,NA,NA,NA,NA,NA,NA,NA,NA,NA,NA,NA,NA,NA,NA,NA
"196","stim/objects/Instruments/oboe.png",197,2,197,0.5,"stim/64.jpeg",6,4,1,NA,"Instruments",2,3,"right","right",0.489000082,1,1,1,1,NA,NA,NA,NA,NA,NA,NA,NA,NA,NA,NA,NA,NA,NA,NA,NA,NA,NA,NA,NA,NA,NA,NA,NA
"139","stim/objects/Instruments/maraca.png",198,2,198,0.5,"stim/53.jpeg",5,3,1,NA,"Instruments",2,3,"right","right",0.58100009,1,1,1,1,NA,NA,NA,NA,NA,NA,NA,NA,NA,NA,NA,NA,NA,NA,NA,NA,NA,NA,NA,NA,NA,NA,NA,NA
"40","stim/objects/HouseObjects/knife.png",199,2,199,0.5,"stim/54.jpeg",5,4,1,NA,"HouseObjects",1,4,"left","left",0.506999969,1,1,1,1,NA,NA,NA,NA,NA,NA,NA,NA,NA,NA,NA,NA,NA,NA,NA,NA,NA,NA,NA,NA,NA,NA,NA,NA
"131","stim/objects/Instruments/laud.png",200,2,200,0.5,"stim/52.jpeg",5,2,1,NA,"Instruments",2,3,"right","left",0.75999999,0,0,1,1,NA,NA,NA,NA,NA,NA,NA,NA,NA,NA,NA,NA,NA,NA,NA,NA,NA,NA,NA,NA,NA,NA,NA,NA
"107","stim/objects/HouseObjects/rubbergloves2.png",201,2,201,0.9,"stim/43.jpeg",4,3,3,NA,"HouseObjects",1,4,"left","",NA,0,0,1,1,NA,NA,NA,NA,NA,NA,NA,NA,NA,NA,NA,NA,NA,NA,NA,NA,NA,NA,NA,NA,NA,NA,NA,NA
"64","stim/objects/HouseObjects/pan.png",202,2,202,0.5,"stim/63.jpeg",6,3,1,NA,"HouseObjects",1,3,"left","left",0.569999933,1,1,1,1,NA,NA,NA,NA,NA,NA,NA,NA,NA,NA,NA,NA,NA,NA,NA,NA,NA,NA,NA,NA,NA,NA,NA,NA
"166","stim/objects/Instruments/metronome2.png",203,2,203,0.9,"stim/31.jpeg",3,1,3,NA,"Instruments",2,1,"right","right",0.506999969,1,1,1,1,NA,NA,NA,NA,NA,NA,NA,NA,NA,NA,NA,NA,NA,NA,NA,NA,NA,NA,NA,NA,NA,NA,NA,NA
"3","stim/objects/HouseObjects/iron.png",204,2,204,0.5,"stim/51.jpeg",5,1,1,NA,"HouseObjects",1,1,"left","right",0.529999971,0,0,1,1,NA,NA,NA,NA,NA,NA,NA,NA,NA,NA,NA,NA,NA,NA,NA,NA,NA,NA,NA,NA,NA,NA,NA,NA
"239","stim/objects/Instruments/record.png",205,2,205,0.7,"stim/13.jpeg",1,3,2,NA,"Instruments",2,4,"right","right",0.520999908,1,1,1,1,NA,NA,NA,NA,NA,NA,NA,NA,NA,NA,NA,NA,NA,NA,NA,NA,NA,NA,NA,NA,NA,NA,NA,NA
"140","stim/objects/Instruments/maraca.png",206,2,206,0.5,"stim/53.jpeg",5,3,1,NA,"Instruments",2,3,"right","right",0.576999903,1,1,1,1,NA,NA,NA,NA,NA,NA,NA,NA,NA,NA,NA,NA,NA,NA,NA,NA,NA,NA,NA,NA,NA,NA,NA,NA
"87","stim/objects/HouseObjects/remote.png",207,2,207,0.3,"stim/12.jpeg",1,2,2,NA,"HouseObjects",1,1,"left","right",0.527999878,0,0,1,1,NA,NA,NA,NA,NA,NA,NA,NA,NA,NA,NA,NA,NA,NA,NA,NA,NA,NA,NA,NA,NA,NA,NA,NA
"125","stim/objects/Instruments/keyboard.png",208,2,208,0.5,"stim/51.jpeg",5,1,1,NA,"Instruments",2,1,"right","right",0.583999872,1,1,1,1,NA,NA,NA,NA,NA,NA,NA,NA,NA,NA,NA,NA,NA,NA,NA,NA,NA,NA,NA,NA,NA,NA,NA,NA
"214","stim/objects/Instruments/panflute.png",209,2,209,0.7,"stim/11.jpeg",1,1,2,NA,"Instruments",2,2,"right","right",0.595999956,1,1,1,1,NA,NA,NA,NA,NA,NA,NA,NA,NA,NA,NA,NA,NA,NA,NA,NA,NA,NA,NA,NA,NA,NA,NA,NA
"12","stim/objects/HouseObjects/iron2.png",210,2,210,0.7,"stim/21.jpeg",2,1,2,NA,"HouseObjects",1,1,"left","left",0.601999998,1,1,1,1,NA,NA,NA,NA,NA,NA,NA,NA,NA,NA,NA,NA,NA,NA,NA,NA,NA,NA,NA,NA,NA,NA,NA,NA
"29","stim/objects/HouseObjects/key.png",211,2,211,0.5,"stim/53.jpeg",5,3,1,NA,"HouseObjects",1,2,"left","right",0.667000055,0,0,1,1,NA,NA,NA,NA,NA,NA,NA,NA,NA,NA,NA,NA,NA,NA,NA,NA,NA,NA,NA,NA,NA,NA,NA,NA
"197","stim/objects/Instruments/oboe.png",212,2,212,0.5,"stim/64.jpeg",6,4,1,NA,"Instruments",2,1,"right","left",0.604000092,0,0,1,1,NA,NA,NA,NA,NA,NA,NA,NA,NA,NA,NA,NA,NA,NA,NA,NA,NA,NA,NA,NA,NA,NA,NA,NA
"4","stim/objects/HouseObjects/iron.png",213,2,213,0.5,"stim/51.jpeg",5,1,1,NA,"HouseObjects",1,2,"left","right",0.632999897,0,0,1,1,NA,NA,NA,NA,NA,NA,NA,NA,NA,NA,NA,NA,NA,NA,NA,NA,NA,NA,NA,NA,NA,NA,NA,NA
"223","stim/objects/Instruments/pipepiano.png",214,2,214,0.7,"stim/12.jpeg",1,2,2,NA,"Instruments",2,1,"right","right",0.704999924,1,1,1,1,NA,NA,NA,NA,NA,NA,NA,NA,NA,NA,NA,NA,NA,NA,NA,NA,NA,NA,NA,NA,NA,NA,NA,NA
"48","stim/objects/HouseObjects/knife2.png",215,2,215,0.7,"stim/24.jpeg",2,4,2,NA,"HouseObjects",1,2,"left","left",0.504999876,1,1,1,1,NA,NA,NA,NA,NA,NA,NA,NA,NA,NA,NA,NA,NA,NA,NA,NA,NA,NA,NA,NA,NA,NA,NA,NA
"54","stim/objects/HouseObjects/lintroller2.png",216,2,216,0.1,"stim/31.jpeg",3,1,3,NA,"HouseObjects",1,4,"left","right",0.536000013,0,0,1,1,NA,NA,NA,NA,NA,NA,NA,NA,NA,NA,NA,NA,NA,NA,NA,NA,NA,NA,NA,NA,NA,NA,NA,NA
"71","stim/objects/HouseObjects/pitcher.png",217,2,217,0.5,"stim/64.jpeg",6,4,1,NA,"HouseObjects",1,4,"left","left",0.565999985,1,1,1,1,NA,NA,NA,NA,NA,NA,NA,NA,NA,NA,NA,NA,NA,NA,NA,NA,NA,NA,NA,NA,NA,NA,NA,NA
"171","stim/objects/Instruments/musicsheet.png",218,2,218,0.5,"stim/62.jpeg",6,2,1,NA,"Instruments",2,2,"right","left",0.614000082,0,0,1,1,NA,NA,NA,NA,NA,NA,NA,NA,NA,NA,NA,NA,NA,NA,NA,NA,NA,NA,NA,NA,NA,NA,NA,NA
"66","stim/objects/HouseObjects/pan2.png",219,2,219,0.1,"stim/33.jpeg",3,3,3,NA,"HouseObjects",1,4,"left","right",0.513999939,0,0,1,1,NA,NA,NA,NA,NA,NA,NA,NA,NA,NA,NA,NA,NA,NA,NA,NA,NA,NA,NA,NA,NA,NA,NA,NA
"108","stim/objects/HouseObjects/rubbergloves2.png",220,2,220,0.9,"stim/43.jpeg",4,3,3,NA,"HouseObjects",1,1,"left","left",0.460000038,1,1,1,1,NA,NA,NA,NA,NA,NA,NA,NA,NA,NA,NA,NA,NA,NA,NA,NA,NA,NA,NA,NA,NA,NA,NA,NA
"198","stim/objects/Instruments/oboe.png",221,2,221,0.5,"stim/64.jpeg",6,4,1,NA,"Instruments",2,3,"right","left",0.506999969,0,0,1,1,NA,NA,NA,NA,NA,NA,NA,NA,NA,NA,NA,NA,NA,NA,NA,NA,NA,NA,NA,NA,NA,NA,NA,NA
"180","stim/objects/Instruments/musicsheet2.png",222,2,222,0.9,"stim/32.jpeg",3,2,3,NA,"Instruments",2,3,"right","right",0.494999886,1,1,1,1,NA,NA,NA,NA,NA,NA,NA,NA,NA,NA,NA,NA,NA,NA,NA,NA,NA,NA,NA,NA,NA,NA,NA,NA
"156","stim/objects/Instruments/metronome.png",223,2,223,0.5,"stim/61.jpeg",6,1,1,NA,"Instruments",2,2,"right","right",0.524000168,1,1,1,1,NA,NA,NA,NA,NA,NA,NA,NA,NA,NA,NA,NA,NA,NA,NA,NA,NA,NA,NA,NA,NA,NA,NA,NA
"59","stim/objects/HouseObjects/match.png",224,2,224,0.5,"stim/62.jpeg",6,2,1,NA,"HouseObjects",1,3,"left","left",0.454999924,1,1,1,1,NA,NA,NA,NA,NA,NA,NA,NA,NA,NA,NA,NA,NA,NA,NA,NA,NA,NA,NA,NA,NA,NA,NA,NA
"199","stim/objects/Instruments/oboe.png",225,2,225,0.5,"stim/64.jpeg",6,4,1,NA,"Instruments",2,3,"right","left",0.524999857,0,0,1,1,NA,NA,NA,NA,NA,NA,NA,NA,NA,NA,NA,NA,NA,NA,NA,NA,NA,NA,NA,NA,NA,NA,NA,NA
"41","stim/objects/HouseObjects/knife.png",226,2,226,0.5,"stim/54.jpeg",5,4,1,NA,"HouseObjects",1,4,"left","right",0.478000164,0,0,1,1,NA,NA,NA,NA,NA,NA,NA,NA,NA,NA,NA,NA,NA,NA,NA,NA,NA,NA,NA,NA,NA,NA,NA,NA
"132","stim/objects/Instruments/laud.png",227,2,227,0.5,"stim/52.jpeg",5,2,1,NA,"Instruments",2,4,"right","right",0.654000044,1,1,1,1,NA,NA,NA,NA,NA,NA,NA,NA,NA,NA,NA,NA,NA,NA,NA,NA,NA,NA,NA,NA,NA,NA,NA,NA
"157","stim/objects/Instruments/metronome.png",228,2,228,0.5,"stim/61.jpeg",6,1,1,NA,"Instruments",2,1,"right","right",0.535999775,1,1,1,1,NA,NA,NA,NA,NA,NA,NA,NA,NA,NA,NA,NA,NA,NA,NA,NA,NA,NA,NA,NA,NA,NA,NA,NA
"194","stim/objects/Instruments/musicstand2.png",229,2,229,0.9,"stim/33.jpeg",3,3,3,NA,"Instruments",2,4,"right","right",0.447000027,1,1,1,1,NA,NA,NA,NA,NA,NA,NA,NA,NA,NA,NA,NA,NA,NA,NA,NA,NA,NA,NA,NA,NA,NA,NA,NA
"141","stim/objects/Instruments/maraca.png",230,2,230,0.5,"stim/53.jpeg",5,3,1,NA,"Instruments",2,2,"right","right",0.595999956,1,1,1,1,NA,NA,NA,NA,NA,NA,NA,NA,NA,NA,NA,NA,NA,NA,NA,NA,NA,NA,NA,NA,NA,NA,NA,NA
"231","stim/objects/Instruments/record_player.png",231,2,231,0.7,"stim/14.jpeg",1,4,2,NA,"Instruments",2,3,"right","right",0.634000063,1,1,1,1,NA,NA,NA,NA,NA,NA,NA,NA,NA,NA,NA,NA,NA,NA,NA,NA,NA,NA,NA,NA,NA,NA,NA,NA
"5","stim/objects/HouseObjects/iron.png",232,2,232,0.5,"stim/51.jpeg",5,1,1,NA,"HouseObjects",1,1,"left","right",0.502000093,0,0,1,1,NA,NA,NA,NA,NA,NA,NA,NA,NA,NA,NA,NA,NA,NA,NA,NA,NA,NA,NA,NA,NA,NA,NA,NA
"149","stim/objects/Instruments/marimba.png",233,2,233,0.5,"stim/54.jpeg",5,4,1,NA,"Instruments",2,2,"right","left",0.752000093,0,0,1,1,NA,NA,NA,NA,NA,NA,NA,NA,NA,NA,NA,NA,NA,NA,NA,NA,NA,NA,NA,NA,NA,NA,NA,NA
"84","stim/objects/HouseObjects/recyclingbin2.png",234,2,234,0.9,"stim/41.jpeg",4,1,3,NA,"HouseObjects",1,1,"left","left",0.691000223,1,1,1,1,NA,NA,NA,NA,NA,NA,NA,NA,NA,NA,NA,NA,NA,NA,NA,NA,NA,NA,NA,NA,NA,NA,NA,NA
"65","stim/objects/HouseObjects/pan.png",235,2,235,0.5,"stim/63.jpeg",6,3,1,NA,"HouseObjects",1,4,"left","right",0.613999844,0,0,1,1,NA,NA,NA,NA,NA,NA,NA,NA,NA,NA,NA,NA,NA,NA,NA,NA,NA,NA,NA,NA,NA,NA,NA,NA
"53","stim/objects/HouseObjects/lintroller.png",236,2,236,0.5,"stim/61.jpeg",6,1,1,NA,"HouseObjects",1,2,"left","right",0.545000076,0,0,1,1,NA,NA,NA,NA,NA,NA,NA,NA,NA,NA,NA,NA,NA,NA,NA,NA,NA,NA,NA,NA,NA,NA,NA,NA
"133","stim/objects/Instruments/laud.png",237,2,237,0.5,"stim/52.jpeg",5,2,1,NA,"Instruments",2,2,"right","right",0.667000055,1,1,1,1,NA,NA,NA,NA,NA,NA,NA,NA,NA,NA,NA,NA,NA,NA,NA,NA,NA,NA,NA,NA,NA,NA,NA,NA
"120","stim/objects/HouseObjects/rug2.png",238,2,238,0.9,"stim/44.jpeg",4,4,3,NA,"HouseObjects",1,2,"left","left",0.523999929,1,1,1,1,NA,NA,NA,NA,NA,NA,NA,NA,NA,NA,NA,NA,NA,NA,NA,NA,NA,NA,NA,NA,NA,NA,NA,NA
"215","stim/objects/Instruments/panflute.png",239,2,239,0.7,"stim/11.jpeg",1,1,2,NA,"Instruments",2,3,"right","right",0.469000101,1,1,1,1,NA,NA,NA,NA,NA,NA,NA,NA,NA,NA,NA,NA,NA,NA,NA,NA,NA,NA,NA,NA,NA,NA,NA,NA
"96","stim/objects/HouseObjects/remote2.png",240,2,240,0.9,"stim/42.jpeg",4,2,3,NA,"HouseObjects",1,3,"left","left",0.601999998,1,1,1,1,NA,NA,NA,NA,NA,NA,NA,NA,NA,NA,NA,NA,NA,NA,NA,NA,NA,NA,NA,NA,NA,NA,NA,NA
"325","stim/objects/HouseObjects/flyswatter.png",248,2,241,0.9,"stim/43.jpeg",4,3,3,2,"HouseObjects",1,1,"left","left",0.65199995,1,1,1,0,NA,NA,NA,NA,NA,NA,NA,NA,NA,NA,NA,NA,NA,NA,NA,NA,NA,NA,NA,NA,NA,NA,NA,NA
"308","stim/objects/HouseObjects/dustpan.png",249,2,242,0.9,"stim/43.jpeg",4,3,3,2,"HouseObjects",1,4,"left","left",0.511999846,1,1,1,0,NA,NA,NA,NA,NA,NA,NA,NA,NA,NA,NA,NA,NA,NA,NA,NA,NA,NA,NA,NA,NA,NA,NA,NA
"359","stim/objects/HouseObjects/glass.png",250,2,243,0.9,"stim/43.jpeg",4,3,3,2,"HouseObjects",1,2,"left","left",0.479000092,1,1,1,0,NA,NA,NA,NA,NA,NA,NA,NA,NA,NA,NA,NA,NA,NA,NA,NA,NA,NA,NA,NA,NA,NA,NA,NA
"473","stim/objects/Instruments/flutetrans.png",251,2,244,0.9,"stim/34.jpeg",3,4,3,2,"Instruments",2,4,"right","",NA,0,0,1,0,NA,NA,NA,NA,NA,NA,NA,NA,NA,NA,NA,NA,NA,NA,NA,NA,NA,NA,NA,NA,NA,NA,NA,NA
"474","stim/objects/Instruments/flutetrans.png",252,2,245,0.9,"stim/33.jpeg",3,3,3,2,"Instruments",2,3,"right","right",0.529000044,1,1,1,0,NA,NA,NA,NA,NA,NA,NA,NA,NA,NA,NA,NA,NA,NA,NA,NA,NA,NA,NA,NA,NA,NA,NA,NA
"252","stim/objects/HouseObjects/basket2.png",253,2,246,0.3,"stim/11.jpeg",1,1,2,1,"HouseObjects",1,2,"left","right",0.559000015,0,0,1,0,193,2,1,0.3,1,"stim/11.jpeg",1,1,"stim/11.jpeg",2,"left",0.910999775,4,2,3.70600009,1,0.41899991,193,1,0,0,0,0,1
"507","stim/objects/Instruments/gong.png",254,2,247,0.9,"stim/33.jpeg",3,3,3,2,"Instruments",2,2,"right","right",0.427999973,1,1,1,0,NA,NA,NA,NA,NA,NA,NA,NA,NA,NA,NA,NA,NA,NA,NA,NA,NA,NA,NA,NA,NA,NA,NA,NA
"524","stim/objects/Instruments/grandpiano.png",255,2,248,0.9,"stim/31.jpeg",3,1,3,2,"Instruments",2,3,"right","right",0.542999983,1,1,1,0,NA,NA,NA,NA,NA,NA,NA,NA,NA,NA,NA,NA,NA,NA,NA,NA,NA,NA,NA,NA,NA,NA,NA,NA
"456","stim/objects/Instruments/flute.png",256,2,249,0.9,"stim/34.jpeg",3,4,3,2,"Instruments",2,4,"right","right",0.390000105,1,1,1,0,NA,NA,NA,NA,NA,NA,NA,NA,NA,NA,NA,NA,NA,NA,NA,NA,NA,NA,NA,NA,NA,NA,NA,NA
"402","stim/objects/HouseObjects/vacuumcleaner.png",257,2,250,0.3,"stim/14.jpeg",1,4,2,1,"HouseObjects",1,1,"left","right",0.483999968,0,0,1,0,137,2,1,0.3,1,"stim/14.jpeg",1,4,"stim/14.jpeg",1,"left",0.922999859,4,2,1.269999981,1,1.053999901,137,1,0,0,1,1,1
"342","stim/objects/HouseObjects/garbagebin.png",258,2,251,0.9,"stim/44.jpeg",4,4,3,2,"HouseObjects",1,1,"left","left",0.498000145,1,1,1,0,NA,NA,NA,NA,NA,NA,NA,NA,NA,NA,NA,NA,NA,NA,NA,NA,NA,NA,NA,NA,NA,NA,NA,NA
"246","stim/objects/HouseObjects/ballofstring2.png",259,2,252,0.3,"stim/13.jpeg",1,3,2,1,"HouseObjects",1,3,"left","right",0.463000059,0,0,1,0,170,2,1,0.3,1,"stim/13.jpeg",1,3,"stim/13.jpeg",3,"left",0.775000095,4,3,2.753000021,3,0.364999771,170,1,1,1,1,1,1
"268","stim/objects/HouseObjects/clock.png",260,2,253,0.5,"stim/64.jpeg",6,4,1,2,"HouseObjects",1,1,"left","left",0.592000008,1,1,1,0,NA,NA,NA,NA,NA,NA,NA,NA,NA,NA,NA,NA,NA,NA,NA,NA,NA,NA,NA,NA,NA,NA,NA,NA
"291","stim/objects/HouseObjects/doormat.png",261,2,254,0.9,"stim/42.jpeg",4,2,3,2,"HouseObjects",1,1,"left","left",0.565000057,1,1,1,0,NA,NA,NA,NA,NA,NA,NA,NA,NA,NA,NA,NA,NA,NA,NA,NA,NA,NA,NA,NA,NA,NA,NA,NA
"274","stim/objects/HouseObjects/clothesdryingrack2.png",262,2,255,0.7,"stim/21.jpeg",2,1,2,1,"HouseObjects",1,3,"left","left",0.427000046,1,1,1,0,75,2,1,0.7,1,"stim/21.jpeg",2,1,"stim/21.jpeg",3,"left",0.845000029,4,4,2.731999874,3,0.657999992,75,1,0,0,1,1,1
"326","stim/objects/HouseObjects/flyswatter.png",263,2,256,0.9,"stim/43.jpeg",4,3,3,2,"HouseObjects",1,4,"left","left",0.588000059,1,1,1,0,NA,NA,NA,NA,NA,NA,NA,NA,NA,NA,NA,NA,NA,NA,NA,NA,NA,NA,NA,NA,NA,NA,NA,NA
"360","stim/objects/HouseObjects/glass.png",264,2,257,0.9,"stim/43.jpeg",4,3,3,2,"HouseObjects",1,1,"left","left",0.464999914,1,1,1,0,NA,NA,NA,NA,NA,NA,NA,NA,NA,NA,NA,NA,NA,NA,NA,NA,NA,NA,NA,NA,NA,NA,NA,NA
"457","stim/objects/Instruments/flute.png",265,2,258,0.9,"stim/33.jpeg",3,3,3,2,"Instruments",2,1,"right","right",0.474999905,1,1,1,0,NA,NA,NA,NA,NA,NA,NA,NA,NA,NA,NA,NA,NA,NA,NA,NA,NA,NA,NA,NA,NA,NA,NA,NA
"384","stim/objects/HouseObjects/safetypin.png",266,2,259,0.5,"stim/53.jpeg",5,3,1,1,"HouseObjects",1,3,"left","right",0.707999945,0,0,1,0,117,2,1,0.5,1,"stim/53.jpeg",5,3,"stim/53.jpeg",3,"left",1.200999975,4,2,2.277999878,3,1.019999981,117,1,0,0,1,1,1
"508","stim/objects/Instruments/gong.png",267,2,260,0.9,"stim/32.jpeg",3,2,3,2,"Instruments",2,1,"right","right",0.493000031,1,1,1,0,NA,NA,NA,NA,NA,NA,NA,NA,NA,NA,NA,NA,NA,NA,NA,NA,NA,NA,NA,NA,NA,NA,NA,NA
"458","stim/objects/Instruments/flute.png",268,2,261,0.9,"stim/31.jpeg",3,1,3,2,"Instruments",2,4,"right","right",0.434000015,1,1,1,0,NA,NA,NA,NA,NA,NA,NA,NA,NA,NA,NA,NA,NA,NA,NA,NA,NA,NA,NA,NA,NA,NA,NA,NA
"444","stim/objects/Instruments/drums.png",269,2,262,0.7,"stim/11.jpeg",1,1,2,2,"Instruments",2,4,"right","right",0.713000059,1,1,1,0,NA,NA,NA,NA,NA,NA,NA,NA,NA,NA,NA,NA,NA,NA,NA,NA,NA,NA,NA,NA,NA,NA,NA,NA
"310","stim/objects/HouseObjects/dustpan.png",270,2,263,0.9,"stim/43.jpeg",4,3,3,2,"HouseObjects",1,4,"left","left",0.687999964,1,1,1,0,NA,NA,NA,NA,NA,NA,NA,NA,NA,NA,NA,NA,NA,NA,NA,NA,NA,NA,NA,NA,NA,NA,NA,NA
"343","stim/objects/HouseObjects/garbagebin.png",271,2,264,0.9,"stim/43.jpeg",4,3,3,2,"HouseObjects",1,3,"left","left",0.541999817,1,1,1,0,NA,NA,NA,NA,NA,NA,NA,NA,NA,NA,NA,NA,NA,NA,NA,NA,NA,NA,NA,NA,NA,NA,NA,NA
"412","stim/objects/Instruments/balalaika.png",272,2,265,0.5,"stim/53.jpeg",5,3,1,2,"Instruments",2,4,"right","right",0.520000219,1,1,1,0,NA,NA,NA,NA,NA,NA,NA,NA,NA,NA,NA,NA,NA,NA,NA,NA,NA,NA,NA,NA,NA,NA,NA,NA
"292","stim/objects/HouseObjects/doormat.png",273,2,266,0.9,"stim/42.jpeg",4,2,3,2,"HouseObjects",1,1,"left","left",0.722000122,1,1,1,0,NA,NA,NA,NA,NA,NA,NA,NA,NA,NA,NA,NA,NA,NA,NA,NA,NA,NA,NA,NA,NA,NA,NA,NA
"250","stim/objects/HouseObjects/basket.png",274,2,267,0.5,"stim/51.jpeg",5,1,1,2,"HouseObjects",1,1,"left","right",0.611000061,0,0,1,0,NA,NA,NA,NA,NA,NA,NA,NA,NA,NA,NA,NA,NA,NA,NA,NA,NA,NA,NA,NA,NA,NA,NA,NA
"440","stim/objects/Instruments/doublebass.png",275,2,268,0.7,"stim/12.jpeg",1,2,2,2,"Instruments",2,1,"right","right",0.527999878,1,1,1,0,NA,NA,NA,NA,NA,NA,NA,NA,NA,NA,NA,NA,NA,NA,NA,NA,NA,NA,NA,NA,NA,NA,NA,NA
"417","stim/objects/Instruments/banjo2.png",276,2,269,0.7,"stim/12.jpeg",1,2,2,1,"Instruments",2,2,"right","right",0.644000053,1,1,1,0,80,2,1,0.7,2,"stim/12.jpeg",1,2,"stim/12.jpeg",2,"right",2.957999945,2,3,2.381999969,2,0.599999905,80,0,0,NA,1,NA,1
"421","stim/objects/Instruments/bassguitar.png",277,2,270,0.5,"stim/63.jpeg",6,3,1,2,"Instruments",2,4,"right","left",0.559999943,0,0,1,0,NA,NA,NA,NA,NA,NA,NA,NA,NA,NA,NA,NA,NA,NA,NA,NA,NA,NA,NA,NA,NA,NA,NA,NA
"509","stim/objects/Instruments/gong.png",278,2,271,0.9,"stim/34.jpeg",3,4,3,2,"Instruments",2,3,"right","left",0.575000048,0,0,1,0,NA,NA,NA,NA,NA,NA,NA,NA,NA,NA,NA,NA,NA,NA,NA,NA,NA,NA,NA,NA,NA,NA,NA,NA
"344","stim/objects/HouseObjects/garbagebin.png",279,2,272,0.9,"stim/41.jpeg",4,1,3,2,"HouseObjects",1,2,"left","left",0.524999857,1,1,1,0,NA,NA,NA,NA,NA,NA,NA,NA,NA,NA,NA,NA,NA,NA,NA,NA,NA,NA,NA,NA,NA,NA,NA,NA
"253","stim/objects/HouseObjects/bleachbottle.png",280,2,273,0.5,"stim/52.jpeg",5,2,1,2,"HouseObjects",1,1,"left","right",0.532999992,0,0,1,0,NA,NA,NA,NA,NA,NA,NA,NA,NA,NA,NA,NA,NA,NA,NA,NA,NA,NA,NA,NA,NA,NA,NA,NA
"377","stim/objects/HouseObjects/glassmop2.png",281,2,274,0.1,"stim/32.jpeg",3,2,3,1,"HouseObjects",1,3,"left","right",0.544000149,0,0,1,0,200,2,1,0.1,1,"stim/32.jpeg",3,2,"stim/32.jpeg",3,"left",1.30099988,4,4,1.403999805,1,0.326999903,200,1,0,0,0,0,1
"378","stim/objects/HouseObjects/hairdryer.png",282,2,275,0.5,"stim/54.jpeg",5,4,1,1,"HouseObjects",1,3,"left","left",0.663000107,1,1,1,0,128,2,1,0.5,1,"stim/54.jpeg",5,4,"stim/54.jpeg",3,"right",1.934999943,1,3,1.383999825,2,0.657999754,128,0,0,NA,0,NA,1
"475","stim/objects/Instruments/flutetrans.png",283,2,276,0.9,"stim/32.jpeg",3,2,3,2,"Instruments",2,1,"right","right",0.478999853,1,1,1,0,NA,NA,NA,NA,NA,NA,NA,NA,NA,NA,NA,NA,NA,NA,NA,NA,NA,NA,NA,NA,NA,NA,NA,NA
"327","stim/objects/HouseObjects/flyswatter.png",284,2,277,0.9,"stim/44.jpeg",4,4,3,2,"HouseObjects",1,3,"left","left",0.524999857,1,1,1,0,NA,NA,NA,NA,NA,NA,NA,NA,NA,NA,NA,NA,NA,NA,NA,NA,NA,NA,NA,NA,NA,NA,NA,NA
"476","stim/objects/Instruments/flutetrans.png",285,2,278,0.9,"stim/34.jpeg",3,4,3,2,"Instruments",2,3,"right","right",0.536000013,1,1,1,0,NA,NA,NA,NA,NA,NA,NA,NA,NA,NA,NA,NA,NA,NA,NA,NA,NA,NA,NA,NA,NA,NA,NA,NA
"427","stim/objects/Instruments/chime.png",286,2,279,0.5,"stim/61.jpeg",6,1,1,2,"Instruments",2,3,"right","left",0.513000011,0,0,1,0,NA,NA,NA,NA,NA,NA,NA,NA,NA,NA,NA,NA,NA,NA,NA,NA,NA,NA,NA,NA,NA,NA,NA,NA
"525","stim/objects/Instruments/grandpiano.png",287,2,280,0.9,"stim/33.jpeg",3,3,3,2,"Instruments",2,4,"right","right",0.805999994,1,1,1,0,NA,NA,NA,NA,NA,NA,NA,NA,NA,NA,NA,NA,NA,NA,NA,NA,NA,NA,NA,NA,NA,NA,NA,NA
"526","stim/objects/Instruments/grandpiano.png",288,2,281,0.9,"stim/32.jpeg",3,2,3,2,"Instruments",2,3,"right","right",0.407000065,1,1,1,0,NA,NA,NA,NA,NA,NA,NA,NA,NA,NA,NA,NA,NA,NA,NA,NA,NA,NA,NA,NA,NA,NA,NA,NA
"293","stim/objects/HouseObjects/doormat.png",289,2,282,0.9,"stim/42.jpeg",4,2,3,2,"HouseObjects",1,1,"left","left",0.369999886,1,1,1,0,NA,NA,NA,NA,NA,NA,NA,NA,NA,NA,NA,NA,NA,NA,NA,NA,NA,NA,NA,NA,NA,NA,NA,NA
"523","stim/objects/Instruments/gong2.png",290,2,283,0.9,"stim/32.jpeg",3,2,3,1,"Instruments",2,2,"right","right",0.434000015,1,1,1,0,23,2,1,0.9,2,"stim/32.jpeg",3,2,"stim/32.jpeg",2,"left",1.046999931,4,2,3.838999987,2,0.762999773,23,1,1,1,1,1,1
"493","stim/objects/Instruments/frenchhorn.png",291,2,284,0.9,"stim/32.jpeg",3,2,3,2,"Instruments",2,4,"right","right",0.386999846,1,1,1,0,NA,NA,NA,NA,NA,NA,NA,NA,NA,NA,NA,NA,NA,NA,NA,NA,NA,NA,NA,NA,NA,NA,NA,NA
"290","stim/objects/HouseObjects/dishsoap2.png",292,2,285,0.7,"stim/21.jpeg",2,1,2,1,"HouseObjects",1,4,"left","left",0.51699996,1,1,1,0,1,2,1,0.7,1,"stim/21.jpeg",2,1,"stim/21.jpeg",4,"left",1.398000002,4,3,4.592999935,3,1.645999908,1,1,0,0,0,0,1
"361","stim/objects/HouseObjects/glass.png",293,2,286,0.9,"stim/42.jpeg",4,2,3,2,"HouseObjects",1,4,"left","left",0.551000118,1,1,1,0,NA,NA,NA,NA,NA,NA,NA,NA,NA,NA,NA,NA,NA,NA,NA,NA,NA,NA,NA,NA,NA,NA,NA,NA
"528","stim/objects/Instruments/grandpiano.png",294,2,287,0.9,"stim/34.jpeg",3,4,3,2,"Instruments",2,1,"right","right",0.467999935,1,1,1,0,NA,NA,NA,NA,NA,NA,NA,NA,NA,NA,NA,NA,NA,NA,NA,NA,NA,NA,NA,NA,NA,NA,NA,NA
"529","stim/objects/Instruments/grandpiano.png",295,2,288,0.9,"stim/31.jpeg",3,1,3,2,"Instruments",2,4,"right","right",0.337999821,1,1,1,0,NA,NA,NA,NA,NA,NA,NA,NA,NA,NA,NA,NA,NA,NA,NA,NA,NA,NA,NA,NA,NA,NA,NA,NA
"494","stim/objects/Instruments/frenchhorn.png",296,2,289,0.9,"stim/31.jpeg",3,1,3,2,"Instruments",2,2,"right","right",0.486000061,1,1,1,0,NA,NA,NA,NA,NA,NA,NA,NA,NA,NA,NA,NA,NA,NA,NA,NA,NA,NA,NA,NA,NA,NA,NA,NA
"495","stim/objects/Instruments/frenchhorn.png",297,2,290,0.9,"stim/31.jpeg",3,1,3,2,"Instruments",2,1,"right","right",0.378000021,1,1,1,0,NA,NA,NA,NA,NA,NA,NA,NA,NA,NA,NA,NA,NA,NA,NA,NA,NA,NA,NA,NA,NA,NA,NA,NA
"341","stim/objects/HouseObjects/flyswatter2.png",298,2,291,0.1,"stim/33.jpeg",3,3,3,1,"HouseObjects",1,3,"left","right",0.353000164,0,0,1,0,4,2,1,0.1,1,"stim/33.jpeg",3,3,"stim/33.jpeg",3,"left",1.105999947,4,4,4.056999922,3,2.457999945,4,1,0,0,1,1,1
"420","stim/objects/Instruments/bassdrum2.png",299,2,292,0.7,"stim/13.jpeg",1,3,2,1,"Instruments",2,1,"right","right",0.424000025,1,1,1,0,17,2,1,0.7,2,"stim/13.jpeg",1,3,"stim/13.jpeg",1,"left",1.859999895,2,4,2.248000145,3,1.897000074,17,1,0,0,0,0,1
"385","stim/objects/HouseObjects/safetypin2.png",300,2,293,0.1,"stim/32.jpeg",3,2,3,1,"HouseObjects",1,1,"left","right",0.441999912,0,0,1,0,2,2,1,0.1,1,"stim/32.jpeg",3,2,"stim/32.jpeg",1,"left",1.813999891,4,2,3.290999889,4,1.444999933,2,1,1,1,0,0,1
"564","stim/objects/Instruments/tuba2.png",301,2,294,0.1,"stim/41.jpeg",4,1,3,1,"Instruments",2,3,"right","right",0.423000097,1,1,1,0,107,2,1,0.1,2,"stim/41.jpeg",4,1,"stim/41.jpeg",3,"right",1.299999952,2,3,1.359999895,2,0.77699995,107,0,0,NA,0,NA,1
"249","stim/objects/HouseObjects/barbecuelighter2.png",302,2,295,0.3,"stim/14.jpeg",1,4,2,1,"HouseObjects",1,3,"left","right",0.468999863,0,0,1,0,165,2,1,0.3,1,"stim/14.jpeg",1,4,"stim/14.jpeg",3,"left",2.08100009,2,4,1.480999947,3,1.13499999,165,1,1,1,1,1,1
"390","stim/objects/HouseObjects/sponge.png",303,2,296,0.5,"stim/63.jpeg",6,3,1,1,"HouseObjects",1,1,"left","left",0.84100008,1,1,1,0,78,2,1,0.5,2,"stim/63.jpeg",6,3,"stim/63.jpeg",1,"left",0.912999868,4,3,2.15199995,1,0.453000069,78,1,1,1,1,1,1
"448","stim/objects/Instruments/electricdrumset.png",304,2,297,0.7,"stim/13.jpeg",1,3,2,2,"Instruments",2,4,"right","right",0.446000099,1,1,1,0,NA,NA,NA,NA,NA,NA,NA,NA,NA,NA,NA,NA,NA,NA,NA,NA,NA,NA,NA,NA,NA,NA,NA,NA
"459","stim/objects/Instruments/flute.png",305,2,298,0.9,"stim/32.jpeg",3,2,3,2,"Instruments",2,4,"right","right",0.451999903,1,1,1,0,NA,NA,NA,NA,NA,NA,NA,NA,NA,NA,NA,NA,NA,NA,NA,NA,NA,NA,NA,NA,NA,NA,NA,NA
"491","stim/objects/Instruments/frenchhorn.png",306,2,299,0.9,"stim/32.jpeg",3,2,3,2,"Instruments",2,2,"right","right",0.452000141,1,1,1,0,NA,NA,NA,NA,NA,NA,NA,NA,NA,NA,NA,NA,NA,NA,NA,NA,NA,NA,NA,NA,NA,NA,NA,NA
"262","stim/objects/HouseObjects/broom.png",307,2,300,0.5,"stim/62.jpeg",6,2,1,2,"HouseObjects",1,2,"left","left",0.530999899,1,1,1,0,NA,NA,NA,NA,NA,NA,NA,NA,NA,NA,NA,NA,NA,NA,NA,NA,NA,NA,NA,NA,NA,NA,NA,NA
"443","stim/objects/Instruments/doublebass2.png",308,2,301,0.3,"stim/24.jpeg",2,4,2,1,"Instruments",2,3,"right","left",0.5,0,0,1,0,101,2,1,0.3,2,"stim/24.jpeg",2,4,"stim/24.jpeg",3,"right",0.807999849,1,2,2.677999973,2,1.401000023,101,0,0,NA,0,NA,1
"270","stim/objects/HouseObjects/clock2.png",309,2,302,0.7,"stim/24.jpeg",2,4,2,1,"HouseObjects",1,3,"left","left",0.440000057,1,1,1,0,83,2,1,0.7,1,"stim/24.jpeg",2,4,"stim/24.jpeg",3,"left",0.760999918,4,3,3.245999813,1,0.29399991,83,1,0,0,0,0,1
"428","stim/objects/Instruments/chime.png",310,2,303,0.5,"stim/64.jpeg",6,4,1,2,"Instruments",2,1,"right","left",0.615999937,0,0,1,0,NA,NA,NA,NA,NA,NA,NA,NA,NA,NA,NA,NA,NA,NA,NA,NA,NA,NA,NA,NA,NA,NA,NA,NA
"452","stim/objects/Instruments/electricguitar.png",311,2,304,0.7,"stim/14.jpeg",1,4,2,2,"Instruments",2,4,"right","right",0.483999968,1,1,1,0,NA,NA,NA,NA,NA,NA,NA,NA,NA,NA,NA,NA,NA,NA,NA,NA,NA,NA,NA,NA,NA,NA,NA,NA
"510","stim/objects/Instruments/gong.png",312,2,305,0.9,"stim/34.jpeg",3,4,3,2,"Instruments",2,4,"right","right",0.571000099,1,1,1,0,NA,NA,NA,NA,NA,NA,NA,NA,NA,NA,NA,NA,NA,NA,NA,NA,NA,NA,NA,NA,NA,NA,NA,NA
"415","stim/objects/Instruments/banjo.png",313,2,306,0.5,"stim/53.jpeg",5,3,1,2,"Instruments",2,4,"right","right",0.664999962,1,1,1,0,NA,NA,NA,NA,NA,NA,NA,NA,NA,NA,NA,NA,NA,NA,NA,NA,NA,NA,NA,NA,NA,NA,NA,NA
"275","stim/objects/HouseObjects/clothespin.png",314,2,307,0.7,"stim/22.jpeg",2,2,2,2,"HouseObjects",1,1,"left","left",0.51699996,1,1,1,0,NA,NA,NA,NA,NA,NA,NA,NA,NA,NA,NA,NA,NA,NA,NA,NA,NA,NA,NA,NA,NA,NA,NA,NA
"551","stim/objects/Instruments/speaker.png",315,2,308,0.5,"stim/64.jpeg",6,4,1,1,"Instruments",2,1,"right","left",0.667999983,0,0,1,0,145,2,1,0.5,2,"stim/64.jpeg",6,4,"stim/64.jpeg",1,"left",0.963999987,4,4,1.802999973,1,0.380999804,145,1,1,1,1,1,1
"345","stim/objects/HouseObjects/garbagebin.png",316,2,309,0.9,"stim/41.jpeg",4,1,3,2,"HouseObjects",1,4,"left","left",0.49000001,1,1,1,0,NA,NA,NA,NA,NA,NA,NA,NA,NA,NA,NA,NA,NA,NA,NA,NA,NA,NA,NA,NA,NA,NA,NA,NA
"296","stim/objects/HouseObjects/doormat.png",317,2,310,0.9,"stim/41.jpeg",4,1,3,2,"HouseObjects",1,4,"left","left",0.447999954,1,1,1,0,NA,NA,NA,NA,NA,NA,NA,NA,NA,NA,NA,NA,NA,NA,NA,NA,NA,NA,NA,NA,NA,NA,NA,NA
"543","stim/objects/Instruments/harmonica.png",318,2,311,0.5,"stim/53.jpeg",5,3,1,1,"Instruments",2,3,"right","right",0.569999933,1,1,1,0,154,2,1,0.5,1,"stim/53.jpeg",5,3,"stim/53.jpeg",3,"right",0.773000002,2,4,1.377999783,2,0.648999929,154,0,0,NA,0,NA,1
"391","stim/objects/HouseObjects/sponge2.png",319,2,312,0.9,"stim/43.jpeg",4,3,3,1,"HouseObjects",1,4,"left","left",0.594000101,1,1,1,0,31,2,1,0.9,1,"stim/43.jpeg",4,3,"stim/43.jpeg",4,"left",0.930999994,4,4,2.794999838,3,0.772999763,31,1,0,0,0,0,1
"365","stim/objects/HouseObjects/glass.png",320,2,313,0.9,"stim/41.jpeg",4,1,3,2,"HouseObjects",1,4,"left","left",0.729000092,1,1,1,0,NA,NA,NA,NA,NA,NA,NA,NA,NA,NA,NA,NA,NA,NA,NA,NA,NA,NA,NA,NA,NA,NA,NA,NA
"276","stim/objects/HouseObjects/clothespin.png",321,2,314,0.7,"stim/24.jpeg",2,4,2,2,"HouseObjects",1,3,"left","left",0.521000147,1,1,1,0,NA,NA,NA,NA,NA,NA,NA,NA,NA,NA,NA,NA,NA,NA,NA,NA,NA,NA,NA,NA,NA,NA,NA,NA
"478","stim/objects/Instruments/flutetrans.png",322,2,315,0.9,"stim/31.jpeg",3,1,3,2,"Instruments",2,4,"right","right",0.534000158,1,1,1,0,NA,NA,NA,NA,NA,NA,NA,NA,NA,NA,NA,NA,NA,NA,NA,NA,NA,NA,NA,NA,NA,NA,NA,NA
"241","stim/objects/HouseObjects/ashtray.png",323,2,316,0.5,"stim/52.jpeg",5,2,1,2,"HouseObjects",1,3,"left","left",0.698999882,1,1,1,0,NA,NA,NA,NA,NA,NA,NA,NA,NA,NA,NA,NA,NA,NA,NA,NA,NA,NA,NA,NA,NA,NA,NA,NA
"247","stim/objects/HouseObjects/barbecuelighter.png",324,2,317,0.5,"stim/54.jpeg",5,4,1,2,"HouseObjects",1,2,"left","left",0.617999792,1,1,1,0,NA,NA,NA,NA,NA,NA,NA,NA,NA,NA,NA,NA,NA,NA,NA,NA,NA,NA,NA,NA,NA,NA,NA,NA
"328","stim/objects/HouseObjects/flyswatter.png",325,2,318,0.9,"stim/43.jpeg",4,3,3,2,"HouseObjects",1,1,"left","left",0.555999994,1,1,1,0,NA,NA,NA,NA,NA,NA,NA,NA,NA,NA,NA,NA,NA,NA,NA,NA,NA,NA,NA,NA,NA,NA,NA,NA
"479","stim/objects/Instruments/flutetrans.png",326,2,319,0.9,"stim/33.jpeg",3,3,3,2,"Instruments",2,3,"right","right",0.532999992,1,1,1,0,NA,NA,NA,NA,NA,NA,NA,NA,NA,NA,NA,NA,NA,NA,NA,NA,NA,NA,NA,NA,NA,NA,NA,NA
"242","stim/objects/HouseObjects/ashtray.png",327,2,320,0.5,"stim/51.jpeg",5,1,1,2,"HouseObjects",1,3,"left","right",0.684999943,0,0,1,0,NA,NA,NA,NA,NA,NA,NA,NA,NA,NA,NA,NA,NA,NA,NA,NA,NA,NA,NA,NA,NA,NA,NA,NA
"258","stim/objects/HouseObjects/blender2.png",328,2,321,0.7,"stim/24.jpeg",2,4,2,1,"HouseObjects",1,3,"left","left",0.428999901,1,1,1,0,35,2,1,0.7,1,"stim/24.jpeg",2,4,"stim/24.jpeg",3,"right",0.657999754,4,3,0.972999811,2,1.420999765,35,0,0,NA,0,NA,1
"311","stim/objects/HouseObjects/dustpan.png",329,2,322,0.9,"stim/42.jpeg",4,2,3,2,"HouseObjects",1,4,"left","left",0.506999969,1,1,1,0,NA,NA,NA,NA,NA,NA,NA,NA,NA,NA,NA,NA,NA,NA,NA,NA,NA,NA,NA,NA,NA,NA,NA,NA
"398","stim/objects/HouseObjects/thread.png",330,2,323,0.3,"stim/12.jpeg",1,2,2,1,"HouseObjects",1,3,"left","right",0.609999895,0,0,1,0,139,2,1,0.3,1,"stim/12.jpeg",1,2,"stim/12.jpeg",3,"left",0.863999844,4,3,1.161999941,1,0.639999866,139,1,0,0,0,0,1
"566","stim/objects/Instruments/violin2.png",331,2,324,0.1,"stim/42.jpeg",4,2,3,1,"Instruments",2,2,"right","left",0.562999964,0,0,1,0,25,2,1,0.1,2,"stim/42.jpeg",4,2,"stim/42.jpeg",2,"right",1.03399992,3,4,1.440999985,1,1.173999786,25,0,0,NA,0,NA,1
"447","stim/objects/Instruments/drums2.png",332,2,325,0.3,"stim/21.jpeg",2,1,2,1,"Instruments",2,3,"right","left",0.444999933,0,0,1,0,96,2,1,0.3,2,"stim/21.jpeg",2,1,"stim/21.jpeg",3,"left",0.700000048,4,4,2.494999886,3,0.821000099,96,1,0,0,1,1,1
"324","stim/objects/HouseObjects/dustpan2.png",333,2,326,0.1,"stim/32.jpeg",3,2,3,1,"HouseObjects",1,2,"left","right",0.565999985,0,0,1,0,48,2,1,0.1,1,"stim/32.jpeg",3,2,"stim/32.jpeg",2,"right",1.17599988,2,1,0.92599988,1,0.772000074,48,0,0,NA,0,NA,1
"433","stim/objects/Instruments/cornet.png",334,2,327,0.5,"stim/63.jpeg",6,3,1,2,"Instruments",2,1,"right","left",0.670000076,0,0,1,0,NA,NA,NA,NA,NA,NA,NA,NA,NA,NA,NA,NA,NA,NA,NA,NA,NA,NA,NA,NA,NA,NA,NA,NA
"393","stim/objects/HouseObjects/spraybottle2.png",335,2,328,0.9,"stim/44.jpeg",4,4,3,1,"HouseObjects",1,1,"left","left",0.616000175,1,1,1,0,140,2,1,0.9,1,"stim/44.jpeg",4,4,"stim/44.jpeg",1,"right",1.648999929,2,1,1.258999825,2,1.106999874,140,0,0,NA,0,NA,1
"264","stim/objects/HouseObjects/broom2.png",336,2,329,0.7,"stim/22.jpeg",2,2,2,1,"HouseObjects",1,4,"left","left",0.586999893,1,1,1,0,132,2,1,0.7,1,"stim/22.jpeg",2,2,"stim/22.jpeg",4,"right",0.776000023,3,3,1.882999897,1,0.625999928,132,0,0,NA,0,NA,1
"550","stim/objects/Instruments/saxophone2.png",337,2,330,0.9,"stim/34.jpeg",3,4,3,1,"Instruments",2,2,"right","right",0.516000032,1,1,1,0,127,2,1,0.9,2,"stim/34.jpeg",3,4,"stim/34.jpeg",2,"left",1.160000086,2,1,1.828000069,1,0.693999767,127,1,0,0,0,0,1
"375","stim/objects/HouseObjects/glass2.png",338,2,331,0.1,"stim/31.jpeg",3,1,3,1,"HouseObjects",1,1,"left","right",0.506000042,0,0,1,0,27,2,1,0.1,1,"stim/31.jpeg",3,1,"stim/31.jpeg",1,"left",1.070999861,2,1,1.831999779,1,1.159999847,27,1,1,1,1,1,1
"256","stim/objects/HouseObjects/blender.png",339,2,332,0.5,"stim/63.jpeg",6,3,1,2,"HouseObjects",1,4,"left","left",0.699999809,1,1,1,0,NA,NA,NA,NA,NA,NA,NA,NA,NA,NA,NA,NA,NA,NA,NA,NA,NA,NA,NA,NA,NA,NA,NA,NA
"347","stim/objects/HouseObjects/garbagebin.png",340,2,333,0.9,"stim/41.jpeg",4,1,3,2,"HouseObjects",1,4,"left","left",0.707000017,1,1,1,0,NA,NA,NA,NA,NA,NA,NA,NA,NA,NA,NA,NA,NA,NA,NA,NA,NA,NA,NA,NA,NA,NA,NA,NA
"418","stim/objects/Instruments/bassdrum.png",341,2,334,0.5,"stim/51.jpeg",5,1,1,2,"Instruments",2,3,"right","right",0.559999943,1,1,1,0,NA,NA,NA,NA,NA,NA,NA,NA,NA,NA,NA,NA,NA,NA,NA,NA,NA,NA,NA,NA,NA,NA,NA,NA
"277","stim/objects/HouseObjects/clothespin.png",342,2,335,0.7,"stim/23.jpeg",2,3,2,2,"HouseObjects",1,2,"left","left",0.440000057,1,1,1,0,NA,NA,NA,NA,NA,NA,NA,NA,NA,NA,NA,NA,NA,NA,NA,NA,NA,NA,NA,NA,NA,NA,NA,NA
"460","stim/objects/Instruments/flute.png",343,2,336,0.9,"stim/32.jpeg",3,2,3,2,"Instruments",2,4,"right","right",0.481000185,1,1,1,0,NA,NA,NA,NA,NA,NA,NA,NA,NA,NA,NA,NA,NA,NA,NA,NA,NA,NA,NA,NA,NA,NA,NA,NA
"404","stim/objects/HouseObjects/wateringcan.png",344,2,337,0.3,"stim/11.jpeg",1,1,2,1,"HouseObjects",1,1,"left","right",0.5400002,0,0,1,0,69,2,1,0.3,1,"stim/11.jpeg",1,1,"stim/11.jpeg",1,"right",0.837999821,3,4,0.990999937,4,0.406999826,69,0,0,NA,0,NA,1
"263","stim/objects/HouseObjects/broom.png",345,2,338,0.5,"stim/61.jpeg",6,1,1,2,"HouseObjects",1,3,"left","right",0.549999952,0,0,1,0,NA,NA,NA,NA,NA,NA,NA,NA,NA,NA,NA,NA,NA,NA,NA,NA,NA,NA,NA,NA,NA,NA,NA,NA
"363","stim/objects/HouseObjects/glass.png",346,2,339,0.9,"stim/41.jpeg",4,1,3,2,"HouseObjects",1,2,"left","left",0.587000132,1,1,1,0,NA,NA,NA,NA,NA,NA,NA,NA,NA,NA,NA,NA,NA,NA,NA,NA,NA,NA,NA,NA,NA,NA,NA,NA
"497","stim/objects/Instruments/frenchhorn.png",347,2,340,0.9,"stim/33.jpeg",3,3,3,2,"Instruments",2,1,"right","right",0.604000092,1,1,1,0,NA,NA,NA,NA,NA,NA,NA,NA,NA,NA,NA,NA,NA,NA,NA,NA,NA,NA,NA,NA,NA,NA,NA,NA
"260","stim/objects/HouseObjects/bottle.png",348,2,341,0.5,"stim/61.jpeg",6,1,1,2,"HouseObjects",1,2,"left","right",0.548000097,0,0,1,0,NA,NA,NA,NA,NA,NA,NA,NA,NA,NA,NA,NA,NA,NA,NA,NA,NA,NA,NA,NA,NA,NA,NA,NA
"560","stim/objects/Instruments/trombone2.png",349,2,342,0.1,"stim/43.jpeg",4,3,3,1,"Instruments",2,4,"right","left",0.636999846,0,0,1,0,64,2,1,0.1,2,"stim/43.jpeg",4,3,"stim/43.jpeg",4,"right",3.105999947,2,3,1,1,0.79399991,64,0,1,NA,0,NA,1
"437","stim/objects/Instruments/cymbal.png",350,2,343,0.7,"stim/13.jpeg",1,3,2,2,"Instruments",2,2,"right","right",0.636000156,1,1,1,0,NA,NA,NA,NA,NA,NA,NA,NA,NA,NA,NA,NA,NA,NA,NA,NA,NA,NA,NA,NA,NA,NA,NA,NA
"380","stim/objects/HouseObjects/handbrush.png",351,2,344,0.5,"stim/51.jpeg",5,1,1,1,"HouseObjects",1,1,"left","right",0.690999985,0,0,1,0,74,2,1,0.5,1,"stim/51.jpeg",5,1,"stim/51.jpeg",1,"left",1.325000048,2,1,0.994999886,2,0.891999722,74,1,1,1,0,0,1
"299","stim/objects/HouseObjects/doormat.png",352,2,345,0.9,"stim/44.jpeg",4,4,3,2,"HouseObjects",1,1,"left","left",0.784000158,1,1,1,0,NA,NA,NA,NA,NA,NA,NA,NA,NA,NA,NA,NA,NA,NA,NA,NA,NA,NA,NA,NA,NA,NA,NA,NA
"300","stim/objects/HouseObjects/doormat.png",353,2,346,0.9,"stim/42.jpeg",4,2,3,2,"HouseObjects",1,4,"left","",NA,0,0,1,0,NA,NA,NA,NA,NA,NA,NA,NA,NA,NA,NA,NA,NA,NA,NA,NA,NA,NA,NA,NA,NA,NA,NA,NA
"287","stim/objects/HouseObjects/dishsoap.png",354,2,347,0.7,"stim/23.jpeg",2,3,2,2,"HouseObjects",1,1,"left","left",0.602999926,1,1,1,0,NA,NA,NA,NA,NA,NA,NA,NA,NA,NA,NA,NA,NA,NA,NA,NA,NA,NA,NA,NA,NA,NA,NA,NA
"547","stim/objects/Instruments/hihat.png",355,2,348,0.5,"stim/51.jpeg",5,1,1,1,"Instruments",2,2,"right","right",0.559000015,1,1,1,0,51,2,1,0.5,1,"stim/51.jpeg",5,1,"stim/51.jpeg",2,"left",0.822999716,4,2,2.954999924,4,0.838000059,51,1,0,0,0,0,1
"271","stim/objects/HouseObjects/clothesdryingrack.png",356,2,349,0.7,"stim/21.jpeg",2,1,2,2,"HouseObjects",1,1,"left","left",0.534999847,1,1,1,0,NA,NA,NA,NA,NA,NA,NA,NA,NA,NA,NA,NA,NA,NA,NA,NA,NA,NA,NA,NA,NA,NA,NA,NA
"389","stim/objects/HouseObjects/scale2.png",357,2,350,0.9,"stim/42.jpeg",4,2,3,1,"HouseObjects",1,4,"left","left",0.636999846,1,1,1,0,106,2,1,0.9,1,"stim/42.jpeg",4,2,"stim/42.jpeg",4,"left",0.822000027,4,4,1.916000128,4,0.444000006,106,1,0,0,1,1,1
"472","stim/objects/Instruments/flute2.png",358,2,351,0.9,"stim/33.jpeg",3,3,3,1,"Instruments",2,4,"right","right",0.67200017,1,1,1,0,52,2,1,0.9,2,"stim/33.jpeg",3,3,"stim/33.jpeg",4,"left",1.362999916,3,4,1.234999895,1,2.276000023,52,1,0,0,0,0,1
"531","stim/objects/Instruments/grandpiano.png",359,2,352,0.9,"stim/31.jpeg",3,1,3,2,"Instruments",2,2,"right","right",0.513999939,1,1,1,0,NA,NA,NA,NA,NA,NA,NA,NA,NA,NA,NA,NA,NA,NA,NA,NA,NA,NA,NA,NA,NA,NA,NA,NA
"244","stim/objects/HouseObjects/ballofstring.png",360,2,353,0.5,"stim/52.jpeg",5,2,1,2,"HouseObjects",1,2,"left","right",0.771000147,0,0,1,0,NA,NA,NA,NA,NA,NA,NA,NA,NA,NA,NA,NA,NA,NA,NA,NA,NA,NA,NA,NA,NA,NA,NA,NA
"349","stim/objects/HouseObjects/garbagebin.png",361,2,354,0.9,"stim/42.jpeg",4,2,3,2,"HouseObjects",1,3,"left","left",0.694999933,1,1,1,0,NA,NA,NA,NA,NA,NA,NA,NA,NA,NA,NA,NA,NA,NA,NA,NA,NA,NA,NA,NA,NA,NA,NA,NA
"425","stim/objects/Instruments/cello.png",362,2,355,0.5,"stim/64.jpeg",6,4,1,2,"Instruments",2,4,"right","right",0.631999969,1,1,1,0,NA,NA,NA,NA,NA,NA,NA,NA,NA,NA,NA,NA,NA,NA,NA,NA,NA,NA,NA,NA,NA,NA,NA,NA
"407","stim/objects/Instruments/accordion.png",363,2,356,0.5,"stim/51.jpeg",5,1,1,2,"Instruments",2,2,"right","right",0.614000082,1,1,1,0,NA,NA,NA,NA,NA,NA,NA,NA,NA,NA,NA,NA,NA,NA,NA,NA,NA,NA,NA,NA,NA,NA,NA,NA
"498","stim/objects/Instruments/frenchhorn.png",364,2,357,0.9,"stim/33.jpeg",3,3,3,2,"Instruments",2,4,"right","right",0.527000189,1,1,1,0,NA,NA,NA,NA,NA,NA,NA,NA,NA,NA,NA,NA,NA,NA,NA,NA,NA,NA,NA,NA,NA,NA,NA,NA
"330","stim/objects/HouseObjects/flyswatter.png",365,2,358,0.9,"stim/42.jpeg",4,2,3,2,"HouseObjects",1,3,"left","left",0.571000099,1,1,1,0,NA,NA,NA,NA,NA,NA,NA,NA,NA,NA,NA,NA,NA,NA,NA,NA,NA,NA,NA,NA,NA,NA,NA,NA
"288","stim/objects/HouseObjects/dishsoap.png",366,2,359,0.7,"stim/22.jpeg",2,2,2,2,"HouseObjects",1,2,"left","left",0.551000118,1,1,1,0,NA,NA,NA,NA,NA,NA,NA,NA,NA,NA,NA,NA,NA,NA,NA,NA,NA,NA,NA,NA,NA,NA,NA,NA
"331","stim/objects/HouseObjects/flyswatter.png",367,2,360,0.9,"stim/42.jpeg",4,2,3,2,"HouseObjects",1,3,"left","left",0.655999899,1,1,1,0,NA,NA,NA,NA,NA,NA,NA,NA,NA,NA,NA,NA,NA,NA,NA,NA,NA,NA,NA,NA,NA,NA,NA,NA
"314","stim/objects/HouseObjects/dustpan.png",368,2,361,0.9,"stim/44.jpeg",4,4,3,2,"HouseObjects",1,3,"left","left",0.804000139,1,1,1,0,NA,NA,NA,NA,NA,NA,NA,NA,NA,NA,NA,NA,NA,NA,NA,NA,NA,NA,NA,NA,NA,NA,NA,NA
"462","stim/objects/Instruments/flute.png",369,2,362,0.9,"stim/33.jpeg",3,3,3,2,"Instruments",2,2,"right","right",0.662000179,1,1,1,0,NA,NA,NA,NA,NA,NA,NA,NA,NA,NA,NA,NA,NA,NA,NA,NA,NA,NA,NA,NA,NA,NA,NA,NA
"439","stim/objects/Instruments/cymbal2.png",370,2,363,0.3,"stim/23.jpeg",2,3,2,1,"Instruments",2,4,"right","left",0.536999941,0,0,1,0,162,2,1,0.3,2,"stim/23.jpeg",2,3,"stim/23.jpeg",4,"left",0.999000072,4,4,2.404999733,4,1.754999876,162,1,0,0,1,1,1
"329","stim/objects/HouseObjects/flyswatter.png",371,2,364,0.9,"stim/41.jpeg",4,1,3,2,"HouseObjects",1,1,"left","left",0.703999996,1,1,1,0,NA,NA,NA,NA,NA,NA,NA,NA,NA,NA,NA,NA,NA,NA,NA,NA,NA,NA,NA,NA,NA,NA,NA,NA
"272","stim/objects/HouseObjects/clothesdryingrack.png",372,2,365,0.7,"stim/22.jpeg",2,2,2,2,"HouseObjects",1,1,"left","left",0.436999798,1,1,1,0,NA,NA,NA,NA,NA,NA,NA,NA,NA,NA,NA,NA,NA,NA,NA,NA,NA,NA,NA,NA,NA,NA,NA,NA
"280","stim/objects/HouseObjects/coffee.png",373,2,366,0.7,"stim/21.jpeg",2,1,2,2,"HouseObjects",1,3,"left","left",0.549000025,1,1,1,0,NA,NA,NA,NA,NA,NA,NA,NA,NA,NA,NA,NA,NA,NA,NA,NA,NA,NA,NA,NA,NA,NA,NA,NA
"430","stim/objects/Instruments/clarinet.png",374,2,367,0.5,"stim/61.jpeg",6,1,1,2,"Instruments",2,4,"right","right",0.588999987,1,1,1,0,NA,NA,NA,NA,NA,NA,NA,NA,NA,NA,NA,NA,NA,NA,NA,NA,NA,NA,NA,NA,NA,NA,NA,NA
"453","stim/objects/Instruments/electricguitar.png",375,2,368,0.7,"stim/11.jpeg",1,1,2,2,"Instruments",2,2,"right","right",0.539999962,1,1,1,0,NA,NA,NA,NA,NA,NA,NA,NA,NA,NA,NA,NA,NA,NA,NA,NA,NA,NA,NA,NA,NA,NA,NA,NA
"409","stim/objects/Instruments/acousticguitar.png",376,2,369,0.5,"stim/52.jpeg",5,2,1,2,"Instruments",2,1,"right","right",0.595999956,1,1,1,0,NA,NA,NA,NA,NA,NA,NA,NA,NA,NA,NA,NA,NA,NA,NA,NA,NA,NA,NA,NA,NA,NA,NA,NA
"554","stim/objects/Instruments/tambourine2.png",377,2,370,0.1,"stim/44.jpeg",4,4,3,1,"Instruments",2,4,"right","left",0.58100009,0,0,1,0,118,2,1,0.1,2,"stim/44.jpeg",4,4,"stim/44.jpeg",4,"left",0.997999907,4,4,2.306999922,3,0.506000042,118,1,1,1,0,0,1
"490","stim/objects/Instruments/frenchhorn.png",378,2,371,0.9,"stim/34.jpeg",3,4,3,2,"Instruments",2,2,"right","right",0.473999977,1,1,1,0,NA,NA,NA,NA,NA,NA,NA,NA,NA,NA,NA,NA,NA,NA,NA,NA,NA,NA,NA,NA,NA,NA,NA,NA
"555","stim/objects/Instruments/timbal.png",379,2,372,0.5,"stim/62.jpeg",6,2,1,1,"Instruments",2,4,"right","left",0.496999979,0,0,1,0,142,2,1,0.5,2,"stim/62.jpeg",6,2,"stim/62.jpeg",4,"right",0.768999815,3,3,1.482000113,1,0.850000143,142,0,0,NA,0,NA,1
"506","stim/objects/Instruments/frenchhorn2.png",380,2,373,0.9,"stim/31.jpeg",3,1,3,1,"Instruments",2,1,"right","right",0.559000015,1,1,1,0,109,2,1,0.9,2,"stim/31.jpeg",3,1,"stim/31.jpeg",1,"left",1.203999996,4,3,1.808000088,3,1.230000019,109,1,0,0,0,0,1
"546","stim/objects/Instruments/harp2.png",381,2,374,0.9,"stim/32.jpeg",3,2,3,1,"Instruments",2,1,"right","right",0.471999884,1,1,1,0,47,2,1,0.9,2,"stim/32.jpeg",3,2,"stim/32.jpeg",1,"left",0.861999989,2,4,2.191999912,4,0.620999813,47,1,0,0,0,0,1
"387","stim/objects/HouseObjects/saw2.png",382,2,375,0.9,"stim/41.jpeg",4,1,3,1,"HouseObjects",1,3,"left","left",0.516000032,1,1,1,0,45,2,1,0.9,1,"stim/41.jpeg",4,1,"stim/41.jpeg",3,"right",1.901000023,2,3,0.933000088,2,0.89199996,45,0,0,NA,0,NA,1
"545","stim/objects/Instruments/harp.png",383,2,376,0.5,"stim/54.jpeg",5,4,1,1,"Instruments",2,4,"right","right",0.6650002,1,1,1,0,55,2,1,0.5,1,"stim/54.jpeg",5,4,"stim/54.jpeg",4,"left",1.013999939,3,4,2.704999924,4,0.831999779,55,1,1,1,1,1,1
"406","stim/objects/Instruments/accordion.png",384,2,377,0.5,"stim/54.jpeg",5,4,1,2,"Instruments",2,4,"right","right",0.552000046,1,1,1,0,NA,NA,NA,NA,NA,NA,NA,NA,NA,NA,NA,NA,NA,NA,NA,NA,NA,NA,NA,NA,NA,NA,NA,NA
"273","stim/objects/HouseObjects/clothesdryingrack.png",385,2,378,0.7,"stim/23.jpeg",2,3,2,2,"HouseObjects",1,4,"left","left",0.542000055,1,1,1,0,NA,NA,NA,NA,NA,NA,NA,NA,NA,NA,NA,NA,NA,NA,NA,NA,NA,NA,NA,NA,NA,NA,NA,NA
"366","stim/objects/HouseObjects/glass.png",386,2,379,0.9,"stim/44.jpeg",4,4,3,2,"HouseObjects",1,3,"left","left",0.585999966,1,1,1,0,NA,NA,NA,NA,NA,NA,NA,NA,NA,NA,NA,NA,NA,NA,NA,NA,NA,NA,NA,NA,NA,NA,NA,NA
"397","stim/objects/HouseObjects/thermometer2.png",387,2,380,0.9,"stim/42.jpeg",4,2,3,1,"HouseObjects",1,1,"left","left",0.691999912,1,1,1,0,32,2,1,0.9,1,"stim/42.jpeg",4,2,"stim/42.jpeg",1,"left",0.848999739,4,2,1.20600009,1,1.180999994,32,1,1,1,1,1,1
"482","stim/objects/Instruments/flutetrans.png",388,2,381,0.9,"stim/31.jpeg",3,1,3,2,"Instruments",2,3,"right","right",0.578999996,1,1,1,0,NA,NA,NA,NA,NA,NA,NA,NA,NA,NA,NA,NA,NA,NA,NA,NA,NA,NA,NA,NA,NA,NA,NA,NA
"248","stim/objects/HouseObjects/barbecuelighter.png",389,2,382,0.5,"stim/53.jpeg",5,3,1,2,"HouseObjects",1,1,"left","",NA,0,0,1,0,NA,NA,NA,NA,NA,NA,NA,NA,NA,NA,NA,NA,NA,NA,NA,NA,NA,NA,NA,NA,NA,NA,NA,NA
"516","stim/objects/Instruments/gong.png",390,2,383,0.9,"stim/34.jpeg",3,4,3,2,"Instruments",2,1,"right","right",0.487999916,1,1,1,0,NA,NA,NA,NA,NA,NA,NA,NA,NA,NA,NA,NA,NA,NA,NA,NA,NA,NA,NA,NA,NA,NA,NA,NA
"281","stim/objects/HouseObjects/coffee.png",391,2,384,0.7,"stim/24.jpeg",2,4,2,2,"HouseObjects",1,4,"left","left",0.713999987,1,1,1,0,NA,NA,NA,NA,NA,NA,NA,NA,NA,NA,NA,NA,NA,NA,NA,NA,NA,NA,NA,NA,NA,NA,NA,NA
"532","stim/objects/Instruments/grandpiano.png",392,2,385,0.9,"stim/31.jpeg",3,1,3,2,"Instruments",2,2,"right","right",0.526000023,1,1,1,0,NA,NA,NA,NA,NA,NA,NA,NA,NA,NA,NA,NA,NA,NA,NA,NA,NA,NA,NA,NA,NA,NA,NA,NA
"517","stim/objects/Instruments/gong.png",393,2,386,0.9,"stim/33.jpeg",3,3,3,2,"Instruments",2,2,"right","right",0.47300005,1,1,1,0,NA,NA,NA,NA,NA,NA,NA,NA,NA,NA,NA,NA,NA,NA,NA,NA,NA,NA,NA,NA,NA,NA,NA,NA
"400","stim/objects/HouseObjects/towel.png",394,2,387,0.3,"stim/13.jpeg",1,3,2,1,"HouseObjects",1,1,"left","right",0.566999912,0,0,1,0,92,2,1,0.3,1,"stim/13.jpeg",1,3,"stim/13.jpeg",1,"left",1.896999836,2,4,1.56799984,1,1.799999952,92,1,0,0,1,1,1
"301","stim/objects/HouseObjects/doormat.png",395,2,388,0.9,"stim/44.jpeg",4,4,3,2,"HouseObjects",1,2,"left","right",0.609999895,0,0,1,0,NA,NA,NA,NA,NA,NA,NA,NA,NA,NA,NA,NA,NA,NA,NA,NA,NA,NA,NA,NA,NA,NA,NA,NA
"465","stim/objects/Instruments/flute.png",396,2,389,0.9,"stim/34.jpeg",3,4,3,2,"Instruments",2,1,"right","right",0.525000095,1,1,1,0,NA,NA,NA,NA,NA,NA,NA,NA,NA,NA,NA,NA,NA,NA,NA,NA,NA,NA,NA,NA,NA,NA,NA,NA
"492","stim/objects/Instruments/frenchhorn.png",397,2,390,0.9,"stim/32.jpeg",3,2,3,2,"Instruments",2,2,"right","right",0.53399992,1,1,1,0,NA,NA,NA,NA,NA,NA,NA,NA,NA,NA,NA,NA,NA,NA,NA,NA,NA,NA,NA,NA,NA,NA,NA,NA
"455","stim/objects/Instruments/electricguitar2.png",398,2,391,0.3,"stim/23.jpeg",2,3,2,1,"Instruments",2,1,"right","left",0.430000067,0,0,1,0,108,2,1,0.3,2,"stim/23.jpeg",2,3,"stim/23.jpeg",1,"left",2.905999899,3,1,1.024999857,1,0.622999907,108,1,0,0,1,1,1
"533","stim/objects/Instruments/grandpiano.png",399,2,392,0.9,"stim/34.jpeg",3,4,3,2,"Instruments",2,4,"right","right",0.457999945,1,1,1,0,NA,NA,NA,NA,NA,NA,NA,NA,NA,NA,NA,NA,NA,NA,NA,NA,NA,NA,NA,NA,NA,NA,NA,NA
"399","stim/objects/HouseObjects/thread2.png",400,2,393,0.9,"stim/43.jpeg",4,3,3,1,"HouseObjects",1,3,"left","left",0.506999969,1,1,1,0,184,2,1,0.9,1,"stim/43.jpeg",4,3,"stim/43.jpeg",3,"right",0.731999874,1,2,1.020999908,3,1.18599987,184,0,0,NA,1,NA,1
"388","stim/objects/HouseObjects/scale.png",401,2,394,0.5,"stim/62.jpeg",6,2,1,1,"HouseObjects",1,2,"left","left",0.485000134,1,1,1,0,148,2,1,0.5,2,"stim/62.jpeg",6,2,"stim/62.jpeg",2,"right",0.657999992,3,3,0.924999952,3,0.296000004,148,0,0,NA,0,NA,1
"269","stim/objects/HouseObjects/clock.png",402,2,395,0.5,"stim/63.jpeg",6,3,1,2,"HouseObjects",1,4,"left","right",0.684000015,0,0,1,0,NA,NA,NA,NA,NA,NA,NA,NA,NA,NA,NA,NA,NA,NA,NA,NA,NA,NA,NA,NA,NA,NA,NA,NA
"413","stim/objects/Instruments/balalaika.png",403,2,396,0.5,"stim/52.jpeg",5,2,1,2,"Instruments",2,2,"right","left",0.476999998,0,0,1,0,NA,NA,NA,NA,NA,NA,NA,NA,NA,NA,NA,NA,NA,NA,NA,NA,NA,NA,NA,NA,NA,NA,NA,NA
"501","stim/objects/Instruments/frenchhorn.png",404,2,397,0.9,"stim/34.jpeg",3,4,3,2,"Instruments",2,1,"right","right",0.524000168,1,1,1,0,NA,NA,NA,NA,NA,NA,NA,NA,NA,NA,NA,NA,NA,NA,NA,NA,NA,NA,NA,NA,NA,NA,NA,NA
"451","stim/objects/Instruments/electricdrumset2.png",405,2,398,0.3,"stim/22.jpeg",2,2,2,1,"Instruments",2,2,"right","left",0.491000175,0,0,1,0,63,2,1,0.3,2,"stim/22.jpeg",2,2,"stim/22.jpeg",2,"left",0.709000111,4,1,3.519999981,4,0.731999874,63,1,0,0,0,0,1
"254","stim/objects/HouseObjects/bleachbottle.png",406,2,399,0.5,"stim/51.jpeg",5,1,1,2,"HouseObjects",1,4,"left","right",0.532999992,0,0,1,0,NA,NA,NA,NA,NA,NA,NA,NA,NA,NA,NA,NA,NA,NA,NA,NA,NA,NA,NA,NA,NA,NA,NA,NA
"395","stim/objects/HouseObjects/teapot2.png",407,2,400,0.9,"stim/41.jpeg",4,1,3,1,"HouseObjects",1,4,"left","left",0.566999912,1,1,1,0,103,2,1,0.9,1,"stim/41.jpeg",4,1,"stim/41.jpeg",4,"right",0.607000113,1,4,3.690000057,2,0.805999994,103,0,0,NA,0,NA,1
"423","stim/objects/Instruments/bassguitar2.png",408,2,401,0.3,"stim/22.jpeg",2,2,2,1,"Instruments",2,4,"right","left",0.464999914,0,0,1,0,176,2,1,0.3,2,"stim/22.jpeg",2,2,"stim/22.jpeg",4,"right",0.756999731,3,2,1.882999897,3,0.580999851,176,0,1,NA,0,NA,1
"489","stim/objects/Instruments/flutetrans2.png",409,2,402,0.9,"stim/34.jpeg",3,4,3,1,"Instruments",2,4,"right","left",0.49000001,0,0,1,0,28,2,1,0.9,2,"stim/34.jpeg",3,4,"stim/34.jpeg",4,"left",1.022000074,4,1,4.90199995,3,1.187000036,28,1,0,0,0,0,1
"318","stim/objects/HouseObjects/dustpan.png",410,2,403,0.9,"stim/41.jpeg",4,1,3,2,"HouseObjects",1,2,"left","left",0.719000101,1,1,1,0,NA,NA,NA,NA,NA,NA,NA,NA,NA,NA,NA,NA,NA,NA,NA,NA,NA,NA,NA,NA,NA,NA,NA,NA
"527","stim/objects/Instruments/grandpiano.png",411,2,404,0.9,"stim/32.jpeg",3,2,3,2,"Instruments",2,1,"right","right",0.56400013,1,1,1,0,NA,NA,NA,NA,NA,NA,NA,NA,NA,NA,NA,NA,NA,NA,NA,NA,NA,NA,NA,NA,NA,NA,NA,NA
"394","stim/objects/HouseObjects/teapot.png",412,2,405,0.5,"stim/61.jpeg",6,1,1,1,"HouseObjects",1,1,"left","right",0.642000198,0,0,1,0,175,2,1,0.5,2,"stim/61.jpeg",6,1,"stim/61.jpeg",1,"left",0.970999956,4,1,2.535000086,1,0.453999758,175,1,1,1,1,1,1
"436","stim/objects/Instruments/cymbal.png",413,2,406,0.7,"stim/14.jpeg",1,4,2,2,"Instruments",2,2,"right","right",0.582999945,1,1,1,0,NA,NA,NA,NA,NA,NA,NA,NA,NA,NA,NA,NA,NA,NA,NA,NA,NA,NA,NA,NA,NA,NA,NA,NA
"255","stim/objects/HouseObjects/bleachbottle2.png",414,2,407,0.3,"stim/12.jpeg",1,2,2,1,"HouseObjects",1,4,"left","right",0.55099988,0,0,1,0,136,2,1,0.3,1,"stim/12.jpeg",1,2,"stim/12.jpeg",4,"right",0.592000008,4,1,1.256000042,1,0.220999956,136,0,0,NA,0,NA,1
"315","stim/objects/HouseObjects/dustpan.png",415,2,408,0.9,"stim/43.jpeg",4,3,3,2,"HouseObjects",1,2,"left","left",0.600999832,1,1,1,0,NA,NA,NA,NA,NA,NA,NA,NA,NA,NA,NA,NA,NA,NA,NA,NA,NA,NA,NA,NA,NA,NA,NA,NA
"556","stim/objects/Instruments/timbal2.png",416,2,409,0.1,"stim/41.jpeg",4,1,3,1,"Instruments",2,1,"right","left",0.510999918,0,0,1,0,131,2,1,0.1,2,"stim/41.jpeg",4,1,"stim/41.jpeg",1,"left",1.03399992,4,4,2.481999874,2,0.727999926,131,1,0,0,0,0,1
"483","stim/objects/Instruments/flutetrans.png",417,2,410,0.9,"stim/34.jpeg",3,4,3,2,"Instruments",2,4,"right","right",0.497999907,1,1,1,0,NA,NA,NA,NA,NA,NA,NA,NA,NA,NA,NA,NA,NA,NA,NA,NA,NA,NA,NA,NA,NA,NA,NA,NA
"350","stim/objects/HouseObjects/garbagebin.png",418,2,411,0.9,"stim/42.jpeg",4,2,3,2,"HouseObjects",1,1,"left","left",0.909999847,1,1,1,0,NA,NA,NA,NA,NA,NA,NA,NA,NA,NA,NA,NA,NA,NA,NA,NA,NA,NA,NA,NA,NA,NA,NA,NA
"283","stim/objects/HouseObjects/cushion.png",419,2,412,0.7,"stim/21.jpeg",2,1,2,2,"HouseObjects",1,2,"left","left",0.697000027,1,1,1,0,NA,NA,NA,NA,NA,NA,NA,NA,NA,NA,NA,NA,NA,NA,NA,NA,NA,NA,NA,NA,NA,NA,NA,NA
"265","stim/objects/HouseObjects/bucket.png",420,2,413,0.5,"stim/62.jpeg",6,2,1,2,"HouseObjects",1,4,"left","left",0.627000093,1,1,1,0,NA,NA,NA,NA,NA,NA,NA,NA,NA,NA,NA,NA,NA,NA,NA,NA,NA,NA,NA,NA,NA,NA,NA,NA
"530","stim/objects/Instruments/grandpiano.png",421,2,414,0.9,"stim/34.jpeg",3,4,3,2,"Instruments",2,4,"right","right",0.487999916,1,1,1,0,NA,NA,NA,NA,NA,NA,NA,NA,NA,NA,NA,NA,NA,NA,NA,NA,NA,NA,NA,NA,NA,NA,NA,NA
"541","stim/objects/Instruments/guitarcase.png",422,2,415,0.5,"stim/52.jpeg",5,2,1,1,"Instruments",2,3,"right","right",0.675000191,1,1,1,0,14,2,1,0.5,1,"stim/52.jpeg",5,2,"stim/52.jpeg",3,"left",0.791999817,4,2,5.936999798,4,1.316999912,14,1,1,1,0,0,1
"294","stim/objects/HouseObjects/doormat.png",423,2,416,0.9,"stim/41.jpeg",4,1,3,2,"HouseObjects",1,2,"left","left",0.519999981,1,1,1,0,NA,NA,NA,NA,NA,NA,NA,NA,NA,NA,NA,NA,NA,NA,NA,NA,NA,NA,NA,NA,NA,NA,NA,NA
"362","stim/objects/HouseObjects/glass.png",424,2,417,0.9,"stim/42.jpeg",4,2,3,2,"HouseObjects",1,2,"left","left",0.520999908,1,1,1,0,NA,NA,NA,NA,NA,NA,NA,NA,NA,NA,NA,NA,NA,NA,NA,NA,NA,NA,NA,NA,NA,NA,NA,NA
"336","stim/objects/HouseObjects/flyswatter.png",425,2,418,0.9,"stim/44.jpeg",4,4,3,2,"HouseObjects",1,3,"left","left",0.720999956,1,1,1,0,NA,NA,NA,NA,NA,NA,NA,NA,NA,NA,NA,NA,NA,NA,NA,NA,NA,NA,NA,NA,NA,NA,NA,NA
"441","stim/objects/Instruments/doublebass.png",426,2,419,0.7,"stim/14.jpeg",1,4,2,2,"Instruments",2,4,"right","left",0.485999823,0,0,1,0,NA,NA,NA,NA,NA,NA,NA,NA,NA,NA,NA,NA,NA,NA,NA,NA,NA,NA,NA,NA,NA,NA,NA,NA
"542","stim/objects/Instruments/guitarcase2.png",427,2,420,0.9,"stim/34.jpeg",3,4,3,1,"Instruments",2,4,"right","right",0.41899991,1,1,1,0,93,2,1,0.9,2,"stim/34.jpeg",3,4,"stim/34.jpeg",4,"left",0.826999903,4,4,2.485000134,4,0.39199996,93,1,1,1,1,1,1
"405","stim/objects/HouseObjects/wateringcan2.png",428,2,421,0.9,"stim/42.jpeg",4,2,3,1,"HouseObjects",1,4,"left","left",0.63499999,1,1,1,0,149,2,1,0.9,1,"stim/42.jpeg",4,2,"stim/42.jpeg",4,"right",0.661999941,3,3,0.495999813,3,0.400999784,149,0,0,NA,0,NA,1
"477","stim/objects/Instruments/flutetrans.png",429,2,422,0.9,"stim/33.jpeg",3,3,3,2,"Instruments",2,2,"right","right",0.494999886,1,1,1,0,NA,NA,NA,NA,NA,NA,NA,NA,NA,NA,NA,NA,NA,NA,NA,NA,NA,NA,NA,NA,NA,NA,NA,NA
"424","stim/objects/Instruments/cello.png",430,2,423,0.5,"stim/63.jpeg",6,3,1,2,"Instruments",2,1,"right","left",0.60800004,0,0,1,0,NA,NA,NA,NA,NA,NA,NA,NA,NA,NA,NA,NA,NA,NA,NA,NA,NA,NA,NA,NA,NA,NA,NA,NA
"484","stim/objects/Instruments/flutetrans.png",431,2,424,0.9,"stim/31.jpeg",3,1,3,2,"Instruments",2,3,"right","right",0.625999928,1,1,1,0,NA,NA,NA,NA,NA,NA,NA,NA,NA,NA,NA,NA,NA,NA,NA,NA,NA,NA,NA,NA,NA,NA,NA,NA
"251","stim/objects/HouseObjects/basket.png",432,2,425,0.5,"stim/54.jpeg",5,4,1,2,"HouseObjects",1,1,"left","right",0.686999798,0,0,1,0,NA,NA,NA,NA,NA,NA,NA,NA,NA,NA,NA,NA,NA,NA,NA,NA,NA,NA,NA,NA,NA,NA,NA,NA
"353","stim/objects/HouseObjects/garbagebin.png",433,2,426,0.9,"stim/42.jpeg",4,2,3,2,"HouseObjects",1,2,"left","left",0.536999941,1,1,1,0,NA,NA,NA,NA,NA,NA,NA,NA,NA,NA,NA,NA,NA,NA,NA,NA,NA,NA,NA,NA,NA,NA,NA,NA
"335","stim/objects/HouseObjects/flyswatter.png",434,2,427,0.9,"stim/41.jpeg",4,1,3,2,"HouseObjects",1,1,"left","left",0.534000158,1,1,1,0,NA,NA,NA,NA,NA,NA,NA,NA,NA,NA,NA,NA,NA,NA,NA,NA,NA,NA,NA,NA,NA,NA,NA,NA
"565","stim/objects/Instruments/violin.png",435,2,428,0.7,"stim/14.jpeg",1,4,2,1,"Instruments",2,2,"right","right",0.590999842,1,1,1,0,29,2,1,0.7,2,"stim/14.jpeg",1,4,"stim/14.jpeg",2,"left",2.299000025,3,3,1.501999855,2,0.680000067,29,1,0,0,1,1,1
"295","stim/objects/HouseObjects/doormat.png",436,2,429,0.9,"stim/43.jpeg",4,3,3,2,"HouseObjects",1,4,"left","left",0.61500001,1,1,1,0,NA,NA,NA,NA,NA,NA,NA,NA,NA,NA,NA,NA,NA,NA,NA,NA,NA,NA,NA,NA,NA,NA,NA,NA
"403","stim/objects/HouseObjects/vacuumcleaner2.png",437,2,430,0.9,"stim/41.jpeg",4,1,3,1,"HouseObjects",1,2,"left","left",0.606999874,1,1,1,0,112,2,1,0.9,1,"stim/41.jpeg",4,1,"stim/41.jpeg",2,"right",0.921999931,4,3,1.149999857,3,0.506999969,112,0,0,NA,0,NA,1
"469","stim/objects/Instruments/flute.png",438,2,431,0.9,"stim/32.jpeg",3,2,3,2,"Instruments",2,2,"right","right",0.614000082,1,1,1,0,NA,NA,NA,NA,NA,NA,NA,NA,NA,NA,NA,NA,NA,NA,NA,NA,NA,NA,NA,NA,NA,NA,NA,NA
"570","stim/objects/Instruments/xylophone2.png",439,2,432,0.1,"stim/44.jpeg",4,4,3,1,"Instruments",2,2,"right","left",0.569000006,0,0,1,0,54,2,1,0.1,2,"stim/44.jpeg",4,4,"stim/44.jpeg",2,"left",1.733999729,2,2,1.703999758,2,1.590999842,54,1,0,0,1,1,1
"364","stim/objects/HouseObjects/glass.png",440,2,433,0.9,"stim/43.jpeg",4,3,3,2,"HouseObjects",1,4,"left","left",0.460000038,1,1,1,0,NA,NA,NA,NA,NA,NA,NA,NA,NA,NA,NA,NA,NA,NA,NA,NA,NA,NA,NA,NA,NA,NA,NA,NA
"321","stim/objects/HouseObjects/dustpan.png",441,2,434,0.9,"stim/44.jpeg",4,4,3,2,"HouseObjects",1,3,"left","left",0.45600009,1,1,1,0,NA,NA,NA,NA,NA,NA,NA,NA,NA,NA,NA,NA,NA,NA,NA,NA,NA,NA,NA,NA,NA,NA,NA,NA
"431","stim/objects/Instruments/clarinet.png",442,2,435,0.5,"stim/62.jpeg",6,2,1,2,"Instruments",2,2,"right","",NA,0,0,1,0,NA,NA,NA,NA,NA,NA,NA,NA,NA,NA,NA,NA,NA,NA,NA,NA,NA,NA,NA,NA,NA,NA,NA,NA
"355","stim/objects/HouseObjects/garbagebin.png",443,2,436,0.9,"stim/44.jpeg",4,4,3,2,"HouseObjects",1,3,"left","left",0.519000053,1,1,1,0,NA,NA,NA,NA,NA,NA,NA,NA,NA,NA,NA,NA,NA,NA,NA,NA,NA,NA,NA,NA,NA,NA,NA,NA
"356","stim/objects/HouseObjects/garbagebin.png",444,2,437,0.9,"stim/43.jpeg",4,3,3,2,"HouseObjects",1,2,"left","left",0.542999983,1,1,1,0,NA,NA,NA,NA,NA,NA,NA,NA,NA,NA,NA,NA,NA,NA,NA,NA,NA,NA,NA,NA,NA,NA,NA,NA
"426","stim/objects/Instruments/cello2.png",445,2,438,0.3,"stim/23.jpeg",2,3,2,1,"Instruments",2,3,"right","left",0.470999956,0,0,1,0,116,2,1,0.3,2,"stim/23.jpeg",2,3,"stim/23.jpeg",3,"right",3.419999838,2,4,1.754999876,2,0.607000113,116,0,0,NA,0,NA,1
"338","stim/objects/HouseObjects/flyswatter.png",446,2,439,0.9,"stim/42.jpeg",4,2,3,2,"HouseObjects",1,2,"left","left",0.648000002,1,1,1,0,NA,NA,NA,NA,NA,NA,NA,NA,NA,NA,NA,NA,NA,NA,NA,NA,NA,NA,NA,NA,NA,NA,NA,NA
"317","stim/objects/HouseObjects/dustpan.png",447,2,440,0.9,"stim/42.jpeg",4,2,3,2,"HouseObjects",1,1,"left","left",0.514999866,1,1,1,0,NA,NA,NA,NA,NA,NA,NA,NA,NA,NA,NA,NA,NA,NA,NA,NA,NA,NA,NA,NA,NA,NA,NA,NA
"454","stim/objects/Instruments/electricguitar.png",448,2,441,0.7,"stim/13.jpeg",1,3,2,2,"Instruments",2,2,"right","",NA,0,0,1,0,NA,NA,NA,NA,NA,NA,NA,NA,NA,NA,NA,NA,NA,NA,NA,NA,NA,NA,NA,NA,NA,NA,NA,NA
"297","stim/objects/HouseObjects/doormat.png",449,2,442,0.9,"stim/43.jpeg",4,3,3,2,"HouseObjects",1,3,"left","left",0.540999889,1,1,1,0,NA,NA,NA,NA,NA,NA,NA,NA,NA,NA,NA,NA,NA,NA,NA,NA,NA,NA,NA,NA,NA,NA,NA,NA
"561","stim/objects/Instruments/trumpet.png",450,2,443,0.7,"stim/12.jpeg",1,2,2,1,"Instruments",2,4,"right","right",0.501999855,1,1,1,0,97,2,1,0.7,2,"stim/12.jpeg",1,2,"stim/12.jpeg",4,"left",1.013000011,3,3,1.314999819,2,0.636999846,97,1,0,0,0,0,1
"282","stim/objects/HouseObjects/coffee2.png",451,2,444,0.7,"stim/23.jpeg",2,3,2,1,"HouseObjects",1,2,"left","left",0.506000042,1,1,1,0,21,2,1,0.7,1,"stim/23.jpeg",2,3,"stim/23.jpeg",2,"left",0.770999908,3,4,3.09800005,3,1.666000128,21,1,0,0,0,0,1
"379","stim/objects/HouseObjects/hairdryer2.png",452,2,445,0.1,"stim/33.jpeg",3,3,3,1,"HouseObjects",1,3,"left","right",0.568000078,0,0,1,0,7,2,1,0.1,1,"stim/33.jpeg",3,3,"stim/33.jpeg",3,"left",2.074999809,4,4,2.40899992,3,1.121000051,7,1,0,0,1,1,1
"549","stim/objects/Instruments/saxophone.png",453,2,446,0.5,"stim/52.jpeg",5,2,1,1,"Instruments",2,2,"right","left",0.460000038,0,0,1,0,164,2,1,0.5,1,"stim/52.jpeg",5,2,"stim/52.jpeg",2,"left",0.737999916,2,1,1.078000069,4,1.710000038,164,1,0,0,0,0,1
"445","stim/objects/Instruments/drums.png",454,2,447,0.7,"stim/12.jpeg",1,2,2,2,"Instruments",2,4,"right","right",0.558000088,1,1,1,0,NA,NA,NA,NA,NA,NA,NA,NA,NA,NA,NA,NA,NA,NA,NA,NA,NA,NA,NA,NA,NA,NA,NA,NA
"518","stim/objects/Instruments/gong.png",455,2,448,0.9,"stim/33.jpeg",3,3,3,2,"Instruments",2,3,"right","right",0.486000061,1,1,1,0,NA,NA,NA,NA,NA,NA,NA,NA,NA,NA,NA,NA,NA,NA,NA,NA,NA,NA,NA,NA,NA,NA,NA,NA
"563","stim/objects/Instruments/tuba.png",456,2,449,0.7,"stim/13.jpeg",1,3,2,1,"Instruments",2,3,"right","right",0.467999935,1,1,1,0,180,2,1,0.7,2,"stim/13.jpeg",1,3,"stim/13.jpeg",3,"right",0.858999968,3,4,0.982999802,4,0.405999899,180,0,0,NA,0,NA,1
"298","stim/objects/HouseObjects/doormat.png",457,2,450,0.9,"stim/43.jpeg",4,3,3,2,"HouseObjects",1,1,"left","left",0.63499999,1,1,1,0,NA,NA,NA,NA,NA,NA,NA,NA,NA,NA,NA,NA,NA,NA,NA,NA,NA,NA,NA,NA,NA,NA,NA,NA
"449","stim/objects/Instruments/electricdrumset.png",458,2,451,0.7,"stim/14.jpeg",1,4,2,2,"Instruments",2,2,"right","",NA,0,0,1,0,NA,NA,NA,NA,NA,NA,NA,NA,NA,NA,NA,NA,NA,NA,NA,NA,NA,NA,NA,NA,NA,NA,NA,NA
"569","stim/objects/Instruments/xylophone.png",459,2,452,0.7,"stim/12.jpeg",1,2,2,1,"Instruments",2,3,"right","right",0.465999842,1,1,1,0,89,2,1,0.7,2,"stim/12.jpeg",1,2,"stim/12.jpeg",3,"right",1.013999939,4,3,1.427999735,2,0.514999866,89,0,0,NA,0,NA,1
"334","stim/objects/HouseObjects/flyswatter.png",460,2,453,0.9,"stim/44.jpeg",4,4,3,2,"HouseObjects",1,2,"left","left",0.433000088,1,1,1,0,NA,NA,NA,NA,NA,NA,NA,NA,NA,NA,NA,NA,NA,NA,NA,NA,NA,NA,NA,NA,NA,NA,NA,NA
"286","stim/objects/HouseObjects/cushion2.png",461,2,454,0.7,"stim/24.jpeg",2,4,2,1,"HouseObjects",1,4,"left","left",0.534999847,1,1,1,0,57,2,1,0.7,1,"stim/24.jpeg",2,4,"stim/24.jpeg",4,"right",1.33100009,2,2,3.199999809,3,1.515999794,57,0,0,NA,0,NA,1
"368","stim/objects/HouseObjects/glass.png",462,2,455,0.9,"stim/42.jpeg",4,2,3,2,"HouseObjects",1,2,"left","left",0.492999792,1,1,1,0,NA,NA,NA,NA,NA,NA,NA,NA,NA,NA,NA,NA,NA,NA,NA,NA,NA,NA,NA,NA,NA,NA,NA,NA
"464","stim/objects/Instruments/flute.png",463,2,456,0.9,"stim/34.jpeg",3,4,3,2,"Instruments",2,2,"right","right",0.536000013,1,1,1,0,NA,NA,NA,NA,NA,NA,NA,NA,NA,NA,NA,NA,NA,NA,NA,NA,NA,NA,NA,NA,NA,NA,NA,NA
"302","stim/objects/HouseObjects/doormat.png",464,2,457,0.9,"stim/41.jpeg",4,1,3,2,"HouseObjects",1,4,"left","left",0.636000156,1,1,1,0,NA,NA,NA,NA,NA,NA,NA,NA,NA,NA,NA,NA,NA,NA,NA,NA,NA,NA,NA,NA,NA,NA,NA,NA
"435","stim/objects/Instruments/cornet2.png",465,2,458,0.3,"stim/22.jpeg",2,2,2,1,"Instruments",2,4,"right","left",0.53399992,0,0,1,0,86,2,1,0.3,2,"stim/22.jpeg",2,2,"stim/22.jpeg",4,"left",1.582999945,1,2,1.745999813,2,0.554000139,86,1,1,1,0,0,1
"537","stim/objects/Instruments/grandpiano.png",466,2,459,0.9,"stim/34.jpeg",3,4,3,2,"Instruments",2,1,"right","right",0.607000113,1,1,1,0,NA,NA,NA,NA,NA,NA,NA,NA,NA,NA,NA,NA,NA,NA,NA,NA,NA,NA,NA,NA,NA,NA,NA,NA
"337","stim/objects/HouseObjects/flyswatter.png",467,2,460,0.9,"stim/44.jpeg",4,4,3,2,"HouseObjects",1,3,"left","left",0.585999966,1,1,1,0,NA,NA,NA,NA,NA,NA,NA,NA,NA,NA,NA,NA,NA,NA,NA,NA,NA,NA,NA,NA,NA,NA,NA,NA
"486","stim/objects/Instruments/flutetrans.png",468,2,461,0.9,"stim/32.jpeg",3,2,3,2,"Instruments",2,1,"right","right",0.464999914,1,1,1,0,NA,NA,NA,NA,NA,NA,NA,NA,NA,NA,NA,NA,NA,NA,NA,NA,NA,NA,NA,NA,NA,NA,NA,NA
"257","stim/objects/HouseObjects/blender.png",469,2,462,0.5,"stim/64.jpeg",6,4,1,2,"HouseObjects",1,1,"left","left",0.697000027,1,1,1,0,NA,NA,NA,NA,NA,NA,NA,NA,NA,NA,NA,NA,NA,NA,NA,NA,NA,NA,NA,NA,NA,NA,NA,NA
