"","participant","trialN","trial_cond","scn_file","scn_cat","scn_inst","scn_condition","fillers","obj_cat","obj_cat_num","obj_file","quadrant","corr_ans","key_resp_trial.keys","key_resp_trial.rt","trial_acc","trial_acc_manual","group"
"248",2,241,0.9,"stim/43.jpeg",4,3,3,2,"HouseObjects",1,"stim/objects/HouseObjects/flyswatter.png",1,"left","left",0.65199995,1,1,1
"249",2,242,0.9,"stim/43.jpeg",4,3,3,2,"HouseObjects",1,"stim/objects/HouseObjects/dustpan.png",4,"left","left",0.511999846,1,1,1
"250",2,243,0.9,"stim/43.jpeg",4,3,3,2,"HouseObjects",1,"stim/objects/HouseObjects/glass.png",2,"left","left",0.479000092,1,1,1
"251",2,244,0.9,"stim/34.jpeg",3,4,3,2,"Instruments",2,"stim/objects/Instruments/flutetrans.png",4,"right","",NA,0,0,1
"252",2,245,0.9,"stim/33.jpeg",3,3,3,2,"Instruments",2,"stim/objects/Instruments/flutetrans.png",3,"right","right",0.529000044,1,1,1
"253",2,246,0.3,"stim/11.jpeg",1,1,2,1,"HouseObjects",1,"stim/objects/HouseObjects/basket2.png",2,"left","right",0.559000015,0,0,1
"254",2,247,0.9,"stim/33.jpeg",3,3,3,2,"Instruments",2,"stim/objects/Instruments/gong.png",2,"right","right",0.427999973,1,1,1
"255",2,248,0.9,"stim/31.jpeg",3,1,3,2,"Instruments",2,"stim/objects/Instruments/grandpiano.png",3,"right","right",0.542999983,1,1,1
"256",2,249,0.9,"stim/34.jpeg",3,4,3,2,"Instruments",2,"stim/objects/Instruments/flute.png",4,"right","right",0.390000105,1,1,1
"257",2,250,0.3,"stim/14.jpeg",1,4,2,1,"HouseObjects",1,"stim/objects/HouseObjects/vacuumcleaner.png",1,"left","right",0.483999968,0,0,1
"258",2,251,0.9,"stim/44.jpeg",4,4,3,2,"HouseObjects",1,"stim/objects/HouseObjects/garbagebin.png",1,"left","left",0.498000145,1,1,1
"259",2,252,0.3,"stim/13.jpeg",1,3,2,1,"HouseObjects",1,"stim/objects/HouseObjects/ballofstring2.png",3,"left","right",0.463000059,0,0,1
"260",2,253,0.5,"stim/64.jpeg",6,4,1,2,"HouseObjects",1,"stim/objects/HouseObjects/clock.png",1,"left","left",0.592000008,1,1,1
"261",2,254,0.9,"stim/42.jpeg",4,2,3,2,"HouseObjects",1,"stim/objects/HouseObjects/doormat.png",1,"left","left",0.565000057,1,1,1
"262",2,255,0.7,"stim/21.jpeg",2,1,2,1,"HouseObjects",1,"stim/objects/HouseObjects/clothesdryingrack2.png",3,"left","left",0.427000046,1,1,1
"263",2,256,0.9,"stim/43.jpeg",4,3,3,2,"HouseObjects",1,"stim/objects/HouseObjects/flyswatter.png",4,"left","left",0.588000059,1,1,1
"264",2,257,0.9,"stim/43.jpeg",4,3,3,2,"HouseObjects",1,"stim/objects/HouseObjects/glass.png",1,"left","left",0.464999914,1,1,1
"265",2,258,0.9,"stim/33.jpeg",3,3,3,2,"Instruments",2,"stim/objects/Instruments/flute.png",1,"right","right",0.474999905,1,1,1
"266",2,259,0.5,"stim/53.jpeg",5,3,1,1,"HouseObjects",1,"stim/objects/HouseObjects/safetypin.png",3,"left","right",0.707999945,0,0,1
"267",2,260,0.9,"stim/32.jpeg",3,2,3,2,"Instruments",2,"stim/objects/Instruments/gong.png",1,"right","right",0.493000031,1,1,1
"268",2,261,0.9,"stim/31.jpeg",3,1,3,2,"Instruments",2,"stim/objects/Instruments/flute.png",4,"right","right",0.434000015,1,1,1
"269",2,262,0.7,"stim/11.jpeg",1,1,2,2,"Instruments",2,"stim/objects/Instruments/drums.png",4,"right","right",0.713000059,1,1,1
"270",2,263,0.9,"stim/43.jpeg",4,3,3,2,"HouseObjects",1,"stim/objects/HouseObjects/dustpan.png",4,"left","left",0.687999964,1,1,1
"271",2,264,0.9,"stim/43.jpeg",4,3,3,2,"HouseObjects",1,"stim/objects/HouseObjects/garbagebin.png",3,"left","left",0.541999817,1,1,1
"272",2,265,0.5,"stim/53.jpeg",5,3,1,2,"Instruments",2,"stim/objects/Instruments/balalaika.png",4,"right","right",0.520000219,1,1,1
"273",2,266,0.9,"stim/42.jpeg",4,2,3,2,"HouseObjects",1,"stim/objects/HouseObjects/doormat.png",1,"left","left",0.722000122,1,1,1
"274",2,267,0.5,"stim/51.jpeg",5,1,1,2,"HouseObjects",1,"stim/objects/HouseObjects/basket.png",1,"left","right",0.611000061,0,0,1
"275",2,268,0.7,"stim/12.jpeg",1,2,2,2,"Instruments",2,"stim/objects/Instruments/doublebass.png",1,"right","right",0.527999878,1,1,1
"276",2,269,0.7,"stim/12.jpeg",1,2,2,1,"Instruments",2,"stim/objects/Instruments/banjo2.png",2,"right","right",0.644000053,1,1,1
"277",2,270,0.5,"stim/63.jpeg",6,3,1,2,"Instruments",2,"stim/objects/Instruments/bassguitar.png",4,"right","left",0.559999943,0,0,1
"278",2,271,0.9,"stim/34.jpeg",3,4,3,2,"Instruments",2,"stim/objects/Instruments/gong.png",3,"right","left",0.575000048,0,0,1
"279",2,272,0.9,"stim/41.jpeg",4,1,3,2,"HouseObjects",1,"stim/objects/HouseObjects/garbagebin.png",2,"left","left",0.524999857,1,1,1
"280",2,273,0.5,"stim/52.jpeg",5,2,1,2,"HouseObjects",1,"stim/objects/HouseObjects/bleachbottle.png",1,"left","right",0.532999992,0,0,1
"281",2,274,0.1,"stim/32.jpeg",3,2,3,1,"HouseObjects",1,"stim/objects/HouseObjects/glassmop2.png",3,"left","right",0.544000149,0,0,1
"282",2,275,0.5,"stim/54.jpeg",5,4,1,1,"HouseObjects",1,"stim/objects/HouseObjects/hairdryer.png",3,"left","left",0.663000107,1,1,1
"283",2,276,0.9,"stim/32.jpeg",3,2,3,2,"Instruments",2,"stim/objects/Instruments/flutetrans.png",1,"right","right",0.478999853,1,1,1
"284",2,277,0.9,"stim/44.jpeg",4,4,3,2,"HouseObjects",1,"stim/objects/HouseObjects/flyswatter.png",3,"left","left",0.524999857,1,1,1
"285",2,278,0.9,"stim/34.jpeg",3,4,3,2,"Instruments",2,"stim/objects/Instruments/flutetrans.png",3,"right","right",0.536000013,1,1,1
"286",2,279,0.5,"stim/61.jpeg",6,1,1,2,"Instruments",2,"stim/objects/Instruments/chime.png",3,"right","left",0.513000011,0,0,1
"287",2,280,0.9,"stim/33.jpeg",3,3,3,2,"Instruments",2,"stim/objects/Instruments/grandpiano.png",4,"right","right",0.805999994,1,1,1
"288",2,281,0.9,"stim/32.jpeg",3,2,3,2,"Instruments",2,"stim/objects/Instruments/grandpiano.png",3,"right","right",0.407000065,1,1,1
"289",2,282,0.9,"stim/42.jpeg",4,2,3,2,"HouseObjects",1,"stim/objects/HouseObjects/doormat.png",1,"left","left",0.369999886,1,1,1
"290",2,283,0.9,"stim/32.jpeg",3,2,3,1,"Instruments",2,"stim/objects/Instruments/gong2.png",2,"right","right",0.434000015,1,1,1
"291",2,284,0.9,"stim/32.jpeg",3,2,3,2,"Instruments",2,"stim/objects/Instruments/frenchhorn.png",4,"right","right",0.386999846,1,1,1
"292",2,285,0.7,"stim/21.jpeg",2,1,2,1,"HouseObjects",1,"stim/objects/HouseObjects/dishsoap2.png",4,"left","left",0.51699996,1,1,1
"293",2,286,0.9,"stim/42.jpeg",4,2,3,2,"HouseObjects",1,"stim/objects/HouseObjects/glass.png",4,"left","left",0.551000118,1,1,1
"294",2,287,0.9,"stim/34.jpeg",3,4,3,2,"Instruments",2,"stim/objects/Instruments/grandpiano.png",1,"right","right",0.467999935,1,1,1
"295",2,288,0.9,"stim/31.jpeg",3,1,3,2,"Instruments",2,"stim/objects/Instruments/grandpiano.png",4,"right","right",0.337999821,1,1,1
"296",2,289,0.9,"stim/31.jpeg",3,1,3,2,"Instruments",2,"stim/objects/Instruments/frenchhorn.png",2,"right","right",0.486000061,1,1,1
"297",2,290,0.9,"stim/31.jpeg",3,1,3,2,"Instruments",2,"stim/objects/Instruments/frenchhorn.png",1,"right","right",0.378000021,1,1,1
"298",2,291,0.1,"stim/33.jpeg",3,3,3,1,"HouseObjects",1,"stim/objects/HouseObjects/flyswatter2.png",3,"left","right",0.353000164,0,0,1
"299",2,292,0.7,"stim/13.jpeg",1,3,2,1,"Instruments",2,"stim/objects/Instruments/bassdrum2.png",1,"right","right",0.424000025,1,1,1
"300",2,293,0.1,"stim/32.jpeg",3,2,3,1,"HouseObjects",1,"stim/objects/HouseObjects/safetypin2.png",1,"left","right",0.441999912,0,0,1
"301",2,294,0.1,"stim/41.jpeg",4,1,3,1,"Instruments",2,"stim/objects/Instruments/tuba2.png",3,"right","right",0.423000097,1,1,1
"302",2,295,0.3,"stim/14.jpeg",1,4,2,1,"HouseObjects",1,"stim/objects/HouseObjects/barbecuelighter2.png",3,"left","right",0.468999863,0,0,1
"303",2,296,0.5,"stim/63.jpeg",6,3,1,1,"HouseObjects",1,"stim/objects/HouseObjects/sponge.png",1,"left","left",0.84100008,1,1,1
"304",2,297,0.7,"stim/13.jpeg",1,3,2,2,"Instruments",2,"stim/objects/Instruments/electricdrumset.png",4,"right","right",0.446000099,1,1,1
"305",2,298,0.9,"stim/32.jpeg",3,2,3,2,"Instruments",2,"stim/objects/Instruments/flute.png",4,"right","right",0.451999903,1,1,1
"306",2,299,0.9,"stim/32.jpeg",3,2,3,2,"Instruments",2,"stim/objects/Instruments/frenchhorn.png",2,"right","right",0.452000141,1,1,1
"307",2,300,0.5,"stim/62.jpeg",6,2,1,2,"HouseObjects",1,"stim/objects/HouseObjects/broom.png",2,"left","left",0.530999899,1,1,1
"308",2,301,0.3,"stim/24.jpeg",2,4,2,1,"Instruments",2,"stim/objects/Instruments/doublebass2.png",3,"right","left",0.5,0,0,1
"309",2,302,0.7,"stim/24.jpeg",2,4,2,1,"HouseObjects",1,"stim/objects/HouseObjects/clock2.png",3,"left","left",0.440000057,1,1,1
"310",2,303,0.5,"stim/64.jpeg",6,4,1,2,"Instruments",2,"stim/objects/Instruments/chime.png",1,"right","left",0.615999937,0,0,1
"311",2,304,0.7,"stim/14.jpeg",1,4,2,2,"Instruments",2,"stim/objects/Instruments/electricguitar.png",4,"right","right",0.483999968,1,1,1
"312",2,305,0.9,"stim/34.jpeg",3,4,3,2,"Instruments",2,"stim/objects/Instruments/gong.png",4,"right","right",0.571000099,1,1,1
"313",2,306,0.5,"stim/53.jpeg",5,3,1,2,"Instruments",2,"stim/objects/Instruments/banjo.png",4,"right","right",0.664999962,1,1,1
"314",2,307,0.7,"stim/22.jpeg",2,2,2,2,"HouseObjects",1,"stim/objects/HouseObjects/clothespin.png",1,"left","left",0.51699996,1,1,1
"315",2,308,0.5,"stim/64.jpeg",6,4,1,1,"Instruments",2,"stim/objects/Instruments/speaker.png",1,"right","left",0.667999983,0,0,1
"316",2,309,0.9,"stim/41.jpeg",4,1,3,2,"HouseObjects",1,"stim/objects/HouseObjects/garbagebin.png",4,"left","left",0.49000001,1,1,1
"317",2,310,0.9,"stim/41.jpeg",4,1,3,2,"HouseObjects",1,"stim/objects/HouseObjects/doormat.png",4,"left","left",0.447999954,1,1,1
"318",2,311,0.5,"stim/53.jpeg",5,3,1,1,"Instruments",2,"stim/objects/Instruments/harmonica.png",3,"right","right",0.569999933,1,1,1
"319",2,312,0.9,"stim/43.jpeg",4,3,3,1,"HouseObjects",1,"stim/objects/HouseObjects/sponge2.png",4,"left","left",0.594000101,1,1,1
"320",2,313,0.9,"stim/41.jpeg",4,1,3,2,"HouseObjects",1,"stim/objects/HouseObjects/glass.png",4,"left","left",0.729000092,1,1,1
"321",2,314,0.7,"stim/24.jpeg",2,4,2,2,"HouseObjects",1,"stim/objects/HouseObjects/clothespin.png",3,"left","left",0.521000147,1,1,1
"322",2,315,0.9,"stim/31.jpeg",3,1,3,2,"Instruments",2,"stim/objects/Instruments/flutetrans.png",4,"right","right",0.534000158,1,1,1
"323",2,316,0.5,"stim/52.jpeg",5,2,1,2,"HouseObjects",1,"stim/objects/HouseObjects/ashtray.png",3,"left","left",0.698999882,1,1,1
"324",2,317,0.5,"stim/54.jpeg",5,4,1,2,"HouseObjects",1,"stim/objects/HouseObjects/barbecuelighter.png",2,"left","left",0.617999792,1,1,1
"325",2,318,0.9,"stim/43.jpeg",4,3,3,2,"HouseObjects",1,"stim/objects/HouseObjects/flyswatter.png",1,"left","left",0.555999994,1,1,1
"326",2,319,0.9,"stim/33.jpeg",3,3,3,2,"Instruments",2,"stim/objects/Instruments/flutetrans.png",3,"right","right",0.532999992,1,1,1
"327",2,320,0.5,"stim/51.jpeg",5,1,1,2,"HouseObjects",1,"stim/objects/HouseObjects/ashtray.png",3,"left","right",0.684999943,0,0,1
"328",2,321,0.7,"stim/24.jpeg",2,4,2,1,"HouseObjects",1,"stim/objects/HouseObjects/blender2.png",3,"left","left",0.428999901,1,1,1
"329",2,322,0.9,"stim/42.jpeg",4,2,3,2,"HouseObjects",1,"stim/objects/HouseObjects/dustpan.png",4,"left","left",0.506999969,1,1,1
"330",2,323,0.3,"stim/12.jpeg",1,2,2,1,"HouseObjects",1,"stim/objects/HouseObjects/thread.png",3,"left","right",0.609999895,0,0,1
"331",2,324,0.1,"stim/42.jpeg",4,2,3,1,"Instruments",2,"stim/objects/Instruments/violin2.png",2,"right","left",0.562999964,0,0,1
"332",2,325,0.3,"stim/21.jpeg",2,1,2,1,"Instruments",2,"stim/objects/Instruments/drums2.png",3,"right","left",0.444999933,0,0,1
"333",2,326,0.1,"stim/32.jpeg",3,2,3,1,"HouseObjects",1,"stim/objects/HouseObjects/dustpan2.png",2,"left","right",0.565999985,0,0,1
"334",2,327,0.5,"stim/63.jpeg",6,3,1,2,"Instruments",2,"stim/objects/Instruments/cornet.png",1,"right","left",0.670000076,0,0,1
"335",2,328,0.9,"stim/44.jpeg",4,4,3,1,"HouseObjects",1,"stim/objects/HouseObjects/spraybottle2.png",1,"left","left",0.616000175,1,1,1
"336",2,329,0.7,"stim/22.jpeg",2,2,2,1,"HouseObjects",1,"stim/objects/HouseObjects/broom2.png",4,"left","left",0.586999893,1,1,1
"337",2,330,0.9,"stim/34.jpeg",3,4,3,1,"Instruments",2,"stim/objects/Instruments/saxophone2.png",2,"right","right",0.516000032,1,1,1
"338",2,331,0.1,"stim/31.jpeg",3,1,3,1,"HouseObjects",1,"stim/objects/HouseObjects/glass2.png",1,"left","right",0.506000042,0,0,1
"339",2,332,0.5,"stim/63.jpeg",6,3,1,2,"HouseObjects",1,"stim/objects/HouseObjects/blender.png",4,"left","left",0.699999809,1,1,1
"340",2,333,0.9,"stim/41.jpeg",4,1,3,2,"HouseObjects",1,"stim/objects/HouseObjects/garbagebin.png",4,"left","left",0.707000017,1,1,1
"341",2,334,0.5,"stim/51.jpeg",5,1,1,2,"Instruments",2,"stim/objects/Instruments/bassdrum.png",3,"right","right",0.559999943,1,1,1
"342",2,335,0.7,"stim/23.jpeg",2,3,2,2,"HouseObjects",1,"stim/objects/HouseObjects/clothespin.png",2,"left","left",0.440000057,1,1,1
"343",2,336,0.9,"stim/32.jpeg",3,2,3,2,"Instruments",2,"stim/objects/Instruments/flute.png",4,"right","right",0.481000185,1,1,1
"344",2,337,0.3,"stim/11.jpeg",1,1,2,1,"HouseObjects",1,"stim/objects/HouseObjects/wateringcan.png",1,"left","right",0.5400002,0,0,1
"345",2,338,0.5,"stim/61.jpeg",6,1,1,2,"HouseObjects",1,"stim/objects/HouseObjects/broom.png",3,"left","right",0.549999952,0,0,1
"346",2,339,0.9,"stim/41.jpeg",4,1,3,2,"HouseObjects",1,"stim/objects/HouseObjects/glass.png",2,"left","left",0.587000132,1,1,1
"347",2,340,0.9,"stim/33.jpeg",3,3,3,2,"Instruments",2,"stim/objects/Instruments/frenchhorn.png",1,"right","right",0.604000092,1,1,1
"348",2,341,0.5,"stim/61.jpeg",6,1,1,2,"HouseObjects",1,"stim/objects/HouseObjects/bottle.png",2,"left","right",0.548000097,0,0,1
"349",2,342,0.1,"stim/43.jpeg",4,3,3,1,"Instruments",2,"stim/objects/Instruments/trombone2.png",4,"right","left",0.636999846,0,0,1
"350",2,343,0.7,"stim/13.jpeg",1,3,2,2,"Instruments",2,"stim/objects/Instruments/cymbal.png",2,"right","right",0.636000156,1,1,1
"351",2,344,0.5,"stim/51.jpeg",5,1,1,1,"HouseObjects",1,"stim/objects/HouseObjects/handbrush.png",1,"left","right",0.690999985,0,0,1
"352",2,345,0.9,"stim/44.jpeg",4,4,3,2,"HouseObjects",1,"stim/objects/HouseObjects/doormat.png",1,"left","left",0.784000158,1,1,1
"353",2,346,0.9,"stim/42.jpeg",4,2,3,2,"HouseObjects",1,"stim/objects/HouseObjects/doormat.png",4,"left","",NA,0,0,1
"354",2,347,0.7,"stim/23.jpeg",2,3,2,2,"HouseObjects",1,"stim/objects/HouseObjects/dishsoap.png",1,"left","left",0.602999926,1,1,1
"355",2,348,0.5,"stim/51.jpeg",5,1,1,1,"Instruments",2,"stim/objects/Instruments/hihat.png",2,"right","right",0.559000015,1,1,1
"356",2,349,0.7,"stim/21.jpeg",2,1,2,2,"HouseObjects",1,"stim/objects/HouseObjects/clothesdryingrack.png",1,"left","left",0.534999847,1,1,1
"357",2,350,0.9,"stim/42.jpeg",4,2,3,1,"HouseObjects",1,"stim/objects/HouseObjects/scale2.png",4,"left","left",0.636999846,1,1,1
"358",2,351,0.9,"stim/33.jpeg",3,3,3,1,"Instruments",2,"stim/objects/Instruments/flute2.png",4,"right","right",0.67200017,1,1,1
"359",2,352,0.9,"stim/31.jpeg",3,1,3,2,"Instruments",2,"stim/objects/Instruments/grandpiano.png",2,"right","right",0.513999939,1,1,1
"360",2,353,0.5,"stim/52.jpeg",5,2,1,2,"HouseObjects",1,"stim/objects/HouseObjects/ballofstring.png",2,"left","right",0.771000147,0,0,1
"361",2,354,0.9,"stim/42.jpeg",4,2,3,2,"HouseObjects",1,"stim/objects/HouseObjects/garbagebin.png",3,"left","left",0.694999933,1,1,1
"362",2,355,0.5,"stim/64.jpeg",6,4,1,2,"Instruments",2,"stim/objects/Instruments/cello.png",4,"right","right",0.631999969,1,1,1
"363",2,356,0.5,"stim/51.jpeg",5,1,1,2,"Instruments",2,"stim/objects/Instruments/accordion.png",2,"right","right",0.614000082,1,1,1
"364",2,357,0.9,"stim/33.jpeg",3,3,3,2,"Instruments",2,"stim/objects/Instruments/frenchhorn.png",4,"right","right",0.527000189,1,1,1
"365",2,358,0.9,"stim/42.jpeg",4,2,3,2,"HouseObjects",1,"stim/objects/HouseObjects/flyswatter.png",3,"left","left",0.571000099,1,1,1
"366",2,359,0.7,"stim/22.jpeg",2,2,2,2,"HouseObjects",1,"stim/objects/HouseObjects/dishsoap.png",2,"left","left",0.551000118,1,1,1
"367",2,360,0.9,"stim/42.jpeg",4,2,3,2,"HouseObjects",1,"stim/objects/HouseObjects/flyswatter.png",3,"left","left",0.655999899,1,1,1
"368",2,361,0.9,"stim/44.jpeg",4,4,3,2,"HouseObjects",1,"stim/objects/HouseObjects/dustpan.png",3,"left","left",0.804000139,1,1,1
"369",2,362,0.9,"stim/33.jpeg",3,3,3,2,"Instruments",2,"stim/objects/Instruments/flute.png",2,"right","right",0.662000179,1,1,1
"370",2,363,0.3,"stim/23.jpeg",2,3,2,1,"Instruments",2,"stim/objects/Instruments/cymbal2.png",4,"right","left",0.536999941,0,0,1
"371",2,364,0.9,"stim/41.jpeg",4,1,3,2,"HouseObjects",1,"stim/objects/HouseObjects/flyswatter.png",1,"left","left",0.703999996,1,1,1
"372",2,365,0.7,"stim/22.jpeg",2,2,2,2,"HouseObjects",1,"stim/objects/HouseObjects/clothesdryingrack.png",1,"left","left",0.436999798,1,1,1
"373",2,366,0.7,"stim/21.jpeg",2,1,2,2,"HouseObjects",1,"stim/objects/HouseObjects/coffee.png",3,"left","left",0.549000025,1,1,1
"374",2,367,0.5,"stim/61.jpeg",6,1,1,2,"Instruments",2,"stim/objects/Instruments/clarinet.png",4,"right","right",0.588999987,1,1,1
"375",2,368,0.7,"stim/11.jpeg",1,1,2,2,"Instruments",2,"stim/objects/Instruments/electricguitar.png",2,"right","right",0.539999962,1,1,1
"376",2,369,0.5,"stim/52.jpeg",5,2,1,2,"Instruments",2,"stim/objects/Instruments/acousticguitar.png",1,"right","right",0.595999956,1,1,1
"377",2,370,0.1,"stim/44.jpeg",4,4,3,1,"Instruments",2,"stim/objects/Instruments/tambourine2.png",4,"right","left",0.58100009,0,0,1
"378",2,371,0.9,"stim/34.jpeg",3,4,3,2,"Instruments",2,"stim/objects/Instruments/frenchhorn.png",2,"right","right",0.473999977,1,1,1
"379",2,372,0.5,"stim/62.jpeg",6,2,1,1,"Instruments",2,"stim/objects/Instruments/timbal.png",4,"right","left",0.496999979,0,0,1
"380",2,373,0.9,"stim/31.jpeg",3,1,3,1,"Instruments",2,"stim/objects/Instruments/frenchhorn2.png",1,"right","right",0.559000015,1,1,1
"381",2,374,0.9,"stim/32.jpeg",3,2,3,1,"Instruments",2,"stim/objects/Instruments/harp2.png",1,"right","right",0.471999884,1,1,1
"382",2,375,0.9,"stim/41.jpeg",4,1,3,1,"HouseObjects",1,"stim/objects/HouseObjects/saw2.png",3,"left","left",0.516000032,1,1,1
"383",2,376,0.5,"stim/54.jpeg",5,4,1,1,"Instruments",2,"stim/objects/Instruments/harp.png",4,"right","right",0.6650002,1,1,1
"384",2,377,0.5,"stim/54.jpeg",5,4,1,2,"Instruments",2,"stim/objects/Instruments/accordion.png",4,"right","right",0.552000046,1,1,1
"385",2,378,0.7,"stim/23.jpeg",2,3,2,2,"HouseObjects",1,"stim/objects/HouseObjects/clothesdryingrack.png",4,"left","left",0.542000055,1,1,1
"386",2,379,0.9,"stim/44.jpeg",4,4,3,2,"HouseObjects",1,"stim/objects/HouseObjects/glass.png",3,"left","left",0.585999966,1,1,1
"387",2,380,0.9,"stim/42.jpeg",4,2,3,1,"HouseObjects",1,"stim/objects/HouseObjects/thermometer2.png",1,"left","left",0.691999912,1,1,1
"388",2,381,0.9,"stim/31.jpeg",3,1,3,2,"Instruments",2,"stim/objects/Instruments/flutetrans.png",3,"right","right",0.578999996,1,1,1
"389",2,382,0.5,"stim/53.jpeg",5,3,1,2,"HouseObjects",1,"stim/objects/HouseObjects/barbecuelighter.png",1,"left","",NA,0,0,1
"390",2,383,0.9,"stim/34.jpeg",3,4,3,2,"Instruments",2,"stim/objects/Instruments/gong.png",1,"right","right",0.487999916,1,1,1
"391",2,384,0.7,"stim/24.jpeg",2,4,2,2,"HouseObjects",1,"stim/objects/HouseObjects/coffee.png",4,"left","left",0.713999987,1,1,1
"392",2,385,0.9,"stim/31.jpeg",3,1,3,2,"Instruments",2,"stim/objects/Instruments/grandpiano.png",2,"right","right",0.526000023,1,1,1
"393",2,386,0.9,"stim/33.jpeg",3,3,3,2,"Instruments",2,"stim/objects/Instruments/gong.png",2,"right","right",0.47300005,1,1,1
"394",2,387,0.3,"stim/13.jpeg",1,3,2,1,"HouseObjects",1,"stim/objects/HouseObjects/towel.png",1,"left","right",0.566999912,0,0,1
"395",2,388,0.9,"stim/44.jpeg",4,4,3,2,"HouseObjects",1,"stim/objects/HouseObjects/doormat.png",2,"left","right",0.609999895,0,0,1
"396",2,389,0.9,"stim/34.jpeg",3,4,3,2,"Instruments",2,"stim/objects/Instruments/flute.png",1,"right","right",0.525000095,1,1,1
"397",2,390,0.9,"stim/32.jpeg",3,2,3,2,"Instruments",2,"stim/objects/Instruments/frenchhorn.png",2,"right","right",0.53399992,1,1,1
"398",2,391,0.3,"stim/23.jpeg",2,3,2,1,"Instruments",2,"stim/objects/Instruments/electricguitar2.png",1,"right","left",0.430000067,0,0,1
"399",2,392,0.9,"stim/34.jpeg",3,4,3,2,"Instruments",2,"stim/objects/Instruments/grandpiano.png",4,"right","right",0.457999945,1,1,1
"400",2,393,0.9,"stim/43.jpeg",4,3,3,1,"HouseObjects",1,"stim/objects/HouseObjects/thread2.png",3,"left","left",0.506999969,1,1,1
"401",2,394,0.5,"stim/62.jpeg",6,2,1,1,"HouseObjects",1,"stim/objects/HouseObjects/scale.png",2,"left","left",0.485000134,1,1,1
"402",2,395,0.5,"stim/63.jpeg",6,3,1,2,"HouseObjects",1,"stim/objects/HouseObjects/clock.png",4,"left","right",0.684000015,0,0,1
"403",2,396,0.5,"stim/52.jpeg",5,2,1,2,"Instruments",2,"stim/objects/Instruments/balalaika.png",2,"right","left",0.476999998,0,0,1
"404",2,397,0.9,"stim/34.jpeg",3,4,3,2,"Instruments",2,"stim/objects/Instruments/frenchhorn.png",1,"right","right",0.524000168,1,1,1
"405",2,398,0.3,"stim/22.jpeg",2,2,2,1,"Instruments",2,"stim/objects/Instruments/electricdrumset2.png",2,"right","left",0.491000175,0,0,1
"406",2,399,0.5,"stim/51.jpeg",5,1,1,2,"HouseObjects",1,"stim/objects/HouseObjects/bleachbottle.png",4,"left","right",0.532999992,0,0,1
"407",2,400,0.9,"stim/41.jpeg",4,1,3,1,"HouseObjects",1,"stim/objects/HouseObjects/teapot2.png",4,"left","left",0.566999912,1,1,1
"408",2,401,0.3,"stim/22.jpeg",2,2,2,1,"Instruments",2,"stim/objects/Instruments/bassguitar2.png",4,"right","left",0.464999914,0,0,1
"409",2,402,0.9,"stim/34.jpeg",3,4,3,1,"Instruments",2,"stim/objects/Instruments/flutetrans2.png",4,"right","left",0.49000001,0,0,1
"410",2,403,0.9,"stim/41.jpeg",4,1,3,2,"HouseObjects",1,"stim/objects/HouseObjects/dustpan.png",2,"left","left",0.719000101,1,1,1
"411",2,404,0.9,"stim/32.jpeg",3,2,3,2,"Instruments",2,"stim/objects/Instruments/grandpiano.png",1,"right","right",0.56400013,1,1,1
"412",2,405,0.5,"stim/61.jpeg",6,1,1,1,"HouseObjects",1,"stim/objects/HouseObjects/teapot.png",1,"left","right",0.642000198,0,0,1
"413",2,406,0.7,"stim/14.jpeg",1,4,2,2,"Instruments",2,"stim/objects/Instruments/cymbal.png",2,"right","right",0.582999945,1,1,1
"414",2,407,0.3,"stim/12.jpeg",1,2,2,1,"HouseObjects",1,"stim/objects/HouseObjects/bleachbottle2.png",4,"left","right",0.55099988,0,0,1
"415",2,408,0.9,"stim/43.jpeg",4,3,3,2,"HouseObjects",1,"stim/objects/HouseObjects/dustpan.png",2,"left","left",0.600999832,1,1,1
"416",2,409,0.1,"stim/41.jpeg",4,1,3,1,"Instruments",2,"stim/objects/Instruments/timbal2.png",1,"right","left",0.510999918,0,0,1
"417",2,410,0.9,"stim/34.jpeg",3,4,3,2,"Instruments",2,"stim/objects/Instruments/flutetrans.png",4,"right","right",0.497999907,1,1,1
"418",2,411,0.9,"stim/42.jpeg",4,2,3,2,"HouseObjects",1,"stim/objects/HouseObjects/garbagebin.png",1,"left","left",0.909999847,1,1,1
"419",2,412,0.7,"stim/21.jpeg",2,1,2,2,"HouseObjects",1,"stim/objects/HouseObjects/cushion.png",2,"left","left",0.697000027,1,1,1
"420",2,413,0.5,"stim/62.jpeg",6,2,1,2,"HouseObjects",1,"stim/objects/HouseObjects/bucket.png",4,"left","left",0.627000093,1,1,1
"421",2,414,0.9,"stim/34.jpeg",3,4,3,2,"Instruments",2,"stim/objects/Instruments/grandpiano.png",4,"right","right",0.487999916,1,1,1
"422",2,415,0.5,"stim/52.jpeg",5,2,1,1,"Instruments",2,"stim/objects/Instruments/guitarcase.png",3,"right","right",0.675000191,1,1,1
"423",2,416,0.9,"stim/41.jpeg",4,1,3,2,"HouseObjects",1,"stim/objects/HouseObjects/doormat.png",2,"left","left",0.519999981,1,1,1
"424",2,417,0.9,"stim/42.jpeg",4,2,3,2,"HouseObjects",1,"stim/objects/HouseObjects/glass.png",2,"left","left",0.520999908,1,1,1
"425",2,418,0.9,"stim/44.jpeg",4,4,3,2,"HouseObjects",1,"stim/objects/HouseObjects/flyswatter.png",3,"left","left",0.720999956,1,1,1
"426",2,419,0.7,"stim/14.jpeg",1,4,2,2,"Instruments",2,"stim/objects/Instruments/doublebass.png",4,"right","left",0.485999823,0,0,1
"427",2,420,0.9,"stim/34.jpeg",3,4,3,1,"Instruments",2,"stim/objects/Instruments/guitarcase2.png",4,"right","right",0.41899991,1,1,1
"428",2,421,0.9,"stim/42.jpeg",4,2,3,1,"HouseObjects",1,"stim/objects/HouseObjects/wateringcan2.png",4,"left","left",0.63499999,1,1,1
"429",2,422,0.9,"stim/33.jpeg",3,3,3,2,"Instruments",2,"stim/objects/Instruments/flutetrans.png",2,"right","right",0.494999886,1,1,1
"430",2,423,0.5,"stim/63.jpeg",6,3,1,2,"Instruments",2,"stim/objects/Instruments/cello.png",1,"right","left",0.60800004,0,0,1
"431",2,424,0.9,"stim/31.jpeg",3,1,3,2,"Instruments",2,"stim/objects/Instruments/flutetrans.png",3,"right","right",0.625999928,1,1,1
"432",2,425,0.5,"stim/54.jpeg",5,4,1,2,"HouseObjects",1,"stim/objects/HouseObjects/basket.png",1,"left","right",0.686999798,0,0,1
"433",2,426,0.9,"stim/42.jpeg",4,2,3,2,"HouseObjects",1,"stim/objects/HouseObjects/garbagebin.png",2,"left","left",0.536999941,1,1,1
"434",2,427,0.9,"stim/41.jpeg",4,1,3,2,"HouseObjects",1,"stim/objects/HouseObjects/flyswatter.png",1,"left","left",0.534000158,1,1,1
"435",2,428,0.7,"stim/14.jpeg",1,4,2,1,"Instruments",2,"stim/objects/Instruments/violin.png",2,"right","right",0.590999842,1,1,1
"436",2,429,0.9,"stim/43.jpeg",4,3,3,2,"HouseObjects",1,"stim/objects/HouseObjects/doormat.png",4,"left","left",0.61500001,1,1,1
"437",2,430,0.9,"stim/41.jpeg",4,1,3,1,"HouseObjects",1,"stim/objects/HouseObjects/vacuumcleaner2.png",2,"left","left",0.606999874,1,1,1
"438",2,431,0.9,"stim/32.jpeg",3,2,3,2,"Instruments",2,"stim/objects/Instruments/flute.png",2,"right","right",0.614000082,1,1,1
"439",2,432,0.1,"stim/44.jpeg",4,4,3,1,"Instruments",2,"stim/objects/Instruments/xylophone2.png",2,"right","left",0.569000006,0,0,1
"440",2,433,0.9,"stim/43.jpeg",4,3,3,2,"HouseObjects",1,"stim/objects/HouseObjects/glass.png",4,"left","left",0.460000038,1,1,1
"441",2,434,0.9,"stim/44.jpeg",4,4,3,2,"HouseObjects",1,"stim/objects/HouseObjects/dustpan.png",3,"left","left",0.45600009,1,1,1
"442",2,435,0.5,"stim/62.jpeg",6,2,1,2,"Instruments",2,"stim/objects/Instruments/clarinet.png",2,"right","",NA,0,0,1
"443",2,436,0.9,"stim/44.jpeg",4,4,3,2,"HouseObjects",1,"stim/objects/HouseObjects/garbagebin.png",3,"left","left",0.519000053,1,1,1
"444",2,437,0.9,"stim/43.jpeg",4,3,3,2,"HouseObjects",1,"stim/objects/HouseObjects/garbagebin.png",2,"left","left",0.542999983,1,1,1
"445",2,438,0.3,"stim/23.jpeg",2,3,2,1,"Instruments",2,"stim/objects/Instruments/cello2.png",3,"right","left",0.470999956,0,0,1
"446",2,439,0.9,"stim/42.jpeg",4,2,3,2,"HouseObjects",1,"stim/objects/HouseObjects/flyswatter.png",2,"left","left",0.648000002,1,1,1
"447",2,440,0.9,"stim/42.jpeg",4,2,3,2,"HouseObjects",1,"stim/objects/HouseObjects/dustpan.png",1,"left","left",0.514999866,1,1,1
"448",2,441,0.7,"stim/13.jpeg",1,3,2,2,"Instruments",2,"stim/objects/Instruments/electricguitar.png",2,"right","",NA,0,0,1
"449",2,442,0.9,"stim/43.jpeg",4,3,3,2,"HouseObjects",1,"stim/objects/HouseObjects/doormat.png",3,"left","left",0.540999889,1,1,1
"450",2,443,0.7,"stim/12.jpeg",1,2,2,1,"Instruments",2,"stim/objects/Instruments/trumpet.png",4,"right","right",0.501999855,1,1,1
"451",2,444,0.7,"stim/23.jpeg",2,3,2,1,"HouseObjects",1,"stim/objects/HouseObjects/coffee2.png",2,"left","left",0.506000042,1,1,1
"452",2,445,0.1,"stim/33.jpeg",3,3,3,1,"HouseObjects",1,"stim/objects/HouseObjects/hairdryer2.png",3,"left","right",0.568000078,0,0,1
"453",2,446,0.5,"stim/52.jpeg",5,2,1,1,"Instruments",2,"stim/objects/Instruments/saxophone.png",2,"right","left",0.460000038,0,0,1
"454",2,447,0.7,"stim/12.jpeg",1,2,2,2,"Instruments",2,"stim/objects/Instruments/drums.png",4,"right","right",0.558000088,1,1,1
"455",2,448,0.9,"stim/33.jpeg",3,3,3,2,"Instruments",2,"stim/objects/Instruments/gong.png",3,"right","right",0.486000061,1,1,1
"456",2,449,0.7,"stim/13.jpeg",1,3,2,1,"Instruments",2,"stim/objects/Instruments/tuba.png",3,"right","right",0.467999935,1,1,1
"457",2,450,0.9,"stim/43.jpeg",4,3,3,2,"HouseObjects",1,"stim/objects/HouseObjects/doormat.png",1,"left","left",0.63499999,1,1,1
"458",2,451,0.7,"stim/14.jpeg",1,4,2,2,"Instruments",2,"stim/objects/Instruments/electricdrumset.png",2,"right","",NA,0,0,1
"459",2,452,0.7,"stim/12.jpeg",1,2,2,1,"Instruments",2,"stim/objects/Instruments/xylophone.png",3,"right","right",0.465999842,1,1,1
"460",2,453,0.9,"stim/44.jpeg",4,4,3,2,"HouseObjects",1,"stim/objects/HouseObjects/flyswatter.png",2,"left","left",0.433000088,1,1,1
"461",2,454,0.7,"stim/24.jpeg",2,4,2,1,"HouseObjects",1,"stim/objects/HouseObjects/cushion2.png",4,"left","left",0.534999847,1,1,1
"462",2,455,0.9,"stim/42.jpeg",4,2,3,2,"HouseObjects",1,"stim/objects/HouseObjects/glass.png",2,"left","left",0.492999792,1,1,1
"463",2,456,0.9,"stim/34.jpeg",3,4,3,2,"Instruments",2,"stim/objects/Instruments/flute.png",2,"right","right",0.536000013,1,1,1
"464",2,457,0.9,"stim/41.jpeg",4,1,3,2,"HouseObjects",1,"stim/objects/HouseObjects/doormat.png",4,"left","left",0.636000156,1,1,1
"465",2,458,0.3,"stim/22.jpeg",2,2,2,1,"Instruments",2,"stim/objects/Instruments/cornet2.png",4,"right","left",0.53399992,0,0,1
"466",2,459,0.9,"stim/34.jpeg",3,4,3,2,"Instruments",2,"stim/objects/Instruments/grandpiano.png",1,"right","right",0.607000113,1,1,1
"467",2,460,0.9,"stim/44.jpeg",4,4,3,2,"HouseObjects",1,"stim/objects/HouseObjects/flyswatter.png",3,"left","left",0.585999966,1,1,1
"468",2,461,0.9,"stim/32.jpeg",3,2,3,2,"Instruments",2,"stim/objects/Instruments/flutetrans.png",1,"right","right",0.464999914,1,1,1
"469",2,462,0.5,"stim/64.jpeg",6,4,1,2,"HouseObjects",1,"stim/objects/HouseObjects/blender.png",1,"left","left",0.697000027,1,1,1
"470",2,463,0.9,"stim/41.jpeg",4,1,3,2,"HouseObjects",1,"stim/objects/HouseObjects/dustpan.png",2,"left","left",0.467000008,1,1,1
"471",2,464,0.9,"stim/44.jpeg",4,4,3,2,"HouseObjects",1,"stim/objects/HouseObjects/doormat.png",2,"left","left",0.868000031,1,1,1
"472",2,465,0.9,"stim/44.jpeg",4,4,3,2,"HouseObjects",1,"stim/objects/HouseObjects/garbagebin.png",3,"left","left",0.453000069,1,1,1
"473",2,466,0.9,"stim/44.jpeg",4,4,3,2,"HouseObjects",1,"stim/objects/HouseObjects/glass.png",4,"left","left",0.440000057,1,1,1
"474",2,467,0.5,"stim/64.jpeg",6,4,1,1,"Instruments",2,"stim/objects/Instruments/trombone.png",1,"right","left",0.491999865,0,0,1
"475",2,468,0.3,"stim/24.jpeg",2,4,2,1,"Instruments",2,"stim/objects/Instruments/chime2.png",1,"right","left",0.508999825,0,0,1
"476",2,469,0.9,"stim/33.jpeg",3,3,3,2,"Instruments",2,"stim/objects/Instruments/flute.png",1,"right","right",0.51699996,1,1,1
"477",2,470,0.7,"stim/22.jpeg",2,2,2,1,"HouseObjects",1,"stim/objects/HouseObjects/clothespin2.png",3,"left","left",0.357000113,1,1,1
"478",2,471,0.9,"stim/32.jpeg",3,2,3,2,"Instruments",2,"stim/objects/Instruments/gong.png",4,"right","right",0.491000175,1,1,1
"479",2,472,0.9,"stim/32.jpeg",3,2,3,2,"Instruments",2,"stim/objects/Instruments/gong.png",3,"right","right",0.610999823,1,1,1
"480",2,473,0.9,"stim/33.jpeg",3,3,3,2,"Instruments",2,"stim/objects/Instruments/flute.png",1,"right","right",0.437999964,1,1,1
"481",2,474,0.9,"stim/41.jpeg",4,1,3,2,"HouseObjects",1,"stim/objects/HouseObjects/flyswatter.png",1,"left","right",0.745000124,0,0,1
"482",2,475,0.7,"stim/13.jpeg",1,3,2,1,"Instruments",2,"stim/objects/Instruments/accordion2.png",2,"right","right",0.406999826,1,1,1
"483",2,476,0.9,"stim/41.jpeg",4,1,3,2,"HouseObjects",1,"stim/objects/HouseObjects/doormat.png",2,"left","left",0.526000023,1,1,1
"484",2,477,0.7,"stim/23.jpeg",2,3,2,1,"HouseObjects",1,"stim/objects/HouseObjects/bucket2.png",3,"left","left",0.438999891,1,1,1
"485",2,478,0.9,"stim/33.jpeg",3,3,3,1,"Instruments",2,"stim/objects/Instruments/hihat2.png",3,"right","right",0.657999992,1,1,1
"486",2,479,0.7,"stim/22.jpeg",2,2,2,2,"HouseObjects",1,"stim/objects/HouseObjects/cushion.png",3,"left","left",0.328999996,1,1,1
"487",2,480,0.9,"stim/44.jpeg",4,4,3,2,"HouseObjects",1,"stim/objects/HouseObjects/garbagebin.png",3,"left","left",0.337000132,1,1,1
"488",2,481,0.7,"stim/11.jpeg",1,1,2,2,"Instruments",2,"stim/objects/Instruments/doublebass.png",1,"right","right",0.598999977,1,1,1
"489",2,482,0.5,"stim/51.jpeg",5,1,1,2,"Instruments",2,"stim/objects/Instruments/acousticguitar.png",3,"right","right",0.621000051,1,1,1
"490",2,483,0.1,"stim/34.jpeg",3,4,3,1,"HouseObjects",1,"stim/objects/HouseObjects/handbrush2.png",3,"left","right",0.585999966,0,0,1
"491",2,484,0.9,"stim/33.jpeg",3,3,3,2,"Instruments",2,"stim/objects/Instruments/gong.png",3,"right","right",0.516000032,1,1,1
"492",2,485,0.9,"stim/32.jpeg",3,2,3,2,"Instruments",2,"stim/objects/Instruments/grandpiano.png",1,"right","right",0.470000029,1,1,1
"493",2,486,0.9,"stim/43.jpeg",4,3,3,2,"HouseObjects",1,"stim/objects/HouseObjects/glass.png",3,"left","left",0.506999969,1,1,1
"494",2,487,0.9,"stim/31.jpeg",3,1,3,2,"Instruments",2,"stim/objects/Instruments/flutetrans.png",1,"right","right",0.44299984,1,1,1
"495",2,488,0.9,"stim/34.jpeg",3,4,3,2,"Instruments",2,"stim/objects/Instruments/gong.png",4,"right","right",0.453999996,1,1,1
"496",2,489,0.1,"stim/42.jpeg",4,2,3,1,"Instruments",2,"stim/objects/Instruments/triangle2.png",1,"right","left",0.584000111,0,0,1
"497",2,490,0.9,"stim/43.jpeg",4,3,3,2,"HouseObjects",1,"stim/objects/HouseObjects/dustpan.png",2,"left","left",0.514000177,1,1,1
"498",2,491,0.7,"stim/21.jpeg",2,1,2,2,"HouseObjects",1,"stim/objects/HouseObjects/dishsoap.png",3,"left","left",0.453999996,1,1,1
"499",2,492,0.5,"stim/62.jpeg",6,2,1,2,"Instruments",2,"stim/objects/Instruments/bassguitar.png",4,"right","left",0.544999838,0,0,1
"500",2,493,0.9,"stim/34.jpeg",3,4,3,2,"Instruments",2,"stim/objects/Instruments/flutetrans.png",3,"right","right",0.537999868,1,1,1
"501",2,494,0.5,"stim/64.jpeg",6,4,1,2,"HouseObjects",1,"stim/objects/HouseObjects/bottle.png",3,"left","left",0.548000097,1,1,1
"502",2,495,0.9,"stim/44.jpeg",4,4,3,2,"HouseObjects",1,"stim/objects/HouseObjects/dustpan.png",1,"left","left",0.539999962,1,1,1
"503",2,496,0.5,"stim/54.jpeg",5,4,1,2,"Instruments",2,"stim/objects/Instruments/banjo.png",2,"right","left",0.608999968,0,0,1
"504",2,497,0.9,"stim/44.jpeg",4,4,3,2,"HouseObjects",1,"stim/objects/HouseObjects/dustpan.png",2,"left","left",0.753999949,1,1,1
"505",2,498,0.5,"stim/63.jpeg",6,3,1,2,"HouseObjects",1,"stim/objects/HouseObjects/bucket.png",2,"left","left",0.549000025,1,1,1
"506",2,499,0.7,"stim/21.jpeg",2,1,2,1,"HouseObjects",1,"stim/objects/HouseObjects/bottle2.png",1,"left","left",0.568000078,1,1,1
"507",2,500,0.9,"stim/44.jpeg",4,4,3,1,"HouseObjects",1,"stim/objects/HouseObjects/towel2.png",3,"left","left",0.519000053,1,1,1
"508",2,501,0.1,"stim/43.jpeg",4,3,3,1,"Instruments",2,"stim/objects/Instruments/vuvuzela2.png",3,"right","left",0.545000076,0,0,1
"509",2,502,0.9,"stim/33.jpeg",3,3,3,2,"Instruments",2,"stim/objects/Instruments/grandpiano.png",2,"right","right",0.515000105,1,1,1
"510",2,503,0.9,"stim/33.jpeg",3,3,3,2,"Instruments",2,"stim/objects/Instruments/grandpiano.png",2,"right","right",0.444999933,1,1,1
"511",2,504,0.7,"stim/11.jpeg",1,1,2,1,"Instruments",2,"stim/objects/Instruments/vuvuzela.png",2,"right","right",0.572000027,1,1,1
"512",2,505,0.9,"stim/41.jpeg",4,1,3,2,"HouseObjects",1,"stim/objects/HouseObjects/dustpan.png",2,"left","left",0.541000128,1,1,1
"513",2,506,0.9,"stim/41.jpeg",4,1,3,2,"HouseObjects",1,"stim/objects/HouseObjects/glass.png",4,"left","left",0.458999872,1,1,1
"514",2,507,0.7,"stim/12.jpeg",1,2,2,2,"Instruments",2,"stim/objects/Instruments/electricdrumset.png",1,"right","right",0.526000023,1,1,1
"515",2,508,0.9,"stim/33.jpeg",3,3,3,2,"Instruments",2,"stim/objects/Instruments/frenchhorn.png",3,"right","right",0.477999926,1,1,1
"516",2,509,0.3,"stim/21.jpeg",2,1,2,1,"Instruments",2,"stim/objects/Instruments/clarinet2.png",1,"right","left",0.446000099,0,0,1
"517",2,510,0.9,"stim/31.jpeg",3,1,3,2,"Instruments",2,"stim/objects/Instruments/gong.png",3,"right","right",0.496000051,1,1,1
"518",2,511,0.9,"stim/41.jpeg",4,1,3,2,"HouseObjects",1,"stim/objects/HouseObjects/flyswatter.png",1,"left","left",0.476000071,1,1,1
"519",2,512,0.9,"stim/32.jpeg",3,2,3,2,"Instruments",2,"stim/objects/Instruments/frenchhorn.png",1,"right","right",0.510999918,1,1,1
"520",2,513,0.5,"stim/62.jpeg",6,2,1,2,"Instruments",2,"stim/objects/Instruments/cornet.png",2,"right","left",0.518000126,0,0,1
"521",2,514,0.7,"stim/13.jpeg",1,3,2,2,"Instruments",2,"stim/objects/Instruments/drums.png",2,"right","left",0.482999802,0,0,1
"522",2,515,0.9,"stim/44.jpeg",4,4,3,2,"HouseObjects",1,"stim/objects/HouseObjects/glass.png",2,"left","left",0.493999958,1,1,1
"523",2,516,0.3,"stim/11.jpeg",1,1,2,1,"HouseObjects",1,"stim/objects/HouseObjects/thermometer.png",1,"left","right",0.496999979,0,0,1
"524",2,517,0.9,"stim/33.jpeg",3,3,3,2,"Instruments",2,"stim/objects/Instruments/grandpiano.png",3,"right","right",0.48300004,1,1,1
"525",2,518,0.9,"stim/34.jpeg",3,4,3,2,"Instruments",2,"stim/objects/Instruments/frenchhorn.png",1,"right","right",0.513000011,1,1,1
"526",2,519,0.5,"stim/64.jpeg",6,4,1,1,"HouseObjects",1,"stim/objects/HouseObjects/spraybottle.png",3,"left","left",0.580999851,1,1,1
"527",2,520,0.1,"stim/34.jpeg",3,4,3,1,"HouseObjects",1,"stim/objects/HouseObjects/garbagebin2.png",4,"left","right",0.497999907,0,0,1
"528",2,521,0.7,"stim/14.jpeg",1,4,2,1,"Instruments",2,"stim/objects/Instruments/acousticguitar2.png",4,"right","right",0.364000082,1,1,1
"529",2,522,0.9,"stim/43.jpeg",4,3,3,2,"HouseObjects",1,"stim/objects/HouseObjects/flyswatter.png",4,"left","left",0.628000021,1,1,1
"530",2,523,0.9,"stim/31.jpeg",3,1,3,1,"Instruments",2,"stim/objects/Instruments/harmonica2.png",1,"right","right",0.881000042,1,1,1
"531",2,524,0.7,"stim/11.jpeg",1,1,2,2,"Instruments",2,"stim/objects/Instruments/cymbal.png",4,"right","right",0.40899992,1,1,1
"532",2,525,0.5,"stim/61.jpeg",6,1,1,1,"HouseObjects",1,"stim/objects/HouseObjects/saw.png",2,"left","right",0.539999962,0,0,1
"533",2,526,0.5,"stim/63.jpeg",6,3,1,1,"Instruments",2,"stim/objects/Instruments/triangle.png",4,"right","left",0.77699995,0,0,1
"534",2,527,0.9,"stim/41.jpeg",4,1,3,2,"HouseObjects",1,"stim/objects/HouseObjects/garbagebin.png",3,"left","left",0.569999933,1,1,1
"535",2,528,0.9,"stim/31.jpeg",3,1,3,2,"Instruments",2,"stim/objects/Instruments/flute.png",2,"right","right",0.519000053,1,1,1
"536",2,529,0.9,"stim/43.jpeg",4,3,3,2,"HouseObjects",1,"stim/objects/HouseObjects/garbagebin.png",3,"left","right",0.572999954,0,0,1
"537",2,530,0.9,"stim/41.jpeg",4,1,3,2,"HouseObjects",1,"stim/objects/HouseObjects/dustpan.png",2,"left","left",0.539999962,1,1,1
"538",2,531,0.9,"stim/43.jpeg",4,3,3,2,"HouseObjects",1,"stim/objects/HouseObjects/garbagebin.png",3,"left","left",0.453999996,1,1,1
"539",2,532,0.1,"stim/31.jpeg",3,1,3,1,"HouseObjects",1,"stim/objects/HouseObjects/doormat2.png",1,"left","right",0.487999916,0,0,1
"540",2,533,0.9,"stim/32.jpeg",3,2,3,2,"Instruments",2,"stim/objects/Instruments/grandpiano.png",2,"right","right",0.583999872,1,1,1
"541",2,534,0.9,"stim/42.jpeg",4,2,3,2,"HouseObjects",1,"stim/objects/HouseObjects/dustpan.png",4,"left","left",0.561000109,1,1,1
"542",2,535,0.9,"stim/34.jpeg",3,4,3,2,"Instruments",2,"stim/objects/Instruments/flute.png",4,"right","right",0.733999968,1,1,1
"543",2,536,0.9,"stim/33.jpeg",3,3,3,1,"Instruments",2,"stim/objects/Instruments/grandpiano2.png",2,"right","right",0.453000069,1,1,1
"544",2,537,0.3,"stim/12.jpeg",1,2,2,1,"HouseObjects",1,"stim/objects/HouseObjects/ashtray2.png",2,"left","right",0.54700017,0,0,1
"545",2,538,0.9,"stim/31.jpeg",3,1,3,2,"Instruments",2,"stim/objects/Instruments/gong.png",3,"right","right",0.51699996,1,1,1
"546",2,539,0.9,"stim/31.jpeg",3,1,3,2,"Instruments",2,"stim/objects/Instruments/frenchhorn.png",1,"right","right",0.44900012,1,1,1
"547",2,540,0.7,"stim/11.jpeg",1,1,2,1,"Instruments",2,"stim/objects/Instruments/balalaika2.png",4,"right","right",0.410000086,1,1,1
"548",2,541,0.9,"stim/33.jpeg",3,3,3,2,"Instruments",2,"stim/objects/Instruments/flutetrans.png",2,"right","right",0.487999916,1,1,1
"549",2,542,0.9,"stim/31.jpeg",3,1,3,2,"Instruments",2,"stim/objects/Instruments/flute.png",2,"right","right",0.443000078,1,1,1
"550",2,543,0.9,"stim/32.jpeg",3,2,3,2,"Instruments",2,"stim/objects/Instruments/flute.png",2,"right","right",0.545000076,1,1,1
"551",2,544,0.9,"stim/42.jpeg",4,2,3,2,"HouseObjects",1,"stim/objects/HouseObjects/dustpan.png",3,"left","left",0.617000103,1,1,1
"552",2,545,0.9,"stim/31.jpeg",3,1,3,2,"Instruments",2,"stim/objects/Instruments/frenchhorn.png",2,"right","right",0.444999933,1,1,1
"553",2,546,0.9,"stim/32.jpeg",3,2,3,2,"Instruments",2,"stim/objects/Instruments/gong.png",4,"right","right",0.410000086,1,1,1
"554",2,547,0.5,"stim/54.jpeg",5,4,1,2,"Instruments",2,"stim/objects/Instruments/bassdrum.png",3,"right","left",0.446000099,0,0,1
"555",2,548,0.9,"stim/32.jpeg",3,2,3,2,"Instruments",2,"stim/objects/Instruments/flutetrans.png",4,"right","right",0.596999884,1,1,1
"556",2,549,0.9,"stim/43.jpeg",4,3,3,2,"HouseObjects",1,"stim/objects/HouseObjects/doormat.png",3,"left","left",0.45600009,1,1,1
"557",2,550,0.9,"stim/31.jpeg",3,1,3,2,"Instruments",2,"stim/objects/Instruments/gong.png",3,"right","right",0.513000011,1,1,1
"558",2,551,0.5,"stim/61.jpeg",6,1,1,1,"Instruments",2,"stim/objects/Instruments/tambourine.png",2,"right","right",0.51699996,1,1,1
"559",2,552,0.5,"stim/52.jpeg",5,2,1,1,"HouseObjects",1,"stim/objects/HouseObjects/handvacuum.png",4,"left","left",0.674999952,1,1,1
"560",2,553,0.7,"stim/23.jpeg",2,3,2,2,"HouseObjects",1,"stim/objects/HouseObjects/coffee.png",3,"left","left",0.548000097,1,1,1
"561",2,554,0.9,"stim/44.jpeg",4,4,3,2,"HouseObjects",1,"stim/objects/HouseObjects/doormat.png",4,"left","left",0.588000059,1,1,1
"562",2,555,0.9,"stim/42.jpeg",4,2,3,2,"HouseObjects",1,"stim/objects/HouseObjects/glass.png",3,"left","left",0.570999861,1,1,1
"563",2,556,0.9,"stim/44.jpeg",4,4,3,2,"HouseObjects",1,"stim/objects/HouseObjects/glass.png",3,"left","left",0.414000034,1,1,1
"564",2,557,0.9,"stim/41.jpeg",4,1,3,2,"HouseObjects",1,"stim/objects/HouseObjects/glass.png",2,"left","left",0.45299983,1,1,1
"565",2,558,0.9,"stim/32.jpeg",3,2,3,2,"Instruments",2,"stim/objects/Instruments/flutetrans.png",1,"right","right",0.463999987,1,1,1
"566",2,559,0.7,"stim/24.jpeg",2,4,2,2,"HouseObjects",1,"stim/objects/HouseObjects/cushion.png",1,"left","left",0.54399991,1,1,1
"567",2,560,0.5,"stim/53.jpeg",5,3,1,1,"HouseObjects",1,"stim/objects/HouseObjects/glassmop.png",3,"left","left",0.434999943,1,1,1
"568",2,561,0.9,"stim/42.jpeg",4,2,3,2,"HouseObjects",1,"stim/objects/HouseObjects/flyswatter.png",1,"left","left",0.473999977,1,1,1
"569",2,562,0.5,"stim/53.jpeg",5,3,1,2,"HouseObjects",1,"stim/objects/HouseObjects/ballofstring.png",3,"left","right",0.582999945,0,0,1
"570",2,563,0.9,"stim/33.jpeg",3,3,3,2,"Instruments",2,"stim/objects/Instruments/frenchhorn.png",1,"right","right",0.546000004,1,1,1
"571",2,564,0.1,"stim/44.jpeg",4,4,3,1,"Instruments",2,"stim/objects/Instruments/trumpet2.png",1,"right","left",0.496000051,0,0,1
"572",2,565,0.9,"stim/42.jpeg",4,2,3,2,"HouseObjects",1,"stim/objects/HouseObjects/garbagebin.png",4,"left","left",0.539999962,1,1,1
"573",2,566,0.1,"stim/43.jpeg",4,3,3,1,"Instruments",2,"stim/objects/Instruments/speaker2.png",1,"right","left",0.404999971,0,0,1
"574",2,567,0.9,"stim/34.jpeg",3,4,3,2,"Instruments",2,"stim/objects/Instruments/frenchhorn.png",4,"right","right",0.523999929,1,1,1
"575",2,568,0.9,"stim/31.jpeg",3,1,3,2,"Instruments",2,"stim/objects/Instruments/flute.png",2,"right","right",0.470999956,1,1,1
"576",2,569,0.9,"stim/31.jpeg",3,1,3,2,"Instruments",2,"stim/objects/Instruments/gong.png",4,"right","right",0.605999947,1,1,1
"577",2,570,0.1,"stim/31.jpeg",3,1,3,1,"HouseObjects",1,"stim/objects/HouseObjects/handvacuum2.png",2,"left","right",0.498999834,0,0,1
