"","participant","trial_index","trial_cond","scn_file","scn_cat","scn_inst","scn_condition","fillers","obj_cat","obj_cat_num","obj_file","quadrant","corr_ans","key_resp_trial.keys","key_resp_trial.rt","trial_acc","trial_acc_manual","group"
"1",2,1,0.9,"stim/32.jpeg",3,2,3,NA,"Instruments",2,"stim/objects/Instruments/musicsheet2.png",4,"right","right",0.792999983,1,1,1
"2",2,2,0.9,"stim/43.jpeg",4,3,3,NA,"HouseObjects",1,"stim/objects/HouseObjects/rubbergloves2.png",2,"left","left",0.779999971,1,1,1
"3",2,3,0.5,"stim/63.jpeg",6,3,1,NA,"Instruments",2,"stim/objects/Instruments/musicstand.png",3,"right","left",0.75,0,0,1
"4",2,4,0.7,"stim/23.jpeg",2,3,2,NA,"HouseObjects",1,"stim/objects/HouseObjects/key2.png",3,"left","left",0.795000076,1,1,1
"5",2,5,0.9,"stim/41.jpeg",4,1,3,NA,"HouseObjects",1,"stim/objects/HouseObjects/recyclingbin2.png",3,"left","left",0.531000137,1,1,1
"6",2,6,0.9,"stim/42.jpeg",4,2,3,NA,"HouseObjects",1,"stim/objects/HouseObjects/remote2.png",2,"left","left",0.492000103,1,1,1
"7",2,7,0.9,"stim/31.jpeg",3,1,3,NA,"Instruments",2,"stim/objects/Instruments/metronome2.png",3,"right","right",0.49000001,1,1,1
"8",2,8,0.5,"stim/64.jpeg",6,4,1,NA,"HouseObjects",1,"stim/objects/HouseObjects/pitcher.png",1,"left","",NA,0,0,1
"9",2,9,0.7,"stim/24.jpeg",2,4,2,NA,"HouseObjects",1,"stim/objects/HouseObjects/knife2.png",3,"left","left",0.489000082,1,1,1
"10",2,10,0.7,"stim/11.jpeg",1,1,2,NA,"Instruments",2,"stim/objects/Instruments/panflute.png",2,"right","right",0.731999874,1,1,1
"11",2,11,0.7,"stim/13.jpeg",1,3,2,NA,"Instruments",2,"stim/objects/Instruments/record.png",1,"right","right",0.618999958,1,1,1
"12",2,12,0.7,"stim/14.jpeg",1,4,2,NA,"Instruments",2,"stim/objects/Instruments/record_player.png",3,"right","right",0.578999996,1,1,1
"13",2,13,0.5,"stim/51.jpeg",5,1,1,NA,"Instruments",2,"stim/objects/Instruments/keyboard.png",4,"right","left",0.561999798,0,0,1
"14",2,14,0.9,"stim/33.jpeg",3,3,3,NA,"Instruments",2,"stim/objects/Instruments/musicstand2.png",2,"right","right",0.529000044,1,1,1
"15",2,15,0.9,"stim/34.jpeg",3,4,3,NA,"Instruments",2,"stim/objects/Instruments/oboe2.png",4,"right","right",0.47300005,1,1,1
"16",2,16,0.5,"stim/62.jpeg",6,2,1,NA,"HouseObjects",1,"stim/objects/HouseObjects/match.png",4,"left","left",0.744999886,1,1,1
"17",2,17,0.5,"stim/62.jpeg",6,2,1,NA,"Instruments",2,"stim/objects/Instruments/musicsheet.png",1,"right","left",0.537999868,0,0,1
"18",2,18,0.9,"stim/43.jpeg",4,3,3,NA,"HouseObjects",1,"stim/objects/HouseObjects/rubbergloves2.png",4,"left","left",0.481000185,1,1,1
"19",2,19,0.9,"stim/34.jpeg",3,4,3,NA,"Instruments",2,"stim/objects/Instruments/oboe2.png",1,"right","right",0.513999939,1,1,1
"20",2,20,0.9,"stim/33.jpeg",3,3,3,NA,"Instruments",2,"stim/objects/Instruments/musicstand2.png",1,"right","right",0.44900012,1,1,1
"21",2,21,0.1,"stim/34.jpeg",3,4,3,NA,"HouseObjects",1,"stim/objects/HouseObjects/pitcher2.png",3,"left","right",0.481999874,0,0,1
"22",2,22,0.3,"stim/14.jpeg",1,4,2,NA,"HouseObjects",1,"stim/objects/HouseObjects/rug.png",2,"left","right",0.648000002,0,0,1
"23",2,23,0.7,"stim/13.jpeg",1,3,2,NA,"Instruments",2,"stim/objects/Instruments/record.png",1,"right","right",0.89199996,1,1,1
"24",2,24,0.9,"stim/31.jpeg",3,1,3,NA,"Instruments",2,"stim/objects/Instruments/metronome2.png",4,"right","right",0.563999891,1,1,1
"25",2,25,0.3,"stim/23.jpeg",2,3,2,NA,"Instruments",2,"stim/objects/Instruments/maraca2.png",1,"right","left",0.460999966,0,0,1
"26",2,26,0.9,"stim/31.jpeg",3,1,3,NA,"Instruments",2,"stim/objects/Instruments/metronome2.png",1,"right","right",0.496000051,1,1,1
"27",2,27,0.5,"stim/52.jpeg",5,2,1,NA,"Instruments",2,"stim/objects/Instruments/laud.png",4,"right","left",0.529999971,0,0,1
"28",2,28,0.5,"stim/54.jpeg",5,4,1,NA,"Instruments",2,"stim/objects/Instruments/marimba.png",2,"right","",NA,0,0,1
"29",2,29,0.7,"stim/12.jpeg",1,2,2,NA,"Instruments",2,"stim/objects/Instruments/pipepiano.png",3,"right","right",0.640000105,1,1,1
"30",2,30,0.9,"stim/41.jpeg",4,1,3,NA,"HouseObjects",1,"stim/objects/HouseObjects/recyclingbin2.png",1,"left","left",0.503999949,1,1,1
"31",2,31,0.7,"stim/11.jpeg",1,1,2,NA,"Instruments",2,"stim/objects/Instruments/panflute.png",1,"right","right",0.63499999,1,1,1
"32",2,32,0.7,"stim/22.jpeg",2,2,2,NA,"HouseObjects",1,"stim/objects/HouseObjects/ironingboard2.png",4,"left","left",0.636000156,1,1,1
"33",2,33,0.9,"stim/44.jpeg",4,4,3,NA,"HouseObjects",1,"stim/objects/HouseObjects/rug2.png",1,"left","left",0.477999926,1,1,1
"34",2,34,0.9,"stim/32.jpeg",3,2,3,NA,"Instruments",2,"stim/objects/Instruments/musicsheet2.png",4,"right","right",0.579999924,1,1,1
"35",2,35,0.1,"stim/43.jpeg",4,3,3,NA,"Instruments",2,"stim/objects/Instruments/record2.png",3,"right","left",0.489000082,0,0,1
"36",2,36,0.5,"stim/61.jpeg",6,1,1,NA,"HouseObjects",1,"stim/objects/HouseObjects/lintroller.png",1,"left","",NA,0,0,1
"37",2,37,0.5,"stim/63.jpeg",6,3,1,NA,"HouseObjects",1,"stim/objects/HouseObjects/pan.png",1,"left","right",0.579999924,0,0,1
"38",2,38,0.9,"stim/44.jpeg",4,4,3,NA,"HouseObjects",1,"stim/objects/HouseObjects/rug2.png",4,"left","left",0.47300005,1,1,1
"39",2,39,0.5,"stim/54.jpeg",5,4,1,NA,"HouseObjects",1,"stim/objects/HouseObjects/knife.png",3,"left","left",0.572000027,1,1,1
"40",2,40,0.5,"stim/53.jpeg",5,3,1,NA,"HouseObjects",1,"stim/objects/HouseObjects/key.png",1,"left","left",0.480999947,1,1,1
"41",2,41,0.7,"stim/12.jpeg",1,2,2,NA,"Instruments",2,"stim/objects/Instruments/pipepiano.png",1,"right","right",0.534000158,1,1,1
"42",2,42,0.7,"stim/23.jpeg",2,3,2,NA,"HouseObjects",1,"stim/objects/HouseObjects/key2.png",2,"left","left",0.513999939,1,1,1
"43",2,43,0.9,"stim/34.jpeg",3,4,3,NA,"Instruments",2,"stim/objects/Instruments/oboe2.png",2,"right","right",0.627000093,1,1,1
"44",2,44,0.3,"stim/21.jpeg",2,1,2,NA,"Instruments",2,"stim/objects/Instruments/keyboard2.png",4,"right","left",0.434000015,0,0,1
"45",2,45,0.9,"stim/33.jpeg",3,3,3,NA,"Instruments",2,"stim/objects/Instruments/musicstand2.png",1,"right","right",0.467000008,1,1,1
"46",2,46,0.3,"stim/14.jpeg",1,4,2,NA,"HouseObjects",1,"stim/objects/HouseObjects/rug.png",3,"left","right",0.640000105,0,0,1
"47",2,47,0.9,"stim/34.jpeg",3,4,3,NA,"Instruments",2,"stim/objects/Instruments/oboe2.png",1,"right","right",0.525000095,1,1,1
"48",2,48,0.9,"stim/42.jpeg",4,2,3,NA,"HouseObjects",1,"stim/objects/HouseObjects/remote2.png",1,"left","left",0.453000069,1,1,1
"49",2,49,0.5,"stim/62.jpeg",6,2,1,NA,"HouseObjects",1,"stim/objects/HouseObjects/match.png",1,"left","left",0.576999903,1,1,1
"50",2,50,0.9,"stim/43.jpeg",4,3,3,NA,"HouseObjects",1,"stim/objects/HouseObjects/rubbergloves2.png",2,"left","left",0.510999918,1,1,1
"51",2,51,0.5,"stim/52.jpeg",5,2,1,NA,"HouseObjects",1,"stim/objects/HouseObjects/ironingboard.png",2,"left","right",0.763999939,0,0,1
"52",2,52,0.9,"stim/41.jpeg",4,1,3,NA,"HouseObjects",1,"stim/objects/HouseObjects/recyclingbin2.png",1,"left","left",0.518000126,1,1,1
"53",2,53,0.5,"stim/63.jpeg",6,3,1,NA,"Instruments",2,"stim/objects/Instruments/musicstand.png",1,"right","left",0.741999865,0,0,1
"54",2,54,0.7,"stim/22.jpeg",2,2,2,NA,"HouseObjects",1,"stim/objects/HouseObjects/ironingboard2.png",3,"left","left",0.423999786,1,1,1
"55",2,55,0.9,"stim/31.jpeg",3,1,3,NA,"Instruments",2,"stim/objects/Instruments/metronome2.png",3,"right","right",0.552999973,1,1,1
"56",2,56,0.5,"stim/53.jpeg",5,3,1,NA,"Instruments",2,"stim/objects/Instruments/maraca.png",4,"right","left",0.481999874,0,0,1
"57",2,57,0.3,"stim/22.jpeg",2,2,2,NA,"Instruments",2,"stim/objects/Instruments/laud2.png",3,"right","left",0.468000174,0,0,1
"58",2,58,0.5,"stim/53.jpeg",5,3,1,NA,"HouseObjects",1,"stim/objects/HouseObjects/key.png",4,"left","right",0.592999935,0,0,1
"59",2,59,0.7,"stim/14.jpeg",1,4,2,NA,"Instruments",2,"stim/objects/Instruments/record_player.png",1,"right","right",0.588000059,1,1,1
"60",2,60,0.7,"stim/21.jpeg",2,1,2,NA,"HouseObjects",1,"stim/objects/HouseObjects/iron2.png",1,"left","left",0.447000027,1,1,1
"61",2,61,0.3,"stim/21.jpeg",2,1,2,NA,"Instruments",2,"stim/objects/Instruments/keyboard2.png",2,"right","left",0.536000013,0,0,1
"62",2,62,0.9,"stim/31.jpeg",3,1,3,NA,"Instruments",2,"stim/objects/Instruments/metronome2.png",2,"right","right",0.499000072,1,1,1
"63",2,63,0.7,"stim/22.jpeg",2,2,2,NA,"HouseObjects",1,"stim/objects/HouseObjects/ironingboard2.png",3,"left","left",0.44900012,1,1,1
"64",2,64,0.9,"stim/44.jpeg",4,4,3,NA,"HouseObjects",1,"stim/objects/HouseObjects/rug2.png",4,"left","left",0.498000145,1,1,1
"65",2,65,0.7,"stim/22.jpeg",2,2,2,NA,"HouseObjects",1,"stim/objects/HouseObjects/ironingboard2.png",3,"left","left",0.492000103,1,1,1
"66",2,66,0.9,"stim/41.jpeg",4,1,3,NA,"HouseObjects",1,"stim/objects/HouseObjects/recyclingbin2.png",3,"left","left",0.555999994,1,1,1
"67",2,67,0.7,"stim/12.jpeg",1,2,2,NA,"Instruments",2,"stim/objects/Instruments/pipepiano.png",3,"right","right",0.592999935,1,1,1
"68",2,68,0.7,"stim/24.jpeg",2,4,2,NA,"HouseObjects",1,"stim/objects/HouseObjects/knife2.png",2,"left","left",0.441999912,1,1,1
"69",2,69,0.5,"stim/53.jpeg",5,3,1,NA,"HouseObjects",1,"stim/objects/HouseObjects/key.png",3,"left","right",0.585000038,0,0,1
"70",2,70,0.7,"stim/24.jpeg",2,4,2,NA,"HouseObjects",1,"stim/objects/HouseObjects/knife2.png",4,"left","left",0.463999987,1,1,1
"71",2,71,0.9,"stim/34.jpeg",3,4,3,NA,"Instruments",2,"stim/objects/Instruments/oboe2.png",2,"right","right",0.546999931,1,1,1
"72",2,72,0.9,"stim/31.jpeg",3,1,3,NA,"Instruments",2,"stim/objects/Instruments/metronome2.png",3,"right","right",0.57400012,1,1,1
"73",2,73,0.5,"stim/62.jpeg",6,2,1,NA,"Instruments",2,"stim/objects/Instruments/musicsheet.png",4,"right","left",0.50999999,0,0,1
"74",2,74,0.5,"stim/64.jpeg",6,4,1,NA,"HouseObjects",1,"stim/objects/HouseObjects/pitcher.png",3,"left","left",0.670000076,1,1,1
"75",2,75,0.9,"stim/42.jpeg",4,2,3,NA,"HouseObjects",1,"stim/objects/HouseObjects/remote2.png",3,"left","left",0.528000116,1,1,1
"76",2,76,0.3,"stim/13.jpeg",1,3,2,NA,"HouseObjects",1,"stim/objects/HouseObjects/rubbergloves.png",4,"left","right",0.542999983,0,0,1
"77",2,77,0.7,"stim/13.jpeg",1,3,2,NA,"Instruments",2,"stim/objects/Instruments/record.png",4,"right","left",0.503999949,0,0,1
"78",2,78,0.9,"stim/34.jpeg",3,4,3,NA,"Instruments",2,"stim/objects/Instruments/oboe2.png",2,"right","right",0.507999897,1,1,1
"79",2,79,0.5,"stim/63.jpeg",6,3,1,NA,"Instruments",2,"stim/objects/Instruments/musicstand.png",2,"right","left",0.663000107,0,0,1
"80",2,80,0.7,"stim/12.jpeg",1,2,2,NA,"Instruments",2,"stim/objects/Instruments/pipepiano.png",2,"right","right",0.549000025,1,1,1
"81",2,81,0.3,"stim/22.jpeg",2,2,2,NA,"Instruments",2,"stim/objects/Instruments/laud2.png",4,"right","left",0.532999992,0,0,1
"82",2,82,0.7,"stim/21.jpeg",2,1,2,NA,"HouseObjects",1,"stim/objects/HouseObjects/iron2.png",3,"left","left",0.535000086,1,1,1
"83",2,83,0.7,"stim/23.jpeg",2,3,2,NA,"HouseObjects",1,"stim/objects/HouseObjects/key2.png",3,"left","left",0.593999863,1,1,1
"84",2,84,0.9,"stim/41.jpeg",4,1,3,NA,"HouseObjects",1,"stim/objects/HouseObjects/recyclingbin2.png",3,"left","left",0.623000145,1,1,1
"85",2,85,0.9,"stim/44.jpeg",4,4,3,NA,"HouseObjects",1,"stim/objects/HouseObjects/rug2.png",4,"left","left",0.437000036,1,1,1
"86",2,86,0.3,"stim/24.jpeg",2,4,2,NA,"Instruments",2,"stim/objects/Instruments/marimba2.png",2,"right","left",0.514999866,0,0,1
"87",2,87,0.7,"stim/11.jpeg",1,1,2,NA,"Instruments",2,"stim/objects/Instruments/panflute.png",1,"right","right",0.541000128,1,1,1
"88",2,88,0.9,"stim/44.jpeg",4,4,3,NA,"HouseObjects",1,"stim/objects/HouseObjects/rug2.png",2,"left","left",0.628999949,1,1,1
"89",2,89,0.9,"stim/41.jpeg",4,1,3,NA,"HouseObjects",1,"stim/objects/HouseObjects/recyclingbin2.png",1,"left","left",0.467000008,1,1,1
"90",2,90,0.7,"stim/14.jpeg",1,4,2,NA,"Instruments",2,"stim/objects/Instruments/record_player.png",4,"right","right",0.592000008,1,1,1
"91",2,91,0.5,"stim/62.jpeg",6,2,1,NA,"HouseObjects",1,"stim/objects/HouseObjects/match.png",3,"left","left",0.552000046,1,1,1
"92",2,92,0.7,"stim/22.jpeg",2,2,2,NA,"HouseObjects",1,"stim/objects/HouseObjects/ironingboard2.png",3,"left","left",0.460000038,1,1,1
"93",2,93,0.5,"stim/63.jpeg",6,3,1,NA,"Instruments",2,"stim/objects/Instruments/musicstand.png",4,"right","left",0.542999983,0,0,1
"94",2,94,0.3,"stim/12.jpeg",1,2,2,NA,"HouseObjects",1,"stim/objects/HouseObjects/remote.png",2,"left","right",0.463000059,0,0,1
"95",2,95,0.9,"stim/44.jpeg",4,4,3,NA,"HouseObjects",1,"stim/objects/HouseObjects/rug2.png",2,"left","left",0.476000071,1,1,1
"96",2,96,0.7,"stim/12.jpeg",1,2,2,NA,"Instruments",2,"stim/objects/Instruments/pipepiano.png",1,"right","right",0.529000044,1,1,1
"97",2,97,0.5,"stim/54.jpeg",5,4,1,NA,"HouseObjects",1,"stim/objects/HouseObjects/knife.png",1,"left","right",0.625999928,0,0,1
"98",2,98,0.3,"stim/23.jpeg",2,3,2,NA,"Instruments",2,"stim/objects/Instruments/maraca2.png",2,"right","left",0.503999949,0,0,1
"99",2,99,0.9,"stim/32.jpeg",3,2,3,NA,"Instruments",2,"stim/objects/Instruments/musicsheet2.png",4,"right","right",0.510999918,1,1,1
"100",2,100,0.9,"stim/34.jpeg",3,4,3,NA,"Instruments",2,"stim/objects/Instruments/oboe2.png",3,"right","right",0.51699996,1,1,1
"101",2,101,0.7,"stim/11.jpeg",1,1,2,NA,"Instruments",2,"stim/objects/Instruments/panflute.png",3,"right","right",0.601000071,1,1,1
"102",2,102,0.9,"stim/31.jpeg",3,1,3,NA,"Instruments",2,"stim/objects/Instruments/metronome2.png",1,"right","right",0.44900012,1,1,1
"103",2,103,0.9,"stim/32.jpeg",3,2,3,NA,"Instruments",2,"stim/objects/Instruments/musicsheet2.png",4,"right","right",0.467000008,1,1,1
"104",2,104,0.7,"stim/23.jpeg",2,3,2,NA,"HouseObjects",1,"stim/objects/HouseObjects/key2.png",1,"left","left",0.368999958,1,1,1
"105",2,105,0.5,"stim/62.jpeg",6,2,1,NA,"Instruments",2,"stim/objects/Instruments/musicsheet.png",1,"right","left",0.582999945,0,0,1
"106",2,106,0.5,"stim/54.jpeg",5,4,1,NA,"Instruments",2,"stim/objects/Instruments/marimba.png",3,"right","right",0.537999868,1,1,1
"107",2,107,0.5,"stim/64.jpeg",6,4,1,NA,"HouseObjects",1,"stim/objects/HouseObjects/pitcher.png",4,"left","left",0.506000042,1,1,1
"108",2,108,0.3,"stim/24.jpeg",2,4,2,NA,"Instruments",2,"stim/objects/Instruments/marimba2.png",3,"right","left",0.459000111,0,0,1
"109",2,109,0.5,"stim/52.jpeg",5,2,1,NA,"HouseObjects",1,"stim/objects/HouseObjects/ironingboard.png",3,"left","left",0.361000061,1,1,1
"110",2,110,0.9,"stim/32.jpeg",3,2,3,NA,"Instruments",2,"stim/objects/Instruments/musicsheet2.png",3,"right","right",0.557999849,1,1,1
"111",2,111,0.7,"stim/11.jpeg",1,1,2,NA,"Instruments",2,"stim/objects/Instruments/panflute.png",3,"right","right",0.588000059,1,1,1
"112",2,112,0.3,"stim/11.jpeg",1,1,2,NA,"HouseObjects",1,"stim/objects/HouseObjects/recyclingbin.png",2,"left","right",0.495000124,0,0,1
"113",2,113,0.5,"stim/61.jpeg",6,1,1,NA,"Instruments",2,"stim/objects/Instruments/metronome.png",2,"right","left",0.510999918,0,0,1
"114",2,114,0.7,"stim/14.jpeg",1,4,2,NA,"Instruments",2,"stim/objects/Instruments/record_player.png",4,"right","right",0.623999834,1,1,1
"115",2,115,0.5,"stim/52.jpeg",5,2,1,NA,"HouseObjects",1,"stim/objects/HouseObjects/ironingboard.png",1,"left","left",0.489000082,1,1,1
"116",2,116,0.5,"stim/52.jpeg",5,2,1,NA,"HouseObjects",1,"stim/objects/HouseObjects/ironingboard.png",2,"left","right",0.755000114,0,0,1
"117",2,117,0.5,"stim/51.jpeg",5,1,1,NA,"HouseObjects",1,"stim/objects/HouseObjects/iron.png",3,"left","right",0.845000029,0,0,1
"118",2,118,0.3,"stim/13.jpeg",1,3,2,NA,"HouseObjects",1,"stim/objects/HouseObjects/rubbergloves.png",1,"left","right",0.5400002,0,0,1
"119",2,119,0.9,"stim/33.jpeg",3,3,3,NA,"Instruments",2,"stim/objects/Instruments/musicstand2.png",3,"right","right",0.46600008,1,1,1
"120",2,120,0.9,"stim/33.jpeg",3,3,3,NA,"Instruments",2,"stim/objects/Instruments/musicstand2.png",2,"right","right",0.546000004,1,1,1
"121",2,121,0.7,"stim/23.jpeg",2,3,2,NA,"HouseObjects",1,"stim/objects/HouseObjects/key2.png",2,"left","left",0.602999926,1,1,1
"122",2,122,0.5,"stim/51.jpeg",5,1,1,NA,"HouseObjects",1,"stim/objects/HouseObjects/iron.png",1,"left","right",0.595999956,0,0,1
"123",2,123,0.9,"stim/31.jpeg",3,1,3,NA,"Instruments",2,"stim/objects/Instruments/metronome2.png",2,"right","right",0.493999958,1,1,1
"124",2,124,0.7,"stim/13.jpeg",1,3,2,NA,"Instruments",2,"stim/objects/Instruments/record.png",2,"right","right",0.50999999,1,1,1
"125",2,125,0.5,"stim/51.jpeg",5,1,1,NA,"Instruments",2,"stim/objects/Instruments/keyboard.png",4,"right","right",0.641000032,1,1,1
"126",2,126,0.5,"stim/54.jpeg",5,4,1,NA,"HouseObjects",1,"stim/objects/HouseObjects/knife.png",2,"left","left",0.835999966,1,1,1
"127",2,127,0.9,"stim/44.jpeg",4,4,3,NA,"HouseObjects",1,"stim/objects/HouseObjects/rug2.png",4,"left","left",0.545000076,1,1,1
"128",2,128,0.7,"stim/24.jpeg",2,4,2,NA,"HouseObjects",1,"stim/objects/HouseObjects/knife2.png",3,"left","left",0.487999916,1,1,1
"129",2,129,0.5,"stim/53.jpeg",5,3,1,NA,"HouseObjects",1,"stim/objects/HouseObjects/key.png",4,"left","right",0.601000071,0,0,1
"130",2,130,0.3,"stim/22.jpeg",2,2,2,NA,"Instruments",2,"stim/objects/Instruments/laud2.png",4,"right","left",0.454999924,0,0,1
"131",2,131,0.1,"stim/32.jpeg",3,2,3,NA,"HouseObjects",1,"stim/objects/HouseObjects/match2.png",4,"left","right",0.498000145,0,0,1
"132",2,132,0.3,"stim/11.jpeg",1,1,2,NA,"HouseObjects",1,"stim/objects/HouseObjects/recyclingbin.png",1,"left","right",0.534999847,0,0,1
"133",2,133,0.7,"stim/13.jpeg",1,3,2,NA,"Instruments",2,"stim/objects/Instruments/record.png",4,"right","right",0.45600009,1,1,1
"134",2,134,0.9,"stim/42.jpeg",4,2,3,NA,"HouseObjects",1,"stim/objects/HouseObjects/remote2.png",4,"left","left",0.545000076,1,1,1
"135",2,135,0.5,"stim/63.jpeg",6,3,1,NA,"Instruments",2,"stim/objects/Instruments/musicstand.png",1,"right","",NA,0,0,1
"136",2,136,0.5,"stim/54.jpeg",5,4,1,NA,"Instruments",2,"stim/objects/Instruments/marimba.png",3,"right","right",0.715999842,1,1,1
"137",2,137,0.9,"stim/32.jpeg",3,2,3,NA,"Instruments",2,"stim/objects/Instruments/musicsheet2.png",4,"right","right",0.546000004,1,1,1
"138",2,138,0.1,"stim/42.jpeg",4,2,3,NA,"Instruments",2,"stim/objects/Instruments/pipepiano2.png",3,"right","left",0.523000002,0,0,1
"139",2,139,0.9,"stim/32.jpeg",3,2,3,NA,"Instruments",2,"stim/objects/Instruments/musicsheet2.png",4,"right","right",0.537000179,1,1,1
"140",2,140,0.5,"stim/64.jpeg",6,4,1,NA,"HouseObjects",1,"stim/objects/HouseObjects/pitcher.png",3,"left","left",0.621000051,1,1,1
"141",2,141,0.5,"stim/51.jpeg",5,1,1,NA,"Instruments",2,"stim/objects/Instruments/keyboard.png",4,"right","right",0.679999828,1,1,1
"142",2,142,0.5,"stim/63.jpeg",6,3,1,NA,"HouseObjects",1,"stim/objects/HouseObjects/pan.png",1,"left","left",0.753999949,1,1,1
"143",2,143,0.9,"stim/34.jpeg",3,4,3,NA,"Instruments",2,"stim/objects/Instruments/oboe2.png",4,"right","right",0.54399991,1,1,1
"144",2,144,0.7,"stim/14.jpeg",1,4,2,NA,"Instruments",2,"stim/objects/Instruments/record_player.png",2,"right","right",0.538000107,1,1,1
"145",2,145,0.9,"stim/33.jpeg",3,3,3,NA,"Instruments",2,"stim/objects/Instruments/musicstand2.png",2,"right","right",0.529999971,1,1,1
"146",2,146,0.3,"stim/11.jpeg",1,1,2,NA,"HouseObjects",1,"stim/objects/HouseObjects/recyclingbin.png",4,"left","right",0.491999865,0,0,1
"147",2,147,0.5,"stim/64.jpeg",6,4,1,NA,"Instruments",2,"stim/objects/Instruments/oboe.png",2,"right","left",0.644000053,0,0,1
"148",2,148,0.3,"stim/24.jpeg",2,4,2,NA,"Instruments",2,"stim/objects/Instruments/marimba2.png",2,"right","left",0.56099987,0,0,1
"149",2,149,0.9,"stim/33.jpeg",3,3,3,NA,"Instruments",2,"stim/objects/Instruments/musicstand2.png",2,"right","right",0.460000038,1,1,1
"150",2,150,0.9,"stim/41.jpeg",4,1,3,NA,"HouseObjects",1,"stim/objects/HouseObjects/recyclingbin2.png",1,"left","left",0.494999886,1,1,1
"151",2,151,0.5,"stim/61.jpeg",6,1,1,NA,"HouseObjects",1,"stim/objects/HouseObjects/lintroller.png",2,"left","left",0.592000008,1,1,1
"152",2,152,0.1,"stim/44.jpeg",4,4,3,NA,"Instruments",2,"stim/objects/Instruments/record_player2.png",3,"right","left",0.481000185,0,0,1
"153",2,153,0.5,"stim/61.jpeg",6,1,1,NA,"Instruments",2,"stim/objects/Instruments/metronome.png",3,"right","right",0.914999962,1,1,1
"154",2,154,0.5,"stim/53.jpeg",5,3,1,NA,"Instruments",2,"stim/objects/Instruments/maraca.png",2,"right","right",0.603999853,1,1,1
"155",2,155,0.5,"stim/62.jpeg",6,2,1,NA,"Instruments",2,"stim/objects/Instruments/musicsheet.png",2,"right","left",0.442000151,0,0,1
"156",2,156,0.9,"stim/42.jpeg",4,2,3,NA,"HouseObjects",1,"stim/objects/HouseObjects/remote2.png",1,"left","left",0.526000023,1,1,1
"157",2,157,0.9,"stim/43.jpeg",4,3,3,NA,"HouseObjects",1,"stim/objects/HouseObjects/rubbergloves2.png",3,"left","left",0.823999882,1,1,1
"158",2,158,0.9,"stim/42.jpeg",4,2,3,NA,"HouseObjects",1,"stim/objects/HouseObjects/remote2.png",1,"left","left",0.508000135,1,1,1
"159",2,159,0.7,"stim/24.jpeg",2,4,2,NA,"HouseObjects",1,"stim/objects/HouseObjects/knife2.png",4,"left","left",0.480999947,1,1,1
"160",2,160,0.5,"stim/52.jpeg",5,2,1,NA,"Instruments",2,"stim/objects/Instruments/laud.png",2,"right","right",0.625999928,1,1,1
"161",2,161,0.5,"stim/62.jpeg",6,2,1,NA,"HouseObjects",1,"stim/objects/HouseObjects/match.png",1,"left","left",0.508000135,1,1,1
"162",2,162,0.9,"stim/43.jpeg",4,3,3,NA,"HouseObjects",1,"stim/objects/HouseObjects/rubbergloves2.png",1,"left","left",0.50999999,1,1,1
"163",2,163,0.7,"stim/12.jpeg",1,2,2,NA,"Instruments",2,"stim/objects/Instruments/pipepiano.png",2,"right","right",0.599999905,1,1,1
"164",2,164,0.7,"stim/21.jpeg",2,1,2,NA,"HouseObjects",1,"stim/objects/HouseObjects/iron2.png",2,"left","left",0.541000128,1,1,1
"165",2,165,0.5,"stim/51.jpeg",5,1,1,NA,"Instruments",2,"stim/objects/Instruments/keyboard.png",1,"right","right",0.727999926,1,1,1
"166",2,166,0.9,"stim/34.jpeg",3,4,3,NA,"Instruments",2,"stim/objects/Instruments/oboe2.png",3,"right","right",0.462000132,1,1,1
"167",2,167,0.5,"stim/61.jpeg",6,1,1,NA,"Instruments",2,"stim/objects/Instruments/metronome.png",3,"right","right",0.660000086,1,1,1
"168",2,168,0.9,"stim/44.jpeg",4,4,3,NA,"HouseObjects",1,"stim/objects/HouseObjects/rug2.png",2,"left","left",0.613999844,1,1,1
"169",2,169,0.9,"stim/43.jpeg",4,3,3,NA,"HouseObjects",1,"stim/objects/HouseObjects/rubbergloves2.png",2,"left","left",0.414000034,1,1,1
"170",2,170,0.7,"stim/14.jpeg",1,4,2,NA,"Instruments",2,"stim/objects/Instruments/record_player.png",3,"right","right",0.603000164,1,1,1
"171",2,171,0.3,"stim/12.jpeg",1,2,2,NA,"HouseObjects",1,"stim/objects/HouseObjects/remote.png",2,"left","right",0.499000072,0,0,1
"172",2,172,0.5,"stim/63.jpeg",6,3,1,NA,"HouseObjects",1,"stim/objects/HouseObjects/pan.png",4,"left","left",0.633000135,1,1,1
"173",2,173,0.7,"stim/13.jpeg",1,3,2,NA,"Instruments",2,"stim/objects/Instruments/record.png",4,"right","right",0.542000055,1,1,1
"174",2,174,0.3,"stim/21.jpeg",2,1,2,NA,"Instruments",2,"stim/objects/Instruments/keyboard2.png",4,"right","left",0.527000189,0,0,1
"175",2,175,0.9,"stim/43.jpeg",4,3,3,NA,"HouseObjects",1,"stim/objects/HouseObjects/rubbergloves2.png",3,"left","left",0.48300004,1,1,1
"176",2,176,0.5,"stim/61.jpeg",6,1,1,NA,"HouseObjects",1,"stim/objects/HouseObjects/lintroller.png",4,"left","right",0.537000179,0,0,1
"177",2,177,0.7,"stim/22.jpeg",2,2,2,NA,"HouseObjects",1,"stim/objects/HouseObjects/ironingboard2.png",1,"left","left",0.478999853,1,1,1
"178",2,178,0.7,"stim/21.jpeg",2,1,2,NA,"HouseObjects",1,"stim/objects/HouseObjects/iron2.png",2,"left","left",0.49000001,1,1,1
"179",2,179,0.9,"stim/33.jpeg",3,3,3,NA,"Instruments",2,"stim/objects/Instruments/musicstand2.png",2,"right","right",0.552000046,1,1,1
"180",2,180,0.5,"stim/52.jpeg",5,2,1,NA,"HouseObjects",1,"stim/objects/HouseObjects/ironingboard.png",2,"left","right",0.605000019,0,0,1
"181",2,181,0.9,"stim/42.jpeg",4,2,3,NA,"HouseObjects",1,"stim/objects/HouseObjects/remote2.png",3,"left","left",0.524999857,1,1,1
"182",2,182,0.7,"stim/22.jpeg",2,2,2,NA,"HouseObjects",1,"stim/objects/HouseObjects/ironingboard2.png",4,"left","left",0.480000019,1,1,1
"183",2,183,0.7,"stim/21.jpeg",2,1,2,NA,"HouseObjects",1,"stim/objects/HouseObjects/iron2.png",1,"left","left",0.519999981,1,1,1
"184",2,184,0.3,"stim/23.jpeg",2,3,2,NA,"Instruments",2,"stim/objects/Instruments/maraca2.png",1,"right","left",0.463999987,0,0,1
"185",2,185,0.5,"stim/54.jpeg",5,4,1,NA,"Instruments",2,"stim/objects/Instruments/marimba.png",4,"right","right",0.617000103,1,1,1
"186",2,186,0.7,"stim/24.jpeg",2,4,2,NA,"HouseObjects",1,"stim/objects/HouseObjects/knife2.png",4,"left","left",0.49000001,1,1,1
"187",2,187,0.3,"stim/13.jpeg",1,3,2,NA,"HouseObjects",1,"stim/objects/HouseObjects/rubbergloves.png",4,"left","right",0.517999887,0,0,1
"188",2,188,0.7,"stim/23.jpeg",2,3,2,NA,"HouseObjects",1,"stim/objects/HouseObjects/key2.png",4,"left","left",0.559000015,1,1,1
"189",2,189,0.9,"stim/42.jpeg",4,2,3,NA,"HouseObjects",1,"stim/objects/HouseObjects/remote2.png",2,"left","left",0.501000166,1,1,1
"190",2,190,0.9,"stim/41.jpeg",4,1,3,NA,"HouseObjects",1,"stim/objects/HouseObjects/recyclingbin2.png",2,"left","left",0.497000217,1,1,1
"191",2,191,0.5,"stim/61.jpeg",6,1,1,NA,"HouseObjects",1,"stim/objects/HouseObjects/lintroller.png",4,"left","right",0.551999807,0,0,1
"192",2,192,0.7,"stim/23.jpeg",2,3,2,NA,"HouseObjects",1,"stim/objects/HouseObjects/key2.png",1,"left","left",0.40899992,1,1,1
"193",2,193,0.7,"stim/21.jpeg",2,1,2,NA,"HouseObjects",1,"stim/objects/HouseObjects/iron2.png",1,"left","left",0.595000029,1,1,1
"194",2,194,0.9,"stim/32.jpeg",3,2,3,NA,"Instruments",2,"stim/objects/Instruments/musicsheet2.png",1,"right","right",0.519999981,1,1,1
"195",2,195,0.3,"stim/14.jpeg",1,4,2,NA,"HouseObjects",1,"stim/objects/HouseObjects/rug.png",4,"left","right",0.419999838,0,0,1
"196",2,196,0.1,"stim/41.jpeg",4,1,3,NA,"Instruments",2,"stim/objects/Instruments/panflute2.png",1,"right","left",0.392999887,0,0,1
"197",2,197,0.5,"stim/64.jpeg",6,4,1,NA,"Instruments",2,"stim/objects/Instruments/oboe.png",3,"right","right",0.489000082,1,1,1
"198",2,198,0.5,"stim/53.jpeg",5,3,1,NA,"Instruments",2,"stim/objects/Instruments/maraca.png",3,"right","right",0.58100009,1,1,1
"199",2,199,0.5,"stim/54.jpeg",5,4,1,NA,"HouseObjects",1,"stim/objects/HouseObjects/knife.png",4,"left","left",0.506999969,1,1,1
"200",2,200,0.5,"stim/52.jpeg",5,2,1,NA,"Instruments",2,"stim/objects/Instruments/laud.png",3,"right","left",0.75999999,0,0,1
"201",2,201,0.9,"stim/43.jpeg",4,3,3,NA,"HouseObjects",1,"stim/objects/HouseObjects/rubbergloves2.png",4,"left","",NA,0,0,1
"202",2,202,0.5,"stim/63.jpeg",6,3,1,NA,"HouseObjects",1,"stim/objects/HouseObjects/pan.png",3,"left","left",0.569999933,1,1,1
"203",2,203,0.9,"stim/31.jpeg",3,1,3,NA,"Instruments",2,"stim/objects/Instruments/metronome2.png",1,"right","right",0.506999969,1,1,1
"204",2,204,0.5,"stim/51.jpeg",5,1,1,NA,"HouseObjects",1,"stim/objects/HouseObjects/iron.png",1,"left","right",0.529999971,0,0,1
"205",2,205,0.7,"stim/13.jpeg",1,3,2,NA,"Instruments",2,"stim/objects/Instruments/record.png",4,"right","right",0.520999908,1,1,1
"206",2,206,0.5,"stim/53.jpeg",5,3,1,NA,"Instruments",2,"stim/objects/Instruments/maraca.png",3,"right","right",0.576999903,1,1,1
"207",2,207,0.3,"stim/12.jpeg",1,2,2,NA,"HouseObjects",1,"stim/objects/HouseObjects/remote.png",1,"left","right",0.527999878,0,0,1
"208",2,208,0.5,"stim/51.jpeg",5,1,1,NA,"Instruments",2,"stim/objects/Instruments/keyboard.png",1,"right","right",0.583999872,1,1,1
"209",2,209,0.7,"stim/11.jpeg",1,1,2,NA,"Instruments",2,"stim/objects/Instruments/panflute.png",2,"right","right",0.595999956,1,1,1
"210",2,210,0.7,"stim/21.jpeg",2,1,2,NA,"HouseObjects",1,"stim/objects/HouseObjects/iron2.png",1,"left","left",0.601999998,1,1,1
"211",2,211,0.5,"stim/53.jpeg",5,3,1,NA,"HouseObjects",1,"stim/objects/HouseObjects/key.png",2,"left","right",0.667000055,0,0,1
"212",2,212,0.5,"stim/64.jpeg",6,4,1,NA,"Instruments",2,"stim/objects/Instruments/oboe.png",1,"right","left",0.604000092,0,0,1
"213",2,213,0.5,"stim/51.jpeg",5,1,1,NA,"HouseObjects",1,"stim/objects/HouseObjects/iron.png",2,"left","right",0.632999897,0,0,1
"214",2,214,0.7,"stim/12.jpeg",1,2,2,NA,"Instruments",2,"stim/objects/Instruments/pipepiano.png",1,"right","right",0.704999924,1,1,1
"215",2,215,0.7,"stim/24.jpeg",2,4,2,NA,"HouseObjects",1,"stim/objects/HouseObjects/knife2.png",2,"left","left",0.504999876,1,1,1
"216",2,216,0.1,"stim/31.jpeg",3,1,3,NA,"HouseObjects",1,"stim/objects/HouseObjects/lintroller2.png",4,"left","right",0.536000013,0,0,1
"217",2,217,0.5,"stim/64.jpeg",6,4,1,NA,"HouseObjects",1,"stim/objects/HouseObjects/pitcher.png",4,"left","left",0.565999985,1,1,1
"218",2,218,0.5,"stim/62.jpeg",6,2,1,NA,"Instruments",2,"stim/objects/Instruments/musicsheet.png",2,"right","left",0.614000082,0,0,1
"219",2,219,0.1,"stim/33.jpeg",3,3,3,NA,"HouseObjects",1,"stim/objects/HouseObjects/pan2.png",4,"left","right",0.513999939,0,0,1
"220",2,220,0.9,"stim/43.jpeg",4,3,3,NA,"HouseObjects",1,"stim/objects/HouseObjects/rubbergloves2.png",1,"left","left",0.460000038,1,1,1
"221",2,221,0.5,"stim/64.jpeg",6,4,1,NA,"Instruments",2,"stim/objects/Instruments/oboe.png",3,"right","left",0.506999969,0,0,1
"222",2,222,0.9,"stim/32.jpeg",3,2,3,NA,"Instruments",2,"stim/objects/Instruments/musicsheet2.png",3,"right","right",0.494999886,1,1,1
"223",2,223,0.5,"stim/61.jpeg",6,1,1,NA,"Instruments",2,"stim/objects/Instruments/metronome.png",2,"right","right",0.524000168,1,1,1
"224",2,224,0.5,"stim/62.jpeg",6,2,1,NA,"HouseObjects",1,"stim/objects/HouseObjects/match.png",3,"left","left",0.454999924,1,1,1
"225",2,225,0.5,"stim/64.jpeg",6,4,1,NA,"Instruments",2,"stim/objects/Instruments/oboe.png",3,"right","left",0.524999857,0,0,1
"226",2,226,0.5,"stim/54.jpeg",5,4,1,NA,"HouseObjects",1,"stim/objects/HouseObjects/knife.png",4,"left","right",0.478000164,0,0,1
"227",2,227,0.5,"stim/52.jpeg",5,2,1,NA,"Instruments",2,"stim/objects/Instruments/laud.png",4,"right","right",0.654000044,1,1,1
"228",2,228,0.5,"stim/61.jpeg",6,1,1,NA,"Instruments",2,"stim/objects/Instruments/metronome.png",1,"right","right",0.535999775,1,1,1
"229",2,229,0.9,"stim/33.jpeg",3,3,3,NA,"Instruments",2,"stim/objects/Instruments/musicstand2.png",4,"right","right",0.447000027,1,1,1
"230",2,230,0.5,"stim/53.jpeg",5,3,1,NA,"Instruments",2,"stim/objects/Instruments/maraca.png",2,"right","right",0.595999956,1,1,1
"231",2,231,0.7,"stim/14.jpeg",1,4,2,NA,"Instruments",2,"stim/objects/Instruments/record_player.png",3,"right","right",0.634000063,1,1,1
"232",2,232,0.5,"stim/51.jpeg",5,1,1,NA,"HouseObjects",1,"stim/objects/HouseObjects/iron.png",1,"left","right",0.502000093,0,0,1
"233",2,233,0.5,"stim/54.jpeg",5,4,1,NA,"Instruments",2,"stim/objects/Instruments/marimba.png",2,"right","left",0.752000093,0,0,1
"234",2,234,0.9,"stim/41.jpeg",4,1,3,NA,"HouseObjects",1,"stim/objects/HouseObjects/recyclingbin2.png",1,"left","left",0.691000223,1,1,1
"235",2,235,0.5,"stim/63.jpeg",6,3,1,NA,"HouseObjects",1,"stim/objects/HouseObjects/pan.png",4,"left","right",0.613999844,0,0,1
"236",2,236,0.5,"stim/61.jpeg",6,1,1,NA,"HouseObjects",1,"stim/objects/HouseObjects/lintroller.png",2,"left","right",0.545000076,0,0,1
"237",2,237,0.5,"stim/52.jpeg",5,2,1,NA,"Instruments",2,"stim/objects/Instruments/laud.png",2,"right","right",0.667000055,1,1,1
"238",2,238,0.9,"stim/44.jpeg",4,4,3,NA,"HouseObjects",1,"stim/objects/HouseObjects/rug2.png",2,"left","left",0.523999929,1,1,1
"239",2,239,0.7,"stim/11.jpeg",1,1,2,NA,"Instruments",2,"stim/objects/Instruments/panflute.png",3,"right","right",0.469000101,1,1,1
"240",2,240,0.9,"stim/42.jpeg",4,2,3,NA,"HouseObjects",1,"stim/objects/HouseObjects/remote2.png",3,"left","left",0.601999998,1,1,1
