"","obj_file","X.x","participant.x","trialN.x","trial_cond","scn_file.x","scn_cat","scn_inst","scn_condition","fillers","obj_cat","obj_cat_num","quadrant","corr_ans","key_resp_trial.keys","key_resp_trial.rt","trial_acc","trial_acc_manual","group.x","practice","X.y","participant.y","OvsN","PE_level","object_cat","scn_file.y","corr_scn_cat","corr_scn_inst","scn_file.1","corr_loc","key_resp_id.keys","key_resp_id.rt","key_resp_conf.keys","key_resp_assoc.keys","key_resp_assoc.rt","key_resp_loc.keys","key_resp_loc.rt","trialN.y","id_acc","assoc.acc","cond_assoc","loc.acc","cond_loc","group.y"
"208","stim/objects/Instruments/harmonica2.png",1,41,1,0.9,"stim/22.jpeg",2,2,3,NA,"Instruments",1,3,"left","",NA,0,0,0,1,NA,NA,NA,NA,NA,NA,NA,NA,NA,NA,NA,NA,NA,NA,NA,NA,NA,NA,NA,NA,NA,NA,NA,NA
"209","stim/objects/Instruments/harmonica2.png",2,41,2,0.9,"stim/22.jpeg",2,2,3,NA,"Instruments",1,1,"left","left",0.622999907,1,1,0,1,NA,NA,NA,NA,NA,NA,NA,NA,NA,NA,NA,NA,NA,NA,NA,NA,NA,NA,NA,NA,NA,NA,NA,NA
"9","stim/objects/HouseObjects/cushion.png",3,41,3,0.5,"stim/32.jpeg",3,2,1,NA,"HouseObjects",2,1,"right","right",0.74000001,1,1,0,1,NA,NA,NA,NA,NA,NA,NA,NA,NA,NA,NA,NA,NA,NA,NA,NA,NA,NA,NA,NA,NA,NA,NA,NA
"169","stim/objects/Instruments/flutetrans.png",4,41,4,0.5,"stim/41.jpeg",4,1,1,NA,"Instruments",1,2,"left","right",0.788999796,0,0,0,1,NA,NA,NA,NA,NA,NA,NA,NA,NA,NA,NA,NA,NA,NA,NA,NA,NA,NA,NA,NA,NA,NA,NA,NA
"104","stim/objects/HouseObjects/hairdryer2.png",5,41,5,0.1,"stim/22.jpeg",2,2,3,NA,"HouseObjects",2,2,"right","left",0.687000036,0,0,0,1,NA,NA,NA,NA,NA,NA,NA,NA,NA,NA,NA,NA,NA,NA,NA,NA,NA,NA,NA,NA,NA,NA,NA,NA
"210","stim/objects/Instruments/harmonica2.png",6,41,6,0.9,"stim/22.jpeg",2,2,3,NA,"Instruments",1,4,"left","left",0.5849998,1,1,0,1,NA,NA,NA,NA,NA,NA,NA,NA,NA,NA,NA,NA,NA,NA,NA,NA,NA,NA,NA,NA,NA,NA,NA,NA
"105","stim/objects/HouseObjects/handbrush.png",7,41,7,0.7,"stim/53.jpeg",5,3,2,NA,"HouseObjects",2,1,"right","",NA,0,0,0,1,NA,NA,NA,NA,NA,NA,NA,NA,NA,NA,NA,NA,NA,NA,NA,NA,NA,NA,NA,NA,NA,NA,NA,NA
"75","stim/objects/HouseObjects/glass.png",8,41,8,0.5,"stim/44.jpeg",4,4,1,NA,"HouseObjects",2,4,"right","right",0.654999733,1,1,0,1,NA,NA,NA,NA,NA,NA,NA,NA,NA,NA,NA,NA,NA,NA,NA,NA,NA,NA,NA,NA,NA,NA,NA,NA
"211","stim/objects/Instruments/harmonica2.png",9,41,9,0.9,"stim/22.jpeg",2,2,3,NA,"Instruments",1,4,"left","left",0.654000044,1,1,0,1,NA,NA,NA,NA,NA,NA,NA,NA,NA,NA,NA,NA,NA,NA,NA,NA,NA,NA,NA,NA,NA,NA,NA,NA
"217","stim/objects/Instruments/harp.png",10,41,10,0.3,"stim/53.jpeg",5,3,2,NA,"Instruments",1,1,"left","",NA,0,0,0,1,NA,NA,NA,NA,NA,NA,NA,NA,NA,NA,NA,NA,NA,NA,NA,NA,NA,NA,NA,NA,NA,NA,NA,NA
"97","stim/objects/HouseObjects/hairdryer.png",11,41,11,0.7,"stim/52.jpeg",5,2,2,NA,"HouseObjects",2,3,"right","right",0.687999725,1,1,0,1,NA,NA,NA,NA,NA,NA,NA,NA,NA,NA,NA,NA,NA,NA,NA,NA,NA,NA,NA,NA,NA,NA,NA,NA
"80","stim/objects/HouseObjects/glass2.png",12,41,12,0.9,"stim/14.jpeg",1,4,3,NA,"HouseObjects",2,4,"right","",NA,0,0,0,1,NA,NA,NA,NA,NA,NA,NA,NA,NA,NA,NA,NA,NA,NA,NA,NA,NA,NA,NA,NA,NA,NA,NA,NA
"10","stim/objects/HouseObjects/cushion.png",13,41,13,0.5,"stim/32.jpeg",3,2,1,NA,"HouseObjects",2,1,"right","right",0.539000034,1,1,0,1,NA,NA,NA,NA,NA,NA,NA,NA,NA,NA,NA,NA,NA,NA,NA,NA,NA,NA,NA,NA,NA,NA,NA,NA
"66","stim/objects/HouseObjects/garbagebin2.png",14,41,14,0.9,"stim/13.jpeg",1,3,3,NA,"HouseObjects",2,2,"right","right",0.282000065,1,1,0,1,NA,NA,NA,NA,NA,NA,NA,NA,NA,NA,NA,NA,NA,NA,NA,NA,NA,NA,NA,NA,NA,NA,NA,NA
"196","stim/objects/Instruments/guitarcase2.png",15,41,15,0.9,"stim/21.jpeg",2,1,3,NA,"Instruments",1,4,"left","left",0.502999783,1,1,0,1,NA,NA,NA,NA,NA,NA,NA,NA,NA,NA,NA,NA,NA,NA,NA,NA,NA,NA,NA,NA,NA,NA,NA,NA
"157","stim/objects/Instruments/flute.png",16,41,16,0.5,"stim/34.jpeg",3,4,1,NA,"Instruments",1,2,"left","right",0.462999821,0,0,0,1,NA,NA,NA,NA,NA,NA,NA,NA,NA,NA,NA,NA,NA,NA,NA,NA,NA,NA,NA,NA,NA,NA,NA,NA
"38","stim/objects/HouseObjects/dustpan2.png",17,41,17,0.9,"stim/11.jpeg",1,1,3,NA,"HouseObjects",2,2,"right","right",0.513000011,1,1,0,1,NA,NA,NA,NA,NA,NA,NA,NA,NA,NA,NA,NA,NA,NA,NA,NA,NA,NA,NA,NA,NA,NA,NA,NA
"150","stim/objects/Instruments/electricguitar2.png",18,41,18,0.7,"stim/63.jpeg",6,3,2,NA,"Instruments",1,2,"left","left",0.743000031,1,1,0,1,NA,NA,NA,NA,NA,NA,NA,NA,NA,NA,NA,NA,NA,NA,NA,NA,NA,NA,NA,NA,NA,NA,NA,NA
"30","stim/objects/HouseObjects/doormat2.png",19,41,19,0.3,"stim/64.jpeg",6,4,2,NA,"HouseObjects",2,2,"right","left",0.590999842,0,0,0,1,NA,NA,NA,NA,NA,NA,NA,NA,NA,NA,NA,NA,NA,NA,NA,NA,NA,NA,NA,NA,NA,NA,NA,NA
"175","stim/objects/Instruments/frenchhorn.png",20,41,20,0.5,"stim/42.jpeg",4,2,1,NA,"Instruments",1,3,"left","right",0.500999689,0,0,0,1,NA,NA,NA,NA,NA,NA,NA,NA,NA,NA,NA,NA,NA,NA,NA,NA,NA,NA,NA,NA,NA,NA,NA,NA
"106","stim/objects/HouseObjects/handbrush.png",21,41,21,0.7,"stim/53.jpeg",5,3,2,NA,"HouseObjects",2,3,"right","right",0.461999655,1,1,0,1,NA,NA,NA,NA,NA,NA,NA,NA,NA,NA,NA,NA,NA,NA,NA,NA,NA,NA,NA,NA,NA,NA,NA,NA
"52","stim/objects/HouseObjects/flyswatter2.png",22,41,22,0.9,"stim/12.jpeg",1,2,3,NA,"HouseObjects",2,4,"right","right",0.576999903,1,1,0,1,NA,NA,NA,NA,NA,NA,NA,NA,NA,NA,NA,NA,NA,NA,NA,NA,NA,NA,NA,NA,NA,NA,NA,NA
"113","stim/objects/HouseObjects/handvacuum.png",23,41,23,0.7,"stim/54.jpeg",5,4,2,NA,"HouseObjects",2,2,"right","right",0.720000029,1,1,0,1,NA,NA,NA,NA,NA,NA,NA,NA,NA,NA,NA,NA,NA,NA,NA,NA,NA,NA,NA,NA,NA,NA,NA,NA
"107","stim/objects/HouseObjects/handbrush.png",24,41,24,0.7,"stim/53.jpeg",5,3,2,NA,"HouseObjects",2,3,"right","right",0.632999897,1,1,0,1,NA,NA,NA,NA,NA,NA,NA,NA,NA,NA,NA,NA,NA,NA,NA,NA,NA,NA,NA,NA,NA,NA,NA,NA
"138","stim/objects/Instruments/electricdrumset2.png",25,41,25,0.7,"stim/62.jpeg",6,2,2,NA,"Instruments",1,4,"left","left",0.738999844,1,1,0,1,NA,NA,NA,NA,NA,NA,NA,NA,NA,NA,NA,NA,NA,NA,NA,NA,NA,NA,NA,NA,NA,NA,NA,NA
"139","stim/objects/Instruments/electricdrumset2.png",26,41,26,0.7,"stim/62.jpeg",6,2,2,NA,"Instruments",1,3,"left","left",0.606999874,1,1,0,1,NA,NA,NA,NA,NA,NA,NA,NA,NA,NA,NA,NA,NA,NA,NA,NA,NA,NA,NA,NA,NA,NA,NA,NA
"25","stim/objects/HouseObjects/doormat.png",27,41,27,0.5,"stim/34.jpeg",3,4,1,NA,"HouseObjects",2,1,"right","right",0.634999752,1,1,0,1,NA,NA,NA,NA,NA,NA,NA,NA,NA,NA,NA,NA,NA,NA,NA,NA,NA,NA,NA,NA,NA,NA,NA,NA
"212","stim/objects/Instruments/harmonica2.png",28,41,28,0.9,"stim/22.jpeg",2,2,3,NA,"Instruments",1,4,"left","left",0.663999796,1,1,0,1,NA,NA,NA,NA,NA,NA,NA,NA,NA,NA,NA,NA,NA,NA,NA,NA,NA,NA,NA,NA,NA,NA,NA,NA
"220","stim/objects/Instruments/harp2.png",29,41,29,0.9,"stim/23.jpeg",2,3,3,NA,"Instruments",1,1,"left","left",0.532999992,1,1,0,1,NA,NA,NA,NA,NA,NA,NA,NA,NA,NA,NA,NA,NA,NA,NA,NA,NA,NA,NA,NA,NA,NA,NA,NA
"187","stim/objects/Instruments/grandpiano.png",30,41,30,0.5,"stim/44.jpeg",4,4,1,NA,"Instruments",1,3,"left","",NA,0,0,0,1,NA,NA,NA,NA,NA,NA,NA,NA,NA,NA,NA,NA,NA,NA,NA,NA,NA,NA,NA,NA,NA,NA,NA,NA
"221","stim/objects/Instruments/harp2.png",31,41,31,0.9,"stim/23.jpeg",2,3,3,NA,"Instruments",1,3,"left","left",0.634000063,1,1,0,1,NA,NA,NA,NA,NA,NA,NA,NA,NA,NA,NA,NA,NA,NA,NA,NA,NA,NA,NA,NA,NA,NA,NA,NA
"67","stim/objects/HouseObjects/garbagebin2.png",32,41,32,0.9,"stim/13.jpeg",1,3,3,NA,"HouseObjects",2,2,"right","right",0.504999638,1,1,0,1,NA,NA,NA,NA,NA,NA,NA,NA,NA,NA,NA,NA,NA,NA,NA,NA,NA,NA,NA,NA,NA,NA,NA,NA
"53","stim/objects/HouseObjects/flyswatter2.png",33,41,33,0.9,"stim/12.jpeg",1,2,3,NA,"HouseObjects",2,1,"right","right",0.639999866,1,1,0,1,NA,NA,NA,NA,NA,NA,NA,NA,NA,NA,NA,NA,NA,NA,NA,NA,NA,NA,NA,NA,NA,NA,NA,NA
"181","stim/objects/Instruments/gong.png",34,41,34,0.5,"stim/43.jpeg",4,3,1,NA,"Instruments",1,4,"left","left",0.600999832,1,1,0,1,NA,NA,NA,NA,NA,NA,NA,NA,NA,NA,NA,NA,NA,NA,NA,NA,NA,NA,NA,NA,NA,NA,NA,NA
"232","stim/objects/Instruments/hihat2.png",35,41,35,0.9,"stim/24.jpeg",2,4,3,NA,"Instruments",1,4,"left","right",0.502999783,0,0,0,1,NA,NA,NA,NA,NA,NA,NA,NA,NA,NA,NA,NA,NA,NA,NA,NA,NA,NA,NA,NA,NA,NA,NA,NA
"126","stim/objects/Instruments/drums2.png",36,41,36,0.7,"stim/61.jpeg",6,1,2,NA,"Instruments",1,1,"left","left",0.659999847,1,1,0,1,NA,NA,NA,NA,NA,NA,NA,NA,NA,NA,NA,NA,NA,NA,NA,NA,NA,NA,NA,NA,NA,NA,NA,NA
"170","stim/objects/Instruments/flutetrans.png",37,41,37,0.5,"stim/41.jpeg",4,1,1,NA,"Instruments",1,2,"left","",NA,0,0,0,1,NA,NA,NA,NA,NA,NA,NA,NA,NA,NA,NA,NA,NA,NA,NA,NA,NA,NA,NA,NA,NA,NA,NA,NA
"112","stim/objects/HouseObjects/handbrush2.png",38,41,38,0.1,"stim/23.jpeg",2,3,3,NA,"HouseObjects",2,4,"right","left",0.825999737,0,0,0,1,NA,NA,NA,NA,NA,NA,NA,NA,NA,NA,NA,NA,NA,NA,NA,NA,NA,NA,NA,NA,NA,NA,NA,NA
"151","stim/objects/Instruments/electricguitar2.png",39,41,39,0.7,"stim/63.jpeg",6,3,2,NA,"Instruments",1,2,"left","left",0.624999762,1,1,0,1,NA,NA,NA,NA,NA,NA,NA,NA,NA,NA,NA,NA,NA,NA,NA,NA,NA,NA,NA,NA,NA,NA,NA,NA
"121","stim/objects/Instruments/drums.png",40,41,40,0.5,"stim/31.jpeg",3,1,1,NA,"Instruments",1,1,"left","right",0.541999817,0,0,0,1,NA,NA,NA,NA,NA,NA,NA,NA,NA,NA,NA,NA,NA,NA,NA,NA,NA,NA,NA,NA,NA,NA,NA,NA
"162","stim/objects/Instruments/flute2.png",41,41,41,0.7,"stim/64.jpeg",6,4,2,NA,"Instruments",1,4,"left","left",0.672999859,1,1,0,1,NA,NA,NA,NA,NA,NA,NA,NA,NA,NA,NA,NA,NA,NA,NA,NA,NA,NA,NA,NA,NA,NA,NA,NA
"61","stim/objects/HouseObjects/garbagebin.png",42,41,42,0.5,"stim/43.jpeg",4,3,1,NA,"HouseObjects",2,3,"right","left",0.666999817,0,0,0,1,NA,NA,NA,NA,NA,NA,NA,NA,NA,NA,NA,NA,NA,NA,NA,NA,NA,NA,NA,NA,NA,NA,NA,NA
"81","stim/objects/HouseObjects/glass2.png",43,41,43,0.9,"stim/14.jpeg",1,4,3,NA,"HouseObjects",2,3,"right","right",0.686999798,1,1,0,1,NA,NA,NA,NA,NA,NA,NA,NA,NA,NA,NA,NA,NA,NA,NA,NA,NA,NA,NA,NA,NA,NA,NA,NA
"213","stim/objects/Instruments/harmonica2.png",44,41,44,0.9,"stim/22.jpeg",2,2,3,NA,"Instruments",1,3,"left","left",0.488999844,1,1,0,1,NA,NA,NA,NA,NA,NA,NA,NA,NA,NA,NA,NA,NA,NA,NA,NA,NA,NA,NA,NA,NA,NA,NA,NA
"17","stim/objects/HouseObjects/dishsoap.png",45,41,45,0.5,"stim/33.jpeg",3,3,1,NA,"HouseObjects",2,4,"right","right",0.706999779,1,1,0,1,NA,NA,NA,NA,NA,NA,NA,NA,NA,NA,NA,NA,NA,NA,NA,NA,NA,NA,NA,NA,NA,NA,NA,NA
"171","stim/objects/Instruments/flutetrans.png",46,41,46,0.5,"stim/41.jpeg",4,1,1,NA,"Instruments",1,1,"left","left",0.761999846,1,1,0,1,NA,NA,NA,NA,NA,NA,NA,NA,NA,NA,NA,NA,NA,NA,NA,NA,NA,NA,NA,NA,NA,NA,NA,NA
"22","stim/objects/HouseObjects/dishsoap2.png",47,41,47,0.3,"stim/63.jpeg",6,3,2,NA,"HouseObjects",2,2,"right","left",0.687000036,0,0,0,1,NA,NA,NA,NA,NA,NA,NA,NA,NA,NA,NA,NA,NA,NA,NA,NA,NA,NA,NA,NA,NA,NA,NA,NA
"222","stim/objects/Instruments/harp2.png",48,41,48,0.9,"stim/23.jpeg",2,3,3,NA,"Instruments",1,4,"left","left",0.778999805,1,1,0,1,NA,NA,NA,NA,NA,NA,NA,NA,NA,NA,NA,NA,NA,NA,NA,NA,NA,NA,NA,NA,NA,NA,NA,NA
"122","stim/objects/Instruments/drums.png",49,41,49,0.5,"stim/31.jpeg",3,1,1,NA,"Instruments",1,2,"left","right",0.659999847,0,0,0,1,NA,NA,NA,NA,NA,NA,NA,NA,NA,NA,NA,NA,NA,NA,NA,NA,NA,NA,NA,NA,NA,NA,NA,NA
"223","stim/objects/Instruments/harp2.png",50,41,50,0.9,"stim/23.jpeg",2,3,3,NA,"Instruments",1,2,"left","left",0.633999825,1,1,0,1,NA,NA,NA,NA,NA,NA,NA,NA,NA,NA,NA,NA,NA,NA,NA,NA,NA,NA,NA,NA,NA,NA,NA,NA
"26","stim/objects/HouseObjects/doormat.png",51,41,51,0.5,"stim/34.jpeg",3,4,1,NA,"HouseObjects",2,1,"right","",NA,0,0,0,1,NA,NA,NA,NA,NA,NA,NA,NA,NA,NA,NA,NA,NA,NA,NA,NA,NA,NA,NA,NA,NA,NA,NA,NA
"62","stim/objects/HouseObjects/garbagebin.png",52,41,52,0.5,"stim/43.jpeg",4,3,1,NA,"HouseObjects",2,4,"right","left",0.715999842,0,0,0,1,NA,NA,NA,NA,NA,NA,NA,NA,NA,NA,NA,NA,NA,NA,NA,NA,NA,NA,NA,NA,NA,NA,NA,NA
"114","stim/objects/HouseObjects/handvacuum.png",53,41,53,0.7,"stim/54.jpeg",5,4,2,NA,"HouseObjects",2,4,"right","right",0.496999741,1,1,0,1,NA,NA,NA,NA,NA,NA,NA,NA,NA,NA,NA,NA,NA,NA,NA,NA,NA,NA,NA,NA,NA,NA,NA,NA
"233","stim/objects/Instruments/hihat2.png",54,41,54,0.9,"stim/24.jpeg",2,4,3,NA,"Instruments",1,1,"left","left",0.665999889,1,1,0,1,NA,NA,NA,NA,NA,NA,NA,NA,NA,NA,NA,NA,NA,NA,NA,NA,NA,NA,NA,NA,NA,NA,NA,NA
"163","stim/objects/Instruments/flute2.png",55,41,55,0.7,"stim/64.jpeg",6,4,2,NA,"Instruments",1,3,"left","left",0.547999859,1,1,0,1,NA,NA,NA,NA,NA,NA,NA,NA,NA,NA,NA,NA,NA,NA,NA,NA,NA,NA,NA,NA,NA,NA,NA,NA
"205","stim/objects/Instruments/harmonica.png",56,41,56,0.3,"stim/52.jpeg",5,2,2,NA,"Instruments",1,2,"left","right",0.477999926,0,0,0,1,NA,NA,NA,NA,NA,NA,NA,NA,NA,NA,NA,NA,NA,NA,NA,NA,NA,NA,NA,NA,NA,NA,NA,NA
"98","stim/objects/HouseObjects/hairdryer.png",57,41,57,0.7,"stim/52.jpeg",5,2,2,NA,"HouseObjects",2,2,"right","right",0.585999966,1,1,0,1,NA,NA,NA,NA,NA,NA,NA,NA,NA,NA,NA,NA,NA,NA,NA,NA,NA,NA,NA,NA,NA,NA,NA,NA
"18","stim/objects/HouseObjects/dishsoap.png",58,41,58,0.5,"stim/33.jpeg",3,3,1,NA,"HouseObjects",2,3,"right","right",0.815000057,1,1,0,1,NA,NA,NA,NA,NA,NA,NA,NA,NA,NA,NA,NA,NA,NA,NA,NA,NA,NA,NA,NA,NA,NA,NA,NA
"82","stim/objects/HouseObjects/glass2.png",59,41,59,0.9,"stim/14.jpeg",1,4,3,NA,"HouseObjects",2,3,"right","right",0.729999781,1,1,0,1,NA,NA,NA,NA,NA,NA,NA,NA,NA,NA,NA,NA,NA,NA,NA,NA,NA,NA,NA,NA,NA,NA,NA,NA
"182","stim/objects/Instruments/gong.png",60,41,60,0.5,"stim/43.jpeg",4,3,1,NA,"Instruments",1,2,"left","right",0.739999771,0,0,0,1,NA,NA,NA,NA,NA,NA,NA,NA,NA,NA,NA,NA,NA,NA,NA,NA,NA,NA,NA,NA,NA,NA,NA,NA
"174","stim/objects/Instruments/flutetrans2.png",61,41,61,0.1,"stim/11.jpeg",1,1,3,NA,"Instruments",1,3,"left","right",0.622999907,0,0,0,1,NA,NA,NA,NA,NA,NA,NA,NA,NA,NA,NA,NA,NA,NA,NA,NA,NA,NA,NA,NA,NA,NA,NA,NA
"176","stim/objects/Instruments/frenchhorn.png",62,41,62,0.5,"stim/42.jpeg",4,2,1,NA,"Instruments",1,4,"left","left",0.778999805,1,1,0,1,NA,NA,NA,NA,NA,NA,NA,NA,NA,NA,NA,NA,NA,NA,NA,NA,NA,NA,NA,NA,NA,NA,NA,NA
"183","stim/objects/Instruments/gong.png",63,41,63,0.5,"stim/43.jpeg",4,3,1,NA,"Instruments",1,2,"left","left",0.565999746,1,1,0,1,NA,NA,NA,NA,NA,NA,NA,NA,NA,NA,NA,NA,NA,NA,NA,NA,NA,NA,NA,NA,NA,NA,NA,NA
"99","stim/objects/HouseObjects/hairdryer.png",64,41,64,0.7,"stim/52.jpeg",5,2,2,NA,"HouseObjects",2,4,"right","right",0.649999857,1,1,0,1,NA,NA,NA,NA,NA,NA,NA,NA,NA,NA,NA,NA,NA,NA,NA,NA,NA,NA,NA,NA,NA,NA,NA,NA
"123","stim/objects/Instruments/drums.png",65,41,65,0.5,"stim/31.jpeg",3,1,1,NA,"Instruments",1,2,"left","",NA,0,0,0,1,NA,NA,NA,NA,NA,NA,NA,NA,NA,NA,NA,NA,NA,NA,NA,NA,NA,NA,NA,NA,NA,NA,NA,NA
"19","stim/objects/HouseObjects/dishsoap.png",66,41,66,0.5,"stim/33.jpeg",3,3,1,NA,"HouseObjects",2,3,"right","right",0.579999924,1,1,0,1,NA,NA,NA,NA,NA,NA,NA,NA,NA,NA,NA,NA,NA,NA,NA,NA,NA,NA,NA,NA,NA,NA,NA,NA
"184","stim/objects/Instruments/gong.png",67,41,67,0.5,"stim/43.jpeg",4,3,1,NA,"Instruments",1,1,"left","left",0.665999889,1,1,0,1,NA,NA,NA,NA,NA,NA,NA,NA,NA,NA,NA,NA,NA,NA,NA,NA,NA,NA,NA,NA,NA,NA,NA,NA
"76","stim/objects/HouseObjects/glass.png",68,41,68,0.5,"stim/44.jpeg",4,4,1,NA,"HouseObjects",2,1,"right","left",0.687999964,0,0,0,1,NA,NA,NA,NA,NA,NA,NA,NA,NA,NA,NA,NA,NA,NA,NA,NA,NA,NA,NA,NA,NA,NA,NA,NA
"47","stim/objects/HouseObjects/flyswatter.png",69,41,69,0.5,"stim/42.jpeg",4,2,1,NA,"HouseObjects",2,2,"right","left",0.586999655,0,0,0,1,NA,NA,NA,NA,NA,NA,NA,NA,NA,NA,NA,NA,NA,NA,NA,NA,NA,NA,NA,NA,NA,NA,NA,NA
"140","stim/objects/Instruments/electricdrumset2.png",70,41,70,0.7,"stim/62.jpeg",6,2,2,NA,"Instruments",1,3,"left","left",0.684999943,1,1,0,1,NA,NA,NA,NA,NA,NA,NA,NA,NA,NA,NA,NA,NA,NA,NA,NA,NA,NA,NA,NA,NA,NA,NA,NA
"68","stim/objects/HouseObjects/garbagebin2.png",71,41,71,0.9,"stim/13.jpeg",1,3,3,NA,"HouseObjects",2,1,"right","right",0.531999826,1,1,0,1,NA,NA,NA,NA,NA,NA,NA,NA,NA,NA,NA,NA,NA,NA,NA,NA,NA,NA,NA,NA,NA,NA,NA,NA
"234","stim/objects/Instruments/hihat2.png",72,41,72,0.9,"stim/24.jpeg",2,4,3,NA,"Instruments",1,2,"left","left",0.538999796,1,1,0,1,NA,NA,NA,NA,NA,NA,NA,NA,NA,NA,NA,NA,NA,NA,NA,NA,NA,NA,NA,NA,NA,NA,NA,NA
"197","stim/objects/Instruments/guitarcase2.png",73,41,73,0.9,"stim/21.jpeg",2,1,3,NA,"Instruments",1,2,"left","left",0.540999889,1,1,0,1,NA,NA,NA,NA,NA,NA,NA,NA,NA,NA,NA,NA,NA,NA,NA,NA,NA,NA,NA,NA,NA,NA,NA,NA
"172","stim/objects/Instruments/flutetrans.png",74,41,74,0.5,"stim/41.jpeg",4,1,1,NA,"Instruments",1,4,"left","right",0.507999897,0,0,0,1,NA,NA,NA,NA,NA,NA,NA,NA,NA,NA,NA,NA,NA,NA,NA,NA,NA,NA,NA,NA,NA,NA,NA,NA
"188","stim/objects/Instruments/grandpiano.png",75,41,75,0.5,"stim/44.jpeg",4,4,1,NA,"Instruments",1,2,"left","left",0.75,1,1,0,1,NA,NA,NA,NA,NA,NA,NA,NA,NA,NA,NA,NA,NA,NA,NA,NA,NA,NA,NA,NA,NA,NA,NA,NA
"198","stim/objects/Instruments/guitarcase2.png",76,41,76,0.9,"stim/21.jpeg",2,1,3,NA,"Instruments",1,2,"left","left",0.641999722,1,1,0,1,NA,NA,NA,NA,NA,NA,NA,NA,NA,NA,NA,NA,NA,NA,NA,NA,NA,NA,NA,NA,NA,NA,NA,NA
"235","stim/objects/Instruments/hihat2.png",77,41,77,0.9,"stim/24.jpeg",2,4,3,NA,"Instruments",1,4,"left","left",0.597999811,1,1,0,1,NA,NA,NA,NA,NA,NA,NA,NA,NA,NA,NA,NA,NA,NA,NA,NA,NA,NA,NA,NA,NA,NA,NA,NA
"173","stim/objects/Instruments/flutetrans.png",78,41,78,0.5,"stim/41.jpeg",4,1,1,NA,"Instruments",1,2,"left","right",0.529999971,0,0,0,1,NA,NA,NA,NA,NA,NA,NA,NA,NA,NA,NA,NA,NA,NA,NA,NA,NA,NA,NA,NA,NA,NA,NA,NA
"180","stim/objects/Instruments/frenchhorn2.png",79,41,79,0.1,"stim/12.jpeg",1,2,3,NA,"Instruments",1,3,"left","right",0.794999838,0,0,0,1,NA,NA,NA,NA,NA,NA,NA,NA,NA,NA,NA,NA,NA,NA,NA,NA,NA,NA,NA,NA,NA,NA,NA,NA
"89","stim/objects/HouseObjects/glassmop.png",80,41,80,0.7,"stim/51.jpeg",5,1,2,NA,"HouseObjects",2,4,"right","right",0.557999849,1,1,0,1,NA,NA,NA,NA,NA,NA,NA,NA,NA,NA,NA,NA,NA,NA,NA,NA,NA,NA,NA,NA,NA,NA,NA,NA
"115","stim/objects/HouseObjects/handvacuum.png",81,41,81,0.7,"stim/54.jpeg",5,4,2,NA,"HouseObjects",2,4,"right","right",0.522999763,1,1,0,1,NA,NA,NA,NA,NA,NA,NA,NA,NA,NA,NA,NA,NA,NA,NA,NA,NA,NA,NA,NA,NA,NA,NA,NA
"90","stim/objects/HouseObjects/glassmop.png",82,41,82,0.7,"stim/51.jpeg",5,1,2,NA,"HouseObjects",2,3,"right","right",0.544999838,1,1,0,1,NA,NA,NA,NA,NA,NA,NA,NA,NA,NA,NA,NA,NA,NA,NA,NA,NA,NA,NA,NA,NA,NA,NA,NA
"116","stim/objects/HouseObjects/handvacuum.png",83,41,83,0.7,"stim/54.jpeg",5,4,2,NA,"HouseObjects",2,3,"right","right",0.576999903,1,1,0,1,NA,NA,NA,NA,NA,NA,NA,NA,NA,NA,NA,NA,NA,NA,NA,NA,NA,NA,NA,NA,NA,NA,NA,NA
"236","stim/objects/Instruments/hihat2.png",84,41,84,0.9,"stim/24.jpeg",2,4,3,NA,"Instruments",1,3,"left","left",0.677999973,1,1,0,1,NA,NA,NA,NA,NA,NA,NA,NA,NA,NA,NA,NA,NA,NA,NA,NA,NA,NA,NA,NA,NA,NA,NA,NA
"33","stim/objects/HouseObjects/dustpan.png",85,41,85,0.5,"stim/41.jpeg",4,1,1,NA,"HouseObjects",2,4,"right","left",0.672999859,0,0,0,1,NA,NA,NA,NA,NA,NA,NA,NA,NA,NA,NA,NA,NA,NA,NA,NA,NA,NA,NA,NA,NA,NA,NA,NA
"39","stim/objects/HouseObjects/dustpan2.png",86,41,86,0.9,"stim/11.jpeg",1,1,3,NA,"HouseObjects",2,3,"right","right",0.792000055,1,1,0,1,NA,NA,NA,NA,NA,NA,NA,NA,NA,NA,NA,NA,NA,NA,NA,NA,NA,NA,NA,NA,NA,NA,NA,NA
"69","stim/objects/HouseObjects/garbagebin2.png",87,41,87,0.9,"stim/13.jpeg",1,3,3,NA,"HouseObjects",2,3,"right","right",0.670999765,1,1,0,1,NA,NA,NA,NA,NA,NA,NA,NA,NA,NA,NA,NA,NA,NA,NA,NA,NA,NA,NA,NA,NA,NA,NA,NA
"83","stim/objects/HouseObjects/glass2.png",88,41,88,0.9,"stim/14.jpeg",1,4,3,NA,"HouseObjects",2,3,"right","right",0.464999914,1,1,0,1,NA,NA,NA,NA,NA,NA,NA,NA,NA,NA,NA,NA,NA,NA,NA,NA,NA,NA,NA,NA,NA,NA,NA,NA
"120","stim/objects/HouseObjects/handvacuum2.png",89,41,89,0.1,"stim/24.jpeg",2,4,3,NA,"HouseObjects",2,3,"right","left",0.636999846,0,0,0,1,NA,NA,NA,NA,NA,NA,NA,NA,NA,NA,NA,NA,NA,NA,NA,NA,NA,NA,NA,NA,NA,NA,NA,NA
"127","stim/objects/Instruments/drums2.png",90,41,90,0.7,"stim/61.jpeg",6,1,2,NA,"Instruments",1,1,"left","right",0.649999857,0,0,0,1,NA,NA,NA,NA,NA,NA,NA,NA,NA,NA,NA,NA,NA,NA,NA,NA,NA,NA,NA,NA,NA,NA,NA,NA
"237","stim/objects/Instruments/hihat2.png",91,41,91,0.9,"stim/24.jpeg",2,4,3,NA,"Instruments",1,3,"left","",NA,0,0,0,1,NA,NA,NA,NA,NA,NA,NA,NA,NA,NA,NA,NA,NA,NA,NA,NA,NA,NA,NA,NA,NA,NA,NA,NA
"214","stim/objects/Instruments/harmonica2.png",92,41,92,0.9,"stim/22.jpeg",2,2,3,NA,"Instruments",1,2,"left","left",0.593999863,1,1,0,1,NA,NA,NA,NA,NA,NA,NA,NA,NA,NA,NA,NA,NA,NA,NA,NA,NA,NA,NA,NA,NA,NA,NA,NA
"229","stim/objects/Instruments/hihat.png",93,41,93,0.3,"stim/54.jpeg",5,4,2,NA,"Instruments",1,2,"left","right",0.566999912,0,0,0,1,NA,NA,NA,NA,NA,NA,NA,NA,NA,NA,NA,NA,NA,NA,NA,NA,NA,NA,NA,NA,NA,NA,NA,NA
"27","stim/objects/HouseObjects/doormat.png",94,41,94,0.5,"stim/34.jpeg",3,4,1,NA,"HouseObjects",2,1,"right","right",0.841999769,1,1,0,1,NA,NA,NA,NA,NA,NA,NA,NA,NA,NA,NA,NA,NA,NA,NA,NA,NA,NA,NA,NA,NA,NA,NA,NA
"238","stim/objects/Instruments/hihat2.png",95,41,95,0.9,"stim/24.jpeg",2,4,3,NA,"Instruments",1,1,"left","right",0.646999836,0,0,0,1,NA,NA,NA,NA,NA,NA,NA,NA,NA,NA,NA,NA,NA,NA,NA,NA,NA,NA,NA,NA,NA,NA,NA,NA
"133","stim/objects/Instruments/electricdrumset.png",96,41,96,0.5,"stim/32.jpeg",3,2,1,NA,"Instruments",1,4,"left","right",0.762000084,0,0,0,1,NA,NA,NA,NA,NA,NA,NA,NA,NA,NA,NA,NA,NA,NA,NA,NA,NA,NA,NA,NA,NA,NA,NA,NA
"141","stim/objects/Instruments/electricdrumset2.png",97,41,97,0.7,"stim/62.jpeg",6,2,2,NA,"Instruments",1,3,"left","left",0.631999969,1,1,0,1,NA,NA,NA,NA,NA,NA,NA,NA,NA,NA,NA,NA,NA,NA,NA,NA,NA,NA,NA,NA,NA,NA,NA,NA
"199","stim/objects/Instruments/guitarcase2.png",98,41,98,0.9,"stim/21.jpeg",2,1,3,NA,"Instruments",1,2,"left","left",0.698999882,1,1,0,1,NA,NA,NA,NA,NA,NA,NA,NA,NA,NA,NA,NA,NA,NA,NA,NA,NA,NA,NA,NA,NA,NA,NA,NA
"134","stim/objects/Instruments/electricdrumset.png",99,41,99,0.5,"stim/32.jpeg",3,2,1,NA,"Instruments",1,2,"left","right",0.606999874,0,0,0,1,NA,NA,NA,NA,NA,NA,NA,NA,NA,NA,NA,NA,NA,NA,NA,NA,NA,NA,NA,NA,NA,NA,NA,NA
"189","stim/objects/Instruments/grandpiano.png",100,41,100,0.5,"stim/44.jpeg",4,4,1,NA,"Instruments",1,2,"left","left",0.802999973,1,1,0,1,NA,NA,NA,NA,NA,NA,NA,NA,NA,NA,NA,NA,NA,NA,NA,NA,NA,NA,NA,NA,NA,NA,NA,NA
"193","stim/objects/Instruments/guitarcase.png",101,41,101,0.3,"stim/51.jpeg",5,1,2,NA,"Instruments",1,1,"left","right",0.606999874,0,0,0,1,NA,NA,NA,NA,NA,NA,NA,NA,NA,NA,NA,NA,NA,NA,NA,NA,NA,NA,NA,NA,NA,NA,NA,NA
"28","stim/objects/HouseObjects/doormat.png",102,41,102,0.5,"stim/34.jpeg",3,4,1,NA,"HouseObjects",2,3,"right","right",0.667999744,1,1,0,1,NA,NA,NA,NA,NA,NA,NA,NA,NA,NA,NA,NA,NA,NA,NA,NA,NA,NA,NA,NA,NA,NA,NA,NA
"40","stim/objects/HouseObjects/dustpan2.png",103,41,103,0.9,"stim/11.jpeg",1,1,3,NA,"HouseObjects",2,4,"right","left",0.687000036,0,0,0,1,NA,NA,NA,NA,NA,NA,NA,NA,NA,NA,NA,NA,NA,NA,NA,NA,NA,NA,NA,NA,NA,NA,NA,NA
"54","stim/objects/HouseObjects/flyswatter2.png",104,41,104,0.9,"stim/12.jpeg",1,2,3,NA,"HouseObjects",2,3,"right","left",0.556999922,0,0,0,1,NA,NA,NA,NA,NA,NA,NA,NA,NA,NA,NA,NA,NA,NA,NA,NA,NA,NA,NA,NA,NA,NA,NA,NA
"186","stim/objects/Instruments/gong2.png",105,41,105,0.1,"stim/13.jpeg",1,3,3,NA,"Instruments",1,2,"left","right",0.778999805,0,0,0,1,NA,NA,NA,NA,NA,NA,NA,NA,NA,NA,NA,NA,NA,NA,NA,NA,NA,NA,NA,NA,NA,NA,NA,NA
"206","stim/objects/Instruments/harmonica.png",106,41,106,0.3,"stim/52.jpeg",5,2,2,NA,"Instruments",1,1,"left","right",0.581999779,0,0,0,1,NA,NA,NA,NA,NA,NA,NA,NA,NA,NA,NA,NA,NA,NA,NA,NA,NA,NA,NA,NA,NA,NA,NA,NA
"41","stim/objects/HouseObjects/dustpan2.png",107,41,107,0.9,"stim/11.jpeg",1,1,3,NA,"HouseObjects",2,1,"right","right",0.543999672,1,1,0,1,NA,NA,NA,NA,NA,NA,NA,NA,NA,NA,NA,NA,NA,NA,NA,NA,NA,NA,NA,NA,NA,NA,NA,NA
"164","stim/objects/Instruments/flute2.png",108,41,108,0.7,"stim/64.jpeg",6,4,2,NA,"Instruments",1,2,"left","",NA,0,0,0,1,NA,NA,NA,NA,NA,NA,NA,NA,NA,NA,NA,NA,NA,NA,NA,NA,NA,NA,NA,NA,NA,NA,NA,NA
"31","stim/objects/HouseObjects/doormat2.png",109,41,109,0.3,"stim/64.jpeg",6,4,2,NA,"HouseObjects",2,4,"right","left",0.454999924,0,0,0,1,NA,NA,NA,NA,NA,NA,NA,NA,NA,NA,NA,NA,NA,NA,NA,NA,NA,NA,NA,NA,NA,NA,NA,NA
"239","stim/objects/Instruments/hihat2.png",110,41,110,0.9,"stim/24.jpeg",2,4,3,NA,"Instruments",1,1,"left","right",0.554999828,0,0,0,1,NA,NA,NA,NA,NA,NA,NA,NA,NA,NA,NA,NA,NA,NA,NA,NA,NA,NA,NA,NA,NA,NA,NA,NA
"42","stim/objects/HouseObjects/dustpan2.png",111,41,111,0.9,"stim/11.jpeg",1,1,3,NA,"HouseObjects",2,4,"right","right",0.787999868,1,1,0,1,NA,NA,NA,NA,NA,NA,NA,NA,NA,NA,NA,NA,NA,NA,NA,NA,NA,NA,NA,NA,NA,NA,NA,NA
"145","stim/objects/Instruments/electricguitar.png",112,41,112,0.5,"stim/33.jpeg",3,3,1,NA,"Instruments",1,4,"left","right",0.757999897,0,0,0,1,NA,NA,NA,NA,NA,NA,NA,NA,NA,NA,NA,NA,NA,NA,NA,NA,NA,NA,NA,NA,NA,NA,NA,NA
"200","stim/objects/Instruments/guitarcase2.png",113,41,113,0.9,"stim/21.jpeg",2,1,3,NA,"Instruments",1,1,"left","left",0.710999966,1,1,0,1,NA,NA,NA,NA,NA,NA,NA,NA,NA,NA,NA,NA,NA,NA,NA,NA,NA,NA,NA,NA,NA,NA,NA,NA
"1","stim/objects/HouseObjects/coffee.png",114,41,114,0.5,"stim/31.jpeg",3,1,1,NA,"HouseObjects",2,1,"right","right",0.661999702,1,1,0,1,NA,NA,NA,NA,NA,NA,NA,NA,NA,NA,NA,NA,NA,NA,NA,NA,NA,NA,NA,NA,NA,NA,NA,NA
"108","stim/objects/HouseObjects/handbrush.png",115,41,115,0.7,"stim/53.jpeg",5,3,2,NA,"HouseObjects",2,2,"right","",NA,0,0,0,1,NA,NA,NA,NA,NA,NA,NA,NA,NA,NA,NA,NA,NA,NA,NA,NA,NA,NA,NA,NA,NA,NA,NA,NA
"194","stim/objects/Instruments/guitarcase.png",116,41,116,0.3,"stim/51.jpeg",5,1,2,NA,"Instruments",1,3,"left","left",0.565999746,1,1,0,1,NA,NA,NA,NA,NA,NA,NA,NA,NA,NA,NA,NA,NA,NA,NA,NA,NA,NA,NA,NA,NA,NA,NA,NA
"128","stim/objects/Instruments/drums2.png",117,41,117,0.7,"stim/61.jpeg",6,1,2,NA,"Instruments",1,4,"left","left",0.647999763,1,1,0,1,NA,NA,NA,NA,NA,NA,NA,NA,NA,NA,NA,NA,NA,NA,NA,NA,NA,NA,NA,NA,NA,NA,NA,NA
"192","stim/objects/Instruments/grandpiano2.png",118,41,118,0.1,"stim/14.jpeg",1,4,3,NA,"Instruments",1,2,"left","right",0.644999981,0,0,0,1,NA,NA,NA,NA,NA,NA,NA,NA,NA,NA,NA,NA,NA,NA,NA,NA,NA,NA,NA,NA,NA,NA,NA,NA
"240","stim/objects/Instruments/hihat2.png",119,41,119,0.9,"stim/24.jpeg",2,4,3,NA,"Instruments",1,4,"left","left",0.578999758,1,1,0,1,NA,NA,NA,NA,NA,NA,NA,NA,NA,NA,NA,NA,NA,NA,NA,NA,NA,NA,NA,NA,NA,NA,NA,NA
"23","stim/objects/HouseObjects/dishsoap2.png",120,41,120,0.3,"stim/63.jpeg",6,3,2,NA,"HouseObjects",2,4,"right","left",0.714999914,0,0,0,1,NA,NA,NA,NA,NA,NA,NA,NA,NA,NA,NA,NA,NA,NA,NA,NA,NA,NA,NA,NA,NA,NA,NA,NA
"224","stim/objects/Instruments/harp2.png",121,41,121,0.9,"stim/23.jpeg",2,3,3,NA,"Instruments",1,1,"left","left",0.829999685,1,1,0,1,NA,NA,NA,NA,NA,NA,NA,NA,NA,NA,NA,NA,NA,NA,NA,NA,NA,NA,NA,NA,NA,NA,NA,NA
"146","stim/objects/Instruments/electricguitar.png",122,41,122,0.5,"stim/33.jpeg",3,3,1,NA,"Instruments",1,1,"left","right",0.762999773,0,0,0,1,NA,NA,NA,NA,NA,NA,NA,NA,NA,NA,NA,NA,NA,NA,NA,NA,NA,NA,NA,NA,NA,NA,NA,NA
"215","stim/objects/Instruments/harmonica2.png",123,41,123,0.9,"stim/22.jpeg",2,2,3,NA,"Instruments",1,3,"left","left",0.682999849,1,1,0,1,NA,NA,NA,NA,NA,NA,NA,NA,NA,NA,NA,NA,NA,NA,NA,NA,NA,NA,NA,NA,NA,NA,NA,NA
"14","stim/objects/HouseObjects/cushion2.png",124,41,124,0.3,"stim/62.jpeg",6,2,2,NA,"HouseObjects",2,4,"right","left",0.686999798,0,0,0,1,NA,NA,NA,NA,NA,NA,NA,NA,NA,NA,NA,NA,NA,NA,NA,NA,NA,NA,NA,NA,NA,NA,NA,NA
"84","stim/objects/HouseObjects/glass2.png",125,41,125,0.9,"stim/14.jpeg",1,4,3,NA,"HouseObjects",2,2,"right","right",0.680999994,1,1,0,1,NA,NA,NA,NA,NA,NA,NA,NA,NA,NA,NA,NA,NA,NA,NA,NA,NA,NA,NA,NA,NA,NA,NA,NA
"225","stim/objects/Instruments/harp2.png",126,41,126,0.9,"stim/23.jpeg",2,3,3,NA,"Instruments",1,3,"left","left",0.479999781,1,1,0,1,NA,NA,NA,NA,NA,NA,NA,NA,NA,NA,NA,NA,NA,NA,NA,NA,NA,NA,NA,NA,NA,NA,NA,NA
"129","stim/objects/Instruments/drums2.png",127,41,127,0.7,"stim/61.jpeg",6,1,2,NA,"Instruments",1,1,"left","left",0.612999916,1,1,0,1,NA,NA,NA,NA,NA,NA,NA,NA,NA,NA,NA,NA,NA,NA,NA,NA,NA,NA,NA,NA,NA,NA,NA,NA
"6","stim/objects/HouseObjects/coffee2.png",128,41,128,0.3,"stim/61.jpeg",6,1,2,NA,"HouseObjects",2,2,"right","left",0.453999758,0,0,0,1,NA,NA,NA,NA,NA,NA,NA,NA,NA,NA,NA,NA,NA,NA,NA,NA,NA,NA,NA,NA,NA,NA,NA,NA
"7","stim/objects/HouseObjects/coffee2.png",129,41,129,0.3,"stim/61.jpeg",6,1,2,NA,"HouseObjects",2,3,"right","left",0.508999825,0,0,0,1,NA,NA,NA,NA,NA,NA,NA,NA,NA,NA,NA,NA,NA,NA,NA,NA,NA,NA,NA,NA,NA,NA,NA,NA
"158","stim/objects/Instruments/flute.png",130,41,130,0.5,"stim/34.jpeg",3,4,1,NA,"Instruments",1,3,"left","left",0.46600008,1,1,0,1,NA,NA,NA,NA,NA,NA,NA,NA,NA,NA,NA,NA,NA,NA,NA,NA,NA,NA,NA,NA,NA,NA,NA,NA
"85","stim/objects/HouseObjects/glass2.png",131,41,131,0.9,"stim/14.jpeg",1,4,3,NA,"HouseObjects",2,4,"right","right",0.487999678,1,1,0,1,NA,NA,NA,NA,NA,NA,NA,NA,NA,NA,NA,NA,NA,NA,NA,NA,NA,NA,NA,NA,NA,NA,NA,NA
"43","stim/objects/HouseObjects/dustpan2.png",132,41,132,0.9,"stim/11.jpeg",1,1,3,NA,"HouseObjects",2,1,"right","right",0.820999861,1,1,0,1,NA,NA,NA,NA,NA,NA,NA,NA,NA,NA,NA,NA,NA,NA,NA,NA,NA,NA,NA,NA,NA,NA,NA,NA
"96","stim/objects/HouseObjects/glassmop2.png",133,41,133,0.1,"stim/21.jpeg",2,1,3,NA,"HouseObjects",2,3,"right","left",0.681999922,0,0,0,1,NA,NA,NA,NA,NA,NA,NA,NA,NA,NA,NA,NA,NA,NA,NA,NA,NA,NA,NA,NA,NA,NA,NA,NA
"190","stim/objects/Instruments/grandpiano.png",134,41,134,0.5,"stim/44.jpeg",4,4,1,NA,"Instruments",1,3,"left","right",0.698999882,0,0,0,1,NA,NA,NA,NA,NA,NA,NA,NA,NA,NA,NA,NA,NA,NA,NA,NA,NA,NA,NA,NA,NA,NA,NA,NA
"44","stim/objects/HouseObjects/dustpan2.png",135,41,135,0.9,"stim/11.jpeg",1,1,3,NA,"HouseObjects",2,2,"right","right",0.609999895,1,1,0,1,NA,NA,NA,NA,NA,NA,NA,NA,NA,NA,NA,NA,NA,NA,NA,NA,NA,NA,NA,NA,NA,NA,NA,NA
"216","stim/objects/Instruments/harmonica2.png",136,41,136,0.9,"stim/22.jpeg",2,2,3,NA,"Instruments",1,2,"left","left",0.622999668,1,1,0,1,NA,NA,NA,NA,NA,NA,NA,NA,NA,NA,NA,NA,NA,NA,NA,NA,NA,NA,NA,NA,NA,NA,NA,NA
"117","stim/objects/HouseObjects/handvacuum.png",137,41,137,0.7,"stim/54.jpeg",5,4,2,NA,"HouseObjects",2,1,"right","right",0.687999964,1,1,0,1,NA,NA,NA,NA,NA,NA,NA,NA,NA,NA,NA,NA,NA,NA,NA,NA,NA,NA,NA,NA,NA,NA,NA,NA
"100","stim/objects/HouseObjects/hairdryer.png",138,41,138,0.7,"stim/52.jpeg",5,2,2,NA,"HouseObjects",2,2,"right","",NA,0,0,0,1,NA,NA,NA,NA,NA,NA,NA,NA,NA,NA,NA,NA,NA,NA,NA,NA,NA,NA,NA,NA,NA,NA,NA,NA
"11","stim/objects/HouseObjects/cushion.png",139,41,139,0.5,"stim/32.jpeg",3,2,1,NA,"HouseObjects",2,3,"right","right",0.694999933,1,1,0,1,NA,NA,NA,NA,NA,NA,NA,NA,NA,NA,NA,NA,NA,NA,NA,NA,NA,NA,NA,NA,NA,NA,NA,NA
"86","stim/objects/HouseObjects/glass2.png",140,41,140,0.9,"stim/14.jpeg",1,4,3,NA,"HouseObjects",2,1,"right","right",0.655999899,1,1,0,1,NA,NA,NA,NA,NA,NA,NA,NA,NA,NA,NA,NA,NA,NA,NA,NA,NA,NA,NA,NA,NA,NA,NA,NA
"70","stim/objects/HouseObjects/garbagebin2.png",141,41,141,0.9,"stim/13.jpeg",1,3,3,NA,"HouseObjects",2,3,"right","right",0.657999992,1,1,0,1,NA,NA,NA,NA,NA,NA,NA,NA,NA,NA,NA,NA,NA,NA,NA,NA,NA,NA,NA,NA,NA,NA,NA,NA
"130","stim/objects/Instruments/drums2.png",142,41,142,0.7,"stim/61.jpeg",6,1,2,NA,"Instruments",1,4,"left","",NA,0,0,0,1,NA,NA,NA,NA,NA,NA,NA,NA,NA,NA,NA,NA,NA,NA,NA,NA,NA,NA,NA,NA,NA,NA,NA,NA
"87","stim/objects/HouseObjects/glass2.png",143,41,143,0.9,"stim/14.jpeg",1,4,3,NA,"HouseObjects",2,1,"right","right",0.625999928,1,1,0,1,NA,NA,NA,NA,NA,NA,NA,NA,NA,NA,NA,NA,NA,NA,NA,NA,NA,NA,NA,NA,NA,NA,NA,NA
"2","stim/objects/HouseObjects/coffee.png",144,41,144,0.5,"stim/31.jpeg",3,1,1,NA,"HouseObjects",2,2,"right","right",0.538999796,1,1,0,1,NA,NA,NA,NA,NA,NA,NA,NA,NA,NA,NA,NA,NA,NA,NA,NA,NA,NA,NA,NA,NA,NA,NA,NA
"195","stim/objects/Instruments/guitarcase.png",145,41,145,0.3,"stim/51.jpeg",5,1,2,NA,"Instruments",1,1,"left","right",0.61199975,0,0,0,1,NA,NA,NA,NA,NA,NA,NA,NA,NA,NA,NA,NA,NA,NA,NA,NA,NA,NA,NA,NA,NA,NA,NA,NA
"142","stim/objects/Instruments/electricdrumset2.png",146,41,146,0.7,"stim/62.jpeg",6,2,2,NA,"Instruments",1,1,"left","left",0.557999849,1,1,0,1,NA,NA,NA,NA,NA,NA,NA,NA,NA,NA,NA,NA,NA,NA,NA,NA,NA,NA,NA,NA,NA,NA,NA,NA
"131","stim/objects/Instruments/drums2.png",147,41,147,0.7,"stim/61.jpeg",6,1,2,NA,"Instruments",1,3,"left","left",0.660999775,1,1,0,1,NA,NA,NA,NA,NA,NA,NA,NA,NA,NA,NA,NA,NA,NA,NA,NA,NA,NA,NA,NA,NA,NA,NA,NA
"45","stim/objects/HouseObjects/dustpan2.png",148,41,148,0.9,"stim/11.jpeg",1,1,3,NA,"HouseObjects",2,4,"right","right",0.648999929,1,1,0,1,NA,NA,NA,NA,NA,NA,NA,NA,NA,NA,NA,NA,NA,NA,NA,NA,NA,NA,NA,NA,NA,NA,NA,NA
"165","stim/objects/Instruments/flute2.png",149,41,149,0.7,"stim/64.jpeg",6,4,2,NA,"Instruments",1,2,"left","left",0.649999857,1,1,0,1,NA,NA,NA,NA,NA,NA,NA,NA,NA,NA,NA,NA,NA,NA,NA,NA,NA,NA,NA,NA,NA,NA,NA,NA
"166","stim/objects/Instruments/flute2.png",150,41,150,0.7,"stim/64.jpeg",6,4,2,NA,"Instruments",1,1,"left","left",0.56099987,1,1,0,1,NA,NA,NA,NA,NA,NA,NA,NA,NA,NA,NA,NA,NA,NA,NA,NA,NA,NA,NA,NA,NA,NA,NA,NA
"63","stim/objects/HouseObjects/garbagebin.png",151,41,151,0.5,"stim/43.jpeg",4,3,1,NA,"HouseObjects",2,3,"right","",NA,0,0,0,1,NA,NA,NA,NA,NA,NA,NA,NA,NA,NA,NA,NA,NA,NA,NA,NA,NA,NA,NA,NA,NA,NA,NA,NA
"201","stim/objects/Instruments/guitarcase2.png",152,41,152,0.9,"stim/21.jpeg",2,1,3,NA,"Instruments",1,1,"left","left",0.592999935,1,1,0,1,NA,NA,NA,NA,NA,NA,NA,NA,NA,NA,NA,NA,NA,NA,NA,NA,NA,NA,NA,NA,NA,NA,NA,NA
"91","stim/objects/HouseObjects/glassmop.png",153,41,153,0.7,"stim/51.jpeg",5,1,2,NA,"HouseObjects",2,4,"right","right",0.545999765,1,1,0,1,NA,NA,NA,NA,NA,NA,NA,NA,NA,NA,NA,NA,NA,NA,NA,NA,NA,NA,NA,NA,NA,NA,NA,NA
"152","stim/objects/Instruments/electricguitar2.png",154,41,154,0.7,"stim/63.jpeg",6,3,2,NA,"Instruments",1,3,"left","left",0.503999949,1,1,0,1,NA,NA,NA,NA,NA,NA,NA,NA,NA,NA,NA,NA,NA,NA,NA,NA,NA,NA,NA,NA,NA,NA,NA,NA
"159","stim/objects/Instruments/flute.png",155,41,155,0.5,"stim/34.jpeg",3,4,1,NA,"Instruments",1,2,"left","right",0.596999884,0,0,0,1,NA,NA,NA,NA,NA,NA,NA,NA,NA,NA,NA,NA,NA,NA,NA,NA,NA,NA,NA,NA,NA,NA,NA,NA
"226","stim/objects/Instruments/harp2.png",156,41,156,0.9,"stim/23.jpeg",2,3,3,NA,"Instruments",1,1,"left","right",0.559000015,0,0,0,1,NA,NA,NA,NA,NA,NA,NA,NA,NA,NA,NA,NA,NA,NA,NA,NA,NA,NA,NA,NA,NA,NA,NA,NA
"20","stim/objects/HouseObjects/dishsoap.png",157,41,157,0.5,"stim/33.jpeg",3,3,1,NA,"HouseObjects",2,3,"right","right",0.669999838,1,1,0,1,NA,NA,NA,NA,NA,NA,NA,NA,NA,NA,NA,NA,NA,NA,NA,NA,NA,NA,NA,NA,NA,NA,NA,NA
"92","stim/objects/HouseObjects/glassmop.png",158,41,158,0.7,"stim/51.jpeg",5,1,2,NA,"HouseObjects",2,3,"right","right",0.815999985,1,1,0,1,NA,NA,NA,NA,NA,NA,NA,NA,NA,NA,NA,NA,NA,NA,NA,NA,NA,NA,NA,NA,NA,NA,NA,NA
"160","stim/objects/Instruments/flute.png",159,41,159,0.5,"stim/34.jpeg",3,4,1,NA,"Instruments",1,1,"left","left",0.724999666,1,1,0,1,NA,NA,NA,NA,NA,NA,NA,NA,NA,NA,NA,NA,NA,NA,NA,NA,NA,NA,NA,NA,NA,NA,NA,NA
"3","stim/objects/HouseObjects/coffee.png",160,41,160,0.5,"stim/31.jpeg",3,1,1,NA,"HouseObjects",2,3,"right","right",0.718999863,1,1,0,1,NA,NA,NA,NA,NA,NA,NA,NA,NA,NA,NA,NA,NA,NA,NA,NA,NA,NA,NA,NA,NA,NA,NA,NA
"153","stim/objects/Instruments/electricguitar2.png",161,41,161,0.7,"stim/63.jpeg",6,3,2,NA,"Instruments",1,3,"left","left",0.688999891,1,1,0,1,NA,NA,NA,NA,NA,NA,NA,NA,NA,NA,NA,NA,NA,NA,NA,NA,NA,NA,NA,NA,NA,NA,NA,NA
"77","stim/objects/HouseObjects/glass.png",162,41,162,0.5,"stim/44.jpeg",4,4,1,NA,"HouseObjects",2,3,"right","",NA,0,0,0,1,NA,NA,NA,NA,NA,NA,NA,NA,NA,NA,NA,NA,NA,NA,NA,NA,NA,NA,NA,NA,NA,NA,NA,NA
"55","stim/objects/HouseObjects/flyswatter2.png",163,41,163,0.9,"stim/12.jpeg",1,2,3,NA,"HouseObjects",2,4,"right","",NA,0,0,0,1,NA,NA,NA,NA,NA,NA,NA,NA,NA,NA,NA,NA,NA,NA,NA,NA,NA,NA,NA,NA,NA,NA,NA,NA
"78","stim/objects/HouseObjects/glass.png",164,41,164,0.5,"stim/44.jpeg",4,4,1,NA,"HouseObjects",2,2,"right","right",0.653999805,1,1,0,1,NA,NA,NA,NA,NA,NA,NA,NA,NA,NA,NA,NA,NA,NA,NA,NA,NA,NA,NA,NA,NA,NA,NA,NA
"147","stim/objects/Instruments/electricguitar.png",165,41,165,0.5,"stim/33.jpeg",3,3,1,NA,"Instruments",1,4,"left","right",0.630999804,0,0,0,1,NA,NA,NA,NA,NA,NA,NA,NA,NA,NA,NA,NA,NA,NA,NA,NA,NA,NA,NA,NA,NA,NA,NA,NA
"101","stim/objects/HouseObjects/hairdryer.png",166,41,166,0.7,"stim/52.jpeg",5,2,2,NA,"HouseObjects",2,3,"right","left",0.549999952,0,0,0,1,NA,NA,NA,NA,NA,NA,NA,NA,NA,NA,NA,NA,NA,NA,NA,NA,NA,NA,NA,NA,NA,NA,NA,NA
"12","stim/objects/HouseObjects/cushion.png",167,41,167,0.5,"stim/32.jpeg",3,2,1,NA,"HouseObjects",2,4,"right","right",0.686999798,1,1,0,1,NA,NA,NA,NA,NA,NA,NA,NA,NA,NA,NA,NA,NA,NA,NA,NA,NA,NA,NA,NA,NA,NA,NA,NA
"71","stim/objects/HouseObjects/garbagebin2.png",168,41,168,0.9,"stim/13.jpeg",1,3,3,NA,"HouseObjects",2,1,"right","right",0.664999723,1,1,0,1,NA,NA,NA,NA,NA,NA,NA,NA,NA,NA,NA,NA,NA,NA,NA,NA,NA,NA,NA,NA,NA,NA,NA,NA
"34","stim/objects/HouseObjects/dustpan.png",169,41,169,0.5,"stim/41.jpeg",4,1,1,NA,"HouseObjects",2,4,"right","",NA,0,0,0,1,NA,NA,NA,NA,NA,NA,NA,NA,NA,NA,NA,NA,NA,NA,NA,NA,NA,NA,NA,NA,NA,NA,NA,NA
"185","stim/objects/Instruments/gong.png",170,41,170,0.5,"stim/43.jpeg",4,3,1,NA,"Instruments",1,4,"left","right",0.504999876,0,0,0,1,NA,NA,NA,NA,NA,NA,NA,NA,NA,NA,NA,NA,NA,NA,NA,NA,NA,NA,NA,NA,NA,NA,NA,NA
"135","stim/objects/Instruments/electricdrumset.png",171,41,171,0.5,"stim/32.jpeg",3,2,1,NA,"Instruments",1,3,"left","right",0.71600008,0,0,0,1,NA,NA,NA,NA,NA,NA,NA,NA,NA,NA,NA,NA,NA,NA,NA,NA,NA,NA,NA,NA,NA,NA,NA,NA
"35","stim/objects/HouseObjects/dustpan.png",172,41,172,0.5,"stim/41.jpeg",4,1,1,NA,"HouseObjects",2,4,"right","",NA,0,0,0,1,NA,NA,NA,NA,NA,NA,NA,NA,NA,NA,NA,NA,NA,NA,NA,NA,NA,NA,NA,NA,NA,NA,NA,NA
"56","stim/objects/HouseObjects/flyswatter2.png",173,41,173,0.9,"stim/12.jpeg",1,2,3,NA,"HouseObjects",2,2,"right","right",0.608999729,1,1,0,1,NA,NA,NA,NA,NA,NA,NA,NA,NA,NA,NA,NA,NA,NA,NA,NA,NA,NA,NA,NA,NA,NA,NA,NA
"93","stim/objects/HouseObjects/glassmop.png",174,41,174,0.7,"stim/51.jpeg",5,1,2,NA,"HouseObjects",2,1,"right","right",0.606999874,1,1,0,1,NA,NA,NA,NA,NA,NA,NA,NA,NA,NA,NA,NA,NA,NA,NA,NA,NA,NA,NA,NA,NA,NA,NA,NA
"32","stim/objects/HouseObjects/doormat2.png",175,41,175,0.3,"stim/64.jpeg",6,4,2,NA,"HouseObjects",2,1,"right","left",0.600999832,0,0,0,1,NA,NA,NA,NA,NA,NA,NA,NA,NA,NA,NA,NA,NA,NA,NA,NA,NA,NA,NA,NA,NA,NA,NA,NA
"8","stim/objects/HouseObjects/coffee2.png",176,41,176,0.3,"stim/61.jpeg",6,1,2,NA,"HouseObjects",2,3,"right","left",0.576999903,0,0,0,1,NA,NA,NA,NA,NA,NA,NA,NA,NA,NA,NA,NA,NA,NA,NA,NA,NA,NA,NA,NA,NA,NA,NA,NA
"57","stim/objects/HouseObjects/flyswatter2.png",177,41,177,0.9,"stim/12.jpeg",1,2,3,NA,"HouseObjects",2,4,"right","right",0.57799983,1,1,0,1,NA,NA,NA,NA,NA,NA,NA,NA,NA,NA,NA,NA,NA,NA,NA,NA,NA,NA,NA,NA,NA,NA,NA,NA
"72","stim/objects/HouseObjects/garbagebin2.png",178,41,178,0.9,"stim/13.jpeg",1,3,3,NA,"HouseObjects",2,4,"right","right",0.527999878,1,1,0,1,NA,NA,NA,NA,NA,NA,NA,NA,NA,NA,NA,NA,NA,NA,NA,NA,NA,NA,NA,NA,NA,NA,NA,NA
"13","stim/objects/HouseObjects/cushion.png",179,41,179,0.5,"stim/32.jpeg",3,2,1,NA,"HouseObjects",2,1,"right","right",0.764999866,1,1,0,1,NA,NA,NA,NA,NA,NA,NA,NA,NA,NA,NA,NA,NA,NA,NA,NA,NA,NA,NA,NA,NA,NA,NA,NA
"4","stim/objects/HouseObjects/coffee.png",180,41,180,0.5,"stim/31.jpeg",3,1,1,NA,"HouseObjects",2,4,"right","right",0.516999722,1,1,0,1,NA,NA,NA,NA,NA,NA,NA,NA,NA,NA,NA,NA,NA,NA,NA,NA,NA,NA,NA,NA,NA,NA,NA,NA
"167","stim/objects/Instruments/flute2.png",181,41,181,0.7,"stim/64.jpeg",6,4,2,NA,"Instruments",1,4,"left","right",0.54399991,0,0,0,1,NA,NA,NA,NA,NA,NA,NA,NA,NA,NA,NA,NA,NA,NA,NA,NA,NA,NA,NA,NA,NA,NA,NA,NA
"109","stim/objects/HouseObjects/handbrush.png",182,41,182,0.7,"stim/53.jpeg",5,3,2,NA,"HouseObjects",2,3,"right","right",0.654000044,1,1,0,1,NA,NA,NA,NA,NA,NA,NA,NA,NA,NA,NA,NA,NA,NA,NA,NA,NA,NA,NA,NA,NA,NA,NA,NA
"110","stim/objects/HouseObjects/handbrush.png",183,41,183,0.7,"stim/53.jpeg",5,3,2,NA,"HouseObjects",2,3,"right","right",0.596999884,1,1,0,1,NA,NA,NA,NA,NA,NA,NA,NA,NA,NA,NA,NA,NA,NA,NA,NA,NA,NA,NA,NA,NA,NA,NA,NA
"88","stim/objects/HouseObjects/glass2.png",184,41,184,0.9,"stim/14.jpeg",1,4,3,NA,"HouseObjects",2,2,"right","right",0.795000076,1,1,0,1,NA,NA,NA,NA,NA,NA,NA,NA,NA,NA,NA,NA,NA,NA,NA,NA,NA,NA,NA,NA,NA,NA,NA,NA
"94","stim/objects/HouseObjects/glassmop.png",185,41,185,0.7,"stim/51.jpeg",5,1,2,NA,"HouseObjects",2,2,"right","right",0.53399992,1,1,0,1,NA,NA,NA,NA,NA,NA,NA,NA,NA,NA,NA,NA,NA,NA,NA,NA,NA,NA,NA,NA,NA,NA,NA,NA
"24","stim/objects/HouseObjects/dishsoap2.png",186,41,186,0.3,"stim/63.jpeg",6,3,2,NA,"HouseObjects",2,4,"right","left",0.494999886,0,0,0,1,NA,NA,NA,NA,NA,NA,NA,NA,NA,NA,NA,NA,NA,NA,NA,NA,NA,NA,NA,NA,NA,NA,NA,NA
"143","stim/objects/Instruments/electricdrumset2.png",187,41,187,0.7,"stim/62.jpeg",6,2,2,NA,"Instruments",1,2,"left","left",0.544999838,1,1,0,1,NA,NA,NA,NA,NA,NA,NA,NA,NA,NA,NA,NA,NA,NA,NA,NA,NA,NA,NA,NA,NA,NA,NA,NA
"64","stim/objects/HouseObjects/garbagebin.png",188,41,188,0.5,"stim/43.jpeg",4,3,1,NA,"HouseObjects",2,1,"right","right",0.555999756,1,1,0,1,NA,NA,NA,NA,NA,NA,NA,NA,NA,NA,NA,NA,NA,NA,NA,NA,NA,NA,NA,NA,NA,NA,NA,NA
"48","stim/objects/HouseObjects/flyswatter.png",189,41,189,0.5,"stim/42.jpeg",4,2,1,NA,"HouseObjects",2,3,"right","right",0.645999908,1,1,0,1,NA,NA,NA,NA,NA,NA,NA,NA,NA,NA,NA,NA,NA,NA,NA,NA,NA,NA,NA,NA,NA,NA,NA,NA
"36","stim/objects/HouseObjects/dustpan.png",190,41,190,0.5,"stim/41.jpeg",4,1,1,NA,"HouseObjects",2,1,"right","right",0.740999937,1,1,0,1,NA,NA,NA,NA,NA,NA,NA,NA,NA,NA,NA,NA,NA,NA,NA,NA,NA,NA,NA,NA,NA,NA,NA,NA
"144","stim/objects/Instruments/electricdrumset2.png",191,41,191,0.7,"stim/62.jpeg",6,2,2,NA,"Instruments",1,4,"left","left",0.620999813,1,1,0,1,NA,NA,NA,NA,NA,NA,NA,NA,NA,NA,NA,NA,NA,NA,NA,NA,NA,NA,NA,NA,NA,NA,NA,NA
"218","stim/objects/Instruments/harp.png",192,41,192,0.3,"stim/53.jpeg",5,3,2,NA,"Instruments",1,1,"left","right",0.598999977,0,0,0,1,NA,NA,NA,NA,NA,NA,NA,NA,NA,NA,NA,NA,NA,NA,NA,NA,NA,NA,NA,NA,NA,NA,NA,NA
"102","stim/objects/HouseObjects/hairdryer.png",193,41,193,0.7,"stim/52.jpeg",5,2,2,NA,"HouseObjects",2,1,"right","right",0.566999674,1,1,0,1,NA,NA,NA,NA,NA,NA,NA,NA,NA,NA,NA,NA,NA,NA,NA,NA,NA,NA,NA,NA,NA,NA,NA,NA
"207","stim/objects/Instruments/harmonica.png",194,41,194,0.3,"stim/52.jpeg",5,2,2,NA,"Instruments",1,1,"left","right",0.537999868,0,0,0,1,NA,NA,NA,NA,NA,NA,NA,NA,NA,NA,NA,NA,NA,NA,NA,NA,NA,NA,NA,NA,NA,NA,NA,NA
"154","stim/objects/Instruments/electricguitar2.png",195,41,195,0.7,"stim/63.jpeg",6,3,2,NA,"Instruments",1,4,"left","left",0.553999901,1,1,0,1,NA,NA,NA,NA,NA,NA,NA,NA,NA,NA,NA,NA,NA,NA,NA,NA,NA,NA,NA,NA,NA,NA,NA,NA
"49","stim/objects/HouseObjects/flyswatter.png",196,41,196,0.5,"stim/42.jpeg",4,2,1,NA,"HouseObjects",2,2,"right","right",0.546999931,1,1,0,1,NA,NA,NA,NA,NA,NA,NA,NA,NA,NA,NA,NA,NA,NA,NA,NA,NA,NA,NA,NA,NA,NA,NA,NA
"50","stim/objects/HouseObjects/flyswatter.png",197,41,197,0.5,"stim/42.jpeg",4,2,1,NA,"HouseObjects",2,4,"right","right",0.535999775,1,1,0,1,NA,NA,NA,NA,NA,NA,NA,NA,NA,NA,NA,NA,NA,NA,NA,NA,NA,NA,NA,NA,NA,NA,NA,NA
"202","stim/objects/Instruments/guitarcase2.png",198,41,198,0.9,"stim/21.jpeg",2,1,3,NA,"Instruments",1,1,"left","left",0.646999836,1,1,0,1,NA,NA,NA,NA,NA,NA,NA,NA,NA,NA,NA,NA,NA,NA,NA,NA,NA,NA,NA,NA,NA,NA,NA,NA
"95","stim/objects/HouseObjects/glassmop.png",199,41,199,0.7,"stim/51.jpeg",5,1,2,NA,"HouseObjects",2,4,"right","right",0.563999653,1,1,0,1,NA,NA,NA,NA,NA,NA,NA,NA,NA,NA,NA,NA,NA,NA,NA,NA,NA,NA,NA,NA,NA,NA,NA,NA
"155","stim/objects/Instruments/electricguitar2.png",200,41,200,0.7,"stim/63.jpeg",6,3,2,NA,"Instruments",1,2,"left","left",0.71600008,1,1,0,1,NA,NA,NA,NA,NA,NA,NA,NA,NA,NA,NA,NA,NA,NA,NA,NA,NA,NA,NA,NA,NA,NA,NA,NA
"73","stim/objects/HouseObjects/garbagebin2.png",201,41,201,0.9,"stim/13.jpeg",1,3,3,NA,"HouseObjects",2,3,"right","right",0.657999754,1,1,0,1,NA,NA,NA,NA,NA,NA,NA,NA,NA,NA,NA,NA,NA,NA,NA,NA,NA,NA,NA,NA,NA,NA,NA,NA
"79","stim/objects/HouseObjects/glass.png",202,41,202,0.5,"stim/44.jpeg",4,4,1,NA,"HouseObjects",2,3,"right","",NA,0,0,0,1,NA,NA,NA,NA,NA,NA,NA,NA,NA,NA,NA,NA,NA,NA,NA,NA,NA,NA,NA,NA,NA,NA,NA,NA
"177","stim/objects/Instruments/frenchhorn.png",203,41,203,0.5,"stim/42.jpeg",4,2,1,NA,"Instruments",1,3,"left","right",0.71999979,0,0,0,1,NA,NA,NA,NA,NA,NA,NA,NA,NA,NA,NA,NA,NA,NA,NA,NA,NA,NA,NA,NA,NA,NA,NA,NA
"103","stim/objects/HouseObjects/hairdryer.png",204,41,204,0.7,"stim/52.jpeg",5,2,2,NA,"HouseObjects",2,3,"right","right",0.480999708,1,1,0,1,NA,NA,NA,NA,NA,NA,NA,NA,NA,NA,NA,NA,NA,NA,NA,NA,NA,NA,NA,NA,NA,NA,NA,NA
"74","stim/objects/HouseObjects/garbagebin2.png",205,41,205,0.9,"stim/13.jpeg",1,3,3,NA,"HouseObjects",2,1,"right","right",0.547999859,1,1,0,1,NA,NA,NA,NA,NA,NA,NA,NA,NA,NA,NA,NA,NA,NA,NA,NA,NA,NA,NA,NA,NA,NA,NA,NA
"46","stim/objects/HouseObjects/dustpan2.png",206,41,206,0.9,"stim/11.jpeg",1,1,3,NA,"HouseObjects",2,3,"right","right",0.664999962,1,1,0,1,NA,NA,NA,NA,NA,NA,NA,NA,NA,NA,NA,NA,NA,NA,NA,NA,NA,NA,NA,NA,NA,NA,NA,NA
"227","stim/objects/Instruments/harp2.png",207,41,207,0.9,"stim/23.jpeg",2,3,3,NA,"Instruments",1,4,"left","left",0.661999941,1,1,0,1,NA,NA,NA,NA,NA,NA,NA,NA,NA,NA,NA,NA,NA,NA,NA,NA,NA,NA,NA,NA,NA,NA,NA,NA
"111","stim/objects/HouseObjects/handbrush.png",208,41,208,0.7,"stim/53.jpeg",5,3,2,NA,"HouseObjects",2,2,"right","right",0.5849998,1,1,0,1,NA,NA,NA,NA,NA,NA,NA,NA,NA,NA,NA,NA,NA,NA,NA,NA,NA,NA,NA,NA,NA,NA,NA,NA
"15","stim/objects/HouseObjects/cushion2.png",209,41,209,0.3,"stim/62.jpeg",6,2,2,NA,"HouseObjects",2,1,"right","left",0.689999819,0,0,0,1,NA,NA,NA,NA,NA,NA,NA,NA,NA,NA,NA,NA,NA,NA,NA,NA,NA,NA,NA,NA,NA,NA,NA,NA
"58","stim/objects/HouseObjects/flyswatter2.png",210,41,210,0.9,"stim/12.jpeg",1,2,3,NA,"HouseObjects",2,1,"right","right",0.629999876,1,1,0,1,NA,NA,NA,NA,NA,NA,NA,NA,NA,NA,NA,NA,NA,NA,NA,NA,NA,NA,NA,NA,NA,NA,NA,NA
"191","stim/objects/Instruments/grandpiano.png",211,41,211,0.5,"stim/44.jpeg",4,4,1,NA,"Instruments",1,4,"left","left",0.631999969,1,1,0,1,NA,NA,NA,NA,NA,NA,NA,NA,NA,NA,NA,NA,NA,NA,NA,NA,NA,NA,NA,NA,NA,NA,NA,NA
"37","stim/objects/HouseObjects/dustpan.png",212,41,212,0.5,"stim/41.jpeg",4,1,1,NA,"HouseObjects",2,1,"right","right",0.48300004,1,1,0,1,NA,NA,NA,NA,NA,NA,NA,NA,NA,NA,NA,NA,NA,NA,NA,NA,NA,NA,NA,NA,NA,NA,NA,NA
"59","stim/objects/HouseObjects/flyswatter2.png",213,41,213,0.9,"stim/12.jpeg",1,2,3,NA,"HouseObjects",2,2,"right","",NA,0,0,0,1,NA,NA,NA,NA,NA,NA,NA,NA,NA,NA,NA,NA,NA,NA,NA,NA,NA,NA,NA,NA,NA,NA,NA,NA
"21","stim/objects/HouseObjects/dishsoap.png",214,41,214,0.5,"stim/33.jpeg",3,3,1,NA,"HouseObjects",2,2,"right","right",0.451999903,1,1,0,1,NA,NA,NA,NA,NA,NA,NA,NA,NA,NA,NA,NA,NA,NA,NA,NA,NA,NA,NA,NA,NA,NA,NA,NA
"124","stim/objects/Instruments/drums.png",215,41,215,0.5,"stim/31.jpeg",3,1,1,NA,"Instruments",1,2,"left","right",0.499999762,0,0,0,1,NA,NA,NA,NA,NA,NA,NA,NA,NA,NA,NA,NA,NA,NA,NA,NA,NA,NA,NA,NA,NA,NA,NA,NA
"16","stim/objects/HouseObjects/cushion2.png",216,41,216,0.3,"stim/62.jpeg",6,2,2,NA,"HouseObjects",2,2,"right","left",0.600999832,0,0,0,1,NA,NA,NA,NA,NA,NA,NA,NA,NA,NA,NA,NA,NA,NA,NA,NA,NA,NA,NA,NA,NA,NA,NA,NA
"178","stim/objects/Instruments/frenchhorn.png",217,41,217,0.5,"stim/42.jpeg",4,2,1,NA,"Instruments",1,4,"left","right",0.690999746,0,0,0,1,NA,NA,NA,NA,NA,NA,NA,NA,NA,NA,NA,NA,NA,NA,NA,NA,NA,NA,NA,NA,NA,NA,NA,NA
"5","stim/objects/HouseObjects/coffee.png",218,41,218,0.5,"stim/31.jpeg",3,1,1,NA,"HouseObjects",2,1,"right","left",0.551999807,0,0,0,1,NA,NA,NA,NA,NA,NA,NA,NA,NA,NA,NA,NA,NA,NA,NA,NA,NA,NA,NA,NA,NA,NA,NA,NA
"118","stim/objects/HouseObjects/handvacuum.png",219,41,219,0.7,"stim/54.jpeg",5,4,2,NA,"HouseObjects",2,1,"right","right",0.657999992,1,1,0,1,NA,NA,NA,NA,NA,NA,NA,NA,NA,NA,NA,NA,NA,NA,NA,NA,NA,NA,NA,NA,NA,NA,NA,NA
"132","stim/objects/Instruments/drums2.png",220,41,220,0.7,"stim/61.jpeg",6,1,2,NA,"Instruments",1,2,"left","",NA,0,0,0,1,NA,NA,NA,NA,NA,NA,NA,NA,NA,NA,NA,NA,NA,NA,NA,NA,NA,NA,NA,NA,NA,NA,NA,NA
"136","stim/objects/Instruments/electricdrumset.png",221,41,221,0.5,"stim/32.jpeg",3,2,1,NA,"Instruments",1,4,"left","right",0.409999847,0,0,0,1,NA,NA,NA,NA,NA,NA,NA,NA,NA,NA,NA,NA,NA,NA,NA,NA,NA,NA,NA,NA,NA,NA,NA,NA
"161","stim/objects/Instruments/flute.png",222,41,222,0.5,"stim/34.jpeg",3,4,1,NA,"Instruments",1,3,"left","right",0.552999973,0,0,0,1,NA,NA,NA,NA,NA,NA,NA,NA,NA,NA,NA,NA,NA,NA,NA,NA,NA,NA,NA,NA,NA,NA,NA,NA
"29","stim/objects/HouseObjects/doormat.png",223,41,223,0.5,"stim/34.jpeg",3,4,1,NA,"HouseObjects",2,3,"right","right",0.537999868,1,1,0,1,NA,NA,NA,NA,NA,NA,NA,NA,NA,NA,NA,NA,NA,NA,NA,NA,NA,NA,NA,NA,NA,NA,NA,NA
"65","stim/objects/HouseObjects/garbagebin.png",224,41,224,0.5,"stim/43.jpeg",4,3,1,NA,"HouseObjects",2,1,"right","left",0.661999941,0,0,0,1,NA,NA,NA,NA,NA,NA,NA,NA,NA,NA,NA,NA,NA,NA,NA,NA,NA,NA,NA,NA,NA,NA,NA,NA
"148","stim/objects/Instruments/electricguitar.png",225,41,225,0.5,"stim/33.jpeg",3,3,1,NA,"Instruments",1,1,"left","right",0.707999945,0,0,0,1,NA,NA,NA,NA,NA,NA,NA,NA,NA,NA,NA,NA,NA,NA,NA,NA,NA,NA,NA,NA,NA,NA,NA,NA
"137","stim/objects/Instruments/electricdrumset.png",226,41,226,0.5,"stim/32.jpeg",3,2,1,NA,"Instruments",1,4,"left","right",0.640999794,0,0,0,1,NA,NA,NA,NA,NA,NA,NA,NA,NA,NA,NA,NA,NA,NA,NA,NA,NA,NA,NA,NA,NA,NA,NA,NA
"51","stim/objects/HouseObjects/flyswatter.png",227,41,227,0.5,"stim/42.jpeg",4,2,1,NA,"HouseObjects",2,2,"right","right",0.746999979,1,1,0,1,NA,NA,NA,NA,NA,NA,NA,NA,NA,NA,NA,NA,NA,NA,NA,NA,NA,NA,NA,NA,NA,NA,NA,NA
"203","stim/objects/Instruments/guitarcase2.png",228,41,228,0.9,"stim/21.jpeg",2,1,3,NA,"Instruments",1,2,"left","left",0.454999924,1,1,0,1,NA,NA,NA,NA,NA,NA,NA,NA,NA,NA,NA,NA,NA,NA,NA,NA,NA,NA,NA,NA,NA,NA,NA,NA
"230","stim/objects/Instruments/hihat.png",229,41,229,0.3,"stim/54.jpeg",5,4,2,NA,"Instruments",1,1,"left","right",0.588999987,0,0,0,1,NA,NA,NA,NA,NA,NA,NA,NA,NA,NA,NA,NA,NA,NA,NA,NA,NA,NA,NA,NA,NA,NA,NA,NA
"156","stim/objects/Instruments/electricguitar2.png",230,41,230,0.7,"stim/63.jpeg",6,3,2,NA,"Instruments",1,1,"left","left",0.700999975,1,1,0,1,NA,NA,NA,NA,NA,NA,NA,NA,NA,NA,NA,NA,NA,NA,NA,NA,NA,NA,NA,NA,NA,NA,NA,NA
"119","stim/objects/HouseObjects/handvacuum.png",231,41,231,0.7,"stim/54.jpeg",5,4,2,NA,"HouseObjects",2,4,"right","right",0.621999741,1,1,0,1,NA,NA,NA,NA,NA,NA,NA,NA,NA,NA,NA,NA,NA,NA,NA,NA,NA,NA,NA,NA,NA,NA,NA,NA
"231","stim/objects/Instruments/hihat.png",232,41,232,0.3,"stim/54.jpeg",5,4,2,NA,"Instruments",1,2,"left","right",0.650999784,0,0,0,1,NA,NA,NA,NA,NA,NA,NA,NA,NA,NA,NA,NA,NA,NA,NA,NA,NA,NA,NA,NA,NA,NA,NA,NA
"149","stim/objects/Instruments/electricguitar.png",233,41,233,0.5,"stim/33.jpeg",3,3,1,NA,"Instruments",1,3,"left","left",0.638999939,1,1,0,1,NA,NA,NA,NA,NA,NA,NA,NA,NA,NA,NA,NA,NA,NA,NA,NA,NA,NA,NA,NA,NA,NA,NA,NA
"168","stim/objects/Instruments/flute2.png",234,41,234,0.7,"stim/64.jpeg",6,4,2,NA,"Instruments",1,4,"left","left",0.70299983,1,1,0,1,NA,NA,NA,NA,NA,NA,NA,NA,NA,NA,NA,NA,NA,NA,NA,NA,NA,NA,NA,NA,NA,NA,NA,NA
"60","stim/objects/HouseObjects/flyswatter2.png",235,41,235,0.9,"stim/12.jpeg",1,2,3,NA,"HouseObjects",2,2,"right","right",0.745999813,1,1,0,1,NA,NA,NA,NA,NA,NA,NA,NA,NA,NA,NA,NA,NA,NA,NA,NA,NA,NA,NA,NA,NA,NA,NA,NA
"179","stim/objects/Instruments/frenchhorn.png",236,41,236,0.5,"stim/42.jpeg",4,2,1,NA,"Instruments",1,2,"left","left",0.545999765,1,1,0,1,NA,NA,NA,NA,NA,NA,NA,NA,NA,NA,NA,NA,NA,NA,NA,NA,NA,NA,NA,NA,NA,NA,NA,NA
"204","stim/objects/Instruments/guitarcase2.png",237,41,237,0.9,"stim/21.jpeg",2,1,3,NA,"Instruments",1,1,"left","left",0.701999903,1,1,0,1,NA,NA,NA,NA,NA,NA,NA,NA,NA,NA,NA,NA,NA,NA,NA,NA,NA,NA,NA,NA,NA,NA,NA,NA
"228","stim/objects/Instruments/harp2.png",238,41,238,0.9,"stim/23.jpeg",2,3,3,NA,"Instruments",1,4,"left","left",0.626999855,1,1,0,1,NA,NA,NA,NA,NA,NA,NA,NA,NA,NA,NA,NA,NA,NA,NA,NA,NA,NA,NA,NA,NA,NA,NA,NA
"219","stim/objects/Instruments/harp.png",239,41,239,0.3,"stim/53.jpeg",5,3,2,NA,"Instruments",1,4,"left","right",0.570999861,0,0,0,1,NA,NA,NA,NA,NA,NA,NA,NA,NA,NA,NA,NA,NA,NA,NA,NA,NA,NA,NA,NA,NA,NA,NA,NA
"125","stim/objects/Instruments/drums.png",240,41,240,0.5,"stim/31.jpeg",3,1,1,NA,"Instruments",1,1,"left","right",0.541999817,0,0,0,1,NA,NA,NA,NA,NA,NA,NA,NA,NA,NA,NA,NA,NA,NA,NA,NA,NA,NA,NA,NA,NA,NA,NA,NA
"490","stim/objects/Instruments/musicsheet3.png",248,41,241,0.9,"stim/24.jpeg",2,4,3,2,"Instruments",1,2,"left","",NA,0,0,1,0,NA,NA,NA,NA,NA,NA,NA,NA,NA,NA,NA,NA,NA,NA,NA,NA,NA,NA,NA,NA,NA,NA,NA,NA
"456","stim/objects/Instruments/marimba3.png",249,41,242,0.9,"stim/21.jpeg",2,1,3,2,"Instruments",1,3,"left","left",0.525999784,1,1,1,0,NA,NA,NA,NA,NA,NA,NA,NA,NA,NA,NA,NA,NA,NA,NA,NA,NA,NA,NA,NA,NA,NA,NA,NA
"473","stim/objects/Instruments/metronome3.png",250,41,243,0.9,"stim/23.jpeg",2,3,3,2,"Instruments",1,4,"left","left",0.489999771,1,1,1,0,NA,NA,NA,NA,NA,NA,NA,NA,NA,NA,NA,NA,NA,NA,NA,NA,NA,NA,NA,NA,NA,NA,NA,NA
"325","stim/objects/HouseObjects/match3.png",251,41,244,0.9,"stim/13.jpeg",1,3,3,2,"HouseObjects",2,4,"right","right",0.572999954,1,1,1,0,NA,NA,NA,NA,NA,NA,NA,NA,NA,NA,NA,NA,NA,NA,NA,NA,NA,NA,NA,NA,NA,NA,NA,NA
"430","stim/objects/Instruments/clarinet3.png",252,41,245,0.5,"stim/42.jpeg",4,2,1,2,"Instruments",1,2,"left","right",0.632999897,0,0,1,0,NA,NA,NA,NA,NA,NA,NA,NA,NA,NA,NA,NA,NA,NA,NA,NA,NA,NA,NA,NA,NA,NA,NA,NA
"474","stim/objects/Instruments/metronome3.png",253,41,246,0.9,"stim/21.jpeg",2,1,3,2,"Instruments",1,2,"left","right",0.554999828,0,0,1,0,NA,NA,NA,NA,NA,NA,NA,NA,NA,NA,NA,NA,NA,NA,NA,NA,NA,NA,NA,NA,NA,NA,NA,NA
"444","stim/objects/Instruments/keyboard3.png",254,41,247,0.7,"stim/63.jpeg",6,3,2,2,"Instruments",1,2,"left","left",0.764999866,1,1,1,0,NA,NA,NA,NA,NA,NA,NA,NA,NA,NA,NA,NA,NA,NA,NA,NA,NA,NA,NA,NA,NA,NA,NA,NA
"457","stim/objects/Instruments/marimba3.png",255,41,248,0.9,"stim/21.jpeg",2,1,3,2,"Instruments",1,3,"left","left",0.522999763,1,1,1,0,NA,NA,NA,NA,NA,NA,NA,NA,NA,NA,NA,NA,NA,NA,NA,NA,NA,NA,NA,NA,NA,NA,NA,NA
"326","stim/objects/HouseObjects/match3.png",256,41,249,0.9,"stim/11.jpeg",1,1,3,2,"HouseObjects",2,2,"right","right",0.655999899,1,1,1,0,NA,NA,NA,NA,NA,NA,NA,NA,NA,NA,NA,NA,NA,NA,NA,NA,NA,NA,NA,NA,NA,NA,NA,NA
"291","stim/objects/HouseObjects/knife3.png",257,41,250,0.9,"stim/11.jpeg",1,1,3,2,"HouseObjects",2,4,"right","right",0.670999765,1,1,1,0,NA,NA,NA,NA,NA,NA,NA,NA,NA,NA,NA,NA,NA,NA,NA,NA,NA,NA,NA,NA,NA,NA,NA,NA
"523","stim/objects/Instruments/musicstand4.png",258,41,251,0.1,"stim/14.jpeg",1,4,3,1,"Instruments",1,2,"left","right",0.5849998,0,0,1,0,129,41,1,0.1,1,"stim/14.jpeg",1,4,"stim/14.jpeg",2,"right",1.069000006,4,3,1.190000057,2,1.421000004,129,0,0,NA,1,NA,0
"382","stim/objects/HouseObjects/rug3.png",259,41,252,0.5,"stim/31.jpeg",3,1,1,1,"HouseObjects",2,4,"right","right",0.608999729,1,1,1,0,26,41,1,0.5,1,"stim/31.jpeg",3,1,"stim/31.jpeg",4,"left",1.06099987,3,2,1.480999947,2,1.741000175,26,1,0,0,0,0,0
"342","stim/objects/HouseObjects/pan3.png",260,41,253,0.9,"stim/11.jpeg",1,1,3,2,"HouseObjects",2,1,"right","right",0.700999737,1,1,1,0,NA,NA,NA,NA,NA,NA,NA,NA,NA,NA,NA,NA,NA,NA,NA,NA,NA,NA,NA,NA,NA,NA,NA,NA
"283","stim/objects/HouseObjects/ironingboard3.png",261,41,254,0.7,"stim/54.jpeg",5,4,2,2,"HouseObjects",2,4,"right","right",0.600999832,1,1,1,0,NA,NA,NA,NA,NA,NA,NA,NA,NA,NA,NA,NA,NA,NA,NA,NA,NA,NA,NA,NA,NA,NA,NA,NA
"556","stim/objects/Instruments/timbal4.png",262,41,255,0.9,"stim/23.jpeg",2,3,3,1,"Instruments",1,1,"left","left",0.552999973,1,1,1,0,160,41,1,0.9,1,"stim/23.jpeg",2,3,"stim/23.jpeg",1,"right",1.134000063,2,3,0.614000082,3,1.103000164,160,0,1,NA,0,NA,0
"491","stim/objects/Instruments/musicsheet3.png",263,41,256,0.9,"stim/22.jpeg",2,2,3,2,"Instruments",1,2,"left","left",0.524999857,1,1,1,0,NA,NA,NA,NA,NA,NA,NA,NA,NA,NA,NA,NA,NA,NA,NA,NA,NA,NA,NA,NA,NA,NA,NA,NA
"475","stim/objects/Instruments/metronome3.png",264,41,257,0.9,"stim/24.jpeg",2,4,3,2,"Instruments",1,1,"left","left",0.523999929,1,1,1,0,NA,NA,NA,NA,NA,NA,NA,NA,NA,NA,NA,NA,NA,NA,NA,NA,NA,NA,NA,NA,NA,NA,NA,NA
"507","stim/objects/Instruments/musicstand3.png",265,41,258,0.9,"stim/21.jpeg",2,1,3,2,"Instruments",1,3,"left","left",0.627999783,1,1,1,0,NA,NA,NA,NA,NA,NA,NA,NA,NA,NA,NA,NA,NA,NA,NA,NA,NA,NA,NA,NA,NA,NA,NA,NA
"294","stim/objects/HouseObjects/knife3.png",266,41,259,0.9,"stim/14.jpeg",1,4,3,2,"HouseObjects",2,3,"right","right",0.556999683,1,1,1,0,NA,NA,NA,NA,NA,NA,NA,NA,NA,NA,NA,NA,NA,NA,NA,NA,NA,NA,NA,NA,NA,NA,NA,NA
"359","stim/objects/HouseObjects/pitcher3.png",267,41,260,0.9,"stim/13.jpeg",1,3,3,2,"HouseObjects",2,4,"right","right",0.707999706,1,1,1,0,NA,NA,NA,NA,NA,NA,NA,NA,NA,NA,NA,NA,NA,NA,NA,NA,NA,NA,NA,NA,NA,NA,NA,NA
"379","stim/objects/HouseObjects/remote4.png",268,41,261,0.9,"stim/11.jpeg",1,1,3,1,"HouseObjects",2,1,"right","right",0.698999882,1,1,1,0,139,41,1,0.9,2,"stim/11.jpeg",1,1,"stim/11.jpeg",1,"right",1.100999832,1,2,0.604000092,2,0.40500021,139,0,0,NA,0,NA,0
"476","stim/objects/Instruments/metronome3.png",269,41,262,0.9,"stim/24.jpeg",2,4,3,2,"Instruments",1,3,"left","left",0.562999964,1,1,1,0,NA,NA,NA,NA,NA,NA,NA,NA,NA,NA,NA,NA,NA,NA,NA,NA,NA,NA,NA,NA,NA,NA,NA,NA
"435","stim/objects/Instruments/cornet4.png",270,41,263,0.7,"stim/64.jpeg",6,4,2,1,"Instruments",1,1,"left","right",0.646999836,0,0,1,0,200,41,1,0.7,1,"stim/64.jpeg",6,4,"stim/64.jpeg",1,"right",5.134000063,3,1,1.902000189,1,0.888000011,200,0,0,NA,1,NA,0
"360","stim/objects/HouseObjects/pitcher3.png",271,41,264,0.9,"stim/12.jpeg",1,2,3,2,"HouseObjects",2,1,"right","right",0.472999811,1,1,1,0,NA,NA,NA,NA,NA,NA,NA,NA,NA,NA,NA,NA,NA,NA,NA,NA,NA,NA,NA,NA,NA,NA,NA,NA
"451","stim/objects/Instruments/laud4.png",272,41,265,0.7,"stim/64.jpeg",6,4,2,1,"Instruments",1,2,"left","left",0.637999773,1,1,1,0,192,41,1,0.7,1,"stim/64.jpeg",6,4,"stim/64.jpeg",2,"left",1.118000031,1,2,0.763999939,1,0.832000017,192,1,0,0,0,0,0
"361","stim/objects/HouseObjects/pitcher3.png",273,41,266,0.9,"stim/14.jpeg",1,4,3,2,"HouseObjects",2,1,"right","right",0.60199976,1,1,1,0,NA,NA,NA,NA,NA,NA,NA,NA,NA,NA,NA,NA,NA,NA,NA,NA,NA,NA,NA,NA,NA,NA,NA,NA
"448","stim/objects/Instruments/laud3.png",274,41,267,0.7,"stim/62.jpeg",6,2,2,2,"Instruments",1,3,"left","left",0.632999897,1,1,1,0,NA,NA,NA,NA,NA,NA,NA,NA,NA,NA,NA,NA,NA,NA,NA,NA,NA,NA,NA,NA,NA,NA,NA,NA
"343","stim/objects/HouseObjects/pan3.png",275,41,268,0.9,"stim/13.jpeg",1,3,3,2,"HouseObjects",2,4,"right","right",0.714999914,1,1,1,0,NA,NA,NA,NA,NA,NA,NA,NA,NA,NA,NA,NA,NA,NA,NA,NA,NA,NA,NA,NA,NA,NA,NA,NA
"344","stim/objects/HouseObjects/pan3.png",276,41,269,0.9,"stim/11.jpeg",1,1,3,2,"HouseObjects",2,4,"right","",NA,0,0,1,0,NA,NA,NA,NA,NA,NA,NA,NA,NA,NA,NA,NA,NA,NA,NA,NA,NA,NA,NA,NA,NA,NA,NA,NA
"559","stim/objects/Instruments/trombone3.png",277,41,270,0.5,"stim/41.jpeg",4,1,1,1,"Instruments",1,3,"left","",NA,0,0,1,0,98,41,1,0.5,2,"stim/41.jpeg",4,1,"stim/41.jpeg",3,"left",1.131999969,2,2,0.677000046,2,0.395999908,98,1,0,0,0,0,0
"295","stim/objects/HouseObjects/knife3.png",278,41,271,0.9,"stim/12.jpeg",1,2,3,2,"HouseObjects",2,1,"right","right",0.660999775,1,1,1,0,NA,NA,NA,NA,NA,NA,NA,NA,NA,NA,NA,NA,NA,NA,NA,NA,NA,NA,NA,NA,NA,NA,NA,NA
"478","stim/objects/Instruments/metronome3.png",279,41,272,0.9,"stim/22.jpeg",2,2,3,2,"Instruments",1,1,"left","left",0.583999872,1,1,1,0,NA,NA,NA,NA,NA,NA,NA,NA,NA,NA,NA,NA,NA,NA,NA,NA,NA,NA,NA,NA,NA,NA,NA,NA
"492","stim/objects/Instruments/musicsheet3.png",280,41,273,0.9,"stim/23.jpeg",2,3,3,2,"Instruments",1,1,"left","left",0.431999683,1,1,1,0,NA,NA,NA,NA,NA,NA,NA,NA,NA,NA,NA,NA,NA,NA,NA,NA,NA,NA,NA,NA,NA,NA,NA,NA
"345","stim/objects/HouseObjects/pan3.png",281,41,274,0.9,"stim/11.jpeg",1,1,3,2,"HouseObjects",2,2,"right","right",0.529000044,1,1,1,0,NA,NA,NA,NA,NA,NA,NA,NA,NA,NA,NA,NA,NA,NA,NA,NA,NA,NA,NA,NA,NA,NA,NA,NA
"458","stim/objects/Instruments/marimba3.png",282,41,275,0.9,"stim/22.jpeg",2,2,3,2,"Instruments",1,1,"left","left",0.528999805,1,1,1,0,NA,NA,NA,NA,NA,NA,NA,NA,NA,NA,NA,NA,NA,NA,NA,NA,NA,NA,NA,NA,NA,NA,NA,NA
"362","stim/objects/HouseObjects/pitcher3.png",283,41,276,0.9,"stim/11.jpeg",1,1,3,2,"HouseObjects",2,2,"right","right",0.563999891,1,1,1,0,NA,NA,NA,NA,NA,NA,NA,NA,NA,NA,NA,NA,NA,NA,NA,NA,NA,NA,NA,NA,NA,NA,NA,NA
"258","stim/objects/HouseObjects/blender4.png",284,41,277,0.3,"stim/62.jpeg",6,2,2,1,"HouseObjects",2,1,"right","left",0.534999847,0,0,1,0,79,41,1,0.3,2,"stim/62.jpeg",6,2,"stim/62.jpeg",1,"right",5.654000044,2,3,1.518000126,2,0.704999924,79,0,0,NA,0,NA,0
"418","stim/objects/Instruments/bassdrum3.png",285,41,278,0.5,"stim/31.jpeg",3,1,1,2,"Instruments",1,3,"left","right",0.606999874,0,0,1,0,NA,NA,NA,NA,NA,NA,NA,NA,NA,NA,NA,NA,NA,NA,NA,NA,NA,NA,NA,NA,NA,NA,NA,NA
"459","stim/objects/Instruments/marimba3.png",286,41,279,0.9,"stim/21.jpeg",2,1,3,2,"Instruments",1,2,"left","right",0.468999863,0,0,1,0,NA,NA,NA,NA,NA,NA,NA,NA,NA,NA,NA,NA,NA,NA,NA,NA,NA,NA,NA,NA,NA,NA,NA,NA
"460","stim/objects/Instruments/marimba3.png",287,41,280,0.9,"stim/22.jpeg",2,2,3,2,"Instruments",1,2,"left","left",0.525999784,1,1,1,0,NA,NA,NA,NA,NA,NA,NA,NA,NA,NA,NA,NA,NA,NA,NA,NA,NA,NA,NA,NA,NA,NA,NA,NA
"553","stim/objects/Instruments/tambourine3.png",288,41,281,0.5,"stim/42.jpeg",4,2,1,1,"Instruments",1,3,"left","right",0.562999964,0,0,1,0,105,41,1,0.5,2,"stim/42.jpeg",4,2,"stim/42.jpeg",3,"left",1.15199995,4,3,1.253000021,2,0.830999851,105,1,0,0,0,0,0
"389","stim/objects/HouseObjects/scale4.png",289,41,282,0.1,"stim/24.jpeg",2,4,3,1,"HouseObjects",2,2,"right","left",0.596999645,0,0,1,0,73,41,1,0.1,2,"stim/24.jpeg",2,4,"stim/24.jpeg",2,"left",1.45600009,2,3,0.947999954,1,1.137000084,73,1,0,0,0,0,0
"525","stim/objects/Instruments/oboe3.png",290,41,283,0.9,"stim/21.jpeg",2,1,3,2,"Instruments",1,1,"left","left",0.463999987,1,1,1,0,NA,NA,NA,NA,NA,NA,NA,NA,NA,NA,NA,NA,NA,NA,NA,NA,NA,NA,NA,NA,NA,NA,NA,NA
"398","stim/objects/HouseObjects/thread3.png",291,41,284,0.7,"stim/53.jpeg",5,3,2,1,"HouseObjects",2,1,"right","right",0.561999798,1,1,1,0,127,41,1,0.7,2,"stim/53.jpeg",5,3,"stim/53.jpeg",1,"right",0.822000027,2,1,0.526000023,1,0.429000139,127,0,0,NA,1,NA,0
"550","stim/objects/Instruments/saxophone4.png",292,41,285,0.1,"stim/12.jpeg",1,2,3,1,"Instruments",1,4,"left","right",0.614999771,0,0,1,0,92,41,1,0.1,1,"stim/12.jpeg",1,2,"stim/12.jpeg",4,"left",1.121999979,4,2,1.069999933,1,0.694000006,92,1,1,1,0,0,0
"443","stim/objects/Instruments/doublebass4.png",293,41,286,0.7,"stim/62.jpeg",6,2,2,1,"Instruments",1,3,"left","left",0.620999813,1,1,1,0,179,41,1,0.7,1,"stim/62.jpeg",6,2,"stim/62.jpeg",3,"left",0.732000113,4,1,1.110000134,2,1.661000013,179,1,0,0,0,0,0
"341","stim/objects/HouseObjects/match4.png",294,41,287,0.9,"stim/11.jpeg",1,1,3,1,"HouseObjects",2,2,"right","right",0.605999947,1,1,1,0,69,41,1,0.9,2,"stim/11.jpeg",1,1,"stim/11.jpeg",2,"left",2.188999891,4,2,2.177999973,1,1.901000023,69,1,0,0,0,0,0
"555","stim/objects/Instruments/timbal3.png",295,41,288,0.5,"stim/43.jpeg",4,3,1,1,"Instruments",1,1,"left","left",0.758999825,1,1,1,0,161,41,1,0.5,2,"stim/43.jpeg",4,3,"stim/43.jpeg",1,"left",1.126999855,4,2,0.767999887,3,1.038000107,161,1,0,0,0,0,0
"479","stim/objects/Instruments/metronome3.png",296,41,289,0.9,"stim/22.jpeg",2,2,3,2,"Instruments",1,1,"left","left",0.816999912,1,1,1,0,NA,NA,NA,NA,NA,NA,NA,NA,NA,NA,NA,NA,NA,NA,NA,NA,NA,NA,NA,NA,NA,NA,NA,NA
"421","stim/objects/Instruments/bassguitar3.png",297,41,290,0.5,"stim/44.jpeg",4,4,1,2,"Instruments",1,2,"left","right",0.787999868,0,0,1,0,NA,NA,NA,NA,NA,NA,NA,NA,NA,NA,NA,NA,NA,NA,NA,NA,NA,NA,NA,NA,NA,NA,NA,NA
"297","stim/objects/HouseObjects/knife3.png",298,41,291,0.9,"stim/11.jpeg",1,1,3,2,"HouseObjects",2,3,"right","left",0.621999979,0,0,1,0,NA,NA,NA,NA,NA,NA,NA,NA,NA,NA,NA,NA,NA,NA,NA,NA,NA,NA,NA,NA,NA,NA,NA,NA
"526","stim/objects/Instruments/oboe3.png",299,41,292,0.9,"stim/23.jpeg",2,3,3,2,"Instruments",1,1,"left","left",0.740999937,1,1,1,0,NA,NA,NA,NA,NA,NA,NA,NA,NA,NA,NA,NA,NA,NA,NA,NA,NA,NA,NA,NA,NA,NA,NA,NA
"527","stim/objects/Instruments/oboe3.png",300,41,293,0.9,"stim/21.jpeg",2,1,3,2,"Instruments",1,1,"left","left",0.671000004,1,1,1,0,NA,NA,NA,NA,NA,NA,NA,NA,NA,NA,NA,NA,NA,NA,NA,NA,NA,NA,NA,NA,NA,NA,NA,NA
"276","stim/objects/HouseObjects/clothespin3.png",301,41,294,0.7,"stim/52.jpeg",5,2,2,2,"HouseObjects",2,1,"right","right",0.833999872,1,1,1,0,NA,NA,NA,NA,NA,NA,NA,NA,NA,NA,NA,NA,NA,NA,NA,NA,NA,NA,NA,NA,NA,NA,NA,NA
"298","stim/objects/HouseObjects/knife3.png",302,41,295,0.9,"stim/13.jpeg",1,3,3,2,"HouseObjects",2,1,"right","",NA,0,0,1,0,NA,NA,NA,NA,NA,NA,NA,NA,NA,NA,NA,NA,NA,NA,NA,NA,NA,NA,NA,NA,NA,NA,NA,NA
"363","stim/objects/HouseObjects/pitcher3.png",303,41,296,0.9,"stim/14.jpeg",1,4,3,2,"HouseObjects",2,4,"right","right",0.650999784,1,1,1,0,NA,NA,NA,NA,NA,NA,NA,NA,NA,NA,NA,NA,NA,NA,NA,NA,NA,NA,NA,NA,NA,NA,NA,NA
"282","stim/objects/HouseObjects/iron4.png",304,41,297,0.3,"stim/61.jpeg",6,1,2,1,"HouseObjects",2,1,"right","left",0.682999849,0,0,1,0,166,41,1,0.3,2,"stim/61.jpeg",6,1,"stim/61.jpeg",1,"right",0.934999943,4,3,0.713000059,4,1.302999973,166,0,0,NA,0,NA,0
"394","stim/objects/HouseObjects/teapot3.png",305,41,298,0.5,"stim/44.jpeg",4,4,1,1,"HouseObjects",2,3,"right","left",0.802999973,0,0,1,0,44,41,1,0.5,2,"stim/44.jpeg",4,4,"stim/44.jpeg",3,"left",0.798000097,2,3,1.072000027,2,1.970000029,44,1,0,0,0,0,0
"564","stim/objects/Instruments/tuba4.png",306,41,299,0.9,"stim/23.jpeg",2,3,3,1,"Instruments",1,3,"left","left",0.621999979,1,1,1,0,59,41,1,0.9,1,"stim/23.jpeg",2,3,"stim/23.jpeg",3,"left",1.994000196,1,1,0.980999947,1,1.296000004,59,1,0,0,0,0,0
"328","stim/objects/HouseObjects/match3.png",307,41,300,0.9,"stim/14.jpeg",1,4,3,2,"HouseObjects",2,2,"right","right",0.59499979,1,1,1,0,NA,NA,NA,NA,NA,NA,NA,NA,NA,NA,NA,NA,NA,NA,NA,NA,NA,NA,NA,NA,NA,NA,NA,NA
"541","stim/objects/Instruments/panflute3.png",308,41,301,0.5,"stim/33.jpeg",3,3,1,1,"Instruments",1,2,"left","right",0.64199996,0,0,1,0,36,41,1,0.5,1,"stim/33.jpeg",3,3,"stim/33.jpeg",2,"left",1.051000118,3,4,2.233999968,3,2.328999996,36,1,0,0,0,0,0
"268","stim/objects/HouseObjects/clock3.png",309,41,302,0.5,"stim/43.jpeg",4,3,1,2,"HouseObjects",2,1,"right","left",0.708999872,0,0,1,0,NA,NA,NA,NA,NA,NA,NA,NA,NA,NA,NA,NA,NA,NA,NA,NA,NA,NA,NA,NA,NA,NA,NA,NA
"480","stim/objects/Instruments/metronome3.png",310,41,303,0.9,"stim/21.jpeg",2,1,3,2,"Instruments",1,4,"left","left",0.787999868,1,1,1,0,NA,NA,NA,NA,NA,NA,NA,NA,NA,NA,NA,NA,NA,NA,NA,NA,NA,NA,NA,NA,NA,NA,NA,NA
"408","stim/objects/Instruments/accordion4.png",311,41,304,0.3,"stim/52.jpeg",5,2,2,1,"Instruments",1,1,"left","right",0.776999712,0,0,1,0,148,41,1,0.3,1,"stim/52.jpeg",5,2,"stim/52.jpeg",1,"left",0.757000208,4,1,1.024999857,3,1.32400012,148,1,0,0,0,0,0
"364","stim/objects/HouseObjects/pitcher3.png",312,41,305,0.9,"stim/13.jpeg",1,3,3,2,"HouseObjects",2,2,"right","",NA,0,0,1,0,NA,NA,NA,NA,NA,NA,NA,NA,NA,NA,NA,NA,NA,NA,NA,NA,NA,NA,NA,NA,NA,NA,NA,NA
"299","stim/objects/HouseObjects/knife3.png",313,41,306,0.9,"stim/11.jpeg",1,1,3,2,"HouseObjects",2,3,"right","",NA,0,0,1,0,NA,NA,NA,NA,NA,NA,NA,NA,NA,NA,NA,NA,NA,NA,NA,NA,NA,NA,NA,NA,NA,NA,NA,NA
"396","stim/objects/HouseObjects/thermometer3.png",314,41,307,0.7,"stim/52.jpeg",5,2,2,1,"HouseObjects",2,2,"right","right",0.674999714,1,1,1,0,145,41,1,0.7,2,"stim/52.jpeg",5,2,"stim/52.jpeg",2,"right",3.087000132,2,2,0.821000099,3,0.870000124,145,0,1,NA,0,NA,0
"365","stim/objects/HouseObjects/pitcher3.png",315,41,308,0.9,"stim/11.jpeg",1,1,3,2,"HouseObjects",2,1,"right","right",0.603999853,1,1,1,0,NA,NA,NA,NA,NA,NA,NA,NA,NA,NA,NA,NA,NA,NA,NA,NA,NA,NA,NA,NA,NA,NA,NA,NA
"329","stim/objects/HouseObjects/match3.png",316,41,309,0.9,"stim/11.jpeg",1,1,3,2,"HouseObjects",2,1,"right","right",0.52099967,1,1,1,0,NA,NA,NA,NA,NA,NA,NA,NA,NA,NA,NA,NA,NA,NA,NA,NA,NA,NA,NA,NA,NA,NA,NA,NA
"259","stim/objects/HouseObjects/bottle3.png",317,41,310,0.5,"stim/44.jpeg",4,4,1,2,"HouseObjects",2,2,"right","right",0.56099987,1,1,1,0,NA,NA,NA,NA,NA,NA,NA,NA,NA,NA,NA,NA,NA,NA,NA,NA,NA,NA,NA,NA,NA,NA,NA,NA
"395","stim/objects/HouseObjects/teapot4.png",318,41,311,0.1,"stim/23.jpeg",2,3,3,1,"HouseObjects",2,2,"right","left",0.44299984,0,0,1,0,84,41,1,0.1,2,"stim/23.jpeg",2,3,"stim/23.jpeg",2,"right",0.755000114,2,3,0.955000162,1,0.977999926,84,0,1,NA,0,NA,0
"366","stim/objects/HouseObjects/pitcher3.png",319,41,312,0.9,"stim/14.jpeg",1,4,3,2,"HouseObjects",2,1,"right","right",0.636999846,1,1,1,0,NA,NA,NA,NA,NA,NA,NA,NA,NA,NA,NA,NA,NA,NA,NA,NA,NA,NA,NA,NA,NA,NA,NA,NA
"472","stim/objects/Instruments/marimba4.png",320,41,313,0.1,"stim/11.jpeg",1,1,3,1,"Instruments",1,4,"left","right",0.570999861,0,0,1,0,3,41,1,0.1,1,"stim/11.jpeg",1,1,"stim/11.jpeg",4,"left",1.085000038,3,2,3.893000126,4,3.039000034,3,1,0,0,1,1,0
"424","stim/objects/Instruments/cello3.png",321,41,314,0.5,"stim/44.jpeg",4,4,1,2,"Instruments",1,3,"left","left",0.618999958,1,1,1,0,NA,NA,NA,NA,NA,NA,NA,NA,NA,NA,NA,NA,NA,NA,NA,NA,NA,NA,NA,NA,NA,NA,NA,NA
"409","stim/objects/Instruments/acousticguitar3.png",322,41,315,0.5,"stim/33.jpeg",3,3,1,2,"Instruments",1,1,"left","right",0.578999758,0,0,1,0,NA,NA,NA,NA,NA,NA,NA,NA,NA,NA,NA,NA,NA,NA,NA,NA,NA,NA,NA,NA,NA,NA,NA,NA
"412","stim/objects/Instruments/balalaika3.png",323,41,316,0.5,"stim/33.jpeg",3,3,1,2,"Instruments",1,2,"left","right",0.638999939,0,0,1,0,NA,NA,NA,NA,NA,NA,NA,NA,NA,NA,NA,NA,NA,NA,NA,NA,NA,NA,NA,NA,NA,NA,NA,NA
"420","stim/objects/Instruments/bassdrum4.png",324,41,317,0.3,"stim/52.jpeg",5,2,2,1,"Instruments",1,2,"left","right",0.825999975,0,0,1,0,152,41,1,0.3,1,"stim/52.jpeg",5,2,"stim/52.jpeg",2,"left",0.743999958,4,4,3.672999859,3,2.305999994,152,1,0,0,0,0,0
"250","stim/objects/HouseObjects/basket3.png",325,41,318,0.5,"stim/33.jpeg",3,3,1,2,"HouseObjects",2,4,"right","right",0.717999935,1,1,1,0,NA,NA,NA,NA,NA,NA,NA,NA,NA,NA,NA,NA,NA,NA,NA,NA,NA,NA,NA,NA,NA,NA,NA,NA
"307","stim/objects/HouseObjects/knife4.png",326,41,319,0.9,"stim/13.jpeg",1,3,3,1,"HouseObjects",2,2,"right","right",0.595999718,1,1,1,0,63,41,1,0.9,2,"stim/13.jpeg",1,3,"stim/13.jpeg",2,"right",2.029000044,2,2,0.681000233,1,0.684000015,63,0,0,NA,0,NA,0
"429","stim/objects/Instruments/chime4.png",327,41,320,0.7,"stim/62.jpeg",6,2,2,1,"Instruments",1,4,"left","right",0.643999815,0,0,1,0,189,41,1,0.7,1,"stim/62.jpeg",6,2,"stim/62.jpeg",4,"left",1.354000092,3,2,1.052999973,3,1.180999994,189,1,1,1,0,0,0
"551","stim/objects/Instruments/speaker3.png",328,41,321,0.5,"stim/41.jpeg",4,1,1,1,"Instruments",1,4,"left","left",0.791999817,1,1,1,0,47,41,1,0.5,2,"stim/41.jpeg",4,1,"stim/41.jpeg",4,"left",0.888000011,4,3,2.661999941,4,1.302000046,47,1,0,0,1,1,0
"249","stim/objects/HouseObjects/barbecuelighter4.png",329,41,322,0.7,"stim/51.jpeg",5,1,2,1,"HouseObjects",2,4,"right","right",0.615999699,1,1,1,0,1,41,1,0.7,2,"stim/51.jpeg",5,1,"stim/51.jpeg",4,"right",1.596999884,1,4,4.088999987,2,2.277999878,1,0,0,NA,0,NA,0
"391","stim/objects/HouseObjects/sponge4.png",330,41,323,0.1,"stim/21.jpeg",2,1,3,1,"HouseObjects",2,3,"right","left",0.453999996,0,0,1,0,91,41,1,0.1,2,"stim/21.jpeg",2,1,"stim/21.jpeg",3,"left",3.197000027,3,4,1.026000023,4,1.100000143,91,1,0,0,0,0,0
"260","stim/objects/HouseObjects/bottle3.png",331,41,324,0.5,"stim/43.jpeg",4,3,1,2,"HouseObjects",2,4,"right","right",0.646999836,1,1,1,0,NA,NA,NA,NA,NA,NA,NA,NA,NA,NA,NA,NA,NA,NA,NA,NA,NA,NA,NA,NA,NA,NA,NA,NA
"510","stim/objects/Instruments/musicstand3.png",332,41,325,0.9,"stim/24.jpeg",2,4,3,2,"Instruments",1,3,"left","right",0.52099967,0,0,1,0,NA,NA,NA,NA,NA,NA,NA,NA,NA,NA,NA,NA,NA,NA,NA,NA,NA,NA,NA,NA,NA,NA,NA,NA
"482","stim/objects/Instruments/metronome3.png",333,41,326,0.9,"stim/21.jpeg",2,1,3,2,"Instruments",1,1,"left","left",0.532999754,1,1,1,0,NA,NA,NA,NA,NA,NA,NA,NA,NA,NA,NA,NA,NA,NA,NA,NA,NA,NA,NA,NA,NA,NA,NA,NA
"393","stim/objects/HouseObjects/spraybottle4.png",334,41,327,0.1,"stim/22.jpeg",2,2,3,1,"HouseObjects",2,1,"right","left",0.501999855,0,0,1,0,62,41,1,0.1,2,"stim/22.jpeg",2,2,"stim/22.jpeg",1,"right",0.97300005,2,3,1.032999992,4,1.436999798,62,0,0,NA,0,NA,0
"414","stim/objects/Instruments/balalaika4.png",335,41,328,0.3,"stim/54.jpeg",5,4,2,1,"Instruments",1,4,"left","right",0.678999901,0,0,1,0,155,41,1,0.3,1,"stim/54.jpeg",5,4,"stim/54.jpeg",4,"left",0.981000185,4,3,0.920000076,3,1.358999968,155,1,0,0,0,0,0
"277","stim/objects/HouseObjects/clothespin3.png",336,41,329,0.7,"stim/51.jpeg",5,1,2,2,"HouseObjects",2,2,"right","right",0.610999823,1,1,1,0,NA,NA,NA,NA,NA,NA,NA,NA,NA,NA,NA,NA,NA,NA,NA,NA,NA,NA,NA,NA,NA,NA,NA,NA
"462","stim/objects/Instruments/marimba3.png",337,41,330,0.9,"stim/23.jpeg",2,3,3,2,"Instruments",1,2,"left","left",0.648999929,1,1,1,0,NA,NA,NA,NA,NA,NA,NA,NA,NA,NA,NA,NA,NA,NA,NA,NA,NA,NA,NA,NA,NA,NA,NA,NA
"511","stim/objects/Instruments/musicstand3.png",338,41,331,0.9,"stim/21.jpeg",2,1,3,2,"Instruments",1,2,"left","left",0.60800004,1,1,1,0,NA,NA,NA,NA,NA,NA,NA,NA,NA,NA,NA,NA,NA,NA,NA,NA,NA,NA,NA,NA,NA,NA,NA,NA
"557","stim/objects/Instruments/triangle3.png",339,41,332,0.5,"stim/44.jpeg",4,4,1,1,"Instruments",1,1,"left","right",0.696999788,0,0,1,0,29,41,1,0.5,2,"stim/44.jpeg",4,4,"stim/44.jpeg",1,"left",5.917000055,1,2,0.895999908,1,1.00999999,29,1,0,0,1,1,0
"270","stim/objects/HouseObjects/clock4.png",340,41,333,0.3,"stim/62.jpeg",6,2,2,1,"HouseObjects",2,2,"right","left",0.746999979,0,0,1,0,20,41,1,0.3,2,"stim/62.jpeg",6,2,"stim/62.jpeg",2,"right",2.06799984,3,3,0.927999973,1,1.14199996,20,0,0,NA,0,NA,0
"452","stim/objects/Instruments/maraca3.png",341,41,334,0.7,"stim/63.jpeg",6,3,2,2,"Instruments",1,3,"left","left",0.46999979,1,1,1,0,NA,NA,NA,NA,NA,NA,NA,NA,NA,NA,NA,NA,NA,NA,NA,NA,NA,NA,NA,NA,NA,NA,NA,NA
"512","stim/objects/Instruments/musicstand3.png",342,41,335,0.9,"stim/23.jpeg",2,3,3,2,"Instruments",1,4,"left","right",0.551999807,0,0,1,0,NA,NA,NA,NA,NA,NA,NA,NA,NA,NA,NA,NA,NA,NA,NA,NA,NA,NA,NA,NA,NA,NA,NA,NA
"300","stim/objects/HouseObjects/knife3.png",343,41,336,0.9,"stim/13.jpeg",1,3,3,2,"HouseObjects",2,1,"right","right",0.637999773,1,1,1,0,NA,NA,NA,NA,NA,NA,NA,NA,NA,NA,NA,NA,NA,NA,NA,NA,NA,NA,NA,NA,NA,NA,NA,NA
"530","stim/objects/Instruments/oboe3.png",344,41,337,0.9,"stim/22.jpeg",2,2,3,2,"Instruments",1,4,"left","left",0.606999874,1,1,1,0,NA,NA,NA,NA,NA,NA,NA,NA,NA,NA,NA,NA,NA,NA,NA,NA,NA,NA,NA,NA,NA,NA,NA,NA
"267","stim/objects/HouseObjects/bucket4.png",345,41,338,0.3,"stim/61.jpeg",6,1,2,1,"HouseObjects",2,3,"right","",NA,0,0,1,0,22,41,1,0.3,2,"stim/61.jpeg",6,1,"stim/61.jpeg",3,"left",1.690999985,4,2,2.947000027,4,2.161000013,22,1,0,0,0,0,0
"513","stim/objects/Instruments/musicstand3.png",346,41,339,0.9,"stim/23.jpeg",2,3,3,2,"Instruments",1,1,"left","left",0.586999893,1,1,1,0,NA,NA,NA,NA,NA,NA,NA,NA,NA,NA,NA,NA,NA,NA,NA,NA,NA,NA,NA,NA,NA,NA,NA,NA
"514","stim/objects/Instruments/musicstand3.png",347,41,340,0.9,"stim/21.jpeg",2,1,3,2,"Instruments",1,2,"left","left",0.4599998,1,1,1,0,NA,NA,NA,NA,NA,NA,NA,NA,NA,NA,NA,NA,NA,NA,NA,NA,NA,NA,NA,NA,NA,NA,NA,NA
"439","stim/objects/Instruments/cymbal4.png",348,41,341,0.7,"stim/61.jpeg",6,1,2,1,"Instruments",1,1,"left","right",0.766999722,0,0,1,0,199,41,1,0.7,1,"stim/61.jpeg",6,1,"stim/61.jpeg",1,"left",0.917999983,4,4,1.601999998,1,0.861999989,199,1,0,0,1,1,0
"331","stim/objects/HouseObjects/match3.png",349,41,342,0.9,"stim/14.jpeg",1,4,3,2,"HouseObjects",2,2,"right","right",0.713999748,1,1,1,0,NA,NA,NA,NA,NA,NA,NA,NA,NA,NA,NA,NA,NA,NA,NA,NA,NA,NA,NA,NA,NA,NA,NA,NA
"496","stim/objects/Instruments/musicsheet3.png",350,41,343,0.9,"stim/24.jpeg",2,4,3,2,"Instruments",1,2,"left","left",0.566999674,1,1,1,0,NA,NA,NA,NA,NA,NA,NA,NA,NA,NA,NA,NA,NA,NA,NA,NA,NA,NA,NA,NA,NA,NA,NA,NA
"497","stim/objects/Instruments/musicsheet3.png",351,41,344,0.9,"stim/23.jpeg",2,3,3,2,"Instruments",1,1,"left","",NA,0,0,1,0,NA,NA,NA,NA,NA,NA,NA,NA,NA,NA,NA,NA,NA,NA,NA,NA,NA,NA,NA,NA,NA,NA,NA,NA
"347","stim/objects/HouseObjects/pan3.png",352,41,345,0.9,"stim/11.jpeg",1,1,3,2,"HouseObjects",2,2,"right","",NA,0,0,1,0,NA,NA,NA,NA,NA,NA,NA,NA,NA,NA,NA,NA,NA,NA,NA,NA,NA,NA,NA,NA,NA,NA,NA,NA
"484","stim/objects/Instruments/metronome3.png",353,41,346,0.9,"stim/22.jpeg",2,2,3,2,"Instruments",1,4,"left","right",0.625999689,0,0,1,0,NA,NA,NA,NA,NA,NA,NA,NA,NA,NA,NA,NA,NA,NA,NA,NA,NA,NA,NA,NA,NA,NA,NA,NA
"566","stim/objects/Instruments/violin4.png",354,41,347,0.9,"stim/24.jpeg",2,4,3,1,"Instruments",1,3,"left","left",0.590999842,1,1,1,0,175,41,1,0.9,1,"stim/24.jpeg",2,4,"stim/24.jpeg",3,"left",0.80099988,4,2,1.177000046,2,1.486999989,175,1,0,0,0,0,0
"463","stim/objects/Instruments/marimba3.png",355,41,348,0.9,"stim/21.jpeg",2,1,3,2,"Instruments",1,2,"left","left",0.616999865,1,1,1,0,NA,NA,NA,NA,NA,NA,NA,NA,NA,NA,NA,NA,NA,NA,NA,NA,NA,NA,NA,NA,NA,NA,NA,NA
"406","stim/objects/Instruments/accordion3.png",356,41,349,0.5,"stim/32.jpeg",3,2,1,2,"Instruments",1,1,"left","right",0.571999788,0,0,1,0,NA,NA,NA,NA,NA,NA,NA,NA,NA,NA,NA,NA,NA,NA,NA,NA,NA,NA,NA,NA,NA,NA,NA,NA
"348","stim/objects/HouseObjects/pan3.png",357,41,350,0.9,"stim/12.jpeg",1,2,3,2,"HouseObjects",2,1,"right","left",0.652999878,0,0,1,0,NA,NA,NA,NA,NA,NA,NA,NA,NA,NA,NA,NA,NA,NA,NA,NA,NA,NA,NA,NA,NA,NA,NA,NA
"332","stim/objects/HouseObjects/match3.png",358,41,351,0.9,"stim/14.jpeg",1,4,3,2,"HouseObjects",2,3,"right","right",0.548999786,1,1,1,0,NA,NA,NA,NA,NA,NA,NA,NA,NA,NA,NA,NA,NA,NA,NA,NA,NA,NA,NA,NA,NA,NA,NA,NA
"324","stim/objects/HouseObjects/lintroller4.png",359,41,352,0.9,"stim/14.jpeg",1,4,3,1,"HouseObjects",2,4,"right","right",0.592999697,1,1,1,0,195,41,1,0.9,2,"stim/14.jpeg",1,4,"stim/14.jpeg",4,"left",1.116000175,4,1,1.003999949,3,1.070999861,195,1,0,0,0,0,0
"401","stim/objects/HouseObjects/towel4.png",360,41,353,0.1,"stim/22.jpeg",2,2,3,1,"HouseObjects",2,2,"right","left",0.717999935,0,0,1,0,15,41,1,0.1,2,"stim/22.jpeg",2,2,"stim/22.jpeg",2,"right",1.653000116,1,3,1.312999964,3,2.539000034,15,0,0,NA,0,NA,0
"516","stim/objects/Instruments/musicstand3.png",361,41,354,0.9,"stim/24.jpeg",2,4,3,2,"Instruments",1,3,"left","left",0.507999659,1,1,1,0,NA,NA,NA,NA,NA,NA,NA,NA,NA,NA,NA,NA,NA,NA,NA,NA,NA,NA,NA,NA,NA,NA,NA,NA
"349","stim/objects/HouseObjects/pan3.png",362,41,355,0.9,"stim/13.jpeg",1,3,3,2,"HouseObjects",2,3,"right","right",0.825999737,1,1,1,0,NA,NA,NA,NA,NA,NA,NA,NA,NA,NA,NA,NA,NA,NA,NA,NA,NA,NA,NA,NA,NA,NA,NA,NA
"313","stim/objects/HouseObjects/lintroller3.png",363,41,356,0.9,"stim/11.jpeg",1,1,3,2,"HouseObjects",2,4,"right","right",0.502999783,1,1,1,0,NA,NA,NA,NA,NA,NA,NA,NA,NA,NA,NA,NA,NA,NA,NA,NA,NA,NA,NA,NA,NA,NA,NA,NA
"247","stim/objects/HouseObjects/barbecuelighter3.png",364,41,357,0.5,"stim/32.jpeg",3,2,1,2,"HouseObjects",2,3,"right","right",0.65199995,1,1,1,0,NA,NA,NA,NA,NA,NA,NA,NA,NA,NA,NA,NA,NA,NA,NA,NA,NA,NA,NA,NA,NA,NA,NA,NA
"314","stim/objects/HouseObjects/lintroller3.png",365,41,358,0.9,"stim/11.jpeg",1,1,3,2,"HouseObjects",2,2,"right","right",0.532999754,1,1,1,0,NA,NA,NA,NA,NA,NA,NA,NA,NA,NA,NA,NA,NA,NA,NA,NA,NA,NA,NA,NA,NA,NA,NA,NA
"455","stim/objects/Instruments/maraca4.png",366,41,359,0.7,"stim/61.jpeg",6,1,2,1,"Instruments",1,4,"left","left",0.65199995,1,1,1,0,115,41,1,0.7,1,"stim/61.jpeg",6,1,"stim/61.jpeg",4,"left",1.220000029,4,3,0.900000095,4,1.573999882,115,1,0,0,1,1,0
"436","stim/objects/Instruments/cymbal3.png",367,41,360,0.7,"stim/61.jpeg",6,1,2,2,"Instruments",1,4,"left","left",0.508999825,1,1,1,0,NA,NA,NA,NA,NA,NA,NA,NA,NA,NA,NA,NA,NA,NA,NA,NA,NA,NA,NA,NA,NA,NA,NA,NA
"442","stim/objects/Instruments/doublebass3.png",368,41,361,0.7,"stim/64.jpeg",6,4,2,2,"Instruments",1,3,"left","left",0.552000046,1,1,1,0,NA,NA,NA,NA,NA,NA,NA,NA,NA,NA,NA,NA,NA,NA,NA,NA,NA,NA,NA,NA,NA,NA,NA,NA
"315","stim/objects/HouseObjects/lintroller3.png",369,41,362,0.9,"stim/12.jpeg",1,2,3,2,"HouseObjects",2,3,"right","right",0.641999722,1,1,1,0,NA,NA,NA,NA,NA,NA,NA,NA,NA,NA,NA,NA,NA,NA,NA,NA,NA,NA,NA,NA,NA,NA,NA,NA
"485","stim/objects/Instruments/metronome3.png",370,41,363,0.9,"stim/23.jpeg",2,3,3,2,"Instruments",1,3,"left","left",0.644999981,1,1,1,0,NA,NA,NA,NA,NA,NA,NA,NA,NA,NA,NA,NA,NA,NA,NA,NA,NA,NA,NA,NA,NA,NA,NA,NA
"532","stim/objects/Instruments/oboe3.png",371,41,364,0.9,"stim/23.jpeg",2,3,3,2,"Instruments",1,2,"left","left",0.455999851,1,1,1,0,NA,NA,NA,NA,NA,NA,NA,NA,NA,NA,NA,NA,NA,NA,NA,NA,NA,NA,NA,NA,NA,NA,NA,NA
"246","stim/objects/HouseObjects/ballofstring4.png",372,41,365,0.7,"stim/54.jpeg",5,4,2,1,"HouseObjects",2,3,"right","right",0.622999907,1,1,1,0,35,41,1,0.7,2,"stim/54.jpeg",5,4,"stim/54.jpeg",3,"right",1.140000105,2,1,0.872999907,2,0.971999884,35,0,0,NA,0,NA,0
"334","stim/objects/HouseObjects/match3.png",373,41,366,0.9,"stim/12.jpeg",1,2,3,2,"HouseObjects",2,2,"right","right",0.586999893,1,1,1,0,NA,NA,NA,NA,NA,NA,NA,NA,NA,NA,NA,NA,NA,NA,NA,NA,NA,NA,NA,NA,NA,NA,NA,NA
"350","stim/objects/HouseObjects/pan3.png",374,41,367,0.9,"stim/13.jpeg",1,3,3,2,"HouseObjects",2,1,"right","right",0.609999895,1,1,1,0,NA,NA,NA,NA,NA,NA,NA,NA,NA,NA,NA,NA,NA,NA,NA,NA,NA,NA,NA,NA,NA,NA,NA,NA
"377","stim/objects/HouseObjects/recyclingbin4.png",375,41,368,0.9,"stim/14.jpeg",1,4,3,1,"HouseObjects",2,3,"right","right",0.520999908,1,1,1,0,167,41,1,0.9,2,"stim/14.jpeg",1,4,"stim/14.jpeg",3,"left",1.398000002,4,1,0.888000011,3,1.601999998,167,1,0,0,1,1,0
"317","stim/objects/HouseObjects/lintroller3.png",376,41,369,0.9,"stim/12.jpeg",1,2,3,2,"HouseObjects",2,4,"right","right",0.556999922,1,1,1,0,NA,NA,NA,NA,NA,NA,NA,NA,NA,NA,NA,NA,NA,NA,NA,NA,NA,NA,NA,NA,NA,NA,NA,NA
"335","stim/objects/HouseObjects/match3.png",377,41,370,0.9,"stim/13.jpeg",1,3,3,2,"HouseObjects",2,4,"right","right",0.595999718,1,1,1,0,NA,NA,NA,NA,NA,NA,NA,NA,NA,NA,NA,NA,NA,NA,NA,NA,NA,NA,NA,NA,NA,NA,NA,NA
"251","stim/objects/HouseObjects/basket3.png",378,41,371,0.5,"stim/34.jpeg",3,4,1,2,"HouseObjects",2,1,"right","right",0.838999748,1,1,1,0,NA,NA,NA,NA,NA,NA,NA,NA,NA,NA,NA,NA,NA,NA,NA,NA,NA,NA,NA,NA,NA,NA,NA,NA
"403","stim/objects/HouseObjects/vacuumcleaner4.png",379,41,372,0.1,"stim/23.jpeg",2,3,3,1,"HouseObjects",2,4,"right","left",0.626999855,0,0,1,0,54,41,1,0.1,2,"stim/23.jpeg",2,3,"stim/23.jpeg",4,"left",3.116999865,4,4,1.358999968,4,1.030999899,54,1,0,0,1,1,0
"293","stim/objects/HouseObjects/knife3.png",380,41,373,0.9,"stim/12.jpeg",1,2,3,2,"HouseObjects",2,1,"right","right",0.599999905,1,1,1,0,NA,NA,NA,NA,NA,NA,NA,NA,NA,NA,NA,NA,NA,NA,NA,NA,NA,NA,NA,NA,NA,NA,NA,NA
"352","stim/objects/HouseObjects/pan3.png",381,41,374,0.9,"stim/14.jpeg",1,4,3,2,"HouseObjects",2,3,"right","right",0.598999739,1,1,1,0,NA,NA,NA,NA,NA,NA,NA,NA,NA,NA,NA,NA,NA,NA,NA,NA,NA,NA,NA,NA,NA,NA,NA,NA
"404","stim/objects/HouseObjects/wateringcan3.png",382,41,375,0.7,"stim/52.jpeg",5,2,2,1,"HouseObjects",2,4,"right","right",0.697000027,1,1,1,0,135,41,1,0.7,2,"stim/52.jpeg",5,2,"stim/52.jpeg",4,"right",0.842000008,1,2,0.787000179,3,0.763000011,135,0,1,NA,0,NA,0
"275","stim/objects/HouseObjects/clothespin3.png",383,41,376,0.7,"stim/54.jpeg",5,4,2,2,"HouseObjects",2,4,"right","right",0.573999882,1,1,1,0,NA,NA,NA,NA,NA,NA,NA,NA,NA,NA,NA,NA,NA,NA,NA,NA,NA,NA,NA,NA,NA,NA,NA,NA
"465","stim/objects/Instruments/marimba3.png",384,41,377,0.9,"stim/23.jpeg",2,3,3,2,"Instruments",1,1,"left","",NA,0,0,1,0,NA,NA,NA,NA,NA,NA,NA,NA,NA,NA,NA,NA,NA,NA,NA,NA,NA,NA,NA,NA,NA,NA,NA,NA
"312","stim/objects/HouseObjects/lintroller3.png",385,41,378,0.9,"stim/14.jpeg",1,4,3,2,"HouseObjects",2,1,"right","right",0.679999828,1,1,1,0,NA,NA,NA,NA,NA,NA,NA,NA,NA,NA,NA,NA,NA,NA,NA,NA,NA,NA,NA,NA,NA,NA,NA,NA
"241","stim/objects/HouseObjects/ashtray3.png",386,41,379,0.5,"stim/34.jpeg",3,4,1,2,"HouseObjects",2,2,"right","right",0.603999853,1,1,1,0,NA,NA,NA,NA,NA,NA,NA,NA,NA,NA,NA,NA,NA,NA,NA,NA,NA,NA,NA,NA,NA,NA,NA,NA
"257","stim/objects/HouseObjects/blender3.png",387,41,380,0.5,"stim/42.jpeg",4,2,1,2,"HouseObjects",2,1,"right","left",0.717999697,0,0,1,0,NA,NA,NA,NA,NA,NA,NA,NA,NA,NA,NA,NA,NA,NA,NA,NA,NA,NA,NA,NA,NA,NA,NA,NA
"495","stim/objects/Instruments/musicsheet3.png",388,41,381,0.9,"stim/21.jpeg",2,1,3,2,"Instruments",1,4,"left","left",0.651999712,1,1,1,0,NA,NA,NA,NA,NA,NA,NA,NA,NA,NA,NA,NA,NA,NA,NA,NA,NA,NA,NA,NA,NA,NA,NA,NA
"381","stim/objects/HouseObjects/rubbergloves4.png",389,41,382,0.9,"stim/12.jpeg",1,2,3,1,"HouseObjects",2,2,"right","right",0.666999817,1,1,1,0,157,41,1,0.9,2,"stim/12.jpeg",1,2,"stim/12.jpeg",2,"right",1.338000059,3,3,0.423000097,3,0.654000044,157,0,0,NA,0,NA,0
"271","stim/objects/HouseObjects/clothesdryingrack3.png",390,41,383,0.7,"stim/54.jpeg",5,4,2,2,"HouseObjects",2,1,"right","right",0.746999979,1,1,1,0,NA,NA,NA,NA,NA,NA,NA,NA,NA,NA,NA,NA,NA,NA,NA,NA,NA,NA,NA,NA,NA,NA,NA,NA
"309","stim/objects/HouseObjects/lintroller3.png",391,41,384,0.9,"stim/11.jpeg",1,1,3,2,"HouseObjects",2,3,"right","right",0.73699975,1,1,1,0,NA,NA,NA,NA,NA,NA,NA,NA,NA,NA,NA,NA,NA,NA,NA,NA,NA,NA,NA,NA,NA,NA,NA,NA
"336","stim/objects/HouseObjects/match3.png",392,41,385,0.9,"stim/11.jpeg",1,1,3,2,"HouseObjects",2,1,"right","",NA,0,0,1,0,NA,NA,NA,NA,NA,NA,NA,NA,NA,NA,NA,NA,NA,NA,NA,NA,NA,NA,NA,NA,NA,NA,NA,NA
"432","stim/objects/Instruments/clarinet4.png",393,41,386,0.7,"stim/63.jpeg",6,3,2,1,"Instruments",1,4,"left","left",0.694999695,1,1,1,0,31,41,1,0.7,1,"stim/63.jpeg",6,3,"stim/63.jpeg",4,"left",0.881999969,3,4,2.118999958,4,1.219000101,31,1,0,0,1,1,0
"353","stim/objects/HouseObjects/pan3.png",394,41,387,0.9,"stim/14.jpeg",1,4,3,2,"HouseObjects",2,3,"right","right",0.576999903,1,1,1,0,NA,NA,NA,NA,NA,NA,NA,NA,NA,NA,NA,NA,NA,NA,NA,NA,NA,NA,NA,NA,NA,NA,NA,NA
"437","stim/objects/Instruments/cymbal3.png",395,41,388,0.7,"stim/62.jpeg",6,2,2,2,"Instruments",1,4,"left","left",0.603999853,1,1,1,0,NA,NA,NA,NA,NA,NA,NA,NA,NA,NA,NA,NA,NA,NA,NA,NA,NA,NA,NA,NA,NA,NA,NA,NA
"318","stim/objects/HouseObjects/lintroller3.png",396,41,389,0.9,"stim/13.jpeg",1,3,3,2,"HouseObjects",2,2,"right","right",0.617999792,1,1,1,0,NA,NA,NA,NA,NA,NA,NA,NA,NA,NA,NA,NA,NA,NA,NA,NA,NA,NA,NA,NA,NA,NA,NA,NA
"433","stim/objects/Instruments/cornet3.png",397,41,390,0.5,"stim/44.jpeg",4,4,1,2,"Instruments",1,4,"left","right",0.626999855,0,0,1,0,NA,NA,NA,NA,NA,NA,NA,NA,NA,NA,NA,NA,NA,NA,NA,NA,NA,NA,NA,NA,NA,NA,NA,NA
"524","stim/objects/Instruments/oboe3.png",398,41,391,0.9,"stim/22.jpeg",2,2,3,2,"Instruments",1,4,"left","left",0.598999739,1,1,1,0,NA,NA,NA,NA,NA,NA,NA,NA,NA,NA,NA,NA,NA,NA,NA,NA,NA,NA,NA,NA,NA,NA,NA,NA
"500","stim/objects/Instruments/musicsheet3.png",399,41,392,0.9,"stim/21.jpeg",2,1,3,2,"Instruments",1,3,"left","left",0.639999866,1,1,1,0,NA,NA,NA,NA,NA,NA,NA,NA,NA,NA,NA,NA,NA,NA,NA,NA,NA,NA,NA,NA,NA,NA,NA,NA
"339","stim/objects/HouseObjects/match3.png",400,41,393,0.9,"stim/12.jpeg",1,2,3,2,"HouseObjects",2,2,"right","right",0.586999893,1,1,1,0,NA,NA,NA,NA,NA,NA,NA,NA,NA,NA,NA,NA,NA,NA,NA,NA,NA,NA,NA,NA,NA,NA,NA,NA
"337","stim/objects/HouseObjects/match3.png",401,41,394,0.9,"stim/11.jpeg",1,1,3,2,"HouseObjects",2,3,"right","right",0.722999811,1,1,1,0,NA,NA,NA,NA,NA,NA,NA,NA,NA,NA,NA,NA,NA,NA,NA,NA,NA,NA,NA,NA,NA,NA,NA,NA
"533","stim/objects/Instruments/oboe3.png",402,41,395,0.9,"stim/21.jpeg",2,1,3,2,"Instruments",1,4,"left","left",0.571999788,1,1,1,0,NA,NA,NA,NA,NA,NA,NA,NA,NA,NA,NA,NA,NA,NA,NA,NA,NA,NA,NA,NA,NA,NA,NA,NA
"384","stim/objects/HouseObjects/safetypin3.png",403,41,396,0.5,"stim/32.jpeg",3,2,1,1,"HouseObjects",2,3,"right","right",0.624999762,1,1,1,0,133,41,1,0.5,1,"stim/32.jpeg",3,2,"stim/32.jpeg",3,"left",6.926000118,1,3,0.666000128,2,0.802000046,133,1,0,0,0,0,0
"354","stim/objects/HouseObjects/pan3.png",404,41,397,0.9,"stim/12.jpeg",1,2,3,2,"HouseObjects",2,3,"right","right",0.687999725,1,1,1,0,NA,NA,NA,NA,NA,NA,NA,NA,NA,NA,NA,NA,NA,NA,NA,NA,NA,NA,NA,NA,NA,NA,NA,NA
"402","stim/objects/HouseObjects/vacuumcleaner3.png",405,41,398,0.7,"stim/51.jpeg",5,1,2,1,"HouseObjects",2,1,"right","right",0.613999844,1,1,1,0,13,41,1,0.7,2,"stim/51.jpeg",5,1,"stim/51.jpeg",1,"left",5.085999966,3,1,1.269999981,1,0.476999998,13,1,1,1,1,1,0
"501","stim/objects/Instruments/musicsheet3.png",406,41,399,0.9,"stim/23.jpeg",2,3,3,2,"Instruments",1,4,"left","left",0.476999998,1,1,1,0,NA,NA,NA,NA,NA,NA,NA,NA,NA,NA,NA,NA,NA,NA,NA,NA,NA,NA,NA,NA,NA,NA,NA,NA
"562","stim/objects/Instruments/trumpet4.png",407,41,400,0.9,"stim/22.jpeg",2,2,3,1,"Instruments",1,4,"left","left",0.512999773,1,1,1,0,191,41,1,0.9,1,"stim/22.jpeg",2,2,"stim/22.jpeg",4,"right",1.998000145,1,2,0.858999968,1,0.4150002,191,0,1,NA,0,NA,0
"545","stim/objects/Instruments/record_player3.png",408,41,401,0.5,"stim/32.jpeg",3,2,1,1,"Instruments",1,1,"left","right",0.63499999,0,0,1,0,77,41,1,0.5,1,"stim/32.jpeg",3,2,"stim/32.jpeg",1,"left",1.156000137,4,3,2.919000149,2,1.587000132,77,1,0,0,0,0,0
"493","stim/objects/Instruments/musicsheet3.png",409,41,402,0.9,"stim/22.jpeg",2,2,3,2,"Instruments",1,4,"left","left",0.588999748,1,1,1,0,NA,NA,NA,NA,NA,NA,NA,NA,NA,NA,NA,NA,NA,NA,NA,NA,NA,NA,NA,NA,NA,NA,NA,NA
"440","stim/objects/Instruments/doublebass3.png",410,41,403,0.7,"stim/63.jpeg",6,3,2,2,"Instruments",1,2,"left","right",0.518999815,0,0,1,0,NA,NA,NA,NA,NA,NA,NA,NA,NA,NA,NA,NA,NA,NA,NA,NA,NA,NA,NA,NA,NA,NA,NA,NA
"286","stim/objects/HouseObjects/ironingboard4.png",411,41,404,0.3,"stim/62.jpeg",6,2,2,1,"HouseObjects",2,1,"right","left",0.554999828,0,0,1,0,56,41,1,0.3,2,"stim/62.jpeg",6,2,"stim/62.jpeg",1,"right",1.287999868,3,1,0.833999872,1,0.503000021,56,0,0,NA,1,NA,0
"570","stim/objects/Instruments/xylophone4.png",412,41,405,0.9,"stim/22.jpeg",2,2,3,1,"Instruments",1,4,"left","right",0.769999981,0,0,1,0,190,41,1,0.9,1,"stim/22.jpeg",2,2,"stim/22.jpeg",4,"left",0.973999977,3,2,0.714999914,3,0.705000162,190,1,1,1,0,0,0
"494","stim/objects/Instruments/musicsheet3.png",413,41,406,0.9,"stim/24.jpeg",2,4,3,2,"Instruments",1,2,"left","",NA,0,0,1,0,NA,NA,NA,NA,NA,NA,NA,NA,NA,NA,NA,NA,NA,NA,NA,NA,NA,NA,NA,NA,NA,NA,NA,NA
"461","stim/objects/Instruments/marimba3.png",414,41,407,0.9,"stim/23.jpeg",2,3,3,2,"Instruments",1,3,"left","",NA,0,0,1,0,NA,NA,NA,NA,NA,NA,NA,NA,NA,NA,NA,NA,NA,NA,NA,NA,NA,NA,NA,NA,NA,NA,NA,NA
"256","stim/objects/HouseObjects/blender3.png",415,41,408,0.5,"stim/43.jpeg",4,3,1,2,"HouseObjects",2,2,"right","right",0.523999929,1,1,1,0,NA,NA,NA,NA,NA,NA,NA,NA,NA,NA,NA,NA,NA,NA,NA,NA,NA,NA,NA,NA,NA,NA,NA,NA
"310","stim/objects/HouseObjects/lintroller3.png",416,41,409,0.9,"stim/13.jpeg",1,3,3,2,"HouseObjects",2,3,"right","right",0.637999773,1,1,1,0,NA,NA,NA,NA,NA,NA,NA,NA,NA,NA,NA,NA,NA,NA,NA,NA,NA,NA,NA,NA,NA,NA,NA,NA
"546","stim/objects/Instruments/record_player4.png",417,41,410,0.1,"stim/11.jpeg",1,1,3,1,"Instruments",1,1,"left","right",0.707999945,0,0,1,0,90,41,1,0.1,1,"stim/11.jpeg",1,1,"stim/11.jpeg",1,"left",0.953000069,3,3,0.98300004,3,1.184000015,90,1,0,0,0,0,0
"548","stim/objects/Instruments/record4.png",418,41,411,0.1,"stim/14.jpeg",1,4,3,1,"Instruments",1,3,"left","right",0.73699975,0,0,1,0,193,41,1,0.1,1,"stim/14.jpeg",1,4,"stim/14.jpeg",3,"right",3.440999985,3,3,0.832999945,2,1.108999968,193,0,0,NA,0,NA,0
"287","stim/objects/HouseObjects/key3.png",419,41,412,0.7,"stim/51.jpeg",5,1,2,2,"HouseObjects",2,3,"right","left",0.696999788,0,0,1,0,NA,NA,NA,NA,NA,NA,NA,NA,NA,NA,NA,NA,NA,NA,NA,NA,NA,NA,NA,NA,NA,NA,NA,NA
"290","stim/objects/HouseObjects/key4.png",420,41,413,0.3,"stim/63.jpeg",6,3,2,1,"HouseObjects",2,1,"right","left",0.71999979,0,0,1,0,106,41,1,0.3,2,"stim/63.jpeg",6,3,"stim/63.jpeg",1,"right",1.230000019,1,3,0.642999887,3,0.747999907,106,0,1,NA,0,NA,0
"372","stim/objects/HouseObjects/pitcher3.png",421,41,414,0.9,"stim/12.jpeg",1,2,3,2,"HouseObjects",2,2,"right","right",0.573999882,1,1,1,0,NA,NA,NA,NA,NA,NA,NA,NA,NA,NA,NA,NA,NA,NA,NA,NA,NA,NA,NA,NA,NA,NA,NA,NA
"410","stim/objects/Instruments/acousticguitar3.png",422,41,415,0.5,"stim/32.jpeg",3,2,1,2,"Instruments",1,2,"left","right",0.686999798,0,0,1,0,NA,NA,NA,NA,NA,NA,NA,NA,NA,NA,NA,NA,NA,NA,NA,NA,NA,NA,NA,NA,NA,NA,NA,NA
"518","stim/objects/Instruments/musicstand3.png",423,41,416,0.9,"stim/22.jpeg",2,2,3,2,"Instruments",1,4,"left","left",0.747999907,1,1,1,0,NA,NA,NA,NA,NA,NA,NA,NA,NA,NA,NA,NA,NA,NA,NA,NA,NA,NA,NA,NA,NA,NA,NA,NA
"466","stim/objects/Instruments/marimba3.png",424,41,417,0.9,"stim/23.jpeg",2,3,3,2,"Instruments",1,4,"left","left",0.558999777,1,1,1,0,NA,NA,NA,NA,NA,NA,NA,NA,NA,NA,NA,NA,NA,NA,NA,NA,NA,NA,NA,NA,NA,NA,NA,NA
"327","stim/objects/HouseObjects/match3.png",425,41,418,0.9,"stim/13.jpeg",1,3,3,2,"HouseObjects",2,4,"right","",NA,0,0,1,0,NA,NA,NA,NA,NA,NA,NA,NA,NA,NA,NA,NA,NA,NA,NA,NA,NA,NA,NA,NA,NA,NA,NA,NA
"441","stim/objects/Instruments/doublebass3.png",426,41,419,0.7,"stim/62.jpeg",6,2,2,2,"Instruments",1,3,"left","left",0.711999893,1,1,1,0,NA,NA,NA,NA,NA,NA,NA,NA,NA,NA,NA,NA,NA,NA,NA,NA,NA,NA,NA,NA,NA,NA,NA,NA
"427","stim/objects/Instruments/chime3.png",427,41,420,0.5,"stim/42.jpeg",4,2,1,2,"Instruments",1,4,"left","right",0.51699996,0,0,1,0,NA,NA,NA,NA,NA,NA,NA,NA,NA,NA,NA,NA,NA,NA,NA,NA,NA,NA,NA,NA,NA,NA,NA,NA
"549","stim/objects/Instruments/saxophone3.png",428,41,421,0.5,"stim/33.jpeg",3,3,1,1,"Instruments",1,3,"left","left",0.680999994,1,1,1,0,6,41,1,0.5,1,"stim/33.jpeg",3,3,"stim/33.jpeg",3,"left",0.930999994,4,3,2.085000038,4,1.440000057,6,1,1,1,0,0,0
"308","stim/objects/HouseObjects/lintroller3.png",429,41,422,0.9,"stim/14.jpeg",1,4,3,2,"HouseObjects",2,2,"right","right",0.652999878,1,1,1,0,NA,NA,NA,NA,NA,NA,NA,NA,NA,NA,NA,NA,NA,NA,NA,NA,NA,NA,NA,NA,NA,NA,NA,NA
"279","stim/objects/HouseObjects/iron3.png",430,41,423,0.7,"stim/53.jpeg",5,3,2,2,"HouseObjects",2,3,"right","right",0.744999886,1,1,1,0,NA,NA,NA,NA,NA,NA,NA,NA,NA,NA,NA,NA,NA,NA,NA,NA,NA,NA,NA,NA,NA,NA,NA,NA
"242","stim/objects/HouseObjects/ashtray3.png",431,41,424,0.5,"stim/31.jpeg",3,1,1,2,"HouseObjects",2,4,"right","right",0.722999811,1,1,1,0,NA,NA,NA,NA,NA,NA,NA,NA,NA,NA,NA,NA,NA,NA,NA,NA,NA,NA,NA,NA,NA,NA,NA,NA
"253","stim/objects/HouseObjects/bleachbottle3.png",432,41,425,0.5,"stim/31.jpeg",3,1,1,2,"HouseObjects",2,4,"right","right",0.634999752,1,1,1,0,NA,NA,NA,NA,NA,NA,NA,NA,NA,NA,NA,NA,NA,NA,NA,NA,NA,NA,NA,NA,NA,NA,NA,NA
"369","stim/objects/HouseObjects/pitcher3.png",433,41,426,0.9,"stim/14.jpeg",1,4,3,2,"HouseObjects",2,2,"right","right",0.803999901,1,1,1,0,NA,NA,NA,NA,NA,NA,NA,NA,NA,NA,NA,NA,NA,NA,NA,NA,NA,NA,NA,NA,NA,NA,NA,NA
"303","stim/objects/HouseObjects/knife3.png",434,41,427,0.9,"stim/14.jpeg",1,4,3,2,"HouseObjects",2,4,"right","right",0.645999908,1,1,1,0,NA,NA,NA,NA,NA,NA,NA,NA,NA,NA,NA,NA,NA,NA,NA,NA,NA,NA,NA,NA,NA,NA,NA,NA
"244","stim/objects/HouseObjects/ballofstring3.png",435,41,428,0.5,"stim/31.jpeg",3,1,1,2,"HouseObjects",2,3,"right","right",0.634999752,1,1,1,0,NA,NA,NA,NA,NA,NA,NA,NA,NA,NA,NA,NA,NA,NA,NA,NA,NA,NA,NA,NA,NA,NA,NA,NA
"561","stim/objects/Instruments/trumpet3.png",436,41,429,0.3,"stim/51.jpeg",5,1,2,1,"Instruments",1,2,"left","right",0.730999947,0,0,1,0,185,41,1,0.3,1,"stim/51.jpeg",5,1,"stim/51.jpeg",2,"right",1.013000011,2,3,0.621000051,2,0.682999849,185,0,0,NA,1,NA,0
"468","stim/objects/Instruments/marimba3.png",437,41,430,0.9,"stim/24.jpeg",2,4,3,2,"Instruments",1,4,"left","left",0.650999784,1,1,1,0,NA,NA,NA,NA,NA,NA,NA,NA,NA,NA,NA,NA,NA,NA,NA,NA,NA,NA,NA,NA,NA,NA,NA,NA
"390","stim/objects/HouseObjects/sponge3.png",438,41,431,0.5,"stim/42.jpeg",4,2,1,1,"HouseObjects",2,2,"right","right",0.465999842,1,1,1,0,94,41,1,0.5,2,"stim/42.jpeg",4,2,"stim/42.jpeg",2,"right",1.049999952,2,1,0.621000051,1,0.187000036,94,0,0,NA,0,NA,0
"375","stim/objects/HouseObjects/pitcher4.png",439,41,432,0.9,"stim/13.jpeg",1,3,3,1,"HouseObjects",2,3,"right","right",0.797999859,1,1,1,0,40,41,1,0.9,2,"stim/13.jpeg",1,3,"stim/13.jpeg",3,"right",1.174999952,2,2,1.931999922,3,0.916000128,40,0,0,NA,1,NA,0
"536","stim/objects/Instruments/oboe3.png",440,41,433,0.9,"stim/22.jpeg",2,2,3,2,"Instruments",1,2,"left","left",0.482999802,1,1,1,0,NA,NA,NA,NA,NA,NA,NA,NA,NA,NA,NA,NA,NA,NA,NA,NA,NA,NA,NA,NA,NA,NA,NA,NA
"481","stim/objects/Instruments/metronome3.png",441,41,434,0.9,"stim/21.jpeg",2,1,3,2,"Instruments",1,3,"left","left",0.553999901,1,1,1,0,NA,NA,NA,NA,NA,NA,NA,NA,NA,NA,NA,NA,NA,NA,NA,NA,NA,NA,NA,NA,NA,NA,NA,NA
"547","stim/objects/Instruments/record3.png",442,41,435,0.5,"stim/31.jpeg",3,1,1,1,"Instruments",1,4,"left","right",0.475999832,0,0,1,0,82,41,1,0.5,1,"stim/31.jpeg",3,1,"stim/31.jpeg",4,"left",1.093999863,3,1,0.677000046,1,1.015999794,82,1,1,1,0,0,0
"373","stim/objects/HouseObjects/pitcher3.png",443,41,436,0.9,"stim/13.jpeg",1,3,3,2,"HouseObjects",2,3,"right","right",0.589999914,1,1,1,0,NA,NA,NA,NA,NA,NA,NA,NA,NA,NA,NA,NA,NA,NA,NA,NA,NA,NA,NA,NA,NA,NA,NA,NA
"467","stim/objects/Instruments/marimba3.png",444,41,437,0.9,"stim/22.jpeg",2,2,3,2,"Instruments",1,3,"left","right",0.781999826,0,0,1,0,NA,NA,NA,NA,NA,NA,NA,NA,NA,NA,NA,NA,NA,NA,NA,NA,NA,NA,NA,NA,NA,NA,NA,NA
"311","stim/objects/HouseObjects/lintroller3.png",445,41,438,0.9,"stim/14.jpeg",1,4,3,2,"HouseObjects",2,2,"right","right",0.663999796,1,1,1,0,NA,NA,NA,NA,NA,NA,NA,NA,NA,NA,NA,NA,NA,NA,NA,NA,NA,NA,NA,NA,NA,NA,NA,NA
"397","stim/objects/HouseObjects/thermometer4.png",446,41,439,0.1,"stim/24.jpeg",2,4,3,1,"HouseObjects",2,1,"right","left",0.597999811,0,0,1,0,131,41,1,0.1,2,"stim/24.jpeg",2,4,"stim/24.jpeg",1,"right",0.910000086,2,3,0.844000101,2,1.179000139,131,0,0,NA,0,NA,0
"330","stim/objects/HouseObjects/match3.png",447,41,440,0.9,"stim/13.jpeg",1,3,3,2,"HouseObjects",2,2,"right","right",0.564999819,1,1,1,0,NA,NA,NA,NA,NA,NA,NA,NA,NA,NA,NA,NA,NA,NA,NA,NA,NA,NA,NA,NA,NA,NA,NA,NA
"528","stim/objects/Instruments/oboe3.png",448,41,441,0.9,"stim/21.jpeg",2,1,3,2,"Instruments",1,2,"left","left",0.617999792,1,1,1,0,NA,NA,NA,NA,NA,NA,NA,NA,NA,NA,NA,NA,NA,NA,NA,NA,NA,NA,NA,NA,NA,NA,NA,NA
"392","stim/objects/HouseObjects/spraybottle3.png",449,41,442,0.5,"stim/43.jpeg",4,3,1,1,"HouseObjects",2,1,"right","right",0.691999912,1,1,1,0,97,41,1,0.5,2,"stim/43.jpeg",4,3,"stim/43.jpeg",1,"left",0.928000212,3,2,1.029999971,2,1.410000086,97,1,0,0,0,0,0
"367","stim/objects/HouseObjects/pitcher3.png",450,41,443,0.9,"stim/11.jpeg",1,1,3,2,"HouseObjects",2,2,"right","left",0.637999773,0,0,1,0,NA,NA,NA,NA,NA,NA,NA,NA,NA,NA,NA,NA,NA,NA,NA,NA,NA,NA,NA,NA,NA,NA,NA,NA
"428","stim/objects/Instruments/chime3.png",451,41,444,0.5,"stim/41.jpeg",4,1,1,2,"Instruments",1,2,"left","right",0.697000027,0,0,1,0,NA,NA,NA,NA,NA,NA,NA,NA,NA,NA,NA,NA,NA,NA,NA,NA,NA,NA,NA,NA,NA,NA,NA,NA
"289","stim/objects/HouseObjects/key3.png",452,41,445,0.7,"stim/53.jpeg",5,3,2,2,"HouseObjects",2,2,"right","right",0.578000069,1,1,1,0,NA,NA,NA,NA,NA,NA,NA,NA,NA,NA,NA,NA,NA,NA,NA,NA,NA,NA,NA,NA,NA,NA,NA,NA
"355","stim/objects/HouseObjects/pan3.png",453,41,446,0.9,"stim/14.jpeg",1,4,3,2,"HouseObjects",2,3,"right","right",0.733999968,1,1,1,0,NA,NA,NA,NA,NA,NA,NA,NA,NA,NA,NA,NA,NA,NA,NA,NA,NA,NA,NA,NA,NA,NA,NA,NA
"285","stim/objects/HouseObjects/ironingboard3.png",454,41,447,0.7,"stim/53.jpeg",5,3,2,2,"HouseObjects",2,2,"right","right",0.551999807,1,1,1,0,NA,NA,NA,NA,NA,NA,NA,NA,NA,NA,NA,NA,NA,NA,NA,NA,NA,NA,NA,NA,NA,NA,NA,NA
"483","stim/objects/Instruments/metronome3.png",455,41,448,0.9,"stim/23.jpeg",2,3,3,2,"Instruments",1,2,"left","left",0.083999872,1,1,1,0,NA,NA,NA,NA,NA,NA,NA,NA,NA,NA,NA,NA,NA,NA,NA,NA,NA,NA,NA,NA,NA,NA,NA,NA
"529","stim/objects/Instruments/oboe3.png",456,41,449,0.9,"stim/24.jpeg",2,4,3,2,"Instruments",1,1,"left","left",0.570999861,1,1,1,0,NA,NA,NA,NA,NA,NA,NA,NA,NA,NA,NA,NA,NA,NA,NA,NA,NA,NA,NA,NA,NA,NA,NA,NA
"449","stim/objects/Instruments/laud3.png",457,41,450,0.7,"stim/61.jpeg",6,1,2,2,"Instruments",1,3,"left","",NA,0,0,1,0,NA,NA,NA,NA,NA,NA,NA,NA,NA,NA,NA,NA,NA,NA,NA,NA,NA,NA,NA,NA,NA,NA,NA,NA
"520","stim/objects/Instruments/musicstand3.png",458,41,451,0.9,"stim/24.jpeg",2,4,3,2,"Instruments",1,2,"left","left",0.788999796,1,1,1,0,NA,NA,NA,NA,NA,NA,NA,NA,NA,NA,NA,NA,NA,NA,NA,NA,NA,NA,NA,NA,NA,NA,NA,NA
"278","stim/objects/HouseObjects/clothespin4.png",459,41,452,0.3,"stim/64.jpeg",6,4,2,1,"HouseObjects",2,1,"right","left",0.725999832,0,0,1,0,68,41,1,0.3,2,"stim/64.jpeg",6,4,"stim/64.jpeg",1,"left",4.555000067,2,3,0.988000154,2,2.400000095,68,1,0,0,0,0,0
"376","stim/objects/HouseObjects/recyclingbin3.png",460,41,453,0.5,"stim/32.jpeg",3,2,1,1,"HouseObjects",2,3,"right","left",0.808999777,0,0,1,0,67,41,1,0.5,1,"stim/32.jpeg",3,2,"stim/32.jpeg",3,"left",1.736999989,3,2,0.872999907,3,1.146999836,67,1,1,1,1,1,0
"346","stim/objects/HouseObjects/pan3.png",461,41,454,0.9,"stim/12.jpeg",1,2,3,2,"HouseObjects",2,1,"right","",NA,0,0,1,0,NA,NA,NA,NA,NA,NA,NA,NA,NA,NA,NA,NA,NA,NA,NA,NA,NA,NA,NA,NA,NA,NA,NA,NA
"358","stim/objects/HouseObjects/pan4.png",462,41,455,0.9,"stim/12.jpeg",1,2,3,1,"HouseObjects",2,4,"right","",NA,0,0,1,0,113,41,1,0.9,2,"stim/12.jpeg",1,2,"stim/12.jpeg",4,"right",1.076999903,2,3,0.690999985,4,0.805000067,113,0,0,NA,1,NA,0
"522","stim/objects/Instruments/musicstand3.png",463,41,456,0.9,"stim/23.jpeg",2,3,3,2,"Instruments",1,4,"left","left",0.576999903,1,1,1,0,NA,NA,NA,NA,NA,NA,NA,NA,NA,NA,NA,NA,NA,NA,NA,NA,NA,NA,NA,NA,NA,NA,NA,NA
"264","stim/objects/HouseObjects/broom4.png",464,41,457,0.3,"stim/64.jpeg",6,4,2,1,"HouseObjects",2,4,"right","left",0.662999868,0,0,1,0,158,41,1,0.3,2,"stim/64.jpeg",6,4,"stim/64.jpeg",4,"left",4.296000004,4,1,0.72300005,1,0.838000059,158,1,0,0,0,0,0
"499","stim/objects/Instruments/musicsheet3.png",465,41,458,0.9,"stim/21.jpeg",2,1,3,2,"Instruments",1,3,"left","left",0.603999853,1,1,1,0,NA,NA,NA,NA,NA,NA,NA,NA,NA,NA,NA,NA,NA,NA,NA,NA,NA,NA,NA,NA,NA,NA,NA,NA
"543","stim/objects/Instruments/pipepiano3.png",466,41,459,0.5,"stim/34.jpeg",3,4,1,1,"Instruments",1,2,"left","right",0.703000069,0,0,1,0,55,41,1,0.5,1,"stim/34.jpeg",3,4,"stim/34.jpeg",2,"left",3.700999975,1,2,1.924000025,1,0.809999943,55,1,0,0,0,0,0
"446","stim/objects/Instruments/keyboard3.png",467,41,460,0.7,"stim/64.jpeg",6,4,2,2,"Instruments",1,2,"left","left",0.464999914,1,1,1,0,NA,NA,NA,NA,NA,NA,NA,NA,NA,NA,NA,NA,NA,NA,NA,NA,NA,NA,NA,NA,NA,NA,NA,NA
"515","stim/objects/Instruments/musicstand3.png",468,41,461,0.9,"stim/23.jpeg",2,3,3,2,"Instruments",1,3,"left","left",0.527999878,1,1,1,0,NA,NA,NA,NA,NA,NA,NA,NA,NA,NA,NA,NA,NA,NA,NA,NA,NA,NA,NA,NA,NA,NA,NA,NA
