"","obj_file","X.x","participant.x","trialN.x","trial_cond","scn_file.x","scn_cat","scn_inst","scn_condition","fillers","obj_cat","obj_cat_num","quadrant","corr_ans","key_resp_trial.keys","key_resp_trial.rt","trial_acc","trial_acc_manual","group.x","practice","X.y","participant.y","OvsN","PE_level","object_cat","scn_file.y","corr_scn_cat","corr_scn_inst","scn_file.1","corr_loc","key_resp_id.keys","key_resp_id.rt","key_resp_conf.keys","key_resp_assoc.keys","key_resp_assoc.rt","key_resp_loc.keys","key_resp_loc.rt","trialN.y","id_acc","assoc.acc","cond_assoc","loc.acc","cond_loc","group.y"
"200","stim/objects/Instruments/oboe2.png",1,67,1,0.9,"stim/34.jpeg",3,4,3,NA,"Instruments",2,2,"right","",NA,0,0,0,1,NA,NA,NA,NA,NA,NA,NA,NA,NA,NA,NA,NA,NA,NA,NA,NA,NA,NA,NA,NA,NA,NA,NA,NA
"73","stim/objects/HouseObjects/recyclingbin.png",2,67,2,0.3,"stim/11.jpeg",1,1,2,NA,"HouseObjects",1,1,"left","left",0.746999979,1,1,0,1,NA,NA,NA,NA,NA,NA,NA,NA,NA,NA,NA,NA,NA,NA,NA,NA,NA,NA,NA,NA,NA,NA,NA,NA
"37","stim/objects/HouseObjects/knife.png",3,67,3,0.5,"stim/54.jpeg",5,4,1,NA,"HouseObjects",1,3,"left","left",0.745000124,1,1,0,1,NA,NA,NA,NA,NA,NA,NA,NA,NA,NA,NA,NA,NA,NA,NA,NA,NA,NA,NA,NA,NA,NA,NA,NA
"225","stim/objects/Instruments/record_player.png",4,67,4,0.7,"stim/14.jpeg",1,4,2,NA,"Instruments",2,1,"right","right",0.605000019,1,1,0,1,NA,NA,NA,NA,NA,NA,NA,NA,NA,NA,NA,NA,NA,NA,NA,NA,NA,NA,NA,NA,NA,NA,NA,NA
"49","stim/objects/HouseObjects/lintroller.png",5,67,5,0.5,"stim/61.jpeg",6,1,1,NA,"HouseObjects",1,1,"left","left",0.705999851,1,1,0,1,NA,NA,NA,NA,NA,NA,NA,NA,NA,NA,NA,NA,NA,NA,NA,NA,NA,NA,NA,NA,NA,NA,NA,NA
"67","stim/objects/HouseObjects/pitcher.png",6,67,6,0.5,"stim/64.jpeg",6,4,1,NA,"HouseObjects",1,4,"left","right",0.568000078,0,0,0,1,NA,NA,NA,NA,NA,NA,NA,NA,NA,NA,NA,NA,NA,NA,NA,NA,NA,NA,NA,NA,NA,NA,NA,NA
"88","stim/objects/HouseObjects/remote2.png",7,67,7,0.9,"stim/42.jpeg",4,2,3,NA,"HouseObjects",1,1,"left","left",0.664000034,1,1,0,1,NA,NA,NA,NA,NA,NA,NA,NA,NA,NA,NA,NA,NA,NA,NA,NA,NA,NA,NA,NA,NA,NA,NA,NA
"186","stim/objects/Instruments/musicstand2.png",8,67,8,0.9,"stim/33.jpeg",3,3,3,NA,"Instruments",2,1,"right","right",0.55099988,1,1,0,1,NA,NA,NA,NA,NA,NA,NA,NA,NA,NA,NA,NA,NA,NA,NA,NA,NA,NA,NA,NA,NA,NA,NA,NA
"142","stim/objects/Instruments/maraca2.png",9,67,9,0.3,"stim/23.jpeg",2,3,2,NA,"Instruments",2,2,"right","left",0.608999968,0,0,0,1,NA,NA,NA,NA,NA,NA,NA,NA,NA,NA,NA,NA,NA,NA,NA,NA,NA,NA,NA,NA,NA,NA,NA,NA
"201","stim/objects/Instruments/oboe2.png",10,67,10,0.9,"stim/34.jpeg",3,4,3,NA,"Instruments",2,3,"right","right",0.601000071,1,1,0,1,NA,NA,NA,NA,NA,NA,NA,NA,NA,NA,NA,NA,NA,NA,NA,NA,NA,NA,NA,NA,NA,NA,NA,NA
"100","stim/objects/HouseObjects/rubbergloves2.png",11,67,11,0.9,"stim/43.jpeg",4,3,3,NA,"HouseObjects",1,3,"left","left",0.483999968,1,1,0,1,NA,NA,NA,NA,NA,NA,NA,NA,NA,NA,NA,NA,NA,NA,NA,NA,NA,NA,NA,NA,NA,NA,NA,NA
"112","stim/objects/HouseObjects/rug2.png",12,67,12,0.9,"stim/44.jpeg",4,4,3,NA,"HouseObjects",1,4,"left","left",0.592000008,1,1,0,1,NA,NA,NA,NA,NA,NA,NA,NA,NA,NA,NA,NA,NA,NA,NA,NA,NA,NA,NA,NA,NA,NA,NA,NA
"158","stim/objects/Instruments/metronome2.png",13,67,13,0.9,"stim/31.jpeg",3,1,3,NA,"Instruments",2,1,"right","right",0.496999979,1,1,0,1,NA,NA,NA,NA,NA,NA,NA,NA,NA,NA,NA,NA,NA,NA,NA,NA,NA,NA,NA,NA,NA,NA,NA,NA
"217","stim/objects/Instruments/pipepiano.png",14,67,14,0.7,"stim/12.jpeg",1,2,2,NA,"Instruments",2,3,"right","",NA,0,0,0,1,NA,NA,NA,NA,NA,NA,NA,NA,NA,NA,NA,NA,NA,NA,NA,NA,NA,NA,NA,NA,NA,NA,NA,NA
"42","stim/objects/HouseObjects/knife2.png",15,67,15,0.7,"stim/24.jpeg",2,4,2,NA,"HouseObjects",1,3,"left","left",0.529999971,1,1,0,1,NA,NA,NA,NA,NA,NA,NA,NA,NA,NA,NA,NA,NA,NA,NA,NA,NA,NA,NA,NA,NA,NA,NA,NA
"13","stim/objects/HouseObjects/ironingboard.png",16,67,16,0.5,"stim/52.jpeg",5,2,1,NA,"HouseObjects",1,2,"left","left",0.481999874,1,1,0,1,NA,NA,NA,NA,NA,NA,NA,NA,NA,NA,NA,NA,NA,NA,NA,NA,NA,NA,NA,NA,NA,NA,NA,NA
"50","stim/objects/HouseObjects/lintroller.png",17,67,17,0.5,"stim/61.jpeg",6,1,1,NA,"HouseObjects",1,2,"left","right",0.562000036,0,0,0,1,NA,NA,NA,NA,NA,NA,NA,NA,NA,NA,NA,NA,NA,NA,NA,NA,NA,NA,NA,NA,NA,NA,NA,NA
"6","stim/objects/HouseObjects/iron2.png",18,67,18,0.7,"stim/21.jpeg",2,1,2,NA,"HouseObjects",1,2,"left","left",0.553999901,1,1,0,1,NA,NA,NA,NA,NA,NA,NA,NA,NA,NA,NA,NA,NA,NA,NA,NA,NA,NA,NA,NA,NA,NA,NA,NA
"187","stim/objects/Instruments/musicstand2.png",19,67,19,0.9,"stim/33.jpeg",3,3,3,NA,"Instruments",2,3,"right","right",0.417999983,1,1,0,1,NA,NA,NA,NA,NA,NA,NA,NA,NA,NA,NA,NA,NA,NA,NA,NA,NA,NA,NA,NA,NA,NA,NA,NA
"7","stim/objects/HouseObjects/iron2.png",20,67,20,0.7,"stim/21.jpeg",2,1,2,NA,"HouseObjects",1,1,"left","left",0.552999973,1,1,0,1,NA,NA,NA,NA,NA,NA,NA,NA,NA,NA,NA,NA,NA,NA,NA,NA,NA,NA,NA,NA,NA,NA,NA,NA
"72","stim/objects/HouseObjects/pitcher2.png",21,67,21,0.1,"stim/34.jpeg",3,4,3,NA,"HouseObjects",1,3,"left","right",0.470000029,0,0,0,1,NA,NA,NA,NA,NA,NA,NA,NA,NA,NA,NA,NA,NA,NA,NA,NA,NA,NA,NA,NA,NA,NA,NA,NA
"195","stim/objects/Instruments/oboe.png",22,67,22,0.5,"stim/64.jpeg",6,4,1,NA,"Instruments",2,3,"right","left",0.669999838,0,0,0,1,NA,NA,NA,NA,NA,NA,NA,NA,NA,NA,NA,NA,NA,NA,NA,NA,NA,NA,NA,NA,NA,NA,NA,NA
"30","stim/objects/HouseObjects/key2.png",23,67,23,0.7,"stim/23.jpeg",2,3,2,NA,"HouseObjects",1,2,"left","left",0.511999846,1,1,0,1,NA,NA,NA,NA,NA,NA,NA,NA,NA,NA,NA,NA,NA,NA,NA,NA,NA,NA,NA,NA,NA,NA,NA,NA
"224","stim/objects/Instruments/pipepiano2.png",24,67,24,0.1,"stim/42.jpeg",4,2,3,NA,"Instruments",2,3,"right","left",0.546999931,0,0,0,1,NA,NA,NA,NA,NA,NA,NA,NA,NA,NA,NA,NA,NA,NA,NA,NA,NA,NA,NA,NA,NA,NA,NA,NA
"31","stim/objects/HouseObjects/key2.png",25,67,25,0.7,"stim/23.jpeg",2,3,2,NA,"HouseObjects",1,3,"left","left",0.55099988,1,1,0,1,NA,NA,NA,NA,NA,NA,NA,NA,NA,NA,NA,NA,NA,NA,NA,NA,NA,NA,NA,NA,NA,NA,NA,NA
"226","stim/objects/Instruments/record_player.png",26,67,26,0.7,"stim/14.jpeg",1,4,2,NA,"Instruments",2,4,"right","right",0.575999975,1,1,0,1,NA,NA,NA,NA,NA,NA,NA,NA,NA,NA,NA,NA,NA,NA,NA,NA,NA,NA,NA,NA,NA,NA,NA,NA
"76","stim/objects/HouseObjects/recyclingbin2.png",27,67,27,0.9,"stim/41.jpeg",4,1,3,NA,"HouseObjects",1,3,"left","left",0.521000147,1,1,0,1,NA,NA,NA,NA,NA,NA,NA,NA,NA,NA,NA,NA,NA,NA,NA,NA,NA,NA,NA,NA,NA,NA,NA,NA
"227","stim/objects/Instruments/record_player.png",28,67,28,0.7,"stim/14.jpeg",1,4,2,NA,"Instruments",2,3,"right","right",0.710000038,1,1,0,1,NA,NA,NA,NA,NA,NA,NA,NA,NA,NA,NA,NA,NA,NA,NA,NA,NA,NA,NA,NA,NA,NA,NA,NA
"61","stim/objects/HouseObjects/pan.png",29,67,29,0.5,"stim/63.jpeg",6,3,1,NA,"HouseObjects",1,4,"left","left",0.703999996,1,1,0,1,NA,NA,NA,NA,NA,NA,NA,NA,NA,NA,NA,NA,NA,NA,NA,NA,NA,NA,NA,NA,NA,NA,NA,NA
"32","stim/objects/HouseObjects/key2.png",30,67,30,0.7,"stim/23.jpeg",2,3,2,NA,"HouseObjects",1,4,"left","left",0.64199996,1,1,0,1,NA,NA,NA,NA,NA,NA,NA,NA,NA,NA,NA,NA,NA,NA,NA,NA,NA,NA,NA,NA,NA,NA,NA,NA
"233","stim/objects/Instruments/record.png",31,67,31,0.7,"stim/13.jpeg",1,3,2,NA,"Instruments",2,1,"right","right",0.731999874,1,1,0,1,NA,NA,NA,NA,NA,NA,NA,NA,NA,NA,NA,NA,NA,NA,NA,NA,NA,NA,NA,NA,NA,NA,NA,NA
"68","stim/objects/HouseObjects/pitcher.png",32,67,32,0.5,"stim/64.jpeg",6,4,1,NA,"HouseObjects",1,3,"left","left",0.720000029,1,1,0,1,NA,NA,NA,NA,NA,NA,NA,NA,NA,NA,NA,NA,NA,NA,NA,NA,NA,NA,NA,NA,NA,NA,NA,NA
"55","stim/objects/HouseObjects/match.png",33,67,33,0.5,"stim/62.jpeg",6,2,1,NA,"HouseObjects",1,3,"left","",NA,0,0,0,1,NA,NA,NA,NA,NA,NA,NA,NA,NA,NA,NA,NA,NA,NA,NA,NA,NA,NA,NA,NA,NA,NA,NA,NA
"159","stim/objects/Instruments/metronome2.png",34,67,34,0.9,"stim/31.jpeg",3,1,3,NA,"Instruments",2,3,"right","right",0.462000132,1,1,0,1,NA,NA,NA,NA,NA,NA,NA,NA,NA,NA,NA,NA,NA,NA,NA,NA,NA,NA,NA,NA,NA,NA,NA,NA
"56","stim/objects/HouseObjects/match.png",35,67,35,0.5,"stim/62.jpeg",6,2,1,NA,"HouseObjects",1,1,"left","left",0.697999954,1,1,0,1,NA,NA,NA,NA,NA,NA,NA,NA,NA,NA,NA,NA,NA,NA,NA,NA,NA,NA,NA,NA,NA,NA,NA,NA
"43","stim/objects/HouseObjects/knife2.png",36,67,36,0.7,"stim/24.jpeg",2,4,2,NA,"HouseObjects",1,4,"left","left",0.542000055,1,1,0,1,NA,NA,NA,NA,NA,NA,NA,NA,NA,NA,NA,NA,NA,NA,NA,NA,NA,NA,NA,NA,NA,NA,NA,NA
"218","stim/objects/Instruments/pipepiano.png",37,67,37,0.7,"stim/12.jpeg",1,2,2,NA,"Instruments",2,1,"right","right",0.539999962,1,1,0,1,NA,NA,NA,NA,NA,NA,NA,NA,NA,NA,NA,NA,NA,NA,NA,NA,NA,NA,NA,NA,NA,NA,NA,NA
"126","stim/objects/Instruments/keyboard2.png",38,67,38,0.3,"stim/21.jpeg",2,1,2,NA,"Instruments",2,2,"right","left",0.575999975,0,0,0,1,NA,NA,NA,NA,NA,NA,NA,NA,NA,NA,NA,NA,NA,NA,NA,NA,NA,NA,NA,NA,NA,NA,NA,NA
"172","stim/objects/Instruments/musicsheet2.png",39,67,39,0.9,"stim/32.jpeg",3,2,3,NA,"Instruments",2,4,"right","right",0.401000023,1,1,0,1,NA,NA,NA,NA,NA,NA,NA,NA,NA,NA,NA,NA,NA,NA,NA,NA,NA,NA,NA,NA,NA,NA,NA,NA
"127","stim/objects/Instruments/keyboard2.png",40,67,40,0.3,"stim/21.jpeg",2,1,2,NA,"Instruments",2,4,"right","left",0.583999872,0,0,0,1,NA,NA,NA,NA,NA,NA,NA,NA,NA,NA,NA,NA,NA,NA,NA,NA,NA,NA,NA,NA,NA,NA,NA,NA
"160","stim/objects/Instruments/metronome2.png",41,67,41,0.9,"stim/31.jpeg",3,1,3,NA,"Instruments",2,2,"right","right",0.489000082,1,1,0,1,NA,NA,NA,NA,NA,NA,NA,NA,NA,NA,NA,NA,NA,NA,NA,NA,NA,NA,NA,NA,NA,NA,NA,NA
"113","stim/objects/HouseObjects/rug2.png",42,67,42,0.9,"stim/44.jpeg",4,4,3,NA,"HouseObjects",1,2,"left","left",0.44299984,1,1,0,1,NA,NA,NA,NA,NA,NA,NA,NA,NA,NA,NA,NA,NA,NA,NA,NA,NA,NA,NA,NA,NA,NA,NA,NA
"202","stim/objects/Instruments/oboe2.png",43,67,43,0.9,"stim/34.jpeg",3,4,3,NA,"Instruments",2,1,"right","right",0.518000126,1,1,0,1,NA,NA,NA,NA,NA,NA,NA,NA,NA,NA,NA,NA,NA,NA,NA,NA,NA,NA,NA,NA,NA,NA,NA,NA
"57","stim/objects/HouseObjects/match.png",44,67,44,0.5,"stim/62.jpeg",6,2,1,NA,"HouseObjects",1,3,"left","left",0.578999996,1,1,0,1,NA,NA,NA,NA,NA,NA,NA,NA,NA,NA,NA,NA,NA,NA,NA,NA,NA,NA,NA,NA,NA,NA,NA,NA
"143","stim/objects/Instruments/maraca2.png",45,67,45,0.3,"stim/23.jpeg",2,3,2,NA,"Instruments",2,1,"right","left",0.428999901,0,0,0,1,NA,NA,NA,NA,NA,NA,NA,NA,NA,NA,NA,NA,NA,NA,NA,NA,NA,NA,NA,NA,NA,NA,NA,NA
"188","stim/objects/Instruments/musicstand2.png",46,67,46,0.9,"stim/33.jpeg",3,3,3,NA,"Instruments",2,2,"right","right",0.434999943,1,1,0,1,NA,NA,NA,NA,NA,NA,NA,NA,NA,NA,NA,NA,NA,NA,NA,NA,NA,NA,NA,NA,NA,NA,NA,NA
"137","stim/objects/Instruments/maraca.png",47,67,47,0.5,"stim/53.jpeg",5,3,1,NA,"Instruments",2,2,"right","left",0.528000116,0,0,0,1,NA,NA,NA,NA,NA,NA,NA,NA,NA,NA,NA,NA,NA,NA,NA,NA,NA,NA,NA,NA,NA,NA,NA,NA
"44","stim/objects/HouseObjects/knife2.png",48,67,48,0.7,"stim/24.jpeg",2,4,2,NA,"HouseObjects",1,2,"left","left",0.444999933,1,1,0,1,NA,NA,NA,NA,NA,NA,NA,NA,NA,NA,NA,NA,NA,NA,NA,NA,NA,NA,NA,NA,NA,NA,NA,NA
"181","stim/objects/Instruments/musicstand.png",49,67,49,0.5,"stim/63.jpeg",6,3,1,NA,"Instruments",2,1,"right","right",0.494999886,1,1,0,1,NA,NA,NA,NA,NA,NA,NA,NA,NA,NA,NA,NA,NA,NA,NA,NA,NA,NA,NA,NA,NA,NA,NA,NA
"134","stim/objects/Instruments/laud2.png",50,67,50,0.3,"stim/22.jpeg",2,2,2,NA,"Instruments",2,3,"right","left",0.440999985,0,0,0,1,NA,NA,NA,NA,NA,NA,NA,NA,NA,NA,NA,NA,NA,NA,NA,NA,NA,NA,NA,NA,NA,NA,NA,NA
"145","stim/objects/Instruments/marimba.png",51,67,51,0.5,"stim/54.jpeg",5,4,1,NA,"Instruments",2,2,"right","right",0.727999926,1,1,0,1,NA,NA,NA,NA,NA,NA,NA,NA,NA,NA,NA,NA,NA,NA,NA,NA,NA,NA,NA,NA,NA,NA,NA,NA
"69","stim/objects/HouseObjects/pitcher.png",52,67,52,0.5,"stim/64.jpeg",6,4,1,NA,"HouseObjects",1,1,"left","right",0.662000179,0,0,0,1,NA,NA,NA,NA,NA,NA,NA,NA,NA,NA,NA,NA,NA,NA,NA,NA,NA,NA,NA,NA,NA,NA,NA,NA
"18","stim/objects/HouseObjects/ironingboard2.png",53,67,53,0.7,"stim/22.jpeg",2,2,2,NA,"HouseObjects",1,4,"left","left",0.583999872,1,1,0,1,NA,NA,NA,NA,NA,NA,NA,NA,NA,NA,NA,NA,NA,NA,NA,NA,NA,NA,NA,NA,NA,NA,NA,NA
"1","stim/objects/HouseObjects/iron.png",54,67,54,0.5,"stim/51.jpeg",5,1,1,NA,"HouseObjects",1,3,"left","left",0.752000093,1,1,0,1,NA,NA,NA,NA,NA,NA,NA,NA,NA,NA,NA,NA,NA,NA,NA,NA,NA,NA,NA,NA,NA,NA,NA,NA
"109","stim/objects/HouseObjects/rug.png",55,67,55,0.3,"stim/14.jpeg",1,4,2,NA,"HouseObjects",1,4,"left","right",0.476999998,0,0,0,1,NA,NA,NA,NA,NA,NA,NA,NA,NA,NA,NA,NA,NA,NA,NA,NA,NA,NA,NA,NA,NA,NA,NA,NA
"38","stim/objects/HouseObjects/knife.png",56,67,56,0.5,"stim/54.jpeg",5,4,1,NA,"HouseObjects",1,1,"left","left",0.519000053,1,1,0,1,NA,NA,NA,NA,NA,NA,NA,NA,NA,NA,NA,NA,NA,NA,NA,NA,NA,NA,NA,NA,NA,NA,NA,NA
"77","stim/objects/HouseObjects/recyclingbin2.png",57,67,57,0.9,"stim/41.jpeg",4,1,3,NA,"HouseObjects",1,1,"left","left",0.547999859,1,1,0,1,NA,NA,NA,NA,NA,NA,NA,NA,NA,NA,NA,NA,NA,NA,NA,NA,NA,NA,NA,NA,NA,NA,NA,NA
"135","stim/objects/Instruments/laud2.png",58,67,58,0.3,"stim/22.jpeg",2,2,2,NA,"Instruments",2,4,"right","left",0.572000027,0,0,0,1,NA,NA,NA,NA,NA,NA,NA,NA,NA,NA,NA,NA,NA,NA,NA,NA,NA,NA,NA,NA,NA,NA,NA,NA
"153","stim/objects/Instruments/metronome.png",59,67,59,0.5,"stim/61.jpeg",6,1,1,NA,"Instruments",2,2,"right","left",0.619999886,0,0,0,1,NA,NA,NA,NA,NA,NA,NA,NA,NA,NA,NA,NA,NA,NA,NA,NA,NA,NA,NA,NA,NA,NA,NA,NA
"173","stim/objects/Instruments/musicsheet2.png",60,67,60,0.9,"stim/32.jpeg",3,2,3,NA,"Instruments",2,4,"right","right",0.515000105,1,1,0,1,NA,NA,NA,NA,NA,NA,NA,NA,NA,NA,NA,NA,NA,NA,NA,NA,NA,NA,NA,NA,NA,NA,NA,NA
"154","stim/objects/Instruments/metronome.png",61,67,61,0.5,"stim/61.jpeg",6,1,1,NA,"Instruments",2,2,"right","right",0.68900013,1,1,0,1,NA,NA,NA,NA,NA,NA,NA,NA,NA,NA,NA,NA,NA,NA,NA,NA,NA,NA,NA,NA,NA,NA,NA,NA
"161","stim/objects/Instruments/metronome2.png",62,67,62,0.9,"stim/31.jpeg",3,1,3,NA,"Instruments",2,1,"right","right",0.493999958,1,1,0,1,NA,NA,NA,NA,NA,NA,NA,NA,NA,NA,NA,NA,NA,NA,NA,NA,NA,NA,NA,NA,NA,NA,NA,NA
"174","stim/objects/Instruments/musicsheet2.png",63,67,63,0.9,"stim/32.jpeg",3,2,3,NA,"Instruments",2,1,"right","right",0.633999825,1,1,0,1,NA,NA,NA,NA,NA,NA,NA,NA,NA,NA,NA,NA,NA,NA,NA,NA,NA,NA,NA,NA,NA,NA,NA,NA
"89","stim/objects/HouseObjects/remote2.png",64,67,64,0.9,"stim/42.jpeg",4,2,3,NA,"HouseObjects",1,3,"left","left",0.686000109,1,1,0,1,NA,NA,NA,NA,NA,NA,NA,NA,NA,NA,NA,NA,NA,NA,NA,NA,NA,NA,NA,NA,NA,NA,NA,NA
"19","stim/objects/HouseObjects/ironingboard2.png",65,67,65,0.7,"stim/22.jpeg",2,2,2,NA,"HouseObjects",1,3,"left","left",0.565000057,1,1,0,1,NA,NA,NA,NA,NA,NA,NA,NA,NA,NA,NA,NA,NA,NA,NA,NA,NA,NA,NA,NA,NA,NA,NA,NA
"78","stim/objects/HouseObjects/recyclingbin2.png",66,67,66,0.9,"stim/41.jpeg",4,1,3,NA,"HouseObjects",1,3,"left","left",0.504000187,1,1,0,1,NA,NA,NA,NA,NA,NA,NA,NA,NA,NA,NA,NA,NA,NA,NA,NA,NA,NA,NA,NA,NA,NA,NA,NA
"79","stim/objects/HouseObjects/recyclingbin2.png",67,67,67,0.9,"stim/41.jpeg",4,1,3,NA,"HouseObjects",1,2,"left","left",0.484000206,1,1,0,1,NA,NA,NA,NA,NA,NA,NA,NA,NA,NA,NA,NA,NA,NA,NA,NA,NA,NA,NA,NA,NA,NA,NA,NA
"155","stim/objects/Instruments/metronome.png",68,67,68,0.5,"stim/61.jpeg",6,1,1,NA,"Instruments",2,3,"right","right",0.780999899,1,1,0,1,NA,NA,NA,NA,NA,NA,NA,NA,NA,NA,NA,NA,NA,NA,NA,NA,NA,NA,NA,NA,NA,NA,NA,NA
"150","stim/objects/Instruments/marimba2.png",69,67,69,0.3,"stim/24.jpeg",2,4,2,NA,"Instruments",2,2,"right","left",0.48300004,0,0,0,1,NA,NA,NA,NA,NA,NA,NA,NA,NA,NA,NA,NA,NA,NA,NA,NA,NA,NA,NA,NA,NA,NA,NA,NA
"232","stim/objects/Instruments/record_player2.png",70,67,70,0.1,"stim/44.jpeg",4,4,3,NA,"Instruments",2,3,"right","left",0.426999807,0,0,0,1,NA,NA,NA,NA,NA,NA,NA,NA,NA,NA,NA,NA,NA,NA,NA,NA,NA,NA,NA,NA,NA,NA,NA,NA
"101","stim/objects/HouseObjects/rubbergloves2.png",71,67,71,0.9,"stim/43.jpeg",4,3,3,NA,"HouseObjects",1,4,"left","left",0.565000057,1,1,0,1,NA,NA,NA,NA,NA,NA,NA,NA,NA,NA,NA,NA,NA,NA,NA,NA,NA,NA,NA,NA,NA,NA,NA,NA
"146","stim/objects/Instruments/marimba.png",72,67,72,0.5,"stim/54.jpeg",5,4,1,NA,"Instruments",2,3,"right","",NA,0,0,0,1,NA,NA,NA,NA,NA,NA,NA,NA,NA,NA,NA,NA,NA,NA,NA,NA,NA,NA,NA,NA,NA,NA,NA,NA
"189","stim/objects/Instruments/musicstand2.png",73,67,73,0.9,"stim/33.jpeg",3,3,3,NA,"Instruments",2,1,"right","right",0.443000078,1,1,0,1,NA,NA,NA,NA,NA,NA,NA,NA,NA,NA,NA,NA,NA,NA,NA,NA,NA,NA,NA,NA,NA,NA,NA,NA
"209","stim/objects/Instruments/panflute.png",74,67,74,0.7,"stim/11.jpeg",1,1,2,NA,"Instruments",2,2,"right","right",0.513000011,1,1,0,1,NA,NA,NA,NA,NA,NA,NA,NA,NA,NA,NA,NA,NA,NA,NA,NA,NA,NA,NA,NA,NA,NA,NA,NA
"90","stim/objects/HouseObjects/remote2.png",75,67,75,0.9,"stim/42.jpeg",4,2,3,NA,"HouseObjects",1,3,"left","left",0.4599998,1,1,0,1,NA,NA,NA,NA,NA,NA,NA,NA,NA,NA,NA,NA,NA,NA,NA,NA,NA,NA,NA,NA,NA,NA,NA,NA
"203","stim/objects/Instruments/oboe2.png",76,67,76,0.9,"stim/34.jpeg",3,4,3,NA,"Instruments",2,2,"right","right",0.43599987,1,1,0,1,NA,NA,NA,NA,NA,NA,NA,NA,NA,NA,NA,NA,NA,NA,NA,NA,NA,NA,NA,NA,NA,NA,NA,NA
"58","stim/objects/HouseObjects/match.png",77,67,77,0.5,"stim/62.jpeg",6,2,1,NA,"HouseObjects",1,4,"left","left",0.650000095,1,1,0,1,NA,NA,NA,NA,NA,NA,NA,NA,NA,NA,NA,NA,NA,NA,NA,NA,NA,NA,NA,NA,NA,NA,NA,NA
"80","stim/objects/HouseObjects/recyclingbin2.png",78,67,78,0.9,"stim/41.jpeg",4,1,3,NA,"HouseObjects",1,3,"left","left",0.424000025,1,1,0,1,NA,NA,NA,NA,NA,NA,NA,NA,NA,NA,NA,NA,NA,NA,NA,NA,NA,NA,NA,NA,NA,NA,NA,NA
"190","stim/objects/Instruments/musicstand2.png",79,67,79,0.9,"stim/33.jpeg",3,3,3,NA,"Instruments",2,2,"right","right",0.468000174,1,1,0,1,NA,NA,NA,NA,NA,NA,NA,NA,NA,NA,NA,NA,NA,NA,NA,NA,NA,NA,NA,NA,NA,NA,NA,NA
"102","stim/objects/HouseObjects/rubbergloves2.png",80,67,80,0.9,"stim/43.jpeg",4,3,3,NA,"HouseObjects",1,1,"left","left",0.468000174,1,1,0,1,NA,NA,NA,NA,NA,NA,NA,NA,NA,NA,NA,NA,NA,NA,NA,NA,NA,NA,NA,NA,NA,NA,NA,NA
"196","stim/objects/Instruments/oboe.png",81,67,81,0.5,"stim/64.jpeg",6,4,1,NA,"Instruments",2,2,"right","right",0.68900013,1,1,0,1,NA,NA,NA,NA,NA,NA,NA,NA,NA,NA,NA,NA,NA,NA,NA,NA,NA,NA,NA,NA,NA,NA,NA,NA
"151","stim/objects/Instruments/marimba2.png",82,67,82,0.3,"stim/24.jpeg",2,4,2,NA,"Instruments",2,2,"right","left",0.440000057,0,0,0,1,NA,NA,NA,NA,NA,NA,NA,NA,NA,NA,NA,NA,NA,NA,NA,NA,NA,NA,NA,NA,NA,NA,NA,NA
"114","stim/objects/HouseObjects/rug2.png",83,67,83,0.9,"stim/44.jpeg",4,4,3,NA,"HouseObjects",1,1,"left","left",0.49000001,1,1,0,1,NA,NA,NA,NA,NA,NA,NA,NA,NA,NA,NA,NA,NA,NA,NA,NA,NA,NA,NA,NA,NA,NA,NA,NA
"228","stim/objects/Instruments/record_player.png",84,67,84,0.7,"stim/14.jpeg",1,4,2,NA,"Instruments",2,3,"right","right",0.59100008,1,1,0,1,NA,NA,NA,NA,NA,NA,NA,NA,NA,NA,NA,NA,NA,NA,NA,NA,NA,NA,NA,NA,NA,NA,NA,NA
"121","stim/objects/Instruments/keyboard.png",85,67,85,0.5,"stim/51.jpeg",5,1,1,NA,"Instruments",2,4,"right","left",0.509000063,0,0,0,1,NA,NA,NA,NA,NA,NA,NA,NA,NA,NA,NA,NA,NA,NA,NA,NA,NA,NA,NA,NA,NA,NA,NA,NA
"110","stim/objects/HouseObjects/rug.png",86,67,86,0.3,"stim/14.jpeg",1,4,2,NA,"HouseObjects",1,3,"left","right",0.496999979,0,0,0,1,NA,NA,NA,NA,NA,NA,NA,NA,NA,NA,NA,NA,NA,NA,NA,NA,NA,NA,NA,NA,NA,NA,NA,NA
"234","stim/objects/Instruments/record.png",87,67,87,0.7,"stim/13.jpeg",1,3,2,NA,"Instruments",2,2,"right","left",0.727999926,0,0,0,1,NA,NA,NA,NA,NA,NA,NA,NA,NA,NA,NA,NA,NA,NA,NA,NA,NA,NA,NA,NA,NA,NA,NA,NA
"45","stim/objects/HouseObjects/knife2.png",88,67,88,0.7,"stim/24.jpeg",2,4,2,NA,"HouseObjects",1,4,"left","left",0.499000072,1,1,0,1,NA,NA,NA,NA,NA,NA,NA,NA,NA,NA,NA,NA,NA,NA,NA,NA,NA,NA,NA,NA,NA,NA,NA,NA
"103","stim/objects/HouseObjects/rubbergloves2.png",89,67,89,0.9,"stim/43.jpeg",4,3,3,NA,"HouseObjects",1,2,"left","left",0.592999935,1,1,0,1,NA,NA,NA,NA,NA,NA,NA,NA,NA,NA,NA,NA,NA,NA,NA,NA,NA,NA,NA,NA,NA,NA,NA,NA
"104","stim/objects/HouseObjects/rubbergloves2.png",90,67,90,0.9,"stim/43.jpeg",4,3,3,NA,"HouseObjects",1,3,"left","left",0.461999893,1,1,0,1,NA,NA,NA,NA,NA,NA,NA,NA,NA,NA,NA,NA,NA,NA,NA,NA,NA,NA,NA,NA,NA,NA,NA,NA
"191","stim/objects/Instruments/musicstand2.png",91,67,91,0.9,"stim/33.jpeg",3,3,3,NA,"Instruments",2,2,"right","right",0.479999781,1,1,0,1,NA,NA,NA,NA,NA,NA,NA,NA,NA,NA,NA,NA,NA,NA,NA,NA,NA,NA,NA,NA,NA,NA,NA,NA
"62","stim/objects/HouseObjects/pan.png",92,67,92,0.5,"stim/63.jpeg",6,3,1,NA,"HouseObjects",1,1,"left","right",0.809999943,0,0,0,1,NA,NA,NA,NA,NA,NA,NA,NA,NA,NA,NA,NA,NA,NA,NA,NA,NA,NA,NA,NA,NA,NA,NA,NA
"85","stim/objects/HouseObjects/remote.png",93,67,93,0.3,"stim/12.jpeg",1,2,2,NA,"HouseObjects",1,1,"left","right",0.789000034,0,0,0,1,NA,NA,NA,NA,NA,NA,NA,NA,NA,NA,NA,NA,NA,NA,NA,NA,NA,NA,NA,NA,NA,NA,NA,NA
"175","stim/objects/Instruments/musicsheet2.png",94,67,94,0.9,"stim/32.jpeg",3,2,3,NA,"Instruments",2,3,"right","right",0.602999926,1,1,0,1,NA,NA,NA,NA,NA,NA,NA,NA,NA,NA,NA,NA,NA,NA,NA,NA,NA,NA,NA,NA,NA,NA,NA,NA
"197","stim/objects/Instruments/oboe.png",95,67,95,0.5,"stim/64.jpeg",6,4,1,NA,"Instruments",2,3,"right","",NA,0,0,0,1,NA,NA,NA,NA,NA,NA,NA,NA,NA,NA,NA,NA,NA,NA,NA,NA,NA,NA,NA,NA,NA,NA,NA,NA
"167","stim/objects/Instruments/musicsheet.png",96,67,96,0.5,"stim/62.jpeg",6,2,1,NA,"Instruments",2,2,"right","left",0.670000076,0,0,0,1,NA,NA,NA,NA,NA,NA,NA,NA,NA,NA,NA,NA,NA,NA,NA,NA,NA,NA,NA,NA,NA,NA,NA,NA
"182","stim/objects/Instruments/musicstand.png",97,67,97,0.5,"stim/63.jpeg",6,3,1,NA,"Instruments",2,3,"right","right",0.694000006,1,1,0,1,NA,NA,NA,NA,NA,NA,NA,NA,NA,NA,NA,NA,NA,NA,NA,NA,NA,NA,NA,NA,NA,NA,NA,NA
"91","stim/objects/HouseObjects/remote2.png",98,67,98,0.9,"stim/42.jpeg",4,2,3,NA,"HouseObjects",1,1,"left","left",0.433999777,1,1,0,1,NA,NA,NA,NA,NA,NA,NA,NA,NA,NA,NA,NA,NA,NA,NA,NA,NA,NA,NA,NA,NA,NA,NA,NA
"105","stim/objects/HouseObjects/rubbergloves2.png",99,67,99,0.9,"stim/43.jpeg",4,3,3,NA,"HouseObjects",1,2,"left","left",0.426999807,1,1,0,1,NA,NA,NA,NA,NA,NA,NA,NA,NA,NA,NA,NA,NA,NA,NA,NA,NA,NA,NA,NA,NA,NA,NA,NA
"183","stim/objects/Instruments/musicstand.png",100,67,100,0.5,"stim/63.jpeg",6,3,1,NA,"Instruments",2,4,"right","right",0.54399991,1,1,0,1,NA,NA,NA,NA,NA,NA,NA,NA,NA,NA,NA,NA,NA,NA,NA,NA,NA,NA,NA,NA,NA,NA,NA,NA
"111","stim/objects/HouseObjects/rug.png",101,67,101,0.3,"stim/14.jpeg",1,4,2,NA,"HouseObjects",1,2,"left","left",0.618000031,1,1,0,1,NA,NA,NA,NA,NA,NA,NA,NA,NA,NA,NA,NA,NA,NA,NA,NA,NA,NA,NA,NA,NA,NA,NA,NA
"204","stim/objects/Instruments/oboe2.png",102,67,102,0.9,"stim/34.jpeg",3,4,3,NA,"Instruments",2,4,"right","right",0.508999825,1,1,0,1,NA,NA,NA,NA,NA,NA,NA,NA,NA,NA,NA,NA,NA,NA,NA,NA,NA,NA,NA,NA,NA,NA,NA,NA
"162","stim/objects/Instruments/metronome2.png",103,67,103,0.9,"stim/31.jpeg",3,1,3,NA,"Instruments",2,2,"right","right",0.554999828,1,1,0,1,NA,NA,NA,NA,NA,NA,NA,NA,NA,NA,NA,NA,NA,NA,NA,NA,NA,NA,NA,NA,NA,NA,NA,NA
"115","stim/objects/HouseObjects/rug2.png",104,67,104,0.9,"stim/44.jpeg",4,4,3,NA,"HouseObjects",1,4,"left","left",0.539999962,1,1,0,1,NA,NA,NA,NA,NA,NA,NA,NA,NA,NA,NA,NA,NA,NA,NA,NA,NA,NA,NA,NA,NA,NA,NA,NA
"147","stim/objects/Instruments/marimba.png",105,67,105,0.5,"stim/54.jpeg",5,4,1,NA,"Instruments",2,3,"right","right",0.43900013,1,1,0,1,NA,NA,NA,NA,NA,NA,NA,NA,NA,NA,NA,NA,NA,NA,NA,NA,NA,NA,NA,NA,NA,NA,NA,NA
"219","stim/objects/Instruments/pipepiano.png",106,67,106,0.7,"stim/12.jpeg",1,2,2,NA,"Instruments",2,2,"right","left",0.796000004,0,0,0,1,NA,NA,NA,NA,NA,NA,NA,NA,NA,NA,NA,NA,NA,NA,NA,NA,NA,NA,NA,NA,NA,NA,NA,NA
"163","stim/objects/Instruments/metronome2.png",107,67,107,0.9,"stim/31.jpeg",3,1,3,NA,"Instruments",2,3,"right","right",0.571000099,1,1,0,1,NA,NA,NA,NA,NA,NA,NA,NA,NA,NA,NA,NA,NA,NA,NA,NA,NA,NA,NA,NA,NA,NA,NA,NA
"33","stim/objects/HouseObjects/key2.png",108,67,108,0.7,"stim/23.jpeg",2,3,2,NA,"HouseObjects",1,1,"left","left",0.503000021,1,1,0,1,NA,NA,NA,NA,NA,NA,NA,NA,NA,NA,NA,NA,NA,NA,NA,NA,NA,NA,NA,NA,NA,NA,NA,NA
"205","stim/objects/Instruments/oboe2.png",109,67,109,0.9,"stim/34.jpeg",3,4,3,NA,"Instruments",2,1,"right","right",0.498999834,1,1,0,1,NA,NA,NA,NA,NA,NA,NA,NA,NA,NA,NA,NA,NA,NA,NA,NA,NA,NA,NA,NA,NA,NA,NA,NA
"122","stim/objects/Instruments/keyboard.png",110,67,110,0.5,"stim/51.jpeg",5,1,1,NA,"Instruments",2,1,"right","left",0.495000124,0,0,0,1,NA,NA,NA,NA,NA,NA,NA,NA,NA,NA,NA,NA,NA,NA,NA,NA,NA,NA,NA,NA,NA,NA,NA,NA
"164","stim/objects/Instruments/metronome2.png",111,67,111,0.9,"stim/31.jpeg",3,1,3,NA,"Instruments",2,1,"right","right",0.586999893,1,1,0,1,NA,NA,NA,NA,NA,NA,NA,NA,NA,NA,NA,NA,NA,NA,NA,NA,NA,NA,NA,NA,NA,NA,NA,NA
"235","stim/objects/Instruments/record.png",112,67,112,0.7,"stim/13.jpeg",1,3,2,NA,"Instruments",2,4,"right","left",0.598999977,0,0,0,1,NA,NA,NA,NA,NA,NA,NA,NA,NA,NA,NA,NA,NA,NA,NA,NA,NA,NA,NA,NA,NA,NA,NA,NA
"168","stim/objects/Instruments/musicsheet.png",113,67,113,0.5,"stim/62.jpeg",6,2,1,NA,"Instruments",2,2,"right","left",0.555999994,0,0,0,1,NA,NA,NA,NA,NA,NA,NA,NA,NA,NA,NA,NA,NA,NA,NA,NA,NA,NA,NA,NA,NA,NA,NA,NA
"198","stim/objects/Instruments/oboe.png",114,67,114,0.5,"stim/64.jpeg",6,4,1,NA,"Instruments",2,3,"right","right",0.650000095,1,1,0,1,NA,NA,NA,NA,NA,NA,NA,NA,NA,NA,NA,NA,NA,NA,NA,NA,NA,NA,NA,NA,NA,NA,NA,NA
"20","stim/objects/HouseObjects/ironingboard2.png",115,67,115,0.7,"stim/22.jpeg",2,2,2,NA,"HouseObjects",1,3,"left","left",0.480999947,1,1,0,1,NA,NA,NA,NA,NA,NA,NA,NA,NA,NA,NA,NA,NA,NA,NA,NA,NA,NA,NA,NA,NA,NA,NA,NA
"34","stim/objects/HouseObjects/key2.png",116,67,116,0.7,"stim/23.jpeg",2,3,2,NA,"HouseObjects",1,1,"left","left",0.486999989,1,1,0,1,NA,NA,NA,NA,NA,NA,NA,NA,NA,NA,NA,NA,NA,NA,NA,NA,NA,NA,NA,NA,NA,NA,NA,NA
"210","stim/objects/Instruments/panflute.png",117,67,117,0.7,"stim/11.jpeg",1,1,2,NA,"Instruments",2,1,"right","right",0.893000126,1,1,0,1,NA,NA,NA,NA,NA,NA,NA,NA,NA,NA,NA,NA,NA,NA,NA,NA,NA,NA,NA,NA,NA,NA,NA,NA
"8","stim/objects/HouseObjects/iron2.png",118,67,118,0.7,"stim/21.jpeg",2,1,2,NA,"HouseObjects",1,1,"left","left",0.666000128,1,1,0,1,NA,NA,NA,NA,NA,NA,NA,NA,NA,NA,NA,NA,NA,NA,NA,NA,NA,NA,NA,NA,NA,NA,NA,NA
"92","stim/objects/HouseObjects/remote2.png",119,67,119,0.9,"stim/42.jpeg",4,2,3,NA,"HouseObjects",1,3,"left","left",0.57400012,1,1,0,1,NA,NA,NA,NA,NA,NA,NA,NA,NA,NA,NA,NA,NA,NA,NA,NA,NA,NA,NA,NA,NA,NA,NA,NA
"236","stim/objects/Instruments/record.png",120,67,120,0.7,"stim/13.jpeg",1,3,2,NA,"Instruments",2,1,"right","right",0.574999809,1,1,0,1,NA,NA,NA,NA,NA,NA,NA,NA,NA,NA,NA,NA,NA,NA,NA,NA,NA,NA,NA,NA,NA,NA,NA,NA
"93","stim/objects/HouseObjects/remote2.png",121,67,121,0.9,"stim/42.jpeg",4,2,3,NA,"HouseObjects",1,4,"left","left",0.504999876,1,1,0,1,NA,NA,NA,NA,NA,NA,NA,NA,NA,NA,NA,NA,NA,NA,NA,NA,NA,NA,NA,NA,NA,NA,NA,NA
"14","stim/objects/HouseObjects/ironingboard.png",122,67,122,0.5,"stim/52.jpeg",5,2,1,NA,"HouseObjects",1,1,"left","left",0.444000006,1,1,0,1,NA,NA,NA,NA,NA,NA,NA,NA,NA,NA,NA,NA,NA,NA,NA,NA,NA,NA,NA,NA,NA,NA,NA,NA
"2","stim/objects/HouseObjects/iron.png",123,67,123,0.5,"stim/51.jpeg",5,1,1,NA,"HouseObjects",1,1,"left","left",0.585000038,1,1,0,1,NA,NA,NA,NA,NA,NA,NA,NA,NA,NA,NA,NA,NA,NA,NA,NA,NA,NA,NA,NA,NA,NA,NA,NA
"97","stim/objects/HouseObjects/rubbergloves.png",124,67,124,0.3,"stim/13.jpeg",1,3,2,NA,"HouseObjects",1,4,"left","right",0.486999989,0,0,0,1,NA,NA,NA,NA,NA,NA,NA,NA,NA,NA,NA,NA,NA,NA,NA,NA,NA,NA,NA,NA,NA,NA,NA,NA
"106","stim/objects/HouseObjects/rubbergloves2.png",125,67,125,0.9,"stim/43.jpeg",4,3,3,NA,"HouseObjects",1,2,"left","left",0.536000013,1,1,0,1,NA,NA,NA,NA,NA,NA,NA,NA,NA,NA,NA,NA,NA,NA,NA,NA,NA,NA,NA,NA,NA,NA,NA,NA
"211","stim/objects/Instruments/panflute.png",126,67,126,0.7,"stim/11.jpeg",1,1,2,NA,"Instruments",2,3,"right","right",0.65899992,1,1,0,1,NA,NA,NA,NA,NA,NA,NA,NA,NA,NA,NA,NA,NA,NA,NA,NA,NA,NA,NA,NA,NA,NA,NA,NA
"94","stim/objects/HouseObjects/remote2.png",127,67,127,0.9,"stim/42.jpeg",4,2,3,NA,"HouseObjects",1,2,"left","left",0.805999994,1,1,0,1,NA,NA,NA,NA,NA,NA,NA,NA,NA,NA,NA,NA,NA,NA,NA,NA,NA,NA,NA,NA,NA,NA,NA,NA
"156","stim/objects/Instruments/metronome.png",128,67,128,0.5,"stim/61.jpeg",6,1,1,NA,"Instruments",2,3,"right","right",0.622999907,1,1,0,1,NA,NA,NA,NA,NA,NA,NA,NA,NA,NA,NA,NA,NA,NA,NA,NA,NA,NA,NA,NA,NA,NA,NA,NA
"206","stim/objects/Instruments/oboe2.png",129,67,129,0.9,"stim/34.jpeg",3,4,3,NA,"Instruments",2,2,"right","right",0.628999949,1,1,0,1,NA,NA,NA,NA,NA,NA,NA,NA,NA,NA,NA,NA,NA,NA,NA,NA,NA,NA,NA,NA,NA,NA,NA,NA
"220","stim/objects/Instruments/pipepiano.png",130,67,130,0.7,"stim/12.jpeg",1,2,2,NA,"Instruments",2,3,"right","",NA,0,0,0,1,NA,NA,NA,NA,NA,NA,NA,NA,NA,NA,NA,NA,NA,NA,NA,NA,NA,NA,NA,NA,NA,NA,NA,NA
"35","stim/objects/HouseObjects/key2.png",131,67,131,0.7,"stim/23.jpeg",2,3,2,NA,"HouseObjects",1,3,"left","left",0.531000137,1,1,0,1,NA,NA,NA,NA,NA,NA,NA,NA,NA,NA,NA,NA,NA,NA,NA,NA,NA,NA,NA,NA,NA,NA,NA,NA
"54","stim/objects/HouseObjects/lintroller2.png",132,67,132,0.1,"stim/31.jpeg",3,1,3,NA,"HouseObjects",1,4,"left","right",0.45299983,0,0,0,1,NA,NA,NA,NA,NA,NA,NA,NA,NA,NA,NA,NA,NA,NA,NA,NA,NA,NA,NA,NA,NA,NA,NA,NA
"81","stim/objects/HouseObjects/recyclingbin2.png",133,67,133,0.9,"stim/41.jpeg",4,1,3,NA,"HouseObjects",1,1,"left","left",0.463000059,1,1,0,1,NA,NA,NA,NA,NA,NA,NA,NA,NA,NA,NA,NA,NA,NA,NA,NA,NA,NA,NA,NA,NA,NA,NA,NA
"25","stim/objects/HouseObjects/key.png",134,67,134,0.5,"stim/53.jpeg",5,3,1,NA,"HouseObjects",1,1,"left","",NA,0,0,0,1,NA,NA,NA,NA,NA,NA,NA,NA,NA,NA,NA,NA,NA,NA,NA,NA,NA,NA,NA,NA,NA,NA,NA,NA
"148","stim/objects/Instruments/marimba.png",135,67,135,0.5,"stim/54.jpeg",5,4,1,NA,"Instruments",2,4,"right","right",0.613999844,1,1,0,1,NA,NA,NA,NA,NA,NA,NA,NA,NA,NA,NA,NA,NA,NA,NA,NA,NA,NA,NA,NA,NA,NA,NA,NA
"3","stim/objects/HouseObjects/iron.png",136,67,136,0.5,"stim/51.jpeg",5,1,1,NA,"HouseObjects",1,1,"left","left",0.54399991,1,1,0,1,NA,NA,NA,NA,NA,NA,NA,NA,NA,NA,NA,NA,NA,NA,NA,NA,NA,NA,NA,NA,NA,NA,NA,NA
"9","stim/objects/HouseObjects/iron2.png",137,67,137,0.7,"stim/21.jpeg",2,1,2,NA,"HouseObjects",1,1,"left","left",0.479000092,1,1,0,1,NA,NA,NA,NA,NA,NA,NA,NA,NA,NA,NA,NA,NA,NA,NA,NA,NA,NA,NA,NA,NA,NA,NA,NA
"21","stim/objects/HouseObjects/ironingboard2.png",138,67,138,0.7,"stim/22.jpeg",2,2,2,NA,"HouseObjects",1,1,"left","left",0.423000097,1,1,0,1,NA,NA,NA,NA,NA,NA,NA,NA,NA,NA,NA,NA,NA,NA,NA,NA,NA,NA,NA,NA,NA,NA,NA,NA
"192","stim/objects/Instruments/musicstand2.png",139,67,139,0.9,"stim/33.jpeg",3,3,3,NA,"Instruments",2,2,"right","right",0.450000048,1,1,0,1,NA,NA,NA,NA,NA,NA,NA,NA,NA,NA,NA,NA,NA,NA,NA,NA,NA,NA,NA,NA,NA,NA,NA,NA
"4","stim/objects/HouseObjects/iron.png",140,67,140,0.5,"stim/51.jpeg",5,1,1,NA,"HouseObjects",1,1,"left","left",0.413999796,1,1,0,1,NA,NA,NA,NA,NA,NA,NA,NA,NA,NA,NA,NA,NA,NA,NA,NA,NA,NA,NA,NA,NA,NA,NA,NA
"237","stim/objects/Instruments/record.png",141,67,141,0.7,"stim/13.jpeg",1,3,2,NA,"Instruments",2,4,"right","right",0.555999994,1,1,0,1,NA,NA,NA,NA,NA,NA,NA,NA,NA,NA,NA,NA,NA,NA,NA,NA,NA,NA,NA,NA,NA,NA,NA,NA
"138","stim/objects/Instruments/maraca.png",142,67,142,0.5,"stim/53.jpeg",5,3,1,NA,"Instruments",2,3,"right","left",0.442000151,0,0,0,1,NA,NA,NA,NA,NA,NA,NA,NA,NA,NA,NA,NA,NA,NA,NA,NA,NA,NA,NA,NA,NA,NA,NA,NA
"63","stim/objects/HouseObjects/pan.png",143,67,143,0.5,"stim/63.jpeg",6,3,1,NA,"HouseObjects",1,3,"left","left",0.819000006,1,1,0,1,NA,NA,NA,NA,NA,NA,NA,NA,NA,NA,NA,NA,NA,NA,NA,NA,NA,NA,NA,NA,NA,NA,NA,NA
"22","stim/objects/HouseObjects/ironingboard2.png",144,67,144,0.7,"stim/22.jpeg",2,2,2,NA,"HouseObjects",1,3,"left","left",0.469000101,1,1,0,1,NA,NA,NA,NA,NA,NA,NA,NA,NA,NA,NA,NA,NA,NA,NA,NA,NA,NA,NA,NA,NA,NA,NA,NA
"66","stim/objects/HouseObjects/pan2.png",145,67,145,0.1,"stim/33.jpeg",3,3,3,NA,"HouseObjects",1,4,"left","right",0.490999937,0,0,0,1,NA,NA,NA,NA,NA,NA,NA,NA,NA,NA,NA,NA,NA,NA,NA,NA,NA,NA,NA,NA,NA,NA,NA,NA
"39","stim/objects/HouseObjects/knife.png",146,67,146,0.5,"stim/54.jpeg",5,4,1,NA,"HouseObjects",1,4,"left","left",0.785000086,1,1,0,1,NA,NA,NA,NA,NA,NA,NA,NA,NA,NA,NA,NA,NA,NA,NA,NA,NA,NA,NA,NA,NA,NA,NA,NA
"82","stim/objects/HouseObjects/recyclingbin2.png",147,67,147,0.9,"stim/41.jpeg",4,1,3,NA,"HouseObjects",1,1,"left","left",0.48300004,1,1,0,1,NA,NA,NA,NA,NA,NA,NA,NA,NA,NA,NA,NA,NA,NA,NA,NA,NA,NA,NA,NA,NA,NA,NA,NA
"5","stim/objects/HouseObjects/iron.png",148,67,148,0.5,"stim/51.jpeg",5,1,1,NA,"HouseObjects",1,2,"left","left",0.549999952,1,1,0,1,NA,NA,NA,NA,NA,NA,NA,NA,NA,NA,NA,NA,NA,NA,NA,NA,NA,NA,NA,NA,NA,NA,NA,NA
"212","stim/objects/Instruments/panflute.png",149,67,149,0.7,"stim/11.jpeg",1,1,2,NA,"Instruments",2,3,"right","right",0.501999855,1,1,0,1,NA,NA,NA,NA,NA,NA,NA,NA,NA,NA,NA,NA,NA,NA,NA,NA,NA,NA,NA,NA,NA,NA,NA,NA
"116","stim/objects/HouseObjects/rug2.png",150,67,150,0.9,"stim/44.jpeg",4,4,3,NA,"HouseObjects",1,2,"left","left",0.538000107,1,1,0,1,NA,NA,NA,NA,NA,NA,NA,NA,NA,NA,NA,NA,NA,NA,NA,NA,NA,NA,NA,NA,NA,NA,NA,NA
"10","stim/objects/HouseObjects/iron2.png",151,67,151,0.7,"stim/21.jpeg",2,1,2,NA,"HouseObjects",1,3,"left","left",0.523999929,1,1,0,1,NA,NA,NA,NA,NA,NA,NA,NA,NA,NA,NA,NA,NA,NA,NA,NA,NA,NA,NA,NA,NA,NA,NA,NA
"95","stim/objects/HouseObjects/remote2.png",152,67,152,0.9,"stim/42.jpeg",4,2,3,NA,"HouseObjects",1,2,"left","left",0.445999861,1,1,0,1,NA,NA,NA,NA,NA,NA,NA,NA,NA,NA,NA,NA,NA,NA,NA,NA,NA,NA,NA,NA,NA,NA,NA,NA
"216","stim/objects/Instruments/panflute2.png",153,67,153,0.1,"stim/41.jpeg",4,1,3,NA,"Instruments",2,1,"right","left",0.396000147,0,0,0,1,NA,NA,NA,NA,NA,NA,NA,NA,NA,NA,NA,NA,NA,NA,NA,NA,NA,NA,NA,NA,NA,NA,NA,NA
"176","stim/objects/Instruments/musicsheet2.png",154,67,154,0.9,"stim/32.jpeg",3,2,3,NA,"Instruments",2,4,"right","right",0.528000116,1,1,0,1,NA,NA,NA,NA,NA,NA,NA,NA,NA,NA,NA,NA,NA,NA,NA,NA,NA,NA,NA,NA,NA,NA,NA,NA
"74","stim/objects/HouseObjects/recyclingbin.png",155,67,155,0.3,"stim/11.jpeg",1,1,2,NA,"HouseObjects",1,2,"left","",NA,0,0,0,1,NA,NA,NA,NA,NA,NA,NA,NA,NA,NA,NA,NA,NA,NA,NA,NA,NA,NA,NA,NA,NA,NA,NA,NA
"129","stim/objects/Instruments/laud.png",156,67,156,0.5,"stim/52.jpeg",5,2,1,NA,"Instruments",2,3,"right","left",0.641000032,0,0,0,1,NA,NA,NA,NA,NA,NA,NA,NA,NA,NA,NA,NA,NA,NA,NA,NA,NA,NA,NA,NA,NA,NA,NA,NA
"177","stim/objects/Instruments/musicsheet2.png",157,67,157,0.9,"stim/32.jpeg",3,2,3,NA,"Instruments",2,4,"right","right",0.46999979,1,1,0,1,NA,NA,NA,NA,NA,NA,NA,NA,NA,NA,NA,NA,NA,NA,NA,NA,NA,NA,NA,NA,NA,NA,NA,NA
"213","stim/objects/Instruments/panflute.png",158,67,158,0.7,"stim/11.jpeg",1,1,2,NA,"Instruments",2,2,"right","right",0.629000187,1,1,0,1,NA,NA,NA,NA,NA,NA,NA,NA,NA,NA,NA,NA,NA,NA,NA,NA,NA,NA,NA,NA,NA,NA,NA,NA
"238","stim/objects/Instruments/record.png",159,67,159,0.7,"stim/13.jpeg",1,3,2,NA,"Instruments",2,4,"right","left",0.562999964,0,0,0,1,NA,NA,NA,NA,NA,NA,NA,NA,NA,NA,NA,NA,NA,NA,NA,NA,NA,NA,NA,NA,NA,NA,NA,NA
"46","stim/objects/HouseObjects/knife2.png",160,67,160,0.7,"stim/24.jpeg",2,4,2,NA,"HouseObjects",1,4,"left","left",0.504999876,1,1,0,1,NA,NA,NA,NA,NA,NA,NA,NA,NA,NA,NA,NA,NA,NA,NA,NA,NA,NA,NA,NA,NA,NA,NA,NA
"149","stim/objects/Instruments/marimba.png",161,67,161,0.5,"stim/54.jpeg",5,4,1,NA,"Instruments",2,2,"right","left",0.745000124,0,0,0,1,NA,NA,NA,NA,NA,NA,NA,NA,NA,NA,NA,NA,NA,NA,NA,NA,NA,NA,NA,NA,NA,NA,NA,NA
"214","stim/objects/Instruments/panflute.png",162,67,162,0.7,"stim/11.jpeg",1,1,2,NA,"Instruments",2,3,"right","left",0.888999939,0,0,0,1,NA,NA,NA,NA,NA,NA,NA,NA,NA,NA,NA,NA,NA,NA,NA,NA,NA,NA,NA,NA,NA,NA,NA,NA
"98","stim/objects/HouseObjects/rubbergloves.png",163,67,163,0.3,"stim/13.jpeg",1,3,2,NA,"HouseObjects",1,1,"left","right",0.620000124,0,0,0,1,NA,NA,NA,NA,NA,NA,NA,NA,NA,NA,NA,NA,NA,NA,NA,NA,NA,NA,NA,NA,NA,NA,NA,NA
"107","stim/objects/HouseObjects/rubbergloves2.png",164,67,164,0.9,"stim/43.jpeg",4,3,3,NA,"HouseObjects",1,1,"left","left",0.432999849,1,1,0,1,NA,NA,NA,NA,NA,NA,NA,NA,NA,NA,NA,NA,NA,NA,NA,NA,NA,NA,NA,NA,NA,NA,NA,NA
"83","stim/objects/HouseObjects/recyclingbin2.png",165,67,165,0.9,"stim/41.jpeg",4,1,3,NA,"HouseObjects",1,1,"left","left",0.413999796,1,1,0,1,NA,NA,NA,NA,NA,NA,NA,NA,NA,NA,NA,NA,NA,NA,NA,NA,NA,NA,NA,NA,NA,NA,NA,NA
"15","stim/objects/HouseObjects/ironingboard.png",166,67,166,0.5,"stim/52.jpeg",5,2,1,NA,"HouseObjects",1,3,"left","left",0.451999903,1,1,0,1,NA,NA,NA,NA,NA,NA,NA,NA,NA,NA,NA,NA,NA,NA,NA,NA,NA,NA,NA,NA,NA,NA,NA,NA
"47","stim/objects/HouseObjects/knife2.png",167,67,167,0.7,"stim/24.jpeg",2,4,2,NA,"HouseObjects",1,3,"left","left",0.484999895,1,1,0,1,NA,NA,NA,NA,NA,NA,NA,NA,NA,NA,NA,NA,NA,NA,NA,NA,NA,NA,NA,NA,NA,NA,NA,NA
"144","stim/objects/Instruments/maraca2.png",168,67,168,0.3,"stim/23.jpeg",2,3,2,NA,"Instruments",2,1,"right","left",0.5,0,0,0,1,NA,NA,NA,NA,NA,NA,NA,NA,NA,NA,NA,NA,NA,NA,NA,NA,NA,NA,NA,NA,NA,NA,NA,NA
"117","stim/objects/HouseObjects/rug2.png",169,67,169,0.9,"stim/44.jpeg",4,4,3,NA,"HouseObjects",1,2,"left","left",0.473999977,1,1,0,1,NA,NA,NA,NA,NA,NA,NA,NA,NA,NA,NA,NA,NA,NA,NA,NA,NA,NA,NA,NA,NA,NA,NA,NA
"130","stim/objects/Instruments/laud.png",170,67,170,0.5,"stim/52.jpeg",5,2,1,NA,"Instruments",2,4,"right","left",0.642999887,0,0,0,1,NA,NA,NA,NA,NA,NA,NA,NA,NA,NA,NA,NA,NA,NA,NA,NA,NA,NA,NA,NA,NA,NA,NA,NA
"221","stim/objects/Instruments/pipepiano.png",171,67,171,0.7,"stim/12.jpeg",1,2,2,NA,"Instruments",2,2,"right","right",0.705999851,1,1,0,1,NA,NA,NA,NA,NA,NA,NA,NA,NA,NA,NA,NA,NA,NA,NA,NA,NA,NA,NA,NA,NA,NA,NA,NA
"240","stim/objects/Instruments/record2.png",172,67,172,0.1,"stim/43.jpeg",4,3,3,NA,"Instruments",2,3,"right","left",0.612999916,0,0,0,1,NA,NA,NA,NA,NA,NA,NA,NA,NA,NA,NA,NA,NA,NA,NA,NA,NA,NA,NA,NA,NA,NA,NA,NA
"178","stim/objects/Instruments/musicsheet2.png",173,67,173,0.9,"stim/32.jpeg",3,2,3,NA,"Instruments",2,4,"right","right",0.501000166,1,1,0,1,NA,NA,NA,NA,NA,NA,NA,NA,NA,NA,NA,NA,NA,NA,NA,NA,NA,NA,NA,NA,NA,NA,NA,NA
"193","stim/objects/Instruments/musicstand2.png",174,67,174,0.9,"stim/33.jpeg",3,3,3,NA,"Instruments",2,2,"right","right",0.548999786,1,1,0,1,NA,NA,NA,NA,NA,NA,NA,NA,NA,NA,NA,NA,NA,NA,NA,NA,NA,NA,NA,NA,NA,NA,NA,NA
"26","stim/objects/HouseObjects/key.png",175,67,175,0.5,"stim/53.jpeg",5,3,1,NA,"HouseObjects",1,4,"left","left",0.510999918,1,1,0,1,NA,NA,NA,NA,NA,NA,NA,NA,NA,NA,NA,NA,NA,NA,NA,NA,NA,NA,NA,NA,NA,NA,NA,NA
"229","stim/objects/Instruments/record_player.png",176,67,176,0.7,"stim/14.jpeg",1,4,2,NA,"Instruments",2,4,"right","right",0.502999783,1,1,0,1,NA,NA,NA,NA,NA,NA,NA,NA,NA,NA,NA,NA,NA,NA,NA,NA,NA,NA,NA,NA,NA,NA,NA,NA
"70","stim/objects/HouseObjects/pitcher.png",177,67,177,0.5,"stim/64.jpeg",6,4,1,NA,"HouseObjects",1,4,"left","left",0.726999998,1,1,0,1,NA,NA,NA,NA,NA,NA,NA,NA,NA,NA,NA,NA,NA,NA,NA,NA,NA,NA,NA,NA,NA,NA,NA,NA
"59","stim/objects/HouseObjects/match.png",178,67,178,0.5,"stim/62.jpeg",6,2,1,NA,"HouseObjects",1,1,"left","right",0.638000011,0,0,0,1,NA,NA,NA,NA,NA,NA,NA,NA,NA,NA,NA,NA,NA,NA,NA,NA,NA,NA,NA,NA,NA,NA,NA,NA
"36","stim/objects/HouseObjects/key2.png",179,67,179,0.7,"stim/23.jpeg",2,3,2,NA,"HouseObjects",1,2,"left","left",0.423000097,1,1,0,1,NA,NA,NA,NA,NA,NA,NA,NA,NA,NA,NA,NA,NA,NA,NA,NA,NA,NA,NA,NA,NA,NA,NA,NA
"222","stim/objects/Instruments/pipepiano.png",180,67,180,0.7,"stim/12.jpeg",1,2,2,NA,"Instruments",2,1,"right","left",0.857000113,0,0,0,1,NA,NA,NA,NA,NA,NA,NA,NA,NA,NA,NA,NA,NA,NA,NA,NA,NA,NA,NA,NA,NA,NA,NA,NA
"51","stim/objects/HouseObjects/lintroller.png",181,67,181,0.5,"stim/61.jpeg",6,1,1,NA,"HouseObjects",1,2,"left","left",0.795000076,1,1,0,1,NA,NA,NA,NA,NA,NA,NA,NA,NA,NA,NA,NA,NA,NA,NA,NA,NA,NA,NA,NA,NA,NA,NA,NA
"99","stim/objects/HouseObjects/rubbergloves.png",182,67,182,0.3,"stim/13.jpeg",1,3,2,NA,"HouseObjects",1,4,"left","right",0.582000017,0,0,0,1,NA,NA,NA,NA,NA,NA,NA,NA,NA,NA,NA,NA,NA,NA,NA,NA,NA,NA,NA,NA,NA,NA,NA,NA
"16","stim/objects/HouseObjects/ironingboard.png",183,67,183,0.5,"stim/52.jpeg",5,2,1,NA,"HouseObjects",1,2,"left","left",0.516000032,1,1,0,1,NA,NA,NA,NA,NA,NA,NA,NA,NA,NA,NA,NA,NA,NA,NA,NA,NA,NA,NA,NA,NA,NA,NA,NA
"165","stim/objects/Instruments/metronome2.png",184,67,184,0.9,"stim/31.jpeg",3,1,3,NA,"Instruments",2,3,"right","right",0.55099988,1,1,0,1,NA,NA,NA,NA,NA,NA,NA,NA,NA,NA,NA,NA,NA,NA,NA,NA,NA,NA,NA,NA,NA,NA,NA,NA
"157","stim/objects/Instruments/metronome.png",185,67,185,0.5,"stim/61.jpeg",6,1,1,NA,"Instruments",2,1,"right","left",0.585999966,0,0,0,1,NA,NA,NA,NA,NA,NA,NA,NA,NA,NA,NA,NA,NA,NA,NA,NA,NA,NA,NA,NA,NA,NA,NA,NA
"23","stim/objects/HouseObjects/ironingboard2.png",186,67,186,0.7,"stim/22.jpeg",2,2,2,NA,"HouseObjects",1,3,"left","left",0.499000072,1,1,0,1,NA,NA,NA,NA,NA,NA,NA,NA,NA,NA,NA,NA,NA,NA,NA,NA,NA,NA,NA,NA,NA,NA,NA,NA
"118","stim/objects/HouseObjects/rug2.png",187,67,187,0.9,"stim/44.jpeg",4,4,3,NA,"HouseObjects",1,4,"left","left",0.494999886,1,1,0,1,NA,NA,NA,NA,NA,NA,NA,NA,NA,NA,NA,NA,NA,NA,NA,NA,NA,NA,NA,NA,NA,NA,NA,NA
"207","stim/objects/Instruments/oboe2.png",188,67,188,0.9,"stim/34.jpeg",3,4,3,NA,"Instruments",2,4,"right","right",0.437000036,1,1,0,1,NA,NA,NA,NA,NA,NA,NA,NA,NA,NA,NA,NA,NA,NA,NA,NA,NA,NA,NA,NA,NA,NA,NA,NA
"75","stim/objects/HouseObjects/recyclingbin.png",189,67,189,0.3,"stim/11.jpeg",1,1,2,NA,"HouseObjects",1,4,"left","right",0.811000109,0,0,0,1,NA,NA,NA,NA,NA,NA,NA,NA,NA,NA,NA,NA,NA,NA,NA,NA,NA,NA,NA,NA,NA,NA,NA,NA
"123","stim/objects/Instruments/keyboard.png",190,67,190,0.5,"stim/51.jpeg",5,1,1,NA,"Instruments",2,1,"right","left",0.465000153,0,0,0,1,NA,NA,NA,NA,NA,NA,NA,NA,NA,NA,NA,NA,NA,NA,NA,NA,NA,NA,NA,NA,NA,NA,NA,NA
"124","stim/objects/Instruments/keyboard.png",191,67,191,0.5,"stim/51.jpeg",5,1,1,NA,"Instruments",2,4,"right","left",0.559000015,0,0,0,1,NA,NA,NA,NA,NA,NA,NA,NA,NA,NA,NA,NA,NA,NA,NA,NA,NA,NA,NA,NA,NA,NA,NA,NA
"128","stim/objects/Instruments/keyboard2.png",192,67,192,0.3,"stim/21.jpeg",2,1,2,NA,"Instruments",2,4,"right","left",0.546999931,0,0,0,1,NA,NA,NA,NA,NA,NA,NA,NA,NA,NA,NA,NA,NA,NA,NA,NA,NA,NA,NA,NA,NA,NA,NA,NA
"169","stim/objects/Instruments/musicsheet.png",193,67,193,0.5,"stim/62.jpeg",6,2,1,NA,"Instruments",2,1,"right","",NA,0,0,0,1,NA,NA,NA,NA,NA,NA,NA,NA,NA,NA,NA,NA,NA,NA,NA,NA,NA,NA,NA,NA,NA,NA,NA,NA
"170","stim/objects/Instruments/musicsheet.png",194,67,194,0.5,"stim/62.jpeg",6,2,1,NA,"Instruments",2,4,"right","left",0.451999903,0,0,0,1,NA,NA,NA,NA,NA,NA,NA,NA,NA,NA,NA,NA,NA,NA,NA,NA,NA,NA,NA,NA,NA,NA,NA,NA
"86","stim/objects/HouseObjects/remote.png",195,67,195,0.3,"stim/12.jpeg",1,2,2,NA,"HouseObjects",1,2,"left","left",0.605999947,1,1,0,1,NA,NA,NA,NA,NA,NA,NA,NA,NA,NA,NA,NA,NA,NA,NA,NA,NA,NA,NA,NA,NA,NA,NA,NA
"87","stim/objects/HouseObjects/remote.png",196,67,196,0.3,"stim/12.jpeg",1,2,2,NA,"HouseObjects",1,2,"left","left",0.412000179,1,1,0,1,NA,NA,NA,NA,NA,NA,NA,NA,NA,NA,NA,NA,NA,NA,NA,NA,NA,NA,NA,NA,NA,NA,NA,NA
"64","stim/objects/HouseObjects/pan.png",197,67,197,0.5,"stim/63.jpeg",6,3,1,NA,"HouseObjects",1,1,"left","right",0.684999943,0,0,0,1,NA,NA,NA,NA,NA,NA,NA,NA,NA,NA,NA,NA,NA,NA,NA,NA,NA,NA,NA,NA,NA,NA,NA,NA
"136","stim/objects/Instruments/laud2.png",198,67,198,0.3,"stim/22.jpeg",2,2,2,NA,"Instruments",2,4,"right","left",0.707999945,0,0,0,1,NA,NA,NA,NA,NA,NA,NA,NA,NA,NA,NA,NA,NA,NA,NA,NA,NA,NA,NA,NA,NA,NA,NA,NA
"239","stim/objects/Instruments/record.png",199,67,199,0.7,"stim/13.jpeg",1,3,2,NA,"Instruments",2,4,"right","right",0.569999933,1,1,0,1,NA,NA,NA,NA,NA,NA,NA,NA,NA,NA,NA,NA,NA,NA,NA,NA,NA,NA,NA,NA,NA,NA,NA,NA
"40","stim/objects/HouseObjects/knife.png",200,67,200,0.5,"stim/54.jpeg",5,4,1,NA,"HouseObjects",1,4,"left","left",0.509000063,1,1,0,1,NA,NA,NA,NA,NA,NA,NA,NA,NA,NA,NA,NA,NA,NA,NA,NA,NA,NA,NA,NA,NA,NA,NA,NA
"52","stim/objects/HouseObjects/lintroller.png",201,67,201,0.5,"stim/61.jpeg",6,1,1,NA,"HouseObjects",1,4,"left","right",0.735999823,0,0,0,1,NA,NA,NA,NA,NA,NA,NA,NA,NA,NA,NA,NA,NA,NA,NA,NA,NA,NA,NA,NA,NA,NA,NA,NA
"131","stim/objects/Instruments/laud.png",202,67,202,0.5,"stim/52.jpeg",5,2,1,NA,"Instruments",2,2,"right","left",0.401000023,0,0,0,1,NA,NA,NA,NA,NA,NA,NA,NA,NA,NA,NA,NA,NA,NA,NA,NA,NA,NA,NA,NA,NA,NA,NA,NA
"132","stim/objects/Instruments/laud.png",203,67,203,0.5,"stim/52.jpeg",5,2,1,NA,"Instruments",2,4,"right","right",0.619000196,1,1,0,1,NA,NA,NA,NA,NA,NA,NA,NA,NA,NA,NA,NA,NA,NA,NA,NA,NA,NA,NA,NA,NA,NA,NA,NA
"166","stim/objects/Instruments/metronome2.png",204,67,204,0.9,"stim/31.jpeg",3,1,3,NA,"Instruments",2,4,"right","left",0.493000031,0,0,0,1,NA,NA,NA,NA,NA,NA,NA,NA,NA,NA,NA,NA,NA,NA,NA,NA,NA,NA,NA,NA,NA,NA,NA,NA
"139","stim/objects/Instruments/maraca.png",205,67,205,0.5,"stim/53.jpeg",5,3,1,NA,"Instruments",2,3,"right","left",0.559999943,0,0,0,1,NA,NA,NA,NA,NA,NA,NA,NA,NA,NA,NA,NA,NA,NA,NA,NA,NA,NA,NA,NA,NA,NA,NA,NA
"60","stim/objects/HouseObjects/match2.png",206,67,206,0.1,"stim/32.jpeg",3,2,3,NA,"HouseObjects",1,4,"left","right",0.44299984,0,0,0,1,NA,NA,NA,NA,NA,NA,NA,NA,NA,NA,NA,NA,NA,NA,NA,NA,NA,NA,NA,NA,NA,NA,NA,NA
"223","stim/objects/Instruments/pipepiano.png",207,67,207,0.7,"stim/12.jpeg",1,2,2,NA,"Instruments",2,1,"right","left",0.401000023,0,0,0,1,NA,NA,NA,NA,NA,NA,NA,NA,NA,NA,NA,NA,NA,NA,NA,NA,NA,NA,NA,NA,NA,NA,NA,NA
"194","stim/objects/Instruments/musicstand2.png",208,67,208,0.9,"stim/33.jpeg",3,3,3,NA,"Instruments",2,4,"right","right",0.474999905,1,1,0,1,NA,NA,NA,NA,NA,NA,NA,NA,NA,NA,NA,NA,NA,NA,NA,NA,NA,NA,NA,NA,NA,NA,NA,NA
"48","stim/objects/HouseObjects/knife2.png",209,67,209,0.7,"stim/24.jpeg",2,4,2,NA,"HouseObjects",1,2,"left","left",0.511000156,1,1,0,1,NA,NA,NA,NA,NA,NA,NA,NA,NA,NA,NA,NA,NA,NA,NA,NA,NA,NA,NA,NA,NA,NA,NA,NA
"208","stim/objects/Instruments/oboe2.png",210,67,210,0.9,"stim/34.jpeg",3,4,3,NA,"Instruments",2,3,"right","right",0.628000021,1,1,0,1,NA,NA,NA,NA,NA,NA,NA,NA,NA,NA,NA,NA,NA,NA,NA,NA,NA,NA,NA,NA,NA,NA,NA,NA
"65","stim/objects/HouseObjects/pan.png",211,67,211,0.5,"stim/63.jpeg",6,3,1,NA,"HouseObjects",1,4,"left","right",0.710999966,0,0,0,1,NA,NA,NA,NA,NA,NA,NA,NA,NA,NA,NA,NA,NA,NA,NA,NA,NA,NA,NA,NA,NA,NA,NA,NA
"24","stim/objects/HouseObjects/ironingboard2.png",212,67,212,0.7,"stim/22.jpeg",2,2,2,NA,"HouseObjects",1,4,"left","left",0.528000116,1,1,0,1,NA,NA,NA,NA,NA,NA,NA,NA,NA,NA,NA,NA,NA,NA,NA,NA,NA,NA,NA,NA,NA,NA,NA,NA
"199","stim/objects/Instruments/oboe.png",213,67,213,0.5,"stim/64.jpeg",6,4,1,NA,"Instruments",2,1,"right","left",0.842000008,0,0,0,1,NA,NA,NA,NA,NA,NA,NA,NA,NA,NA,NA,NA,NA,NA,NA,NA,NA,NA,NA,NA,NA,NA,NA,NA
"184","stim/objects/Instruments/musicstand.png",214,67,214,0.5,"stim/63.jpeg",6,3,1,NA,"Instruments",2,2,"right","left",0.630000114,0,0,0,1,NA,NA,NA,NA,NA,NA,NA,NA,NA,NA,NA,NA,NA,NA,NA,NA,NA,NA,NA,NA,NA,NA,NA,NA
"125","stim/objects/Instruments/keyboard.png",215,67,215,0.5,"stim/51.jpeg",5,1,1,NA,"Instruments",2,4,"right","left",0.692000151,0,0,0,1,NA,NA,NA,NA,NA,NA,NA,NA,NA,NA,NA,NA,NA,NA,NA,NA,NA,NA,NA,NA,NA,NA,NA,NA
"119","stim/objects/HouseObjects/rug2.png",216,67,216,0.9,"stim/44.jpeg",4,4,3,NA,"HouseObjects",1,2,"left","left",0.522000074,1,1,0,1,NA,NA,NA,NA,NA,NA,NA,NA,NA,NA,NA,NA,NA,NA,NA,NA,NA,NA,NA,NA,NA,NA,NA,NA
"27","stim/objects/HouseObjects/key.png",217,67,217,0.5,"stim/53.jpeg",5,3,1,NA,"HouseObjects",1,2,"left","left",0.435000181,1,1,0,1,NA,NA,NA,NA,NA,NA,NA,NA,NA,NA,NA,NA,NA,NA,NA,NA,NA,NA,NA,NA,NA,NA,NA,NA
"28","stim/objects/HouseObjects/key.png",218,67,218,0.5,"stim/53.jpeg",5,3,1,NA,"HouseObjects",1,4,"left","left",0.675000191,1,1,0,1,NA,NA,NA,NA,NA,NA,NA,NA,NA,NA,NA,NA,NA,NA,NA,NA,NA,NA,NA,NA,NA,NA,NA,NA
"179","stim/objects/Instruments/musicsheet2.png",219,67,219,0.9,"stim/32.jpeg",3,2,3,NA,"Instruments",2,4,"right","right",0.489000082,1,1,0,1,NA,NA,NA,NA,NA,NA,NA,NA,NA,NA,NA,NA,NA,NA,NA,NA,NA,NA,NA,NA,NA,NA,NA,NA
"11","stim/objects/HouseObjects/iron2.png",220,67,220,0.7,"stim/21.jpeg",2,1,2,NA,"HouseObjects",1,1,"left","left",0.592999935,1,1,0,1,NA,NA,NA,NA,NA,NA,NA,NA,NA,NA,NA,NA,NA,NA,NA,NA,NA,NA,NA,NA,NA,NA,NA,NA
"84","stim/objects/HouseObjects/recyclingbin2.png",221,67,221,0.9,"stim/41.jpeg",4,1,3,NA,"HouseObjects",1,1,"left","left",0.444000006,1,1,0,1,NA,NA,NA,NA,NA,NA,NA,NA,NA,NA,NA,NA,NA,NA,NA,NA,NA,NA,NA,NA,NA,NA,NA,NA
"140","stim/objects/Instruments/maraca.png",222,67,222,0.5,"stim/53.jpeg",5,3,1,NA,"Instruments",2,2,"right","right",0.435000181,1,1,0,1,NA,NA,NA,NA,NA,NA,NA,NA,NA,NA,NA,NA,NA,NA,NA,NA,NA,NA,NA,NA,NA,NA,NA,NA
"120","stim/objects/HouseObjects/rug2.png",223,67,223,0.9,"stim/44.jpeg",4,4,3,NA,"HouseObjects",1,4,"left","left",0.404000044,1,1,0,1,NA,NA,NA,NA,NA,NA,NA,NA,NA,NA,NA,NA,NA,NA,NA,NA,NA,NA,NA,NA,NA,NA,NA,NA
"12","stim/objects/HouseObjects/iron2.png",224,67,224,0.7,"stim/21.jpeg",2,1,2,NA,"HouseObjects",1,2,"left","left",0.457999945,1,1,0,1,NA,NA,NA,NA,NA,NA,NA,NA,NA,NA,NA,NA,NA,NA,NA,NA,NA,NA,NA,NA,NA,NA,NA,NA
"230","stim/objects/Instruments/record_player.png",225,67,225,0.7,"stim/14.jpeg",1,4,2,NA,"Instruments",2,3,"right","left",0.414000034,0,0,0,1,NA,NA,NA,NA,NA,NA,NA,NA,NA,NA,NA,NA,NA,NA,NA,NA,NA,NA,NA,NA,NA,NA,NA,NA
"185","stim/objects/Instruments/musicstand.png",226,67,226,0.5,"stim/63.jpeg",6,3,1,NA,"Instruments",2,1,"right","left",0.766000032,0,0,0,1,NA,NA,NA,NA,NA,NA,NA,NA,NA,NA,NA,NA,NA,NA,NA,NA,NA,NA,NA,NA,NA,NA,NA,NA
"53","stim/objects/HouseObjects/lintroller.png",227,67,227,0.5,"stim/61.jpeg",6,1,1,NA,"HouseObjects",1,4,"left","right",0.698999882,0,0,0,1,NA,NA,NA,NA,NA,NA,NA,NA,NA,NA,NA,NA,NA,NA,NA,NA,NA,NA,NA,NA,NA,NA,NA,NA
"41","stim/objects/HouseObjects/knife.png",228,67,228,0.5,"stim/54.jpeg",5,4,1,NA,"HouseObjects",1,2,"left","left",0.463000059,1,1,0,1,NA,NA,NA,NA,NA,NA,NA,NA,NA,NA,NA,NA,NA,NA,NA,NA,NA,NA,NA,NA,NA,NA,NA,NA
"171","stim/objects/Instruments/musicsheet.png",229,67,229,0.5,"stim/62.jpeg",6,2,1,NA,"Instruments",2,1,"right","left",0.573000193,0,0,0,1,NA,NA,NA,NA,NA,NA,NA,NA,NA,NA,NA,NA,NA,NA,NA,NA,NA,NA,NA,NA,NA,NA,NA,NA
"29","stim/objects/HouseObjects/key.png",230,67,230,0.5,"stim/53.jpeg",5,3,1,NA,"HouseObjects",1,3,"left","left",0.451999903,1,1,0,1,NA,NA,NA,NA,NA,NA,NA,NA,NA,NA,NA,NA,NA,NA,NA,NA,NA,NA,NA,NA,NA,NA,NA,NA
"231","stim/objects/Instruments/record_player.png",231,67,231,0.7,"stim/14.jpeg",1,4,2,NA,"Instruments",2,2,"right","left",0.53000021,0,0,0,1,NA,NA,NA,NA,NA,NA,NA,NA,NA,NA,NA,NA,NA,NA,NA,NA,NA,NA,NA,NA,NA,NA,NA,NA
"96","stim/objects/HouseObjects/remote2.png",232,67,232,0.9,"stim/42.jpeg",4,2,3,NA,"HouseObjects",1,1,"left","left",0.562999964,1,1,0,1,NA,NA,NA,NA,NA,NA,NA,NA,NA,NA,NA,NA,NA,NA,NA,NA,NA,NA,NA,NA,NA,NA,NA,NA
"215","stim/objects/Instruments/panflute.png",233,67,233,0.7,"stim/11.jpeg",1,1,2,NA,"Instruments",2,1,"right","right",0.569000006,1,1,0,1,NA,NA,NA,NA,NA,NA,NA,NA,NA,NA,NA,NA,NA,NA,NA,NA,NA,NA,NA,NA,NA,NA,NA,NA
"71","stim/objects/HouseObjects/pitcher.png",234,67,234,0.5,"stim/64.jpeg",6,4,1,NA,"HouseObjects",1,3,"left","right",0.68599987,0,0,0,1,NA,NA,NA,NA,NA,NA,NA,NA,NA,NA,NA,NA,NA,NA,NA,NA,NA,NA,NA,NA,NA,NA,NA,NA
"180","stim/objects/Instruments/musicsheet2.png",235,67,235,0.9,"stim/32.jpeg",3,2,3,NA,"Instruments",2,3,"right","right",0.554000139,1,1,0,1,NA,NA,NA,NA,NA,NA,NA,NA,NA,NA,NA,NA,NA,NA,NA,NA,NA,NA,NA,NA,NA,NA,NA,NA
"17","stim/objects/HouseObjects/ironingboard.png",236,67,236,0.5,"stim/52.jpeg",5,2,1,NA,"HouseObjects",1,2,"left","left",0.490999937,1,1,0,1,NA,NA,NA,NA,NA,NA,NA,NA,NA,NA,NA,NA,NA,NA,NA,NA,NA,NA,NA,NA,NA,NA,NA,NA
"108","stim/objects/HouseObjects/rubbergloves2.png",237,67,237,0.9,"stim/43.jpeg",4,3,3,NA,"HouseObjects",1,4,"left","left",0.457000017,1,1,0,1,NA,NA,NA,NA,NA,NA,NA,NA,NA,NA,NA,NA,NA,NA,NA,NA,NA,NA,NA,NA,NA,NA,NA,NA
"141","stim/objects/Instruments/maraca.png",238,67,238,0.5,"stim/53.jpeg",5,3,1,NA,"Instruments",2,4,"right","left",0.614000082,0,0,0,1,NA,NA,NA,NA,NA,NA,NA,NA,NA,NA,NA,NA,NA,NA,NA,NA,NA,NA,NA,NA,NA,NA,NA,NA
"152","stim/objects/Instruments/marimba2.png",239,67,239,0.3,"stim/24.jpeg",2,4,2,NA,"Instruments",2,3,"right","left",0.434000015,0,0,0,1,NA,NA,NA,NA,NA,NA,NA,NA,NA,NA,NA,NA,NA,NA,NA,NA,NA,NA,NA,NA,NA,NA,NA,NA
"133","stim/objects/Instruments/laud.png",240,67,240,0.5,"stim/52.jpeg",5,2,1,NA,"Instruments",2,2,"right","left",0.474999905,0,0,0,1,NA,NA,NA,NA,NA,NA,NA,NA,NA,NA,NA,NA,NA,NA,NA,NA,NA,NA,NA,NA,NA,NA,NA,NA
"432","stim/objects/Instruments/clarinet2.png",248,67,241,0.3,"stim/21.jpeg",2,1,2,1,"Instruments",2,1,"right","",NA,0,0,1,0,36,67,1,0.3,2,"stim/21.jpeg",2,1,"stim/21.jpeg",1,"left",2.492999792,3,2,1.966999769,3,1.961999893,36,1,0,0,0,0,0
"393","stim/objects/HouseObjects/spraybottle2.png",249,67,242,0.9,"stim/44.jpeg",4,4,3,1,"HouseObjects",1,1,"left","left",0.56400013,1,1,1,0,99,67,1,0.9,1,"stim/44.jpeg",4,4,"stim/44.jpeg",1,"left",1.875999928,4,1,2.265999794,2,1.195999861,99,1,0,0,0,0,0
"448","stim/objects/Instruments/electricdrumset.png",250,67,243,0.7,"stim/12.jpeg",1,2,2,2,"Instruments",2,1,"right","right",0.588000059,1,1,1,0,NA,NA,NA,NA,NA,NA,NA,NA,NA,NA,NA,NA,NA,NA,NA,NA,NA,NA,NA,NA,NA,NA,NA,NA
"342","stim/objects/HouseObjects/garbagebin.png",251,67,244,0.9,"stim/44.jpeg",4,4,3,2,"HouseObjects",1,3,"left","left",0.414999962,1,1,1,0,NA,NA,NA,NA,NA,NA,NA,NA,NA,NA,NA,NA,NA,NA,NA,NA,NA,NA,NA,NA,NA,NA,NA,NA
"426","stim/objects/Instruments/cello2.png",252,67,245,0.3,"stim/23.jpeg",2,3,2,1,"Instruments",2,3,"right","left",0.434000015,0,0,1,0,55,67,1,0.3,2,"stim/23.jpeg",2,3,"stim/23.jpeg",3,"left",1.735999823,4,4,1.69299984,1,1.031999826,55,1,0,0,0,0,0
"309","stim/objects/HouseObjects/dustpan.png",253,67,246,0.9,"stim/43.jpeg",4,3,3,2,"HouseObjects",1,4,"left","left",0.555000067,1,1,1,0,NA,NA,NA,NA,NA,NA,NA,NA,NA,NA,NA,NA,NA,NA,NA,NA,NA,NA,NA,NA,NA,NA,NA,NA
"310","stim/objects/HouseObjects/dustpan.png",254,67,247,0.9,"stim/41.jpeg",4,1,3,2,"HouseObjects",1,2,"left","left",0.534000158,1,1,1,0,NA,NA,NA,NA,NA,NA,NA,NA,NA,NA,NA,NA,NA,NA,NA,NA,NA,NA,NA,NA,NA,NA,NA,NA
"286","stim/objects/HouseObjects/cushion2.png",255,67,248,0.7,"stim/24.jpeg",2,4,2,1,"HouseObjects",1,4,"left","right",0.677999973,0,0,1,0,57,67,1,0.7,1,"stim/24.jpeg",2,4,"stim/24.jpeg",4,"right",0.678999901,4,3,2.913999796,2,3.223999977,57,0,0,NA,0,NA,0
"473","stim/objects/Instruments/flutetrans.png",256,67,249,0.9,"stim/34.jpeg",3,4,3,2,"Instruments",2,4,"right","right",0.851000071,1,1,1,0,NA,NA,NA,NA,NA,NA,NA,NA,NA,NA,NA,NA,NA,NA,NA,NA,NA,NA,NA,NA,NA,NA,NA,NA
"244","stim/objects/HouseObjects/ballofstring.png",257,67,250,0.5,"stim/52.jpeg",5,2,1,2,"HouseObjects",1,2,"left","left",0.480999947,1,1,1,0,NA,NA,NA,NA,NA,NA,NA,NA,NA,NA,NA,NA,NA,NA,NA,NA,NA,NA,NA,NA,NA,NA,NA,NA
"343","stim/objects/HouseObjects/garbagebin.png",258,67,251,0.9,"stim/41.jpeg",4,1,3,2,"HouseObjects",1,2,"left","left",0.429999828,1,1,1,0,NA,NA,NA,NA,NA,NA,NA,NA,NA,NA,NA,NA,NA,NA,NA,NA,NA,NA,NA,NA,NA,NA,NA,NA
"435","stim/objects/Instruments/cornet2.png",259,67,252,0.3,"stim/22.jpeg",2,2,2,1,"Instruments",2,4,"right","left",0.592000008,0,0,1,0,43,67,1,0.3,2,"stim/22.jpeg",2,2,"stim/22.jpeg",4,"left",2.603999853,4,3,5.477999926,1,0.746999741,43,1,0,0,0,0,0
"397","stim/objects/HouseObjects/thermometer2.png",260,67,253,0.9,"stim/42.jpeg",4,2,3,1,"HouseObjects",1,1,"left","left",0.542999983,1,1,1,0,41,67,1,0.9,1,"stim/42.jpeg",4,2,"stim/42.jpeg",1,"left",4.232000113,4,2,2.302000046,4,1.575999737,41,1,1,1,0,0,0
"563","stim/objects/Instruments/tuba.png",261,67,254,0.7,"stim/13.jpeg",1,3,2,1,"Instruments",2,3,"right","right",0.545000076,1,1,1,0,166,67,1,0.7,2,"stim/13.jpeg",1,3,"stim/13.jpeg",3,"right",0.797999859,3,1,1.244999886,1,1.54399991,166,0,0,NA,0,NA,0
"344","stim/objects/HouseObjects/garbagebin.png",262,67,255,0.9,"stim/42.jpeg",4,2,3,2,"HouseObjects",1,4,"left","left",0.496999979,1,1,1,0,NA,NA,NA,NA,NA,NA,NA,NA,NA,NA,NA,NA,NA,NA,NA,NA,NA,NA,NA,NA,NA,NA,NA,NA
"360","stim/objects/HouseObjects/glass.png",263,67,256,0.9,"stim/42.jpeg",4,2,3,2,"HouseObjects",1,3,"left","left",0.513999939,1,1,1,0,NA,NA,NA,NA,NA,NA,NA,NA,NA,NA,NA,NA,NA,NA,NA,NA,NA,NA,NA,NA,NA,NA,NA,NA
"507","stim/objects/Instruments/gong.png",264,67,257,0.9,"stim/31.jpeg",3,1,3,2,"Instruments",2,4,"right","right",0.481999874,1,1,1,0,NA,NA,NA,NA,NA,NA,NA,NA,NA,NA,NA,NA,NA,NA,NA,NA,NA,NA,NA,NA,NA,NA,NA,NA
"474","stim/objects/Instruments/flutetrans.png",265,67,258,0.9,"stim/32.jpeg",3,2,3,2,"Instruments",2,1,"right","right",0.593000174,1,1,1,0,NA,NA,NA,NA,NA,NA,NA,NA,NA,NA,NA,NA,NA,NA,NA,NA,NA,NA,NA,NA,NA,NA,NA,NA
"264","stim/objects/HouseObjects/broom2.png",266,67,259,0.7,"stim/22.jpeg",2,2,2,1,"HouseObjects",1,4,"left","right",0.657999992,0,0,1,0,132,67,1,0.7,1,"stim/22.jpeg",2,2,"stim/22.jpeg",4,"left",0.917999983,4,3,2.49000001,3,1.069999695,132,1,0,0,0,0,0
"554","stim/objects/Instruments/tambourine2.png",267,67,260,0.1,"stim/44.jpeg",4,4,3,1,"Instruments",2,4,"right","left",0.50999999,0,0,1,0,51,67,1,0.1,2,"stim/44.jpeg",4,4,"stim/44.jpeg",4,"right",1.291999817,3,3,1.207000017,3,1.29399991,51,0,0,NA,0,NA,0
"256","stim/objects/HouseObjects/blender.png",268,67,261,0.5,"stim/63.jpeg",6,3,1,2,"HouseObjects",1,4,"left","right",0.753000021,0,0,1,0,NA,NA,NA,NA,NA,NA,NA,NA,NA,NA,NA,NA,NA,NA,NA,NA,NA,NA,NA,NA,NA,NA,NA,NA
"241","stim/objects/HouseObjects/ashtray.png",269,67,262,0.5,"stim/51.jpeg",5,1,1,2,"HouseObjects",1,3,"left","left",0.450999975,1,1,1,0,NA,NA,NA,NA,NA,NA,NA,NA,NA,NA,NA,NA,NA,NA,NA,NA,NA,NA,NA,NA,NA,NA,NA,NA
"326","stim/objects/HouseObjects/flyswatter.png",270,67,263,0.9,"stim/44.jpeg",4,4,3,2,"HouseObjects",1,3,"left","left",0.497999907,1,1,1,0,NA,NA,NA,NA,NA,NA,NA,NA,NA,NA,NA,NA,NA,NA,NA,NA,NA,NA,NA,NA,NA,NA,NA,NA
"525","stim/objects/Instruments/grandpiano.png",271,67,264,0.9,"stim/31.jpeg",3,1,3,2,"Instruments",2,2,"right","right",0.530999899,1,1,1,0,NA,NA,NA,NA,NA,NA,NA,NA,NA,NA,NA,NA,NA,NA,NA,NA,NA,NA,NA,NA,NA,NA,NA,NA
"547","stim/objects/Instruments/hihat.png",272,67,265,0.5,"stim/51.jpeg",5,1,1,1,"Instruments",2,2,"right","left",0.587000132,0,0,1,0,35,67,1,0.5,1,"stim/51.jpeg",5,1,"stim/51.jpeg",2,"right",1.611999989,3,4,4.684999704,1,2.667999744,35,0,0,NA,0,NA,0
"491","stim/objects/Instruments/frenchhorn.png",273,67,266,0.9,"stim/31.jpeg",3,1,3,2,"Instruments",2,2,"right","right",0.671000004,1,1,1,0,NA,NA,NA,NA,NA,NA,NA,NA,NA,NA,NA,NA,NA,NA,NA,NA,NA,NA,NA,NA,NA,NA,NA,NA
"456","stim/objects/Instruments/flute.png",274,67,267,0.9,"stim/33.jpeg",3,3,3,2,"Instruments",2,1,"right","right",0.532000065,1,1,1,0,NA,NA,NA,NA,NA,NA,NA,NA,NA,NA,NA,NA,NA,NA,NA,NA,NA,NA,NA,NA,NA,NA,NA,NA
"249","stim/objects/HouseObjects/barbecuelighter2.png",275,67,268,0.3,"stim/14.jpeg",1,4,2,1,"HouseObjects",1,3,"left","left",0.781999826,1,1,1,0,141,67,1,0.3,1,"stim/14.jpeg",1,4,"stim/14.jpeg",3,"left",1.145999908,4,4,1.937999964,1,3.694999933,141,1,1,1,0,0,0
"292","stim/objects/HouseObjects/doormat.png",276,67,269,0.9,"stim/42.jpeg",4,2,3,2,"HouseObjects",1,1,"left","left",0.542000055,1,1,1,0,NA,NA,NA,NA,NA,NA,NA,NA,NA,NA,NA,NA,NA,NA,NA,NA,NA,NA,NA,NA,NA,NA,NA,NA
"421","stim/objects/Instruments/bassguitar.png",277,67,270,0.5,"stim/62.jpeg",6,2,1,2,"Instruments",2,4,"right","left",0.592000008,0,0,1,0,NA,NA,NA,NA,NA,NA,NA,NA,NA,NA,NA,NA,NA,NA,NA,NA,NA,NA,NA,NA,NA,NA,NA,NA
"406","stim/objects/Instruments/accordion.png",278,67,271,0.5,"stim/51.jpeg",5,1,1,2,"Instruments",2,2,"right","left",0.496999979,0,0,1,0,NA,NA,NA,NA,NA,NA,NA,NA,NA,NA,NA,NA,NA,NA,NA,NA,NA,NA,NA,NA,NA,NA,NA,NA
"509","stim/objects/Instruments/gong.png",279,67,272,0.9,"stim/33.jpeg",3,3,3,2,"Instruments",2,3,"right","right",0.582000017,1,1,1,0,NA,NA,NA,NA,NA,NA,NA,NA,NA,NA,NA,NA,NA,NA,NA,NA,NA,NA,NA,NA,NA,NA,NA,NA
"405","stim/objects/HouseObjects/wateringcan2.png",280,67,273,0.9,"stim/42.jpeg",4,2,3,1,"HouseObjects",1,4,"left","right",0.319000006,0,0,1,0,195,67,1,0.9,1,"stim/42.jpeg",4,2,"stim/42.jpeg",4,"right",0.595999956,4,3,1.762000084,4,1.573999882,195,0,0,NA,1,NA,0
"399","stim/objects/HouseObjects/thread2.png",281,67,274,0.9,"stim/43.jpeg",4,3,3,1,"HouseObjects",1,3,"left","left",0.415999889,1,1,1,0,74,67,1,0.9,1,"stim/43.jpeg",4,3,"stim/43.jpeg",3,"left",1.318000078,4,4,2.263000011,1,6.338999748,74,1,0,0,0,0,0
"510","stim/objects/Instruments/gong.png",282,67,275,0.9,"stim/31.jpeg",3,1,3,2,"Instruments",2,3,"right","right",0.499000072,1,1,1,0,NA,NA,NA,NA,NA,NA,NA,NA,NA,NA,NA,NA,NA,NA,NA,NA,NA,NA,NA,NA,NA,NA,NA,NA
"444","stim/objects/Instruments/drums.png",283,67,276,0.7,"stim/13.jpeg",1,3,2,2,"Instruments",2,2,"right","left",0.700999975,0,0,1,0,NA,NA,NA,NA,NA,NA,NA,NA,NA,NA,NA,NA,NA,NA,NA,NA,NA,NA,NA,NA,NA,NA,NA,NA
"328","stim/objects/HouseObjects/flyswatter.png",284,67,277,0.9,"stim/44.jpeg",4,4,3,2,"HouseObjects",1,3,"left","left",0.643000126,1,1,1,0,NA,NA,NA,NA,NA,NA,NA,NA,NA,NA,NA,NA,NA,NA,NA,NA,NA,NA,NA,NA,NA,NA,NA,NA
"362","stim/objects/HouseObjects/glass.png",285,67,278,0.9,"stim/43.jpeg",4,3,3,2,"HouseObjects",1,3,"left","left",0.457999945,1,1,1,0,NA,NA,NA,NA,NA,NA,NA,NA,NA,NA,NA,NA,NA,NA,NA,NA,NA,NA,NA,NA,NA,NA,NA,NA
"346","stim/objects/HouseObjects/garbagebin.png",286,67,279,0.9,"stim/42.jpeg",4,2,3,2,"HouseObjects",1,1,"left","left",0.486999989,1,1,1,0,NA,NA,NA,NA,NA,NA,NA,NA,NA,NA,NA,NA,NA,NA,NA,NA,NA,NA,NA,NA,NA,NA,NA,NA
"311","stim/objects/HouseObjects/dustpan.png",287,67,280,0.9,"stim/44.jpeg",4,4,3,2,"HouseObjects",1,1,"left","left",0.404000044,1,1,1,0,NA,NA,NA,NA,NA,NA,NA,NA,NA,NA,NA,NA,NA,NA,NA,NA,NA,NA,NA,NA,NA,NA,NA,NA
"511","stim/objects/Instruments/gong.png",288,67,281,0.9,"stim/33.jpeg",3,3,3,2,"Instruments",2,3,"right","right",0.601000071,1,1,1,0,NA,NA,NA,NA,NA,NA,NA,NA,NA,NA,NA,NA,NA,NA,NA,NA,NA,NA,NA,NA,NA,NA,NA,NA
"492","stim/objects/Instruments/frenchhorn.png",289,67,282,0.9,"stim/31.jpeg",3,1,3,2,"Instruments",2,2,"right","right",0.464999914,1,1,1,0,NA,NA,NA,NA,NA,NA,NA,NA,NA,NA,NA,NA,NA,NA,NA,NA,NA,NA,NA,NA,NA,NA,NA,NA
"559","stim/objects/Instruments/trombone.png",290,67,283,0.5,"stim/64.jpeg",6,4,1,1,"Instruments",2,1,"right","left",0.535000086,0,0,1,0,137,67,1,0.5,2,"stim/64.jpeg",6,4,"stim/64.jpeg",1,"right",0.731999874,3,1,1.276999712,3,1.796999693,137,0,0,NA,0,NA,0
"475","stim/objects/Instruments/flutetrans.png",291,67,284,0.9,"stim/32.jpeg",3,2,3,2,"Instruments",2,1,"right","right",0.503999949,1,1,1,0,NA,NA,NA,NA,NA,NA,NA,NA,NA,NA,NA,NA,NA,NA,NA,NA,NA,NA,NA,NA,NA,NA,NA,NA
"389","stim/objects/HouseObjects/scale2.png",292,67,285,0.9,"stim/42.jpeg",4,2,3,1,"HouseObjects",1,4,"left","left",0.51699996,1,1,1,0,46,67,1,0.9,1,"stim/42.jpeg",4,2,"stim/42.jpeg",4,"left",2.578999996,3,4,2.665999889,2,1.809000015,46,1,0,0,0,0,0
"402","stim/objects/HouseObjects/vacuumcleaner.png",293,67,286,0.3,"stim/14.jpeg",1,4,2,1,"HouseObjects",1,1,"left","right",0.502000093,0,0,1,0,40,67,1,0.3,1,"stim/14.jpeg",1,4,"stim/14.jpeg",1,"right",1.335999966,2,3,1.664999962,4,3.220999956,40,0,0,NA,0,NA,0
"476","stim/objects/Instruments/flutetrans.png",294,67,287,0.9,"stim/31.jpeg",3,1,3,2,"Instruments",2,4,"right","right",0.559999943,1,1,1,0,NA,NA,NA,NA,NA,NA,NA,NA,NA,NA,NA,NA,NA,NA,NA,NA,NA,NA,NA,NA,NA,NA,NA,NA
"279","stim/objects/HouseObjects/coffee.png",295,67,288,0.7,"stim/23.jpeg",2,3,2,2,"HouseObjects",1,3,"left","left",0.516000032,1,1,1,0,NA,NA,NA,NA,NA,NA,NA,NA,NA,NA,NA,NA,NA,NA,NA,NA,NA,NA,NA,NA,NA,NA,NA,NA
"457","stim/objects/Instruments/flute.png",296,67,289,0.9,"stim/32.jpeg",3,2,3,2,"Instruments",2,4,"right","right",0.453999996,1,1,1,0,NA,NA,NA,NA,NA,NA,NA,NA,NA,NA,NA,NA,NA,NA,NA,NA,NA,NA,NA,NA,NA,NA,NA,NA
"382","stim/objects/HouseObjects/handvacuum.png",297,67,290,0.5,"stim/52.jpeg",5,2,1,1,"HouseObjects",1,4,"left","left",0.713999987,1,1,1,0,49,67,1,0.5,1,"stim/52.jpeg",5,2,"stim/52.jpeg",4,"right",1.017999887,3,1,1.484999895,4,1.659999847,49,0,0,NA,1,NA,0
"312","stim/objects/HouseObjects/dustpan.png",298,67,291,0.9,"stim/43.jpeg",4,3,3,2,"HouseObjects",1,4,"left","left",0.453000069,1,1,1,0,NA,NA,NA,NA,NA,NA,NA,NA,NA,NA,NA,NA,NA,NA,NA,NA,NA,NA,NA,NA,NA,NA,NA,NA
"280","stim/objects/HouseObjects/coffee.png",299,67,292,0.7,"stim/24.jpeg",2,4,2,2,"HouseObjects",1,4,"left","left",0.477999926,1,1,1,0,NA,NA,NA,NA,NA,NA,NA,NA,NA,NA,NA,NA,NA,NA,NA,NA,NA,NA,NA,NA,NA,NA,NA,NA
"409","stim/objects/Instruments/acousticguitar.png",300,67,293,0.5,"stim/52.jpeg",5,2,1,2,"Instruments",2,1,"right","left",0.585000038,0,0,1,0,NA,NA,NA,NA,NA,NA,NA,NA,NA,NA,NA,NA,NA,NA,NA,NA,NA,NA,NA,NA,NA,NA,NA,NA
"313","stim/objects/HouseObjects/dustpan.png",301,67,294,0.9,"stim/42.jpeg",4,2,3,2,"HouseObjects",1,1,"left","left",0.460000038,1,1,1,0,NA,NA,NA,NA,NA,NA,NA,NA,NA,NA,NA,NA,NA,NA,NA,NA,NA,NA,NA,NA,NA,NA,NA,NA
"565","stim/objects/Instruments/violin.png",302,67,295,0.7,"stim/14.jpeg",1,4,2,1,"Instruments",2,2,"right","right",0.638999939,1,1,1,0,60,67,1,0.7,2,"stim/14.jpeg",1,4,"stim/14.jpeg",2,"right",0.653999805,4,1,2.378000021,2,2.383999825,60,0,0,NA,1,NA,0
"424","stim/objects/Instruments/cello.png",303,67,296,0.5,"stim/64.jpeg",6,4,1,2,"Instruments",2,4,"right","right",0.654999971,1,1,1,0,NA,NA,NA,NA,NA,NA,NA,NA,NA,NA,NA,NA,NA,NA,NA,NA,NA,NA,NA,NA,NA,NA,NA,NA
"348","stim/objects/HouseObjects/garbagebin.png",304,67,297,0.9,"stim/44.jpeg",4,4,3,2,"HouseObjects",1,3,"left","left",0.447000027,1,1,1,0,NA,NA,NA,NA,NA,NA,NA,NA,NA,NA,NA,NA,NA,NA,NA,NA,NA,NA,NA,NA,NA,NA,NA,NA
"270","stim/objects/HouseObjects/clock2.png",305,67,298,0.7,"stim/24.jpeg",2,4,2,1,"HouseObjects",1,3,"left","left",0.4599998,1,1,1,0,107,67,1,0.7,1,"stim/24.jpeg",2,4,"stim/24.jpeg",3,"right",1.305000067,2,3,1.956999779,2,2.287999868,107,0,0,NA,0,NA,0
"257","stim/objects/HouseObjects/blender.png",306,67,299,0.5,"stim/64.jpeg",6,4,1,2,"HouseObjects",1,1,"left","left",0.549000025,1,1,1,0,NA,NA,NA,NA,NA,NA,NA,NA,NA,NA,NA,NA,NA,NA,NA,NA,NA,NA,NA,NA,NA,NA,NA,NA
"527","stim/objects/Instruments/grandpiano.png",307,67,300,0.9,"stim/31.jpeg",3,1,3,2,"Instruments",2,2,"right","right",0.577000141,1,1,1,0,NA,NA,NA,NA,NA,NA,NA,NA,NA,NA,NA,NA,NA,NA,NA,NA,NA,NA,NA,NA,NA,NA,NA,NA
"553","stim/objects/Instruments/tambourine.png",308,67,301,0.5,"stim/61.jpeg",6,1,1,1,"Instruments",2,2,"right","right",0.828999996,1,1,1,0,76,67,1,0.5,2,"stim/61.jpeg",6,1,"stim/61.jpeg",2,"left",1.164000034,4,2,14.86999989,3,3.117000103,76,1,0,0,0,0,0
"265","stim/objects/HouseObjects/bucket.png",309,67,302,0.5,"stim/63.jpeg",6,3,1,2,"HouseObjects",1,2,"left","left",0.812000036,1,1,1,0,NA,NA,NA,NA,NA,NA,NA,NA,NA,NA,NA,NA,NA,NA,NA,NA,NA,NA,NA,NA,NA,NA,NA,NA
"380","stim/objects/HouseObjects/handbrush.png",310,67,303,0.5,"stim/51.jpeg",5,1,1,1,"HouseObjects",1,1,"left","left",0.85800004,1,1,1,0,125,67,1,0.5,1,"stim/51.jpeg",5,1,"stim/51.jpeg",1,"right",1.626999855,1,3,1.927999735,2,1.337000132,125,0,0,NA,0,NA,0
"293","stim/objects/HouseObjects/doormat.png",311,67,304,0.9,"stim/44.jpeg",4,4,3,2,"HouseObjects",1,4,"left","left",0.514000177,1,1,1,0,NA,NA,NA,NA,NA,NA,NA,NA,NA,NA,NA,NA,NA,NA,NA,NA,NA,NA,NA,NA,NA,NA,NA,NA
"387","stim/objects/HouseObjects/saw2.png",312,67,305,0.9,"stim/41.jpeg",4,1,3,1,"HouseObjects",1,3,"left","left",0.541999817,1,1,1,0,24,67,1,0.9,1,"stim/41.jpeg",4,1,"stim/41.jpeg",3,"right",0.825999975,3,3,1.389999866,1,1.581999779,24,0,0,NA,0,NA,0
"281","stim/objects/HouseObjects/coffee.png",313,67,306,0.7,"stim/21.jpeg",2,1,2,2,"HouseObjects",1,3,"left","left",0.667999983,1,1,1,0,NA,NA,NA,NA,NA,NA,NA,NA,NA,NA,NA,NA,NA,NA,NA,NA,NA,NA,NA,NA,NA,NA,NA,NA
"315","stim/objects/HouseObjects/dustpan.png",314,67,307,0.9,"stim/41.jpeg",4,1,3,2,"HouseObjects",1,2,"left","left",0.556999922,1,1,1,0,NA,NA,NA,NA,NA,NA,NA,NA,NA,NA,NA,NA,NA,NA,NA,NA,NA,NA,NA,NA,NA,NA,NA,NA
"477","stim/objects/Instruments/flutetrans.png",315,67,308,0.9,"stim/34.jpeg",3,4,3,2,"Instruments",2,3,"right","right",0.634000063,1,1,1,0,NA,NA,NA,NA,NA,NA,NA,NA,NA,NA,NA,NA,NA,NA,NA,NA,NA,NA,NA,NA,NA,NA,NA,NA
"417","stim/objects/Instruments/banjo2.png",316,67,309,0.7,"stim/12.jpeg",1,2,2,1,"Instruments",2,2,"right","left",0.702000141,0,0,1,0,136,67,1,0.7,2,"stim/12.jpeg",1,2,"stim/12.jpeg",2,"right",1.400000095,3,3,1.687999964,1,0.790999889,136,0,0,NA,0,NA,0
"275","stim/objects/HouseObjects/clothespin.png",317,67,310,0.7,"stim/24.jpeg",2,4,2,2,"HouseObjects",1,3,"left","left",0.443000078,1,1,1,0,NA,NA,NA,NA,NA,NA,NA,NA,NA,NA,NA,NA,NA,NA,NA,NA,NA,NA,NA,NA,NA,NA,NA,NA
"545","stim/objects/Instruments/harp.png",318,67,311,0.5,"stim/54.jpeg",5,4,1,1,"Instruments",2,4,"right","right",0.679000139,1,1,1,0,81,67,1,0.5,1,"stim/54.jpeg",5,4,"stim/54.jpeg",4,"right",1.065000057,3,1,4.503999949,3,2.323999882,81,0,0,NA,0,NA,0
"460","stim/objects/Instruments/flute.png",319,67,312,0.9,"stim/34.jpeg",3,4,3,2,"Instruments",2,4,"right","right",0.515000105,1,1,1,0,NA,NA,NA,NA,NA,NA,NA,NA,NA,NA,NA,NA,NA,NA,NA,NA,NA,NA,NA,NA,NA,NA,NA,NA
"528","stim/objects/Instruments/grandpiano.png",320,67,313,0.9,"stim/32.jpeg",3,2,3,2,"Instruments",2,3,"right","left",0.436000109,0,0,1,0,NA,NA,NA,NA,NA,NA,NA,NA,NA,NA,NA,NA,NA,NA,NA,NA,NA,NA,NA,NA,NA,NA,NA,NA
"434","stim/objects/Instruments/cornet.png",321,67,314,0.5,"stim/63.jpeg",6,3,1,2,"Instruments",2,1,"right","right",0.702000141,1,1,1,0,NA,NA,NA,NA,NA,NA,NA,NA,NA,NA,NA,NA,NA,NA,NA,NA,NA,NA,NA,NA,NA,NA,NA,NA
"276","stim/objects/HouseObjects/clothespin.png",322,67,315,0.7,"stim/23.jpeg",2,3,2,2,"HouseObjects",1,2,"left","left",0.529999971,1,1,1,0,NA,NA,NA,NA,NA,NA,NA,NA,NA,NA,NA,NA,NA,NA,NA,NA,NA,NA,NA,NA,NA,NA,NA,NA
"330","stim/objects/HouseObjects/flyswatter.png",323,67,316,0.9,"stim/43.jpeg",4,3,3,2,"HouseObjects",1,1,"left","left",0.495999813,1,1,1,0,NA,NA,NA,NA,NA,NA,NA,NA,NA,NA,NA,NA,NA,NA,NA,NA,NA,NA,NA,NA,NA,NA,NA,NA
"316","stim/objects/HouseObjects/dustpan.png",324,67,317,0.9,"stim/41.jpeg",4,1,3,2,"HouseObjects",1,2,"left","left",0.444000006,1,1,1,0,NA,NA,NA,NA,NA,NA,NA,NA,NA,NA,NA,NA,NA,NA,NA,NA,NA,NA,NA,NA,NA,NA,NA,NA
"396","stim/objects/HouseObjects/thermometer.png",325,67,318,0.3,"stim/11.jpeg",1,1,2,1,"HouseObjects",1,1,"left","right",0.479000092,0,0,1,0,192,67,1,0.3,1,"stim/11.jpeg",1,1,"stim/11.jpeg",1,"right",0.740999937,4,3,1.819999933,1,2.633999825,192,0,0,NA,1,NA,0
"551","stim/objects/Instruments/speaker.png",326,67,319,0.5,"stim/64.jpeg",6,4,1,1,"Instruments",2,1,"right","right",0.648000002,1,1,1,0,4,67,1,0.5,2,"stim/64.jpeg",6,4,"stim/64.jpeg",1,"left",1.469000101,4,3,2.946999788,1,4.41899991,4,1,0,0,1,1,0
"331","stim/objects/HouseObjects/flyswatter.png",327,67,320,0.9,"stim/43.jpeg",4,3,3,2,"HouseObjects",1,4,"left","left",0.481999874,1,1,1,0,NA,NA,NA,NA,NA,NA,NA,NA,NA,NA,NA,NA,NA,NA,NA,NA,NA,NA,NA,NA,NA,NA,NA,NA
"439","stim/objects/Instruments/cymbal2.png",328,67,321,0.3,"stim/23.jpeg",2,3,2,1,"Instruments",2,4,"right","left",0.523000002,0,0,1,0,117,67,1,0.3,2,"stim/23.jpeg",2,3,"stim/23.jpeg",4,"right",0.736999989,4,2,2.450999975,4,1.536999702,117,0,0,NA,1,NA,0
"287","stim/objects/HouseObjects/dishsoap.png",329,67,322,0.7,"stim/23.jpeg",2,3,2,2,"HouseObjects",1,1,"left","left",0.496999979,1,1,1,0,NA,NA,NA,NA,NA,NA,NA,NA,NA,NA,NA,NA,NA,NA,NA,NA,NA,NA,NA,NA,NA,NA,NA,NA
"549","stim/objects/Instruments/saxophone.png",330,67,323,0.5,"stim/52.jpeg",5,2,1,1,"Instruments",2,2,"right","left",0.648999929,0,0,1,0,169,67,1,0.5,1,"stim/52.jpeg",5,2,"stim/52.jpeg",2,"right",0.819999933,4,3,1.924000025,4,2.710999966,169,0,0,NA,0,NA,0
"259","stim/objects/HouseObjects/bottle.png",331,67,324,0.5,"stim/64.jpeg",6,4,1,2,"HouseObjects",1,3,"left","right",0.595000029,0,0,1,0,NA,NA,NA,NA,NA,NA,NA,NA,NA,NA,NA,NA,NA,NA,NA,NA,NA,NA,NA,NA,NA,NA,NA,NA
"529","stim/objects/Instruments/grandpiano.png",332,67,325,0.9,"stim/33.jpeg",3,3,3,2,"Instruments",2,2,"right","right",0.644000053,1,1,1,0,NA,NA,NA,NA,NA,NA,NA,NA,NA,NA,NA,NA,NA,NA,NA,NA,NA,NA,NA,NA,NA,NA,NA,NA
"363","stim/objects/HouseObjects/glass.png",333,67,326,0.9,"stim/44.jpeg",4,4,3,2,"HouseObjects",1,4,"left","",NA,0,0,1,0,NA,NA,NA,NA,NA,NA,NA,NA,NA,NA,NA,NA,NA,NA,NA,NA,NA,NA,NA,NA,NA,NA,NA,NA
"349","stim/objects/HouseObjects/garbagebin.png",334,67,327,0.9,"stim/41.jpeg",4,1,3,2,"HouseObjects",1,4,"left","left",0.445000172,1,1,1,0,NA,NA,NA,NA,NA,NA,NA,NA,NA,NA,NA,NA,NA,NA,NA,NA,NA,NA,NA,NA,NA,NA,NA,NA
"294","stim/objects/HouseObjects/doormat.png",335,67,328,0.9,"stim/41.jpeg",4,1,3,2,"HouseObjects",1,4,"left","left",0.443000078,1,1,1,0,NA,NA,NA,NA,NA,NA,NA,NA,NA,NA,NA,NA,NA,NA,NA,NA,NA,NA,NA,NA,NA,NA,NA,NA
"364","stim/objects/HouseObjects/glass.png",336,67,329,0.9,"stim/41.jpeg",4,1,3,2,"HouseObjects",1,4,"left","left",0.407999992,1,1,1,0,NA,NA,NA,NA,NA,NA,NA,NA,NA,NA,NA,NA,NA,NA,NA,NA,NA,NA,NA,NA,NA,NA,NA,NA
"347","stim/objects/HouseObjects/garbagebin.png",337,67,330,0.9,"stim/41.jpeg",4,1,3,2,"HouseObjects",1,3,"left","left",0.506999969,1,1,1,0,NA,NA,NA,NA,NA,NA,NA,NA,NA,NA,NA,NA,NA,NA,NA,NA,NA,NA,NA,NA,NA,NA,NA,NA
"350","stim/objects/HouseObjects/garbagebin.png",338,67,331,0.9,"stim/44.jpeg",4,4,3,2,"HouseObjects",1,1,"left","left",0.541000128,1,1,1,0,NA,NA,NA,NA,NA,NA,NA,NA,NA,NA,NA,NA,NA,NA,NA,NA,NA,NA,NA,NA,NA,NA,NA,NA
"567","stim/objects/Instruments/vuvuzela.png",339,67,332,0.7,"stim/11.jpeg",1,1,2,1,"Instruments",2,2,"right","right",0.503999949,1,1,1,0,5,67,1,0.7,2,"stim/11.jpeg",1,1,"stim/11.jpeg",2,"left",2.409999847,3,1,3.462999821,3,2.914000034,5,1,1,1,0,0,0
"493","stim/objects/Instruments/frenchhorn.png",340,67,333,0.9,"stim/32.jpeg",3,2,3,2,"Instruments",2,1,"right","right",0.559999943,1,1,1,0,NA,NA,NA,NA,NA,NA,NA,NA,NA,NA,NA,NA,NA,NA,NA,NA,NA,NA,NA,NA,NA,NA,NA,NA
"548","stim/objects/Instruments/hihat2.png",341,67,334,0.9,"stim/33.jpeg",3,3,3,1,"Instruments",2,3,"right","right",0.611999989,1,1,1,0,64,67,1,0.9,2,"stim/33.jpeg",3,3,"stim/33.jpeg",3,"right",1.253999949,4,2,1.566999912,4,1.582999945,64,0,0,NA,0,NA,0
"329","stim/objects/HouseObjects/flyswatter.png",342,67,335,0.9,"stim/41.jpeg",4,1,3,2,"HouseObjects",1,1,"left","left",0.558000088,1,1,1,0,NA,NA,NA,NA,NA,NA,NA,NA,NA,NA,NA,NA,NA,NA,NA,NA,NA,NA,NA,NA,NA,NA,NA,NA
"284","stim/objects/HouseObjects/cushion.png",343,67,336,0.7,"stim/22.jpeg",2,2,2,2,"HouseObjects",1,3,"left","left",0.613999844,1,1,1,0,NA,NA,NA,NA,NA,NA,NA,NA,NA,NA,NA,NA,NA,NA,NA,NA,NA,NA,NA,NA,NA,NA,NA,NA
"494","stim/objects/Instruments/frenchhorn.png",344,67,337,0.9,"stim/32.jpeg",3,2,3,2,"Instruments",2,4,"right","right",0.480999947,1,1,1,0,NA,NA,NA,NA,NA,NA,NA,NA,NA,NA,NA,NA,NA,NA,NA,NA,NA,NA,NA,NA,NA,NA,NA,NA
"247","stim/objects/HouseObjects/barbecuelighter.png",345,67,338,0.5,"stim/53.jpeg",5,3,1,2,"HouseObjects",1,1,"left","left",0.629000187,1,1,1,0,NA,NA,NA,NA,NA,NA,NA,NA,NA,NA,NA,NA,NA,NA,NA,NA,NA,NA,NA,NA,NA,NA,NA,NA
"263","stim/objects/HouseObjects/broom.png",346,67,339,0.5,"stim/62.jpeg",6,2,1,2,"HouseObjects",1,2,"left","left",0.665999889,1,1,1,0,NA,NA,NA,NA,NA,NA,NA,NA,NA,NA,NA,NA,NA,NA,NA,NA,NA,NA,NA,NA,NA,NA,NA,NA
"242","stim/objects/HouseObjects/ashtray.png",347,67,340,0.5,"stim/52.jpeg",5,2,1,2,"HouseObjects",1,3,"left","right",0.773999929,0,0,1,0,NA,NA,NA,NA,NA,NA,NA,NA,NA,NA,NA,NA,NA,NA,NA,NA,NA,NA,NA,NA,NA,NA,NA,NA
"495","stim/objects/Instruments/frenchhorn.png",348,67,341,0.9,"stim/33.jpeg",3,3,3,2,"Instruments",2,1,"right","right",0.487999916,1,1,1,0,NA,NA,NA,NA,NA,NA,NA,NA,NA,NA,NA,NA,NA,NA,NA,NA,NA,NA,NA,NA,NA,NA,NA,NA
"261","stim/objects/HouseObjects/bottle2.png",349,67,342,0.7,"stim/21.jpeg",2,1,2,1,"HouseObjects",1,1,"left","left",0.493000031,1,1,1,0,104,67,1,0.7,1,"stim/21.jpeg",2,1,"stim/21.jpeg",1,"right",1.176000118,4,4,4.164999723,3,2.167000055,104,0,0,NA,0,NA,0
"546","stim/objects/Instruments/harp2.png",350,67,343,0.9,"stim/32.jpeg",3,2,3,1,"Instruments",2,1,"right","right",0.42599988,1,1,1,0,152,67,1,0.9,2,"stim/32.jpeg",3,2,"stim/32.jpeg",1,"right",2.174000025,4,4,1.392999887,1,1.64199996,152,0,0,NA,1,NA,0
"333","stim/objects/HouseObjects/flyswatter.png",351,67,344,0.9,"stim/43.jpeg",4,3,3,2,"HouseObjects",1,1,"left","left",0.48300004,1,1,1,0,NA,NA,NA,NA,NA,NA,NA,NA,NA,NA,NA,NA,NA,NA,NA,NA,NA,NA,NA,NA,NA,NA,NA,NA
"436","stim/objects/Instruments/cymbal.png",352,67,345,0.7,"stim/14.jpeg",1,4,2,2,"Instruments",2,2,"right","right",0.663000107,1,1,1,0,NA,NA,NA,NA,NA,NA,NA,NA,NA,NA,NA,NA,NA,NA,NA,NA,NA,NA,NA,NA,NA,NA,NA,NA
"317","stim/objects/HouseObjects/dustpan.png",353,67,346,0.9,"stim/42.jpeg",4,2,3,2,"HouseObjects",1,4,"left","left",0.555999994,1,1,1,0,NA,NA,NA,NA,NA,NA,NA,NA,NA,NA,NA,NA,NA,NA,NA,NA,NA,NA,NA,NA,NA,NA,NA,NA
"260","stim/objects/HouseObjects/bottle.png",354,67,347,0.5,"stim/61.jpeg",6,1,1,2,"HouseObjects",1,2,"left","right",0.746999979,0,0,1,0,NA,NA,NA,NA,NA,NA,NA,NA,NA,NA,NA,NA,NA,NA,NA,NA,NA,NA,NA,NA,NA,NA,NA,NA
"334","stim/objects/HouseObjects/flyswatter.png",355,67,348,0.9,"stim/41.jpeg",4,1,3,2,"HouseObjects",1,1,"left","left",0.483999968,1,1,1,0,NA,NA,NA,NA,NA,NA,NA,NA,NA,NA,NA,NA,NA,NA,NA,NA,NA,NA,NA,NA,NA,NA,NA,NA
"365","stim/objects/HouseObjects/glass.png",356,67,349,0.9,"stim/41.jpeg",4,1,3,2,"HouseObjects",1,4,"left","left",0.476999998,1,1,1,0,NA,NA,NA,NA,NA,NA,NA,NA,NA,NA,NA,NA,NA,NA,NA,NA,NA,NA,NA,NA,NA,NA,NA,NA
"449","stim/objects/Instruments/electricdrumset.png",357,67,350,0.7,"stim/14.jpeg",1,4,2,2,"Instruments",2,2,"right","left",0.703999996,0,0,1,0,NA,NA,NA,NA,NA,NA,NA,NA,NA,NA,NA,NA,NA,NA,NA,NA,NA,NA,NA,NA,NA,NA,NA,NA
"530","stim/objects/Instruments/grandpiano.png",358,67,351,0.9,"stim/32.jpeg",3,2,3,2,"Instruments",2,1,"right","right",0.522000074,1,1,1,0,NA,NA,NA,NA,NA,NA,NA,NA,NA,NA,NA,NA,NA,NA,NA,NA,NA,NA,NA,NA,NA,NA,NA,NA
"395","stim/objects/HouseObjects/teapot2.png",359,67,352,0.9,"stim/41.jpeg",4,1,3,1,"HouseObjects",1,4,"left","left",0.622000217,1,1,1,0,181,67,1,0.9,1,"stim/41.jpeg",4,1,"stim/41.jpeg",4,"right",0.557999849,2,1,1.356999874,3,1.016000032,181,0,1,NA,0,NA,0
"366","stim/objects/HouseObjects/glass.png",360,67,353,0.9,"stim/43.jpeg",4,3,3,2,"HouseObjects",1,4,"left","left",0.48300004,1,1,1,0,NA,NA,NA,NA,NA,NA,NA,NA,NA,NA,NA,NA,NA,NA,NA,NA,NA,NA,NA,NA,NA,NA,NA,NA
"400","stim/objects/HouseObjects/towel.png",361,67,354,0.3,"stim/13.jpeg",1,3,2,1,"HouseObjects",1,1,"left","right",0.569000006,0,0,1,0,18,67,1,0.3,1,"stim/13.jpeg",1,3,"stim/13.jpeg",1,"right",1.265000105,2,4,1.911000013,3,1.595999956,18,0,0,NA,0,NA,0
"324","stim/objects/HouseObjects/dustpan2.png",362,67,355,0.1,"stim/32.jpeg",3,2,3,1,"HouseObjects",1,2,"left","right",0.667999983,0,0,1,0,12,67,1,0.1,1,"stim/32.jpeg",3,2,"stim/32.jpeg",2,"right",2.30099988,3,1,3.092000008,3,1.855000019,12,0,0,NA,0,NA,0
"462","stim/objects/Instruments/flute.png",363,67,356,0.9,"stim/33.jpeg",3,3,3,2,"Instruments",2,1,"right","right",0.486999989,1,1,1,0,NA,NA,NA,NA,NA,NA,NA,NA,NA,NA,NA,NA,NA,NA,NA,NA,NA,NA,NA,NA,NA,NA,NA,NA
"295","stim/objects/HouseObjects/doormat.png",364,67,357,0.9,"stim/44.jpeg",4,4,3,2,"HouseObjects",1,1,"left","left",0.57400012,1,1,1,0,NA,NA,NA,NA,NA,NA,NA,NA,NA,NA,NA,NA,NA,NA,NA,NA,NA,NA,NA,NA,NA,NA,NA,NA
"296","stim/objects/HouseObjects/doormat.png",365,67,358,0.9,"stim/43.jpeg",4,3,3,2,"HouseObjects",1,1,"left","left",0.588999987,1,1,1,0,NA,NA,NA,NA,NA,NA,NA,NA,NA,NA,NA,NA,NA,NA,NA,NA,NA,NA,NA,NA,NA,NA,NA,NA
"351","stim/objects/HouseObjects/garbagebin.png",366,67,359,0.9,"stim/44.jpeg",4,4,3,2,"HouseObjects",1,3,"left","left",0.457999945,1,1,1,0,NA,NA,NA,NA,NA,NA,NA,NA,NA,NA,NA,NA,NA,NA,NA,NA,NA,NA,NA,NA,NA,NA,NA,NA
"335","stim/objects/HouseObjects/flyswatter.png",367,67,360,0.9,"stim/44.jpeg",4,4,3,2,"HouseObjects",1,3,"left","left",0.430999994,1,1,1,0,NA,NA,NA,NA,NA,NA,NA,NA,NA,NA,NA,NA,NA,NA,NA,NA,NA,NA,NA,NA,NA,NA,NA,NA
"513","stim/objects/Instruments/gong.png",368,67,361,0.9,"stim/34.jpeg",3,4,3,2,"Instruments",2,4,"right","right",0.430999994,1,1,1,0,NA,NA,NA,NA,NA,NA,NA,NA,NA,NA,NA,NA,NA,NA,NA,NA,NA,NA,NA,NA,NA,NA,NA,NA
"308","stim/objects/HouseObjects/dustpan.png",369,67,362,0.9,"stim/42.jpeg",4,2,3,2,"HouseObjects",1,3,"left","left",0.516000032,1,1,1,0,NA,NA,NA,NA,NA,NA,NA,NA,NA,NA,NA,NA,NA,NA,NA,NA,NA,NA,NA,NA,NA,NA,NA,NA
"325","stim/objects/HouseObjects/flyswatter.png",370,67,363,0.9,"stim/41.jpeg",4,1,3,2,"HouseObjects",1,1,"left","left",0.428999901,1,1,1,0,NA,NA,NA,NA,NA,NA,NA,NA,NA,NA,NA,NA,NA,NA,NA,NA,NA,NA,NA,NA,NA,NA,NA,NA
"253","stim/objects/HouseObjects/bleachbottle.png",371,67,364,0.5,"stim/52.jpeg",5,2,1,2,"HouseObjects",1,1,"left","left",0.650000095,1,1,1,0,NA,NA,NA,NA,NA,NA,NA,NA,NA,NA,NA,NA,NA,NA,NA,NA,NA,NA,NA,NA,NA,NA,NA,NA
"352","stim/objects/HouseObjects/garbagebin.png",372,67,365,0.9,"stim/42.jpeg",4,2,3,2,"HouseObjects",1,3,"left","left",0.643000126,1,1,1,0,NA,NA,NA,NA,NA,NA,NA,NA,NA,NA,NA,NA,NA,NA,NA,NA,NA,NA,NA,NA,NA,NA,NA,NA
"262","stim/objects/HouseObjects/broom.png",373,67,366,0.5,"stim/61.jpeg",6,1,1,2,"HouseObjects",1,3,"left","right",0.726999998,0,0,1,0,NA,NA,NA,NA,NA,NA,NA,NA,NA,NA,NA,NA,NA,NA,NA,NA,NA,NA,NA,NA,NA,NA,NA,NA
"367","stim/objects/HouseObjects/glass.png",374,67,367,0.9,"stim/42.jpeg",4,2,3,2,"HouseObjects",1,4,"left","left",0.589999914,1,1,1,0,NA,NA,NA,NA,NA,NA,NA,NA,NA,NA,NA,NA,NA,NA,NA,NA,NA,NA,NA,NA,NA,NA,NA,NA
"463","stim/objects/Instruments/flute.png",375,67,368,0.9,"stim/31.jpeg",3,1,3,2,"Instruments",2,2,"right","right",0.56099987,1,1,1,0,NA,NA,NA,NA,NA,NA,NA,NA,NA,NA,NA,NA,NA,NA,NA,NA,NA,NA,NA,NA,NA,NA,NA,NA
"359","stim/objects/HouseObjects/glass.png",376,67,369,0.9,"stim/43.jpeg",4,3,3,2,"HouseObjects",1,1,"left","left",0.568000078,1,1,1,0,NA,NA,NA,NA,NA,NA,NA,NA,NA,NA,NA,NA,NA,NA,NA,NA,NA,NA,NA,NA,NA,NA,NA,NA
"332","stim/objects/HouseObjects/flyswatter.png",377,67,370,0.9,"stim/42.jpeg",4,2,3,2,"HouseObjects",1,3,"left","left",0.622999907,1,1,1,0,NA,NA,NA,NA,NA,NA,NA,NA,NA,NA,NA,NA,NA,NA,NA,NA,NA,NA,NA,NA,NA,NA,NA,NA
"394","stim/objects/HouseObjects/teapot.png",378,67,371,0.5,"stim/61.jpeg",6,1,1,1,"HouseObjects",1,1,"left","right",0.648999929,0,0,1,0,29,67,1,0.5,2,"stim/61.jpeg",6,1,"stim/61.jpeg",1,"right",0.727999926,3,1,1.074999809,2,1.740999937,29,0,1,NA,0,NA,0
"297","stim/objects/HouseObjects/doormat.png",379,67,372,0.9,"stim/43.jpeg",4,3,3,2,"HouseObjects",1,4,"left","left",0.618999958,1,1,1,0,NA,NA,NA,NA,NA,NA,NA,NA,NA,NA,NA,NA,NA,NA,NA,NA,NA,NA,NA,NA,NA,NA,NA,NA
"524","stim/objects/Instruments/grandpiano.png",380,67,373,0.9,"stim/34.jpeg",3,4,3,2,"Instruments",2,1,"right","right",0.470999956,1,1,1,0,NA,NA,NA,NA,NA,NA,NA,NA,NA,NA,NA,NA,NA,NA,NA,NA,NA,NA,NA,NA,NA,NA,NA,NA
"412","stim/objects/Instruments/balalaika.png",381,67,374,0.5,"stim/52.jpeg",5,2,1,2,"Instruments",2,2,"right","left",0.712999821,0,0,1,0,NA,NA,NA,NA,NA,NA,NA,NA,NA,NA,NA,NA,NA,NA,NA,NA,NA,NA,NA,NA,NA,NA,NA,NA
"418","stim/objects/Instruments/bassdrum.png",382,67,375,0.5,"stim/54.jpeg",5,4,1,2,"Instruments",2,3,"right","right",0.784000158,1,1,1,0,NA,NA,NA,NA,NA,NA,NA,NA,NA,NA,NA,NA,NA,NA,NA,NA,NA,NA,NA,NA,NA,NA,NA,NA
"376","stim/objects/HouseObjects/glassmop.png",383,67,376,0.5,"stim/53.jpeg",5,3,1,1,"HouseObjects",1,3,"left","right",0.592999935,0,0,1,0,196,67,1,0.5,1,"stim/53.jpeg",5,3,"stim/53.jpeg",3,"right",1.046000004,4,4,2.326999903,3,1.866999865,196,0,0,NA,1,NA,0
"318","stim/objects/HouseObjects/dustpan.png",384,67,377,0.9,"stim/41.jpeg",4,1,3,2,"HouseObjects",1,2,"left","left",0.461999893,1,1,1,0,NA,NA,NA,NA,NA,NA,NA,NA,NA,NA,NA,NA,NA,NA,NA,NA,NA,NA,NA,NA,NA,NA,NA,NA
"443","stim/objects/Instruments/doublebass2.png",385,67,378,0.3,"stim/24.jpeg",2,4,2,1,"Instruments",2,3,"right","left",0.551999807,0,0,1,0,156,67,1,0.3,2,"stim/24.jpeg",2,4,"stim/24.jpeg",3,"right",0.578999758,2,2,1.816999912,4,0.835000038,156,0,0,NA,0,NA,0
"532","stim/objects/Instruments/grandpiano.png",386,67,379,0.9,"stim/33.jpeg",3,3,3,2,"Instruments",2,2,"right","right",0.549000025,1,1,1,0,NA,NA,NA,NA,NA,NA,NA,NA,NA,NA,NA,NA,NA,NA,NA,NA,NA,NA,NA,NA,NA,NA,NA,NA
"564","stim/objects/Instruments/tuba2.png",387,67,380,0.1,"stim/41.jpeg",4,1,3,1,"Instruments",2,3,"right","left",0.516000032,0,0,1,0,134,67,1,0.1,2,"stim/41.jpeg",4,1,"stim/41.jpeg",3,"right",0.541999817,4,1,0.86500001,3,2.284999847,134,0,1,NA,1,NA,0
"291","stim/objects/HouseObjects/doormat.png",388,67,381,0.9,"stim/43.jpeg",4,3,3,2,"HouseObjects",1,3,"left","left",0.64199996,1,1,1,0,NA,NA,NA,NA,NA,NA,NA,NA,NA,NA,NA,NA,NA,NA,NA,NA,NA,NA,NA,NA,NA,NA,NA,NA
"299","stim/objects/HouseObjects/doormat.png",389,67,382,0.9,"stim/42.jpeg",4,2,3,2,"HouseObjects",1,1,"left","left",0.467999935,1,1,1,0,NA,NA,NA,NA,NA,NA,NA,NA,NA,NA,NA,NA,NA,NA,NA,NA,NA,NA,NA,NA,NA,NA,NA,NA
"401","stim/objects/HouseObjects/towel2.png",390,67,383,0.9,"stim/44.jpeg",4,4,3,1,"HouseObjects",1,3,"left","left",0.463000059,1,1,1,0,11,67,1,0.9,1,"stim/44.jpeg",4,4,"stim/44.jpeg",3,"right",1.823999882,2,3,6.196000099,2,1.069999933,11,0,0,NA,0,NA,0
"272","stim/objects/HouseObjects/clothesdryingrack.png",391,67,384,0.7,"stim/21.jpeg",2,1,2,2,"HouseObjects",1,1,"left","left",0.61500001,1,1,1,0,NA,NA,NA,NA,NA,NA,NA,NA,NA,NA,NA,NA,NA,NA,NA,NA,NA,NA,NA,NA,NA,NA,NA,NA
"319","stim/objects/HouseObjects/dustpan.png",392,67,385,0.9,"stim/44.jpeg",4,4,3,2,"HouseObjects",1,2,"left","left",0.484000206,1,1,1,0,NA,NA,NA,NA,NA,NA,NA,NA,NA,NA,NA,NA,NA,NA,NA,NA,NA,NA,NA,NA,NA,NA,NA,NA
"490","stim/objects/Instruments/frenchhorn.png",393,67,386,0.9,"stim/32.jpeg",3,2,3,2,"Instruments",2,2,"right","right",0.478999853,1,1,1,0,NA,NA,NA,NA,NA,NA,NA,NA,NA,NA,NA,NA,NA,NA,NA,NA,NA,NA,NA,NA,NA,NA,NA,NA
"472","stim/objects/Instruments/flute2.png",394,67,387,0.9,"stim/33.jpeg",3,3,3,1,"Instruments",2,4,"right","right",0.433000088,1,1,1,0,163,67,1,0.9,2,"stim/33.jpeg",3,3,"stim/33.jpeg",4,"right",1.088999987,3,4,4.53399992,3,2.291999817,163,0,0,NA,0,NA,0
"341","stim/objects/HouseObjects/flyswatter2.png",395,67,388,0.1,"stim/33.jpeg",3,3,3,1,"HouseObjects",1,3,"left","right",0.440999985,0,0,1,0,63,67,1,0.1,1,"stim/33.jpeg",3,3,"stim/33.jpeg",3,"right",0.671999931,4,3,1.503000021,2,1.475999832,63,0,1,NA,0,NA,0
"508","stim/objects/Instruments/gong.png",396,67,389,0.9,"stim/33.jpeg",3,3,3,2,"Instruments",2,2,"right","",NA,0,0,1,0,NA,NA,NA,NA,NA,NA,NA,NA,NA,NA,NA,NA,NA,NA,NA,NA,NA,NA,NA,NA,NA,NA,NA,NA
"465","stim/objects/Instruments/flute.png",397,67,390,0.9,"stim/31.jpeg",3,1,3,2,"Instruments",2,2,"right","right",0.534000158,1,1,1,0,NA,NA,NA,NA,NA,NA,NA,NA,NA,NA,NA,NA,NA,NA,NA,NA,NA,NA,NA,NA,NA,NA,NA,NA
"254","stim/objects/HouseObjects/bleachbottle.png",398,67,391,0.5,"stim/51.jpeg",5,1,1,2,"HouseObjects",1,4,"left","left",0.575000048,1,1,1,0,NA,NA,NA,NA,NA,NA,NA,NA,NA,NA,NA,NA,NA,NA,NA,NA,NA,NA,NA,NA,NA,NA,NA,NA
"368","stim/objects/HouseObjects/glass.png",399,67,392,0.9,"stim/42.jpeg",4,2,3,2,"HouseObjects",1,2,"left","left",0.539999962,1,1,1,0,NA,NA,NA,NA,NA,NA,NA,NA,NA,NA,NA,NA,NA,NA,NA,NA,NA,NA,NA,NA,NA,NA,NA,NA
"540","stim/objects/Instruments/grandpiano2.png",400,67,393,0.9,"stim/33.jpeg",3,3,3,1,"Instruments",2,2,"right","right",0.56099987,1,1,1,0,128,67,1,0.9,2,"stim/33.jpeg",3,3,"stim/33.jpeg",2,"right",0.750999928,4,2,1.81099987,1,0.500999928,128,0,0,NA,0,NA,0
"327","stim/objects/HouseObjects/flyswatter.png",401,67,394,0.9,"stim/44.jpeg",4,4,3,2,"HouseObjects",1,2,"left","left",0.539999962,1,1,1,0,NA,NA,NA,NA,NA,NA,NA,NA,NA,NA,NA,NA,NA,NA,NA,NA,NA,NA,NA,NA,NA,NA,NA,NA
"255","stim/objects/HouseObjects/bleachbottle2.png",402,67,395,0.3,"stim/12.jpeg",1,2,2,1,"HouseObjects",1,4,"left","right",0.417000055,0,0,1,0,94,67,1,0.3,1,"stim/12.jpeg",1,2,"stim/12.jpeg",4,"right",0.88499999,2,4,2.472999811,3,5.267999887,94,0,0,NA,0,NA,0
"243","stim/objects/HouseObjects/ashtray2.png",403,67,396,0.3,"stim/12.jpeg",1,2,2,1,"HouseObjects",1,2,"left","right",0.661999941,0,0,1,0,9,67,1,0.3,1,"stim/12.jpeg",1,2,"stim/12.jpeg",2,"left",2.349999905,4,3,3.019999981,2,1.193000078,9,1,0,0,1,1,0
"338","stim/objects/HouseObjects/flyswatter.png",404,67,397,0.9,"stim/42.jpeg",4,2,3,2,"HouseObjects",1,1,"left","left",0.480999947,1,1,1,0,NA,NA,NA,NA,NA,NA,NA,NA,NA,NA,NA,NA,NA,NA,NA,NA,NA,NA,NA,NA,NA,NA,NA,NA
"250","stim/objects/HouseObjects/basket.png",405,67,398,0.5,"stim/54.jpeg",5,4,1,2,"HouseObjects",1,1,"left","left",0.649000168,1,1,1,0,NA,NA,NA,NA,NA,NA,NA,NA,NA,NA,NA,NA,NA,NA,NA,NA,NA,NA,NA,NA,NA,NA,NA,NA
"355","stim/objects/HouseObjects/garbagebin.png",406,67,399,0.9,"stim/43.jpeg",4,3,3,2,"HouseObjects",1,3,"left","left",0.497000217,1,1,1,0,NA,NA,NA,NA,NA,NA,NA,NA,NA,NA,NA,NA,NA,NA,NA,NA,NA,NA,NA,NA,NA,NA,NA,NA
"378","stim/objects/HouseObjects/hairdryer.png",407,67,400,0.5,"stim/54.jpeg",5,4,1,1,"HouseObjects",1,3,"left","right",0.55700016,0,0,1,0,75,67,1,0.5,1,"stim/54.jpeg",5,4,"stim/54.jpeg",3,"left",3.335999966,4,2,3.011999846,1,3.718999863,75,1,0,0,0,0,0
"403","stim/objects/HouseObjects/vacuumcleaner2.png",408,67,401,0.9,"stim/41.jpeg",4,1,3,1,"HouseObjects",1,2,"left","left",0.437999964,1,1,1,0,54,67,1,0.9,1,"stim/41.jpeg",4,1,"stim/41.jpeg",2,"right",2.184000015,2,3,1.99000001,3,1.331999779,54,0,0,NA,0,NA,0
"543","stim/objects/Instruments/harmonica.png",409,67,402,0.5,"stim/53.jpeg",5,3,1,1,"Instruments",2,3,"right","left",0.644000053,0,0,1,0,161,67,1,0.5,1,"stim/53.jpeg",5,3,"stim/53.jpeg",3,"right",0.687999964,2,1,2.299999952,2,1.384000063,161,0,0,NA,0,NA,0
"523","stim/objects/Instruments/gong2.png",410,67,403,0.9,"stim/32.jpeg",3,2,3,1,"Instruments",2,2,"right","right",0.513000011,1,1,1,0,176,67,1,0.9,2,"stim/32.jpeg",3,2,"stim/32.jpeg",2,"right",0.621000051,2,4,1.006999969,2,1.450999975,176,0,0,NA,1,NA,0
"411","stim/objects/Instruments/acousticguitar2.png",411,67,404,0.7,"stim/14.jpeg",1,4,2,1,"Instruments",2,4,"right","right",0.823999882,1,1,1,0,142,67,1,0.7,2,"stim/14.jpeg",1,4,"stim/14.jpeg",4,"right",2.769999981,4,2,1.059999943,2,0.802000046,142,0,0,NA,0,NA,0
"451","stim/objects/Instruments/electricdrumset2.png",412,67,405,0.3,"stim/22.jpeg",2,2,2,1,"Instruments",2,2,"right","left",0.508999825,0,0,1,0,135,67,1,0.3,2,"stim/22.jpeg",2,2,"stim/22.jpeg",2,"right",1.500999928,1,2,1.544999838,2,1.195999861,135,0,1,NA,1,NA,0
"489","stim/objects/Instruments/flutetrans2.png",413,67,406,0.9,"stim/34.jpeg",3,4,3,1,"Instruments",2,4,"right","right",0.894000053,1,1,1,0,103,67,1,0.9,2,"stim/34.jpeg",3,4,"stim/34.jpeg",4,"right",0.690999985,2,1,1.625999928,4,2.290999889,103,0,0,NA,1,NA,0
"271","stim/objects/HouseObjects/clothesdryingrack.png",414,67,407,0.7,"stim/22.jpeg",2,2,2,2,"HouseObjects",1,1,"left","left",0.565999985,1,1,1,0,NA,NA,NA,NA,NA,NA,NA,NA,NA,NA,NA,NA,NA,NA,NA,NA,NA,NA,NA,NA,NA,NA,NA,NA
"384","stim/objects/HouseObjects/safetypin.png",415,67,408,0.5,"stim/53.jpeg",5,3,1,1,"HouseObjects",1,3,"left","left",0.703000069,1,1,1,0,193,67,1,0.5,1,"stim/53.jpeg",5,3,"stim/53.jpeg",3,"right",0.917999983,4,1,0.923000097,2,3.404000044,193,0,0,NA,0,NA,0
"379","stim/objects/HouseObjects/hairdryer2.png",416,67,409,0.1,"stim/33.jpeg",3,3,3,1,"HouseObjects",1,3,"left","right",0.645999908,0,0,1,0,68,67,1,0.1,1,"stim/33.jpeg",3,3,"stim/33.jpeg",3,"right",1.883999825,3,2,3.635999918,2,2.384999752,68,0,0,NA,0,NA,0
"385","stim/objects/HouseObjects/safetypin2.png",417,67,410,0.1,"stim/32.jpeg",3,2,3,1,"HouseObjects",1,1,"left","right",0.534000158,0,0,1,0,118,67,1,0.1,1,"stim/32.jpeg",3,2,"stim/32.jpeg",1,"right",0.969000101,4,2,1.461999893,3,1.657999992,118,0,1,NA,0,NA,0
"557","stim/objects/Instruments/triangle.png",418,67,411,0.5,"stim/63.jpeg",6,3,1,1,"Instruments",2,4,"right","right",0.687000036,1,1,1,0,3,67,1,0.5,2,"stim/63.jpeg",6,3,"stim/63.jpeg",4,"left",1.055999756,4,1,7.09499979,4,2.937000036,3,1,0,0,1,1,0
"558","stim/objects/Instruments/triangle2.png",419,67,412,0.1,"stim/42.jpeg",4,2,3,1,"Instruments",2,1,"right","left",0.534999847,0,0,1,0,100,67,1,0.1,2,"stim/42.jpeg",4,2,"stim/42.jpeg",1,"left",2.152999878,3,2,1.791999817,4,1.360999823,100,1,1,1,0,0,0
"562","stim/objects/Instruments/trumpet2.png",420,67,413,0.1,"stim/44.jpeg",4,4,3,1,"Instruments",2,1,"right","left",0.559000015,0,0,1,0,151,67,1,0.1,2,"stim/44.jpeg",4,4,"stim/44.jpeg",1,"right",1.799000025,3,1,1.311000109,3,1.795000076,151,0,0,NA,0,NA,0
"386","stim/objects/HouseObjects/saw.png",421,67,414,0.5,"stim/61.jpeg",6,1,1,1,"HouseObjects",1,2,"left","right",0.632999897,0,0,1,0,98,67,1,0.5,2,"stim/61.jpeg",6,1,"stim/61.jpeg",2,"right",1.938999891,2,4,2.178999901,4,3.705999851,98,0,0,NA,0,NA,0
"481","stim/objects/Instruments/flutetrans.png",422,67,415,0.9,"stim/33.jpeg",3,3,3,2,"Instruments",2,2,"right","right",0.65899992,1,1,1,0,NA,NA,NA,NA,NA,NA,NA,NA,NA,NA,NA,NA,NA,NA,NA,NA,NA,NA,NA,NA,NA,NA,NA,NA
"258","stim/objects/HouseObjects/blender2.png",423,67,416,0.7,"stim/24.jpeg",2,4,2,1,"HouseObjects",1,3,"left","left",0.486999989,1,1,1,0,31,67,1,0.7,1,"stim/24.jpeg",2,4,"stim/24.jpeg",3,"left",1.144999981,4,1,2.970999718,3,1.750999928,31,1,0,0,1,1,0
"371","stim/objects/HouseObjects/glass.png",424,67,417,0.9,"stim/44.jpeg",4,4,3,2,"HouseObjects",1,3,"left","left",0.597000122,1,1,1,0,NA,NA,NA,NA,NA,NA,NA,NA,NA,NA,NA,NA,NA,NA,NA,NA,NA,NA,NA,NA,NA,NA,NA,NA
"340","stim/objects/HouseObjects/flyswatter.png",425,67,418,0.9,"stim/42.jpeg",4,2,3,2,"HouseObjects",1,3,"left","right",0.695000172,0,0,1,0,NA,NA,NA,NA,NA,NA,NA,NA,NA,NA,NA,NA,NA,NA,NA,NA,NA,NA,NA,NA,NA,NA,NA,NA
"420","stim/objects/Instruments/bassdrum2.png",426,67,419,0.7,"stim/13.jpeg",1,3,2,1,"Instruments",2,1,"right","right",0.597000122,1,1,1,0,53,67,1,0.7,2,"stim/13.jpeg",1,3,"stim/13.jpeg",1,"right",1.267999887,3,1,0.948999882,3,2.639999866,53,0,0,NA,0,NA,0
"298","stim/objects/HouseObjects/doormat.png",427,67,420,0.9,"stim/42.jpeg",4,2,3,2,"HouseObjects",1,1,"left","left",0.545000076,1,1,1,0,NA,NA,NA,NA,NA,NA,NA,NA,NA,NA,NA,NA,NA,NA,NA,NA,NA,NA,NA,NA,NA,NA,NA,NA
"483","stim/objects/Instruments/flutetrans.png",428,67,421,0.9,"stim/33.jpeg",3,3,3,2,"Instruments",2,3,"right","right",0.576000214,1,1,1,0,NA,NA,NA,NA,NA,NA,NA,NA,NA,NA,NA,NA,NA,NA,NA,NA,NA,NA,NA,NA,NA,NA,NA,NA
"512","stim/objects/Instruments/gong.png",429,67,422,0.9,"stim/32.jpeg",3,2,3,2,"Instruments",2,1,"right","right",0.479000092,1,1,1,0,NA,NA,NA,NA,NA,NA,NA,NA,NA,NA,NA,NA,NA,NA,NA,NA,NA,NA,NA,NA,NA,NA,NA,NA
"357","stim/objects/HouseObjects/garbagebin.png",430,67,423,0.9,"stim/43.jpeg",4,3,3,2,"HouseObjects",1,3,"left","left",0.565000057,1,1,1,0,NA,NA,NA,NA,NA,NA,NA,NA,NA,NA,NA,NA,NA,NA,NA,NA,NA,NA,NA,NA,NA,NA,NA,NA
"458","stim/objects/Instruments/flute.png",431,67,424,0.9,"stim/31.jpeg",3,1,3,2,"Instruments",2,4,"right","right",0.545000076,1,1,1,0,NA,NA,NA,NA,NA,NA,NA,NA,NA,NA,NA,NA,NA,NA,NA,NA,NA,NA,NA,NA,NA,NA,NA,NA
"534","stim/objects/Instruments/grandpiano.png",432,67,425,0.9,"stim/33.jpeg",3,3,3,2,"Instruments",2,4,"right","right",0.411999941,1,1,1,0,NA,NA,NA,NA,NA,NA,NA,NA,NA,NA,NA,NA,NA,NA,NA,NA,NA,NA,NA,NA,NA,NA,NA,NA
"459","stim/objects/Instruments/flute.png",433,67,426,0.9,"stim/32.jpeg",3,2,3,2,"Instruments",2,4,"right","right",0.428000212,1,1,1,0,NA,NA,NA,NA,NA,NA,NA,NA,NA,NA,NA,NA,NA,NA,NA,NA,NA,NA,NA,NA,NA,NA,NA,NA
"502","stim/objects/Instruments/frenchhorn.png",434,67,427,0.9,"stim/33.jpeg",3,3,3,2,"Instruments",2,4,"right","right",0.352999926,1,1,1,0,NA,NA,NA,NA,NA,NA,NA,NA,NA,NA,NA,NA,NA,NA,NA,NA,NA,NA,NA,NA,NA,NA,NA,NA
"544","stim/objects/Instruments/harmonica2.png",435,67,428,0.9,"stim/31.jpeg",3,1,3,1,"Instruments",2,1,"right","right",0.55099988,1,1,1,0,150,67,1,0.9,2,"stim/31.jpeg",3,1,"stim/31.jpeg",1,"left",1.381000042,4,3,2.091999769,2,1.939999819,150,1,0,0,0,0,0
"440","stim/objects/Instruments/doublebass.png",436,67,429,0.7,"stim/11.jpeg",1,1,2,2,"Instruments",2,1,"right","right",0.690999985,1,1,1,0,NA,NA,NA,NA,NA,NA,NA,NA,NA,NA,NA,NA,NA,NA,NA,NA,NA,NA,NA,NA,NA,NA,NA,NA
"404","stim/objects/HouseObjects/wateringcan.png",437,67,430,0.3,"stim/11.jpeg",1,1,2,1,"HouseObjects",1,1,"left","right",0.381000042,0,0,1,0,16,67,1,0.3,1,"stim/11.jpeg",1,1,"stim/11.jpeg",1,"right",1.109999895,3,2,1.47699976,2,1.250999928,16,0,0,NA,0,NA,0
"423","stim/objects/Instruments/bassguitar2.png",438,67,431,0.3,"stim/22.jpeg",2,2,2,1,"Instruments",2,4,"right","left",0.764999866,0,0,1,0,38,67,1,0.3,2,"stim/22.jpeg",2,2,"stim/22.jpeg",4,"left",1.57799983,3,3,1.635999918,1,1.794999838,38,1,0,0,0,0,0
"433","stim/objects/Instruments/cornet.png",439,67,432,0.5,"stim/62.jpeg",6,2,1,2,"Instruments",2,2,"right","left",0.723999977,0,0,1,0,NA,NA,NA,NA,NA,NA,NA,NA,NA,NA,NA,NA,NA,NA,NA,NA,NA,NA,NA,NA,NA,NA,NA,NA
"246","stim/objects/HouseObjects/ballofstring2.png",440,67,433,0.3,"stim/13.jpeg",1,3,2,1,"HouseObjects",1,3,"left","right",0.565999985,0,0,1,0,144,67,1,0.3,1,"stim/13.jpeg",1,3,"stim/13.jpeg",3,"right",0.663999796,4,1,1.167999983,3,1.386999846,144,0,0,NA,1,NA,0
"566","stim/objects/Instruments/violin2.png",441,67,434,0.1,"stim/42.jpeg",4,2,3,1,"Instruments",2,2,"right","left",0.529999971,0,0,1,0,109,67,1,0.1,2,"stim/42.jpeg",4,2,"stim/42.jpeg",2,"left",2.73699975,3,4,1.856999874,3,1.390000105,109,1,0,0,0,0,0
"568","stim/objects/Instruments/vuvuzela2.png",442,67,435,0.1,"stim/43.jpeg",4,3,3,1,"Instruments",2,3,"right","left",0.63499999,0,0,1,0,89,67,1,0.1,2,"stim/43.jpeg",4,3,"stim/43.jpeg",3,"left",1.055000067,4,3,3.040999889,2,1.361000061,89,1,1,1,0,0,0
"322","stim/objects/HouseObjects/dustpan.png",443,67,436,0.9,"stim/44.jpeg",4,4,3,2,"HouseObjects",1,3,"left","right",0.684999943,0,0,1,0,NA,NA,NA,NA,NA,NA,NA,NA,NA,NA,NA,NA,NA,NA,NA,NA,NA,NA,NA,NA,NA,NA,NA,NA
"307","stim/objects/HouseObjects/doormat2.png",444,67,437,0.1,"stim/31.jpeg",3,1,3,1,"HouseObjects",1,1,"left","right",0.513000011,0,0,1,0,182,67,1,0.1,1,"stim/31.jpeg",3,1,"stim/31.jpeg",1,"right",0.859999895,4,3,1.322999954,4,1.884999752,182,0,0,NA,0,NA,0
"425","stim/objects/Instruments/cello.png",445,67,438,0.5,"stim/63.jpeg",6,3,1,2,"Instruments",2,1,"right","right",0.637000084,1,1,1,0,NA,NA,NA,NA,NA,NA,NA,NA,NA,NA,NA,NA,NA,NA,NA,NA,NA,NA,NA,NA,NA,NA,NA,NA
"283","stim/objects/HouseObjects/cushion.png",446,67,439,0.7,"stim/24.jpeg",2,4,2,2,"HouseObjects",1,1,"left","left",0.516000032,1,1,1,0,NA,NA,NA,NA,NA,NA,NA,NA,NA,NA,NA,NA,NA,NA,NA,NA,NA,NA,NA,NA,NA,NA,NA,NA
"478","stim/objects/Instruments/flutetrans.png",447,67,440,0.9,"stim/32.jpeg",3,2,3,2,"Instruments",2,1,"right","right",0.513000011,1,1,1,0,NA,NA,NA,NA,NA,NA,NA,NA,NA,NA,NA,NA,NA,NA,NA,NA,NA,NA,NA,NA,NA,NA,NA,NA
"501","stim/objects/Instruments/frenchhorn.png",448,67,441,0.9,"stim/34.jpeg",3,4,3,2,"Instruments",2,1,"right","right",0.39199996,1,1,1,0,NA,NA,NA,NA,NA,NA,NA,NA,NA,NA,NA,NA,NA,NA,NA,NA,NA,NA,NA,NA,NA,NA,NA,NA
"388","stim/objects/HouseObjects/scale.png",449,67,442,0.5,"stim/62.jpeg",6,2,1,1,"HouseObjects",1,2,"left","left",0.629999876,1,1,1,0,1,67,1,0.5,2,"stim/62.jpeg",6,2,"stim/62.jpeg",2,"right",1.27699995,2,2,5.60800004,1,2.847999811,1,0,1,NA,0,NA,0
"282","stim/objects/HouseObjects/coffee2.png",450,67,443,0.7,"stim/23.jpeg",2,3,2,1,"HouseObjects",1,2,"left","left",0.523999929,1,1,1,0,129,67,1,0.7,1,"stim/23.jpeg",2,3,"stim/23.jpeg",2,"left",1.721999884,4,4,2.753999949,2,1.576999903,129,1,0,0,1,1,0
"415","stim/objects/Instruments/banjo.png",451,67,444,0.5,"stim/54.jpeg",5,4,1,2,"Instruments",2,2,"right","right",0.744999886,1,1,1,0,NA,NA,NA,NA,NA,NA,NA,NA,NA,NA,NA,NA,NA,NA,NA,NA,NA,NA,NA,NA,NA,NA,NA,NA
"304","stim/objects/HouseObjects/doormat.png",452,67,445,0.9,"stim/42.jpeg",4,2,3,2,"HouseObjects",1,4,"left","left",0.587999821,1,1,1,0,NA,NA,NA,NA,NA,NA,NA,NA,NA,NA,NA,NA,NA,NA,NA,NA,NA,NA,NA,NA,NA,NA,NA,NA
"450","stim/objects/Instruments/electricdrumset.png",453,67,446,0.7,"stim/13.jpeg",1,3,2,2,"Instruments",2,4,"right","right",0.605999947,1,1,1,0,NA,NA,NA,NA,NA,NA,NA,NA,NA,NA,NA,NA,NA,NA,NA,NA,NA,NA,NA,NA,NA,NA,NA,NA
"372","stim/objects/HouseObjects/glass.png",454,67,447,0.9,"stim/42.jpeg",4,2,3,2,"HouseObjects",1,2,"left","left",0.617000103,1,1,1,0,NA,NA,NA,NA,NA,NA,NA,NA,NA,NA,NA,NA,NA,NA,NA,NA,NA,NA,NA,NA,NA,NA,NA,NA
"278","stim/objects/HouseObjects/clothespin2.png",455,67,448,0.7,"stim/22.jpeg",2,2,2,1,"HouseObjects",1,3,"left","left",0.654000044,1,1,1,0,184,67,1,0.7,1,"stim/22.jpeg",2,2,"stim/22.jpeg",3,"right",1.09800005,4,4,0.796999931,3,3.019000053,184,0,0,NA,1,NA,0
"305","stim/objects/HouseObjects/doormat.png",456,67,449,0.9,"stim/41.jpeg",4,1,3,2,"HouseObjects",1,2,"left","left",0.546000004,1,1,1,0,NA,NA,NA,NA,NA,NA,NA,NA,NA,NA,NA,NA,NA,NA,NA,NA,NA,NA,NA,NA,NA,NA,NA,NA
"413","stim/objects/Instruments/balalaika.png",457,67,450,0.5,"stim/53.jpeg",5,3,1,2,"Instruments",2,4,"right","right",0.566999912,1,1,1,0,NA,NA,NA,NA,NA,NA,NA,NA,NA,NA,NA,NA,NA,NA,NA,NA,NA,NA,NA,NA,NA,NA,NA,NA
"408","stim/objects/Instruments/accordion2.png",458,67,451,0.7,"stim/13.jpeg",1,3,2,1,"Instruments",2,2,"right","left",0.628000021,0,0,1,0,37,67,1,0.7,2,"stim/13.jpeg",1,3,"stim/13.jpeg",2,"right",1.23300004,2,4,1.648999929,1,1.166999817,37,0,0,NA,0,NA,0
"373","stim/objects/HouseObjects/glass.png",459,67,452,0.9,"stim/41.jpeg",4,1,3,2,"HouseObjects",1,2,"left","left",0.5,1,1,1,0,NA,NA,NA,NA,NA,NA,NA,NA,NA,NA,NA,NA,NA,NA,NA,NA,NA,NA,NA,NA,NA,NA,NA,NA
"410","stim/objects/Instruments/acousticguitar.png",460,67,453,0.5,"stim/51.jpeg",5,1,1,2,"Instruments",2,3,"right","left",0.524000168,0,0,1,0,NA,NA,NA,NA,NA,NA,NA,NA,NA,NA,NA,NA,NA,NA,NA,NA,NA,NA,NA,NA,NA,NA,NA,NA
"273","stim/objects/HouseObjects/clothesdryingrack.png",461,67,454,0.7,"stim/23.jpeg",2,3,2,2,"HouseObjects",1,4,"left","right",0.644999981,0,0,1,0,NA,NA,NA,NA,NA,NA,NA,NA,NA,NA,NA,NA,NA,NA,NA,NA,NA,NA,NA,NA,NA,NA,NA,NA
"452","stim/objects/Instruments/electricguitar.png",462,67,455,0.7,"stim/11.jpeg",1,1,2,2,"Instruments",2,2,"right","left",0.779000044,0,0,1,0,NA,NA,NA,NA,NA,NA,NA,NA,NA,NA,NA,NA,NA,NA,NA,NA,NA,NA,NA,NA,NA,NA,NA,NA
"285","stim/objects/HouseObjects/cushion.png",463,67,456,0.7,"stim/21.jpeg",2,1,2,2,"HouseObjects",1,2,"left","left",0.557999849,1,1,1,0,NA,NA,NA,NA,NA,NA,NA,NA,NA,NA,NA,NA,NA,NA,NA,NA,NA,NA,NA,NA,NA,NA,NA,NA
"442","stim/objects/Instruments/doublebass.png",464,67,457,0.7,"stim/12.jpeg",1,2,2,2,"Instruments",2,1,"right","right",0.592000008,1,1,1,0,NA,NA,NA,NA,NA,NA,NA,NA,NA,NA,NA,NA,NA,NA,NA,NA,NA,NA,NA,NA,NA,NA,NA,NA
"538","stim/objects/Instruments/grandpiano.png",465,67,458,0.9,"stim/32.jpeg",3,2,3,2,"Instruments",2,1,"right","right",0.582999945,1,1,1,0,NA,NA,NA,NA,NA,NA,NA,NA,NA,NA,NA,NA,NA,NA,NA,NA,NA,NA,NA,NA,NA,NA,NA,NA
"542","stim/objects/Instruments/guitarcase2.png",466,67,459,0.9,"stim/34.jpeg",3,4,3,1,"Instruments",2,4,"right","right",0.490999937,1,1,1,0,67,67,1,0.9,2,"stim/34.jpeg",3,4,"stim/34.jpeg",4,"left",0.983999968,4,1,3.666000128,4,1.539999962,67,1,0,0,1,1,0
