"","participant","trial_index","trial_cond","scn_file","scn_cat","scn_inst","scn_condition","fillers","obj_cat","obj_cat_num","obj_file","quadrant","corr_ans","key_resp_trial.keys","key_resp_trial.rt","trial_acc","trial_acc_manual","group"
"1",27,1,0.5,"stim/53.jpeg",5,3,1,NA,"HouseObjects",1,"stim/objects/HouseObjects/key.png",3,"left","",NA,0,0,1
"2",27,2,0.7,"stim/23.jpeg",2,3,2,NA,"HouseObjects",1,"stim/objects/HouseObjects/key2.png",2,"left","",NA,0,0,1
"3",27,3,0.7,"stim/21.jpeg",2,1,2,NA,"HouseObjects",1,"stim/objects/HouseObjects/iron2.png",1,"left","left",0.55700016,1,1,1
"4",27,4,0.7,"stim/12.jpeg",1,2,2,NA,"Instruments",2,"stim/objects/Instruments/pipepiano.png",3,"right","right",0.546000242,1,1,1
"5",27,5,0.5,"stim/52.jpeg",5,2,1,NA,"HouseObjects",1,"stim/objects/HouseObjects/ironingboard.png",2,"left","right",0.670000315,0,0,1
"6",27,6,0.9,"stim/33.jpeg",3,3,3,NA,"Instruments",2,"stim/objects/Instruments/musicstand2.png",2,"right","left",0.440000057,0,0,1
"7",27,7,0.5,"stim/62.jpeg",6,2,1,NA,"HouseObjects",1,"stim/objects/HouseObjects/match.png",3,"left","left",0.704000235,1,1,1
"8",27,8,0.3,"stim/14.jpeg",1,4,2,NA,"HouseObjects",1,"stim/objects/HouseObjects/rug.png",3,"left","right",0.542999983,0,0,1
"9",27,9,0.9,"stim/33.jpeg",3,3,3,NA,"Instruments",2,"stim/objects/Instruments/musicstand2.png",3,"right","right",0.614000082,1,1,1
"10",27,10,0.7,"stim/21.jpeg",2,1,2,NA,"HouseObjects",1,"stim/objects/HouseObjects/iron2.png",2,"left","left",0.870000362,1,1,1
"11",27,11,0.9,"stim/32.jpeg",3,2,3,NA,"Instruments",2,"stim/objects/Instruments/musicsheet2.png",4,"right","right",0.596000195,1,1,1
"12",27,12,0.9,"stim/33.jpeg",3,3,3,NA,"Instruments",2,"stim/objects/Instruments/musicstand2.png",2,"right","right",0.477000237,1,1,1
"13",27,13,0.7,"stim/24.jpeg",2,4,2,NA,"HouseObjects",1,"stim/objects/HouseObjects/knife2.png",4,"left","left",0.542000294,1,1,1
"14",27,14,0.5,"stim/64.jpeg",6,4,1,NA,"Instruments",2,"stim/objects/Instruments/oboe.png",3,"right","left",0.663000107,0,0,1
"15",27,15,0.9,"stim/32.jpeg",3,2,3,NA,"Instruments",2,"stim/objects/Instruments/musicsheet2.png",4,"right","right",0.569000244,1,1,1
"16",27,16,0.5,"stim/51.jpeg",5,1,1,NA,"Instruments",2,"stim/objects/Instruments/keyboard.png",4,"right","right",0.719000101,1,1,1
"17",27,17,0.5,"stim/52.jpeg",5,2,1,NA,"Instruments",2,"stim/objects/Instruments/laud.png",3,"right","left",0.496999979,0,0,1
"18",27,18,0.9,"stim/44.jpeg",4,4,3,NA,"HouseObjects",1,"stim/objects/HouseObjects/rug2.png",4,"left","left",0.630000114,1,1,1
"19",27,19,0.7,"stim/12.jpeg",1,2,2,NA,"Instruments",2,"stim/objects/Instruments/pipepiano.png",2,"right","right",0.622000217,1,1,1
"20",27,20,0.7,"stim/13.jpeg",1,3,2,NA,"Instruments",2,"stim/objects/Instruments/record.png",4,"right","right",0.663000107,1,1,1
"21",27,21,0.3,"stim/22.jpeg",2,2,2,NA,"Instruments",2,"stim/objects/Instruments/laud2.png",3,"right","left",0.573000193,0,0,1
"22",27,22,0.5,"stim/53.jpeg",5,3,1,NA,"Instruments",2,"stim/objects/Instruments/maraca.png",2,"right","left",0.641000271,0,0,1
"23",27,23,0.5,"stim/62.jpeg",6,2,1,NA,"Instruments",2,"stim/objects/Instruments/musicsheet.png",2,"right","left",0.726000071,0,0,1
"24",27,24,0.7,"stim/13.jpeg",1,3,2,NA,"Instruments",2,"stim/objects/Instruments/record.png",4,"right","right",0.795000076,1,1,1
"25",27,25,0.5,"stim/54.jpeg",5,4,1,NA,"Instruments",2,"stim/objects/Instruments/marimba.png",3,"right","left",0.668000221,0,0,1
"26",27,26,0.7,"stim/24.jpeg",2,4,2,NA,"HouseObjects",1,"stim/objects/HouseObjects/knife2.png",4,"left","left",0.560000181,1,1,1
"27",27,27,0.5,"stim/61.jpeg",6,1,1,NA,"Instruments",2,"stim/objects/Instruments/metronome.png",3,"right","right",0.850000143,1,1,1
"28",27,28,0.5,"stim/62.jpeg",6,2,1,NA,"HouseObjects",1,"stim/objects/HouseObjects/match.png",3,"left","left",0.596000195,1,1,1
"29",27,29,0.7,"stim/13.jpeg",1,3,2,NA,"Instruments",2,"stim/objects/Instruments/record.png",2,"right","right",0.825000286,1,1,1
"30",27,30,0.9,"stim/41.jpeg",4,1,3,NA,"HouseObjects",1,"stim/objects/HouseObjects/recyclingbin2.png",2,"left","left",0.56400013,1,1,1
"31",27,31,0.7,"stim/22.jpeg",2,2,2,NA,"HouseObjects",1,"stim/objects/HouseObjects/ironingboard2.png",1,"left","",NA,0,0,1
"32",27,32,0.5,"stim/64.jpeg",6,4,1,NA,"HouseObjects",1,"stim/objects/HouseObjects/pitcher.png",3,"left","right",0.711000204,0,0,1
"33",27,33,0.7,"stim/14.jpeg",1,4,2,NA,"Instruments",2,"stim/objects/Instruments/record_player.png",2,"right","right",0.488000154,1,1,1
"34",27,34,0.7,"stim/13.jpeg",1,3,2,NA,"Instruments",2,"stim/objects/Instruments/record.png",1,"right","right",0.624000072,1,1,1
"35",27,35,0.3,"stim/22.jpeg",2,2,2,NA,"Instruments",2,"stim/objects/Instruments/laud2.png",4,"right","",NA,0,0,1
"36",27,36,0.9,"stim/41.jpeg",4,1,3,NA,"HouseObjects",1,"stim/objects/HouseObjects/recyclingbin2.png",1,"left","left",0.627000332,1,1,1
"37",27,37,0.3,"stim/23.jpeg",2,3,2,NA,"Instruments",2,"stim/objects/Instruments/maraca2.png",1,"right","left",0.596000195,0,0,1
"38",27,38,0.7,"stim/23.jpeg",2,3,2,NA,"HouseObjects",1,"stim/objects/HouseObjects/key2.png",1,"left","left",0.712000132,1,1,1
"39",27,39,0.9,"stim/42.jpeg",4,2,3,NA,"HouseObjects",1,"stim/objects/HouseObjects/remote2.png",2,"left","left",0.6650002,1,1,1
"40",27,40,0.7,"stim/14.jpeg",1,4,2,NA,"Instruments",2,"stim/objects/Instruments/record_player.png",3,"right","right",0.565000057,1,1,1
"41",27,41,0.9,"stim/43.jpeg",4,3,3,NA,"HouseObjects",1,"stim/objects/HouseObjects/rubbergloves2.png",1,"left","left",0.627000093,1,1,1
"42",27,42,0.7,"stim/23.jpeg",2,3,2,NA,"HouseObjects",1,"stim/objects/HouseObjects/key2.png",2,"left","left",0.619000196,1,1,1
"43",27,43,0.7,"stim/22.jpeg",2,2,2,NA,"HouseObjects",1,"stim/objects/HouseObjects/ironingboard2.png",3,"left","left",0.563000202,1,1,1
"44",27,44,0.9,"stim/31.jpeg",3,1,3,NA,"Instruments",2,"stim/objects/Instruments/metronome2.png",1,"right","right",0.450000048,1,1,1
"45",27,45,0.7,"stim/12.jpeg",1,2,2,NA,"Instruments",2,"stim/objects/Instruments/pipepiano.png",1,"right","right",0.52300024,1,1,1
"46",27,46,0.9,"stim/33.jpeg",3,3,3,NA,"Instruments",2,"stim/objects/Instruments/musicstand2.png",4,"right","right",0.413000107,1,1,1
"47",27,47,0.9,"stim/31.jpeg",3,1,3,NA,"Instruments",2,"stim/objects/Instruments/metronome2.png",4,"right","right",0.502000332,1,1,1
"48",27,48,0.5,"stim/53.jpeg",5,3,1,NA,"Instruments",2,"stim/objects/Instruments/maraca.png",3,"right","left",0.531000137,0,0,1
"49",27,49,0.9,"stim/42.jpeg",4,2,3,NA,"HouseObjects",1,"stim/objects/HouseObjects/remote2.png",3,"left","left",0.532999992,1,1,1
"50",27,50,0.5,"stim/64.jpeg",6,4,1,NA,"HouseObjects",1,"stim/objects/HouseObjects/pitcher.png",1,"left","left",0.718000174,1,1,1
"51",27,51,0.5,"stim/63.jpeg",6,3,1,NA,"HouseObjects",1,"stim/objects/HouseObjects/pan.png",4,"left","right",0.671000242,0,0,1
"52",27,52,0.9,"stim/34.jpeg",3,4,3,NA,"Instruments",2,"stim/objects/Instruments/oboe2.png",2,"right","right",0.525000095,1,1,1
"53",27,53,0.9,"stim/44.jpeg",4,4,3,NA,"HouseObjects",1,"stim/objects/HouseObjects/rug2.png",2,"left","left",0.558000088,1,1,1
"54",27,54,0.3,"stim/23.jpeg",2,3,2,NA,"Instruments",2,"stim/objects/Instruments/maraca2.png",1,"right","left",0.657000303,0,0,1
"55",27,55,0.5,"stim/54.jpeg",5,4,1,NA,"HouseObjects",1,"stim/objects/HouseObjects/knife.png",1,"left","left",0.610000134,1,1,1
"56",27,56,0.5,"stim/61.jpeg",6,1,1,NA,"Instruments",2,"stim/objects/Instruments/metronome.png",2,"right","",NA,0,0,1
"57",27,57,0.7,"stim/11.jpeg",1,1,2,NA,"Instruments",2,"stim/objects/Instruments/panflute.png",3,"right","right",0.59800005,1,1,1
"58",27,58,0.5,"stim/64.jpeg",6,4,1,NA,"HouseObjects",1,"stim/objects/HouseObjects/pitcher.png",4,"left","left",0.696000099,1,1,1
"59",27,59,0.1,"stim/32.jpeg",3,2,3,NA,"HouseObjects",1,"stim/objects/HouseObjects/match2.png",4,"left","",NA,0,0,1
"60",27,60,0.5,"stim/64.jpeg",6,4,1,NA,"Instruments",2,"stim/objects/Instruments/oboe.png",2,"right","left",0.71600008,0,0,1
"61",27,61,0.5,"stim/63.jpeg",6,3,1,NA,"HouseObjects",1,"stim/objects/HouseObjects/pan.png",1,"left","left",0.696000338,1,1,1
"62",27,62,0.7,"stim/23.jpeg",2,3,2,NA,"HouseObjects",1,"stim/objects/HouseObjects/key2.png",1,"left","left",0.684000015,1,1,1
"63",27,63,0.9,"stim/33.jpeg",3,3,3,NA,"Instruments",2,"stim/objects/Instruments/musicstand2.png",2,"right","right",0.401000261,1,1,1
"64",27,64,0.5,"stim/63.jpeg",6,3,1,NA,"HouseObjects",1,"stim/objects/HouseObjects/pan.png",4,"left","left",0.696000338,1,1,1
"65",27,65,0.9,"stim/33.jpeg",3,3,3,NA,"Instruments",2,"stim/objects/Instruments/musicstand2.png",1,"right","right",0.442000151,1,1,1
"66",27,66,0.3,"stim/22.jpeg",2,2,2,NA,"Instruments",2,"stim/objects/Instruments/laud2.png",4,"right","left",0.566000223,0,0,1
"67",27,67,0.3,"stim/13.jpeg",1,3,2,NA,"HouseObjects",1,"stim/objects/HouseObjects/rubbergloves.png",4,"left","right",0.457999945,0,0,1
"68",27,68,0.5,"stim/53.jpeg",5,3,1,NA,"HouseObjects",1,"stim/objects/HouseObjects/key.png",1,"left","left",0.580000162,1,1,1
"69",27,69,0.9,"stim/43.jpeg",4,3,3,NA,"HouseObjects",1,"stim/objects/HouseObjects/rubbergloves2.png",2,"left","left",0.570000172,1,1,1
"70",27,70,0.9,"stim/31.jpeg",3,1,3,NA,"Instruments",2,"stim/objects/Instruments/metronome2.png",1,"right","right",0.408000231,1,1,1
"71",27,71,0.7,"stim/13.jpeg",1,3,2,NA,"Instruments",2,"stim/objects/Instruments/record.png",4,"right","right",0.772000074,1,1,1
"72",27,72,0.3,"stim/24.jpeg",2,4,2,NA,"Instruments",2,"stim/objects/Instruments/marimba2.png",2,"right","left",0.455000162,0,0,1
"73",27,73,0.9,"stim/32.jpeg",3,2,3,NA,"Instruments",2,"stim/objects/Instruments/musicsheet2.png",4,"right","right",0.441000223,1,1,1
"74",27,74,0.9,"stim/43.jpeg",4,3,3,NA,"HouseObjects",1,"stim/objects/HouseObjects/rubbergloves2.png",4,"left","left",0.583000183,1,1,1
"75",27,75,0.9,"stim/34.jpeg",3,4,3,NA,"Instruments",2,"stim/objects/Instruments/oboe2.png",1,"right","right",0.57400012,1,1,1
"76",27,76,0.5,"stim/52.jpeg",5,2,1,NA,"HouseObjects",1,"stim/objects/HouseObjects/ironingboard.png",2,"left","left",0.620000362,1,1,1
"77",27,77,0.3,"stim/12.jpeg",1,2,2,NA,"HouseObjects",1,"stim/objects/HouseObjects/remote.png",2,"left","right",0.528000355,0,0,1
"78",27,78,0.3,"stim/13.jpeg",1,3,2,NA,"HouseObjects",1,"stim/objects/HouseObjects/rubbergloves.png",4,"left","",NA,0,0,1
"79",27,79,0.7,"stim/14.jpeg",1,4,2,NA,"Instruments",2,"stim/objects/Instruments/record_player.png",4,"right","right",0.489000082,1,1,1
"80",27,80,0.3,"stim/21.jpeg",2,1,2,NA,"Instruments",2,"stim/objects/Instruments/keyboard2.png",2,"right","left",0.582000256,0,0,1
"81",27,81,0.7,"stim/11.jpeg",1,1,2,NA,"Instruments",2,"stim/objects/Instruments/panflute.png",2,"right","right",0.541000128,1,1,1
"82",27,82,0.7,"stim/22.jpeg",2,2,2,NA,"HouseObjects",1,"stim/objects/HouseObjects/ironingboard2.png",3,"left","left",0.57400012,1,1,1
"83",27,83,0.9,"stim/41.jpeg",4,1,3,NA,"HouseObjects",1,"stim/objects/HouseObjects/recyclingbin2.png",1,"left","left",0.562000275,1,1,1
"84",27,84,0.1,"stim/33.jpeg",3,3,3,NA,"HouseObjects",1,"stim/objects/HouseObjects/pan2.png",4,"left","right",0.472000122,0,0,1
"85",27,85,0.5,"stim/53.jpeg",5,3,1,NA,"HouseObjects",1,"stim/objects/HouseObjects/key.png",4,"left","right",0.597000122,0,0,1
"86",27,86,0.9,"stim/43.jpeg",4,3,3,NA,"HouseObjects",1,"stim/objects/HouseObjects/rubbergloves2.png",3,"left","left",0.656000137,1,1,1
"87",27,87,0.9,"stim/31.jpeg",3,1,3,NA,"Instruments",2,"stim/objects/Instruments/metronome2.png",2,"right","right",0.519000053,1,1,1
"88",27,88,0.3,"stim/24.jpeg",2,4,2,NA,"Instruments",2,"stim/objects/Instruments/marimba2.png",3,"right","",NA,0,0,1
"89",27,89,0.9,"stim/44.jpeg",4,4,3,NA,"HouseObjects",1,"stim/objects/HouseObjects/rug2.png",4,"left","left",0.641000032,1,1,1
"90",27,90,0.9,"stim/32.jpeg",3,2,3,NA,"Instruments",2,"stim/objects/Instruments/musicsheet2.png",3,"right","right",0.527000189,1,1,1
"91",27,91,0.5,"stim/62.jpeg",6,2,1,NA,"HouseObjects",1,"stim/objects/HouseObjects/match.png",4,"left","right",0.400000334,0,0,1
"92",27,92,0.9,"stim/34.jpeg",3,4,3,NA,"Instruments",2,"stim/objects/Instruments/oboe2.png",3,"right","right",0.543000221,1,1,1
"93",27,93,0.9,"stim/34.jpeg",3,4,3,NA,"Instruments",2,"stim/objects/Instruments/oboe2.png",2,"right","right",0.507000208,1,1,1
"94",27,94,0.7,"stim/23.jpeg",2,3,2,NA,"HouseObjects",1,"stim/objects/HouseObjects/key2.png",3,"left","left",0.446000338,1,1,1
"95",27,95,0.5,"stim/63.jpeg",6,3,1,NA,"Instruments",2,"stim/objects/Instruments/musicstand.png",1,"right","left",0.624000072,0,0,1
"96",27,96,0.7,"stim/11.jpeg",1,1,2,NA,"Instruments",2,"stim/objects/Instruments/panflute.png",1,"right","right",0.529000044,1,1,1
"97",27,97,0.5,"stim/51.jpeg",5,1,1,NA,"Instruments",2,"stim/objects/Instruments/keyboard.png",1,"right","right",0.650000334,1,1,1
"98",27,98,0.9,"stim/41.jpeg",4,1,3,NA,"HouseObjects",1,"stim/objects/HouseObjects/recyclingbin2.png",1,"left","left",0.63100028,1,1,1
"99",27,99,0.1,"stim/31.jpeg",3,1,3,NA,"HouseObjects",1,"stim/objects/HouseObjects/lintroller2.png",4,"left","right",0.440000057,0,0,1
"100",27,100,0.3,"stim/12.jpeg",1,2,2,NA,"HouseObjects",1,"stim/objects/HouseObjects/remote.png",1,"left","right",0.448000193,0,0,1
"101",27,101,0.5,"stim/64.jpeg",6,4,1,NA,"HouseObjects",1,"stim/objects/HouseObjects/pitcher.png",3,"left","left",0.769000292,1,1,1
"102",27,102,0.3,"stim/21.jpeg",2,1,2,NA,"Instruments",2,"stim/objects/Instruments/keyboard2.png",4,"right","left",0.740000248,0,0,1
"103",27,103,0.5,"stim/53.jpeg",5,3,1,NA,"Instruments",2,"stim/objects/Instruments/maraca.png",2,"right","right",0.805000067,1,1,1
"104",27,104,0.5,"stim/54.jpeg",5,4,1,NA,"Instruments",2,"stim/objects/Instruments/marimba.png",2,"right","right",0.690999985,1,1,1
"105",27,105,0.9,"stim/42.jpeg",4,2,3,NA,"HouseObjects",1,"stim/objects/HouseObjects/remote2.png",3,"left","left",0.686000109,1,1,1
"106",27,106,0.5,"stim/54.jpeg",5,4,1,NA,"Instruments",2,"stim/objects/Instruments/marimba.png",3,"right","left",0.529000044,0,0,1
"107",27,107,0.5,"stim/61.jpeg",6,1,1,NA,"HouseObjects",1,"stim/objects/HouseObjects/lintroller.png",2,"left","left",0.741000175,1,1,1
"108",27,108,0.7,"stim/11.jpeg",1,1,2,NA,"Instruments",2,"stim/objects/Instruments/panflute.png",1,"right","right",0.521000147,1,1,1
"109",27,109,0.9,"stim/31.jpeg",3,1,3,NA,"Instruments",2,"stim/objects/Instruments/metronome2.png",3,"right","right",0.486000061,1,1,1
"110",27,110,0.5,"stim/61.jpeg",6,1,1,NA,"Instruments",2,"stim/objects/Instruments/metronome.png",3,"right","left",0.774000168,0,0,1
"111",27,111,0.9,"stim/41.jpeg",4,1,3,NA,"HouseObjects",1,"stim/objects/HouseObjects/recyclingbin2.png",1,"left","left",0.601000071,1,1,1
"112",27,112,0.9,"stim/32.jpeg",3,2,3,NA,"Instruments",2,"stim/objects/Instruments/musicsheet2.png",3,"right","right",0.575000286,1,1,1
"113",27,113,0.5,"stim/54.jpeg",5,4,1,NA,"Instruments",2,"stim/objects/Instruments/marimba.png",2,"right","right",0.751000166,1,1,1
"114",27,114,0.7,"stim/23.jpeg",2,3,2,NA,"HouseObjects",1,"stim/objects/HouseObjects/key2.png",3,"left","right",0.791000366,0,0,1
"115",27,115,0.3,"stim/11.jpeg",1,1,2,NA,"HouseObjects",1,"stim/objects/HouseObjects/recyclingbin.png",1,"left","right",0.650000095,0,0,1
"116",27,116,0.9,"stim/34.jpeg",3,4,3,NA,"Instruments",2,"stim/objects/Instruments/oboe2.png",1,"right","right",0.486000061,1,1,1
"117",27,117,0.5,"stim/53.jpeg",5,3,1,NA,"HouseObjects",1,"stim/objects/HouseObjects/key.png",2,"left","right",0.675000191,0,0,1
"118",27,118,0.7,"stim/24.jpeg",2,4,2,NA,"HouseObjects",1,"stim/objects/HouseObjects/knife2.png",3,"left","right",0.829000235,0,0,1
"119",27,119,0.9,"stim/31.jpeg",3,1,3,NA,"Instruments",2,"stim/objects/Instruments/metronome2.png",1,"right","right",0.541000128,1,1,1
"120",27,120,0.5,"stim/63.jpeg",6,3,1,NA,"Instruments",2,"stim/objects/Instruments/musicstand.png",4,"right","left",0.784000158,0,0,1
"121",27,121,0.7,"stim/14.jpeg",1,4,2,NA,"Instruments",2,"stim/objects/Instruments/record_player.png",3,"right","",NA,0,0,1
"122",27,122,0.5,"stim/62.jpeg",6,2,1,NA,"Instruments",2,"stim/objects/Instruments/musicsheet.png",2,"right","left",0.650000334,0,0,1
"123",27,123,0.1,"stim/41.jpeg",4,1,3,NA,"Instruments",2,"stim/objects/Instruments/panflute2.png",1,"right","left",0.586000204,0,0,1
"124",27,124,0.5,"stim/52.jpeg",5,2,1,NA,"Instruments",2,"stim/objects/Instruments/laud.png",4,"right","right",0.713000059,1,1,1
"125",27,125,0.7,"stim/21.jpeg",2,1,2,NA,"HouseObjects",1,"stim/objects/HouseObjects/iron2.png",3,"left","left",0.766000032,1,1,1
"126",27,126,0.7,"stim/21.jpeg",2,1,2,NA,"HouseObjects",1,"stim/objects/HouseObjects/iron2.png",1,"left","left",0.585000277,1,1,1
"127",27,127,0.1,"stim/43.jpeg",4,3,3,NA,"Instruments",2,"stim/objects/Instruments/record2.png",3,"right","left",0.541000128,0,0,1
"128",27,128,0.7,"stim/22.jpeg",2,2,2,NA,"HouseObjects",1,"stim/objects/HouseObjects/ironingboard2.png",3,"left","",NA,0,0,1
"129",27,129,0.7,"stim/13.jpeg",1,3,2,NA,"Instruments",2,"stim/objects/Instruments/record.png",1,"right","right",0.463000059,1,1,1
"130",27,130,0.5,"stim/61.jpeg",6,1,1,NA,"HouseObjects",1,"stim/objects/HouseObjects/lintroller.png",1,"left","right",0.448000193,0,0,1
"131",27,131,0.5,"stim/61.jpeg",6,1,1,NA,"Instruments",2,"stim/objects/Instruments/metronome.png",2,"right","right",0.483000278,1,1,1
"132",27,132,0.5,"stim/52.jpeg",5,2,1,NA,"HouseObjects",1,"stim/objects/HouseObjects/ironingboard.png",1,"left","left",0.394000292,1,1,1
"133",27,133,0.5,"stim/54.jpeg",5,4,1,NA,"HouseObjects",1,"stim/objects/HouseObjects/knife.png",4,"left","right",0.58100009,0,0,1
"134",27,134,0.9,"stim/44.jpeg",4,4,3,NA,"HouseObjects",1,"stim/objects/HouseObjects/rug2.png",4,"left","right",0.484000206,0,0,1
"135",27,135,0.3,"stim/12.jpeg",1,2,2,NA,"HouseObjects",1,"stim/objects/HouseObjects/remote.png",2,"left","right",0.537000179,0,0,1
"136",27,136,0.5,"stim/51.jpeg",5,1,1,NA,"HouseObjects",1,"stim/objects/HouseObjects/iron.png",2,"left","left",0.686000109,1,1,1
"137",27,137,0.5,"stim/62.jpeg",6,2,1,NA,"Instruments",2,"stim/objects/Instruments/musicsheet.png",1,"right","left",0.567000151,0,0,1
"138",27,138,0.9,"stim/34.jpeg",3,4,3,NA,"Instruments",2,"stim/objects/Instruments/oboe2.png",4,"right","right",0.509000063,1,1,1
"139",27,139,0.7,"stim/12.jpeg",1,2,2,NA,"Instruments",2,"stim/objects/Instruments/pipepiano.png",1,"right","right",0.562000275,1,1,1
"140",27,140,0.7,"stim/12.jpeg",1,2,2,NA,"Instruments",2,"stim/objects/Instruments/pipepiano.png",1,"right","right",0.670000076,1,1,1
"141",27,141,0.5,"stim/52.jpeg",5,2,1,NA,"Instruments",2,"stim/objects/Instruments/laud.png",4,"right","right",0.68200016,1,1,1
"142",27,142,0.7,"stim/14.jpeg",1,4,2,NA,"Instruments",2,"stim/objects/Instruments/record_player.png",4,"right","right",0.502000093,1,1,1
"143",27,143,0.5,"stim/63.jpeg",6,3,1,NA,"Instruments",2,"stim/objects/Instruments/musicstand.png",1,"right","right",0.614000082,1,1,1
"144",27,144,0.3,"stim/11.jpeg",1,1,2,NA,"HouseObjects",1,"stim/objects/HouseObjects/recyclingbin.png",4,"left","right",0.520000219,0,0,1
"145",27,145,0.5,"stim/61.jpeg",6,1,1,NA,"HouseObjects",1,"stim/objects/HouseObjects/lintroller.png",4,"left","right",0.802000046,0,0,1
"146",27,146,0.9,"stim/31.jpeg",3,1,3,NA,"Instruments",2,"stim/objects/Instruments/metronome2.png",3,"right","right",0.518000364,1,1,1
"147",27,147,0.7,"stim/11.jpeg",1,1,2,NA,"Instruments",2,"stim/objects/Instruments/panflute.png",2,"right","right",0.588000059,1,1,1
"148",27,148,0.5,"stim/53.jpeg",5,3,1,NA,"HouseObjects",1,"stim/objects/HouseObjects/key.png",4,"left","right",0.675000191,0,0,1
"149",27,149,0.1,"stim/42.jpeg",4,2,3,NA,"Instruments",2,"stim/objects/Instruments/pipepiano2.png",3,"right","left",0.585999966,0,0,1
"150",27,150,0.7,"stim/13.jpeg",1,3,2,NA,"Instruments",2,"stim/objects/Instruments/record.png",4,"right","right",0.581000328,1,1,1
"151",27,151,0.9,"stim/42.jpeg",4,2,3,NA,"HouseObjects",1,"stim/objects/HouseObjects/remote2.png",4,"left","left",0.575000286,1,1,1
"152",27,152,0.5,"stim/61.jpeg",6,1,1,NA,"Instruments",2,"stim/objects/Instruments/metronome.png",1,"right","left",0.778000116,0,0,1
"153",27,153,0.5,"stim/62.jpeg",6,2,1,NA,"Instruments",2,"stim/objects/Instruments/musicsheet.png",4,"right","left",0.624000072,0,0,1
"154",27,154,0.9,"stim/43.jpeg",4,3,3,NA,"HouseObjects",1,"stim/objects/HouseObjects/rubbergloves2.png",2,"left","left",0.754000187,1,1,1
"155",27,155,0.7,"stim/23.jpeg",2,3,2,NA,"HouseObjects",1,"stim/objects/HouseObjects/key2.png",4,"left","left",0.634000063,1,1,1
"156",27,156,0.5,"stim/61.jpeg",6,1,1,NA,"HouseObjects",1,"stim/objects/HouseObjects/lintroller.png",2,"left","right",0.842000008,0,0,1
"157",27,157,0.5,"stim/51.jpeg",5,1,1,NA,"Instruments",2,"stim/objects/Instruments/keyboard.png",1,"right","",NA,0,0,1
"158",27,158,0.5,"stim/62.jpeg",6,2,1,NA,"HouseObjects",1,"stim/objects/HouseObjects/match.png",1,"left","left",0.615000248,1,1,1
"159",27,159,0.5,"stim/53.jpeg",5,3,1,NA,"Instruments",2,"stim/objects/Instruments/maraca.png",4,"right","right",0.451000214,1,1,1
"160",27,160,0.3,"stim/23.jpeg",2,3,2,NA,"Instruments",2,"stim/objects/Instruments/maraca2.png",2,"right","left",0.5400002,0,0,1
"161",27,161,0.3,"stim/21.jpeg",2,1,2,NA,"Instruments",2,"stim/objects/Instruments/keyboard2.png",4,"right","right",0.830000162,1,1,1
"162",27,162,0.9,"stim/41.jpeg",4,1,3,NA,"HouseObjects",1,"stim/objects/HouseObjects/recyclingbin2.png",3,"left","left",0.551000118,1,1,1
"163",27,163,0.3,"stim/14.jpeg",1,4,2,NA,"HouseObjects",1,"stim/objects/HouseObjects/rug.png",4,"left","right",0.705000162,0,0,1
"164",27,164,0.9,"stim/31.jpeg",3,1,3,NA,"Instruments",2,"stim/objects/Instruments/metronome2.png",2,"right","right",0.526000261,1,1,1
"165",27,165,0.7,"stim/11.jpeg",1,1,2,NA,"Instruments",2,"stim/objects/Instruments/panflute.png",3,"right","right",0.676000357,1,1,1
"166",27,166,0.7,"stim/14.jpeg",1,4,2,NA,"Instruments",2,"stim/objects/Instruments/record_player.png",1,"right","right",0.399000168,1,1,1
"167",27,167,0.5,"stim/52.jpeg",5,2,1,NA,"Instruments",2,"stim/objects/Instruments/laud.png",2,"right","left",0.657000065,0,0,1
"168",27,168,0.7,"stim/21.jpeg",2,1,2,NA,"HouseObjects",1,"stim/objects/HouseObjects/iron2.png",1,"left","left",0.630000353,1,1,1
"169",27,169,0.5,"stim/51.jpeg",5,1,1,NA,"HouseObjects",1,"stim/objects/HouseObjects/iron.png",1,"left","right",0.529000044,0,0,1
"170",27,170,0.5,"stim/63.jpeg",6,3,1,NA,"Instruments",2,"stim/objects/Instruments/musicstand.png",3,"right","right",0.476000309,1,1,1
"171",27,171,0.7,"stim/12.jpeg",1,2,2,NA,"Instruments",2,"stim/objects/Instruments/pipepiano.png",3,"right","right",0.553000212,1,1,1
"172",27,172,0.9,"stim/32.jpeg",3,2,3,NA,"Instruments",2,"stim/objects/Instruments/musicsheet2.png",4,"right","right",0.484000206,1,1,1
"173",27,173,0.7,"stim/22.jpeg",2,2,2,NA,"HouseObjects",1,"stim/objects/HouseObjects/ironingboard2.png",4,"left","left",0.593000174,1,1,1
"174",27,174,0.9,"stim/33.jpeg",3,3,3,NA,"Instruments",2,"stim/objects/Instruments/musicstand2.png",2,"right","right",0.551000357,1,1,1
"175",27,175,0.5,"stim/54.jpeg",5,4,1,NA,"HouseObjects",1,"stim/objects/HouseObjects/knife.png",2,"left","right",0.555000305,0,0,1
"176",27,176,0.9,"stim/34.jpeg",3,4,3,NA,"Instruments",2,"stim/objects/Instruments/oboe2.png",4,"right","right",0.391000032,1,1,1
"177",27,177,0.9,"stim/43.jpeg",4,3,3,NA,"HouseObjects",1,"stim/objects/HouseObjects/rubbergloves2.png",4,"left","left",0.676000118,1,1,1
"178",27,178,0.3,"stim/11.jpeg",1,1,2,NA,"HouseObjects",1,"stim/objects/HouseObjects/recyclingbin.png",2,"left","right",0.527000189,0,0,1
"179",27,179,0.7,"stim/21.jpeg",2,1,2,NA,"HouseObjects",1,"stim/objects/HouseObjects/iron2.png",2,"left","right",0.477000237,0,0,1
"180",27,180,0.7,"stim/21.jpeg",2,1,2,NA,"HouseObjects",1,"stim/objects/HouseObjects/iron2.png",1,"left","left",0.531000137,1,1,1
"181",27,181,0.5,"stim/63.jpeg",6,3,1,NA,"HouseObjects",1,"stim/objects/HouseObjects/pan.png",1,"left","left",0.784000397,1,1,1
"182",27,182,0.9,"stim/31.jpeg",3,1,3,NA,"Instruments",2,"stim/objects/Instruments/metronome2.png",3,"right","right",0.531000137,1,1,1
"183",27,183,0.9,"stim/42.jpeg",4,2,3,NA,"HouseObjects",1,"stim/objects/HouseObjects/remote2.png",2,"left","left",0.566000223,1,1,1
"184",27,184,0.5,"stim/52.jpeg",5,2,1,NA,"Instruments",2,"stim/objects/Instruments/laud.png",2,"right","left",0.59400034,0,0,1
"185",27,185,0.5,"stim/62.jpeg",6,2,1,NA,"HouseObjects",1,"stim/objects/HouseObjects/match.png",1,"left","left",0.565000057,1,1,1
"186",27,186,0.5,"stim/64.jpeg",6,4,1,NA,"Instruments",2,"stim/objects/Instruments/oboe.png",3,"right","right",0.661000013,1,1,1
"187",27,187,0.5,"stim/64.jpeg",6,4,1,NA,"HouseObjects",1,"stim/objects/HouseObjects/pitcher.png",4,"left","left",0.661000013,1,1,1
"188",27,188,0.9,"stim/42.jpeg",4,2,3,NA,"HouseObjects",1,"stim/objects/HouseObjects/remote2.png",1,"left","left",0.579000235,1,1,1
"189",27,189,0.9,"stim/44.jpeg",4,4,3,NA,"HouseObjects",1,"stim/objects/HouseObjects/rug2.png",2,"left","left",0.718000174,1,1,1
"190",27,190,0.9,"stim/41.jpeg",4,1,3,NA,"HouseObjects",1,"stim/objects/HouseObjects/recyclingbin2.png",3,"left","left",0.598999977,1,1,1
"191",27,191,0.5,"stim/51.jpeg",5,1,1,NA,"HouseObjects",1,"stim/objects/HouseObjects/iron.png",1,"left","left",0.671000242,1,1,1
"192",27,192,0.9,"stim/32.jpeg",3,2,3,NA,"Instruments",2,"stim/objects/Instruments/musicsheet2.png",4,"right","right",0.485000134,1,1,1
"193",27,193,0.5,"stim/64.jpeg",6,4,1,NA,"Instruments",2,"stim/objects/Instruments/oboe.png",3,"right","left",0.693000078,0,0,1
"194",27,194,0.5,"stim/54.jpeg",5,4,1,NA,"HouseObjects",1,"stim/objects/HouseObjects/knife.png",4,"left","left",0.603000164,1,1,1
"195",27,195,0.5,"stim/51.jpeg",5,1,1,NA,"HouseObjects",1,"stim/objects/HouseObjects/iron.png",1,"left","left",0.625000238,1,1,1
"196",27,196,0.3,"stim/24.jpeg",2,4,2,NA,"Instruments",2,"stim/objects/Instruments/marimba2.png",2,"right","left",0.552000046,0,0,1
"197",27,197,0.7,"stim/11.jpeg",1,1,2,NA,"Instruments",2,"stim/objects/Instruments/panflute.png",3,"right","right",0.633000135,1,1,1
"198",27,198,0.5,"stim/53.jpeg",5,3,1,NA,"Instruments",2,"stim/objects/Instruments/maraca.png",3,"right","left",0.490000248,0,0,1
"199",27,199,0.7,"stim/24.jpeg",2,4,2,NA,"HouseObjects",1,"stim/objects/HouseObjects/knife2.png",2,"left","left",0.528000355,1,1,1
"200",27,200,0.7,"stim/24.jpeg",2,4,2,NA,"HouseObjects",1,"stim/objects/HouseObjects/knife2.png",2,"left","left",0.589000225,1,1,1
"201",27,201,0.9,"stim/33.jpeg",3,3,3,NA,"Instruments",2,"stim/objects/Instruments/musicstand2.png",1,"right","right",0.507000208,1,1,1
"202",27,202,0.5,"stim/51.jpeg",5,1,1,NA,"HouseObjects",1,"stim/objects/HouseObjects/iron.png",3,"left","left",0.607000351,1,1,1
"203",27,203,0.9,"stim/32.jpeg",3,2,3,NA,"Instruments",2,"stim/objects/Instruments/musicsheet2.png",4,"right","right",0.549000025,1,1,1
"204",27,204,0.7,"stim/12.jpeg",1,2,2,NA,"Instruments",2,"stim/objects/Instruments/pipepiano.png",2,"right","left",0.795000076,0,0,1
"205",27,205,0.5,"stim/62.jpeg",6,2,1,NA,"Instruments",2,"stim/objects/Instruments/musicsheet.png",1,"right","left",0.573000193,0,0,1
"206",27,206,0.7,"stim/14.jpeg",1,4,2,NA,"Instruments",2,"stim/objects/Instruments/record_player.png",3,"right","right",0.565000296,1,1,1
"207",27,207,0.5,"stim/52.jpeg",5,2,1,NA,"HouseObjects",1,"stim/objects/HouseObjects/ironingboard.png",2,"left","right",0.647000313,0,0,1
"208",27,208,0.9,"stim/44.jpeg",4,4,3,NA,"HouseObjects",1,"stim/objects/HouseObjects/rug2.png",4,"left","left",0.562000036,1,1,1
"209",27,209,0.5,"stim/51.jpeg",5,1,1,NA,"Instruments",2,"stim/objects/Instruments/keyboard.png",4,"right","right",0.525000095,1,1,1
"210",27,210,0.5,"stim/51.jpeg",5,1,1,NA,"Instruments",2,"stim/objects/Instruments/keyboard.png",4,"right","right",0.455000162,1,1,1
"211",27,211,0.3,"stim/13.jpeg",1,3,2,NA,"HouseObjects",1,"stim/objects/HouseObjects/rubbergloves.png",1,"left","left",0.697000265,1,1,1
"212",27,212,0.7,"stim/22.jpeg",2,2,2,NA,"HouseObjects",1,"stim/objects/HouseObjects/ironingboard2.png",4,"left","left",0.58700037,1,1,1
"213",27,213,0.9,"stim/42.jpeg",4,2,3,NA,"HouseObjects",1,"stim/objects/HouseObjects/remote2.png",1,"left","left",0.542000055,1,1,1
"214",27,214,0.9,"stim/43.jpeg",4,3,3,NA,"HouseObjects",1,"stim/objects/HouseObjects/rubbergloves2.png",3,"left","left",0.531000137,1,1,1
"215",27,215,0.9,"stim/44.jpeg",4,4,3,NA,"HouseObjects",1,"stim/objects/HouseObjects/rug2.png",1,"left","left",0.425000191,1,1,1
"216",27,216,0.1,"stim/34.jpeg",3,4,3,NA,"HouseObjects",1,"stim/objects/HouseObjects/pitcher2.png",3,"left","right",0.428000212,0,0,1
"217",27,217,0.5,"stim/63.jpeg",6,3,1,NA,"Instruments",2,"stim/objects/Instruments/musicstand.png",2,"right","right",0.691000223,1,1,1
"218",27,218,0.9,"stim/43.jpeg",4,3,3,NA,"HouseObjects",1,"stim/objects/HouseObjects/rubbergloves2.png",2,"left","left",0.669000149,1,1,1
"219",27,219,0.5,"stim/61.jpeg",6,1,1,NA,"HouseObjects",1,"stim/objects/HouseObjects/lintroller.png",4,"left","left",0.57400012,1,1,1
"220",27,220,0.1,"stim/44.jpeg",4,4,3,NA,"Instruments",2,"stim/objects/Instruments/record_player2.png",3,"right","left",0.518000364,0,0,1
"221",27,221,0.9,"stim/41.jpeg",4,1,3,NA,"HouseObjects",1,"stim/objects/HouseObjects/recyclingbin2.png",3,"left","left",0.50999999,1,1,1
"222",27,222,0.9,"stim/34.jpeg",3,4,3,NA,"Instruments",2,"stim/objects/Instruments/oboe2.png",2,"right","right",0.844000101,1,1,1
"223",27,223,0.5,"stim/64.jpeg",6,4,1,NA,"Instruments",2,"stim/objects/Instruments/oboe.png",1,"right","left",0.565000057,0,0,1
"224",27,224,0.7,"stim/22.jpeg",2,2,2,NA,"HouseObjects",1,"stim/objects/HouseObjects/ironingboard2.png",3,"left","left",0.485000134,1,1,1
"225",27,225,0.5,"stim/52.jpeg",5,2,1,NA,"HouseObjects",1,"stim/objects/HouseObjects/ironingboard.png",3,"left","left",0.627000332,1,1,1
"226",27,226,0.9,"stim/41.jpeg",4,1,3,NA,"HouseObjects",1,"stim/objects/HouseObjects/recyclingbin2.png",1,"left","left",0.520000219,1,1,1
"227",27,227,0.9,"stim/32.jpeg",3,2,3,NA,"Instruments",2,"stim/objects/Instruments/musicsheet2.png",1,"right","right",0.522000313,1,1,1
"228",27,228,0.9,"stim/42.jpeg",4,2,3,NA,"HouseObjects",1,"stim/objects/HouseObjects/remote2.png",3,"left","left",0.571000338,1,1,1
"229",27,229,0.5,"stim/54.jpeg",5,4,1,NA,"Instruments",2,"stim/objects/Instruments/marimba.png",4,"right","left",0.687999964,0,0,1
"230",27,230,0.9,"stim/42.jpeg",4,2,3,NA,"HouseObjects",1,"stim/objects/HouseObjects/remote2.png",1,"left","left",0.523000002,1,1,1
"231",27,231,0.3,"stim/14.jpeg",1,4,2,NA,"HouseObjects",1,"stim/objects/HouseObjects/rug.png",2,"left","right",0.688000202,0,0,1
"232",27,232,0.5,"stim/63.jpeg",6,3,1,NA,"HouseObjects",1,"stim/objects/HouseObjects/pan.png",3,"left","left",0.685000181,1,1,1
"233",27,233,0.9,"stim/43.jpeg",4,3,3,NA,"HouseObjects",1,"stim/objects/HouseObjects/rubbergloves2.png",1,"left","left",0.71600008,1,1,1
"234",27,234,0.5,"stim/54.jpeg",5,4,1,NA,"HouseObjects",1,"stim/objects/HouseObjects/knife.png",3,"left","left",0.536000013,1,1,1
"235",27,235,0.9,"stim/33.jpeg",3,3,3,NA,"Instruments",2,"stim/objects/Instruments/musicstand2.png",2,"right","right",0.558000088,1,1,1
"236",27,236,0.7,"stim/24.jpeg",2,4,2,NA,"HouseObjects",1,"stim/objects/HouseObjects/knife2.png",3,"left","left",0.470000029,1,1,1
"237",27,237,0.9,"stim/44.jpeg",4,4,3,NA,"HouseObjects",1,"stim/objects/HouseObjects/rug2.png",2,"left","left",0.504000187,1,1,1
"238",27,238,0.7,"stim/24.jpeg",2,4,2,NA,"HouseObjects",1,"stim/objects/HouseObjects/knife2.png",4,"left","left",0.537000179,1,1,1
"239",27,239,0.9,"stim/34.jpeg",3,4,3,NA,"Instruments",2,"stim/objects/Instruments/oboe2.png",3,"right","right",0.534000158,1,1,1
"240",27,240,0.9,"stim/44.jpeg",4,4,3,NA,"HouseObjects",1,"stim/objects/HouseObjects/rug2.png",2,"left","left",0.588000059,1,1,1
