"","participant","OvsN","PE_level","object_cat","obj_file","scn_file","corr_scn_cat","corr_scn_inst","scn_file.1","corr_loc","key_resp_id.keys","key_resp_id.rt","key_resp_conf.keys","key_resp_assoc.keys","key_resp_assoc.rt","key_resp_loc.keys","key_resp_loc.rt","trialN","id_acc","assoc.acc","cond_assoc","loc.acc","cond_loc","group"
"1",27,1,0.9,2,"stim/objects/Instruments/saxophone2.png","stim/34.jpeg",3,4,"stim/34.jpeg",2,"left",0.587999821,4,3,8.450000048,2,2.523999929,1,1,0,0,1,1,1
"2",27,2,0,2,"stim/objects/Instruments/bassguitar3.png","",0,0,"",0,"left",2.187000036,NA,NA,NA,NA,NA,2,0,NA,NA,NA,NA,1
"3",27,2,0,2,"stim/objects/Instruments/flute3.png","",0,0,"",0,"left",0.993999958,NA,NA,NA,NA,NA,3,0,NA,NA,NA,NA,1
"4",27,2,0,1,"stim/objects/HouseObjects/handbrush3.png","",0,0,"",0,"right",2.628999949,NA,NA,NA,NA,NA,4,1,NA,NA,NA,NA,1
"5",27,2,0,1,"stim/objects/HouseObjects/blender4.png","",0,0,"",0,"right",2.469000101,NA,NA,NA,NA,NA,5,1,NA,NA,NA,NA,1
"6",27,2,0,2,"stim/objects/Instruments/electricdrumset4.png","",0,0,"",0,"left",0.911000013,NA,NA,NA,NA,NA,6,0,NA,NA,NA,NA,1
"7",27,1,0.9,2,"stim/objects/Instruments/hihat2.png","stim/33.jpeg",3,3,"stim/33.jpeg",3,"left",1.015000105,4,2,4.202000141,4,2.226999998,7,1,0,0,0,0,1
"8",27,1,0.9,2,"stim/objects/Instruments/gong2.png","stim/32.jpeg",3,2,"stim/32.jpeg",2,"left",1.070000172,4,4,2.583999872,3,2.325999975,8,1,0,0,0,0,1
"9",27,2,0,1,"stim/objects/HouseObjects/dustpan3.png","",0,0,"",0,"right",1.352999926,NA,NA,NA,NA,NA,9,1,NA,NA,NA,NA,1
"10",27,2,0,1,"stim/objects/HouseObjects/bottle3.png","",0,0,"",0,"right",0.888999939,NA,NA,NA,NA,NA,10,1,NA,NA,NA,NA,1
"11",27,1,0.5,2,"stim/objects/HouseObjects/spraybottle.png","stim/64.jpeg",6,4,"stim/64.jpeg",3,"left",1.364000082,3,3,7.503999949,1,4.539999962,11,1,0,0,0,0,1
"12",27,1,0.9,1,"stim/objects/HouseObjects/thermometer2.png","stim/42.jpeg",4,2,"stim/42.jpeg",1,"right",2.520999908,2,1,3.915999889,1,4.635999918,12,0,0,NA,1,NA,1
"13",27,1,0.5,2,"stim/objects/HouseObjects/saw.png","stim/61.jpeg",6,1,"stim/61.jpeg",2,"right",1.123000145,2,1,5.763000011,1,1.013999939,13,0,1,NA,0,NA,1
"14",27,1,0.1,2,"stim/objects/Instruments/violin2.png","stim/42.jpeg",4,2,"stim/42.jpeg",2,"left",1.189999819,3,3,6.609000206,1,3.628999949,14,1,0,0,0,0,1
"15",27,1,0.9,2,"stim/objects/Instruments/frenchhorn2.png","stim/31.jpeg",3,1,"stim/31.jpeg",1,"right",3.233999968,1,1,5.421999931,3,3.343999863,15,0,1,NA,0,NA,1
"16",27,1,0.7,2,"stim/objects/Instruments/trumpet.png","stim/12.jpeg",1,2,"stim/12.jpeg",4,"left",1.023000002,4,1,5.298999786,4,0.861999989,16,1,0,0,1,1,1
"17",27,2,0,1,"stim/objects/HouseObjects/hairdryer3.png","",0,0,"",0,"right",1.256999969,NA,NA,NA,NA,NA,17,1,NA,NA,NA,NA,1
"18",27,1,0.7,1,"stim/objects/HouseObjects/clothespin2.png","stim/22.jpeg",2,2,"stim/22.jpeg",3,"left",0.95600009,4,3,7.379999876,2,1.434000015,18,1,0,0,0,0,1
"19",27,1,0.5,2,"stim/objects/HouseObjects/scale.png","stim/62.jpeg",6,2,"stim/62.jpeg",2,"right",2.144000053,1,1,4.104000092,2,6.493000031,19,0,0,NA,1,NA,1
"20",27,2,0,2,"stim/objects/Instruments/saxophone3.png","",0,0,"",0,"left",1.187000036,NA,NA,NA,NA,NA,20,0,NA,NA,NA,NA,1
"21",27,2,0,1,"stim/objects/HouseObjects/barbecuelighter4.png","",0,0,"",0,"right",1.10800004,NA,NA,NA,NA,NA,21,1,NA,NA,NA,NA,1
"22",27,1,0.5,1,"stim/objects/Instruments/harmonica.png","stim/53.jpeg",5,3,"stim/53.jpeg",3,"right",1.636000156,1,2,4.177999973,1,5.042000055,22,0,0,NA,0,NA,1
"23",27,2,0,1,"stim/objects/HouseObjects/bottle4.png","",0,0,"",0,"right",0.923999786,NA,NA,NA,NA,NA,23,1,NA,NA,NA,NA,1
"24",27,1,0.1,1,"stim/objects/HouseObjects/flyswatter2.png","stim/33.jpeg",3,3,"stim/33.jpeg",3,"left",0.853999853,4,4,4.31799984,1,6.034999847,24,1,0,0,0,0,1
"25",27,1,0.9,1,"stim/objects/HouseObjects/sponge2.png","stim/43.jpeg",4,3,"stim/43.jpeg",4,"right",1.953999996,2,2,5.111000061,1,5.003000021,25,0,0,NA,0,NA,1
"26",27,1,0.3,2,"stim/objects/Instruments/bassguitar2.png","stim/22.jpeg",2,2,"stim/22.jpeg",4,"left",1.028000116,4,2,2.20600009,3,1.428999901,26,1,1,1,0,0,1
"27",27,1,0.7,1,"stim/objects/HouseObjects/clothesdryingrack2.png","stim/21.jpeg",2,1,"stim/21.jpeg",3,"left",1.625999928,4,1,1.559999943,1,0.927999973,27,1,1,1,0,0,1
"28",27,2,0,2,"stim/objects/Instruments/bassdrum4.png","",0,0,"",0,"right",1.576999903,NA,NA,NA,NA,NA,28,1,NA,NA,NA,NA,1
"29",27,1,0.9,1,"stim/objects/HouseObjects/towel2.png","stim/44.jpeg",4,4,"stim/44.jpeg",3,"left",0.967000008,3,3,3.964999914,4,0.976999998,29,1,0,0,0,0,1
"30",27,2,0,1,"stim/objects/HouseObjects/saw3.png","",0,0,"",0,"right",1.003999949,NA,NA,NA,NA,NA,30,1,NA,NA,NA,NA,1
"31",27,2,0,1,"stim/objects/HouseObjects/clock4.png","",0,0,"",0,"right",2.111999989,NA,NA,NA,NA,NA,31,1,NA,NA,NA,NA,1
"32",27,1,0.3,2,"stim/objects/Instruments/cornet2.png","stim/22.jpeg",2,2,"stim/22.jpeg",4,"left",0.786000013,3,2,4.623000145,3,1.406000137,32,1,1,1,0,0,1
"33",27,2,0,1,"stim/objects/HouseObjects/scale3.png","",0,0,"",0,"right",0.92599988,NA,NA,NA,NA,NA,33,1,NA,NA,NA,NA,1
"34",27,2,0,1,"stim/objects/HouseObjects/clothespin3.png","",0,0,"",0,"right",1.036999941,NA,NA,NA,NA,NA,34,1,NA,NA,NA,NA,1
"35",27,1,0.3,1,"stim/objects/HouseObjects/thermometer.png","stim/11.jpeg",1,1,"stim/11.jpeg",1,"left",1.994999886,2,2,2.338000059,1,0.909999847,35,1,0,0,1,1,1
"36",27,1,0.7,1,"stim/objects/HouseObjects/bottle2.png","stim/21.jpeg",2,1,"stim/21.jpeg",1,"right",1.131999969,1,1,4.881999969,4,2.583000183,36,0,1,NA,0,NA,1
"37",27,2,0,1,"stim/objects/HouseObjects/clothesdryingrack4.png","",0,0,"",0,"right",1.174000025,NA,NA,NA,NA,NA,37,1,NA,NA,NA,NA,1
"38",27,2,0,1,"stim/objects/HouseObjects/coffee3.png","",0,0,"",0,"right",0.820000172,NA,NA,NA,NA,NA,38,1,NA,NA,NA,NA,1
"39",27,1,0.3,2,"stim/objects/Instruments/drums2.png","stim/21.jpeg",2,1,"stim/21.jpeg",3,"right",2.294000149,2,4,3.253000021,4,3.049999952,39,0,0,NA,0,NA,1
"40",27,1,0.3,2,"stim/objects/Instruments/cello2.png","stim/23.jpeg",2,3,"stim/23.jpeg",3,"left",0.977999926,4,2,5.209000111,2,2.526000023,40,1,0,0,0,0,1
"41",27,1,0.7,1,"stim/objects/HouseObjects/cushion2.png","stim/24.jpeg",2,4,"stim/24.jpeg",4,"left",1.290999889,4,1,3.40899992,2,5.069000006,41,1,0,0,0,0,1
"42",27,2,0,1,"stim/objects/HouseObjects/garbagebin3.png","",0,0,"",0,"right",1.006999969,NA,NA,NA,NA,NA,42,1,NA,NA,NA,NA,1
"43",27,2,0,2,"stim/objects/Instruments/frenchhorn3.png","",0,0,"",0,"left",1.364000082,NA,NA,NA,NA,NA,43,0,NA,NA,NA,NA,1
"44",27,2,0,2,"stim/objects/Instruments/flutetrans3.png","",0,0,"",0,"left",0.914999962,NA,NA,NA,NA,NA,44,0,NA,NA,NA,NA,1
"45",27,2,0,2,"stim/objects/Instruments/balalaika3.png","",0,0,"",0,"left",0.964999914,NA,NA,NA,NA,NA,45,0,NA,NA,NA,NA,1
"46",27,2,0,2,"stim/objects/Instruments/harp3.png","",0,0,"",0,"left",0.854000092,NA,NA,NA,NA,NA,46,0,NA,NA,NA,NA,1
"47",27,1,0.3,2,"stim/objects/Instruments/electricguitar2.png","stim/23.jpeg",2,3,"stim/23.jpeg",1,"left",0.968000174,2,1,5.031000137,3,2.621999979,47,1,0,0,0,0,1
"48",27,1,0.1,1,"stim/objects/HouseObjects/handbrush2.png","stim/34.jpeg",3,4,"stim/34.jpeg",3,"right",2.026000023,2,1,3.187000036,3,2.361000061,48,0,0,NA,1,NA,1
"49",27,1,0.3,1,"stim/objects/HouseObjects/ashtray2.png","stim/12.jpeg",1,2,"stim/12.jpeg",2,"left",1.655999899,4,2,7.661000013,2,3.510999918,49,1,1,1,1,1,1
"50",27,1,0.5,1,"stim/objects/HouseObjects/handbrush.png","stim/51.jpeg",5,1,"stim/51.jpeg",1,"right",1.239000082,3,1,4.998000145,1,2.381999969,50,0,1,NA,1,NA,1
"51",27,1,0.1,2,"stim/objects/Instruments/tambourine2.png","stim/44.jpeg",4,4,"stim/44.jpeg",4,"left",1.15500021,4,3,2.834000111,3,2.417000055,51,1,0,0,0,0,1
"52",27,2,0,2,"stim/objects/Instruments/banjo3.png","",0,0,"",0,"left",1.678999901,NA,NA,NA,NA,NA,52,0,NA,NA,NA,NA,1
"53",27,1,0.5,2,"stim/objects/Instruments/speaker.png","stim/64.jpeg",6,4,"stim/64.jpeg",1,"left",0.964999914,4,1,5.909999847,1,0.40899992,53,1,0,0,1,1,1
"54",27,1,0.5,1,"stim/objects/Instruments/hihat.png","stim/51.jpeg",5,1,"stim/51.jpeg",2,"right",2.539000034,2,1,6.960999966,3,2.410000086,54,0,1,NA,0,NA,1
"55",27,1,0.7,1,"stim/objects/HouseObjects/blender2.png","stim/24.jpeg",2,4,"stim/24.jpeg",3,"right",1.539999962,2,4,3.41899991,3,4.073000193,55,0,1,NA,1,NA,1
"56",27,2,0,2,"stim/objects/Instruments/drums3.png","",0,0,"",0,"right",2.15199995,NA,NA,NA,NA,NA,56,1,NA,NA,NA,NA,1
"57",27,2,0,1,"stim/objects/HouseObjects/wateringcan3.png","",0,0,"",0,"right",0.842999935,NA,NA,NA,NA,NA,57,1,NA,NA,NA,NA,1
"58",27,2,0,1,"stim/objects/HouseObjects/cushion4.png","",0,0,"",0,"right",0.854000092,NA,NA,NA,NA,NA,58,1,NA,NA,NA,NA,1
"59",27,2,0,2,"stim/objects/Instruments/cymbal4.png","",0,0,"",0,"right",0.888000011,NA,NA,NA,NA,NA,59,1,NA,NA,NA,NA,1
"60",27,1,0.9,1,"stim/objects/HouseObjects/wateringcan2.png","stim/42.jpeg",4,2,"stim/42.jpeg",4,"right",0.600000143,4,3,9.967000008,1,4.330999851,60,0,0,NA,0,NA,1
"61",27,2,0,1,"stim/objects/HouseObjects/basket4.png","",0,0,"",0,"right",1.270999908,NA,NA,NA,NA,NA,61,1,NA,NA,NA,NA,1
"62",27,1,0.7,2,"stim/objects/Instruments/bassdrum2.png","stim/13.jpeg",1,3,"stim/13.jpeg",1,"left",1.447000027,3,1,3.735999823,3,2.878999949,62,1,0,0,0,0,1
"63",27,1,0.1,2,"stim/objects/Instruments/speaker2.png","stim/43.jpeg",4,3,"stim/43.jpeg",1,"right",1.340999842,1,4,3.797999859,3,4.339000225,63,0,0,NA,0,NA,1
"64",27,2,0,2,"stim/objects/Instruments/bassguitar4.png","",0,0,"",0,"right",1.25999999,NA,NA,NA,NA,NA,64,1,NA,NA,NA,NA,1
"65",27,1,0.3,1,"stim/objects/HouseObjects/basket2.png","stim/11.jpeg",1,1,"stim/11.jpeg",2,"right",0.654000044,4,2,5.278999805,2,4.438999891,65,0,0,NA,1,NA,1
"66",27,1,0.3,1,"stim/objects/HouseObjects/towel.png","stim/13.jpeg",1,3,"stim/13.jpeg",1,"right",3.582000017,2,2,3.230000019,3,3.141000032,66,0,0,NA,0,NA,1
"67",27,2,0,2,"stim/objects/Instruments/cornet3.png","",0,0,"",0,"right",1.370000124,NA,NA,NA,NA,NA,67,1,NA,NA,NA,NA,1
"68",27,2,0,2,"stim/objects/Instruments/electricguitar3.png","",0,0,"",0,"right",0.788000107,NA,NA,NA,NA,NA,68,1,NA,NA,NA,NA,1
"69",27,1,0.1,1,"stim/objects/HouseObjects/glass2.png","stim/31.jpeg",3,1,"stim/31.jpeg",1,"right",1.004000187,2,4,4.977999926,4,4.109999895,69,0,0,NA,0,NA,1
"70",27,2,0,1,"stim/objects/HouseObjects/bucket3.png","",0,0,"",0,"right",1.254999876,NA,NA,NA,NA,NA,70,1,NA,NA,NA,NA,1
"71",27,2,0,1,"stim/objects/HouseObjects/ballofstring3.png","",0,0,"",0,"right",0.753000021,NA,NA,NA,NA,NA,71,1,NA,NA,NA,NA,1
"72",27,2,0,2,"stim/objects/Instruments/speaker3.png","",0,0,"",0,"right",0.744999886,NA,NA,NA,NA,NA,72,1,NA,NA,NA,NA,1
"73",27,2,0,1,"stim/objects/HouseObjects/coffee4.png","",0,0,"",0,"right",0.768000126,NA,NA,NA,NA,NA,73,1,NA,NA,NA,NA,1
"74",27,1,0.1,2,"stim/objects/Instruments/trumpet2.png","stim/44.jpeg",4,4,"stim/44.jpeg",1,"left",1.550000191,3,3,9.036000013,3,1.486000061,74,1,0,0,0,0,1
"75",27,2,0,1,"stim/objects/HouseObjects/clothesdryingrack3.png","",0,0,"",0,"right",1.093999863,NA,NA,NA,NA,NA,75,1,NA,NA,NA,NA,1
"76",27,2,0,2,"stim/objects/Instruments/tambourine3.png","",0,0,"",0,"right",0.707999945,NA,NA,NA,NA,NA,76,1,NA,NA,NA,NA,1
"77",27,1,0.1,2,"stim/objects/Instruments/trombone2.png","stim/43.jpeg",4,3,"stim/43.jpeg",4,"right",0.989000082,3,4,2.187000036,3,3.650000095,77,0,0,NA,0,NA,1
"78",27,2,0,1,"stim/objects/HouseObjects/broom3.png","",0,0,"",0,"left",3.122999907,NA,NA,NA,NA,NA,78,0,NA,NA,NA,NA,1
"79",27,2,0,2,"stim/objects/Instruments/clarinet3.png","",0,0,"",0,"left",1.036000013,NA,NA,NA,NA,NA,79,0,NA,NA,NA,NA,1
"80",27,1,0.3,1,"stim/objects/HouseObjects/vacuumcleaner.png","stim/14.jpeg",1,4,"stim/14.jpeg",1,"left",1.053999901,4,1,4.062000036,1,1.210999966,80,1,0,0,1,1,1
"81",27,2,0,1,"stim/objects/HouseObjects/clock3.png","",0,0,"",0,"right",1.355000019,NA,NA,NA,NA,NA,81,1,NA,NA,NA,NA,1
"82",27,1,0.1,2,"stim/objects/Instruments/vuvuzela2.png","stim/43.jpeg",4,3,"stim/43.jpeg",3,"left",1.065999985,4,4,4.735999823,1,0.993000031,82,1,0,0,0,0,1
"83",27,1,0.3,2,"stim/objects/Instruments/electricdrumset2.png","stim/22.jpeg",2,2,"stim/22.jpeg",2,"left",1.212000132,4,3,22.00600004,4,1.292999983,83,1,0,0,0,0,1
"84",27,1,0.9,2,"stim/objects/Instruments/flute2.png","stim/33.jpeg",3,3,"stim/33.jpeg",4,"right",3.023000002,2,2,1.926000118,4,1.437000036,84,0,0,NA,1,NA,1
"85",27,2,0,1,"stim/objects/HouseObjects/flyswatter3.png","",0,0,"",0,"right",3.069000006,NA,NA,NA,NA,NA,85,1,NA,NA,NA,NA,1
"86",27,2,0,1,"stim/objects/HouseObjects/dishsoap4.png","",0,0,"",0,"right",0.91899991,NA,NA,NA,NA,NA,86,1,NA,NA,NA,NA,1
"87",27,1,0.9,1,"stim/objects/HouseObjects/scale2.png","stim/42.jpeg",4,2,"stim/42.jpeg",4,"left",1.421000004,3,2,1.774000168,2,1.879999876,87,1,1,1,0,0,1
"88",27,2,0,1,"stim/objects/HouseObjects/bleachbottle3.png","",0,0,"",0,"right",1.364000082,NA,NA,NA,NA,NA,88,1,NA,NA,NA,NA,1
"89",27,2,0,1,"stim/objects/HouseObjects/spraybottle3.png","",0,0,"",0,"right",0.906000137,NA,NA,NA,NA,NA,89,1,NA,NA,NA,NA,1
"90",27,2,0,2,"stim/objects/Instruments/drums4.png","",0,0,"",0,"right",0.703000069,NA,NA,NA,NA,NA,90,1,NA,NA,NA,NA,1
"91",27,2,0,2,"stim/objects/Instruments/accordion3.png","",0,0,"",0,"left",1.215000153,NA,NA,NA,NA,NA,91,0,NA,NA,NA,NA,1
"92",27,1,0.7,2,"stim/objects/Instruments/acousticguitar2.png","stim/14.jpeg",1,4,"stim/14.jpeg",4,"left",0.883000135,4,3,2.785000086,3,1.414000034,92,1,0,0,0,0,1
"93",27,1,0.1,2,"stim/objects/Instruments/xylophone2.png","stim/44.jpeg",4,4,"stim/44.jpeg",2,"left",2.23300004,4,1,1.789999962,2,1.968000174,93,1,0,0,1,1,1
"94",27,1,0.7,2,"stim/objects/Instruments/balalaika2.png","stim/11.jpeg",1,1,"stim/11.jpeg",4,"left",1.409999847,4,3,8.621999979,4,1.470000029,94,1,0,0,1,1,1
"95",27,1,0.9,2,"stim/objects/Instruments/harmonica2.png","stim/31.jpeg",3,1,"stim/31.jpeg",1,"left",2.809000015,4,1,1.602999926,1,0.696000099,95,1,1,1,1,1,1
"96",27,2,0,2,"stim/objects/Instruments/vuvuzela3.png","",0,0,"",0,"right",1.32400012,NA,NA,NA,NA,NA,96,1,NA,NA,NA,NA,1
"97",27,2,0,1,"stim/objects/HouseObjects/safetypin3.png","",0,0,"",0,"right",4.753000021,NA,NA,NA,NA,NA,97,1,NA,NA,NA,NA,1
"98",27,1,0.7,2,"stim/objects/Instruments/xylophone.png","stim/12.jpeg",1,2,"stim/12.jpeg",3,"right",0.886999846,4,4,3.534999847,4,2.868999958,98,0,0,NA,0,NA,1
"99",27,1,0.9,2,"stim/objects/Instruments/grandpiano2.png","stim/33.jpeg",3,3,"stim/33.jpeg",2,"right",1.804999828,4,3,4.177999973,4,1.161000013,99,0,1,NA,0,NA,1
"100",27,1,0.9,1,"stim/objects/HouseObjects/teapot2.png","stim/41.jpeg",4,1,"stim/41.jpeg",4,"right",1.14199996,4,3,4.34499979,3,2.878000021,100,0,0,NA,0,NA,1
"101",27,2,0,2,"stim/objects/Instruments/trumpet3.png","",0,0,"",0,"left",5.119999886,NA,NA,NA,NA,NA,101,0,NA,NA,NA,NA,1
"102",27,1,0.5,1,"stim/objects/Instruments/saxophone.png","stim/52.jpeg",5,2,"stim/52.jpeg",2,"left",0.599000216,4,1,4.453000069,2,1.597000122,102,1,0,0,1,1,1
"103",27,2,0,1,"stim/objects/HouseObjects/towel3.png","",0,0,"",0,"right",1.708999872,NA,NA,NA,NA,NA,103,1,NA,NA,NA,NA,1
"104",27,1,0.3,2,"stim/objects/Instruments/doublebass2.png","stim/24.jpeg",2,4,"stim/24.jpeg",3,"right",1.159000158,1,4,3.903000116,3,1.470000029,104,0,1,NA,1,NA,1
"105",27,2,0,2,"stim/objects/Instruments/acousticguitar3.png","",0,0,"",0,"left",2.427999973,NA,NA,NA,NA,NA,105,0,NA,NA,NA,NA,1
"106",27,1,0.7,1,"stim/objects/HouseObjects/bucket2.png","stim/23.jpeg",2,3,"stim/23.jpeg",3,"right",1.221000195,3,3,3.18200016,3,1.321000099,106,0,1,NA,1,NA,1
"107",27,2,0,1,"stim/objects/HouseObjects/cushion3.png","",0,0,"",0,"right",1.005000114,NA,NA,NA,NA,NA,107,1,NA,NA,NA,NA,1
"108",27,2,0,1,"stim/objects/HouseObjects/ballofstring4.png","",0,0,"",0,"right",0.835999966,NA,NA,NA,NA,NA,108,1,NA,NA,NA,NA,1
"109",27,1,0.9,2,"stim/objects/Instruments/guitarcase2.png","stim/34.jpeg",3,4,"stim/34.jpeg",4,"left",0.890000105,4,2,1.902999878,3,2.404999971,109,1,0,0,0,0,1
"110",27,2,0,2,"stim/objects/Instruments/xylophone3.png","",0,0,"",0,"right",1.105999947,NA,NA,NA,NA,NA,110,1,NA,NA,NA,NA,1
"111",27,2,0,2,"stim/objects/Instruments/triangle3.png","",0,0,"",0,"left",0.936999798,NA,NA,NA,NA,NA,111,0,NA,NA,NA,NA,1
"112",27,2,0,2,"stim/objects/Instruments/doublebass4.png","",0,0,"",0,"left",0.871999979,NA,NA,NA,NA,NA,112,0,NA,NA,NA,NA,1
"113",27,1,0.5,1,"stim/objects/Instruments/harp.png","stim/54.jpeg",5,4,"stim/54.jpeg",4,"left",0.892000198,3,2,2.901000023,2,2.649000168,113,1,0,0,0,0,1
"114",27,1,0.3,1,"stim/objects/HouseObjects/bleachbottle2.png","stim/12.jpeg",1,2,"stim/12.jpeg",4,"left",1.474999905,3,2,11.31400013,3,1.476999998,114,1,1,1,0,0,1
"115",27,2,0,1,"stim/objects/HouseObjects/sponge3.png","",0,0,"",0,"right",1.523999929,NA,NA,NA,NA,NA,115,1,NA,NA,NA,NA,1
"116",27,1,0.1,1,"stim/objects/HouseObjects/safetypin2.png","stim/32.jpeg",3,2,"stim/32.jpeg",1,"left",1.236999989,4,2,1.639999866,1,0.897000074,116,1,1,1,1,1,1
"117",27,1,0.1,1,"stim/objects/HouseObjects/glassmop2.png","stim/32.jpeg",3,2,"stim/32.jpeg",3,"left",2.993000031,3,1,2.874000072,1,0.755000114,117,1,0,0,0,0,1
"118",27,2,0,2,"stim/objects/Instruments/accordion4.png","",0,0,"",0,"right",0.989000082,NA,NA,NA,NA,NA,118,1,NA,NA,NA,NA,1
"119",27,2,0,2,"stim/objects/Instruments/cello4.png","",0,0,"",0,"right",0.924000025,NA,NA,NA,NA,NA,119,1,NA,NA,NA,NA,1
"120",27,2,0,1,"stim/objects/HouseObjects/barbecuelighter3.png","",0,0,"",0,"right",0.838000059,NA,NA,NA,NA,NA,120,1,NA,NA,NA,NA,1
"121",27,1,0.5,1,"stim/objects/HouseObjects/safetypin.png","stim/53.jpeg",5,3,"stim/53.jpeg",3,"right",0.769999981,2,3,2.120000124,1,1.88499999,121,0,1,NA,0,NA,1
"122",27,1,0.1,1,"stim/objects/HouseObjects/garbagebin2.png","stim/34.jpeg",3,4,"stim/34.jpeg",4,"right",1.523000002,4,4,3.337999821,4,0.720999956,122,0,1,NA,1,NA,1
"123",27,2,0,2,"stim/objects/Instruments/guitarcase3.png","",0,0,"",0,"right",1.325000048,NA,NA,NA,NA,NA,123,1,NA,NA,NA,NA,1
"124",27,2,0,1,"stim/objects/HouseObjects/ashtray4.png","",0,0,"",0,"right",0.980999947,NA,NA,NA,NA,NA,124,1,NA,NA,NA,NA,1
"125",27,1,0.5,2,"stim/objects/HouseObjects/sponge.png","stim/63.jpeg",6,3,"stim/63.jpeg",1,"right",0.635999918,2,3,4.94900012,4,1.27699995,125,0,1,NA,0,NA,1
"126",27,2,0,2,"stim/objects/Instruments/balalaika4.png","",0,0,"",0,"right",2.9150002,NA,NA,NA,NA,NA,126,1,NA,NA,NA,NA,1
"127",27,2,0,2,"stim/objects/Instruments/cymbal3.png","",0,0,"",0,"right",0.880999804,NA,NA,NA,NA,NA,127,1,NA,NA,NA,NA,1
"128",27,2,0,1,"stim/objects/HouseObjects/ashtray3.png","",0,0,"",0,"right",0.720000029,NA,NA,NA,NA,NA,128,1,NA,NA,NA,NA,1
"129",27,2,0,1,"stim/objects/HouseObjects/clothespin4.png","",0,0,"",0,"right",0.734999895,NA,NA,NA,NA,NA,129,1,NA,NA,NA,NA,1
"130",27,1,0.3,2,"stim/objects/Instruments/clarinet2.png","stim/21.jpeg",2,1,"stim/21.jpeg",1,"left",0.986999989,4,3,3.08100009,4,1.588000059,130,1,0,0,0,0,1
"131",27,2,0,2,"stim/objects/Instruments/banjo4.png","",0,0,"",0,"right",1.358999968,NA,NA,NA,NA,NA,131,1,NA,NA,NA,NA,1
"132",27,2,0,2,"stim/objects/Instruments/trombone3.png","",0,0,"",0,"left",0.986000061,NA,NA,NA,NA,NA,132,0,NA,NA,NA,NA,1
"133",27,1,0.3,2,"stim/objects/Instruments/cymbal2.png","stim/23.jpeg",2,3,"stim/23.jpeg",4,"right",0.86500001,2,4,3.953000069,3,2.41899991,133,0,0,NA,0,NA,1
"134",27,1,0.7,1,"stim/objects/HouseObjects/clock2.png","stim/24.jpeg",2,4,"stim/24.jpeg",3,"right",1.674999952,2,4,3.21600008,2,1.570999861,134,0,1,NA,0,NA,1
"135",27,2,0,1,"stim/objects/HouseObjects/glass3.png","",0,0,"",0,"right",1.99000001,NA,NA,NA,NA,NA,135,1,NA,NA,NA,NA,1
"136",27,1,0.7,2,"stim/objects/Instruments/accordion2.png","stim/13.jpeg",1,3,"stim/13.jpeg",2,"right",1.40199995,2,1,2.801000118,3,2.318000078,136,0,0,NA,0,NA,1
"137",27,1,0.7,1,"stim/objects/HouseObjects/broom2.png","stim/22.jpeg",2,2,"stim/22.jpeg",4,"right",1.443000078,2,3,2.308000088,3,1.363000154,137,0,0,NA,0,NA,1
"138",27,2,0,1,"stim/objects/HouseObjects/bleachbottle4.png","",0,0,"",0,"right",1.298000097,NA,NA,NA,NA,NA,138,1,NA,NA,NA,NA,1
"139",27,2,0,2,"stim/objects/Instruments/gong3.png","",0,0,"",0,"right",0.833000183,NA,NA,NA,NA,NA,139,1,NA,NA,NA,NA,1
"140",27,1,0.9,1,"stim/objects/HouseObjects/spraybottle2.png","stim/44.jpeg",4,4,"stim/44.jpeg",1,"right",0.65199995,4,4,3.59800005,3,1.309000015,140,0,1,NA,0,NA,1
"141",27,1,0.3,1,"stim/objects/HouseObjects/thread.png","stim/12.jpeg",1,2,"stim/12.jpeg",3,"right",2.220000029,4,2,1.957000017,3,1.919000149,141,0,1,NA,1,NA,1
"142",27,1,0.1,1,"stim/objects/HouseObjects/hairdryer2.png","stim/33.jpeg",3,3,"stim/33.jpeg",3,"left",2.868000031,3,3,2.410000086,2,1.867999792,142,1,1,1,0,0,1
"143",27,1,0.5,2,"stim/objects/HouseObjects/teapot.png","stim/61.jpeg",6,1,"stim/61.jpeg",1,"left",1.524999857,4,1,5.380999804,1,0.713999987,143,1,1,1,1,1,1
"144",27,2,0,2,"stim/objects/Instruments/clarinet4.png","",0,0,"",0,"left",1.357999802,NA,NA,NA,NA,NA,144,0,NA,NA,NA,NA,1
"145",27,1,0.9,1,"stim/objects/HouseObjects/thread2.png","stim/43.jpeg",4,3,"stim/43.jpeg",3,"right",0.931000233,4,3,3.184000015,1,2.450999975,145,0,1,NA,0,NA,1
"146",27,1,0.9,2,"stim/objects/Instruments/flutetrans2.png","stim/34.jpeg",3,4,"stim/34.jpeg",4,"right",2.868000031,2,3,2.25,3,2.736999989,146,0,0,NA,0,NA,1
"147",27,2,0,2,"stim/objects/Instruments/violin3.png","",0,0,"",0,"left",1.22300005,NA,NA,NA,NA,NA,147,0,NA,NA,NA,NA,1
"148",27,2,0,1,"stim/objects/HouseObjects/glassmop3.png","",0,0,"",0,"right",0.914000034,NA,NA,NA,NA,NA,148,1,NA,NA,NA,NA,1
"149",27,2,0,1,"stim/objects/HouseObjects/doormat3.png","",0,0,"",0,"right",0.819999933,NA,NA,NA,NA,NA,149,1,NA,NA,NA,NA,1
"150",27,2,0,1,"stim/objects/HouseObjects/thermometer3.png","",0,0,"",0,"right",0.778000116,NA,NA,NA,NA,NA,150,1,NA,NA,NA,NA,1
"151",27,2,0,2,"stim/objects/Instruments/acousticguitar4.png","",0,0,"",0,"left",1.213999987,NA,NA,NA,NA,NA,151,0,NA,NA,NA,NA,1
"152",27,2,0,2,"stim/objects/Instruments/electricdrumset3.png","",0,0,"",0,"right",1.384000063,NA,NA,NA,NA,NA,152,1,NA,NA,NA,NA,1
"153",27,1,0.1,1,"stim/objects/HouseObjects/doormat2.png","stim/31.jpeg",3,1,"stim/31.jpeg",1,"right",1.230000019,3,4,2.512000084,4,1.552999973,153,0,0,NA,0,NA,1
"154",27,2,0,2,"stim/objects/Instruments/grandpiano3.png","",0,0,"",0,"left",1.957000017,NA,NA,NA,NA,NA,154,0,NA,NA,NA,NA,1
"155",27,2,0,1,"stim/objects/HouseObjects/broom4.png","",0,0,"",0,"right",1.340999842,NA,NA,NA,NA,NA,155,1,NA,NA,NA,NA,1
"156",27,1,0.7,2,"stim/objects/Instruments/banjo2.png","stim/12.jpeg",1,2,"stim/12.jpeg",2,"left",0.950000048,3,2,2.000999928,2,1.519999981,156,1,1,1,1,1,1
"157",27,1,0.5,2,"stim/objects/Instruments/trombone.png","stim/64.jpeg",6,4,"stim/64.jpeg",1,"left",2.437000036,3,3,3.601000071,3,0.10800004,157,1,0,0,0,0,1
"158",27,2,0,1,"stim/objects/HouseObjects/thread3.png","",0,0,"",0,"right",2.535000086,NA,NA,NA,NA,NA,158,1,NA,NA,NA,NA,1
"159",27,1,0.5,1,"stim/objects/HouseObjects/hairdryer.png","stim/54.jpeg",5,4,"stim/54.jpeg",3,"right",0.787000179,4,1,3.031000137,4,2.248999834,159,0,0,NA,0,NA,1
"160",27,1,0.5,1,"stim/objects/HouseObjects/handvacuum.png","stim/52.jpeg",5,2,"stim/52.jpeg",4,"right",1.27699995,4,4,1.423000097,4,1.249000072,160,0,0,NA,1,NA,1
"161",27,1,0.7,1,"stim/objects/HouseObjects/dishsoap2.png","stim/21.jpeg",2,1,"stim/21.jpeg",4,"left",1.226000071,4,4,2.833000183,4,1.251999855,161,1,0,0,1,1,1
"162",27,1,0.7,2,"stim/objects/Instruments/tuba.png","stim/13.jpeg",1,3,"stim/13.jpeg",3,"left",2.255000114,3,3,2.904999971,4,1.536999941,162,1,1,1,0,0,1
"163",27,2,0,2,"stim/objects/Instruments/hihat3.png","",0,0,"",0,"left",2.171000004,NA,NA,NA,NA,NA,163,0,NA,NA,NA,NA,1
"164",27,1,0.5,2,"stim/objects/Instruments/timbal.png","stim/62.jpeg",6,2,"stim/62.jpeg",4,"right",2.63499999,4,2,2.062000036,3,1.387000084,164,0,1,NA,0,NA,1
"165",27,1,0.1,2,"stim/objects/Instruments/tuba2.png","stim/41.jpeg",4,1,"stim/41.jpeg",3,"right",2.250999928,4,3,4.480000019,3,1.06799984,165,0,0,NA,1,NA,1
"166",27,2,0,1,"stim/objects/HouseObjects/basket3.png","",0,0,"",0,"right",1.424000025,NA,NA,NA,NA,NA,166,1,NA,NA,NA,NA,1
"167",27,1,0.7,1,"stim/objects/HouseObjects/coffee2.png","stim/23.jpeg",2,3,"stim/23.jpeg",2,"right",1.213999987,3,3,4.436000109,4,1.121000051,167,0,1,NA,0,NA,1
"168",27,1,0.3,1,"stim/objects/HouseObjects/wateringcan.png","stim/11.jpeg",1,1,"stim/11.jpeg",1,"right",1.075999975,4,4,1.786000013,2,1.889000177,168,0,0,NA,0,NA,1
"169",27,2,0,2,"stim/objects/Instruments/cornet4.png","",0,0,"",0,"right",1.289999962,NA,NA,NA,NA,NA,169,1,NA,NA,NA,NA,1
"170",27,1,0.5,2,"stim/objects/Instruments/tambourine.png","stim/61.jpeg",6,1,"stim/61.jpeg",2,"right",0.870000124,2,3,3.84800005,3,1.375999928,170,0,0,NA,0,NA,1
"171",27,1,0.1,2,"stim/objects/Instruments/timbal2.png","stim/41.jpeg",4,1,"stim/41.jpeg",1,"right",1.376000166,2,2,22.88599992,2,4.661000013,171,0,0,NA,0,NA,1
"172",27,1,0.3,1,"stim/objects/HouseObjects/barbecuelighter2.png","stim/14.jpeg",1,4,"stim/14.jpeg",3,"left",1.627000093,3,2,9.059000015,4,1.236999989,172,1,0,0,0,0,1
"173",27,1,0.7,2,"stim/objects/Instruments/violin.png","stim/14.jpeg",1,4,"stim/14.jpeg",2,"left",1.423000097,3,3,3.330999851,3,2.335000038,173,1,0,0,0,0,1
"174",27,2,0,2,"stim/objects/Instruments/bassdrum3.png","",0,0,"",0,"right",2.102999926,NA,NA,NA,NA,NA,174,1,NA,NA,NA,NA,1
"175",27,1,0.7,2,"stim/objects/Instruments/vuvuzela.png","stim/11.jpeg",1,1,"stim/11.jpeg",2,"left",1.342999935,4,4,4.595000029,2,7.821000099,175,1,0,0,1,1,1
"176",27,2,0,2,"stim/objects/Instruments/chime3.png","",0,0,"",0,"right",2.054000139,NA,NA,NA,NA,NA,176,1,NA,NA,NA,NA,1
"177",27,2,0,2,"stim/objects/Instruments/doublebass3.png","",0,0,"",0,"right",10.23699999,NA,NA,NA,NA,NA,177,1,NA,NA,NA,NA,1
"178",27,2,0,2,"stim/objects/Instruments/harmonica3.png","",0,0,"",0,"left",3.525000095,NA,NA,NA,NA,NA,178,0,NA,NA,NA,NA,1
"179",27,1,0.1,1,"stim/objects/HouseObjects/handvacuum2.png","stim/31.jpeg",3,1,"stim/31.jpeg",2,"left",0.950999975,3,3,1.628999949,4,4.279000044,179,1,0,0,0,0,1
"180",27,1,0.9,1,"stim/objects/HouseObjects/saw2.png","stim/41.jpeg",4,1,"stim/41.jpeg",3,"right",1.539999962,2,2,2.75,3,1.122999907,180,0,0,NA,1,NA,1
"181",27,1,0.1,1,"stim/objects/HouseObjects/dustpan2.png","stim/32.jpeg",3,2,"stim/32.jpeg",2,"right",1.323000193,4,2,4.778000116,4,0.990999937,181,0,1,NA,0,NA,1
"182",27,2,0,1,"stim/objects/HouseObjects/bucket4.png","",0,0,"",0,"left",1.622999907,NA,NA,NA,NA,NA,182,0,NA,NA,NA,NA,1
"183",27,1,0.9,1,"stim/objects/HouseObjects/vacuumcleaner2.png","stim/41.jpeg",4,1,"stim/41.jpeg",2,"left",1.249000072,3,1,1.902999878,3,1.273999929,183,1,1,1,0,0,1
"184",27,2,0,2,"stim/objects/Instruments/chime4.png","",0,0,"",0,"right",5.594000101,NA,NA,NA,NA,NA,184,1,NA,NA,NA,NA,1
"185",27,2,0,1,"stim/objects/HouseObjects/teapot3.png","",0,0,"",0,"right",0.855999947,NA,NA,NA,NA,NA,185,1,NA,NA,NA,NA,1
"186",27,2,0,2,"stim/objects/Instruments/timbal3.png","",0,0,"",0,"right",0.607000113,NA,NA,NA,NA,NA,186,1,NA,NA,NA,NA,1
"187",27,1,0.1,2,"stim/objects/Instruments/triangle2.png","stim/42.jpeg",4,2,"stim/42.jpeg",1,"left",1.085999966,3,3,1.667999983,2,1.342999935,187,1,0,0,0,0,1
"188",27,2,0,1,"stim/objects/HouseObjects/blender3.png","",0,0,"",0,"right",1.075999975,NA,NA,NA,NA,NA,188,1,NA,NA,NA,NA,1
"189",27,1,0.5,1,"stim/objects/Instruments/guitarcase.png","stim/52.jpeg",5,2,"stim/52.jpeg",3,"left",1.003999949,4,1,1.373000145,3,1.674000025,189,1,0,0,1,1,1
"190",27,1,0.5,1,"stim/objects/HouseObjects/glassmop.png","stim/53.jpeg",5,3,"stim/53.jpeg",3,"right",1.624000072,4,3,1.437000036,3,2.766000032,190,0,1,NA,1,NA,1
"191",27,2,0,2,"stim/objects/Instruments/cello3.png","",0,0,"",0,"left",1.853000164,NA,NA,NA,NA,NA,191,0,NA,NA,NA,NA,1
"192",27,1,0.5,2,"stim/objects/Instruments/triangle.png","stim/63.jpeg",6,3,"stim/63.jpeg",4,"left",0.671000004,4,1,4.029999971,4,2.059999943,192,1,0,0,1,1,1
"193",27,2,0,1,"stim/objects/HouseObjects/dishsoap3.png","",0,0,"",0,"right",0.973999977,NA,NA,NA,NA,NA,193,1,NA,NA,NA,NA,1
"194",27,1,0.9,2,"stim/objects/Instruments/harp2.png","stim/32.jpeg",3,2,"stim/32.jpeg",1,"right",0.813999891,3,3,2.717000008,2,2.221999884,194,0,0,NA,0,NA,1
"195",27,2,0,1,"stim/objects/HouseObjects/handvacuum3.png","",0,0,"",0,"left",1.822999954,NA,NA,NA,NA,NA,195,0,NA,NA,NA,NA,1
"196",27,2,0,2,"stim/objects/Instruments/electricguitar4.png","",0,0,"",0,"right",1.020999908,NA,NA,NA,NA,NA,196,1,NA,NA,NA,NA,1
"197",27,1,0.3,2,"stim/objects/Instruments/chime2.png","stim/24.jpeg",2,4,"stim/24.jpeg",1,"left",1.015000105,4,1,1.036999941,1,1.074999809,197,1,0,0,1,1,1
"198",27,2,0,1,"stim/objects/HouseObjects/vacuumcleaner3.png","",0,0,"",0,"right",1.45600009,NA,NA,NA,NA,NA,198,1,NA,NA,NA,NA,1
"199",27,2,0,2,"stim/objects/Instruments/tuba3.png","",0,0,"",0,"left",0.958999872,NA,NA,NA,NA,NA,199,0,NA,NA,NA,NA,1
"200",27,1,0.3,1,"stim/objects/HouseObjects/ballofstring2.png","stim/13.jpeg",1,3,"stim/13.jpeg",3,"left",1.180000067,4,3,1.009000063,1,1.260999918,200,1,1,1,0,0,1
