"","obj_file","X.x","participant.x","trialN.x","trial_cond","scn_file.x","scn_cat","scn_inst","scn_condition","fillers","obj_cat","obj_cat_num","quadrant","corr_ans","key_resp_trial.keys","key_resp_trial.rt","trial_acc","trial_acc_manual","group.x","practice","X.y","participant.y","OvsN","PE_level","object_cat","scn_file.y","corr_scn_cat","corr_scn_inst","scn_file.1","corr_loc","key_resp_id.keys","key_resp_id.rt","key_resp_conf.keys","key_resp_assoc.keys","key_resp_assoc.rt","key_resp_loc.keys","key_resp_loc.rt","trialN.y","id_acc","assoc.acc","cond_assoc","loc.acc","cond_loc","group.y"
"25","stim/objects/HouseObjects/key.png",1,27,1,0.5,"stim/53.jpeg",5,3,1,NA,"HouseObjects",1,3,"left","",NA,0,0,1,1,NA,NA,NA,NA,NA,NA,NA,NA,NA,NA,NA,NA,NA,NA,NA,NA,NA,NA,NA,NA,NA,NA,NA,NA
"30","stim/objects/HouseObjects/key2.png",2,27,2,0.7,"stim/23.jpeg",2,3,2,NA,"HouseObjects",1,2,"left","",NA,0,0,1,1,NA,NA,NA,NA,NA,NA,NA,NA,NA,NA,NA,NA,NA,NA,NA,NA,NA,NA,NA,NA,NA,NA,NA,NA
"6","stim/objects/HouseObjects/iron2.png",3,27,3,0.7,"stim/21.jpeg",2,1,2,NA,"HouseObjects",1,1,"left","left",0.55700016,1,1,1,1,NA,NA,NA,NA,NA,NA,NA,NA,NA,NA,NA,NA,NA,NA,NA,NA,NA,NA,NA,NA,NA,NA,NA,NA
"217","stim/objects/Instruments/pipepiano.png",4,27,4,0.7,"stim/12.jpeg",1,2,2,NA,"Instruments",2,3,"right","right",0.546000242,1,1,1,1,NA,NA,NA,NA,NA,NA,NA,NA,NA,NA,NA,NA,NA,NA,NA,NA,NA,NA,NA,NA,NA,NA,NA,NA
"13","stim/objects/HouseObjects/ironingboard.png",5,27,5,0.5,"stim/52.jpeg",5,2,1,NA,"HouseObjects",1,2,"left","right",0.670000315,0,0,1,1,NA,NA,NA,NA,NA,NA,NA,NA,NA,NA,NA,NA,NA,NA,NA,NA,NA,NA,NA,NA,NA,NA,NA,NA
"186","stim/objects/Instruments/musicstand2.png",6,27,6,0.9,"stim/33.jpeg",3,3,3,NA,"Instruments",2,2,"right","left",0.440000057,0,0,1,1,NA,NA,NA,NA,NA,NA,NA,NA,NA,NA,NA,NA,NA,NA,NA,NA,NA,NA,NA,NA,NA,NA,NA,NA
"55","stim/objects/HouseObjects/match.png",7,27,7,0.5,"stim/62.jpeg",6,2,1,NA,"HouseObjects",1,3,"left","left",0.704000235,1,1,1,1,NA,NA,NA,NA,NA,NA,NA,NA,NA,NA,NA,NA,NA,NA,NA,NA,NA,NA,NA,NA,NA,NA,NA,NA
"109","stim/objects/HouseObjects/rug.png",8,27,8,0.3,"stim/14.jpeg",1,4,2,NA,"HouseObjects",1,3,"left","right",0.542999983,0,0,1,1,NA,NA,NA,NA,NA,NA,NA,NA,NA,NA,NA,NA,NA,NA,NA,NA,NA,NA,NA,NA,NA,NA,NA,NA
"187","stim/objects/Instruments/musicstand2.png",9,27,9,0.9,"stim/33.jpeg",3,3,3,NA,"Instruments",2,3,"right","right",0.614000082,1,1,1,1,NA,NA,NA,NA,NA,NA,NA,NA,NA,NA,NA,NA,NA,NA,NA,NA,NA,NA,NA,NA,NA,NA,NA,NA
"7","stim/objects/HouseObjects/iron2.png",10,27,10,0.7,"stim/21.jpeg",2,1,2,NA,"HouseObjects",1,2,"left","left",0.870000362,1,1,1,1,NA,NA,NA,NA,NA,NA,NA,NA,NA,NA,NA,NA,NA,NA,NA,NA,NA,NA,NA,NA,NA,NA,NA,NA
"172","stim/objects/Instruments/musicsheet2.png",11,27,11,0.9,"stim/32.jpeg",3,2,3,NA,"Instruments",2,4,"right","right",0.596000195,1,1,1,1,NA,NA,NA,NA,NA,NA,NA,NA,NA,NA,NA,NA,NA,NA,NA,NA,NA,NA,NA,NA,NA,NA,NA,NA
"188","stim/objects/Instruments/musicstand2.png",12,27,12,0.9,"stim/33.jpeg",3,3,3,NA,"Instruments",2,2,"right","right",0.477000237,1,1,1,1,NA,NA,NA,NA,NA,NA,NA,NA,NA,NA,NA,NA,NA,NA,NA,NA,NA,NA,NA,NA,NA,NA,NA,NA
"42","stim/objects/HouseObjects/knife2.png",13,27,13,0.7,"stim/24.jpeg",2,4,2,NA,"HouseObjects",1,4,"left","left",0.542000294,1,1,1,1,NA,NA,NA,NA,NA,NA,NA,NA,NA,NA,NA,NA,NA,NA,NA,NA,NA,NA,NA,NA,NA,NA,NA,NA
"195","stim/objects/Instruments/oboe.png",14,27,14,0.5,"stim/64.jpeg",6,4,1,NA,"Instruments",2,3,"right","left",0.663000107,0,0,1,1,NA,NA,NA,NA,NA,NA,NA,NA,NA,NA,NA,NA,NA,NA,NA,NA,NA,NA,NA,NA,NA,NA,NA,NA
"173","stim/objects/Instruments/musicsheet2.png",15,27,15,0.9,"stim/32.jpeg",3,2,3,NA,"Instruments",2,4,"right","right",0.569000244,1,1,1,1,NA,NA,NA,NA,NA,NA,NA,NA,NA,NA,NA,NA,NA,NA,NA,NA,NA,NA,NA,NA,NA,NA,NA,NA
"121","stim/objects/Instruments/keyboard.png",16,27,16,0.5,"stim/51.jpeg",5,1,1,NA,"Instruments",2,4,"right","right",0.719000101,1,1,1,1,NA,NA,NA,NA,NA,NA,NA,NA,NA,NA,NA,NA,NA,NA,NA,NA,NA,NA,NA,NA,NA,NA,NA,NA
"129","stim/objects/Instruments/laud.png",17,27,17,0.5,"stim/52.jpeg",5,2,1,NA,"Instruments",2,3,"right","left",0.496999979,0,0,1,1,NA,NA,NA,NA,NA,NA,NA,NA,NA,NA,NA,NA,NA,NA,NA,NA,NA,NA,NA,NA,NA,NA,NA,NA
"112","stim/objects/HouseObjects/rug2.png",18,27,18,0.9,"stim/44.jpeg",4,4,3,NA,"HouseObjects",1,4,"left","left",0.630000114,1,1,1,1,NA,NA,NA,NA,NA,NA,NA,NA,NA,NA,NA,NA,NA,NA,NA,NA,NA,NA,NA,NA,NA,NA,NA,NA
"218","stim/objects/Instruments/pipepiano.png",19,27,19,0.7,"stim/12.jpeg",1,2,2,NA,"Instruments",2,2,"right","right",0.622000217,1,1,1,1,NA,NA,NA,NA,NA,NA,NA,NA,NA,NA,NA,NA,NA,NA,NA,NA,NA,NA,NA,NA,NA,NA,NA,NA
"233","stim/objects/Instruments/record.png",20,27,20,0.7,"stim/13.jpeg",1,3,2,NA,"Instruments",2,4,"right","right",0.663000107,1,1,1,1,NA,NA,NA,NA,NA,NA,NA,NA,NA,NA,NA,NA,NA,NA,NA,NA,NA,NA,NA,NA,NA,NA,NA,NA
"134","stim/objects/Instruments/laud2.png",21,27,21,0.3,"stim/22.jpeg",2,2,2,NA,"Instruments",2,3,"right","left",0.573000193,0,0,1,1,NA,NA,NA,NA,NA,NA,NA,NA,NA,NA,NA,NA,NA,NA,NA,NA,NA,NA,NA,NA,NA,NA,NA,NA
"137","stim/objects/Instruments/maraca.png",22,27,22,0.5,"stim/53.jpeg",5,3,1,NA,"Instruments",2,2,"right","left",0.641000271,0,0,1,1,NA,NA,NA,NA,NA,NA,NA,NA,NA,NA,NA,NA,NA,NA,NA,NA,NA,NA,NA,NA,NA,NA,NA,NA
"167","stim/objects/Instruments/musicsheet.png",23,27,23,0.5,"stim/62.jpeg",6,2,1,NA,"Instruments",2,2,"right","left",0.726000071,0,0,1,1,NA,NA,NA,NA,NA,NA,NA,NA,NA,NA,NA,NA,NA,NA,NA,NA,NA,NA,NA,NA,NA,NA,NA,NA
"234","stim/objects/Instruments/record.png",24,27,24,0.7,"stim/13.jpeg",1,3,2,NA,"Instruments",2,4,"right","right",0.795000076,1,1,1,1,NA,NA,NA,NA,NA,NA,NA,NA,NA,NA,NA,NA,NA,NA,NA,NA,NA,NA,NA,NA,NA,NA,NA,NA
"145","stim/objects/Instruments/marimba.png",25,27,25,0.5,"stim/54.jpeg",5,4,1,NA,"Instruments",2,3,"right","left",0.668000221,0,0,1,1,NA,NA,NA,NA,NA,NA,NA,NA,NA,NA,NA,NA,NA,NA,NA,NA,NA,NA,NA,NA,NA,NA,NA,NA
"43","stim/objects/HouseObjects/knife2.png",26,27,26,0.7,"stim/24.jpeg",2,4,2,NA,"HouseObjects",1,4,"left","left",0.560000181,1,1,1,1,NA,NA,NA,NA,NA,NA,NA,NA,NA,NA,NA,NA,NA,NA,NA,NA,NA,NA,NA,NA,NA,NA,NA,NA
"153","stim/objects/Instruments/metronome.png",27,27,27,0.5,"stim/61.jpeg",6,1,1,NA,"Instruments",2,3,"right","right",0.850000143,1,1,1,1,NA,NA,NA,NA,NA,NA,NA,NA,NA,NA,NA,NA,NA,NA,NA,NA,NA,NA,NA,NA,NA,NA,NA,NA
"56","stim/objects/HouseObjects/match.png",28,27,28,0.5,"stim/62.jpeg",6,2,1,NA,"HouseObjects",1,3,"left","left",0.596000195,1,1,1,1,NA,NA,NA,NA,NA,NA,NA,NA,NA,NA,NA,NA,NA,NA,NA,NA,NA,NA,NA,NA,NA,NA,NA,NA
"235","stim/objects/Instruments/record.png",29,27,29,0.7,"stim/13.jpeg",1,3,2,NA,"Instruments",2,2,"right","right",0.825000286,1,1,1,1,NA,NA,NA,NA,NA,NA,NA,NA,NA,NA,NA,NA,NA,NA,NA,NA,NA,NA,NA,NA,NA,NA,NA,NA
"76","stim/objects/HouseObjects/recyclingbin2.png",30,27,30,0.9,"stim/41.jpeg",4,1,3,NA,"HouseObjects",1,2,"left","left",0.56400013,1,1,1,1,NA,NA,NA,NA,NA,NA,NA,NA,NA,NA,NA,NA,NA,NA,NA,NA,NA,NA,NA,NA,NA,NA,NA,NA
"18","stim/objects/HouseObjects/ironingboard2.png",31,27,31,0.7,"stim/22.jpeg",2,2,2,NA,"HouseObjects",1,1,"left","",NA,0,0,1,1,NA,NA,NA,NA,NA,NA,NA,NA,NA,NA,NA,NA,NA,NA,NA,NA,NA,NA,NA,NA,NA,NA,NA,NA
"67","stim/objects/HouseObjects/pitcher.png",32,27,32,0.5,"stim/64.jpeg",6,4,1,NA,"HouseObjects",1,3,"left","right",0.711000204,0,0,1,1,NA,NA,NA,NA,NA,NA,NA,NA,NA,NA,NA,NA,NA,NA,NA,NA,NA,NA,NA,NA,NA,NA,NA,NA
"225","stim/objects/Instruments/record_player.png",33,27,33,0.7,"stim/14.jpeg",1,4,2,NA,"Instruments",2,2,"right","right",0.488000154,1,1,1,1,NA,NA,NA,NA,NA,NA,NA,NA,NA,NA,NA,NA,NA,NA,NA,NA,NA,NA,NA,NA,NA,NA,NA,NA
"236","stim/objects/Instruments/record.png",34,27,34,0.7,"stim/13.jpeg",1,3,2,NA,"Instruments",2,1,"right","right",0.624000072,1,1,1,1,NA,NA,NA,NA,NA,NA,NA,NA,NA,NA,NA,NA,NA,NA,NA,NA,NA,NA,NA,NA,NA,NA,NA,NA
"135","stim/objects/Instruments/laud2.png",35,27,35,0.3,"stim/22.jpeg",2,2,2,NA,"Instruments",2,4,"right","",NA,0,0,1,1,NA,NA,NA,NA,NA,NA,NA,NA,NA,NA,NA,NA,NA,NA,NA,NA,NA,NA,NA,NA,NA,NA,NA,NA
"77","stim/objects/HouseObjects/recyclingbin2.png",36,27,36,0.9,"stim/41.jpeg",4,1,3,NA,"HouseObjects",1,1,"left","left",0.627000332,1,1,1,1,NA,NA,NA,NA,NA,NA,NA,NA,NA,NA,NA,NA,NA,NA,NA,NA,NA,NA,NA,NA,NA,NA,NA,NA
"142","stim/objects/Instruments/maraca2.png",37,27,37,0.3,"stim/23.jpeg",2,3,2,NA,"Instruments",2,1,"right","left",0.596000195,0,0,1,1,NA,NA,NA,NA,NA,NA,NA,NA,NA,NA,NA,NA,NA,NA,NA,NA,NA,NA,NA,NA,NA,NA,NA,NA
"31","stim/objects/HouseObjects/key2.png",38,27,38,0.7,"stim/23.jpeg",2,3,2,NA,"HouseObjects",1,1,"left","left",0.712000132,1,1,1,1,NA,NA,NA,NA,NA,NA,NA,NA,NA,NA,NA,NA,NA,NA,NA,NA,NA,NA,NA,NA,NA,NA,NA,NA
"88","stim/objects/HouseObjects/remote2.png",39,27,39,0.9,"stim/42.jpeg",4,2,3,NA,"HouseObjects",1,2,"left","left",0.6650002,1,1,1,1,NA,NA,NA,NA,NA,NA,NA,NA,NA,NA,NA,NA,NA,NA,NA,NA,NA,NA,NA,NA,NA,NA,NA,NA
"226","stim/objects/Instruments/record_player.png",40,27,40,0.7,"stim/14.jpeg",1,4,2,NA,"Instruments",2,3,"right","right",0.565000057,1,1,1,1,NA,NA,NA,NA,NA,NA,NA,NA,NA,NA,NA,NA,NA,NA,NA,NA,NA,NA,NA,NA,NA,NA,NA,NA
"100","stim/objects/HouseObjects/rubbergloves2.png",41,27,41,0.9,"stim/43.jpeg",4,3,3,NA,"HouseObjects",1,1,"left","left",0.627000093,1,1,1,1,NA,NA,NA,NA,NA,NA,NA,NA,NA,NA,NA,NA,NA,NA,NA,NA,NA,NA,NA,NA,NA,NA,NA,NA
"32","stim/objects/HouseObjects/key2.png",42,27,42,0.7,"stim/23.jpeg",2,3,2,NA,"HouseObjects",1,2,"left","left",0.619000196,1,1,1,1,NA,NA,NA,NA,NA,NA,NA,NA,NA,NA,NA,NA,NA,NA,NA,NA,NA,NA,NA,NA,NA,NA,NA,NA
"19","stim/objects/HouseObjects/ironingboard2.png",43,27,43,0.7,"stim/22.jpeg",2,2,2,NA,"HouseObjects",1,3,"left","left",0.563000202,1,1,1,1,NA,NA,NA,NA,NA,NA,NA,NA,NA,NA,NA,NA,NA,NA,NA,NA,NA,NA,NA,NA,NA,NA,NA,NA
"158","stim/objects/Instruments/metronome2.png",44,27,44,0.9,"stim/31.jpeg",3,1,3,NA,"Instruments",2,1,"right","right",0.450000048,1,1,1,1,NA,NA,NA,NA,NA,NA,NA,NA,NA,NA,NA,NA,NA,NA,NA,NA,NA,NA,NA,NA,NA,NA,NA,NA
"219","stim/objects/Instruments/pipepiano.png",45,27,45,0.7,"stim/12.jpeg",1,2,2,NA,"Instruments",2,1,"right","right",0.52300024,1,1,1,1,NA,NA,NA,NA,NA,NA,NA,NA,NA,NA,NA,NA,NA,NA,NA,NA,NA,NA,NA,NA,NA,NA,NA,NA
"189","stim/objects/Instruments/musicstand2.png",46,27,46,0.9,"stim/33.jpeg",3,3,3,NA,"Instruments",2,4,"right","right",0.413000107,1,1,1,1,NA,NA,NA,NA,NA,NA,NA,NA,NA,NA,NA,NA,NA,NA,NA,NA,NA,NA,NA,NA,NA,NA,NA,NA
"159","stim/objects/Instruments/metronome2.png",47,27,47,0.9,"stim/31.jpeg",3,1,3,NA,"Instruments",2,4,"right","right",0.502000332,1,1,1,1,NA,NA,NA,NA,NA,NA,NA,NA,NA,NA,NA,NA,NA,NA,NA,NA,NA,NA,NA,NA,NA,NA,NA,NA
"138","stim/objects/Instruments/maraca.png",48,27,48,0.5,"stim/53.jpeg",5,3,1,NA,"Instruments",2,3,"right","left",0.531000137,0,0,1,1,NA,NA,NA,NA,NA,NA,NA,NA,NA,NA,NA,NA,NA,NA,NA,NA,NA,NA,NA,NA,NA,NA,NA,NA
"89","stim/objects/HouseObjects/remote2.png",49,27,49,0.9,"stim/42.jpeg",4,2,3,NA,"HouseObjects",1,3,"left","left",0.532999992,1,1,1,1,NA,NA,NA,NA,NA,NA,NA,NA,NA,NA,NA,NA,NA,NA,NA,NA,NA,NA,NA,NA,NA,NA,NA,NA
"68","stim/objects/HouseObjects/pitcher.png",50,27,50,0.5,"stim/64.jpeg",6,4,1,NA,"HouseObjects",1,1,"left","left",0.718000174,1,1,1,1,NA,NA,NA,NA,NA,NA,NA,NA,NA,NA,NA,NA,NA,NA,NA,NA,NA,NA,NA,NA,NA,NA,NA,NA
"61","stim/objects/HouseObjects/pan.png",51,27,51,0.5,"stim/63.jpeg",6,3,1,NA,"HouseObjects",1,4,"left","right",0.671000242,0,0,1,1,NA,NA,NA,NA,NA,NA,NA,NA,NA,NA,NA,NA,NA,NA,NA,NA,NA,NA,NA,NA,NA,NA,NA,NA
"200","stim/objects/Instruments/oboe2.png",52,27,52,0.9,"stim/34.jpeg",3,4,3,NA,"Instruments",2,2,"right","right",0.525000095,1,1,1,1,NA,NA,NA,NA,NA,NA,NA,NA,NA,NA,NA,NA,NA,NA,NA,NA,NA,NA,NA,NA,NA,NA,NA,NA
"113","stim/objects/HouseObjects/rug2.png",53,27,53,0.9,"stim/44.jpeg",4,4,3,NA,"HouseObjects",1,2,"left","left",0.558000088,1,1,1,1,NA,NA,NA,NA,NA,NA,NA,NA,NA,NA,NA,NA,NA,NA,NA,NA,NA,NA,NA,NA,NA,NA,NA,NA
"143","stim/objects/Instruments/maraca2.png",54,27,54,0.3,"stim/23.jpeg",2,3,2,NA,"Instruments",2,1,"right","left",0.657000303,0,0,1,1,NA,NA,NA,NA,NA,NA,NA,NA,NA,NA,NA,NA,NA,NA,NA,NA,NA,NA,NA,NA,NA,NA,NA,NA
"37","stim/objects/HouseObjects/knife.png",55,27,55,0.5,"stim/54.jpeg",5,4,1,NA,"HouseObjects",1,1,"left","left",0.610000134,1,1,1,1,NA,NA,NA,NA,NA,NA,NA,NA,NA,NA,NA,NA,NA,NA,NA,NA,NA,NA,NA,NA,NA,NA,NA,NA
"154","stim/objects/Instruments/metronome.png",56,27,56,0.5,"stim/61.jpeg",6,1,1,NA,"Instruments",2,2,"right","",NA,0,0,1,1,NA,NA,NA,NA,NA,NA,NA,NA,NA,NA,NA,NA,NA,NA,NA,NA,NA,NA,NA,NA,NA,NA,NA,NA
"209","stim/objects/Instruments/panflute.png",57,27,57,0.7,"stim/11.jpeg",1,1,2,NA,"Instruments",2,3,"right","right",0.59800005,1,1,1,1,NA,NA,NA,NA,NA,NA,NA,NA,NA,NA,NA,NA,NA,NA,NA,NA,NA,NA,NA,NA,NA,NA,NA,NA
"69","stim/objects/HouseObjects/pitcher.png",58,27,58,0.5,"stim/64.jpeg",6,4,1,NA,"HouseObjects",1,4,"left","left",0.696000099,1,1,1,1,NA,NA,NA,NA,NA,NA,NA,NA,NA,NA,NA,NA,NA,NA,NA,NA,NA,NA,NA,NA,NA,NA,NA,NA
"60","stim/objects/HouseObjects/match2.png",59,27,59,0.1,"stim/32.jpeg",3,2,3,NA,"HouseObjects",1,4,"left","",NA,0,0,1,1,NA,NA,NA,NA,NA,NA,NA,NA,NA,NA,NA,NA,NA,NA,NA,NA,NA,NA,NA,NA,NA,NA,NA,NA
"196","stim/objects/Instruments/oboe.png",60,27,60,0.5,"stim/64.jpeg",6,4,1,NA,"Instruments",2,2,"right","left",0.71600008,0,0,1,1,NA,NA,NA,NA,NA,NA,NA,NA,NA,NA,NA,NA,NA,NA,NA,NA,NA,NA,NA,NA,NA,NA,NA,NA
"62","stim/objects/HouseObjects/pan.png",61,27,61,0.5,"stim/63.jpeg",6,3,1,NA,"HouseObjects",1,1,"left","left",0.696000338,1,1,1,1,NA,NA,NA,NA,NA,NA,NA,NA,NA,NA,NA,NA,NA,NA,NA,NA,NA,NA,NA,NA,NA,NA,NA,NA
"33","stim/objects/HouseObjects/key2.png",62,27,62,0.7,"stim/23.jpeg",2,3,2,NA,"HouseObjects",1,1,"left","left",0.684000015,1,1,1,1,NA,NA,NA,NA,NA,NA,NA,NA,NA,NA,NA,NA,NA,NA,NA,NA,NA,NA,NA,NA,NA,NA,NA,NA
"190","stim/objects/Instruments/musicstand2.png",63,27,63,0.9,"stim/33.jpeg",3,3,3,NA,"Instruments",2,2,"right","right",0.401000261,1,1,1,1,NA,NA,NA,NA,NA,NA,NA,NA,NA,NA,NA,NA,NA,NA,NA,NA,NA,NA,NA,NA,NA,NA,NA,NA
"63","stim/objects/HouseObjects/pan.png",64,27,64,0.5,"stim/63.jpeg",6,3,1,NA,"HouseObjects",1,4,"left","left",0.696000338,1,1,1,1,NA,NA,NA,NA,NA,NA,NA,NA,NA,NA,NA,NA,NA,NA,NA,NA,NA,NA,NA,NA,NA,NA,NA,NA
"191","stim/objects/Instruments/musicstand2.png",65,27,65,0.9,"stim/33.jpeg",3,3,3,NA,"Instruments",2,1,"right","right",0.442000151,1,1,1,1,NA,NA,NA,NA,NA,NA,NA,NA,NA,NA,NA,NA,NA,NA,NA,NA,NA,NA,NA,NA,NA,NA,NA,NA
"136","stim/objects/Instruments/laud2.png",66,27,66,0.3,"stim/22.jpeg",2,2,2,NA,"Instruments",2,4,"right","left",0.566000223,0,0,1,1,NA,NA,NA,NA,NA,NA,NA,NA,NA,NA,NA,NA,NA,NA,NA,NA,NA,NA,NA,NA,NA,NA,NA,NA
"97","stim/objects/HouseObjects/rubbergloves.png",67,27,67,0.3,"stim/13.jpeg",1,3,2,NA,"HouseObjects",1,4,"left","right",0.457999945,0,0,1,1,NA,NA,NA,NA,NA,NA,NA,NA,NA,NA,NA,NA,NA,NA,NA,NA,NA,NA,NA,NA,NA,NA,NA,NA
"26","stim/objects/HouseObjects/key.png",68,27,68,0.5,"stim/53.jpeg",5,3,1,NA,"HouseObjects",1,1,"left","left",0.580000162,1,1,1,1,NA,NA,NA,NA,NA,NA,NA,NA,NA,NA,NA,NA,NA,NA,NA,NA,NA,NA,NA,NA,NA,NA,NA,NA
"101","stim/objects/HouseObjects/rubbergloves2.png",69,27,69,0.9,"stim/43.jpeg",4,3,3,NA,"HouseObjects",1,2,"left","left",0.570000172,1,1,1,1,NA,NA,NA,NA,NA,NA,NA,NA,NA,NA,NA,NA,NA,NA,NA,NA,NA,NA,NA,NA,NA,NA,NA,NA
"160","stim/objects/Instruments/metronome2.png",70,27,70,0.9,"stim/31.jpeg",3,1,3,NA,"Instruments",2,1,"right","right",0.408000231,1,1,1,1,NA,NA,NA,NA,NA,NA,NA,NA,NA,NA,NA,NA,NA,NA,NA,NA,NA,NA,NA,NA,NA,NA,NA,NA
"237","stim/objects/Instruments/record.png",71,27,71,0.7,"stim/13.jpeg",1,3,2,NA,"Instruments",2,4,"right","right",0.772000074,1,1,1,1,NA,NA,NA,NA,NA,NA,NA,NA,NA,NA,NA,NA,NA,NA,NA,NA,NA,NA,NA,NA,NA,NA,NA,NA
"150","stim/objects/Instruments/marimba2.png",72,27,72,0.3,"stim/24.jpeg",2,4,2,NA,"Instruments",2,2,"right","left",0.455000162,0,0,1,1,NA,NA,NA,NA,NA,NA,NA,NA,NA,NA,NA,NA,NA,NA,NA,NA,NA,NA,NA,NA,NA,NA,NA,NA
"174","stim/objects/Instruments/musicsheet2.png",73,27,73,0.9,"stim/32.jpeg",3,2,3,NA,"Instruments",2,4,"right","right",0.441000223,1,1,1,1,NA,NA,NA,NA,NA,NA,NA,NA,NA,NA,NA,NA,NA,NA,NA,NA,NA,NA,NA,NA,NA,NA,NA,NA
"102","stim/objects/HouseObjects/rubbergloves2.png",74,27,74,0.9,"stim/43.jpeg",4,3,3,NA,"HouseObjects",1,4,"left","left",0.583000183,1,1,1,1,NA,NA,NA,NA,NA,NA,NA,NA,NA,NA,NA,NA,NA,NA,NA,NA,NA,NA,NA,NA,NA,NA,NA,NA
"201","stim/objects/Instruments/oboe2.png",75,27,75,0.9,"stim/34.jpeg",3,4,3,NA,"Instruments",2,1,"right","right",0.57400012,1,1,1,1,NA,NA,NA,NA,NA,NA,NA,NA,NA,NA,NA,NA,NA,NA,NA,NA,NA,NA,NA,NA,NA,NA,NA,NA
"14","stim/objects/HouseObjects/ironingboard.png",76,27,76,0.5,"stim/52.jpeg",5,2,1,NA,"HouseObjects",1,2,"left","left",0.620000362,1,1,1,1,NA,NA,NA,NA,NA,NA,NA,NA,NA,NA,NA,NA,NA,NA,NA,NA,NA,NA,NA,NA,NA,NA,NA,NA
"85","stim/objects/HouseObjects/remote.png",77,27,77,0.3,"stim/12.jpeg",1,2,2,NA,"HouseObjects",1,2,"left","right",0.528000355,0,0,1,1,NA,NA,NA,NA,NA,NA,NA,NA,NA,NA,NA,NA,NA,NA,NA,NA,NA,NA,NA,NA,NA,NA,NA,NA
"98","stim/objects/HouseObjects/rubbergloves.png",78,27,78,0.3,"stim/13.jpeg",1,3,2,NA,"HouseObjects",1,4,"left","",NA,0,0,1,1,NA,NA,NA,NA,NA,NA,NA,NA,NA,NA,NA,NA,NA,NA,NA,NA,NA,NA,NA,NA,NA,NA,NA,NA
"227","stim/objects/Instruments/record_player.png",79,27,79,0.7,"stim/14.jpeg",1,4,2,NA,"Instruments",2,4,"right","right",0.489000082,1,1,1,1,NA,NA,NA,NA,NA,NA,NA,NA,NA,NA,NA,NA,NA,NA,NA,NA,NA,NA,NA,NA,NA,NA,NA,NA
"126","stim/objects/Instruments/keyboard2.png",80,27,80,0.3,"stim/21.jpeg",2,1,2,NA,"Instruments",2,2,"right","left",0.582000256,0,0,1,1,NA,NA,NA,NA,NA,NA,NA,NA,NA,NA,NA,NA,NA,NA,NA,NA,NA,NA,NA,NA,NA,NA,NA,NA
"210","stim/objects/Instruments/panflute.png",81,27,81,0.7,"stim/11.jpeg",1,1,2,NA,"Instruments",2,2,"right","right",0.541000128,1,1,1,1,NA,NA,NA,NA,NA,NA,NA,NA,NA,NA,NA,NA,NA,NA,NA,NA,NA,NA,NA,NA,NA,NA,NA,NA
"20","stim/objects/HouseObjects/ironingboard2.png",82,27,82,0.7,"stim/22.jpeg",2,2,2,NA,"HouseObjects",1,3,"left","left",0.57400012,1,1,1,1,NA,NA,NA,NA,NA,NA,NA,NA,NA,NA,NA,NA,NA,NA,NA,NA,NA,NA,NA,NA,NA,NA,NA,NA
"78","stim/objects/HouseObjects/recyclingbin2.png",83,27,83,0.9,"stim/41.jpeg",4,1,3,NA,"HouseObjects",1,1,"left","left",0.562000275,1,1,1,1,NA,NA,NA,NA,NA,NA,NA,NA,NA,NA,NA,NA,NA,NA,NA,NA,NA,NA,NA,NA,NA,NA,NA,NA
"66","stim/objects/HouseObjects/pan2.png",84,27,84,0.1,"stim/33.jpeg",3,3,3,NA,"HouseObjects",1,4,"left","right",0.472000122,0,0,1,1,NA,NA,NA,NA,NA,NA,NA,NA,NA,NA,NA,NA,NA,NA,NA,NA,NA,NA,NA,NA,NA,NA,NA,NA
"27","stim/objects/HouseObjects/key.png",85,27,85,0.5,"stim/53.jpeg",5,3,1,NA,"HouseObjects",1,4,"left","right",0.597000122,0,0,1,1,NA,NA,NA,NA,NA,NA,NA,NA,NA,NA,NA,NA,NA,NA,NA,NA,NA,NA,NA,NA,NA,NA,NA,NA
"103","stim/objects/HouseObjects/rubbergloves2.png",86,27,86,0.9,"stim/43.jpeg",4,3,3,NA,"HouseObjects",1,3,"left","left",0.656000137,1,1,1,1,NA,NA,NA,NA,NA,NA,NA,NA,NA,NA,NA,NA,NA,NA,NA,NA,NA,NA,NA,NA,NA,NA,NA,NA
"161","stim/objects/Instruments/metronome2.png",87,27,87,0.9,"stim/31.jpeg",3,1,3,NA,"Instruments",2,2,"right","right",0.519000053,1,1,1,1,NA,NA,NA,NA,NA,NA,NA,NA,NA,NA,NA,NA,NA,NA,NA,NA,NA,NA,NA,NA,NA,NA,NA,NA
"151","stim/objects/Instruments/marimba2.png",88,27,88,0.3,"stim/24.jpeg",2,4,2,NA,"Instruments",2,3,"right","",NA,0,0,1,1,NA,NA,NA,NA,NA,NA,NA,NA,NA,NA,NA,NA,NA,NA,NA,NA,NA,NA,NA,NA,NA,NA,NA,NA
"114","stim/objects/HouseObjects/rug2.png",89,27,89,0.9,"stim/44.jpeg",4,4,3,NA,"HouseObjects",1,4,"left","left",0.641000032,1,1,1,1,NA,NA,NA,NA,NA,NA,NA,NA,NA,NA,NA,NA,NA,NA,NA,NA,NA,NA,NA,NA,NA,NA,NA,NA
"175","stim/objects/Instruments/musicsheet2.png",90,27,90,0.9,"stim/32.jpeg",3,2,3,NA,"Instruments",2,3,"right","right",0.527000189,1,1,1,1,NA,NA,NA,NA,NA,NA,NA,NA,NA,NA,NA,NA,NA,NA,NA,NA,NA,NA,NA,NA,NA,NA,NA,NA
"57","stim/objects/HouseObjects/match.png",91,27,91,0.5,"stim/62.jpeg",6,2,1,NA,"HouseObjects",1,4,"left","right",0.400000334,0,0,1,1,NA,NA,NA,NA,NA,NA,NA,NA,NA,NA,NA,NA,NA,NA,NA,NA,NA,NA,NA,NA,NA,NA,NA,NA
"202","stim/objects/Instruments/oboe2.png",92,27,92,0.9,"stim/34.jpeg",3,4,3,NA,"Instruments",2,3,"right","right",0.543000221,1,1,1,1,NA,NA,NA,NA,NA,NA,NA,NA,NA,NA,NA,NA,NA,NA,NA,NA,NA,NA,NA,NA,NA,NA,NA,NA
"203","stim/objects/Instruments/oboe2.png",93,27,93,0.9,"stim/34.jpeg",3,4,3,NA,"Instruments",2,2,"right","right",0.507000208,1,1,1,1,NA,NA,NA,NA,NA,NA,NA,NA,NA,NA,NA,NA,NA,NA,NA,NA,NA,NA,NA,NA,NA,NA,NA,NA
"34","stim/objects/HouseObjects/key2.png",94,27,94,0.7,"stim/23.jpeg",2,3,2,NA,"HouseObjects",1,3,"left","left",0.446000338,1,1,1,1,NA,NA,NA,NA,NA,NA,NA,NA,NA,NA,NA,NA,NA,NA,NA,NA,NA,NA,NA,NA,NA,NA,NA,NA
"181","stim/objects/Instruments/musicstand.png",95,27,95,0.5,"stim/63.jpeg",6,3,1,NA,"Instruments",2,1,"right","left",0.624000072,0,0,1,1,NA,NA,NA,NA,NA,NA,NA,NA,NA,NA,NA,NA,NA,NA,NA,NA,NA,NA,NA,NA,NA,NA,NA,NA
"211","stim/objects/Instruments/panflute.png",96,27,96,0.7,"stim/11.jpeg",1,1,2,NA,"Instruments",2,1,"right","right",0.529000044,1,1,1,1,NA,NA,NA,NA,NA,NA,NA,NA,NA,NA,NA,NA,NA,NA,NA,NA,NA,NA,NA,NA,NA,NA,NA,NA
"122","stim/objects/Instruments/keyboard.png",97,27,97,0.5,"stim/51.jpeg",5,1,1,NA,"Instruments",2,1,"right","right",0.650000334,1,1,1,1,NA,NA,NA,NA,NA,NA,NA,NA,NA,NA,NA,NA,NA,NA,NA,NA,NA,NA,NA,NA,NA,NA,NA,NA
"79","stim/objects/HouseObjects/recyclingbin2.png",98,27,98,0.9,"stim/41.jpeg",4,1,3,NA,"HouseObjects",1,1,"left","left",0.63100028,1,1,1,1,NA,NA,NA,NA,NA,NA,NA,NA,NA,NA,NA,NA,NA,NA,NA,NA,NA,NA,NA,NA,NA,NA,NA,NA
"54","stim/objects/HouseObjects/lintroller2.png",99,27,99,0.1,"stim/31.jpeg",3,1,3,NA,"HouseObjects",1,4,"left","right",0.440000057,0,0,1,1,NA,NA,NA,NA,NA,NA,NA,NA,NA,NA,NA,NA,NA,NA,NA,NA,NA,NA,NA,NA,NA,NA,NA,NA
"86","stim/objects/HouseObjects/remote.png",100,27,100,0.3,"stim/12.jpeg",1,2,2,NA,"HouseObjects",1,1,"left","right",0.448000193,0,0,1,1,NA,NA,NA,NA,NA,NA,NA,NA,NA,NA,NA,NA,NA,NA,NA,NA,NA,NA,NA,NA,NA,NA,NA,NA
"70","stim/objects/HouseObjects/pitcher.png",101,27,101,0.5,"stim/64.jpeg",6,4,1,NA,"HouseObjects",1,3,"left","left",0.769000292,1,1,1,1,NA,NA,NA,NA,NA,NA,NA,NA,NA,NA,NA,NA,NA,NA,NA,NA,NA,NA,NA,NA,NA,NA,NA,NA
"127","stim/objects/Instruments/keyboard2.png",102,27,102,0.3,"stim/21.jpeg",2,1,2,NA,"Instruments",2,4,"right","left",0.740000248,0,0,1,1,NA,NA,NA,NA,NA,NA,NA,NA,NA,NA,NA,NA,NA,NA,NA,NA,NA,NA,NA,NA,NA,NA,NA,NA
"139","stim/objects/Instruments/maraca.png",103,27,103,0.5,"stim/53.jpeg",5,3,1,NA,"Instruments",2,2,"right","right",0.805000067,1,1,1,1,NA,NA,NA,NA,NA,NA,NA,NA,NA,NA,NA,NA,NA,NA,NA,NA,NA,NA,NA,NA,NA,NA,NA,NA
"146","stim/objects/Instruments/marimba.png",104,27,104,0.5,"stim/54.jpeg",5,4,1,NA,"Instruments",2,2,"right","right",0.690999985,1,1,1,1,NA,NA,NA,NA,NA,NA,NA,NA,NA,NA,NA,NA,NA,NA,NA,NA,NA,NA,NA,NA,NA,NA,NA,NA
"90","stim/objects/HouseObjects/remote2.png",105,27,105,0.9,"stim/42.jpeg",4,2,3,NA,"HouseObjects",1,3,"left","left",0.686000109,1,1,1,1,NA,NA,NA,NA,NA,NA,NA,NA,NA,NA,NA,NA,NA,NA,NA,NA,NA,NA,NA,NA,NA,NA,NA,NA
"147","stim/objects/Instruments/marimba.png",106,27,106,0.5,"stim/54.jpeg",5,4,1,NA,"Instruments",2,3,"right","left",0.529000044,0,0,1,1,NA,NA,NA,NA,NA,NA,NA,NA,NA,NA,NA,NA,NA,NA,NA,NA,NA,NA,NA,NA,NA,NA,NA,NA
"49","stim/objects/HouseObjects/lintroller.png",107,27,107,0.5,"stim/61.jpeg",6,1,1,NA,"HouseObjects",1,2,"left","left",0.741000175,1,1,1,1,NA,NA,NA,NA,NA,NA,NA,NA,NA,NA,NA,NA,NA,NA,NA,NA,NA,NA,NA,NA,NA,NA,NA,NA
"212","stim/objects/Instruments/panflute.png",108,27,108,0.7,"stim/11.jpeg",1,1,2,NA,"Instruments",2,1,"right","right",0.521000147,1,1,1,1,NA,NA,NA,NA,NA,NA,NA,NA,NA,NA,NA,NA,NA,NA,NA,NA,NA,NA,NA,NA,NA,NA,NA,NA
"162","stim/objects/Instruments/metronome2.png",109,27,109,0.9,"stim/31.jpeg",3,1,3,NA,"Instruments",2,3,"right","right",0.486000061,1,1,1,1,NA,NA,NA,NA,NA,NA,NA,NA,NA,NA,NA,NA,NA,NA,NA,NA,NA,NA,NA,NA,NA,NA,NA,NA
"155","stim/objects/Instruments/metronome.png",110,27,110,0.5,"stim/61.jpeg",6,1,1,NA,"Instruments",2,3,"right","left",0.774000168,0,0,1,1,NA,NA,NA,NA,NA,NA,NA,NA,NA,NA,NA,NA,NA,NA,NA,NA,NA,NA,NA,NA,NA,NA,NA,NA
"80","stim/objects/HouseObjects/recyclingbin2.png",111,27,111,0.9,"stim/41.jpeg",4,1,3,NA,"HouseObjects",1,1,"left","left",0.601000071,1,1,1,1,NA,NA,NA,NA,NA,NA,NA,NA,NA,NA,NA,NA,NA,NA,NA,NA,NA,NA,NA,NA,NA,NA,NA,NA
"176","stim/objects/Instruments/musicsheet2.png",112,27,112,0.9,"stim/32.jpeg",3,2,3,NA,"Instruments",2,3,"right","right",0.575000286,1,1,1,1,NA,NA,NA,NA,NA,NA,NA,NA,NA,NA,NA,NA,NA,NA,NA,NA,NA,NA,NA,NA,NA,NA,NA,NA
"148","stim/objects/Instruments/marimba.png",113,27,113,0.5,"stim/54.jpeg",5,4,1,NA,"Instruments",2,2,"right","right",0.751000166,1,1,1,1,NA,NA,NA,NA,NA,NA,NA,NA,NA,NA,NA,NA,NA,NA,NA,NA,NA,NA,NA,NA,NA,NA,NA,NA
"35","stim/objects/HouseObjects/key2.png",114,27,114,0.7,"stim/23.jpeg",2,3,2,NA,"HouseObjects",1,3,"left","right",0.791000366,0,0,1,1,NA,NA,NA,NA,NA,NA,NA,NA,NA,NA,NA,NA,NA,NA,NA,NA,NA,NA,NA,NA,NA,NA,NA,NA
"73","stim/objects/HouseObjects/recyclingbin.png",115,27,115,0.3,"stim/11.jpeg",1,1,2,NA,"HouseObjects",1,1,"left","right",0.650000095,0,0,1,1,NA,NA,NA,NA,NA,NA,NA,NA,NA,NA,NA,NA,NA,NA,NA,NA,NA,NA,NA,NA,NA,NA,NA,NA
"204","stim/objects/Instruments/oboe2.png",116,27,116,0.9,"stim/34.jpeg",3,4,3,NA,"Instruments",2,1,"right","right",0.486000061,1,1,1,1,NA,NA,NA,NA,NA,NA,NA,NA,NA,NA,NA,NA,NA,NA,NA,NA,NA,NA,NA,NA,NA,NA,NA,NA
"28","stim/objects/HouseObjects/key.png",117,27,117,0.5,"stim/53.jpeg",5,3,1,NA,"HouseObjects",1,2,"left","right",0.675000191,0,0,1,1,NA,NA,NA,NA,NA,NA,NA,NA,NA,NA,NA,NA,NA,NA,NA,NA,NA,NA,NA,NA,NA,NA,NA,NA
"44","stim/objects/HouseObjects/knife2.png",118,27,118,0.7,"stim/24.jpeg",2,4,2,NA,"HouseObjects",1,3,"left","right",0.829000235,0,0,1,1,NA,NA,NA,NA,NA,NA,NA,NA,NA,NA,NA,NA,NA,NA,NA,NA,NA,NA,NA,NA,NA,NA,NA,NA
"163","stim/objects/Instruments/metronome2.png",119,27,119,0.9,"stim/31.jpeg",3,1,3,NA,"Instruments",2,1,"right","right",0.541000128,1,1,1,1,NA,NA,NA,NA,NA,NA,NA,NA,NA,NA,NA,NA,NA,NA,NA,NA,NA,NA,NA,NA,NA,NA,NA,NA
"182","stim/objects/Instruments/musicstand.png",120,27,120,0.5,"stim/63.jpeg",6,3,1,NA,"Instruments",2,4,"right","left",0.784000158,0,0,1,1,NA,NA,NA,NA,NA,NA,NA,NA,NA,NA,NA,NA,NA,NA,NA,NA,NA,NA,NA,NA,NA,NA,NA,NA
"228","stim/objects/Instruments/record_player.png",121,27,121,0.7,"stim/14.jpeg",1,4,2,NA,"Instruments",2,3,"right","",NA,0,0,1,1,NA,NA,NA,NA,NA,NA,NA,NA,NA,NA,NA,NA,NA,NA,NA,NA,NA,NA,NA,NA,NA,NA,NA,NA
"168","stim/objects/Instruments/musicsheet.png",122,27,122,0.5,"stim/62.jpeg",6,2,1,NA,"Instruments",2,2,"right","left",0.650000334,0,0,1,1,NA,NA,NA,NA,NA,NA,NA,NA,NA,NA,NA,NA,NA,NA,NA,NA,NA,NA,NA,NA,NA,NA,NA,NA
"216","stim/objects/Instruments/panflute2.png",123,27,123,0.1,"stim/41.jpeg",4,1,3,NA,"Instruments",2,1,"right","left",0.586000204,0,0,1,1,NA,NA,NA,NA,NA,NA,NA,NA,NA,NA,NA,NA,NA,NA,NA,NA,NA,NA,NA,NA,NA,NA,NA,NA
"130","stim/objects/Instruments/laud.png",124,27,124,0.5,"stim/52.jpeg",5,2,1,NA,"Instruments",2,4,"right","right",0.713000059,1,1,1,1,NA,NA,NA,NA,NA,NA,NA,NA,NA,NA,NA,NA,NA,NA,NA,NA,NA,NA,NA,NA,NA,NA,NA,NA
"8","stim/objects/HouseObjects/iron2.png",125,27,125,0.7,"stim/21.jpeg",2,1,2,NA,"HouseObjects",1,3,"left","left",0.766000032,1,1,1,1,NA,NA,NA,NA,NA,NA,NA,NA,NA,NA,NA,NA,NA,NA,NA,NA,NA,NA,NA,NA,NA,NA,NA,NA
"9","stim/objects/HouseObjects/iron2.png",126,27,126,0.7,"stim/21.jpeg",2,1,2,NA,"HouseObjects",1,1,"left","left",0.585000277,1,1,1,1,NA,NA,NA,NA,NA,NA,NA,NA,NA,NA,NA,NA,NA,NA,NA,NA,NA,NA,NA,NA,NA,NA,NA,NA
"240","stim/objects/Instruments/record2.png",127,27,127,0.1,"stim/43.jpeg",4,3,3,NA,"Instruments",2,3,"right","left",0.541000128,0,0,1,1,NA,NA,NA,NA,NA,NA,NA,NA,NA,NA,NA,NA,NA,NA,NA,NA,NA,NA,NA,NA,NA,NA,NA,NA
"21","stim/objects/HouseObjects/ironingboard2.png",128,27,128,0.7,"stim/22.jpeg",2,2,2,NA,"HouseObjects",1,3,"left","",NA,0,0,1,1,NA,NA,NA,NA,NA,NA,NA,NA,NA,NA,NA,NA,NA,NA,NA,NA,NA,NA,NA,NA,NA,NA,NA,NA
"238","stim/objects/Instruments/record.png",129,27,129,0.7,"stim/13.jpeg",1,3,2,NA,"Instruments",2,1,"right","right",0.463000059,1,1,1,1,NA,NA,NA,NA,NA,NA,NA,NA,NA,NA,NA,NA,NA,NA,NA,NA,NA,NA,NA,NA,NA,NA,NA,NA
"50","stim/objects/HouseObjects/lintroller.png",130,27,130,0.5,"stim/61.jpeg",6,1,1,NA,"HouseObjects",1,1,"left","right",0.448000193,0,0,1,1,NA,NA,NA,NA,NA,NA,NA,NA,NA,NA,NA,NA,NA,NA,NA,NA,NA,NA,NA,NA,NA,NA,NA,NA
"156","stim/objects/Instruments/metronome.png",131,27,131,0.5,"stim/61.jpeg",6,1,1,NA,"Instruments",2,2,"right","right",0.483000278,1,1,1,1,NA,NA,NA,NA,NA,NA,NA,NA,NA,NA,NA,NA,NA,NA,NA,NA,NA,NA,NA,NA,NA,NA,NA,NA
"15","stim/objects/HouseObjects/ironingboard.png",132,27,132,0.5,"stim/52.jpeg",5,2,1,NA,"HouseObjects",1,1,"left","left",0.394000292,1,1,1,1,NA,NA,NA,NA,NA,NA,NA,NA,NA,NA,NA,NA,NA,NA,NA,NA,NA,NA,NA,NA,NA,NA,NA,NA
"38","stim/objects/HouseObjects/knife.png",133,27,133,0.5,"stim/54.jpeg",5,4,1,NA,"HouseObjects",1,4,"left","right",0.58100009,0,0,1,1,NA,NA,NA,NA,NA,NA,NA,NA,NA,NA,NA,NA,NA,NA,NA,NA,NA,NA,NA,NA,NA,NA,NA,NA
"115","stim/objects/HouseObjects/rug2.png",134,27,134,0.9,"stim/44.jpeg",4,4,3,NA,"HouseObjects",1,4,"left","right",0.484000206,0,0,1,1,NA,NA,NA,NA,NA,NA,NA,NA,NA,NA,NA,NA,NA,NA,NA,NA,NA,NA,NA,NA,NA,NA,NA,NA
"87","stim/objects/HouseObjects/remote.png",135,27,135,0.3,"stim/12.jpeg",1,2,2,NA,"HouseObjects",1,2,"left","right",0.537000179,0,0,1,1,NA,NA,NA,NA,NA,NA,NA,NA,NA,NA,NA,NA,NA,NA,NA,NA,NA,NA,NA,NA,NA,NA,NA,NA
"1","stim/objects/HouseObjects/iron.png",136,27,136,0.5,"stim/51.jpeg",5,1,1,NA,"HouseObjects",1,2,"left","left",0.686000109,1,1,1,1,NA,NA,NA,NA,NA,NA,NA,NA,NA,NA,NA,NA,NA,NA,NA,NA,NA,NA,NA,NA,NA,NA,NA,NA
"169","stim/objects/Instruments/musicsheet.png",137,27,137,0.5,"stim/62.jpeg",6,2,1,NA,"Instruments",2,1,"right","left",0.567000151,0,0,1,1,NA,NA,NA,NA,NA,NA,NA,NA,NA,NA,NA,NA,NA,NA,NA,NA,NA,NA,NA,NA,NA,NA,NA,NA
"205","stim/objects/Instruments/oboe2.png",138,27,138,0.9,"stim/34.jpeg",3,4,3,NA,"Instruments",2,4,"right","right",0.509000063,1,1,1,1,NA,NA,NA,NA,NA,NA,NA,NA,NA,NA,NA,NA,NA,NA,NA,NA,NA,NA,NA,NA,NA,NA,NA,NA
"220","stim/objects/Instruments/pipepiano.png",139,27,139,0.7,"stim/12.jpeg",1,2,2,NA,"Instruments",2,1,"right","right",0.562000275,1,1,1,1,NA,NA,NA,NA,NA,NA,NA,NA,NA,NA,NA,NA,NA,NA,NA,NA,NA,NA,NA,NA,NA,NA,NA,NA
"221","stim/objects/Instruments/pipepiano.png",140,27,140,0.7,"stim/12.jpeg",1,2,2,NA,"Instruments",2,1,"right","right",0.670000076,1,1,1,1,NA,NA,NA,NA,NA,NA,NA,NA,NA,NA,NA,NA,NA,NA,NA,NA,NA,NA,NA,NA,NA,NA,NA,NA
"131","stim/objects/Instruments/laud.png",141,27,141,0.5,"stim/52.jpeg",5,2,1,NA,"Instruments",2,4,"right","right",0.68200016,1,1,1,1,NA,NA,NA,NA,NA,NA,NA,NA,NA,NA,NA,NA,NA,NA,NA,NA,NA,NA,NA,NA,NA,NA,NA,NA
"229","stim/objects/Instruments/record_player.png",142,27,142,0.7,"stim/14.jpeg",1,4,2,NA,"Instruments",2,4,"right","right",0.502000093,1,1,1,1,NA,NA,NA,NA,NA,NA,NA,NA,NA,NA,NA,NA,NA,NA,NA,NA,NA,NA,NA,NA,NA,NA,NA,NA
"183","stim/objects/Instruments/musicstand.png",143,27,143,0.5,"stim/63.jpeg",6,3,1,NA,"Instruments",2,1,"right","right",0.614000082,1,1,1,1,NA,NA,NA,NA,NA,NA,NA,NA,NA,NA,NA,NA,NA,NA,NA,NA,NA,NA,NA,NA,NA,NA,NA,NA
"74","stim/objects/HouseObjects/recyclingbin.png",144,27,144,0.3,"stim/11.jpeg",1,1,2,NA,"HouseObjects",1,4,"left","right",0.520000219,0,0,1,1,NA,NA,NA,NA,NA,NA,NA,NA,NA,NA,NA,NA,NA,NA,NA,NA,NA,NA,NA,NA,NA,NA,NA,NA
"51","stim/objects/HouseObjects/lintroller.png",145,27,145,0.5,"stim/61.jpeg",6,1,1,NA,"HouseObjects",1,4,"left","right",0.802000046,0,0,1,1,NA,NA,NA,NA,NA,NA,NA,NA,NA,NA,NA,NA,NA,NA,NA,NA,NA,NA,NA,NA,NA,NA,NA,NA
"164","stim/objects/Instruments/metronome2.png",146,27,146,0.9,"stim/31.jpeg",3,1,3,NA,"Instruments",2,3,"right","right",0.518000364,1,1,1,1,NA,NA,NA,NA,NA,NA,NA,NA,NA,NA,NA,NA,NA,NA,NA,NA,NA,NA,NA,NA,NA,NA,NA,NA
"213","stim/objects/Instruments/panflute.png",147,27,147,0.7,"stim/11.jpeg",1,1,2,NA,"Instruments",2,2,"right","right",0.588000059,1,1,1,1,NA,NA,NA,NA,NA,NA,NA,NA,NA,NA,NA,NA,NA,NA,NA,NA,NA,NA,NA,NA,NA,NA,NA,NA
"29","stim/objects/HouseObjects/key.png",148,27,148,0.5,"stim/53.jpeg",5,3,1,NA,"HouseObjects",1,4,"left","right",0.675000191,0,0,1,1,NA,NA,NA,NA,NA,NA,NA,NA,NA,NA,NA,NA,NA,NA,NA,NA,NA,NA,NA,NA,NA,NA,NA,NA
"224","stim/objects/Instruments/pipepiano2.png",149,27,149,0.1,"stim/42.jpeg",4,2,3,NA,"Instruments",2,3,"right","left",0.585999966,0,0,1,1,NA,NA,NA,NA,NA,NA,NA,NA,NA,NA,NA,NA,NA,NA,NA,NA,NA,NA,NA,NA,NA,NA,NA,NA
"239","stim/objects/Instruments/record.png",150,27,150,0.7,"stim/13.jpeg",1,3,2,NA,"Instruments",2,4,"right","right",0.581000328,1,1,1,1,NA,NA,NA,NA,NA,NA,NA,NA,NA,NA,NA,NA,NA,NA,NA,NA,NA,NA,NA,NA,NA,NA,NA,NA
"91","stim/objects/HouseObjects/remote2.png",151,27,151,0.9,"stim/42.jpeg",4,2,3,NA,"HouseObjects",1,4,"left","left",0.575000286,1,1,1,1,NA,NA,NA,NA,NA,NA,NA,NA,NA,NA,NA,NA,NA,NA,NA,NA,NA,NA,NA,NA,NA,NA,NA,NA
"157","stim/objects/Instruments/metronome.png",152,27,152,0.5,"stim/61.jpeg",6,1,1,NA,"Instruments",2,1,"right","left",0.778000116,0,0,1,1,NA,NA,NA,NA,NA,NA,NA,NA,NA,NA,NA,NA,NA,NA,NA,NA,NA,NA,NA,NA,NA,NA,NA,NA
"170","stim/objects/Instruments/musicsheet.png",153,27,153,0.5,"stim/62.jpeg",6,2,1,NA,"Instruments",2,4,"right","left",0.624000072,0,0,1,1,NA,NA,NA,NA,NA,NA,NA,NA,NA,NA,NA,NA,NA,NA,NA,NA,NA,NA,NA,NA,NA,NA,NA,NA
"104","stim/objects/HouseObjects/rubbergloves2.png",154,27,154,0.9,"stim/43.jpeg",4,3,3,NA,"HouseObjects",1,2,"left","left",0.754000187,1,1,1,1,NA,NA,NA,NA,NA,NA,NA,NA,NA,NA,NA,NA,NA,NA,NA,NA,NA,NA,NA,NA,NA,NA,NA,NA
"36","stim/objects/HouseObjects/key2.png",155,27,155,0.7,"stim/23.jpeg",2,3,2,NA,"HouseObjects",1,4,"left","left",0.634000063,1,1,1,1,NA,NA,NA,NA,NA,NA,NA,NA,NA,NA,NA,NA,NA,NA,NA,NA,NA,NA,NA,NA,NA,NA,NA,NA
"52","stim/objects/HouseObjects/lintroller.png",156,27,156,0.5,"stim/61.jpeg",6,1,1,NA,"HouseObjects",1,2,"left","right",0.842000008,0,0,1,1,NA,NA,NA,NA,NA,NA,NA,NA,NA,NA,NA,NA,NA,NA,NA,NA,NA,NA,NA,NA,NA,NA,NA,NA
"123","stim/objects/Instruments/keyboard.png",157,27,157,0.5,"stim/51.jpeg",5,1,1,NA,"Instruments",2,1,"right","",NA,0,0,1,1,NA,NA,NA,NA,NA,NA,NA,NA,NA,NA,NA,NA,NA,NA,NA,NA,NA,NA,NA,NA,NA,NA,NA,NA
"58","stim/objects/HouseObjects/match.png",158,27,158,0.5,"stim/62.jpeg",6,2,1,NA,"HouseObjects",1,1,"left","left",0.615000248,1,1,1,1,NA,NA,NA,NA,NA,NA,NA,NA,NA,NA,NA,NA,NA,NA,NA,NA,NA,NA,NA,NA,NA,NA,NA,NA
"140","stim/objects/Instruments/maraca.png",159,27,159,0.5,"stim/53.jpeg",5,3,1,NA,"Instruments",2,4,"right","right",0.451000214,1,1,1,1,NA,NA,NA,NA,NA,NA,NA,NA,NA,NA,NA,NA,NA,NA,NA,NA,NA,NA,NA,NA,NA,NA,NA,NA
"144","stim/objects/Instruments/maraca2.png",160,27,160,0.3,"stim/23.jpeg",2,3,2,NA,"Instruments",2,2,"right","left",0.5400002,0,0,1,1,NA,NA,NA,NA,NA,NA,NA,NA,NA,NA,NA,NA,NA,NA,NA,NA,NA,NA,NA,NA,NA,NA,NA,NA
"128","stim/objects/Instruments/keyboard2.png",161,27,161,0.3,"stim/21.jpeg",2,1,2,NA,"Instruments",2,4,"right","right",0.830000162,1,1,1,1,NA,NA,NA,NA,NA,NA,NA,NA,NA,NA,NA,NA,NA,NA,NA,NA,NA,NA,NA,NA,NA,NA,NA,NA
"81","stim/objects/HouseObjects/recyclingbin2.png",162,27,162,0.9,"stim/41.jpeg",4,1,3,NA,"HouseObjects",1,3,"left","left",0.551000118,1,1,1,1,NA,NA,NA,NA,NA,NA,NA,NA,NA,NA,NA,NA,NA,NA,NA,NA,NA,NA,NA,NA,NA,NA,NA,NA
"110","stim/objects/HouseObjects/rug.png",163,27,163,0.3,"stim/14.jpeg",1,4,2,NA,"HouseObjects",1,4,"left","right",0.705000162,0,0,1,1,NA,NA,NA,NA,NA,NA,NA,NA,NA,NA,NA,NA,NA,NA,NA,NA,NA,NA,NA,NA,NA,NA,NA,NA
"165","stim/objects/Instruments/metronome2.png",164,27,164,0.9,"stim/31.jpeg",3,1,3,NA,"Instruments",2,2,"right","right",0.526000261,1,1,1,1,NA,NA,NA,NA,NA,NA,NA,NA,NA,NA,NA,NA,NA,NA,NA,NA,NA,NA,NA,NA,NA,NA,NA,NA
"214","stim/objects/Instruments/panflute.png",165,27,165,0.7,"stim/11.jpeg",1,1,2,NA,"Instruments",2,3,"right","right",0.676000357,1,1,1,1,NA,NA,NA,NA,NA,NA,NA,NA,NA,NA,NA,NA,NA,NA,NA,NA,NA,NA,NA,NA,NA,NA,NA,NA
"230","stim/objects/Instruments/record_player.png",166,27,166,0.7,"stim/14.jpeg",1,4,2,NA,"Instruments",2,1,"right","right",0.399000168,1,1,1,1,NA,NA,NA,NA,NA,NA,NA,NA,NA,NA,NA,NA,NA,NA,NA,NA,NA,NA,NA,NA,NA,NA,NA,NA
"132","stim/objects/Instruments/laud.png",167,27,167,0.5,"stim/52.jpeg",5,2,1,NA,"Instruments",2,2,"right","left",0.657000065,0,0,1,1,NA,NA,NA,NA,NA,NA,NA,NA,NA,NA,NA,NA,NA,NA,NA,NA,NA,NA,NA,NA,NA,NA,NA,NA
"10","stim/objects/HouseObjects/iron2.png",168,27,168,0.7,"stim/21.jpeg",2,1,2,NA,"HouseObjects",1,1,"left","left",0.630000353,1,1,1,1,NA,NA,NA,NA,NA,NA,NA,NA,NA,NA,NA,NA,NA,NA,NA,NA,NA,NA,NA,NA,NA,NA,NA,NA
"2","stim/objects/HouseObjects/iron.png",169,27,169,0.5,"stim/51.jpeg",5,1,1,NA,"HouseObjects",1,1,"left","right",0.529000044,0,0,1,1,NA,NA,NA,NA,NA,NA,NA,NA,NA,NA,NA,NA,NA,NA,NA,NA,NA,NA,NA,NA,NA,NA,NA,NA
"184","stim/objects/Instruments/musicstand.png",170,27,170,0.5,"stim/63.jpeg",6,3,1,NA,"Instruments",2,3,"right","right",0.476000309,1,1,1,1,NA,NA,NA,NA,NA,NA,NA,NA,NA,NA,NA,NA,NA,NA,NA,NA,NA,NA,NA,NA,NA,NA,NA,NA
"222","stim/objects/Instruments/pipepiano.png",171,27,171,0.7,"stim/12.jpeg",1,2,2,NA,"Instruments",2,3,"right","right",0.553000212,1,1,1,1,NA,NA,NA,NA,NA,NA,NA,NA,NA,NA,NA,NA,NA,NA,NA,NA,NA,NA,NA,NA,NA,NA,NA,NA
"177","stim/objects/Instruments/musicsheet2.png",172,27,172,0.9,"stim/32.jpeg",3,2,3,NA,"Instruments",2,4,"right","right",0.484000206,1,1,1,1,NA,NA,NA,NA,NA,NA,NA,NA,NA,NA,NA,NA,NA,NA,NA,NA,NA,NA,NA,NA,NA,NA,NA,NA
"22","stim/objects/HouseObjects/ironingboard2.png",173,27,173,0.7,"stim/22.jpeg",2,2,2,NA,"HouseObjects",1,4,"left","left",0.593000174,1,1,1,1,NA,NA,NA,NA,NA,NA,NA,NA,NA,NA,NA,NA,NA,NA,NA,NA,NA,NA,NA,NA,NA,NA,NA,NA
"192","stim/objects/Instruments/musicstand2.png",174,27,174,0.9,"stim/33.jpeg",3,3,3,NA,"Instruments",2,2,"right","right",0.551000357,1,1,1,1,NA,NA,NA,NA,NA,NA,NA,NA,NA,NA,NA,NA,NA,NA,NA,NA,NA,NA,NA,NA,NA,NA,NA,NA
"39","stim/objects/HouseObjects/knife.png",175,27,175,0.5,"stim/54.jpeg",5,4,1,NA,"HouseObjects",1,2,"left","right",0.555000305,0,0,1,1,NA,NA,NA,NA,NA,NA,NA,NA,NA,NA,NA,NA,NA,NA,NA,NA,NA,NA,NA,NA,NA,NA,NA,NA
"206","stim/objects/Instruments/oboe2.png",176,27,176,0.9,"stim/34.jpeg",3,4,3,NA,"Instruments",2,4,"right","right",0.391000032,1,1,1,1,NA,NA,NA,NA,NA,NA,NA,NA,NA,NA,NA,NA,NA,NA,NA,NA,NA,NA,NA,NA,NA,NA,NA,NA
"105","stim/objects/HouseObjects/rubbergloves2.png",177,27,177,0.9,"stim/43.jpeg",4,3,3,NA,"HouseObjects",1,4,"left","left",0.676000118,1,1,1,1,NA,NA,NA,NA,NA,NA,NA,NA,NA,NA,NA,NA,NA,NA,NA,NA,NA,NA,NA,NA,NA,NA,NA,NA
"75","stim/objects/HouseObjects/recyclingbin.png",178,27,178,0.3,"stim/11.jpeg",1,1,2,NA,"HouseObjects",1,2,"left","right",0.527000189,0,0,1,1,NA,NA,NA,NA,NA,NA,NA,NA,NA,NA,NA,NA,NA,NA,NA,NA,NA,NA,NA,NA,NA,NA,NA,NA
"11","stim/objects/HouseObjects/iron2.png",179,27,179,0.7,"stim/21.jpeg",2,1,2,NA,"HouseObjects",1,2,"left","right",0.477000237,0,0,1,1,NA,NA,NA,NA,NA,NA,NA,NA,NA,NA,NA,NA,NA,NA,NA,NA,NA,NA,NA,NA,NA,NA,NA,NA
"12","stim/objects/HouseObjects/iron2.png",180,27,180,0.7,"stim/21.jpeg",2,1,2,NA,"HouseObjects",1,1,"left","left",0.531000137,1,1,1,1,NA,NA,NA,NA,NA,NA,NA,NA,NA,NA,NA,NA,NA,NA,NA,NA,NA,NA,NA,NA,NA,NA,NA,NA
"64","stim/objects/HouseObjects/pan.png",181,27,181,0.5,"stim/63.jpeg",6,3,1,NA,"HouseObjects",1,1,"left","left",0.784000397,1,1,1,1,NA,NA,NA,NA,NA,NA,NA,NA,NA,NA,NA,NA,NA,NA,NA,NA,NA,NA,NA,NA,NA,NA,NA,NA
"166","stim/objects/Instruments/metronome2.png",182,27,182,0.9,"stim/31.jpeg",3,1,3,NA,"Instruments",2,3,"right","right",0.531000137,1,1,1,1,NA,NA,NA,NA,NA,NA,NA,NA,NA,NA,NA,NA,NA,NA,NA,NA,NA,NA,NA,NA,NA,NA,NA,NA
"92","stim/objects/HouseObjects/remote2.png",183,27,183,0.9,"stim/42.jpeg",4,2,3,NA,"HouseObjects",1,2,"left","left",0.566000223,1,1,1,1,NA,NA,NA,NA,NA,NA,NA,NA,NA,NA,NA,NA,NA,NA,NA,NA,NA,NA,NA,NA,NA,NA,NA,NA
"133","stim/objects/Instruments/laud.png",184,27,184,0.5,"stim/52.jpeg",5,2,1,NA,"Instruments",2,2,"right","left",0.59400034,0,0,1,1,NA,NA,NA,NA,NA,NA,NA,NA,NA,NA,NA,NA,NA,NA,NA,NA,NA,NA,NA,NA,NA,NA,NA,NA
"59","stim/objects/HouseObjects/match.png",185,27,185,0.5,"stim/62.jpeg",6,2,1,NA,"HouseObjects",1,1,"left","left",0.565000057,1,1,1,1,NA,NA,NA,NA,NA,NA,NA,NA,NA,NA,NA,NA,NA,NA,NA,NA,NA,NA,NA,NA,NA,NA,NA,NA
"197","stim/objects/Instruments/oboe.png",186,27,186,0.5,"stim/64.jpeg",6,4,1,NA,"Instruments",2,3,"right","right",0.661000013,1,1,1,1,NA,NA,NA,NA,NA,NA,NA,NA,NA,NA,NA,NA,NA,NA,NA,NA,NA,NA,NA,NA,NA,NA,NA,NA
"71","stim/objects/HouseObjects/pitcher.png",187,27,187,0.5,"stim/64.jpeg",6,4,1,NA,"HouseObjects",1,4,"left","left",0.661000013,1,1,1,1,NA,NA,NA,NA,NA,NA,NA,NA,NA,NA,NA,NA,NA,NA,NA,NA,NA,NA,NA,NA,NA,NA,NA,NA
"93","stim/objects/HouseObjects/remote2.png",188,27,188,0.9,"stim/42.jpeg",4,2,3,NA,"HouseObjects",1,1,"left","left",0.579000235,1,1,1,1,NA,NA,NA,NA,NA,NA,NA,NA,NA,NA,NA,NA,NA,NA,NA,NA,NA,NA,NA,NA,NA,NA,NA,NA
"116","stim/objects/HouseObjects/rug2.png",189,27,189,0.9,"stim/44.jpeg",4,4,3,NA,"HouseObjects",1,2,"left","left",0.718000174,1,1,1,1,NA,NA,NA,NA,NA,NA,NA,NA,NA,NA,NA,NA,NA,NA,NA,NA,NA,NA,NA,NA,NA,NA,NA,NA
"82","stim/objects/HouseObjects/recyclingbin2.png",190,27,190,0.9,"stim/41.jpeg",4,1,3,NA,"HouseObjects",1,3,"left","left",0.598999977,1,1,1,1,NA,NA,NA,NA,NA,NA,NA,NA,NA,NA,NA,NA,NA,NA,NA,NA,NA,NA,NA,NA,NA,NA,NA,NA
"3","stim/objects/HouseObjects/iron.png",191,27,191,0.5,"stim/51.jpeg",5,1,1,NA,"HouseObjects",1,1,"left","left",0.671000242,1,1,1,1,NA,NA,NA,NA,NA,NA,NA,NA,NA,NA,NA,NA,NA,NA,NA,NA,NA,NA,NA,NA,NA,NA,NA,NA
"178","stim/objects/Instruments/musicsheet2.png",192,27,192,0.9,"stim/32.jpeg",3,2,3,NA,"Instruments",2,4,"right","right",0.485000134,1,1,1,1,NA,NA,NA,NA,NA,NA,NA,NA,NA,NA,NA,NA,NA,NA,NA,NA,NA,NA,NA,NA,NA,NA,NA,NA
"198","stim/objects/Instruments/oboe.png",193,27,193,0.5,"stim/64.jpeg",6,4,1,NA,"Instruments",2,3,"right","left",0.693000078,0,0,1,1,NA,NA,NA,NA,NA,NA,NA,NA,NA,NA,NA,NA,NA,NA,NA,NA,NA,NA,NA,NA,NA,NA,NA,NA
"40","stim/objects/HouseObjects/knife.png",194,27,194,0.5,"stim/54.jpeg",5,4,1,NA,"HouseObjects",1,4,"left","left",0.603000164,1,1,1,1,NA,NA,NA,NA,NA,NA,NA,NA,NA,NA,NA,NA,NA,NA,NA,NA,NA,NA,NA,NA,NA,NA,NA,NA
"4","stim/objects/HouseObjects/iron.png",195,27,195,0.5,"stim/51.jpeg",5,1,1,NA,"HouseObjects",1,1,"left","left",0.625000238,1,1,1,1,NA,NA,NA,NA,NA,NA,NA,NA,NA,NA,NA,NA,NA,NA,NA,NA,NA,NA,NA,NA,NA,NA,NA,NA
"152","stim/objects/Instruments/marimba2.png",196,27,196,0.3,"stim/24.jpeg",2,4,2,NA,"Instruments",2,2,"right","left",0.552000046,0,0,1,1,NA,NA,NA,NA,NA,NA,NA,NA,NA,NA,NA,NA,NA,NA,NA,NA,NA,NA,NA,NA,NA,NA,NA,NA
"215","stim/objects/Instruments/panflute.png",197,27,197,0.7,"stim/11.jpeg",1,1,2,NA,"Instruments",2,3,"right","right",0.633000135,1,1,1,1,NA,NA,NA,NA,NA,NA,NA,NA,NA,NA,NA,NA,NA,NA,NA,NA,NA,NA,NA,NA,NA,NA,NA,NA
"141","stim/objects/Instruments/maraca.png",198,27,198,0.5,"stim/53.jpeg",5,3,1,NA,"Instruments",2,3,"right","left",0.490000248,0,0,1,1,NA,NA,NA,NA,NA,NA,NA,NA,NA,NA,NA,NA,NA,NA,NA,NA,NA,NA,NA,NA,NA,NA,NA,NA
"45","stim/objects/HouseObjects/knife2.png",199,27,199,0.7,"stim/24.jpeg",2,4,2,NA,"HouseObjects",1,2,"left","left",0.528000355,1,1,1,1,NA,NA,NA,NA,NA,NA,NA,NA,NA,NA,NA,NA,NA,NA,NA,NA,NA,NA,NA,NA,NA,NA,NA,NA
"46","stim/objects/HouseObjects/knife2.png",200,27,200,0.7,"stim/24.jpeg",2,4,2,NA,"HouseObjects",1,2,"left","left",0.589000225,1,1,1,1,NA,NA,NA,NA,NA,NA,NA,NA,NA,NA,NA,NA,NA,NA,NA,NA,NA,NA,NA,NA,NA,NA,NA,NA
"193","stim/objects/Instruments/musicstand2.png",201,27,201,0.9,"stim/33.jpeg",3,3,3,NA,"Instruments",2,1,"right","right",0.507000208,1,1,1,1,NA,NA,NA,NA,NA,NA,NA,NA,NA,NA,NA,NA,NA,NA,NA,NA,NA,NA,NA,NA,NA,NA,NA,NA
"5","stim/objects/HouseObjects/iron.png",202,27,202,0.5,"stim/51.jpeg",5,1,1,NA,"HouseObjects",1,3,"left","left",0.607000351,1,1,1,1,NA,NA,NA,NA,NA,NA,NA,NA,NA,NA,NA,NA,NA,NA,NA,NA,NA,NA,NA,NA,NA,NA,NA,NA
"179","stim/objects/Instruments/musicsheet2.png",203,27,203,0.9,"stim/32.jpeg",3,2,3,NA,"Instruments",2,4,"right","right",0.549000025,1,1,1,1,NA,NA,NA,NA,NA,NA,NA,NA,NA,NA,NA,NA,NA,NA,NA,NA,NA,NA,NA,NA,NA,NA,NA,NA
"223","stim/objects/Instruments/pipepiano.png",204,27,204,0.7,"stim/12.jpeg",1,2,2,NA,"Instruments",2,2,"right","left",0.795000076,0,0,1,1,NA,NA,NA,NA,NA,NA,NA,NA,NA,NA,NA,NA,NA,NA,NA,NA,NA,NA,NA,NA,NA,NA,NA,NA
"171","stim/objects/Instruments/musicsheet.png",205,27,205,0.5,"stim/62.jpeg",6,2,1,NA,"Instruments",2,1,"right","left",0.573000193,0,0,1,1,NA,NA,NA,NA,NA,NA,NA,NA,NA,NA,NA,NA,NA,NA,NA,NA,NA,NA,NA,NA,NA,NA,NA,NA
"231","stim/objects/Instruments/record_player.png",206,27,206,0.7,"stim/14.jpeg",1,4,2,NA,"Instruments",2,3,"right","right",0.565000296,1,1,1,1,NA,NA,NA,NA,NA,NA,NA,NA,NA,NA,NA,NA,NA,NA,NA,NA,NA,NA,NA,NA,NA,NA,NA,NA
"16","stim/objects/HouseObjects/ironingboard.png",207,27,207,0.5,"stim/52.jpeg",5,2,1,NA,"HouseObjects",1,2,"left","right",0.647000313,0,0,1,1,NA,NA,NA,NA,NA,NA,NA,NA,NA,NA,NA,NA,NA,NA,NA,NA,NA,NA,NA,NA,NA,NA,NA,NA
"117","stim/objects/HouseObjects/rug2.png",208,27,208,0.9,"stim/44.jpeg",4,4,3,NA,"HouseObjects",1,4,"left","left",0.562000036,1,1,1,1,NA,NA,NA,NA,NA,NA,NA,NA,NA,NA,NA,NA,NA,NA,NA,NA,NA,NA,NA,NA,NA,NA,NA,NA
"124","stim/objects/Instruments/keyboard.png",209,27,209,0.5,"stim/51.jpeg",5,1,1,NA,"Instruments",2,4,"right","right",0.525000095,1,1,1,1,NA,NA,NA,NA,NA,NA,NA,NA,NA,NA,NA,NA,NA,NA,NA,NA,NA,NA,NA,NA,NA,NA,NA,NA
"125","stim/objects/Instruments/keyboard.png",210,27,210,0.5,"stim/51.jpeg",5,1,1,NA,"Instruments",2,4,"right","right",0.455000162,1,1,1,1,NA,NA,NA,NA,NA,NA,NA,NA,NA,NA,NA,NA,NA,NA,NA,NA,NA,NA,NA,NA,NA,NA,NA,NA
"99","stim/objects/HouseObjects/rubbergloves.png",211,27,211,0.3,"stim/13.jpeg",1,3,2,NA,"HouseObjects",1,1,"left","left",0.697000265,1,1,1,1,NA,NA,NA,NA,NA,NA,NA,NA,NA,NA,NA,NA,NA,NA,NA,NA,NA,NA,NA,NA,NA,NA,NA,NA
"23","stim/objects/HouseObjects/ironingboard2.png",212,27,212,0.7,"stim/22.jpeg",2,2,2,NA,"HouseObjects",1,4,"left","left",0.58700037,1,1,1,1,NA,NA,NA,NA,NA,NA,NA,NA,NA,NA,NA,NA,NA,NA,NA,NA,NA,NA,NA,NA,NA,NA,NA,NA
"94","stim/objects/HouseObjects/remote2.png",213,27,213,0.9,"stim/42.jpeg",4,2,3,NA,"HouseObjects",1,1,"left","left",0.542000055,1,1,1,1,NA,NA,NA,NA,NA,NA,NA,NA,NA,NA,NA,NA,NA,NA,NA,NA,NA,NA,NA,NA,NA,NA,NA,NA
"106","stim/objects/HouseObjects/rubbergloves2.png",214,27,214,0.9,"stim/43.jpeg",4,3,3,NA,"HouseObjects",1,3,"left","left",0.531000137,1,1,1,1,NA,NA,NA,NA,NA,NA,NA,NA,NA,NA,NA,NA,NA,NA,NA,NA,NA,NA,NA,NA,NA,NA,NA,NA
"118","stim/objects/HouseObjects/rug2.png",215,27,215,0.9,"stim/44.jpeg",4,4,3,NA,"HouseObjects",1,1,"left","left",0.425000191,1,1,1,1,NA,NA,NA,NA,NA,NA,NA,NA,NA,NA,NA,NA,NA,NA,NA,NA,NA,NA,NA,NA,NA,NA,NA,NA
"72","stim/objects/HouseObjects/pitcher2.png",216,27,216,0.1,"stim/34.jpeg",3,4,3,NA,"HouseObjects",1,3,"left","right",0.428000212,0,0,1,1,NA,NA,NA,NA,NA,NA,NA,NA,NA,NA,NA,NA,NA,NA,NA,NA,NA,NA,NA,NA,NA,NA,NA,NA
"185","stim/objects/Instruments/musicstand.png",217,27,217,0.5,"stim/63.jpeg",6,3,1,NA,"Instruments",2,2,"right","right",0.691000223,1,1,1,1,NA,NA,NA,NA,NA,NA,NA,NA,NA,NA,NA,NA,NA,NA,NA,NA,NA,NA,NA,NA,NA,NA,NA,NA
"107","stim/objects/HouseObjects/rubbergloves2.png",218,27,218,0.9,"stim/43.jpeg",4,3,3,NA,"HouseObjects",1,2,"left","left",0.669000149,1,1,1,1,NA,NA,NA,NA,NA,NA,NA,NA,NA,NA,NA,NA,NA,NA,NA,NA,NA,NA,NA,NA,NA,NA,NA,NA
"53","stim/objects/HouseObjects/lintroller.png",219,27,219,0.5,"stim/61.jpeg",6,1,1,NA,"HouseObjects",1,4,"left","left",0.57400012,1,1,1,1,NA,NA,NA,NA,NA,NA,NA,NA,NA,NA,NA,NA,NA,NA,NA,NA,NA,NA,NA,NA,NA,NA,NA,NA
"232","stim/objects/Instruments/record_player2.png",220,27,220,0.1,"stim/44.jpeg",4,4,3,NA,"Instruments",2,3,"right","left",0.518000364,0,0,1,1,NA,NA,NA,NA,NA,NA,NA,NA,NA,NA,NA,NA,NA,NA,NA,NA,NA,NA,NA,NA,NA,NA,NA,NA
"83","stim/objects/HouseObjects/recyclingbin2.png",221,27,221,0.9,"stim/41.jpeg",4,1,3,NA,"HouseObjects",1,3,"left","left",0.50999999,1,1,1,1,NA,NA,NA,NA,NA,NA,NA,NA,NA,NA,NA,NA,NA,NA,NA,NA,NA,NA,NA,NA,NA,NA,NA,NA
"207","stim/objects/Instruments/oboe2.png",222,27,222,0.9,"stim/34.jpeg",3,4,3,NA,"Instruments",2,2,"right","right",0.844000101,1,1,1,1,NA,NA,NA,NA,NA,NA,NA,NA,NA,NA,NA,NA,NA,NA,NA,NA,NA,NA,NA,NA,NA,NA,NA,NA
"199","stim/objects/Instruments/oboe.png",223,27,223,0.5,"stim/64.jpeg",6,4,1,NA,"Instruments",2,1,"right","left",0.565000057,0,0,1,1,NA,NA,NA,NA,NA,NA,NA,NA,NA,NA,NA,NA,NA,NA,NA,NA,NA,NA,NA,NA,NA,NA,NA,NA
"24","stim/objects/HouseObjects/ironingboard2.png",224,27,224,0.7,"stim/22.jpeg",2,2,2,NA,"HouseObjects",1,3,"left","left",0.485000134,1,1,1,1,NA,NA,NA,NA,NA,NA,NA,NA,NA,NA,NA,NA,NA,NA,NA,NA,NA,NA,NA,NA,NA,NA,NA,NA
"17","stim/objects/HouseObjects/ironingboard.png",225,27,225,0.5,"stim/52.jpeg",5,2,1,NA,"HouseObjects",1,3,"left","left",0.627000332,1,1,1,1,NA,NA,NA,NA,NA,NA,NA,NA,NA,NA,NA,NA,NA,NA,NA,NA,NA,NA,NA,NA,NA,NA,NA,NA
"84","stim/objects/HouseObjects/recyclingbin2.png",226,27,226,0.9,"stim/41.jpeg",4,1,3,NA,"HouseObjects",1,1,"left","left",0.520000219,1,1,1,1,NA,NA,NA,NA,NA,NA,NA,NA,NA,NA,NA,NA,NA,NA,NA,NA,NA,NA,NA,NA,NA,NA,NA,NA
"180","stim/objects/Instruments/musicsheet2.png",227,27,227,0.9,"stim/32.jpeg",3,2,3,NA,"Instruments",2,1,"right","right",0.522000313,1,1,1,1,NA,NA,NA,NA,NA,NA,NA,NA,NA,NA,NA,NA,NA,NA,NA,NA,NA,NA,NA,NA,NA,NA,NA,NA
"95","stim/objects/HouseObjects/remote2.png",228,27,228,0.9,"stim/42.jpeg",4,2,3,NA,"HouseObjects",1,3,"left","left",0.571000338,1,1,1,1,NA,NA,NA,NA,NA,NA,NA,NA,NA,NA,NA,NA,NA,NA,NA,NA,NA,NA,NA,NA,NA,NA,NA,NA
"149","stim/objects/Instruments/marimba.png",229,27,229,0.5,"stim/54.jpeg",5,4,1,NA,"Instruments",2,4,"right","left",0.687999964,0,0,1,1,NA,NA,NA,NA,NA,NA,NA,NA,NA,NA,NA,NA,NA,NA,NA,NA,NA,NA,NA,NA,NA,NA,NA,NA
"96","stim/objects/HouseObjects/remote2.png",230,27,230,0.9,"stim/42.jpeg",4,2,3,NA,"HouseObjects",1,1,"left","left",0.523000002,1,1,1,1,NA,NA,NA,NA,NA,NA,NA,NA,NA,NA,NA,NA,NA,NA,NA,NA,NA,NA,NA,NA,NA,NA,NA,NA
"111","stim/objects/HouseObjects/rug.png",231,27,231,0.3,"stim/14.jpeg",1,4,2,NA,"HouseObjects",1,2,"left","right",0.688000202,0,0,1,1,NA,NA,NA,NA,NA,NA,NA,NA,NA,NA,NA,NA,NA,NA,NA,NA,NA,NA,NA,NA,NA,NA,NA,NA
"65","stim/objects/HouseObjects/pan.png",232,27,232,0.5,"stim/63.jpeg",6,3,1,NA,"HouseObjects",1,3,"left","left",0.685000181,1,1,1,1,NA,NA,NA,NA,NA,NA,NA,NA,NA,NA,NA,NA,NA,NA,NA,NA,NA,NA,NA,NA,NA,NA,NA,NA
"108","stim/objects/HouseObjects/rubbergloves2.png",233,27,233,0.9,"stim/43.jpeg",4,3,3,NA,"HouseObjects",1,1,"left","left",0.71600008,1,1,1,1,NA,NA,NA,NA,NA,NA,NA,NA,NA,NA,NA,NA,NA,NA,NA,NA,NA,NA,NA,NA,NA,NA,NA,NA
"41","stim/objects/HouseObjects/knife.png",234,27,234,0.5,"stim/54.jpeg",5,4,1,NA,"HouseObjects",1,3,"left","left",0.536000013,1,1,1,1,NA,NA,NA,NA,NA,NA,NA,NA,NA,NA,NA,NA,NA,NA,NA,NA,NA,NA,NA,NA,NA,NA,NA,NA
"194","stim/objects/Instruments/musicstand2.png",235,27,235,0.9,"stim/33.jpeg",3,3,3,NA,"Instruments",2,2,"right","right",0.558000088,1,1,1,1,NA,NA,NA,NA,NA,NA,NA,NA,NA,NA,NA,NA,NA,NA,NA,NA,NA,NA,NA,NA,NA,NA,NA,NA
"47","stim/objects/HouseObjects/knife2.png",236,27,236,0.7,"stim/24.jpeg",2,4,2,NA,"HouseObjects",1,3,"left","left",0.470000029,1,1,1,1,NA,NA,NA,NA,NA,NA,NA,NA,NA,NA,NA,NA,NA,NA,NA,NA,NA,NA,NA,NA,NA,NA,NA,NA
"119","stim/objects/HouseObjects/rug2.png",237,27,237,0.9,"stim/44.jpeg",4,4,3,NA,"HouseObjects",1,2,"left","left",0.504000187,1,1,1,1,NA,NA,NA,NA,NA,NA,NA,NA,NA,NA,NA,NA,NA,NA,NA,NA,NA,NA,NA,NA,NA,NA,NA,NA
"48","stim/objects/HouseObjects/knife2.png",238,27,238,0.7,"stim/24.jpeg",2,4,2,NA,"HouseObjects",1,4,"left","left",0.537000179,1,1,1,1,NA,NA,NA,NA,NA,NA,NA,NA,NA,NA,NA,NA,NA,NA,NA,NA,NA,NA,NA,NA,NA,NA,NA,NA
"208","stim/objects/Instruments/oboe2.png",239,27,239,0.9,"stim/34.jpeg",3,4,3,NA,"Instruments",2,3,"right","right",0.534000158,1,1,1,1,NA,NA,NA,NA,NA,NA,NA,NA,NA,NA,NA,NA,NA,NA,NA,NA,NA,NA,NA,NA,NA,NA,NA,NA
"120","stim/objects/HouseObjects/rug2.png",240,27,240,0.9,"stim/44.jpeg",4,4,3,NA,"HouseObjects",1,2,"left","left",0.588000059,1,1,1,1,NA,NA,NA,NA,NA,NA,NA,NA,NA,NA,NA,NA,NA,NA,NA,NA,NA,NA,NA,NA,NA,NA,NA,NA
"409","stim/objects/Instruments/acousticguitar.png",248,27,241,0.5,"stim/52.jpeg",5,2,1,2,"Instruments",2,1,"right","left",0.529000044,0,0,1,0,NA,NA,NA,NA,NA,NA,NA,NA,NA,NA,NA,NA,NA,NA,NA,NA,NA,NA,NA,NA,NA,NA,NA,NA
"262","stim/objects/HouseObjects/broom.png",249,27,242,0.5,"stim/62.jpeg",6,2,1,2,"HouseObjects",1,2,"left","left",0.705000162,1,1,1,0,NA,NA,NA,NA,NA,NA,NA,NA,NA,NA,NA,NA,NA,NA,NA,NA,NA,NA,NA,NA,NA,NA,NA,NA
"456","stim/objects/Instruments/flute.png",250,27,243,0.9,"stim/31.jpeg",3,1,3,2,"Instruments",2,2,"right","right",0.509000301,1,1,1,0,NA,NA,NA,NA,NA,NA,NA,NA,NA,NA,NA,NA,NA,NA,NA,NA,NA,NA,NA,NA,NA,NA,NA,NA
"250","stim/objects/HouseObjects/basket.png",251,27,244,0.5,"stim/54.jpeg",5,4,1,2,"HouseObjects",1,1,"left","left",0.658000231,1,1,1,0,NA,NA,NA,NA,NA,NA,NA,NA,NA,NA,NA,NA,NA,NA,NA,NA,NA,NA,NA,NA,NA,NA,NA,NA
"457","stim/objects/Instruments/flute.png",252,27,245,0.9,"stim/34.jpeg",3,4,3,2,"Instruments",2,4,"right","right",0.440000057,1,1,1,0,NA,NA,NA,NA,NA,NA,NA,NA,NA,NA,NA,NA,NA,NA,NA,NA,NA,NA,NA,NA,NA,NA,NA,NA
"325","stim/objects/HouseObjects/flyswatter.png",253,27,246,0.9,"stim/43.jpeg",4,3,3,2,"HouseObjects",1,1,"left","left",0.559000015,1,1,1,0,NA,NA,NA,NA,NA,NA,NA,NA,NA,NA,NA,NA,NA,NA,NA,NA,NA,NA,NA,NA,NA,NA,NA,NA
"396","stim/objects/HouseObjects/thermometer.png",254,27,247,0.3,"stim/11.jpeg",1,1,2,1,"HouseObjects",1,1,"left","right",0.554000139,0,0,1,0,35,27,1,0.3,1,"stim/11.jpeg",1,1,"stim/11.jpeg",1,"left",1.994999886,2,2,2.338000059,1,0.909999847,35,1,0,0,1,1,1
"291","stim/objects/HouseObjects/doormat.png",255,27,248,0.9,"stim/41.jpeg",4,1,3,2,"HouseObjects",1,4,"left","left",0.588000059,1,1,1,0,NA,NA,NA,NA,NA,NA,NA,NA,NA,NA,NA,NA,NA,NA,NA,NA,NA,NA,NA,NA,NA,NA,NA,NA
"342","stim/objects/HouseObjects/garbagebin.png",256,27,249,0.9,"stim/42.jpeg",4,2,3,2,"HouseObjects",1,4,"left","left",0.524000168,1,1,1,0,NA,NA,NA,NA,NA,NA,NA,NA,NA,NA,NA,NA,NA,NA,NA,NA,NA,NA,NA,NA,NA,NA,NA,NA
"473","stim/objects/Instruments/flutetrans.png",257,27,250,0.9,"stim/34.jpeg",3,4,3,2,"Instruments",2,4,"right","right",0.454000235,1,1,1,0,NA,NA,NA,NA,NA,NA,NA,NA,NA,NA,NA,NA,NA,NA,NA,NA,NA,NA,NA,NA,NA,NA,NA,NA
"549","stim/objects/Instruments/saxophone.png",258,27,251,0.5,"stim/52.jpeg",5,2,1,1,"Instruments",2,2,"right","left",0.620000124,0,0,1,0,102,27,1,0.5,1,"stim/52.jpeg",5,2,"stim/52.jpeg",2,"left",0.599000216,4,1,4.453000069,2,1.597000122,102,1,0,0,1,1,1
"290","stim/objects/HouseObjects/dishsoap2.png",259,27,252,0.7,"stim/21.jpeg",2,1,2,1,"HouseObjects",1,4,"left","left",0.639000177,1,1,1,0,161,27,1,0.7,1,"stim/21.jpeg",2,1,"stim/21.jpeg",4,"left",1.226000071,4,4,2.833000183,4,1.251999855,161,1,0,0,1,1,1
"406","stim/objects/Instruments/accordion.png",260,27,253,0.5,"stim/54.jpeg",5,4,1,2,"Instruments",2,4,"right","left",0.620000124,0,0,1,0,NA,NA,NA,NA,NA,NA,NA,NA,NA,NA,NA,NA,NA,NA,NA,NA,NA,NA,NA,NA,NA,NA,NA,NA
"292","stim/objects/HouseObjects/doormat.png",261,27,254,0.9,"stim/42.jpeg",4,2,3,2,"HouseObjects",1,1,"left","left",0.590000153,1,1,1,0,NA,NA,NA,NA,NA,NA,NA,NA,NA,NA,NA,NA,NA,NA,NA,NA,NA,NA,NA,NA,NA,NA,NA,NA
"443","stim/objects/Instruments/doublebass2.png",262,27,255,0.3,"stim/24.jpeg",2,4,2,1,"Instruments",2,3,"right","left",0.43900013,0,0,1,0,104,27,1,0.3,2,"stim/24.jpeg",2,4,"stim/24.jpeg",3,"right",1.159000158,1,4,3.903000116,3,1.470000029,104,0,1,NA,1,NA,1
"524","stim/objects/Instruments/grandpiano.png",263,27,256,0.9,"stim/32.jpeg",3,2,3,2,"Instruments",2,3,"right","right",0.560000181,1,1,1,0,NA,NA,NA,NA,NA,NA,NA,NA,NA,NA,NA,NA,NA,NA,NA,NA,NA,NA,NA,NA,NA,NA,NA,NA
"523","stim/objects/Instruments/gong2.png",264,27,257,0.9,"stim/32.jpeg",3,2,3,1,"Instruments",2,2,"right","right",0.495000124,1,1,1,0,8,27,1,0.9,2,"stim/32.jpeg",3,2,"stim/32.jpeg",2,"left",1.070000172,4,4,2.583999872,3,2.325999975,8,1,0,0,0,0,1
"309","stim/objects/HouseObjects/dustpan.png",265,27,258,0.9,"stim/42.jpeg",4,2,3,2,"HouseObjects",1,4,"left","left",0.510000229,1,1,1,0,NA,NA,NA,NA,NA,NA,NA,NA,NA,NA,NA,NA,NA,NA,NA,NA,NA,NA,NA,NA,NA,NA,NA,NA
"310","stim/objects/HouseObjects/dustpan.png",266,27,259,0.9,"stim/44.jpeg",4,4,3,2,"HouseObjects",1,1,"left","left",0.592000008,1,1,1,0,NA,NA,NA,NA,NA,NA,NA,NA,NA,NA,NA,NA,NA,NA,NA,NA,NA,NA,NA,NA,NA,NA,NA,NA
"490","stim/objects/Instruments/frenchhorn.png",267,27,260,0.9,"stim/31.jpeg",3,1,3,2,"Instruments",2,2,"right","right",0.446000338,1,1,1,0,NA,NA,NA,NA,NA,NA,NA,NA,NA,NA,NA,NA,NA,NA,NA,NA,NA,NA,NA,NA,NA,NA,NA,NA
"412","stim/objects/Instruments/balalaika.png",268,27,261,0.5,"stim/53.jpeg",5,3,1,2,"Instruments",2,4,"right","right",0.713000059,1,1,1,0,NA,NA,NA,NA,NA,NA,NA,NA,NA,NA,NA,NA,NA,NA,NA,NA,NA,NA,NA,NA,NA,NA,NA,NA
"327","stim/objects/HouseObjects/flyswatter.png",269,27,262,0.9,"stim/44.jpeg",4,4,3,2,"HouseObjects",1,3,"left","left",0.512000084,1,1,1,0,NA,NA,NA,NA,NA,NA,NA,NA,NA,NA,NA,NA,NA,NA,NA,NA,NA,NA,NA,NA,NA,NA,NA,NA
"294","stim/objects/HouseObjects/doormat.png",270,27,263,0.9,"stim/41.jpeg",4,1,3,2,"HouseObjects",1,2,"left","left",0.569000006,1,1,1,0,NA,NA,NA,NA,NA,NA,NA,NA,NA,NA,NA,NA,NA,NA,NA,NA,NA,NA,NA,NA,NA,NA,NA,NA
"491","stim/objects/Instruments/frenchhorn.png",271,27,264,0.9,"stim/34.jpeg",3,4,3,2,"Instruments",2,1,"right","right",0.412000179,1,1,1,0,NA,NA,NA,NA,NA,NA,NA,NA,NA,NA,NA,NA,NA,NA,NA,NA,NA,NA,NA,NA,NA,NA,NA,NA
"400","stim/objects/HouseObjects/towel.png",272,27,265,0.3,"stim/13.jpeg",1,3,2,1,"HouseObjects",1,1,"left","",NA,0,0,1,0,66,27,1,0.3,1,"stim/13.jpeg",1,3,"stim/13.jpeg",1,"right",3.582000017,2,2,3.230000019,3,3.141000032,66,0,0,NA,0,NA,1
"492","stim/objects/Instruments/frenchhorn.png",273,27,266,0.9,"stim/32.jpeg",3,2,3,2,"Instruments",2,2,"right","right",0.453000069,1,1,1,0,NA,NA,NA,NA,NA,NA,NA,NA,NA,NA,NA,NA,NA,NA,NA,NA,NA,NA,NA,NA,NA,NA,NA,NA
"458","stim/objects/Instruments/flute.png",274,27,267,0.9,"stim/31.jpeg",3,1,3,2,"Instruments",2,2,"right","right",0.465000153,1,1,1,0,NA,NA,NA,NA,NA,NA,NA,NA,NA,NA,NA,NA,NA,NA,NA,NA,NA,NA,NA,NA,NA,NA,NA,NA
"271","stim/objects/HouseObjects/clothesdryingrack.png",275,27,268,0.7,"stim/23.jpeg",2,3,2,2,"HouseObjects",1,4,"left","left",0.513999939,1,1,1,0,NA,NA,NA,NA,NA,NA,NA,NA,NA,NA,NA,NA,NA,NA,NA,NA,NA,NA,NA,NA,NA,NA,NA,NA
"358","stim/objects/HouseObjects/garbagebin2.png",276,27,269,0.1,"stim/34.jpeg",3,4,3,1,"HouseObjects",1,4,"left","right",0.508000135,0,0,1,0,122,27,1,0.1,1,"stim/34.jpeg",3,4,"stim/34.jpeg",4,"right",1.523000002,4,4,3.337999821,4,0.720999956,122,0,1,NA,1,NA,1
"244","stim/objects/HouseObjects/ballofstring.png",277,27,270,0.5,"stim/53.jpeg",5,3,1,2,"HouseObjects",1,3,"left","left",0.560000181,1,1,1,0,NA,NA,NA,NA,NA,NA,NA,NA,NA,NA,NA,NA,NA,NA,NA,NA,NA,NA,NA,NA,NA,NA,NA,NA
"410","stim/objects/Instruments/acousticguitar.png",278,27,271,0.5,"stim/51.jpeg",5,1,1,2,"Instruments",2,3,"right","left",0.607000113,0,0,1,0,NA,NA,NA,NA,NA,NA,NA,NA,NA,NA,NA,NA,NA,NA,NA,NA,NA,NA,NA,NA,NA,NA,NA,NA
"241","stim/objects/HouseObjects/ashtray.png",279,27,272,0.5,"stim/51.jpeg",5,1,1,2,"HouseObjects",1,3,"left","right",0.562000036,0,0,1,0,NA,NA,NA,NA,NA,NA,NA,NA,NA,NA,NA,NA,NA,NA,NA,NA,NA,NA,NA,NA,NA,NA,NA,NA
"311","stim/objects/HouseObjects/dustpan.png",280,27,273,0.9,"stim/41.jpeg",4,1,3,2,"HouseObjects",1,2,"left","left",0.798000097,1,1,1,0,NA,NA,NA,NA,NA,NA,NA,NA,NA,NA,NA,NA,NA,NA,NA,NA,NA,NA,NA,NA,NA,NA,NA,NA
"385","stim/objects/HouseObjects/safetypin2.png",281,27,274,0.1,"stim/32.jpeg",3,2,3,1,"HouseObjects",1,1,"left","left",0.767000198,1,1,1,0,116,27,1,0.1,1,"stim/32.jpeg",3,2,"stim/32.jpeg",1,"left",1.236999989,4,2,1.639999866,1,0.897000074,116,1,1,1,1,1,1
"259","stim/objects/HouseObjects/bottle.png",282,27,275,0.5,"stim/64.jpeg",6,4,1,2,"HouseObjects",1,3,"left","right",0.770000219,0,0,1,0,NA,NA,NA,NA,NA,NA,NA,NA,NA,NA,NA,NA,NA,NA,NA,NA,NA,NA,NA,NA,NA,NA,NA,NA
"444","stim/objects/Instruments/drums.png",283,27,276,0.7,"stim/12.jpeg",1,2,2,2,"Instruments",2,4,"right","right",0.585000038,1,1,1,0,NA,NA,NA,NA,NA,NA,NA,NA,NA,NA,NA,NA,NA,NA,NA,NA,NA,NA,NA,NA,NA,NA,NA,NA
"255","stim/objects/HouseObjects/bleachbottle2.png",284,27,277,0.3,"stim/12.jpeg",1,2,2,1,"HouseObjects",1,4,"left","right",0.468000174,0,0,1,0,114,27,1,0.3,1,"stim/12.jpeg",1,2,"stim/12.jpeg",4,"left",1.474999905,3,2,11.31400013,3,1.476999998,114,1,1,1,0,0,1
"312","stim/objects/HouseObjects/dustpan.png",285,27,278,0.9,"stim/43.jpeg",4,3,3,2,"HouseObjects",1,2,"left","left",0.541000128,1,1,1,0,NA,NA,NA,NA,NA,NA,NA,NA,NA,NA,NA,NA,NA,NA,NA,NA,NA,NA,NA,NA,NA,NA,NA,NA
"344","stim/objects/HouseObjects/garbagebin.png",286,27,279,0.9,"stim/41.jpeg",4,1,3,2,"HouseObjects",1,4,"left","left",0.62100029,1,1,1,0,NA,NA,NA,NA,NA,NA,NA,NA,NA,NA,NA,NA,NA,NA,NA,NA,NA,NA,NA,NA,NA,NA,NA,NA
"440","stim/objects/Instruments/doublebass.png",287,27,280,0.7,"stim/14.jpeg",1,4,2,2,"Instruments",2,4,"right","right",0.601000071,1,1,1,0,NA,NA,NA,NA,NA,NA,NA,NA,NA,NA,NA,NA,NA,NA,NA,NA,NA,NA,NA,NA,NA,NA,NA,NA
"379","stim/objects/HouseObjects/hairdryer2.png",288,27,281,0.1,"stim/33.jpeg",3,3,3,1,"HouseObjects",1,3,"left","right",0.568000078,0,0,1,0,142,27,1,0.1,1,"stim/33.jpeg",3,3,"stim/33.jpeg",3,"left",2.868000031,3,3,2.410000086,2,1.867999792,142,1,1,1,0,0,1
"313","stim/objects/HouseObjects/dustpan.png",289,27,282,0.9,"stim/42.jpeg",4,2,3,2,"HouseObjects",1,3,"left","left",0.682000399,1,1,1,0,NA,NA,NA,NA,NA,NA,NA,NA,NA,NA,NA,NA,NA,NA,NA,NA,NA,NA,NA,NA,NA,NA,NA,NA
"346","stim/objects/HouseObjects/garbagebin.png",290,27,283,0.9,"stim/43.jpeg",4,3,3,2,"HouseObjects",1,3,"left","left",0.571000099,1,1,1,0,NA,NA,NA,NA,NA,NA,NA,NA,NA,NA,NA,NA,NA,NA,NA,NA,NA,NA,NA,NA,NA,NA,NA,NA
"282","stim/objects/HouseObjects/coffee2.png",291,27,284,0.7,"stim/23.jpeg",2,3,2,1,"HouseObjects",1,2,"left","left",0.65500021,1,1,1,0,167,27,1,0.7,1,"stim/23.jpeg",2,3,"stim/23.jpeg",2,"right",1.213999987,3,3,4.436000109,4,1.121000051,167,0,1,NA,0,NA,1
"565","stim/objects/Instruments/violin.png",292,27,285,0.7,"stim/14.jpeg",1,4,2,1,"Instruments",2,2,"right","left",0.526000261,0,0,1,0,173,27,1,0.7,2,"stim/14.jpeg",1,4,"stim/14.jpeg",2,"left",1.423000097,3,3,3.330999851,3,2.335000038,173,1,0,0,0,0,1
"525","stim/objects/Instruments/grandpiano.png",293,27,286,0.9,"stim/32.jpeg",3,2,3,2,"Instruments",2,2,"right","right",0.594000101,1,1,1,0,NA,NA,NA,NA,NA,NA,NA,NA,NA,NA,NA,NA,NA,NA,NA,NA,NA,NA,NA,NA,NA,NA,NA,NA
"526","stim/objects/Instruments/grandpiano.png",294,27,287,0.9,"stim/33.jpeg",3,3,3,2,"Instruments",2,2,"right","right",0.592000246,1,1,1,0,NA,NA,NA,NA,NA,NA,NA,NA,NA,NA,NA,NA,NA,NA,NA,NA,NA,NA,NA,NA,NA,NA,NA,NA
"460","stim/objects/Instruments/flute.png",295,27,288,0.9,"stim/31.jpeg",3,1,3,2,"Instruments",2,2,"right","right",0.509000063,1,1,1,0,NA,NA,NA,NA,NA,NA,NA,NA,NA,NA,NA,NA,NA,NA,NA,NA,NA,NA,NA,NA,NA,NA,NA,NA
"475","stim/objects/Instruments/flutetrans.png",296,27,289,0.9,"stim/33.jpeg",3,3,3,2,"Instruments",2,2,"right","right",0.493000269,1,1,1,0,NA,NA,NA,NA,NA,NA,NA,NA,NA,NA,NA,NA,NA,NA,NA,NA,NA,NA,NA,NA,NA,NA,NA,NA
"314","stim/objects/HouseObjects/dustpan.png",297,27,290,0.9,"stim/41.jpeg",4,1,3,2,"HouseObjects",1,2,"left","left",0.493000269,1,1,1,0,NA,NA,NA,NA,NA,NA,NA,NA,NA,NA,NA,NA,NA,NA,NA,NA,NA,NA,NA,NA,NA,NA,NA,NA
"429","stim/objects/Instruments/chime2.png",298,27,291,0.3,"stim/24.jpeg",2,4,2,1,"Instruments",2,1,"right","left",0.626000166,0,0,1,0,197,27,1,0.3,2,"stim/24.jpeg",2,4,"stim/24.jpeg",1,"left",1.015000105,4,1,1.036999941,1,1.074999809,197,1,0,0,1,1,1
"359","stim/objects/HouseObjects/glass.png",299,27,292,0.9,"stim/41.jpeg",4,1,3,2,"HouseObjects",1,2,"left","left",0.649000168,1,1,1,0,NA,NA,NA,NA,NA,NA,NA,NA,NA,NA,NA,NA,NA,NA,NA,NA,NA,NA,NA,NA,NA,NA,NA,NA
"347","stim/objects/HouseObjects/garbagebin.png",300,27,293,0.9,"stim/41.jpeg",4,1,3,2,"HouseObjects",1,2,"left","left",0.490000248,1,1,1,0,NA,NA,NA,NA,NA,NA,NA,NA,NA,NA,NA,NA,NA,NA,NA,NA,NA,NA,NA,NA,NA,NA,NA,NA
"427","stim/objects/Instruments/chime.png",301,27,294,0.5,"stim/61.jpeg",6,1,1,2,"Instruments",2,3,"right","left",0.768000126,0,0,1,0,NA,NA,NA,NA,NA,NA,NA,NA,NA,NA,NA,NA,NA,NA,NA,NA,NA,NA,NA,NA,NA,NA,NA,NA
"382","stim/objects/HouseObjects/handvacuum.png",302,27,295,0.5,"stim/52.jpeg",5,2,1,1,"HouseObjects",1,4,"left","left",0.659000158,1,1,1,0,160,27,1,0.5,1,"stim/52.jpeg",5,2,"stim/52.jpeg",4,"right",1.27699995,4,4,1.423000097,4,1.249000072,160,0,0,NA,1,NA,1
"528","stim/objects/Instruments/grandpiano.png",303,27,296,0.9,"stim/32.jpeg",3,2,3,2,"Instruments",2,1,"right","right",0.470000267,1,1,1,0,NA,NA,NA,NA,NA,NA,NA,NA,NA,NA,NA,NA,NA,NA,NA,NA,NA,NA,NA,NA,NA,NA,NA,NA
"448","stim/objects/Instruments/electricdrumset.png",304,27,297,0.7,"stim/14.jpeg",1,4,2,2,"Instruments",2,2,"right","right",0.743000269,1,1,1,0,NA,NA,NA,NA,NA,NA,NA,NA,NA,NA,NA,NA,NA,NA,NA,NA,NA,NA,NA,NA,NA,NA,NA,NA
"508","stim/objects/Instruments/gong.png",305,27,298,0.9,"stim/31.jpeg",3,1,3,2,"Instruments",2,4,"right","right",0.452000141,1,1,1,0,NA,NA,NA,NA,NA,NA,NA,NA,NA,NA,NA,NA,NA,NA,NA,NA,NA,NA,NA,NA,NA,NA,NA,NA
"328","stim/objects/HouseObjects/flyswatter.png",306,27,299,0.9,"stim/42.jpeg",4,2,3,2,"HouseObjects",1,3,"left","left",0.452000141,1,1,1,0,NA,NA,NA,NA,NA,NA,NA,NA,NA,NA,NA,NA,NA,NA,NA,NA,NA,NA,NA,NA,NA,NA,NA,NA
"329","stim/objects/HouseObjects/flyswatter.png",307,27,300,0.9,"stim/43.jpeg",4,3,3,2,"HouseObjects",1,1,"left","left",0.49000001,1,1,1,0,NA,NA,NA,NA,NA,NA,NA,NA,NA,NA,NA,NA,NA,NA,NA,NA,NA,NA,NA,NA,NA,NA,NA,NA
"295","stim/objects/HouseObjects/doormat.png",308,27,301,0.9,"stim/41.jpeg",4,1,3,2,"HouseObjects",1,4,"left","left",0.686000109,1,1,1,0,NA,NA,NA,NA,NA,NA,NA,NA,NA,NA,NA,NA,NA,NA,NA,NA,NA,NA,NA,NA,NA,NA,NA,NA
"453","stim/objects/Instruments/electricguitar.png",309,27,302,0.7,"stim/11.jpeg",1,1,2,2,"Instruments",2,2,"right","right",0.702000141,1,1,1,0,NA,NA,NA,NA,NA,NA,NA,NA,NA,NA,NA,NA,NA,NA,NA,NA,NA,NA,NA,NA,NA,NA,NA,NA
"461","stim/objects/Instruments/flute.png",310,27,303,0.9,"stim/34.jpeg",3,4,3,2,"Instruments",2,4,"right","right",0.563000202,1,1,1,0,NA,NA,NA,NA,NA,NA,NA,NA,NA,NA,NA,NA,NA,NA,NA,NA,NA,NA,NA,NA,NA,NA,NA,NA
"258","stim/objects/HouseObjects/blender2.png",311,27,304,0.7,"stim/24.jpeg",2,4,2,1,"HouseObjects",1,3,"left","left",0.534000158,1,1,1,0,55,27,1,0.7,1,"stim/24.jpeg",2,4,"stim/24.jpeg",3,"right",1.539999962,2,4,3.41899991,3,4.073000193,55,0,1,NA,1,NA,1
"360","stim/objects/HouseObjects/glass.png",312,27,305,0.9,"stim/41.jpeg",4,1,3,2,"HouseObjects",1,4,"left","left",0.589000225,1,1,1,0,NA,NA,NA,NA,NA,NA,NA,NA,NA,NA,NA,NA,NA,NA,NA,NA,NA,NA,NA,NA,NA,NA,NA,NA
"315","stim/objects/HouseObjects/dustpan.png",313,27,306,0.9,"stim/44.jpeg",4,4,3,2,"HouseObjects",1,2,"left","left",0.626000166,1,1,1,0,NA,NA,NA,NA,NA,NA,NA,NA,NA,NA,NA,NA,NA,NA,NA,NA,NA,NA,NA,NA,NA,NA,NA,NA
"386","stim/objects/HouseObjects/saw.png",314,27,307,0.5,"stim/61.jpeg",6,1,1,1,"HouseObjects",1,2,"left","left",0.555000305,1,1,1,0,13,27,1,0.5,2,"stim/61.jpeg",6,1,"stim/61.jpeg",2,"right",1.123000145,2,1,5.763000011,1,1.013999939,13,0,1,NA,0,NA,1
"509","stim/objects/Instruments/gong.png",315,27,308,0.9,"stim/33.jpeg",3,3,3,2,"Instruments",2,3,"right","right",0.626000166,1,1,1,0,NA,NA,NA,NA,NA,NA,NA,NA,NA,NA,NA,NA,NA,NA,NA,NA,NA,NA,NA,NA,NA,NA,NA,NA
"316","stim/objects/HouseObjects/dustpan.png",316,27,309,0.9,"stim/44.jpeg",4,4,3,2,"HouseObjects",1,3,"left","left",0.541000128,1,1,1,0,NA,NA,NA,NA,NA,NA,NA,NA,NA,NA,NA,NA,NA,NA,NA,NA,NA,NA,NA,NA,NA,NA,NA,NA
"562","stim/objects/Instruments/trumpet2.png",317,27,310,0.1,"stim/44.jpeg",4,4,3,1,"Instruments",2,1,"right","left",0.621999979,0,0,1,0,74,27,1,0.1,2,"stim/44.jpeg",4,4,"stim/44.jpeg",1,"left",1.550000191,3,3,9.036000013,3,1.486000061,74,1,0,0,0,0,1
"317","stim/objects/HouseObjects/dustpan.png",318,27,311,0.9,"stim/43.jpeg",4,3,3,2,"HouseObjects",1,4,"left","right",0.559000015,0,0,1,0,NA,NA,NA,NA,NA,NA,NA,NA,NA,NA,NA,NA,NA,NA,NA,NA,NA,NA,NA,NA,NA,NA,NA,NA
"430","stim/objects/Instruments/clarinet.png",319,27,312,0.5,"stim/62.jpeg",6,2,1,2,"Instruments",2,2,"right","left",0.731000185,0,0,1,0,NA,NA,NA,NA,NA,NA,NA,NA,NA,NA,NA,NA,NA,NA,NA,NA,NA,NA,NA,NA,NA,NA,NA,NA
"247","stim/objects/HouseObjects/barbecuelighter.png",320,27,313,0.5,"stim/53.jpeg",5,3,1,2,"HouseObjects",1,1,"left","",NA,0,0,1,0,NA,NA,NA,NA,NA,NA,NA,NA,NA,NA,NA,NA,NA,NA,NA,NA,NA,NA,NA,NA,NA,NA,NA,NA
"493","stim/objects/Instruments/frenchhorn.png",321,27,314,0.9,"stim/31.jpeg",3,1,3,2,"Instruments",2,1,"right","right",0.569000244,1,1,1,0,NA,NA,NA,NA,NA,NA,NA,NA,NA,NA,NA,NA,NA,NA,NA,NA,NA,NA,NA,NA,NA,NA,NA,NA
"391","stim/objects/HouseObjects/sponge2.png",322,27,315,0.9,"stim/43.jpeg",4,3,3,1,"HouseObjects",1,4,"left","left",0.653000116,1,1,1,0,25,27,1,0.9,1,"stim/43.jpeg",4,3,"stim/43.jpeg",4,"right",1.953999996,2,2,5.111000061,1,5.003000021,25,0,0,NA,0,NA,1
"264","stim/objects/HouseObjects/broom2.png",323,27,316,0.7,"stim/22.jpeg",2,2,2,1,"HouseObjects",1,4,"left","left",0.572000265,1,1,1,0,137,27,1,0.7,1,"stim/22.jpeg",2,2,"stim/22.jpeg",4,"right",1.443000078,2,3,2.308000088,3,1.363000154,137,0,0,NA,0,NA,1
"414","stim/objects/Instruments/balalaika2.png",324,27,317,0.7,"stim/11.jpeg",1,1,2,1,"Instruments",2,4,"right","left",0.588000059,0,0,1,0,94,27,1,0.7,2,"stim/11.jpeg",1,1,"stim/11.jpeg",4,"left",1.409999847,4,3,8.621999979,4,1.470000029,94,1,0,0,1,1,1
"529","stim/objects/Instruments/grandpiano.png",325,27,318,0.9,"stim/31.jpeg",3,1,3,2,"Instruments",2,2,"right","right",0.461000204,1,1,1,0,NA,NA,NA,NA,NA,NA,NA,NA,NA,NA,NA,NA,NA,NA,NA,NA,NA,NA,NA,NA,NA,NA,NA,NA
"433","stim/objects/Instruments/cornet.png",326,27,319,0.5,"stim/63.jpeg",6,3,1,2,"Instruments",2,1,"right","left",0.578000069,0,0,1,0,NA,NA,NA,NA,NA,NA,NA,NA,NA,NA,NA,NA,NA,NA,NA,NA,NA,NA,NA,NA,NA,NA,NA,NA
"555","stim/objects/Instruments/timbal.png",327,27,320,0.5,"stim/62.jpeg",6,2,1,1,"Instruments",2,4,"right","left",0.686000109,0,0,1,0,164,27,1,0.5,2,"stim/62.jpeg",6,2,"stim/62.jpeg",4,"right",2.63499999,4,2,2.062000036,3,1.387000084,164,0,1,NA,0,NA,1
"362","stim/objects/HouseObjects/glass.png",328,27,321,0.9,"stim/41.jpeg",4,1,3,2,"HouseObjects",1,2,"left","left",0.695000172,1,1,1,0,NA,NA,NA,NA,NA,NA,NA,NA,NA,NA,NA,NA,NA,NA,NA,NA,NA,NA,NA,NA,NA,NA,NA,NA
"421","stim/objects/Instruments/bassguitar.png",329,27,322,0.5,"stim/63.jpeg",6,3,1,2,"Instruments",2,4,"right","left",0.551000118,0,0,1,0,NA,NA,NA,NA,NA,NA,NA,NA,NA,NA,NA,NA,NA,NA,NA,NA,NA,NA,NA,NA,NA,NA,NA,NA
"512","stim/objects/Instruments/gong.png",330,27,323,0.9,"stim/34.jpeg",3,4,3,2,"Instruments",2,1,"right","right",0.58100009,1,1,1,0,NA,NA,NA,NA,NA,NA,NA,NA,NA,NA,NA,NA,NA,NA,NA,NA,NA,NA,NA,NA,NA,NA,NA,NA
"287","stim/objects/HouseObjects/dishsoap.png",331,27,324,0.7,"stim/21.jpeg",2,1,2,2,"HouseObjects",1,3,"left","left",0.657000303,1,1,1,0,NA,NA,NA,NA,NA,NA,NA,NA,NA,NA,NA,NA,NA,NA,NA,NA,NA,NA,NA,NA,NA,NA,NA,NA
"449","stim/objects/Instruments/electricdrumset.png",332,27,325,0.7,"stim/13.jpeg",1,3,2,2,"Instruments",2,4,"right","right",0.673000097,1,1,1,0,NA,NA,NA,NA,NA,NA,NA,NA,NA,NA,NA,NA,NA,NA,NA,NA,NA,NA,NA,NA,NA,NA,NA,NA
"436","stim/objects/Instruments/cymbal.png",333,27,326,0.7,"stim/13.jpeg",1,3,2,2,"Instruments",2,2,"right","right",0.575000048,1,1,1,0,NA,NA,NA,NA,NA,NA,NA,NA,NA,NA,NA,NA,NA,NA,NA,NA,NA,NA,NA,NA,NA,NA,NA,NA
"242","stim/objects/HouseObjects/ashtray.png",334,27,327,0.5,"stim/52.jpeg",5,2,1,2,"HouseObjects",1,3,"left","left",0.555000067,1,1,1,0,NA,NA,NA,NA,NA,NA,NA,NA,NA,NA,NA,NA,NA,NA,NA,NA,NA,NA,NA,NA,NA,NA,NA,NA
"376","stim/objects/HouseObjects/glassmop.png",335,27,328,0.5,"stim/53.jpeg",5,3,1,1,"HouseObjects",1,3,"left","left",0.548000336,1,1,1,0,190,27,1,0.5,1,"stim/53.jpeg",5,3,"stim/53.jpeg",3,"right",1.624000072,4,3,1.437000036,3,2.766000032,190,0,1,NA,1,NA,1
"297","stim/objects/HouseObjects/doormat.png",336,27,329,0.9,"stim/44.jpeg",4,4,3,2,"HouseObjects",1,2,"left","left",0.584000111,1,1,1,0,NA,NA,NA,NA,NA,NA,NA,NA,NA,NA,NA,NA,NA,NA,NA,NA,NA,NA,NA,NA,NA,NA,NA,NA
"462","stim/objects/Instruments/flute.png",337,27,330,0.9,"stim/32.jpeg",3,2,3,2,"Instruments",2,2,"right","left",0.559000254,0,0,1,0,NA,NA,NA,NA,NA,NA,NA,NA,NA,NA,NA,NA,NA,NA,NA,NA,NA,NA,NA,NA,NA,NA,NA,NA
"476","stim/objects/Instruments/flutetrans.png",338,27,331,0.9,"stim/31.jpeg",3,1,3,2,"Instruments",2,4,"right","right",0.492000103,1,1,1,0,NA,NA,NA,NA,NA,NA,NA,NA,NA,NA,NA,NA,NA,NA,NA,NA,NA,NA,NA,NA,NA,NA,NA,NA
"478","stim/objects/Instruments/flutetrans.png",339,27,332,0.9,"stim/31.jpeg",3,1,3,2,"Instruments",2,3,"right","right",0.565000296,1,1,1,0,NA,NA,NA,NA,NA,NA,NA,NA,NA,NA,NA,NA,NA,NA,NA,NA,NA,NA,NA,NA,NA,NA,NA,NA
"494","stim/objects/Instruments/frenchhorn.png",340,27,333,0.9,"stim/34.jpeg",3,4,3,2,"Instruments",2,2,"right","right",0.762000322,1,1,1,0,NA,NA,NA,NA,NA,NA,NA,NA,NA,NA,NA,NA,NA,NA,NA,NA,NA,NA,NA,NA,NA,NA,NA,NA
"513","stim/objects/Instruments/gong.png",341,27,334,0.9,"stim/32.jpeg",3,2,3,2,"Instruments",2,4,"right","right",0.450000048,1,1,1,0,NA,NA,NA,NA,NA,NA,NA,NA,NA,NA,NA,NA,NA,NA,NA,NA,NA,NA,NA,NA,NA,NA,NA,NA
"542","stim/objects/Instruments/guitarcase2.png",342,27,335,0.9,"stim/34.jpeg",3,4,3,1,"Instruments",2,4,"right","right",0.410000086,1,1,1,0,109,27,1,0.9,2,"stim/34.jpeg",3,4,"stim/34.jpeg",4,"left",0.890000105,4,2,1.902999878,3,2.404999971,109,1,0,0,0,0,1
"384","stim/objects/HouseObjects/safetypin.png",343,27,336,0.5,"stim/53.jpeg",5,3,1,1,"HouseObjects",1,3,"left","left",0.604000092,1,1,1,0,121,27,1,0.5,1,"stim/53.jpeg",5,3,"stim/53.jpeg",3,"right",0.769999981,2,3,2.120000124,1,1.88499999,121,0,1,NA,0,NA,1
"265","stim/objects/HouseObjects/bucket.png",344,27,337,0.5,"stim/62.jpeg",6,2,1,2,"HouseObjects",1,4,"left","left",0.64800024,1,1,1,0,NA,NA,NA,NA,NA,NA,NA,NA,NA,NA,NA,NA,NA,NA,NA,NA,NA,NA,NA,NA,NA,NA,NA,NA
"268","stim/objects/HouseObjects/clock.png",345,27,338,0.5,"stim/63.jpeg",6,3,1,2,"HouseObjects",1,4,"left","left",0.488000154,1,1,1,0,NA,NA,NA,NA,NA,NA,NA,NA,NA,NA,NA,NA,NA,NA,NA,NA,NA,NA,NA,NA,NA,NA,NA,NA
"288","stim/objects/HouseObjects/dishsoap.png",346,27,339,0.7,"stim/22.jpeg",2,2,2,2,"HouseObjects",1,2,"left","left",0.54700017,1,1,1,0,NA,NA,NA,NA,NA,NA,NA,NA,NA,NA,NA,NA,NA,NA,NA,NA,NA,NA,NA,NA,NA,NA,NA,NA
"399","stim/objects/HouseObjects/thread2.png",347,27,340,0.9,"stim/43.jpeg",4,3,3,1,"HouseObjects",1,3,"left","left",0.588000298,1,1,1,0,145,27,1,0.9,1,"stim/43.jpeg",4,3,"stim/43.jpeg",3,"right",0.931000233,4,3,3.184000015,1,2.450999975,145,0,1,NA,0,NA,1
"298","stim/objects/HouseObjects/doormat.png",348,27,341,0.9,"stim/42.jpeg",4,2,3,2,"HouseObjects",1,1,"left","left",0.586000204,1,1,1,0,NA,NA,NA,NA,NA,NA,NA,NA,NA,NA,NA,NA,NA,NA,NA,NA,NA,NA,NA,NA,NA,NA,NA,NA
"248","stim/objects/HouseObjects/barbecuelighter.png",349,27,342,0.5,"stim/54.jpeg",5,4,1,2,"HouseObjects",1,2,"left","left",0.486999989,1,1,1,0,NA,NA,NA,NA,NA,NA,NA,NA,NA,NA,NA,NA,NA,NA,NA,NA,NA,NA,NA,NA,NA,NA,NA,NA
"341","stim/objects/HouseObjects/flyswatter2.png",350,27,343,0.1,"stim/33.jpeg",3,3,3,1,"HouseObjects",1,3,"left","right",0.595000029,0,0,1,0,24,27,1,0.1,1,"stim/33.jpeg",3,3,"stim/33.jpeg",3,"left",0.853999853,4,4,4.31799984,1,6.034999847,24,1,0,0,0,0,1
"389","stim/objects/HouseObjects/scale2.png",351,27,344,0.9,"stim/42.jpeg",4,2,3,1,"HouseObjects",1,4,"left","left",0.589000225,1,1,1,0,87,27,1,0.9,1,"stim/42.jpeg",4,2,"stim/42.jpeg",4,"left",1.421000004,3,2,1.774000168,2,1.879999876,87,1,1,1,0,0,1
"413","stim/objects/Instruments/balalaika.png",352,27,345,0.5,"stim/52.jpeg",5,2,1,2,"Instruments",2,2,"right","left",0.54700017,0,0,1,0,NA,NA,NA,NA,NA,NA,NA,NA,NA,NA,NA,NA,NA,NA,NA,NA,NA,NA,NA,NA,NA,NA,NA,NA
"364","stim/objects/HouseObjects/glass.png",353,27,346,0.9,"stim/43.jpeg",4,3,3,2,"HouseObjects",1,4,"left","left",0.693000317,1,1,1,0,NA,NA,NA,NA,NA,NA,NA,NA,NA,NA,NA,NA,NA,NA,NA,NA,NA,NA,NA,NA,NA,NA,NA,NA
"249","stim/objects/HouseObjects/barbecuelighter2.png",354,27,347,0.3,"stim/14.jpeg",1,4,2,1,"HouseObjects",1,3,"left","",NA,0,0,1,0,172,27,1,0.3,1,"stim/14.jpeg",1,4,"stim/14.jpeg",3,"left",1.627000093,3,2,9.059000015,4,1.236999989,172,1,0,0,0,0,1
"301","stim/objects/HouseObjects/doormat.png",355,27,348,0.9,"stim/43.jpeg",4,3,3,2,"HouseObjects",1,4,"left","left",0.592000246,1,1,1,0,NA,NA,NA,NA,NA,NA,NA,NA,NA,NA,NA,NA,NA,NA,NA,NA,NA,NA,NA,NA,NA,NA,NA,NA
"333","stim/objects/HouseObjects/flyswatter.png",356,27,349,0.9,"stim/44.jpeg",4,4,3,2,"HouseObjects",1,3,"left","left",0.550000191,1,1,1,0,NA,NA,NA,NA,NA,NA,NA,NA,NA,NA,NA,NA,NA,NA,NA,NA,NA,NA,NA,NA,NA,NA,NA,NA
"348","stim/objects/HouseObjects/garbagebin.png",357,27,350,0.9,"stim/42.jpeg",4,2,3,2,"HouseObjects",1,2,"left","left",0.420000315,1,1,1,0,NA,NA,NA,NA,NA,NA,NA,NA,NA,NA,NA,NA,NA,NA,NA,NA,NA,NA,NA,NA,NA,NA,NA,NA
"463","stim/objects/Instruments/flute.png",358,27,351,0.9,"stim/32.jpeg",3,2,3,2,"Instruments",2,4,"right","right",0.609000206,1,1,1,0,NA,NA,NA,NA,NA,NA,NA,NA,NA,NA,NA,NA,NA,NA,NA,NA,NA,NA,NA,NA,NA,NA,NA,NA
"531","stim/objects/Instruments/grandpiano.png",359,27,352,0.9,"stim/34.jpeg",3,4,3,2,"Instruments",2,4,"right","right",0.469000101,1,1,1,0,NA,NA,NA,NA,NA,NA,NA,NA,NA,NA,NA,NA,NA,NA,NA,NA,NA,NA,NA,NA,NA,NA,NA,NA
"514","stim/objects/Instruments/gong.png",360,27,353,0.9,"stim/31.jpeg",3,1,3,2,"Instruments",2,3,"right","right",0.446000338,1,1,1,0,NA,NA,NA,NA,NA,NA,NA,NA,NA,NA,NA,NA,NA,NA,NA,NA,NA,NA,NA,NA,NA,NA,NA,NA
"419","stim/objects/Instruments/bassdrum.png",361,27,354,0.5,"stim/51.jpeg",5,1,1,2,"Instruments",2,3,"right","left",0.535000086,0,0,1,0,NA,NA,NA,NA,NA,NA,NA,NA,NA,NA,NA,NA,NA,NA,NA,NA,NA,NA,NA,NA,NA,NA,NA,NA
"548","stim/objects/Instruments/hihat2.png",362,27,355,0.9,"stim/33.jpeg",3,3,3,1,"Instruments",2,3,"right","right",0.499000311,1,1,1,0,7,27,1,0.9,2,"stim/33.jpeg",3,3,"stim/33.jpeg",3,"left",1.015000105,4,2,4.202000141,4,2.226999998,7,1,0,0,0,0,1
"383","stim/objects/HouseObjects/handvacuum2.png",363,27,356,0.1,"stim/31.jpeg",3,1,3,1,"HouseObjects",1,2,"left","right",0.515000105,0,0,1,0,179,27,1,0.1,1,"stim/31.jpeg",3,1,"stim/31.jpeg",2,"left",0.950999975,3,3,1.628999949,4,4.279000044,179,1,0,0,0,0,1
"365","stim/objects/HouseObjects/glass.png",364,27,357,0.9,"stim/44.jpeg",4,4,3,2,"HouseObjects",1,2,"left","left",0.480000257,1,1,1,0,NA,NA,NA,NA,NA,NA,NA,NA,NA,NA,NA,NA,NA,NA,NA,NA,NA,NA,NA,NA,NA,NA,NA,NA
"497","stim/objects/Instruments/frenchhorn.png",365,27,358,0.9,"stim/32.jpeg",3,2,3,2,"Instruments",2,4,"right","right",0.519000292,1,1,1,0,NA,NA,NA,NA,NA,NA,NA,NA,NA,NA,NA,NA,NA,NA,NA,NA,NA,NA,NA,NA,NA,NA,NA,NA
"464","stim/objects/Instruments/flute.png",366,27,359,0.9,"stim/31.jpeg",3,1,3,2,"Instruments",2,4,"right","right",0.565999985,1,1,1,0,NA,NA,NA,NA,NA,NA,NA,NA,NA,NA,NA,NA,NA,NA,NA,NA,NA,NA,NA,NA,NA,NA,NA,NA
"276","stim/objects/HouseObjects/clothespin.png",367,27,360,0.7,"stim/24.jpeg",2,4,2,2,"HouseObjects",1,3,"left","left",0.509000301,1,1,1,0,NA,NA,NA,NA,NA,NA,NA,NA,NA,NA,NA,NA,NA,NA,NA,NA,NA,NA,NA,NA,NA,NA,NA,NA
"408","stim/objects/Instruments/accordion2.png",368,27,361,0.7,"stim/13.jpeg",1,3,2,1,"Instruments",2,2,"right","left",0.799999952,0,0,1,0,136,27,1,0.7,2,"stim/13.jpeg",1,3,"stim/13.jpeg",2,"right",1.40199995,2,1,2.801000118,3,2.318000078,136,0,0,NA,0,NA,1
"479","stim/objects/Instruments/flutetrans.png",369,27,362,0.9,"stim/34.jpeg",3,4,3,2,"Instruments",2,4,"right","right",0.49000001,1,1,1,0,NA,NA,NA,NA,NA,NA,NA,NA,NA,NA,NA,NA,NA,NA,NA,NA,NA,NA,NA,NA,NA,NA,NA,NA
"319","stim/objects/HouseObjects/dustpan.png",370,27,363,0.9,"stim/43.jpeg",4,3,3,2,"HouseObjects",1,2,"left","left",0.571000338,1,1,1,0,NA,NA,NA,NA,NA,NA,NA,NA,NA,NA,NA,NA,NA,NA,NA,NA,NA,NA,NA,NA,NA,NA,NA,NA
"307","stim/objects/HouseObjects/doormat2.png",371,27,364,0.1,"stim/31.jpeg",3,1,3,1,"HouseObjects",1,1,"left","right",0.622000217,0,0,1,0,153,27,1,0.1,1,"stim/31.jpeg",3,1,"stim/31.jpeg",1,"right",1.230000019,3,4,2.512000084,4,1.552999973,153,0,0,NA,0,NA,1
"498","stim/objects/Instruments/frenchhorn.png",372,27,365,0.9,"stim/32.jpeg",3,2,3,2,"Instruments",2,1,"right","right",0.458000183,1,1,1,0,NA,NA,NA,NA,NA,NA,NA,NA,NA,NA,NA,NA,NA,NA,NA,NA,NA,NA,NA,NA,NA,NA,NA,NA
"289","stim/objects/HouseObjects/dishsoap.png",373,27,366,0.7,"stim/23.jpeg",2,3,2,2,"HouseObjects",1,1,"left","left",0.482000113,1,1,1,0,NA,NA,NA,NA,NA,NA,NA,NA,NA,NA,NA,NA,NA,NA,NA,NA,NA,NA,NA,NA,NA,NA,NA,NA
"465","stim/objects/Instruments/flute.png",374,27,367,0.9,"stim/33.jpeg",3,3,3,2,"Instruments",2,1,"right","right",0.529000044,1,1,1,0,NA,NA,NA,NA,NA,NA,NA,NA,NA,NA,NA,NA,NA,NA,NA,NA,NA,NA,NA,NA,NA,NA,NA,NA
"308","stim/objects/HouseObjects/dustpan.png",375,27,368,0.9,"stim/43.jpeg",4,3,3,2,"HouseObjects",1,4,"left","left",0.653000116,1,1,1,0,NA,NA,NA,NA,NA,NA,NA,NA,NA,NA,NA,NA,NA,NA,NA,NA,NA,NA,NA,NA,NA,NA,NA,NA
"431","stim/objects/Instruments/clarinet.png",376,27,369,0.5,"stim/61.jpeg",6,1,1,2,"Instruments",2,4,"right","left",0.725000143,0,0,1,0,NA,NA,NA,NA,NA,NA,NA,NA,NA,NA,NA,NA,NA,NA,NA,NA,NA,NA,NA,NA,NA,NA,NA,NA
"547","stim/objects/Instruments/hihat.png",377,27,370,0.5,"stim/51.jpeg",5,1,1,1,"Instruments",2,2,"right","left",0.607000113,0,0,1,0,54,27,1,0.5,1,"stim/51.jpeg",5,1,"stim/51.jpeg",2,"right",2.539000034,2,1,6.960999966,3,2.410000086,54,0,1,NA,0,NA,1
"363","stim/objects/HouseObjects/glass.png",378,27,371,0.9,"stim/44.jpeg",4,4,3,2,"HouseObjects",1,4,"left","left",0.568000317,1,1,1,0,NA,NA,NA,NA,NA,NA,NA,NA,NA,NA,NA,NA,NA,NA,NA,NA,NA,NA,NA,NA,NA,NA,NA,NA
"394","stim/objects/HouseObjects/teapot.png",379,27,372,0.5,"stim/61.jpeg",6,1,1,1,"HouseObjects",1,1,"left","left",0.835000038,1,1,1,0,143,27,1,0.5,2,"stim/61.jpeg",6,1,"stim/61.jpeg",1,"left",1.524999857,4,1,5.380999804,1,0.713999987,143,1,1,1,1,1,1
"474","stim/objects/Instruments/flutetrans.png",380,27,373,0.9,"stim/32.jpeg",3,2,3,2,"Instruments",2,1,"right","right",0.565000057,1,1,1,0,NA,NA,NA,NA,NA,NA,NA,NA,NA,NA,NA,NA,NA,NA,NA,NA,NA,NA,NA,NA,NA,NA,NA,NA
"269","stim/objects/HouseObjects/clock.png",381,27,374,0.5,"stim/64.jpeg",6,4,1,2,"HouseObjects",1,1,"left","left",0.592000246,1,1,1,0,NA,NA,NA,NA,NA,NA,NA,NA,NA,NA,NA,NA,NA,NA,NA,NA,NA,NA,NA,NA,NA,NA,NA,NA
"466","stim/objects/Instruments/flute.png",382,27,375,0.9,"stim/34.jpeg",3,4,3,2,"Instruments",2,1,"right","",NA,0,0,1,0,NA,NA,NA,NA,NA,NA,NA,NA,NA,NA,NA,NA,NA,NA,NA,NA,NA,NA,NA,NA,NA,NA,NA,NA
"452","stim/objects/Instruments/electricguitar.png",383,27,376,0.7,"stim/13.jpeg",1,3,2,2,"Instruments",2,2,"right","right",0.651000261,1,1,1,0,NA,NA,NA,NA,NA,NA,NA,NA,NA,NA,NA,NA,NA,NA,NA,NA,NA,NA,NA,NA,NA,NA,NA,NA
"515","stim/objects/Instruments/gong.png",384,27,377,0.9,"stim/33.jpeg",3,3,3,2,"Instruments",2,3,"right","right",0.559000015,1,1,1,0,NA,NA,NA,NA,NA,NA,NA,NA,NA,NA,NA,NA,NA,NA,NA,NA,NA,NA,NA,NA,NA,NA,NA,NA
"293","stim/objects/HouseObjects/doormat.png",385,27,378,0.9,"stim/44.jpeg",4,4,3,2,"HouseObjects",1,4,"left","left",0.643000126,1,1,1,0,NA,NA,NA,NA,NA,NA,NA,NA,NA,NA,NA,NA,NA,NA,NA,NA,NA,NA,NA,NA,NA,NA,NA,NA
"426","stim/objects/Instruments/cello2.png",386,27,379,0.3,"stim/23.jpeg",2,3,2,1,"Instruments",2,3,"right","left",0.539000273,0,0,1,0,40,27,1,0.3,2,"stim/23.jpeg",2,3,"stim/23.jpeg",3,"left",0.977999926,4,2,5.209000111,2,2.526000023,40,1,0,0,0,0,1
"381","stim/objects/HouseObjects/handbrush2.png",387,27,380,0.1,"stim/34.jpeg",3,4,3,1,"HouseObjects",1,3,"left","right",0.551000118,0,0,1,0,48,27,1,0.1,1,"stim/34.jpeg",3,4,"stim/34.jpeg",3,"right",2.026000023,2,1,3.187000036,3,2.361000061,48,0,0,NA,1,NA,1
"483","stim/objects/Instruments/flutetrans.png",388,27,381,0.9,"stim/32.jpeg",3,2,3,2,"Instruments",2,1,"right","right",0.55700016,1,1,1,0,NA,NA,NA,NA,NA,NA,NA,NA,NA,NA,NA,NA,NA,NA,NA,NA,NA,NA,NA,NA,NA,NA,NA,NA
"533","stim/objects/Instruments/grandpiano.png",389,27,382,0.9,"stim/33.jpeg",3,3,3,2,"Instruments",2,4,"right","right",0.584000111,1,1,1,0,NA,NA,NA,NA,NA,NA,NA,NA,NA,NA,NA,NA,NA,NA,NA,NA,NA,NA,NA,NA,NA,NA,NA,NA
"390","stim/objects/HouseObjects/sponge.png",390,27,383,0.5,"stim/63.jpeg",6,3,1,1,"HouseObjects",1,1,"left","left",0.632000208,1,1,1,0,125,27,1,0.5,2,"stim/63.jpeg",6,3,"stim/63.jpeg",1,"right",0.635999918,2,3,4.94900012,4,1.27699995,125,0,1,NA,0,NA,1
"320","stim/objects/HouseObjects/dustpan.png",391,27,384,0.9,"stim/42.jpeg",4,2,3,2,"HouseObjects",1,1,"left","right",0.431000233,0,0,1,0,NA,NA,NA,NA,NA,NA,NA,NA,NA,NA,NA,NA,NA,NA,NA,NA,NA,NA,NA,NA,NA,NA,NA,NA
"545","stim/objects/Instruments/harp.png",392,27,385,0.5,"stim/54.jpeg",5,4,1,1,"Instruments",2,4,"right","left",0.800000191,0,0,1,0,113,27,1,0.5,1,"stim/54.jpeg",5,4,"stim/54.jpeg",4,"left",0.892000198,3,2,2.901000023,2,2.649000168,113,1,0,0,0,0,1
"561","stim/objects/Instruments/trumpet.png",393,27,386,0.7,"stim/12.jpeg",1,2,2,1,"Instruments",2,4,"right","right",0.726999998,1,1,1,0,16,27,1,0.7,2,"stim/12.jpeg",1,2,"stim/12.jpeg",4,"left",1.023000002,4,1,5.298999786,4,0.861999989,16,1,0,0,1,1,1
"534","stim/objects/Instruments/grandpiano.png",394,27,387,0.9,"stim/33.jpeg",3,3,3,2,"Instruments",2,3,"right","right",0.717000246,1,1,1,0,NA,NA,NA,NA,NA,NA,NA,NA,NA,NA,NA,NA,NA,NA,NA,NA,NA,NA,NA,NA,NA,NA,NA,NA
"501","stim/objects/Instruments/frenchhorn.png",395,27,388,0.9,"stim/34.jpeg",3,4,3,2,"Instruments",2,1,"right","right",0.450000286,1,1,1,0,NA,NA,NA,NA,NA,NA,NA,NA,NA,NA,NA,NA,NA,NA,NA,NA,NA,NA,NA,NA,NA,NA,NA,NA
"516","stim/objects/Instruments/gong.png",396,27,389,0.9,"stim/32.jpeg",3,2,3,2,"Instruments",2,4,"right","right",0.480000257,1,1,1,0,NA,NA,NA,NA,NA,NA,NA,NA,NA,NA,NA,NA,NA,NA,NA,NA,NA,NA,NA,NA,NA,NA,NA,NA
"507","stim/objects/Instruments/gong.png",397,27,390,0.9,"stim/31.jpeg",3,1,3,2,"Instruments",2,3,"right","right",0.471000195,1,1,1,0,NA,NA,NA,NA,NA,NA,NA,NA,NA,NA,NA,NA,NA,NA,NA,NA,NA,NA,NA,NA,NA,NA,NA,NA
"350","stim/objects/HouseObjects/garbagebin.png",398,27,391,0.9,"stim/43.jpeg",4,3,3,2,"HouseObjects",1,3,"left","left",0.812000036,1,1,1,0,NA,NA,NA,NA,NA,NA,NA,NA,NA,NA,NA,NA,NA,NA,NA,NA,NA,NA,NA,NA,NA,NA,NA,NA
"517","stim/objects/Instruments/gong.png",399,27,392,0.9,"stim/34.jpeg",3,4,3,2,"Instruments",2,3,"right","right",0.671000004,1,1,1,0,NA,NA,NA,NA,NA,NA,NA,NA,NA,NA,NA,NA,NA,NA,NA,NA,NA,NA,NA,NA,NA,NA,NA,NA
"455","stim/objects/Instruments/electricguitar2.png",400,27,393,0.3,"stim/23.jpeg",2,3,2,1,"Instruments",2,1,"right","left",0.497000217,0,0,1,0,47,27,1,0.3,2,"stim/23.jpeg",2,3,"stim/23.jpeg",1,"left",0.968000174,2,1,5.031000137,3,2.621999979,47,1,0,0,0,0,1
"454","stim/objects/Instruments/electricguitar.png",401,27,394,0.7,"stim/14.jpeg",1,4,2,2,"Instruments",2,4,"right","left",0.582000256,0,0,1,0,NA,NA,NA,NA,NA,NA,NA,NA,NA,NA,NA,NA,NA,NA,NA,NA,NA,NA,NA,NA,NA,NA,NA,NA
"275","stim/objects/HouseObjects/clothespin.png",402,27,395,0.7,"stim/23.jpeg",2,3,2,2,"HouseObjects",1,2,"left","left",0.48300004,1,1,1,0,NA,NA,NA,NA,NA,NA,NA,NA,NA,NA,NA,NA,NA,NA,NA,NA,NA,NA,NA,NA,NA,NA,NA,NA
"367","stim/objects/HouseObjects/glass.png",403,27,396,0.9,"stim/42.jpeg",4,2,3,2,"HouseObjects",1,3,"left","left",0.518000126,1,1,1,0,NA,NA,NA,NA,NA,NA,NA,NA,NA,NA,NA,NA,NA,NA,NA,NA,NA,NA,NA,NA,NA,NA,NA,NA
"564","stim/objects/Instruments/tuba2.png",404,27,397,0.1,"stim/41.jpeg",4,1,3,1,"Instruments",2,3,"right","left",0.450000286,0,0,1,0,165,27,1,0.1,2,"stim/41.jpeg",4,1,"stim/41.jpeg",3,"right",2.250999928,4,3,4.480000019,3,1.06799984,165,0,0,NA,1,NA,1
"546","stim/objects/Instruments/harp2.png",405,27,398,0.9,"stim/32.jpeg",3,2,3,1,"Instruments",2,1,"right","right",0.568000317,1,1,1,0,194,27,1,0.9,2,"stim/32.jpeg",3,2,"stim/32.jpeg",1,"right",0.813999891,3,3,2.717000008,2,2.221999884,194,0,0,NA,0,NA,1
"351","stim/objects/HouseObjects/garbagebin.png",406,27,399,0.9,"stim/44.jpeg",4,4,3,2,"HouseObjects",1,3,"left","left",0.464000225,1,1,1,0,NA,NA,NA,NA,NA,NA,NA,NA,NA,NA,NA,NA,NA,NA,NA,NA,NA,NA,NA,NA,NA,NA,NA,NA
"518","stim/objects/Instruments/gong.png",407,27,400,0.9,"stim/34.jpeg",3,4,3,2,"Instruments",2,4,"right","right",0.55700016,1,1,1,0,NA,NA,NA,NA,NA,NA,NA,NA,NA,NA,NA,NA,NA,NA,NA,NA,NA,NA,NA,NA,NA,NA,NA,NA
"260","stim/objects/HouseObjects/bottle.png",408,27,401,0.5,"stim/61.jpeg",6,1,1,2,"HouseObjects",1,2,"left","left",0.606000185,1,1,1,0,NA,NA,NA,NA,NA,NA,NA,NA,NA,NA,NA,NA,NA,NA,NA,NA,NA,NA,NA,NA,NA,NA,NA,NA
"560","stim/objects/Instruments/trombone2.png",409,27,402,0.1,"stim/43.jpeg",4,3,3,1,"Instruments",2,4,"right","left",0.494000196,0,0,1,0,77,27,1,0.1,2,"stim/43.jpeg",4,3,"stim/43.jpeg",4,"right",0.989000082,3,4,2.187000036,3,3.650000095,77,0,0,NA,0,NA,1
"535","stim/objects/Instruments/grandpiano.png",410,27,403,0.9,"stim/34.jpeg",3,4,3,2,"Instruments",2,1,"right","",NA,0,0,1,0,NA,NA,NA,NA,NA,NA,NA,NA,NA,NA,NA,NA,NA,NA,NA,NA,NA,NA,NA,NA,NA,NA,NA,NA
"480","stim/objects/Instruments/flutetrans.png",411,27,404,0.9,"stim/31.jpeg",3,1,3,2,"Instruments",2,3,"right","right",0.584000111,1,1,1,0,NA,NA,NA,NA,NA,NA,NA,NA,NA,NA,NA,NA,NA,NA,NA,NA,NA,NA,NA,NA,NA,NA,NA,NA
"418","stim/objects/Instruments/bassdrum.png",412,27,405,0.5,"stim/54.jpeg",5,4,1,2,"Instruments",2,3,"right","left",0.511000156,0,0,1,0,NA,NA,NA,NA,NA,NA,NA,NA,NA,NA,NA,NA,NA,NA,NA,NA,NA,NA,NA,NA,NA,NA,NA,NA
"441","stim/objects/Instruments/doublebass.png",413,27,406,0.7,"stim/11.jpeg",1,1,2,2,"Instruments",2,1,"right","right",0.582000256,1,1,1,0,NA,NA,NA,NA,NA,NA,NA,NA,NA,NA,NA,NA,NA,NA,NA,NA,NA,NA,NA,NA,NA,NA,NA,NA
"435","stim/objects/Instruments/cornet2.png",414,27,407,0.3,"stim/22.jpeg",2,2,2,1,"Instruments",2,4,"right","left",0.474000216,0,0,1,0,32,27,1,0.3,2,"stim/22.jpeg",2,2,"stim/22.jpeg",4,"left",0.786000013,3,2,4.623000145,3,1.406000137,32,1,1,1,0,0,1
"375","stim/objects/HouseObjects/glass2.png",415,27,408,0.1,"stim/31.jpeg",3,1,3,1,"HouseObjects",1,1,"left","right",0.411000013,0,0,1,0,69,27,1,0.1,1,"stim/31.jpeg",3,1,"stim/31.jpeg",1,"right",1.004000187,2,4,4.977999926,4,4.109999895,69,0,0,NA,0,NA,1
"274","stim/objects/HouseObjects/clothesdryingrack2.png",416,27,409,0.7,"stim/21.jpeg",2,1,2,1,"HouseObjects",1,3,"left","left",0.697000027,1,1,1,0,27,27,1,0.7,1,"stim/21.jpeg",2,1,"stim/21.jpeg",3,"left",1.625999928,4,1,1.559999943,1,0.927999973,27,1,1,1,0,0,1
"434","stim/objects/Instruments/cornet.png",417,27,410,0.5,"stim/62.jpeg",6,2,1,2,"Instruments",2,2,"right","right",0.474000216,1,1,1,0,NA,NA,NA,NA,NA,NA,NA,NA,NA,NA,NA,NA,NA,NA,NA,NA,NA,NA,NA,NA,NA,NA,NA,NA
"499","stim/objects/Instruments/frenchhorn.png",418,27,411,0.9,"stim/31.jpeg",3,1,3,2,"Instruments",2,2,"right","right",0.457000256,1,1,1,0,NA,NA,NA,NA,NA,NA,NA,NA,NA,NA,NA,NA,NA,NA,NA,NA,NA,NA,NA,NA,NA,NA,NA,NA
"261","stim/objects/HouseObjects/bottle2.png",419,27,412,0.7,"stim/21.jpeg",2,1,2,1,"HouseObjects",1,1,"left","left",0.440000057,1,1,1,0,36,27,1,0.7,1,"stim/21.jpeg",2,1,"stim/21.jpeg",1,"right",1.131999969,1,1,4.881999969,4,2.583000183,36,0,1,NA,0,NA,1
"537","stim/objects/Instruments/grandpiano.png",420,27,413,0.9,"stim/33.jpeg",3,3,3,2,"Instruments",2,2,"right","right",0.555000067,1,1,1,0,NA,NA,NA,NA,NA,NA,NA,NA,NA,NA,NA,NA,NA,NA,NA,NA,NA,NA,NA,NA,NA,NA,NA,NA
"415","stim/objects/Instruments/banjo.png",421,27,414,0.5,"stim/54.jpeg",5,4,1,2,"Instruments",2,2,"right","left",0.617000103,0,0,1,0,NA,NA,NA,NA,NA,NA,NA,NA,NA,NA,NA,NA,NA,NA,NA,NA,NA,NA,NA,NA,NA,NA,NA,NA
"393","stim/objects/HouseObjects/spraybottle2.png",422,27,415,0.9,"stim/44.jpeg",4,4,3,1,"HouseObjects",1,1,"left","left",0.581000328,1,1,1,0,140,27,1,0.9,1,"stim/44.jpeg",4,4,"stim/44.jpeg",1,"right",0.65199995,4,4,3.59800005,3,1.309000015,140,0,1,NA,0,NA,1
"550","stim/objects/Instruments/saxophone2.png",423,27,416,0.9,"stim/34.jpeg",3,4,3,1,"Instruments",2,2,"right","right",0.586000204,1,1,1,0,1,27,1,0.9,2,"stim/34.jpeg",3,4,"stim/34.jpeg",2,"left",0.587999821,4,3,8.450000048,2,2.523999929,1,1,0,0,1,1,1
"352","stim/objects/HouseObjects/garbagebin.png",424,27,417,0.9,"stim/44.jpeg",4,4,3,2,"HouseObjects",1,1,"left","left",0.529000282,1,1,1,0,NA,NA,NA,NA,NA,NA,NA,NA,NA,NA,NA,NA,NA,NA,NA,NA,NA,NA,NA,NA,NA,NA,NA,NA
"279","stim/objects/HouseObjects/coffee.png",425,27,418,0.7,"stim/23.jpeg",2,3,2,2,"HouseObjects",1,3,"left","left",0.628000259,1,1,1,0,NA,NA,NA,NA,NA,NA,NA,NA,NA,NA,NA,NA,NA,NA,NA,NA,NA,NA,NA,NA,NA,NA,NA,NA
"253","stim/objects/HouseObjects/bleachbottle.png",426,27,419,0.5,"stim/52.jpeg",5,2,1,2,"HouseObjects",1,1,"left","left",0.552000046,1,1,1,0,NA,NA,NA,NA,NA,NA,NA,NA,NA,NA,NA,NA,NA,NA,NA,NA,NA,NA,NA,NA,NA,NA,NA,NA
"495","stim/objects/Instruments/frenchhorn.png",427,27,420,0.9,"stim/33.jpeg",3,3,3,2,"Instruments",2,1,"right","right",0.544000149,1,1,1,0,NA,NA,NA,NA,NA,NA,NA,NA,NA,NA,NA,NA,NA,NA,NA,NA,NA,NA,NA,NA,NA,NA,NA,NA
"353","stim/objects/HouseObjects/garbagebin.png",428,27,421,0.9,"stim/44.jpeg",4,4,3,2,"HouseObjects",1,3,"left","left",0.823000193,1,1,1,0,NA,NA,NA,NA,NA,NA,NA,NA,NA,NA,NA,NA,NA,NA,NA,NA,NA,NA,NA,NA,NA,NA,NA,NA
"447","stim/objects/Instruments/drums2.png",429,27,422,0.3,"stim/21.jpeg",2,1,2,1,"Instruments",2,3,"right","left",0.560000181,0,0,1,0,39,27,1,0.3,2,"stim/21.jpeg",2,1,"stim/21.jpeg",3,"right",2.294000149,2,4,3.253000021,4,3.049999952,39,0,0,NA,0,NA,1
"354","stim/objects/HouseObjects/garbagebin.png",430,27,423,0.9,"stim/42.jpeg",4,2,3,2,"HouseObjects",1,3,"left","left",0.591000319,1,1,1,0,NA,NA,NA,NA,NA,NA,NA,NA,NA,NA,NA,NA,NA,NA,NA,NA,NA,NA,NA,NA,NA,NA,NA,NA
"520","stim/objects/Instruments/gong.png",431,27,424,0.9,"stim/33.jpeg",3,3,3,2,"Instruments",2,2,"right","right",0.414000273,1,1,1,0,NA,NA,NA,NA,NA,NA,NA,NA,NA,NA,NA,NA,NA,NA,NA,NA,NA,NA,NA,NA,NA,NA,NA,NA
"296","stim/objects/HouseObjects/doormat.png",432,27,425,0.9,"stim/41.jpeg",4,1,3,2,"HouseObjects",1,2,"left","left",0.610000134,1,1,1,0,NA,NA,NA,NA,NA,NA,NA,NA,NA,NA,NA,NA,NA,NA,NA,NA,NA,NA,NA,NA,NA,NA,NA,NA
"541","stim/objects/Instruments/guitarcase.png",433,27,426,0.5,"stim/52.jpeg",5,2,1,1,"Instruments",2,3,"right","left",0.561000109,0,0,1,0,189,27,1,0.5,1,"stim/52.jpeg",5,2,"stim/52.jpeg",3,"left",1.003999949,4,1,1.373000145,3,1.674000025,189,1,0,0,1,1,1
"521","stim/objects/Instruments/gong.png",434,27,427,0.9,"stim/31.jpeg",3,1,3,2,"Instruments",2,3,"right","right",0.529000282,1,1,1,0,NA,NA,NA,NA,NA,NA,NA,NA,NA,NA,NA,NA,NA,NA,NA,NA,NA,NA,NA,NA,NA,NA,NA,NA
"330","stim/objects/HouseObjects/flyswatter.png",435,27,428,0.9,"stim/41.jpeg",4,1,3,2,"HouseObjects",1,1,"left","left",0.620000124,1,1,1,0,NA,NA,NA,NA,NA,NA,NA,NA,NA,NA,NA,NA,NA,NA,NA,NA,NA,NA,NA,NA,NA,NA,NA,NA
"335","stim/objects/HouseObjects/flyswatter.png",436,27,429,0.9,"stim/44.jpeg",4,4,3,2,"HouseObjects",1,2,"left","left",0.529000044,1,1,1,0,NA,NA,NA,NA,NA,NA,NA,NA,NA,NA,NA,NA,NA,NA,NA,NA,NA,NA,NA,NA,NA,NA,NA,NA
"337","stim/objects/HouseObjects/flyswatter.png",437,27,430,0.9,"stim/41.jpeg",4,1,3,2,"HouseObjects",1,1,"left","left",0.573000193,1,1,1,0,NA,NA,NA,NA,NA,NA,NA,NA,NA,NA,NA,NA,NA,NA,NA,NA,NA,NA,NA,NA,NA,NA,NA,NA
"331","stim/objects/HouseObjects/flyswatter.png",438,27,431,0.9,"stim/41.jpeg",4,1,3,2,"HouseObjects",1,1,"left","left",0.576000214,1,1,1,0,NA,NA,NA,NA,NA,NA,NA,NA,NA,NA,NA,NA,NA,NA,NA,NA,NA,NA,NA,NA,NA,NA,NA,NA
"451","stim/objects/Instruments/electricdrumset2.png",439,27,432,0.3,"stim/22.jpeg",2,2,2,1,"Instruments",2,2,"right","left",0.673000097,0,0,1,0,83,27,1,0.3,2,"stim/22.jpeg",2,2,"stim/22.jpeg",2,"left",1.212000132,4,3,22.00600004,4,1.292999983,83,1,0,0,0,0,1
"467","stim/objects/Instruments/flute.png",440,27,433,0.9,"stim/32.jpeg",3,2,3,2,"Instruments",2,2,"right","right",0.583000183,1,1,1,0,NA,NA,NA,NA,NA,NA,NA,NA,NA,NA,NA,NA,NA,NA,NA,NA,NA,NA,NA,NA,NA,NA,NA,NA
"487","stim/objects/Instruments/flutetrans.png",441,27,434,0.9,"stim/32.jpeg",3,2,3,2,"Instruments",2,1,"right","right",0.397000313,1,1,1,0,NA,NA,NA,NA,NA,NA,NA,NA,NA,NA,NA,NA,NA,NA,NA,NA,NA,NA,NA,NA,NA,NA,NA,NA
"496","stim/objects/Instruments/frenchhorn.png",442,27,435,0.9,"stim/34.jpeg",3,4,3,2,"Instruments",2,4,"right","right",0.393000126,1,1,1,0,NA,NA,NA,NA,NA,NA,NA,NA,NA,NA,NA,NA,NA,NA,NA,NA,NA,NA,NA,NA,NA,NA,NA,NA
"420","stim/objects/Instruments/bassdrum2.png",443,27,436,0.7,"stim/13.jpeg",1,3,2,1,"Instruments",2,1,"right","left",0.60400033,0,0,1,0,62,27,1,0.7,2,"stim/13.jpeg",1,3,"stim/13.jpeg",1,"left",1.447000027,3,1,3.735999823,3,2.878999949,62,1,0,0,0,0,1
"361","stim/objects/HouseObjects/glass.png",444,27,437,0.9,"stim/41.jpeg",4,1,3,2,"HouseObjects",1,4,"left","left",0.60400033,1,1,1,0,NA,NA,NA,NA,NA,NA,NA,NA,NA,NA,NA,NA,NA,NA,NA,NA,NA,NA,NA,NA,NA,NA,NA,NA
"380","stim/objects/HouseObjects/handbrush.png",445,27,438,0.5,"stim/51.jpeg",5,1,1,1,"HouseObjects",1,1,"left","left",0.681000233,1,1,1,0,50,27,1,0.5,1,"stim/51.jpeg",5,1,"stim/51.jpeg",1,"right",1.239000082,3,1,4.998000145,1,2.381999969,50,0,1,NA,1,NA,1
"397","stim/objects/HouseObjects/thermometer2.png",446,27,439,0.9,"stim/42.jpeg",4,2,3,1,"HouseObjects",1,1,"left","left",0.461000204,1,1,1,0,12,27,1,0.9,1,"stim/42.jpeg",4,2,"stim/42.jpeg",1,"right",2.520999908,2,1,3.915999889,1,4.635999918,12,0,0,NA,1,NA,1
"324","stim/objects/HouseObjects/dustpan2.png",447,27,440,0.1,"stim/32.jpeg",3,2,3,1,"HouseObjects",1,2,"left","right",0.518000126,0,0,1,0,181,27,1,0.1,1,"stim/32.jpeg",3,2,"stim/32.jpeg",2,"right",1.323000193,4,2,4.778000116,4,0.990999937,181,0,1,NA,0,NA,1
"477","stim/objects/Instruments/flutetrans.png",448,27,441,0.9,"stim/33.jpeg",3,3,3,2,"Instruments",2,3,"right","right",0.563000202,1,1,1,0,NA,NA,NA,NA,NA,NA,NA,NA,NA,NA,NA,NA,NA,NA,NA,NA,NA,NA,NA,NA,NA,NA,NA,NA
"557","stim/objects/Instruments/triangle.png",449,27,442,0.5,"stim/63.jpeg",6,3,1,1,"Instruments",2,4,"right","left",0.629000187,0,0,1,0,192,27,1,0.5,2,"stim/63.jpeg",6,3,"stim/63.jpeg",4,"left",0.671000004,4,1,4.029999971,4,2.059999943,192,1,0,0,1,1,1
"538","stim/objects/Instruments/grandpiano.png",450,27,443,0.9,"stim/31.jpeg",3,1,3,2,"Instruments",2,2,"right","right",0.495000362,1,1,1,0,NA,NA,NA,NA,NA,NA,NA,NA,NA,NA,NA,NA,NA,NA,NA,NA,NA,NA,NA,NA,NA,NA,NA,NA
"334","stim/objects/HouseObjects/flyswatter.png",451,27,444,0.9,"stim/42.jpeg",4,2,3,2,"HouseObjects",1,3,"left","left",0.675000191,1,1,1,0,NA,NA,NA,NA,NA,NA,NA,NA,NA,NA,NA,NA,NA,NA,NA,NA,NA,NA,NA,NA,NA,NA,NA,NA
"519","stim/objects/Instruments/gong.png",452,27,445,0.9,"stim/32.jpeg",3,2,3,2,"Instruments",2,1,"right","right",0.578000307,1,1,1,0,NA,NA,NA,NA,NA,NA,NA,NA,NA,NA,NA,NA,NA,NA,NA,NA,NA,NA,NA,NA,NA,NA,NA,NA
"506","stim/objects/Instruments/frenchhorn2.png",453,27,446,0.9,"stim/31.jpeg",3,1,3,1,"Instruments",2,1,"right","right",0.454000235,1,1,1,0,15,27,1,0.9,2,"stim/31.jpeg",3,1,"stim/31.jpeg",1,"right",3.233999968,1,1,5.421999931,3,3.343999863,15,0,1,NA,0,NA,1
"522","stim/objects/Instruments/gong.png",454,27,447,0.9,"stim/34.jpeg",3,4,3,2,"Instruments",2,4,"right","right",0.510000229,1,1,1,0,NA,NA,NA,NA,NA,NA,NA,NA,NA,NA,NA,NA,NA,NA,NA,NA,NA,NA,NA,NA,NA,NA,NA,NA
"278","stim/objects/HouseObjects/clothespin2.png",455,27,448,0.7,"stim/22.jpeg",2,2,2,1,"HouseObjects",1,3,"left","left",0.724000216,1,1,1,0,18,27,1,0.7,1,"stim/22.jpeg",2,2,"stim/22.jpeg",3,"left",0.95600009,4,3,7.379999876,2,1.434000015,18,1,0,0,0,0,1
"568","stim/objects/Instruments/vuvuzela2.png",456,27,449,0.1,"stim/43.jpeg",4,3,3,1,"Instruments",2,3,"right","right",0.475000143,1,1,1,0,82,27,1,0.1,2,"stim/43.jpeg",4,3,"stim/43.jpeg",3,"left",1.065999985,4,4,4.735999823,1,0.993000031,82,1,0,0,0,0,1
"432","stim/objects/Instruments/clarinet2.png",457,27,450,0.3,"stim/21.jpeg",2,1,2,1,"Instruments",2,1,"right","left",0.660000086,0,0,1,0,130,27,1,0.3,2,"stim/21.jpeg",2,1,"stim/21.jpeg",1,"left",0.986999989,4,3,3.08100009,4,1.588000059,130,1,0,0,0,0,1
"450","stim/objects/Instruments/electricdrumset.png",458,27,451,0.7,"stim/12.jpeg",1,2,2,2,"Instruments",2,1,"right","left",0.709000111,0,0,1,0,NA,NA,NA,NA,NA,NA,NA,NA,NA,NA,NA,NA,NA,NA,NA,NA,NA,NA,NA,NA,NA,NA,NA,NA
"267","stim/objects/HouseObjects/bucket2.png",459,27,452,0.7,"stim/23.jpeg",2,3,2,1,"HouseObjects",1,3,"left","left",0.505000114,1,1,1,0,106,27,1,0.7,1,"stim/23.jpeg",2,3,"stim/23.jpeg",3,"right",1.221000195,3,3,3.18200016,3,1.321000099,106,0,1,NA,1,NA,1
"323","stim/objects/HouseObjects/dustpan.png",460,27,453,0.9,"stim/44.jpeg",4,4,3,2,"HouseObjects",1,3,"left","left",0.775000095,1,1,1,0,NA,NA,NA,NA,NA,NA,NA,NA,NA,NA,NA,NA,NA,NA,NA,NA,NA,NA,NA,NA,NA,NA,NA,NA
"270","stim/objects/HouseObjects/clock2.png",461,27,454,0.7,"stim/24.jpeg",2,4,2,1,"HouseObjects",1,3,"left","left",0.451000214,1,1,1,0,134,27,1,0.7,1,"stim/24.jpeg",2,4,"stim/24.jpeg",3,"right",1.674999952,2,4,3.21600008,2,1.570999861,134,0,1,NA,0,NA,1
"544","stim/objects/Instruments/harmonica2.png",462,27,455,0.9,"stim/31.jpeg",3,1,3,1,"Instruments",2,1,"right","",NA,0,0,1,0,95,27,1,0.9,2,"stim/31.jpeg",3,1,"stim/31.jpeg",1,"left",2.809000015,4,1,1.602999926,1,0.696000099,95,1,1,1,1,1,1
"318","stim/objects/HouseObjects/dustpan.png",463,27,456,0.9,"stim/41.jpeg",4,1,3,2,"HouseObjects",1,2,"left","",NA,0,0,1,0,NA,NA,NA,NA,NA,NA,NA,NA,NA,NA,NA,NA,NA,NA,NA,NA,NA,NA,NA,NA,NA,NA,NA,NA
"563","stim/objects/Instruments/tuba.png",464,27,457,0.7,"stim/13.jpeg",1,3,2,1,"Instruments",2,3,"right","left",0.753000021,0,0,1,0,162,27,1,0.7,2,"stim/13.jpeg",1,3,"stim/13.jpeg",3,"left",2.255000114,3,3,2.904999971,4,1.536999941,162,1,1,1,0,0,1
"273","stim/objects/HouseObjects/clothesdryingrack.png",465,27,458,0.7,"stim/21.jpeg",2,1,2,2,"HouseObjects",1,1,"left","left",0.549000263,1,1,1,0,NA,NA,NA,NA,NA,NA,NA,NA,NA,NA,NA,NA,NA,NA,NA,NA,NA,NA,NA,NA,NA,NA,NA,NA
"469","stim/objects/Instruments/flute.png",466,27,459,0.9,"stim/32.jpeg",3,2,3,2,"Instruments",2,4,"right","right",0.60400033,1,1,1,0,NA,NA,NA,NA,NA,NA,NA,NA,NA,NA,NA,NA,NA,NA,NA,NA,NA,NA,NA,NA,NA,NA,NA,NA
"532","stim/objects/Instruments/grandpiano.png",467,27,460,0.9,"stim/32.jpeg",3,2,3,2,"Instruments",2,1,"right","right",0.567000151,1,1,1,0,NA,NA,NA,NA,NA,NA,NA,NA,NA,NA,NA,NA,NA,NA,NA,NA,NA,NA,NA,NA,NA,NA,NA,NA
"378","stim/objects/HouseObjects/hairdryer.png",468,27,461,0.5,"stim/54.jpeg",5,4,1,1,"HouseObjects",1,3,"left","left",0.710000038,1,1,1,0,159,27,1,0.5,1,"stim/54.jpeg",5,4,"stim/54.jpeg",3,"right",0.787000179,4,1,3.031000137,4,2.248999834,159,0,0,NA,0,NA,1
