"","obj_file","X.x","participant.x","trialN.x","trial_cond","scn_file.x","scn_cat","scn_inst","scn_condition","fillers","obj_cat","obj_cat_num","quadrant","corr_ans","key_resp_trial.keys","key_resp_trial.rt","trial_acc","trial_acc_manual","group.x","practice","X.y","participant.y","OvsN","PE_level","object_cat","scn_file.y","corr_scn_cat","corr_scn_inst","scn_file.1","corr_loc","key_resp_id.keys","key_resp_id.rt","key_resp_conf.keys","key_resp_assoc.keys","key_resp_assoc.rt","key_resp_loc.keys","key_resp_loc.rt","trialN.y","id_acc","assoc.acc","cond_assoc","loc.acc","cond_loc","group.y"
"113","stim/objects/HouseObjects/thread.png",1,73,1,0.7,"stim/34.jpeg",3,4,2,NA,"HouseObjects",2,3,"right","",NA,0,0,0,1,NA,NA,NA,NA,NA,NA,NA,NA,NA,NA,NA,NA,NA,NA,NA,NA,NA,NA,NA,NA,NA,NA,NA,NA
"208","stim/objects/Instruments/trombone2.png",2,73,2,0.9,"stim/62.jpeg",6,2,3,NA,"Instruments",1,4,"left","left",0.686999798,1,1,0,1,NA,NA,NA,NA,NA,NA,NA,NA,NA,NA,NA,NA,NA,NA,NA,NA,NA,NA,NA,NA,NA,NA,NA,NA
"89","stim/objects/HouseObjects/spraybottle.png",3,73,3,0.7,"stim/31.jpeg",3,1,2,NA,"HouseObjects",2,2,"right","right",0.664999962,1,1,0,1,NA,NA,NA,NA,NA,NA,NA,NA,NA,NA,NA,NA,NA,NA,NA,NA,NA,NA,NA,NA,NA,NA,NA,NA
"220","stim/objects/Instruments/trumpet2.png",4,73,4,0.9,"stim/63.jpeg",6,3,3,NA,"Instruments",1,3,"left","left",0.59800005,1,1,0,1,NA,NA,NA,NA,NA,NA,NA,NA,NA,NA,NA,NA,NA,NA,NA,NA,NA,NA,NA,NA,NA,NA,NA,NA
"133","stim/objects/Instruments/pipepiano.png",5,73,5,0.5,"stim/12.jpeg",1,2,1,NA,"Instruments",1,3,"left","",NA,0,0,0,1,NA,NA,NA,NA,NA,NA,NA,NA,NA,NA,NA,NA,NA,NA,NA,NA,NA,NA,NA,NA,NA,NA,NA,NA
"75","stim/objects/HouseObjects/sponge.png",6,73,6,0.5,"stim/24.jpeg",2,4,1,NA,"HouseObjects",2,1,"right","right",0.588999748,1,1,0,1,NA,NA,NA,NA,NA,NA,NA,NA,NA,NA,NA,NA,NA,NA,NA,NA,NA,NA,NA,NA,NA,NA,NA,NA
"9","stim/objects/HouseObjects/remote.png",7,73,7,0.5,"stim/12.jpeg",1,2,1,NA,"HouseObjects",2,1,"right","left",0.64199996,0,0,0,1,NA,NA,NA,NA,NA,NA,NA,NA,NA,NA,NA,NA,NA,NA,NA,NA,NA,NA,NA,NA,NA,NA,NA,NA
"232","stim/objects/Instruments/tuba2.png",8,73,8,0.9,"stim/64.jpeg",6,4,3,NA,"Instruments",1,2,"left","left",0.507999897,1,1,0,1,NA,NA,NA,NA,NA,NA,NA,NA,NA,NA,NA,NA,NA,NA,NA,NA,NA,NA,NA,NA,NA,NA,NA,NA
"126","stim/objects/Instruments/panflute2.png",9,73,9,0.7,"stim/41.jpeg",4,1,2,NA,"Instruments",1,1,"left","right",0.515000105,0,0,0,1,NA,NA,NA,NA,NA,NA,NA,NA,NA,NA,NA,NA,NA,NA,NA,NA,NA,NA,NA,NA,NA,NA,NA,NA
"221","stim/objects/Instruments/trumpet2.png",10,73,10,0.9,"stim/63.jpeg",6,3,3,NA,"Instruments",1,3,"left","left",0.557999849,1,1,0,1,NA,NA,NA,NA,NA,NA,NA,NA,NA,NA,NA,NA,NA,NA,NA,NA,NA,NA,NA,NA,NA,NA,NA,NA
"30","stim/objects/HouseObjects/rug2.png",11,73,11,0.3,"stim/44.jpeg",4,4,2,NA,"HouseObjects",2,4,"right","left",0.569999933,0,0,0,1,NA,NA,NA,NA,NA,NA,NA,NA,NA,NA,NA,NA,NA,NA,NA,NA,NA,NA,NA,NA,NA,NA,NA,NA
"1","stim/objects/HouseObjects/recyclingbin.png",12,73,12,0.5,"stim/11.jpeg",1,1,1,NA,"HouseObjects",2,2,"right","left",0.585000038,0,0,0,1,NA,NA,NA,NA,NA,NA,NA,NA,NA,NA,NA,NA,NA,NA,NA,NA,NA,NA,NA,NA,NA,NA,NA,NA
"52","stim/objects/HouseObjects/saw2.png",13,73,13,0.9,"stim/52.jpeg",5,2,3,NA,"HouseObjects",2,3,"right","right",0.759000063,1,1,0,1,NA,NA,NA,NA,NA,NA,NA,NA,NA,NA,NA,NA,NA,NA,NA,NA,NA,NA,NA,NA,NA,NA,NA,NA
"169","stim/objects/Instruments/saxophone.png",14,73,14,0.5,"stim/21.jpeg",2,1,1,NA,"Instruments",1,4,"left","right",0.849999905,0,0,0,1,NA,NA,NA,NA,NA,NA,NA,NA,NA,NA,NA,NA,NA,NA,NA,NA,NA,NA,NA,NA,NA,NA,NA,NA
"80","stim/objects/HouseObjects/sponge2.png",15,73,15,0.9,"stim/54.jpeg",5,4,3,NA,"HouseObjects",2,1,"right","right",0.835999966,1,1,0,1,NA,NA,NA,NA,NA,NA,NA,NA,NA,NA,NA,NA,NA,NA,NA,NA,NA,NA,NA,NA,NA,NA,NA,NA
"90","stim/objects/HouseObjects/spraybottle.png",16,73,16,0.7,"stim/31.jpeg",3,1,2,NA,"HouseObjects",2,3,"right","",NA,0,0,0,1,NA,NA,NA,NA,NA,NA,NA,NA,NA,NA,NA,NA,NA,NA,NA,NA,NA,NA,NA,NA,NA,NA,NA,NA
"187","stim/objects/Instruments/timbal.png",17,73,17,0.5,"stim/24.jpeg",2,4,1,NA,"Instruments",1,1,"left","left",0.667000055,1,1,0,1,NA,NA,NA,NA,NA,NA,NA,NA,NA,NA,NA,NA,NA,NA,NA,NA,NA,NA,NA,NA,NA,NA,NA,NA
"196","stim/objects/Instruments/triangle2.png",18,73,18,0.9,"stim/61.jpeg",6,1,3,NA,"Instruments",1,3,"left","left",0.523999929,1,1,0,1,NA,NA,NA,NA,NA,NA,NA,NA,NA,NA,NA,NA,NA,NA,NA,NA,NA,NA,NA,NA,NA,NA,NA,NA
"76","stim/objects/HouseObjects/sponge.png",19,73,19,0.5,"stim/24.jpeg",2,4,1,NA,"HouseObjects",2,2,"right","right",0.440000057,1,1,0,1,NA,NA,NA,NA,NA,NA,NA,NA,NA,NA,NA,NA,NA,NA,NA,NA,NA,NA,NA,NA,NA,NA,NA,NA
"121","stim/objects/Instruments/panflute.png",20,73,20,0.5,"stim/11.jpeg",1,1,1,NA,"Instruments",1,2,"left","left",0.832000017,1,1,0,1,NA,NA,NA,NA,NA,NA,NA,NA,NA,NA,NA,NA,NA,NA,NA,NA,NA,NA,NA,NA,NA,NA,NA,NA
"33","stim/objects/HouseObjects/safetypin.png",21,73,21,0.5,"stim/21.jpeg",2,1,1,NA,"HouseObjects",2,3,"right","left",0.578000069,0,0,0,1,NA,NA,NA,NA,NA,NA,NA,NA,NA,NA,NA,NA,NA,NA,NA,NA,NA,NA,NA,NA,NA,NA,NA,NA
"222","stim/objects/Instruments/trumpet2.png",22,73,22,0.9,"stim/63.jpeg",6,3,3,NA,"Instruments",1,3,"left","left",0.516000032,1,1,0,1,NA,NA,NA,NA,NA,NA,NA,NA,NA,NA,NA,NA,NA,NA,NA,NA,NA,NA,NA,NA,NA,NA,NA,NA
"150","stim/objects/Instruments/record_player2.png",23,73,23,0.7,"stim/44.jpeg",4,4,2,NA,"Instruments",1,1,"left","left",0.930999994,1,1,0,1,NA,NA,NA,NA,NA,NA,NA,NA,NA,NA,NA,NA,NA,NA,NA,NA,NA,NA,NA,NA,NA,NA,NA,NA
"91","stim/objects/HouseObjects/spraybottle.png",24,73,24,0.7,"stim/31.jpeg",3,1,2,NA,"HouseObjects",2,2,"right","right",0.49000001,1,1,0,1,NA,NA,NA,NA,NA,NA,NA,NA,NA,NA,NA,NA,NA,NA,NA,NA,NA,NA,NA,NA,NA,NA,NA,NA
"162","stim/objects/Instruments/record2.png",25,73,25,0.7,"stim/43.jpeg",4,3,2,NA,"Instruments",1,1,"left","left",0.559999943,1,1,0,1,NA,NA,NA,NA,NA,NA,NA,NA,NA,NA,NA,NA,NA,NA,NA,NA,NA,NA,NA,NA,NA,NA,NA,NA
"233","stim/objects/Instruments/tuba2.png",26,73,26,0.9,"stim/64.jpeg",6,4,3,NA,"Instruments",1,4,"left","left",0.486999989,1,1,0,1,NA,NA,NA,NA,NA,NA,NA,NA,NA,NA,NA,NA,NA,NA,NA,NA,NA,NA,NA,NA,NA,NA,NA,NA
"234","stim/objects/Instruments/tuba2.png",27,73,27,0.9,"stim/64.jpeg",6,4,3,NA,"Instruments",1,1,"left","left",0.496000051,1,1,0,1,NA,NA,NA,NA,NA,NA,NA,NA,NA,NA,NA,NA,NA,NA,NA,NA,NA,NA,NA,NA,NA,NA,NA,NA
"229","stim/objects/Instruments/tuba.png",28,73,28,0.3,"stim/34.jpeg",3,4,2,NA,"Instruments",1,3,"left","right",0.596999884,0,0,0,1,NA,NA,NA,NA,NA,NA,NA,NA,NA,NA,NA,NA,NA,NA,NA,NA,NA,NA,NA,NA,NA,NA,NA,NA
"209","stim/objects/Instruments/trombone2.png",29,73,29,0.9,"stim/62.jpeg",6,2,3,NA,"Instruments",1,1,"left","left",0.475999832,1,1,0,1,NA,NA,NA,NA,NA,NA,NA,NA,NA,NA,NA,NA,NA,NA,NA,NA,NA,NA,NA,NA,NA,NA,NA,NA
"151","stim/objects/Instruments/record_player2.png",30,73,30,0.7,"stim/44.jpeg",4,4,2,NA,"Instruments",1,1,"left","left",0.481999874,1,1,0,1,NA,NA,NA,NA,NA,NA,NA,NA,NA,NA,NA,NA,NA,NA,NA,NA,NA,NA,NA,NA,NA,NA,NA,NA
"193","stim/objects/Instruments/triangle.png",31,73,31,0.3,"stim/31.jpeg",3,1,2,NA,"Instruments",1,2,"left","right",0.608999968,0,0,0,1,NA,NA,NA,NA,NA,NA,NA,NA,NA,NA,NA,NA,NA,NA,NA,NA,NA,NA,NA,NA,NA,NA,NA,NA
"175","stim/objects/Instruments/speaker.png",32,73,32,0.5,"stim/22.jpeg",2,2,1,NA,"Instruments",1,3,"left","",NA,0,0,0,1,NA,NA,NA,NA,NA,NA,NA,NA,NA,NA,NA,NA,NA,NA,NA,NA,NA,NA,NA,NA,NA,NA,NA,NA
"174","stim/objects/Instruments/saxophone2.png",33,73,33,0.1,"stim/51.jpeg",5,1,3,NA,"Instruments",1,4,"left","right",0.602999926,0,0,0,1,NA,NA,NA,NA,NA,NA,NA,NA,NA,NA,NA,NA,NA,NA,NA,NA,NA,NA,NA,NA,NA,NA,NA,NA
"66","stim/objects/HouseObjects/scale2.png",34,73,34,0.9,"stim/53.jpeg",5,3,3,NA,"HouseObjects",2,2,"right","",NA,0,0,0,1,NA,NA,NA,NA,NA,NA,NA,NA,NA,NA,NA,NA,NA,NA,NA,NA,NA,NA,NA,NA,NA,NA,NA,NA
"96","stim/objects/HouseObjects/spraybottle2.png",35,73,35,0.1,"stim/61.jpeg",6,1,3,NA,"HouseObjects",2,2,"right","left",0.532999992,0,0,0,1,NA,NA,NA,NA,NA,NA,NA,NA,NA,NA,NA,NA,NA,NA,NA,NA,NA,NA,NA,NA,NA,NA,NA,NA
"53","stim/objects/HouseObjects/saw2.png",36,73,36,0.9,"stim/52.jpeg",5,2,3,NA,"HouseObjects",2,4,"right","left",0.912999868,0,0,0,1,NA,NA,NA,NA,NA,NA,NA,NA,NA,NA,NA,NA,NA,NA,NA,NA,NA,NA,NA,NA,NA,NA,NA,NA
"6","stim/objects/HouseObjects/recyclingbin2.png",37,73,37,0.3,"stim/41.jpeg",4,1,2,NA,"HouseObjects",2,4,"right","",NA,0,0,0,1,NA,NA,NA,NA,NA,NA,NA,NA,NA,NA,NA,NA,NA,NA,NA,NA,NA,NA,NA,NA,NA,NA,NA,NA
"61","stim/objects/HouseObjects/scale.png",38,73,38,0.5,"stim/23.jpeg",2,3,1,NA,"HouseObjects",2,1,"right","left",0.857999802,0,0,0,1,NA,NA,NA,NA,NA,NA,NA,NA,NA,NA,NA,NA,NA,NA,NA,NA,NA,NA,NA,NA,NA,NA,NA,NA
"176","stim/objects/Instruments/speaker.png",39,73,39,0.5,"stim/22.jpeg",2,2,1,NA,"Instruments",1,1,"left","left",0.883000135,1,1,0,1,NA,NA,NA,NA,NA,NA,NA,NA,NA,NA,NA,NA,NA,NA,NA,NA,NA,NA,NA,NA,NA,NA,NA,NA
"181","stim/objects/Instruments/tambourine.png",40,73,40,0.5,"stim/23.jpeg",2,3,1,NA,"Instruments",1,3,"left","right",0.677000046,0,0,0,1,NA,NA,NA,NA,NA,NA,NA,NA,NA,NA,NA,NA,NA,NA,NA,NA,NA,NA,NA,NA,NA,NA,NA,NA
"54","stim/objects/HouseObjects/saw2.png",41,73,41,0.9,"stim/52.jpeg",5,2,3,NA,"HouseObjects",2,2,"right","right",0.616999865,1,1,0,1,NA,NA,NA,NA,NA,NA,NA,NA,NA,NA,NA,NA,NA,NA,NA,NA,NA,NA,NA,NA,NA,NA,NA,NA
"145","stim/objects/Instruments/record_player.png",42,73,42,0.5,"stim/14.jpeg",1,4,1,NA,"Instruments",1,4,"left","right",0.720999956,0,0,0,1,NA,NA,NA,NA,NA,NA,NA,NA,NA,NA,NA,NA,NA,NA,NA,NA,NA,NA,NA,NA,NA,NA,NA,NA
"55","stim/objects/HouseObjects/saw2.png",43,73,43,0.9,"stim/52.jpeg",5,2,3,NA,"HouseObjects",2,3,"right","right",0.621000051,1,1,0,1,NA,NA,NA,NA,NA,NA,NA,NA,NA,NA,NA,NA,NA,NA,NA,NA,NA,NA,NA,NA,NA,NA,NA,NA
"157","stim/objects/Instruments/record.png",44,73,44,0.5,"stim/13.jpeg",1,3,1,NA,"Instruments",1,1,"left","left",0.695999861,1,1,0,1,NA,NA,NA,NA,NA,NA,NA,NA,NA,NA,NA,NA,NA,NA,NA,NA,NA,NA,NA,NA,NA,NA,NA,NA
"25","stim/objects/HouseObjects/rug.png",45,73,45,0.5,"stim/14.jpeg",1,4,1,NA,"HouseObjects",2,1,"right","right",0.699999809,1,1,0,1,NA,NA,NA,NA,NA,NA,NA,NA,NA,NA,NA,NA,NA,NA,NA,NA,NA,NA,NA,NA,NA,NA,NA,NA
"170","stim/objects/Instruments/saxophone.png",46,73,46,0.5,"stim/21.jpeg",2,1,1,NA,"Instruments",1,3,"left","right",0.65199995,0,0,0,1,NA,NA,NA,NA,NA,NA,NA,NA,NA,NA,NA,NA,NA,NA,NA,NA,NA,NA,NA,NA,NA,NA,NA,NA
"127","stim/objects/Instruments/panflute2.png",47,73,47,0.7,"stim/41.jpeg",4,1,2,NA,"Instruments",1,2,"left","left",0.855999947,1,1,0,1,NA,NA,NA,NA,NA,NA,NA,NA,NA,NA,NA,NA,NA,NA,NA,NA,NA,NA,NA,NA,NA,NA,NA,NA
"22","stim/objects/HouseObjects/rubbergloves2.png",48,73,48,0.3,"stim/43.jpeg",4,3,2,NA,"HouseObjects",2,3,"right","left",0.727999926,0,0,0,1,NA,NA,NA,NA,NA,NA,NA,NA,NA,NA,NA,NA,NA,NA,NA,NA,NA,NA,NA,NA,NA,NA,NA,NA
"26","stim/objects/HouseObjects/rug.png",49,73,49,0.5,"stim/14.jpeg",1,4,1,NA,"HouseObjects",2,3,"right","",NA,0,0,0,1,NA,NA,NA,NA,NA,NA,NA,NA,NA,NA,NA,NA,NA,NA,NA,NA,NA,NA,NA,NA,NA,NA,NA,NA
"62","stim/objects/HouseObjects/scale.png",50,73,50,0.5,"stim/23.jpeg",2,3,1,NA,"HouseObjects",2,4,"right","right",0.934000015,1,1,0,1,NA,NA,NA,NA,NA,NA,NA,NA,NA,NA,NA,NA,NA,NA,NA,NA,NA,NA,NA,NA,NA,NA,NA,NA
"47","stim/objects/HouseObjects/saw.png",51,73,51,0.5,"stim/22.jpeg",2,2,1,NA,"HouseObjects",2,1,"right","left",0.840999842,0,0,0,1,NA,NA,NA,NA,NA,NA,NA,NA,NA,NA,NA,NA,NA,NA,NA,NA,NA,NA,NA,NA,NA,NA,NA,NA
"2","stim/objects/HouseObjects/recyclingbin.png",52,73,52,0.5,"stim/11.jpeg",1,1,1,NA,"HouseObjects",2,1,"right","left",0.777999878,0,0,0,1,NA,NA,NA,NA,NA,NA,NA,NA,NA,NA,NA,NA,NA,NA,NA,NA,NA,NA,NA,NA,NA,NA,NA,NA
"205","stim/objects/Instruments/trombone.png",53,73,53,0.3,"stim/32.jpeg",3,2,2,NA,"Instruments",1,2,"left","",NA,0,0,0,1,NA,NA,NA,NA,NA,NA,NA,NA,NA,NA,NA,NA,NA,NA,NA,NA,NA,NA,NA,NA,NA,NA,NA,NA
"171","stim/objects/Instruments/saxophone.png",54,73,54,0.5,"stim/21.jpeg",2,1,1,NA,"Instruments",1,2,"left","right",0.562999725,0,0,0,1,NA,NA,NA,NA,NA,NA,NA,NA,NA,NA,NA,NA,NA,NA,NA,NA,NA,NA,NA,NA,NA,NA,NA,NA
"158","stim/objects/Instruments/record.png",55,73,55,0.5,"stim/13.jpeg",1,3,1,NA,"Instruments",1,2,"left","left",0.703999758,1,1,0,1,NA,NA,NA,NA,NA,NA,NA,NA,NA,NA,NA,NA,NA,NA,NA,NA,NA,NA,NA,NA,NA,NA,NA,NA
"48","stim/objects/HouseObjects/saw.png",56,73,56,0.5,"stim/22.jpeg",2,2,1,NA,"HouseObjects",2,1,"right","right",0.898000002,1,1,0,1,NA,NA,NA,NA,NA,NA,NA,NA,NA,NA,NA,NA,NA,NA,NA,NA,NA,NA,NA,NA,NA,NA,NA,NA
"67","stim/objects/HouseObjects/scale2.png",57,73,57,0.9,"stim/53.jpeg",5,3,3,NA,"HouseObjects",2,1,"right","right",0.638999939,1,1,0,1,NA,NA,NA,NA,NA,NA,NA,NA,NA,NA,NA,NA,NA,NA,NA,NA,NA,NA,NA,NA,NA,NA,NA,NA
"172","stim/objects/Instruments/saxophone.png",58,73,58,0.5,"stim/21.jpeg",2,1,1,NA,"Instruments",1,4,"left","right",0.865999937,0,0,0,1,NA,NA,NA,NA,NA,NA,NA,NA,NA,NA,NA,NA,NA,NA,NA,NA,NA,NA,NA,NA,NA,NA,NA,NA
"38","stim/objects/HouseObjects/safetypin2.png",59,73,59,0.9,"stim/51.jpeg",5,1,3,NA,"HouseObjects",2,3,"right","right",0.639999866,1,1,0,1,NA,NA,NA,NA,NA,NA,NA,NA,NA,NA,NA,NA,NA,NA,NA,NA,NA,NA,NA,NA,NA,NA,NA,NA
"97","stim/objects/HouseObjects/teapot.png",60,73,60,0.7,"stim/32.jpeg",3,2,2,NA,"HouseObjects",2,3,"right","right",0.720999956,1,1,0,1,NA,NA,NA,NA,NA,NA,NA,NA,NA,NA,NA,NA,NA,NA,NA,NA,NA,NA,NA,NA,NA,NA,NA,NA
"27","stim/objects/HouseObjects/rug.png",61,73,61,0.5,"stim/14.jpeg",1,4,1,NA,"HouseObjects",2,4,"right","left",0.590999842,0,0,0,1,NA,NA,NA,NA,NA,NA,NA,NA,NA,NA,NA,NA,NA,NA,NA,NA,NA,NA,NA,NA,NA,NA,NA,NA
"81","stim/objects/HouseObjects/sponge2.png",62,73,62,0.9,"stim/54.jpeg",5,4,3,NA,"HouseObjects",2,4,"right","right",0.681999922,1,1,0,1,NA,NA,NA,NA,NA,NA,NA,NA,NA,NA,NA,NA,NA,NA,NA,NA,NA,NA,NA,NA,NA,NA,NA,NA
"210","stim/objects/Instruments/trombone2.png",63,73,63,0.9,"stim/62.jpeg",6,2,3,NA,"Instruments",1,1,"left","left",0.549999952,1,1,0,1,NA,NA,NA,NA,NA,NA,NA,NA,NA,NA,NA,NA,NA,NA,NA,NA,NA,NA,NA,NA,NA,NA,NA,NA
"223","stim/objects/Instruments/trumpet2.png",64,73,64,0.9,"stim/63.jpeg",6,3,3,NA,"Instruments",1,1,"left","right",0.361999989,0,0,0,1,NA,NA,NA,NA,NA,NA,NA,NA,NA,NA,NA,NA,NA,NA,NA,NA,NA,NA,NA,NA,NA,NA,NA,NA
"224","stim/objects/Instruments/trumpet2.png",65,73,65,0.9,"stim/63.jpeg",6,3,3,NA,"Instruments",1,2,"left","right",0.352999926,0,0,0,1,NA,NA,NA,NA,NA,NA,NA,NA,NA,NA,NA,NA,NA,NA,NA,NA,NA,NA,NA,NA,NA,NA,NA,NA
"77","stim/objects/HouseObjects/sponge.png",66,73,66,0.5,"stim/24.jpeg",2,4,1,NA,"HouseObjects",2,2,"right","",NA,0,0,0,1,NA,NA,NA,NA,NA,NA,NA,NA,NA,NA,NA,NA,NA,NA,NA,NA,NA,NA,NA,NA,NA,NA,NA,NA
"152","stim/objects/Instruments/record_player2.png",67,73,67,0.7,"stim/44.jpeg",4,4,2,NA,"Instruments",1,4,"left","left",0.498999834,1,1,0,1,NA,NA,NA,NA,NA,NA,NA,NA,NA,NA,NA,NA,NA,NA,NA,NA,NA,NA,NA,NA,NA,NA,NA,NA
"105","stim/objects/HouseObjects/thermometer.png",68,73,68,0.7,"stim/33.jpeg",3,3,2,NA,"HouseObjects",2,1,"right","right",0.454999924,1,1,0,1,NA,NA,NA,NA,NA,NA,NA,NA,NA,NA,NA,NA,NA,NA,NA,NA,NA,NA,NA,NA,NA,NA,NA,NA
"39","stim/objects/HouseObjects/safetypin2.png",69,73,69,0.9,"stim/51.jpeg",5,1,3,NA,"HouseObjects",2,1,"right","left",0.445999861,0,0,0,1,NA,NA,NA,NA,NA,NA,NA,NA,NA,NA,NA,NA,NA,NA,NA,NA,NA,NA,NA,NA,NA,NA,NA,NA
"3","stim/objects/HouseObjects/recyclingbin.png",70,73,70,0.5,"stim/11.jpeg",1,1,1,NA,"HouseObjects",2,2,"right","left",0.638000011,0,0,0,1,NA,NA,NA,NA,NA,NA,NA,NA,NA,NA,NA,NA,NA,NA,NA,NA,NA,NA,NA,NA,NA,NA,NA,NA
"63","stim/objects/HouseObjects/scale.png",71,73,71,0.5,"stim/23.jpeg",2,3,1,NA,"HouseObjects",2,2,"right","right",0.681999922,1,1,0,1,NA,NA,NA,NA,NA,NA,NA,NA,NA,NA,NA,NA,NA,NA,NA,NA,NA,NA,NA,NA,NA,NA,NA,NA
"34","stim/objects/HouseObjects/safetypin.png",72,73,72,0.5,"stim/21.jpeg",2,1,1,NA,"HouseObjects",2,3,"right","right",0.606999874,1,1,0,1,NA,NA,NA,NA,NA,NA,NA,NA,NA,NA,NA,NA,NA,NA,NA,NA,NA,NA,NA,NA,NA,NA,NA,NA
"177","stim/objects/Instruments/speaker.png",73,73,73,0.5,"stim/22.jpeg",2,2,1,NA,"Instruments",1,1,"left","left",0.605999947,1,1,0,1,NA,NA,NA,NA,NA,NA,NA,NA,NA,NA,NA,NA,NA,NA,NA,NA,NA,NA,NA,NA,NA,NA,NA,NA
"146","stim/objects/Instruments/record_player.png",74,73,74,0.5,"stim/14.jpeg",1,4,1,NA,"Instruments",1,4,"left","right",0.716999769,0,0,0,1,NA,NA,NA,NA,NA,NA,NA,NA,NA,NA,NA,NA,NA,NA,NA,NA,NA,NA,NA,NA,NA,NA,NA,NA
"14","stim/objects/HouseObjects/remote2.png",75,73,75,0.3,"stim/42.jpeg",4,2,2,NA,"HouseObjects",2,2,"right","left",0.674999952,0,0,0,1,NA,NA,NA,NA,NA,NA,NA,NA,NA,NA,NA,NA,NA,NA,NA,NA,NA,NA,NA,NA,NA,NA,NA,NA
"163","stim/objects/Instruments/record2.png",76,73,76,0.7,"stim/43.jpeg",4,3,2,NA,"Instruments",1,3,"left","left",0.801999807,1,1,0,1,NA,NA,NA,NA,NA,NA,NA,NA,NA,NA,NA,NA,NA,NA,NA,NA,NA,NA,NA,NA,NA,NA,NA,NA
"64","stim/objects/HouseObjects/scale.png",77,73,77,0.5,"stim/23.jpeg",2,3,1,NA,"HouseObjects",2,3,"right","right",0.588999987,1,1,0,1,NA,NA,NA,NA,NA,NA,NA,NA,NA,NA,NA,NA,NA,NA,NA,NA,NA,NA,NA,NA,NA,NA,NA,NA
"40","stim/objects/HouseObjects/safetypin2.png",78,73,78,0.9,"stim/51.jpeg",5,1,3,NA,"HouseObjects",2,3,"right","right",0.510999918,1,1,0,1,NA,NA,NA,NA,NA,NA,NA,NA,NA,NA,NA,NA,NA,NA,NA,NA,NA,NA,NA,NA,NA,NA,NA,NA
"82","stim/objects/HouseObjects/sponge2.png",79,73,79,0.9,"stim/54.jpeg",5,4,3,NA,"HouseObjects",2,2,"right","right",0.713999987,1,1,0,1,NA,NA,NA,NA,NA,NA,NA,NA,NA,NA,NA,NA,NA,NA,NA,NA,NA,NA,NA,NA,NA,NA,NA,NA
"92","stim/objects/HouseObjects/spraybottle.png",80,73,80,0.7,"stim/31.jpeg",3,1,2,NA,"HouseObjects",2,1,"right","",NA,0,0,0,1,NA,NA,NA,NA,NA,NA,NA,NA,NA,NA,NA,NA,NA,NA,NA,NA,NA,NA,NA,NA,NA,NA,NA,NA
"153","stim/objects/Instruments/record_player2.png",81,73,81,0.7,"stim/44.jpeg",4,4,2,NA,"Instruments",1,3,"left","left",0.524999857,1,1,0,1,NA,NA,NA,NA,NA,NA,NA,NA,NA,NA,NA,NA,NA,NA,NA,NA,NA,NA,NA,NA,NA,NA,NA,NA
"225","stim/objects/Instruments/trumpet2.png",82,73,82,0.9,"stim/63.jpeg",6,3,3,NA,"Instruments",1,4,"left","left",0.808999777,1,1,0,1,NA,NA,NA,NA,NA,NA,NA,NA,NA,NA,NA,NA,NA,NA,NA,NA,NA,NA,NA,NA,NA,NA,NA,NA
"78","stim/objects/HouseObjects/sponge.png",83,73,83,0.5,"stim/24.jpeg",2,4,1,NA,"HouseObjects",2,2,"right","right",0.569000006,1,1,0,1,NA,NA,NA,NA,NA,NA,NA,NA,NA,NA,NA,NA,NA,NA,NA,NA,NA,NA,NA,NA,NA,NA,NA,NA
"106","stim/objects/HouseObjects/thermometer.png",84,73,84,0.7,"stim/33.jpeg",3,3,2,NA,"HouseObjects",2,4,"right","right",0.643999815,1,1,0,1,NA,NA,NA,NA,NA,NA,NA,NA,NA,NA,NA,NA,NA,NA,NA,NA,NA,NA,NA,NA,NA,NA,NA,NA
"83","stim/objects/HouseObjects/sponge2.png",85,73,85,0.9,"stim/54.jpeg",5,4,3,NA,"HouseObjects",2,1,"right","right",0.576999903,1,1,0,1,NA,NA,NA,NA,NA,NA,NA,NA,NA,NA,NA,NA,NA,NA,NA,NA,NA,NA,NA,NA,NA,NA,NA,NA
"226","stim/objects/Instruments/trumpet2.png",86,73,86,0.9,"stim/63.jpeg",6,3,3,NA,"Instruments",1,2,"left","left",0.503999949,1,1,0,1,NA,NA,NA,NA,NA,NA,NA,NA,NA,NA,NA,NA,NA,NA,NA,NA,NA,NA,NA,NA,NA,NA,NA,NA
"68","stim/objects/HouseObjects/scale2.png",87,73,87,0.9,"stim/53.jpeg",5,3,3,NA,"HouseObjects",2,1,"right","right",0.529999971,1,1,0,1,NA,NA,NA,NA,NA,NA,NA,NA,NA,NA,NA,NA,NA,NA,NA,NA,NA,NA,NA,NA,NA,NA,NA,NA
"235","stim/objects/Instruments/tuba2.png",88,73,88,0.9,"stim/64.jpeg",6,4,3,NA,"Instruments",1,3,"left","left",0.471999884,1,1,0,1,NA,NA,NA,NA,NA,NA,NA,NA,NA,NA,NA,NA,NA,NA,NA,NA,NA,NA,NA,NA,NA,NA,NA,NA
"122","stim/objects/Instruments/panflute.png",89,73,89,0.5,"stim/11.jpeg",1,1,1,NA,"Instruments",1,4,"left","left",0.868000031,1,1,0,1,NA,NA,NA,NA,NA,NA,NA,NA,NA,NA,NA,NA,NA,NA,NA,NA,NA,NA,NA,NA,NA,NA,NA,NA
"186","stim/objects/Instruments/tambourine2.png",90,73,90,0.1,"stim/53.jpeg",5,3,3,NA,"Instruments",1,4,"left","right",0.568999767,0,0,0,1,NA,NA,NA,NA,NA,NA,NA,NA,NA,NA,NA,NA,NA,NA,NA,NA,NA,NA,NA,NA,NA,NA,NA,NA
"164","stim/objects/Instruments/record2.png",91,73,91,0.7,"stim/43.jpeg",4,3,2,NA,"Instruments",1,1,"left","left",0.826999903,1,1,0,1,NA,NA,NA,NA,NA,NA,NA,NA,NA,NA,NA,NA,NA,NA,NA,NA,NA,NA,NA,NA,NA,NA,NA,NA
"93","stim/objects/HouseObjects/spraybottle.png",92,73,92,0.7,"stim/31.jpeg",3,1,2,NA,"HouseObjects",2,3,"right","right",0.607999802,1,1,0,1,NA,NA,NA,NA,NA,NA,NA,NA,NA,NA,NA,NA,NA,NA,NA,NA,NA,NA,NA,NA,NA,NA,NA,NA
"128","stim/objects/Instruments/panflute2.png",93,73,93,0.7,"stim/41.jpeg",4,1,2,NA,"Instruments",1,1,"left","left",0.609999895,1,1,0,1,NA,NA,NA,NA,NA,NA,NA,NA,NA,NA,NA,NA,NA,NA,NA,NA,NA,NA,NA,NA,NA,NA,NA,NA
"173","stim/objects/Instruments/saxophone.png",94,73,94,0.5,"stim/21.jpeg",2,1,1,NA,"Instruments",1,3,"left","right",0.630000114,0,0,0,1,NA,NA,NA,NA,NA,NA,NA,NA,NA,NA,NA,NA,NA,NA,NA,NA,NA,NA,NA,NA,NA,NA,NA,NA
"41","stim/objects/HouseObjects/safetypin2.png",95,73,95,0.9,"stim/51.jpeg",5,1,3,NA,"HouseObjects",2,4,"right","right",0.681999922,1,1,0,1,NA,NA,NA,NA,NA,NA,NA,NA,NA,NA,NA,NA,NA,NA,NA,NA,NA,NA,NA,NA,NA,NA,NA,NA
"236","stim/objects/Instruments/tuba2.png",96,73,96,0.9,"stim/64.jpeg",6,4,3,NA,"Instruments",1,3,"left","left",0.538999796,1,1,0,1,NA,NA,NA,NA,NA,NA,NA,NA,NA,NA,NA,NA,NA,NA,NA,NA,NA,NA,NA,NA,NA,NA,NA,NA
"17","stim/objects/HouseObjects/rubbergloves.png",97,73,97,0.5,"stim/13.jpeg",1,3,1,NA,"HouseObjects",2,1,"right","right",0.687999964,1,1,0,1,NA,NA,NA,NA,NA,NA,NA,NA,NA,NA,NA,NA,NA,NA,NA,NA,NA,NA,NA,NA,NA,NA,NA,NA
"227","stim/objects/Instruments/trumpet2.png",98,73,98,0.9,"stim/63.jpeg",6,3,3,NA,"Instruments",1,3,"left","left",0.573999882,1,1,0,1,NA,NA,NA,NA,NA,NA,NA,NA,NA,NA,NA,NA,NA,NA,NA,NA,NA,NA,NA,NA,NA,NA,NA,NA
"114","stim/objects/HouseObjects/thread.png",99,73,99,0.7,"stim/34.jpeg",3,4,2,NA,"HouseObjects",2,4,"right","right",0.680000067,1,1,0,1,NA,NA,NA,NA,NA,NA,NA,NA,NA,NA,NA,NA,NA,NA,NA,NA,NA,NA,NA,NA,NA,NA,NA,NA
"134","stim/objects/Instruments/pipepiano.png",100,73,100,0.5,"stim/12.jpeg",1,2,1,NA,"Instruments",1,1,"left","right",0.779999971,0,0,0,1,NA,NA,NA,NA,NA,NA,NA,NA,NA,NA,NA,NA,NA,NA,NA,NA,NA,NA,NA,NA,NA,NA,NA,NA
"35","stim/objects/HouseObjects/safetypin.png",101,73,101,0.5,"stim/21.jpeg",2,1,1,NA,"HouseObjects",2,4,"right","left",0.917999983,0,0,0,1,NA,NA,NA,NA,NA,NA,NA,NA,NA,NA,NA,NA,NA,NA,NA,NA,NA,NA,NA,NA,NA,NA,NA,NA
"18","stim/objects/HouseObjects/rubbergloves.png",102,73,102,0.5,"stim/13.jpeg",1,3,1,NA,"HouseObjects",2,3,"right","right",0.791000128,1,1,0,1,NA,NA,NA,NA,NA,NA,NA,NA,NA,NA,NA,NA,NA,NA,NA,NA,NA,NA,NA,NA,NA,NA,NA,NA
"69","stim/objects/HouseObjects/scale2.png",103,73,103,0.9,"stim/53.jpeg",5,3,3,NA,"HouseObjects",2,3,"right","right",0.775999784,1,1,0,1,NA,NA,NA,NA,NA,NA,NA,NA,NA,NA,NA,NA,NA,NA,NA,NA,NA,NA,NA,NA,NA,NA,NA,NA
"237","stim/objects/Instruments/tuba2.png",104,73,104,0.9,"stim/64.jpeg",6,4,3,NA,"Instruments",1,3,"left","left",0.464999914,1,1,0,1,NA,NA,NA,NA,NA,NA,NA,NA,NA,NA,NA,NA,NA,NA,NA,NA,NA,NA,NA,NA,NA,NA,NA,NA
"211","stim/objects/Instruments/trombone2.png",105,73,105,0.9,"stim/62.jpeg",6,2,3,NA,"Instruments",1,1,"left","left",0.51699996,1,1,0,1,NA,NA,NA,NA,NA,NA,NA,NA,NA,NA,NA,NA,NA,NA,NA,NA,NA,NA,NA,NA,NA,NA,NA,NA
"115","stim/objects/HouseObjects/thread.png",106,73,106,0.7,"stim/34.jpeg",3,4,2,NA,"HouseObjects",2,3,"right","right",0.487999916,1,1,0,1,NA,NA,NA,NA,NA,NA,NA,NA,NA,NA,NA,NA,NA,NA,NA,NA,NA,NA,NA,NA,NA,NA,NA,NA
"107","stim/objects/HouseObjects/thermometer.png",107,73,107,0.7,"stim/33.jpeg",3,3,2,NA,"HouseObjects",2,1,"right","right",0.623999834,1,1,0,1,NA,NA,NA,NA,NA,NA,NA,NA,NA,NA,NA,NA,NA,NA,NA,NA,NA,NA,NA,NA,NA,NA,NA,NA
"238","stim/objects/Instruments/tuba2.png",108,73,108,0.9,"stim/64.jpeg",6,4,3,NA,"Instruments",1,2,"left","left",0.502999783,1,1,0,1,NA,NA,NA,NA,NA,NA,NA,NA,NA,NA,NA,NA,NA,NA,NA,NA,NA,NA,NA,NA,NA,NA,NA,NA
"182","stim/objects/Instruments/tambourine.png",109,73,109,0.5,"stim/23.jpeg",2,3,1,NA,"Instruments",1,1,"left","right",0.625,0,0,0,1,NA,NA,NA,NA,NA,NA,NA,NA,NA,NA,NA,NA,NA,NA,NA,NA,NA,NA,NA,NA,NA,NA,NA,NA
"10","stim/objects/HouseObjects/remote.png",110,73,110,0.5,"stim/12.jpeg",1,2,1,NA,"HouseObjects",2,2,"right","left",0.812999964,0,0,0,1,NA,NA,NA,NA,NA,NA,NA,NA,NA,NA,NA,NA,NA,NA,NA,NA,NA,NA,NA,NA,NA,NA,NA,NA
"197","stim/objects/Instruments/triangle2.png",111,73,111,0.9,"stim/61.jpeg",6,1,3,NA,"Instruments",1,4,"left","left",0.570999861,1,1,0,1,NA,NA,NA,NA,NA,NA,NA,NA,NA,NA,NA,NA,NA,NA,NA,NA,NA,NA,NA,NA,NA,NA,NA,NA
"28","stim/objects/HouseObjects/rug.png",112,73,112,0.5,"stim/14.jpeg",1,4,1,NA,"HouseObjects",2,1,"right","",NA,0,0,0,1,NA,NA,NA,NA,NA,NA,NA,NA,NA,NA,NA,NA,NA,NA,NA,NA,NA,NA,NA,NA,NA,NA,NA,NA
"108","stim/objects/HouseObjects/thermometer.png",113,73,113,0.7,"stim/33.jpeg",3,3,2,NA,"HouseObjects",2,4,"right","right",0.92599988,1,1,0,1,NA,NA,NA,NA,NA,NA,NA,NA,NA,NA,NA,NA,NA,NA,NA,NA,NA,NA,NA,NA,NA,NA,NA,NA
"138","stim/objects/Instruments/pipepiano2.png",114,73,114,0.7,"stim/42.jpeg",4,2,2,NA,"Instruments",1,4,"left","left",0.938999891,1,1,0,1,NA,NA,NA,NA,NA,NA,NA,NA,NA,NA,NA,NA,NA,NA,NA,NA,NA,NA,NA,NA,NA,NA,NA,NA
"129","stim/objects/Instruments/panflute2.png",115,73,115,0.7,"stim/41.jpeg",4,1,2,NA,"Instruments",1,1,"left","left",0.549999952,1,1,0,1,NA,NA,NA,NA,NA,NA,NA,NA,NA,NA,NA,NA,NA,NA,NA,NA,NA,NA,NA,NA,NA,NA,NA,NA
"217","stim/objects/Instruments/trumpet.png",116,73,116,0.3,"stim/33.jpeg",3,3,2,NA,"Instruments",1,3,"left","right",0.553999901,0,0,0,1,NA,NA,NA,NA,NA,NA,NA,NA,NA,NA,NA,NA,NA,NA,NA,NA,NA,NA,NA,NA,NA,NA,NA,NA
"4","stim/objects/HouseObjects/recyclingbin.png",117,73,117,0.5,"stim/11.jpeg",1,1,1,NA,"HouseObjects",2,3,"right","left",0.633999825,0,0,0,1,NA,NA,NA,NA,NA,NA,NA,NA,NA,NA,NA,NA,NA,NA,NA,NA,NA,NA,NA,NA,NA,NA,NA,NA
"165","stim/objects/Instruments/record2.png",118,73,118,0.7,"stim/43.jpeg",4,3,2,NA,"Instruments",1,3,"left","left",0.889999866,1,1,0,1,NA,NA,NA,NA,NA,NA,NA,NA,NA,NA,NA,NA,NA,NA,NA,NA,NA,NA,NA,NA,NA,NA,NA,NA
"56","stim/objects/HouseObjects/saw2.png",119,73,119,0.9,"stim/52.jpeg",5,2,3,NA,"HouseObjects",2,1,"right","right",0.618000031,1,1,0,1,NA,NA,NA,NA,NA,NA,NA,NA,NA,NA,NA,NA,NA,NA,NA,NA,NA,NA,NA,NA,NA,NA,NA,NA
"178","stim/objects/Instruments/speaker.png",120,73,120,0.5,"stim/22.jpeg",2,2,1,NA,"Instruments",1,4,"left","left",0.734999895,1,1,0,1,NA,NA,NA,NA,NA,NA,NA,NA,NA,NA,NA,NA,NA,NA,NA,NA,NA,NA,NA,NA,NA,NA,NA,NA
"84","stim/objects/HouseObjects/sponge2.png",121,73,121,0.9,"stim/54.jpeg",5,4,3,NA,"HouseObjects",2,2,"right","right",0.632999897,1,1,0,1,NA,NA,NA,NA,NA,NA,NA,NA,NA,NA,NA,NA,NA,NA,NA,NA,NA,NA,NA,NA,NA,NA,NA,NA
"11","stim/objects/HouseObjects/remote.png",122,73,122,0.5,"stim/12.jpeg",1,2,1,NA,"HouseObjects",2,3,"right","right",0.605999947,1,1,0,1,NA,NA,NA,NA,NA,NA,NA,NA,NA,NA,NA,NA,NA,NA,NA,NA,NA,NA,NA,NA,NA,NA,NA,NA
"194","stim/objects/Instruments/triangle.png",123,73,123,0.3,"stim/31.jpeg",3,1,2,NA,"Instruments",1,2,"left","right",0.479999781,0,0,0,1,NA,NA,NA,NA,NA,NA,NA,NA,NA,NA,NA,NA,NA,NA,NA,NA,NA,NA,NA,NA,NA,NA,NA,NA
"23","stim/objects/HouseObjects/rubbergloves2.png",124,73,124,0.3,"stim/43.jpeg",4,3,2,NA,"HouseObjects",2,4,"right","left",0.540999889,0,0,0,1,NA,NA,NA,NA,NA,NA,NA,NA,NA,NA,NA,NA,NA,NA,NA,NA,NA,NA,NA,NA,NA,NA,NA,NA
"198","stim/objects/Instruments/triangle2.png",125,73,125,0.9,"stim/61.jpeg",6,1,3,NA,"Instruments",1,4,"left","left",0.680000067,1,1,0,1,NA,NA,NA,NA,NA,NA,NA,NA,NA,NA,NA,NA,NA,NA,NA,NA,NA,NA,NA,NA,NA,NA,NA,NA
"135","stim/objects/Instruments/pipepiano.png",126,73,126,0.5,"stim/12.jpeg",1,2,1,NA,"Instruments",1,2,"left","right",0.529999971,0,0,0,1,NA,NA,NA,NA,NA,NA,NA,NA,NA,NA,NA,NA,NA,NA,NA,NA,NA,NA,NA,NA,NA,NA,NA,NA
"183","stim/objects/Instruments/tambourine.png",127,73,127,0.5,"stim/23.jpeg",2,3,1,NA,"Instruments",1,4,"left","right",0.725999832,0,0,0,1,NA,NA,NA,NA,NA,NA,NA,NA,NA,NA,NA,NA,NA,NA,NA,NA,NA,NA,NA,NA,NA,NA,NA,NA
"166","stim/objects/Instruments/record2.png",128,73,128,0.7,"stim/43.jpeg",4,3,2,NA,"Instruments",1,2,"left","left",0.691999912,1,1,0,1,NA,NA,NA,NA,NA,NA,NA,NA,NA,NA,NA,NA,NA,NA,NA,NA,NA,NA,NA,NA,NA,NA,NA,NA
"57","stim/objects/HouseObjects/saw2.png",129,73,129,0.9,"stim/52.jpeg",5,2,3,NA,"HouseObjects",2,2,"right","right",0.569000006,1,1,0,1,NA,NA,NA,NA,NA,NA,NA,NA,NA,NA,NA,NA,NA,NA,NA,NA,NA,NA,NA,NA,NA,NA,NA,NA
"139","stim/objects/Instruments/pipepiano2.png",130,73,130,0.7,"stim/42.jpeg",4,2,2,NA,"Instruments",1,2,"left","",NA,0,0,0,1,NA,NA,NA,NA,NA,NA,NA,NA,NA,NA,NA,NA,NA,NA,NA,NA,NA,NA,NA,NA,NA,NA,NA,NA
"123","stim/objects/Instruments/panflute.png",131,73,131,0.5,"stim/11.jpeg",1,1,1,NA,"Instruments",1,1,"left","right",0.622999907,0,0,0,1,NA,NA,NA,NA,NA,NA,NA,NA,NA,NA,NA,NA,NA,NA,NA,NA,NA,NA,NA,NA,NA,NA,NA,NA
"199","stim/objects/Instruments/triangle2.png",132,73,132,0.9,"stim/61.jpeg",6,1,3,NA,"Instruments",1,4,"left","left",0.527999878,1,1,0,1,NA,NA,NA,NA,NA,NA,NA,NA,NA,NA,NA,NA,NA,NA,NA,NA,NA,NA,NA,NA,NA,NA,NA,NA
"230","stim/objects/Instruments/tuba.png",133,73,133,0.3,"stim/34.jpeg",3,4,2,NA,"Instruments",1,3,"left","right",0.796999931,0,0,0,1,NA,NA,NA,NA,NA,NA,NA,NA,NA,NA,NA,NA,NA,NA,NA,NA,NA,NA,NA,NA,NA,NA,NA,NA
"5","stim/objects/HouseObjects/recyclingbin.png",134,73,134,0.5,"stim/11.jpeg",1,1,1,NA,"HouseObjects",2,2,"right","right",0.763999939,1,1,0,1,NA,NA,NA,NA,NA,NA,NA,NA,NA,NA,NA,NA,NA,NA,NA,NA,NA,NA,NA,NA,NA,NA,NA,NA
"136","stim/objects/Instruments/pipepiano.png",135,73,135,0.5,"stim/12.jpeg",1,2,1,NA,"Instruments",1,4,"left","right",0.674999952,0,0,0,1,NA,NA,NA,NA,NA,NA,NA,NA,NA,NA,NA,NA,NA,NA,NA,NA,NA,NA,NA,NA,NA,NA,NA,NA
"85","stim/objects/HouseObjects/sponge2.png",136,73,136,0.9,"stim/54.jpeg",5,4,3,NA,"HouseObjects",2,3,"right","",NA,0,0,0,1,NA,NA,NA,NA,NA,NA,NA,NA,NA,NA,NA,NA,NA,NA,NA,NA,NA,NA,NA,NA,NA,NA,NA,NA
"7","stim/objects/HouseObjects/recyclingbin2.png",137,73,137,0.3,"stim/41.jpeg",4,1,2,NA,"HouseObjects",2,3,"right","left",0.703000069,0,0,0,1,NA,NA,NA,NA,NA,NA,NA,NA,NA,NA,NA,NA,NA,NA,NA,NA,NA,NA,NA,NA,NA,NA,NA,NA
"70","stim/objects/HouseObjects/scale2.png",138,73,138,0.9,"stim/53.jpeg",5,3,3,NA,"HouseObjects",2,2,"right","right",0.595000029,1,1,0,1,NA,NA,NA,NA,NA,NA,NA,NA,NA,NA,NA,NA,NA,NA,NA,NA,NA,NA,NA,NA,NA,NA,NA,NA
"124","stim/objects/Instruments/panflute.png",139,73,139,0.5,"stim/11.jpeg",1,1,1,NA,"Instruments",1,2,"left","left",0.664999962,1,1,0,1,NA,NA,NA,NA,NA,NA,NA,NA,NA,NA,NA,NA,NA,NA,NA,NA,NA,NA,NA,NA,NA,NA,NA,NA
"29","stim/objects/HouseObjects/rug.png",140,73,140,0.5,"stim/14.jpeg",1,4,1,NA,"HouseObjects",2,2,"right","right",0.563999891,1,1,0,1,NA,NA,NA,NA,NA,NA,NA,NA,NA,NA,NA,NA,NA,NA,NA,NA,NA,NA,NA,NA,NA,NA,NA,NA
"19","stim/objects/HouseObjects/rubbergloves.png",141,73,141,0.5,"stim/13.jpeg",1,3,1,NA,"HouseObjects",2,3,"right","right",0.470999956,1,1,0,1,NA,NA,NA,NA,NA,NA,NA,NA,NA,NA,NA,NA,NA,NA,NA,NA,NA,NA,NA,NA,NA,NA,NA,NA
"218","stim/objects/Instruments/trumpet.png",142,73,142,0.3,"stim/33.jpeg",3,3,2,NA,"Instruments",1,1,"left","right",0.523000002,0,0,0,1,NA,NA,NA,NA,NA,NA,NA,NA,NA,NA,NA,NA,NA,NA,NA,NA,NA,NA,NA,NA,NA,NA,NA,NA
"116","stim/objects/HouseObjects/thread.png",143,73,143,0.7,"stim/34.jpeg",3,4,2,NA,"HouseObjects",2,4,"right","right",0.720999956,1,1,0,1,NA,NA,NA,NA,NA,NA,NA,NA,NA,NA,NA,NA,NA,NA,NA,NA,NA,NA,NA,NA,NA,NA,NA,NA
"8","stim/objects/HouseObjects/recyclingbin2.png",144,73,144,0.3,"stim/41.jpeg",4,1,2,NA,"HouseObjects",2,4,"right","left",0.575999975,0,0,0,1,NA,NA,NA,NA,NA,NA,NA,NA,NA,NA,NA,NA,NA,NA,NA,NA,NA,NA,NA,NA,NA,NA,NA,NA
"98","stim/objects/HouseObjects/teapot.png",145,73,145,0.7,"stim/32.jpeg",3,2,2,NA,"HouseObjects",2,3,"right","right",0.459000111,1,1,0,1,NA,NA,NA,NA,NA,NA,NA,NA,NA,NA,NA,NA,NA,NA,NA,NA,NA,NA,NA,NA,NA,NA,NA,NA
"180","stim/objects/Instruments/speaker2.png",146,73,146,0.1,"stim/52.jpeg",5,2,3,NA,"Instruments",1,3,"left","right",0.531999826,0,0,0,1,NA,NA,NA,NA,NA,NA,NA,NA,NA,NA,NA,NA,NA,NA,NA,NA,NA,NA,NA,NA,NA,NA,NA,NA
"130","stim/objects/Instruments/panflute2.png",147,73,147,0.7,"stim/41.jpeg",4,1,2,NA,"Instruments",1,2,"left","left",0.824999809,1,1,0,1,NA,NA,NA,NA,NA,NA,NA,NA,NA,NA,NA,NA,NA,NA,NA,NA,NA,NA,NA,NA,NA,NA,NA,NA
"239","stim/objects/Instruments/tuba2.png",148,73,148,0.9,"stim/64.jpeg",6,4,3,NA,"Instruments",1,3,"left","left",0.641999722,1,1,0,1,NA,NA,NA,NA,NA,NA,NA,NA,NA,NA,NA,NA,NA,NA,NA,NA,NA,NA,NA,NA,NA,NA,NA,NA
"109","stim/objects/HouseObjects/thermometer.png",149,73,149,0.7,"stim/33.jpeg",3,3,2,NA,"HouseObjects",2,2,"right","right",0.559999943,1,1,0,1,NA,NA,NA,NA,NA,NA,NA,NA,NA,NA,NA,NA,NA,NA,NA,NA,NA,NA,NA,NA,NA,NA,NA,NA
"117","stim/objects/HouseObjects/thread.png",150,73,150,0.7,"stim/34.jpeg",3,4,2,NA,"HouseObjects",2,2,"right","right",0.537999868,1,1,0,1,NA,NA,NA,NA,NA,NA,NA,NA,NA,NA,NA,NA,NA,NA,NA,NA,NA,NA,NA,NA,NA,NA,NA,NA
"219","stim/objects/Instruments/trumpet.png",151,73,151,0.3,"stim/33.jpeg",3,3,2,NA,"Instruments",1,4,"left","left",0.555000067,1,1,0,1,NA,NA,NA,NA,NA,NA,NA,NA,NA,NA,NA,NA,NA,NA,NA,NA,NA,NA,NA,NA,NA,NA,NA,NA
"110","stim/objects/HouseObjects/thermometer.png",152,73,152,0.7,"stim/33.jpeg",3,3,2,NA,"HouseObjects",2,4,"right","left",0.500999928,0,0,0,1,NA,NA,NA,NA,NA,NA,NA,NA,NA,NA,NA,NA,NA,NA,NA,NA,NA,NA,NA,NA,NA,NA,NA,NA
"167","stim/objects/Instruments/record2.png",153,73,153,0.7,"stim/43.jpeg",4,3,2,NA,"Instruments",1,1,"left","right",0.782999992,0,0,0,1,NA,NA,NA,NA,NA,NA,NA,NA,NA,NA,NA,NA,NA,NA,NA,NA,NA,NA,NA,NA,NA,NA,NA,NA
"137","stim/objects/Instruments/pipepiano.png",154,73,154,0.5,"stim/12.jpeg",1,2,1,NA,"Instruments",1,4,"left","right",0.789999962,0,0,0,1,NA,NA,NA,NA,NA,NA,NA,NA,NA,NA,NA,NA,NA,NA,NA,NA,NA,NA,NA,NA,NA,NA,NA,NA
"140","stim/objects/Instruments/pipepiano2.png",155,73,155,0.7,"stim/42.jpeg",4,2,2,NA,"Instruments",1,4,"left","left",0.677000046,1,1,0,1,NA,NA,NA,NA,NA,NA,NA,NA,NA,NA,NA,NA,NA,NA,NA,NA,NA,NA,NA,NA,NA,NA,NA,NA
"86","stim/objects/HouseObjects/sponge2.png",156,73,156,0.9,"stim/54.jpeg",5,4,3,NA,"HouseObjects",2,3,"right","right",0.638000011,1,1,0,1,NA,NA,NA,NA,NA,NA,NA,NA,NA,NA,NA,NA,NA,NA,NA,NA,NA,NA,NA,NA,NA,NA,NA,NA
"118","stim/objects/HouseObjects/thread.png",157,73,157,0.7,"stim/34.jpeg",3,4,2,NA,"HouseObjects",2,2,"right","left",0.603999853,0,0,0,1,NA,NA,NA,NA,NA,NA,NA,NA,NA,NA,NA,NA,NA,NA,NA,NA,NA,NA,NA,NA,NA,NA,NA,NA
"20","stim/objects/HouseObjects/rubbergloves.png",158,73,158,0.5,"stim/13.jpeg",1,3,1,NA,"HouseObjects",2,2,"right","right",0.664000034,1,1,0,1,NA,NA,NA,NA,NA,NA,NA,NA,NA,NA,NA,NA,NA,NA,NA,NA,NA,NA,NA,NA,NA,NA,NA,NA
"65","stim/objects/HouseObjects/scale.png",159,73,159,0.5,"stim/23.jpeg",2,3,1,NA,"HouseObjects",2,4,"right","right",0.617000103,1,1,0,1,NA,NA,NA,NA,NA,NA,NA,NA,NA,NA,NA,NA,NA,NA,NA,NA,NA,NA,NA,NA,NA,NA,NA,NA
"200","stim/objects/Instruments/triangle2.png",160,73,160,0.9,"stim/61.jpeg",6,1,3,NA,"Instruments",1,2,"left","left",0.513999939,1,1,0,1,NA,NA,NA,NA,NA,NA,NA,NA,NA,NA,NA,NA,NA,NA,NA,NA,NA,NA,NA,NA,NA,NA,NA,NA
"188","stim/objects/Instruments/timbal.png",161,73,161,0.5,"stim/24.jpeg",2,4,1,NA,"Instruments",1,4,"left","right",0.575999975,0,0,0,1,NA,NA,NA,NA,NA,NA,NA,NA,NA,NA,NA,NA,NA,NA,NA,NA,NA,NA,NA,NA,NA,NA,NA,NA
"154","stim/objects/Instruments/record_player2.png",162,73,162,0.7,"stim/44.jpeg",4,4,2,NA,"Instruments",1,1,"left","left",0.585999966,1,1,0,1,NA,NA,NA,NA,NA,NA,NA,NA,NA,NA,NA,NA,NA,NA,NA,NA,NA,NA,NA,NA,NA,NA,NA,NA
"141","stim/objects/Instruments/pipepiano2.png",163,73,163,0.7,"stim/42.jpeg",4,2,2,NA,"Instruments",1,3,"left","left",0.835000038,1,1,0,1,NA,NA,NA,NA,NA,NA,NA,NA,NA,NA,NA,NA,NA,NA,NA,NA,NA,NA,NA,NA,NA,NA,NA,NA
"184","stim/objects/Instruments/tambourine.png",164,73,164,0.5,"stim/23.jpeg",2,3,1,NA,"Instruments",1,4,"left","right",0.59100008,0,0,0,1,NA,NA,NA,NA,NA,NA,NA,NA,NA,NA,NA,NA,NA,NA,NA,NA,NA,NA,NA,NA,NA,NA,NA,NA
"99","stim/objects/HouseObjects/teapot.png",165,73,165,0.7,"stim/32.jpeg",3,2,2,NA,"HouseObjects",2,1,"right","left",0.808000088,0,0,0,1,NA,NA,NA,NA,NA,NA,NA,NA,NA,NA,NA,NA,NA,NA,NA,NA,NA,NA,NA,NA,NA,NA,NA,NA
"228","stim/objects/Instruments/trumpet2.png",166,73,166,0.9,"stim/63.jpeg",6,3,3,NA,"Instruments",1,4,"left","left",0.501999855,1,1,0,1,NA,NA,NA,NA,NA,NA,NA,NA,NA,NA,NA,NA,NA,NA,NA,NA,NA,NA,NA,NA,NA,NA,NA,NA
"212","stim/objects/Instruments/trombone2.png",167,73,167,0.9,"stim/62.jpeg",6,2,3,NA,"Instruments",1,4,"left","left",0.490999937,1,1,0,1,NA,NA,NA,NA,NA,NA,NA,NA,NA,NA,NA,NA,NA,NA,NA,NA,NA,NA,NA,NA,NA,NA,NA,NA
"71","stim/objects/HouseObjects/scale2.png",168,73,168,0.9,"stim/53.jpeg",5,3,3,NA,"HouseObjects",2,1,"right","right",0.566999912,1,1,0,1,NA,NA,NA,NA,NA,NA,NA,NA,NA,NA,NA,NA,NA,NA,NA,NA,NA,NA,NA,NA,NA,NA,NA,NA
"21","stim/objects/HouseObjects/rubbergloves.png",169,73,169,0.5,"stim/13.jpeg",1,3,1,NA,"HouseObjects",2,4,"right","right",0.45299983,1,1,0,1,NA,NA,NA,NA,NA,NA,NA,NA,NA,NA,NA,NA,NA,NA,NA,NA,NA,NA,NA,NA,NA,NA,NA,NA
"58","stim/objects/HouseObjects/saw2.png",170,73,170,0.9,"stim/52.jpeg",5,2,3,NA,"HouseObjects",2,4,"right","left",0.507999897,0,0,0,1,NA,NA,NA,NA,NA,NA,NA,NA,NA,NA,NA,NA,NA,NA,NA,NA,NA,NA,NA,NA,NA,NA,NA,NA
"192","stim/objects/Instruments/timbal2.png",171,73,171,0.1,"stim/54.jpeg",5,4,3,NA,"Instruments",1,1,"left","right",0.530999899,0,0,0,1,NA,NA,NA,NA,NA,NA,NA,NA,NA,NA,NA,NA,NA,NA,NA,NA,NA,NA,NA,NA,NA,NA,NA,NA
"201","stim/objects/Instruments/triangle2.png",172,73,172,0.9,"stim/61.jpeg",6,1,3,NA,"Instruments",1,2,"left","left",0.595999718,1,1,0,1,NA,NA,NA,NA,NA,NA,NA,NA,NA,NA,NA,NA,NA,NA,NA,NA,NA,NA,NA,NA,NA,NA,NA,NA
"189","stim/objects/Instruments/timbal.png",173,73,173,0.5,"stim/24.jpeg",2,4,1,NA,"Instruments",1,3,"left","right",0.496999979,0,0,0,1,NA,NA,NA,NA,NA,NA,NA,NA,NA,NA,NA,NA,NA,NA,NA,NA,NA,NA,NA,NA,NA,NA,NA,NA
"120","stim/objects/HouseObjects/thread2.png",174,73,174,0.1,"stim/64.jpeg",6,4,3,NA,"HouseObjects",2,4,"right","left",0.656999826,0,0,0,1,NA,NA,NA,NA,NA,NA,NA,NA,NA,NA,NA,NA,NA,NA,NA,NA,NA,NA,NA,NA,NA,NA,NA,NA
"24","stim/objects/HouseObjects/rubbergloves2.png",175,73,175,0.3,"stim/43.jpeg",4,3,2,NA,"HouseObjects",2,4,"right","left",0.674000025,0,0,0,1,NA,NA,NA,NA,NA,NA,NA,NA,NA,NA,NA,NA,NA,NA,NA,NA,NA,NA,NA,NA,NA,NA,NA,NA
"72","stim/objects/HouseObjects/scale2.png",176,73,176,0.9,"stim/53.jpeg",5,3,3,NA,"HouseObjects",2,1,"right","right",0.527999878,1,1,0,1,NA,NA,NA,NA,NA,NA,NA,NA,NA,NA,NA,NA,NA,NA,NA,NA,NA,NA,NA,NA,NA,NA,NA,NA
"15","stim/objects/HouseObjects/remote2.png",177,73,177,0.3,"stim/42.jpeg",4,2,2,NA,"HouseObjects",2,2,"right","left",0.542999744,0,0,0,1,NA,NA,NA,NA,NA,NA,NA,NA,NA,NA,NA,NA,NA,NA,NA,NA,NA,NA,NA,NA,NA,NA,NA,NA
"42","stim/objects/HouseObjects/safetypin2.png",178,73,178,0.9,"stim/51.jpeg",5,1,3,NA,"HouseObjects",2,1,"right","right",0.582999945,1,1,0,1,NA,NA,NA,NA,NA,NA,NA,NA,NA,NA,NA,NA,NA,NA,NA,NA,NA,NA,NA,NA,NA,NA,NA,NA
"142","stim/objects/Instruments/pipepiano2.png",179,73,179,0.7,"stim/42.jpeg",4,2,2,NA,"Instruments",1,3,"left","left",0.561999798,1,1,0,1,NA,NA,NA,NA,NA,NA,NA,NA,NA,NA,NA,NA,NA,NA,NA,NA,NA,NA,NA,NA,NA,NA,NA,NA
"159","stim/objects/Instruments/record.png",180,73,180,0.5,"stim/13.jpeg",1,3,1,NA,"Instruments",1,1,"left","right",0.457999945,0,0,0,1,NA,NA,NA,NA,NA,NA,NA,NA,NA,NA,NA,NA,NA,NA,NA,NA,NA,NA,NA,NA,NA,NA,NA,NA
"100","stim/objects/HouseObjects/teapot.png",181,73,181,0.7,"stim/32.jpeg",3,2,2,NA,"HouseObjects",2,1,"right","right",0.61500001,1,1,0,1,NA,NA,NA,NA,NA,NA,NA,NA,NA,NA,NA,NA,NA,NA,NA,NA,NA,NA,NA,NA,NA,NA,NA,NA
"213","stim/objects/Instruments/trombone2.png",182,73,182,0.9,"stim/62.jpeg",6,2,3,NA,"Instruments",1,4,"left","left",0.517999887,1,1,0,1,NA,NA,NA,NA,NA,NA,NA,NA,NA,NA,NA,NA,NA,NA,NA,NA,NA,NA,NA,NA,NA,NA,NA,NA
"43","stim/objects/HouseObjects/safetypin2.png",183,73,183,0.9,"stim/51.jpeg",5,1,3,NA,"HouseObjects",2,2,"right","right",0.440999985,1,1,0,1,NA,NA,NA,NA,NA,NA,NA,NA,NA,NA,NA,NA,NA,NA,NA,NA,NA,NA,NA,NA,NA,NA,NA,NA
"101","stim/objects/HouseObjects/teapot.png",184,73,184,0.7,"stim/32.jpeg",3,2,2,NA,"HouseObjects",2,1,"right","right",0.521999836,1,1,0,1,NA,NA,NA,NA,NA,NA,NA,NA,NA,NA,NA,NA,NA,NA,NA,NA,NA,NA,NA,NA,NA,NA,NA,NA
"44","stim/objects/HouseObjects/safetypin2.png",185,73,185,0.9,"stim/51.jpeg",5,1,3,NA,"HouseObjects",2,2,"right","right",0.464999914,1,1,0,1,NA,NA,NA,NA,NA,NA,NA,NA,NA,NA,NA,NA,NA,NA,NA,NA,NA,NA,NA,NA,NA,NA,NA,NA
"12","stim/objects/HouseObjects/remote.png",186,73,186,0.5,"stim/12.jpeg",1,2,1,NA,"HouseObjects",2,2,"right","left",0.769999743,0,0,0,1,NA,NA,NA,NA,NA,NA,NA,NA,NA,NA,NA,NA,NA,NA,NA,NA,NA,NA,NA,NA,NA,NA,NA,NA
"49","stim/objects/HouseObjects/saw.png",187,73,187,0.5,"stim/22.jpeg",2,2,1,NA,"HouseObjects",2,2,"right","right",0.60800004,1,1,0,1,NA,NA,NA,NA,NA,NA,NA,NA,NA,NA,NA,NA,NA,NA,NA,NA,NA,NA,NA,NA,NA,NA,NA,NA
"214","stim/objects/Instruments/trombone2.png",188,73,188,0.9,"stim/62.jpeg",6,2,3,NA,"Instruments",1,1,"left","left",0.571000099,1,1,0,1,NA,NA,NA,NA,NA,NA,NA,NA,NA,NA,NA,NA,NA,NA,NA,NA,NA,NA,NA,NA,NA,NA,NA,NA
"102","stim/objects/HouseObjects/teapot.png",189,73,189,0.7,"stim/32.jpeg",3,2,2,NA,"HouseObjects",2,4,"right","right",0.64199996,1,1,0,1,NA,NA,NA,NA,NA,NA,NA,NA,NA,NA,NA,NA,NA,NA,NA,NA,NA,NA,NA,NA,NA,NA,NA,NA
"231","stim/objects/Instruments/tuba.png",190,73,190,0.3,"stim/34.jpeg",3,4,2,NA,"Instruments",1,2,"left","right",0.546999931,0,0,0,1,NA,NA,NA,NA,NA,NA,NA,NA,NA,NA,NA,NA,NA,NA,NA,NA,NA,NA,NA,NA,NA,NA,NA,NA
"73","stim/objects/HouseObjects/scale2.png",191,73,191,0.9,"stim/53.jpeg",5,3,3,NA,"HouseObjects",2,2,"right","right",0.914999962,1,1,0,1,NA,NA,NA,NA,NA,NA,NA,NA,NA,NA,NA,NA,NA,NA,NA,NA,NA,NA,NA,NA,NA,NA,NA,NA
"202","stim/objects/Instruments/triangle2.png",192,73,192,0.9,"stim/61.jpeg",6,1,3,NA,"Instruments",1,3,"left","left",0.476999998,1,1,0,1,NA,NA,NA,NA,NA,NA,NA,NA,NA,NA,NA,NA,NA,NA,NA,NA,NA,NA,NA,NA,NA,NA,NA,NA
"31","stim/objects/HouseObjects/rug2.png",193,73,193,0.3,"stim/44.jpeg",4,4,2,NA,"HouseObjects",2,2,"right","left",0.638999939,0,0,0,1,NA,NA,NA,NA,NA,NA,NA,NA,NA,NA,NA,NA,NA,NA,NA,NA,NA,NA,NA,NA,NA,NA,NA,NA
"59","stim/objects/HouseObjects/saw2.png",194,73,194,0.9,"stim/52.jpeg",5,2,3,NA,"HouseObjects",2,2,"right","right",0.652999878,1,1,0,1,NA,NA,NA,NA,NA,NA,NA,NA,NA,NA,NA,NA,NA,NA,NA,NA,NA,NA,NA,NA,NA,NA,NA,NA
"143","stim/objects/Instruments/pipepiano2.png",195,73,195,0.7,"stim/42.jpeg",4,2,2,NA,"Instruments",1,1,"left","left",0.707999945,1,1,0,1,NA,NA,NA,NA,NA,NA,NA,NA,NA,NA,NA,NA,NA,NA,NA,NA,NA,NA,NA,NA,NA,NA,NA,NA
"240","stim/objects/Instruments/tuba2.png",196,73,196,0.9,"stim/64.jpeg",6,4,3,NA,"Instruments",1,2,"left","left",0.603999853,1,1,0,1,NA,NA,NA,NA,NA,NA,NA,NA,NA,NA,NA,NA,NA,NA,NA,NA,NA,NA,NA,NA,NA,NA,NA,NA
"32","stim/objects/HouseObjects/rug2.png",197,73,197,0.3,"stim/44.jpeg",4,4,2,NA,"HouseObjects",2,1,"right","right",0.576999903,1,1,0,1,NA,NA,NA,NA,NA,NA,NA,NA,NA,NA,NA,NA,NA,NA,NA,NA,NA,NA,NA,NA,NA,NA,NA,NA
"190","stim/objects/Instruments/timbal.png",198,73,198,0.5,"stim/24.jpeg",2,4,1,NA,"Instruments",1,3,"left","right",0.507999897,0,0,0,1,NA,NA,NA,NA,NA,NA,NA,NA,NA,NA,NA,NA,NA,NA,NA,NA,NA,NA,NA,NA,NA,NA,NA,NA
"87","stim/objects/HouseObjects/sponge2.png",199,73,199,0.9,"stim/54.jpeg",5,4,3,NA,"HouseObjects",2,4,"right","right",0.597999811,1,1,0,1,NA,NA,NA,NA,NA,NA,NA,NA,NA,NA,NA,NA,NA,NA,NA,NA,NA,NA,NA,NA,NA,NA,NA,NA
"147","stim/objects/Instruments/record_player.png",200,73,200,0.5,"stim/14.jpeg",1,4,1,NA,"Instruments",1,4,"left","right",0.785000086,0,0,0,1,NA,NA,NA,NA,NA,NA,NA,NA,NA,NA,NA,NA,NA,NA,NA,NA,NA,NA,NA,NA,NA,NA,NA,NA
"45","stim/objects/HouseObjects/safetypin2.png",201,73,201,0.9,"stim/51.jpeg",5,1,3,NA,"HouseObjects",2,4,"right","right",0.644999981,1,1,0,1,NA,NA,NA,NA,NA,NA,NA,NA,NA,NA,NA,NA,NA,NA,NA,NA,NA,NA,NA,NA,NA,NA,NA,NA
"94","stim/objects/HouseObjects/spraybottle.png",202,73,202,0.7,"stim/31.jpeg",3,1,2,NA,"HouseObjects",2,4,"right","right",0.625,1,1,0,1,NA,NA,NA,NA,NA,NA,NA,NA,NA,NA,NA,NA,NA,NA,NA,NA,NA,NA,NA,NA,NA,NA,NA,NA
"36","stim/objects/HouseObjects/safetypin.png",203,73,203,0.5,"stim/21.jpeg",2,1,1,NA,"HouseObjects",2,3,"right","left",0.849999905,0,0,0,1,NA,NA,NA,NA,NA,NA,NA,NA,NA,NA,NA,NA,NA,NA,NA,NA,NA,NA,NA,NA,NA,NA,NA,NA
"60","stim/objects/HouseObjects/saw2.png",204,73,204,0.9,"stim/52.jpeg",5,2,3,NA,"HouseObjects",2,3,"right","right",0.599999905,1,1,0,1,NA,NA,NA,NA,NA,NA,NA,NA,NA,NA,NA,NA,NA,NA,NA,NA,NA,NA,NA,NA,NA,NA,NA,NA
"168","stim/objects/Instruments/record2.png",205,73,205,0.7,"stim/43.jpeg",4,3,2,NA,"Instruments",1,4,"left","left",0.75999999,1,1,0,1,NA,NA,NA,NA,NA,NA,NA,NA,NA,NA,NA,NA,NA,NA,NA,NA,NA,NA,NA,NA,NA,NA,NA,NA
"179","stim/objects/Instruments/speaker.png",206,73,206,0.5,"stim/22.jpeg",2,2,1,NA,"Instruments",1,4,"left","right",0.515999794,0,0,0,1,NA,NA,NA,NA,NA,NA,NA,NA,NA,NA,NA,NA,NA,NA,NA,NA,NA,NA,NA,NA,NA,NA,NA,NA
"104","stim/objects/HouseObjects/teapot2.png",207,73,207,0.1,"stim/62.jpeg",6,2,3,NA,"HouseObjects",2,1,"right","left",0.496999979,0,0,0,1,NA,NA,NA,NA,NA,NA,NA,NA,NA,NA,NA,NA,NA,NA,NA,NA,NA,NA,NA,NA,NA,NA,NA,NA
"95","stim/objects/HouseObjects/spraybottle.png",208,73,208,0.7,"stim/31.jpeg",3,1,2,NA,"HouseObjects",2,4,"right","right",0.589999914,1,1,0,1,NA,NA,NA,NA,NA,NA,NA,NA,NA,NA,NA,NA,NA,NA,NA,NA,NA,NA,NA,NA,NA,NA,NA,NA
"195","stim/objects/Instruments/triangle.png",209,73,209,0.3,"stim/31.jpeg",3,1,2,NA,"Instruments",1,3,"left","right",0.548000097,0,0,0,1,NA,NA,NA,NA,NA,NA,NA,NA,NA,NA,NA,NA,NA,NA,NA,NA,NA,NA,NA,NA,NA,NA,NA,NA
"111","stim/objects/HouseObjects/thermometer.png",210,73,210,0.7,"stim/33.jpeg",3,3,2,NA,"HouseObjects",2,2,"right","right",0.859999895,1,1,0,1,NA,NA,NA,NA,NA,NA,NA,NA,NA,NA,NA,NA,NA,NA,NA,NA,NA,NA,NA,NA,NA,NA,NA,NA
"50","stim/objects/HouseObjects/saw.png",211,73,211,0.5,"stim/22.jpeg",2,2,1,NA,"HouseObjects",2,3,"right","left",0.697999954,0,0,0,1,NA,NA,NA,NA,NA,NA,NA,NA,NA,NA,NA,NA,NA,NA,NA,NA,NA,NA,NA,NA,NA,NA,NA,NA
"131","stim/objects/Instruments/panflute2.png",212,73,212,0.7,"stim/41.jpeg",4,1,2,NA,"Instruments",1,2,"left","left",0.785000086,1,1,0,1,NA,NA,NA,NA,NA,NA,NA,NA,NA,NA,NA,NA,NA,NA,NA,NA,NA,NA,NA,NA,NA,NA,NA,NA
"203","stim/objects/Instruments/triangle2.png",213,73,213,0.9,"stim/61.jpeg",6,1,3,NA,"Instruments",1,3,"left","left",0.532000065,1,1,0,1,NA,NA,NA,NA,NA,NA,NA,NA,NA,NA,NA,NA,NA,NA,NA,NA,NA,NA,NA,NA,NA,NA,NA,NA
"148","stim/objects/Instruments/record_player.png",214,73,214,0.5,"stim/14.jpeg",1,4,1,NA,"Instruments",1,1,"left","right",0.392999887,0,0,0,1,NA,NA,NA,NA,NA,NA,NA,NA,NA,NA,NA,NA,NA,NA,NA,NA,NA,NA,NA,NA,NA,NA,NA,NA
"215","stim/objects/Instruments/trombone2.png",215,73,215,0.9,"stim/62.jpeg",6,2,3,NA,"Instruments",1,1,"left","left",0.546999931,1,1,0,1,NA,NA,NA,NA,NA,NA,NA,NA,NA,NA,NA,NA,NA,NA,NA,NA,NA,NA,NA,NA,NA,NA,NA,NA
"88","stim/objects/HouseObjects/sponge2.png",216,73,216,0.9,"stim/54.jpeg",5,4,3,NA,"HouseObjects",2,1,"right","right",0.589999914,1,1,0,1,NA,NA,NA,NA,NA,NA,NA,NA,NA,NA,NA,NA,NA,NA,NA,NA,NA,NA,NA,NA,NA,NA,NA,NA
"74","stim/objects/HouseObjects/scale2.png",217,73,217,0.9,"stim/53.jpeg",5,3,3,NA,"HouseObjects",2,2,"right","right",0.634000063,1,1,0,1,NA,NA,NA,NA,NA,NA,NA,NA,NA,NA,NA,NA,NA,NA,NA,NA,NA,NA,NA,NA,NA,NA,NA,NA
"79","stim/objects/HouseObjects/sponge.png",218,73,218,0.5,"stim/24.jpeg",2,4,1,NA,"HouseObjects",2,2,"right","left",0.63499999,0,0,0,1,NA,NA,NA,NA,NA,NA,NA,NA,NA,NA,NA,NA,NA,NA,NA,NA,NA,NA,NA,NA,NA,NA,NA,NA
"216","stim/objects/Instruments/trombone2.png",219,73,219,0.9,"stim/62.jpeg",6,2,3,NA,"Instruments",1,1,"left","left",0.468999863,1,1,0,1,NA,NA,NA,NA,NA,NA,NA,NA,NA,NA,NA,NA,NA,NA,NA,NA,NA,NA,NA,NA,NA,NA,NA,NA
"125","stim/objects/Instruments/panflute.png",220,73,220,0.5,"stim/11.jpeg",1,1,1,NA,"Instruments",1,1,"left","",NA,0,0,0,1,NA,NA,NA,NA,NA,NA,NA,NA,NA,NA,NA,NA,NA,NA,NA,NA,NA,NA,NA,NA,NA,NA,NA,NA
"119","stim/objects/HouseObjects/thread.png",221,73,221,0.7,"stim/34.jpeg",3,4,2,NA,"HouseObjects",2,4,"right","right",0.513000011,1,1,0,1,NA,NA,NA,NA,NA,NA,NA,NA,NA,NA,NA,NA,NA,NA,NA,NA,NA,NA,NA,NA,NA,NA,NA,NA
"185","stim/objects/Instruments/tambourine.png",222,73,222,0.5,"stim/23.jpeg",2,3,1,NA,"Instruments",1,4,"left","right",0.513999939,0,0,0,1,NA,NA,NA,NA,NA,NA,NA,NA,NA,NA,NA,NA,NA,NA,NA,NA,NA,NA,NA,NA,NA,NA,NA,NA
"37","stim/objects/HouseObjects/safetypin.png",223,73,223,0.5,"stim/21.jpeg",2,1,1,NA,"HouseObjects",2,4,"right","left",0.677999973,0,0,0,1,NA,NA,NA,NA,NA,NA,NA,NA,NA,NA,NA,NA,NA,NA,NA,NA,NA,NA,NA,NA,NA,NA,NA,NA
"191","stim/objects/Instruments/timbal.png",224,73,224,0.5,"stim/24.jpeg",2,4,1,NA,"Instruments",1,2,"left","right",0.517999887,0,0,0,1,NA,NA,NA,NA,NA,NA,NA,NA,NA,NA,NA,NA,NA,NA,NA,NA,NA,NA,NA,NA,NA,NA,NA,NA
"149","stim/objects/Instruments/record_player.png",225,73,225,0.5,"stim/14.jpeg",1,4,1,NA,"Instruments",1,3,"left","right",0.697999954,0,0,0,1,NA,NA,NA,NA,NA,NA,NA,NA,NA,NA,NA,NA,NA,NA,NA,NA,NA,NA,NA,NA,NA,NA,NA,NA
"155","stim/objects/Instruments/record_player2.png",226,73,226,0.7,"stim/44.jpeg",4,4,2,NA,"Instruments",1,1,"left","left",0.672999859,1,1,0,1,NA,NA,NA,NA,NA,NA,NA,NA,NA,NA,NA,NA,NA,NA,NA,NA,NA,NA,NA,NA,NA,NA,NA,NA
"13","stim/objects/HouseObjects/remote.png",227,73,227,0.5,"stim/12.jpeg",1,2,1,NA,"HouseObjects",2,2,"right","right",0.640999794,1,1,0,1,NA,NA,NA,NA,NA,NA,NA,NA,NA,NA,NA,NA,NA,NA,NA,NA,NA,NA,NA,NA,NA,NA,NA,NA
"204","stim/objects/Instruments/triangle2.png",228,73,228,0.9,"stim/61.jpeg",6,1,3,NA,"Instruments",1,2,"left","left",0.540999889,1,1,0,1,NA,NA,NA,NA,NA,NA,NA,NA,NA,NA,NA,NA,NA,NA,NA,NA,NA,NA,NA,NA,NA,NA,NA,NA
"132","stim/objects/Instruments/panflute2.png",229,73,229,0.7,"stim/41.jpeg",4,1,2,NA,"Instruments",1,3,"left","right",0.544999838,0,0,0,1,NA,NA,NA,NA,NA,NA,NA,NA,NA,NA,NA,NA,NA,NA,NA,NA,NA,NA,NA,NA,NA,NA,NA,NA
"160","stim/objects/Instruments/record.png",230,73,230,0.5,"stim/13.jpeg",1,3,1,NA,"Instruments",1,3,"left","right",0.65199995,0,0,0,1,NA,NA,NA,NA,NA,NA,NA,NA,NA,NA,NA,NA,NA,NA,NA,NA,NA,NA,NA,NA,NA,NA,NA,NA
"103","stim/objects/HouseObjects/teapot.png",231,73,231,0.7,"stim/32.jpeg",3,2,2,NA,"HouseObjects",2,4,"right","right",0.471999884,1,1,0,1,NA,NA,NA,NA,NA,NA,NA,NA,NA,NA,NA,NA,NA,NA,NA,NA,NA,NA,NA,NA,NA,NA,NA,NA
"206","stim/objects/Instruments/trombone.png",232,73,232,0.3,"stim/32.jpeg",3,2,2,NA,"Instruments",1,3,"left","right",0.623999834,0,0,0,1,NA,NA,NA,NA,NA,NA,NA,NA,NA,NA,NA,NA,NA,NA,NA,NA,NA,NA,NA,NA,NA,NA,NA,NA
"161","stim/objects/Instruments/record.png",233,73,233,0.5,"stim/13.jpeg",1,3,1,NA,"Instruments",1,3,"left","left",0.936999798,1,1,0,1,NA,NA,NA,NA,NA,NA,NA,NA,NA,NA,NA,NA,NA,NA,NA,NA,NA,NA,NA,NA,NA,NA,NA,NA
"46","stim/objects/HouseObjects/safetypin2.png",234,73,234,0.9,"stim/51.jpeg",5,1,3,NA,"HouseObjects",2,4,"right","right",0.496999979,1,1,0,1,NA,NA,NA,NA,NA,NA,NA,NA,NA,NA,NA,NA,NA,NA,NA,NA,NA,NA,NA,NA,NA,NA,NA,NA
"144","stim/objects/Instruments/pipepiano2.png",235,73,235,0.7,"stim/42.jpeg",4,2,2,NA,"Instruments",1,1,"left","left",0.563999891,1,1,0,1,NA,NA,NA,NA,NA,NA,NA,NA,NA,NA,NA,NA,NA,NA,NA,NA,NA,NA,NA,NA,NA,NA,NA,NA
"207","stim/objects/Instruments/trombone.png",236,73,236,0.3,"stim/32.jpeg",3,2,2,NA,"Instruments",1,2,"left","right",0.444999933,0,0,0,1,NA,NA,NA,NA,NA,NA,NA,NA,NA,NA,NA,NA,NA,NA,NA,NA,NA,NA,NA,NA,NA,NA,NA,NA
"51","stim/objects/HouseObjects/saw.png",237,73,237,0.5,"stim/22.jpeg",2,2,1,NA,"HouseObjects",2,1,"right","right",0.613000154,1,1,0,1,NA,NA,NA,NA,NA,NA,NA,NA,NA,NA,NA,NA,NA,NA,NA,NA,NA,NA,NA,NA,NA,NA,NA,NA
"156","stim/objects/Instruments/record_player2.png",238,73,238,0.7,"stim/44.jpeg",4,4,2,NA,"Instruments",1,2,"left","right",0.674000025,0,0,0,1,NA,NA,NA,NA,NA,NA,NA,NA,NA,NA,NA,NA,NA,NA,NA,NA,NA,NA,NA,NA,NA,NA,NA,NA
"112","stim/objects/HouseObjects/thermometer2.png",239,73,239,0.1,"stim/63.jpeg",6,3,3,NA,"HouseObjects",2,4,"right","left",0.805999994,0,0,0,1,NA,NA,NA,NA,NA,NA,NA,NA,NA,NA,NA,NA,NA,NA,NA,NA,NA,NA,NA,NA,NA,NA,NA,NA
"16","stim/objects/HouseObjects/remote2.png",240,73,240,0.3,"stim/42.jpeg",4,2,2,NA,"HouseObjects",2,3,"right","right",0.612999916,1,1,0,1,NA,NA,NA,NA,NA,NA,NA,NA,NA,NA,NA,NA,NA,NA,NA,NA,NA,NA,NA,NA,NA,NA,NA,NA
"473","stim/objects/Instruments/flutetrans3.png",248,73,241,0.9,"stim/61.jpeg",6,1,3,2,"Instruments",1,3,"left","right",0.896999836,0,0,1,0,NA,NA,NA,NA,NA,NA,NA,NA,NA,NA,NA,NA,NA,NA,NA,NA,NA,NA,NA,NA,NA,NA,NA,NA
"325","stim/objects/HouseObjects/flyswatter3.png",249,73,242,0.9,"stim/54.jpeg",5,4,3,2,"HouseObjects",2,4,"right","",NA,0,0,1,0,NA,NA,NA,NA,NA,NA,NA,NA,NA,NA,NA,NA,NA,NA,NA,NA,NA,NA,NA,NA,NA,NA,NA,NA
"308","stim/objects/HouseObjects/dustpan3.png",250,73,243,0.9,"stim/53.jpeg",5,3,3,2,"HouseObjects",2,1,"right","left",0.480999947,0,0,1,0,NA,NA,NA,NA,NA,NA,NA,NA,NA,NA,NA,NA,NA,NA,NA,NA,NA,NA,NA,NA,NA,NA,NA,NA
"268","stim/objects/HouseObjects/clock3.png",251,73,244,0.5,"stim/23.jpeg",2,3,1,2,"HouseObjects",2,4,"right","right",0.707000017,1,1,1,0,NA,NA,NA,NA,NA,NA,NA,NA,NA,NA,NA,NA,NA,NA,NA,NA,NA,NA,NA,NA,NA,NA,NA,NA
"456","stim/objects/Instruments/flute3.png",252,73,245,0.9,"stim/63.jpeg",6,3,3,2,"Instruments",1,3,"left","left",0.523999929,1,1,1,0,NA,NA,NA,NA,NA,NA,NA,NA,NA,NA,NA,NA,NA,NA,NA,NA,NA,NA,NA,NA,NA,NA,NA,NA
"309","stim/objects/HouseObjects/dustpan3.png",253,73,246,0.9,"stim/54.jpeg",5,4,3,2,"HouseObjects",2,1,"right","right",0.464999914,1,1,1,0,NA,NA,NA,NA,NA,NA,NA,NA,NA,NA,NA,NA,NA,NA,NA,NA,NA,NA,NA,NA,NA,NA,NA,NA
"408","stim/objects/Instruments/accordion4.png",254,73,247,0.3,"stim/32.jpeg",3,2,2,1,"Instruments",1,4,"left","right",0.585999966,0,0,1,0,132,73,1,0.3,1,"stim/32.jpeg",3,2,"stim/32.jpeg",4,"left",2.023000002,3,1,1.654000044,2,1.582000017,132,1,0,0,0,0,0
"244","stim/objects/HouseObjects/ballofstring3.png",255,73,248,0.5,"stim/11.jpeg",1,1,1,2,"HouseObjects",2,2,"right","right",0.672999859,1,1,1,0,NA,NA,NA,NA,NA,NA,NA,NA,NA,NA,NA,NA,NA,NA,NA,NA,NA,NA,NA,NA,NA,NA,NA,NA
"291","stim/objects/HouseObjects/doormat3.png",256,73,249,0.9,"stim/53.jpeg",5,3,3,2,"HouseObjects",2,2,"right","right",0.522000074,1,1,1,0,NA,NA,NA,NA,NA,NA,NA,NA,NA,NA,NA,NA,NA,NA,NA,NA,NA,NA,NA,NA,NA,NA,NA,NA
"455","stim/objects/Instruments/electricguitar4.png",257,73,250,0.7,"stim/41.jpeg",4,1,2,1,"Instruments",1,3,"left","left",0.591999769,1,1,1,0,65,73,1,0.7,1,"stim/41.jpeg",4,1,"stim/41.jpeg",3,"right",3.628999949,3,3,1.406999826,2,4.980999947,65,0,0,NA,0,NA,0
"490","stim/objects/Instruments/frenchhorn3.png",258,73,251,0.9,"stim/63.jpeg",6,3,3,2,"Instruments",1,3,"left","left",0.529000044,1,1,1,0,NA,NA,NA,NA,NA,NA,NA,NA,NA,NA,NA,NA,NA,NA,NA,NA,NA,NA,NA,NA,NA,NA,NA,NA
"310","stim/objects/HouseObjects/dustpan3.png",259,73,252,0.9,"stim/54.jpeg",5,4,3,2,"HouseObjects",2,1,"right","right",0.605999947,1,1,1,0,NA,NA,NA,NA,NA,NA,NA,NA,NA,NA,NA,NA,NA,NA,NA,NA,NA,NA,NA,NA,NA,NA,NA,NA
"507","stim/objects/Instruments/gong3.png",260,73,253,0.9,"stim/63.jpeg",6,3,3,2,"Instruments",1,3,"left","left",0.530999899,1,1,1,0,NA,NA,NA,NA,NA,NA,NA,NA,NA,NA,NA,NA,NA,NA,NA,NA,NA,NA,NA,NA,NA,NA,NA,NA
"474","stim/objects/Instruments/flutetrans3.png",261,73,254,0.9,"stim/63.jpeg",6,3,3,2,"Instruments",1,4,"left","left",0.596999884,1,1,1,0,NA,NA,NA,NA,NA,NA,NA,NA,NA,NA,NA,NA,NA,NA,NA,NA,NA,NA,NA,NA,NA,NA,NA,NA
"557","stim/objects/Instruments/metronome3.png",262,73,255,0.5,"stim/24.jpeg",2,4,1,1,"Instruments",1,2,"left","right",0.65899992,0,0,1,0,105,73,1,0.5,2,"stim/24.jpeg",2,4,"stim/24.jpeg",2,"right",1.525000095,3,1,1.59100008,2,0.867999792,105,0,0,NA,1,NA,0
"457","stim/objects/Instruments/flute3.png",263,73,256,0.9,"stim/62.jpeg",6,2,3,2,"Instruments",1,1,"left","left",0.505999804,1,1,1,0,NA,NA,NA,NA,NA,NA,NA,NA,NA,NA,NA,NA,NA,NA,NA,NA,NA,NA,NA,NA,NA,NA,NA,NA
"359","stim/objects/HouseObjects/glass3.png",264,73,257,0.9,"stim/52.jpeg",5,2,3,2,"HouseObjects",2,4,"right","right",0.710000038,1,1,1,0,NA,NA,NA,NA,NA,NA,NA,NA,NA,NA,NA,NA,NA,NA,NA,NA,NA,NA,NA,NA,NA,NA,NA,NA
"543","stim/objects/Instruments/harmonica3.png",265,73,258,0.5,"stim/14.jpeg",1,4,1,1,"Instruments",1,3,"left","right",0.757999897,0,0,1,0,164,73,1,0.5,1,"stim/14.jpeg",1,4,"stim/14.jpeg",3,"right",1.078999996,2,4,1.335999966,3,1.263999939,164,0,1,NA,1,NA,0
"421","stim/objects/Instruments/bassguitar3.png",266,73,259,0.5,"stim/23.jpeg",2,3,1,2,"Instruments",1,4,"left","right",0.790999889,0,0,1,0,NA,NA,NA,NA,NA,NA,NA,NA,NA,NA,NA,NA,NA,NA,NA,NA,NA,NA,NA,NA,NA,NA,NA,NA
"491","stim/objects/Instruments/frenchhorn3.png",267,73,260,0.9,"stim/63.jpeg",6,3,3,2,"Instruments",1,1,"left","left",0.55099988,1,1,1,0,NA,NA,NA,NA,NA,NA,NA,NA,NA,NA,NA,NA,NA,NA,NA,NA,NA,NA,NA,NA,NA,NA,NA,NA
"403","stim/objects/HouseObjects/vacuumcleaner4.png",268,73,261,0.1,"stim/63.jpeg",6,3,3,1,"HouseObjects",2,4,"right","left",0.506999969,0,0,1,0,171,73,1,0.1,2,"stim/63.jpeg",6,3,"stim/63.jpeg",4,"right",1.264999866,2,2,2.114000082,1,0.493999958,171,0,0,NA,0,NA,0
"361","stim/objects/HouseObjects/glass3.png",269,73,262,0.9,"stim/53.jpeg",5,3,3,2,"HouseObjects",2,2,"right","right",0.628000021,1,1,1,0,NA,NA,NA,NA,NA,NA,NA,NA,NA,NA,NA,NA,NA,NA,NA,NA,NA,NA,NA,NA,NA,NA,NA,NA
"426","stim/objects/Instruments/cello4.png",270,73,263,0.7,"stim/41.jpeg",4,1,2,1,"Instruments",1,1,"left","left",0.757999897,1,1,1,0,85,73,1,0.7,1,"stim/41.jpeg",4,1,"stim/41.jpeg",1,"left",0.801000118,3,1,1.92599988,1,1.282999992,85,1,1,1,1,1,0
"508","stim/objects/Instruments/gong3.png",271,73,264,0.9,"stim/62.jpeg",6,2,3,2,"Instruments",1,4,"left","left",0.55099988,1,1,1,0,NA,NA,NA,NA,NA,NA,NA,NA,NA,NA,NA,NA,NA,NA,NA,NA,NA,NA,NA,NA,NA,NA,NA,NA
"444","stim/objects/Instruments/drums3.png",272,73,265,0.7,"stim/43.jpeg",4,3,2,2,"Instruments",1,3,"left","right",0.774999857,0,0,1,0,NA,NA,NA,NA,NA,NA,NA,NA,NA,NA,NA,NA,NA,NA,NA,NA,NA,NA,NA,NA,NA,NA,NA,NA
"509","stim/objects/Instruments/gong3.png",273,73,266,0.9,"stim/62.jpeg",6,2,3,2,"Instruments",1,2,"left","",NA,0,0,1,0,NA,NA,NA,NA,NA,NA,NA,NA,NA,NA,NA,NA,NA,NA,NA,NA,NA,NA,NA,NA,NA,NA,NA,NA
"452","stim/objects/Instruments/electricguitar3.png",274,73,267,0.7,"stim/42.jpeg",4,2,2,2,"Instruments",1,1,"left","left",0.495999813,1,1,1,0,NA,NA,NA,NA,NA,NA,NA,NA,NA,NA,NA,NA,NA,NA,NA,NA,NA,NA,NA,NA,NA,NA,NA,NA
"327","stim/objects/HouseObjects/flyswatter3.png",275,73,268,0.9,"stim/51.jpeg",5,1,3,2,"HouseObjects",2,4,"right","right",0.559999943,1,1,1,0,NA,NA,NA,NA,NA,NA,NA,NA,NA,NA,NA,NA,NA,NA,NA,NA,NA,NA,NA,NA,NA,NA,NA,NA
"243","stim/objects/HouseObjects/ashtray4.png",276,73,269,0.7,"stim/33.jpeg",3,3,2,1,"HouseObjects",2,1,"right","right",0.711999893,1,1,1,0,8,73,1,0.7,2,"stim/33.jpeg",3,3,"stim/33.jpeg",1,"left",1.573999882,4,3,2.641000032,4,2.411000013,8,1,1,1,0,0,0
"362","stim/objects/HouseObjects/glass3.png",277,73,270,0.9,"stim/52.jpeg",5,2,3,2,"HouseObjects",2,2,"right","right",0.460000038,1,1,1,0,NA,NA,NA,NA,NA,NA,NA,NA,NA,NA,NA,NA,NA,NA,NA,NA,NA,NA,NA,NA,NA,NA,NA,NA
"475","stim/objects/Instruments/flutetrans3.png",278,73,271,0.9,"stim/63.jpeg",6,3,3,2,"Instruments",1,1,"left","left",0.542000055,1,1,1,0,NA,NA,NA,NA,NA,NA,NA,NA,NA,NA,NA,NA,NA,NA,NA,NA,NA,NA,NA,NA,NA,NA,NA,NA
"287","stim/objects/HouseObjects/dishsoap3.png",279,73,272,0.7,"stim/34.jpeg",3,4,2,2,"HouseObjects",2,4,"right","right",0.465999842,1,1,1,0,NA,NA,NA,NA,NA,NA,NA,NA,NA,NA,NA,NA,NA,NA,NA,NA,NA,NA,NA,NA,NA,NA,NA,NA
"293","stim/objects/HouseObjects/doormat3.png",280,73,273,0.9,"stim/53.jpeg",5,3,3,2,"HouseObjects",2,3,"right","right",0.51699996,1,1,1,0,NA,NA,NA,NA,NA,NA,NA,NA,NA,NA,NA,NA,NA,NA,NA,NA,NA,NA,NA,NA,NA,NA,NA,NA
"401","stim/objects/HouseObjects/towel4.png",281,73,274,0.1,"stim/62.jpeg",6,2,3,1,"HouseObjects",2,2,"right","left",0.524999857,0,0,1,0,196,73,1,0.1,2,"stim/62.jpeg",6,2,"stim/62.jpeg",2,"right",0.904000044,2,4,2.296999931,2,0.803999901,196,0,0,NA,1,NA,0
"510","stim/objects/Instruments/gong3.png",282,73,275,0.9,"stim/64.jpeg",6,4,3,2,"Instruments",1,2,"left","left",0.519999981,1,1,1,0,NA,NA,NA,NA,NA,NA,NA,NA,NA,NA,NA,NA,NA,NA,NA,NA,NA,NA,NA,NA,NA,NA,NA,NA
"476","stim/objects/Instruments/flutetrans3.png",283,73,276,0.9,"stim/64.jpeg",6,4,3,2,"Instruments",1,1,"left","left",0.421999931,1,1,1,0,NA,NA,NA,NA,NA,NA,NA,NA,NA,NA,NA,NA,NA,NA,NA,NA,NA,NA,NA,NA,NA,NA,NA,NA
"566","stim/objects/Instruments/violin4.png",284,73,277,0.9,"stim/64.jpeg",6,4,3,1,"Instruments",1,3,"left","left",0.36500001,1,1,1,0,187,73,1,0.9,1,"stim/64.jpeg",6,4,"stim/64.jpeg",3,"left",0.600999832,3,4,1.540999889,3,1.323999882,187,1,1,1,1,1,0
"274","stim/objects/HouseObjects/clothesdryingrack4.png",285,73,278,0.3,"stim/43.jpeg",4,3,2,1,"HouseObjects",2,2,"right","left",0.756999969,0,0,1,0,177,73,1,0.3,2,"stim/43.jpeg",4,3,"stim/43.jpeg",2,"left",1.25999999,3,3,1.388000011,1,3.804000139,177,1,1,1,0,0,0
"436","stim/objects/Instruments/cymbal3.png",286,73,279,0.7,"stim/42.jpeg",4,2,2,2,"Instruments",1,4,"left","left",0.605999947,1,1,1,0,NA,NA,NA,NA,NA,NA,NA,NA,NA,NA,NA,NA,NA,NA,NA,NA,NA,NA,NA,NA,NA,NA,NA,NA
"396","stim/objects/HouseObjects/pan3.png",287,73,280,0.7,"stim/32.jpeg",3,2,2,1,"HouseObjects",2,2,"right","right",0.777999878,1,1,1,0,107,73,1,0.7,2,"stim/32.jpeg",3,2,"stim/32.jpeg",2,"left",1.079000235,4,4,2.141000032,4,1.200000048,107,1,0,0,0,0,0
"392","stim/objects/HouseObjects/lintroller3.png",288,73,281,0.5,"stim/23.jpeg",2,3,1,1,"HouseObjects",2,3,"right","right",0.639999866,1,1,1,0,47,73,1,0.5,2,"stim/23.jpeg",2,3,"stim/23.jpeg",3,"right",1.56400013,2,4,1.731000185,1,1.181999922,47,0,0,NA,0,NA,0
"418","stim/objects/Instruments/bassdrum3.png",289,73,282,0.5,"stim/11.jpeg",1,1,1,2,"Instruments",1,3,"left","right",0.773000002,0,0,1,0,NA,NA,NA,NA,NA,NA,NA,NA,NA,NA,NA,NA,NA,NA,NA,NA,NA,NA,NA,NA,NA,NA,NA,NA
"311","stim/objects/HouseObjects/dustpan3.png",290,73,283,0.9,"stim/53.jpeg",5,3,3,2,"HouseObjects",2,4,"right","right",0.760999918,1,1,1,0,NA,NA,NA,NA,NA,NA,NA,NA,NA,NA,NA,NA,NA,NA,NA,NA,NA,NA,NA,NA,NA,NA,NA,NA
"377","stim/objects/HouseObjects/glassmop4.png",291,73,284,0.9,"stim/54.jpeg",5,4,3,1,"HouseObjects",2,3,"right","right",0.646999836,1,1,1,0,75,73,1,0.9,2,"stim/54.jpeg",5,4,"stim/54.jpeg",3,"right",0.698999882,4,4,1.329999924,4,1.537000179,75,0,1,NA,0,NA,0
"328","stim/objects/HouseObjects/flyswatter3.png",292,73,285,0.9,"stim/51.jpeg",5,1,3,2,"HouseObjects",2,4,"right","right",0.515999794,1,1,1,0,NA,NA,NA,NA,NA,NA,NA,NA,NA,NA,NA,NA,NA,NA,NA,NA,NA,NA,NA,NA,NA,NA,NA,NA
"294","stim/objects/HouseObjects/doormat3.png",293,73,286,0.9,"stim/52.jpeg",5,2,3,2,"HouseObjects",2,2,"right","right",0.485000134,1,1,1,0,NA,NA,NA,NA,NA,NA,NA,NA,NA,NA,NA,NA,NA,NA,NA,NA,NA,NA,NA,NA,NA,NA,NA,NA
"561","stim/objects/Instruments/musicstand3.png",294,73,287,0.3,"stim/31.jpeg",3,1,2,1,"Instruments",1,2,"left","right",0.58100009,0,0,1,0,111,73,1,0.3,1,"stim/31.jpeg",3,1,"stim/31.jpeg",2,"left",9.333999872,4,1,1.266000032,2,2.46600008,111,1,1,1,1,1,0
"363","stim/objects/HouseObjects/glass3.png",295,73,288,0.9,"stim/52.jpeg",5,2,3,2,"HouseObjects",2,1,"right","left",0.566999912,0,0,1,0,NA,NA,NA,NA,NA,NA,NA,NA,NA,NA,NA,NA,NA,NA,NA,NA,NA,NA,NA,NA,NA,NA,NA,NA
"343","stim/objects/HouseObjects/garbagebin3.png",296,73,289,0.9,"stim/51.jpeg",5,1,3,2,"HouseObjects",2,4,"right","right",0.572999954,1,1,1,0,NA,NA,NA,NA,NA,NA,NA,NA,NA,NA,NA,NA,NA,NA,NA,NA,NA,NA,NA,NA,NA,NA,NA,NA
"364","stim/objects/HouseObjects/glass3.png",297,73,290,0.9,"stim/54.jpeg",5,4,3,2,"HouseObjects",2,3,"right","right",0.724999905,1,1,1,0,NA,NA,NA,NA,NA,NA,NA,NA,NA,NA,NA,NA,NA,NA,NA,NA,NA,NA,NA,NA,NA,NA,NA,NA
"262","stim/objects/HouseObjects/broom3.png",298,73,291,0.5,"stim/21.jpeg",2,1,1,2,"HouseObjects",2,3,"right","right",0.698999882,1,1,1,0,NA,NA,NA,NA,NA,NA,NA,NA,NA,NA,NA,NA,NA,NA,NA,NA,NA,NA,NA,NA,NA,NA,NA,NA
"420","stim/objects/Instruments/bassdrum4.png",299,73,292,0.3,"stim/32.jpeg",3,2,2,1,"Instruments",1,3,"left","right",0.710999966,0,0,1,0,140,73,1,0.3,1,"stim/32.jpeg",3,2,"stim/32.jpeg",3,"left",1.338999987,3,4,0.744999886,3,0.021999836,140,1,0,0,1,1,0
"511","stim/objects/Instruments/gong3.png",300,73,293,0.9,"stim/64.jpeg",6,4,3,2,"Instruments",1,2,"left","left",0.431999922,1,1,1,0,NA,NA,NA,NA,NA,NA,NA,NA,NA,NA,NA,NA,NA,NA,NA,NA,NA,NA,NA,NA,NA,NA,NA,NA
"312","stim/objects/HouseObjects/dustpan3.png",301,73,294,0.9,"stim/52.jpeg",5,2,3,2,"HouseObjects",2,4,"right","right",0.585999966,1,1,1,0,NA,NA,NA,NA,NA,NA,NA,NA,NA,NA,NA,NA,NA,NA,NA,NA,NA,NA,NA,NA,NA,NA,NA,NA
"386","stim/objects/HouseObjects/ironingboard3.png",302,73,295,0.5,"stim/24.jpeg",2,4,1,1,"HouseObjects",2,1,"right","right",0.823999882,1,1,1,0,57,73,1,0.5,2,"stim/24.jpeg",2,4,"stim/24.jpeg",1,"right",1.618000031,2,4,1.23300004,2,0.724999905,57,0,1,NA,0,NA,0
"282","stim/objects/HouseObjects/coffee4.png",303,73,296,0.3,"stim/41.jpeg",4,1,2,1,"HouseObjects",2,3,"right","left",0.644999981,0,0,1,0,72,73,1,0.3,2,"stim/41.jpeg",4,1,"stim/41.jpeg",3,"right",0.940999985,1,3,1.026000023,1,1.05099988,72,0,0,NA,0,NA,0
"344","stim/objects/HouseObjects/garbagebin3.png",304,73,297,0.9,"stim/53.jpeg",5,3,3,2,"HouseObjects",2,4,"right","right",0.580999851,1,1,1,0,NA,NA,NA,NA,NA,NA,NA,NA,NA,NA,NA,NA,NA,NA,NA,NA,NA,NA,NA,NA,NA,NA,NA,NA
"512","stim/objects/Instruments/gong3.png",305,73,298,0.9,"stim/62.jpeg",6,2,3,2,"Instruments",1,2,"left","right",0.713999987,0,0,1,0,NA,NA,NA,NA,NA,NA,NA,NA,NA,NA,NA,NA,NA,NA,NA,NA,NA,NA,NA,NA,NA,NA,NA,NA
"345","stim/objects/HouseObjects/garbagebin3.png",306,73,299,0.9,"stim/52.jpeg",5,2,3,2,"HouseObjects",2,3,"right","right",0.921999931,1,1,1,0,NA,NA,NA,NA,NA,NA,NA,NA,NA,NA,NA,NA,NA,NA,NA,NA,NA,NA,NA,NA,NA,NA,NA,NA
"251","stim/objects/HouseObjects/basket3.png",307,73,300,0.5,"stim/14.jpeg",1,4,1,2,"HouseObjects",2,1,"right","right",0.775000095,1,1,1,0,NA,NA,NA,NA,NA,NA,NA,NA,NA,NA,NA,NA,NA,NA,NA,NA,NA,NA,NA,NA,NA,NA,NA,NA
"269","stim/objects/HouseObjects/clock3.png",308,73,301,0.5,"stim/22.jpeg",2,2,1,2,"HouseObjects",2,2,"right","right",0.697999954,1,1,1,0,NA,NA,NA,NA,NA,NA,NA,NA,NA,NA,NA,NA,NA,NA,NA,NA,NA,NA,NA,NA,NA,NA,NA,NA
"388","stim/objects/HouseObjects/key3.png",309,73,302,0.5,"stim/21.jpeg",2,1,1,1,"HouseObjects",2,4,"right","",NA,0,0,1,0,76,73,1,0.5,2,"stim/21.jpeg",2,1,"stim/21.jpeg",4,"left",1.212000132,3,3,3.664000034,3,1.452000141,76,1,0,0,0,0,0
"271","stim/objects/HouseObjects/clothesdryingrack3.png",310,73,303,0.7,"stim/33.jpeg",3,3,2,2,"HouseObjects",2,4,"right","right",0.444000006,1,1,1,0,NA,NA,NA,NA,NA,NA,NA,NA,NA,NA,NA,NA,NA,NA,NA,NA,NA,NA,NA,NA,NA,NA,NA,NA
"283","stim/objects/HouseObjects/cushion3.png",311,73,304,0.7,"stim/32.jpeg",3,2,2,2,"HouseObjects",2,1,"right","right",0.487999916,1,1,1,0,NA,NA,NA,NA,NA,NA,NA,NA,NA,NA,NA,NA,NA,NA,NA,NA,NA,NA,NA,NA,NA,NA,NA,NA
"448","stim/objects/Instruments/electricdrumset3.png",312,73,305,0.7,"stim/44.jpeg",4,4,2,2,"Instruments",1,1,"left","left",0.842999935,1,1,1,0,NA,NA,NA,NA,NA,NA,NA,NA,NA,NA,NA,NA,NA,NA,NA,NA,NA,NA,NA,NA,NA,NA,NA,NA
"569","stim/objects/Instruments/xylophone3.png",313,73,306,0.3,"stim/31.jpeg",3,1,2,1,"Instruments",1,3,"left","right",0.559000015,0,0,1,0,55,73,1,0.3,1,"stim/31.jpeg",3,1,"stim/31.jpeg",3,"left",1.869999886,3,1,2.220999956,3,1.141000032,55,1,1,1,1,1,0
"549","stim/objects/Instruments/keyboard3.png",314,73,307,0.5,"stim/13.jpeg",1,3,1,1,"Instruments",1,2,"left","right",0.820999861,0,0,1,0,194,73,1,0.5,1,"stim/13.jpeg",1,3,"stim/13.jpeg",2,"right",2.391000032,4,3,0.693999767,2,0.960000038,194,0,1,NA,1,NA,0
"435","stim/objects/Instruments/cornet4.png",315,73,308,0.7,"stim/44.jpeg",4,4,2,1,"Instruments",1,4,"left","left",0.743999958,1,1,1,0,102,73,1,0.7,1,"stim/44.jpeg",4,4,"stim/44.jpeg",4,"left",2.642999887,3,4,3.493999958,2,0.933000088,102,1,1,1,0,0,0
"272","stim/objects/HouseObjects/clothesdryingrack3.png",316,73,309,0.7,"stim/31.jpeg",3,1,2,2,"HouseObjects",2,1,"right","left",0.809999943,0,0,1,0,NA,NA,NA,NA,NA,NA,NA,NA,NA,NA,NA,NA,NA,NA,NA,NA,NA,NA,NA,NA,NA,NA,NA,NA
"419","stim/objects/Instruments/bassdrum3.png",317,73,310,0.5,"stim/12.jpeg",1,2,1,2,"Instruments",1,4,"left","right",0.661999941,0,0,1,0,NA,NA,NA,NA,NA,NA,NA,NA,NA,NA,NA,NA,NA,NA,NA,NA,NA,NA,NA,NA,NA,NA,NA,NA
"458","stim/objects/Instruments/flute3.png",318,73,311,0.9,"stim/64.jpeg",6,4,3,2,"Instruments",1,4,"left","left",0.598999977,1,1,1,0,NA,NA,NA,NA,NA,NA,NA,NA,NA,NA,NA,NA,NA,NA,NA,NA,NA,NA,NA,NA,NA,NA,NA,NA
"375","stim/objects/HouseObjects/glass4.png",319,73,312,0.9,"stim/53.jpeg",5,3,3,1,"HouseObjects",2,4,"right","right",0.776000023,1,1,1,0,191,73,1,0.9,2,"stim/53.jpeg",5,3,"stim/53.jpeg",4,"left",0.815000057,3,2,1.290999889,3,0.527999878,191,1,0,0,0,0,0
"555","stim/objects/Instruments/marimba3.png",320,73,313,0.5,"stim/23.jpeg",2,3,1,1,"Instruments",1,2,"left","right",0.898999929,0,0,1,0,142,73,1,0.5,2,"stim/23.jpeg",2,3,"stim/23.jpeg",2,"right",3.492000103,4,4,2.752000093,2,0.986999989,142,0,0,NA,1,NA,0
"295","stim/objects/HouseObjects/doormat3.png",321,73,314,0.9,"stim/51.jpeg",5,1,3,2,"HouseObjects",2,1,"right","right",0.589999914,1,1,1,0,NA,NA,NA,NA,NA,NA,NA,NA,NA,NA,NA,NA,NA,NA,NA,NA,NA,NA,NA,NA,NA,NA,NA,NA
"265","stim/objects/HouseObjects/bucket3.png",322,73,315,0.5,"stim/22.jpeg",2,2,1,2,"HouseObjects",2,3,"right","right",0.706999779,1,1,1,0,NA,NA,NA,NA,NA,NA,NA,NA,NA,NA,NA,NA,NA,NA,NA,NA,NA,NA,NA,NA,NA,NA,NA,NA
"459","stim/objects/Instruments/flute3.png",323,73,316,0.9,"stim/64.jpeg",6,4,3,2,"Instruments",1,1,"left","left",0.532999992,1,1,1,0,NA,NA,NA,NA,NA,NA,NA,NA,NA,NA,NA,NA,NA,NA,NA,NA,NA,NA,NA,NA,NA,NA,NA,NA
"384","stim/objects/HouseObjects/iron3.png",324,73,317,0.5,"stim/12.jpeg",1,2,1,1,"HouseObjects",2,2,"right","right",0.671000004,1,1,1,0,20,73,1,0.5,1,"stim/12.jpeg",1,2,"stim/12.jpeg",2,"right",1.65199995,4,4,0.963000059,4,0.746999979,20,0,0,NA,0,NA,0
"544","stim/objects/Instruments/harmonica4.png",325,73,318,0.1,"stim/53.jpeg",5,3,3,1,"Instruments",1,3,"left","right",0.628999949,0,0,1,0,144,73,1,0.1,1,"stim/53.jpeg",5,3,"stim/53.jpeg",3,"right",3.493000031,3,1,1.473999977,4,0.535000086,144,0,0,NA,0,NA,0
"378","stim/objects/HouseObjects/hairdryer3.png",326,73,319,0.5,"stim/13.jpeg",1,3,1,1,"HouseObjects",2,1,"right","right",0.694000006,1,1,1,0,116,73,1,0.5,1,"stim/13.jpeg",1,3,"stim/13.jpeg",1,"right",0.996999979,1,4,1.853999853,2,1.789000034,116,0,0,NA,0,NA,0
"477","stim/objects/Instruments/flutetrans3.png",327,73,320,0.9,"stim/62.jpeg",6,2,3,2,"Instruments",1,4,"left","left",0.60800004,1,1,1,0,NA,NA,NA,NA,NA,NA,NA,NA,NA,NA,NA,NA,NA,NA,NA,NA,NA,NA,NA,NA,NA,NA,NA,NA
"554","stim/objects/Instruments/maraca4.png",328,73,321,0.9,"stim/62.jpeg",6,2,3,1,"Instruments",1,4,"left","left",0.534999847,1,1,1,0,34,73,1,0.9,1,"stim/62.jpeg",6,2,"stim/62.jpeg",4,"left",1.792999983,3,3,3.809000015,1,2.198999882,34,1,0,0,0,0,0
"376","stim/objects/HouseObjects/glassmop3.png",329,73,322,0.5,"stim/12.jpeg",1,2,1,1,"HouseObjects",2,4,"right","right",0.493999958,1,1,1,0,198,73,1,0.5,1,"stim/12.jpeg",1,2,"stim/12.jpeg",4,"left",1.245000124,4,3,2.430000067,2,0.995000124,198,1,0,0,0,0,0
"346","stim/objects/HouseObjects/garbagebin3.png",330,73,323,0.9,"stim/52.jpeg",5,2,3,2,"HouseObjects",2,2,"right","right",0.907999754,1,1,1,0,NA,NA,NA,NA,NA,NA,NA,NA,NA,NA,NA,NA,NA,NA,NA,NA,NA,NA,NA,NA,NA,NA,NA,NA
"559","stim/objects/Instruments/musicsheet3.png",331,73,324,0.5,"stim/21.jpeg",2,1,1,1,"Instruments",1,1,"left","right",0.552999973,0,0,1,0,16,73,1,0.5,2,"stim/21.jpeg",2,1,"stim/21.jpeg",1,"right",0.888000011,4,4,0.707999945,4,0.859999895,16,0,0,NA,0,NA,0
"513","stim/objects/Instruments/gong3.png",332,73,325,0.9,"stim/61.jpeg",6,1,3,2,"Instruments",1,4,"left","left",0.539999962,1,1,1,0,NA,NA,NA,NA,NA,NA,NA,NA,NA,NA,NA,NA,NA,NA,NA,NA,NA,NA,NA,NA,NA,NA,NA,NA
"415","stim/objects/Instruments/banjo3.png",333,73,326,0.5,"stim/11.jpeg",1,1,1,2,"Instruments",1,2,"left","right",0.620000124,0,0,1,0,NA,NA,NA,NA,NA,NA,NA,NA,NA,NA,NA,NA,NA,NA,NA,NA,NA,NA,NA,NA,NA,NA,NA,NA
"433","stim/objects/Instruments/cornet3.png",334,73,327,0.5,"stim/23.jpeg",2,3,1,2,"Instruments",1,3,"left","",NA,0,0,1,0,NA,NA,NA,NA,NA,NA,NA,NA,NA,NA,NA,NA,NA,NA,NA,NA,NA,NA,NA,NA,NA,NA,NA,NA
"387","stim/objects/HouseObjects/ironingboard4.png",335,73,328,0.1,"stim/63.jpeg",6,3,3,1,"HouseObjects",2,4,"right","left",0.541999817,0,0,1,0,106,73,1,0.1,2,"stim/63.jpeg",6,3,"stim/63.jpeg",4,"right",2.251000166,3,2,0.014000177,3,3.05099988,106,0,0,NA,0,NA,0
"489","stim/objects/Instruments/flutetrans4.png",336,73,329,0.1,"stim/52.jpeg",5,2,3,1,"Instruments",1,4,"left","right",0.662999868,0,0,1,0,101,73,1,0.1,1,"stim/52.jpeg",5,2,"stim/52.jpeg",4,"right",1.25,2,2,2.496999979,2,2.171000004,101,0,1,NA,0,NA,0
"460","stim/objects/Instruments/flute3.png",337,73,330,0.9,"stim/63.jpeg",6,3,3,2,"Instruments",1,1,"left","left",0.541999817,1,1,1,0,NA,NA,NA,NA,NA,NA,NA,NA,NA,NA,NA,NA,NA,NA,NA,NA,NA,NA,NA,NA,NA,NA,NA,NA
"393","stim/objects/HouseObjects/lintroller4.png",338,73,331,0.1,"stim/62.jpeg",6,2,3,1,"HouseObjects",2,4,"right","left",0.555000067,0,0,1,0,168,73,1,0.1,2,"stim/62.jpeg",6,2,"stim/62.jpeg",4,"right",1.051000118,3,3,1.31099987,2,0.703999996,168,0,0,NA,0,NA,0
"256","stim/objects/HouseObjects/blender3.png",339,73,332,0.5,"stim/23.jpeg",2,3,1,2,"HouseObjects",2,2,"right","right",0.582000017,1,1,1,0,NA,NA,NA,NA,NA,NA,NA,NA,NA,NA,NA,NA,NA,NA,NA,NA,NA,NA,NA,NA,NA,NA,NA,NA
"347","stim/objects/HouseObjects/garbagebin3.png",340,73,333,0.9,"stim/51.jpeg",5,1,3,2,"HouseObjects",2,1,"right","right",0.618999958,1,1,1,0,NA,NA,NA,NA,NA,NA,NA,NA,NA,NA,NA,NA,NA,NA,NA,NA,NA,NA,NA,NA,NA,NA,NA,NA
"348","stim/objects/HouseObjects/garbagebin3.png",341,73,334,0.9,"stim/51.jpeg",5,1,3,2,"HouseObjects",2,1,"right","right",0.41899991,1,1,1,0,NA,NA,NA,NA,NA,NA,NA,NA,NA,NA,NA,NA,NA,NA,NA,NA,NA,NA,NA,NA,NA,NA,NA,NA
"379","stim/objects/HouseObjects/hairdryer4.png",342,73,335,0.9,"stim/51.jpeg",5,1,3,1,"HouseObjects",2,4,"right","right",0.519999981,1,1,1,0,31,73,1,0.9,2,"stim/51.jpeg",5,1,"stim/51.jpeg",4,"right",1.042999983,2,3,4.406999826,1,2.397000074,31,0,0,NA,0,NA,0
"270","stim/objects/HouseObjects/clock4.png",343,73,336,0.3,"stim/42.jpeg",4,2,2,1,"HouseObjects",2,2,"right","left",0.947999954,0,0,1,0,121,73,1,0.3,2,"stim/42.jpeg",4,2,"stim/42.jpeg",2,"right",3.736000061,2,3,0.847999811,4,1.120000124,121,0,0,NA,0,NA,0
"257","stim/objects/HouseObjects/blender3.png",344,73,337,0.5,"stim/22.jpeg",2,2,1,2,"HouseObjects",2,2,"right","right",0.618999958,1,1,1,0,NA,NA,NA,NA,NA,NA,NA,NA,NA,NA,NA,NA,NA,NA,NA,NA,NA,NA,NA,NA,NA,NA,NA,NA
"560","stim/objects/Instruments/musicsheet4.png",345,73,338,0.9,"stim/61.jpeg",6,1,3,1,"Instruments",1,1,"left","left",0.523999929,1,1,1,0,165,73,1,0.9,1,"stim/61.jpeg",6,1,"stim/61.jpeg",1,"right",3.188999891,1,1,0.973999977,2,0.894999981,165,0,1,NA,0,NA,0
"316","stim/objects/HouseObjects/dustpan3.png",346,73,339,0.9,"stim/54.jpeg",5,4,3,2,"HouseObjects",2,3,"right","right",0.661000013,1,1,1,0,NA,NA,NA,NA,NA,NA,NA,NA,NA,NA,NA,NA,NA,NA,NA,NA,NA,NA,NA,NA,NA,NA,NA,NA
"563","stim/objects/Instruments/oboe3.png",347,73,340,0.3,"stim/32.jpeg",3,2,2,1,"Instruments",1,4,"left","right",0.59100008,0,0,1,0,38,73,1,0.3,1,"stim/32.jpeg",3,2,"stim/32.jpeg",4,"left",1.79399991,3,4,2.595999956,2,1.46600008,38,1,0,0,0,0,0
"531","stim/objects/Instruments/grandpiano3.png",348,73,341,0.9,"stim/64.jpeg",6,4,3,2,"Instruments",1,3,"left","left",0.588999987,1,1,1,0,NA,NA,NA,NA,NA,NA,NA,NA,NA,NA,NA,NA,NA,NA,NA,NA,NA,NA,NA,NA,NA,NA,NA,NA
"394","stim/objects/HouseObjects/match3.png",349,73,342,0.5,"stim/24.jpeg",2,4,1,1,"HouseObjects",2,3,"right","right",0.558000088,1,1,1,0,120,73,1,0.5,2,"stim/24.jpeg",2,4,"stim/24.jpeg",3,"right",1.687999964,2,3,1.220999956,4,2.082999945,120,0,0,NA,0,NA,0
"279","stim/objects/HouseObjects/coffee3.png",350,73,343,0.7,"stim/31.jpeg",3,1,2,2,"HouseObjects",2,4,"right","right",0.846999884,1,1,1,0,NA,NA,NA,NA,NA,NA,NA,NA,NA,NA,NA,NA,NA,NA,NA,NA,NA,NA,NA,NA,NA,NA,NA,NA
"461","stim/objects/Instruments/flute3.png",351,73,344,0.9,"stim/61.jpeg",6,1,3,2,"Instruments",1,2,"left","left",0.77699995,1,1,1,0,NA,NA,NA,NA,NA,NA,NA,NA,NA,NA,NA,NA,NA,NA,NA,NA,NA,NA,NA,NA,NA,NA,NA,NA
"317","stim/objects/HouseObjects/dustpan3.png",352,73,345,0.9,"stim/52.jpeg",5,2,3,2,"HouseObjects",2,3,"right","right",0.551999807,1,1,1,0,NA,NA,NA,NA,NA,NA,NA,NA,NA,NA,NA,NA,NA,NA,NA,NA,NA,NA,NA,NA,NA,NA,NA,NA
"427","stim/objects/Instruments/chime3.png",353,73,346,0.5,"stim/21.jpeg",2,1,1,2,"Instruments",1,2,"left","right",0.617999792,0,0,1,0,NA,NA,NA,NA,NA,NA,NA,NA,NA,NA,NA,NA,NA,NA,NA,NA,NA,NA,NA,NA,NA,NA,NA,NA
"496","stim/objects/Instruments/frenchhorn3.png",354,73,347,0.9,"stim/64.jpeg",6,4,3,2,"Instruments",1,1,"left","left",0.46999979,1,1,1,0,NA,NA,NA,NA,NA,NA,NA,NA,NA,NA,NA,NA,NA,NA,NA,NA,NA,NA,NA,NA,NA,NA,NA,NA
"497","stim/objects/Instruments/frenchhorn3.png",355,73,348,0.9,"stim/61.jpeg",6,1,3,2,"Instruments",1,3,"left","left",0.618999958,1,1,1,0,NA,NA,NA,NA,NA,NA,NA,NA,NA,NA,NA,NA,NA,NA,NA,NA,NA,NA,NA,NA,NA,NA,NA,NA
"412","stim/objects/Instruments/balalaika3.png",356,73,349,0.5,"stim/14.jpeg",1,4,1,2,"Instruments",1,1,"left","right",0.572999716,0,0,1,0,NA,NA,NA,NA,NA,NA,NA,NA,NA,NA,NA,NA,NA,NA,NA,NA,NA,NA,NA,NA,NA,NA,NA,NA
"532","stim/objects/Instruments/grandpiano3.png",357,73,350,0.9,"stim/61.jpeg",6,1,3,2,"Instruments",1,1,"left","left",0.53399992,1,1,1,0,NA,NA,NA,NA,NA,NA,NA,NA,NA,NA,NA,NA,NA,NA,NA,NA,NA,NA,NA,NA,NA,NA,NA,NA
"349","stim/objects/HouseObjects/garbagebin3.png",358,73,351,0.9,"stim/51.jpeg",5,1,3,2,"HouseObjects",2,4,"right","right",0.498999834,1,1,1,0,NA,NA,NA,NA,NA,NA,NA,NA,NA,NA,NA,NA,NA,NA,NA,NA,NA,NA,NA,NA,NA,NA,NA,NA
"542","stim/objects/Instruments/guitarcase4.png",359,73,352,0.1,"stim/52.jpeg",5,2,3,1,"Instruments",1,2,"left","right",0.872999907,0,0,1,0,2,73,1,0.1,1,"stim/52.jpeg",5,2,"stim/52.jpeg",2,"right",1.055999994,3,2,5.414999962,2,1.484999895,2,0,1,NA,1,NA,0
"478","stim/objects/Instruments/flutetrans3.png",360,73,353,0.9,"stim/62.jpeg",6,2,3,2,"Instruments",1,2,"left","left",0.496000051,1,1,1,0,NA,NA,NA,NA,NA,NA,NA,NA,NA,NA,NA,NA,NA,NA,NA,NA,NA,NA,NA,NA,NA,NA,NA,NA
"333","stim/objects/HouseObjects/flyswatter3.png",361,73,354,0.9,"stim/52.jpeg",5,2,3,2,"HouseObjects",2,1,"right","right",0.494999886,1,1,1,0,NA,NA,NA,NA,NA,NA,NA,NA,NA,NA,NA,NA,NA,NA,NA,NA,NA,NA,NA,NA,NA,NA,NA,NA
"248","stim/objects/HouseObjects/barbecuelighter3.png",362,73,355,0.5,"stim/13.jpeg",1,3,1,2,"HouseObjects",2,3,"right","right",0.611999989,1,1,1,0,NA,NA,NA,NA,NA,NA,NA,NA,NA,NA,NA,NA,NA,NA,NA,NA,NA,NA,NA,NA,NA,NA,NA,NA
"350","stim/objects/HouseObjects/garbagebin3.png",363,73,356,0.9,"stim/54.jpeg",5,4,3,2,"HouseObjects",2,3,"right","left",0.549999952,0,0,1,0,NA,NA,NA,NA,NA,NA,NA,NA,NA,NA,NA,NA,NA,NA,NA,NA,NA,NA,NA,NA,NA,NA,NA,NA
"290","stim/objects/HouseObjects/dishsoap4.png",364,73,357,0.3,"stim/43.jpeg",4,3,2,1,"HouseObjects",2,1,"right","left",0.662999868,0,0,1,0,124,73,1,0.3,2,"stim/43.jpeg",4,3,"stim/43.jpeg",1,"left",0.967000008,4,4,1.368999958,2,1.493000031,124,1,0,0,0,0,0
"506","stim/objects/Instruments/frenchhorn4.png",365,73,358,0.1,"stim/53.jpeg",5,3,3,1,"Instruments",1,4,"left","right",0.833999872,0,0,1,0,50,73,1,0.1,1,"stim/53.jpeg",5,3,"stim/53.jpeg",4,"left",0.795000076,4,4,12.01399994,2,2.162999868,50,1,0,0,0,0,0
"533","stim/objects/Instruments/grandpiano3.png",366,73,359,0.9,"stim/61.jpeg",6,1,3,2,"Instruments",1,1,"left","left",0.516999722,1,1,1,0,NA,NA,NA,NA,NA,NA,NA,NA,NA,NA,NA,NA,NA,NA,NA,NA,NA,NA,NA,NA,NA,NA,NA,NA
"443","stim/objects/Instruments/doublebass4.png",367,73,360,0.7,"stim/42.jpeg",4,2,2,1,"Instruments",1,4,"left","right",0.577000141,0,0,1,0,179,73,1,0.7,1,"stim/42.jpeg",4,2,"stim/42.jpeg",4,"left",2.45299983,4,4,1.209000111,2,0.736999989,179,1,0,0,0,0,0
"514","stim/objects/Instruments/gong3.png",368,73,361,0.9,"stim/63.jpeg",6,3,3,2,"Instruments",1,4,"left","left",0.532999992,1,1,1,0,NA,NA,NA,NA,NA,NA,NA,NA,NA,NA,NA,NA,NA,NA,NA,NA,NA,NA,NA,NA,NA,NA,NA,NA
"439","stim/objects/Instruments/cymbal4.png",369,73,362,0.7,"stim/41.jpeg",4,1,2,1,"Instruments",1,2,"left","left",0.70600009,1,1,1,0,131,73,1,0.7,1,"stim/41.jpeg",4,1,"stim/41.jpeg",2,"right",1.684000015,2,3,1.407000065,2,1.549999952,131,0,0,NA,1,NA,0
"565","stim/objects/Instruments/violin3.png",370,73,363,0.3,"stim/33.jpeg",3,3,2,1,"Instruments",1,1,"left","left",0.521999836,1,1,1,0,167,73,1,0.3,1,"stim/33.jpeg",3,3,"stim/33.jpeg",1,"left",1.394999981,3,4,0.984999895,2,1.075000048,167,1,0,0,0,0,0
"334","stim/objects/HouseObjects/flyswatter3.png",371,73,364,0.9,"stim/53.jpeg",5,3,3,2,"HouseObjects",2,1,"right","right",0.615999937,1,1,1,0,NA,NA,NA,NA,NA,NA,NA,NA,NA,NA,NA,NA,NA,NA,NA,NA,NA,NA,NA,NA,NA,NA,NA,NA
"296","stim/objects/HouseObjects/doormat3.png",372,73,365,0.9,"stim/53.jpeg",5,3,3,2,"HouseObjects",2,2,"right","right",0.494999886,1,1,1,0,NA,NA,NA,NA,NA,NA,NA,NA,NA,NA,NA,NA,NA,NA,NA,NA,NA,NA,NA,NA,NA,NA,NA,NA
"447","stim/objects/Instruments/drums4.png",373,73,366,0.7,"stim/43.jpeg",4,3,2,1,"Instruments",1,4,"left","left",0.934000015,1,1,1,0,90,73,1,0.7,1,"stim/43.jpeg",4,3,"stim/43.jpeg",4,"left",1.11500001,4,1,1.194000006,3,1.10800004,90,1,0,0,0,0,0
"351","stim/objects/HouseObjects/garbagebin3.png",374,73,367,0.9,"stim/54.jpeg",5,4,3,2,"HouseObjects",2,3,"right","right",0.509000063,1,1,1,0,NA,NA,NA,NA,NA,NA,NA,NA,NA,NA,NA,NA,NA,NA,NA,NA,NA,NA,NA,NA,NA,NA,NA,NA
"409","stim/objects/Instruments/acousticguitar3.png",375,73,368,0.5,"stim/13.jpeg",1,3,1,2,"Instruments",1,3,"left","right",0.814999819,0,0,1,0,NA,NA,NA,NA,NA,NA,NA,NA,NA,NA,NA,NA,NA,NA,NA,NA,NA,NA,NA,NA,NA,NA,NA,NA
"367","stim/objects/HouseObjects/glass3.png",376,73,369,0.9,"stim/53.jpeg",5,3,3,2,"HouseObjects",2,2,"right","right",0.521999836,1,1,1,0,NA,NA,NA,NA,NA,NA,NA,NA,NA,NA,NA,NA,NA,NA,NA,NA,NA,NA,NA,NA,NA,NA,NA,NA
"267","stim/objects/HouseObjects/bucket4.png",377,73,370,0.3,"stim/41.jpeg",4,1,2,1,"HouseObjects",2,1,"right","left",0.626999855,0,0,1,0,28,73,1,0.3,2,"stim/41.jpeg",4,1,"stim/41.jpeg",1,"right",1.977999926,2,2,0.546000004,4,2.132999897,28,0,0,NA,0,NA,0
"440","stim/objects/Instruments/doublebass3.png",378,73,371,0.7,"stim/44.jpeg",4,4,2,2,"Instruments",1,2,"left","right",0.691999912,0,0,1,0,NA,NA,NA,NA,NA,NA,NA,NA,NA,NA,NA,NA,NA,NA,NA,NA,NA,NA,NA,NA,NA,NA,NA,NA
"523","stim/objects/Instruments/gong4.png",379,73,372,0.1,"stim/54.jpeg",5,4,3,1,"Instruments",1,2,"left","right",0.641999722,0,0,1,0,182,73,1,0.1,1,"stim/54.jpeg",5,4,"stim/54.jpeg",2,"right",0.954999924,2,1,2.277000189,3,0.769000053,182,0,0,NA,0,NA,0
"297","stim/objects/HouseObjects/doormat3.png",380,73,373,0.9,"stim/54.jpeg",5,4,3,2,"HouseObjects",2,4,"right","left",0.633000135,0,0,1,0,NA,NA,NA,NA,NA,NA,NA,NA,NA,NA,NA,NA,NA,NA,NA,NA,NA,NA,NA,NA,NA,NA,NA,NA
"369","stim/objects/HouseObjects/glass3.png",381,73,374,0.9,"stim/54.jpeg",5,4,3,2,"HouseObjects",2,2,"right","right",0.595999956,1,1,1,0,NA,NA,NA,NA,NA,NA,NA,NA,NA,NA,NA,NA,NA,NA,NA,NA,NA,NA,NA,NA,NA,NA,NA,NA
"314","stim/objects/HouseObjects/dustpan3.png",382,73,375,0.9,"stim/53.jpeg",5,3,3,2,"HouseObjects",2,4,"right","right",0.440999985,1,1,1,0,NA,NA,NA,NA,NA,NA,NA,NA,NA,NA,NA,NA,NA,NA,NA,NA,NA,NA,NA,NA,NA,NA,NA,NA
"292","stim/objects/HouseObjects/doormat3.png",383,73,376,0.9,"stim/51.jpeg",5,1,3,2,"HouseObjects",2,2,"right","right",0.634999752,1,1,1,0,NA,NA,NA,NA,NA,NA,NA,NA,NA,NA,NA,NA,NA,NA,NA,NA,NA,NA,NA,NA,NA,NA,NA,NA
"516","stim/objects/Instruments/gong3.png",384,73,377,0.9,"stim/63.jpeg",6,3,3,2,"Instruments",1,4,"left","left",0.691999912,1,1,1,0,NA,NA,NA,NA,NA,NA,NA,NA,NA,NA,NA,NA,NA,NA,NA,NA,NA,NA,NA,NA,NA,NA,NA,NA
"536","stim/objects/Instruments/grandpiano3.png",385,73,378,0.9,"stim/61.jpeg",6,1,3,2,"Instruments",1,1,"left","left",0.502999783,1,1,1,0,NA,NA,NA,NA,NA,NA,NA,NA,NA,NA,NA,NA,NA,NA,NA,NA,NA,NA,NA,NA,NA,NA,NA,NA
"326","stim/objects/HouseObjects/flyswatter3.png",386,73,379,0.9,"stim/54.jpeg",5,4,3,2,"HouseObjects",2,2,"right","right",0.549999952,1,1,1,0,NA,NA,NA,NA,NA,NA,NA,NA,NA,NA,NA,NA,NA,NA,NA,NA,NA,NA,NA,NA,NA,NA,NA,NA
"464","stim/objects/Instruments/flute3.png",387,73,380,0.9,"stim/61.jpeg",6,1,3,2,"Instruments",1,1,"left","left",0.457999945,1,1,1,0,NA,NA,NA,NA,NA,NA,NA,NA,NA,NA,NA,NA,NA,NA,NA,NA,NA,NA,NA,NA,NA,NA,NA,NA
"517","stim/objects/Instruments/gong3.png",388,73,381,0.9,"stim/64.jpeg",6,4,3,2,"Instruments",1,1,"left","left",0.365999699,1,1,1,0,NA,NA,NA,NA,NA,NA,NA,NA,NA,NA,NA,NA,NA,NA,NA,NA,NA,NA,NA,NA,NA,NA,NA,NA
"360","stim/objects/HouseObjects/glass3.png",389,73,382,0.9,"stim/52.jpeg",5,2,3,2,"HouseObjects",2,2,"right","right",0.342000008,1,1,1,0,NA,NA,NA,NA,NA,NA,NA,NA,NA,NA,NA,NA,NA,NA,NA,NA,NA,NA,NA,NA,NA,NA,NA,NA
"480","stim/objects/Instruments/flutetrans3.png",390,73,383,0.9,"stim/62.jpeg",6,2,3,2,"Instruments",1,2,"left","left",0.661000013,1,1,1,0,NA,NA,NA,NA,NA,NA,NA,NA,NA,NA,NA,NA,NA,NA,NA,NA,NA,NA,NA,NA,NA,NA,NA,NA
"524","stim/objects/Instruments/grandpiano3.png",391,73,384,0.9,"stim/62.jpeg",6,2,3,2,"Instruments",1,3,"left","left",0.427999973,1,1,1,0,NA,NA,NA,NA,NA,NA,NA,NA,NA,NA,NA,NA,NA,NA,NA,NA,NA,NA,NA,NA,NA,NA,NA,NA
"499","stim/objects/Instruments/frenchhorn3.png",392,73,385,0.9,"stim/62.jpeg",6,2,3,2,"Instruments",1,4,"left","left",0.556999922,1,1,1,0,NA,NA,NA,NA,NA,NA,NA,NA,NA,NA,NA,NA,NA,NA,NA,NA,NA,NA,NA,NA,NA,NA,NA,NA
"481","stim/objects/Instruments/flutetrans3.png",393,73,386,0.9,"stim/62.jpeg",6,2,3,2,"Instruments",1,3,"left","left",0.365999937,1,1,1,0,NA,NA,NA,NA,NA,NA,NA,NA,NA,NA,NA,NA,NA,NA,NA,NA,NA,NA,NA,NA,NA,NA,NA,NA
"353","stim/objects/HouseObjects/garbagebin3.png",394,73,387,0.9,"stim/53.jpeg",5,3,3,2,"HouseObjects",2,4,"right","right",0.574999809,1,1,1,0,NA,NA,NA,NA,NA,NA,NA,NA,NA,NA,NA,NA,NA,NA,NA,NA,NA,NA,NA,NA,NA,NA,NA,NA
"553","stim/objects/Instruments/maraca3.png",395,73,388,0.5,"stim/22.jpeg",2,2,1,1,"Instruments",1,3,"left","right",0.506999969,0,0,1,0,112,73,1,0.5,2,"stim/22.jpeg",2,2,"stim/22.jpeg",3,"left",1.53399992,4,4,1.628000021,4,1.495999813,112,1,0,0,0,0,0
"286","stim/objects/HouseObjects/cushion4.png",396,73,389,0.3,"stim/42.jpeg",4,2,2,1,"HouseObjects",2,2,"right","left",0.730999947,0,0,1,0,192,73,1,0.3,2,"stim/42.jpeg",4,2,"stim/42.jpeg",2,"left",0.915999889,3,2,2.983999968,2,0.802999973,192,1,1,1,1,1,0
"250","stim/objects/HouseObjects/basket3.png",397,73,390,0.5,"stim/13.jpeg",1,3,1,2,"HouseObjects",2,3,"right","right",0.52699995,1,1,1,0,NA,NA,NA,NA,NA,NA,NA,NA,NA,NA,NA,NA,NA,NA,NA,NA,NA,NA,NA,NA,NA,NA,NA,NA
"428","stim/objects/Instruments/chime3.png",398,73,391,0.5,"stim/22.jpeg",2,2,1,2,"Instruments",1,1,"left","right",0.479999781,0,0,1,0,NA,NA,NA,NA,NA,NA,NA,NA,NA,NA,NA,NA,NA,NA,NA,NA,NA,NA,NA,NA,NA,NA,NA,NA
"466","stim/objects/Instruments/flute3.png",399,73,392,0.9,"stim/62.jpeg",6,2,3,2,"Instruments",1,3,"left","left",0.66899991,1,1,1,0,NA,NA,NA,NA,NA,NA,NA,NA,NA,NA,NA,NA,NA,NA,NA,NA,NA,NA,NA,NA,NA,NA,NA,NA
"564","stim/objects/Instruments/oboe4.png",400,73,393,0.9,"stim/63.jpeg",6,3,3,1,"Instruments",1,1,"left","left",0.773000002,1,1,1,0,82,73,1,0.9,1,"stim/63.jpeg",6,3,"stim/63.jpeg",1,"left",0.772000074,2,1,1.76699996,1,2.78399992,82,1,0,0,1,1,0
"299","stim/objects/HouseObjects/doormat3.png",401,73,394,0.9,"stim/52.jpeg",5,2,3,2,"HouseObjects",2,4,"right","left",0.579999924,0,0,1,0,NA,NA,NA,NA,NA,NA,NA,NA,NA,NA,NA,NA,NA,NA,NA,NA,NA,NA,NA,NA,NA,NA,NA,NA
"525","stim/objects/Instruments/grandpiano3.png",402,73,395,0.9,"stim/63.jpeg",6,3,3,2,"Instruments",1,3,"left","",NA,0,0,1,0,NA,NA,NA,NA,NA,NA,NA,NA,NA,NA,NA,NA,NA,NA,NA,NA,NA,NA,NA,NA,NA,NA,NA,NA
"500","stim/objects/Instruments/frenchhorn3.png",403,73,396,0.9,"stim/64.jpeg",6,4,3,2,"Instruments",1,3,"left","left",0.413999796,1,1,1,0,NA,NA,NA,NA,NA,NA,NA,NA,NA,NA,NA,NA,NA,NA,NA,NA,NA,NA,NA,NA,NA,NA,NA,NA
"390","stim/objects/HouseObjects/knife3.png",404,73,397,0.5,"stim/22.jpeg",2,2,1,1,"HouseObjects",2,2,"right","right",0.476000071,1,1,1,0,170,73,1,0.5,2,"stim/22.jpeg",2,2,"stim/22.jpeg",2,"right",0.989000082,2,4,1.00999999,2,1.292000055,170,0,0,NA,1,NA,0
"541","stim/objects/Instruments/guitarcase3.png",405,73,398,0.5,"stim/13.jpeg",1,3,1,1,"Instruments",1,1,"left","right",0.423999786,0,0,1,0,96,73,1,0.5,1,"stim/13.jpeg",1,3,"stim/13.jpeg",1,"left",1.02699995,3,3,1.207000017,2,1.062999964,96,1,1,1,0,0,0
"547","stim/objects/Instruments/hihat3.png",406,73,399,0.5,"stim/12.jpeg",1,2,1,1,"Instruments",1,3,"left","right",0.453999996,0,0,1,0,66,73,1,0.5,1,"stim/12.jpeg",1,2,"stim/12.jpeg",3,"right",2.039000034,4,4,0.878999949,4,1.406000137,66,0,0,NA,0,NA,0
"431","stim/objects/Instruments/clarinet3.png",407,73,400,0.5,"stim/22.jpeg",2,2,1,2,"Instruments",1,1,"left","right",0.460999966,0,0,1,0,NA,NA,NA,NA,NA,NA,NA,NA,NA,NA,NA,NA,NA,NA,NA,NA,NA,NA,NA,NA,NA,NA,NA,NA
"445","stim/objects/Instruments/drums3.png",408,73,401,0.7,"stim/41.jpeg",4,1,2,2,"Instruments",1,3,"left","left",0.697000027,1,1,1,0,NA,NA,NA,NA,NA,NA,NA,NA,NA,NA,NA,NA,NA,NA,NA,NA,NA,NA,NA,NA,NA,NA,NA,NA
"424","stim/objects/Instruments/cello3.png",409,73,402,0.5,"stim/24.jpeg",2,4,1,2,"Instruments",1,4,"left","right",0.480999947,0,0,1,0,NA,NA,NA,NA,NA,NA,NA,NA,NA,NA,NA,NA,NA,NA,NA,NA,NA,NA,NA,NA,NA,NA,NA,NA
"395","stim/objects/HouseObjects/match4.png",410,73,403,0.1,"stim/63.jpeg",6,3,3,1,"HouseObjects",2,2,"right","left",0.867999792,0,0,1,0,89,73,1,0.1,2,"stim/63.jpeg",6,3,"stim/63.jpeg",2,"left",2.471999884,4,4,1.904000044,2,1.882999897,89,1,0,0,1,1,0
"482","stim/objects/Instruments/flutetrans3.png",411,73,404,0.9,"stim/64.jpeg",6,4,3,2,"Instruments",1,1,"left","left",0.559999943,1,1,1,0,NA,NA,NA,NA,NA,NA,NA,NA,NA,NA,NA,NA,NA,NA,NA,NA,NA,NA,NA,NA,NA,NA,NA,NA
"342","stim/objects/HouseObjects/garbagebin3.png",412,73,405,0.9,"stim/52.jpeg",5,2,3,2,"HouseObjects",2,1,"right","right",0.640000105,1,1,1,0,NA,NA,NA,NA,NA,NA,NA,NA,NA,NA,NA,NA,NA,NA,NA,NA,NA,NA,NA,NA,NA,NA,NA,NA
"405","stim/objects/HouseObjects/wateringcan4.png",413,73,406,0.1,"stim/64.jpeg",6,4,3,1,"HouseObjects",2,2,"right","",NA,0,0,1,0,25,73,1,0.1,2,"stim/64.jpeg",6,4,"stim/64.jpeg",2,"left",1.648999929,3,4,2.424999952,4,0.72300005,25,1,1,1,0,0,0
"558","stim/objects/Instruments/metronome4.png",414,73,407,0.9,"stim/64.jpeg",6,4,3,1,"Instruments",1,2,"left","left",0.448999882,1,1,1,0,53,73,1,0.9,1,"stim/64.jpeg",6,4,"stim/64.jpeg",2,"right",5.214999914,2,2,1.736000061,2,1.187000036,53,0,0,NA,1,NA,0
"472","stim/objects/Instruments/flute4.png",415,73,408,0.1,"stim/51.jpeg",5,1,3,1,"Instruments",1,3,"left","right",0.532999992,0,0,1,0,1,73,1,0.1,1,"stim/51.jpeg",5,1,"stim/51.jpeg",3,"right",1.235999823,4,4,13.26399994,4,1.406000137,1,0,0,NA,0,NA,0
"280","stim/objects/HouseObjects/coffee3.png",416,73,409,0.7,"stim/32.jpeg",3,2,2,2,"HouseObjects",2,2,"right","right",0.705999851,1,1,1,0,NA,NA,NA,NA,NA,NA,NA,NA,NA,NA,NA,NA,NA,NA,NA,NA,NA,NA,NA,NA,NA,NA,NA,NA
"483","stim/objects/Instruments/flutetrans3.png",417,73,410,0.9,"stim/61.jpeg",6,1,3,2,"Instruments",1,1,"left","left",0.921000004,1,1,1,0,NA,NA,NA,NA,NA,NA,NA,NA,NA,NA,NA,NA,NA,NA,NA,NA,NA,NA,NA,NA,NA,NA,NA,NA
"288","stim/objects/HouseObjects/dishsoap3.png",418,73,411,0.7,"stim/31.jpeg",3,1,2,2,"HouseObjects",2,1,"right","right",0.490999699,1,1,1,0,NA,NA,NA,NA,NA,NA,NA,NA,NA,NA,NA,NA,NA,NA,NA,NA,NA,NA,NA,NA,NA,NA,NA,NA
"432","stim/objects/Instruments/clarinet4.png",419,73,412,0.7,"stim/43.jpeg",4,3,2,1,"Instruments",1,3,"left","left",0.589999914,1,1,1,0,158,73,1,0.7,1,"stim/43.jpeg",4,3,"stim/43.jpeg",3,"left",0.923000097,3,2,1.450999975,1,0.11500001,158,1,0,0,0,0,0
"365","stim/objects/HouseObjects/glass3.png",420,73,413,0.9,"stim/53.jpeg",5,3,3,2,"HouseObjects",2,3,"right","right",0.554999828,1,1,1,0,NA,NA,NA,NA,NA,NA,NA,NA,NA,NA,NA,NA,NA,NA,NA,NA,NA,NA,NA,NA,NA,NA,NA,NA
"301","stim/objects/HouseObjects/doormat3.png",421,73,414,0.9,"stim/51.jpeg",5,1,3,2,"HouseObjects",2,3,"right","right",0.757999897,1,1,1,0,NA,NA,NA,NA,NA,NA,NA,NA,NA,NA,NA,NA,NA,NA,NA,NA,NA,NA,NA,NA,NA,NA,NA,NA
"498","stim/objects/Instruments/frenchhorn3.png",422,73,415,0.9,"stim/63.jpeg",6,3,3,2,"Instruments",1,2,"left","left",0.502999783,1,1,1,0,NA,NA,NA,NA,NA,NA,NA,NA,NA,NA,NA,NA,NA,NA,NA,NA,NA,NA,NA,NA,NA,NA,NA,NA
"552","stim/objects/Instruments/laud4.png",423,73,416,0.9,"stim/61.jpeg",6,1,3,1,"Instruments",1,2,"left","right",0.423000097,0,0,1,0,43,73,1,0.9,1,"stim/61.jpeg",6,1,"stim/61.jpeg",2,"left",1.904000044,2,2,2.157999992,2,0.797999859,43,1,0,0,1,1,0
"567","stim/objects/Instruments/vuvuzela3.png",424,73,417,0.3,"stim/34.jpeg",3,4,2,1,"Instruments",1,4,"left","right",0.447999954,0,0,1,0,156,73,1,0.3,1,"stim/34.jpeg",3,4,"stim/34.jpeg",4,"left",1.476000071,4,1,1.740999937,2,1.199999809,156,1,0,0,0,0,0
"546","stim/objects/Instruments/harp4.png",425,73,418,0.1,"stim/54.jpeg",5,4,3,1,"Instruments",1,2,"left","right",0.740999937,0,0,1,0,52,73,1,0.1,1,"stim/54.jpeg",5,4,"stim/54.jpeg",2,"left",1.123999834,3,4,2.078999996,2,0.756999969,52,1,1,1,1,1,0
"319","stim/objects/HouseObjects/dustpan3.png",426,73,419,0.9,"stim/51.jpeg",5,1,3,2,"HouseObjects",2,2,"right","right",0.816999912,1,1,1,0,NA,NA,NA,NA,NA,NA,NA,NA,NA,NA,NA,NA,NA,NA,NA,NA,NA,NA,NA,NA,NA,NA,NA,NA
"518","stim/objects/Instruments/gong3.png",427,73,420,0.9,"stim/61.jpeg",6,1,3,2,"Instruments",1,4,"left","left",0.524999857,1,1,1,0,NA,NA,NA,NA,NA,NA,NA,NA,NA,NA,NA,NA,NA,NA,NA,NA,NA,NA,NA,NA,NA,NA,NA,NA
"550","stim/objects/Instruments/keyboard4.png",428,73,421,0.1,"stim/52.jpeg",5,2,3,1,"Instruments",1,4,"left","right",0.924999952,0,0,1,0,126,73,1,0.1,1,"stim/52.jpeg",5,2,"stim/52.jpeg",4,"right",5.726999998,2,4,0.721999884,2,1.311000109,126,0,0,NA,0,NA,0
"465","stim/objects/Instruments/flute3.png",429,73,422,0.9,"stim/62.jpeg",6,2,3,2,"Instruments",1,3,"left","left",0.489999771,1,1,1,0,NA,NA,NA,NA,NA,NA,NA,NA,NA,NA,NA,NA,NA,NA,NA,NA,NA,NA,NA,NA,NA,NA,NA,NA
"330","stim/objects/HouseObjects/flyswatter3.png",430,73,423,0.9,"stim/52.jpeg",5,2,3,2,"HouseObjects",2,1,"right","right",0.544999838,1,1,1,0,NA,NA,NA,NA,NA,NA,NA,NA,NA,NA,NA,NA,NA,NA,NA,NA,NA,NA,NA,NA,NA,NA,NA,NA
"484","stim/objects/Instruments/flutetrans3.png",431,73,424,0.9,"stim/63.jpeg",6,3,3,2,"Instruments",1,3,"left","right",0.45299983,0,0,1,0,NA,NA,NA,NA,NA,NA,NA,NA,NA,NA,NA,NA,NA,NA,NA,NA,NA,NA,NA,NA,NA,NA,NA,NA
"406","stim/objects/Instruments/accordion3.png",432,73,425,0.5,"stim/12.jpeg",1,2,1,2,"Instruments",1,4,"left","right",0.639999866,0,0,1,0,NA,NA,NA,NA,NA,NA,NA,NA,NA,NA,NA,NA,NA,NA,NA,NA,NA,NA,NA,NA,NA,NA,NA,NA
"504","stim/objects/Instruments/frenchhorn3.png",433,73,426,0.9,"stim/64.jpeg",6,4,3,2,"Instruments",1,3,"left","left",0.415999889,1,1,1,0,NA,NA,NA,NA,NA,NA,NA,NA,NA,NA,NA,NA,NA,NA,NA,NA,NA,NA,NA,NA,NA,NA,NA,NA
"493","stim/objects/Instruments/frenchhorn3.png",434,73,427,0.9,"stim/64.jpeg",6,4,3,2,"Instruments",1,3,"left","left",0.538000107,1,1,1,0,NA,NA,NA,NA,NA,NA,NA,NA,NA,NA,NA,NA,NA,NA,NA,NA,NA,NA,NA,NA,NA,NA,NA,NA
"331","stim/objects/HouseObjects/flyswatter3.png",435,73,428,0.9,"stim/52.jpeg",5,2,3,2,"HouseObjects",2,1,"right","right",0.468999863,1,1,1,0,NA,NA,NA,NA,NA,NA,NA,NA,NA,NA,NA,NA,NA,NA,NA,NA,NA,NA,NA,NA,NA,NA,NA,NA
"568","stim/objects/Instruments/vuvuzela4.png",436,73,429,0.9,"stim/61.jpeg",6,1,3,1,"Instruments",1,4,"left","left",0.473999977,1,1,1,0,40,73,1,0.9,1,"stim/61.jpeg",6,1,"stim/61.jpeg",4,"left",1.361000061,4,3,2.806999922,2,1,40,1,0,0,0,0,0
"503","stim/objects/Instruments/frenchhorn3.png",437,73,430,0.9,"stim/62.jpeg",6,2,3,2,"Instruments",1,2,"left","left",0.480999947,1,1,1,0,NA,NA,NA,NA,NA,NA,NA,NA,NA,NA,NA,NA,NA,NA,NA,NA,NA,NA,NA,NA,NA,NA,NA,NA
"276","stim/objects/HouseObjects/clothespin3.png",438,73,431,0.7,"stim/31.jpeg",3,1,2,2,"HouseObjects",2,1,"right","right",0.403000116,1,1,1,0,NA,NA,NA,NA,NA,NA,NA,NA,NA,NA,NA,NA,NA,NA,NA,NA,NA,NA,NA,NA,NA,NA,NA,NA
"277","stim/objects/HouseObjects/clothespin3.png",439,73,432,0.7,"stim/32.jpeg",3,2,2,2,"HouseObjects",2,1,"right","right",0.377999783,1,1,1,0,NA,NA,NA,NA,NA,NA,NA,NA,NA,NA,NA,NA,NA,NA,NA,NA,NA,NA,NA,NA,NA,NA,NA,NA
"245","stim/objects/HouseObjects/ballofstring3.png",440,73,433,0.5,"stim/12.jpeg",1,2,1,2,"HouseObjects",2,4,"right","right",0.657999992,1,1,1,0,NA,NA,NA,NA,NA,NA,NA,NA,NA,NA,NA,NA,NA,NA,NA,NA,NA,NA,NA,NA,NA,NA,NA,NA
"494","stim/objects/Instruments/frenchhorn3.png",441,73,434,0.9,"stim/61.jpeg",6,1,3,2,"Instruments",1,4,"left","left",0.690999985,1,1,1,0,NA,NA,NA,NA,NA,NA,NA,NA,NA,NA,NA,NA,NA,NA,NA,NA,NA,NA,NA,NA,NA,NA,NA,NA
"380","stim/objects/HouseObjects/handbrush3.png",442,73,435,0.5,"stim/14.jpeg",1,4,1,1,"HouseObjects",2,2,"right","right",0.401000023,1,1,1,0,181,73,1,0.5,1,"stim/14.jpeg",1,4,"stim/14.jpeg",2,"right",1.299999952,2,3,1.881999969,2,1.023999929,181,0,0,NA,1,NA,0
"304","stim/objects/HouseObjects/doormat3.png",443,73,436,0.9,"stim/53.jpeg",5,3,3,2,"HouseObjects",2,4,"right","right",0.667000055,1,1,1,0,NA,NA,NA,NA,NA,NA,NA,NA,NA,NA,NA,NA,NA,NA,NA,NA,NA,NA,NA,NA,NA,NA,NA,NA
"397","stim/objects/HouseObjects/pan4.png",444,73,437,0.1,"stim/64.jpeg",6,4,3,1,"HouseObjects",2,2,"right","left",0.734999895,0,0,1,0,27,73,1,0.1,2,"stim/64.jpeg",6,4,"stim/64.jpeg",2,"right",5.063999891,3,3,2.246999979,4,1.422999859,27,0,0,NA,0,NA,0
"437","stim/objects/Instruments/cymbal3.png",445,73,438,0.7,"stim/43.jpeg",4,3,2,2,"Instruments",1,3,"left","left",0.604999781,1,1,1,0,NA,NA,NA,NA,NA,NA,NA,NA,NA,NA,NA,NA,NA,NA,NA,NA,NA,NA,NA,NA,NA,NA,NA,NA
"247","stim/objects/HouseObjects/barbecuelighter3.png",446,73,439,0.5,"stim/12.jpeg",1,2,1,2,"HouseObjects",2,1,"right","right",0.531999826,1,1,1,0,NA,NA,NA,NA,NA,NA,NA,NA,NA,NA,NA,NA,NA,NA,NA,NA,NA,NA,NA,NA,NA,NA,NA,NA
"529","stim/objects/Instruments/grandpiano3.png",447,73,440,0.9,"stim/63.jpeg",6,3,3,2,"Instruments",1,3,"left","left",0.642999887,1,1,1,0,NA,NA,NA,NA,NA,NA,NA,NA,NA,NA,NA,NA,NA,NA,NA,NA,NA,NA,NA,NA,NA,NA,NA,NA
"371","stim/objects/HouseObjects/glass3.png",448,73,441,0.9,"stim/51.jpeg",5,1,3,2,"HouseObjects",2,4,"right","",NA,0,0,1,0,NA,NA,NA,NA,NA,NA,NA,NA,NA,NA,NA,NA,NA,NA,NA,NA,NA,NA,NA,NA,NA,NA,NA,NA
"332","stim/objects/HouseObjects/flyswatter3.png",449,73,442,0.9,"stim/52.jpeg",5,2,3,2,"HouseObjects",2,2,"right","right",0.596999884,1,1,1,0,NA,NA,NA,NA,NA,NA,NA,NA,NA,NA,NA,NA,NA,NA,NA,NA,NA,NA,NA,NA,NA,NA,NA,NA
"556","stim/objects/Instruments/marimba4.png",450,73,443,0.9,"stim/63.jpeg",6,3,3,1,"Instruments",1,3,"left","left",0.638000011,1,1,1,0,115,73,1,0.9,1,"stim/63.jpeg",6,3,"stim/63.jpeg",3,"right",1.15899992,2,4,1.662000179,2,1.336999893,115,0,0,NA,0,NA,0
"254","stim/objects/HouseObjects/bleachbottle3.png",451,73,444,0.5,"stim/11.jpeg",1,1,1,2,"HouseObjects",2,1,"right","right",0.753000021,1,1,1,0,NA,NA,NA,NA,NA,NA,NA,NA,NA,NA,NA,NA,NA,NA,NA,NA,NA,NA,NA,NA,NA,NA,NA,NA
"495","stim/objects/Instruments/frenchhorn3.png",452,73,445,0.9,"stim/61.jpeg",6,1,3,2,"Instruments",1,1,"left","left",0.570999861,1,1,1,0,NA,NA,NA,NA,NA,NA,NA,NA,NA,NA,NA,NA,NA,NA,NA,NA,NA,NA,NA,NA,NA,NA,NA,NA
"501","stim/objects/Instruments/frenchhorn3.png",453,73,446,0.9,"stim/61.jpeg",6,1,3,2,"Instruments",1,1,"left","left",0.805000067,1,1,1,0,NA,NA,NA,NA,NA,NA,NA,NA,NA,NA,NA,NA,NA,NA,NA,NA,NA,NA,NA,NA,NA,NA,NA,NA
"502","stim/objects/Instruments/frenchhorn3.png",454,73,447,0.9,"stim/62.jpeg",6,2,3,2,"Instruments",1,4,"left","left",0.547999859,1,1,1,0,NA,NA,NA,NA,NA,NA,NA,NA,NA,NA,NA,NA,NA,NA,NA,NA,NA,NA,NA,NA,NA,NA,NA,NA
"284","stim/objects/HouseObjects/cushion3.png",455,73,448,0.7,"stim/34.jpeg",3,4,2,2,"HouseObjects",2,1,"right","right",0.644999743,1,1,1,0,NA,NA,NA,NA,NA,NA,NA,NA,NA,NA,NA,NA,NA,NA,NA,NA,NA,NA,NA,NA,NA,NA,NA,NA
"313","stim/objects/HouseObjects/dustpan3.png",456,73,449,0.9,"stim/51.jpeg",5,1,3,2,"HouseObjects",2,4,"right","right",0.635999918,1,1,1,0,NA,NA,NA,NA,NA,NA,NA,NA,NA,NA,NA,NA,NA,NA,NA,NA,NA,NA,NA,NA,NA,NA,NA,NA
"382","stim/objects/HouseObjects/handvacuum3.png",457,73,450,0.5,"stim/11.jpeg",1,1,1,1,"HouseObjects",2,4,"right","right",0.798000097,1,1,1,0,188,73,1,0.5,1,"stim/11.jpeg",1,1,"stim/11.jpeg",4,"right",1.354000092,2,3,0.645999908,2,0.735000134,188,0,0,NA,0,NA,0
"540","stim/objects/Instruments/grandpiano4.png",458,73,451,0.1,"stim/51.jpeg",5,1,3,1,"Instruments",1,4,"left","right",0.51699996,0,0,1,0,109,73,1,0.1,1,"stim/51.jpeg",5,1,"stim/51.jpeg",4,"right",5.027000189,2,3,2.334000111,3,2.095000029,109,0,0,NA,0,NA,0
"253","stim/objects/HouseObjects/bleachbottle3.png",459,73,452,0.5,"stim/14.jpeg",1,4,1,2,"HouseObjects",2,3,"right","right",0.691999912,1,1,1,0,NA,NA,NA,NA,NA,NA,NA,NA,NA,NA,NA,NA,NA,NA,NA,NA,NA,NA,NA,NA,NA,NA,NA,NA
"357","stim/objects/HouseObjects/garbagebin3.png",460,73,453,0.9,"stim/54.jpeg",5,4,3,2,"HouseObjects",2,2,"right","right",0.530999899,1,1,1,0,NA,NA,NA,NA,NA,NA,NA,NA,NA,NA,NA,NA,NA,NA,NA,NA,NA,NA,NA,NA,NA,NA,NA,NA
"302","stim/objects/HouseObjects/doormat3.png",461,73,454,0.9,"stim/52.jpeg",5,2,3,2,"HouseObjects",2,3,"right","",NA,0,0,1,0,NA,NA,NA,NA,NA,NA,NA,NA,NA,NA,NA,NA,NA,NA,NA,NA,NA,NA,NA,NA,NA,NA,NA,NA
"551","stim/objects/Instruments/laud3.png",462,73,455,0.5,"stim/21.jpeg",2,1,1,1,"Instruments",1,1,"left","right",0.444999933,0,0,1,0,100,73,1,0.5,2,"stim/21.jpeg",2,1,"stim/21.jpeg",1,"left",1.172999859,2,1,1.815999985,3,0.715000153,100,1,1,1,0,0,0
"527","stim/objects/Instruments/grandpiano3.png",463,73,456,0.9,"stim/63.jpeg",6,3,3,2,"Instruments",1,3,"left","left",0.530999899,1,1,1,0,NA,NA,NA,NA,NA,NA,NA,NA,NA,NA,NA,NA,NA,NA,NA,NA,NA,NA,NA,NA,NA,NA,NA,NA
"329","stim/objects/HouseObjects/flyswatter3.png",464,73,457,0.9,"stim/53.jpeg",5,3,3,2,"HouseObjects",2,3,"right","right",0.708999872,1,1,1,0,NA,NA,NA,NA,NA,NA,NA,NA,NA,NA,NA,NA,NA,NA,NA,NA,NA,NA,NA,NA,NA,NA,NA,NA
"321","stim/objects/HouseObjects/dustpan3.png",465,73,458,0.9,"stim/52.jpeg",5,2,3,2,"HouseObjects",2,4,"right","right",0.489000082,1,1,1,0,NA,NA,NA,NA,NA,NA,NA,NA,NA,NA,NA,NA,NA,NA,NA,NA,NA,NA,NA,NA,NA,NA,NA,NA
"416","stim/objects/Instruments/banjo3.png",466,73,459,0.5,"stim/14.jpeg",1,4,1,2,"Instruments",1,4,"left","right",0.441999912,0,0,1,0,NA,NA,NA,NA,NA,NA,NA,NA,NA,NA,NA,NA,NA,NA,NA,NA,NA,NA,NA,NA,NA,NA,NA,NA
"322","stim/objects/HouseObjects/dustpan3.png",467,73,460,0.9,"stim/54.jpeg",5,4,3,2,"HouseObjects",2,2,"right","right",0.480000019,1,1,1,0,NA,NA,NA,NA,NA,NA,NA,NA,NA,NA,NA,NA,NA,NA,NA,NA,NA,NA,NA,NA,NA,NA,NA,NA
