"","participant","OvsN","PE_level","object_cat","obj_file","scn_file","corr_scn_cat","corr_scn_inst","scn_file.1","corr_loc","key_resp_id.keys","key_resp_id.rt","key_resp_conf.keys","key_resp_assoc.keys","key_resp_assoc.rt","key_resp_loc.keys","key_resp_loc.rt","trialN","id_acc","assoc.acc","cond_assoc","loc.acc","cond_loc","group"
"1",73,1,0.1,1,"stim/objects/Instruments/flute4.png","stim/51.jpeg",5,1,"stim/51.jpeg",3,"right",1.235999823,4,4,13.26399994,4,1.406000137,1,0,0,NA,0,NA,0
"2",73,1,0.1,1,"stim/objects/Instruments/guitarcase4.png","stim/52.jpeg",5,2,"stim/52.jpeg",2,"right",1.055999994,3,2,5.414999962,2,1.484999895,2,0,1,NA,1,NA,0
"3",73,2,0,1,"stim/objects/Instruments/vuvuzela.png","",0,0,"",0,"right",3.247999907,NA,NA,NA,NA,NA,3,1,NA,NA,NA,NA,0
"4",73,2,0,2,"stim/objects/HouseObjects/cushion2.png","",0,0,"",0,"right",6.486000061,NA,NA,NA,NA,NA,4,1,NA,NA,NA,NA,0
"5",73,2,0,1,"stim/objects/Instruments/acousticguitar.png","",0,0,"",0,"right",5.321000099,NA,NA,NA,NA,NA,5,1,NA,NA,NA,NA,0
"6",73,2,0,2,"stim/objects/HouseObjects/bottle2.png","",0,0,"",0,"right",1.013999939,NA,NA,NA,NA,NA,6,1,NA,NA,NA,NA,0
"7",73,1,0.3,2,"stim/objects/HouseObjects/clothespin4.png","stim/44.jpeg",4,4,"stim/44.jpeg",4,"left",1.042999983,4,3,8.691999912,3,1.223999977,7,1,0,0,0,0,0
"8",73,1,0.7,2,"stim/objects/HouseObjects/ashtray4.png","stim/33.jpeg",3,3,"stim/33.jpeg",1,"left",1.573999882,4,3,2.641000032,4,2.411000013,8,1,1,1,0,0,0
"9",73,2,0,2,"stim/objects/HouseObjects/glassmop.png","",0,0,"",0,"right",1.438999891,NA,NA,NA,NA,NA,9,1,NA,NA,NA,NA,0
"10",73,2,0,1,"stim/objects/Instruments/marimba.png","",0,0,"",0,"right",1.753999949,NA,NA,NA,NA,NA,10,1,NA,NA,NA,NA,0
"11",73,2,0,2,"stim/objects/HouseObjects/doormat.png","",0,0,"",0,"left",2.386999846,NA,NA,NA,NA,NA,11,0,NA,NA,NA,NA,0
"12",73,2,0,1,"stim/objects/Instruments/balalaika.png","",0,0,"",0,"right",2.824999809,NA,NA,NA,NA,NA,12,1,NA,NA,NA,NA,0
"13",73,1,0.9,2,"stim/objects/HouseObjects/handbrush4.png","stim/52.jpeg",5,2,"stim/52.jpeg",1,"right",0.809000015,4,4,1.367000103,3,7.226999998,13,0,0,NA,0,NA,0
"14",73,2,0,2,"stim/objects/HouseObjects/towel.png","",0,0,"",0,"right",1.575000048,NA,NA,NA,NA,NA,14,1,NA,NA,NA,NA,0
"15",73,2,0,2,"stim/objects/HouseObjects/dustpan.png","",0,0,"",0,"right",3.085999966,NA,NA,NA,NA,NA,15,1,NA,NA,NA,NA,0
"16",73,1,0.5,2,"stim/objects/Instruments/musicsheet3.png","stim/21.jpeg",2,1,"stim/21.jpeg",1,"right",0.888000011,4,4,0.707999945,4,0.859999895,16,0,0,NA,0,NA,0
"17",73,2,0,2,"stim/objects/HouseObjects/broom2.png","",0,0,"",0,"right",4.530999899,NA,NA,NA,NA,NA,17,1,NA,NA,NA,NA,0
"18",73,2,0,2,"stim/objects/HouseObjects/barbecuelighter.png","",0,0,"",0,"right",1.345999956,NA,NA,NA,NA,NA,18,1,NA,NA,NA,NA,0
"19",73,2,0,1,"stim/objects/Instruments/bassguitar.png","",0,0,"",0,"right",1.049000025,NA,NA,NA,NA,NA,19,1,NA,NA,NA,NA,0
"20",73,1,0.5,1,"stim/objects/HouseObjects/iron3.png","stim/12.jpeg",1,2,"stim/12.jpeg",2,"right",1.65199995,4,4,0.963000059,4,0.746999979,20,0,0,NA,0,NA,0
"21",73,2,0,1,"stim/objects/Instruments/chime.png","",0,0,"",0,"right",1.278000116,NA,NA,NA,NA,NA,21,1,NA,NA,NA,NA,0
"22",73,2,0,2,"stim/objects/HouseObjects/ashtray2.png","",0,0,"",0,"right",1.220999956,NA,NA,NA,NA,NA,22,1,NA,NA,NA,NA,0
"23",73,2,0,1,"stim/objects/Instruments/harp.png","",0,0,"",0,"left",0.854000092,NA,NA,NA,NA,NA,23,0,NA,NA,NA,NA,0
"24",73,2,0,2,"stim/objects/HouseObjects/clothesdryingrack2.png","",0,0,"",0,"right",1.77699995,NA,NA,NA,NA,NA,24,1,NA,NA,NA,NA,0
"25",73,1,0.1,2,"stim/objects/HouseObjects/wateringcan4.png","stim/64.jpeg",6,4,"stim/64.jpeg",2,"left",1.648999929,3,4,2.424999952,4,0.72300005,25,1,1,1,0,0,0
"26",73,1,0.3,1,"stim/objects/Instruments/balalaika4.png","stim/34.jpeg",3,4,"stim/34.jpeg",2,"right",2.275000095,2,3,5.400000095,4,0,26,0,0,NA,0,NA,0
"27",73,1,0.1,2,"stim/objects/HouseObjects/pan4.png","stim/64.jpeg",6,4,"stim/64.jpeg",2,"right",5.063999891,3,3,2.246999979,4,1.422999859,27,0,0,NA,0,NA,0
"28",73,1,0.3,2,"stim/objects/HouseObjects/bucket4.png","stim/41.jpeg",4,1,"stim/41.jpeg",1,"right",1.977999926,2,2,0.546000004,4,2.132999897,28,0,0,NA,0,NA,0
"29",73,2,0,2,"stim/objects/HouseObjects/bucket.png","",0,0,"",0,"right",1.539000034,NA,NA,NA,NA,NA,29,1,NA,NA,NA,NA,0
"30",73,2,0,2,"stim/objects/HouseObjects/ironingboard.png","",0,0,"",0,"right",1.197999954,NA,NA,NA,NA,NA,30,1,NA,NA,NA,NA,0
"31",73,1,0.9,2,"stim/objects/HouseObjects/hairdryer4.png","stim/51.jpeg",5,1,"stim/51.jpeg",4,"right",1.042999983,2,3,4.406999826,1,2.397000074,31,0,0,NA,0,NA,0
"32",73,2,0,2,"stim/objects/HouseObjects/broom.png","",0,0,"",0,"right",2.148000002,NA,NA,NA,NA,NA,32,1,NA,NA,NA,NA,0
"33",73,1,0.3,1,"stim/objects/Instruments/banjo4.png","stim/31.jpeg",3,1,"stim/31.jpeg",3,"right",1.055000067,3,4,1.414999962,4,1.276000023,33,0,0,NA,0,NA,0
"34",73,1,0.9,1,"stim/objects/Instruments/maraca4.png","stim/62.jpeg",6,2,"stim/62.jpeg",4,"left",1.792999983,3,3,3.809000015,1,2.198999882,34,1,0,0,0,0,0
"35",73,2,0,1,"stim/objects/Instruments/clarinet2.png","",0,0,"",0,"left",1.944000006,NA,NA,NA,NA,NA,35,0,NA,NA,NA,NA,0
"36",73,2,0,2,"stim/objects/HouseObjects/clothespin2.png","",0,0,"",0,"right",2.134000063,NA,NA,NA,NA,NA,36,1,NA,NA,NA,NA,0
"37",73,2,0,2,"stim/objects/HouseObjects/blender.png","",0,0,"",0,"right",1.838999987,NA,NA,NA,NA,NA,37,1,NA,NA,NA,NA,0
"38",73,1,0.3,1,"stim/objects/Instruments/oboe3.png","stim/32.jpeg",3,2,"stim/32.jpeg",4,"left",1.79399991,3,4,2.595999956,2,1.46600008,38,1,0,0,0,0,0
"39",73,1,0.9,2,"stim/objects/HouseObjects/garbagebin4.png","stim/52.jpeg",5,2,"stim/52.jpeg",1,"right",1.354999781,3,1,2.49000001,4,3.798000097,39,0,0,NA,0,NA,0
"40",73,1,0.9,1,"stim/objects/Instruments/vuvuzela4.png","stim/61.jpeg",6,1,"stim/61.jpeg",4,"left",1.361000061,4,3,2.806999922,2,1,40,1,0,0,0,0,0
"41",73,2,0,1,"stim/objects/Instruments/bassdrum2.png","",0,0,"",0,"left",3.799000025,NA,NA,NA,NA,NA,41,0,NA,NA,NA,NA,0
"42",73,2,0,1,"stim/objects/Instruments/keyboard.png","",0,0,"",0,"right",2.433000088,NA,NA,NA,NA,NA,42,1,NA,NA,NA,NA,0
"43",73,1,0.9,1,"stim/objects/Instruments/laud4.png","stim/61.jpeg",6,1,"stim/61.jpeg",2,"left",1.904000044,2,2,2.157999992,2,0.797999859,43,1,0,0,1,1,0
"44",73,2,0,2,"stim/objects/HouseObjects/vacuumcleaner.png","",0,0,"",0,"right",2.890999794,NA,NA,NA,NA,NA,44,1,NA,NA,NA,NA,0
"45",73,2,0,1,"stim/objects/Instruments/bassguitar2.png","",0,0,"",0,"right",1.671999931,NA,NA,NA,NA,NA,45,1,NA,NA,NA,NA,0
"46",73,1,0.7,2,"stim/objects/HouseObjects/wateringcan3.png","stim/32.jpeg",3,2,"stim/32.jpeg",3,"right",0.672999859,1,1,1.801000118,4,0.684999943,46,0,0,NA,0,NA,0
"47",73,1,0.5,2,"stim/objects/HouseObjects/lintroller3.png","stim/23.jpeg",2,3,"stim/23.jpeg",3,"right",1.56400013,2,4,1.731000185,1,1.181999922,47,0,0,NA,0,NA,0
"48",73,2,0,2,"stim/objects/HouseObjects/iron.png","",0,0,"",0,"right",3.420000076,NA,NA,NA,NA,NA,48,1,NA,NA,NA,NA,0
"49",73,2,0,2,"stim/objects/HouseObjects/ballofstring2.png","",0,0,"",0,"right",1.082999945,NA,NA,NA,NA,NA,49,1,NA,NA,NA,NA,0
"50",73,1,0.1,1,"stim/objects/Instruments/frenchhorn4.png","stim/53.jpeg",5,3,"stim/53.jpeg",4,"left",0.795000076,4,4,12.01399994,2,2.162999868,50,1,0,0,0,0,0
"51",73,2,0,2,"stim/objects/HouseObjects/ballofstring.png","",0,0,"",0,"right",4.116000175,NA,NA,NA,NA,NA,51,1,NA,NA,NA,NA,0
"52",73,1,0.1,1,"stim/objects/Instruments/harp4.png","stim/54.jpeg",5,4,"stim/54.jpeg",2,"left",1.123999834,3,4,2.078999996,2,0.756999969,52,1,1,1,1,1,0
"53",73,1,0.9,1,"stim/objects/Instruments/metronome4.png","stim/64.jpeg",6,4,"stim/64.jpeg",2,"right",5.214999914,2,2,1.736000061,2,1.187000036,53,0,0,NA,1,NA,0
"54",73,2,0,1,"stim/objects/Instruments/cello2.png","",0,0,"",0,"right",0.990999937,NA,NA,NA,NA,NA,54,1,NA,NA,NA,NA,0
"55",73,1,0.3,1,"stim/objects/Instruments/xylophone3.png","stim/31.jpeg",3,1,"stim/31.jpeg",3,"left",1.869999886,3,1,2.220999956,3,1.141000032,55,1,1,1,1,1,0
"56",73,2,0,1,"stim/objects/Instruments/xylophone.png","",0,0,"",0,"right",1.951999903,NA,NA,NA,NA,NA,56,1,NA,NA,NA,NA,0
"57",73,1,0.5,2,"stim/objects/HouseObjects/ironingboard3.png","stim/24.jpeg",2,4,"stim/24.jpeg",1,"right",1.618000031,2,4,1.23300004,2,0.724999905,57,0,1,NA,0,NA,0
"58",73,1,0.1,2,"stim/objects/HouseObjects/key4.png","stim/64.jpeg",6,4,"stim/64.jpeg",4,"right",5.18900013,2,4,2.671000004,2,0.618999958,58,0,1,NA,0,NA,0
"59",73,1,0.3,1,"stim/objects/Instruments/acousticguitar4.png","stim/33.jpeg",3,3,"stim/33.jpeg",3,"right",6.118000031,2,3,1.911000013,1,0.84800005,59,0,1,NA,0,NA,0
"60",73,2,0,2,"stim/objects/HouseObjects/ashtray.png","",0,0,"",0,"left",2.234999895,NA,NA,NA,NA,NA,60,0,NA,NA,NA,NA,0
"61",73,1,0.1,2,"stim/objects/HouseObjects/knife4.png","stim/61.jpeg",6,1,"stim/61.jpeg",3,"left",1.528000116,4,1,2.883999825,1,1.424000025,61,1,1,1,0,0,0
"62",73,2,0,2,"stim/objects/HouseObjects/handvacuum.png","",0,0,"",0,"right",4.209000111,NA,NA,NA,NA,NA,62,1,NA,NA,NA,NA,0
"63",73,2,0,1,"stim/objects/Instruments/guitarcase.png","",0,0,"",0,"right",1.443000078,NA,NA,NA,NA,NA,63,1,NA,NA,NA,NA,0
"64",73,1,0.5,1,"stim/objects/Instruments/harp3.png","stim/11.jpeg",1,1,"stim/11.jpeg",2,"left",0.812000036,4,2,1.756000042,2,1.872999907,64,1,0,0,1,1,0
"65",73,1,0.7,1,"stim/objects/Instruments/electricguitar4.png","stim/41.jpeg",4,1,"stim/41.jpeg",3,"right",3.628999949,3,3,1.406999826,2,4.980999947,65,0,0,NA,0,NA,0
"66",73,1,0.5,1,"stim/objects/Instruments/hihat3.png","stim/12.jpeg",1,2,"stim/12.jpeg",3,"right",2.039000034,4,4,0.878999949,4,1.406000137,66,0,0,NA,0,NA,0
"67",73,2,0,2,"stim/objects/HouseObjects/clock2.png","",0,0,"",0,"right",3.504000187,NA,NA,NA,NA,NA,67,1,NA,NA,NA,NA,0
"68",73,2,0,1,"stim/objects/Instruments/clarinet.png","",0,0,"",0,"left",1.345999956,NA,NA,NA,NA,NA,68,0,NA,NA,NA,NA,0
"69",73,2,0,2,"stim/objects/HouseObjects/cushion.png","",0,0,"",0,"right",0.982000113,NA,NA,NA,NA,NA,69,1,NA,NA,NA,NA,0
"70",73,2,0,2,"stim/objects/HouseObjects/pan.png","",0,0,"",0,"left",0.743999958,NA,NA,NA,NA,NA,70,0,NA,NA,NA,NA,0
"71",73,2,0,2,"stim/objects/HouseObjects/coffee.png","",0,0,"",0,"right",1.207000017,NA,NA,NA,NA,NA,71,1,NA,NA,NA,NA,0
"72",73,1,0.3,2,"stim/objects/HouseObjects/coffee4.png","stim/41.jpeg",4,1,"stim/41.jpeg",3,"right",0.940999985,1,3,1.026000023,1,1.05099988,72,0,0,NA,0,NA,0
"73",73,2,0,1,"stim/objects/Instruments/musicsheet.png","",0,0,"",0,"left",1.257000208,NA,NA,NA,NA,NA,73,0,NA,NA,NA,NA,0
"74",73,2,0,1,"stim/objects/Instruments/cornet.png","",0,0,"",0,"left",1.265000105,NA,NA,NA,NA,NA,74,0,NA,NA,NA,NA,0
"75",73,1,0.9,2,"stim/objects/HouseObjects/glassmop4.png","stim/54.jpeg",5,4,"stim/54.jpeg",3,"right",0.698999882,4,4,1.329999924,4,1.537000179,75,0,1,NA,0,NA,0
"76",73,1,0.5,2,"stim/objects/HouseObjects/key3.png","stim/21.jpeg",2,1,"stim/21.jpeg",4,"left",1.212000132,3,3,3.664000034,3,1.452000141,76,1,0,0,0,0,0
"77",73,2,0,2,"stim/objects/HouseObjects/hairdryer.png","",0,0,"",0,"right",6.096999884,NA,NA,NA,NA,NA,77,1,NA,NA,NA,NA,0
"78",73,2,0,1,"stim/objects/Instruments/electricguitar2.png","",0,0,"",0,"right",1.755000114,NA,NA,NA,NA,NA,78,1,NA,NA,NA,NA,0
"79",73,1,0.7,1,"stim/objects/Instruments/chime4.png","stim/42.jpeg",4,2,"stim/42.jpeg",4,"left",1.050000191,4,4,1.026000023,2,1.627000093,79,1,0,0,0,0,0
"80",73,2,0,1,"stim/objects/Instruments/violin.png","",0,0,"",0,"right",2.957999945,NA,NA,NA,NA,NA,80,1,NA,NA,NA,NA,0
"81",73,2,0,1,"stim/objects/Instruments/gong.png","",0,0,"",0,"left",2.282000065,NA,NA,NA,NA,NA,81,0,NA,NA,NA,NA,0
"82",73,1,0.9,1,"stim/objects/Instruments/oboe4.png","stim/63.jpeg",6,3,"stim/63.jpeg",1,"left",0.772000074,2,1,1.76699996,1,2.78399992,82,1,0,0,1,1,0
"83",73,2,0,1,"stim/objects/Instruments/musicstand.png","",0,0,"",0,"right",2.465000153,NA,NA,NA,NA,NA,83,1,NA,NA,NA,NA,0
"84",73,2,0,1,"stim/objects/Instruments/cello.png","",0,0,"",0,"left",1.293000221,NA,NA,NA,NA,NA,84,0,NA,NA,NA,NA,0
"85",73,1,0.7,1,"stim/objects/Instruments/cello4.png","stim/41.jpeg",4,1,"stim/41.jpeg",1,"left",0.801000118,3,1,1.92599988,1,1.282999992,85,1,1,1,1,1,0
"86",73,2,0,2,"stim/objects/HouseObjects/basket2.png","",0,0,"",0,"right",1.468999863,NA,NA,NA,NA,NA,86,1,NA,NA,NA,NA,0
"87",73,2,0,2,"stim/objects/HouseObjects/dishsoap.png","",0,0,"",0,"left",1.389000177,NA,NA,NA,NA,NA,87,0,NA,NA,NA,NA,0
"88",73,2,0,1,"stim/objects/Instruments/harmonica.png","",0,0,"",0,"left",4.513000011,NA,NA,NA,NA,NA,88,0,NA,NA,NA,NA,0
"89",73,1,0.1,2,"stim/objects/HouseObjects/match4.png","stim/63.jpeg",6,3,"stim/63.jpeg",2,"left",2.471999884,4,4,1.904000044,2,1.882999897,89,1,0,0,1,1,0
"90",73,1,0.7,1,"stim/objects/Instruments/drums4.png","stim/43.jpeg",4,3,"stim/43.jpeg",4,"left",1.11500001,4,1,1.194000006,3,1.10800004,90,1,0,0,0,0,0
"91",73,1,0.9,1,"stim/objects/Instruments/musicstand4.png","stim/62.jpeg",6,2,"stim/62.jpeg",2,"left",4.151000023,3,4,2.224999905,2,1.319000006,91,1,0,0,1,1,0
"92",73,1,0.3,2,"stim/objects/HouseObjects/bottle4.png","stim/43.jpeg",4,3,"stim/43.jpeg",3,"right",3.566999912,3,2,1.322999954,1,2.07400012,92,0,0,NA,0,NA,0
"93",73,2,0,2,"stim/objects/HouseObjects/handbrush.png","",0,0,"",0,"right",1.367999792,NA,NA,NA,NA,NA,93,1,NA,NA,NA,NA,0
"94",73,1,0.7,2,"stim/objects/HouseObjects/ballofstring4.png","stim/34.jpeg",3,4,"stim/34.jpeg",4,"right",0.937000036,2,3,3.013999939,2,0.441999912,94,0,0,NA,0,NA,0
"95",73,2,0,2,"stim/objects/HouseObjects/pitcher.png","",0,0,"",0,"right",1.049000025,NA,NA,NA,NA,NA,95,1,NA,NA,NA,NA,0
"96",73,1,0.5,1,"stim/objects/Instruments/guitarcase3.png","stim/13.jpeg",1,3,"stim/13.jpeg",1,"left",1.02699995,3,3,1.207000017,2,1.062999964,96,1,1,1,0,0,0
"97",73,2,0,1,"stim/objects/Instruments/chime2.png","",0,0,"",0,"right",1.669000149,NA,NA,NA,NA,NA,97,1,NA,NA,NA,NA,0
"98",73,1,0.3,2,"stim/objects/HouseObjects/broom4.png","stim/44.jpeg",4,4,"stim/44.jpeg",2,"right",4.513000011,1,3,1.446000099,3,1.347000122,98,0,0,NA,0,NA,0
"99",73,2,0,2,"stim/objects/HouseObjects/knife.png","",0,0,"",0,"right",1.559999943,NA,NA,NA,NA,NA,99,1,NA,NA,NA,NA,0
"100",73,1,0.5,2,"stim/objects/Instruments/laud3.png","stim/21.jpeg",2,1,"stim/21.jpeg",1,"left",1.172999859,2,1,1.815999985,3,0.715000153,100,1,1,1,0,0,0
"101",73,1,0.1,1,"stim/objects/Instruments/flutetrans4.png","stim/52.jpeg",5,2,"stim/52.jpeg",4,"right",1.25,2,2,2.496999979,2,2.171000004,101,0,1,NA,0,NA,0
"102",73,1,0.7,1,"stim/objects/Instruments/cornet4.png","stim/44.jpeg",4,4,"stim/44.jpeg",4,"left",2.642999887,3,4,3.493999958,2,0.933000088,102,1,1,1,0,0,0
"103",73,1,0.7,2,"stim/objects/HouseObjects/bleachbottle4.png","stim/33.jpeg",3,3,"stim/33.jpeg",2,"right",3.078000069,2,3,3.967999935,4,1.207999945,103,0,1,NA,0,NA,0
"104",73,2,0,1,"stim/objects/Instruments/electricguitar.png","",0,0,"",0,"left",1.573000193,NA,NA,NA,NA,NA,104,0,NA,NA,NA,NA,0
"105",73,1,0.5,2,"stim/objects/Instruments/metronome3.png","stim/24.jpeg",2,4,"stim/24.jpeg",2,"right",1.525000095,3,1,1.59100008,2,0.867999792,105,0,0,NA,1,NA,0
"106",73,1,0.1,2,"stim/objects/HouseObjects/ironingboard4.png","stim/63.jpeg",6,3,"stim/63.jpeg",4,"right",2.251000166,3,2,0.014000177,3,3.05099988,106,0,0,NA,0,NA,0
"107",73,1,0.7,2,"stim/objects/HouseObjects/pan3.png","stim/32.jpeg",3,2,"stim/32.jpeg",2,"left",1.079000235,4,4,2.141000032,4,1.200000048,107,1,0,0,0,0,0
"108",73,2,0,2,"stim/objects/HouseObjects/garbagebin.png","",0,0,"",0,"right",3.798000097,NA,NA,NA,NA,NA,108,1,NA,NA,NA,NA,0
"109",73,1,0.1,1,"stim/objects/Instruments/grandpiano4.png","stim/51.jpeg",5,1,"stim/51.jpeg",4,"right",5.027000189,2,3,2.334000111,3,2.095000029,109,0,0,NA,0,NA,0
"110",73,1,0.9,2,"stim/objects/HouseObjects/dustpan4.png","stim/54.jpeg",5,4,"stim/54.jpeg",2,"right",1.029999971,4,4,1.246999979,2,1.845999956,110,0,1,NA,1,NA,0
"111",73,1,0.3,1,"stim/objects/Instruments/musicstand3.png","stim/31.jpeg",3,1,"stim/31.jpeg",2,"left",9.333999872,4,1,1.266000032,2,2.46600008,111,1,1,1,1,1,0
"112",73,1,0.5,2,"stim/objects/Instruments/maraca3.png","stim/22.jpeg",2,2,"stim/22.jpeg",3,"left",1.53399992,4,4,1.628000021,4,1.495999813,112,1,0,0,0,0,0
"113",73,2,0,1,"stim/objects/Instruments/oboe.png","",0,0,"",0,"left",1.263000011,NA,NA,NA,NA,NA,113,0,NA,NA,NA,NA,0
"114",73,1,0.7,1,"stim/objects/Instruments/electricdrumset4.png","stim/44.jpeg",4,4,"stim/44.jpeg",3,"right",1.277000189,3,3,1.608999968,1,2.690999985,114,0,0,NA,0,NA,0
"115",73,1,0.9,1,"stim/objects/Instruments/marimba4.png","stim/63.jpeg",6,3,"stim/63.jpeg",3,"right",1.15899992,2,4,1.662000179,2,1.336999893,115,0,0,NA,0,NA,0
"116",73,1,0.5,1,"stim/objects/HouseObjects/hairdryer3.png","stim/13.jpeg",1,3,"stim/13.jpeg",1,"right",0.996999979,1,4,1.853999853,2,1.789000034,116,0,0,NA,0,NA,0
"117",73,2,0,1,"stim/objects/Instruments/banjo2.png","",0,0,"",0,"right",1.641000032,NA,NA,NA,NA,NA,117,1,NA,NA,NA,NA,0
"118",73,1,0.7,2,"stim/objects/HouseObjects/basket4.png","stim/32.jpeg",3,2,"stim/32.jpeg",2,"right",1.407000065,3,4,1.419000149,4,0.421999931,118,0,0,NA,0,NA,0
"119",73,2,0,2,"stim/objects/HouseObjects/clothespin.png","",0,0,"",0,"left",1.261000156,NA,NA,NA,NA,NA,119,0,NA,NA,NA,NA,0
"120",73,1,0.5,2,"stim/objects/HouseObjects/match3.png","stim/24.jpeg",2,4,"stim/24.jpeg",3,"right",1.687999964,2,3,1.220999956,4,2.082999945,120,0,0,NA,0,NA,0
"121",73,1,0.3,2,"stim/objects/HouseObjects/clock4.png","stim/42.jpeg",4,2,"stim/42.jpeg",2,"right",3.736000061,2,3,0.847999811,4,1.120000124,121,0,0,NA,0,NA,0
"122",73,1,0.9,2,"stim/objects/HouseObjects/handvacuum4.png","stim/53.jpeg",5,3,"stim/53.jpeg",3,"right",1.836999893,1,1,1.312000036,4,1.378000021,122,0,0,NA,0,NA,0
"123",73,2,0,1,"stim/objects/Instruments/hihat.png","",0,0,"",0,"right",6.207999945,NA,NA,NA,NA,NA,123,1,NA,NA,NA,NA,0
"124",73,1,0.3,2,"stim/objects/HouseObjects/dishsoap4.png","stim/43.jpeg",4,3,"stim/43.jpeg",1,"left",0.967000008,4,4,1.368999958,2,1.493000031,124,1,0,0,0,0,0
"125",73,1,0.7,2,"stim/objects/HouseObjects/vacuumcleaner3.png","stim/31.jpeg",3,1,"stim/31.jpeg",3,"right",1.08100009,2,4,1.022000074,1,2.294000149,125,0,0,NA,0,NA,0
"126",73,1,0.1,1,"stim/objects/Instruments/keyboard4.png","stim/52.jpeg",5,2,"stim/52.jpeg",4,"right",5.726999998,2,4,0.721999884,2,1.311000109,126,0,0,NA,0,NA,0
"127",73,2,0,2,"stim/objects/HouseObjects/bleachbottle.png","",0,0,"",0,"left",2.47300005,NA,NA,NA,NA,NA,127,0,NA,NA,NA,NA,0
"128",73,2,0,1,"stim/objects/Instruments/electricdrumset2.png","",0,0,"",0,"right",1.271000147,NA,NA,NA,NA,NA,128,1,NA,NA,NA,NA,0
"129",73,2,0,1,"stim/objects/Instruments/cymbal.png","",0,0,"",0,"right",1.374000072,NA,NA,NA,NA,NA,129,1,NA,NA,NA,NA,0
"130",73,1,0.7,2,"stim/objects/HouseObjects/barbecuelighter4.png","stim/31.jpeg",3,1,"stim/31.jpeg",1,"left",0.980000019,4,3,1.348999977,4,0.43599987,130,1,0,0,0,0,0
"131",73,1,0.7,1,"stim/objects/Instruments/cymbal4.png","stim/41.jpeg",4,1,"stim/41.jpeg",2,"right",1.684000015,2,3,1.407000065,2,1.549999952,131,0,0,NA,1,NA,0
"132",73,1,0.3,1,"stim/objects/Instruments/accordion4.png","stim/32.jpeg",3,2,"stim/32.jpeg",4,"left",2.023000002,3,1,1.654000044,2,1.582000017,132,1,0,0,0,0,0
"133",73,2,0,2,"stim/objects/HouseObjects/basket.png","",0,0,"",0,"right",1.200000048,NA,NA,NA,NA,NA,133,1,NA,NA,NA,NA,0
"134",73,2,0,1,"stim/objects/Instruments/flute.png","",0,0,"",0,"left",1.104000092,NA,NA,NA,NA,NA,134,0,NA,NA,NA,NA,0
"135",73,2,0,1,"stim/objects/Instruments/cymbal2.png","",0,0,"",0,"right",1.031000137,NA,NA,NA,NA,NA,135,1,NA,NA,NA,NA,0
"136",73,2,0,2,"stim/objects/HouseObjects/match.png","",0,0,"",0,"right",1.099999905,NA,NA,NA,NA,NA,136,1,NA,NA,NA,NA,0
"137",73,1,0.7,1,"stim/objects/Instruments/bassguitar4.png","stim/44.jpeg",4,4,"stim/44.jpeg",1,"right",1.578999996,2,4,0.822999954,4,1.037000179,137,0,1,NA,0,NA,0
"138",73,1,0.1,1,"stim/objects/Instruments/hihat4.png","stim/51.jpeg",5,1,"stim/51.jpeg",2,"left",1.999000072,3,3,2.830000162,1,1.52699995,138,1,0,0,0,0,0
"139",73,2,0,1,"stim/objects/Instruments/grandpiano.png","",0,0,"",0,"right",2.164000034,NA,NA,NA,NA,NA,139,1,NA,NA,NA,NA,0
"140",73,1,0.3,1,"stim/objects/Instruments/bassdrum4.png","stim/32.jpeg",3,2,"stim/32.jpeg",3,"left",1.338999987,3,4,0.744999886,3,0.021999836,140,1,0,0,1,1,0
"141",73,2,0,2,"stim/objects/HouseObjects/glass.png","",0,0,"",0,"right",2.498000145,NA,NA,NA,NA,NA,141,1,NA,NA,NA,NA,0
"142",73,1,0.5,2,"stim/objects/Instruments/marimba3.png","stim/23.jpeg",2,3,"stim/23.jpeg",2,"right",3.492000103,4,4,2.752000093,2,0.986999989,142,0,0,NA,1,NA,0
"143",73,1,0.7,2,"stim/objects/HouseObjects/towel3.png","stim/34.jpeg",3,4,"stim/34.jpeg",2,"right",2,2,3,0.860999823,4,0.607000113,143,0,0,NA,0,NA,0
"144",73,1,0.1,1,"stim/objects/Instruments/harmonica4.png","stim/53.jpeg",5,3,"stim/53.jpeg",3,"right",3.493000031,3,1,1.473999977,4,0.535000086,144,0,0,NA,0,NA,0
"145",73,2,0,2,"stim/objects/HouseObjects/clothesdryingrack.png","",0,0,"",0,"right",7.776000023,NA,NA,NA,NA,NA,145,1,NA,NA,NA,NA,0
"146",73,2,0,1,"stim/objects/Instruments/cornet2.png","",0,0,"",0,"left",0.723999977,NA,NA,NA,NA,NA,146,0,NA,NA,NA,NA,0
"147",73,2,0,2,"stim/objects/HouseObjects/bleachbottle2.png","",0,0,"",0,"right",1.180000067,NA,NA,NA,NA,NA,147,1,NA,NA,NA,NA,0
"148",73,2,0,1,"stim/objects/Instruments/balalaika2.png","",0,0,"",0,"right",1.178999901,NA,NA,NA,NA,NA,148,1,NA,NA,NA,NA,0
"149",73,2,0,2,"stim/objects/HouseObjects/flyswatter.png","",0,0,"",0,"right",0.815999985,NA,NA,NA,NA,NA,149,1,NA,NA,NA,NA,0
"150",73,2,0,1,"stim/objects/Instruments/electricdrumset.png","",0,0,"",0,"right",1.332000017,NA,NA,NA,NA,NA,150,1,NA,NA,NA,NA,0
"151",73,2,0,2,"stim/objects/HouseObjects/wateringcan.png","",0,0,"",0,"right",1.078000069,NA,NA,NA,NA,NA,151,1,NA,NA,NA,NA,0
"152",73,2,0,1,"stim/objects/Instruments/accordion.png","",0,0,"",0,"left",1.172999859,NA,NA,NA,NA,NA,152,0,NA,NA,NA,NA,0
"153",73,2,0,1,"stim/objects/Instruments/banjo.png","",0,0,"",0,"right",1.816999912,NA,NA,NA,NA,NA,153,1,NA,NA,NA,NA,0
"154",73,2,0,1,"stim/objects/Instruments/drums2.png","",0,0,"",0,"left",0.629999876,NA,NA,NA,NA,NA,154,0,NA,NA,NA,NA,0
"155",73,1,0.9,2,"stim/objects/HouseObjects/flyswatter4.png","stim/51.jpeg",5,1,"stim/51.jpeg",1,"right",0.861000061,2,3,1.184000015,2,1.095999956,155,0,0,NA,0,NA,0
"156",73,1,0.3,1,"stim/objects/Instruments/vuvuzela3.png","stim/34.jpeg",3,4,"stim/34.jpeg",4,"left",1.476000071,4,1,1.740999937,2,1.199999809,156,1,0,0,0,0,0
"157",73,1,0.9,2,"stim/objects/HouseObjects/doormat4.png","stim/53.jpeg",5,3,"stim/53.jpeg",1,"left",1.207999945,4,4,1.035000086,3,1.104000092,157,1,0,0,0,0,0
"158",73,1,0.7,1,"stim/objects/Instruments/clarinet4.png","stim/43.jpeg",4,3,"stim/43.jpeg",3,"left",0.923000097,3,2,1.450999975,1,0.11500001,158,1,0,0,0,0,0
"159",73,2,0,1,"stim/objects/Instruments/bassdrum.png","",0,0,"",0,"right",2.674000025,NA,NA,NA,NA,NA,159,1,NA,NA,NA,NA,0
"160",73,2,0,2,"stim/objects/HouseObjects/blender2.png","",0,0,"",0,"right",1.053999901,NA,NA,NA,NA,NA,160,1,NA,NA,NA,NA,0
"161",73,1,0.7,2,"stim/objects/HouseObjects/pitcher3.png","stim/33.jpeg",3,3,"stim/33.jpeg",2,"right",0.996999979,1,3,0.866000175,4,0.844000101,161,0,1,NA,0,NA,0
"162",73,2,0,1,"stim/objects/Instruments/metronome.png","",0,0,"",0,"right",1.143999815,NA,NA,NA,NA,NA,162,1,NA,NA,NA,NA,0
"163",73,2,0,2,"stim/objects/HouseObjects/dishsoap2.png","",0,0,"",0,"right",1.049999952,NA,NA,NA,NA,NA,163,1,NA,NA,NA,NA,0
"164",73,1,0.5,1,"stim/objects/Instruments/harmonica3.png","stim/14.jpeg",1,4,"stim/14.jpeg",3,"right",1.078999996,2,4,1.335999966,3,1.263999939,164,0,1,NA,1,NA,0
"165",73,1,0.9,1,"stim/objects/Instruments/musicsheet4.png","stim/61.jpeg",6,1,"stim/61.jpeg",1,"right",3.188999891,1,1,0.973999977,2,0.894999981,165,0,1,NA,0,NA,0
"166",73,2,0,2,"stim/objects/HouseObjects/key.png","",0,0,"",0,"left",1.893999815,NA,NA,NA,NA,NA,166,0,NA,NA,NA,NA,0
"167",73,1,0.3,1,"stim/objects/Instruments/violin3.png","stim/33.jpeg",3,3,"stim/33.jpeg",1,"left",1.394999981,3,4,0.984999895,2,1.075000048,167,1,0,0,0,0,0
"168",73,1,0.1,2,"stim/objects/HouseObjects/lintroller4.png","stim/62.jpeg",6,2,"stim/62.jpeg",4,"right",1.051000118,3,3,1.31099987,2,0.703999996,168,0,0,NA,0,NA,0
"169",73,2,0,1,"stim/objects/Instruments/doublebass.png","",0,0,"",0,"right",2.197000027,NA,NA,NA,NA,NA,169,1,NA,NA,NA,NA,0
"170",73,1,0.5,2,"stim/objects/HouseObjects/knife3.png","stim/22.jpeg",2,2,"stim/22.jpeg",2,"right",0.989000082,2,4,1.00999999,2,1.292000055,170,0,0,NA,1,NA,0
"171",73,1,0.1,2,"stim/objects/HouseObjects/vacuumcleaner4.png","stim/63.jpeg",6,3,"stim/63.jpeg",4,"right",1.264999866,2,2,2.114000082,1,0.493999958,171,0,0,NA,0,NA,0
"172",73,2,0,2,"stim/objects/HouseObjects/barbecuelighter2.png","",0,0,"",0,"right",1.368000031,NA,NA,NA,NA,NA,172,1,NA,NA,NA,NA,0
"173",73,2,0,1,"stim/objects/Instruments/drums.png","",0,0,"",0,"left",1.328999996,NA,NA,NA,NA,NA,173,0,NA,NA,NA,NA,0
"174",73,2,0,1,"stim/objects/Instruments/frenchhorn.png","",0,0,"",0,"left",0.684999943,NA,NA,NA,NA,NA,174,0,NA,NA,NA,NA,0
"175",73,2,0,1,"stim/objects/Instruments/maraca.png","",0,0,"",0,"left",0.891000032,NA,NA,NA,NA,NA,175,0,NA,NA,NA,NA,0
"176",73,1,0.3,2,"stim/objects/HouseObjects/blender4.png","stim/42.jpeg",4,2,"stim/42.jpeg",2,"right",1.424999952,2,1,0.849999905,2,0.888999939,176,0,0,NA,1,NA,0
"177",73,1,0.3,2,"stim/objects/HouseObjects/clothesdryingrack4.png","stim/43.jpeg",4,3,"stim/43.jpeg",2,"left",1.25999999,3,3,1.388000011,1,3.804000139,177,1,1,1,0,0,0
"178",73,1,0.9,1,"stim/objects/Instruments/xylophone4.png","stim/62.jpeg",6,2,"stim/62.jpeg",4,"right",1.167999983,2,3,0.965000153,2,0.394000053,178,0,0,NA,0,NA,0
"179",73,1,0.7,1,"stim/objects/Instruments/doublebass4.png","stim/42.jpeg",4,2,"stim/42.jpeg",4,"left",2.45299983,4,4,1.209000111,2,0.736999989,179,1,0,0,0,0,0
"180",73,2,0,2,"stim/objects/HouseObjects/bottle.png","",0,0,"",0,"right",0.91899991,NA,NA,NA,NA,NA,180,1,NA,NA,NA,NA,0
"181",73,1,0.5,1,"stim/objects/HouseObjects/handbrush3.png","stim/14.jpeg",1,4,"stim/14.jpeg",2,"right",1.299999952,2,3,1.881999969,2,1.023999929,181,0,0,NA,1,NA,0
"182",73,1,0.1,1,"stim/objects/Instruments/gong4.png","stim/54.jpeg",5,4,"stim/54.jpeg",2,"right",0.954999924,2,1,2.277000189,3,0.769000053,182,0,0,NA,0,NA,0
"183",73,2,0,1,"stim/objects/Instruments/doublebass2.png","",0,0,"",0,"left",1.850999832,NA,NA,NA,NA,NA,183,0,NA,NA,NA,NA,0
"184",73,2,0,1,"stim/objects/Instruments/acousticguitar2.png","",0,0,"",0,"right",0.92599988,NA,NA,NA,NA,NA,184,1,NA,NA,NA,NA,0
"185",73,2,0,2,"stim/objects/HouseObjects/lintroller.png","",0,0,"",0,"right",0.786000013,NA,NA,NA,NA,NA,185,1,NA,NA,NA,NA,0
"186",73,2,0,1,"stim/objects/Instruments/accordion2.png","",0,0,"",0,"right",1.137000084,NA,NA,NA,NA,NA,186,1,NA,NA,NA,NA,0
"187",73,1,0.9,1,"stim/objects/Instruments/violin4.png","stim/64.jpeg",6,4,"stim/64.jpeg",3,"left",0.600999832,3,4,1.540999889,3,1.323999882,187,1,1,1,1,1,0
"188",73,1,0.5,1,"stim/objects/HouseObjects/handvacuum3.png","stim/11.jpeg",1,1,"stim/11.jpeg",4,"right",1.354000092,2,3,0.645999908,2,0.735000134,188,0,0,NA,0,NA,0
"189",73,2,0,2,"stim/objects/HouseObjects/clock.png","",0,0,"",0,"right",1.276000023,NA,NA,NA,NA,NA,189,1,NA,NA,NA,NA,0
"190",73,2,0,1,"stim/objects/Instruments/laud.png","",0,0,"",0,"right",0.937999964,NA,NA,NA,NA,NA,190,1,NA,NA,NA,NA,0
"191",73,1,0.9,2,"stim/objects/HouseObjects/glass4.png","stim/53.jpeg",5,3,"stim/53.jpeg",4,"left",0.815000057,3,2,1.290999889,3,0.527999878,191,1,0,0,0,0,0
"192",73,1,0.3,2,"stim/objects/HouseObjects/cushion4.png","stim/42.jpeg",4,2,"stim/42.jpeg",2,"left",0.915999889,3,2,2.983999968,2,0.802999973,192,1,1,1,1,1,0
"193",73,1,0.1,2,"stim/objects/HouseObjects/pitcher4.png","stim/61.jpeg",6,1,"stim/61.jpeg",4,"right",0.916999817,2,3,0.792000055,2,0.878000021,193,0,0,NA,0,NA,0
"194",73,1,0.5,1,"stim/objects/Instruments/keyboard3.png","stim/13.jpeg",1,3,"stim/13.jpeg",2,"right",2.391000032,4,3,0.693999767,2,0.960000038,194,0,1,NA,1,NA,0
"195",73,1,0.9,2,"stim/objects/HouseObjects/iron4.png","stim/54.jpeg",5,4,"stim/54.jpeg",2,"right",1.301000118,2,1,1.157000065,3,0.417000055,195,0,0,NA,0,NA,0
"196",73,1,0.1,2,"stim/objects/HouseObjects/towel4.png","stim/62.jpeg",6,2,"stim/62.jpeg",2,"right",0.904000044,2,4,2.296999931,2,0.803999901,196,0,0,NA,1,NA,0
"197",73,2,0,2,"stim/objects/HouseObjects/bucket2.png","",0,0,"",0,"right",4.287999868,NA,NA,NA,NA,NA,197,1,NA,NA,NA,NA,0
"198",73,1,0.5,1,"stim/objects/HouseObjects/glassmop3.png","stim/12.jpeg",1,2,"stim/12.jpeg",4,"left",1.245000124,4,3,2.430000067,2,0.995000124,198,1,0,0,0,0,0
"199",73,2,0,2,"stim/objects/HouseObjects/coffee2.png","",0,0,"",0,"right",4.351999998,NA,NA,NA,NA,NA,199,1,NA,NA,NA,NA,0
"200",73,2,0,1,"stim/objects/Instruments/flutetrans.png","",0,0,"",0,"left",0.799000025,NA,NA,NA,NA,NA,200,0,NA,NA,NA,NA,0
