"","obj_file","X.x","participant.x","trialN.x","trial_cond","scn_file.x","scn_cat","scn_inst","scn_condition","fillers","obj_cat","obj_cat_num","quadrant","corr_ans","key_resp_trial.keys","key_resp_trial.rt","trial_acc","trial_acc_manual","group.x","practice","X.y","participant.y","OvsN","PE_level","object_cat","scn_file.y","corr_scn_cat","corr_scn_inst","scn_file.1","corr_loc","key_resp_id.keys","key_resp_id.rt","key_resp_conf.keys","key_resp_assoc.keys","key_resp_assoc.rt","key_resp_loc.keys","key_resp_loc.rt","trialN.y","id_acc","assoc.acc","cond_assoc","loc.acc","cond_loc","group.y"
"1","stim/objects/HouseObjects/recyclingbin.png",1,18,1,0.5,"stim/11.jpeg",1,1,1,NA,"HouseObjects",2,2,"right","",NA,0,0,1,1,NA,NA,NA,NA,NA,NA,NA,NA,NA,NA,NA,NA,NA,NA,NA,NA,NA,NA,NA,NA,NA,NA,NA,NA
"6","stim/objects/HouseObjects/recyclingbin2.png",2,18,2,0.3,"stim/41.jpeg",4,1,2,NA,"HouseObjects",2,4,"right","",NA,0,0,1,1,NA,NA,NA,NA,NA,NA,NA,NA,NA,NA,NA,NA,NA,NA,NA,NA,NA,NA,NA,NA,NA,NA,NA,NA
"104","stim/objects/HouseObjects/teapot2.png",3,18,3,0.1,"stim/62.jpeg",6,2,3,NA,"HouseObjects",2,1,"right","left",0.737999916,0,0,1,1,NA,NA,NA,NA,NA,NA,NA,NA,NA,NA,NA,NA,NA,NA,NA,NA,NA,NA,NA,NA,NA,NA,NA,NA
"121","stim/objects/Instruments/panflute.png",4,18,4,0.5,"stim/11.jpeg",1,1,1,NA,"Instruments",1,4,"left","",NA,0,0,1,1,NA,NA,NA,NA,NA,NA,NA,NA,NA,NA,NA,NA,NA,NA,NA,NA,NA,NA,NA,NA,NA,NA,NA,NA
"14","stim/objects/HouseObjects/remote2.png",5,18,5,0.3,"stim/42.jpeg",4,2,2,NA,"HouseObjects",2,3,"right","left",0.802000046,0,0,1,1,NA,NA,NA,NA,NA,NA,NA,NA,NA,NA,NA,NA,NA,NA,NA,NA,NA,NA,NA,NA,NA,NA,NA,NA
"220","stim/objects/Instruments/trumpet2.png",6,18,6,0.9,"stim/63.jpeg",6,3,3,NA,"Instruments",1,3,"left","left",0.635999918,1,1,1,1,NA,NA,NA,NA,NA,NA,NA,NA,NA,NA,NA,NA,NA,NA,NA,NA,NA,NA,NA,NA,NA,NA,NA,NA
"232","stim/objects/Instruments/tuba2.png",7,18,7,0.9,"stim/64.jpeg",6,4,3,NA,"Instruments",1,3,"left","left",0.675000191,1,1,1,1,NA,NA,NA,NA,NA,NA,NA,NA,NA,NA,NA,NA,NA,NA,NA,NA,NA,NA,NA,NA,NA,NA,NA,NA
"47","stim/objects/HouseObjects/saw.png",8,18,8,0.5,"stim/22.jpeg",2,2,1,NA,"HouseObjects",2,1,"right","",NA,0,0,1,1,NA,NA,NA,NA,NA,NA,NA,NA,NA,NA,NA,NA,NA,NA,NA,NA,NA,NA,NA,NA,NA,NA,NA,NA
"133","stim/objects/Instruments/pipepiano.png",9,18,9,0.5,"stim/12.jpeg",1,2,1,NA,"Instruments",1,2,"left","",NA,0,0,1,1,NA,NA,NA,NA,NA,NA,NA,NA,NA,NA,NA,NA,NA,NA,NA,NA,NA,NA,NA,NA,NA,NA,NA,NA
"193","stim/objects/Instruments/triangle.png",10,18,10,0.3,"stim/31.jpeg",3,1,2,NA,"Instruments",1,2,"left","left",0.786999941,1,1,1,1,NA,NA,NA,NA,NA,NA,NA,NA,NA,NA,NA,NA,NA,NA,NA,NA,NA,NA,NA,NA,NA,NA,NA,NA
"221","stim/objects/Instruments/trumpet2.png",11,18,11,0.9,"stim/63.jpeg",6,3,3,NA,"Instruments",1,2,"left","left",0.613000154,1,1,1,1,NA,NA,NA,NA,NA,NA,NA,NA,NA,NA,NA,NA,NA,NA,NA,NA,NA,NA,NA,NA,NA,NA,NA,NA
"105","stim/objects/HouseObjects/thermometer.png",12,18,12,0.7,"stim/33.jpeg",3,3,2,NA,"HouseObjects",2,4,"right","right",0.773999929,1,1,1,1,NA,NA,NA,NA,NA,NA,NA,NA,NA,NA,NA,NA,NA,NA,NA,NA,NA,NA,NA,NA,NA,NA,NA,NA
"169","stim/objects/Instruments/saxophone.png",13,18,13,0.5,"stim/21.jpeg",2,1,1,NA,"Instruments",1,4,"left","",NA,0,0,1,1,NA,NA,NA,NA,NA,NA,NA,NA,NA,NA,NA,NA,NA,NA,NA,NA,NA,NA,NA,NA,NA,NA,NA,NA
"138","stim/objects/Instruments/pipepiano2.png",14,18,14,0.7,"stim/42.jpeg",4,2,2,NA,"Instruments",1,2,"left","left",0.770999908,1,1,1,1,NA,NA,NA,NA,NA,NA,NA,NA,NA,NA,NA,NA,NA,NA,NA,NA,NA,NA,NA,NA,NA,NA,NA,NA
"122","stim/objects/Instruments/panflute.png",15,18,15,0.5,"stim/11.jpeg",1,1,1,NA,"Instruments",1,1,"left","right",0.741999865,0,0,1,1,NA,NA,NA,NA,NA,NA,NA,NA,NA,NA,NA,NA,NA,NA,NA,NA,NA,NA,NA,NA,NA,NA,NA,NA
"181","stim/objects/Instruments/tambourine.png",16,18,16,0.5,"stim/23.jpeg",2,3,1,NA,"Instruments",1,1,"left","",NA,0,0,1,1,NA,NA,NA,NA,NA,NA,NA,NA,NA,NA,NA,NA,NA,NA,NA,NA,NA,NA,NA,NA,NA,NA,NA,NA
"233","stim/objects/Instruments/tuba2.png",17,18,17,0.9,"stim/64.jpeg",6,4,3,NA,"Instruments",1,3,"left","left",0.582000017,1,1,1,1,NA,NA,NA,NA,NA,NA,NA,NA,NA,NA,NA,NA,NA,NA,NA,NA,NA,NA,NA,NA,NA,NA,NA,NA
"17","stim/objects/HouseObjects/rubbergloves.png",18,18,18,0.5,"stim/13.jpeg",1,3,1,NA,"HouseObjects",2,3,"right","right",0.738999844,1,1,1,1,NA,NA,NA,NA,NA,NA,NA,NA,NA,NA,NA,NA,NA,NA,NA,NA,NA,NA,NA,NA,NA,NA,NA,NA
"97","stim/objects/HouseObjects/teapot.png",19,18,19,0.7,"stim/32.jpeg",3,2,2,NA,"HouseObjects",2,1,"right","right",0.667999983,1,1,1,1,NA,NA,NA,NA,NA,NA,NA,NA,NA,NA,NA,NA,NA,NA,NA,NA,NA,NA,NA,NA,NA,NA,NA,NA
"162","stim/objects/Instruments/record2.png",20,18,20,0.7,"stim/43.jpeg",4,3,2,NA,"Instruments",1,4,"left","left",0.726000071,1,1,1,1,NA,NA,NA,NA,NA,NA,NA,NA,NA,NA,NA,NA,NA,NA,NA,NA,NA,NA,NA,NA,NA,NA,NA,NA
"75","stim/objects/HouseObjects/sponge.png",21,18,21,0.5,"stim/24.jpeg",2,4,1,NA,"HouseObjects",2,1,"right","right",0.756999969,1,1,1,1,NA,NA,NA,NA,NA,NA,NA,NA,NA,NA,NA,NA,NA,NA,NA,NA,NA,NA,NA,NA,NA,NA,NA,NA
"222","stim/objects/Instruments/trumpet2.png",22,18,22,0.9,"stim/63.jpeg",6,3,3,NA,"Instruments",1,2,"left","left",0.608999968,1,1,1,1,NA,NA,NA,NA,NA,NA,NA,NA,NA,NA,NA,NA,NA,NA,NA,NA,NA,NA,NA,NA,NA,NA,NA,NA
"106","stim/objects/HouseObjects/thermometer.png",23,18,23,0.7,"stim/33.jpeg",3,3,2,NA,"HouseObjects",2,2,"right","right",0.749000072,1,1,1,1,NA,NA,NA,NA,NA,NA,NA,NA,NA,NA,NA,NA,NA,NA,NA,NA,NA,NA,NA,NA,NA,NA,NA,NA
"175","stim/objects/Instruments/speaker.png",24,18,24,0.5,"stim/22.jpeg",2,2,1,NA,"Instruments",1,1,"left","right",0.687000036,0,0,1,1,NA,NA,NA,NA,NA,NA,NA,NA,NA,NA,NA,NA,NA,NA,NA,NA,NA,NA,NA,NA,NA,NA,NA,NA
"208","stim/objects/Instruments/trombone2.png",25,18,25,0.9,"stim/62.jpeg",6,2,3,NA,"Instruments",1,1,"left","left",0.611999989,1,1,1,1,NA,NA,NA,NA,NA,NA,NA,NA,NA,NA,NA,NA,NA,NA,NA,NA,NA,NA,NA,NA,NA,NA,NA,NA
"209","stim/objects/Instruments/trombone2.png",26,18,26,0.9,"stim/62.jpeg",6,2,3,NA,"Instruments",1,1,"left","left",0.588000059,1,1,1,1,NA,NA,NA,NA,NA,NA,NA,NA,NA,NA,NA,NA,NA,NA,NA,NA,NA,NA,NA,NA,NA,NA,NA,NA
"66","stim/objects/HouseObjects/scale2.png",27,18,27,0.9,"stim/53.jpeg",5,3,3,NA,"HouseObjects",2,1,"right","right",0.646999836,1,1,1,1,NA,NA,NA,NA,NA,NA,NA,NA,NA,NA,NA,NA,NA,NA,NA,NA,NA,NA,NA,NA,NA,NA,NA,NA
"194","stim/objects/Instruments/triangle.png",28,18,28,0.3,"stim/31.jpeg",3,1,2,NA,"Instruments",1,3,"left","",NA,0,0,1,1,NA,NA,NA,NA,NA,NA,NA,NA,NA,NA,NA,NA,NA,NA,NA,NA,NA,NA,NA,NA,NA,NA,NA,NA
"176","stim/objects/Instruments/speaker.png",29,18,29,0.5,"stim/22.jpeg",2,2,1,NA,"Instruments",1,4,"left","right",0.647000074,0,0,1,1,NA,NA,NA,NA,NA,NA,NA,NA,NA,NA,NA,NA,NA,NA,NA,NA,NA,NA,NA,NA,NA,NA,NA,NA
"126","stim/objects/Instruments/panflute2.png",30,18,30,0.7,"stim/41.jpeg",4,1,2,NA,"Instruments",1,2,"left","left",0.689999819,1,1,1,1,NA,NA,NA,NA,NA,NA,NA,NA,NA,NA,NA,NA,NA,NA,NA,NA,NA,NA,NA,NA,NA,NA,NA,NA
"196","stim/objects/Instruments/triangle2.png",31,18,31,0.9,"stim/61.jpeg",6,1,3,NA,"Instruments",1,3,"left","left",0.612999916,1,1,1,1,NA,NA,NA,NA,NA,NA,NA,NA,NA,NA,NA,NA,NA,NA,NA,NA,NA,NA,NA,NA,NA,NA,NA,NA
"127","stim/objects/Instruments/panflute2.png",32,18,32,0.7,"stim/41.jpeg",4,1,2,NA,"Instruments",1,1,"left","left",0.655999899,1,1,1,1,NA,NA,NA,NA,NA,NA,NA,NA,NA,NA,NA,NA,NA,NA,NA,NA,NA,NA,NA,NA,NA,NA,NA,NA
"61","stim/objects/HouseObjects/scale.png",33,18,33,0.5,"stim/23.jpeg",2,3,1,NA,"HouseObjects",2,1,"right","right",0.574999809,1,1,1,1,NA,NA,NA,NA,NA,NA,NA,NA,NA,NA,NA,NA,NA,NA,NA,NA,NA,NA,NA,NA,NA,NA,NA,NA
"30","stim/objects/HouseObjects/rug2.png",34,18,34,0.3,"stim/44.jpeg",4,4,2,NA,"HouseObjects",2,2,"right","left",0.639999866,0,0,1,1,NA,NA,NA,NA,NA,NA,NA,NA,NA,NA,NA,NA,NA,NA,NA,NA,NA,NA,NA,NA,NA,NA,NA,NA
"112","stim/objects/HouseObjects/thermometer2.png",35,18,35,0.1,"stim/63.jpeg",6,3,3,NA,"HouseObjects",2,4,"right","left",0.509000063,0,0,1,1,NA,NA,NA,NA,NA,NA,NA,NA,NA,NA,NA,NA,NA,NA,NA,NA,NA,NA,NA,NA,NA,NA,NA,NA
"96","stim/objects/HouseObjects/spraybottle2.png",36,18,36,0.1,"stim/61.jpeg",6,1,3,NA,"HouseObjects",2,2,"right","left",0.618000031,0,0,1,1,NA,NA,NA,NA,NA,NA,NA,NA,NA,NA,NA,NA,NA,NA,NA,NA,NA,NA,NA,NA,NA,NA,NA,NA
"163","stim/objects/Instruments/record2.png",37,18,37,0.7,"stim/43.jpeg",4,3,2,NA,"Instruments",1,1,"left","left",0.648999929,1,1,1,1,NA,NA,NA,NA,NA,NA,NA,NA,NA,NA,NA,NA,NA,NA,NA,NA,NA,NA,NA,NA,NA,NA,NA,NA
"150","stim/objects/Instruments/record_player2.png",38,18,38,0.7,"stim/44.jpeg",4,4,2,NA,"Instruments",1,3,"left","",NA,0,0,1,1,NA,NA,NA,NA,NA,NA,NA,NA,NA,NA,NA,NA,NA,NA,NA,NA,NA,NA,NA,NA,NA,NA,NA,NA
"107","stim/objects/HouseObjects/thermometer.png",39,18,39,0.7,"stim/33.jpeg",3,3,2,NA,"HouseObjects",2,4,"right","left",0.545000076,0,0,1,1,NA,NA,NA,NA,NA,NA,NA,NA,NA,NA,NA,NA,NA,NA,NA,NA,NA,NA,NA,NA,NA,NA,NA,NA
"157","stim/objects/Instruments/record.png",40,18,40,0.5,"stim/13.jpeg",1,3,1,NA,"Instruments",1,1,"left","",NA,0,0,1,1,NA,NA,NA,NA,NA,NA,NA,NA,NA,NA,NA,NA,NA,NA,NA,NA,NA,NA,NA,NA,NA,NA,NA,NA
"108","stim/objects/HouseObjects/thermometer.png",41,18,41,0.7,"stim/33.jpeg",3,3,2,NA,"HouseObjects",2,1,"right","right",0.609999895,1,1,1,1,NA,NA,NA,NA,NA,NA,NA,NA,NA,NA,NA,NA,NA,NA,NA,NA,NA,NA,NA,NA,NA,NA,NA,NA
"67","stim/objects/HouseObjects/scale2.png",42,18,42,0.9,"stim/53.jpeg",5,3,3,NA,"HouseObjects",2,1,"right","right",0.522000074,1,1,1,1,NA,NA,NA,NA,NA,NA,NA,NA,NA,NA,NA,NA,NA,NA,NA,NA,NA,NA,NA,NA,NA,NA,NA,NA
"234","stim/objects/Instruments/tuba2.png",43,18,43,0.9,"stim/64.jpeg",6,4,3,NA,"Instruments",1,4,"left","left",0.588999987,1,1,1,1,NA,NA,NA,NA,NA,NA,NA,NA,NA,NA,NA,NA,NA,NA,NA,NA,NA,NA,NA,NA,NA,NA,NA,NA
"76","stim/objects/HouseObjects/sponge.png",44,18,44,0.5,"stim/24.jpeg",2,4,1,NA,"HouseObjects",2,2,"right","right",0.648000002,1,1,1,1,NA,NA,NA,NA,NA,NA,NA,NA,NA,NA,NA,NA,NA,NA,NA,NA,NA,NA,NA,NA,NA,NA,NA,NA
"18","stim/objects/HouseObjects/rubbergloves.png",45,18,45,0.5,"stim/13.jpeg",1,3,1,NA,"HouseObjects",2,4,"right","left",0.704999924,0,0,1,1,NA,NA,NA,NA,NA,NA,NA,NA,NA,NA,NA,NA,NA,NA,NA,NA,NA,NA,NA,NA,NA,NA,NA,NA
"186","stim/objects/Instruments/tambourine2.png",46,18,46,0.1,"stim/53.jpeg",5,3,3,NA,"Instruments",1,4,"left","right",0.630000114,0,0,1,1,NA,NA,NA,NA,NA,NA,NA,NA,NA,NA,NA,NA,NA,NA,NA,NA,NA,NA,NA,NA,NA,NA,NA,NA
"80","stim/objects/HouseObjects/sponge2.png",47,18,47,0.9,"stim/54.jpeg",5,4,3,NA,"HouseObjects",2,3,"right","right",0.61500001,1,1,1,1,NA,NA,NA,NA,NA,NA,NA,NA,NA,NA,NA,NA,NA,NA,NA,NA,NA,NA,NA,NA,NA,NA,NA,NA
"98","stim/objects/HouseObjects/teapot.png",48,18,48,0.7,"stim/32.jpeg",3,2,2,NA,"HouseObjects",2,4,"right","right",0.733999968,1,1,1,1,NA,NA,NA,NA,NA,NA,NA,NA,NA,NA,NA,NA,NA,NA,NA,NA,NA,NA,NA,NA,NA,NA,NA,NA
"68","stim/objects/HouseObjects/scale2.png",49,18,49,0.9,"stim/53.jpeg",5,3,3,NA,"HouseObjects",2,2,"right","right",0.492999792,1,1,1,1,NA,NA,NA,NA,NA,NA,NA,NA,NA,NA,NA,NA,NA,NA,NA,NA,NA,NA,NA,NA,NA,NA,NA,NA
"81","stim/objects/HouseObjects/sponge2.png",50,18,50,0.9,"stim/54.jpeg",5,4,3,NA,"HouseObjects",2,2,"right","right",0.620000124,1,1,1,1,NA,NA,NA,NA,NA,NA,NA,NA,NA,NA,NA,NA,NA,NA,NA,NA,NA,NA,NA,NA,NA,NA,NA,NA
"82","stim/objects/HouseObjects/sponge2.png",51,18,51,0.9,"stim/54.jpeg",5,4,3,NA,"HouseObjects",2,4,"right","right",0.701999903,1,1,1,1,NA,NA,NA,NA,NA,NA,NA,NA,NA,NA,NA,NA,NA,NA,NA,NA,NA,NA,NA,NA,NA,NA,NA,NA
"170","stim/objects/Instruments/saxophone.png",52,18,52,0.5,"stim/21.jpeg",2,1,1,NA,"Instruments",1,3,"left","right",0.796999931,0,0,1,1,NA,NA,NA,NA,NA,NA,NA,NA,NA,NA,NA,NA,NA,NA,NA,NA,NA,NA,NA,NA,NA,NA,NA,NA
"52","stim/objects/HouseObjects/saw2.png",53,18,53,0.9,"stim/52.jpeg",5,2,3,NA,"HouseObjects",2,2,"right","right",0.510999918,1,1,1,1,NA,NA,NA,NA,NA,NA,NA,NA,NA,NA,NA,NA,NA,NA,NA,NA,NA,NA,NA,NA,NA,NA,NA,NA
"113","stim/objects/HouseObjects/thread.png",54,18,54,0.7,"stim/34.jpeg",3,4,2,NA,"HouseObjects",2,4,"right","",NA,0,0,1,1,NA,NA,NA,NA,NA,NA,NA,NA,NA,NA,NA,NA,NA,NA,NA,NA,NA,NA,NA,NA,NA,NA,NA,NA
"205","stim/objects/Instruments/trombone.png",55,18,55,0.3,"stim/32.jpeg",3,2,2,NA,"Instruments",1,3,"left","right",0.64199996,0,0,1,1,NA,NA,NA,NA,NA,NA,NA,NA,NA,NA,NA,NA,NA,NA,NA,NA,NA,NA,NA,NA,NA,NA,NA,NA
"197","stim/objects/Instruments/triangle2.png",56,18,56,0.9,"stim/61.jpeg",6,1,3,NA,"Instruments",1,2,"left","left",0.556999922,1,1,1,1,NA,NA,NA,NA,NA,NA,NA,NA,NA,NA,NA,NA,NA,NA,NA,NA,NA,NA,NA,NA,NA,NA,NA,NA
"151","stim/objects/Instruments/record_player2.png",57,18,57,0.7,"stim/44.jpeg",4,4,2,NA,"Instruments",1,1,"left","right",0.740999937,0,0,1,1,NA,NA,NA,NA,NA,NA,NA,NA,NA,NA,NA,NA,NA,NA,NA,NA,NA,NA,NA,NA,NA,NA,NA,NA
"134","stim/objects/Instruments/pipepiano.png",58,18,58,0.5,"stim/12.jpeg",1,2,1,NA,"Instruments",1,4,"left","right",0.712999821,0,0,1,1,NA,NA,NA,NA,NA,NA,NA,NA,NA,NA,NA,NA,NA,NA,NA,NA,NA,NA,NA,NA,NA,NA,NA,NA
"38","stim/objects/HouseObjects/safetypin2.png",59,18,59,0.9,"stim/51.jpeg",5,1,3,NA,"HouseObjects",2,1,"right","right",0.54399991,1,1,1,1,NA,NA,NA,NA,NA,NA,NA,NA,NA,NA,NA,NA,NA,NA,NA,NA,NA,NA,NA,NA,NA,NA,NA,NA
"109","stim/objects/HouseObjects/thermometer.png",60,18,60,0.7,"stim/33.jpeg",3,3,2,NA,"HouseObjects",2,2,"right","",NA,0,0,1,1,NA,NA,NA,NA,NA,NA,NA,NA,NA,NA,NA,NA,NA,NA,NA,NA,NA,NA,NA,NA,NA,NA,NA,NA
"110","stim/objects/HouseObjects/thermometer.png",61,18,61,0.7,"stim/33.jpeg",3,3,2,NA,"HouseObjects",2,1,"right","right",0.745000124,1,1,1,1,NA,NA,NA,NA,NA,NA,NA,NA,NA,NA,NA,NA,NA,NA,NA,NA,NA,NA,NA,NA,NA,NA,NA,NA
"152","stim/objects/Instruments/record_player2.png",62,18,62,0.7,"stim/44.jpeg",4,4,2,NA,"Instruments",1,1,"left","left",0.574999809,1,1,1,1,NA,NA,NA,NA,NA,NA,NA,NA,NA,NA,NA,NA,NA,NA,NA,NA,NA,NA,NA,NA,NA,NA,NA,NA
"198","stim/objects/Instruments/triangle2.png",63,18,63,0.9,"stim/61.jpeg",6,1,3,NA,"Instruments",1,3,"left","left",0.66899991,1,1,1,1,NA,NA,NA,NA,NA,NA,NA,NA,NA,NA,NA,NA,NA,NA,NA,NA,NA,NA,NA,NA,NA,NA,NA,NA
"9","stim/objects/HouseObjects/remote.png",64,18,64,0.5,"stim/12.jpeg",1,2,1,NA,"HouseObjects",2,1,"right","right",0.782999992,1,1,1,1,NA,NA,NA,NA,NA,NA,NA,NA,NA,NA,NA,NA,NA,NA,NA,NA,NA,NA,NA,NA,NA,NA,NA,NA
"25","stim/objects/HouseObjects/rug.png",65,18,65,0.5,"stim/14.jpeg",1,4,1,NA,"HouseObjects",2,1,"right","right",0.491999865,1,1,1,1,NA,NA,NA,NA,NA,NA,NA,NA,NA,NA,NA,NA,NA,NA,NA,NA,NA,NA,NA,NA,NA,NA,NA,NA
"26","stim/objects/HouseObjects/rug.png",66,18,66,0.5,"stim/14.jpeg",1,4,1,NA,"HouseObjects",2,2,"right","right",0.605999947,1,1,1,1,NA,NA,NA,NA,NA,NA,NA,NA,NA,NA,NA,NA,NA,NA,NA,NA,NA,NA,NA,NA,NA,NA,NA,NA
"206","stim/objects/Instruments/trombone.png",67,18,67,0.3,"stim/32.jpeg",3,2,2,NA,"Instruments",1,2,"left","left",0.693000078,1,1,1,1,NA,NA,NA,NA,NA,NA,NA,NA,NA,NA,NA,NA,NA,NA,NA,NA,NA,NA,NA,NA,NA,NA,NA,NA
"2","stim/objects/HouseObjects/recyclingbin.png",68,18,68,0.5,"stim/11.jpeg",1,1,1,NA,"HouseObjects",2,2,"right","right",0.677999973,1,1,1,1,NA,NA,NA,NA,NA,NA,NA,NA,NA,NA,NA,NA,NA,NA,NA,NA,NA,NA,NA,NA,NA,NA,NA,NA
"7","stim/objects/HouseObjects/recyclingbin2.png",69,18,69,0.3,"stim/41.jpeg",4,1,2,NA,"HouseObjects",2,4,"right","left",0.713999987,0,0,1,1,NA,NA,NA,NA,NA,NA,NA,NA,NA,NA,NA,NA,NA,NA,NA,NA,NA,NA,NA,NA,NA,NA,NA,NA
"83","stim/objects/HouseObjects/sponge2.png",70,18,70,0.9,"stim/54.jpeg",5,4,3,NA,"HouseObjects",2,1,"right","right",0.529000044,1,1,1,1,NA,NA,NA,NA,NA,NA,NA,NA,NA,NA,NA,NA,NA,NA,NA,NA,NA,NA,NA,NA,NA,NA,NA,NA
"199","stim/objects/Instruments/triangle2.png",71,18,71,0.9,"stim/61.jpeg",6,1,3,NA,"Instruments",1,2,"left","left",0.612999916,1,1,1,1,NA,NA,NA,NA,NA,NA,NA,NA,NA,NA,NA,NA,NA,NA,NA,NA,NA,NA,NA,NA,NA,NA,NA,NA
"27","stim/objects/HouseObjects/rug.png",72,18,72,0.5,"stim/14.jpeg",1,4,1,NA,"HouseObjects",2,4,"right","",NA,0,0,1,1,NA,NA,NA,NA,NA,NA,NA,NA,NA,NA,NA,NA,NA,NA,NA,NA,NA,NA,NA,NA,NA,NA,NA,NA
"187","stim/objects/Instruments/timbal.png",73,18,73,0.5,"stim/24.jpeg",2,4,1,NA,"Instruments",1,4,"left","right",0.712999821,0,0,1,1,NA,NA,NA,NA,NA,NA,NA,NA,NA,NA,NA,NA,NA,NA,NA,NA,NA,NA,NA,NA,NA,NA,NA,NA
"145","stim/objects/Instruments/record_player.png",74,18,74,0.5,"stim/14.jpeg",1,4,1,NA,"Instruments",1,1,"left","",NA,0,0,1,1,NA,NA,NA,NA,NA,NA,NA,NA,NA,NA,NA,NA,NA,NA,NA,NA,NA,NA,NA,NA,NA,NA,NA,NA
"164","stim/objects/Instruments/record2.png",75,18,75,0.7,"stim/43.jpeg",4,3,2,NA,"Instruments",1,2,"left","left",0.560000181,1,1,1,1,NA,NA,NA,NA,NA,NA,NA,NA,NA,NA,NA,NA,NA,NA,NA,NA,NA,NA,NA,NA,NA,NA,NA,NA
"171","stim/objects/Instruments/saxophone.png",76,18,76,0.5,"stim/21.jpeg",2,1,1,NA,"Instruments",1,3,"left","right",0.549999952,0,0,1,1,NA,NA,NA,NA,NA,NA,NA,NA,NA,NA,NA,NA,NA,NA,NA,NA,NA,NA,NA,NA,NA,NA,NA,NA
"53","stim/objects/HouseObjects/saw2.png",77,18,77,0.9,"stim/52.jpeg",5,2,3,NA,"HouseObjects",2,3,"right","right",0.569000006,1,1,1,1,NA,NA,NA,NA,NA,NA,NA,NA,NA,NA,NA,NA,NA,NA,NA,NA,NA,NA,NA,NA,NA,NA,NA,NA
"48","stim/objects/HouseObjects/saw.png",78,18,78,0.5,"stim/22.jpeg",2,2,1,NA,"HouseObjects",2,1,"right","right",0.657999992,1,1,1,1,NA,NA,NA,NA,NA,NA,NA,NA,NA,NA,NA,NA,NA,NA,NA,NA,NA,NA,NA,NA,NA,NA,NA,NA
"223","stim/objects/Instruments/trumpet2.png",79,18,79,0.9,"stim/63.jpeg",6,3,3,NA,"Instruments",1,3,"left","left",0.541000128,1,1,1,1,NA,NA,NA,NA,NA,NA,NA,NA,NA,NA,NA,NA,NA,NA,NA,NA,NA,NA,NA,NA,NA,NA,NA,NA
"210","stim/objects/Instruments/trombone2.png",80,18,80,0.9,"stim/62.jpeg",6,2,3,NA,"Instruments",1,4,"left","left",0.609999895,1,1,1,1,NA,NA,NA,NA,NA,NA,NA,NA,NA,NA,NA,NA,NA,NA,NA,NA,NA,NA,NA,NA,NA,NA,NA,NA
"153","stim/objects/Instruments/record_player2.png",81,18,81,0.7,"stim/44.jpeg",4,4,2,NA,"Instruments",1,1,"left","right",0.707000017,0,0,1,1,NA,NA,NA,NA,NA,NA,NA,NA,NA,NA,NA,NA,NA,NA,NA,NA,NA,NA,NA,NA,NA,NA,NA,NA
"180","stim/objects/Instruments/speaker2.png",82,18,82,0.1,"stim/52.jpeg",5,2,3,NA,"Instruments",1,3,"left","right",0.566999912,0,0,1,1,NA,NA,NA,NA,NA,NA,NA,NA,NA,NA,NA,NA,NA,NA,NA,NA,NA,NA,NA,NA,NA,NA,NA,NA
"182","stim/objects/Instruments/tambourine.png",83,18,83,0.5,"stim/23.jpeg",2,3,1,NA,"Instruments",1,4,"left","left",0.81099987,1,1,1,1,NA,NA,NA,NA,NA,NA,NA,NA,NA,NA,NA,NA,NA,NA,NA,NA,NA,NA,NA,NA,NA,NA,NA,NA
"211","stim/objects/Instruments/trombone2.png",84,18,84,0.9,"stim/62.jpeg",6,2,3,NA,"Instruments",1,4,"left","left",0.529000044,1,1,1,1,NA,NA,NA,NA,NA,NA,NA,NA,NA,NA,NA,NA,NA,NA,NA,NA,NA,NA,NA,NA,NA,NA,NA,NA
"33","stim/objects/HouseObjects/safetypin.png",85,18,85,0.5,"stim/21.jpeg",2,1,1,NA,"HouseObjects",2,4,"right","right",0.779000044,1,1,1,1,NA,NA,NA,NA,NA,NA,NA,NA,NA,NA,NA,NA,NA,NA,NA,NA,NA,NA,NA,NA,NA,NA,NA,NA
"22","stim/objects/HouseObjects/rubbergloves2.png",86,18,86,0.3,"stim/43.jpeg",4,3,2,NA,"HouseObjects",2,3,"right","left",0.607999802,0,0,1,1,NA,NA,NA,NA,NA,NA,NA,NA,NA,NA,NA,NA,NA,NA,NA,NA,NA,NA,NA,NA,NA,NA,NA,NA
"54","stim/objects/HouseObjects/saw2.png",87,18,87,0.9,"stim/52.jpeg",5,2,3,NA,"HouseObjects",2,4,"right","right",0.715000153,1,1,1,1,NA,NA,NA,NA,NA,NA,NA,NA,NA,NA,NA,NA,NA,NA,NA,NA,NA,NA,NA,NA,NA,NA,NA,NA
"114","stim/objects/HouseObjects/thread.png",88,18,88,0.7,"stim/34.jpeg",3,4,2,NA,"HouseObjects",2,4,"right","",NA,0,0,1,1,NA,NA,NA,NA,NA,NA,NA,NA,NA,NA,NA,NA,NA,NA,NA,NA,NA,NA,NA,NA,NA,NA,NA,NA
"146","stim/objects/Instruments/record_player.png",89,18,89,0.5,"stim/14.jpeg",1,4,1,NA,"Instruments",1,4,"left","",NA,0,0,1,1,NA,NA,NA,NA,NA,NA,NA,NA,NA,NA,NA,NA,NA,NA,NA,NA,NA,NA,NA,NA,NA,NA,NA,NA
"99","stim/objects/HouseObjects/teapot.png",90,18,90,0.7,"stim/32.jpeg",3,2,2,NA,"HouseObjects",2,1,"right","right",0.517999887,1,1,1,1,NA,NA,NA,NA,NA,NA,NA,NA,NA,NA,NA,NA,NA,NA,NA,NA,NA,NA,NA,NA,NA,NA,NA,NA
"62","stim/objects/HouseObjects/scale.png",91,18,91,0.5,"stim/23.jpeg",2,3,1,NA,"HouseObjects",2,4,"right","right",0.467000008,1,1,1,1,NA,NA,NA,NA,NA,NA,NA,NA,NA,NA,NA,NA,NA,NA,NA,NA,NA,NA,NA,NA,NA,NA,NA,NA
"84","stim/objects/HouseObjects/sponge2.png",92,18,92,0.9,"stim/54.jpeg",5,4,3,NA,"HouseObjects",2,2,"right","right",0.45600009,1,1,1,1,NA,NA,NA,NA,NA,NA,NA,NA,NA,NA,NA,NA,NA,NA,NA,NA,NA,NA,NA,NA,NA,NA,NA,NA
"229","stim/objects/Instruments/tuba.png",93,18,93,0.3,"stim/34.jpeg",3,4,2,NA,"Instruments",1,3,"left","right",0.694999933,0,0,1,1,NA,NA,NA,NA,NA,NA,NA,NA,NA,NA,NA,NA,NA,NA,NA,NA,NA,NA,NA,NA,NA,NA,NA,NA
"69","stim/objects/HouseObjects/scale2.png",94,18,94,0.9,"stim/53.jpeg",5,3,3,NA,"HouseObjects",2,2,"right","right",0.489000082,1,1,1,1,NA,NA,NA,NA,NA,NA,NA,NA,NA,NA,NA,NA,NA,NA,NA,NA,NA,NA,NA,NA,NA,NA,NA,NA
"55","stim/objects/HouseObjects/saw2.png",95,18,95,0.9,"stim/52.jpeg",5,2,3,NA,"HouseObjects",2,4,"right","right",0.460000038,1,1,1,1,NA,NA,NA,NA,NA,NA,NA,NA,NA,NA,NA,NA,NA,NA,NA,NA,NA,NA,NA,NA,NA,NA,NA,NA
"49","stim/objects/HouseObjects/saw.png",96,18,96,0.5,"stim/22.jpeg",2,2,1,NA,"HouseObjects",2,1,"right","right",0.605000019,1,1,1,1,NA,NA,NA,NA,NA,NA,NA,NA,NA,NA,NA,NA,NA,NA,NA,NA,NA,NA,NA,NA,NA,NA,NA,NA
"212","stim/objects/Instruments/trombone2.png",97,18,97,0.9,"stim/62.jpeg",6,2,3,NA,"Instruments",1,1,"left","left",0.477999926,1,1,1,1,NA,NA,NA,NA,NA,NA,NA,NA,NA,NA,NA,NA,NA,NA,NA,NA,NA,NA,NA,NA,NA,NA,NA,NA
"8","stim/objects/HouseObjects/recyclingbin2.png",98,18,98,0.3,"stim/41.jpeg",4,1,2,NA,"HouseObjects",2,3,"right","",NA,0,0,1,1,NA,NA,NA,NA,NA,NA,NA,NA,NA,NA,NA,NA,NA,NA,NA,NA,NA,NA,NA,NA,NA,NA,NA,NA
"235","stim/objects/Instruments/tuba2.png",99,18,99,0.9,"stim/64.jpeg",6,4,3,NA,"Instruments",1,2,"left","left",0.536999941,1,1,1,1,NA,NA,NA,NA,NA,NA,NA,NA,NA,NA,NA,NA,NA,NA,NA,NA,NA,NA,NA,NA,NA,NA,NA,NA
"224","stim/objects/Instruments/trumpet2.png",100,18,100,0.9,"stim/63.jpeg",6,3,3,NA,"Instruments",1,3,"left","right",0.634000063,0,0,1,1,NA,NA,NA,NA,NA,NA,NA,NA,NA,NA,NA,NA,NA,NA,NA,NA,NA,NA,NA,NA,NA,NA,NA,NA
"39","stim/objects/HouseObjects/safetypin2.png",101,18,101,0.9,"stim/51.jpeg",5,1,3,NA,"HouseObjects",2,4,"right","right",0.502000093,1,1,1,1,NA,NA,NA,NA,NA,NA,NA,NA,NA,NA,NA,NA,NA,NA,NA,NA,NA,NA,NA,NA,NA,NA,NA,NA
"188","stim/objects/Instruments/timbal.png",102,18,102,0.5,"stim/24.jpeg",2,4,1,NA,"Instruments",1,1,"left","left",0.632999897,1,1,1,1,NA,NA,NA,NA,NA,NA,NA,NA,NA,NA,NA,NA,NA,NA,NA,NA,NA,NA,NA,NA,NA,NA,NA,NA
"50","stim/objects/HouseObjects/saw.png",103,18,103,0.5,"stim/22.jpeg",2,2,1,NA,"HouseObjects",2,3,"right","",NA,0,0,1,1,NA,NA,NA,NA,NA,NA,NA,NA,NA,NA,NA,NA,NA,NA,NA,NA,NA,NA,NA,NA,NA,NA,NA,NA
"40","stim/objects/HouseObjects/safetypin2.png",104,18,104,0.9,"stim/51.jpeg",5,1,3,NA,"HouseObjects",2,4,"right","right",0.463999987,1,1,1,1,NA,NA,NA,NA,NA,NA,NA,NA,NA,NA,NA,NA,NA,NA,NA,NA,NA,NA,NA,NA,NA,NA,NA,NA
"56","stim/objects/HouseObjects/saw2.png",105,18,105,0.9,"stim/52.jpeg",5,2,3,NA,"HouseObjects",2,2,"right","right",0.643000126,1,1,1,1,NA,NA,NA,NA,NA,NA,NA,NA,NA,NA,NA,NA,NA,NA,NA,NA,NA,NA,NA,NA,NA,NA,NA,NA
"111","stim/objects/HouseObjects/thermometer.png",106,18,106,0.7,"stim/33.jpeg",3,3,2,NA,"HouseObjects",2,4,"right","left",0.72300005,0,0,1,1,NA,NA,NA,NA,NA,NA,NA,NA,NA,NA,NA,NA,NA,NA,NA,NA,NA,NA,NA,NA,NA,NA,NA,NA
"41","stim/objects/HouseObjects/safetypin2.png",107,18,107,0.9,"stim/51.jpeg",5,1,3,NA,"HouseObjects",2,1,"right","right",0.542000055,1,1,1,1,NA,NA,NA,NA,NA,NA,NA,NA,NA,NA,NA,NA,NA,NA,NA,NA,NA,NA,NA,NA,NA,NA,NA,NA
"225","stim/objects/Instruments/trumpet2.png",108,18,108,0.9,"stim/63.jpeg",6,3,3,NA,"Instruments",1,4,"left","left",0.628000021,1,1,1,1,NA,NA,NA,NA,NA,NA,NA,NA,NA,NA,NA,NA,NA,NA,NA,NA,NA,NA,NA,NA,NA,NA,NA,NA
"15","stim/objects/HouseObjects/remote2.png",109,18,109,0.3,"stim/42.jpeg",4,2,2,NA,"HouseObjects",2,2,"right","left",0.726000071,0,0,1,1,NA,NA,NA,NA,NA,NA,NA,NA,NA,NA,NA,NA,NA,NA,NA,NA,NA,NA,NA,NA,NA,NA,NA,NA
"3","stim/objects/HouseObjects/recyclingbin.png",110,18,110,0.5,"stim/11.jpeg",1,1,1,NA,"HouseObjects",2,1,"right","right",0.610999823,1,1,1,1,NA,NA,NA,NA,NA,NA,NA,NA,NA,NA,NA,NA,NA,NA,NA,NA,NA,NA,NA,NA,NA,NA,NA,NA
"100","stim/objects/HouseObjects/teapot.png",111,18,111,0.7,"stim/32.jpeg",3,2,2,NA,"HouseObjects",2,1,"right","right",0.678000212,1,1,1,1,NA,NA,NA,NA,NA,NA,NA,NA,NA,NA,NA,NA,NA,NA,NA,NA,NA,NA,NA,NA,NA,NA,NA,NA
"236","stim/objects/Instruments/tuba2.png",112,18,112,0.9,"stim/64.jpeg",6,4,3,NA,"Instruments",1,1,"left","left",0.635999918,1,1,1,1,NA,NA,NA,NA,NA,NA,NA,NA,NA,NA,NA,NA,NA,NA,NA,NA,NA,NA,NA,NA,NA,NA,NA,NA
"115","stim/objects/HouseObjects/thread.png",113,18,113,0.7,"stim/34.jpeg",3,4,2,NA,"HouseObjects",2,4,"right","right",0.707000017,1,1,1,1,NA,NA,NA,NA,NA,NA,NA,NA,NA,NA,NA,NA,NA,NA,NA,NA,NA,NA,NA,NA,NA,NA,NA,NA
"135","stim/objects/Instruments/pipepiano.png",114,18,114,0.5,"stim/12.jpeg",1,2,1,NA,"Instruments",1,4,"left","right",0.78399992,0,0,1,1,NA,NA,NA,NA,NA,NA,NA,NA,NA,NA,NA,NA,NA,NA,NA,NA,NA,NA,NA,NA,NA,NA,NA,NA
"213","stim/objects/Instruments/trombone2.png",115,18,115,0.9,"stim/62.jpeg",6,2,3,NA,"Instruments",1,1,"left","left",0.60800004,1,1,1,1,NA,NA,NA,NA,NA,NA,NA,NA,NA,NA,NA,NA,NA,NA,NA,NA,NA,NA,NA,NA,NA,NA,NA,NA
"31","stim/objects/HouseObjects/rug2.png",116,18,116,0.3,"stim/44.jpeg",4,4,2,NA,"HouseObjects",2,1,"right","left",0.690999985,0,0,1,1,NA,NA,NA,NA,NA,NA,NA,NA,NA,NA,NA,NA,NA,NA,NA,NA,NA,NA,NA,NA,NA,NA,NA,NA
"42","stim/objects/HouseObjects/safetypin2.png",117,18,117,0.9,"stim/51.jpeg",5,1,3,NA,"HouseObjects",2,3,"right","right",0.588000059,1,1,1,1,NA,NA,NA,NA,NA,NA,NA,NA,NA,NA,NA,NA,NA,NA,NA,NA,NA,NA,NA,NA,NA,NA,NA,NA
"139","stim/objects/Instruments/pipepiano2.png",118,18,118,0.7,"stim/42.jpeg",4,2,2,NA,"Instruments",1,4,"left","",NA,0,0,1,1,NA,NA,NA,NA,NA,NA,NA,NA,NA,NA,NA,NA,NA,NA,NA,NA,NA,NA,NA,NA,NA,NA,NA,NA
"89","stim/objects/HouseObjects/spraybottle.png",119,18,119,0.7,"stim/31.jpeg",3,1,2,NA,"HouseObjects",2,1,"right","right",0.653000116,1,1,1,1,NA,NA,NA,NA,NA,NA,NA,NA,NA,NA,NA,NA,NA,NA,NA,NA,NA,NA,NA,NA,NA,NA,NA,NA
"189","stim/objects/Instruments/timbal.png",120,18,120,0.5,"stim/24.jpeg",2,4,1,NA,"Instruments",1,2,"left","left",0.684000015,1,1,1,1,NA,NA,NA,NA,NA,NA,NA,NA,NA,NA,NA,NA,NA,NA,NA,NA,NA,NA,NA,NA,NA,NA,NA,NA
"57","stim/objects/HouseObjects/saw2.png",121,18,121,0.9,"stim/52.jpeg",5,2,3,NA,"HouseObjects",2,3,"right","right",0.577000141,1,1,1,1,NA,NA,NA,NA,NA,NA,NA,NA,NA,NA,NA,NA,NA,NA,NA,NA,NA,NA,NA,NA,NA,NA,NA,NA
"58","stim/objects/HouseObjects/saw2.png",122,18,122,0.9,"stim/52.jpeg",5,2,3,NA,"HouseObjects",2,1,"right","right",0.756000042,1,1,1,1,NA,NA,NA,NA,NA,NA,NA,NA,NA,NA,NA,NA,NA,NA,NA,NA,NA,NA,NA,NA,NA,NA,NA,NA
"183","stim/objects/Instruments/tambourine.png",123,18,123,0.5,"stim/23.jpeg",2,3,1,NA,"Instruments",1,4,"left","left",0.715999842,1,1,1,1,NA,NA,NA,NA,NA,NA,NA,NA,NA,NA,NA,NA,NA,NA,NA,NA,NA,NA,NA,NA,NA,NA,NA,NA
"123","stim/objects/Instruments/panflute.png",124,18,124,0.5,"stim/11.jpeg",1,1,1,NA,"Instruments",1,1,"left","right",0.573999882,0,0,1,1,NA,NA,NA,NA,NA,NA,NA,NA,NA,NA,NA,NA,NA,NA,NA,NA,NA,NA,NA,NA,NA,NA,NA,NA
"4","stim/objects/HouseObjects/recyclingbin.png",125,18,125,0.5,"stim/11.jpeg",1,1,1,NA,"HouseObjects",2,2,"right","left",0.611000061,0,0,1,1,NA,NA,NA,NA,NA,NA,NA,NA,NA,NA,NA,NA,NA,NA,NA,NA,NA,NA,NA,NA,NA,NA,NA,NA
"214","stim/objects/Instruments/trombone2.png",126,18,126,0.9,"stim/62.jpeg",6,2,3,NA,"Instruments",1,1,"left","left",0.562000036,1,1,1,1,NA,NA,NA,NA,NA,NA,NA,NA,NA,NA,NA,NA,NA,NA,NA,NA,NA,NA,NA,NA,NA,NA,NA,NA
"172","stim/objects/Instruments/saxophone.png",127,18,127,0.5,"stim/21.jpeg",2,1,1,NA,"Instruments",1,4,"left","",NA,0,0,1,1,NA,NA,NA,NA,NA,NA,NA,NA,NA,NA,NA,NA,NA,NA,NA,NA,NA,NA,NA,NA,NA,NA,NA,NA
"195","stim/objects/Instruments/triangle.png",128,18,128,0.3,"stim/31.jpeg",3,1,2,NA,"Instruments",1,2,"left","right",0.601999998,0,0,1,1,NA,NA,NA,NA,NA,NA,NA,NA,NA,NA,NA,NA,NA,NA,NA,NA,NA,NA,NA,NA,NA,NA,NA,NA
"90","stim/objects/HouseObjects/spraybottle.png",129,18,129,0.7,"stim/31.jpeg",3,1,2,NA,"HouseObjects",2,2,"right","left",0.424000025,0,0,1,1,NA,NA,NA,NA,NA,NA,NA,NA,NA,NA,NA,NA,NA,NA,NA,NA,NA,NA,NA,NA,NA,NA,NA,NA
"91","stim/objects/HouseObjects/spraybottle.png",130,18,130,0.7,"stim/31.jpeg",3,1,2,NA,"HouseObjects",2,4,"right","",NA,0,0,1,1,NA,NA,NA,NA,NA,NA,NA,NA,NA,NA,NA,NA,NA,NA,NA,NA,NA,NA,NA,NA,NA,NA,NA,NA
"217","stim/objects/Instruments/trumpet.png",131,18,131,0.3,"stim/33.jpeg",3,3,2,NA,"Instruments",1,3,"left","right",0.691999912,0,0,1,1,NA,NA,NA,NA,NA,NA,NA,NA,NA,NA,NA,NA,NA,NA,NA,NA,NA,NA,NA,NA,NA,NA,NA,NA
"128","stim/objects/Instruments/panflute2.png",132,18,132,0.7,"stim/41.jpeg",4,1,2,NA,"Instruments",1,2,"left","right",0.557999849,0,0,1,1,NA,NA,NA,NA,NA,NA,NA,NA,NA,NA,NA,NA,NA,NA,NA,NA,NA,NA,NA,NA,NA,NA,NA,NA
"158","stim/objects/Instruments/record.png",133,18,133,0.5,"stim/13.jpeg",1,3,1,NA,"Instruments",1,3,"left","right",0.644000053,0,0,1,1,NA,NA,NA,NA,NA,NA,NA,NA,NA,NA,NA,NA,NA,NA,NA,NA,NA,NA,NA,NA,NA,NA,NA,NA
"124","stim/objects/Instruments/panflute.png",134,18,134,0.5,"stim/11.jpeg",1,1,1,NA,"Instruments",1,2,"left","right",0.575999975,0,0,1,1,NA,NA,NA,NA,NA,NA,NA,NA,NA,NA,NA,NA,NA,NA,NA,NA,NA,NA,NA,NA,NA,NA,NA,NA
"184","stim/objects/Instruments/tambourine.png",135,18,135,0.5,"stim/23.jpeg",2,3,1,NA,"Instruments",1,4,"left","right",0.620000124,0,0,1,1,NA,NA,NA,NA,NA,NA,NA,NA,NA,NA,NA,NA,NA,NA,NA,NA,NA,NA,NA,NA,NA,NA,NA,NA
"200","stim/objects/Instruments/triangle2.png",136,18,136,0.9,"stim/61.jpeg",6,1,3,NA,"Instruments",1,3,"left","left",0.624000072,1,1,1,1,NA,NA,NA,NA,NA,NA,NA,NA,NA,NA,NA,NA,NA,NA,NA,NA,NA,NA,NA,NA,NA,NA,NA,NA
"85","stim/objects/HouseObjects/sponge2.png",137,18,137,0.9,"stim/54.jpeg",5,4,3,NA,"HouseObjects",2,4,"right","right",0.632999897,1,1,1,1,NA,NA,NA,NA,NA,NA,NA,NA,NA,NA,NA,NA,NA,NA,NA,NA,NA,NA,NA,NA,NA,NA,NA,NA
"92","stim/objects/HouseObjects/spraybottle.png",138,18,138,0.7,"stim/31.jpeg",3,1,2,NA,"HouseObjects",2,2,"right","",NA,0,0,1,1,NA,NA,NA,NA,NA,NA,NA,NA,NA,NA,NA,NA,NA,NA,NA,NA,NA,NA,NA,NA,NA,NA,NA,NA
"230","stim/objects/Instruments/tuba.png",139,18,139,0.3,"stim/34.jpeg",3,4,2,NA,"Instruments",1,2,"left","right",0.470000029,0,0,1,1,NA,NA,NA,NA,NA,NA,NA,NA,NA,NA,NA,NA,NA,NA,NA,NA,NA,NA,NA,NA,NA,NA,NA,NA
"34","stim/objects/HouseObjects/safetypin.png",140,18,140,0.5,"stim/21.jpeg",2,1,1,NA,"HouseObjects",2,3,"right","right",0.620000124,1,1,1,1,NA,NA,NA,NA,NA,NA,NA,NA,NA,NA,NA,NA,NA,NA,NA,NA,NA,NA,NA,NA,NA,NA,NA,NA
"101","stim/objects/HouseObjects/teapot.png",141,18,141,0.7,"stim/32.jpeg",3,2,2,NA,"HouseObjects",2,3,"right","right",0.590999842,1,1,1,1,NA,NA,NA,NA,NA,NA,NA,NA,NA,NA,NA,NA,NA,NA,NA,NA,NA,NA,NA,NA,NA,NA,NA,NA
"86","stim/objects/HouseObjects/sponge2.png",142,18,142,0.9,"stim/54.jpeg",5,4,3,NA,"HouseObjects",2,1,"right","right",0.651000023,1,1,1,1,NA,NA,NA,NA,NA,NA,NA,NA,NA,NA,NA,NA,NA,NA,NA,NA,NA,NA,NA,NA,NA,NA,NA,NA
"165","stim/objects/Instruments/record2.png",143,18,143,0.7,"stim/43.jpeg",4,3,2,NA,"Instruments",1,3,"left","left",0.700000048,1,1,1,1,NA,NA,NA,NA,NA,NA,NA,NA,NA,NA,NA,NA,NA,NA,NA,NA,NA,NA,NA,NA,NA,NA,NA,NA
"226","stim/objects/Instruments/trumpet2.png",144,18,144,0.9,"stim/63.jpeg",6,3,3,NA,"Instruments",1,3,"left","left",0.583000183,1,1,1,1,NA,NA,NA,NA,NA,NA,NA,NA,NA,NA,NA,NA,NA,NA,NA,NA,NA,NA,NA,NA,NA,NA,NA,NA
"16","stim/objects/HouseObjects/remote2.png",145,18,145,0.3,"stim/42.jpeg",4,2,2,NA,"HouseObjects",2,2,"right","right",0.664000034,1,1,1,1,NA,NA,NA,NA,NA,NA,NA,NA,NA,NA,NA,NA,NA,NA,NA,NA,NA,NA,NA,NA,NA,NA,NA,NA
"77","stim/objects/HouseObjects/sponge.png",146,18,146,0.5,"stim/24.jpeg",2,4,1,NA,"HouseObjects",2,2,"right","right",0.697000027,1,1,1,1,NA,NA,NA,NA,NA,NA,NA,NA,NA,NA,NA,NA,NA,NA,NA,NA,NA,NA,NA,NA,NA,NA,NA,NA
"93","stim/objects/HouseObjects/spraybottle.png",147,18,147,0.7,"stim/31.jpeg",3,1,2,NA,"HouseObjects",2,3,"right","right",0.846000195,1,1,1,1,NA,NA,NA,NA,NA,NA,NA,NA,NA,NA,NA,NA,NA,NA,NA,NA,NA,NA,NA,NA,NA,NA,NA,NA
"147","stim/objects/Instruments/record_player.png",148,18,148,0.5,"stim/14.jpeg",1,4,1,NA,"Instruments",1,4,"left","",NA,0,0,1,1,NA,NA,NA,NA,NA,NA,NA,NA,NA,NA,NA,NA,NA,NA,NA,NA,NA,NA,NA,NA,NA,NA,NA,NA
"154","stim/objects/Instruments/record_player2.png",149,18,149,0.7,"stim/44.jpeg",4,4,2,NA,"Instruments",1,2,"left","left",0.635999918,1,1,1,1,NA,NA,NA,NA,NA,NA,NA,NA,NA,NA,NA,NA,NA,NA,NA,NA,NA,NA,NA,NA,NA,NA,NA,NA
"148","stim/objects/Instruments/record_player.png",150,18,150,0.5,"stim/14.jpeg",1,4,1,NA,"Instruments",1,3,"left","left",0.645999908,1,1,1,1,NA,NA,NA,NA,NA,NA,NA,NA,NA,NA,NA,NA,NA,NA,NA,NA,NA,NA,NA,NA,NA,NA,NA,NA
"116","stim/objects/HouseObjects/thread.png",151,18,151,0.7,"stim/34.jpeg",3,4,2,NA,"HouseObjects",2,3,"right","right",0.72300005,1,1,1,1,NA,NA,NA,NA,NA,NA,NA,NA,NA,NA,NA,NA,NA,NA,NA,NA,NA,NA,NA,NA,NA,NA,NA,NA
"59","stim/objects/HouseObjects/saw2.png",152,18,152,0.9,"stim/52.jpeg",5,2,3,NA,"HouseObjects",2,3,"right","right",0.605000019,1,1,1,1,NA,NA,NA,NA,NA,NA,NA,NA,NA,NA,NA,NA,NA,NA,NA,NA,NA,NA,NA,NA,NA,NA,NA,NA
"218","stim/objects/Instruments/trumpet.png",153,18,153,0.3,"stim/33.jpeg",3,3,2,NA,"Instruments",1,1,"left","right",0.630000114,0,0,1,1,NA,NA,NA,NA,NA,NA,NA,NA,NA,NA,NA,NA,NA,NA,NA,NA,NA,NA,NA,NA,NA,NA,NA,NA
"102","stim/objects/HouseObjects/teapot.png",154,18,154,0.7,"stim/32.jpeg",3,2,2,NA,"HouseObjects",2,4,"right","right",0.546000004,1,1,1,1,NA,NA,NA,NA,NA,NA,NA,NA,NA,NA,NA,NA,NA,NA,NA,NA,NA,NA,NA,NA,NA,NA,NA,NA
"149","stim/objects/Instruments/record_player.png",155,18,155,0.5,"stim/14.jpeg",1,4,1,NA,"Instruments",1,4,"left","left",0.669000149,1,1,1,1,NA,NA,NA,NA,NA,NA,NA,NA,NA,NA,NA,NA,NA,NA,NA,NA,NA,NA,NA,NA,NA,NA,NA,NA
"177","stim/objects/Instruments/speaker.png",156,18,156,0.5,"stim/22.jpeg",2,2,1,NA,"Instruments",1,3,"left","right",0.666000128,0,0,1,1,NA,NA,NA,NA,NA,NA,NA,NA,NA,NA,NA,NA,NA,NA,NA,NA,NA,NA,NA,NA,NA,NA,NA,NA
"155","stim/objects/Instruments/record_player2.png",157,18,157,0.7,"stim/44.jpeg",4,4,2,NA,"Instruments",1,1,"left","left",0.808000088,1,1,1,1,NA,NA,NA,NA,NA,NA,NA,NA,NA,NA,NA,NA,NA,NA,NA,NA,NA,NA,NA,NA,NA,NA,NA,NA
"70","stim/objects/HouseObjects/scale2.png",158,18,158,0.9,"stim/53.jpeg",5,3,3,NA,"HouseObjects",2,1,"right","right",0.648999929,1,1,1,1,NA,NA,NA,NA,NA,NA,NA,NA,NA,NA,NA,NA,NA,NA,NA,NA,NA,NA,NA,NA,NA,NA,NA,NA
"78","stim/objects/HouseObjects/sponge.png",159,18,159,0.5,"stim/24.jpeg",2,4,1,NA,"HouseObjects",2,2,"right","right",0.611999989,1,1,1,1,NA,NA,NA,NA,NA,NA,NA,NA,NA,NA,NA,NA,NA,NA,NA,NA,NA,NA,NA,NA,NA,NA,NA,NA
"156","stim/objects/Instruments/record_player2.png",160,18,160,0.7,"stim/44.jpeg",4,4,2,NA,"Instruments",1,4,"left","left",0.524000168,1,1,1,1,NA,NA,NA,NA,NA,NA,NA,NA,NA,NA,NA,NA,NA,NA,NA,NA,NA,NA,NA,NA,NA,NA,NA,NA
"71","stim/objects/HouseObjects/scale2.png",161,18,161,0.9,"stim/53.jpeg",5,3,3,NA,"HouseObjects",2,2,"right","right",0.667000055,1,1,1,1,NA,NA,NA,NA,NA,NA,NA,NA,NA,NA,NA,NA,NA,NA,NA,NA,NA,NA,NA,NA,NA,NA,NA,NA
"10","stim/objects/HouseObjects/remote.png",162,18,162,0.5,"stim/12.jpeg",1,2,1,NA,"HouseObjects",2,2,"right","left",0.565999985,0,0,1,1,NA,NA,NA,NA,NA,NA,NA,NA,NA,NA,NA,NA,NA,NA,NA,NA,NA,NA,NA,NA,NA,NA,NA,NA
"11","stim/objects/HouseObjects/remote.png",163,18,163,0.5,"stim/12.jpeg",1,2,1,NA,"HouseObjects",2,3,"right","right",0.624000072,1,1,1,1,NA,NA,NA,NA,NA,NA,NA,NA,NA,NA,NA,NA,NA,NA,NA,NA,NA,NA,NA,NA,NA,NA,NA,NA
"140","stim/objects/Instruments/pipepiano2.png",164,18,164,0.7,"stim/42.jpeg",4,2,2,NA,"Instruments",1,1,"left","left",0.654999971,1,1,1,1,NA,NA,NA,NA,NA,NA,NA,NA,NA,NA,NA,NA,NA,NA,NA,NA,NA,NA,NA,NA,NA,NA,NA,NA
"129","stim/objects/Instruments/panflute2.png",165,18,165,0.7,"stim/41.jpeg",4,1,2,NA,"Instruments",1,1,"left","left",0.620000124,1,1,1,1,NA,NA,NA,NA,NA,NA,NA,NA,NA,NA,NA,NA,NA,NA,NA,NA,NA,NA,NA,NA,NA,NA,NA,NA
"103","stim/objects/HouseObjects/teapot.png",166,18,166,0.7,"stim/32.jpeg",3,2,2,NA,"HouseObjects",2,3,"right","right",0.608999968,1,1,1,1,NA,NA,NA,NA,NA,NA,NA,NA,NA,NA,NA,NA,NA,NA,NA,NA,NA,NA,NA,NA,NA,NA,NA,NA
"28","stim/objects/HouseObjects/rug.png",167,18,167,0.5,"stim/14.jpeg",1,4,1,NA,"HouseObjects",2,1,"right","left",0.585000038,0,0,1,1,NA,NA,NA,NA,NA,NA,NA,NA,NA,NA,NA,NA,NA,NA,NA,NA,NA,NA,NA,NA,NA,NA,NA,NA
"201","stim/objects/Instruments/triangle2.png",168,18,168,0.9,"stim/61.jpeg",6,1,3,NA,"Instruments",1,2,"left","left",0.549999952,1,1,1,1,NA,NA,NA,NA,NA,NA,NA,NA,NA,NA,NA,NA,NA,NA,NA,NA,NA,NA,NA,NA,NA,NA,NA,NA
"219","stim/objects/Instruments/trumpet.png",169,18,169,0.3,"stim/33.jpeg",3,3,2,NA,"Instruments",1,4,"left","left",0.562999964,1,1,1,1,NA,NA,NA,NA,NA,NA,NA,NA,NA,NA,NA,NA,NA,NA,NA,NA,NA,NA,NA,NA,NA,NA,NA,NA
"12","stim/objects/HouseObjects/remote.png",170,18,170,0.5,"stim/12.jpeg",1,2,1,NA,"HouseObjects",2,2,"right","left",0.640999794,0,0,1,1,NA,NA,NA,NA,NA,NA,NA,NA,NA,NA,NA,NA,NA,NA,NA,NA,NA,NA,NA,NA,NA,NA,NA,NA
"63","stim/objects/HouseObjects/scale.png",171,18,171,0.5,"stim/23.jpeg",2,3,1,NA,"HouseObjects",2,3,"right","right",0.635999918,1,1,1,1,NA,NA,NA,NA,NA,NA,NA,NA,NA,NA,NA,NA,NA,NA,NA,NA,NA,NA,NA,NA,NA,NA,NA,NA
"35","stim/objects/HouseObjects/safetypin.png",172,18,172,0.5,"stim/21.jpeg",2,1,1,NA,"HouseObjects",2,3,"right","right",0.654999971,1,1,1,1,NA,NA,NA,NA,NA,NA,NA,NA,NA,NA,NA,NA,NA,NA,NA,NA,NA,NA,NA,NA,NA,NA,NA,NA
"43","stim/objects/HouseObjects/safetypin2.png",173,18,173,0.9,"stim/51.jpeg",5,1,3,NA,"HouseObjects",2,3,"right","right",0.647000074,1,1,1,1,NA,NA,NA,NA,NA,NA,NA,NA,NA,NA,NA,NA,NA,NA,NA,NA,NA,NA,NA,NA,NA,NA,NA,NA
"44","stim/objects/HouseObjects/safetypin2.png",174,18,174,0.9,"stim/51.jpeg",5,1,3,NA,"HouseObjects",2,2,"right","right",0.586999893,1,1,1,1,NA,NA,NA,NA,NA,NA,NA,NA,NA,NA,NA,NA,NA,NA,NA,NA,NA,NA,NA,NA,NA,NA,NA,NA
"94","stim/objects/HouseObjects/spraybottle.png",175,18,175,0.7,"stim/31.jpeg",3,1,2,NA,"HouseObjects",2,3,"right","right",0.763000011,1,1,1,1,NA,NA,NA,NA,NA,NA,NA,NA,NA,NA,NA,NA,NA,NA,NA,NA,NA,NA,NA,NA,NA,NA,NA,NA
"141","stim/objects/Instruments/pipepiano2.png",176,18,176,0.7,"stim/42.jpeg",4,2,2,NA,"Instruments",1,1,"left","left",0.609999895,1,1,1,1,NA,NA,NA,NA,NA,NA,NA,NA,NA,NA,NA,NA,NA,NA,NA,NA,NA,NA,NA,NA,NA,NA,NA,NA
"227","stim/objects/Instruments/trumpet2.png",177,18,177,0.9,"stim/63.jpeg",6,3,3,NA,"Instruments",1,1,"left","left",0.63499999,1,1,1,1,NA,NA,NA,NA,NA,NA,NA,NA,NA,NA,NA,NA,NA,NA,NA,NA,NA,NA,NA,NA,NA,NA,NA,NA
"117","stim/objects/HouseObjects/thread.png",178,18,178,0.7,"stim/34.jpeg",3,4,2,NA,"HouseObjects",2,2,"right","right",0.493999958,1,1,1,1,NA,NA,NA,NA,NA,NA,NA,NA,NA,NA,NA,NA,NA,NA,NA,NA,NA,NA,NA,NA,NA,NA,NA,NA
"159","stim/objects/Instruments/record.png",179,18,179,0.5,"stim/13.jpeg",1,3,1,NA,"Instruments",1,2,"left","left",0.690000057,1,1,1,1,NA,NA,NA,NA,NA,NA,NA,NA,NA,NA,NA,NA,NA,NA,NA,NA,NA,NA,NA,NA,NA,NA,NA,NA
"79","stim/objects/HouseObjects/sponge.png",180,18,180,0.5,"stim/24.jpeg",2,4,1,NA,"HouseObjects",2,2,"right","left",0.52699995,0,0,1,1,NA,NA,NA,NA,NA,NA,NA,NA,NA,NA,NA,NA,NA,NA,NA,NA,NA,NA,NA,NA,NA,NA,NA,NA
"142","stim/objects/Instruments/pipepiano2.png",181,18,181,0.7,"stim/42.jpeg",4,2,2,NA,"Instruments",1,3,"left","right",0.755000114,0,0,1,1,NA,NA,NA,NA,NA,NA,NA,NA,NA,NA,NA,NA,NA,NA,NA,NA,NA,NA,NA,NA,NA,NA,NA,NA
"202","stim/objects/Instruments/triangle2.png",182,18,182,0.9,"stim/61.jpeg",6,1,3,NA,"Instruments",1,4,"left","left",0.524999857,1,1,1,1,NA,NA,NA,NA,NA,NA,NA,NA,NA,NA,NA,NA,NA,NA,NA,NA,NA,NA,NA,NA,NA,NA,NA,NA
"29","stim/objects/HouseObjects/rug.png",183,18,183,0.5,"stim/14.jpeg",1,4,1,NA,"HouseObjects",2,3,"right","",NA,0,0,1,1,NA,NA,NA,NA,NA,NA,NA,NA,NA,NA,NA,NA,NA,NA,NA,NA,NA,NA,NA,NA,NA,NA,NA,NA
"95","stim/objects/HouseObjects/spraybottle.png",184,18,184,0.7,"stim/31.jpeg",3,1,2,NA,"HouseObjects",2,4,"right","left",0.516000032,0,0,1,1,NA,NA,NA,NA,NA,NA,NA,NA,NA,NA,NA,NA,NA,NA,NA,NA,NA,NA,NA,NA,NA,NA,NA,NA
"166","stim/objects/Instruments/record2.png",185,18,185,0.7,"stim/43.jpeg",4,3,2,NA,"Instruments",1,1,"left","left",0.648000002,1,1,1,1,NA,NA,NA,NA,NA,NA,NA,NA,NA,NA,NA,NA,NA,NA,NA,NA,NA,NA,NA,NA,NA,NA,NA,NA
"231","stim/objects/Instruments/tuba.png",186,18,186,0.3,"stim/34.jpeg",3,4,2,NA,"Instruments",1,3,"left","right",0.567000151,0,0,1,1,NA,NA,NA,NA,NA,NA,NA,NA,NA,NA,NA,NA,NA,NA,NA,NA,NA,NA,NA,NA,NA,NA,NA,NA
"173","stim/objects/Instruments/saxophone.png",187,18,187,0.5,"stim/21.jpeg",2,1,1,NA,"Instruments",1,2,"left","right",0.640000105,0,0,1,1,NA,NA,NA,NA,NA,NA,NA,NA,NA,NA,NA,NA,NA,NA,NA,NA,NA,NA,NA,NA,NA,NA,NA,NA
"167","stim/objects/Instruments/record2.png",188,18,188,0.7,"stim/43.jpeg",4,3,2,NA,"Instruments",1,1,"left","left",0.608999968,1,1,1,1,NA,NA,NA,NA,NA,NA,NA,NA,NA,NA,NA,NA,NA,NA,NA,NA,NA,NA,NA,NA,NA,NA,NA,NA
"19","stim/objects/HouseObjects/rubbergloves.png",189,18,189,0.5,"stim/13.jpeg",1,3,1,NA,"HouseObjects",2,1,"right","",NA,0,0,1,1,NA,NA,NA,NA,NA,NA,NA,NA,NA,NA,NA,NA,NA,NA,NA,NA,NA,NA,NA,NA,NA,NA,NA,NA
"72","stim/objects/HouseObjects/scale2.png",190,18,190,0.9,"stim/53.jpeg",5,3,3,NA,"HouseObjects",2,3,"right","right",0.720000029,1,1,1,1,NA,NA,NA,NA,NA,NA,NA,NA,NA,NA,NA,NA,NA,NA,NA,NA,NA,NA,NA,NA,NA,NA,NA,NA
"130","stim/objects/Instruments/panflute2.png",191,18,191,0.7,"stim/41.jpeg",4,1,2,NA,"Instruments",1,1,"left","left",0.838000059,1,1,1,1,NA,NA,NA,NA,NA,NA,NA,NA,NA,NA,NA,NA,NA,NA,NA,NA,NA,NA,NA,NA,NA,NA,NA,NA
"73","stim/objects/HouseObjects/scale2.png",192,18,192,0.9,"stim/53.jpeg",5,3,3,NA,"HouseObjects",2,1,"right","right",0.65199995,1,1,1,1,NA,NA,NA,NA,NA,NA,NA,NA,NA,NA,NA,NA,NA,NA,NA,NA,NA,NA,NA,NA,NA,NA,NA,NA
"237","stim/objects/Instruments/tuba2.png",193,18,193,0.9,"stim/64.jpeg",6,4,3,NA,"Instruments",1,2,"left","left",0.606999874,1,1,1,1,NA,NA,NA,NA,NA,NA,NA,NA,NA,NA,NA,NA,NA,NA,NA,NA,NA,NA,NA,NA,NA,NA,NA,NA
"64","stim/objects/HouseObjects/scale.png",194,18,194,0.5,"stim/23.jpeg",2,3,1,NA,"HouseObjects",2,2,"right","right",0.623999834,1,1,1,1,NA,NA,NA,NA,NA,NA,NA,NA,NA,NA,NA,NA,NA,NA,NA,NA,NA,NA,NA,NA,NA,NA,NA,NA
"120","stim/objects/HouseObjects/thread2.png",195,18,195,0.1,"stim/64.jpeg",6,4,3,NA,"HouseObjects",2,4,"right","left",0.577000141,0,0,1,1,NA,NA,NA,NA,NA,NA,NA,NA,NA,NA,NA,NA,NA,NA,NA,NA,NA,NA,NA,NA,NA,NA,NA,NA
"74","stim/objects/HouseObjects/scale2.png",196,18,196,0.9,"stim/53.jpeg",5,3,3,NA,"HouseObjects",2,2,"right","right",0.595000029,1,1,1,1,NA,NA,NA,NA,NA,NA,NA,NA,NA,NA,NA,NA,NA,NA,NA,NA,NA,NA,NA,NA,NA,NA,NA,NA
"87","stim/objects/HouseObjects/sponge2.png",197,18,197,0.9,"stim/54.jpeg",5,4,3,NA,"HouseObjects",2,3,"right","right",0.590000153,1,1,1,1,NA,NA,NA,NA,NA,NA,NA,NA,NA,NA,NA,NA,NA,NA,NA,NA,NA,NA,NA,NA,NA,NA,NA,NA
"238","stim/objects/Instruments/tuba2.png",198,18,198,0.9,"stim/64.jpeg",6,4,3,NA,"Instruments",1,3,"left","left",0.486999989,1,1,1,1,NA,NA,NA,NA,NA,NA,NA,NA,NA,NA,NA,NA,NA,NA,NA,NA,NA,NA,NA,NA,NA,NA,NA,NA
"190","stim/objects/Instruments/timbal.png",199,18,199,0.5,"stim/24.jpeg",2,4,1,NA,"Instruments",1,3,"left","right",0.687000036,0,0,1,1,NA,NA,NA,NA,NA,NA,NA,NA,NA,NA,NA,NA,NA,NA,NA,NA,NA,NA,NA,NA,NA,NA,NA,NA
"125","stim/objects/Instruments/panflute.png",200,18,200,0.5,"stim/11.jpeg",1,1,1,NA,"Instruments",1,2,"left","left",0.599999905,1,1,1,1,NA,NA,NA,NA,NA,NA,NA,NA,NA,NA,NA,NA,NA,NA,NA,NA,NA,NA,NA,NA,NA,NA,NA,NA
"51","stim/objects/HouseObjects/saw.png",201,18,201,0.5,"stim/22.jpeg",2,2,1,NA,"HouseObjects",2,2,"right","left",0.486000061,0,0,1,1,NA,NA,NA,NA,NA,NA,NA,NA,NA,NA,NA,NA,NA,NA,NA,NA,NA,NA,NA,NA,NA,NA,NA,NA
"13","stim/objects/HouseObjects/remote.png",202,18,202,0.5,"stim/12.jpeg",1,2,1,NA,"HouseObjects",2,2,"right","left",0.539999962,0,0,1,1,NA,NA,NA,NA,NA,NA,NA,NA,NA,NA,NA,NA,NA,NA,NA,NA,NA,NA,NA,NA,NA,NA,NA,NA
"185","stim/objects/Instruments/tambourine.png",203,18,203,0.5,"stim/23.jpeg",2,3,1,NA,"Instruments",1,3,"left","right",0.712999821,0,0,1,1,NA,NA,NA,NA,NA,NA,NA,NA,NA,NA,NA,NA,NA,NA,NA,NA,NA,NA,NA,NA,NA,NA,NA,NA
"239","stim/objects/Instruments/tuba2.png",204,18,204,0.9,"stim/64.jpeg",6,4,3,NA,"Instruments",1,3,"left","left",0.602999926,1,1,1,1,NA,NA,NA,NA,NA,NA,NA,NA,NA,NA,NA,NA,NA,NA,NA,NA,NA,NA,NA,NA,NA,NA,NA,NA
"191","stim/objects/Instruments/timbal.png",205,18,205,0.5,"stim/24.jpeg",2,4,1,NA,"Instruments",1,3,"left","right",0.560000181,0,0,1,1,NA,NA,NA,NA,NA,NA,NA,NA,NA,NA,NA,NA,NA,NA,NA,NA,NA,NA,NA,NA,NA,NA,NA,NA
"60","stim/objects/HouseObjects/saw2.png",206,18,206,0.9,"stim/52.jpeg",5,2,3,NA,"HouseObjects",2,2,"right","right",0.559999943,1,1,1,1,NA,NA,NA,NA,NA,NA,NA,NA,NA,NA,NA,NA,NA,NA,NA,NA,NA,NA,NA,NA,NA,NA,NA,NA
"174","stim/objects/Instruments/saxophone2.png",207,18,207,0.1,"stim/51.jpeg",5,1,3,NA,"Instruments",1,4,"left","right",0.638000011,0,0,1,1,NA,NA,NA,NA,NA,NA,NA,NA,NA,NA,NA,NA,NA,NA,NA,NA,NA,NA,NA,NA,NA,NA,NA,NA
"36","stim/objects/HouseObjects/safetypin.png",208,18,208,0.5,"stim/21.jpeg",2,1,1,NA,"HouseObjects",2,4,"right","",NA,0,0,1,1,NA,NA,NA,NA,NA,NA,NA,NA,NA,NA,NA,NA,NA,NA,NA,NA,NA,NA,NA,NA,NA,NA,NA,NA
"23","stim/objects/HouseObjects/rubbergloves2.png",209,18,209,0.3,"stim/43.jpeg",4,3,2,NA,"HouseObjects",2,4,"right","left",0.667000055,0,0,1,1,NA,NA,NA,NA,NA,NA,NA,NA,NA,NA,NA,NA,NA,NA,NA,NA,NA,NA,NA,NA,NA,NA,NA,NA
"118","stim/objects/HouseObjects/thread.png",210,18,210,0.7,"stim/34.jpeg",3,4,2,NA,"HouseObjects",2,3,"right","right",0.694000006,1,1,1,1,NA,NA,NA,NA,NA,NA,NA,NA,NA,NA,NA,NA,NA,NA,NA,NA,NA,NA,NA,NA,NA,NA,NA,NA
"131","stim/objects/Instruments/panflute2.png",211,18,211,0.7,"stim/41.jpeg",4,1,2,NA,"Instruments",1,2,"left","left",0.743000031,1,1,1,1,NA,NA,NA,NA,NA,NA,NA,NA,NA,NA,NA,NA,NA,NA,NA,NA,NA,NA,NA,NA,NA,NA,NA,NA
"215","stim/objects/Instruments/trombone2.png",212,18,212,0.9,"stim/62.jpeg",6,2,3,NA,"Instruments",1,4,"left","left",0.50999999,1,1,1,1,NA,NA,NA,NA,NA,NA,NA,NA,NA,NA,NA,NA,NA,NA,NA,NA,NA,NA,NA,NA,NA,NA,NA,NA
"192","stim/objects/Instruments/timbal2.png",213,18,213,0.1,"stim/54.jpeg",5,4,3,NA,"Instruments",1,1,"left","right",0.756999969,0,0,1,1,NA,NA,NA,NA,NA,NA,NA,NA,NA,NA,NA,NA,NA,NA,NA,NA,NA,NA,NA,NA,NA,NA,NA,NA
"136","stim/objects/Instruments/pipepiano.png",214,18,214,0.5,"stim/12.jpeg",1,2,1,NA,"Instruments",1,3,"left","",NA,0,0,1,1,NA,NA,NA,NA,NA,NA,NA,NA,NA,NA,NA,NA,NA,NA,NA,NA,NA,NA,NA,NA,NA,NA,NA,NA
"88","stim/objects/HouseObjects/sponge2.png",215,18,215,0.9,"stim/54.jpeg",5,4,3,NA,"HouseObjects",2,1,"right","right",0.687999964,1,1,1,1,NA,NA,NA,NA,NA,NA,NA,NA,NA,NA,NA,NA,NA,NA,NA,NA,NA,NA,NA,NA,NA,NA,NA,NA
"24","stim/objects/HouseObjects/rubbergloves2.png",216,18,216,0.3,"stim/43.jpeg",4,3,2,NA,"HouseObjects",2,4,"right","left",0.588000059,0,0,1,1,NA,NA,NA,NA,NA,NA,NA,NA,NA,NA,NA,NA,NA,NA,NA,NA,NA,NA,NA,NA,NA,NA,NA,NA
"160","stim/objects/Instruments/record.png",217,18,217,0.5,"stim/13.jpeg",1,3,1,NA,"Instruments",1,3,"left","left",0.662999868,1,1,1,1,NA,NA,NA,NA,NA,NA,NA,NA,NA,NA,NA,NA,NA,NA,NA,NA,NA,NA,NA,NA,NA,NA,NA,NA
"203","stim/objects/Instruments/triangle2.png",218,18,218,0.9,"stim/61.jpeg",6,1,3,NA,"Instruments",1,4,"left","left",0.556999922,1,1,1,1,NA,NA,NA,NA,NA,NA,NA,NA,NA,NA,NA,NA,NA,NA,NA,NA,NA,NA,NA,NA,NA,NA,NA,NA
"32","stim/objects/HouseObjects/rug2.png",219,18,219,0.3,"stim/44.jpeg",4,4,2,NA,"HouseObjects",2,4,"right","left",0.75999999,0,0,1,1,NA,NA,NA,NA,NA,NA,NA,NA,NA,NA,NA,NA,NA,NA,NA,NA,NA,NA,NA,NA,NA,NA,NA,NA
"216","stim/objects/Instruments/trombone2.png",220,18,220,0.9,"stim/62.jpeg",6,2,3,NA,"Instruments",1,1,"left","left",0.54399991,1,1,1,1,NA,NA,NA,NA,NA,NA,NA,NA,NA,NA,NA,NA,NA,NA,NA,NA,NA,NA,NA,NA,NA,NA,NA,NA
"168","stim/objects/Instruments/record2.png",221,18,221,0.7,"stim/43.jpeg",4,3,2,NA,"Instruments",1,3,"left","",NA,0,0,1,1,NA,NA,NA,NA,NA,NA,NA,NA,NA,NA,NA,NA,NA,NA,NA,NA,NA,NA,NA,NA,NA,NA,NA,NA
"45","stim/objects/HouseObjects/safetypin2.png",222,18,222,0.9,"stim/51.jpeg",5,1,3,NA,"HouseObjects",2,2,"right","right",0.552000046,1,1,1,1,NA,NA,NA,NA,NA,NA,NA,NA,NA,NA,NA,NA,NA,NA,NA,NA,NA,NA,NA,NA,NA,NA,NA,NA
"137","stim/objects/Instruments/pipepiano.png",223,18,223,0.5,"stim/12.jpeg",1,2,1,NA,"Instruments",1,1,"left","left",0.602999926,1,1,1,1,NA,NA,NA,NA,NA,NA,NA,NA,NA,NA,NA,NA,NA,NA,NA,NA,NA,NA,NA,NA,NA,NA,NA,NA
"228","stim/objects/Instruments/trumpet2.png",224,18,224,0.9,"stim/63.jpeg",6,3,3,NA,"Instruments",1,4,"left","left",0.763999939,1,1,1,1,NA,NA,NA,NA,NA,NA,NA,NA,NA,NA,NA,NA,NA,NA,NA,NA,NA,NA,NA,NA,NA,NA,NA,NA
"132","stim/objects/Instruments/panflute2.png",225,18,225,0.7,"stim/41.jpeg",4,1,2,NA,"Instruments",1,3,"left","right",0.70600009,0,0,1,1,NA,NA,NA,NA,NA,NA,NA,NA,NA,NA,NA,NA,NA,NA,NA,NA,NA,NA,NA,NA,NA,NA,NA,NA
"119","stim/objects/HouseObjects/thread.png",226,18,226,0.7,"stim/34.jpeg",3,4,2,NA,"HouseObjects",2,2,"right","left",0.512000084,0,0,1,1,NA,NA,NA,NA,NA,NA,NA,NA,NA,NA,NA,NA,NA,NA,NA,NA,NA,NA,NA,NA,NA,NA,NA,NA
"37","stim/objects/HouseObjects/safetypin.png",227,18,227,0.5,"stim/21.jpeg",2,1,1,NA,"HouseObjects",2,3,"right","right",0.638000011,1,1,1,1,NA,NA,NA,NA,NA,NA,NA,NA,NA,NA,NA,NA,NA,NA,NA,NA,NA,NA,NA,NA,NA,NA,NA,NA
"178","stim/objects/Instruments/speaker.png",228,18,228,0.5,"stim/22.jpeg",2,2,1,NA,"Instruments",1,1,"left","right",0.552999973,0,0,1,1,NA,NA,NA,NA,NA,NA,NA,NA,NA,NA,NA,NA,NA,NA,NA,NA,NA,NA,NA,NA,NA,NA,NA,NA
"207","stim/objects/Instruments/trombone.png",229,18,229,0.3,"stim/32.jpeg",3,2,2,NA,"Instruments",1,2,"left","right",0.631999969,0,0,1,1,NA,NA,NA,NA,NA,NA,NA,NA,NA,NA,NA,NA,NA,NA,NA,NA,NA,NA,NA,NA,NA,NA,NA,NA
"65","stim/objects/HouseObjects/scale.png",230,18,230,0.5,"stim/23.jpeg",2,3,1,NA,"HouseObjects",2,4,"right","right",0.653000116,1,1,1,1,NA,NA,NA,NA,NA,NA,NA,NA,NA,NA,NA,NA,NA,NA,NA,NA,NA,NA,NA,NA,NA,NA,NA,NA
"143","stim/objects/Instruments/pipepiano2.png",231,18,231,0.7,"stim/42.jpeg",4,2,2,NA,"Instruments",1,4,"left","left",0.657000065,1,1,1,1,NA,NA,NA,NA,NA,NA,NA,NA,NA,NA,NA,NA,NA,NA,NA,NA,NA,NA,NA,NA,NA,NA,NA,NA
"144","stim/objects/Instruments/pipepiano2.png",232,18,232,0.7,"stim/42.jpeg",4,2,2,NA,"Instruments",1,3,"left","left",0.694999933,1,1,1,1,NA,NA,NA,NA,NA,NA,NA,NA,NA,NA,NA,NA,NA,NA,NA,NA,NA,NA,NA,NA,NA,NA,NA,NA
"240","stim/objects/Instruments/tuba2.png",233,18,233,0.9,"stim/64.jpeg",6,4,3,NA,"Instruments",1,2,"left","left",0.605999947,1,1,1,1,NA,NA,NA,NA,NA,NA,NA,NA,NA,NA,NA,NA,NA,NA,NA,NA,NA,NA,NA,NA,NA,NA,NA,NA
"20","stim/objects/HouseObjects/rubbergloves.png",234,18,234,0.5,"stim/13.jpeg",1,3,1,NA,"HouseObjects",2,2,"right","",NA,0,0,1,1,NA,NA,NA,NA,NA,NA,NA,NA,NA,NA,NA,NA,NA,NA,NA,NA,NA,NA,NA,NA,NA,NA,NA,NA
"46","stim/objects/HouseObjects/safetypin2.png",235,18,235,0.9,"stim/51.jpeg",5,1,3,NA,"HouseObjects",2,4,"right","right",0.751999855,1,1,1,1,NA,NA,NA,NA,NA,NA,NA,NA,NA,NA,NA,NA,NA,NA,NA,NA,NA,NA,NA,NA,NA,NA,NA,NA
"161","stim/objects/Instruments/record.png",236,18,236,0.5,"stim/13.jpeg",1,3,1,NA,"Instruments",1,1,"left","left",0.781999826,1,1,1,1,NA,NA,NA,NA,NA,NA,NA,NA,NA,NA,NA,NA,NA,NA,NA,NA,NA,NA,NA,NA,NA,NA,NA,NA
"179","stim/objects/Instruments/speaker.png",237,18,237,0.5,"stim/22.jpeg",2,2,1,NA,"Instruments",1,4,"left","",NA,0,0,1,1,NA,NA,NA,NA,NA,NA,NA,NA,NA,NA,NA,NA,NA,NA,NA,NA,NA,NA,NA,NA,NA,NA,NA,NA
"204","stim/objects/Instruments/triangle2.png",238,18,238,0.9,"stim/61.jpeg",6,1,3,NA,"Instruments",1,4,"left","left",0.612999916,1,1,1,1,NA,NA,NA,NA,NA,NA,NA,NA,NA,NA,NA,NA,NA,NA,NA,NA,NA,NA,NA,NA,NA,NA,NA,NA
"5","stim/objects/HouseObjects/recyclingbin.png",239,18,239,0.5,"stim/11.jpeg",1,1,1,NA,"HouseObjects",2,3,"right","left",0.795000076,0,0,1,1,NA,NA,NA,NA,NA,NA,NA,NA,NA,NA,NA,NA,NA,NA,NA,NA,NA,NA,NA,NA,NA,NA,NA,NA
"21","stim/objects/HouseObjects/rubbergloves.png",240,18,240,0.5,"stim/13.jpeg",1,3,1,NA,"HouseObjects",2,3,"right","",NA,0,0,1,1,NA,NA,NA,NA,NA,NA,NA,NA,NA,NA,NA,NA,NA,NA,NA,NA,NA,NA,NA,NA,NA,NA,NA,NA
"559","stim/objects/Instruments/musicsheet3.png",248,18,241,0.5,"stim/21.jpeg",2,1,1,1,"Instruments",1,1,"left","right",0.707999945,0,0,1,0,56,18,1,0.5,2,"stim/21.jpeg",2,1,"stim/21.jpeg",1,"right",6.746999979,2,2,1.171999931,3,1.556999922,56,0,0,NA,0,NA,1
"456","stim/objects/Instruments/flute3.png",249,18,242,0.9,"stim/63.jpeg",6,3,3,2,"Instruments",1,1,"left","left",0.700000048,1,1,1,0,NA,NA,NA,NA,NA,NA,NA,NA,NA,NA,NA,NA,NA,NA,NA,NA,NA,NA,NA,NA,NA,NA,NA,NA
"427","stim/objects/Instruments/chime3.png",250,18,243,0.5,"stim/22.jpeg",2,2,1,2,"Instruments",1,1,"left","right",0.797999859,0,0,1,0,NA,NA,NA,NA,NA,NA,NA,NA,NA,NA,NA,NA,NA,NA,NA,NA,NA,NA,NA,NA,NA,NA,NA,NA
"430","stim/objects/Instruments/clarinet3.png",251,18,244,0.5,"stim/22.jpeg",2,2,1,2,"Instruments",1,1,"left","left",0.705999851,1,1,1,0,NA,NA,NA,NA,NA,NA,NA,NA,NA,NA,NA,NA,NA,NA,NA,NA,NA,NA,NA,NA,NA,NA,NA,NA
"490","stim/objects/Instruments/frenchhorn3.png",252,18,245,0.9,"stim/64.jpeg",6,4,3,2,"Instruments",1,3,"left","left",0.594000101,1,1,1,0,NA,NA,NA,NA,NA,NA,NA,NA,NA,NA,NA,NA,NA,NA,NA,NA,NA,NA,NA,NA,NA,NA,NA,NA
"432","stim/objects/Instruments/clarinet4.png",253,18,246,0.7,"stim/43.jpeg",4,3,2,1,"Instruments",1,3,"left","left",0.644000053,1,1,1,0,88,18,1,0.7,1,"stim/43.jpeg",4,3,"stim/43.jpeg",3,"right",2.70299983,3,3,1.013999939,4,0.927999973,88,0,1,NA,0,NA,1
"392","stim/objects/HouseObjects/lintroller3.png",254,18,247,0.5,"stim/23.jpeg",2,3,1,1,"HouseObjects",2,3,"right","",NA,0,0,1,0,99,18,1,0.5,2,"stim/23.jpeg",2,3,"stim/23.jpeg",3,"left",1.19299984,4,1,8.503000021,4,1.470000029,99,1,0,0,0,0,1
"359","stim/objects/HouseObjects/glass3.png",255,18,248,0.9,"stim/53.jpeg",5,3,3,2,"HouseObjects",2,3,"right","right",0.582999945,1,1,1,0,NA,NA,NA,NA,NA,NA,NA,NA,NA,NA,NA,NA,NA,NA,NA,NA,NA,NA,NA,NA,NA,NA,NA,NA
"261","stim/objects/HouseObjects/bottle4.png",256,18,249,0.3,"stim/43.jpeg",4,3,2,1,"HouseObjects",2,3,"right","left",0.599999905,0,0,1,0,39,18,1,0.3,2,"stim/43.jpeg",4,3,"stim/43.jpeg",3,"right",0.829999924,4,4,1.502999783,3,1.243999958,39,0,0,NA,1,NA,1
"394","stim/objects/HouseObjects/match3.png",257,18,250,0.5,"stim/24.jpeg",2,4,1,1,"HouseObjects",2,3,"right","right",0.71600008,1,1,1,0,197,18,1,0.5,2,"stim/24.jpeg",2,4,"stim/24.jpeg",3,"left",1.028999805,4,4,7.718999863,4,1.08100009,197,1,1,1,0,0,1
"292","stim/objects/HouseObjects/doormat3.png",258,18,251,0.9,"stim/54.jpeg",5,4,3,2,"HouseObjects",2,4,"right","left",0.616000175,0,0,1,0,NA,NA,NA,NA,NA,NA,NA,NA,NA,NA,NA,NA,NA,NA,NA,NA,NA,NA,NA,NA,NA,NA,NA,NA
"279","stim/objects/HouseObjects/coffee3.png",259,18,252,0.7,"stim/33.jpeg",3,3,2,2,"HouseObjects",2,1,"right","right",0.730000019,1,1,1,0,NA,NA,NA,NA,NA,NA,NA,NA,NA,NA,NA,NA,NA,NA,NA,NA,NA,NA,NA,NA,NA,NA,NA,NA
"402","stim/objects/HouseObjects/vacuumcleaner3.png",260,18,253,0.7,"stim/31.jpeg",3,1,2,1,"HouseObjects",2,3,"right","right",0.720000029,1,1,1,0,187,18,1,0.7,2,"stim/31.jpeg",3,1,"stim/31.jpeg",3,"right",5.718999863,3,2,1.115999937,4,2.557999849,187,0,0,NA,0,NA,1
"275","stim/objects/HouseObjects/clothespin3.png",261,18,254,0.7,"stim/34.jpeg",3,4,2,2,"HouseObjects",2,4,"right","right",0.450000048,1,1,1,0,NA,NA,NA,NA,NA,NA,NA,NA,NA,NA,NA,NA,NA,NA,NA,NA,NA,NA,NA,NA,NA,NA,NA,NA
"473","stim/objects/Instruments/flutetrans3.png",262,18,255,0.9,"stim/61.jpeg",6,1,3,2,"Instruments",1,3,"left","left",0.601000071,1,1,1,0,NA,NA,NA,NA,NA,NA,NA,NA,NA,NA,NA,NA,NA,NA,NA,NA,NA,NA,NA,NA,NA,NA,NA,NA
"271","stim/objects/HouseObjects/clothesdryingrack3.png",263,18,256,0.7,"stim/33.jpeg",3,3,2,2,"HouseObjects",2,4,"right","right",0.5,1,1,1,0,NA,NA,NA,NA,NA,NA,NA,NA,NA,NA,NA,NA,NA,NA,NA,NA,NA,NA,NA,NA,NA,NA,NA,NA
"507","stim/objects/Instruments/gong3.png",264,18,257,0.9,"stim/63.jpeg",6,3,3,2,"Instruments",1,4,"left","left",0.728000164,1,1,1,0,NA,NA,NA,NA,NA,NA,NA,NA,NA,NA,NA,NA,NA,NA,NA,NA,NA,NA,NA,NA,NA,NA,NA,NA
"474","stim/objects/Instruments/flutetrans3.png",265,18,258,0.9,"stim/64.jpeg",6,4,3,2,"Instruments",1,3,"left","left",0.589999914,1,1,1,0,NA,NA,NA,NA,NA,NA,NA,NA,NA,NA,NA,NA,NA,NA,NA,NA,NA,NA,NA,NA,NA,NA,NA,NA
"241","stim/objects/HouseObjects/ashtray3.png",266,18,259,0.5,"stim/11.jpeg",1,1,1,2,"HouseObjects",2,4,"right","right",0.523999929,1,1,1,0,NA,NA,NA,NA,NA,NA,NA,NA,NA,NA,NA,NA,NA,NA,NA,NA,NA,NA,NA,NA,NA,NA,NA,NA
"293","stim/objects/HouseObjects/doormat3.png",267,18,260,0.9,"stim/53.jpeg",5,3,3,2,"HouseObjects",2,4,"right","right",0.513999939,1,1,1,0,NA,NA,NA,NA,NA,NA,NA,NA,NA,NA,NA,NA,NA,NA,NA,NA,NA,NA,NA,NA,NA,NA,NA,NA
"457","stim/objects/Instruments/flute3.png",268,18,261,0.9,"stim/63.jpeg",6,3,3,2,"Instruments",1,2,"left","left",0.531000137,1,1,1,0,NA,NA,NA,NA,NA,NA,NA,NA,NA,NA,NA,NA,NA,NA,NA,NA,NA,NA,NA,NA,NA,NA,NA,NA
"455","stim/objects/Instruments/electricguitar4.png",269,18,262,0.7,"stim/41.jpeg",4,1,2,1,"Instruments",1,3,"left","left",0.542000055,1,1,1,0,2,18,1,0.7,1,"stim/41.jpeg",4,1,"stim/41.jpeg",3,"right",14.83599997,2,4,9.868999958,4,2.808999777,2,0,0,NA,0,NA,1
"550","stim/objects/Instruments/keyboard4.png",270,18,263,0.1,"stim/52.jpeg",5,2,3,1,"Instruments",1,4,"left","right",0.429000139,0,0,1,0,188,18,1,0.1,1,"stim/52.jpeg",5,2,"stim/52.jpeg",4,"right",0.758999825,4,2,0.864999771,4,1.068999767,188,0,1,NA,1,NA,1
"308","stim/objects/HouseObjects/dustpan3.png",271,18,264,0.9,"stim/54.jpeg",5,4,3,2,"HouseObjects",2,2,"right","right",0.532999992,1,1,1,0,NA,NA,NA,NA,NA,NA,NA,NA,NA,NA,NA,NA,NA,NA,NA,NA,NA,NA,NA,NA,NA,NA,NA,NA
"557","stim/objects/Instruments/metronome3.png",272,18,265,0.5,"stim/24.jpeg",2,4,1,1,"Instruments",1,2,"left","left",0.608999968,1,1,1,0,50,18,1,0.5,2,"stim/24.jpeg",2,4,"stim/24.jpeg",2,"left",1.822999954,4,2,1.760999918,4,12.25999999,50,1,0,0,0,0,1
"257","stim/objects/HouseObjects/blender3.png",273,18,266,0.5,"stim/23.jpeg",2,3,1,2,"HouseObjects",2,2,"right","left",0.53399992,0,0,1,0,NA,NA,NA,NA,NA,NA,NA,NA,NA,NA,NA,NA,NA,NA,NA,NA,NA,NA,NA,NA,NA,NA,NA,NA
"508","stim/objects/Instruments/gong3.png",274,18,267,0.9,"stim/62.jpeg",6,2,3,2,"Instruments",1,1,"left","",NA,0,0,1,0,NA,NA,NA,NA,NA,NA,NA,NA,NA,NA,NA,NA,NA,NA,NA,NA,NA,NA,NA,NA,NA,NA,NA,NA
"377","stim/objects/HouseObjects/glassmop4.png",275,18,268,0.9,"stim/54.jpeg",5,4,3,1,"HouseObjects",2,3,"right","left",0.440999985,0,0,1,0,6,18,1,0.9,2,"stim/54.jpeg",5,4,"stim/54.jpeg",3,"left",1.670999765,4,3,11.96099973,4,6.883999825,6,1,0,0,0,0,1
"458","stim/objects/Instruments/flute3.png",276,18,269,0.9,"stim/61.jpeg",6,1,3,2,"Instruments",1,1,"left","left",0.586000204,1,1,1,0,NA,NA,NA,NA,NA,NA,NA,NA,NA,NA,NA,NA,NA,NA,NA,NA,NA,NA,NA,NA,NA,NA,NA,NA
"309","stim/objects/HouseObjects/dustpan3.png",277,18,270,0.9,"stim/51.jpeg",5,1,3,2,"HouseObjects",2,2,"right","right",0.555000067,1,1,1,0,NA,NA,NA,NA,NA,NA,NA,NA,NA,NA,NA,NA,NA,NA,NA,NA,NA,NA,NA,NA,NA,NA,NA,NA
"325","stim/objects/HouseObjects/flyswatter3.png",278,18,271,0.9,"stim/52.jpeg",5,2,3,2,"HouseObjects",2,2,"right","right",0.467999935,1,1,1,0,NA,NA,NA,NA,NA,NA,NA,NA,NA,NA,NA,NA,NA,NA,NA,NA,NA,NA,NA,NA,NA,NA,NA,NA
"243","stim/objects/HouseObjects/ashtray4.png",279,18,272,0.7,"stim/33.jpeg",3,3,2,1,"HouseObjects",2,1,"right","left",0.523000002,0,0,1,0,144,18,1,0.7,2,"stim/33.jpeg",3,3,"stim/33.jpeg",1,"right",0.953999996,4,3,2.450999975,4,0.892999887,144,0,1,NA,0,NA,1
"436","stim/objects/Instruments/cymbal3.png",280,18,273,0.7,"stim/43.jpeg",4,3,2,2,"Instruments",1,3,"left","left",0.603999853,1,1,1,0,NA,NA,NA,NA,NA,NA,NA,NA,NA,NA,NA,NA,NA,NA,NA,NA,NA,NA,NA,NA,NA,NA,NA,NA
"421","stim/objects/Instruments/bassguitar3.png",281,18,274,0.5,"stim/23.jpeg",2,3,1,2,"Instruments",1,4,"left","right",0.424000025,0,0,1,0,NA,NA,NA,NA,NA,NA,NA,NA,NA,NA,NA,NA,NA,NA,NA,NA,NA,NA,NA,NA,NA,NA,NA,NA
"326","stim/objects/HouseObjects/flyswatter3.png",282,18,275,0.9,"stim/53.jpeg",5,3,3,2,"HouseObjects",2,3,"right","right",0.595999956,1,1,1,0,NA,NA,NA,NA,NA,NA,NA,NA,NA,NA,NA,NA,NA,NA,NA,NA,NA,NA,NA,NA,NA,NA,NA,NA
"296","stim/objects/HouseObjects/doormat3.png",283,18,276,0.9,"stim/53.jpeg",5,3,3,2,"HouseObjects",2,3,"right","right",0.674999952,1,1,1,0,NA,NA,NA,NA,NA,NA,NA,NA,NA,NA,NA,NA,NA,NA,NA,NA,NA,NA,NA,NA,NA,NA,NA,NA
"449","stim/objects/Instruments/electricdrumset3.png",284,18,277,0.7,"stim/41.jpeg",4,1,2,2,"Instruments",1,1,"left","left",0.494999886,1,1,1,0,NA,NA,NA,NA,NA,NA,NA,NA,NA,NA,NA,NA,NA,NA,NA,NA,NA,NA,NA,NA,NA,NA,NA,NA
"399","stim/objects/HouseObjects/pitcher4.png",285,18,278,0.1,"stim/61.jpeg",6,1,3,1,"HouseObjects",2,4,"right","right",0.446000099,1,1,1,0,108,18,1,0.1,2,"stim/61.jpeg",6,1,"stim/61.jpeg",4,"right",0.665999889,2,3,1.475000143,2,1.184999943,108,0,0,NA,0,NA,1
"560","stim/objects/Instruments/musicsheet4.png",286,18,279,0.9,"stim/61.jpeg",6,1,3,1,"Instruments",1,1,"left","right",0.651000023,0,0,1,0,55,18,1,0.9,1,"stim/61.jpeg",6,1,"stim/61.jpeg",1,"left",1.199999809,3,1,4.595000029,2,1.628999949,55,1,1,1,0,0,1
"459","stim/objects/Instruments/flute3.png",287,18,280,0.9,"stim/63.jpeg",6,3,3,2,"Instruments",1,3,"left","left",0.534000158,1,1,1,0,NA,NA,NA,NA,NA,NA,NA,NA,NA,NA,NA,NA,NA,NA,NA,NA,NA,NA,NA,NA,NA,NA,NA,NA
"291","stim/objects/HouseObjects/doormat3.png",288,18,281,0.9,"stim/51.jpeg",5,1,3,2,"HouseObjects",2,3,"right","right",0.621000051,1,1,1,0,NA,NA,NA,NA,NA,NA,NA,NA,NA,NA,NA,NA,NA,NA,NA,NA,NA,NA,NA,NA,NA,NA,NA,NA
"360","stim/objects/HouseObjects/glass3.png",289,18,282,0.9,"stim/51.jpeg",5,1,3,2,"HouseObjects",2,3,"right","left",0.460000038,0,0,1,0,NA,NA,NA,NA,NA,NA,NA,NA,NA,NA,NA,NA,NA,NA,NA,NA,NA,NA,NA,NA,NA,NA,NA,NA
"310","stim/objects/HouseObjects/dustpan3.png",290,18,283,0.9,"stim/52.jpeg",5,2,3,2,"HouseObjects",2,3,"right","right",0.655999899,1,1,1,0,NA,NA,NA,NA,NA,NA,NA,NA,NA,NA,NA,NA,NA,NA,NA,NA,NA,NA,NA,NA,NA,NA,NA,NA
"543","stim/objects/Instruments/harmonica3.png",291,18,284,0.5,"stim/14.jpeg",1,4,1,1,"Instruments",1,3,"left","left",0.676999807,1,1,1,0,163,18,1,0.5,1,"stim/14.jpeg",1,4,"stim/14.jpeg",3,"right",2.600999832,2,2,1.062000036,3,0.904999971,163,0,0,NA,1,NA,1
"380","stim/objects/HouseObjects/handbrush3.png",292,18,285,0.5,"stim/14.jpeg",1,4,1,1,"HouseObjects",2,2,"right","",NA,0,0,1,0,26,18,1,0.5,1,"stim/14.jpeg",1,4,"stim/14.jpeg",2,"left",1.48699975,4,3,4.4599998,2,2.012999773,26,1,0,0,1,1,1
"509","stim/objects/Instruments/gong3.png",293,18,286,0.9,"stim/61.jpeg",6,1,3,2,"Instruments",1,1,"left","left",0.505000114,1,1,1,0,NA,NA,NA,NA,NA,NA,NA,NA,NA,NA,NA,NA,NA,NA,NA,NA,NA,NA,NA,NA,NA,NA,NA,NA
"433","stim/objects/Instruments/cornet3.png",294,18,287,0.5,"stim/23.jpeg",2,3,1,2,"Instruments",1,3,"left","left",0.569000006,1,1,1,0,NA,NA,NA,NA,NA,NA,NA,NA,NA,NA,NA,NA,NA,NA,NA,NA,NA,NA,NA,NA,NA,NA,NA,NA
"492","stim/objects/Instruments/frenchhorn3.png",295,18,288,0.9,"stim/62.jpeg",6,2,3,2,"Instruments",1,4,"left","left",0.589999914,1,1,1,0,NA,NA,NA,NA,NA,NA,NA,NA,NA,NA,NA,NA,NA,NA,NA,NA,NA,NA,NA,NA,NA,NA,NA,NA
"475","stim/objects/Instruments/flutetrans3.png",296,18,289,0.9,"stim/64.jpeg",6,4,3,2,"Instruments",1,1,"left","left",0.51699996,1,1,1,0,NA,NA,NA,NA,NA,NA,NA,NA,NA,NA,NA,NA,NA,NA,NA,NA,NA,NA,NA,NA,NA,NA,NA,NA
"327","stim/objects/HouseObjects/flyswatter3.png",297,18,290,0.9,"stim/54.jpeg",5,4,3,2,"HouseObjects",2,4,"right","left",0.690000057,0,0,1,0,NA,NA,NA,NA,NA,NA,NA,NA,NA,NA,NA,NA,NA,NA,NA,NA,NA,NA,NA,NA,NA,NA,NA,NA
"541","stim/objects/Instruments/guitarcase3.png",298,18,291,0.5,"stim/13.jpeg",1,3,1,1,"Instruments",1,1,"left","",NA,0,0,1,0,186,18,1,0.5,1,"stim/13.jpeg",1,3,"stim/13.jpeg",1,"left",4.478000164,2,3,6.467999935,2,0.891000032,186,1,1,1,0,0,1
"361","stim/objects/HouseObjects/glass3.png",299,18,292,0.9,"stim/53.jpeg",5,3,3,2,"HouseObjects",2,2,"right","right",0.468000174,1,1,1,0,NA,NA,NA,NA,NA,NA,NA,NA,NA,NA,NA,NA,NA,NA,NA,NA,NA,NA,NA,NA,NA,NA,NA,NA
"297","stim/objects/HouseObjects/doormat3.png",300,18,293,0.9,"stim/52.jpeg",5,2,3,2,"HouseObjects",2,2,"right","right",0.46600008,1,1,1,0,NA,NA,NA,NA,NA,NA,NA,NA,NA,NA,NA,NA,NA,NA,NA,NA,NA,NA,NA,NA,NA,NA,NA,NA
"401","stim/objects/HouseObjects/towel4.png",301,18,294,0.1,"stim/62.jpeg",6,2,3,1,"HouseObjects",2,2,"right","right",0.527999878,1,1,1,0,54,18,1,0.1,2,"stim/62.jpeg",6,2,"stim/62.jpeg",2,"left",0.964999914,4,3,4.71999979,2,3.84100008,54,1,0,0,1,1,1
"440","stim/objects/Instruments/doublebass3.png",302,18,295,0.7,"stim/44.jpeg",4,4,2,2,"Instruments",1,2,"left","left",0.729000092,1,1,1,0,NA,NA,NA,NA,NA,NA,NA,NA,NA,NA,NA,NA,NA,NA,NA,NA,NA,NA,NA,NA,NA,NA,NA,NA
"476","stim/objects/Instruments/flutetrans3.png",303,18,296,0.9,"stim/63.jpeg",6,3,3,2,"Instruments",1,4,"left","left",0.529999971,1,1,1,0,NA,NA,NA,NA,NA,NA,NA,NA,NA,NA,NA,NA,NA,NA,NA,NA,NA,NA,NA,NA,NA,NA,NA,NA
"546","stim/objects/Instruments/harp4.png",304,18,297,0.1,"stim/54.jpeg",5,4,3,1,"Instruments",1,2,"left","left",0.519000053,1,1,1,0,1,18,1,0.1,1,"stim/54.jpeg",5,4,"stim/54.jpeg",2,"right",4.020999908,3,4,17.90199995,4,5.003999949,1,0,1,NA,0,NA,1
"441","stim/objects/Instruments/doublebass3.png",305,18,298,0.7,"stim/42.jpeg",4,2,2,2,"Instruments",1,2,"left","right",0.565999985,0,0,1,0,NA,NA,NA,NA,NA,NA,NA,NA,NA,NA,NA,NA,NA,NA,NA,NA,NA,NA,NA,NA,NA,NA,NA,NA
"344","stim/objects/HouseObjects/garbagebin3.png",306,18,299,0.9,"stim/54.jpeg",5,4,3,2,"HouseObjects",2,3,"right","right",0.59800005,1,1,1,0,NA,NA,NA,NA,NA,NA,NA,NA,NA,NA,NA,NA,NA,NA,NA,NA,NA,NA,NA,NA,NA,NA,NA,NA
"262","stim/objects/HouseObjects/broom3.png",307,18,300,0.5,"stim/21.jpeg",2,1,1,2,"HouseObjects",2,3,"right","right",0.630000114,1,1,1,0,NA,NA,NA,NA,NA,NA,NA,NA,NA,NA,NA,NA,NA,NA,NA,NA,NA,NA,NA,NA,NA,NA,NA,NA
"375","stim/objects/HouseObjects/glass4.png",308,18,301,0.9,"stim/53.jpeg",5,3,3,1,"HouseObjects",2,4,"right","right",0.698000193,1,1,1,0,141,18,1,0.9,2,"stim/53.jpeg",5,3,"stim/53.jpeg",4,"left",0.980999947,4,2,9.172999859,1,5.513999939,141,1,0,0,0,0,1
"494","stim/objects/Instruments/frenchhorn3.png",309,18,302,0.9,"stim/63.jpeg",6,3,3,2,"Instruments",1,1,"left","left",0.690999985,1,1,1,0,NA,NA,NA,NA,NA,NA,NA,NA,NA,NA,NA,NA,NA,NA,NA,NA,NA,NA,NA,NA,NA,NA,NA,NA
"286","stim/objects/HouseObjects/cushion4.png",310,18,303,0.3,"stim/42.jpeg",4,2,2,1,"HouseObjects",2,2,"right","right",0.519999981,1,1,1,0,115,18,1,0.3,2,"stim/42.jpeg",4,2,"stim/42.jpeg",2,"right",0.628000021,2,3,2.470999956,1,1.519999743,115,0,0,NA,0,NA,1
"329","stim/objects/HouseObjects/flyswatter3.png",311,18,304,0.9,"stim/52.jpeg",5,2,3,2,"HouseObjects",2,1,"right","right",0.559000015,1,1,1,0,NA,NA,NA,NA,NA,NA,NA,NA,NA,NA,NA,NA,NA,NA,NA,NA,NA,NA,NA,NA,NA,NA,NA,NA
"495","stim/objects/Instruments/frenchhorn3.png",312,18,305,0.9,"stim/63.jpeg",6,3,3,2,"Instruments",1,3,"left","left",0.582999945,1,1,1,0,NA,NA,NA,NA,NA,NA,NA,NA,NA,NA,NA,NA,NA,NA,NA,NA,NA,NA,NA,NA,NA,NA,NA,NA
"265","stim/objects/HouseObjects/bucket3.png",313,18,306,0.5,"stim/22.jpeg",2,2,1,2,"HouseObjects",2,3,"right","right",0.656999826,1,1,1,0,NA,NA,NA,NA,NA,NA,NA,NA,NA,NA,NA,NA,NA,NA,NA,NA,NA,NA,NA,NA,NA,NA,NA,NA
"542","stim/objects/Instruments/guitarcase4.png",314,18,307,0.1,"stim/52.jpeg",5,2,3,1,"Instruments",1,2,"left","right",0.508999825,0,0,1,0,111,18,1,0.1,1,"stim/52.jpeg",5,2,"stim/52.jpeg",2,"right",1.008999825,3,2,1.157000065,3,1.241999865,111,0,1,NA,0,NA,1
"287","stim/objects/HouseObjects/dishsoap3.png",315,18,308,0.7,"stim/34.jpeg",3,4,2,2,"HouseObjects",2,4,"right","left",0.568000078,0,0,1,0,NA,NA,NA,NA,NA,NA,NA,NA,NA,NA,NA,NA,NA,NA,NA,NA,NA,NA,NA,NA,NA,NA,NA,NA
"298","stim/objects/HouseObjects/doormat3.png",316,18,309,0.9,"stim/52.jpeg",5,2,3,2,"HouseObjects",2,3,"right","right",0.510999918,1,1,1,0,NA,NA,NA,NA,NA,NA,NA,NA,NA,NA,NA,NA,NA,NA,NA,NA,NA,NA,NA,NA,NA,NA,NA,NA
"489","stim/objects/Instruments/flutetrans4.png",317,18,310,0.1,"stim/52.jpeg",5,2,3,1,"Instruments",1,4,"left","",NA,0,0,1,0,43,18,1,0.1,1,"stim/52.jpeg",5,2,"stim/52.jpeg",4,"right",3.13499999,3,2,1.56099987,3,1.125,43,0,1,NA,0,NA,1
"477","stim/objects/Instruments/flutetrans3.png",318,18,311,0.9,"stim/64.jpeg",6,4,3,2,"Instruments",1,2,"left","left",0.736999989,1,1,1,0,NA,NA,NA,NA,NA,NA,NA,NA,NA,NA,NA,NA,NA,NA,NA,NA,NA,NA,NA,NA,NA,NA,NA,NA
"512","stim/objects/Instruments/gong3.png",319,18,312,0.9,"stim/64.jpeg",6,4,3,2,"Instruments",1,2,"left","left",0.450999975,1,1,1,0,NA,NA,NA,NA,NA,NA,NA,NA,NA,NA,NA,NA,NA,NA,NA,NA,NA,NA,NA,NA,NA,NA,NA,NA
"245","stim/objects/HouseObjects/ballofstring3.png",320,18,313,0.5,"stim/11.jpeg",1,1,1,2,"HouseObjects",2,2,"right","right",0.808000088,1,1,1,0,NA,NA,NA,NA,NA,NA,NA,NA,NA,NA,NA,NA,NA,NA,NA,NA,NA,NA,NA,NA,NA,NA,NA,NA
"460","stim/objects/Instruments/flute3.png",321,18,314,0.9,"stim/62.jpeg",6,2,3,2,"Instruments",1,3,"left","left",0.510000229,1,1,1,0,NA,NA,NA,NA,NA,NA,NA,NA,NA,NA,NA,NA,NA,NA,NA,NA,NA,NA,NA,NA,NA,NA,NA,NA
"496","stim/objects/Instruments/frenchhorn3.png",322,18,315,0.9,"stim/61.jpeg",6,1,3,2,"Instruments",1,4,"left","left",0.634000063,1,1,1,0,NA,NA,NA,NA,NA,NA,NA,NA,NA,NA,NA,NA,NA,NA,NA,NA,NA,NA,NA,NA,NA,NA,NA,NA
"330","stim/objects/HouseObjects/flyswatter3.png",323,18,316,0.9,"stim/54.jpeg",5,4,3,2,"HouseObjects",2,2,"right","right",0.542999983,1,1,1,0,NA,NA,NA,NA,NA,NA,NA,NA,NA,NA,NA,NA,NA,NA,NA,NA,NA,NA,NA,NA,NA,NA,NA,NA
"528","stim/objects/Instruments/grandpiano3.png",324,18,317,0.9,"stim/62.jpeg",6,2,3,2,"Instruments",1,3,"left","left",0.617000103,1,1,1,0,NA,NA,NA,NA,NA,NA,NA,NA,NA,NA,NA,NA,NA,NA,NA,NA,NA,NA,NA,NA,NA,NA,NA,NA
"397","stim/objects/HouseObjects/pan4.png",325,18,318,0.1,"stim/64.jpeg",6,4,3,1,"HouseObjects",2,2,"right","left",0.595000029,0,0,1,0,190,18,1,0.1,2,"stim/64.jpeg",6,4,"stim/64.jpeg",2,"right",1.090999842,4,4,1.194999933,4,1.199999809,190,0,1,NA,0,NA,1
"439","stim/objects/Instruments/cymbal4.png",326,18,319,0.7,"stim/41.jpeg",4,1,2,1,"Instruments",1,2,"left","",NA,0,0,1,0,109,18,1,0.7,1,"stim/41.jpeg",4,1,"stim/41.jpeg",2,"right",1.073999882,3,2,1.905999899,3,0.944999933,109,0,0,NA,0,NA,1
"277","stim/objects/HouseObjects/clothespin3.png",327,18,320,0.7,"stim/32.jpeg",3,2,2,2,"HouseObjects",2,1,"right","right",0.613000154,1,1,1,0,NA,NA,NA,NA,NA,NA,NA,NA,NA,NA,NA,NA,NA,NA,NA,NA,NA,NA,NA,NA,NA,NA,NA,NA
"545","stim/objects/Instruments/harp3.png",328,18,321,0.5,"stim/11.jpeg",1,1,1,1,"Instruments",1,2,"left","right",0.742000103,0,0,1,0,148,18,1,0.5,1,"stim/11.jpeg",1,1,"stim/11.jpeg",2,"right",0.809999943,1,2,1.325999975,2,1.506000042,148,0,0,NA,1,NA,1
"278","stim/objects/HouseObjects/clothespin4.png",329,18,322,0.3,"stim/44.jpeg",4,4,2,1,"HouseObjects",2,4,"right","left",0.573999882,0,0,1,0,153,18,1,0.3,2,"stim/44.jpeg",4,4,"stim/44.jpeg",4,"right",1.309000015,3,2,1.282999992,3,1.21999979,153,0,0,NA,0,NA,1
"387","stim/objects/HouseObjects/ironingboard4.png",330,18,323,0.1,"stim/63.jpeg",6,3,3,1,"HouseObjects",2,4,"right","left",0.486000061,0,0,1,0,149,18,1,0.1,2,"stim/63.jpeg",6,3,"stim/63.jpeg",4,"right",0.736999989,4,3,1.972000122,4,0.434999943,149,0,1,NA,1,NA,1
"523","stim/objects/Instruments/gong4.png",331,18,324,0.1,"stim/54.jpeg",5,4,3,1,"Instruments",1,2,"left","right",0.687000036,0,0,1,0,38,18,1,0.1,1,"stim/54.jpeg",5,4,"stim/54.jpeg",2,"left",9.593999863,2,3,2.620999813,2,2.661999941,38,1,0,0,1,1,1
"540","stim/objects/Instruments/grandpiano4.png",332,18,325,0.1,"stim/51.jpeg",5,1,3,1,"Instruments",1,4,"left","right",0.809000015,0,0,1,0,31,18,1,0.1,1,"stim/51.jpeg",5,1,"stim/51.jpeg",4,"right",1.330999851,4,2,3.165999889,4,3.390999794,31,0,0,NA,1,NA,1
"264","stim/objects/HouseObjects/broom4.png",333,18,326,0.3,"stim/44.jpeg",4,4,2,1,"HouseObjects",2,2,"right","",NA,0,0,1,0,33,18,1,0.3,2,"stim/44.jpeg",4,4,"stim/44.jpeg",2,"left",1.438999891,2,3,2.47699976,3,4.93599987,33,1,0,0,0,0,1
"417","stim/objects/Instruments/banjo4.png",334,18,327,0.3,"stim/31.jpeg",3,1,2,1,"Instruments",1,3,"left","right",0.585000038,0,0,1,0,131,18,1,0.3,1,"stim/31.jpeg",3,1,"stim/31.jpeg",3,"right",0.970999718,3,4,1.631999969,3,1.252999783,131,0,0,NA,1,NA,1
"405","stim/objects/HouseObjects/wateringcan4.png",335,18,328,0.1,"stim/64.jpeg",6,4,3,1,"HouseObjects",2,2,"right","left",0.697000027,0,0,1,0,9,18,1,0.1,2,"stim/64.jpeg",6,4,"stim/64.jpeg",2,"left",1.031999826,4,1,16.02200007,1,6.653000116,9,1,0,0,0,0,1
"312","stim/objects/HouseObjects/dustpan3.png",336,18,329,0.9,"stim/52.jpeg",5,2,3,2,"HouseObjects",2,1,"right","right",0.603999853,1,1,1,0,NA,NA,NA,NA,NA,NA,NA,NA,NA,NA,NA,NA,NA,NA,NA,NA,NA,NA,NA,NA,NA,NA,NA,NA
"515","stim/objects/Instruments/gong3.png",337,18,330,0.9,"stim/61.jpeg",6,1,3,2,"Instruments",1,4,"left","left",0.628000021,1,1,1,0,NA,NA,NA,NA,NA,NA,NA,NA,NA,NA,NA,NA,NA,NA,NA,NA,NA,NA,NA,NA,NA,NA,NA,NA
"493","stim/objects/Instruments/frenchhorn3.png",338,18,331,0.9,"stim/61.jpeg",6,1,3,2,"Instruments",1,1,"left","left",0.710000038,1,1,1,0,NA,NA,NA,NA,NA,NA,NA,NA,NA,NA,NA,NA,NA,NA,NA,NA,NA,NA,NA,NA,NA,NA,NA,NA
"529","stim/objects/Instruments/grandpiano3.png",339,18,332,0.9,"stim/63.jpeg",6,3,3,2,"Instruments",1,1,"left","left",0.65199995,1,1,1,0,NA,NA,NA,NA,NA,NA,NA,NA,NA,NA,NA,NA,NA,NA,NA,NA,NA,NA,NA,NA,NA,NA,NA,NA
"345","stim/objects/HouseObjects/garbagebin3.png",340,18,333,0.9,"stim/51.jpeg",5,1,3,2,"HouseObjects",2,1,"right","right",0.552000046,1,1,1,0,NA,NA,NA,NA,NA,NA,NA,NA,NA,NA,NA,NA,NA,NA,NA,NA,NA,NA,NA,NA,NA,NA,NA,NA
"530","stim/objects/Instruments/grandpiano3.png",341,18,334,0.9,"stim/62.jpeg",6,2,3,2,"Instruments",1,2,"left","left",0.510999918,1,1,1,0,NA,NA,NA,NA,NA,NA,NA,NA,NA,NA,NA,NA,NA,NA,NA,NA,NA,NA,NA,NA,NA,NA,NA,NA
"272","stim/objects/HouseObjects/clothesdryingrack3.png",342,18,335,0.7,"stim/31.jpeg",3,1,2,2,"HouseObjects",2,1,"right","right",0.594000101,1,1,1,0,NA,NA,NA,NA,NA,NA,NA,NA,NA,NA,NA,NA,NA,NA,NA,NA,NA,NA,NA,NA,NA,NA,NA,NA
"554","stim/objects/Instruments/maraca4.png",343,18,336,0.9,"stim/62.jpeg",6,2,3,1,"Instruments",1,4,"left","left",0.652999878,1,1,1,0,21,18,1,0.9,1,"stim/62.jpeg",6,2,"stim/62.jpeg",4,"left",2.544999838,4,3,10.11899996,4,2.846999884,21,1,0,0,1,1,1
"259","stim/objects/HouseObjects/bottle3.png",344,18,337,0.5,"stim/23.jpeg",2,3,1,2,"HouseObjects",2,3,"right","right",0.532000065,1,1,1,0,NA,NA,NA,NA,NA,NA,NA,NA,NA,NA,NA,NA,NA,NA,NA,NA,NA,NA,NA,NA,NA,NA,NA,NA
"268","stim/objects/HouseObjects/clock3.png",345,18,338,0.5,"stim/22.jpeg",2,2,1,2,"HouseObjects",2,2,"right","left",0.486999989,0,0,1,0,NA,NA,NA,NA,NA,NA,NA,NA,NA,NA,NA,NA,NA,NA,NA,NA,NA,NA,NA,NA,NA,NA,NA,NA
"472","stim/objects/Instruments/flute4.png",346,18,339,0.1,"stim/51.jpeg",5,1,3,1,"Instruments",1,3,"left","right",0.638000011,0,0,1,0,92,18,1,0.1,1,"stim/51.jpeg",5,1,"stim/51.jpeg",3,"right",0.93599987,4,2,1.037999868,2,0.534999847,92,0,0,NA,0,NA,1
"563","stim/objects/Instruments/oboe3.png",347,18,340,0.3,"stim/32.jpeg",3,2,2,1,"Instruments",1,4,"left","right",0.719000101,0,0,1,0,65,18,1,0.3,1,"stim/32.jpeg",3,2,"stim/32.jpeg",4,"right",0.868000031,4,4,2.075000048,3,1.257999897,65,0,0,NA,0,NA,1
"313","stim/objects/HouseObjects/dustpan3.png",348,18,341,0.9,"stim/51.jpeg",5,1,3,2,"HouseObjects",2,2,"right","left",0.654999971,0,0,1,0,NA,NA,NA,NA,NA,NA,NA,NA,NA,NA,NA,NA,NA,NA,NA,NA,NA,NA,NA,NA,NA,NA,NA,NA
"270","stim/objects/HouseObjects/clock4.png",349,18,342,0.3,"stim/42.jpeg",4,2,2,1,"HouseObjects",2,2,"right","left",0.68900013,0,0,1,0,175,18,1,0.3,2,"stim/42.jpeg",4,2,"stim/42.jpeg",2,"right",0.678999901,4,3,1.230999947,2,0.979000092,175,0,0,NA,1,NA,1
"479","stim/objects/Instruments/flutetrans3.png",350,18,343,0.9,"stim/61.jpeg",6,1,3,2,"Instruments",1,2,"left","left",0.553000212,1,1,1,0,NA,NA,NA,NA,NA,NA,NA,NA,NA,NA,NA,NA,NA,NA,NA,NA,NA,NA,NA,NA,NA,NA,NA,NA
"547","stim/objects/Instruments/hihat3.png",351,18,344,0.5,"stim/12.jpeg",1,2,1,1,"Instruments",1,3,"left","right",0.609999895,0,0,1,0,102,18,1,0.5,1,"stim/12.jpeg",1,2,"stim/12.jpeg",3,"right",1.468999863,3,3,1.554999828,3,0.930000067,102,0,0,NA,1,NA,1
"346","stim/objects/HouseObjects/garbagebin3.png",352,18,345,0.9,"stim/51.jpeg",5,1,3,2,"HouseObjects",2,1,"right","right",0.546999931,1,1,1,0,NA,NA,NA,NA,NA,NA,NA,NA,NA,NA,NA,NA,NA,NA,NA,NA,NA,NA,NA,NA,NA,NA,NA,NA
"347","stim/objects/HouseObjects/garbagebin3.png",353,18,346,0.9,"stim/54.jpeg",5,4,3,2,"HouseObjects",2,3,"right","right",0.583000183,1,1,1,0,NA,NA,NA,NA,NA,NA,NA,NA,NA,NA,NA,NA,NA,NA,NA,NA,NA,NA,NA,NA,NA,NA,NA,NA
"499","stim/objects/Instruments/frenchhorn3.png",354,18,347,0.9,"stim/64.jpeg",6,4,3,2,"Instruments",1,1,"left","left",0.479000092,1,1,1,0,NA,NA,NA,NA,NA,NA,NA,NA,NA,NA,NA,NA,NA,NA,NA,NA,NA,NA,NA,NA,NA,NA,NA,NA
"363","stim/objects/HouseObjects/glass3.png",355,18,348,0.9,"stim/54.jpeg",5,4,3,2,"HouseObjects",2,1,"right","right",0.573000193,1,1,1,0,NA,NA,NA,NA,NA,NA,NA,NA,NA,NA,NA,NA,NA,NA,NA,NA,NA,NA,NA,NA,NA,NA,NA,NA
"531","stim/objects/Instruments/grandpiano3.png",356,18,349,0.9,"stim/63.jpeg",6,3,3,2,"Instruments",1,3,"left","left",0.562999964,1,1,1,0,NA,NA,NA,NA,NA,NA,NA,NA,NA,NA,NA,NA,NA,NA,NA,NA,NA,NA,NA,NA,NA,NA,NA,NA
"381","stim/objects/HouseObjects/handbrush4.png",357,18,350,0.9,"stim/52.jpeg",5,2,3,1,"HouseObjects",2,1,"right","right",0.517000198,1,1,1,0,66,18,1,0.9,2,"stim/52.jpeg",5,2,"stim/52.jpeg",1,"right",1.356999874,3,2,1.320999861,3,1.000999928,66,0,1,NA,0,NA,1
"255","stim/objects/HouseObjects/bleachbottle4.png",358,18,351,0.7,"stim/33.jpeg",3,3,2,1,"HouseObjects",2,2,"right","right",0.535000086,1,1,1,0,178,18,1,0.7,2,"stim/33.jpeg",3,3,"stim/33.jpeg",2,"left",5.523000002,2,3,1.750999928,2,0.871999979,178,1,1,1,1,1,1
"364","stim/objects/HouseObjects/glass3.png",359,18,352,0.9,"stim/51.jpeg",5,1,3,2,"HouseObjects",2,4,"right","right",0.48300004,1,1,1,0,NA,NA,NA,NA,NA,NA,NA,NA,NA,NA,NA,NA,NA,NA,NA,NA,NA,NA,NA,NA,NA,NA,NA,NA
"551","stim/objects/Instruments/laud3.png",360,18,353,0.5,"stim/21.jpeg",2,1,1,1,"Instruments",1,1,"left","left",0.606000185,1,1,1,0,177,18,1,0.5,2,"stim/21.jpeg",2,1,"stim/21.jpeg",1,"right",1.142999887,2,4,2.720999956,2,2.983999968,177,0,0,NA,0,NA,1
"300","stim/objects/HouseObjects/doormat3.png",361,18,354,0.9,"stim/54.jpeg",5,4,3,2,"HouseObjects",2,2,"right","left",0.49000001,0,0,1,0,NA,NA,NA,NA,NA,NA,NA,NA,NA,NA,NA,NA,NA,NA,NA,NA,NA,NA,NA,NA,NA,NA,NA,NA
"365","stim/objects/HouseObjects/glass3.png",362,18,355,0.9,"stim/51.jpeg",5,1,3,2,"HouseObjects",2,1,"right","right",0.549000025,1,1,1,0,NA,NA,NA,NA,NA,NA,NA,NA,NA,NA,NA,NA,NA,NA,NA,NA,NA,NA,NA,NA,NA,NA,NA,NA
"422","stim/objects/Instruments/bassguitar3.png",363,18,356,0.5,"stim/24.jpeg",2,4,1,2,"Instruments",1,2,"left","right",0.460999966,0,0,1,0,NA,NA,NA,NA,NA,NA,NA,NA,NA,NA,NA,NA,NA,NA,NA,NA,NA,NA,NA,NA,NA,NA,NA,NA
"267","stim/objects/HouseObjects/bucket4.png",364,18,357,0.3,"stim/41.jpeg",4,1,2,1,"HouseObjects",2,1,"right","left",0.473999977,0,0,1,0,73,18,1,0.3,2,"stim/41.jpeg",4,1,"stim/41.jpeg",1,"left",1.773000002,3,1,3.853999853,4,0.92599988,73,1,1,1,0,0,1
"517","stim/objects/Instruments/gong3.png",365,18,358,0.9,"stim/62.jpeg",6,2,3,2,"Instruments",1,2,"left","left",0.5,1,1,1,0,NA,NA,NA,NA,NA,NA,NA,NA,NA,NA,NA,NA,NA,NA,NA,NA,NA,NA,NA,NA,NA,NA,NA,NA
"416","stim/objects/Instruments/banjo3.png",366,18,359,0.5,"stim/14.jpeg",1,4,1,2,"Instruments",1,4,"left","right",0.539000034,0,0,1,0,NA,NA,NA,NA,NA,NA,NA,NA,NA,NA,NA,NA,NA,NA,NA,NA,NA,NA,NA,NA,NA,NA,NA,NA
"383","stim/objects/HouseObjects/handvacuum4.png",367,18,360,0.9,"stim/53.jpeg",5,3,3,1,"HouseObjects",2,3,"right","right",0.58100009,1,1,1,0,110,18,1,0.9,2,"stim/53.jpeg",5,3,"stim/53.jpeg",3,"right",1.711999893,1,2,3.036000013,2,0.558999777,110,0,0,NA,0,NA,1
"395","stim/objects/HouseObjects/match4.png",368,18,361,0.1,"stim/63.jpeg",6,3,3,1,"HouseObjects",2,2,"right","left",0.555000067,0,0,1,0,146,18,1,0.1,2,"stim/63.jpeg",6,3,"stim/63.jpeg",2,"left",1.339999914,4,4,3.815000057,2,1.819000006,146,1,0,0,1,1,1
"555","stim/objects/Instruments/marimba3.png",369,18,362,0.5,"stim/23.jpeg",2,3,1,1,"Instruments",1,2,"left","right",0.566999912,0,0,1,0,152,18,1,0.5,2,"stim/23.jpeg",2,3,"stim/23.jpeg",2,"right",11.12299991,2,3,2.02699995,4,2.16899991,152,0,1,NA,0,NA,1
"314","stim/objects/HouseObjects/dustpan3.png",370,18,363,0.9,"stim/53.jpeg",5,3,3,2,"HouseObjects",2,4,"right","left",0.585999966,0,0,1,0,NA,NA,NA,NA,NA,NA,NA,NA,NA,NA,NA,NA,NA,NA,NA,NA,NA,NA,NA,NA,NA,NA,NA,NA
"561","stim/objects/Instruments/musicstand3.png",371,18,364,0.3,"stim/31.jpeg",3,1,2,1,"Instruments",1,2,"left","left",0.568000078,1,1,1,0,125,18,1,0.3,1,"stim/31.jpeg",3,1,"stim/31.jpeg",2,"left",1.224999905,4,2,2.396999836,4,1.114000082,125,1,0,0,0,0,1
"349","stim/objects/HouseObjects/garbagebin3.png",372,18,365,0.9,"stim/54.jpeg",5,4,3,2,"HouseObjects",2,3,"right","right",0.51699996,1,1,1,0,NA,NA,NA,NA,NA,NA,NA,NA,NA,NA,NA,NA,NA,NA,NA,NA,NA,NA,NA,NA,NA,NA,NA,NA
"366","stim/objects/HouseObjects/glass3.png",373,18,366,0.9,"stim/53.jpeg",5,3,3,2,"HouseObjects",2,2,"right","right",0.599999905,1,1,1,0,NA,NA,NA,NA,NA,NA,NA,NA,NA,NA,NA,NA,NA,NA,NA,NA,NA,NA,NA,NA,NA,NA,NA,NA
"398","stim/objects/HouseObjects/pitcher3.png",374,18,367,0.7,"stim/33.jpeg",3,3,2,1,"HouseObjects",2,2,"right","right",0.389999866,1,1,1,0,101,18,1,0.7,2,"stim/33.jpeg",3,3,"stim/33.jpeg",2,"left",1.312999964,4,2,2.645999908,2,0.650000095,101,1,0,0,1,1,1
"379","stim/objects/HouseObjects/hairdryer4.png",375,18,368,0.9,"stim/51.jpeg",5,1,3,1,"HouseObjects",2,4,"right","right",0.480000019,1,1,1,0,196,18,1,0.9,2,"stim/51.jpeg",5,1,"stim/51.jpeg",4,"right",11.98600006,3,2,1.552999973,2,1.090999842,196,0,0,NA,0,NA,1
"253","stim/objects/HouseObjects/bleachbottle3.png",376,18,369,0.5,"stim/14.jpeg",1,4,1,2,"HouseObjects",2,3,"right","left",0.388000011,0,0,1,0,NA,NA,NA,NA,NA,NA,NA,NA,NA,NA,NA,NA,NA,NA,NA,NA,NA,NA,NA,NA,NA,NA,NA,NA
"524","stim/objects/Instruments/grandpiano3.png",377,18,370,0.9,"stim/64.jpeg",6,4,3,2,"Instruments",1,1,"left","left",0.427999973,1,1,1,0,NA,NA,NA,NA,NA,NA,NA,NA,NA,NA,NA,NA,NA,NA,NA,NA,NA,NA,NA,NA,NA,NA,NA,NA
"491","stim/objects/Instruments/frenchhorn3.png",378,18,371,0.9,"stim/62.jpeg",6,2,3,2,"Instruments",1,2,"left","right",0.486000061,0,0,1,0,NA,NA,NA,NA,NA,NA,NA,NA,NA,NA,NA,NA,NA,NA,NA,NA,NA,NA,NA,NA,NA,NA,NA,NA
"562","stim/objects/Instruments/musicstand4.png",379,18,372,0.9,"stim/62.jpeg",6,2,3,1,"Instruments",1,2,"left","left",0.528000116,1,1,1,0,83,18,1,0.9,1,"stim/62.jpeg",6,2,"stim/62.jpeg",2,"left",1.263999939,4,2,7.523999929,2,1.655999899,83,1,1,1,1,1,1
"334","stim/objects/HouseObjects/flyswatter3.png",380,18,373,0.9,"stim/53.jpeg",5,3,3,2,"HouseObjects",2,1,"right","right",0.499000072,1,1,1,0,NA,NA,NA,NA,NA,NA,NA,NA,NA,NA,NA,NA,NA,NA,NA,NA,NA,NA,NA,NA,NA,NA,NA,NA
"525","stim/objects/Instruments/grandpiano3.png",381,18,374,0.9,"stim/64.jpeg",6,4,3,2,"Instruments",1,4,"left","left",0.542000055,1,1,1,0,NA,NA,NA,NA,NA,NA,NA,NA,NA,NA,NA,NA,NA,NA,NA,NA,NA,NA,NA,NA,NA,NA,NA,NA
"368","stim/objects/HouseObjects/glass3.png",382,18,375,0.9,"stim/51.jpeg",5,1,3,2,"HouseObjects",2,3,"right","right",0.547999859,1,1,1,0,NA,NA,NA,NA,NA,NA,NA,NA,NA,NA,NA,NA,NA,NA,NA,NA,NA,NA,NA,NA,NA,NA,NA,NA
"558","stim/objects/Instruments/metronome4.png",383,18,376,0.9,"stim/64.jpeg",6,4,3,1,"Instruments",1,2,"left","left",0.555000067,1,1,1,0,180,18,1,0.9,1,"stim/64.jpeg",6,4,"stim/64.jpeg",2,"right",4.628000021,3,1,1.5849998,4,1.421999931,180,0,0,NA,0,NA,1
"443","stim/objects/Instruments/doublebass4.png",384,18,377,0.7,"stim/42.jpeg",4,2,2,1,"Instruments",1,4,"left","right",0.595000029,0,0,1,0,40,18,1,0.7,1,"stim/42.jpeg",4,2,"stim/42.jpeg",4,"left",2.284999847,1,2,1.269000053,4,2.427999973,40,1,1,1,1,1,1
"434","stim/objects/Instruments/cornet3.png",385,18,378,0.5,"stim/24.jpeg",2,4,1,2,"Instruments",1,3,"left","right",0.659999847,0,0,1,0,NA,NA,NA,NA,NA,NA,NA,NA,NA,NA,NA,NA,NA,NA,NA,NA,NA,NA,NA,NA,NA,NA,NA,NA
"316","stim/objects/HouseObjects/dustpan3.png",386,18,379,0.9,"stim/54.jpeg",5,4,3,2,"HouseObjects",2,1,"right","right",0.586999893,1,1,1,0,NA,NA,NA,NA,NA,NA,NA,NA,NA,NA,NA,NA,NA,NA,NA,NA,NA,NA,NA,NA,NA,NA,NA,NA
"382","stim/objects/HouseObjects/handvacuum3.png",387,18,380,0.5,"stim/11.jpeg",1,1,1,1,"HouseObjects",2,4,"right","left",0.546000004,0,0,1,0,32,18,1,0.5,1,"stim/11.jpeg",1,1,"stim/11.jpeg",4,"left",0.939999819,4,4,4.852999926,2,1.667999983,32,1,0,0,0,0,1
"412","stim/objects/Instruments/balalaika3.png",388,18,381,0.5,"stim/13.jpeg",1,3,1,2,"Instruments",1,1,"left","right",0.566000223,0,0,1,0,NA,NA,NA,NA,NA,NA,NA,NA,NA,NA,NA,NA,NA,NA,NA,NA,NA,NA,NA,NA,NA,NA,NA,NA
"461","stim/objects/Instruments/flute3.png",389,18,382,0.9,"stim/62.jpeg",6,2,3,2,"Instruments",1,3,"left","left",0.686000109,1,1,1,0,NA,NA,NA,NA,NA,NA,NA,NA,NA,NA,NA,NA,NA,NA,NA,NA,NA,NA,NA,NA,NA,NA,NA,NA
"342","stim/objects/HouseObjects/garbagebin3.png",390,18,383,0.9,"stim/51.jpeg",5,1,3,2,"HouseObjects",2,4,"right","left",0.575999975,0,0,1,0,NA,NA,NA,NA,NA,NA,NA,NA,NA,NA,NA,NA,NA,NA,NA,NA,NA,NA,NA,NA,NA,NA,NA,NA
"294","stim/objects/HouseObjects/doormat3.png",391,18,384,0.9,"stim/52.jpeg",5,2,3,2,"HouseObjects",2,1,"right","right",0.654000044,1,1,1,0,NA,NA,NA,NA,NA,NA,NA,NA,NA,NA,NA,NA,NA,NA,NA,NA,NA,NA,NA,NA,NA,NA,NA,NA
"500","stim/objects/Instruments/frenchhorn3.png",392,18,385,0.9,"stim/64.jpeg",6,4,3,2,"Instruments",1,3,"left","left",0.480000019,1,1,1,0,NA,NA,NA,NA,NA,NA,NA,NA,NA,NA,NA,NA,NA,NA,NA,NA,NA,NA,NA,NA,NA,NA,NA,NA
"526","stim/objects/Instruments/grandpiano3.png",393,18,386,0.9,"stim/61.jpeg",6,1,3,2,"Instruments",1,4,"left","left",0.486000061,1,1,1,0,NA,NA,NA,NA,NA,NA,NA,NA,NA,NA,NA,NA,NA,NA,NA,NA,NA,NA,NA,NA,NA,NA,NA,NA
"462","stim/objects/Instruments/flute3.png",394,18,387,0.9,"stim/64.jpeg",6,4,3,2,"Instruments",1,3,"left","left",0.43900013,1,1,1,0,NA,NA,NA,NA,NA,NA,NA,NA,NA,NA,NA,NA,NA,NA,NA,NA,NA,NA,NA,NA,NA,NA,NA,NA
"549","stim/objects/Instruments/keyboard3.png",395,18,388,0.5,"stim/13.jpeg",1,3,1,1,"Instruments",1,2,"left","right",0.463999987,0,0,1,0,105,18,1,0.5,1,"stim/13.jpeg",1,3,"stim/13.jpeg",2,"left",1.545000076,4,3,5.971999884,2,0.555000067,105,1,1,1,1,1,1
"295","stim/objects/HouseObjects/doormat3.png",396,18,389,0.9,"stim/53.jpeg",5,3,3,2,"HouseObjects",2,2,"right","left",0.494999886,0,0,1,0,NA,NA,NA,NA,NA,NA,NA,NA,NA,NA,NA,NA,NA,NA,NA,NA,NA,NA,NA,NA,NA,NA,NA,NA
"556","stim/objects/Instruments/marimba4.png",397,18,390,0.9,"stim/63.jpeg",6,3,3,1,"Instruments",1,3,"left","left",0.536000013,1,1,1,0,22,18,1,0.9,1,"stim/63.jpeg",6,3,"stim/63.jpeg",3,"left",4.617000103,4,1,4.096999884,4,3.365999937,22,1,0,0,0,0,1
"263","stim/objects/HouseObjects/broom3.png",398,18,391,0.5,"stim/24.jpeg",2,4,1,2,"HouseObjects",2,4,"right","right",0.532999992,1,1,1,0,NA,NA,NA,NA,NA,NA,NA,NA,NA,NA,NA,NA,NA,NA,NA,NA,NA,NA,NA,NA,NA,NA,NA,NA
"485","stim/objects/Instruments/flutetrans3.png",399,18,392,0.9,"stim/63.jpeg",6,3,3,2,"Instruments",1,1,"left","left",0.509000063,1,1,1,0,NA,NA,NA,NA,NA,NA,NA,NA,NA,NA,NA,NA,NA,NA,NA,NA,NA,NA,NA,NA,NA,NA,NA,NA
"527","stim/objects/Instruments/grandpiano3.png",400,18,393,0.9,"stim/64.jpeg",6,4,3,2,"Instruments",1,3,"left","left",0.385999918,1,1,1,0,NA,NA,NA,NA,NA,NA,NA,NA,NA,NA,NA,NA,NA,NA,NA,NA,NA,NA,NA,NA,NA,NA,NA,NA
"335","stim/objects/HouseObjects/flyswatter3.png",401,18,394,0.9,"stim/51.jpeg",5,1,3,2,"HouseObjects",2,4,"right","right",0.480000019,1,1,1,0,NA,NA,NA,NA,NA,NA,NA,NA,NA,NA,NA,NA,NA,NA,NA,NA,NA,NA,NA,NA,NA,NA,NA,NA
"424","stim/objects/Instruments/cello3.png",402,18,395,0.5,"stim/21.jpeg",2,1,1,2,"Instruments",1,4,"left","left",0.640000105,1,1,1,0,NA,NA,NA,NA,NA,NA,NA,NA,NA,NA,NA,NA,NA,NA,NA,NA,NA,NA,NA,NA,NA,NA,NA,NA
"564","stim/objects/Instruments/oboe4.png",403,18,396,0.9,"stim/63.jpeg",6,3,3,1,"Instruments",1,1,"left","right",0.537000179,0,0,1,0,16,18,1,0.9,1,"stim/63.jpeg",6,3,"stim/63.jpeg",1,"right",1.980999947,4,2,3.15899992,1,3.744999886,16,0,0,NA,1,NA,1
"501","stim/objects/Instruments/frenchhorn3.png",404,18,397,0.9,"stim/63.jpeg",6,3,3,2,"Instruments",1,2,"left","",NA,0,0,1,0,NA,NA,NA,NA,NA,NA,NA,NA,NA,NA,NA,NA,NA,NA,NA,NA,NA,NA,NA,NA,NA,NA,NA,NA
"403","stim/objects/HouseObjects/vacuumcleaner4.png",405,18,398,0.1,"stim/63.jpeg",6,3,3,1,"HouseObjects",2,4,"right","left",0.503000021,0,0,1,0,194,18,1,0.1,2,"stim/63.jpeg",6,3,"stim/63.jpeg",4,"left",7.617000103,2,2,1.812000036,2,2.247999907,194,1,0,0,0,0,1
"247","stim/objects/HouseObjects/barbecuelighter3.png",406,18,399,0.5,"stim/13.jpeg",1,3,1,2,"HouseObjects",2,3,"right","left",0.461999893,0,0,1,0,NA,NA,NA,NA,NA,NA,NA,NA,NA,NA,NA,NA,NA,NA,NA,NA,NA,NA,NA,NA,NA,NA,NA,NA
"570","stim/objects/Instruments/xylophone4.png",407,18,400,0.9,"stim/62.jpeg",6,2,3,1,"Instruments",1,4,"left","left",0.537000179,1,1,1,0,5,18,1,0.9,1,"stim/62.jpeg",6,2,"stim/62.jpeg",4,"right",7.864000082,2,4,9.680999994,4,5.205999851,5,0,0,NA,1,NA,1
"514","stim/objects/Instruments/gong3.png",408,18,401,0.9,"stim/62.jpeg",6,2,3,2,"Instruments",1,4,"left","left",0.48300004,1,1,1,0,NA,NA,NA,NA,NA,NA,NA,NA,NA,NA,NA,NA,NA,NA,NA,NA,NA,NA,NA,NA,NA,NA,NA,NA
"400","stim/objects/HouseObjects/towel3.png",409,18,402,0.7,"stim/34.jpeg",3,4,2,1,"HouseObjects",2,2,"right","right",0.72300005,1,1,1,0,107,18,1,0.7,2,"stim/34.jpeg",3,4,"stim/34.jpeg",2,"right",3.911999941,2,2,1.566999912,2,1.231999874,107,0,0,NA,1,NA,1
"452","stim/objects/Instruments/electricguitar3.png",410,18,403,0.7,"stim/43.jpeg",4,3,2,2,"Instruments",1,4,"left","left",0.599999905,1,1,1,0,NA,NA,NA,NA,NA,NA,NA,NA,NA,NA,NA,NA,NA,NA,NA,NA,NA,NA,NA,NA,NA,NA,NA,NA
"336","stim/objects/HouseObjects/flyswatter3.png",411,18,404,0.9,"stim/51.jpeg",5,1,3,2,"HouseObjects",2,3,"right","left",0.438999891,0,0,1,0,NA,NA,NA,NA,NA,NA,NA,NA,NA,NA,NA,NA,NA,NA,NA,NA,NA,NA,NA,NA,NA,NA,NA,NA
"415","stim/objects/Instruments/banjo3.png",412,18,405,0.5,"stim/11.jpeg",1,1,1,2,"Instruments",1,2,"left","left",0.562000036,1,1,1,0,NA,NA,NA,NA,NA,NA,NA,NA,NA,NA,NA,NA,NA,NA,NA,NA,NA,NA,NA,NA,NA,NA,NA,NA
"283","stim/objects/HouseObjects/cushion3.png",413,18,406,0.7,"stim/33.jpeg",3,3,2,2,"HouseObjects",2,1,"right","right",0.629999876,1,1,1,0,NA,NA,NA,NA,NA,NA,NA,NA,NA,NA,NA,NA,NA,NA,NA,NA,NA,NA,NA,NA,NA,NA,NA,NA
"565","stim/objects/Instruments/violin3.png",414,18,407,0.3,"stim/33.jpeg",3,3,2,1,"Instruments",1,1,"left","",NA,0,0,1,0,174,18,1,0.3,1,"stim/33.jpeg",3,3,"stim/33.jpeg",1,"right",1.217999935,4,2,1.419999838,3,1.036999941,174,0,0,NA,0,NA,1
"290","stim/objects/HouseObjects/dishsoap4.png",415,18,408,0.3,"stim/43.jpeg",4,3,2,1,"HouseObjects",2,1,"right","",NA,0,0,1,0,20,18,1,0.3,2,"stim/43.jpeg",4,3,"stim/43.jpeg",1,"left",1.167000055,4,1,6.971999884,2,5.346999884,20,1,0,0,0,0,1
"389","stim/objects/HouseObjects/key4.png",416,18,409,0.1,"stim/64.jpeg",6,4,3,1,"HouseObjects",2,4,"right","right",0.588000059,1,1,1,0,134,18,1,0.1,2,"stim/64.jpeg",6,4,"stim/64.jpeg",4,"right",1.27699995,2,3,1.261999846,3,1.197999954,134,0,0,NA,0,NA,1
"378","stim/objects/HouseObjects/hairdryer3.png",417,18,410,0.5,"stim/13.jpeg",1,3,1,1,"HouseObjects",2,1,"right","left",0.450999975,0,0,1,0,13,18,1,0.5,1,"stim/13.jpeg",1,3,"stim/13.jpeg",1,"left",1.542000055,4,3,9.846999884,2,1.752999783,13,1,1,1,0,0,1
"281","stim/objects/HouseObjects/coffee3.png",418,18,411,0.7,"stim/32.jpeg",3,2,2,2,"HouseObjects",2,2,"right","left",0.414999962,0,0,1,0,NA,NA,NA,NA,NA,NA,NA,NA,NA,NA,NA,NA,NA,NA,NA,NA,NA,NA,NA,NA,NA,NA,NA,NA
"386","stim/objects/HouseObjects/ironingboard3.png",419,18,412,0.5,"stim/24.jpeg",2,4,1,1,"HouseObjects",2,1,"right","right",0.53399992,1,1,1,0,138,18,1,0.5,2,"stim/24.jpeg",2,4,"stim/24.jpeg",1,"left",1.083999872,4,3,2.761999846,1,1.243000031,138,1,0,0,1,1,1
"324","stim/objects/HouseObjects/dustpan4.png",420,18,413,0.9,"stim/54.jpeg",5,4,3,1,"HouseObjects",2,2,"right","right",0.455000162,1,1,1,0,184,18,1,0.9,2,"stim/54.jpeg",5,4,"stim/54.jpeg",2,"right",0.990999937,4,3,1.386999846,4,1.217000008,184,0,0,NA,0,NA,1
"289","stim/objects/HouseObjects/dishsoap3.png",421,18,414,0.7,"stim/33.jpeg",3,3,2,2,"HouseObjects",2,4,"right","right",0.50999999,1,1,1,0,NA,NA,NA,NA,NA,NA,NA,NA,NA,NA,NA,NA,NA,NA,NA,NA,NA,NA,NA,NA,NA,NA,NA,NA
"510","stim/objects/Instruments/gong3.png",422,18,415,0.9,"stim/64.jpeg",6,4,3,2,"Instruments",1,1,"left","left",0.427000046,1,1,1,0,NA,NA,NA,NA,NA,NA,NA,NA,NA,NA,NA,NA,NA,NA,NA,NA,NA,NA,NA,NA,NA,NA,NA,NA
"353","stim/objects/HouseObjects/garbagebin3.png",423,18,416,0.9,"stim/52.jpeg",5,2,3,2,"HouseObjects",2,1,"right","left",0.434000015,0,0,1,0,NA,NA,NA,NA,NA,NA,NA,NA,NA,NA,NA,NA,NA,NA,NA,NA,NA,NA,NA,NA,NA,NA,NA,NA
"451","stim/objects/Instruments/electricdrumset4.png",424,18,417,0.7,"stim/44.jpeg",4,4,2,1,"Instruments",1,3,"left","left",0.620000124,1,1,1,0,10,18,1,0.7,1,"stim/44.jpeg",4,4,"stim/44.jpeg",3,"right",5.782999992,4,3,2.161000013,1,4.368000031,10,0,0,NA,0,NA,1
"244","stim/objects/HouseObjects/ballofstring3.png",425,18,418,0.5,"stim/12.jpeg",1,2,1,2,"HouseObjects",2,4,"right","right",0.463000059,1,1,1,0,NA,NA,NA,NA,NA,NA,NA,NA,NA,NA,NA,NA,NA,NA,NA,NA,NA,NA,NA,NA,NA,NA,NA,NA
"354","stim/objects/HouseObjects/garbagebin3.png",426,18,419,0.9,"stim/52.jpeg",5,2,3,2,"HouseObjects",2,4,"right","right",0.398999929,1,1,1,0,NA,NA,NA,NA,NA,NA,NA,NA,NA,NA,NA,NA,NA,NA,NA,NA,NA,NA,NA,NA,NA,NA,NA,NA
"426","stim/objects/Instruments/cello4.png",427,18,420,0.7,"stim/41.jpeg",4,1,2,1,"Instruments",1,1,"left","left",0.572999954,1,1,1,0,143,18,1,0.7,1,"stim/41.jpeg",4,1,"stim/41.jpeg",1,"left",3.227999926,3,1,1.833999872,3,1.368999958,143,1,1,1,0,0,1
"384","stim/objects/HouseObjects/iron3.png",428,18,421,0.5,"stim/12.jpeg",1,2,1,1,"HouseObjects",2,2,"right","left",0.504999876,0,0,1,0,159,18,1,0.5,1,"stim/12.jpeg",1,2,"stim/12.jpeg",2,"right",0.845000029,4,4,1.440000057,4,0.595999956,159,0,0,NA,0,NA,1
"511","stim/objects/Instruments/gong3.png",429,18,422,0.9,"stim/63.jpeg",6,3,3,2,"Instruments",1,4,"left","left",0.568000078,1,1,1,0,NA,NA,NA,NA,NA,NA,NA,NA,NA,NA,NA,NA,NA,NA,NA,NA,NA,NA,NA,NA,NA,NA,NA,NA
"446","stim/objects/Instruments/drums3.png",430,18,423,0.7,"stim/44.jpeg",4,4,2,2,"Instruments",1,4,"left","left",0.555999994,1,1,1,0,NA,NA,NA,NA,NA,NA,NA,NA,NA,NA,NA,NA,NA,NA,NA,NA,NA,NA,NA,NA,NA,NA,NA,NA
"328","stim/objects/HouseObjects/flyswatter3.png",431,18,424,0.9,"stim/54.jpeg",5,4,3,2,"HouseObjects",2,3,"right","left",0.487999916,0,0,1,0,NA,NA,NA,NA,NA,NA,NA,NA,NA,NA,NA,NA,NA,NA,NA,NA,NA,NA,NA,NA,NA,NA,NA,NA
"388","stim/objects/HouseObjects/key3.png",432,18,425,0.5,"stim/21.jpeg",2,1,1,1,"HouseObjects",2,4,"right","right",0.766000032,1,1,1,0,165,18,1,0.5,2,"stim/21.jpeg",2,1,"stim/21.jpeg",4,"left",0.922999859,4,2,2.329999924,4,1.902999878,165,1,0,0,1,1,1
"396","stim/objects/HouseObjects/pan3.png",433,18,426,0.7,"stim/32.jpeg",3,2,2,1,"HouseObjects",2,2,"right","left",0.480000019,0,0,1,0,195,18,1,0.7,2,"stim/32.jpeg",3,2,"stim/32.jpeg",2,"right",1.075999975,3,2,1.009999752,3,0.995000124,195,0,1,NA,0,NA,1
"536","stim/objects/Instruments/grandpiano3.png",434,18,427,0.9,"stim/62.jpeg",6,2,3,2,"Instruments",1,2,"left","left",0.546000004,1,1,1,0,NA,NA,NA,NA,NA,NA,NA,NA,NA,NA,NA,NA,NA,NA,NA,NA,NA,NA,NA,NA,NA,NA,NA,NA
"276","stim/objects/HouseObjects/clothespin3.png",435,18,428,0.7,"stim/31.jpeg",3,1,2,2,"HouseObjects",2,1,"right","right",0.571000099,1,1,1,0,NA,NA,NA,NA,NA,NA,NA,NA,NA,NA,NA,NA,NA,NA,NA,NA,NA,NA,NA,NA,NA,NA,NA,NA
"553","stim/objects/Instruments/maraca3.png",436,18,429,0.5,"stim/22.jpeg",2,2,1,1,"Instruments",1,3,"left","right",0.582000017,0,0,1,0,69,18,1,0.5,2,"stim/22.jpeg",2,2,"stim/22.jpeg",3,"left",1.095999956,4,3,2.598999977,1,5.187999964,69,1,0,0,0,0,1
"418","stim/objects/Instruments/bassdrum3.png",437,18,430,0.5,"stim/12.jpeg",1,2,1,2,"Instruments",1,4,"left","left",0.536000013,1,1,1,0,NA,NA,NA,NA,NA,NA,NA,NA,NA,NA,NA,NA,NA,NA,NA,NA,NA,NA,NA,NA,NA,NA,NA,NA
"242","stim/objects/HouseObjects/ashtray3.png",438,18,431,0.5,"stim/14.jpeg",1,4,1,2,"HouseObjects",2,1,"right","right",0.49000001,1,1,1,0,NA,NA,NA,NA,NA,NA,NA,NA,NA,NA,NA,NA,NA,NA,NA,NA,NA,NA,NA,NA,NA,NA,NA,NA
"303","stim/objects/HouseObjects/doormat3.png",439,18,432,0.9,"stim/51.jpeg",5,1,3,2,"HouseObjects",2,3,"right","right",0.588999987,1,1,1,0,NA,NA,NA,NA,NA,NA,NA,NA,NA,NA,NA,NA,NA,NA,NA,NA,NA,NA,NA,NA,NA,NA,NA,NA
"273","stim/objects/HouseObjects/clothesdryingrack3.png",440,18,433,0.7,"stim/34.jpeg",3,4,2,2,"HouseObjects",2,3,"right","left",0.517999887,0,0,1,0,NA,NA,NA,NA,NA,NA,NA,NA,NA,NA,NA,NA,NA,NA,NA,NA,NA,NA,NA,NA,NA,NA,NA,NA
"435","stim/objects/Instruments/cornet4.png",441,18,434,0.7,"stim/44.jpeg",4,4,2,1,"Instruments",1,4,"left","right",0.506000042,0,0,1,0,120,18,1,0.7,1,"stim/44.jpeg",4,4,"stim/44.jpeg",4,"left",1.894000053,3,3,3.062999964,3,1.195999861,120,1,0,0,0,0,1
"339","stim/objects/HouseObjects/flyswatter3.png",442,18,435,0.9,"stim/52.jpeg",5,2,3,2,"HouseObjects",2,1,"right","right",0.552000046,1,1,1,0,NA,NA,NA,NA,NA,NA,NA,NA,NA,NA,NA,NA,NA,NA,NA,NA,NA,NA,NA,NA,NA,NA,NA,NA
"521","stim/objects/Instruments/gong3.png",443,18,436,0.9,"stim/64.jpeg",6,4,3,2,"Instruments",1,1,"left","left",0.56099987,1,1,1,0,NA,NA,NA,NA,NA,NA,NA,NA,NA,NA,NA,NA,NA,NA,NA,NA,NA,NA,NA,NA,NA,NA,NA,NA
"372","stim/objects/HouseObjects/glass3.png",444,18,437,0.9,"stim/52.jpeg",5,2,3,2,"HouseObjects",2,1,"right","right",0.302999973,1,1,1,0,NA,NA,NA,NA,NA,NA,NA,NA,NA,NA,NA,NA,NA,NA,NA,NA,NA,NA,NA,NA,NA,NA,NA,NA
"453","stim/objects/Instruments/electricguitar3.png",445,18,438,0.7,"stim/42.jpeg",4,2,2,2,"Instruments",1,1,"left","left",0.700000048,1,1,1,0,NA,NA,NA,NA,NA,NA,NA,NA,NA,NA,NA,NA,NA,NA,NA,NA,NA,NA,NA,NA,NA,NA,NA,NA
"406","stim/objects/Instruments/accordion3.png",446,18,439,0.5,"stim/11.jpeg",1,1,1,2,"Instruments",1,4,"left","right",0.40199995,0,0,1,0,NA,NA,NA,NA,NA,NA,NA,NA,NA,NA,NA,NA,NA,NA,NA,NA,NA,NA,NA,NA,NA,NA,NA,NA
"513","stim/objects/Instruments/gong3.png",447,18,440,0.9,"stim/63.jpeg",6,3,3,2,"Instruments",1,4,"left","left",0.614000082,1,1,1,0,NA,NA,NA,NA,NA,NA,NA,NA,NA,NA,NA,NA,NA,NA,NA,NA,NA,NA,NA,NA,NA,NA,NA,NA
"332","stim/objects/HouseObjects/flyswatter3.png",448,18,441,0.9,"stim/53.jpeg",5,3,3,2,"HouseObjects",2,2,"right","right",0.644000053,1,1,1,0,NA,NA,NA,NA,NA,NA,NA,NA,NA,NA,NA,NA,NA,NA,NA,NA,NA,NA,NA,NA,NA,NA,NA,NA
"569","stim/objects/Instruments/xylophone3.png",449,18,442,0.3,"stim/31.jpeg",3,1,2,1,"Instruments",1,3,"left","left",0.580000162,1,1,1,0,171,18,1,0.3,1,"stim/31.jpeg",3,1,"stim/31.jpeg",3,"right",0.761999846,4,2,1.02699995,3,1.121000051,171,0,0,NA,1,NA,1
"567","stim/objects/Instruments/vuvuzela3.png",450,18,443,0.3,"stim/34.jpeg",3,4,2,1,"Instruments",1,4,"left","left",0.618999958,1,1,1,0,176,18,1,0.3,1,"stim/34.jpeg",3,4,"stim/34.jpeg",4,"left",1.830999851,4,2,2.641000032,4,0.915999889,176,1,0,0,1,1,1
"414","stim/objects/Instruments/balalaika4.png",451,18,444,0.3,"stim/34.jpeg",3,4,2,1,"Instruments",1,2,"left","left",0.542999983,1,1,1,0,77,18,1,0.3,1,"stim/34.jpeg",3,4,"stim/34.jpeg",2,"right",2.812000036,2,3,1.506000042,4,0.970999956,77,0,0,NA,0,NA,1
"280","stim/objects/HouseObjects/coffee3.png",452,18,445,0.7,"stim/31.jpeg",3,1,2,2,"HouseObjects",2,4,"right","right",0.610000134,1,1,1,0,NA,NA,NA,NA,NA,NA,NA,NA,NA,NA,NA,NA,NA,NA,NA,NA,NA,NA,NA,NA,NA,NA,NA,NA
"478","stim/objects/Instruments/flutetrans3.png",453,18,446,0.9,"stim/62.jpeg",6,2,3,2,"Instruments",1,2,"left","left",0.588000059,1,1,1,0,NA,NA,NA,NA,NA,NA,NA,NA,NA,NA,NA,NA,NA,NA,NA,NA,NA,NA,NA,NA,NA,NA,NA,NA
"497","stim/objects/Instruments/frenchhorn3.png",454,18,447,0.9,"stim/61.jpeg",6,1,3,2,"Instruments",1,3,"left","left",0.568000078,1,1,1,0,NA,NA,NA,NA,NA,NA,NA,NA,NA,NA,NA,NA,NA,NA,NA,NA,NA,NA,NA,NA,NA,NA,NA,NA
"311","stim/objects/HouseObjects/dustpan3.png",455,18,448,0.9,"stim/51.jpeg",5,1,3,2,"HouseObjects",2,4,"right","right",0.539999962,1,1,1,0,NA,NA,NA,NA,NA,NA,NA,NA,NA,NA,NA,NA,NA,NA,NA,NA,NA,NA,NA,NA,NA,NA,NA,NA
"284","stim/objects/HouseObjects/cushion3.png",456,18,449,0.7,"stim/34.jpeg",3,4,2,2,"HouseObjects",2,1,"right","left",0.562999964,0,0,1,0,NA,NA,NA,NA,NA,NA,NA,NA,NA,NA,NA,NA,NA,NA,NA,NA,NA,NA,NA,NA,NA,NA,NA,NA
"302","stim/objects/HouseObjects/doormat3.png",457,18,450,0.9,"stim/54.jpeg",5,4,3,2,"HouseObjects",2,2,"right","right",0.617999792,1,1,1,0,NA,NA,NA,NA,NA,NA,NA,NA,NA,NA,NA,NA,NA,NA,NA,NA,NA,NA,NA,NA,NA,NA,NA,NA
"352","stim/objects/HouseObjects/garbagebin3.png",458,18,451,0.9,"stim/53.jpeg",5,3,3,2,"HouseObjects",2,4,"right","right",0.5,1,1,1,0,NA,NA,NA,NA,NA,NA,NA,NA,NA,NA,NA,NA,NA,NA,NA,NA,NA,NA,NA,NA,NA,NA,NA,NA
"385","stim/objects/HouseObjects/iron4.png",459,18,452,0.9,"stim/54.jpeg",5,4,3,1,"HouseObjects",2,2,"right","right",0.549000025,1,1,1,0,84,18,1,0.9,2,"stim/54.jpeg",5,4,"stim/54.jpeg",2,"left",1.730000019,4,4,12.10099983,2,1.105000019,84,1,1,1,1,1,1
"428","stim/objects/Instruments/chime3.png",460,18,453,0.5,"stim/21.jpeg",2,1,1,2,"Instruments",1,2,"left","right",0.611999989,0,0,1,0,NA,NA,NA,NA,NA,NA,NA,NA,NA,NA,NA,NA,NA,NA,NA,NA,NA,NA,NA,NA,NA,NA,NA,NA
"502","stim/objects/Instruments/frenchhorn3.png",461,18,454,0.9,"stim/64.jpeg",6,4,3,2,"Instruments",1,3,"left","left",0.572000027,1,1,1,0,NA,NA,NA,NA,NA,NA,NA,NA,NA,NA,NA,NA,NA,NA,NA,NA,NA,NA,NA,NA,NA,NA,NA,NA
"322","stim/objects/HouseObjects/dustpan3.png",462,18,455,0.9,"stim/53.jpeg",5,3,3,2,"HouseObjects",2,4,"right","right",0.559000015,1,1,1,0,NA,NA,NA,NA,NA,NA,NA,NA,NA,NA,NA,NA,NA,NA,NA,NA,NA,NA,NA,NA,NA,NA,NA,NA
"487","stim/objects/Instruments/flutetrans3.png",463,18,456,0.9,"stim/62.jpeg",6,2,3,2,"Instruments",1,3,"left","left",0.501000166,1,1,1,0,NA,NA,NA,NA,NA,NA,NA,NA,NA,NA,NA,NA,NA,NA,NA,NA,NA,NA,NA,NA,NA,NA,NA,NA
"299","stim/objects/HouseObjects/doormat3.png",464,18,457,0.9,"stim/51.jpeg",5,1,3,2,"HouseObjects",2,1,"right","right",0.510999918,1,1,1,0,NA,NA,NA,NA,NA,NA,NA,NA,NA,NA,NA,NA,NA,NA,NA,NA,NA,NA,NA,NA,NA,NA,NA,NA
"408","stim/objects/Instruments/accordion4.png",465,18,458,0.3,"stim/32.jpeg",3,2,2,1,"Instruments",1,4,"left","right",0.447999954,0,0,1,0,192,18,1,0.3,1,"stim/32.jpeg",3,2,"stim/32.jpeg",4,"left",1.581999779,3,2,3.092999935,4,0.91899991,192,1,1,1,1,1,1
"251","stim/objects/HouseObjects/basket3.png",466,18,459,0.5,"stim/13.jpeg",1,3,1,2,"HouseObjects",2,3,"right","left",0.799000025,0,0,1,0,NA,NA,NA,NA,NA,NA,NA,NA,NA,NA,NA,NA,NA,NA,NA,NA,NA,NA,NA,NA,NA,NA,NA,NA
