"","participant","trialN","trial_cond","scn_file","scn_cat","scn_inst","scn_condition","fillers","obj_cat","obj_cat_num","obj_file","quadrant","corr_ans","key_resp_trial.keys","key_resp_trial.rt","trial_acc","trial_acc_manual","group"
"248",18,241,0.5,"stim/21.jpeg",2,1,1,1,"Instruments",1,"stim/objects/Instruments/musicsheet3.png",1,"left","right",0.707999945,0,0,1
"249",18,242,0.9,"stim/63.jpeg",6,3,3,2,"Instruments",1,"stim/objects/Instruments/flute3.png",1,"left","left",0.700000048,1,1,1
"250",18,243,0.5,"stim/22.jpeg",2,2,1,2,"Instruments",1,"stim/objects/Instruments/chime3.png",1,"left","right",0.797999859,0,0,1
"251",18,244,0.5,"stim/22.jpeg",2,2,1,2,"Instruments",1,"stim/objects/Instruments/clarinet3.png",1,"left","left",0.705999851,1,1,1
"252",18,245,0.9,"stim/64.jpeg",6,4,3,2,"Instruments",1,"stim/objects/Instruments/frenchhorn3.png",3,"left","left",0.594000101,1,1,1
"253",18,246,0.7,"stim/43.jpeg",4,3,2,1,"Instruments",1,"stim/objects/Instruments/clarinet4.png",3,"left","left",0.644000053,1,1,1
"254",18,247,0.5,"stim/23.jpeg",2,3,1,1,"HouseObjects",2,"stim/objects/HouseObjects/lintroller3.png",3,"right","",NA,0,0,1
"255",18,248,0.9,"stim/53.jpeg",5,3,3,2,"HouseObjects",2,"stim/objects/HouseObjects/glass3.png",3,"right","right",0.582999945,1,1,1
"256",18,249,0.3,"stim/43.jpeg",4,3,2,1,"HouseObjects",2,"stim/objects/HouseObjects/bottle4.png",3,"right","left",0.599999905,0,0,1
"257",18,250,0.5,"stim/24.jpeg",2,4,1,1,"HouseObjects",2,"stim/objects/HouseObjects/match3.png",3,"right","right",0.71600008,1,1,1
"258",18,251,0.9,"stim/54.jpeg",5,4,3,2,"HouseObjects",2,"stim/objects/HouseObjects/doormat3.png",4,"right","left",0.616000175,0,0,1
"259",18,252,0.7,"stim/33.jpeg",3,3,2,2,"HouseObjects",2,"stim/objects/HouseObjects/coffee3.png",1,"right","right",0.730000019,1,1,1
"260",18,253,0.7,"stim/31.jpeg",3,1,2,1,"HouseObjects",2,"stim/objects/HouseObjects/vacuumcleaner3.png",3,"right","right",0.720000029,1,1,1
"261",18,254,0.7,"stim/34.jpeg",3,4,2,2,"HouseObjects",2,"stim/objects/HouseObjects/clothespin3.png",4,"right","right",0.450000048,1,1,1
"262",18,255,0.9,"stim/61.jpeg",6,1,3,2,"Instruments",1,"stim/objects/Instruments/flutetrans3.png",3,"left","left",0.601000071,1,1,1
"263",18,256,0.7,"stim/33.jpeg",3,3,2,2,"HouseObjects",2,"stim/objects/HouseObjects/clothesdryingrack3.png",4,"right","right",0.5,1,1,1
"264",18,257,0.9,"stim/63.jpeg",6,3,3,2,"Instruments",1,"stim/objects/Instruments/gong3.png",4,"left","left",0.728000164,1,1,1
"265",18,258,0.9,"stim/64.jpeg",6,4,3,2,"Instruments",1,"stim/objects/Instruments/flutetrans3.png",3,"left","left",0.589999914,1,1,1
"266",18,259,0.5,"stim/11.jpeg",1,1,1,2,"HouseObjects",2,"stim/objects/HouseObjects/ashtray3.png",4,"right","right",0.523999929,1,1,1
"267",18,260,0.9,"stim/53.jpeg",5,3,3,2,"HouseObjects",2,"stim/objects/HouseObjects/doormat3.png",4,"right","right",0.513999939,1,1,1
"268",18,261,0.9,"stim/63.jpeg",6,3,3,2,"Instruments",1,"stim/objects/Instruments/flute3.png",2,"left","left",0.531000137,1,1,1
"269",18,262,0.7,"stim/41.jpeg",4,1,2,1,"Instruments",1,"stim/objects/Instruments/electricguitar4.png",3,"left","left",0.542000055,1,1,1
"270",18,263,0.1,"stim/52.jpeg",5,2,3,1,"Instruments",1,"stim/objects/Instruments/keyboard4.png",4,"left","right",0.429000139,0,0,1
"271",18,264,0.9,"stim/54.jpeg",5,4,3,2,"HouseObjects",2,"stim/objects/HouseObjects/dustpan3.png",2,"right","right",0.532999992,1,1,1
"272",18,265,0.5,"stim/24.jpeg",2,4,1,1,"Instruments",1,"stim/objects/Instruments/metronome3.png",2,"left","left",0.608999968,1,1,1
"273",18,266,0.5,"stim/23.jpeg",2,3,1,2,"HouseObjects",2,"stim/objects/HouseObjects/blender3.png",2,"right","left",0.53399992,0,0,1
"274",18,267,0.9,"stim/62.jpeg",6,2,3,2,"Instruments",1,"stim/objects/Instruments/gong3.png",1,"left","",NA,0,0,1
"275",18,268,0.9,"stim/54.jpeg",5,4,3,1,"HouseObjects",2,"stim/objects/HouseObjects/glassmop4.png",3,"right","left",0.440999985,0,0,1
"276",18,269,0.9,"stim/61.jpeg",6,1,3,2,"Instruments",1,"stim/objects/Instruments/flute3.png",1,"left","left",0.586000204,1,1,1
"277",18,270,0.9,"stim/51.jpeg",5,1,3,2,"HouseObjects",2,"stim/objects/HouseObjects/dustpan3.png",2,"right","right",0.555000067,1,1,1
"278",18,271,0.9,"stim/52.jpeg",5,2,3,2,"HouseObjects",2,"stim/objects/HouseObjects/flyswatter3.png",2,"right","right",0.467999935,1,1,1
"279",18,272,0.7,"stim/33.jpeg",3,3,2,1,"HouseObjects",2,"stim/objects/HouseObjects/ashtray4.png",1,"right","left",0.523000002,0,0,1
"280",18,273,0.7,"stim/43.jpeg",4,3,2,2,"Instruments",1,"stim/objects/Instruments/cymbal3.png",3,"left","left",0.603999853,1,1,1
"281",18,274,0.5,"stim/23.jpeg",2,3,1,2,"Instruments",1,"stim/objects/Instruments/bassguitar3.png",4,"left","right",0.424000025,0,0,1
"282",18,275,0.9,"stim/53.jpeg",5,3,3,2,"HouseObjects",2,"stim/objects/HouseObjects/flyswatter3.png",3,"right","right",0.595999956,1,1,1
"283",18,276,0.9,"stim/53.jpeg",5,3,3,2,"HouseObjects",2,"stim/objects/HouseObjects/doormat3.png",3,"right","right",0.674999952,1,1,1
"284",18,277,0.7,"stim/41.jpeg",4,1,2,2,"Instruments",1,"stim/objects/Instruments/electricdrumset3.png",1,"left","left",0.494999886,1,1,1
"285",18,278,0.1,"stim/61.jpeg",6,1,3,1,"HouseObjects",2,"stim/objects/HouseObjects/pitcher4.png",4,"right","right",0.446000099,1,1,1
"286",18,279,0.9,"stim/61.jpeg",6,1,3,1,"Instruments",1,"stim/objects/Instruments/musicsheet4.png",1,"left","right",0.651000023,0,0,1
"287",18,280,0.9,"stim/63.jpeg",6,3,3,2,"Instruments",1,"stim/objects/Instruments/flute3.png",3,"left","left",0.534000158,1,1,1
"288",18,281,0.9,"stim/51.jpeg",5,1,3,2,"HouseObjects",2,"stim/objects/HouseObjects/doormat3.png",3,"right","right",0.621000051,1,1,1
"289",18,282,0.9,"stim/51.jpeg",5,1,3,2,"HouseObjects",2,"stim/objects/HouseObjects/glass3.png",3,"right","left",0.460000038,0,0,1
"290",18,283,0.9,"stim/52.jpeg",5,2,3,2,"HouseObjects",2,"stim/objects/HouseObjects/dustpan3.png",3,"right","right",0.655999899,1,1,1
"291",18,284,0.5,"stim/14.jpeg",1,4,1,1,"Instruments",1,"stim/objects/Instruments/harmonica3.png",3,"left","left",0.676999807,1,1,1
"292",18,285,0.5,"stim/14.jpeg",1,4,1,1,"HouseObjects",2,"stim/objects/HouseObjects/handbrush3.png",2,"right","",NA,0,0,1
"293",18,286,0.9,"stim/61.jpeg",6,1,3,2,"Instruments",1,"stim/objects/Instruments/gong3.png",1,"left","left",0.505000114,1,1,1
"294",18,287,0.5,"stim/23.jpeg",2,3,1,2,"Instruments",1,"stim/objects/Instruments/cornet3.png",3,"left","left",0.569000006,1,1,1
"295",18,288,0.9,"stim/62.jpeg",6,2,3,2,"Instruments",1,"stim/objects/Instruments/frenchhorn3.png",4,"left","left",0.589999914,1,1,1
"296",18,289,0.9,"stim/64.jpeg",6,4,3,2,"Instruments",1,"stim/objects/Instruments/flutetrans3.png",1,"left","left",0.51699996,1,1,1
"297",18,290,0.9,"stim/54.jpeg",5,4,3,2,"HouseObjects",2,"stim/objects/HouseObjects/flyswatter3.png",4,"right","left",0.690000057,0,0,1
"298",18,291,0.5,"stim/13.jpeg",1,3,1,1,"Instruments",1,"stim/objects/Instruments/guitarcase3.png",1,"left","",NA,0,0,1
"299",18,292,0.9,"stim/53.jpeg",5,3,3,2,"HouseObjects",2,"stim/objects/HouseObjects/glass3.png",2,"right","right",0.468000174,1,1,1
"300",18,293,0.9,"stim/52.jpeg",5,2,3,2,"HouseObjects",2,"stim/objects/HouseObjects/doormat3.png",2,"right","right",0.46600008,1,1,1
"301",18,294,0.1,"stim/62.jpeg",6,2,3,1,"HouseObjects",2,"stim/objects/HouseObjects/towel4.png",2,"right","right",0.527999878,1,1,1
"302",18,295,0.7,"stim/44.jpeg",4,4,2,2,"Instruments",1,"stim/objects/Instruments/doublebass3.png",2,"left","left",0.729000092,1,1,1
"303",18,296,0.9,"stim/63.jpeg",6,3,3,2,"Instruments",1,"stim/objects/Instruments/flutetrans3.png",4,"left","left",0.529999971,1,1,1
"304",18,297,0.1,"stim/54.jpeg",5,4,3,1,"Instruments",1,"stim/objects/Instruments/harp4.png",2,"left","left",0.519000053,1,1,1
"305",18,298,0.7,"stim/42.jpeg",4,2,2,2,"Instruments",1,"stim/objects/Instruments/doublebass3.png",2,"left","right",0.565999985,0,0,1
"306",18,299,0.9,"stim/54.jpeg",5,4,3,2,"HouseObjects",2,"stim/objects/HouseObjects/garbagebin3.png",3,"right","right",0.59800005,1,1,1
"307",18,300,0.5,"stim/21.jpeg",2,1,1,2,"HouseObjects",2,"stim/objects/HouseObjects/broom3.png",3,"right","right",0.630000114,1,1,1
"308",18,301,0.9,"stim/53.jpeg",5,3,3,1,"HouseObjects",2,"stim/objects/HouseObjects/glass4.png",4,"right","right",0.698000193,1,1,1
"309",18,302,0.9,"stim/63.jpeg",6,3,3,2,"Instruments",1,"stim/objects/Instruments/frenchhorn3.png",1,"left","left",0.690999985,1,1,1
"310",18,303,0.3,"stim/42.jpeg",4,2,2,1,"HouseObjects",2,"stim/objects/HouseObjects/cushion4.png",2,"right","right",0.519999981,1,1,1
"311",18,304,0.9,"stim/52.jpeg",5,2,3,2,"HouseObjects",2,"stim/objects/HouseObjects/flyswatter3.png",1,"right","right",0.559000015,1,1,1
"312",18,305,0.9,"stim/63.jpeg",6,3,3,2,"Instruments",1,"stim/objects/Instruments/frenchhorn3.png",3,"left","left",0.582999945,1,1,1
"313",18,306,0.5,"stim/22.jpeg",2,2,1,2,"HouseObjects",2,"stim/objects/HouseObjects/bucket3.png",3,"right","right",0.656999826,1,1,1
"314",18,307,0.1,"stim/52.jpeg",5,2,3,1,"Instruments",1,"stim/objects/Instruments/guitarcase4.png",2,"left","right",0.508999825,0,0,1
"315",18,308,0.7,"stim/34.jpeg",3,4,2,2,"HouseObjects",2,"stim/objects/HouseObjects/dishsoap3.png",4,"right","left",0.568000078,0,0,1
"316",18,309,0.9,"stim/52.jpeg",5,2,3,2,"HouseObjects",2,"stim/objects/HouseObjects/doormat3.png",3,"right","right",0.510999918,1,1,1
"317",18,310,0.1,"stim/52.jpeg",5,2,3,1,"Instruments",1,"stim/objects/Instruments/flutetrans4.png",4,"left","",NA,0,0,1
"318",18,311,0.9,"stim/64.jpeg",6,4,3,2,"Instruments",1,"stim/objects/Instruments/flutetrans3.png",2,"left","left",0.736999989,1,1,1
"319",18,312,0.9,"stim/64.jpeg",6,4,3,2,"Instruments",1,"stim/objects/Instruments/gong3.png",2,"left","left",0.450999975,1,1,1
"320",18,313,0.5,"stim/11.jpeg",1,1,1,2,"HouseObjects",2,"stim/objects/HouseObjects/ballofstring3.png",2,"right","right",0.808000088,1,1,1
"321",18,314,0.9,"stim/62.jpeg",6,2,3,2,"Instruments",1,"stim/objects/Instruments/flute3.png",3,"left","left",0.510000229,1,1,1
"322",18,315,0.9,"stim/61.jpeg",6,1,3,2,"Instruments",1,"stim/objects/Instruments/frenchhorn3.png",4,"left","left",0.634000063,1,1,1
"323",18,316,0.9,"stim/54.jpeg",5,4,3,2,"HouseObjects",2,"stim/objects/HouseObjects/flyswatter3.png",2,"right","right",0.542999983,1,1,1
"324",18,317,0.9,"stim/62.jpeg",6,2,3,2,"Instruments",1,"stim/objects/Instruments/grandpiano3.png",3,"left","left",0.617000103,1,1,1
"325",18,318,0.1,"stim/64.jpeg",6,4,3,1,"HouseObjects",2,"stim/objects/HouseObjects/pan4.png",2,"right","left",0.595000029,0,0,1
"326",18,319,0.7,"stim/41.jpeg",4,1,2,1,"Instruments",1,"stim/objects/Instruments/cymbal4.png",2,"left","",NA,0,0,1
"327",18,320,0.7,"stim/32.jpeg",3,2,2,2,"HouseObjects",2,"stim/objects/HouseObjects/clothespin3.png",1,"right","right",0.613000154,1,1,1
"328",18,321,0.5,"stim/11.jpeg",1,1,1,1,"Instruments",1,"stim/objects/Instruments/harp3.png",2,"left","right",0.742000103,0,0,1
"329",18,322,0.3,"stim/44.jpeg",4,4,2,1,"HouseObjects",2,"stim/objects/HouseObjects/clothespin4.png",4,"right","left",0.573999882,0,0,1
"330",18,323,0.1,"stim/63.jpeg",6,3,3,1,"HouseObjects",2,"stim/objects/HouseObjects/ironingboard4.png",4,"right","left",0.486000061,0,0,1
"331",18,324,0.1,"stim/54.jpeg",5,4,3,1,"Instruments",1,"stim/objects/Instruments/gong4.png",2,"left","right",0.687000036,0,0,1
"332",18,325,0.1,"stim/51.jpeg",5,1,3,1,"Instruments",1,"stim/objects/Instruments/grandpiano4.png",4,"left","right",0.809000015,0,0,1
"333",18,326,0.3,"stim/44.jpeg",4,4,2,1,"HouseObjects",2,"stim/objects/HouseObjects/broom4.png",2,"right","",NA,0,0,1
"334",18,327,0.3,"stim/31.jpeg",3,1,2,1,"Instruments",1,"stim/objects/Instruments/banjo4.png",3,"left","right",0.585000038,0,0,1
"335",18,328,0.1,"stim/64.jpeg",6,4,3,1,"HouseObjects",2,"stim/objects/HouseObjects/wateringcan4.png",2,"right","left",0.697000027,0,0,1
"336",18,329,0.9,"stim/52.jpeg",5,2,3,2,"HouseObjects",2,"stim/objects/HouseObjects/dustpan3.png",1,"right","right",0.603999853,1,1,1
"337",18,330,0.9,"stim/61.jpeg",6,1,3,2,"Instruments",1,"stim/objects/Instruments/gong3.png",4,"left","left",0.628000021,1,1,1
"338",18,331,0.9,"stim/61.jpeg",6,1,3,2,"Instruments",1,"stim/objects/Instruments/frenchhorn3.png",1,"left","left",0.710000038,1,1,1
"339",18,332,0.9,"stim/63.jpeg",6,3,3,2,"Instruments",1,"stim/objects/Instruments/grandpiano3.png",1,"left","left",0.65199995,1,1,1
"340",18,333,0.9,"stim/51.jpeg",5,1,3,2,"HouseObjects",2,"stim/objects/HouseObjects/garbagebin3.png",1,"right","right",0.552000046,1,1,1
"341",18,334,0.9,"stim/62.jpeg",6,2,3,2,"Instruments",1,"stim/objects/Instruments/grandpiano3.png",2,"left","left",0.510999918,1,1,1
"342",18,335,0.7,"stim/31.jpeg",3,1,2,2,"HouseObjects",2,"stim/objects/HouseObjects/clothesdryingrack3.png",1,"right","right",0.594000101,1,1,1
"343",18,336,0.9,"stim/62.jpeg",6,2,3,1,"Instruments",1,"stim/objects/Instruments/maraca4.png",4,"left","left",0.652999878,1,1,1
"344",18,337,0.5,"stim/23.jpeg",2,3,1,2,"HouseObjects",2,"stim/objects/HouseObjects/bottle3.png",3,"right","right",0.532000065,1,1,1
"345",18,338,0.5,"stim/22.jpeg",2,2,1,2,"HouseObjects",2,"stim/objects/HouseObjects/clock3.png",2,"right","left",0.486999989,0,0,1
"346",18,339,0.1,"stim/51.jpeg",5,1,3,1,"Instruments",1,"stim/objects/Instruments/flute4.png",3,"left","right",0.638000011,0,0,1
"347",18,340,0.3,"stim/32.jpeg",3,2,2,1,"Instruments",1,"stim/objects/Instruments/oboe3.png",4,"left","right",0.719000101,0,0,1
"348",18,341,0.9,"stim/51.jpeg",5,1,3,2,"HouseObjects",2,"stim/objects/HouseObjects/dustpan3.png",2,"right","left",0.654999971,0,0,1
"349",18,342,0.3,"stim/42.jpeg",4,2,2,1,"HouseObjects",2,"stim/objects/HouseObjects/clock4.png",2,"right","left",0.68900013,0,0,1
"350",18,343,0.9,"stim/61.jpeg",6,1,3,2,"Instruments",1,"stim/objects/Instruments/flutetrans3.png",2,"left","left",0.553000212,1,1,1
"351",18,344,0.5,"stim/12.jpeg",1,2,1,1,"Instruments",1,"stim/objects/Instruments/hihat3.png",3,"left","right",0.609999895,0,0,1
"352",18,345,0.9,"stim/51.jpeg",5,1,3,2,"HouseObjects",2,"stim/objects/HouseObjects/garbagebin3.png",1,"right","right",0.546999931,1,1,1
"353",18,346,0.9,"stim/54.jpeg",5,4,3,2,"HouseObjects",2,"stim/objects/HouseObjects/garbagebin3.png",3,"right","right",0.583000183,1,1,1
"354",18,347,0.9,"stim/64.jpeg",6,4,3,2,"Instruments",1,"stim/objects/Instruments/frenchhorn3.png",1,"left","left",0.479000092,1,1,1
"355",18,348,0.9,"stim/54.jpeg",5,4,3,2,"HouseObjects",2,"stim/objects/HouseObjects/glass3.png",1,"right","right",0.573000193,1,1,1
"356",18,349,0.9,"stim/63.jpeg",6,3,3,2,"Instruments",1,"stim/objects/Instruments/grandpiano3.png",3,"left","left",0.562999964,1,1,1
"357",18,350,0.9,"stim/52.jpeg",5,2,3,1,"HouseObjects",2,"stim/objects/HouseObjects/handbrush4.png",1,"right","right",0.517000198,1,1,1
"358",18,351,0.7,"stim/33.jpeg",3,3,2,1,"HouseObjects",2,"stim/objects/HouseObjects/bleachbottle4.png",2,"right","right",0.535000086,1,1,1
"359",18,352,0.9,"stim/51.jpeg",5,1,3,2,"HouseObjects",2,"stim/objects/HouseObjects/glass3.png",4,"right","right",0.48300004,1,1,1
"360",18,353,0.5,"stim/21.jpeg",2,1,1,1,"Instruments",1,"stim/objects/Instruments/laud3.png",1,"left","left",0.606000185,1,1,1
"361",18,354,0.9,"stim/54.jpeg",5,4,3,2,"HouseObjects",2,"stim/objects/HouseObjects/doormat3.png",2,"right","left",0.49000001,0,0,1
"362",18,355,0.9,"stim/51.jpeg",5,1,3,2,"HouseObjects",2,"stim/objects/HouseObjects/glass3.png",1,"right","right",0.549000025,1,1,1
"363",18,356,0.5,"stim/24.jpeg",2,4,1,2,"Instruments",1,"stim/objects/Instruments/bassguitar3.png",2,"left","right",0.460999966,0,0,1
"364",18,357,0.3,"stim/41.jpeg",4,1,2,1,"HouseObjects",2,"stim/objects/HouseObjects/bucket4.png",1,"right","left",0.473999977,0,0,1
"365",18,358,0.9,"stim/62.jpeg",6,2,3,2,"Instruments",1,"stim/objects/Instruments/gong3.png",2,"left","left",0.5,1,1,1
"366",18,359,0.5,"stim/14.jpeg",1,4,1,2,"Instruments",1,"stim/objects/Instruments/banjo3.png",4,"left","right",0.539000034,0,0,1
"367",18,360,0.9,"stim/53.jpeg",5,3,3,1,"HouseObjects",2,"stim/objects/HouseObjects/handvacuum4.png",3,"right","right",0.58100009,1,1,1
"368",18,361,0.1,"stim/63.jpeg",6,3,3,1,"HouseObjects",2,"stim/objects/HouseObjects/match4.png",2,"right","left",0.555000067,0,0,1
"369",18,362,0.5,"stim/23.jpeg",2,3,1,1,"Instruments",1,"stim/objects/Instruments/marimba3.png",2,"left","right",0.566999912,0,0,1
"370",18,363,0.9,"stim/53.jpeg",5,3,3,2,"HouseObjects",2,"stim/objects/HouseObjects/dustpan3.png",4,"right","left",0.585999966,0,0,1
"371",18,364,0.3,"stim/31.jpeg",3,1,2,1,"Instruments",1,"stim/objects/Instruments/musicstand3.png",2,"left","left",0.568000078,1,1,1
"372",18,365,0.9,"stim/54.jpeg",5,4,3,2,"HouseObjects",2,"stim/objects/HouseObjects/garbagebin3.png",3,"right","right",0.51699996,1,1,1
"373",18,366,0.9,"stim/53.jpeg",5,3,3,2,"HouseObjects",2,"stim/objects/HouseObjects/glass3.png",2,"right","right",0.599999905,1,1,1
"374",18,367,0.7,"stim/33.jpeg",3,3,2,1,"HouseObjects",2,"stim/objects/HouseObjects/pitcher3.png",2,"right","right",0.389999866,1,1,1
"375",18,368,0.9,"stim/51.jpeg",5,1,3,1,"HouseObjects",2,"stim/objects/HouseObjects/hairdryer4.png",4,"right","right",0.480000019,1,1,1
"376",18,369,0.5,"stim/14.jpeg",1,4,1,2,"HouseObjects",2,"stim/objects/HouseObjects/bleachbottle3.png",3,"right","left",0.388000011,0,0,1
"377",18,370,0.9,"stim/64.jpeg",6,4,3,2,"Instruments",1,"stim/objects/Instruments/grandpiano3.png",1,"left","left",0.427999973,1,1,1
"378",18,371,0.9,"stim/62.jpeg",6,2,3,2,"Instruments",1,"stim/objects/Instruments/frenchhorn3.png",2,"left","right",0.486000061,0,0,1
"379",18,372,0.9,"stim/62.jpeg",6,2,3,1,"Instruments",1,"stim/objects/Instruments/musicstand4.png",2,"left","left",0.528000116,1,1,1
"380",18,373,0.9,"stim/53.jpeg",5,3,3,2,"HouseObjects",2,"stim/objects/HouseObjects/flyswatter3.png",1,"right","right",0.499000072,1,1,1
"381",18,374,0.9,"stim/64.jpeg",6,4,3,2,"Instruments",1,"stim/objects/Instruments/grandpiano3.png",4,"left","left",0.542000055,1,1,1
"382",18,375,0.9,"stim/51.jpeg",5,1,3,2,"HouseObjects",2,"stim/objects/HouseObjects/glass3.png",3,"right","right",0.547999859,1,1,1
"383",18,376,0.9,"stim/64.jpeg",6,4,3,1,"Instruments",1,"stim/objects/Instruments/metronome4.png",2,"left","left",0.555000067,1,1,1
"384",18,377,0.7,"stim/42.jpeg",4,2,2,1,"Instruments",1,"stim/objects/Instruments/doublebass4.png",4,"left","right",0.595000029,0,0,1
"385",18,378,0.5,"stim/24.jpeg",2,4,1,2,"Instruments",1,"stim/objects/Instruments/cornet3.png",3,"left","right",0.659999847,0,0,1
"386",18,379,0.9,"stim/54.jpeg",5,4,3,2,"HouseObjects",2,"stim/objects/HouseObjects/dustpan3.png",1,"right","right",0.586999893,1,1,1
"387",18,380,0.5,"stim/11.jpeg",1,1,1,1,"HouseObjects",2,"stim/objects/HouseObjects/handvacuum3.png",4,"right","left",0.546000004,0,0,1
"388",18,381,0.5,"stim/13.jpeg",1,3,1,2,"Instruments",1,"stim/objects/Instruments/balalaika3.png",1,"left","right",0.566000223,0,0,1
"389",18,382,0.9,"stim/62.jpeg",6,2,3,2,"Instruments",1,"stim/objects/Instruments/flute3.png",3,"left","left",0.686000109,1,1,1
"390",18,383,0.9,"stim/51.jpeg",5,1,3,2,"HouseObjects",2,"stim/objects/HouseObjects/garbagebin3.png",4,"right","left",0.575999975,0,0,1
"391",18,384,0.9,"stim/52.jpeg",5,2,3,2,"HouseObjects",2,"stim/objects/HouseObjects/doormat3.png",1,"right","right",0.654000044,1,1,1
"392",18,385,0.9,"stim/64.jpeg",6,4,3,2,"Instruments",1,"stim/objects/Instruments/frenchhorn3.png",3,"left","left",0.480000019,1,1,1
"393",18,386,0.9,"stim/61.jpeg",6,1,3,2,"Instruments",1,"stim/objects/Instruments/grandpiano3.png",4,"left","left",0.486000061,1,1,1
"394",18,387,0.9,"stim/64.jpeg",6,4,3,2,"Instruments",1,"stim/objects/Instruments/flute3.png",3,"left","left",0.43900013,1,1,1
"395",18,388,0.5,"stim/13.jpeg",1,3,1,1,"Instruments",1,"stim/objects/Instruments/keyboard3.png",2,"left","right",0.463999987,0,0,1
"396",18,389,0.9,"stim/53.jpeg",5,3,3,2,"HouseObjects",2,"stim/objects/HouseObjects/doormat3.png",2,"right","left",0.494999886,0,0,1
"397",18,390,0.9,"stim/63.jpeg",6,3,3,1,"Instruments",1,"stim/objects/Instruments/marimba4.png",3,"left","left",0.536000013,1,1,1
"398",18,391,0.5,"stim/24.jpeg",2,4,1,2,"HouseObjects",2,"stim/objects/HouseObjects/broom3.png",4,"right","right",0.532999992,1,1,1
"399",18,392,0.9,"stim/63.jpeg",6,3,3,2,"Instruments",1,"stim/objects/Instruments/flutetrans3.png",1,"left","left",0.509000063,1,1,1
"400",18,393,0.9,"stim/64.jpeg",6,4,3,2,"Instruments",1,"stim/objects/Instruments/grandpiano3.png",3,"left","left",0.385999918,1,1,1
"401",18,394,0.9,"stim/51.jpeg",5,1,3,2,"HouseObjects",2,"stim/objects/HouseObjects/flyswatter3.png",4,"right","right",0.480000019,1,1,1
"402",18,395,0.5,"stim/21.jpeg",2,1,1,2,"Instruments",1,"stim/objects/Instruments/cello3.png",4,"left","left",0.640000105,1,1,1
"403",18,396,0.9,"stim/63.jpeg",6,3,3,1,"Instruments",1,"stim/objects/Instruments/oboe4.png",1,"left","right",0.537000179,0,0,1
"404",18,397,0.9,"stim/63.jpeg",6,3,3,2,"Instruments",1,"stim/objects/Instruments/frenchhorn3.png",2,"left","",NA,0,0,1
"405",18,398,0.1,"stim/63.jpeg",6,3,3,1,"HouseObjects",2,"stim/objects/HouseObjects/vacuumcleaner4.png",4,"right","left",0.503000021,0,0,1
"406",18,399,0.5,"stim/13.jpeg",1,3,1,2,"HouseObjects",2,"stim/objects/HouseObjects/barbecuelighter3.png",3,"right","left",0.461999893,0,0,1
"407",18,400,0.9,"stim/62.jpeg",6,2,3,1,"Instruments",1,"stim/objects/Instruments/xylophone4.png",4,"left","left",0.537000179,1,1,1
"408",18,401,0.9,"stim/62.jpeg",6,2,3,2,"Instruments",1,"stim/objects/Instruments/gong3.png",4,"left","left",0.48300004,1,1,1
"409",18,402,0.7,"stim/34.jpeg",3,4,2,1,"HouseObjects",2,"stim/objects/HouseObjects/towel3.png",2,"right","right",0.72300005,1,1,1
"410",18,403,0.7,"stim/43.jpeg",4,3,2,2,"Instruments",1,"stim/objects/Instruments/electricguitar3.png",4,"left","left",0.599999905,1,1,1
"411",18,404,0.9,"stim/51.jpeg",5,1,3,2,"HouseObjects",2,"stim/objects/HouseObjects/flyswatter3.png",3,"right","left",0.438999891,0,0,1
"412",18,405,0.5,"stim/11.jpeg",1,1,1,2,"Instruments",1,"stim/objects/Instruments/banjo3.png",2,"left","left",0.562000036,1,1,1
"413",18,406,0.7,"stim/33.jpeg",3,3,2,2,"HouseObjects",2,"stim/objects/HouseObjects/cushion3.png",1,"right","right",0.629999876,1,1,1
"414",18,407,0.3,"stim/33.jpeg",3,3,2,1,"Instruments",1,"stim/objects/Instruments/violin3.png",1,"left","",NA,0,0,1
"415",18,408,0.3,"stim/43.jpeg",4,3,2,1,"HouseObjects",2,"stim/objects/HouseObjects/dishsoap4.png",1,"right","",NA,0,0,1
"416",18,409,0.1,"stim/64.jpeg",6,4,3,1,"HouseObjects",2,"stim/objects/HouseObjects/key4.png",4,"right","right",0.588000059,1,1,1
"417",18,410,0.5,"stim/13.jpeg",1,3,1,1,"HouseObjects",2,"stim/objects/HouseObjects/hairdryer3.png",1,"right","left",0.450999975,0,0,1
"418",18,411,0.7,"stim/32.jpeg",3,2,2,2,"HouseObjects",2,"stim/objects/HouseObjects/coffee3.png",2,"right","left",0.414999962,0,0,1
"419",18,412,0.5,"stim/24.jpeg",2,4,1,1,"HouseObjects",2,"stim/objects/HouseObjects/ironingboard3.png",1,"right","right",0.53399992,1,1,1
"420",18,413,0.9,"stim/54.jpeg",5,4,3,1,"HouseObjects",2,"stim/objects/HouseObjects/dustpan4.png",2,"right","right",0.455000162,1,1,1
"421",18,414,0.7,"stim/33.jpeg",3,3,2,2,"HouseObjects",2,"stim/objects/HouseObjects/dishsoap3.png",4,"right","right",0.50999999,1,1,1
"422",18,415,0.9,"stim/64.jpeg",6,4,3,2,"Instruments",1,"stim/objects/Instruments/gong3.png",1,"left","left",0.427000046,1,1,1
"423",18,416,0.9,"stim/52.jpeg",5,2,3,2,"HouseObjects",2,"stim/objects/HouseObjects/garbagebin3.png",1,"right","left",0.434000015,0,0,1
"424",18,417,0.7,"stim/44.jpeg",4,4,2,1,"Instruments",1,"stim/objects/Instruments/electricdrumset4.png",3,"left","left",0.620000124,1,1,1
"425",18,418,0.5,"stim/12.jpeg",1,2,1,2,"HouseObjects",2,"stim/objects/HouseObjects/ballofstring3.png",4,"right","right",0.463000059,1,1,1
"426",18,419,0.9,"stim/52.jpeg",5,2,3,2,"HouseObjects",2,"stim/objects/HouseObjects/garbagebin3.png",4,"right","right",0.398999929,1,1,1
"427",18,420,0.7,"stim/41.jpeg",4,1,2,1,"Instruments",1,"stim/objects/Instruments/cello4.png",1,"left","left",0.572999954,1,1,1
"428",18,421,0.5,"stim/12.jpeg",1,2,1,1,"HouseObjects",2,"stim/objects/HouseObjects/iron3.png",2,"right","left",0.504999876,0,0,1
"429",18,422,0.9,"stim/63.jpeg",6,3,3,2,"Instruments",1,"stim/objects/Instruments/gong3.png",4,"left","left",0.568000078,1,1,1
"430",18,423,0.7,"stim/44.jpeg",4,4,2,2,"Instruments",1,"stim/objects/Instruments/drums3.png",4,"left","left",0.555999994,1,1,1
"431",18,424,0.9,"stim/54.jpeg",5,4,3,2,"HouseObjects",2,"stim/objects/HouseObjects/flyswatter3.png",3,"right","left",0.487999916,0,0,1
"432",18,425,0.5,"stim/21.jpeg",2,1,1,1,"HouseObjects",2,"stim/objects/HouseObjects/key3.png",4,"right","right",0.766000032,1,1,1
"433",18,426,0.7,"stim/32.jpeg",3,2,2,1,"HouseObjects",2,"stim/objects/HouseObjects/pan3.png",2,"right","left",0.480000019,0,0,1
"434",18,427,0.9,"stim/62.jpeg",6,2,3,2,"Instruments",1,"stim/objects/Instruments/grandpiano3.png",2,"left","left",0.546000004,1,1,1
"435",18,428,0.7,"stim/31.jpeg",3,1,2,2,"HouseObjects",2,"stim/objects/HouseObjects/clothespin3.png",1,"right","right",0.571000099,1,1,1
"436",18,429,0.5,"stim/22.jpeg",2,2,1,1,"Instruments",1,"stim/objects/Instruments/maraca3.png",3,"left","right",0.582000017,0,0,1
"437",18,430,0.5,"stim/12.jpeg",1,2,1,2,"Instruments",1,"stim/objects/Instruments/bassdrum3.png",4,"left","left",0.536000013,1,1,1
"438",18,431,0.5,"stim/14.jpeg",1,4,1,2,"HouseObjects",2,"stim/objects/HouseObjects/ashtray3.png",1,"right","right",0.49000001,1,1,1
"439",18,432,0.9,"stim/51.jpeg",5,1,3,2,"HouseObjects",2,"stim/objects/HouseObjects/doormat3.png",3,"right","right",0.588999987,1,1,1
"440",18,433,0.7,"stim/34.jpeg",3,4,2,2,"HouseObjects",2,"stim/objects/HouseObjects/clothesdryingrack3.png",3,"right","left",0.517999887,0,0,1
"441",18,434,0.7,"stim/44.jpeg",4,4,2,1,"Instruments",1,"stim/objects/Instruments/cornet4.png",4,"left","right",0.506000042,0,0,1
"442",18,435,0.9,"stim/52.jpeg",5,2,3,2,"HouseObjects",2,"stim/objects/HouseObjects/flyswatter3.png",1,"right","right",0.552000046,1,1,1
"443",18,436,0.9,"stim/64.jpeg",6,4,3,2,"Instruments",1,"stim/objects/Instruments/gong3.png",1,"left","left",0.56099987,1,1,1
"444",18,437,0.9,"stim/52.jpeg",5,2,3,2,"HouseObjects",2,"stim/objects/HouseObjects/glass3.png",1,"right","right",0.302999973,1,1,1
"445",18,438,0.7,"stim/42.jpeg",4,2,2,2,"Instruments",1,"stim/objects/Instruments/electricguitar3.png",1,"left","left",0.700000048,1,1,1
"446",18,439,0.5,"stim/11.jpeg",1,1,1,2,"Instruments",1,"stim/objects/Instruments/accordion3.png",4,"left","right",0.40199995,0,0,1
"447",18,440,0.9,"stim/63.jpeg",6,3,3,2,"Instruments",1,"stim/objects/Instruments/gong3.png",4,"left","left",0.614000082,1,1,1
"448",18,441,0.9,"stim/53.jpeg",5,3,3,2,"HouseObjects",2,"stim/objects/HouseObjects/flyswatter3.png",2,"right","right",0.644000053,1,1,1
"449",18,442,0.3,"stim/31.jpeg",3,1,2,1,"Instruments",1,"stim/objects/Instruments/xylophone3.png",3,"left","left",0.580000162,1,1,1
"450",18,443,0.3,"stim/34.jpeg",3,4,2,1,"Instruments",1,"stim/objects/Instruments/vuvuzela3.png",4,"left","left",0.618999958,1,1,1
"451",18,444,0.3,"stim/34.jpeg",3,4,2,1,"Instruments",1,"stim/objects/Instruments/balalaika4.png",2,"left","left",0.542999983,1,1,1
"452",18,445,0.7,"stim/31.jpeg",3,1,2,2,"HouseObjects",2,"stim/objects/HouseObjects/coffee3.png",4,"right","right",0.610000134,1,1,1
"453",18,446,0.9,"stim/62.jpeg",6,2,3,2,"Instruments",1,"stim/objects/Instruments/flutetrans3.png",2,"left","left",0.588000059,1,1,1
"454",18,447,0.9,"stim/61.jpeg",6,1,3,2,"Instruments",1,"stim/objects/Instruments/frenchhorn3.png",3,"left","left",0.568000078,1,1,1
"455",18,448,0.9,"stim/51.jpeg",5,1,3,2,"HouseObjects",2,"stim/objects/HouseObjects/dustpan3.png",4,"right","right",0.539999962,1,1,1
"456",18,449,0.7,"stim/34.jpeg",3,4,2,2,"HouseObjects",2,"stim/objects/HouseObjects/cushion3.png",1,"right","left",0.562999964,0,0,1
"457",18,450,0.9,"stim/54.jpeg",5,4,3,2,"HouseObjects",2,"stim/objects/HouseObjects/doormat3.png",2,"right","right",0.617999792,1,1,1
"458",18,451,0.9,"stim/53.jpeg",5,3,3,2,"HouseObjects",2,"stim/objects/HouseObjects/garbagebin3.png",4,"right","right",0.5,1,1,1
"459",18,452,0.9,"stim/54.jpeg",5,4,3,1,"HouseObjects",2,"stim/objects/HouseObjects/iron4.png",2,"right","right",0.549000025,1,1,1
"460",18,453,0.5,"stim/21.jpeg",2,1,1,2,"Instruments",1,"stim/objects/Instruments/chime3.png",2,"left","right",0.611999989,0,0,1
"461",18,454,0.9,"stim/64.jpeg",6,4,3,2,"Instruments",1,"stim/objects/Instruments/frenchhorn3.png",3,"left","left",0.572000027,1,1,1
"462",18,455,0.9,"stim/53.jpeg",5,3,3,2,"HouseObjects",2,"stim/objects/HouseObjects/dustpan3.png",4,"right","right",0.559000015,1,1,1
"463",18,456,0.9,"stim/62.jpeg",6,2,3,2,"Instruments",1,"stim/objects/Instruments/flutetrans3.png",3,"left","left",0.501000166,1,1,1
"464",18,457,0.9,"stim/51.jpeg",5,1,3,2,"HouseObjects",2,"stim/objects/HouseObjects/doormat3.png",1,"right","right",0.510999918,1,1,1
"465",18,458,0.3,"stim/32.jpeg",3,2,2,1,"Instruments",1,"stim/objects/Instruments/accordion4.png",4,"left","right",0.447999954,0,0,1
"466",18,459,0.5,"stim/13.jpeg",1,3,1,2,"HouseObjects",2,"stim/objects/HouseObjects/basket3.png",3,"right","left",0.799000025,0,0,1
"467",18,460,0.9,"stim/61.jpeg",6,1,3,2,"Instruments",1,"stim/objects/Instruments/gong3.png",1,"left","left",0.610000134,1,1,1
"468",18,461,0.7,"stim/43.jpeg",4,3,2,2,"Instruments",1,"stim/objects/Instruments/drums3.png",3,"left","left",0.826999903,1,1,1
"469",18,462,0.9,"stim/63.jpeg",6,3,3,2,"Instruments",1,"stim/objects/Instruments/gong3.png",3,"left","left",0.561000109,1,1,1
"470",18,463,0.1,"stim/61.jpeg",6,1,3,1,"HouseObjects",2,"stim/objects/HouseObjects/knife4.png",3,"right","left",0.519999981,0,0,1
"471",18,464,0.9,"stim/52.jpeg",5,2,3,2,"HouseObjects",2,"stim/objects/HouseObjects/garbagebin3.png",2,"right","left",0.521999836,0,0,1
"472",18,465,0.9,"stim/63.jpeg",6,3,3,2,"Instruments",1,"stim/objects/Instruments/frenchhorn3.png",4,"left","left",0.638000011,1,1,1
"473",18,466,0.9,"stim/54.jpeg",5,4,3,2,"HouseObjects",2,"stim/objects/HouseObjects/flyswatter3.png",2,"right","right",0.564999819,1,1,1
"474",18,467,0.7,"stim/42.jpeg",4,2,2,1,"Instruments",1,"stim/objects/Instruments/chime4.png",4,"left","right",0.579999924,0,0,1
"475",18,468,0.9,"stim/63.jpeg",6,3,3,2,"Instruments",1,"stim/objects/Instruments/flute3.png",1,"left","left",0.54700017,1,1,1
"476",18,469,0.9,"stim/61.jpeg",6,1,3,2,"Instruments",1,"stim/objects/Instruments/grandpiano3.png",1,"left","left",0.596999884,1,1,1
"477",18,470,0.7,"stim/43.jpeg",4,3,2,1,"Instruments",1,"stim/objects/Instruments/drums4.png",4,"left","right",0.392000198,0,0,1
"478",18,471,0.9,"stim/52.jpeg",5,2,3,2,"HouseObjects",2,"stim/objects/HouseObjects/garbagebin3.png",3,"right","left",0.474999905,0,0,1
"479",18,472,0.9,"stim/62.jpeg",6,2,3,2,"Instruments",1,"stim/objects/Instruments/flutetrans3.png",4,"left","left",0.536000013,1,1,1
"480",18,473,0.9,"stim/52.jpeg",5,2,3,2,"HouseObjects",2,"stim/objects/HouseObjects/doormat3.png",4,"right","left",0.528999805,0,0,1
"481",18,474,0.3,"stim/41.jpeg",4,1,2,1,"HouseObjects",2,"stim/objects/HouseObjects/coffee4.png",3,"right","left",0.680000067,0,0,1
"482",18,475,0.9,"stim/53.jpeg",5,3,3,2,"HouseObjects",2,"stim/objects/HouseObjects/doormat3.png",2,"right","right",0.493999958,1,1,1
"483",18,476,0.9,"stim/62.jpeg",6,2,3,2,"Instruments",1,"stim/objects/Instruments/frenchhorn3.png",4,"left","right",0.46600008,0,0,1
"484",18,477,0.9,"stim/61.jpeg",6,1,3,2,"Instruments",1,"stim/objects/Instruments/flute3.png",2,"left","left",0.585000038,1,1,1
"485",18,478,0.7,"stim/43.jpeg",4,3,2,2,"Instruments",1,"stim/objects/Instruments/doublebass3.png",2,"left","",NA,0,0,1
"486",18,479,0.7,"stim/44.jpeg",4,4,2,2,"Instruments",1,"stim/objects/Instruments/electricdrumset3.png",1,"left","right",0.595000029,0,0,1
"487",18,480,0.5,"stim/23.jpeg",2,3,1,2,"HouseObjects",2,"stim/objects/HouseObjects/clock3.png",4,"right","left",0.562000036,0,0,1
"488",18,481,0.9,"stim/63.jpeg",6,3,3,2,"Instruments",1,"stim/objects/Instruments/flutetrans3.png",3,"left","left",0.54399991,1,1,1
"489",18,482,0.7,"stim/32.jpeg",3,2,2,1,"HouseObjects",2,"stim/objects/HouseObjects/basket4.png",2,"right","right",0.558000088,1,1,1
"490",18,483,0.7,"stim/34.jpeg",3,4,2,1,"HouseObjects",2,"stim/objects/HouseObjects/ballofstring4.png",4,"right","right",0.424999952,1,1,1
"491",18,484,0.5,"stim/12.jpeg",1,2,1,1,"HouseObjects",2,"stim/objects/HouseObjects/glassmop3.png",4,"right","right",0.371999979,1,1,1
"492",18,485,0.9,"stim/51.jpeg",5,1,3,2,"HouseObjects",2,"stim/objects/HouseObjects/doormat3.png",2,"right","right",0.492000103,1,1,1
"493",18,486,0.9,"stim/61.jpeg",6,1,3,2,"Instruments",1,"stim/objects/Instruments/flutetrans3.png",3,"left","left",0.506999969,1,1,1
"494",18,487,0.5,"stim/22.jpeg",2,2,1,1,"HouseObjects",2,"stim/objects/HouseObjects/knife3.png",2,"right","right",0.485000134,1,1,1
"495",18,488,0.5,"stim/22.jpeg",2,2,1,2,"HouseObjects",2,"stim/objects/HouseObjects/blender3.png",2,"right","right",0.394999981,1,1,1
"496",18,489,0.7,"stim/42.jpeg",4,2,2,2,"Instruments",1,"stim/objects/Instruments/electricdrumset3.png",3,"left","left",0.589999914,1,1,1
"497",18,490,0.9,"stim/54.jpeg",5,4,3,2,"HouseObjects",2,"stim/objects/HouseObjects/doormat3.png",3,"right","left",0.485000134,0,0,1
"498",18,491,0.9,"stim/53.jpeg",5,3,3,2,"HouseObjects",2,"stim/objects/HouseObjects/garbagebin3.png",4,"right","right",0.429999828,1,1,1
"499",18,492,0.9,"stim/54.jpeg",5,4,3,2,"HouseObjects",2,"stim/objects/HouseObjects/glass3.png",1,"right","right",0.513999939,1,1,1
"500",18,493,0.9,"stim/63.jpeg",6,3,3,2,"Instruments",1,"stim/objects/Instruments/flutetrans3.png",1,"left","",NA,0,0,1
"501",18,494,0.5,"stim/24.jpeg",2,4,1,2,"HouseObjects",2,"stim/objects/HouseObjects/bottle3.png",1,"right","right",0.575000048,1,1,1
"502",18,495,0.9,"stim/53.jpeg",5,3,3,2,"HouseObjects",2,"stim/objects/HouseObjects/dustpan3.png",1,"right","right",0.486000061,1,1,1
"503",18,496,0.9,"stim/52.jpeg",5,2,3,2,"HouseObjects",2,"stim/objects/HouseObjects/glass3.png",2,"right","right",0.450999975,1,1,1
"504",18,497,0.9,"stim/62.jpeg",6,2,3,2,"Instruments",1,"stim/objects/Instruments/grandpiano3.png",4,"left","right",0.475999832,0,0,1
"505",18,498,0.9,"stim/53.jpeg",5,3,3,2,"HouseObjects",2,"stim/objects/HouseObjects/garbagebin3.png",3,"right","right",0.587999821,1,1,1
"506",18,499,0.3,"stim/32.jpeg",3,2,2,1,"Instruments",1,"stim/objects/Instruments/bassdrum4.png",3,"left","right",0.579999924,0,0,1
"507",18,500,0.9,"stim/61.jpeg",6,1,3,2,"Instruments",1,"stim/objects/Instruments/flute3.png",1,"left","left",0.537999868,1,1,1
"508",18,501,0.9,"stim/52.jpeg",5,2,3,1,"HouseObjects",2,"stim/objects/HouseObjects/garbagebin4.png",1,"right","right",0.573999882,1,1,1
"509",18,502,0.9,"stim/54.jpeg",5,4,3,2,"HouseObjects",2,"stim/objects/HouseObjects/glass3.png",2,"right","right",0.44900012,1,1,1
"510",18,503,0.9,"stim/61.jpeg",6,1,3,2,"Instruments",1,"stim/objects/Instruments/flute3.png",1,"left","left",0.472000122,1,1,1
"511",18,504,0.9,"stim/64.jpeg",6,4,3,2,"Instruments",1,"stim/objects/Instruments/flutetrans3.png",1,"left","left",0.460000038,1,1,1
"512",18,505,0.9,"stim/63.jpeg",6,3,3,2,"Instruments",1,"stim/objects/Instruments/grandpiano3.png",3,"left","left",0.55700016,1,1,1
"513",18,506,0.5,"stim/14.jpeg",1,4,1,2,"Instruments",1,"stim/objects/Instruments/balalaika3.png",1,"left","left",0.506999969,1,1,1
"514",18,507,0.9,"stim/64.jpeg",6,4,3,1,"Instruments",1,"stim/objects/Instruments/violin4.png",3,"left","left",0.473999977,1,1,1
"515",18,508,0.5,"stim/21.jpeg",2,1,1,2,"HouseObjects",2,"stim/objects/HouseObjects/bucket3.png",4,"right","right",0.477999926,1,1,1
"516",18,509,0.9,"stim/54.jpeg",5,4,3,2,"HouseObjects",2,"stim/objects/HouseObjects/dustpan3.png",1,"right","right",0.698999882,1,1,1
"517",18,510,0.9,"stim/54.jpeg",5,4,3,2,"HouseObjects",2,"stim/objects/HouseObjects/glass3.png",3,"right","right",0.555000067,1,1,1
"518",18,511,0.1,"stim/53.jpeg",5,3,3,1,"Instruments",1,"stim/objects/Instruments/frenchhorn4.png",4,"left","right",0.431999922,0,0,1
"519",18,512,0.3,"stim/43.jpeg",4,3,2,1,"HouseObjects",2,"stim/objects/HouseObjects/clothesdryingrack4.png",2,"right","",NA,0,0,1
"520",18,513,0.9,"stim/61.jpeg",6,1,3,2,"Instruments",1,"stim/objects/Instruments/gong3.png",4,"left","left",0.583999872,1,1,1
"521",18,514,0.9,"stim/61.jpeg",6,1,3,2,"Instruments",1,"stim/objects/Instruments/flutetrans3.png",1,"left","left",0.496999979,1,1,1
"522",18,515,0.7,"stim/32.jpeg",3,2,2,2,"HouseObjects",2,"stim/objects/HouseObjects/cushion3.png",1,"right","right",0.546999931,1,1,1
"523",18,516,0.9,"stim/53.jpeg",5,3,3,1,"HouseObjects",2,"stim/objects/HouseObjects/doormat4.png",1,"right","right",0.615999937,1,1,1
"524",18,517,0.9,"stim/61.jpeg",6,1,3,2,"Instruments",1,"stim/objects/Instruments/grandpiano3.png",1,"left","left",0.597000122,1,1,1
"525",18,518,0.1,"stim/51.jpeg",5,1,3,1,"Instruments",1,"stim/objects/Instruments/hihat4.png",2,"left","right",0.394999981,0,0,1
"526",18,519,0.9,"stim/53.jpeg",5,3,3,2,"HouseObjects",2,"stim/objects/HouseObjects/glass3.png",2,"right","right",0.674999952,1,1,1
"527",18,520,0.9,"stim/63.jpeg",6,3,3,2,"Instruments",1,"stim/objects/Instruments/grandpiano3.png",3,"left","left",0.454999924,1,1,1
"528",18,521,0.7,"stim/41.jpeg",4,1,2,2,"Instruments",1,"stim/objects/Instruments/cymbal3.png",3,"left","left",0.459000111,1,1,1
"529",18,522,0.1,"stim/53.jpeg",5,3,3,1,"Instruments",1,"stim/objects/Instruments/harmonica4.png",3,"left","left",0.509000063,1,1,1
"530",18,523,0.9,"stim/51.jpeg",5,1,3,2,"HouseObjects",2,"stim/objects/HouseObjects/flyswatter3.png",4,"right","right",0.496999979,1,1,1
"531",18,524,0.9,"stim/52.jpeg",5,2,3,2,"HouseObjects",2,"stim/objects/HouseObjects/dustpan3.png",4,"right","right",0.363000154,1,1,1
"532",18,525,0.9,"stim/51.jpeg",5,1,3,2,"HouseObjects",2,"stim/objects/HouseObjects/garbagebin3.png",4,"right","right",0.411999941,1,1,1
"533",18,526,0.9,"stim/52.jpeg",5,2,3,2,"HouseObjects",2,"stim/objects/HouseObjects/flyswatter3.png",1,"right","right",0.600999832,1,1,1
"534",18,527,0.7,"stim/42.jpeg",4,2,2,2,"Instruments",1,"stim/objects/Instruments/cymbal3.png",4,"left","right",0.394000053,0,0,1
"535",18,528,0.7,"stim/31.jpeg",3,1,2,2,"HouseObjects",2,"stim/objects/HouseObjects/dishsoap3.png",1,"right","right",0.467000008,1,1,1
"536",18,529,0.9,"stim/52.jpeg",5,2,3,2,"HouseObjects",2,"stim/objects/HouseObjects/glass3.png",4,"right","right",0.401000023,1,1,1
"537",18,530,0.9,"stim/52.jpeg",5,2,3,2,"HouseObjects",2,"stim/objects/HouseObjects/dustpan3.png",4,"right","right",0.375999928,1,1,1
"538",18,531,0.1,"stim/62.jpeg",6,2,3,1,"HouseObjects",2,"stim/objects/HouseObjects/lintroller4.png",4,"right","right",0.467999935,1,1,1
"539",18,532,0.9,"stim/52.jpeg",5,2,3,2,"HouseObjects",2,"stim/objects/HouseObjects/glass3.png",2,"right","left",0.542999983,0,0,1
"540",18,533,0.9,"stim/61.jpeg",6,1,3,1,"Instruments",1,"stim/objects/Instruments/vuvuzela4.png",4,"left","right",0.463999987,0,0,1
"541",18,534,0.7,"stim/32.jpeg",3,2,2,1,"HouseObjects",2,"stim/objects/HouseObjects/wateringcan3.png",3,"right","right",0.693000078,1,1,1
"542",18,535,0.5,"stim/24.jpeg",2,4,1,2,"Instruments",1,"stim/objects/Instruments/cello3.png",4,"left","left",0.555000067,1,1,1
"543",18,536,0.9,"stim/54.jpeg",5,4,3,2,"HouseObjects",2,"stim/objects/HouseObjects/dustpan3.png",3,"right","left",0.565999985,0,0,1
"544",18,537,0.9,"stim/64.jpeg",6,4,3,2,"Instruments",1,"stim/objects/Instruments/flute3.png",4,"left","left",0.555999994,1,1,1
"545",18,538,0.9,"stim/64.jpeg",6,4,3,2,"Instruments",1,"stim/objects/Instruments/flute3.png",4,"left","left",0.60800004,1,1,1
"546",18,539,0.7,"stim/44.jpeg",4,4,2,1,"Instruments",1,"stim/objects/Instruments/bassguitar4.png",1,"left","right",0.527000189,0,0,1
"547",18,540,0.3,"stim/42.jpeg",4,2,2,1,"HouseObjects",2,"stim/objects/HouseObjects/blender4.png",2,"right","left",0.680999994,0,0,1
"548",18,541,0.5,"stim/11.jpeg",1,1,1,2,"HouseObjects",2,"stim/objects/HouseObjects/bleachbottle3.png",1,"right","",NA,0,0,1
"549",18,542,0.5,"stim/11.jpeg",1,1,1,2,"Instruments",1,"stim/objects/Instruments/bassdrum3.png",3,"left","right",0.593999863,0,0,1
"550",18,543,0.9,"stim/62.jpeg",6,2,3,2,"Instruments",1,"stim/objects/Instruments/gong3.png",2,"left","left",0.599999905,1,1,1
"551",18,544,0.3,"stim/33.jpeg",3,3,2,1,"Instruments",1,"stim/objects/Instruments/acousticguitar4.png",3,"left","right",0.57799983,0,0,1
"552",18,545,0.9,"stim/51.jpeg",5,1,3,2,"HouseObjects",2,"stim/objects/HouseObjects/dustpan3.png",2,"right","right",0.595000029,1,1,1
"553",18,546,0.9,"stim/61.jpeg",6,1,3,2,"Instruments",1,"stim/objects/Instruments/grandpiano3.png",1,"left","left",0.542999983,1,1,1
"554",18,547,0.7,"stim/41.jpeg",4,1,2,2,"Instruments",1,"stim/objects/Instruments/drums3.png",3,"left","left",0.68900013,1,1,1
"555",18,548,0.9,"stim/61.jpeg",6,1,3,2,"Instruments",1,"stim/objects/Instruments/frenchhorn3.png",1,"left","left",0.576999903,1,1,1
"556",18,549,0.9,"stim/64.jpeg",6,4,3,2,"Instruments",1,"stim/objects/Instruments/gong3.png",2,"left","left",0.555999994,1,1,1
"557",18,550,0.9,"stim/62.jpeg",6,2,3,2,"Instruments",1,"stim/objects/Instruments/frenchhorn3.png",2,"left","left",0.569000006,1,1,1
"558",18,551,0.9,"stim/64.jpeg",6,4,3,2,"Instruments",1,"stim/objects/Instruments/grandpiano3.png",3,"left","left",0.531000137,1,1,1
"559",18,552,0.5,"stim/12.jpeg",1,2,1,2,"Instruments",1,"stim/objects/Instruments/accordion3.png",4,"left","left",0.603999853,1,1,1
"560",18,553,0.5,"stim/12.jpeg",1,2,1,2,"HouseObjects",2,"stim/objects/HouseObjects/barbecuelighter3.png",1,"right","right",0.677000046,1,1,1
"561",18,554,0.9,"stim/53.jpeg",5,3,3,2,"HouseObjects",2,"stim/objects/HouseObjects/dustpan3.png",1,"right","right",0.588999987,1,1,1
"562",18,555,0.9,"stim/53.jpeg",5,3,3,2,"HouseObjects",2,"stim/objects/HouseObjects/garbagebin3.png",4,"right","right",0.465999842,1,1,1
"563",18,556,0.9,"stim/51.jpeg",5,1,3,1,"HouseObjects",2,"stim/objects/HouseObjects/flyswatter4.png",1,"right","",NA,0,0,1
"564",18,557,0.7,"stim/31.jpeg",3,1,2,1,"HouseObjects",2,"stim/objects/HouseObjects/barbecuelighter4.png",1,"right","right",0.673000097,1,1,1
"565",18,558,0.5,"stim/12.jpeg",1,2,1,2,"Instruments",1,"stim/objects/Instruments/acousticguitar3.png",2,"left","right",0.476000071,0,0,1
"566",18,559,0.5,"stim/14.jpeg",1,4,1,2,"HouseObjects",2,"stim/objects/HouseObjects/basket3.png",1,"right","left",0.691000223,0,0,1
"567",18,560,0.9,"stim/53.jpeg",5,3,3,2,"HouseObjects",2,"stim/objects/HouseObjects/flyswatter3.png",3,"right","left",0.786999941,0,0,1
"568",18,561,0.9,"stim/64.jpeg",6,4,3,2,"Instruments",1,"stim/objects/Instruments/flute3.png",1,"left","left",0.611999989,1,1,1
"569",18,562,0.9,"stim/51.jpeg",5,1,3,2,"HouseObjects",2,"stim/objects/HouseObjects/flyswatter3.png",3,"right","right",0.461999893,1,1,1
"570",18,563,0.9,"stim/54.jpeg",5,4,3,2,"HouseObjects",2,"stim/objects/HouseObjects/garbagebin3.png",2,"right","right",0.684000015,1,1,1
"571",18,564,0.9,"stim/61.jpeg",6,1,3,1,"Instruments",1,"stim/objects/Instruments/laud4.png",2,"left","right",0.436999798,0,0,1
"572",18,565,0.5,"stim/13.jpeg",1,3,1,2,"Instruments",1,"stim/objects/Instruments/acousticguitar3.png",3,"left","left",0.684000015,1,1,1
"573",18,566,0.5,"stim/23.jpeg",2,3,1,2,"Instruments",1,"stim/objects/Instruments/clarinet3.png",1,"left","left",0.653000116,1,1,1
"574",18,567,0.7,"stim/41.jpeg",4,1,2,2,"Instruments",1,"stim/objects/Instruments/electricguitar3.png",2,"left","left",0.599999905,1,1,1
"575",18,568,0.9,"stim/62.jpeg",6,2,3,2,"Instruments",1,"stim/objects/Instruments/flute3.png",3,"left","left",0.519999981,1,1,1
"576",18,569,0.9,"stim/62.jpeg",6,2,3,2,"Instruments",1,"stim/objects/Instruments/flutetrans3.png",2,"left","left",0.517000198,1,1,1
"577",18,570,0.9,"stim/62.jpeg",6,2,3,2,"Instruments",1,"stim/objects/Instruments/flute3.png",1,"left","left",0.454999924,1,1,1
