"","participant","OvsN","PE_level","object_cat","obj_file","scn_file","corr_scn_cat","corr_scn_inst","scn_file.1","corr_loc","key_resp_id.keys","key_resp_id.rt","key_resp_conf.keys","key_resp_assoc.keys","key_resp_assoc.rt","key_resp_loc.keys","key_resp_loc.rt","trialN","id_acc","assoc.acc","cond_assoc","loc.acc","cond_loc","group"
"1",18,1,0.1,1,"stim/objects/Instruments/harp4.png","stim/54.jpeg",5,4,"stim/54.jpeg",2,"right",4.020999908,3,4,17.90199995,4,5.003999949,1,0,1,NA,0,NA,1
"2",18,1,0.7,1,"stim/objects/Instruments/electricguitar4.png","stim/41.jpeg",4,1,"stim/41.jpeg",3,"right",14.83599997,2,4,9.868999958,4,2.808999777,2,0,0,NA,0,NA,1
"3",18,2,0,2,"stim/objects/HouseObjects/pitcher.png","",0,0,"",0,"right",4.996000051,NA,NA,NA,NA,NA,3,1,NA,NA,NA,NA,1
"4",18,2,0,1,"stim/objects/Instruments/electricdrumset.png","",0,0,"",0,"right",2.03399992,NA,NA,NA,NA,NA,4,1,NA,NA,NA,NA,1
"5",18,1,0.9,1,"stim/objects/Instruments/xylophone4.png","stim/62.jpeg",6,2,"stim/62.jpeg",4,"right",7.864000082,2,4,9.680999994,4,5.205999851,5,0,0,NA,1,NA,1
"6",18,1,0.9,2,"stim/objects/HouseObjects/glassmop4.png","stim/54.jpeg",5,4,"stim/54.jpeg",3,"left",1.670999765,4,3,11.96099973,4,6.883999825,6,1,0,0,0,0,1
"7",18,2,0,2,"stim/objects/HouseObjects/ballofstring2.png","",0,0,"",0,"right",1.778999805,NA,NA,NA,NA,NA,7,1,NA,NA,NA,NA,1
"8",18,2,0,1,"stim/objects/Instruments/cymbal.png","",0,0,"",0,"right",1.405999899,NA,NA,NA,NA,NA,8,1,NA,NA,NA,NA,1
"9",18,1,0.1,2,"stim/objects/HouseObjects/wateringcan4.png","stim/64.jpeg",6,4,"stim/64.jpeg",2,"left",1.031999826,4,1,16.02200007,1,6.653000116,9,1,0,0,0,0,1
"10",18,1,0.7,1,"stim/objects/Instruments/electricdrumset4.png","stim/44.jpeg",4,4,"stim/44.jpeg",3,"right",5.782999992,4,3,2.161000013,1,4.368000031,10,0,0,NA,0,NA,1
"11",18,2,0,1,"stim/objects/Instruments/metronome.png","",0,0,"",0,"right",1.513999939,NA,NA,NA,NA,NA,11,1,NA,NA,NA,NA,1
"12",18,2,0,1,"stim/objects/Instruments/musicsheet.png","",0,0,"",0,"right",1.288000107,NA,NA,NA,NA,NA,12,1,NA,NA,NA,NA,1
"13",18,1,0.5,1,"stim/objects/HouseObjects/hairdryer3.png","stim/13.jpeg",1,3,"stim/13.jpeg",1,"left",1.542000055,4,3,9.846999884,2,1.752999783,13,1,1,1,0,0,1
"14",18,2,0,2,"stim/objects/HouseObjects/blender.png","",0,0,"",0,"right",1.639999866,NA,NA,NA,NA,NA,14,1,NA,NA,NA,NA,1
"15",18,1,0.9,1,"stim/objects/Instruments/vuvuzela4.png","stim/61.jpeg",6,1,"stim/61.jpeg",4,"left",1.125,4,2,5.403999805,4,4.337999821,15,1,0,0,1,1,1
"16",18,1,0.9,1,"stim/objects/Instruments/oboe4.png","stim/63.jpeg",6,3,"stim/63.jpeg",1,"right",1.980999947,4,2,3.15899992,1,3.744999886,16,0,0,NA,1,NA,1
"17",18,2,0,1,"stim/objects/Instruments/cello.png","",0,0,"",0,"right",6.41899991,NA,NA,NA,NA,NA,17,1,NA,NA,NA,NA,1
"18",18,2,0,2,"stim/objects/HouseObjects/bucket2.png","",0,0,"",0,"right",7.307999849,NA,NA,NA,NA,NA,18,1,NA,NA,NA,NA,1
"19",18,2,0,2,"stim/objects/HouseObjects/blender2.png","",0,0,"",0,"right",1.843999863,NA,NA,NA,NA,NA,19,1,NA,NA,NA,NA,1
"20",18,1,0.3,2,"stim/objects/HouseObjects/dishsoap4.png","stim/43.jpeg",4,3,"stim/43.jpeg",1,"left",1.167000055,4,1,6.971999884,2,5.346999884,20,1,0,0,0,0,1
"21",18,1,0.9,1,"stim/objects/Instruments/maraca4.png","stim/62.jpeg",6,2,"stim/62.jpeg",4,"left",2.544999838,4,3,10.11899996,4,2.846999884,21,1,0,0,1,1,1
"22",18,1,0.9,1,"stim/objects/Instruments/marimba4.png","stim/63.jpeg",6,3,"stim/63.jpeg",3,"left",4.617000103,4,1,4.096999884,4,3.365999937,22,1,0,0,0,0,1
"23",18,2,0,1,"stim/objects/Instruments/hihat.png","",0,0,"",0,"right",0.978999853,NA,NA,NA,NA,NA,23,1,NA,NA,NA,NA,1
"24",18,2,0,2,"stim/objects/HouseObjects/glassmop.png","",0,0,"",0,"right",9.222999811,NA,NA,NA,NA,NA,24,1,NA,NA,NA,NA,1
"25",18,1,0.9,2,"stim/objects/HouseObjects/flyswatter4.png","stim/51.jpeg",5,1,"stim/51.jpeg",1,"left",0.999000072,4,1,5.265999794,1,5.225999832,25,1,1,1,1,1,1
"26",18,1,0.5,1,"stim/objects/HouseObjects/handbrush3.png","stim/14.jpeg",1,4,"stim/14.jpeg",2,"left",1.48699975,4,3,4.4599998,2,2.012999773,26,1,0,0,1,1,1
"27",18,1,0.1,1,"stim/objects/Instruments/frenchhorn4.png","stim/53.jpeg",5,3,"stim/53.jpeg",4,"left",1.424999952,4,1,7.454999924,4,2.769999981,27,1,0,0,1,1,1
"28",18,2,0,1,"stim/objects/Instruments/laud.png","",0,0,"",0,"right",1.180999994,NA,NA,NA,NA,NA,28,1,NA,NA,NA,NA,1
"29",18,1,0.5,2,"stim/objects/HouseObjects/knife3.png","stim/22.jpeg",2,2,"stim/22.jpeg",2,"left",0.873000145,4,2,8.460999966,4,2.040999889,29,1,1,1,0,0,1
"30",18,2,0,1,"stim/objects/Instruments/frenchhorn.png","",0,0,"",0,"right",1.549000025,NA,NA,NA,NA,NA,30,1,NA,NA,NA,NA,1
"31",18,1,0.1,1,"stim/objects/Instruments/grandpiano4.png","stim/51.jpeg",5,1,"stim/51.jpeg",4,"right",1.330999851,4,2,3.165999889,4,3.390999794,31,0,0,NA,1,NA,1
"32",18,1,0.5,1,"stim/objects/HouseObjects/handvacuum3.png","stim/11.jpeg",1,1,"stim/11.jpeg",4,"left",0.939999819,4,4,4.852999926,2,1.667999983,32,1,0,0,0,0,1
"33",18,1,0.3,2,"stim/objects/HouseObjects/broom4.png","stim/44.jpeg",4,4,"stim/44.jpeg",2,"left",1.438999891,2,3,2.47699976,3,4.93599987,33,1,0,0,0,0,1
"34",18,2,0,2,"stim/objects/HouseObjects/bottle.png","",0,0,"",0,"right",0.890999794,NA,NA,NA,NA,NA,34,1,NA,NA,NA,NA,1
"35",18,1,0.3,2,"stim/objects/HouseObjects/blender4.png","stim/42.jpeg",4,2,"stim/42.jpeg",2,"right",8.108999968,1,2,1.370999813,3,1.141000032,35,0,1,NA,0,NA,1
"36",18,1,0.7,1,"stim/objects/Instruments/bassguitar4.png","stim/44.jpeg",4,4,"stim/44.jpeg",1,"left",1.837999821,4,1,4.178999901,4,3.061000109,36,1,0,0,0,0,1
"37",18,2,0,1,"stim/objects/Instruments/banjo.png","",0,0,"",0,"right",2.454999924,NA,NA,NA,NA,NA,37,1,NA,NA,NA,NA,1
"38",18,1,0.1,1,"stim/objects/Instruments/gong4.png","stim/54.jpeg",5,4,"stim/54.jpeg",2,"left",9.593999863,2,3,2.620999813,2,2.661999941,38,1,0,0,1,1,1
"39",18,1,0.3,2,"stim/objects/HouseObjects/bottle4.png","stim/43.jpeg",4,3,"stim/43.jpeg",3,"right",0.829999924,4,4,1.502999783,3,1.243999958,39,0,0,NA,1,NA,1
"40",18,1,0.7,1,"stim/objects/Instruments/doublebass4.png","stim/42.jpeg",4,2,"stim/42.jpeg",4,"left",2.284999847,1,2,1.269000053,4,2.427999973,40,1,1,1,1,1,1
"41",18,2,0,1,"stim/objects/Instruments/gong.png","",0,0,"",0,"right",1.541999817,NA,NA,NA,NA,NA,41,1,NA,NA,NA,NA,1
"42",18,2,0,2,"stim/objects/HouseObjects/pan.png","",0,0,"",0,"left",1.943999767,NA,NA,NA,NA,NA,42,0,NA,NA,NA,NA,1
"43",18,1,0.1,1,"stim/objects/Instruments/flutetrans4.png","stim/52.jpeg",5,2,"stim/52.jpeg",4,"right",3.13499999,3,2,1.56099987,3,1.125,43,0,1,NA,0,NA,1
"44",18,2,0,1,"stim/objects/Instruments/electricguitar2.png","",0,0,"",0,"right",1.279000044,NA,NA,NA,NA,NA,44,1,NA,NA,NA,NA,1
"45",18,1,0.3,1,"stim/objects/Instruments/bassdrum4.png","stim/32.jpeg",3,2,"stim/32.jpeg",3,"right",3.896999836,2,3,3.495999813,3,1.285999775,45,0,0,NA,1,NA,1
"46",18,2,0,1,"stim/objects/Instruments/flutetrans.png","",0,0,"",0,"right",1.147999763,NA,NA,NA,NA,NA,46,1,NA,NA,NA,NA,1
"47",18,2,0,2,"stim/objects/HouseObjects/handvacuum.png","",0,0,"",0,"right",6.121000051,NA,NA,NA,NA,NA,47,1,NA,NA,NA,NA,1
"48",18,2,0,1,"stim/objects/Instruments/vuvuzela.png","",0,0,"",0,"right",0.941999912,NA,NA,NA,NA,NA,48,1,NA,NA,NA,NA,1
"49",18,1,0.3,1,"stim/objects/Instruments/acousticguitar4.png","stim/33.jpeg",3,3,"stim/33.jpeg",3,"right",1.488999844,2,3,1.061999798,3,1.312000036,49,0,1,NA,1,NA,1
"50",18,1,0.5,2,"stim/objects/Instruments/metronome3.png","stim/24.jpeg",2,4,"stim/24.jpeg",2,"left",1.822999954,4,2,1.760999918,4,12.25999999,50,1,0,0,0,0,1
"51",18,2,0,1,"stim/objects/Instruments/bassguitar2.png","",0,0,"",0,"right",0.912999868,NA,NA,NA,NA,NA,51,1,NA,NA,NA,NA,1
"52",18,2,0,2,"stim/objects/HouseObjects/ballofstring.png","",0,0,"",0,"right",0.995999813,NA,NA,NA,NA,NA,52,1,NA,NA,NA,NA,1
"53",18,2,0,1,"stim/objects/Instruments/oboe.png","",0,0,"",0,"right",1.129999876,NA,NA,NA,NA,NA,53,1,NA,NA,NA,NA,1
"54",18,1,0.1,2,"stim/objects/HouseObjects/towel4.png","stim/62.jpeg",6,2,"stim/62.jpeg",2,"left",0.964999914,4,3,4.71999979,2,3.84100008,54,1,0,0,1,1,1
"55",18,1,0.9,1,"stim/objects/Instruments/musicsheet4.png","stim/61.jpeg",6,1,"stim/61.jpeg",1,"left",1.199999809,3,1,4.595000029,2,1.628999949,55,1,1,1,0,0,1
"56",18,1,0.5,2,"stim/objects/Instruments/musicsheet3.png","stim/21.jpeg",2,1,"stim/21.jpeg",1,"right",6.746999979,2,2,1.171999931,3,1.556999922,56,0,0,NA,0,NA,1
"57",18,2,0,1,"stim/objects/Instruments/harmonica.png","",0,0,"",0,"right",1.024999857,NA,NA,NA,NA,NA,57,1,NA,NA,NA,NA,1
"58",18,1,0.3,2,"stim/objects/HouseObjects/coffee4.png","stim/41.jpeg",4,1,"stim/41.jpeg",3,"left",0.993999958,4,1,7.40199995,3,1.076999903,58,1,1,1,1,1,1
"59",18,2,0,2,"stim/objects/HouseObjects/broom.png","",0,0,"",0,"right",0.953000069,NA,NA,NA,NA,NA,59,1,NA,NA,NA,NA,1
"60",18,1,0.7,2,"stim/objects/HouseObjects/basket4.png","stim/32.jpeg",3,2,"stim/32.jpeg",2,"left",0.872999907,4,1,5.015999794,2,1.895999908,60,1,0,0,1,1,1
"61",18,1,0.7,1,"stim/objects/Instruments/drums4.png","stim/43.jpeg",4,3,"stim/43.jpeg",4,"left",1.099999905,4,3,3.03399992,3,1.161000013,61,1,1,1,0,0,1
"62",18,1,0.9,2,"stim/objects/HouseObjects/doormat4.png","stim/53.jpeg",5,3,"stim/53.jpeg",1,"left",1.279999971,4,3,16.06999993,1,1.039999962,62,1,1,1,1,1,1
"63",18,2,0,2,"stim/objects/HouseObjects/glass.png","",0,0,"",0,"right",1.009000063,NA,NA,NA,NA,NA,63,1,NA,NA,NA,NA,1
"64",18,2,0,2,"stim/objects/HouseObjects/garbagebin.png","",0,0,"",0,"right",0.646999836,NA,NA,NA,NA,NA,64,1,NA,NA,NA,NA,1
"65",18,1,0.3,1,"stim/objects/Instruments/oboe3.png","stim/32.jpeg",3,2,"stim/32.jpeg",4,"right",0.868000031,4,4,2.075000048,3,1.257999897,65,0,0,NA,0,NA,1
"66",18,1,0.9,2,"stim/objects/HouseObjects/handbrush4.png","stim/52.jpeg",5,2,"stim/52.jpeg",1,"right",1.356999874,3,2,1.320999861,3,1.000999928,66,0,1,NA,0,NA,1
"67",18,2,0,2,"stim/objects/HouseObjects/towel.png","",0,0,"",0,"right",1.023999929,NA,NA,NA,NA,NA,67,1,NA,NA,NA,NA,1
"68",18,1,0.7,1,"stim/objects/Instruments/chime4.png","stim/42.jpeg",4,2,"stim/42.jpeg",4,"left",1.335999966,4,3,11.29699993,4,2.359999895,68,1,0,0,1,1,1
"69",18,1,0.5,2,"stim/objects/Instruments/maraca3.png","stim/22.jpeg",2,2,"stim/22.jpeg",3,"left",1.095999956,4,3,2.598999977,1,5.187999964,69,1,0,0,0,0,1
"70",18,2,0,1,"stim/objects/Instruments/accordion2.png","",0,0,"",0,"right",1.034999847,NA,NA,NA,NA,NA,70,1,NA,NA,NA,NA,1
"71",18,2,0,1,"stim/objects/Instruments/clarinet2.png","",0,0,"",0,"right",0.904999971,NA,NA,NA,NA,NA,71,1,NA,NA,NA,NA,1
"72",18,2,0,2,"stim/objects/HouseObjects/clothesdryingrack.png","",0,0,"",0,"right",0.74000001,NA,NA,NA,NA,NA,72,1,NA,NA,NA,NA,1
"73",18,1,0.3,2,"stim/objects/HouseObjects/bucket4.png","stim/41.jpeg",4,1,"stim/41.jpeg",1,"left",1.773000002,3,1,3.853999853,4,0.92599988,73,1,1,1,0,0,1
"74",18,1,0.3,2,"stim/objects/HouseObjects/clothesdryingrack4.png","stim/43.jpeg",4,3,"stim/43.jpeg",2,"left",0.848999977,4,4,3.437999964,2,0.967000008,74,1,0,0,1,1,1
"75",18,2,0,1,"stim/objects/Instruments/violin.png","",0,0,"",0,"right",2.394999981,NA,NA,NA,NA,NA,75,1,NA,NA,NA,NA,1
"76",18,2,0,2,"stim/objects/HouseObjects/ashtray.png","",0,0,"",0,"right",0.877999783,NA,NA,NA,NA,NA,76,1,NA,NA,NA,NA,1
"77",18,1,0.3,1,"stim/objects/Instruments/balalaika4.png","stim/34.jpeg",3,4,"stim/34.jpeg",2,"right",2.812000036,2,3,1.506000042,4,0.970999956,77,0,0,NA,0,NA,1
"78",18,2,0,1,"stim/objects/Instruments/grandpiano.png","",0,0,"",0,"right",0.739999771,NA,NA,NA,NA,NA,78,1,NA,NA,NA,NA,1
"79",18,1,0.1,1,"stim/objects/Instruments/hihat4.png","stim/51.jpeg",5,1,"stim/51.jpeg",2,"left",1.35800004,4,1,7.123999834,4,1.486999989,79,1,1,1,0,0,1
"80",18,1,0.7,2,"stim/objects/HouseObjects/wateringcan3.png","stim/32.jpeg",3,2,"stim/32.jpeg",3,"left",0.992999792,4,4,4.062000036,4,1.691999912,80,1,0,0,0,0,1
"81",18,2,0,2,"stim/objects/HouseObjects/coffee2.png","",0,0,"",0,"right",1.028999805,NA,NA,NA,NA,NA,81,1,NA,NA,NA,NA,1
"82",18,2,0,2,"stim/objects/HouseObjects/wateringcan.png","",0,0,"",0,"right",1.017999887,NA,NA,NA,NA,NA,82,1,NA,NA,NA,NA,1
"83",18,1,0.9,1,"stim/objects/Instruments/musicstand4.png","stim/62.jpeg",6,2,"stim/62.jpeg",2,"left",1.263999939,4,2,7.523999929,2,1.655999899,83,1,1,1,1,1,1
"84",18,1,0.9,2,"stim/objects/HouseObjects/iron4.png","stim/54.jpeg",5,4,"stim/54.jpeg",2,"left",1.730000019,4,4,12.10099983,2,1.105000019,84,1,1,1,1,1,1
"85",18,2,0,2,"stim/objects/HouseObjects/coffee.png","",0,0,"",0,"right",0.965999842,NA,NA,NA,NA,NA,85,1,NA,NA,NA,NA,1
"86",18,2,0,1,"stim/objects/Instruments/doublebass.png","",0,0,"",0,"right",1.046000004,NA,NA,NA,NA,NA,86,1,NA,NA,NA,NA,1
"87",18,2,0,2,"stim/objects/HouseObjects/clock.png","",0,0,"",0,"left",1.56799984,NA,NA,NA,NA,NA,87,0,NA,NA,NA,NA,1
"88",18,1,0.7,1,"stim/objects/Instruments/clarinet4.png","stim/43.jpeg",4,3,"stim/43.jpeg",3,"right",2.70299983,3,3,1.013999939,4,0.927999973,88,0,1,NA,0,NA,1
"89",18,2,0,2,"stim/objects/HouseObjects/broom2.png","",0,0,"",0,"right",0.861999989,NA,NA,NA,NA,NA,89,1,NA,NA,NA,NA,1
"90",18,2,0,1,"stim/objects/Instruments/acousticguitar.png","",0,0,"",0,"right",0.808999777,NA,NA,NA,NA,NA,90,1,NA,NA,NA,NA,1
"91",18,2,0,2,"stim/objects/HouseObjects/basket2.png","",0,0,"",0,"right",0.763000011,NA,NA,NA,NA,NA,91,1,NA,NA,NA,NA,1
"92",18,1,0.1,1,"stim/objects/Instruments/flute4.png","stim/51.jpeg",5,1,"stim/51.jpeg",3,"right",0.93599987,4,2,1.037999868,2,0.534999847,92,0,0,NA,0,NA,1
"93",18,2,0,1,"stim/objects/Instruments/balalaika2.png","",0,0,"",0,"right",1.047999859,NA,NA,NA,NA,NA,93,1,NA,NA,NA,NA,1
"94",18,2,0,2,"stim/objects/HouseObjects/bucket.png","",0,0,"",0,"right",1.140000105,NA,NA,NA,NA,NA,94,1,NA,NA,NA,NA,1
"95",18,2,0,2,"stim/objects/HouseObjects/match.png","",0,0,"",0,"right",1.208999872,NA,NA,NA,NA,NA,95,1,NA,NA,NA,NA,1
"96",18,2,0,2,"stim/objects/HouseObjects/clock2.png","",0,0,"",0,"right",1.279999971,NA,NA,NA,NA,NA,96,1,NA,NA,NA,NA,1
"97",18,2,0,1,"stim/objects/Instruments/guitarcase.png","",0,0,"",0,"right",0.878999949,NA,NA,NA,NA,NA,97,1,NA,NA,NA,NA,1
"98",18,1,0.7,2,"stim/objects/HouseObjects/barbecuelighter4.png","stim/31.jpeg",3,1,"stim/31.jpeg",1,"left",1.714999914,4,2,2.748999834,2,0.900000095,98,1,0,0,0,0,1
"99",18,1,0.5,2,"stim/objects/HouseObjects/lintroller3.png","stim/23.jpeg",2,3,"stim/23.jpeg",3,"left",1.19299984,4,1,8.503000021,4,1.470000029,99,1,0,0,0,0,1
"100",18,1,0.1,2,"stim/objects/HouseObjects/knife4.png","stim/61.jpeg",6,1,"stim/61.jpeg",3,"left",1.074999809,4,1,7.720999956,3,0.97699976,100,1,1,1,1,1,1
"101",18,1,0.7,2,"stim/objects/HouseObjects/pitcher3.png","stim/33.jpeg",3,3,"stim/33.jpeg",2,"left",1.312999964,4,2,2.645999908,2,0.650000095,101,1,0,0,1,1,1
"102",18,1,0.5,1,"stim/objects/Instruments/hihat3.png","stim/12.jpeg",1,2,"stim/12.jpeg",3,"right",1.468999863,3,3,1.554999828,3,0.930000067,102,0,0,NA,1,NA,1
"103",18,2,0,1,"stim/objects/Instruments/bassdrum2.png","",0,0,"",0,"right",0.763000011,NA,NA,NA,NA,NA,103,1,NA,NA,NA,NA,1
"104",18,2,0,1,"stim/objects/Instruments/harp.png","",0,0,"",0,"right",0.816999912,NA,NA,NA,NA,NA,104,1,NA,NA,NA,NA,1
"105",18,1,0.5,1,"stim/objects/Instruments/keyboard3.png","stim/13.jpeg",1,3,"stim/13.jpeg",2,"left",1.545000076,4,3,5.971999884,2,0.555000067,105,1,1,1,1,1,1
"106",18,2,0,2,"stim/objects/HouseObjects/bleachbottle.png","",0,0,"",0,"right",0.69900012,NA,NA,NA,NA,NA,106,1,NA,NA,NA,NA,1
"107",18,1,0.7,2,"stim/objects/HouseObjects/towel3.png","stim/34.jpeg",3,4,"stim/34.jpeg",2,"right",3.911999941,2,2,1.566999912,2,1.231999874,107,0,0,NA,1,NA,1
"108",18,1,0.1,2,"stim/objects/HouseObjects/pitcher4.png","stim/61.jpeg",6,1,"stim/61.jpeg",4,"right",0.665999889,2,3,1.475000143,2,1.184999943,108,0,0,NA,0,NA,1
"109",18,1,0.7,1,"stim/objects/Instruments/cymbal4.png","stim/41.jpeg",4,1,"stim/41.jpeg",2,"right",1.073999882,3,2,1.905999899,3,0.944999933,109,0,0,NA,0,NA,1
"110",18,1,0.9,2,"stim/objects/HouseObjects/handvacuum4.png","stim/53.jpeg",5,3,"stim/53.jpeg",3,"right",1.711999893,1,2,3.036000013,2,0.558999777,110,0,0,NA,0,NA,1
"111",18,1,0.1,1,"stim/objects/Instruments/guitarcase4.png","stim/52.jpeg",5,2,"stim/52.jpeg",2,"right",1.008999825,3,2,1.157000065,3,1.241999865,111,0,1,NA,0,NA,1
"112",18,2,0,2,"stim/objects/HouseObjects/ashtray2.png","",0,0,"",0,"right",0.80099988,NA,NA,NA,NA,NA,112,1,NA,NA,NA,NA,1
"113",18,2,0,2,"stim/objects/HouseObjects/barbecuelighter.png","",0,0,"",0,"right",0.719000101,NA,NA,NA,NA,NA,113,1,NA,NA,NA,NA,1
"114",18,2,0,2,"stim/objects/HouseObjects/cushion.png","",0,0,"",0,"right",0.594000101,NA,NA,NA,NA,NA,114,1,NA,NA,NA,NA,1
"115",18,1,0.3,2,"stim/objects/HouseObjects/cushion4.png","stim/42.jpeg",4,2,"stim/42.jpeg",2,"right",0.628000021,2,3,2.470999956,1,1.519999743,115,0,0,NA,0,NA,1
"116",18,2,0,1,"stim/objects/Instruments/drums.png","",0,0,"",0,"right",1.48300004,NA,NA,NA,NA,NA,116,1,NA,NA,NA,NA,1
"117",18,1,0.9,1,"stim/objects/Instruments/laud4.png","stim/61.jpeg",6,1,"stim/61.jpeg",2,"left",1.724999905,4,4,3.210999966,2,1.747999907,117,1,0,0,1,1,1
"118",18,2,0,2,"stim/objects/HouseObjects/vacuumcleaner.png","",0,0,"",0,"right",1.441999912,NA,NA,NA,NA,NA,118,1,NA,NA,NA,NA,1
"119",18,1,0.1,1,"stim/objects/Instruments/harmonica4.png","stim/53.jpeg",5,3,"stim/53.jpeg",3,"left",1.118999958,4,2,7.467000008,3,0.857000113,119,1,0,0,1,1,1
"120",18,1,0.7,1,"stim/objects/Instruments/cornet4.png","stim/44.jpeg",4,4,"stim/44.jpeg",4,"left",1.894000053,3,3,3.062999964,3,1.195999861,120,1,0,0,0,0,1
"121",18,2,0,1,"stim/objects/Instruments/keyboard.png","",0,0,"",0,"right",0.835999966,NA,NA,NA,NA,NA,121,1,NA,NA,NA,NA,1
"122",18,2,0,2,"stim/objects/HouseObjects/dishsoap.png","",0,0,"",0,"right",0.890000105,NA,NA,NA,NA,NA,122,1,NA,NA,NA,NA,1
"123",18,2,0,2,"stim/objects/HouseObjects/handbrush.png","",0,0,"",0,"right",0.769999743,NA,NA,NA,NA,NA,123,1,NA,NA,NA,NA,1
"124",18,2,0,2,"stim/objects/HouseObjects/bleachbottle2.png","",0,0,"",0,"right",1.129999876,NA,NA,NA,NA,NA,124,1,NA,NA,NA,NA,1
"125",18,1,0.3,1,"stim/objects/Instruments/musicstand3.png","stim/31.jpeg",3,1,"stim/31.jpeg",2,"left",1.224999905,4,2,2.396999836,4,1.114000082,125,1,0,0,0,0,1
"126",18,2,0,1,"stim/objects/Instruments/acousticguitar2.png","",0,0,"",0,"right",0.890000105,NA,NA,NA,NA,NA,126,1,NA,NA,NA,NA,1
"127",18,2,0,2,"stim/objects/HouseObjects/clothespin.png","",0,0,"",0,"right",5.556999922,NA,NA,NA,NA,NA,127,1,NA,NA,NA,NA,1
"128",18,2,0,1,"stim/objects/Instruments/cymbal2.png","",0,0,"",0,"right",1.110999823,NA,NA,NA,NA,NA,128,1,NA,NA,NA,NA,1
"129",18,2,0,2,"stim/objects/HouseObjects/key.png","",0,0,"",0,"right",1.081999779,NA,NA,NA,NA,NA,129,1,NA,NA,NA,NA,1
"130",18,2,0,2,"stim/objects/HouseObjects/clothesdryingrack2.png","",0,0,"",0,"right",0.90199995,NA,NA,NA,NA,NA,130,1,NA,NA,NA,NA,1
"131",18,1,0.3,1,"stim/objects/Instruments/banjo4.png","stim/31.jpeg",3,1,"stim/31.jpeg",3,"right",0.970999718,3,4,1.631999969,3,1.252999783,131,0,0,NA,1,NA,1
"132",18,2,0,1,"stim/objects/Instruments/balalaika.png","",0,0,"",0,"right",0.779000044,NA,NA,NA,NA,NA,132,1,NA,NA,NA,NA,1
"133",18,2,0,1,"stim/objects/Instruments/drums2.png","",0,0,"",0,"right",0.944999933,NA,NA,NA,NA,NA,133,1,NA,NA,NA,NA,1
"134",18,1,0.1,2,"stim/objects/HouseObjects/key4.png","stim/64.jpeg",6,4,"stim/64.jpeg",4,"right",1.27699995,2,3,1.261999846,3,1.197999954,134,0,0,NA,0,NA,1
"135",18,2,0,2,"stim/objects/HouseObjects/flyswatter.png","",0,0,"",0,"right",0.905999899,NA,NA,NA,NA,NA,135,1,NA,NA,NA,NA,1
"136",18,2,0,2,"stim/objects/HouseObjects/knife.png","",0,0,"",0,"right",0.933000088,NA,NA,NA,NA,NA,136,1,NA,NA,NA,NA,1
"137",18,2,0,1,"stim/objects/Instruments/bassdrum.png","",0,0,"",0,"right",0.724999905,NA,NA,NA,NA,NA,137,1,NA,NA,NA,NA,1
"138",18,1,0.5,2,"stim/objects/HouseObjects/ironingboard3.png","stim/24.jpeg",2,4,"stim/24.jpeg",1,"left",1.083999872,4,3,2.761999846,1,1.243000031,138,1,0,0,1,1,1
"139",18,2,0,1,"stim/objects/Instruments/chime2.png","",0,0,"",0,"right",0.805999994,NA,NA,NA,NA,NA,139,1,NA,NA,NA,NA,1
"140",18,2,0,1,"stim/objects/Instruments/clarinet.png","",0,0,"",0,"right",0.778999805,NA,NA,NA,NA,NA,140,1,NA,NA,NA,NA,1
"141",18,1,0.9,2,"stim/objects/HouseObjects/glass4.png","stim/53.jpeg",5,3,"stim/53.jpeg",4,"left",0.980999947,4,2,9.172999859,1,5.513999939,141,1,0,0,0,0,1
"142",18,2,0,2,"stim/objects/HouseObjects/cushion2.png","",0,0,"",0,"right",0.784999847,NA,NA,NA,NA,NA,142,1,NA,NA,NA,NA,1
"143",18,1,0.7,1,"stim/objects/Instruments/cello4.png","stim/41.jpeg",4,1,"stim/41.jpeg",1,"left",3.227999926,3,1,1.833999872,3,1.368999958,143,1,1,1,0,0,1
"144",18,1,0.7,2,"stim/objects/HouseObjects/ashtray4.png","stim/33.jpeg",3,3,"stim/33.jpeg",1,"right",0.953999996,4,3,2.450999975,4,0.892999887,144,0,1,NA,0,NA,1
"145",18,2,0,1,"stim/objects/Instruments/flute.png","",0,0,"",0,"right",0.920999765,NA,NA,NA,NA,NA,145,1,NA,NA,NA,NA,1
"146",18,1,0.1,2,"stim/objects/HouseObjects/match4.png","stim/63.jpeg",6,3,"stim/63.jpeg",2,"left",1.339999914,4,4,3.815000057,2,1.819000006,146,1,0,0,1,1,1
"147",18,2,0,2,"stim/objects/HouseObjects/bottle2.png","",0,0,"",0,"right",0.620999813,NA,NA,NA,NA,NA,147,1,NA,NA,NA,NA,1
"148",18,1,0.5,1,"stim/objects/Instruments/harp3.png","stim/11.jpeg",1,1,"stim/11.jpeg",2,"right",0.809999943,1,2,1.325999975,2,1.506000042,148,0,0,NA,1,NA,1
"149",18,1,0.1,2,"stim/objects/HouseObjects/ironingboard4.png","stim/63.jpeg",6,3,"stim/63.jpeg",4,"right",0.736999989,4,3,1.972000122,4,0.434999943,149,0,1,NA,1,NA,1
"150",18,2,0,2,"stim/objects/HouseObjects/clothespin2.png","",0,0,"",0,"right",0.862999916,NA,NA,NA,NA,NA,150,1,NA,NA,NA,NA,1
"151",18,1,0.1,2,"stim/objects/HouseObjects/lintroller4.png","stim/62.jpeg",6,2,"stim/62.jpeg",4,"left",1.052000046,4,3,5.248999834,4,1.305000067,151,1,0,0,1,1,1
"152",18,1,0.5,2,"stim/objects/Instruments/marimba3.png","stim/23.jpeg",2,3,"stim/23.jpeg",2,"right",11.12299991,2,3,2.02699995,4,2.16899991,152,0,1,NA,0,NA,1
"153",18,1,0.3,2,"stim/objects/HouseObjects/clothespin4.png","stim/44.jpeg",4,4,"stim/44.jpeg",4,"right",1.309000015,3,2,1.282999992,3,1.21999979,153,0,0,NA,0,NA,1
"154",18,2,0,2,"stim/objects/HouseObjects/lintroller.png","",0,0,"",0,"right",1.040999889,NA,NA,NA,NA,NA,154,1,NA,NA,NA,NA,1
"155",18,1,0.7,2,"stim/objects/HouseObjects/ballofstring4.png","stim/34.jpeg",3,4,"stim/34.jpeg",4,"left",1.401000023,4,1,5.924000025,4,0.934999943,155,1,0,0,1,1,1
"156",18,2,0,2,"stim/objects/HouseObjects/hairdryer.png","",0,0,"",0,"right",0.864000082,NA,NA,NA,NA,NA,156,1,NA,NA,NA,NA,1
"157",18,1,0.5,1,"stim/objects/HouseObjects/glassmop3.png","stim/12.jpeg",1,2,"stim/12.jpeg",4,"left",1.165999889,2,3,1.626999855,4,1.342999935,157,1,0,0,1,1,1
"158",18,2,0,1,"stim/objects/Instruments/cello2.png","",0,0,"",0,"right",0.76699996,NA,NA,NA,NA,NA,158,1,NA,NA,NA,NA,1
"159",18,1,0.5,1,"stim/objects/HouseObjects/iron3.png","stim/12.jpeg",1,2,"stim/12.jpeg",2,"right",0.845000029,4,4,1.440000057,4,0.595999956,159,0,0,NA,0,NA,1
"160",18,2,0,1,"stim/objects/Instruments/cornet.png","",0,0,"",0,"left",1.441999912,NA,NA,NA,NA,NA,160,0,NA,NA,NA,NA,1
"161",18,1,0.9,1,"stim/objects/Instruments/violin4.png","stim/64.jpeg",6,4,"stim/64.jpeg",3,"right",2.309999943,3,2,1.006000042,3,1.126999855,161,0,0,NA,1,NA,1
"162",18,2,0,2,"stim/objects/HouseObjects/ironingboard.png","",0,0,"",0,"right",0.723999977,NA,NA,NA,NA,NA,162,1,NA,NA,NA,NA,1
"163",18,1,0.5,1,"stim/objects/Instruments/harmonica3.png","stim/14.jpeg",1,4,"stim/14.jpeg",3,"right",2.600999832,2,2,1.062000036,3,0.904999971,163,0,0,NA,1,NA,1
"164",18,2,0,2,"stim/objects/HouseObjects/doormat.png","",0,0,"",0,"right",1.328999996,NA,NA,NA,NA,NA,164,1,NA,NA,NA,NA,1
"165",18,1,0.5,2,"stim/objects/HouseObjects/key3.png","stim/21.jpeg",2,1,"stim/21.jpeg",4,"left",0.922999859,4,2,2.329999924,4,1.902999878,165,1,0,0,1,1,1
"166",18,2,0,1,"stim/objects/Instruments/electricdrumset2.png","",0,0,"",0,"right",0.970000029,NA,NA,NA,NA,NA,166,1,NA,NA,NA,NA,1
"167",18,2,0,1,"stim/objects/Instruments/chime.png","",0,0,"",0,"right",0.739999771,NA,NA,NA,NA,NA,167,1,NA,NA,NA,NA,1
"168",18,2,0,2,"stim/objects/HouseObjects/dishsoap2.png","",0,0,"",0,"right",0.763999939,NA,NA,NA,NA,NA,168,1,NA,NA,NA,NA,1
"169",18,2,0,1,"stim/objects/Instruments/cornet2.png","",0,0,"",0,"right",1.190000057,NA,NA,NA,NA,NA,169,1,NA,NA,NA,NA,1
"170",18,2,0,2,"stim/objects/HouseObjects/iron.png","",0,0,"",0,"right",0.740999937,NA,NA,NA,NA,NA,170,1,NA,NA,NA,NA,1
"171",18,1,0.3,1,"stim/objects/Instruments/xylophone3.png","stim/31.jpeg",3,1,"stim/31.jpeg",3,"right",0.761999846,4,2,1.02699995,3,1.121000051,171,0,0,NA,1,NA,1
"172",18,2,0,1,"stim/objects/Instruments/musicstand.png","",0,0,"",0,"right",0.681999922,NA,NA,NA,NA,NA,172,1,NA,NA,NA,NA,1
"173",18,2,0,2,"stim/objects/HouseObjects/barbecuelighter2.png","",0,0,"",0,"right",0.903999805,NA,NA,NA,NA,NA,173,1,NA,NA,NA,NA,1
"174",18,1,0.3,1,"stim/objects/Instruments/violin3.png","stim/33.jpeg",3,3,"stim/33.jpeg",1,"right",1.217999935,4,2,1.419999838,3,1.036999941,174,0,0,NA,0,NA,1
"175",18,1,0.3,2,"stim/objects/HouseObjects/clock4.png","stim/42.jpeg",4,2,"stim/42.jpeg",2,"right",0.678999901,4,3,1.230999947,2,0.979000092,175,0,0,NA,1,NA,1
"176",18,1,0.3,1,"stim/objects/Instruments/vuvuzela3.png","stim/34.jpeg",3,4,"stim/34.jpeg",4,"left",1.830999851,4,2,2.641000032,4,0.915999889,176,1,0,0,1,1,1
"177",18,1,0.5,2,"stim/objects/Instruments/laud3.png","stim/21.jpeg",2,1,"stim/21.jpeg",1,"right",1.142999887,2,4,2.720999956,2,2.983999968,177,0,0,NA,0,NA,1
"178",18,1,0.7,2,"stim/objects/HouseObjects/bleachbottle4.png","stim/33.jpeg",3,3,"stim/33.jpeg",2,"left",5.523000002,2,3,1.750999928,2,0.871999979,178,1,1,1,1,1,1
"179",18,2,0,1,"stim/objects/Instruments/electricguitar.png","",0,0,"",0,"right",0.780999899,NA,NA,NA,NA,NA,179,1,NA,NA,NA,NA,1
"180",18,1,0.9,1,"stim/objects/Instruments/metronome4.png","stim/64.jpeg",6,4,"stim/64.jpeg",2,"right",4.628000021,3,1,1.5849998,4,1.421999931,180,0,0,NA,0,NA,1
"181",18,2,0,1,"stim/objects/Instruments/bassguitar.png","",0,0,"",0,"right",0.715999842,NA,NA,NA,NA,NA,181,1,NA,NA,NA,NA,1
"182",18,2,0,1,"stim/objects/Instruments/maraca.png","",0,0,"",0,"right",1.450999975,NA,NA,NA,NA,NA,182,1,NA,NA,NA,NA,1
"183",18,2,0,2,"stim/objects/HouseObjects/basket.png","",0,0,"",0,"right",1.057999849,NA,NA,NA,NA,NA,183,1,NA,NA,NA,NA,1
"184",18,1,0.9,2,"stim/objects/HouseObjects/dustpan4.png","stim/54.jpeg",5,4,"stim/54.jpeg",2,"right",0.990999937,4,3,1.386999846,4,1.217000008,184,0,0,NA,0,NA,1
"185",18,2,0,1,"stim/objects/Instruments/banjo2.png","",0,0,"",0,"right",0.65899992,NA,NA,NA,NA,NA,185,1,NA,NA,NA,NA,1
"186",18,1,0.5,1,"stim/objects/Instruments/guitarcase3.png","stim/13.jpeg",1,3,"stim/13.jpeg",1,"left",4.478000164,2,3,6.467999935,2,0.891000032,186,1,1,1,0,0,1
"187",18,1,0.7,2,"stim/objects/HouseObjects/vacuumcleaner3.png","stim/31.jpeg",3,1,"stim/31.jpeg",3,"right",5.718999863,3,2,1.115999937,4,2.557999849,187,0,0,NA,0,NA,1
"188",18,1,0.1,1,"stim/objects/Instruments/keyboard4.png","stim/52.jpeg",5,2,"stim/52.jpeg",4,"right",0.758999825,4,2,0.864999771,4,1.068999767,188,0,1,NA,1,NA,1
"189",18,2,0,1,"stim/objects/Instruments/xylophone.png","",0,0,"",0,"right",0.832999945,NA,NA,NA,NA,NA,189,1,NA,NA,NA,NA,1
"190",18,1,0.1,2,"stim/objects/HouseObjects/pan4.png","stim/64.jpeg",6,4,"stim/64.jpeg",2,"right",1.090999842,4,4,1.194999933,4,1.199999809,190,0,1,NA,0,NA,1
"191",18,2,0,1,"stim/objects/Instruments/accordion.png","",0,0,"",0,"right",0.704999924,NA,NA,NA,NA,NA,191,1,NA,NA,NA,NA,1
"192",18,1,0.3,1,"stim/objects/Instruments/accordion4.png","stim/32.jpeg",3,2,"stim/32.jpeg",4,"left",1.581999779,3,2,3.092999935,4,0.91899991,192,1,1,1,1,1,1
"193",18,2,0,2,"stim/objects/HouseObjects/dustpan.png","",0,0,"",0,"right",1.707999945,NA,NA,NA,NA,NA,193,1,NA,NA,NA,NA,1
"194",18,1,0.1,2,"stim/objects/HouseObjects/vacuumcleaner4.png","stim/63.jpeg",6,3,"stim/63.jpeg",4,"left",7.617000103,2,2,1.812000036,2,2.247999907,194,1,0,0,0,0,1
"195",18,1,0.7,2,"stim/objects/HouseObjects/pan3.png","stim/32.jpeg",3,2,"stim/32.jpeg",2,"right",1.075999975,3,2,1.009999752,3,0.995000124,195,0,1,NA,0,NA,1
"196",18,1,0.9,2,"stim/objects/HouseObjects/hairdryer4.png","stim/51.jpeg",5,1,"stim/51.jpeg",4,"right",11.98600006,3,2,1.552999973,2,1.090999842,196,0,0,NA,0,NA,1
"197",18,1,0.5,2,"stim/objects/HouseObjects/match3.png","stim/24.jpeg",2,4,"stim/24.jpeg",3,"left",1.028999805,4,4,7.718999863,4,1.08100009,197,1,1,1,0,0,1
"198",18,1,0.9,2,"stim/objects/HouseObjects/garbagebin4.png","stim/52.jpeg",5,2,"stim/52.jpeg",1,"left",1.190999985,4,2,4.233999729,1,0.944999933,198,1,1,1,1,1,1
"199",18,2,0,1,"stim/objects/Instruments/doublebass2.png","",0,0,"",0,"right",1.086999893,NA,NA,NA,NA,NA,199,1,NA,NA,NA,NA,1
"200",18,2,0,1,"stim/objects/Instruments/marimba.png","",0,0,"",0,"right",0.82400012,NA,NA,NA,NA,NA,200,1,NA,NA,NA,NA,1
