"","obj_file","X.x","participant.x","trialN.x","trial_cond","scn_file.x","scn_cat","scn_inst","scn_condition","fillers","obj_cat","obj_cat_num","quadrant","corr_ans","key_resp_trial.keys","key_resp_trial.rt","trial_acc","trial_acc_manual","group.x","practice","X.y","participant.y","OvsN","PE_level","object_cat","scn_file.y","corr_scn_cat","corr_scn_inst","scn_file.1","corr_loc","key_resp_id.keys","key_resp_id.rt","key_resp_conf.keys","key_resp_assoc.keys","key_resp_assoc.rt","key_resp_loc.keys","key_resp_loc.rt","trialN.y","id_acc","assoc.acc","cond_assoc","loc.acc","cond_loc","group.y"
"187","stim/objects/Instruments/timbal.png",1,63,1,0.5,"stim/24.jpeg",2,4,1,NA,"Instruments",1,3,"left","",NA,0,0,0,1,NA,NA,NA,NA,NA,NA,NA,NA,NA,NA,NA,NA,NA,NA,NA,NA,NA,NA,NA,NA,NA,NA,NA,NA
"52","stim/objects/HouseObjects/saw2.png",2,63,2,0.9,"stim/52.jpeg",5,2,3,NA,"HouseObjects",2,3,"right","right",0.811000109,1,1,0,1,NA,NA,NA,NA,NA,NA,NA,NA,NA,NA,NA,NA,NA,NA,NA,NA,NA,NA,NA,NA,NA,NA,NA,NA
"205","stim/objects/Instruments/trombone.png",3,63,3,0.3,"stim/32.jpeg",3,2,2,NA,"Instruments",1,2,"left","right",0.720000029,0,0,0,1,NA,NA,NA,NA,NA,NA,NA,NA,NA,NA,NA,NA,NA,NA,NA,NA,NA,NA,NA,NA,NA,NA,NA,NA
"75","stim/objects/HouseObjects/sponge.png",4,63,4,0.5,"stim/24.jpeg",2,4,1,NA,"HouseObjects",2,2,"right","right",0.845999956,1,1,0,1,NA,NA,NA,NA,NA,NA,NA,NA,NA,NA,NA,NA,NA,NA,NA,NA,NA,NA,NA,NA,NA,NA,NA,NA
"47","stim/objects/HouseObjects/saw.png",5,63,5,0.5,"stim/22.jpeg",2,2,1,NA,"HouseObjects",2,3,"right","",NA,0,0,0,1,NA,NA,NA,NA,NA,NA,NA,NA,NA,NA,NA,NA,NA,NA,NA,NA,NA,NA,NA,NA,NA,NA,NA,NA
"53","stim/objects/HouseObjects/saw2.png",6,63,6,0.9,"stim/52.jpeg",5,2,3,NA,"HouseObjects",2,4,"right","right",0.65899992,1,1,0,1,NA,NA,NA,NA,NA,NA,NA,NA,NA,NA,NA,NA,NA,NA,NA,NA,NA,NA,NA,NA,NA,NA,NA,NA
"9","stim/objects/HouseObjects/remote.png",7,63,7,0.5,"stim/12.jpeg",1,2,1,NA,"HouseObjects",2,2,"right","left",0.679000139,0,0,0,1,NA,NA,NA,NA,NA,NA,NA,NA,NA,NA,NA,NA,NA,NA,NA,NA,NA,NA,NA,NA,NA,NA,NA,NA
"217","stim/objects/Instruments/trumpet.png",8,63,8,0.3,"stim/33.jpeg",3,3,2,NA,"Instruments",1,4,"left","right",0.753000021,0,0,0,1,NA,NA,NA,NA,NA,NA,NA,NA,NA,NA,NA,NA,NA,NA,NA,NA,NA,NA,NA,NA,NA,NA,NA,NA
"157","stim/objects/Instruments/record.png",9,63,9,0.5,"stim/13.jpeg",1,3,1,NA,"Instruments",1,1,"left","left",0.75,1,1,0,1,NA,NA,NA,NA,NA,NA,NA,NA,NA,NA,NA,NA,NA,NA,NA,NA,NA,NA,NA,NA,NA,NA,NA,NA
"208","stim/objects/Instruments/trombone2.png",10,63,10,0.9,"stim/62.jpeg",6,2,3,NA,"Instruments",1,1,"left","left",0.525000095,1,1,0,1,NA,NA,NA,NA,NA,NA,NA,NA,NA,NA,NA,NA,NA,NA,NA,NA,NA,NA,NA,NA,NA,NA,NA,NA
"158","stim/objects/Instruments/record.png",11,63,11,0.5,"stim/13.jpeg",1,3,1,NA,"Instruments",1,3,"left","left",0.514000177,1,1,0,1,NA,NA,NA,NA,NA,NA,NA,NA,NA,NA,NA,NA,NA,NA,NA,NA,NA,NA,NA,NA,NA,NA,NA,NA
"61","stim/objects/HouseObjects/scale.png",12,63,12,0.5,"stim/23.jpeg",2,3,1,NA,"HouseObjects",2,4,"right","right",0.616999865,1,1,0,1,NA,NA,NA,NA,NA,NA,NA,NA,NA,NA,NA,NA,NA,NA,NA,NA,NA,NA,NA,NA,NA,NA,NA,NA
"126","stim/objects/Instruments/panflute2.png",13,63,13,0.7,"stim/41.jpeg",4,1,2,NA,"Instruments",1,2,"left","right",0.68900013,0,0,0,1,NA,NA,NA,NA,NA,NA,NA,NA,NA,NA,NA,NA,NA,NA,NA,NA,NA,NA,NA,NA,NA,NA,NA,NA
"220","stim/objects/Instruments/trumpet2.png",14,63,14,0.9,"stim/63.jpeg",6,3,3,NA,"Instruments",1,2,"left","left",0.720000029,1,1,0,1,NA,NA,NA,NA,NA,NA,NA,NA,NA,NA,NA,NA,NA,NA,NA,NA,NA,NA,NA,NA,NA,NA,NA,NA
"10","stim/objects/HouseObjects/remote.png",15,63,15,0.5,"stim/12.jpeg",1,2,1,NA,"HouseObjects",2,1,"right","left",0.482000113,0,0,0,1,NA,NA,NA,NA,NA,NA,NA,NA,NA,NA,NA,NA,NA,NA,NA,NA,NA,NA,NA,NA,NA,NA,NA,NA
"105","stim/objects/HouseObjects/thermometer.png",16,63,16,0.7,"stim/33.jpeg",3,3,2,NA,"HouseObjects",2,2,"right","left",0.758000135,0,0,0,1,NA,NA,NA,NA,NA,NA,NA,NA,NA,NA,NA,NA,NA,NA,NA,NA,NA,NA,NA,NA,NA,NA,NA,NA
"169","stim/objects/Instruments/saxophone.png",17,63,17,0.5,"stim/21.jpeg",2,1,1,NA,"Instruments",1,3,"left","right",0.77300024,0,0,0,1,NA,NA,NA,NA,NA,NA,NA,NA,NA,NA,NA,NA,NA,NA,NA,NA,NA,NA,NA,NA,NA,NA,NA,NA
"159","stim/objects/Instruments/record.png",18,63,18,0.5,"stim/13.jpeg",1,3,1,NA,"Instruments",1,3,"left","left",0.471000195,1,1,0,1,NA,NA,NA,NA,NA,NA,NA,NA,NA,NA,NA,NA,NA,NA,NA,NA,NA,NA,NA,NA,NA,NA,NA,NA
"145","stim/objects/Instruments/record_player.png",19,63,19,0.5,"stim/14.jpeg",1,4,1,NA,"Instruments",1,4,"left","",NA,0,0,0,1,NA,NA,NA,NA,NA,NA,NA,NA,NA,NA,NA,NA,NA,NA,NA,NA,NA,NA,NA,NA,NA,NA,NA,NA
"89","stim/objects/HouseObjects/spraybottle.png",20,63,20,0.7,"stim/31.jpeg",3,1,2,NA,"HouseObjects",2,2,"right","left",0.751000166,0,0,0,1,NA,NA,NA,NA,NA,NA,NA,NA,NA,NA,NA,NA,NA,NA,NA,NA,NA,NA,NA,NA,NA,NA,NA,NA
"112","stim/objects/HouseObjects/thermometer2.png",21,63,21,0.1,"stim/63.jpeg",6,3,3,NA,"HouseObjects",2,4,"right","left",0.816000223,0,0,0,1,NA,NA,NA,NA,NA,NA,NA,NA,NA,NA,NA,NA,NA,NA,NA,NA,NA,NA,NA,NA,NA,NA,NA,NA
"106","stim/objects/HouseObjects/thermometer.png",22,63,22,0.7,"stim/33.jpeg",3,3,2,NA,"HouseObjects",2,4,"right","right",0.697000027,1,1,0,1,NA,NA,NA,NA,NA,NA,NA,NA,NA,NA,NA,NA,NA,NA,NA,NA,NA,NA,NA,NA,NA,NA,NA,NA
"97","stim/objects/HouseObjects/teapot.png",23,63,23,0.7,"stim/32.jpeg",3,2,2,NA,"HouseObjects",2,1,"right","left",0.686000109,0,0,0,1,NA,NA,NA,NA,NA,NA,NA,NA,NA,NA,NA,NA,NA,NA,NA,NA,NA,NA,NA,NA,NA,NA,NA,NA
"160","stim/objects/Instruments/record.png",24,63,24,0.5,"stim/13.jpeg",1,3,1,NA,"Instruments",1,1,"left","left",0.815000057,1,1,0,1,NA,NA,NA,NA,NA,NA,NA,NA,NA,NA,NA,NA,NA,NA,NA,NA,NA,NA,NA,NA,NA,NA,NA,NA
"138","stim/objects/Instruments/pipepiano2.png",25,63,25,0.7,"stim/42.jpeg",4,2,2,NA,"Instruments",1,1,"left","",NA,0,0,0,1,NA,NA,NA,NA,NA,NA,NA,NA,NA,NA,NA,NA,NA,NA,NA,NA,NA,NA,NA,NA,NA,NA,NA,NA
"90","stim/objects/HouseObjects/spraybottle.png",26,63,26,0.7,"stim/31.jpeg",3,1,2,NA,"HouseObjects",2,4,"right","right",0.774000168,1,1,0,1,NA,NA,NA,NA,NA,NA,NA,NA,NA,NA,NA,NA,NA,NA,NA,NA,NA,NA,NA,NA,NA,NA,NA,NA
"33","stim/objects/HouseObjects/safetypin.png",27,63,27,0.5,"stim/21.jpeg",2,1,1,NA,"HouseObjects",2,3,"right","left",0.633000135,0,0,0,1,NA,NA,NA,NA,NA,NA,NA,NA,NA,NA,NA,NA,NA,NA,NA,NA,NA,NA,NA,NA,NA,NA,NA,NA
"107","stim/objects/HouseObjects/thermometer.png",28,63,28,0.7,"stim/33.jpeg",3,3,2,NA,"HouseObjects",2,4,"right","right",0.728000164,1,1,0,1,NA,NA,NA,NA,NA,NA,NA,NA,NA,NA,NA,NA,NA,NA,NA,NA,NA,NA,NA,NA,NA,NA,NA,NA
"146","stim/objects/Instruments/record_player.png",29,63,29,0.5,"stim/14.jpeg",1,4,1,NA,"Instruments",1,3,"left","left",0.690000057,1,1,0,1,NA,NA,NA,NA,NA,NA,NA,NA,NA,NA,NA,NA,NA,NA,NA,NA,NA,NA,NA,NA,NA,NA,NA,NA
"139","stim/objects/Instruments/pipepiano2.png",30,63,30,0.7,"stim/42.jpeg",4,2,2,NA,"Instruments",1,3,"left","left",0.664999962,1,1,0,1,NA,NA,NA,NA,NA,NA,NA,NA,NA,NA,NA,NA,NA,NA,NA,NA,NA,NA,NA,NA,NA,NA,NA,NA
"17","stim/objects/HouseObjects/rubbergloves.png",31,63,31,0.5,"stim/13.jpeg",1,3,1,NA,"HouseObjects",2,2,"right","right",0.805999994,1,1,0,1,NA,NA,NA,NA,NA,NA,NA,NA,NA,NA,NA,NA,NA,NA,NA,NA,NA,NA,NA,NA,NA,NA,NA,NA
"196","stim/objects/Instruments/triangle2.png",32,63,32,0.9,"stim/61.jpeg",6,1,3,NA,"Instruments",1,3,"left","left",0.619000196,1,1,0,1,NA,NA,NA,NA,NA,NA,NA,NA,NA,NA,NA,NA,NA,NA,NA,NA,NA,NA,NA,NA,NA,NA,NA,NA
"62","stim/objects/HouseObjects/scale.png",33,63,33,0.5,"stim/23.jpeg",2,3,1,NA,"HouseObjects",2,2,"right","",NA,0,0,0,1,NA,NA,NA,NA,NA,NA,NA,NA,NA,NA,NA,NA,NA,NA,NA,NA,NA,NA,NA,NA,NA,NA,NA,NA
"127","stim/objects/Instruments/panflute2.png",34,63,34,0.7,"stim/41.jpeg",4,1,2,NA,"Instruments",1,1,"left","left",0.463000059,1,1,0,1,NA,NA,NA,NA,NA,NA,NA,NA,NA,NA,NA,NA,NA,NA,NA,NA,NA,NA,NA,NA,NA,NA,NA,NA
"128","stim/objects/Instruments/panflute2.png",35,63,35,0.7,"stim/41.jpeg",4,1,2,NA,"Instruments",1,2,"left","left",0.531000137,1,1,0,1,NA,NA,NA,NA,NA,NA,NA,NA,NA,NA,NA,NA,NA,NA,NA,NA,NA,NA,NA,NA,NA,NA,NA,NA
"120","stim/objects/HouseObjects/thread2.png",36,63,36,0.1,"stim/64.jpeg",6,4,3,NA,"HouseObjects",2,4,"right","right",0.667000055,1,1,0,1,NA,NA,NA,NA,NA,NA,NA,NA,NA,NA,NA,NA,NA,NA,NA,NA,NA,NA,NA,NA,NA,NA,NA,NA
"147","stim/objects/Instruments/record_player.png",37,63,37,0.5,"stim/14.jpeg",1,4,1,NA,"Instruments",1,4,"left","left",0.684000015,1,1,0,1,NA,NA,NA,NA,NA,NA,NA,NA,NA,NA,NA,NA,NA,NA,NA,NA,NA,NA,NA,NA,NA,NA,NA,NA
"193","stim/objects/Instruments/triangle.png",38,63,38,0.3,"stim/31.jpeg",3,1,2,NA,"Instruments",1,2,"left","left",0.642000198,1,1,0,1,NA,NA,NA,NA,NA,NA,NA,NA,NA,NA,NA,NA,NA,NA,NA,NA,NA,NA,NA,NA,NA,NA,NA,NA
"91","stim/objects/HouseObjects/spraybottle.png",39,63,39,0.7,"stim/31.jpeg",3,1,2,NA,"HouseObjects",2,4,"right","left",0.700999975,0,0,0,1,NA,NA,NA,NA,NA,NA,NA,NA,NA,NA,NA,NA,NA,NA,NA,NA,NA,NA,NA,NA,NA,NA,NA,NA
"48","stim/objects/HouseObjects/saw.png",40,63,40,0.5,"stim/22.jpeg",2,2,1,NA,"HouseObjects",2,1,"right","left",0.730000257,0,0,0,1,NA,NA,NA,NA,NA,NA,NA,NA,NA,NA,NA,NA,NA,NA,NA,NA,NA,NA,NA,NA,NA,NA,NA,NA
"30","stim/objects/HouseObjects/rug2.png",41,63,41,0.3,"stim/44.jpeg",4,4,2,NA,"HouseObjects",2,2,"right","left",0.851999998,0,0,0,1,NA,NA,NA,NA,NA,NA,NA,NA,NA,NA,NA,NA,NA,NA,NA,NA,NA,NA,NA,NA,NA,NA,NA,NA
"181","stim/objects/Instruments/tambourine.png",42,63,42,0.5,"stim/23.jpeg",2,3,1,NA,"Instruments",1,4,"left","left",0.658000231,1,1,0,1,NA,NA,NA,NA,NA,NA,NA,NA,NA,NA,NA,NA,NA,NA,NA,NA,NA,NA,NA,NA,NA,NA,NA,NA
"54","stim/objects/HouseObjects/saw2.png",43,63,43,0.9,"stim/52.jpeg",5,2,3,NA,"HouseObjects",2,4,"right","right",0.762000084,1,1,0,1,NA,NA,NA,NA,NA,NA,NA,NA,NA,NA,NA,NA,NA,NA,NA,NA,NA,NA,NA,NA,NA,NA,NA,NA
"209","stim/objects/Instruments/trombone2.png",44,63,44,0.9,"stim/62.jpeg",6,2,3,NA,"Instruments",1,1,"left","left",0.649000168,1,1,0,1,NA,NA,NA,NA,NA,NA,NA,NA,NA,NA,NA,NA,NA,NA,NA,NA,NA,NA,NA,NA,NA,NA,NA,NA
"232","stim/objects/Instruments/tuba2.png",45,63,45,0.9,"stim/64.jpeg",6,4,3,NA,"Instruments",1,1,"left","left",0.595000029,1,1,0,1,NA,NA,NA,NA,NA,NA,NA,NA,NA,NA,NA,NA,NA,NA,NA,NA,NA,NA,NA,NA,NA,NA,NA,NA
"14","stim/objects/HouseObjects/remote2.png",46,63,46,0.3,"stim/42.jpeg",4,2,2,NA,"HouseObjects",2,3,"right","left",0.650000095,0,0,0,1,NA,NA,NA,NA,NA,NA,NA,NA,NA,NA,NA,NA,NA,NA,NA,NA,NA,NA,NA,NA,NA,NA,NA,NA
"38","stim/objects/HouseObjects/safetypin2.png",47,63,47,0.9,"stim/51.jpeg",5,1,3,NA,"HouseObjects",2,1,"right","right",0.710999966,1,1,0,1,NA,NA,NA,NA,NA,NA,NA,NA,NA,NA,NA,NA,NA,NA,NA,NA,NA,NA,NA,NA,NA,NA,NA,NA
"76","stim/objects/HouseObjects/sponge.png",48,63,48,0.5,"stim/24.jpeg",2,4,1,NA,"HouseObjects",2,2,"right","left",0.759000063,0,0,0,1,NA,NA,NA,NA,NA,NA,NA,NA,NA,NA,NA,NA,NA,NA,NA,NA,NA,NA,NA,NA,NA,NA,NA,NA
"233","stim/objects/Instruments/tuba2.png",49,63,49,0.9,"stim/64.jpeg",6,4,3,NA,"Instruments",1,3,"left","left",0.566000223,1,1,0,1,NA,NA,NA,NA,NA,NA,NA,NA,NA,NA,NA,NA,NA,NA,NA,NA,NA,NA,NA,NA,NA,NA,NA,NA
"6","stim/objects/HouseObjects/recyclingbin2.png",50,63,50,0.3,"stim/41.jpeg",4,1,2,NA,"HouseObjects",2,3,"right","left",0.781000137,0,0,0,1,NA,NA,NA,NA,NA,NA,NA,NA,NA,NA,NA,NA,NA,NA,NA,NA,NA,NA,NA,NA,NA,NA,NA,NA
"22","stim/objects/HouseObjects/rubbergloves2.png",51,63,51,0.3,"stim/43.jpeg",4,3,2,NA,"HouseObjects",2,4,"right","right",0.806000233,1,1,0,1,NA,NA,NA,NA,NA,NA,NA,NA,NA,NA,NA,NA,NA,NA,NA,NA,NA,NA,NA,NA,NA,NA,NA,NA
"218","stim/objects/Instruments/trumpet.png",52,63,52,0.3,"stim/33.jpeg",3,3,2,NA,"Instruments",1,1,"left","left",0.629000187,1,1,0,1,NA,NA,NA,NA,NA,NA,NA,NA,NA,NA,NA,NA,NA,NA,NA,NA,NA,NA,NA,NA,NA,NA,NA,NA
"197","stim/objects/Instruments/triangle2.png",53,63,53,0.9,"stim/61.jpeg",6,1,3,NA,"Instruments",1,4,"left","left",0.53399992,1,1,0,1,NA,NA,NA,NA,NA,NA,NA,NA,NA,NA,NA,NA,NA,NA,NA,NA,NA,NA,NA,NA,NA,NA,NA,NA
"92","stim/objects/HouseObjects/spraybottle.png",54,63,54,0.7,"stim/31.jpeg",3,1,2,NA,"HouseObjects",2,3,"right","left",0.64800024,0,0,0,1,NA,NA,NA,NA,NA,NA,NA,NA,NA,NA,NA,NA,NA,NA,NA,NA,NA,NA,NA,NA,NA,NA,NA,NA
"18","stim/objects/HouseObjects/rubbergloves.png",55,63,55,0.5,"stim/13.jpeg",1,3,1,NA,"HouseObjects",2,3,"right","right",0.808000088,1,1,0,1,NA,NA,NA,NA,NA,NA,NA,NA,NA,NA,NA,NA,NA,NA,NA,NA,NA,NA,NA,NA,NA,NA,NA,NA
"80","stim/objects/HouseObjects/sponge2.png",56,63,56,0.9,"stim/54.jpeg",5,4,3,NA,"HouseObjects",2,4,"right","left",0.696000099,0,0,0,1,NA,NA,NA,NA,NA,NA,NA,NA,NA,NA,NA,NA,NA,NA,NA,NA,NA,NA,NA,NA,NA,NA,NA,NA
"162","stim/objects/Instruments/record2.png",57,63,57,0.7,"stim/43.jpeg",4,3,2,NA,"Instruments",1,2,"left","right",0.663000107,0,0,0,1,NA,NA,NA,NA,NA,NA,NA,NA,NA,NA,NA,NA,NA,NA,NA,NA,NA,NA,NA,NA,NA,NA,NA,NA
"1","stim/objects/HouseObjects/recyclingbin.png",58,63,58,0.5,"stim/11.jpeg",1,1,1,NA,"HouseObjects",2,2,"right","left",0.679000139,0,0,0,1,NA,NA,NA,NA,NA,NA,NA,NA,NA,NA,NA,NA,NA,NA,NA,NA,NA,NA,NA,NA,NA,NA,NA,NA
"161","stim/objects/Instruments/record.png",59,63,59,0.5,"stim/13.jpeg",1,3,1,NA,"Instruments",1,2,"left","",NA,0,0,0,1,NA,NA,NA,NA,NA,NA,NA,NA,NA,NA,NA,NA,NA,NA,NA,NA,NA,NA,NA,NA,NA,NA,NA,NA
"188","stim/objects/Instruments/timbal.png",60,63,60,0.5,"stim/24.jpeg",2,4,1,NA,"Instruments",1,3,"left","right",0.727999926,0,0,0,1,NA,NA,NA,NA,NA,NA,NA,NA,NA,NA,NA,NA,NA,NA,NA,NA,NA,NA,NA,NA,NA,NA,NA,NA
"198","stim/objects/Instruments/triangle2.png",61,63,61,0.9,"stim/61.jpeg",6,1,3,NA,"Instruments",1,2,"left","left",0.65199995,1,1,0,1,NA,NA,NA,NA,NA,NA,NA,NA,NA,NA,NA,NA,NA,NA,NA,NA,NA,NA,NA,NA,NA,NA,NA,NA
"113","stim/objects/HouseObjects/thread.png",62,63,62,0.7,"stim/34.jpeg",3,4,2,NA,"HouseObjects",2,4,"right","left",0.660000086,0,0,0,1,NA,NA,NA,NA,NA,NA,NA,NA,NA,NA,NA,NA,NA,NA,NA,NA,NA,NA,NA,NA,NA,NA,NA,NA
"175","stim/objects/Instruments/speaker.png",63,63,63,0.5,"stim/22.jpeg",2,2,1,NA,"Instruments",1,1,"left","right",0.594000101,0,0,0,1,NA,NA,NA,NA,NA,NA,NA,NA,NA,NA,NA,NA,NA,NA,NA,NA,NA,NA,NA,NA,NA,NA,NA,NA
"210","stim/objects/Instruments/trombone2.png",64,63,64,0.9,"stim/62.jpeg",6,2,3,NA,"Instruments",1,4,"left","left",0.656000137,1,1,0,1,NA,NA,NA,NA,NA,NA,NA,NA,NA,NA,NA,NA,NA,NA,NA,NA,NA,NA,NA,NA,NA,NA,NA,NA
"221","stim/objects/Instruments/trumpet2.png",65,63,65,0.9,"stim/63.jpeg",6,3,3,NA,"Instruments",1,4,"left","left",0.616000175,1,1,0,1,NA,NA,NA,NA,NA,NA,NA,NA,NA,NA,NA,NA,NA,NA,NA,NA,NA,NA,NA,NA,NA,NA,NA,NA
"222","stim/objects/Instruments/trumpet2.png",66,63,66,0.9,"stim/63.jpeg",6,3,3,NA,"Instruments",1,2,"left","left",0.578999996,1,1,0,1,NA,NA,NA,NA,NA,NA,NA,NA,NA,NA,NA,NA,NA,NA,NA,NA,NA,NA,NA,NA,NA,NA,NA,NA
"108","stim/objects/HouseObjects/thermometer.png",67,63,67,0.7,"stim/33.jpeg",3,3,2,NA,"HouseObjects",2,1,"right","right",0.667000055,1,1,0,1,NA,NA,NA,NA,NA,NA,NA,NA,NA,NA,NA,NA,NA,NA,NA,NA,NA,NA,NA,NA,NA,NA,NA,NA
"129","stim/objects/Instruments/panflute2.png",68,63,68,0.7,"stim/41.jpeg",4,1,2,NA,"Instruments",1,3,"left","left",0.730999947,1,1,0,1,NA,NA,NA,NA,NA,NA,NA,NA,NA,NA,NA,NA,NA,NA,NA,NA,NA,NA,NA,NA,NA,NA,NA,NA
"23","stim/objects/HouseObjects/rubbergloves2.png",69,63,69,0.3,"stim/43.jpeg",4,3,2,NA,"HouseObjects",2,3,"right","",NA,0,0,0,1,NA,NA,NA,NA,NA,NA,NA,NA,NA,NA,NA,NA,NA,NA,NA,NA,NA,NA,NA,NA,NA,NA,NA,NA
"148","stim/objects/Instruments/record_player.png",70,63,70,0.5,"stim/14.jpeg",1,4,1,NA,"Instruments",1,4,"left","left",0.782999992,1,1,0,1,NA,NA,NA,NA,NA,NA,NA,NA,NA,NA,NA,NA,NA,NA,NA,NA,NA,NA,NA,NA,NA,NA,NA,NA
"114","stim/objects/HouseObjects/thread.png",71,63,71,0.7,"stim/34.jpeg",3,4,2,NA,"HouseObjects",2,3,"right","left",0.766000271,0,0,0,1,NA,NA,NA,NA,NA,NA,NA,NA,NA,NA,NA,NA,NA,NA,NA,NA,NA,NA,NA,NA,NA,NA,NA,NA
"189","stim/objects/Instruments/timbal.png",72,63,72,0.5,"stim/24.jpeg",2,4,1,NA,"Instruments",1,1,"left","right",0.80099988,0,0,0,1,NA,NA,NA,NA,NA,NA,NA,NA,NA,NA,NA,NA,NA,NA,NA,NA,NA,NA,NA,NA,NA,NA,NA,NA
"149","stim/objects/Instruments/record_player.png",73,63,73,0.5,"stim/14.jpeg",1,4,1,NA,"Instruments",1,1,"left","left",0.777999878,1,1,0,1,NA,NA,NA,NA,NA,NA,NA,NA,NA,NA,NA,NA,NA,NA,NA,NA,NA,NA,NA,NA,NA,NA,NA,NA
"180","stim/objects/Instruments/speaker2.png",74,63,74,0.1,"stim/52.jpeg",5,2,3,NA,"Instruments",1,3,"left","right",0.715000153,0,0,0,1,NA,NA,NA,NA,NA,NA,NA,NA,NA,NA,NA,NA,NA,NA,NA,NA,NA,NA,NA,NA,NA,NA,NA,NA
"140","stim/objects/Instruments/pipepiano2.png",75,63,75,0.7,"stim/42.jpeg",4,2,2,NA,"Instruments",1,3,"left","",NA,0,0,0,1,NA,NA,NA,NA,NA,NA,NA,NA,NA,NA,NA,NA,NA,NA,NA,NA,NA,NA,NA,NA,NA,NA,NA,NA
"55","stim/objects/HouseObjects/saw2.png",76,63,76,0.9,"stim/52.jpeg",5,2,3,NA,"HouseObjects",2,2,"right","right",0.548000097,1,1,0,1,NA,NA,NA,NA,NA,NA,NA,NA,NA,NA,NA,NA,NA,NA,NA,NA,NA,NA,NA,NA,NA,NA,NA,NA
"11","stim/objects/HouseObjects/remote.png",77,63,77,0.5,"stim/12.jpeg",1,2,1,NA,"HouseObjects",2,2,"right","left",0.648000002,0,0,0,1,NA,NA,NA,NA,NA,NA,NA,NA,NA,NA,NA,NA,NA,NA,NA,NA,NA,NA,NA,NA,NA,NA,NA,NA
"56","stim/objects/HouseObjects/saw2.png",78,63,78,0.9,"stim/52.jpeg",5,2,3,NA,"HouseObjects",2,3,"right","right",0.677000046,1,1,0,1,NA,NA,NA,NA,NA,NA,NA,NA,NA,NA,NA,NA,NA,NA,NA,NA,NA,NA,NA,NA,NA,NA,NA,NA
"234","stim/objects/Instruments/tuba2.png",79,63,79,0.9,"stim/64.jpeg",6,4,3,NA,"Instruments",1,2,"left","left",0.623000145,1,1,0,1,NA,NA,NA,NA,NA,NA,NA,NA,NA,NA,NA,NA,NA,NA,NA,NA,NA,NA,NA,NA,NA,NA,NA,NA
"115","stim/objects/HouseObjects/thread.png",80,63,80,0.7,"stim/34.jpeg",3,4,2,NA,"HouseObjects",2,2,"right","left",0.624000072,0,0,0,1,NA,NA,NA,NA,NA,NA,NA,NA,NA,NA,NA,NA,NA,NA,NA,NA,NA,NA,NA,NA,NA,NA,NA,NA
"98","stim/objects/HouseObjects/teapot.png",81,63,81,0.7,"stim/32.jpeg",3,2,2,NA,"HouseObjects",2,3,"right","right",0.840000153,1,1,0,1,NA,NA,NA,NA,NA,NA,NA,NA,NA,NA,NA,NA,NA,NA,NA,NA,NA,NA,NA,NA,NA,NA,NA,NA
"163","stim/objects/Instruments/record2.png",82,63,82,0.7,"stim/43.jpeg",4,3,2,NA,"Instruments",1,3,"left","left",0.651000261,1,1,0,1,NA,NA,NA,NA,NA,NA,NA,NA,NA,NA,NA,NA,NA,NA,NA,NA,NA,NA,NA,NA,NA,NA,NA,NA
"39","stim/objects/HouseObjects/safetypin2.png",83,63,83,0.9,"stim/51.jpeg",5,1,3,NA,"HouseObjects",2,3,"right","right",0.618999958,1,1,0,1,NA,NA,NA,NA,NA,NA,NA,NA,NA,NA,NA,NA,NA,NA,NA,NA,NA,NA,NA,NA,NA,NA,NA,NA
"170","stim/objects/Instruments/saxophone.png",84,63,84,0.5,"stim/21.jpeg",2,1,1,NA,"Instruments",1,4,"left","left",0.585000277,1,1,0,1,NA,NA,NA,NA,NA,NA,NA,NA,NA,NA,NA,NA,NA,NA,NA,NA,NA,NA,NA,NA,NA,NA,NA,NA
"116","stim/objects/HouseObjects/thread.png",85,63,85,0.7,"stim/34.jpeg",3,4,2,NA,"HouseObjects",2,3,"right","right",0.580000162,1,1,0,1,NA,NA,NA,NA,NA,NA,NA,NA,NA,NA,NA,NA,NA,NA,NA,NA,NA,NA,NA,NA,NA,NA,NA,NA
"7","stim/objects/HouseObjects/recyclingbin2.png",86,63,86,0.3,"stim/41.jpeg",4,1,2,NA,"HouseObjects",2,4,"right","left",0.697000265,0,0,0,1,NA,NA,NA,NA,NA,NA,NA,NA,NA,NA,NA,NA,NA,NA,NA,NA,NA,NA,NA,NA,NA,NA,NA,NA
"235","stim/objects/Instruments/tuba2.png",87,63,87,0.9,"stim/64.jpeg",6,4,3,NA,"Instruments",1,3,"left","left",0.628000259,1,1,0,1,NA,NA,NA,NA,NA,NA,NA,NA,NA,NA,NA,NA,NA,NA,NA,NA,NA,NA,NA,NA,NA,NA,NA,NA
"182","stim/objects/Instruments/tambourine.png",88,63,88,0.5,"stim/23.jpeg",2,3,1,NA,"Instruments",1,3,"left","",NA,0,0,0,1,NA,NA,NA,NA,NA,NA,NA,NA,NA,NA,NA,NA,NA,NA,NA,NA,NA,NA,NA,NA,NA,NA,NA,NA
"229","stim/objects/Instruments/tuba.png",89,63,89,0.3,"stim/34.jpeg",3,4,2,NA,"Instruments",1,2,"left","right",0.555000067,0,0,0,1,NA,NA,NA,NA,NA,NA,NA,NA,NA,NA,NA,NA,NA,NA,NA,NA,NA,NA,NA,NA,NA,NA,NA,NA
"211","stim/objects/Instruments/trombone2.png",90,63,90,0.9,"stim/62.jpeg",6,2,3,NA,"Instruments",1,1,"left","left",0.695000172,1,1,0,1,NA,NA,NA,NA,NA,NA,NA,NA,NA,NA,NA,NA,NA,NA,NA,NA,NA,NA,NA,NA,NA,NA,NA,NA
"186","stim/objects/Instruments/tambourine2.png",91,63,91,0.1,"stim/53.jpeg",5,3,3,NA,"Instruments",1,4,"left","right",0.630000114,0,0,0,1,NA,NA,NA,NA,NA,NA,NA,NA,NA,NA,NA,NA,NA,NA,NA,NA,NA,NA,NA,NA,NA,NA,NA,NA
"190","stim/objects/Instruments/timbal.png",92,63,92,0.5,"stim/24.jpeg",2,4,1,NA,"Instruments",1,4,"left","right",0.685000181,0,0,0,1,NA,NA,NA,NA,NA,NA,NA,NA,NA,NA,NA,NA,NA,NA,NA,NA,NA,NA,NA,NA,NA,NA,NA,NA
"176","stim/objects/Instruments/speaker.png",93,63,93,0.5,"stim/22.jpeg",2,2,1,NA,"Instruments",1,4,"left","right",0.568000317,0,0,0,1,NA,NA,NA,NA,NA,NA,NA,NA,NA,NA,NA,NA,NA,NA,NA,NA,NA,NA,NA,NA,NA,NA,NA,NA
"183","stim/objects/Instruments/tambourine.png",94,63,94,0.5,"stim/23.jpeg",2,3,1,NA,"Instruments",1,4,"left","right",0.578000069,0,0,0,1,NA,NA,NA,NA,NA,NA,NA,NA,NA,NA,NA,NA,NA,NA,NA,NA,NA,NA,NA,NA,NA,NA,NA,NA
"93","stim/objects/HouseObjects/spraybottle.png",95,63,95,0.7,"stim/31.jpeg",3,1,2,NA,"HouseObjects",2,2,"right","left",0.603000164,0,0,0,1,NA,NA,NA,NA,NA,NA,NA,NA,NA,NA,NA,NA,NA,NA,NA,NA,NA,NA,NA,NA,NA,NA,NA,NA
"199","stim/objects/Instruments/triangle2.png",96,63,96,0.9,"stim/61.jpeg",6,1,3,NA,"Instruments",1,3,"left","right",0.786000013,0,0,0,1,NA,NA,NA,NA,NA,NA,NA,NA,NA,NA,NA,NA,NA,NA,NA,NA,NA,NA,NA,NA,NA,NA,NA,NA
"12","stim/objects/HouseObjects/remote.png",97,63,97,0.5,"stim/12.jpeg",1,2,1,NA,"HouseObjects",2,3,"right","left",0.756999969,0,0,0,1,NA,NA,NA,NA,NA,NA,NA,NA,NA,NA,NA,NA,NA,NA,NA,NA,NA,NA,NA,NA,NA,NA,NA,NA
"81","stim/objects/HouseObjects/sponge2.png",98,63,98,0.9,"stim/54.jpeg",5,4,3,NA,"HouseObjects",2,3,"right","right",0.789999962,1,1,0,1,NA,NA,NA,NA,NA,NA,NA,NA,NA,NA,NA,NA,NA,NA,NA,NA,NA,NA,NA,NA,NA,NA,NA,NA
"25","stim/objects/HouseObjects/rug.png",99,63,99,0.5,"stim/14.jpeg",1,4,1,NA,"HouseObjects",2,1,"right","left",0.819000006,0,0,0,1,NA,NA,NA,NA,NA,NA,NA,NA,NA,NA,NA,NA,NA,NA,NA,NA,NA,NA,NA,NA,NA,NA,NA,NA
"77","stim/objects/HouseObjects/sponge.png",100,63,100,0.5,"stim/24.jpeg",2,4,1,NA,"HouseObjects",2,1,"right","left",0.816000223,0,0,0,1,NA,NA,NA,NA,NA,NA,NA,NA,NA,NA,NA,NA,NA,NA,NA,NA,NA,NA,NA,NA,NA,NA,NA,NA
"82","stim/objects/HouseObjects/sponge2.png",101,63,101,0.9,"stim/54.jpeg",5,4,3,NA,"HouseObjects",2,2,"right","right",0.832000256,1,1,0,1,NA,NA,NA,NA,NA,NA,NA,NA,NA,NA,NA,NA,NA,NA,NA,NA,NA,NA,NA,NA,NA,NA,NA,NA
"40","stim/objects/HouseObjects/safetypin2.png",102,63,102,0.9,"stim/51.jpeg",5,1,3,NA,"HouseObjects",2,2,"right","right",0.84800005,1,1,0,1,NA,NA,NA,NA,NA,NA,NA,NA,NA,NA,NA,NA,NA,NA,NA,NA,NA,NA,NA,NA,NA,NA,NA,NA
"164","stim/objects/Instruments/record2.png",103,63,103,0.7,"stim/43.jpeg",4,3,2,NA,"Instruments",1,1,"left","",NA,0,0,0,1,NA,NA,NA,NA,NA,NA,NA,NA,NA,NA,NA,NA,NA,NA,NA,NA,NA,NA,NA,NA,NA,NA,NA,NA
"66","stim/objects/HouseObjects/scale2.png",104,63,104,0.9,"stim/53.jpeg",5,3,3,NA,"HouseObjects",2,1,"right","right",0.645999908,1,1,0,1,NA,NA,NA,NA,NA,NA,NA,NA,NA,NA,NA,NA,NA,NA,NA,NA,NA,NA,NA,NA,NA,NA,NA,NA
"26","stim/objects/HouseObjects/rug.png",105,63,105,0.5,"stim/14.jpeg",1,4,1,NA,"HouseObjects",2,2,"right","right",0.697000027,1,1,0,1,NA,NA,NA,NA,NA,NA,NA,NA,NA,NA,NA,NA,NA,NA,NA,NA,NA,NA,NA,NA,NA,NA,NA,NA
"223","stim/objects/Instruments/trumpet2.png",106,63,106,0.9,"stim/63.jpeg",6,3,3,NA,"Instruments",1,4,"left","left",0.59100008,1,1,0,1,NA,NA,NA,NA,NA,NA,NA,NA,NA,NA,NA,NA,NA,NA,NA,NA,NA,NA,NA,NA,NA,NA,NA,NA
"83","stim/objects/HouseObjects/sponge2.png",107,63,107,0.9,"stim/54.jpeg",5,4,3,NA,"HouseObjects",2,1,"right","",NA,0,0,0,1,NA,NA,NA,NA,NA,NA,NA,NA,NA,NA,NA,NA,NA,NA,NA,NA,NA,NA,NA,NA,NA,NA,NA,NA
"94","stim/objects/HouseObjects/spraybottle.png",108,63,108,0.7,"stim/31.jpeg",3,1,2,NA,"HouseObjects",2,3,"right","right",0.566999912,1,1,0,1,NA,NA,NA,NA,NA,NA,NA,NA,NA,NA,NA,NA,NA,NA,NA,NA,NA,NA,NA,NA,NA,NA,NA,NA
"67","stim/objects/HouseObjects/scale2.png",109,63,109,0.9,"stim/53.jpeg",5,3,3,NA,"HouseObjects",2,2,"right","right",0.546000004,1,1,0,1,NA,NA,NA,NA,NA,NA,NA,NA,NA,NA,NA,NA,NA,NA,NA,NA,NA,NA,NA,NA,NA,NA,NA,NA
"194","stim/objects/Instruments/triangle.png",110,63,110,0.3,"stim/31.jpeg",3,1,2,NA,"Instruments",1,3,"left","right",0.624000072,0,0,0,1,NA,NA,NA,NA,NA,NA,NA,NA,NA,NA,NA,NA,NA,NA,NA,NA,NA,NA,NA,NA,NA,NA,NA,NA
"68","stim/objects/HouseObjects/scale2.png",111,63,111,0.9,"stim/53.jpeg",5,3,3,NA,"HouseObjects",2,1,"right","right",0.619000196,1,1,0,1,NA,NA,NA,NA,NA,NA,NA,NA,NA,NA,NA,NA,NA,NA,NA,NA,NA,NA,NA,NA,NA,NA,NA,NA
"109","stim/objects/HouseObjects/thermometer.png",112,63,112,0.7,"stim/33.jpeg",3,3,2,NA,"HouseObjects",2,1,"right","right",0.694999933,1,1,0,1,NA,NA,NA,NA,NA,NA,NA,NA,NA,NA,NA,NA,NA,NA,NA,NA,NA,NA,NA,NA,NA,NA,NA,NA
"212","stim/objects/Instruments/trombone2.png",113,63,113,0.9,"stim/62.jpeg",6,2,3,NA,"Instruments",1,1,"left","left",0.692000151,1,1,0,1,NA,NA,NA,NA,NA,NA,NA,NA,NA,NA,NA,NA,NA,NA,NA,NA,NA,NA,NA,NA,NA,NA,NA,NA
"121","stim/objects/Instruments/panflute.png",114,63,114,0.5,"stim/11.jpeg",1,1,1,NA,"Instruments",1,1,"left","right",0.628000021,0,0,0,1,NA,NA,NA,NA,NA,NA,NA,NA,NA,NA,NA,NA,NA,NA,NA,NA,NA,NA,NA,NA,NA,NA,NA,NA
"41","stim/objects/HouseObjects/safetypin2.png",115,63,115,0.9,"stim/51.jpeg",5,1,3,NA,"HouseObjects",2,1,"right","right",0.747000217,1,1,0,1,NA,NA,NA,NA,NA,NA,NA,NA,NA,NA,NA,NA,NA,NA,NA,NA,NA,NA,NA,NA,NA,NA,NA,NA
"117","stim/objects/HouseObjects/thread.png",116,63,116,0.7,"stim/34.jpeg",3,4,2,NA,"HouseObjects",2,4,"right","right",0.759000063,1,1,0,1,NA,NA,NA,NA,NA,NA,NA,NA,NA,NA,NA,NA,NA,NA,NA,NA,NA,NA,NA,NA,NA,NA,NA,NA
"34","stim/objects/HouseObjects/safetypin.png",117,63,117,0.5,"stim/21.jpeg",2,1,1,NA,"HouseObjects",2,4,"right","right",0.676000118,1,1,0,1,NA,NA,NA,NA,NA,NA,NA,NA,NA,NA,NA,NA,NA,NA,NA,NA,NA,NA,NA,NA,NA,NA,NA,NA
"200","stim/objects/Instruments/triangle2.png",118,63,118,0.9,"stim/61.jpeg",6,1,3,NA,"Instruments",1,2,"left","left",0.626000166,1,1,0,1,NA,NA,NA,NA,NA,NA,NA,NA,NA,NA,NA,NA,NA,NA,NA,NA,NA,NA,NA,NA,NA,NA,NA,NA
"110","stim/objects/HouseObjects/thermometer.png",119,63,119,0.7,"stim/33.jpeg",3,3,2,NA,"HouseObjects",2,4,"right","left",0.71600008,0,0,0,1,NA,NA,NA,NA,NA,NA,NA,NA,NA,NA,NA,NA,NA,NA,NA,NA,NA,NA,NA,NA,NA,NA,NA,NA
"236","stim/objects/Instruments/tuba2.png",120,63,120,0.9,"stim/64.jpeg",6,4,3,NA,"Instruments",1,2,"left","left",0.761000156,1,1,0,1,NA,NA,NA,NA,NA,NA,NA,NA,NA,NA,NA,NA,NA,NA,NA,NA,NA,NA,NA,NA,NA,NA,NA,NA
"206","stim/objects/Instruments/trombone.png",121,63,121,0.3,"stim/32.jpeg",3,2,2,NA,"Instruments",1,3,"left","right",0.684000254,0,0,0,1,NA,NA,NA,NA,NA,NA,NA,NA,NA,NA,NA,NA,NA,NA,NA,NA,NA,NA,NA,NA,NA,NA,NA,NA
"19","stim/objects/HouseObjects/rubbergloves.png",122,63,122,0.5,"stim/13.jpeg",1,3,1,NA,"HouseObjects",2,3,"right","left",0.844000101,0,0,0,1,NA,NA,NA,NA,NA,NA,NA,NA,NA,NA,NA,NA,NA,NA,NA,NA,NA,NA,NA,NA,NA,NA,NA,NA
"230","stim/objects/Instruments/tuba.png",123,63,123,0.3,"stim/34.jpeg",3,4,2,NA,"Instruments",1,3,"left","right",0.645000219,0,0,0,1,NA,NA,NA,NA,NA,NA,NA,NA,NA,NA,NA,NA,NA,NA,NA,NA,NA,NA,NA,NA,NA,NA,NA,NA
"99","stim/objects/HouseObjects/teapot.png",124,63,124,0.7,"stim/32.jpeg",3,2,2,NA,"HouseObjects",2,4,"right","left",0.684000015,0,0,0,1,NA,NA,NA,NA,NA,NA,NA,NA,NA,NA,NA,NA,NA,NA,NA,NA,NA,NA,NA,NA,NA,NA,NA,NA
"133","stim/objects/Instruments/pipepiano.png",125,63,125,0.5,"stim/12.jpeg",1,2,1,NA,"Instruments",1,2,"left","",NA,0,0,0,1,NA,NA,NA,NA,NA,NA,NA,NA,NA,NA,NA,NA,NA,NA,NA,NA,NA,NA,NA,NA,NA,NA,NA,NA
"42","stim/objects/HouseObjects/safetypin2.png",126,63,126,0.9,"stim/51.jpeg",5,1,3,NA,"HouseObjects",2,3,"right","right",0.759000063,1,1,0,1,NA,NA,NA,NA,NA,NA,NA,NA,NA,NA,NA,NA,NA,NA,NA,NA,NA,NA,NA,NA,NA,NA,NA,NA
"150","stim/objects/Instruments/record_player2.png",127,63,127,0.7,"stim/44.jpeg",4,4,2,NA,"Instruments",1,2,"left","left",0.744000196,1,1,0,1,NA,NA,NA,NA,NA,NA,NA,NA,NA,NA,NA,NA,NA,NA,NA,NA,NA,NA,NA,NA,NA,NA,NA,NA
"43","stim/objects/HouseObjects/safetypin2.png",128,63,128,0.9,"stim/51.jpeg",5,1,3,NA,"HouseObjects",2,2,"right","left",0.531000137,0,0,0,1,NA,NA,NA,NA,NA,NA,NA,NA,NA,NA,NA,NA,NA,NA,NA,NA,NA,NA,NA,NA,NA,NA,NA,NA
"63","stim/objects/HouseObjects/scale.png",129,63,129,0.5,"stim/23.jpeg",2,3,1,NA,"HouseObjects",2,4,"right","",NA,0,0,0,1,NA,NA,NA,NA,NA,NA,NA,NA,NA,NA,NA,NA,NA,NA,NA,NA,NA,NA,NA,NA,NA,NA,NA,NA
"201","stim/objects/Instruments/triangle2.png",130,63,130,0.9,"stim/61.jpeg",6,1,3,NA,"Instruments",1,3,"left","left",0.631000042,1,1,0,1,NA,NA,NA,NA,NA,NA,NA,NA,NA,NA,NA,NA,NA,NA,NA,NA,NA,NA,NA,NA,NA,NA,NA,NA
"64","stim/objects/HouseObjects/scale.png",131,63,131,0.5,"stim/23.jpeg",2,3,1,NA,"HouseObjects",2,1,"right","left",0.86500001,0,0,0,1,NA,NA,NA,NA,NA,NA,NA,NA,NA,NA,NA,NA,NA,NA,NA,NA,NA,NA,NA,NA,NA,NA,NA,NA
"134","stim/objects/Instruments/pipepiano.png",132,63,132,0.5,"stim/12.jpeg",1,2,1,NA,"Instruments",1,3,"left","left",0.782999992,1,1,0,1,NA,NA,NA,NA,NA,NA,NA,NA,NA,NA,NA,NA,NA,NA,NA,NA,NA,NA,NA,NA,NA,NA,NA,NA
"13","stim/objects/HouseObjects/remote.png",133,63,133,0.5,"stim/12.jpeg",1,2,1,NA,"HouseObjects",2,2,"right","left",0.499000072,0,0,0,1,NA,NA,NA,NA,NA,NA,NA,NA,NA,NA,NA,NA,NA,NA,NA,NA,NA,NA,NA,NA,NA,NA,NA,NA
"184","stim/objects/Instruments/tambourine.png",134,63,134,0.5,"stim/23.jpeg",2,3,1,NA,"Instruments",1,4,"left","right",0.845999956,0,0,0,1,NA,NA,NA,NA,NA,NA,NA,NA,NA,NA,NA,NA,NA,NA,NA,NA,NA,NA,NA,NA,NA,NA,NA,NA
"57","stim/objects/HouseObjects/saw2.png",135,63,135,0.9,"stim/52.jpeg",5,2,3,NA,"HouseObjects",2,3,"right","right",0.799000263,1,1,0,1,NA,NA,NA,NA,NA,NA,NA,NA,NA,NA,NA,NA,NA,NA,NA,NA,NA,NA,NA,NA,NA,NA,NA,NA
"69","stim/objects/HouseObjects/scale2.png",136,63,136,0.9,"stim/53.jpeg",5,3,3,NA,"HouseObjects",2,2,"right","left",0.684999943,0,0,0,1,NA,NA,NA,NA,NA,NA,NA,NA,NA,NA,NA,NA,NA,NA,NA,NA,NA,NA,NA,NA,NA,NA,NA,NA
"118","stim/objects/HouseObjects/thread.png",137,63,137,0.7,"stim/34.jpeg",3,4,2,NA,"HouseObjects",2,4,"right","right",0.745000124,1,1,0,1,NA,NA,NA,NA,NA,NA,NA,NA,NA,NA,NA,NA,NA,NA,NA,NA,NA,NA,NA,NA,NA,NA,NA,NA
"213","stim/objects/Instruments/trombone2.png",138,63,138,0.9,"stim/62.jpeg",6,2,3,NA,"Instruments",1,1,"left","left",0.671000004,1,1,0,1,NA,NA,NA,NA,NA,NA,NA,NA,NA,NA,NA,NA,NA,NA,NA,NA,NA,NA,NA,NA,NA,NA,NA,NA
"58","stim/objects/HouseObjects/saw2.png",139,63,139,0.9,"stim/52.jpeg",5,2,3,NA,"HouseObjects",2,2,"right","right",0.881000042,1,1,0,1,NA,NA,NA,NA,NA,NA,NA,NA,NA,NA,NA,NA,NA,NA,NA,NA,NA,NA,NA,NA,NA,NA,NA,NA
"219","stim/objects/Instruments/trumpet.png",140,63,140,0.3,"stim/33.jpeg",3,3,2,NA,"Instruments",1,3,"left","right",0.786000013,0,0,0,1,NA,NA,NA,NA,NA,NA,NA,NA,NA,NA,NA,NA,NA,NA,NA,NA,NA,NA,NA,NA,NA,NA,NA,NA
"177","stim/objects/Instruments/speaker.png",141,63,141,0.5,"stim/22.jpeg",2,2,1,NA,"Instruments",1,4,"left","left",0.861999989,1,1,0,1,NA,NA,NA,NA,NA,NA,NA,NA,NA,NA,NA,NA,NA,NA,NA,NA,NA,NA,NA,NA,NA,NA,NA,NA
"27","stim/objects/HouseObjects/rug.png",142,63,142,0.5,"stim/14.jpeg",1,4,1,NA,"HouseObjects",2,3,"right","left",0.77699995,0,0,0,1,NA,NA,NA,NA,NA,NA,NA,NA,NA,NA,NA,NA,NA,NA,NA,NA,NA,NA,NA,NA,NA,NA,NA,NA
"178","stim/objects/Instruments/speaker.png",143,63,143,0.5,"stim/22.jpeg",2,2,1,NA,"Instruments",1,1,"left","",NA,0,0,0,1,NA,NA,NA,NA,NA,NA,NA,NA,NA,NA,NA,NA,NA,NA,NA,NA,NA,NA,NA,NA,NA,NA,NA,NA
"70","stim/objects/HouseObjects/scale2.png",144,63,144,0.9,"stim/53.jpeg",5,3,3,NA,"HouseObjects",2,2,"right","right",0.673000097,1,1,0,1,NA,NA,NA,NA,NA,NA,NA,NA,NA,NA,NA,NA,NA,NA,NA,NA,NA,NA,NA,NA,NA,NA,NA,NA
"151","stim/objects/Instruments/record_player2.png",145,63,145,0.7,"stim/44.jpeg",4,4,2,NA,"Instruments",1,1,"left","right",0.555999994,0,0,0,1,NA,NA,NA,NA,NA,NA,NA,NA,NA,NA,NA,NA,NA,NA,NA,NA,NA,NA,NA,NA,NA,NA,NA,NA
"71","stim/objects/HouseObjects/scale2.png",146,63,146,0.9,"stim/53.jpeg",5,3,3,NA,"HouseObjects",2,1,"right","right",0.59100008,1,1,0,1,NA,NA,NA,NA,NA,NA,NA,NA,NA,NA,NA,NA,NA,NA,NA,NA,NA,NA,NA,NA,NA,NA,NA,NA
"72","stim/objects/HouseObjects/scale2.png",147,63,147,0.9,"stim/53.jpeg",5,3,3,NA,"HouseObjects",2,2,"right","right",0.576000214,1,1,0,1,NA,NA,NA,NA,NA,NA,NA,NA,NA,NA,NA,NA,NA,NA,NA,NA,NA,NA,NA,NA,NA,NA,NA,NA
"202","stim/objects/Instruments/triangle2.png",148,63,148,0.9,"stim/61.jpeg",6,1,3,NA,"Instruments",1,2,"left","left",0.654000044,1,1,0,1,NA,NA,NA,NA,NA,NA,NA,NA,NA,NA,NA,NA,NA,NA,NA,NA,NA,NA,NA,NA,NA,NA,NA,NA
"174","stim/objects/Instruments/saxophone2.png",149,63,149,0.1,"stim/51.jpeg",5,1,3,NA,"Instruments",1,4,"left","right",0.544000149,0,0,0,1,NA,NA,NA,NA,NA,NA,NA,NA,NA,NA,NA,NA,NA,NA,NA,NA,NA,NA,NA,NA,NA,NA,NA,NA
"237","stim/objects/Instruments/tuba2.png",150,63,150,0.9,"stim/64.jpeg",6,4,3,NA,"Instruments",1,3,"left","left",0.710999966,1,1,0,1,NA,NA,NA,NA,NA,NA,NA,NA,NA,NA,NA,NA,NA,NA,NA,NA,NA,NA,NA,NA,NA,NA,NA,NA
"152","stim/objects/Instruments/record_player2.png",151,63,151,0.7,"stim/44.jpeg",4,4,2,NA,"Instruments",1,1,"left","",NA,0,0,0,1,NA,NA,NA,NA,NA,NA,NA,NA,NA,NA,NA,NA,NA,NA,NA,NA,NA,NA,NA,NA,NA,NA,NA,NA
"100","stim/objects/HouseObjects/teapot.png",152,63,152,0.7,"stim/32.jpeg",3,2,2,NA,"HouseObjects",2,3,"right","right",0.545000076,1,1,0,1,NA,NA,NA,NA,NA,NA,NA,NA,NA,NA,NA,NA,NA,NA,NA,NA,NA,NA,NA,NA,NA,NA,NA,NA
"101","stim/objects/HouseObjects/teapot.png",153,63,153,0.7,"stim/32.jpeg",3,2,2,NA,"HouseObjects",2,4,"right","right",0.603000164,1,1,0,1,NA,NA,NA,NA,NA,NA,NA,NA,NA,NA,NA,NA,NA,NA,NA,NA,NA,NA,NA,NA,NA,NA,NA,NA
"44","stim/objects/HouseObjects/safetypin2.png",154,63,154,0.9,"stim/51.jpeg",5,1,3,NA,"HouseObjects",2,4,"right","left",0.776000023,0,0,0,1,NA,NA,NA,NA,NA,NA,NA,NA,NA,NA,NA,NA,NA,NA,NA,NA,NA,NA,NA,NA,NA,NA,NA,NA
"214","stim/objects/Instruments/trombone2.png",155,63,155,0.9,"stim/62.jpeg",6,2,3,NA,"Instruments",1,1,"left","left",0.812000275,1,1,0,1,NA,NA,NA,NA,NA,NA,NA,NA,NA,NA,NA,NA,NA,NA,NA,NA,NA,NA,NA,NA,NA,NA,NA,NA
"102","stim/objects/HouseObjects/teapot.png",156,63,156,0.7,"stim/32.jpeg",3,2,2,NA,"HouseObjects",2,1,"right","",NA,0,0,0,1,NA,NA,NA,NA,NA,NA,NA,NA,NA,NA,NA,NA,NA,NA,NA,NA,NA,NA,NA,NA,NA,NA,NA,NA
"224","stim/objects/Instruments/trumpet2.png",157,63,157,0.9,"stim/63.jpeg",6,3,3,NA,"Instruments",1,3,"left","left",0.500999928,1,1,0,1,NA,NA,NA,NA,NA,NA,NA,NA,NA,NA,NA,NA,NA,NA,NA,NA,NA,NA,NA,NA,NA,NA,NA,NA
"35","stim/objects/HouseObjects/safetypin.png",158,63,158,0.5,"stim/21.jpeg",2,1,1,NA,"HouseObjects",2,3,"right","right",0.696000099,1,1,0,1,NA,NA,NA,NA,NA,NA,NA,NA,NA,NA,NA,NA,NA,NA,NA,NA,NA,NA,NA,NA,NA,NA,NA,NA
"59","stim/objects/HouseObjects/saw2.png",159,63,159,0.9,"stim/52.jpeg",5,2,3,NA,"HouseObjects",2,1,"right","left",0.747000217,0,0,0,1,NA,NA,NA,NA,NA,NA,NA,NA,NA,NA,NA,NA,NA,NA,NA,NA,NA,NA,NA,NA,NA,NA,NA,NA
"165","stim/objects/Instruments/record2.png",160,63,160,0.7,"stim/43.jpeg",4,3,2,NA,"Instruments",1,3,"left","",NA,0,0,0,1,NA,NA,NA,NA,NA,NA,NA,NA,NA,NA,NA,NA,NA,NA,NA,NA,NA,NA,NA,NA,NA,NA,NA,NA
"2","stim/objects/HouseObjects/recyclingbin.png",161,63,161,0.5,"stim/11.jpeg",1,1,1,NA,"HouseObjects",2,2,"right","right",0.54700017,1,1,0,1,NA,NA,NA,NA,NA,NA,NA,NA,NA,NA,NA,NA,NA,NA,NA,NA,NA,NA,NA,NA,NA,NA,NA,NA
"36","stim/objects/HouseObjects/safetypin.png",162,63,162,0.5,"stim/21.jpeg",2,1,1,NA,"HouseObjects",2,4,"right","left",0.6650002,0,0,0,1,NA,NA,NA,NA,NA,NA,NA,NA,NA,NA,NA,NA,NA,NA,NA,NA,NA,NA,NA,NA,NA,NA,NA,NA
"122","stim/objects/Instruments/panflute.png",163,63,163,0.5,"stim/11.jpeg",1,1,1,NA,"Instruments",1,2,"left","left",0.742000103,1,1,0,1,NA,NA,NA,NA,NA,NA,NA,NA,NA,NA,NA,NA,NA,NA,NA,NA,NA,NA,NA,NA,NA,NA,NA,NA
"171","stim/objects/Instruments/saxophone.png",164,63,164,0.5,"stim/21.jpeg",2,1,1,NA,"Instruments",1,2,"left","right",0.613000154,0,0,0,1,NA,NA,NA,NA,NA,NA,NA,NA,NA,NA,NA,NA,NA,NA,NA,NA,NA,NA,NA,NA,NA,NA,NA,NA
"123","stim/objects/Instruments/panflute.png",165,63,165,0.5,"stim/11.jpeg",1,1,1,NA,"Instruments",1,2,"left","left",0.645999908,1,1,0,1,NA,NA,NA,NA,NA,NA,NA,NA,NA,NA,NA,NA,NA,NA,NA,NA,NA,NA,NA,NA,NA,NA,NA,NA
"37","stim/objects/HouseObjects/safetypin.png",166,63,166,0.5,"stim/21.jpeg",2,1,1,NA,"HouseObjects",2,3,"right","right",0.666000128,1,1,0,1,NA,NA,NA,NA,NA,NA,NA,NA,NA,NA,NA,NA,NA,NA,NA,NA,NA,NA,NA,NA,NA,NA,NA,NA
"172","stim/objects/Instruments/saxophone.png",167,63,167,0.5,"stim/21.jpeg",2,1,1,NA,"Instruments",1,3,"left","right",0.496000051,0,0,0,1,NA,NA,NA,NA,NA,NA,NA,NA,NA,NA,NA,NA,NA,NA,NA,NA,NA,NA,NA,NA,NA,NA,NA,NA
"3","stim/objects/HouseObjects/recyclingbin.png",168,63,168,0.5,"stim/11.jpeg",1,1,1,NA,"HouseObjects",2,3,"right","",NA,0,0,0,1,NA,NA,NA,NA,NA,NA,NA,NA,NA,NA,NA,NA,NA,NA,NA,NA,NA,NA,NA,NA,NA,NA,NA,NA
"24","stim/objects/HouseObjects/rubbergloves2.png",169,63,169,0.3,"stim/43.jpeg",4,3,2,NA,"HouseObjects",2,4,"right","left",0.69900012,0,0,0,1,NA,NA,NA,NA,NA,NA,NA,NA,NA,NA,NA,NA,NA,NA,NA,NA,NA,NA,NA,NA,NA,NA,NA,NA
"49","stim/objects/HouseObjects/saw.png",170,63,170,0.5,"stim/22.jpeg",2,2,1,NA,"HouseObjects",2,1,"right","right",0.555999994,1,1,0,1,NA,NA,NA,NA,NA,NA,NA,NA,NA,NA,NA,NA,NA,NA,NA,NA,NA,NA,NA,NA,NA,NA,NA,NA
"135","stim/objects/Instruments/pipepiano.png",171,63,171,0.5,"stim/12.jpeg",1,2,1,NA,"Instruments",1,1,"left","left",0.696000099,1,1,0,1,NA,NA,NA,NA,NA,NA,NA,NA,NA,NA,NA,NA,NA,NA,NA,NA,NA,NA,NA,NA,NA,NA,NA,NA
"179","stim/objects/Instruments/speaker.png",172,63,172,0.5,"stim/22.jpeg",2,2,1,NA,"Instruments",1,3,"left","right",0.729000092,0,0,0,1,NA,NA,NA,NA,NA,NA,NA,NA,NA,NA,NA,NA,NA,NA,NA,NA,NA,NA,NA,NA,NA,NA,NA,NA
"136","stim/objects/Instruments/pipepiano.png",173,63,173,0.5,"stim/12.jpeg",1,2,1,NA,"Instruments",1,4,"left","left",0.719000101,1,1,0,1,NA,NA,NA,NA,NA,NA,NA,NA,NA,NA,NA,NA,NA,NA,NA,NA,NA,NA,NA,NA,NA,NA,NA,NA
"153","stim/objects/Instruments/record_player2.png",174,63,174,0.7,"stim/44.jpeg",4,4,2,NA,"Instruments",1,4,"left","left",0.730000019,1,1,0,1,NA,NA,NA,NA,NA,NA,NA,NA,NA,NA,NA,NA,NA,NA,NA,NA,NA,NA,NA,NA,NA,NA,NA,NA
"96","stim/objects/HouseObjects/spraybottle2.png",175,63,175,0.1,"stim/61.jpeg",6,1,3,NA,"HouseObjects",2,2,"right","left",0.662000179,0,0,0,1,NA,NA,NA,NA,NA,NA,NA,NA,NA,NA,NA,NA,NA,NA,NA,NA,NA,NA,NA,NA,NA,NA,NA,NA
"154","stim/objects/Instruments/record_player2.png",176,63,176,0.7,"stim/44.jpeg",4,4,2,NA,"Instruments",1,3,"left","right",0.76699996,0,0,0,1,NA,NA,NA,NA,NA,NA,NA,NA,NA,NA,NA,NA,NA,NA,NA,NA,NA,NA,NA,NA,NA,NA,NA,NA
"192","stim/objects/Instruments/timbal2.png",177,63,177,0.1,"stim/54.jpeg",5,4,3,NA,"Instruments",1,1,"left","right",0.664000273,0,0,0,1,NA,NA,NA,NA,NA,NA,NA,NA,NA,NA,NA,NA,NA,NA,NA,NA,NA,NA,NA,NA,NA,NA,NA,NA
"50","stim/objects/HouseObjects/saw.png",178,63,178,0.5,"stim/22.jpeg",2,2,1,NA,"HouseObjects",2,1,"right","left",0.722000122,0,0,0,1,NA,NA,NA,NA,NA,NA,NA,NA,NA,NA,NA,NA,NA,NA,NA,NA,NA,NA,NA,NA,NA,NA,NA,NA
"15","stim/objects/HouseObjects/remote2.png",179,63,179,0.3,"stim/42.jpeg",4,2,2,NA,"HouseObjects",2,2,"right","left",0.755000114,0,0,0,1,NA,NA,NA,NA,NA,NA,NA,NA,NA,NA,NA,NA,NA,NA,NA,NA,NA,NA,NA,NA,NA,NA,NA,NA
"130","stim/objects/Instruments/panflute2.png",180,63,180,0.7,"stim/41.jpeg",4,1,2,NA,"Instruments",1,2,"left","left",0.756000042,1,1,0,1,NA,NA,NA,NA,NA,NA,NA,NA,NA,NA,NA,NA,NA,NA,NA,NA,NA,NA,NA,NA,NA,NA,NA,NA
"60","stim/objects/HouseObjects/saw2.png",181,63,181,0.9,"stim/52.jpeg",5,2,3,NA,"HouseObjects",2,2,"right","right",0.683000088,1,1,0,1,NA,NA,NA,NA,NA,NA,NA,NA,NA,NA,NA,NA,NA,NA,NA,NA,NA,NA,NA,NA,NA,NA,NA,NA
"141","stim/objects/Instruments/pipepiano2.png",182,63,182,0.7,"stim/42.jpeg",4,2,2,NA,"Instruments",1,2,"left","right",0.493999958,0,0,0,1,NA,NA,NA,NA,NA,NA,NA,NA,NA,NA,NA,NA,NA,NA,NA,NA,NA,NA,NA,NA,NA,NA,NA,NA
"238","stim/objects/Instruments/tuba2.png",183,63,183,0.9,"stim/64.jpeg",6,4,3,NA,"Instruments",1,2,"left","left",0.601000071,1,1,0,1,NA,NA,NA,NA,NA,NA,NA,NA,NA,NA,NA,NA,NA,NA,NA,NA,NA,NA,NA,NA,NA,NA,NA,NA
"45","stim/objects/HouseObjects/safetypin2.png",184,63,184,0.9,"stim/51.jpeg",5,1,3,NA,"HouseObjects",2,4,"right","left",0.645000219,0,0,0,1,NA,NA,NA,NA,NA,NA,NA,NA,NA,NA,NA,NA,NA,NA,NA,NA,NA,NA,NA,NA,NA,NA,NA,NA
"16","stim/objects/HouseObjects/remote2.png",185,63,185,0.3,"stim/42.jpeg",4,2,2,NA,"HouseObjects",2,2,"right","left",0.684000015,0,0,0,1,NA,NA,NA,NA,NA,NA,NA,NA,NA,NA,NA,NA,NA,NA,NA,NA,NA,NA,NA,NA,NA,NA,NA,NA
"185","stim/objects/Instruments/tambourine.png",186,63,186,0.5,"stim/23.jpeg",2,3,1,NA,"Instruments",1,1,"left","right",0.578999996,0,0,0,1,NA,NA,NA,NA,NA,NA,NA,NA,NA,NA,NA,NA,NA,NA,NA,NA,NA,NA,NA,NA,NA,NA,NA,NA
"231","stim/objects/Instruments/tuba.png",187,63,187,0.3,"stim/34.jpeg",3,4,2,NA,"Instruments",1,3,"left","right",0.728000164,0,0,0,1,NA,NA,NA,NA,NA,NA,NA,NA,NA,NA,NA,NA,NA,NA,NA,NA,NA,NA,NA,NA,NA,NA,NA,NA
"28","stim/objects/HouseObjects/rug.png",188,63,188,0.5,"stim/14.jpeg",1,4,1,NA,"HouseObjects",2,1,"right","",NA,0,0,0,1,NA,NA,NA,NA,NA,NA,NA,NA,NA,NA,NA,NA,NA,NA,NA,NA,NA,NA,NA,NA,NA,NA,NA,NA
"131","stim/objects/Instruments/panflute2.png",189,63,189,0.7,"stim/41.jpeg",4,1,2,NA,"Instruments",1,1,"left","right",0.651000261,0,0,0,1,NA,NA,NA,NA,NA,NA,NA,NA,NA,NA,NA,NA,NA,NA,NA,NA,NA,NA,NA,NA,NA,NA,NA,NA
"142","stim/objects/Instruments/pipepiano2.png",190,63,190,0.7,"stim/42.jpeg",4,2,2,NA,"Instruments",1,1,"left","right",0.685000181,0,0,0,1,NA,NA,NA,NA,NA,NA,NA,NA,NA,NA,NA,NA,NA,NA,NA,NA,NA,NA,NA,NA,NA,NA,NA,NA
"203","stim/objects/Instruments/triangle2.png",191,63,191,0.9,"stim/61.jpeg",6,1,3,NA,"Instruments",1,4,"left","left",0.562000036,1,1,0,1,NA,NA,NA,NA,NA,NA,NA,NA,NA,NA,NA,NA,NA,NA,NA,NA,NA,NA,NA,NA,NA,NA,NA,NA
"4","stim/objects/HouseObjects/recyclingbin.png",192,63,192,0.5,"stim/11.jpeg",1,1,1,NA,"HouseObjects",2,1,"right","right",0.761000156,1,1,0,1,NA,NA,NA,NA,NA,NA,NA,NA,NA,NA,NA,NA,NA,NA,NA,NA,NA,NA,NA,NA,NA,NA,NA,NA
"73","stim/objects/HouseObjects/scale2.png",193,63,193,0.9,"stim/53.jpeg",5,3,3,NA,"HouseObjects",2,3,"right","right",0.738000154,1,1,0,1,NA,NA,NA,NA,NA,NA,NA,NA,NA,NA,NA,NA,NA,NA,NA,NA,NA,NA,NA,NA,NA,NA,NA,NA
"239","stim/objects/Instruments/tuba2.png",194,63,194,0.9,"stim/64.jpeg",6,4,3,NA,"Instruments",1,3,"left","left",0.70600009,1,1,0,1,NA,NA,NA,NA,NA,NA,NA,NA,NA,NA,NA,NA,NA,NA,NA,NA,NA,NA,NA,NA,NA,NA,NA,NA
"84","stim/objects/HouseObjects/sponge2.png",195,63,195,0.9,"stim/54.jpeg",5,4,3,NA,"HouseObjects",2,2,"right","right",0.580000162,1,1,0,1,NA,NA,NA,NA,NA,NA,NA,NA,NA,NA,NA,NA,NA,NA,NA,NA,NA,NA,NA,NA,NA,NA,NA,NA
"215","stim/objects/Instruments/trombone2.png",196,63,196,0.9,"stim/62.jpeg",6,2,3,NA,"Instruments",1,4,"left","left",0.763000011,1,1,0,1,NA,NA,NA,NA,NA,NA,NA,NA,NA,NA,NA,NA,NA,NA,NA,NA,NA,NA,NA,NA,NA,NA,NA,NA
"95","stim/objects/HouseObjects/spraybottle.png",197,63,197,0.7,"stim/31.jpeg",3,1,2,NA,"HouseObjects",2,1,"right","right",0.688000202,1,1,0,1,NA,NA,NA,NA,NA,NA,NA,NA,NA,NA,NA,NA,NA,NA,NA,NA,NA,NA,NA,NA,NA,NA,NA,NA
"78","stim/objects/HouseObjects/sponge.png",198,63,198,0.5,"stim/24.jpeg",2,4,1,NA,"HouseObjects",2,2,"right","left",0.641000032,0,0,0,1,NA,NA,NA,NA,NA,NA,NA,NA,NA,NA,NA,NA,NA,NA,NA,NA,NA,NA,NA,NA,NA,NA,NA,NA
"166","stim/objects/Instruments/record2.png",199,63,199,0.7,"stim/43.jpeg",4,3,2,NA,"Instruments",1,1,"left","left",0.782999992,1,1,0,1,NA,NA,NA,NA,NA,NA,NA,NA,NA,NA,NA,NA,NA,NA,NA,NA,NA,NA,NA,NA,NA,NA,NA,NA
"143","stim/objects/Instruments/pipepiano2.png",200,63,200,0.7,"stim/42.jpeg",4,2,2,NA,"Instruments",1,4,"left","left",0.59800005,1,1,0,1,NA,NA,NA,NA,NA,NA,NA,NA,NA,NA,NA,NA,NA,NA,NA,NA,NA,NA,NA,NA,NA,NA,NA,NA
"51","stim/objects/HouseObjects/saw.png",201,63,201,0.5,"stim/22.jpeg",2,2,1,NA,"HouseObjects",2,2,"right","right",0.628000021,1,1,0,1,NA,NA,NA,NA,NA,NA,NA,NA,NA,NA,NA,NA,NA,NA,NA,NA,NA,NA,NA,NA,NA,NA,NA,NA
"173","stim/objects/Instruments/saxophone.png",202,63,202,0.5,"stim/21.jpeg",2,1,1,NA,"Instruments",1,4,"left","left",0.644000053,1,1,0,1,NA,NA,NA,NA,NA,NA,NA,NA,NA,NA,NA,NA,NA,NA,NA,NA,NA,NA,NA,NA,NA,NA,NA,NA
"85","stim/objects/HouseObjects/sponge2.png",203,63,203,0.9,"stim/54.jpeg",5,4,3,NA,"HouseObjects",2,1,"right","right",0.598000288,1,1,0,1,NA,NA,NA,NA,NA,NA,NA,NA,NA,NA,NA,NA,NA,NA,NA,NA,NA,NA,NA,NA,NA,NA,NA,NA
"65","stim/objects/HouseObjects/scale.png",204,63,204,0.5,"stim/23.jpeg",2,3,1,NA,"HouseObjects",2,3,"right","left",0.818000078,0,0,0,1,NA,NA,NA,NA,NA,NA,NA,NA,NA,NA,NA,NA,NA,NA,NA,NA,NA,NA,NA,NA,NA,NA,NA,NA
"124","stim/objects/Instruments/panflute.png",205,63,205,0.5,"stim/11.jpeg",1,1,1,NA,"Instruments",1,1,"left","left",0.810000181,1,1,0,1,NA,NA,NA,NA,NA,NA,NA,NA,NA,NA,NA,NA,NA,NA,NA,NA,NA,NA,NA,NA,NA,NA,NA,NA
"111","stim/objects/HouseObjects/thermometer.png",206,63,206,0.7,"stim/33.jpeg",3,3,2,NA,"HouseObjects",2,2,"right","",NA,0,0,0,1,NA,NA,NA,NA,NA,NA,NA,NA,NA,NA,NA,NA,NA,NA,NA,NA,NA,NA,NA,NA,NA,NA,NA,NA
"144","stim/objects/Instruments/pipepiano2.png",207,63,207,0.7,"stim/42.jpeg",4,2,2,NA,"Instruments",1,4,"left","right",0.561000109,0,0,0,1,NA,NA,NA,NA,NA,NA,NA,NA,NA,NA,NA,NA,NA,NA,NA,NA,NA,NA,NA,NA,NA,NA,NA,NA
"155","stim/objects/Instruments/record_player2.png",208,63,208,0.7,"stim/44.jpeg",4,4,2,NA,"Instruments",1,1,"left","left",0.667000055,1,1,0,1,NA,NA,NA,NA,NA,NA,NA,NA,NA,NA,NA,NA,NA,NA,NA,NA,NA,NA,NA,NA,NA,NA,NA,NA
"225","stim/objects/Instruments/trumpet2.png",209,63,209,0.9,"stim/63.jpeg",6,3,3,NA,"Instruments",1,3,"left","left",0.81400013,1,1,0,1,NA,NA,NA,NA,NA,NA,NA,NA,NA,NA,NA,NA,NA,NA,NA,NA,NA,NA,NA,NA,NA,NA,NA,NA
"20","stim/objects/HouseObjects/rubbergloves.png",210,63,210,0.5,"stim/13.jpeg",1,3,1,NA,"HouseObjects",2,4,"right","left",0.597000122,0,0,0,1,NA,NA,NA,NA,NA,NA,NA,NA,NA,NA,NA,NA,NA,NA,NA,NA,NA,NA,NA,NA,NA,NA,NA,NA
"86","stim/objects/HouseObjects/sponge2.png",211,63,211,0.9,"stim/54.jpeg",5,4,3,NA,"HouseObjects",2,4,"right","left",0.548000097,0,0,0,1,NA,NA,NA,NA,NA,NA,NA,NA,NA,NA,NA,NA,NA,NA,NA,NA,NA,NA,NA,NA,NA,NA,NA,NA
"29","stim/objects/HouseObjects/rug.png",212,63,212,0.5,"stim/14.jpeg",1,4,1,NA,"HouseObjects",2,4,"right","left",0.713000059,0,0,0,1,NA,NA,NA,NA,NA,NA,NA,NA,NA,NA,NA,NA,NA,NA,NA,NA,NA,NA,NA,NA,NA,NA,NA,NA
"119","stim/objects/HouseObjects/thread.png",213,63,213,0.7,"stim/34.jpeg",3,4,2,NA,"HouseObjects",2,2,"right","right",0.759000063,1,1,0,1,NA,NA,NA,NA,NA,NA,NA,NA,NA,NA,NA,NA,NA,NA,NA,NA,NA,NA,NA,NA,NA,NA,NA,NA
"21","stim/objects/HouseObjects/rubbergloves.png",214,63,214,0.5,"stim/13.jpeg",1,3,1,NA,"HouseObjects",2,1,"right","left",0.843000174,0,0,0,1,NA,NA,NA,NA,NA,NA,NA,NA,NA,NA,NA,NA,NA,NA,NA,NA,NA,NA,NA,NA,NA,NA,NA,NA
"137","stim/objects/Instruments/pipepiano.png",215,63,215,0.5,"stim/12.jpeg",1,2,1,NA,"Instruments",1,4,"left","left",0.555000067,1,1,0,1,NA,NA,NA,NA,NA,NA,NA,NA,NA,NA,NA,NA,NA,NA,NA,NA,NA,NA,NA,NA,NA,NA,NA,NA
"226","stim/objects/Instruments/trumpet2.png",216,63,216,0.9,"stim/63.jpeg",6,3,3,NA,"Instruments",1,3,"left","left",0.614000082,1,1,0,1,NA,NA,NA,NA,NA,NA,NA,NA,NA,NA,NA,NA,NA,NA,NA,NA,NA,NA,NA,NA,NA,NA,NA,NA
"191","stim/objects/Instruments/timbal.png",217,63,217,0.5,"stim/24.jpeg",2,4,1,NA,"Instruments",1,2,"left","left",0.678000212,1,1,0,1,NA,NA,NA,NA,NA,NA,NA,NA,NA,NA,NA,NA,NA,NA,NA,NA,NA,NA,NA,NA,NA,NA,NA,NA
"167","stim/objects/Instruments/record2.png",218,63,218,0.7,"stim/43.jpeg",4,3,2,NA,"Instruments",1,1,"left","left",0.691000223,1,1,0,1,NA,NA,NA,NA,NA,NA,NA,NA,NA,NA,NA,NA,NA,NA,NA,NA,NA,NA,NA,NA,NA,NA,NA,NA
"103","stim/objects/HouseObjects/teapot.png",219,63,219,0.7,"stim/32.jpeg",3,2,2,NA,"HouseObjects",2,1,"right","right",0.585000277,1,1,0,1,NA,NA,NA,NA,NA,NA,NA,NA,NA,NA,NA,NA,NA,NA,NA,NA,NA,NA,NA,NA,NA,NA,NA,NA
"227","stim/objects/Instruments/trumpet2.png",220,63,220,0.9,"stim/63.jpeg",6,3,3,NA,"Instruments",1,1,"left","left",0.796000004,1,1,0,1,NA,NA,NA,NA,NA,NA,NA,NA,NA,NA,NA,NA,NA,NA,NA,NA,NA,NA,NA,NA,NA,NA,NA,NA
"216","stim/objects/Instruments/trombone2.png",221,63,221,0.9,"stim/62.jpeg",6,2,3,NA,"Instruments",1,4,"left","left",0.558000088,1,1,0,1,NA,NA,NA,NA,NA,NA,NA,NA,NA,NA,NA,NA,NA,NA,NA,NA,NA,NA,NA,NA,NA,NA,NA,NA
"195","stim/objects/Instruments/triangle.png",222,63,222,0.3,"stim/31.jpeg",3,1,2,NA,"Instruments",1,2,"left","left",0.670000076,1,1,0,1,NA,NA,NA,NA,NA,NA,NA,NA,NA,NA,NA,NA,NA,NA,NA,NA,NA,NA,NA,NA,NA,NA,NA,NA
"104","stim/objects/HouseObjects/teapot2.png",223,63,223,0.1,"stim/62.jpeg",6,2,3,NA,"HouseObjects",2,1,"right","left",0.638000011,0,0,0,1,NA,NA,NA,NA,NA,NA,NA,NA,NA,NA,NA,NA,NA,NA,NA,NA,NA,NA,NA,NA,NA,NA,NA,NA
"156","stim/objects/Instruments/record_player2.png",224,63,224,0.7,"stim/44.jpeg",4,4,2,NA,"Instruments",1,1,"left","left",0.671000004,1,1,0,1,NA,NA,NA,NA,NA,NA,NA,NA,NA,NA,NA,NA,NA,NA,NA,NA,NA,NA,NA,NA,NA,NA,NA,NA
"132","stim/objects/Instruments/panflute2.png",225,63,225,0.7,"stim/41.jpeg",4,1,2,NA,"Instruments",1,1,"left","left",0.662000179,1,1,0,1,NA,NA,NA,NA,NA,NA,NA,NA,NA,NA,NA,NA,NA,NA,NA,NA,NA,NA,NA,NA,NA,NA,NA,NA
"204","stim/objects/Instruments/triangle2.png",226,63,226,0.9,"stim/61.jpeg",6,1,3,NA,"Instruments",1,4,"left","left",0.578999996,1,1,0,1,NA,NA,NA,NA,NA,NA,NA,NA,NA,NA,NA,NA,NA,NA,NA,NA,NA,NA,NA,NA,NA,NA,NA,NA
"46","stim/objects/HouseObjects/safetypin2.png",227,63,227,0.9,"stim/51.jpeg",5,1,3,NA,"HouseObjects",2,4,"right","right",0.695000172,1,1,0,1,NA,NA,NA,NA,NA,NA,NA,NA,NA,NA,NA,NA,NA,NA,NA,NA,NA,NA,NA,NA,NA,NA,NA,NA
"125","stim/objects/Instruments/panflute.png",228,63,228,0.5,"stim/11.jpeg",1,1,1,NA,"Instruments",1,4,"left","right",0.749000072,0,0,0,1,NA,NA,NA,NA,NA,NA,NA,NA,NA,NA,NA,NA,NA,NA,NA,NA,NA,NA,NA,NA,NA,NA,NA,NA
"87","stim/objects/HouseObjects/sponge2.png",229,63,229,0.9,"stim/54.jpeg",5,4,3,NA,"HouseObjects",2,3,"right","right",0.877000093,1,1,0,1,NA,NA,NA,NA,NA,NA,NA,NA,NA,NA,NA,NA,NA,NA,NA,NA,NA,NA,NA,NA,NA,NA,NA,NA
"240","stim/objects/Instruments/tuba2.png",230,63,230,0.9,"stim/64.jpeg",6,4,3,NA,"Instruments",1,4,"left","left",0.726999998,1,1,0,1,NA,NA,NA,NA,NA,NA,NA,NA,NA,NA,NA,NA,NA,NA,NA,NA,NA,NA,NA,NA,NA,NA,NA,NA
"207","stim/objects/Instruments/trombone.png",231,63,231,0.3,"stim/32.jpeg",3,2,2,NA,"Instruments",1,2,"left","right",0.744999886,0,0,0,1,NA,NA,NA,NA,NA,NA,NA,NA,NA,NA,NA,NA,NA,NA,NA,NA,NA,NA,NA,NA,NA,NA,NA,NA
"8","stim/objects/HouseObjects/recyclingbin2.png",232,63,232,0.3,"stim/41.jpeg",4,1,2,NA,"HouseObjects",2,4,"right","left",0.878999949,0,0,0,1,NA,NA,NA,NA,NA,NA,NA,NA,NA,NA,NA,NA,NA,NA,NA,NA,NA,NA,NA,NA,NA,NA,NA,NA
"31","stim/objects/HouseObjects/rug2.png",233,63,233,0.3,"stim/44.jpeg",4,4,2,NA,"HouseObjects",2,4,"right","left",0.595000029,0,0,0,1,NA,NA,NA,NA,NA,NA,NA,NA,NA,NA,NA,NA,NA,NA,NA,NA,NA,NA,NA,NA,NA,NA,NA,NA
"88","stim/objects/HouseObjects/sponge2.png",234,63,234,0.9,"stim/54.jpeg",5,4,3,NA,"HouseObjects",2,1,"right","right",0.740000248,1,1,0,1,NA,NA,NA,NA,NA,NA,NA,NA,NA,NA,NA,NA,NA,NA,NA,NA,NA,NA,NA,NA,NA,NA,NA,NA
"168","stim/objects/Instruments/record2.png",235,63,235,0.7,"stim/43.jpeg",4,3,2,NA,"Instruments",1,4,"left","left",0.741000175,1,1,0,1,NA,NA,NA,NA,NA,NA,NA,NA,NA,NA,NA,NA,NA,NA,NA,NA,NA,NA,NA,NA,NA,NA,NA,NA
"79","stim/objects/HouseObjects/sponge.png",236,63,236,0.5,"stim/24.jpeg",2,4,1,NA,"HouseObjects",2,2,"right","right",0.674000025,1,1,0,1,NA,NA,NA,NA,NA,NA,NA,NA,NA,NA,NA,NA,NA,NA,NA,NA,NA,NA,NA,NA,NA,NA,NA,NA
"5","stim/objects/HouseObjects/recyclingbin.png",237,63,237,0.5,"stim/11.jpeg",1,1,1,NA,"HouseObjects",2,2,"right","left",0.743000269,0,0,0,1,NA,NA,NA,NA,NA,NA,NA,NA,NA,NA,NA,NA,NA,NA,NA,NA,NA,NA,NA,NA,NA,NA,NA,NA
"228","stim/objects/Instruments/trumpet2.png",238,63,238,0.9,"stim/63.jpeg",6,3,3,NA,"Instruments",1,3,"left","left",0.753999949,1,1,0,1,NA,NA,NA,NA,NA,NA,NA,NA,NA,NA,NA,NA,NA,NA,NA,NA,NA,NA,NA,NA,NA,NA,NA,NA
"74","stim/objects/HouseObjects/scale2.png",239,63,239,0.9,"stim/53.jpeg",5,3,3,NA,"HouseObjects",2,1,"right","right",0.657999992,1,1,0,1,NA,NA,NA,NA,NA,NA,NA,NA,NA,NA,NA,NA,NA,NA,NA,NA,NA,NA,NA,NA,NA,NA,NA,NA
"32","stim/objects/HouseObjects/rug2.png",240,63,240,0.3,"stim/44.jpeg",4,4,2,NA,"HouseObjects",2,1,"right","right",0.746000051,1,1,0,1,NA,NA,NA,NA,NA,NA,NA,NA,NA,NA,NA,NA,NA,NA,NA,NA,NA,NA,NA,NA,NA,NA,NA,NA
"342","stim/objects/HouseObjects/garbagebin3.png",248,63,241,0.9,"stim/52.jpeg",5,2,3,2,"HouseObjects",2,3,"right","right",0.793000221,1,1,1,0,NA,NA,NA,NA,NA,NA,NA,NA,NA,NA,NA,NA,NA,NA,NA,NA,NA,NA,NA,NA,NA,NA,NA,NA
"308","stim/objects/HouseObjects/dustpan3.png",249,63,242,0.9,"stim/52.jpeg",5,2,3,2,"HouseObjects",2,3,"right","right",0.532000065,1,1,1,0,NA,NA,NA,NA,NA,NA,NA,NA,NA,NA,NA,NA,NA,NA,NA,NA,NA,NA,NA,NA,NA,NA,NA,NA
"545","stim/objects/Instruments/harp3.png",250,63,243,0.5,"stim/11.jpeg",1,1,1,1,"Instruments",1,2,"left","left",0.577000141,1,1,1,0,12,63,1,0.5,1,"stim/11.jpeg",1,1,"stim/11.jpeg",2,"left",0.92599988,3,4,8.167999983,2,3.105999947,12,1,0,0,1,1,0
"262","stim/objects/HouseObjects/broom3.png",251,63,244,0.5,"stim/24.jpeg",2,4,1,2,"HouseObjects",2,4,"right","right",0.710000038,1,1,1,0,NA,NA,NA,NA,NA,NA,NA,NA,NA,NA,NA,NA,NA,NA,NA,NA,NA,NA,NA,NA,NA,NA,NA,NA
"473","stim/objects/Instruments/flutetrans3.png",252,63,245,0.9,"stim/64.jpeg",6,4,3,2,"Instruments",1,1,"left","left",0.713000059,1,1,1,0,NA,NA,NA,NA,NA,NA,NA,NA,NA,NA,NA,NA,NA,NA,NA,NA,NA,NA,NA,NA,NA,NA,NA,NA
"343","stim/objects/HouseObjects/garbagebin3.png",253,63,246,0.9,"stim/54.jpeg",5,4,3,2,"HouseObjects",2,3,"right","right",0.751000166,1,1,1,0,NA,NA,NA,NA,NA,NA,NA,NA,NA,NA,NA,NA,NA,NA,NA,NA,NA,NA,NA,NA,NA,NA,NA,NA
"474","stim/objects/Instruments/flutetrans3.png",254,63,247,0.9,"stim/63.jpeg",6,3,3,2,"Instruments",1,1,"left","left",0.64800024,1,1,1,0,NA,NA,NA,NA,NA,NA,NA,NA,NA,NA,NA,NA,NA,NA,NA,NA,NA,NA,NA,NA,NA,NA,NA,NA
"424","stim/objects/Instruments/cello3.png",255,63,248,0.5,"stim/21.jpeg",2,1,1,2,"Instruments",1,4,"left","",NA,0,0,1,0,NA,NA,NA,NA,NA,NA,NA,NA,NA,NA,NA,NA,NA,NA,NA,NA,NA,NA,NA,NA,NA,NA,NA,NA
"490","stim/objects/Instruments/frenchhorn3.png",256,63,249,0.9,"stim/61.jpeg",6,1,3,2,"Instruments",1,1,"left","left",0.702000141,1,1,1,0,NA,NA,NA,NA,NA,NA,NA,NA,NA,NA,NA,NA,NA,NA,NA,NA,NA,NA,NA,NA,NA,NA,NA,NA
"429","stim/objects/Instruments/chime4.png",257,63,250,0.7,"stim/42.jpeg",4,2,2,1,"Instruments",1,4,"left","right",0.725000143,0,0,1,0,180,63,1,0.7,1,"stim/42.jpeg",4,2,"stim/42.jpeg",4,"left",1.503000021,2,3,1.183999777,1,0.739000082,180,1,0,0,0,0,0
"565","stim/objects/Instruments/violin3.png",258,63,251,0.3,"stim/33.jpeg",3,3,2,1,"Instruments",1,1,"left","",NA,0,0,1,0,195,63,1,0.3,1,"stim/33.jpeg",3,3,"stim/33.jpeg",1,"left",1.019999981,2,3,2.671999931,2,1.756999969,195,1,1,1,0,0,0
"556","stim/objects/Instruments/marimba4.png",259,63,252,0.9,"stim/63.jpeg",6,3,3,1,"Instruments",1,3,"left","left",0.667999983,1,1,1,0,153,63,1,0.9,1,"stim/63.jpeg",6,3,"stim/63.jpeg",3,"right",1.004999876,2,3,1.742000103,3,3.336999893,153,0,1,NA,1,NA,0
"508","stim/objects/Instruments/gong3.png",260,63,253,0.9,"stim/61.jpeg",6,1,3,2,"Instruments",1,1,"left","right",0.817000151,0,0,1,0,NA,NA,NA,NA,NA,NA,NA,NA,NA,NA,NA,NA,NA,NA,NA,NA,NA,NA,NA,NA,NA,NA,NA,NA
"551","stim/objects/Instruments/laud3.png",261,63,254,0.5,"stim/21.jpeg",2,1,1,1,"Instruments",1,1,"left","right",0.865999937,0,0,1,0,93,63,1,0.5,2,"stim/21.jpeg",2,1,"stim/21.jpeg",1,"left",1.911000013,2,3,1.382999897,2,2.063999891,93,1,0,0,0,0,0
"309","stim/objects/HouseObjects/dustpan3.png",262,63,255,0.9,"stim/54.jpeg",5,4,3,2,"HouseObjects",2,2,"right","",NA,0,0,1,0,NA,NA,NA,NA,NA,NA,NA,NA,NA,NA,NA,NA,NA,NA,NA,NA,NA,NA,NA,NA,NA,NA,NA,NA
"509","stim/objects/Instruments/gong3.png",263,63,256,0.9,"stim/63.jpeg",6,3,3,2,"Instruments",1,4,"left","left",0.653000116,1,1,1,0,NA,NA,NA,NA,NA,NA,NA,NA,NA,NA,NA,NA,NA,NA,NA,NA,NA,NA,NA,NA,NA,NA,NA,NA
"358","stim/objects/HouseObjects/garbagebin4.png",264,63,257,0.9,"stim/52.jpeg",5,2,3,1,"HouseObjects",2,1,"right","right",0.610000134,1,1,1,0,60,63,1,0.9,2,"stim/52.jpeg",5,2,"stim/52.jpeg",1,"left",1.863999844,4,1,5.538999796,4,3.808999777,60,1,0,0,0,0,0
"440","stim/objects/Instruments/doublebass3.png",265,63,258,0.7,"stim/42.jpeg",4,2,2,2,"Instruments",1,2,"left","right",0.830000162,0,0,1,0,NA,NA,NA,NA,NA,NA,NA,NA,NA,NA,NA,NA,NA,NA,NA,NA,NA,NA,NA,NA,NA,NA,NA,NA
"310","stim/objects/HouseObjects/dustpan3.png",266,63,259,0.9,"stim/54.jpeg",5,4,3,2,"HouseObjects",2,3,"right","",NA,0,0,1,0,NA,NA,NA,NA,NA,NA,NA,NA,NA,NA,NA,NA,NA,NA,NA,NA,NA,NA,NA,NA,NA,NA,NA,NA
"311","stim/objects/HouseObjects/dustpan3.png",267,63,260,0.9,"stim/51.jpeg",5,1,3,2,"HouseObjects",2,4,"right","right",0.603000164,1,1,1,0,NA,NA,NA,NA,NA,NA,NA,NA,NA,NA,NA,NA,NA,NA,NA,NA,NA,NA,NA,NA,NA,NA,NA,NA
"409","stim/objects/Instruments/acousticguitar3.png",268,63,261,0.5,"stim/13.jpeg",1,3,1,2,"Instruments",1,3,"left","right",0.663000107,0,0,1,0,NA,NA,NA,NA,NA,NA,NA,NA,NA,NA,NA,NA,NA,NA,NA,NA,NA,NA,NA,NA,NA,NA,NA,NA
"255","stim/objects/HouseObjects/bleachbottle4.png",269,63,262,0.7,"stim/33.jpeg",3,3,2,1,"HouseObjects",2,2,"right","right",0.819000244,1,1,1,0,39,63,1,0.7,2,"stim/33.jpeg",3,3,"stim/33.jpeg",2,"left",1.24000001,2,4,4.184999943,3,1.725999832,39,1,0,0,0,0,0
"346","stim/objects/HouseObjects/garbagebin3.png",270,63,263,0.9,"stim/52.jpeg",5,2,3,2,"HouseObjects",2,2,"right","right",0.552000046,1,1,1,0,NA,NA,NA,NA,NA,NA,NA,NA,NA,NA,NA,NA,NA,NA,NA,NA,NA,NA,NA,NA,NA,NA,NA,NA
"379","stim/objects/HouseObjects/hairdryer4.png",271,63,264,0.9,"stim/51.jpeg",5,1,3,1,"HouseObjects",2,4,"right","right",0.673000097,1,1,1,0,150,63,1,0.9,2,"stim/51.jpeg",5,1,"stim/51.jpeg",4,"right",0.843999863,3,4,2.632999897,4,1.752000093,150,0,0,NA,1,NA,0
"436","stim/objects/Instruments/cymbal3.png",272,63,265,0.7,"stim/41.jpeg",4,1,2,2,"Instruments",1,3,"left","left",0.780999899,1,1,1,0,NA,NA,NA,NA,NA,NA,NA,NA,NA,NA,NA,NA,NA,NA,NA,NA,NA,NA,NA,NA,NA,NA,NA,NA
"510","stim/objects/Instruments/gong3.png",273,63,266,0.9,"stim/64.jpeg",6,4,3,2,"Instruments",1,2,"left","left",0.601999998,1,1,1,0,NA,NA,NA,NA,NA,NA,NA,NA,NA,NA,NA,NA,NA,NA,NA,NA,NA,NA,NA,NA,NA,NA,NA,NA
"291","stim/objects/HouseObjects/doormat3.png",274,63,267,0.9,"stim/54.jpeg",5,4,3,2,"HouseObjects",2,4,"right","right",0.63499999,1,1,1,0,NA,NA,NA,NA,NA,NA,NA,NA,NA,NA,NA,NA,NA,NA,NA,NA,NA,NA,NA,NA,NA,NA,NA,NA
"274","stim/objects/HouseObjects/clothesdryingrack4.png",275,63,268,0.3,"stim/43.jpeg",4,3,2,1,"HouseObjects",2,2,"right","left",0.762000084,0,0,1,0,73,63,1,0.3,2,"stim/43.jpeg",4,3,"stim/43.jpeg",2,"left",2.818999767,3,3,2.450999975,2,1.773999929,73,1,1,1,1,1,0
"563","stim/objects/Instruments/oboe3.png",276,63,269,0.3,"stim/32.jpeg",3,2,2,1,"Instruments",1,4,"left","right",0.832999945,0,0,1,0,166,63,1,0.3,1,"stim/32.jpeg",3,2,"stim/32.jpeg",4,"left",0.76699996,2,4,2.049000025,1,0.835999727,166,1,0,0,0,0,0
"491","stim/objects/Instruments/frenchhorn3.png",277,63,270,0.9,"stim/62.jpeg",6,2,3,2,"Instruments",1,2,"left","left",0.640000105,1,1,1,0,NA,NA,NA,NA,NA,NA,NA,NA,NA,NA,NA,NA,NA,NA,NA,NA,NA,NA,NA,NA,NA,NA,NA,NA
"241","stim/objects/HouseObjects/ashtray3.png",278,63,271,0.5,"stim/11.jpeg",1,1,1,2,"HouseObjects",2,4,"right","right",0.781000137,1,1,1,0,NA,NA,NA,NA,NA,NA,NA,NA,NA,NA,NA,NA,NA,NA,NA,NA,NA,NA,NA,NA,NA,NA,NA,NA
"437","stim/objects/Instruments/cymbal3.png",279,63,272,0.7,"stim/43.jpeg",4,3,2,2,"Instruments",1,3,"left","left",0.822000265,1,1,1,0,NA,NA,NA,NA,NA,NA,NA,NA,NA,NA,NA,NA,NA,NA,NA,NA,NA,NA,NA,NA,NA,NA,NA,NA
"252","stim/objects/HouseObjects/basket4.png",280,63,273,0.7,"stim/32.jpeg",3,2,2,1,"HouseObjects",2,2,"right","right",0.758000135,1,1,1,0,82,63,1,0.7,2,"stim/32.jpeg",3,2,"stim/32.jpeg",2,"right",0.620000124,3,3,1.794999838,2,1.200999975,82,0,0,NA,1,NA,0
"526","stim/objects/Instruments/grandpiano3.png",281,63,274,0.9,"stim/64.jpeg",6,4,3,2,"Instruments",1,1,"left","left",0.629000187,1,1,1,0,NA,NA,NA,NA,NA,NA,NA,NA,NA,NA,NA,NA,NA,NA,NA,NA,NA,NA,NA,NA,NA,NA,NA,NA
"427","stim/objects/Instruments/chime3.png",282,63,275,0.5,"stim/21.jpeg",2,1,1,2,"Instruments",1,2,"left","right",0.684000015,0,0,1,0,NA,NA,NA,NA,NA,NA,NA,NA,NA,NA,NA,NA,NA,NA,NA,NA,NA,NA,NA,NA,NA,NA,NA,NA
"456","stim/objects/Instruments/flute3.png",283,63,276,0.9,"stim/63.jpeg",6,3,3,2,"Instruments",1,1,"left","left",0.617000103,1,1,1,0,NA,NA,NA,NA,NA,NA,NA,NA,NA,NA,NA,NA,NA,NA,NA,NA,NA,NA,NA,NA,NA,NA,NA,NA
"408","stim/objects/Instruments/accordion4.png",284,63,277,0.3,"stim/32.jpeg",3,2,2,1,"Instruments",1,4,"left","right",0.546000242,0,0,1,0,55,63,1,0.3,1,"stim/32.jpeg",3,2,"stim/32.jpeg",4,"left",0.992999792,3,3,2.253000021,3,1.822999954,55,1,0,0,0,0,0
"327","stim/objects/HouseObjects/flyswatter3.png",285,63,278,0.9,"stim/54.jpeg",5,4,3,2,"HouseObjects",2,2,"right","right",0.720000029,1,1,1,0,NA,NA,NA,NA,NA,NA,NA,NA,NA,NA,NA,NA,NA,NA,NA,NA,NA,NA,NA,NA,NA,NA,NA,NA
"312","stim/objects/HouseObjects/dustpan3.png",286,63,279,0.9,"stim/53.jpeg",5,3,3,2,"HouseObjects",2,4,"right","right",0.796000004,1,1,1,0,NA,NA,NA,NA,NA,NA,NA,NA,NA,NA,NA,NA,NA,NA,NA,NA,NA,NA,NA,NA,NA,NA,NA,NA
"395","stim/objects/HouseObjects/match4.png",287,63,280,0.1,"stim/63.jpeg",6,3,3,1,"HouseObjects",2,2,"right","left",0.667000055,0,0,1,0,30,63,1,0.1,2,"stim/63.jpeg",6,3,"stim/63.jpeg",2,"left",1.615999937,2,4,4.820999861,1,2.044999838,30,1,0,0,0,0,0
"328","stim/objects/HouseObjects/flyswatter3.png",288,63,281,0.9,"stim/54.jpeg",5,4,3,2,"HouseObjects",2,2,"right","right",0.683000088,1,1,1,0,NA,NA,NA,NA,NA,NA,NA,NA,NA,NA,NA,NA,NA,NA,NA,NA,NA,NA,NA,NA,NA,NA,NA,NA
"293","stim/objects/HouseObjects/doormat3.png",289,63,282,0.9,"stim/54.jpeg",5,4,3,2,"HouseObjects",2,2,"right","right",0.728000164,1,1,1,0,NA,NA,NA,NA,NA,NA,NA,NA,NA,NA,NA,NA,NA,NA,NA,NA,NA,NA,NA,NA,NA,NA,NA,NA
"443","stim/objects/Instruments/doublebass4.png",290,63,283,0.7,"stim/42.jpeg",4,2,2,1,"Instruments",1,4,"left","",NA,0,0,1,0,100,63,1,0.7,1,"stim/42.jpeg",4,2,"stim/42.jpeg",4,"left",0.994999886,2,2,3.286999941,4,5.203999996,100,1,1,1,1,1,0
"347","stim/objects/HouseObjects/garbagebin3.png",291,63,284,0.9,"stim/51.jpeg",5,1,3,2,"HouseObjects",2,1,"right","right",0.603000164,1,1,1,0,NA,NA,NA,NA,NA,NA,NA,NA,NA,NA,NA,NA,NA,NA,NA,NA,NA,NA,NA,NA,NA,NA,NA,NA
"477","stim/objects/Instruments/flutetrans3.png",292,63,285,0.9,"stim/62.jpeg",6,2,3,2,"Instruments",1,2,"left","left",0.573000193,1,1,1,0,NA,NA,NA,NA,NA,NA,NA,NA,NA,NA,NA,NA,NA,NA,NA,NA,NA,NA,NA,NA,NA,NA,NA,NA
"329","stim/objects/HouseObjects/flyswatter3.png",293,63,286,0.9,"stim/51.jpeg",5,1,3,2,"HouseObjects",2,3,"right","right",0.553000212,1,1,1,0,NA,NA,NA,NA,NA,NA,NA,NA,NA,NA,NA,NA,NA,NA,NA,NA,NA,NA,NA,NA,NA,NA,NA,NA
"279","stim/objects/HouseObjects/coffee3.png",294,63,287,0.7,"stim/31.jpeg",3,1,2,2,"HouseObjects",2,4,"right","right",0.679000139,1,1,1,0,NA,NA,NA,NA,NA,NA,NA,NA,NA,NA,NA,NA,NA,NA,NA,NA,NA,NA,NA,NA,NA,NA,NA,NA
"492","stim/objects/Instruments/frenchhorn3.png",295,63,288,0.9,"stim/63.jpeg",6,3,3,2,"Instruments",1,3,"left","left",0.561000109,1,1,1,0,NA,NA,NA,NA,NA,NA,NA,NA,NA,NA,NA,NA,NA,NA,NA,NA,NA,NA,NA,NA,NA,NA,NA,NA
"389","stim/objects/HouseObjects/key4.png",296,63,289,0.1,"stim/64.jpeg",6,4,3,1,"HouseObjects",2,4,"right","right",0.52699995,1,1,1,0,170,63,1,0.1,2,"stim/64.jpeg",6,4,"stim/64.jpeg",4,"left",1.789999962,3,2,2.542999983,4,1.90199995,170,1,0,0,1,1,0
"507","stim/objects/Instruments/gong3.png",297,63,290,0.9,"stim/63.jpeg",6,3,3,2,"Instruments",1,4,"left","left",0.677000284,1,1,1,0,NA,NA,NA,NA,NA,NA,NA,NA,NA,NA,NA,NA,NA,NA,NA,NA,NA,NA,NA,NA,NA,NA,NA,NA
"415","stim/objects/Instruments/banjo3.png",298,63,291,0.5,"stim/14.jpeg",1,4,1,2,"Instruments",1,4,"left","right",0.833000183,0,0,1,0,NA,NA,NA,NA,NA,NA,NA,NA,NA,NA,NA,NA,NA,NA,NA,NA,NA,NA,NA,NA,NA,NA,NA,NA
"430","stim/objects/Instruments/clarinet3.png",299,63,292,0.5,"stim/22.jpeg",2,2,1,2,"Instruments",1,1,"left","right",0.729000092,0,0,1,0,NA,NA,NA,NA,NA,NA,NA,NA,NA,NA,NA,NA,NA,NA,NA,NA,NA,NA,NA,NA,NA,NA,NA,NA
"527","stim/objects/Instruments/grandpiano3.png",300,63,293,0.9,"stim/64.jpeg",6,4,3,2,"Instruments",1,3,"left","left",0.6650002,1,1,1,0,NA,NA,NA,NA,NA,NA,NA,NA,NA,NA,NA,NA,NA,NA,NA,NA,NA,NA,NA,NA,NA,NA,NA,NA
"433","stim/objects/Instruments/cornet3.png",301,63,294,0.5,"stim/23.jpeg",2,3,1,2,"Instruments",1,3,"left","left",0.61500001,1,1,1,0,NA,NA,NA,NA,NA,NA,NA,NA,NA,NA,NA,NA,NA,NA,NA,NA,NA,NA,NA,NA,NA,NA,NA,NA
"313","stim/objects/HouseObjects/dustpan3.png",302,63,295,0.9,"stim/53.jpeg",5,3,3,2,"HouseObjects",2,1,"right","right",0.684999943,1,1,1,0,NA,NA,NA,NA,NA,NA,NA,NA,NA,NA,NA,NA,NA,NA,NA,NA,NA,NA,NA,NA,NA,NA,NA,NA
"348","stim/objects/HouseObjects/garbagebin3.png",303,63,296,0.9,"stim/53.jpeg",5,3,3,2,"HouseObjects",2,4,"right","right",0.566000223,1,1,1,0,NA,NA,NA,NA,NA,NA,NA,NA,NA,NA,NA,NA,NA,NA,NA,NA,NA,NA,NA,NA,NA,NA,NA,NA
"564","stim/objects/Instruments/oboe4.png",304,63,297,0.9,"stim/63.jpeg",6,3,3,1,"Instruments",1,1,"left","left",0.565999985,1,1,1,0,32,63,1,0.9,1,"stim/63.jpeg",6,3,"stim/63.jpeg",1,"left",0.977999926,2,4,2.657999992,1,1.226999998,32,1,0,0,1,1,0
"276","stim/objects/HouseObjects/clothespin3.png",305,63,298,0.7,"stim/31.jpeg",3,1,2,2,"HouseObjects",2,1,"right","right",0.664000034,1,1,1,0,NA,NA,NA,NA,NA,NA,NA,NA,NA,NA,NA,NA,NA,NA,NA,NA,NA,NA,NA,NA,NA,NA,NA,NA
"244","stim/objects/HouseObjects/ballofstring3.png",306,63,299,0.5,"stim/12.jpeg",1,2,1,2,"HouseObjects",2,4,"right","left",0.758000135,0,0,1,0,NA,NA,NA,NA,NA,NA,NA,NA,NA,NA,NA,NA,NA,NA,NA,NA,NA,NA,NA,NA,NA,NA,NA,NA
"411","stim/objects/Instruments/acousticguitar4.png",307,63,300,0.3,"stim/33.jpeg",3,3,2,1,"Instruments",1,3,"left","right",0.664000034,0,0,1,0,103,63,1,0.3,1,"stim/33.jpeg",3,3,"stim/33.jpeg",3,"right",0.769999981,2,4,1.753000021,1,1.102999926,103,0,0,NA,0,NA,0
"412","stim/objects/Instruments/balalaika3.png",308,63,301,0.5,"stim/13.jpeg",1,3,1,2,"Instruments",1,1,"left","left",0.773000002,1,1,1,0,NA,NA,NA,NA,NA,NA,NA,NA,NA,NA,NA,NA,NA,NA,NA,NA,NA,NA,NA,NA,NA,NA,NA,NA
"325","stim/objects/HouseObjects/flyswatter3.png",309,63,302,0.9,"stim/54.jpeg",5,4,3,2,"HouseObjects",2,4,"right","right",0.739000082,1,1,1,0,NA,NA,NA,NA,NA,NA,NA,NA,NA,NA,NA,NA,NA,NA,NA,NA,NA,NA,NA,NA,NA,NA,NA,NA
"541","stim/objects/Instruments/guitarcase3.png",310,63,303,0.5,"stim/13.jpeg",1,3,1,1,"Instruments",1,1,"left","left",0.707000017,1,1,1,0,59,63,1,0.5,1,"stim/13.jpeg",1,3,"stim/13.jpeg",1,"right",1.242999792,2,1,1.70299983,3,1.201999903,59,0,0,NA,0,NA,0
"494","stim/objects/Instruments/frenchhorn3.png",311,63,304,0.9,"stim/64.jpeg",6,4,3,2,"Instruments",1,3,"left","left",0.660000086,1,1,1,0,NA,NA,NA,NA,NA,NA,NA,NA,NA,NA,NA,NA,NA,NA,NA,NA,NA,NA,NA,NA,NA,NA,NA,NA
"432","stim/objects/Instruments/clarinet4.png",312,63,305,0.7,"stim/43.jpeg",4,3,2,1,"Instruments",1,3,"left","left",0.763000011,1,1,1,0,80,63,1,0.7,1,"stim/43.jpeg",4,3,"stim/43.jpeg",3,"left",1.353999853,3,3,3.38499999,3,1.370000124,80,1,1,1,1,1,0
"392","stim/objects/HouseObjects/lintroller3.png",313,63,306,0.5,"stim/23.jpeg",2,3,1,1,"HouseObjects",2,3,"right","left",0.728000164,0,0,1,0,92,63,1,0.5,2,"stim/23.jpeg",2,3,"stim/23.jpeg",3,"right",0.753000021,3,2,3.177999973,1,1.778999805,92,0,0,NA,0,NA,0
"458","stim/objects/Instruments/flute3.png",314,63,307,0.9,"stim/63.jpeg",6,3,3,2,"Instruments",1,1,"left","left",0.611000061,1,1,1,0,NA,NA,NA,NA,NA,NA,NA,NA,NA,NA,NA,NA,NA,NA,NA,NA,NA,NA,NA,NA,NA,NA,NA,NA
"406","stim/objects/Instruments/accordion3.png",315,63,308,0.5,"stim/11.jpeg",1,1,1,2,"Instruments",1,4,"left","right",0.704999924,0,0,1,0,NA,NA,NA,NA,NA,NA,NA,NA,NA,NA,NA,NA,NA,NA,NA,NA,NA,NA,NA,NA,NA,NA,NA,NA
"361","stim/objects/HouseObjects/glass3.png",316,63,309,0.9,"stim/51.jpeg",5,1,3,2,"HouseObjects",2,3,"right","right",0.820000172,1,1,1,0,NA,NA,NA,NA,NA,NA,NA,NA,NA,NA,NA,NA,NA,NA,NA,NA,NA,NA,NA,NA,NA,NA,NA,NA
"512","stim/objects/Instruments/gong3.png",317,63,310,0.9,"stim/62.jpeg",6,2,3,2,"Instruments",1,2,"left","left",0.584000111,1,1,1,0,NA,NA,NA,NA,NA,NA,NA,NA,NA,NA,NA,NA,NA,NA,NA,NA,NA,NA,NA,NA,NA,NA,NA,NA
"413","stim/objects/Instruments/balalaika3.png",318,63,311,0.5,"stim/14.jpeg",1,4,1,2,"Instruments",1,1,"left","left",0.763000011,1,1,1,0,NA,NA,NA,NA,NA,NA,NA,NA,NA,NA,NA,NA,NA,NA,NA,NA,NA,NA,NA,NA,NA,NA,NA,NA
"362","stim/objects/HouseObjects/glass3.png",319,63,312,0.9,"stim/52.jpeg",5,2,3,2,"HouseObjects",2,2,"right","right",0.74600029,1,1,1,0,NA,NA,NA,NA,NA,NA,NA,NA,NA,NA,NA,NA,NA,NA,NA,NA,NA,NA,NA,NA,NA,NA,NA,NA
"561","stim/objects/Instruments/musicstand3.png",320,63,313,0.3,"stim/31.jpeg",3,1,2,1,"Instruments",1,2,"left","right",0.724999905,0,0,1,0,118,63,1,0.3,1,"stim/31.jpeg",3,1,"stim/31.jpeg",2,"left",0.819000006,4,2,3.09100008,3,1.666999817,118,1,0,0,0,0,0
"416","stim/objects/Instruments/banjo3.png",321,63,314,0.5,"stim/11.jpeg",1,1,1,2,"Instruments",1,2,"left","",NA,0,0,1,0,NA,NA,NA,NA,NA,NA,NA,NA,NA,NA,NA,NA,NA,NA,NA,NA,NA,NA,NA,NA,NA,NA,NA,NA
"459","stim/objects/Instruments/flute3.png",322,63,315,0.9,"stim/62.jpeg",6,2,3,2,"Instruments",1,1,"left","left",0.533000231,1,1,1,0,NA,NA,NA,NA,NA,NA,NA,NA,NA,NA,NA,NA,NA,NA,NA,NA,NA,NA,NA,NA,NA,NA,NA,NA
"566","stim/objects/Instruments/violin4.png",323,63,316,0.9,"stim/64.jpeg",6,4,3,1,"Instruments",1,3,"left","left",0.614000082,1,1,1,0,128,63,1,0.9,1,"stim/64.jpeg",6,4,"stim/64.jpeg",3,"left",0.91899991,3,2,1.301999807,4,1.687999964,128,1,0,0,0,0,0
"326","stim/objects/HouseObjects/flyswatter3.png",324,63,317,0.9,"stim/54.jpeg",5,4,3,2,"HouseObjects",2,3,"right","right",0.668000221,1,1,1,0,NA,NA,NA,NA,NA,NA,NA,NA,NA,NA,NA,NA,NA,NA,NA,NA,NA,NA,NA,NA,NA,NA,NA,NA
"495","stim/objects/Instruments/frenchhorn3.png",325,63,318,0.9,"stim/61.jpeg",6,1,3,2,"Instruments",1,4,"left","left",0.729000092,1,1,1,0,NA,NA,NA,NA,NA,NA,NA,NA,NA,NA,NA,NA,NA,NA,NA,NA,NA,NA,NA,NA,NA,NA,NA,NA
"423","stim/objects/Instruments/bassguitar4.png",326,63,319,0.7,"stim/44.jpeg",4,4,2,1,"Instruments",1,1,"left","left",0.747000217,1,1,1,0,28,63,1,0.7,1,"stim/44.jpeg",4,4,"stim/44.jpeg",1,"left",1.118999958,2,1,5.166999817,4,2.823999882,28,1,0,0,0,0,0
"496","stim/objects/Instruments/frenchhorn3.png",327,63,320,0.9,"stim/64.jpeg",6,4,3,2,"Instruments",1,1,"left","left",0.528000116,1,1,1,0,NA,NA,NA,NA,NA,NA,NA,NA,NA,NA,NA,NA,NA,NA,NA,NA,NA,NA,NA,NA,NA,NA,NA,NA
"363","stim/objects/HouseObjects/glass3.png",328,63,321,0.9,"stim/54.jpeg",5,4,3,2,"HouseObjects",2,1,"right","right",0.747000217,1,1,1,0,NA,NA,NA,NA,NA,NA,NA,NA,NA,NA,NA,NA,NA,NA,NA,NA,NA,NA,NA,NA,NA,NA,NA,NA
"425","stim/objects/Instruments/cello3.png",329,63,322,0.5,"stim/24.jpeg",2,4,1,2,"Instruments",1,4,"left","left",0.676000118,1,1,1,0,NA,NA,NA,NA,NA,NA,NA,NA,NA,NA,NA,NA,NA,NA,NA,NA,NA,NA,NA,NA,NA,NA,NA,NA
"528","stim/objects/Instruments/grandpiano3.png",330,63,323,0.9,"stim/62.jpeg",6,2,3,2,"Instruments",1,2,"left","left",0.594000101,1,1,1,0,NA,NA,NA,NA,NA,NA,NA,NA,NA,NA,NA,NA,NA,NA,NA,NA,NA,NA,NA,NA,NA,NA,NA,NA
"364","stim/objects/HouseObjects/glass3.png",331,63,324,0.9,"stim/51.jpeg",5,1,3,2,"HouseObjects",2,1,"right","right",0.562000036,1,1,1,0,NA,NA,NA,NA,NA,NA,NA,NA,NA,NA,NA,NA,NA,NA,NA,NA,NA,NA,NA,NA,NA,NA,NA,NA
"441","stim/objects/Instruments/doublebass3.png",332,63,325,0.7,"stim/44.jpeg",4,4,2,2,"Instruments",1,2,"left","left",0.694999933,1,1,1,0,NA,NA,NA,NA,NA,NA,NA,NA,NA,NA,NA,NA,NA,NA,NA,NA,NA,NA,NA,NA,NA,NA,NA,NA
"513","stim/objects/Instruments/gong3.png",333,63,326,0.9,"stim/62.jpeg",6,2,3,2,"Instruments",1,2,"left","left",0.533000231,1,1,1,0,NA,NA,NA,NA,NA,NA,NA,NA,NA,NA,NA,NA,NA,NA,NA,NA,NA,NA,NA,NA,NA,NA,NA,NA
"330","stim/objects/HouseObjects/flyswatter3.png",334,63,327,0.9,"stim/52.jpeg",5,2,3,2,"HouseObjects",2,2,"right","left",0.532000065,0,0,1,0,NA,NA,NA,NA,NA,NA,NA,NA,NA,NA,NA,NA,NA,NA,NA,NA,NA,NA,NA,NA,NA,NA,NA,NA
"514","stim/objects/Instruments/gong3.png",335,63,328,0.9,"stim/63.jpeg",6,3,3,2,"Instruments",1,3,"left","left",0.563000202,1,1,1,0,NA,NA,NA,NA,NA,NA,NA,NA,NA,NA,NA,NA,NA,NA,NA,NA,NA,NA,NA,NA,NA,NA,NA,NA
"365","stim/objects/HouseObjects/glass3.png",336,63,329,0.9,"stim/54.jpeg",5,4,3,2,"HouseObjects",2,3,"right","right",0.603000164,1,1,1,0,NA,NA,NA,NA,NA,NA,NA,NA,NA,NA,NA,NA,NA,NA,NA,NA,NA,NA,NA,NA,NA,NA,NA,NA
"359","stim/objects/HouseObjects/glass3.png",337,63,330,0.9,"stim/54.jpeg",5,4,3,2,"HouseObjects",2,2,"right","right",0.496999979,1,1,1,0,NA,NA,NA,NA,NA,NA,NA,NA,NA,NA,NA,NA,NA,NA,NA,NA,NA,NA,NA,NA,NA,NA,NA,NA
"445","stim/objects/Instruments/drums3.png",338,63,331,0.7,"stim/44.jpeg",4,4,2,2,"Instruments",1,4,"left","left",0.684000254,1,1,1,0,NA,NA,NA,NA,NA,NA,NA,NA,NA,NA,NA,NA,NA,NA,NA,NA,NA,NA,NA,NA,NA,NA,NA,NA
"529","stim/objects/Instruments/grandpiano3.png",339,63,332,0.9,"stim/62.jpeg",6,2,3,2,"Instruments",1,2,"left","left",0.755000114,1,1,1,0,NA,NA,NA,NA,NA,NA,NA,NA,NA,NA,NA,NA,NA,NA,NA,NA,NA,NA,NA,NA,NA,NA,NA,NA
"393","stim/objects/HouseObjects/lintroller4.png",340,63,333,0.1,"stim/62.jpeg",6,2,3,1,"HouseObjects",2,4,"right","left",0.461000204,0,0,1,0,173,63,1,0.1,2,"stim/62.jpeg",6,2,"stim/62.jpeg",4,"right",0.699999809,3,1,1.470999956,1,0.835000038,173,0,0,NA,0,NA,0
"497","stim/objects/Instruments/frenchhorn3.png",341,63,334,0.9,"stim/64.jpeg",6,4,3,2,"Instruments",1,3,"left","left",0.871000051,1,1,1,0,NA,NA,NA,NA,NA,NA,NA,NA,NA,NA,NA,NA,NA,NA,NA,NA,NA,NA,NA,NA,NA,NA,NA,NA
"479","stim/objects/Instruments/flutetrans3.png",342,63,335,0.9,"stim/62.jpeg",6,2,3,2,"Instruments",1,4,"left","left",0.567000151,1,1,1,0,NA,NA,NA,NA,NA,NA,NA,NA,NA,NA,NA,NA,NA,NA,NA,NA,NA,NA,NA,NA,NA,NA,NA,NA
"498","stim/objects/Instruments/frenchhorn3.png",343,63,336,0.9,"stim/63.jpeg",6,3,3,2,"Instruments",1,2,"left","left",0.612000227,1,1,1,0,NA,NA,NA,NA,NA,NA,NA,NA,NA,NA,NA,NA,NA,NA,NA,NA,NA,NA,NA,NA,NA,NA,NA,NA
"350","stim/objects/HouseObjects/garbagebin3.png",344,63,337,0.9,"stim/51.jpeg",5,1,3,2,"HouseObjects",2,4,"right","right",0.497999907,1,1,1,0,NA,NA,NA,NA,NA,NA,NA,NA,NA,NA,NA,NA,NA,NA,NA,NA,NA,NA,NA,NA,NA,NA,NA,NA
"331","stim/objects/HouseObjects/flyswatter3.png",345,63,338,0.9,"stim/53.jpeg",5,3,3,2,"HouseObjects",2,3,"right","right",0.600000143,1,1,1,0,NA,NA,NA,NA,NA,NA,NA,NA,NA,NA,NA,NA,NA,NA,NA,NA,NA,NA,NA,NA,NA,NA,NA,NA
"448","stim/objects/Instruments/electricdrumset3.png",346,63,339,0.7,"stim/42.jpeg",4,2,2,2,"Instruments",1,3,"left","right",0.679000139,0,0,1,0,NA,NA,NA,NA,NA,NA,NA,NA,NA,NA,NA,NA,NA,NA,NA,NA,NA,NA,NA,NA,NA,NA,NA,NA
"530","stim/objects/Instruments/grandpiano3.png",347,63,340,0.9,"stim/61.jpeg",6,1,3,2,"Instruments",1,1,"left","left",0.577000141,1,1,1,0,NA,NA,NA,NA,NA,NA,NA,NA,NA,NA,NA,NA,NA,NA,NA,NA,NA,NA,NA,NA,NA,NA,NA,NA
"264","stim/objects/HouseObjects/broom4.png",348,63,341,0.3,"stim/44.jpeg",4,4,2,1,"HouseObjects",2,2,"right","left",0.813000202,0,0,1,0,196,63,1,0.3,2,"stim/44.jpeg",4,4,"stim/44.jpeg",2,"left",0.826999903,2,3,1.538000107,4,1.989999771,196,1,0,0,0,0,0
"405","stim/objects/HouseObjects/wateringcan4.png",349,63,342,0.1,"stim/64.jpeg",6,4,3,1,"HouseObjects",2,2,"right","left",0.614000082,0,0,1,0,135,63,1,0.1,2,"stim/64.jpeg",6,4,"stim/64.jpeg",2,"right",0.703999758,2,3,1.143999815,2,1.529999733,135,0,0,NA,1,NA,0
"377","stim/objects/HouseObjects/glassmop4.png",350,63,343,0.9,"stim/54.jpeg",5,4,3,1,"HouseObjects",2,3,"right","right",0.661999941,1,1,1,0,147,63,1,0.9,2,"stim/54.jpeg",5,4,"stim/54.jpeg",3,"right",0.782999992,2,2,2.40199995,2,1.522999763,147,0,0,NA,0,NA,0
"250","stim/objects/HouseObjects/basket3.png",351,63,344,0.5,"stim/13.jpeg",1,3,1,2,"HouseObjects",2,3,"right","",NA,0,0,1,0,NA,NA,NA,NA,NA,NA,NA,NA,NA,NA,NA,NA,NA,NA,NA,NA,NA,NA,NA,NA,NA,NA,NA,NA
"317","stim/objects/HouseObjects/dustpan3.png",352,63,345,0.9,"stim/52.jpeg",5,2,3,2,"HouseObjects",2,4,"right","right",0.517000198,1,1,1,0,NA,NA,NA,NA,NA,NA,NA,NA,NA,NA,NA,NA,NA,NA,NA,NA,NA,NA,NA,NA,NA,NA,NA,NA
"351","stim/objects/HouseObjects/garbagebin3.png",353,63,346,0.9,"stim/54.jpeg",5,4,3,2,"HouseObjects",2,3,"right","right",0.606000185,1,1,1,0,NA,NA,NA,NA,NA,NA,NA,NA,NA,NA,NA,NA,NA,NA,NA,NA,NA,NA,NA,NA,NA,NA,NA,NA
"268","stim/objects/HouseObjects/clock3.png",354,63,347,0.5,"stim/23.jpeg",2,3,1,2,"HouseObjects",2,4,"right","left",0.577000141,0,0,1,0,NA,NA,NA,NA,NA,NA,NA,NA,NA,NA,NA,NA,NA,NA,NA,NA,NA,NA,NA,NA,NA,NA,NA,NA
"352","stim/objects/HouseObjects/garbagebin3.png",355,63,348,0.9,"stim/53.jpeg",5,3,3,2,"HouseObjects",2,4,"right","right",0.786000013,1,1,1,0,NA,NA,NA,NA,NA,NA,NA,NA,NA,NA,NA,NA,NA,NA,NA,NA,NA,NA,NA,NA,NA,NA,NA,NA
"546","stim/objects/Instruments/harp4.png",356,63,349,0.1,"stim/54.jpeg",5,4,3,1,"Instruments",1,2,"left","right",0.542000294,0,0,1,0,126,63,1,0.1,1,"stim/54.jpeg",5,4,"stim/54.jpeg",2,"right",0.782000065,3,4,1.676999807,2,1.223999739,126,0,1,NA,1,NA,0
"247","stim/objects/HouseObjects/barbecuelighter3.png",357,63,350,0.5,"stim/13.jpeg",1,3,1,2,"HouseObjects",2,3,"right","left",0.76300025,0,0,1,0,NA,NA,NA,NA,NA,NA,NA,NA,NA,NA,NA,NA,NA,NA,NA,NA,NA,NA,NA,NA,NA,NA,NA,NA
"480","stim/objects/Instruments/flutetrans3.png",358,63,351,0.9,"stim/61.jpeg",6,1,3,2,"Instruments",1,2,"left","left",0.612000227,1,1,1,0,NA,NA,NA,NA,NA,NA,NA,NA,NA,NA,NA,NA,NA,NA,NA,NA,NA,NA,NA,NA,NA,NA,NA,NA
"318","stim/objects/HouseObjects/dustpan3.png",359,63,352,0.9,"stim/53.jpeg",5,3,3,2,"HouseObjects",2,4,"right","right",0.580000162,1,1,1,0,NA,NA,NA,NA,NA,NA,NA,NA,NA,NA,NA,NA,NA,NA,NA,NA,NA,NA,NA,NA,NA,NA,NA,NA
"391","stim/objects/HouseObjects/knife4.png",360,63,353,0.1,"stim/61.jpeg",6,1,3,1,"HouseObjects",2,3,"right","left",0.627000093,0,0,1,0,101,63,1,0.1,2,"stim/61.jpeg",6,1,"stim/61.jpeg",3,"left",1.869999886,3,2,2.285000086,1,1.752999783,101,1,0,0,0,0,0
"461","stim/objects/Instruments/flute3.png",361,63,354,0.9,"stim/61.jpeg",6,1,3,2,"Instruments",1,2,"left","left",0.614000082,1,1,1,0,NA,NA,NA,NA,NA,NA,NA,NA,NA,NA,NA,NA,NA,NA,NA,NA,NA,NA,NA,NA,NA,NA,NA,NA
"402","stim/objects/HouseObjects/vacuumcleaner3.png",362,63,355,0.7,"stim/31.jpeg",3,1,2,1,"HouseObjects",2,3,"right","right",0.631000042,1,1,1,0,141,63,1,0.7,2,"stim/31.jpeg",3,1,"stim/31.jpeg",3,"left",0.877999783,4,3,2.54399991,1,0.80099988,141,1,0,0,0,0,0
"256","stim/objects/HouseObjects/blender3.png",363,63,356,0.5,"stim/22.jpeg",2,2,1,2,"HouseObjects",2,2,"right","left",0.604000092,0,0,1,0,NA,NA,NA,NA,NA,NA,NA,NA,NA,NA,NA,NA,NA,NA,NA,NA,NA,NA,NA,NA,NA,NA,NA,NA
"444","stim/objects/Instruments/drums3.png",364,63,357,0.7,"stim/43.jpeg",4,3,2,2,"Instruments",1,3,"left","left",0.536999941,1,1,1,0,NA,NA,NA,NA,NA,NA,NA,NA,NA,NA,NA,NA,NA,NA,NA,NA,NA,NA,NA,NA,NA,NA,NA,NA
"549","stim/objects/Instruments/keyboard3.png",365,63,358,0.5,"stim/13.jpeg",1,3,1,1,"Instruments",1,2,"left","right",0.678999901,0,0,1,0,182,63,1,0.5,1,"stim/13.jpeg",1,3,"stim/13.jpeg",2,"right",0.832000017,2,3,1.644999981,2,1.217999935,182,0,1,NA,1,NA,0
"271","stim/objects/HouseObjects/clothesdryingrack3.png",366,63,359,0.7,"stim/31.jpeg",3,1,2,2,"HouseObjects",2,1,"right","right",0.728000164,1,1,1,0,NA,NA,NA,NA,NA,NA,NA,NA,NA,NA,NA,NA,NA,NA,NA,NA,NA,NA,NA,NA,NA,NA,NA,NA
"296","stim/objects/HouseObjects/doormat3.png",367,63,360,0.9,"stim/51.jpeg",5,1,3,2,"HouseObjects",2,3,"right","right",0.752000093,1,1,1,0,NA,NA,NA,NA,NA,NA,NA,NA,NA,NA,NA,NA,NA,NA,NA,NA,NA,NA,NA,NA,NA,NA,NA,NA
"253","stim/objects/HouseObjects/bleachbottle3.png",368,63,361,0.5,"stim/11.jpeg",1,1,1,2,"HouseObjects",2,1,"right","right",0.554000139,1,1,1,0,NA,NA,NA,NA,NA,NA,NA,NA,NA,NA,NA,NA,NA,NA,NA,NA,NA,NA,NA,NA,NA,NA,NA,NA
"297","stim/objects/HouseObjects/doormat3.png",369,63,362,0.9,"stim/52.jpeg",5,2,3,2,"HouseObjects",2,3,"right","right",0.563000202,1,1,1,0,NA,NA,NA,NA,NA,NA,NA,NA,NA,NA,NA,NA,NA,NA,NA,NA,NA,NA,NA,NA,NA,NA,NA,NA
"462","stim/objects/Instruments/flute3.png",370,63,363,0.9,"stim/61.jpeg",6,1,3,2,"Instruments",1,1,"left","left",0.59800005,1,1,1,0,NA,NA,NA,NA,NA,NA,NA,NA,NA,NA,NA,NA,NA,NA,NA,NA,NA,NA,NA,NA,NA,NA,NA,NA
"524","stim/objects/Instruments/grandpiano3.png",371,63,364,0.9,"stim/61.jpeg",6,1,3,2,"Instruments",1,4,"left","left",0.587000132,1,1,1,0,NA,NA,NA,NA,NA,NA,NA,NA,NA,NA,NA,NA,NA,NA,NA,NA,NA,NA,NA,NA,NA,NA,NA,NA
"463","stim/objects/Instruments/flute3.png",372,63,365,0.9,"stim/62.jpeg",6,2,3,2,"Instruments",1,3,"left","left",0.469000101,1,1,1,0,NA,NA,NA,NA,NA,NA,NA,NA,NA,NA,NA,NA,NA,NA,NA,NA,NA,NA,NA,NA,NA,NA,NA,NA
"298","stim/objects/HouseObjects/doormat3.png",373,63,366,0.9,"stim/52.jpeg",5,2,3,2,"HouseObjects",2,4,"right","right",0.496000051,1,1,1,0,NA,NA,NA,NA,NA,NA,NA,NA,NA,NA,NA,NA,NA,NA,NA,NA,NA,NA,NA,NA,NA,NA,NA,NA
"464","stim/objects/Instruments/flute3.png",374,63,367,0.9,"stim/63.jpeg",6,3,3,2,"Instruments",1,2,"left","left",0.646000147,1,1,1,0,NA,NA,NA,NA,NA,NA,NA,NA,NA,NA,NA,NA,NA,NA,NA,NA,NA,NA,NA,NA,NA,NA,NA,NA
"531","stim/objects/Instruments/grandpiano3.png",375,63,368,0.9,"stim/63.jpeg",6,3,3,2,"Instruments",1,3,"left","left",0.425000191,1,1,1,0,NA,NA,NA,NA,NA,NA,NA,NA,NA,NA,NA,NA,NA,NA,NA,NA,NA,NA,NA,NA,NA,NA,NA,NA
"299","stim/objects/HouseObjects/doormat3.png",376,63,369,0.9,"stim/53.jpeg",5,3,3,2,"HouseObjects",2,2,"right","right",0.631000042,1,1,1,0,NA,NA,NA,NA,NA,NA,NA,NA,NA,NA,NA,NA,NA,NA,NA,NA,NA,NA,NA,NA,NA,NA,NA,NA
"349","stim/objects/HouseObjects/garbagebin3.png",377,63,370,0.9,"stim/53.jpeg",5,3,3,2,"HouseObjects",2,4,"right","right",0.613000154,1,1,1,0,NA,NA,NA,NA,NA,NA,NA,NA,NA,NA,NA,NA,NA,NA,NA,NA,NA,NA,NA,NA,NA,NA,NA,NA
"547","stim/objects/Instruments/hihat3.png",378,63,371,0.5,"stim/12.jpeg",1,2,1,1,"Instruments",1,3,"left","right",0.652000189,0,0,1,0,52,63,1,0.5,1,"stim/12.jpeg",1,2,"stim/12.jpeg",3,"left",2.516999722,2,1,3.335999966,2,1.485999823,52,1,0,0,0,0,0
"344","stim/objects/HouseObjects/garbagebin3.png",379,63,372,0.9,"stim/53.jpeg",5,3,3,2,"HouseObjects",2,3,"right","right",0.726999998,1,1,1,0,NA,NA,NA,NA,NA,NA,NA,NA,NA,NA,NA,NA,NA,NA,NA,NA,NA,NA,NA,NA,NA,NA,NA,NA
"475","stim/objects/Instruments/flutetrans3.png",380,63,373,0.9,"stim/63.jpeg",6,3,3,2,"Instruments",1,3,"left","left",0.618999958,1,1,1,0,NA,NA,NA,NA,NA,NA,NA,NA,NA,NA,NA,NA,NA,NA,NA,NA,NA,NA,NA,NA,NA,NA,NA,NA
"523","stim/objects/Instruments/gong4.png",381,63,374,0.1,"stim/54.jpeg",5,4,3,1,"Instruments",1,2,"left","right",0.73300004,0,0,1,0,142,63,1,0.1,1,"stim/54.jpeg",5,4,"stim/54.jpeg",2,"left",0.945999861,4,3,1.307999849,2,0.919999838,142,1,0,0,1,1,0
"283","stim/objects/HouseObjects/cushion3.png",382,63,375,0.7,"stim/32.jpeg",3,2,2,2,"HouseObjects",2,1,"right","right",0.709000111,1,1,1,0,NA,NA,NA,NA,NA,NA,NA,NA,NA,NA,NA,NA,NA,NA,NA,NA,NA,NA,NA,NA,NA,NA,NA,NA
"489","stim/objects/Instruments/flutetrans4.png",383,63,376,0.1,"stim/52.jpeg",5,2,3,1,"Instruments",1,4,"left","right",0.58100009,0,0,1,0,144,63,1,0.1,1,"stim/52.jpeg",5,2,"stim/52.jpeg",4,"left",0.91899991,2,1,1.140000105,1,1.363999844,144,1,0,0,0,0,0
"435","stim/objects/Instruments/cornet4.png",384,63,377,0.7,"stim/44.jpeg",4,4,2,1,"Instruments",1,4,"left","left",0.681000233,1,1,1,0,152,63,1,0.7,1,"stim/44.jpeg",4,4,"stim/44.jpeg",4,"right",1.453999996,2,1,3.056999922,1,1.265000105,152,0,0,NA,0,NA,0
"345","stim/objects/HouseObjects/garbagebin3.png",385,63,378,0.9,"stim/51.jpeg",5,1,3,2,"HouseObjects",2,4,"right","right",0.649999857,1,1,1,0,NA,NA,NA,NA,NA,NA,NA,NA,NA,NA,NA,NA,NA,NA,NA,NA,NA,NA,NA,NA,NA,NA,NA,NA
"455","stim/objects/Instruments/electricguitar4.png",386,63,379,0.7,"stim/41.jpeg",4,1,2,1,"Instruments",1,3,"left","left",0.703000069,1,1,1,0,133,63,1,0.7,1,"stim/41.jpeg",4,1,"stim/41.jpeg",3,"right",0.784999847,3,1,1.433999777,1,0.849999905,133,0,1,NA,0,NA,0
"287","stim/objects/HouseObjects/dishsoap3.png",387,63,380,0.7,"stim/31.jpeg",3,1,2,2,"HouseObjects",2,1,"right","right",0.649000168,1,1,1,0,NA,NA,NA,NA,NA,NA,NA,NA,NA,NA,NA,NA,NA,NA,NA,NA,NA,NA,NA,NA,NA,NA,NA,NA
"316","stim/objects/HouseObjects/dustpan3.png",388,63,381,0.9,"stim/53.jpeg",5,3,3,2,"HouseObjects",2,1,"right","right",0.620000124,1,1,1,0,NA,NA,NA,NA,NA,NA,NA,NA,NA,NA,NA,NA,NA,NA,NA,NA,NA,NA,NA,NA,NA,NA,NA,NA
"249","stim/objects/HouseObjects/barbecuelighter4.png",389,63,382,0.7,"stim/31.jpeg",3,1,2,1,"HouseObjects",2,1,"right","left",0.647000313,0,0,1,0,42,63,1,0.7,2,"stim/31.jpeg",3,1,"stim/31.jpeg",1,"left",1.154999971,3,4,3.177000046,2,1.697000027,42,1,0,0,0,0,0
"341","stim/objects/HouseObjects/flyswatter4.png",390,63,383,0.9,"stim/51.jpeg",5,1,3,1,"HouseObjects",2,1,"right","right",0.669000149,1,1,1,0,137,63,1,0.9,2,"stim/51.jpeg",5,1,"stim/51.jpeg",1,"right",0.850999832,2,2,3.213999987,2,1.544999838,137,0,0,NA,0,NA,0
"501","stim/objects/Instruments/frenchhorn3.png",391,63,384,0.9,"stim/62.jpeg",6,2,3,2,"Instruments",1,4,"left","left",0.620000124,1,1,1,0,NA,NA,NA,NA,NA,NA,NA,NA,NA,NA,NA,NA,NA,NA,NA,NA,NA,NA,NA,NA,NA,NA,NA,NA
"525","stim/objects/Instruments/grandpiano3.png",392,63,385,0.9,"stim/63.jpeg",6,3,3,2,"Instruments",1,1,"left","left",0.525000095,1,1,1,0,NA,NA,NA,NA,NA,NA,NA,NA,NA,NA,NA,NA,NA,NA,NA,NA,NA,NA,NA,NA,NA,NA,NA,NA
"286","stim/objects/HouseObjects/cushion4.png",393,63,386,0.3,"stim/42.jpeg",4,2,2,1,"HouseObjects",2,2,"right","right",0.681000233,1,1,1,0,10,63,1,0.3,2,"stim/42.jpeg",4,2,"stim/42.jpeg",2,"right",2,2,1,3.453000069,1,2.211999893,10,0,0,NA,0,NA,0
"439","stim/objects/Instruments/cymbal4.png",394,63,387,0.7,"stim/41.jpeg",4,1,2,1,"Instruments",1,2,"left","left",0.628000021,1,1,1,0,38,63,1,0.7,1,"stim/41.jpeg",4,1,"stim/41.jpeg",2,"left",2.969000101,2,3,2.599999905,2,2.318000078,38,1,0,0,1,1,0
"533","stim/objects/Instruments/grandpiano3.png",395,63,388,0.9,"stim/61.jpeg",6,1,3,2,"Instruments",1,1,"left","left",0.55700016,1,1,1,0,NA,NA,NA,NA,NA,NA,NA,NA,NA,NA,NA,NA,NA,NA,NA,NA,NA,NA,NA,NA,NA,NA,NA,NA
"275","stim/objects/HouseObjects/clothespin3.png",396,63,389,0.7,"stim/34.jpeg",3,4,2,2,"HouseObjects",2,4,"right","right",0.523999929,1,1,1,0,NA,NA,NA,NA,NA,NA,NA,NA,NA,NA,NA,NA,NA,NA,NA,NA,NA,NA,NA,NA,NA,NA,NA,NA
"265","stim/objects/HouseObjects/bucket3.png",397,63,390,0.5,"stim/22.jpeg",2,2,1,2,"HouseObjects",2,3,"right","right",0.577000141,1,1,1,0,NA,NA,NA,NA,NA,NA,NA,NA,NA,NA,NA,NA,NA,NA,NA,NA,NA,NA,NA,NA,NA,NA,NA,NA
"414","stim/objects/Instruments/balalaika4.png",398,63,391,0.3,"stim/34.jpeg",3,4,2,1,"Instruments",1,2,"left","right",0.732000113,0,0,1,0,77,63,1,0.3,1,"stim/34.jpeg",3,4,"stim/34.jpeg",2,"right",1.029000044,2,1,1.703999996,2,1.882999897,77,0,0,NA,1,NA,0
"398","stim/objects/HouseObjects/pitcher3.png",399,63,392,0.7,"stim/33.jpeg",3,3,2,1,"HouseObjects",2,2,"right","right",0.480999947,1,1,1,0,65,63,1,0.7,2,"stim/33.jpeg",3,3,"stim/33.jpeg",2,"right",1.056999922,2,3,3.154000044,2,1.963999987,65,0,1,NA,1,NA,0
"468","stim/objects/Instruments/flute3.png",400,63,393,0.9,"stim/63.jpeg",6,3,3,2,"Instruments",1,3,"left","right",0.520000219,0,0,1,0,NA,NA,NA,NA,NA,NA,NA,NA,NA,NA,NA,NA,NA,NA,NA,NA,NA,NA,NA,NA,NA,NA,NA,NA
"292","stim/objects/HouseObjects/doormat3.png",401,63,394,0.9,"stim/51.jpeg",5,1,3,2,"HouseObjects",2,2,"right","right",0.633000135,1,1,1,0,NA,NA,NA,NA,NA,NA,NA,NA,NA,NA,NA,NA,NA,NA,NA,NA,NA,NA,NA,NA,NA,NA,NA,NA
"383","stim/objects/HouseObjects/handvacuum4.png",402,63,395,0.9,"stim/53.jpeg",5,3,3,1,"HouseObjects",2,3,"right","right",0.794000149,1,1,1,0,31,63,1,0.9,2,"stim/53.jpeg",5,3,"stim/53.jpeg",3,"left",1.680000067,2,3,4.101000071,1,1.139999866,31,1,1,1,0,0,0
"324","stim/objects/HouseObjects/dustpan4.png",403,63,396,0.9,"stim/54.jpeg",5,4,3,1,"HouseObjects",2,2,"right","",NA,0,0,1,0,145,63,1,0.9,2,"stim/54.jpeg",5,4,"stim/54.jpeg",2,"right",0.987999916,2,3,1.039000034,2,1.037999868,145,0,0,NA,1,NA,0
"558","stim/objects/Instruments/metronome4.png",404,63,397,0.9,"stim/64.jpeg",6,4,3,1,"Instruments",1,2,"left","left",0.565000057,1,1,1,0,140,63,1,0.9,1,"stim/64.jpeg",6,4,"stim/64.jpeg",2,"left",0.924999952,2,2,1.251999855,1,0.882999897,140,1,0,0,0,0,0
"307","stim/objects/HouseObjects/doormat4.png",405,63,398,0.9,"stim/53.jpeg",5,3,3,1,"HouseObjects",2,1,"right","left",0.59800005,0,0,1,0,23,63,1,0.9,2,"stim/53.jpeg",5,3,"stim/53.jpeg",1,"left",1.138999939,4,4,3.462999821,2,2.303999901,23,1,0,0,0,0,0
"390","stim/objects/HouseObjects/knife3.png",406,63,399,0.5,"stim/22.jpeg",2,2,1,1,"HouseObjects",2,2,"right","left",0.700000048,0,0,1,0,40,63,1,0.5,2,"stim/22.jpeg",2,2,"stim/22.jpeg",2,"left",1.882999897,4,2,3.239999771,4,1.805000067,40,1,1,1,0,0,0
"451","stim/objects/Instruments/electricdrumset4.png",407,63,400,0.7,"stim/44.jpeg",4,4,2,1,"Instruments",1,3,"left","right",0.733999968,0,0,1,0,191,63,1,0.7,1,"stim/44.jpeg",4,4,"stim/44.jpeg",3,"right",0.832999945,2,4,1.398999929,2,1.252999783,191,0,1,NA,0,NA,0
"557","stim/objects/Instruments/metronome3.png",408,63,401,0.5,"stim/24.jpeg",2,4,1,1,"Instruments",1,2,"left","left",0.763999939,1,1,1,0,50,63,1,0.5,2,"stim/24.jpeg",2,4,"stim/24.jpeg",2,"left",0.91899991,3,2,3.928999901,3,1.713999748,50,1,0,0,0,0,0
"469","stim/objects/Instruments/flute3.png",409,63,402,0.9,"stim/61.jpeg",6,1,3,2,"Instruments",1,1,"left","left",0.834000111,1,1,1,0,NA,NA,NA,NA,NA,NA,NA,NA,NA,NA,NA,NA,NA,NA,NA,NA,NA,NA,NA,NA,NA,NA,NA,NA
"320","stim/objects/HouseObjects/dustpan3.png",410,63,403,0.9,"stim/51.jpeg",5,1,3,2,"HouseObjects",2,2,"right","right",0.544000149,1,1,1,0,NA,NA,NA,NA,NA,NA,NA,NA,NA,NA,NA,NA,NA,NA,NA,NA,NA,NA,NA,NA,NA,NA,NA,NA
"380","stim/objects/HouseObjects/handbrush3.png",411,63,404,0.5,"stim/14.jpeg",1,4,1,1,"HouseObjects",2,2,"right","right",0.652000189,1,1,1,0,87,63,1,0.5,1,"stim/14.jpeg",1,4,"stim/14.jpeg",2,"right",0.687999964,3,3,0.305999994,2,2.532999992,87,0,0,NA,1,NA,0
"535","stim/objects/Instruments/grandpiano3.png",412,63,405,0.9,"stim/63.jpeg",6,3,3,2,"Instruments",1,3,"left","left",0.525000095,1,1,1,0,NA,NA,NA,NA,NA,NA,NA,NA,NA,NA,NA,NA,NA,NA,NA,NA,NA,NA,NA,NA,NA,NA,NA,NA
"335","stim/objects/HouseObjects/flyswatter3.png",413,63,406,0.9,"stim/53.jpeg",5,3,3,2,"HouseObjects",2,3,"right","",NA,0,0,1,0,NA,NA,NA,NA,NA,NA,NA,NA,NA,NA,NA,NA,NA,NA,NA,NA,NA,NA,NA,NA,NA,NA,NA,NA
"336","stim/objects/HouseObjects/flyswatter3.png",414,63,407,0.9,"stim/53.jpeg",5,3,3,2,"HouseObjects",2,1,"right","right",0.479000092,1,1,1,0,NA,NA,NA,NA,NA,NA,NA,NA,NA,NA,NA,NA,NA,NA,NA,NA,NA,NA,NA,NA,NA,NA,NA,NA
"484","stim/objects/Instruments/flutetrans3.png",415,63,408,0.9,"stim/62.jpeg",6,2,3,2,"Instruments",1,3,"left","left",0.634000063,1,1,1,0,NA,NA,NA,NA,NA,NA,NA,NA,NA,NA,NA,NA,NA,NA,NA,NA,NA,NA,NA,NA,NA,NA,NA,NA
"550","stim/objects/Instruments/keyboard4.png",416,63,409,0.1,"stim/52.jpeg",5,2,3,1,"Instruments",1,4,"left","right",0.693000317,0,0,1,0,98,63,1,0.1,1,"stim/52.jpeg",5,2,"stim/52.jpeg",4,"right",0.81799984,3,3,5.372999907,3,1.570999861,98,0,0,NA,0,NA,0
"493","stim/objects/Instruments/frenchhorn3.png",417,63,410,0.9,"stim/63.jpeg",6,3,3,2,"Instruments",1,1,"left","left",0.497999907,1,1,1,0,NA,NA,NA,NA,NA,NA,NA,NA,NA,NA,NA,NA,NA,NA,NA,NA,NA,NA,NA,NA,NA,NA,NA,NA
"481","stim/objects/Instruments/flutetrans3.png",418,63,411,0.9,"stim/63.jpeg",6,3,3,2,"Instruments",1,4,"left","left",0.613000154,1,1,1,0,NA,NA,NA,NA,NA,NA,NA,NA,NA,NA,NA,NA,NA,NA,NA,NA,NA,NA,NA,NA,NA,NA,NA,NA
"518","stim/objects/Instruments/gong3.png",419,63,412,0.9,"stim/64.jpeg",6,4,3,2,"Instruments",1,2,"left","left",0.57400012,1,1,1,0,NA,NA,NA,NA,NA,NA,NA,NA,NA,NA,NA,NA,NA,NA,NA,NA,NA,NA,NA,NA,NA,NA,NA,NA
"394","stim/objects/HouseObjects/match3.png",420,63,413,0.5,"stim/24.jpeg",2,4,1,1,"HouseObjects",2,3,"right","right",0.578000069,1,1,1,0,83,63,1,0.5,2,"stim/24.jpeg",2,4,"stim/24.jpeg",3,"right",1.116999865,3,1,2.157999992,1,2.270999908,83,0,0,NA,0,NA,0
"368","stim/objects/HouseObjects/glass3.png",421,63,414,0.9,"stim/53.jpeg",5,3,3,2,"HouseObjects",2,2,"right","right",0.703999996,1,1,1,0,NA,NA,NA,NA,NA,NA,NA,NA,NA,NA,NA,NA,NA,NA,NA,NA,NA,NA,NA,NA,NA,NA,NA,NA
"246","stim/objects/HouseObjects/ballofstring4.png",422,63,415,0.7,"stim/34.jpeg",3,4,2,1,"HouseObjects",2,4,"right","left",0.636000156,0,0,1,0,43,63,1,0.7,2,"stim/34.jpeg",3,4,"stim/34.jpeg",4,"right",2.420000076,2,4,2.737999916,3,1.612999916,43,0,1,NA,0,NA,0
"515","stim/objects/Instruments/gong3.png",423,63,416,0.9,"stim/64.jpeg",6,4,3,2,"Instruments",1,1,"left","right",0.59800005,0,0,1,0,NA,NA,NA,NA,NA,NA,NA,NA,NA,NA,NA,NA,NA,NA,NA,NA,NA,NA,NA,NA,NA,NA,NA,NA
"442","stim/objects/Instruments/doublebass3.png",424,63,417,0.7,"stim/43.jpeg",4,3,2,2,"Instruments",1,2,"left","left",0.646000147,1,1,1,0,NA,NA,NA,NA,NA,NA,NA,NA,NA,NA,NA,NA,NA,NA,NA,NA,NA,NA,NA,NA,NA,NA,NA,NA
"447","stim/objects/Instruments/drums4.png",425,63,418,0.7,"stim/43.jpeg",4,3,2,1,"Instruments",1,4,"left","left",0.657000065,1,1,1,0,29,63,1,0.7,1,"stim/43.jpeg",4,3,"stim/43.jpeg",4,"left",1.017999887,2,2,4.618999958,1,2.36199975,29,1,0,0,0,0,0
"285","stim/objects/HouseObjects/cushion3.png",426,63,419,0.7,"stim/34.jpeg",3,4,2,2,"HouseObjects",2,1,"right","",NA,0,0,1,0,NA,NA,NA,NA,NA,NA,NA,NA,NA,NA,NA,NA,NA,NA,NA,NA,NA,NA,NA,NA,NA,NA,NA,NA
"355","stim/objects/HouseObjects/garbagebin3.png",427,63,420,0.9,"stim/51.jpeg",5,1,3,2,"HouseObjects",2,1,"right","left",0.632000208,0,0,1,0,NA,NA,NA,NA,NA,NA,NA,NA,NA,NA,NA,NA,NA,NA,NA,NA,NA,NA,NA,NA,NA,NA,NA,NA
"360","stim/objects/HouseObjects/glass3.png",428,63,421,0.9,"stim/51.jpeg",5,1,3,2,"HouseObjects",2,3,"right","right",0.506999969,1,1,1,0,NA,NA,NA,NA,NA,NA,NA,NA,NA,NA,NA,NA,NA,NA,NA,NA,NA,NA,NA,NA,NA,NA,NA,NA
"387","stim/objects/HouseObjects/ironingboard4.png",429,63,422,0.1,"stim/63.jpeg",6,3,3,1,"HouseObjects",2,4,"right","left",0.561000109,0,0,1,0,200,63,1,0.1,2,"stim/63.jpeg",6,3,"stim/63.jpeg",4,"right",0.815999985,2,1,1.602999926,3,1.455999851,200,0,0,NA,0,NA,0
"453","stim/objects/Instruments/electricguitar3.png",430,63,423,0.7,"stim/42.jpeg",4,2,2,2,"Instruments",1,1,"left","right",0.801000118,0,0,1,0,NA,NA,NA,NA,NA,NA,NA,NA,NA,NA,NA,NA,NA,NA,NA,NA,NA,NA,NA,NA,NA,NA,NA,NA
"452","stim/objects/Instruments/electricguitar3.png",431,63,424,0.7,"stim/43.jpeg",4,3,2,2,"Instruments",1,4,"left","left",0.628999949,1,1,1,0,NA,NA,NA,NA,NA,NA,NA,NA,NA,NA,NA,NA,NA,NA,NA,NA,NA,NA,NA,NA,NA,NA,NA,NA
"288","stim/objects/HouseObjects/dishsoap3.png",432,63,425,0.7,"stim/33.jpeg",3,3,2,2,"HouseObjects",2,4,"right","right",0.613000154,1,1,1,0,NA,NA,NA,NA,NA,NA,NA,NA,NA,NA,NA,NA,NA,NA,NA,NA,NA,NA,NA,NA,NA,NA,NA,NA
"314","stim/objects/HouseObjects/dustpan3.png",433,63,426,0.9,"stim/52.jpeg",5,2,3,2,"HouseObjects",2,1,"right","right",0.658000231,1,1,1,0,NA,NA,NA,NA,NA,NA,NA,NA,NA,NA,NA,NA,NA,NA,NA,NA,NA,NA,NA,NA,NA,NA,NA,NA
"294","stim/objects/HouseObjects/doormat3.png",434,63,427,0.9,"stim/54.jpeg",5,4,3,2,"HouseObjects",2,3,"right","right",0.61500001,1,1,1,0,NA,NA,NA,NA,NA,NA,NA,NA,NA,NA,NA,NA,NA,NA,NA,NA,NA,NA,NA,NA,NA,NA,NA,NA
"277","stim/objects/HouseObjects/clothespin3.png",435,63,428,0.7,"stim/32.jpeg",3,2,2,2,"HouseObjects",2,1,"right","right",0.611000061,1,1,1,0,NA,NA,NA,NA,NA,NA,NA,NA,NA,NA,NA,NA,NA,NA,NA,NA,NA,NA,NA,NA,NA,NA,NA,NA
"504","stim/objects/Instruments/frenchhorn3.png",436,63,429,0.9,"stim/62.jpeg",6,2,3,2,"Instruments",1,2,"left","left",0.64800024,1,1,1,0,NA,NA,NA,NA,NA,NA,NA,NA,NA,NA,NA,NA,NA,NA,NA,NA,NA,NA,NA,NA,NA,NA,NA,NA
"353","stim/objects/HouseObjects/garbagebin3.png",437,63,430,0.9,"stim/54.jpeg",5,4,3,2,"HouseObjects",2,3,"right","right",0.611000061,1,1,1,0,NA,NA,NA,NA,NA,NA,NA,NA,NA,NA,NA,NA,NA,NA,NA,NA,NA,NA,NA,NA,NA,NA,NA,NA
"384","stim/objects/HouseObjects/iron3.png",438,63,431,0.5,"stim/12.jpeg",1,2,1,1,"HouseObjects",2,2,"right","right",0.579999924,1,1,1,0,25,63,1,0.5,1,"stim/12.jpeg",1,2,"stim/12.jpeg",2,"right",1.029999971,3,4,2.48300004,3,2.372999907,25,0,0,NA,0,NA,0
"289","stim/objects/HouseObjects/dishsoap3.png",439,63,432,0.7,"stim/34.jpeg",3,4,2,2,"HouseObjects",2,4,"right","right",0.605999947,1,1,1,0,NA,NA,NA,NA,NA,NA,NA,NA,NA,NA,NA,NA,NA,NA,NA,NA,NA,NA,NA,NA,NA,NA,NA,NA
"421","stim/objects/Instruments/bassguitar3.png",440,63,433,0.5,"stim/23.jpeg",2,3,1,2,"Instruments",1,4,"left","left",0.678000212,1,1,1,0,NA,NA,NA,NA,NA,NA,NA,NA,NA,NA,NA,NA,NA,NA,NA,NA,NA,NA,NA,NA,NA,NA,NA,NA
"478","stim/objects/Instruments/flutetrans3.png",441,63,434,0.9,"stim/64.jpeg",6,4,3,2,"Instruments",1,2,"left","left",0.679000139,1,1,1,0,NA,NA,NA,NA,NA,NA,NA,NA,NA,NA,NA,NA,NA,NA,NA,NA,NA,NA,NA,NA,NA,NA,NA,NA
"354","stim/objects/HouseObjects/garbagebin3.png",442,63,435,0.9,"stim/52.jpeg",5,2,3,2,"HouseObjects",2,1,"right","right",0.594000101,1,1,1,0,NA,NA,NA,NA,NA,NA,NA,NA,NA,NA,NA,NA,NA,NA,NA,NA,NA,NA,NA,NA,NA,NA,NA,NA
"562","stim/objects/Instruments/musicstand4.png",443,63,436,0.9,"stim/62.jpeg",6,2,3,1,"Instruments",1,2,"left","left",0.553000212,1,1,1,0,169,63,1,0.9,1,"stim/62.jpeg",6,2,"stim/62.jpeg",2,"right",0.734999895,3,2,3.16899991,4,1.733999968,169,0,1,NA,0,NA,0
"315","stim/objects/HouseObjects/dustpan3.png",444,63,437,0.9,"stim/54.jpeg",5,4,3,2,"HouseObjects",2,1,"right","right",0.691000223,1,1,1,0,NA,NA,NA,NA,NA,NA,NA,NA,NA,NA,NA,NA,NA,NA,NA,NA,NA,NA,NA,NA,NA,NA,NA,NA
"472","stim/objects/Instruments/flute4.png",445,63,438,0.1,"stim/51.jpeg",5,1,3,1,"Instruments",1,3,"left","right",0.59800005,0,0,1,0,116,63,1,0.1,1,"stim/51.jpeg",5,1,"stim/51.jpeg",3,"left",0.953999996,3,4,1.532000065,2,2.553999901,116,1,0,0,0,0,0
"438","stim/objects/Instruments/cymbal3.png",446,63,439,0.7,"stim/42.jpeg",4,2,2,2,"Instruments",1,4,"left","left",0.631999969,1,1,1,0,NA,NA,NA,NA,NA,NA,NA,NA,NA,NA,NA,NA,NA,NA,NA,NA,NA,NA,NA,NA,NA,NA,NA,NA
"434","stim/objects/Instruments/cornet3.png",447,63,440,0.5,"stim/24.jpeg",2,4,1,2,"Instruments",1,3,"left","right",0.588000059,0,0,1,0,NA,NA,NA,NA,NA,NA,NA,NA,NA,NA,NA,NA,NA,NA,NA,NA,NA,NA,NA,NA,NA,NA,NA,NA
"375","stim/objects/HouseObjects/glass4.png",448,63,441,0.9,"stim/53.jpeg",5,3,3,1,"HouseObjects",2,4,"right","left",0.640000105,0,0,1,0,114,63,1,0.9,2,"stim/53.jpeg",5,3,"stim/53.jpeg",4,"left",0.851000071,4,2,2.660000086,3,1.123000145,114,1,0,0,0,0,0
"487","stim/objects/Instruments/flutetrans3.png",449,63,442,0.9,"stim/64.jpeg",6,4,3,2,"Instruments",1,1,"left","right",0.631000042,0,0,1,0,NA,NA,NA,NA,NA,NA,NA,NA,NA,NA,NA,NA,NA,NA,NA,NA,NA,NA,NA,NA,NA,NA,NA,NA
"505","stim/objects/Instruments/frenchhorn3.png",450,63,443,0.9,"stim/63.jpeg",6,3,3,2,"Instruments",1,4,"left","left",0.634000063,1,1,1,0,NA,NA,NA,NA,NA,NA,NA,NA,NA,NA,NA,NA,NA,NA,NA,NA,NA,NA,NA,NA,NA,NA,NA,NA
"534","stim/objects/Instruments/grandpiano3.png",451,63,444,0.9,"stim/62.jpeg",6,2,3,2,"Instruments",1,4,"left","left",0.571000099,1,1,1,0,NA,NA,NA,NA,NA,NA,NA,NA,NA,NA,NA,NA,NA,NA,NA,NA,NA,NA,NA,NA,NA,NA,NA,NA
"538","stim/objects/Instruments/grandpiano3.png",452,63,445,0.9,"stim/62.jpeg",6,2,3,2,"Instruments",1,3,"left","left",0.555000067,1,1,1,0,NA,NA,NA,NA,NA,NA,NA,NA,NA,NA,NA,NA,NA,NA,NA,NA,NA,NA,NA,NA,NA,NA,NA,NA
"567","stim/objects/Instruments/vuvuzela3.png",453,63,446,0.3,"stim/34.jpeg",3,4,2,1,"Instruments",1,4,"left","right",0.749000072,0,0,1,0,99,63,1,0.3,1,"stim/34.jpeg",3,4,"stim/34.jpeg",4,"left",1.11199975,4,4,3.38499999,2,3.652999878,99,1,1,1,0,0,0
"356","stim/objects/HouseObjects/garbagebin3.png",454,63,447,0.9,"stim/52.jpeg",5,2,3,2,"HouseObjects",2,4,"right","right",0.870000124,1,1,1,0,NA,NA,NA,NA,NA,NA,NA,NA,NA,NA,NA,NA,NA,NA,NA,NA,NA,NA,NA,NA,NA,NA,NA,NA
"503","stim/objects/Instruments/frenchhorn3.png",455,63,448,0.9,"stim/61.jpeg",6,1,3,2,"Instruments",1,3,"left","left",0.598000288,1,1,1,0,NA,NA,NA,NA,NA,NA,NA,NA,NA,NA,NA,NA,NA,NA,NA,NA,NA,NA,NA,NA,NA,NA,NA,NA
"284","stim/objects/HouseObjects/cushion3.png",456,63,449,0.7,"stim/33.jpeg",3,3,2,2,"HouseObjects",2,1,"right","",NA,0,0,1,0,NA,NA,NA,NA,NA,NA,NA,NA,NA,NA,NA,NA,NA,NA,NA,NA,NA,NA,NA,NA,NA,NA,NA,NA
"486","stim/objects/Instruments/flutetrans3.png",457,63,450,0.9,"stim/63.jpeg",6,3,3,2,"Instruments",1,1,"left","left",0.493999958,1,1,1,0,NA,NA,NA,NA,NA,NA,NA,NA,NA,NA,NA,NA,NA,NA,NA,NA,NA,NA,NA,NA,NA,NA,NA,NA
"396","stim/objects/HouseObjects/pan3.png",458,63,451,0.7,"stim/32.jpeg",3,2,2,1,"HouseObjects",2,2,"right","right",0.70600009,1,1,1,0,113,63,1,0.7,2,"stim/32.jpeg",3,2,"stim/32.jpeg",2,"left",1.799999952,2,3,1.501999855,1,1.234999895,113,1,0,0,0,0,0
"428","stim/objects/Instruments/chime3.png",459,63,452,0.5,"stim/22.jpeg",2,2,1,2,"Instruments",1,1,"left","left",0.562000036,1,1,1,0,NA,NA,NA,NA,NA,NA,NA,NA,NA,NA,NA,NA,NA,NA,NA,NA,NA,NA,NA,NA,NA,NA,NA,NA
"321","stim/objects/HouseObjects/dustpan3.png",460,63,453,0.9,"stim/51.jpeg",5,1,3,2,"HouseObjects",2,2,"right","right",0.572000265,1,1,1,0,NA,NA,NA,NA,NA,NA,NA,NA,NA,NA,NA,NA,NA,NA,NA,NA,NA,NA,NA,NA,NA,NA,NA,NA
"418","stim/objects/Instruments/bassdrum3.png",461,63,454,0.5,"stim/12.jpeg",1,2,1,2,"Instruments",1,4,"left","right",0.526000023,0,0,1,0,NA,NA,NA,NA,NA,NA,NA,NA,NA,NA,NA,NA,NA,NA,NA,NA,NA,NA,NA,NA,NA,NA,NA,NA
"542","stim/objects/Instruments/guitarcase4.png",462,63,455,0.1,"stim/52.jpeg",5,2,3,1,"Instruments",1,2,"left","right",0.503000259,0,0,1,0,167,63,1,0.1,1,"stim/52.jpeg",5,2,"stim/52.jpeg",2,"right",0.763999939,2,2,3.10199976,3,2.038000107,167,0,1,NA,0,NA,0
"454","stim/objects/Instruments/electricguitar3.png",463,63,456,0.7,"stim/41.jpeg",4,1,2,2,"Instruments",1,2,"left","right",0.661000013,0,0,1,0,NA,NA,NA,NA,NA,NA,NA,NA,NA,NA,NA,NA,NA,NA,NA,NA,NA,NA,NA,NA,NA,NA,NA,NA
"370","stim/objects/HouseObjects/glass3.png",464,63,457,0.9,"stim/52.jpeg",5,2,3,2,"HouseObjects",2,2,"right","",NA,0,0,1,0,NA,NA,NA,NA,NA,NA,NA,NA,NA,NA,NA,NA,NA,NA,NA,NA,NA,NA,NA,NA,NA,NA,NA,NA
"302","stim/objects/HouseObjects/doormat3.png",465,63,458,0.9,"stim/53.jpeg",5,3,3,2,"HouseObjects",2,2,"right","right",0.479000092,1,1,1,0,NA,NA,NA,NA,NA,NA,NA,NA,NA,NA,NA,NA,NA,NA,NA,NA,NA,NA,NA,NA,NA,NA,NA,NA
"257","stim/objects/HouseObjects/blender3.png",466,63,459,0.5,"stim/23.jpeg",2,3,1,2,"HouseObjects",2,2,"right","right",0.473999977,1,1,1,0,NA,NA,NA,NA,NA,NA,NA,NA,NA,NA,NA,NA,NA,NA,NA,NA,NA,NA,NA,NA,NA,NA,NA,NA
"338","stim/objects/HouseObjects/flyswatter3.png",467,63,460,0.9,"stim/52.jpeg",5,2,3,2,"HouseObjects",2,1,"right","left",0.642000198,0,0,1,0,NA,NA,NA,NA,NA,NA,NA,NA,NA,NA,NA,NA,NA,NA,NA,NA,NA,NA,NA,NA,NA,NA,NA,NA
"516","stim/objects/Instruments/gong3.png",468,63,461,0.9,"stim/64.jpeg",6,4,3,2,"Instruments",1,1,"left","left",0.562999964,1,1,1,0,NA,NA,NA,NA,NA,NA,NA,NA,NA,NA,NA,NA,NA,NA,NA,NA,NA,NA,NA,NA,NA,NA,NA,NA
