"","obj_file","X.x","participant.x","trialN.x","trial_cond","scn_file.x","scn_cat","scn_inst","scn_condition","fillers","obj_cat","obj_cat_num","quadrant","corr_ans","key_resp_trial.keys","key_resp_trial.rt","trial_acc","trial_acc_manual","group.x","practice","X.y","participant.y","OvsN","PE_level","object_cat","scn_file.y","corr_scn_cat","corr_scn_inst","scn_file.1","corr_loc","key_resp_id.keys","key_resp_id.rt","key_resp_conf.keys","key_resp_assoc.keys","key_resp_assoc.rt","key_resp_loc.keys","key_resp_loc.rt","trialN.y","id_acc","assoc.acc","cond_assoc","loc.acc","cond_loc","group.y"
"162","stim/objects/Instruments/record2.png",1,28,1,0.7,"stim/43.jpeg",4,3,2,NA,"Instruments",1,3,"left","",NA,0,0,1,1,NA,NA,NA,NA,NA,NA,NA,NA,NA,NA,NA,NA,NA,NA,NA,NA,NA,NA,NA,NA,NA,NA,NA,NA
"187","stim/objects/Instruments/timbal.png",2,28,2,0.5,"stim/24.jpeg",2,4,1,NA,"Instruments",1,2,"left","right",0.488000154,0,0,1,1,NA,NA,NA,NA,NA,NA,NA,NA,NA,NA,NA,NA,NA,NA,NA,NA,NA,NA,NA,NA,NA,NA,NA,NA
"232","stim/objects/Instruments/tuba2.png",3,28,3,0.9,"stim/64.jpeg",6,4,3,NA,"Instruments",1,4,"left","left",0.38100028,1,1,1,1,NA,NA,NA,NA,NA,NA,NA,NA,NA,NA,NA,NA,NA,NA,NA,NA,NA,NA,NA,NA,NA,NA,NA,NA
"233","stim/objects/Instruments/tuba2.png",4,28,4,0.9,"stim/64.jpeg",6,4,3,NA,"Instruments",1,3,"left","",NA,0,0,1,1,NA,NA,NA,NA,NA,NA,NA,NA,NA,NA,NA,NA,NA,NA,NA,NA,NA,NA,NA,NA,NA,NA,NA,NA
"25","stim/objects/HouseObjects/rug.png",5,28,5,0.5,"stim/14.jpeg",1,4,1,NA,"HouseObjects",2,1,"right","left",0.367000103,0,0,1,1,NA,NA,NA,NA,NA,NA,NA,NA,NA,NA,NA,NA,NA,NA,NA,NA,NA,NA,NA,NA,NA,NA,NA,NA
"52","stim/objects/HouseObjects/saw2.png",6,28,6,0.9,"stim/52.jpeg",5,2,3,NA,"HouseObjects",2,3,"right","left",0.43900013,0,0,1,1,NA,NA,NA,NA,NA,NA,NA,NA,NA,NA,NA,NA,NA,NA,NA,NA,NA,NA,NA,NA,NA,NA,NA,NA
"234","stim/objects/Instruments/tuba2.png",7,28,7,0.9,"stim/64.jpeg",6,4,3,NA,"Instruments",1,2,"left","left",0.371000051,1,1,1,1,NA,NA,NA,NA,NA,NA,NA,NA,NA,NA,NA,NA,NA,NA,NA,NA,NA,NA,NA,NA,NA,NA,NA,NA
"22","stim/objects/HouseObjects/rubbergloves2.png",8,28,8,0.3,"stim/43.jpeg",4,3,2,NA,"HouseObjects",2,3,"right","left",0.42200017,0,0,1,1,NA,NA,NA,NA,NA,NA,NA,NA,NA,NA,NA,NA,NA,NA,NA,NA,NA,NA,NA,NA,NA,NA,NA,NA
"229","stim/objects/Instruments/tuba.png",9,28,9,0.3,"stim/34.jpeg",3,4,2,NA,"Instruments",1,3,"left","right",0.515000105,0,0,1,1,NA,NA,NA,NA,NA,NA,NA,NA,NA,NA,NA,NA,NA,NA,NA,NA,NA,NA,NA,NA,NA,NA,NA,NA
"97","stim/objects/HouseObjects/teapot.png",10,28,10,0.7,"stim/32.jpeg",3,2,2,NA,"HouseObjects",2,1,"right","left",0.484000206,0,0,1,1,NA,NA,NA,NA,NA,NA,NA,NA,NA,NA,NA,NA,NA,NA,NA,NA,NA,NA,NA,NA,NA,NA,NA,NA
"150","stim/objects/Instruments/record_player2.png",11,28,11,0.7,"stim/44.jpeg",4,4,2,NA,"Instruments",1,4,"left","left",0.461000204,1,1,1,1,NA,NA,NA,NA,NA,NA,NA,NA,NA,NA,NA,NA,NA,NA,NA,NA,NA,NA,NA,NA,NA,NA,NA,NA
"6","stim/objects/HouseObjects/recyclingbin2.png",12,28,12,0.3,"stim/41.jpeg",4,1,2,NA,"HouseObjects",2,3,"right","left",0.461000204,0,0,1,1,NA,NA,NA,NA,NA,NA,NA,NA,NA,NA,NA,NA,NA,NA,NA,NA,NA,NA,NA,NA,NA,NA,NA,NA
"113","stim/objects/HouseObjects/thread.png",13,28,13,0.7,"stim/34.jpeg",3,4,2,NA,"HouseObjects",2,2,"right","left",0.440000296,0,0,1,1,NA,NA,NA,NA,NA,NA,NA,NA,NA,NA,NA,NA,NA,NA,NA,NA,NA,NA,NA,NA,NA,NA,NA,NA
"38","stim/objects/HouseObjects/safetypin2.png",14,28,14,0.9,"stim/51.jpeg",5,1,3,NA,"HouseObjects",2,3,"right","",NA,0,0,1,1,NA,NA,NA,NA,NA,NA,NA,NA,NA,NA,NA,NA,NA,NA,NA,NA,NA,NA,NA,NA,NA,NA,NA,NA
"196","stim/objects/Instruments/triangle2.png",15,28,15,0.9,"stim/61.jpeg",6,1,3,NA,"Instruments",1,4,"left","",NA,0,0,1,1,NA,NA,NA,NA,NA,NA,NA,NA,NA,NA,NA,NA,NA,NA,NA,NA,NA,NA,NA,NA,NA,NA,NA,NA
"26","stim/objects/HouseObjects/rug.png",16,28,16,0.5,"stim/14.jpeg",1,4,1,NA,"HouseObjects",2,4,"right","",NA,0,0,1,1,NA,NA,NA,NA,NA,NA,NA,NA,NA,NA,NA,NA,NA,NA,NA,NA,NA,NA,NA,NA,NA,NA,NA,NA
"163","stim/objects/Instruments/record2.png",17,28,17,0.7,"stim/43.jpeg",4,3,2,NA,"Instruments",1,3,"left","",NA,0,0,1,1,NA,NA,NA,NA,NA,NA,NA,NA,NA,NA,NA,NA,NA,NA,NA,NA,NA,NA,NA,NA,NA,NA,NA,NA
"157","stim/objects/Instruments/record.png",18,28,18,0.5,"stim/13.jpeg",1,3,1,NA,"Instruments",1,1,"left","",NA,0,0,1,1,NA,NA,NA,NA,NA,NA,NA,NA,NA,NA,NA,NA,NA,NA,NA,NA,NA,NA,NA,NA,NA,NA,NA,NA
"80","stim/objects/HouseObjects/sponge2.png",19,28,19,0.9,"stim/54.jpeg",5,4,3,NA,"HouseObjects",2,3,"right","",NA,0,0,1,1,NA,NA,NA,NA,NA,NA,NA,NA,NA,NA,NA,NA,NA,NA,NA,NA,NA,NA,NA,NA,NA,NA,NA,NA
"39","stim/objects/HouseObjects/safetypin2.png",20,28,20,0.9,"stim/51.jpeg",5,1,3,NA,"HouseObjects",2,4,"right","",NA,0,0,1,1,NA,NA,NA,NA,NA,NA,NA,NA,NA,NA,NA,NA,NA,NA,NA,NA,NA,NA,NA,NA,NA,NA,NA,NA
"105","stim/objects/HouseObjects/thermometer.png",21,28,21,0.7,"stim/33.jpeg",3,3,2,NA,"HouseObjects",2,1,"right","",NA,0,0,1,1,NA,NA,NA,NA,NA,NA,NA,NA,NA,NA,NA,NA,NA,NA,NA,NA,NA,NA,NA,NA,NA,NA,NA,NA
"217","stim/objects/Instruments/trumpet.png",22,28,22,0.3,"stim/33.jpeg",3,3,2,NA,"Instruments",1,3,"left","",NA,0,0,1,1,NA,NA,NA,NA,NA,NA,NA,NA,NA,NA,NA,NA,NA,NA,NA,NA,NA,NA,NA,NA,NA,NA,NA,NA
"218","stim/objects/Instruments/trumpet.png",23,28,23,0.3,"stim/33.jpeg",3,3,2,NA,"Instruments",1,4,"left","",NA,0,0,1,1,NA,NA,NA,NA,NA,NA,NA,NA,NA,NA,NA,NA,NA,NA,NA,NA,NA,NA,NA,NA,NA,NA,NA,NA
"197","stim/objects/Instruments/triangle2.png",24,28,24,0.9,"stim/61.jpeg",6,1,3,NA,"Instruments",1,3,"left","",NA,0,0,1,1,NA,NA,NA,NA,NA,NA,NA,NA,NA,NA,NA,NA,NA,NA,NA,NA,NA,NA,NA,NA,NA,NA,NA,NA
"53","stim/objects/HouseObjects/saw2.png",25,28,25,0.9,"stim/52.jpeg",5,2,3,NA,"HouseObjects",2,1,"right","left",0.00600028,0,0,1,1,NA,NA,NA,NA,NA,NA,NA,NA,NA,NA,NA,NA,NA,NA,NA,NA,NA,NA,NA,NA,NA,NA,NA,NA
"175","stim/objects/Instruments/speaker.png",26,28,26,0.5,"stim/22.jpeg",2,2,1,NA,"Instruments",1,4,"left","",NA,0,0,1,1,NA,NA,NA,NA,NA,NA,NA,NA,NA,NA,NA,NA,NA,NA,NA,NA,NA,NA,NA,NA,NA,NA,NA,NA
"81","stim/objects/HouseObjects/sponge2.png",27,28,27,0.9,"stim/54.jpeg",5,4,3,NA,"HouseObjects",2,3,"right","",NA,0,0,1,1,NA,NA,NA,NA,NA,NA,NA,NA,NA,NA,NA,NA,NA,NA,NA,NA,NA,NA,NA,NA,NA,NA,NA,NA
"208","stim/objects/Instruments/trombone2.png",28,28,28,0.9,"stim/62.jpeg",6,2,3,NA,"Instruments",1,4,"left","",NA,0,0,1,1,NA,NA,NA,NA,NA,NA,NA,NA,NA,NA,NA,NA,NA,NA,NA,NA,NA,NA,NA,NA,NA,NA,NA,NA
"174","stim/objects/Instruments/saxophone2.png",29,28,29,0.1,"stim/51.jpeg",5,1,3,NA,"Instruments",1,4,"left","",NA,0,0,1,1,NA,NA,NA,NA,NA,NA,NA,NA,NA,NA,NA,NA,NA,NA,NA,NA,NA,NA,NA,NA,NA,NA,NA,NA
"61","stim/objects/HouseObjects/scale.png",30,28,30,0.5,"stim/23.jpeg",2,3,1,NA,"HouseObjects",2,2,"right","",NA,0,0,1,1,NA,NA,NA,NA,NA,NA,NA,NA,NA,NA,NA,NA,NA,NA,NA,NA,NA,NA,NA,NA,NA,NA,NA,NA
"66","stim/objects/HouseObjects/scale2.png",31,28,31,0.9,"stim/53.jpeg",5,3,3,NA,"HouseObjects",2,2,"right","",NA,0,0,1,1,NA,NA,NA,NA,NA,NA,NA,NA,NA,NA,NA,NA,NA,NA,NA,NA,NA,NA,NA,NA,NA,NA,NA,NA
"98","stim/objects/HouseObjects/teapot.png",32,28,32,0.7,"stim/32.jpeg",3,2,2,NA,"HouseObjects",2,3,"right","",NA,0,0,1,1,NA,NA,NA,NA,NA,NA,NA,NA,NA,NA,NA,NA,NA,NA,NA,NA,NA,NA,NA,NA,NA,NA,NA,NA
"9","stim/objects/HouseObjects/remote.png",33,28,33,0.5,"stim/12.jpeg",1,2,1,NA,"HouseObjects",2,2,"right","",NA,0,0,1,1,NA,NA,NA,NA,NA,NA,NA,NA,NA,NA,NA,NA,NA,NA,NA,NA,NA,NA,NA,NA,NA,NA,NA,NA
"89","stim/objects/HouseObjects/spraybottle.png",34,28,34,0.7,"stim/31.jpeg",3,1,2,NA,"HouseObjects",2,2,"right","",NA,0,0,1,1,NA,NA,NA,NA,NA,NA,NA,NA,NA,NA,NA,NA,NA,NA,NA,NA,NA,NA,NA,NA,NA,NA,NA,NA
"67","stim/objects/HouseObjects/scale2.png",35,28,35,0.9,"stim/53.jpeg",5,3,3,NA,"HouseObjects",2,1,"right","",NA,0,0,1,1,NA,NA,NA,NA,NA,NA,NA,NA,NA,NA,NA,NA,NA,NA,NA,NA,NA,NA,NA,NA,NA,NA,NA,NA
"145","stim/objects/Instruments/record_player.png",36,28,36,0.5,"stim/14.jpeg",1,4,1,NA,"Instruments",1,3,"left","",NA,0,0,1,1,NA,NA,NA,NA,NA,NA,NA,NA,NA,NA,NA,NA,NA,NA,NA,NA,NA,NA,NA,NA,NA,NA,NA,NA
"104","stim/objects/HouseObjects/teapot2.png",37,28,37,0.1,"stim/62.jpeg",6,2,3,NA,"HouseObjects",2,1,"right","",NA,0,0,1,1,NA,NA,NA,NA,NA,NA,NA,NA,NA,NA,NA,NA,NA,NA,NA,NA,NA,NA,NA,NA,NA,NA,NA,NA
"27","stim/objects/HouseObjects/rug.png",38,28,38,0.5,"stim/14.jpeg",1,4,1,NA,"HouseObjects",2,3,"right","",NA,0,0,1,1,NA,NA,NA,NA,NA,NA,NA,NA,NA,NA,NA,NA,NA,NA,NA,NA,NA,NA,NA,NA,NA,NA,NA,NA
"40","stim/objects/HouseObjects/safetypin2.png",39,28,39,0.9,"stim/51.jpeg",5,1,3,NA,"HouseObjects",2,4,"right","",NA,0,0,1,1,NA,NA,NA,NA,NA,NA,NA,NA,NA,NA,NA,NA,NA,NA,NA,NA,NA,NA,NA,NA,NA,NA,NA,NA
"198","stim/objects/Instruments/triangle2.png",40,28,40,0.9,"stim/61.jpeg",6,1,3,NA,"Instruments",1,3,"left","",NA,0,0,1,1,NA,NA,NA,NA,NA,NA,NA,NA,NA,NA,NA,NA,NA,NA,NA,NA,NA,NA,NA,NA,NA,NA,NA,NA
"220","stim/objects/Instruments/trumpet2.png",41,28,41,0.9,"stim/63.jpeg",6,3,3,NA,"Instruments",1,4,"left","",NA,0,0,1,1,NA,NA,NA,NA,NA,NA,NA,NA,NA,NA,NA,NA,NA,NA,NA,NA,NA,NA,NA,NA,NA,NA,NA,NA
"126","stim/objects/Instruments/panflute2.png",42,28,42,0.7,"stim/41.jpeg",4,1,2,NA,"Instruments",1,3,"left","",NA,0,0,1,1,NA,NA,NA,NA,NA,NA,NA,NA,NA,NA,NA,NA,NA,NA,NA,NA,NA,NA,NA,NA,NA,NA,NA,NA
"82","stim/objects/HouseObjects/sponge2.png",43,28,43,0.9,"stim/54.jpeg",5,4,3,NA,"HouseObjects",2,4,"right","",NA,0,0,1,1,NA,NA,NA,NA,NA,NA,NA,NA,NA,NA,NA,NA,NA,NA,NA,NA,NA,NA,NA,NA,NA,NA,NA,NA
"75","stim/objects/HouseObjects/sponge.png",44,28,44,0.5,"stim/24.jpeg",2,4,1,NA,"HouseObjects",2,2,"right","",NA,0,0,1,1,NA,NA,NA,NA,NA,NA,NA,NA,NA,NA,NA,NA,NA,NA,NA,NA,NA,NA,NA,NA,NA,NA,NA,NA
"23","stim/objects/HouseObjects/rubbergloves2.png",45,28,45,0.3,"stim/43.jpeg",4,3,2,NA,"HouseObjects",2,4,"right","",NA,0,0,1,1,NA,NA,NA,NA,NA,NA,NA,NA,NA,NA,NA,NA,NA,NA,NA,NA,NA,NA,NA,NA,NA,NA,NA,NA
"127","stim/objects/Instruments/panflute2.png",46,28,46,0.7,"stim/41.jpeg",4,1,2,NA,"Instruments",1,1,"left","",NA,0,0,1,1,NA,NA,NA,NA,NA,NA,NA,NA,NA,NA,NA,NA,NA,NA,NA,NA,NA,NA,NA,NA,NA,NA,NA,NA
"90","stim/objects/HouseObjects/spraybottle.png",47,28,47,0.7,"stim/31.jpeg",3,1,2,NA,"HouseObjects",2,4,"right","",NA,0,0,1,1,NA,NA,NA,NA,NA,NA,NA,NA,NA,NA,NA,NA,NA,NA,NA,NA,NA,NA,NA,NA,NA,NA,NA,NA
"76","stim/objects/HouseObjects/sponge.png",48,28,48,0.5,"stim/24.jpeg",2,4,1,NA,"HouseObjects",2,2,"right","",NA,0,0,1,1,NA,NA,NA,NA,NA,NA,NA,NA,NA,NA,NA,NA,NA,NA,NA,NA,NA,NA,NA,NA,NA,NA,NA,NA
"151","stim/objects/Instruments/record_player2.png",49,28,49,0.7,"stim/44.jpeg",4,4,2,NA,"Instruments",1,1,"left","",NA,0,0,1,1,NA,NA,NA,NA,NA,NA,NA,NA,NA,NA,NA,NA,NA,NA,NA,NA,NA,NA,NA,NA,NA,NA,NA,NA
"176","stim/objects/Instruments/speaker.png",50,28,50,0.5,"stim/22.jpeg",2,2,1,NA,"Instruments",1,1,"left","",NA,0,0,1,1,NA,NA,NA,NA,NA,NA,NA,NA,NA,NA,NA,NA,NA,NA,NA,NA,NA,NA,NA,NA,NA,NA,NA,NA
"83","stim/objects/HouseObjects/sponge2.png",51,28,51,0.9,"stim/54.jpeg",5,4,3,NA,"HouseObjects",2,2,"right","",NA,0,0,1,1,NA,NA,NA,NA,NA,NA,NA,NA,NA,NA,NA,NA,NA,NA,NA,NA,NA,NA,NA,NA,NA,NA,NA,NA
"133","stim/objects/Instruments/pipepiano.png",52,28,52,0.5,"stim/12.jpeg",1,2,1,NA,"Instruments",1,2,"left","",NA,0,0,1,1,NA,NA,NA,NA,NA,NA,NA,NA,NA,NA,NA,NA,NA,NA,NA,NA,NA,NA,NA,NA,NA,NA,NA,NA
"205","stim/objects/Instruments/trombone.png",53,28,53,0.3,"stim/32.jpeg",3,2,2,NA,"Instruments",1,2,"left","",NA,0,0,1,1,NA,NA,NA,NA,NA,NA,NA,NA,NA,NA,NA,NA,NA,NA,NA,NA,NA,NA,NA,NA,NA,NA,NA,NA
"114","stim/objects/HouseObjects/thread.png",54,28,54,0.7,"stim/34.jpeg",3,4,2,NA,"HouseObjects",2,3,"right","",NA,0,0,1,1,NA,NA,NA,NA,NA,NA,NA,NA,NA,NA,NA,NA,NA,NA,NA,NA,NA,NA,NA,NA,NA,NA,NA,NA
"54","stim/objects/HouseObjects/saw2.png",55,28,55,0.9,"stim/52.jpeg",5,2,3,NA,"HouseObjects",2,2,"right","",NA,0,0,1,1,NA,NA,NA,NA,NA,NA,NA,NA,NA,NA,NA,NA,NA,NA,NA,NA,NA,NA,NA,NA,NA,NA,NA,NA
"91","stim/objects/HouseObjects/spraybottle.png",56,28,56,0.7,"stim/31.jpeg",3,1,2,NA,"HouseObjects",2,3,"right","",NA,0,0,1,1,NA,NA,NA,NA,NA,NA,NA,NA,NA,NA,NA,NA,NA,NA,NA,NA,NA,NA,NA,NA,NA,NA,NA,NA
"99","stim/objects/HouseObjects/teapot.png",57,28,57,0.7,"stim/32.jpeg",3,2,2,NA,"HouseObjects",2,1,"right","",NA,0,0,1,1,NA,NA,NA,NA,NA,NA,NA,NA,NA,NA,NA,NA,NA,NA,NA,NA,NA,NA,NA,NA,NA,NA,NA,NA
"181","stim/objects/Instruments/tambourine.png",58,28,58,0.5,"stim/23.jpeg",2,3,1,NA,"Instruments",1,4,"left","",NA,0,0,1,1,NA,NA,NA,NA,NA,NA,NA,NA,NA,NA,NA,NA,NA,NA,NA,NA,NA,NA,NA,NA,NA,NA,NA,NA
"134","stim/objects/Instruments/pipepiano.png",59,28,59,0.5,"stim/12.jpeg",1,2,1,NA,"Instruments",1,1,"left","",NA,0,0,1,1,NA,NA,NA,NA,NA,NA,NA,NA,NA,NA,NA,NA,NA,NA,NA,NA,NA,NA,NA,NA,NA,NA,NA,NA
"146","stim/objects/Instruments/record_player.png",60,28,60,0.5,"stim/14.jpeg",1,4,1,NA,"Instruments",1,1,"left","",NA,0,0,1,1,NA,NA,NA,NA,NA,NA,NA,NA,NA,NA,NA,NA,NA,NA,NA,NA,NA,NA,NA,NA,NA,NA,NA,NA
"62","stim/objects/HouseObjects/scale.png",61,28,61,0.5,"stim/23.jpeg",2,3,1,NA,"HouseObjects",2,3,"right","",NA,0,0,1,1,NA,NA,NA,NA,NA,NA,NA,NA,NA,NA,NA,NA,NA,NA,NA,NA,NA,NA,NA,NA,NA,NA,NA,NA
"221","stim/objects/Instruments/trumpet2.png",62,28,62,0.9,"stim/63.jpeg",6,3,3,NA,"Instruments",1,2,"left","",NA,0,0,1,1,NA,NA,NA,NA,NA,NA,NA,NA,NA,NA,NA,NA,NA,NA,NA,NA,NA,NA,NA,NA,NA,NA,NA,NA
"177","stim/objects/Instruments/speaker.png",63,28,63,0.5,"stim/22.jpeg",2,2,1,NA,"Instruments",1,4,"left","",NA,0,0,1,1,NA,NA,NA,NA,NA,NA,NA,NA,NA,NA,NA,NA,NA,NA,NA,NA,NA,NA,NA,NA,NA,NA,NA,NA
"17","stim/objects/HouseObjects/rubbergloves.png",64,28,64,0.5,"stim/13.jpeg",1,3,1,NA,"HouseObjects",2,2,"right","",NA,0,0,1,1,NA,NA,NA,NA,NA,NA,NA,NA,NA,NA,NA,NA,NA,NA,NA,NA,NA,NA,NA,NA,NA,NA,NA,NA
"199","stim/objects/Instruments/triangle2.png",65,28,65,0.9,"stim/61.jpeg",6,1,3,NA,"Instruments",1,4,"left","",NA,0,0,1,1,NA,NA,NA,NA,NA,NA,NA,NA,NA,NA,NA,NA,NA,NA,NA,NA,NA,NA,NA,NA,NA,NA,NA,NA
"121","stim/objects/Instruments/panflute.png",66,28,66,0.5,"stim/11.jpeg",1,1,1,NA,"Instruments",1,2,"left","",NA,0,0,1,1,NA,NA,NA,NA,NA,NA,NA,NA,NA,NA,NA,NA,NA,NA,NA,NA,NA,NA,NA,NA,NA,NA,NA,NA
"1","stim/objects/HouseObjects/recyclingbin.png",67,28,67,0.5,"stim/11.jpeg",1,1,1,NA,"HouseObjects",2,2,"right","",NA,0,0,1,1,NA,NA,NA,NA,NA,NA,NA,NA,NA,NA,NA,NA,NA,NA,NA,NA,NA,NA,NA,NA,NA,NA,NA,NA
"135","stim/objects/Instruments/pipepiano.png",68,28,68,0.5,"stim/12.jpeg",1,2,1,NA,"Instruments",1,3,"left","",NA,0,0,1,1,NA,NA,NA,NA,NA,NA,NA,NA,NA,NA,NA,NA,NA,NA,NA,NA,NA,NA,NA,NA,NA,NA,NA,NA
"33","stim/objects/HouseObjects/safetypin.png",69,28,69,0.5,"stim/21.jpeg",2,1,1,NA,"HouseObjects",2,4,"right","",NA,0,0,1,1,NA,NA,NA,NA,NA,NA,NA,NA,NA,NA,NA,NA,NA,NA,NA,NA,NA,NA,NA,NA,NA,NA,NA,NA
"230","stim/objects/Instruments/tuba.png",70,28,70,0.3,"stim/34.jpeg",3,4,2,NA,"Instruments",1,2,"left","",NA,0,0,1,1,NA,NA,NA,NA,NA,NA,NA,NA,NA,NA,NA,NA,NA,NA,NA,NA,NA,NA,NA,NA,NA,NA,NA,NA
"2","stim/objects/HouseObjects/recyclingbin.png",71,28,71,0.5,"stim/11.jpeg",1,1,1,NA,"HouseObjects",2,2,"right","",NA,0,0,1,1,NA,NA,NA,NA,NA,NA,NA,NA,NA,NA,NA,NA,NA,NA,NA,NA,NA,NA,NA,NA,NA,NA,NA,NA
"68","stim/objects/HouseObjects/scale2.png",72,28,72,0.9,"stim/53.jpeg",5,3,3,NA,"HouseObjects",2,3,"right","",NA,0,0,1,1,NA,NA,NA,NA,NA,NA,NA,NA,NA,NA,NA,NA,NA,NA,NA,NA,NA,NA,NA,NA,NA,NA,NA,NA
"3","stim/objects/HouseObjects/recyclingbin.png",73,28,73,0.5,"stim/11.jpeg",1,1,1,NA,"HouseObjects",2,2,"right","",NA,0,0,1,1,NA,NA,NA,NA,NA,NA,NA,NA,NA,NA,NA,NA,NA,NA,NA,NA,NA,NA,NA,NA,NA,NA,NA,NA
"138","stim/objects/Instruments/pipepiano2.png",74,28,74,0.7,"stim/42.jpeg",4,2,2,NA,"Instruments",1,1,"left","",NA,0,0,1,1,NA,NA,NA,NA,NA,NA,NA,NA,NA,NA,NA,NA,NA,NA,NA,NA,NA,NA,NA,NA,NA,NA,NA,NA
"4","stim/objects/HouseObjects/recyclingbin.png",75,28,75,0.5,"stim/11.jpeg",1,1,1,NA,"HouseObjects",2,3,"right","",NA,0,0,1,1,NA,NA,NA,NA,NA,NA,NA,NA,NA,NA,NA,NA,NA,NA,NA,NA,NA,NA,NA,NA,NA,NA,NA,NA
"106","stim/objects/HouseObjects/thermometer.png",76,28,76,0.7,"stim/33.jpeg",3,3,2,NA,"HouseObjects",2,2,"right","",NA,0,0,1,1,NA,NA,NA,NA,NA,NA,NA,NA,NA,NA,NA,NA,NA,NA,NA,NA,NA,NA,NA,NA,NA,NA,NA,NA
"147","stim/objects/Instruments/record_player.png",77,28,77,0.5,"stim/14.jpeg",1,4,1,NA,"Instruments",1,4,"left","",NA,0,0,1,1,NA,NA,NA,NA,NA,NA,NA,NA,NA,NA,NA,NA,NA,NA,NA,NA,NA,NA,NA,NA,NA,NA,NA,NA
"122","stim/objects/Instruments/panflute.png",78,28,78,0.5,"stim/11.jpeg",1,1,1,NA,"Instruments",1,1,"left","",NA,0,0,1,1,NA,NA,NA,NA,NA,NA,NA,NA,NA,NA,NA,NA,NA,NA,NA,NA,NA,NA,NA,NA,NA,NA,NA,NA
"63","stim/objects/HouseObjects/scale.png",79,28,79,0.5,"stim/23.jpeg",2,3,1,NA,"HouseObjects",2,1,"right","",NA,0,0,1,1,NA,NA,NA,NA,NA,NA,NA,NA,NA,NA,NA,NA,NA,NA,NA,NA,NA,NA,NA,NA,NA,NA,NA,NA
"169","stim/objects/Instruments/saxophone.png",80,28,80,0.5,"stim/21.jpeg",2,1,1,NA,"Instruments",1,3,"left","",NA,0,0,1,1,NA,NA,NA,NA,NA,NA,NA,NA,NA,NA,NA,NA,NA,NA,NA,NA,NA,NA,NA,NA,NA,NA,NA,NA
"139","stim/objects/Instruments/pipepiano2.png",81,28,81,0.7,"stim/42.jpeg",4,2,2,NA,"Instruments",1,1,"left","",NA,0,0,1,1,NA,NA,NA,NA,NA,NA,NA,NA,NA,NA,NA,NA,NA,NA,NA,NA,NA,NA,NA,NA,NA,NA,NA,NA
"128","stim/objects/Instruments/panflute2.png",82,28,82,0.7,"stim/41.jpeg",4,1,2,NA,"Instruments",1,1,"left","",NA,0,0,1,1,NA,NA,NA,NA,NA,NA,NA,NA,NA,NA,NA,NA,NA,NA,NA,NA,NA,NA,NA,NA,NA,NA,NA,NA
"235","stim/objects/Instruments/tuba2.png",83,28,83,0.9,"stim/64.jpeg",6,4,3,NA,"Instruments",1,2,"left","",NA,0,0,1,1,NA,NA,NA,NA,NA,NA,NA,NA,NA,NA,NA,NA,NA,NA,NA,NA,NA,NA,NA,NA,NA,NA,NA,NA
"92","stim/objects/HouseObjects/spraybottle.png",84,28,84,0.7,"stim/31.jpeg",3,1,2,NA,"HouseObjects",2,4,"right","",NA,0,0,1,1,NA,NA,NA,NA,NA,NA,NA,NA,NA,NA,NA,NA,NA,NA,NA,NA,NA,NA,NA,NA,NA,NA,NA,NA
"236","stim/objects/Instruments/tuba2.png",85,28,85,0.9,"stim/64.jpeg",6,4,3,NA,"Instruments",1,1,"left","right",0.005000114,0,0,1,1,NA,NA,NA,NA,NA,NA,NA,NA,NA,NA,NA,NA,NA,NA,NA,NA,NA,NA,NA,NA,NA,NA,NA,NA
"100","stim/objects/HouseObjects/teapot.png",86,28,86,0.7,"stim/32.jpeg",3,2,2,NA,"HouseObjects",2,4,"right","right",0.009000301,1,1,1,1,NA,NA,NA,NA,NA,NA,NA,NA,NA,NA,NA,NA,NA,NA,NA,NA,NA,NA,NA,NA,NA,NA,NA,NA
"24","stim/objects/HouseObjects/rubbergloves2.png",87,28,87,0.3,"stim/43.jpeg",4,3,2,NA,"HouseObjects",2,4,"right","",NA,0,0,1,1,NA,NA,NA,NA,NA,NA,NA,NA,NA,NA,NA,NA,NA,NA,NA,NA,NA,NA,NA,NA,NA,NA,NA,NA
"101","stim/objects/HouseObjects/teapot.png",88,28,88,0.7,"stim/32.jpeg",3,2,2,NA,"HouseObjects",2,1,"right","",NA,0,0,1,1,NA,NA,NA,NA,NA,NA,NA,NA,NA,NA,NA,NA,NA,NA,NA,NA,NA,NA,NA,NA,NA,NA,NA,NA
"164","stim/objects/Instruments/record2.png",89,28,89,0.7,"stim/43.jpeg",4,3,2,NA,"Instruments",1,1,"left","",NA,0,0,1,1,NA,NA,NA,NA,NA,NA,NA,NA,NA,NA,NA,NA,NA,NA,NA,NA,NA,NA,NA,NA,NA,NA,NA,NA
"14","stim/objects/HouseObjects/remote2.png",90,28,90,0.3,"stim/42.jpeg",4,2,2,NA,"HouseObjects",2,2,"right","",NA,0,0,1,1,NA,NA,NA,NA,NA,NA,NA,NA,NA,NA,NA,NA,NA,NA,NA,NA,NA,NA,NA,NA,NA,NA,NA,NA
"41","stim/objects/HouseObjects/safetypin2.png",91,28,91,0.9,"stim/51.jpeg",5,1,3,NA,"HouseObjects",2,3,"right","",NA,0,0,1,1,NA,NA,NA,NA,NA,NA,NA,NA,NA,NA,NA,NA,NA,NA,NA,NA,NA,NA,NA,NA,NA,NA,NA,NA
"77","stim/objects/HouseObjects/sponge.png",92,28,92,0.5,"stim/24.jpeg",2,4,1,NA,"HouseObjects",2,2,"right","",NA,0,0,1,1,NA,NA,NA,NA,NA,NA,NA,NA,NA,NA,NA,NA,NA,NA,NA,NA,NA,NA,NA,NA,NA,NA,NA,NA
"84","stim/objects/HouseObjects/sponge2.png",93,28,93,0.9,"stim/54.jpeg",5,4,3,NA,"HouseObjects",2,1,"right","",NA,0,0,1,1,NA,NA,NA,NA,NA,NA,NA,NA,NA,NA,NA,NA,NA,NA,NA,NA,NA,NA,NA,NA,NA,NA,NA,NA
"209","stim/objects/Instruments/trombone2.png",94,28,94,0.9,"stim/62.jpeg",6,2,3,NA,"Instruments",1,1,"left","",NA,0,0,1,1,NA,NA,NA,NA,NA,NA,NA,NA,NA,NA,NA,NA,NA,NA,NA,NA,NA,NA,NA,NA,NA,NA,NA,NA
"42","stim/objects/HouseObjects/safetypin2.png",95,28,95,0.9,"stim/51.jpeg",5,1,3,NA,"HouseObjects",2,1,"right","",NA,0,0,1,1,NA,NA,NA,NA,NA,NA,NA,NA,NA,NA,NA,NA,NA,NA,NA,NA,NA,NA,NA,NA,NA,NA,NA,NA
"136","stim/objects/Instruments/pipepiano.png",96,28,96,0.5,"stim/12.jpeg",1,2,1,NA,"Instruments",1,4,"left","",NA,0,0,1,1,NA,NA,NA,NA,NA,NA,NA,NA,NA,NA,NA,NA,NA,NA,NA,NA,NA,NA,NA,NA,NA,NA,NA,NA
"123","stim/objects/Instruments/panflute.png",97,28,97,0.5,"stim/11.jpeg",1,1,1,NA,"Instruments",1,1,"left","",NA,0,0,1,1,NA,NA,NA,NA,NA,NA,NA,NA,NA,NA,NA,NA,NA,NA,NA,NA,NA,NA,NA,NA,NA,NA,NA,NA
"210","stim/objects/Instruments/trombone2.png",98,28,98,0.9,"stim/62.jpeg",6,2,3,NA,"Instruments",1,4,"left","",NA,0,0,1,1,NA,NA,NA,NA,NA,NA,NA,NA,NA,NA,NA,NA,NA,NA,NA,NA,NA,NA,NA,NA,NA,NA,NA,NA
"69","stim/objects/HouseObjects/scale2.png",99,28,99,0.9,"stim/53.jpeg",5,3,3,NA,"HouseObjects",2,1,"right","",NA,0,0,1,1,NA,NA,NA,NA,NA,NA,NA,NA,NA,NA,NA,NA,NA,NA,NA,NA,NA,NA,NA,NA,NA,NA,NA,NA
"158","stim/objects/Instruments/record.png",100,28,100,0.5,"stim/13.jpeg",1,3,1,NA,"Instruments",1,3,"left","",NA,0,0,1,1,NA,NA,NA,NA,NA,NA,NA,NA,NA,NA,NA,NA,NA,NA,NA,NA,NA,NA,NA,NA,NA,NA,NA,NA
"152","stim/objects/Instruments/record_player2.png",101,28,101,0.7,"stim/44.jpeg",4,4,2,NA,"Instruments",1,1,"left","",NA,0,0,1,1,NA,NA,NA,NA,NA,NA,NA,NA,NA,NA,NA,NA,NA,NA,NA,NA,NA,NA,NA,NA,NA,NA,NA,NA
"70","stim/objects/HouseObjects/scale2.png",102,28,102,0.9,"stim/53.jpeg",5,3,3,NA,"HouseObjects",2,2,"right","",NA,0,0,1,1,NA,NA,NA,NA,NA,NA,NA,NA,NA,NA,NA,NA,NA,NA,NA,NA,NA,NA,NA,NA,NA,NA,NA,NA
"222","stim/objects/Instruments/trumpet2.png",103,28,103,0.9,"stim/63.jpeg",6,3,3,NA,"Instruments",1,1,"left","",NA,0,0,1,1,NA,NA,NA,NA,NA,NA,NA,NA,NA,NA,NA,NA,NA,NA,NA,NA,NA,NA,NA,NA,NA,NA,NA,NA
"165","stim/objects/Instruments/record2.png",104,28,104,0.7,"stim/43.jpeg",4,3,2,NA,"Instruments",1,1,"left","",NA,0,0,1,1,NA,NA,NA,NA,NA,NA,NA,NA,NA,NA,NA,NA,NA,NA,NA,NA,NA,NA,NA,NA,NA,NA,NA,NA
"10","stim/objects/HouseObjects/remote.png",105,28,105,0.5,"stim/12.jpeg",1,2,1,NA,"HouseObjects",2,1,"right","",NA,0,0,1,1,NA,NA,NA,NA,NA,NA,NA,NA,NA,NA,NA,NA,NA,NA,NA,NA,NA,NA,NA,NA,NA,NA,NA,NA
"200","stim/objects/Instruments/triangle2.png",106,28,106,0.9,"stim/61.jpeg",6,1,3,NA,"Instruments",1,2,"left","",NA,0,0,1,1,NA,NA,NA,NA,NA,NA,NA,NA,NA,NA,NA,NA,NA,NA,NA,NA,NA,NA,NA,NA,NA,NA,NA,NA
"193","stim/objects/Instruments/triangle.png",107,28,107,0.3,"stim/31.jpeg",3,1,2,NA,"Instruments",1,3,"left","",NA,0,0,1,1,NA,NA,NA,NA,NA,NA,NA,NA,NA,NA,NA,NA,NA,NA,NA,NA,NA,NA,NA,NA,NA,NA,NA,NA
"85","stim/objects/HouseObjects/sponge2.png",108,28,108,0.9,"stim/54.jpeg",5,4,3,NA,"HouseObjects",2,1,"right","",NA,0,0,1,1,NA,NA,NA,NA,NA,NA,NA,NA,NA,NA,NA,NA,NA,NA,NA,NA,NA,NA,NA,NA,NA,NA,NA,NA
"129","stim/objects/Instruments/panflute2.png",109,28,109,0.7,"stim/41.jpeg",4,1,2,NA,"Instruments",1,2,"left","",NA,0,0,1,1,NA,NA,NA,NA,NA,NA,NA,NA,NA,NA,NA,NA,NA,NA,NA,NA,NA,NA,NA,NA,NA,NA,NA,NA
"28","stim/objects/HouseObjects/rug.png",110,28,110,0.5,"stim/14.jpeg",1,4,1,NA,"HouseObjects",2,2,"right","",NA,0,0,1,1,NA,NA,NA,NA,NA,NA,NA,NA,NA,NA,NA,NA,NA,NA,NA,NA,NA,NA,NA,NA,NA,NA,NA,NA
"223","stim/objects/Instruments/trumpet2.png",111,28,111,0.9,"stim/63.jpeg",6,3,3,NA,"Instruments",1,2,"left","",NA,0,0,1,1,NA,NA,NA,NA,NA,NA,NA,NA,NA,NA,NA,NA,NA,NA,NA,NA,NA,NA,NA,NA,NA,NA,NA,NA
"112","stim/objects/HouseObjects/thermometer2.png",112,28,112,0.1,"stim/63.jpeg",6,3,3,NA,"HouseObjects",2,4,"right","",NA,0,0,1,1,NA,NA,NA,NA,NA,NA,NA,NA,NA,NA,NA,NA,NA,NA,NA,NA,NA,NA,NA,NA,NA,NA,NA,NA
"130","stim/objects/Instruments/panflute2.png",113,28,113,0.7,"stim/41.jpeg",4,1,2,NA,"Instruments",1,2,"left","",NA,0,0,1,1,NA,NA,NA,NA,NA,NA,NA,NA,NA,NA,NA,NA,NA,NA,NA,NA,NA,NA,NA,NA,NA,NA,NA,NA
"201","stim/objects/Instruments/triangle2.png",114,28,114,0.9,"stim/61.jpeg",6,1,3,NA,"Instruments",1,2,"left","",NA,0,0,1,1,NA,NA,NA,NA,NA,NA,NA,NA,NA,NA,NA,NA,NA,NA,NA,NA,NA,NA,NA,NA,NA,NA,NA,NA
"107","stim/objects/HouseObjects/thermometer.png",115,28,115,0.7,"stim/33.jpeg",3,3,2,NA,"HouseObjects",2,4,"right","",NA,0,0,1,1,NA,NA,NA,NA,NA,NA,NA,NA,NA,NA,NA,NA,NA,NA,NA,NA,NA,NA,NA,NA,NA,NA,NA,NA
"55","stim/objects/HouseObjects/saw2.png",116,28,116,0.9,"stim/52.jpeg",5,2,3,NA,"HouseObjects",2,4,"right","",NA,0,0,1,1,NA,NA,NA,NA,NA,NA,NA,NA,NA,NA,NA,NA,NA,NA,NA,NA,NA,NA,NA,NA,NA,NA,NA,NA
"96","stim/objects/HouseObjects/spraybottle2.png",117,28,117,0.1,"stim/61.jpeg",6,1,3,NA,"HouseObjects",2,2,"right","",NA,0,0,1,1,NA,NA,NA,NA,NA,NA,NA,NA,NA,NA,NA,NA,NA,NA,NA,NA,NA,NA,NA,NA,NA,NA,NA,NA
"192","stim/objects/Instruments/timbal2.png",118,28,118,0.1,"stim/54.jpeg",5,4,3,NA,"Instruments",1,1,"left","",NA,0,0,1,1,NA,NA,NA,NA,NA,NA,NA,NA,NA,NA,NA,NA,NA,NA,NA,NA,NA,NA,NA,NA,NA,NA,NA,NA
"56","stim/objects/HouseObjects/saw2.png",119,28,119,0.9,"stim/52.jpeg",5,2,3,NA,"HouseObjects",2,2,"right","",NA,0,0,1,1,NA,NA,NA,NA,NA,NA,NA,NA,NA,NA,NA,NA,NA,NA,NA,NA,NA,NA,NA,NA,NA,NA,NA,NA
"140","stim/objects/Instruments/pipepiano2.png",120,28,120,0.7,"stim/42.jpeg",4,2,2,NA,"Instruments",1,4,"left","",NA,0,0,1,1,NA,NA,NA,NA,NA,NA,NA,NA,NA,NA,NA,NA,NA,NA,NA,NA,NA,NA,NA,NA,NA,NA,NA,NA
"57","stim/objects/HouseObjects/saw2.png",121,28,121,0.9,"stim/52.jpeg",5,2,3,NA,"HouseObjects",2,2,"right","",NA,0,0,1,1,NA,NA,NA,NA,NA,NA,NA,NA,NA,NA,NA,NA,NA,NA,NA,NA,NA,NA,NA,NA,NA,NA,NA,NA
"18","stim/objects/HouseObjects/rubbergloves.png",122,28,122,0.5,"stim/13.jpeg",1,3,1,NA,"HouseObjects",2,3,"right","",NA,0,0,1,1,NA,NA,NA,NA,NA,NA,NA,NA,NA,NA,NA,NA,NA,NA,NA,NA,NA,NA,NA,NA,NA,NA,NA,NA
"47","stim/objects/HouseObjects/saw.png",123,28,123,0.5,"stim/22.jpeg",2,2,1,NA,"HouseObjects",2,1,"right","",NA,0,0,1,1,NA,NA,NA,NA,NA,NA,NA,NA,NA,NA,NA,NA,NA,NA,NA,NA,NA,NA,NA,NA,NA,NA,NA,NA
"86","stim/objects/HouseObjects/sponge2.png",124,28,124,0.9,"stim/54.jpeg",5,4,3,NA,"HouseObjects",2,2,"right","",NA,0,0,1,1,NA,NA,NA,NA,NA,NA,NA,NA,NA,NA,NA,NA,NA,NA,NA,NA,NA,NA,NA,NA,NA,NA,NA,NA
"178","stim/objects/Instruments/speaker.png",125,28,125,0.5,"stim/22.jpeg",2,2,1,NA,"Instruments",1,1,"left","",NA,0,0,1,1,NA,NA,NA,NA,NA,NA,NA,NA,NA,NA,NA,NA,NA,NA,NA,NA,NA,NA,NA,NA,NA,NA,NA,NA
"166","stim/objects/Instruments/record2.png",126,28,126,0.7,"stim/43.jpeg",4,3,2,NA,"Instruments",1,2,"left","",NA,0,0,1,1,NA,NA,NA,NA,NA,NA,NA,NA,NA,NA,NA,NA,NA,NA,NA,NA,NA,NA,NA,NA,NA,NA,NA,NA
"211","stim/objects/Instruments/trombone2.png",127,28,127,0.9,"stim/62.jpeg",6,2,3,NA,"Instruments",1,4,"left","",NA,0,0,1,1,NA,NA,NA,NA,NA,NA,NA,NA,NA,NA,NA,NA,NA,NA,NA,NA,NA,NA,NA,NA,NA,NA,NA,NA
"212","stim/objects/Instruments/trombone2.png",128,28,128,0.9,"stim/62.jpeg",6,2,3,NA,"Instruments",1,1,"left","",NA,0,0,1,1,NA,NA,NA,NA,NA,NA,NA,NA,NA,NA,NA,NA,NA,NA,NA,NA,NA,NA,NA,NA,NA,NA,NA,NA
"137","stim/objects/Instruments/pipepiano.png",129,28,129,0.5,"stim/12.jpeg",1,2,1,NA,"Instruments",1,4,"left","",NA,0,0,1,1,NA,NA,NA,NA,NA,NA,NA,NA,NA,NA,NA,NA,NA,NA,NA,NA,NA,NA,NA,NA,NA,NA,NA,NA
"224","stim/objects/Instruments/trumpet2.png",130,28,130,0.9,"stim/63.jpeg",6,3,3,NA,"Instruments",1,3,"left","",NA,0,0,1,1,NA,NA,NA,NA,NA,NA,NA,NA,NA,NA,NA,NA,NA,NA,NA,NA,NA,NA,NA,NA,NA,NA,NA,NA
"141","stim/objects/Instruments/pipepiano2.png",131,28,131,0.7,"stim/42.jpeg",4,2,2,NA,"Instruments",1,4,"left","",NA,0,0,1,1,NA,NA,NA,NA,NA,NA,NA,NA,NA,NA,NA,NA,NA,NA,NA,NA,NA,NA,NA,NA,NA,NA,NA,NA
"206","stim/objects/Instruments/trombone.png",132,28,132,0.3,"stim/32.jpeg",3,2,2,NA,"Instruments",1,2,"left","",NA,0,0,1,1,NA,NA,NA,NA,NA,NA,NA,NA,NA,NA,NA,NA,NA,NA,NA,NA,NA,NA,NA,NA,NA,NA,NA,NA
"43","stim/objects/HouseObjects/safetypin2.png",133,28,133,0.9,"stim/51.jpeg",5,1,3,NA,"HouseObjects",2,2,"right","",NA,0,0,1,1,NA,NA,NA,NA,NA,NA,NA,NA,NA,NA,NA,NA,NA,NA,NA,NA,NA,NA,NA,NA,NA,NA,NA,NA
"11","stim/objects/HouseObjects/remote.png",134,28,134,0.5,"stim/12.jpeg",1,2,1,NA,"HouseObjects",2,2,"right","",NA,0,0,1,1,NA,NA,NA,NA,NA,NA,NA,NA,NA,NA,NA,NA,NA,NA,NA,NA,NA,NA,NA,NA,NA,NA,NA,NA
"102","stim/objects/HouseObjects/teapot.png",135,28,135,0.7,"stim/32.jpeg",3,2,2,NA,"HouseObjects",2,3,"right","right",0.003000259,1,1,1,1,NA,NA,NA,NA,NA,NA,NA,NA,NA,NA,NA,NA,NA,NA,NA,NA,NA,NA,NA,NA,NA,NA,NA,NA
"48","stim/objects/HouseObjects/saw.png",136,28,136,0.5,"stim/22.jpeg",2,2,1,NA,"HouseObjects",2,1,"right","",NA,0,0,1,1,NA,NA,NA,NA,NA,NA,NA,NA,NA,NA,NA,NA,NA,NA,NA,NA,NA,NA,NA,NA,NA,NA,NA,NA
"188","stim/objects/Instruments/timbal.png",137,28,137,0.5,"stim/24.jpeg",2,4,1,NA,"Instruments",1,4,"left","right",0.133000135,0,0,1,1,NA,NA,NA,NA,NA,NA,NA,NA,NA,NA,NA,NA,NA,NA,NA,NA,NA,NA,NA,NA,NA,NA,NA,NA
"237","stim/objects/Instruments/tuba2.png",138,28,138,0.9,"stim/64.jpeg",6,4,3,NA,"Instruments",1,3,"left","",NA,0,0,1,1,NA,NA,NA,NA,NA,NA,NA,NA,NA,NA,NA,NA,NA,NA,NA,NA,NA,NA,NA,NA,NA,NA,NA,NA
"30","stim/objects/HouseObjects/rug2.png",139,28,139,0.3,"stim/44.jpeg",4,4,2,NA,"HouseObjects",2,1,"right","",NA,0,0,1,1,NA,NA,NA,NA,NA,NA,NA,NA,NA,NA,NA,NA,NA,NA,NA,NA,NA,NA,NA,NA,NA,NA,NA,NA
"49","stim/objects/HouseObjects/saw.png",140,28,140,0.5,"stim/22.jpeg",2,2,1,NA,"HouseObjects",2,3,"right","",NA,0,0,1,1,NA,NA,NA,NA,NA,NA,NA,NA,NA,NA,NA,NA,NA,NA,NA,NA,NA,NA,NA,NA,NA,NA,NA,NA
"31","stim/objects/HouseObjects/rug2.png",141,28,141,0.3,"stim/44.jpeg",4,4,2,NA,"HouseObjects",2,2,"right","",NA,0,0,1,1,NA,NA,NA,NA,NA,NA,NA,NA,NA,NA,NA,NA,NA,NA,NA,NA,NA,NA,NA,NA,NA,NA,NA,NA
"148","stim/objects/Instruments/record_player.png",142,28,142,0.5,"stim/14.jpeg",1,4,1,NA,"Instruments",1,4,"left","",NA,0,0,1,1,NA,NA,NA,NA,NA,NA,NA,NA,NA,NA,NA,NA,NA,NA,NA,NA,NA,NA,NA,NA,NA,NA,NA,NA
"202","stim/objects/Instruments/triangle2.png",143,28,143,0.9,"stim/61.jpeg",6,1,3,NA,"Instruments",1,4,"left","",NA,0,0,1,1,NA,NA,NA,NA,NA,NA,NA,NA,NA,NA,NA,NA,NA,NA,NA,NA,NA,NA,NA,NA,NA,NA,NA,NA
"180","stim/objects/Instruments/speaker2.png",144,28,144,0.1,"stim/52.jpeg",5,2,3,NA,"Instruments",1,3,"left","",NA,0,0,1,1,NA,NA,NA,NA,NA,NA,NA,NA,NA,NA,NA,NA,NA,NA,NA,NA,NA,NA,NA,NA,NA,NA,NA,NA
"120","stim/objects/HouseObjects/thread2.png",145,28,145,0.1,"stim/64.jpeg",6,4,3,NA,"HouseObjects",2,4,"right","",NA,0,0,1,1,NA,NA,NA,NA,NA,NA,NA,NA,NA,NA,NA,NA,NA,NA,NA,NA,NA,NA,NA,NA,NA,NA,NA,NA
"179","stim/objects/Instruments/speaker.png",146,28,146,0.5,"stim/22.jpeg",2,2,1,NA,"Instruments",1,3,"left","",NA,0,0,1,1,NA,NA,NA,NA,NA,NA,NA,NA,NA,NA,NA,NA,NA,NA,NA,NA,NA,NA,NA,NA,NA,NA,NA,NA
"15","stim/objects/HouseObjects/remote2.png",147,28,147,0.3,"stim/42.jpeg",4,2,2,NA,"HouseObjects",2,3,"right","",NA,0,0,1,1,NA,NA,NA,NA,NA,NA,NA,NA,NA,NA,NA,NA,NA,NA,NA,NA,NA,NA,NA,NA,NA,NA,NA,NA
"19","stim/objects/HouseObjects/rubbergloves.png",148,28,148,0.5,"stim/13.jpeg",1,3,1,NA,"HouseObjects",2,4,"right","",NA,0,0,1,1,NA,NA,NA,NA,NA,NA,NA,NA,NA,NA,NA,NA,NA,NA,NA,NA,NA,NA,NA,NA,NA,NA,NA,NA
"34","stim/objects/HouseObjects/safetypin.png",149,28,149,0.5,"stim/21.jpeg",2,1,1,NA,"HouseObjects",2,3,"right","",NA,0,0,1,1,NA,NA,NA,NA,NA,NA,NA,NA,NA,NA,NA,NA,NA,NA,NA,NA,NA,NA,NA,NA,NA,NA,NA,NA
"124","stim/objects/Instruments/panflute.png",150,28,150,0.5,"stim/11.jpeg",1,1,1,NA,"Instruments",1,4,"left","",NA,0,0,1,1,NA,NA,NA,NA,NA,NA,NA,NA,NA,NA,NA,NA,NA,NA,NA,NA,NA,NA,NA,NA,NA,NA,NA,NA
"131","stim/objects/Instruments/panflute2.png",151,28,151,0.7,"stim/41.jpeg",4,1,2,NA,"Instruments",1,1,"left","",NA,0,0,1,1,NA,NA,NA,NA,NA,NA,NA,NA,NA,NA,NA,NA,NA,NA,NA,NA,NA,NA,NA,NA,NA,NA,NA,NA
"182","stim/objects/Instruments/tambourine.png",152,28,152,0.5,"stim/23.jpeg",2,3,1,NA,"Instruments",1,1,"left","",NA,0,0,1,1,NA,NA,NA,NA,NA,NA,NA,NA,NA,NA,NA,NA,NA,NA,NA,NA,NA,NA,NA,NA,NA,NA,NA,NA
"149","stim/objects/Instruments/record_player.png",153,28,153,0.5,"stim/14.jpeg",1,4,1,NA,"Instruments",1,4,"left","",NA,0,0,1,1,NA,NA,NA,NA,NA,NA,NA,NA,NA,NA,NA,NA,NA,NA,NA,NA,NA,NA,NA,NA,NA,NA,NA,NA
"207","stim/objects/Instruments/trombone.png",154,28,154,0.3,"stim/32.jpeg",3,2,2,NA,"Instruments",1,3,"left","",NA,0,0,1,1,NA,NA,NA,NA,NA,NA,NA,NA,NA,NA,NA,NA,NA,NA,NA,NA,NA,NA,NA,NA,NA,NA,NA,NA
"78","stim/objects/HouseObjects/sponge.png",155,28,155,0.5,"stim/24.jpeg",2,4,1,NA,"HouseObjects",2,2,"right","",NA,0,0,1,1,NA,NA,NA,NA,NA,NA,NA,NA,NA,NA,NA,NA,NA,NA,NA,NA,NA,NA,NA,NA,NA,NA,NA,NA
"44","stim/objects/HouseObjects/safetypin2.png",156,28,156,0.9,"stim/51.jpeg",5,1,3,NA,"HouseObjects",2,2,"right","",NA,0,0,1,1,NA,NA,NA,NA,NA,NA,NA,NA,NA,NA,NA,NA,NA,NA,NA,NA,NA,NA,NA,NA,NA,NA,NA,NA
"20","stim/objects/HouseObjects/rubbergloves.png",157,28,157,0.5,"stim/13.jpeg",1,3,1,NA,"HouseObjects",2,1,"right","",NA,0,0,1,1,NA,NA,NA,NA,NA,NA,NA,NA,NA,NA,NA,NA,NA,NA,NA,NA,NA,NA,NA,NA,NA,NA,NA,NA
"159","stim/objects/Instruments/record.png",158,28,158,0.5,"stim/13.jpeg",1,3,1,NA,"Instruments",1,3,"left","",NA,0,0,1,1,NA,NA,NA,NA,NA,NA,NA,NA,NA,NA,NA,NA,NA,NA,NA,NA,NA,NA,NA,NA,NA,NA,NA,NA
"93","stim/objects/HouseObjects/spraybottle.png",159,28,159,0.7,"stim/31.jpeg",3,1,2,NA,"HouseObjects",2,3,"right","",NA,0,0,1,1,NA,NA,NA,NA,NA,NA,NA,NA,NA,NA,NA,NA,NA,NA,NA,NA,NA,NA,NA,NA,NA,NA,NA,NA
"35","stim/objects/HouseObjects/safetypin.png",160,28,160,0.5,"stim/21.jpeg",2,1,1,NA,"HouseObjects",2,4,"right","",NA,0,0,1,1,NA,NA,NA,NA,NA,NA,NA,NA,NA,NA,NA,NA,NA,NA,NA,NA,NA,NA,NA,NA,NA,NA,NA,NA
"142","stim/objects/Instruments/pipepiano2.png",161,28,161,0.7,"stim/42.jpeg",4,2,2,NA,"Instruments",1,3,"left","",NA,0,0,1,1,NA,NA,NA,NA,NA,NA,NA,NA,NA,NA,NA,NA,NA,NA,NA,NA,NA,NA,NA,NA,NA,NA,NA,NA
"231","stim/objects/Instruments/tuba.png",162,28,162,0.3,"stim/34.jpeg",3,4,2,NA,"Instruments",1,3,"left","",NA,0,0,1,1,NA,NA,NA,NA,NA,NA,NA,NA,NA,NA,NA,NA,NA,NA,NA,NA,NA,NA,NA,NA,NA,NA,NA,NA
"29","stim/objects/HouseObjects/rug.png",163,28,163,0.5,"stim/14.jpeg",1,4,1,NA,"HouseObjects",2,1,"right","",NA,0,0,1,1,NA,NA,NA,NA,NA,NA,NA,NA,NA,NA,NA,NA,NA,NA,NA,NA,NA,NA,NA,NA,NA,NA,NA,NA
"71","stim/objects/HouseObjects/scale2.png",164,28,164,0.9,"stim/53.jpeg",5,3,3,NA,"HouseObjects",2,1,"right","",NA,0,0,1,1,NA,NA,NA,NA,NA,NA,NA,NA,NA,NA,NA,NA,NA,NA,NA,NA,NA,NA,NA,NA,NA,NA,NA,NA
"58","stim/objects/HouseObjects/saw2.png",165,28,165,0.9,"stim/52.jpeg",5,2,3,NA,"HouseObjects",2,3,"right","",NA,0,0,1,1,NA,NA,NA,NA,NA,NA,NA,NA,NA,NA,NA,NA,NA,NA,NA,NA,NA,NA,NA,NA,NA,NA,NA,NA
"79","stim/objects/HouseObjects/sponge.png",166,28,166,0.5,"stim/24.jpeg",2,4,1,NA,"HouseObjects",2,1,"right","",NA,0,0,1,1,NA,NA,NA,NA,NA,NA,NA,NA,NA,NA,NA,NA,NA,NA,NA,NA,NA,NA,NA,NA,NA,NA,NA,NA
"72","stim/objects/HouseObjects/scale2.png",167,28,167,0.9,"stim/53.jpeg",5,3,3,NA,"HouseObjects",2,2,"right","",NA,0,0,1,1,NA,NA,NA,NA,NA,NA,NA,NA,NA,NA,NA,NA,NA,NA,NA,NA,NA,NA,NA,NA,NA,NA,NA,NA
"170","stim/objects/Instruments/saxophone.png",168,28,168,0.5,"stim/21.jpeg",2,1,1,NA,"Instruments",1,4,"left","",NA,0,0,1,1,NA,NA,NA,NA,NA,NA,NA,NA,NA,NA,NA,NA,NA,NA,NA,NA,NA,NA,NA,NA,NA,NA,NA,NA
"115","stim/objects/HouseObjects/thread.png",169,28,169,0.7,"stim/34.jpeg",3,4,2,NA,"HouseObjects",2,3,"right","",NA,0,0,1,1,NA,NA,NA,NA,NA,NA,NA,NA,NA,NA,NA,NA,NA,NA,NA,NA,NA,NA,NA,NA,NA,NA,NA,NA
"203","stim/objects/Instruments/triangle2.png",170,28,170,0.9,"stim/61.jpeg",6,1,3,NA,"Instruments",1,3,"left","",NA,0,0,1,1,NA,NA,NA,NA,NA,NA,NA,NA,NA,NA,NA,NA,NA,NA,NA,NA,NA,NA,NA,NA,NA,NA,NA,NA
"87","stim/objects/HouseObjects/sponge2.png",171,28,171,0.9,"stim/54.jpeg",5,4,3,NA,"HouseObjects",2,1,"right","",NA,0,0,1,1,NA,NA,NA,NA,NA,NA,NA,NA,NA,NA,NA,NA,NA,NA,NA,NA,NA,NA,NA,NA,NA,NA,NA,NA
"213","stim/objects/Instruments/trombone2.png",172,28,172,0.9,"stim/62.jpeg",6,2,3,NA,"Instruments",1,1,"left","",NA,0,0,1,1,NA,NA,NA,NA,NA,NA,NA,NA,NA,NA,NA,NA,NA,NA,NA,NA,NA,NA,NA,NA,NA,NA,NA,NA
"171","stim/objects/Instruments/saxophone.png",173,28,173,0.5,"stim/21.jpeg",2,1,1,NA,"Instruments",1,2,"left","",NA,0,0,1,1,NA,NA,NA,NA,NA,NA,NA,NA,NA,NA,NA,NA,NA,NA,NA,NA,NA,NA,NA,NA,NA,NA,NA,NA
"160","stim/objects/Instruments/record.png",174,28,174,0.5,"stim/13.jpeg",1,3,1,NA,"Instruments",1,1,"left","",NA,0,0,1,1,NA,NA,NA,NA,NA,NA,NA,NA,NA,NA,NA,NA,NA,NA,NA,NA,NA,NA,NA,NA,NA,NA,NA,NA
"172","stim/objects/Instruments/saxophone.png",175,28,175,0.5,"stim/21.jpeg",2,1,1,NA,"Instruments",1,4,"left","right",0.003000259,0,0,1,1,NA,NA,NA,NA,NA,NA,NA,NA,NA,NA,NA,NA,NA,NA,NA,NA,NA,NA,NA,NA,NA,NA,NA,NA
"214","stim/objects/Instruments/trombone2.png",176,28,176,0.9,"stim/62.jpeg",6,2,3,NA,"Instruments",1,1,"left","",NA,0,0,1,1,NA,NA,NA,NA,NA,NA,NA,NA,NA,NA,NA,NA,NA,NA,NA,NA,NA,NA,NA,NA,NA,NA,NA,NA
"225","stim/objects/Instruments/trumpet2.png",177,28,177,0.9,"stim/63.jpeg",6,3,3,NA,"Instruments",1,3,"left","",NA,0,0,1,1,NA,NA,NA,NA,NA,NA,NA,NA,NA,NA,NA,NA,NA,NA,NA,NA,NA,NA,NA,NA,NA,NA,NA,NA
"189","stim/objects/Instruments/timbal.png",178,28,178,0.5,"stim/24.jpeg",2,4,1,NA,"Instruments",1,3,"left","",NA,0,0,1,1,NA,NA,NA,NA,NA,NA,NA,NA,NA,NA,NA,NA,NA,NA,NA,NA,NA,NA,NA,NA,NA,NA,NA,NA
"94","stim/objects/HouseObjects/spraybottle.png",179,28,179,0.7,"stim/31.jpeg",3,1,2,NA,"HouseObjects",2,1,"right","",NA,0,0,1,1,NA,NA,NA,NA,NA,NA,NA,NA,NA,NA,NA,NA,NA,NA,NA,NA,NA,NA,NA,NA,NA,NA,NA,NA
"132","stim/objects/Instruments/panflute2.png",180,28,180,0.7,"stim/41.jpeg",4,1,2,NA,"Instruments",1,2,"left","",NA,0,0,1,1,NA,NA,NA,NA,NA,NA,NA,NA,NA,NA,NA,NA,NA,NA,NA,NA,NA,NA,NA,NA,NA,NA,NA,NA
"183","stim/objects/Instruments/tambourine.png",181,28,181,0.5,"stim/23.jpeg",2,3,1,NA,"Instruments",1,4,"left","",NA,0,0,1,1,NA,NA,NA,NA,NA,NA,NA,NA,NA,NA,NA,NA,NA,NA,NA,NA,NA,NA,NA,NA,NA,NA,NA,NA
"161","stim/objects/Instruments/record.png",182,28,182,0.5,"stim/13.jpeg",1,3,1,NA,"Instruments",1,2,"left","",NA,0,0,1,1,NA,NA,NA,NA,NA,NA,NA,NA,NA,NA,NA,NA,NA,NA,NA,NA,NA,NA,NA,NA,NA,NA,NA,NA
"184","stim/objects/Instruments/tambourine.png",183,28,183,0.5,"stim/23.jpeg",2,3,1,NA,"Instruments",1,3,"left","",NA,0,0,1,1,NA,NA,NA,NA,NA,NA,NA,NA,NA,NA,NA,NA,NA,NA,NA,NA,NA,NA,NA,NA,NA,NA,NA,NA
"153","stim/objects/Instruments/record_player2.png",184,28,184,0.7,"stim/44.jpeg",4,4,2,NA,"Instruments",1,1,"left","",NA,0,0,1,1,NA,NA,NA,NA,NA,NA,NA,NA,NA,NA,NA,NA,NA,NA,NA,NA,NA,NA,NA,NA,NA,NA,NA,NA
"59","stim/objects/HouseObjects/saw2.png",185,28,185,0.9,"stim/52.jpeg",5,2,3,NA,"HouseObjects",2,4,"right","",NA,0,0,1,1,NA,NA,NA,NA,NA,NA,NA,NA,NA,NA,NA,NA,NA,NA,NA,NA,NA,NA,NA,NA,NA,NA,NA,NA
"194","stim/objects/Instruments/triangle.png",186,28,186,0.3,"stim/31.jpeg",3,1,2,NA,"Instruments",1,2,"left","",NA,0,0,1,1,NA,NA,NA,NA,NA,NA,NA,NA,NA,NA,NA,NA,NA,NA,NA,NA,NA,NA,NA,NA,NA,NA,NA,NA
"103","stim/objects/HouseObjects/teapot.png",187,28,187,0.7,"stim/32.jpeg",3,2,2,NA,"HouseObjects",2,4,"right","",NA,0,0,1,1,NA,NA,NA,NA,NA,NA,NA,NA,NA,NA,NA,NA,NA,NA,NA,NA,NA,NA,NA,NA,NA,NA,NA,NA
"36","stim/objects/HouseObjects/safetypin.png",188,28,188,0.5,"stim/21.jpeg",2,1,1,NA,"HouseObjects",2,3,"right","",NA,0,0,1,1,NA,NA,NA,NA,NA,NA,NA,NA,NA,NA,NA,NA,NA,NA,NA,NA,NA,NA,NA,NA,NA,NA,NA,NA
"167","stim/objects/Instruments/record2.png",189,28,189,0.7,"stim/43.jpeg",4,3,2,NA,"Instruments",1,4,"left","",NA,0,0,1,1,NA,NA,NA,NA,NA,NA,NA,NA,NA,NA,NA,NA,NA,NA,NA,NA,NA,NA,NA,NA,NA,NA,NA,NA
"116","stim/objects/HouseObjects/thread.png",190,28,190,0.7,"stim/34.jpeg",3,4,2,NA,"HouseObjects",2,4,"right","",NA,0,0,1,1,NA,NA,NA,NA,NA,NA,NA,NA,NA,NA,NA,NA,NA,NA,NA,NA,NA,NA,NA,NA,NA,NA,NA,NA
"7","stim/objects/HouseObjects/recyclingbin2.png",191,28,191,0.3,"stim/41.jpeg",4,1,2,NA,"HouseObjects",2,4,"right","",NA,0,0,1,1,NA,NA,NA,NA,NA,NA,NA,NA,NA,NA,NA,NA,NA,NA,NA,NA,NA,NA,NA,NA,NA,NA,NA,NA
"64","stim/objects/HouseObjects/scale.png",192,28,192,0.5,"stim/23.jpeg",2,3,1,NA,"HouseObjects",2,4,"right","",NA,0,0,1,1,NA,NA,NA,NA,NA,NA,NA,NA,NA,NA,NA,NA,NA,NA,NA,NA,NA,NA,NA,NA,NA,NA,NA,NA
"5","stim/objects/HouseObjects/recyclingbin.png",193,28,193,0.5,"stim/11.jpeg",1,1,1,NA,"HouseObjects",2,1,"right","",NA,0,0,1,1,NA,NA,NA,NA,NA,NA,NA,NA,NA,NA,NA,NA,NA,NA,NA,NA,NA,NA,NA,NA,NA,NA,NA,NA
"117","stim/objects/HouseObjects/thread.png",194,28,194,0.7,"stim/34.jpeg",3,4,2,NA,"HouseObjects",2,4,"right","",NA,0,0,1,1,NA,NA,NA,NA,NA,NA,NA,NA,NA,NA,NA,NA,NA,NA,NA,NA,NA,NA,NA,NA,NA,NA,NA,NA
"73","stim/objects/HouseObjects/scale2.png",195,28,195,0.9,"stim/53.jpeg",5,3,3,NA,"HouseObjects",2,1,"right","",NA,0,0,1,1,NA,NA,NA,NA,NA,NA,NA,NA,NA,NA,NA,NA,NA,NA,NA,NA,NA,NA,NA,NA,NA,NA,NA,NA
"108","stim/objects/HouseObjects/thermometer.png",196,28,196,0.7,"stim/33.jpeg",3,3,2,NA,"HouseObjects",2,4,"right","",NA,0,0,1,1,NA,NA,NA,NA,NA,NA,NA,NA,NA,NA,NA,NA,NA,NA,NA,NA,NA,NA,NA,NA,NA,NA,NA,NA
"154","stim/objects/Instruments/record_player2.png",197,28,197,0.7,"stim/44.jpeg",4,4,2,NA,"Instruments",1,1,"left","",NA,0,0,1,1,NA,NA,NA,NA,NA,NA,NA,NA,NA,NA,NA,NA,NA,NA,NA,NA,NA,NA,NA,NA,NA,NA,NA,NA
"95","stim/objects/HouseObjects/spraybottle.png",198,28,198,0.7,"stim/31.jpeg",3,1,2,NA,"HouseObjects",2,2,"right","",NA,0,0,1,1,NA,NA,NA,NA,NA,NA,NA,NA,NA,NA,NA,NA,NA,NA,NA,NA,NA,NA,NA,NA,NA,NA,NA,NA
"16","stim/objects/HouseObjects/remote2.png",199,28,199,0.3,"stim/42.jpeg",4,2,2,NA,"HouseObjects",2,2,"right","",NA,0,0,1,1,NA,NA,NA,NA,NA,NA,NA,NA,NA,NA,NA,NA,NA,NA,NA,NA,NA,NA,NA,NA,NA,NA,NA,NA
"118","stim/objects/HouseObjects/thread.png",200,28,200,0.7,"stim/34.jpeg",3,4,2,NA,"HouseObjects",2,2,"right","",NA,0,0,1,1,NA,NA,NA,NA,NA,NA,NA,NA,NA,NA,NA,NA,NA,NA,NA,NA,NA,NA,NA,NA,NA,NA,NA,NA
"190","stim/objects/Instruments/timbal.png",201,28,201,0.5,"stim/24.jpeg",2,4,1,NA,"Instruments",1,3,"left","",NA,0,0,1,1,NA,NA,NA,NA,NA,NA,NA,NA,NA,NA,NA,NA,NA,NA,NA,NA,NA,NA,NA,NA,NA,NA,NA,NA
"226","stim/objects/Instruments/trumpet2.png",202,28,202,0.9,"stim/63.jpeg",6,3,3,NA,"Instruments",1,4,"left","",NA,0,0,1,1,NA,NA,NA,NA,NA,NA,NA,NA,NA,NA,NA,NA,NA,NA,NA,NA,NA,NA,NA,NA,NA,NA,NA,NA
"195","stim/objects/Instruments/triangle.png",203,28,203,0.3,"stim/31.jpeg",3,1,2,NA,"Instruments",1,2,"left","",NA,0,0,1,1,NA,NA,NA,NA,NA,NA,NA,NA,NA,NA,NA,NA,NA,NA,NA,NA,NA,NA,NA,NA,NA,NA,NA,NA
"50","stim/objects/HouseObjects/saw.png",204,28,204,0.5,"stim/22.jpeg",2,2,1,NA,"HouseObjects",2,2,"right","",NA,0,0,1,1,NA,NA,NA,NA,NA,NA,NA,NA,NA,NA,NA,NA,NA,NA,NA,NA,NA,NA,NA,NA,NA,NA,NA,NA
"219","stim/objects/Instruments/trumpet.png",205,28,205,0.3,"stim/33.jpeg",3,3,2,NA,"Instruments",1,1,"left","",NA,0,0,1,1,NA,NA,NA,NA,NA,NA,NA,NA,NA,NA,NA,NA,NA,NA,NA,NA,NA,NA,NA,NA,NA,NA,NA,NA
"173","stim/objects/Instruments/saxophone.png",206,28,206,0.5,"stim/21.jpeg",2,1,1,NA,"Instruments",1,3,"left","",NA,0,0,1,1,NA,NA,NA,NA,NA,NA,NA,NA,NA,NA,NA,NA,NA,NA,NA,NA,NA,NA,NA,NA,NA,NA,NA,NA
"119","stim/objects/HouseObjects/thread.png",207,28,207,0.7,"stim/34.jpeg",3,4,2,NA,"HouseObjects",2,4,"right","",NA,0,0,1,1,NA,NA,NA,NA,NA,NA,NA,NA,NA,NA,NA,NA,NA,NA,NA,NA,NA,NA,NA,NA,NA,NA,NA,NA
"215","stim/objects/Instruments/trombone2.png",208,28,208,0.9,"stim/62.jpeg",6,2,3,NA,"Instruments",1,1,"left","",NA,0,0,1,1,NA,NA,NA,NA,NA,NA,NA,NA,NA,NA,NA,NA,NA,NA,NA,NA,NA,NA,NA,NA,NA,NA,NA,NA
"185","stim/objects/Instruments/tambourine.png",209,28,209,0.5,"stim/23.jpeg",2,3,1,NA,"Instruments",1,4,"left","",NA,0,0,1,1,NA,NA,NA,NA,NA,NA,NA,NA,NA,NA,NA,NA,NA,NA,NA,NA,NA,NA,NA,NA,NA,NA,NA,NA
"12","stim/objects/HouseObjects/remote.png",210,28,210,0.5,"stim/12.jpeg",1,2,1,NA,"HouseObjects",2,3,"right","",NA,0,0,1,1,NA,NA,NA,NA,NA,NA,NA,NA,NA,NA,NA,NA,NA,NA,NA,NA,NA,NA,NA,NA,NA,NA,NA,NA
"45","stim/objects/HouseObjects/safetypin2.png",211,28,211,0.9,"stim/51.jpeg",5,1,3,NA,"HouseObjects",2,1,"right","",NA,0,0,1,1,NA,NA,NA,NA,NA,NA,NA,NA,NA,NA,NA,NA,NA,NA,NA,NA,NA,NA,NA,NA,NA,NA,NA,NA
"143","stim/objects/Instruments/pipepiano2.png",212,28,212,0.7,"stim/42.jpeg",4,2,2,NA,"Instruments",1,3,"left","",NA,0,0,1,1,NA,NA,NA,NA,NA,NA,NA,NA,NA,NA,NA,NA,NA,NA,NA,NA,NA,NA,NA,NA,NA,NA,NA,NA
"191","stim/objects/Instruments/timbal.png",213,28,213,0.5,"stim/24.jpeg",2,4,1,NA,"Instruments",1,1,"left","",NA,0,0,1,1,NA,NA,NA,NA,NA,NA,NA,NA,NA,NA,NA,NA,NA,NA,NA,NA,NA,NA,NA,NA,NA,NA,NA,NA
"144","stim/objects/Instruments/pipepiano2.png",214,28,214,0.7,"stim/42.jpeg",4,2,2,NA,"Instruments",1,2,"left","",NA,0,0,1,1,NA,NA,NA,NA,NA,NA,NA,NA,NA,NA,NA,NA,NA,NA,NA,NA,NA,NA,NA,NA,NA,NA,NA,NA
"60","stim/objects/HouseObjects/saw2.png",215,28,215,0.9,"stim/52.jpeg",5,2,3,NA,"HouseObjects",2,3,"right","",NA,0,0,1,1,NA,NA,NA,NA,NA,NA,NA,NA,NA,NA,NA,NA,NA,NA,NA,NA,NA,NA,NA,NA,NA,NA,NA,NA
"88","stim/objects/HouseObjects/sponge2.png",216,28,216,0.9,"stim/54.jpeg",5,4,3,NA,"HouseObjects",2,4,"right","",NA,0,0,1,1,NA,NA,NA,NA,NA,NA,NA,NA,NA,NA,NA,NA,NA,NA,NA,NA,NA,NA,NA,NA,NA,NA,NA,NA
"46","stim/objects/HouseObjects/safetypin2.png",217,28,217,0.9,"stim/51.jpeg",5,1,3,NA,"HouseObjects",2,4,"right","",NA,0,0,1,1,NA,NA,NA,NA,NA,NA,NA,NA,NA,NA,NA,NA,NA,NA,NA,NA,NA,NA,NA,NA,NA,NA,NA,NA
"21","stim/objects/HouseObjects/rubbergloves.png",218,28,218,0.5,"stim/13.jpeg",1,3,1,NA,"HouseObjects",2,3,"right","",NA,0,0,1,1,NA,NA,NA,NA,NA,NA,NA,NA,NA,NA,NA,NA,NA,NA,NA,NA,NA,NA,NA,NA,NA,NA,NA,NA
"109","stim/objects/HouseObjects/thermometer.png",219,28,219,0.7,"stim/33.jpeg",3,3,2,NA,"HouseObjects",2,2,"right","",NA,0,0,1,1,NA,NA,NA,NA,NA,NA,NA,NA,NA,NA,NA,NA,NA,NA,NA,NA,NA,NA,NA,NA,NA,NA,NA,NA
"32","stim/objects/HouseObjects/rug2.png",220,28,220,0.3,"stim/44.jpeg",4,4,2,NA,"HouseObjects",2,4,"right","",NA,0,0,1,1,NA,NA,NA,NA,NA,NA,NA,NA,NA,NA,NA,NA,NA,NA,NA,NA,NA,NA,NA,NA,NA,NA,NA,NA
"204","stim/objects/Instruments/triangle2.png",221,28,221,0.9,"stim/61.jpeg",6,1,3,NA,"Instruments",1,2,"left","",NA,0,0,1,1,NA,NA,NA,NA,NA,NA,NA,NA,NA,NA,NA,NA,NA,NA,NA,NA,NA,NA,NA,NA,NA,NA,NA,NA
"238","stim/objects/Instruments/tuba2.png",222,28,222,0.9,"stim/64.jpeg",6,4,3,NA,"Instruments",1,2,"left","",NA,0,0,1,1,NA,NA,NA,NA,NA,NA,NA,NA,NA,NA,NA,NA,NA,NA,NA,NA,NA,NA,NA,NA,NA,NA,NA,NA
"125","stim/objects/Instruments/panflute.png",223,28,223,0.5,"stim/11.jpeg",1,1,1,NA,"Instruments",1,2,"left","",NA,0,0,1,1,NA,NA,NA,NA,NA,NA,NA,NA,NA,NA,NA,NA,NA,NA,NA,NA,NA,NA,NA,NA,NA,NA,NA,NA
"155","stim/objects/Instruments/record_player2.png",224,28,224,0.7,"stim/44.jpeg",4,4,2,NA,"Instruments",1,2,"left","",NA,0,0,1,1,NA,NA,NA,NA,NA,NA,NA,NA,NA,NA,NA,NA,NA,NA,NA,NA,NA,NA,NA,NA,NA,NA,NA,NA
"65","stim/objects/HouseObjects/scale.png",225,28,225,0.5,"stim/23.jpeg",2,3,1,NA,"HouseObjects",2,4,"right","",NA,0,0,1,1,NA,NA,NA,NA,NA,NA,NA,NA,NA,NA,NA,NA,NA,NA,NA,NA,NA,NA,NA,NA,NA,NA,NA,NA
"186","stim/objects/Instruments/tambourine2.png",226,28,226,0.1,"stim/53.jpeg",5,3,3,NA,"Instruments",1,4,"left","",NA,0,0,1,1,NA,NA,NA,NA,NA,NA,NA,NA,NA,NA,NA,NA,NA,NA,NA,NA,NA,NA,NA,NA,NA,NA,NA,NA
"216","stim/objects/Instruments/trombone2.png",227,28,227,0.9,"stim/62.jpeg",6,2,3,NA,"Instruments",1,1,"left","",NA,0,0,1,1,NA,NA,NA,NA,NA,NA,NA,NA,NA,NA,NA,NA,NA,NA,NA,NA,NA,NA,NA,NA,NA,NA,NA,NA
"74","stim/objects/HouseObjects/scale2.png",228,28,228,0.9,"stim/53.jpeg",5,3,3,NA,"HouseObjects",2,2,"right","",NA,0,0,1,1,NA,NA,NA,NA,NA,NA,NA,NA,NA,NA,NA,NA,NA,NA,NA,NA,NA,NA,NA,NA,NA,NA,NA,NA
"239","stim/objects/Instruments/tuba2.png",229,28,229,0.9,"stim/64.jpeg",6,4,3,NA,"Instruments",1,3,"left","",NA,0,0,1,1,NA,NA,NA,NA,NA,NA,NA,NA,NA,NA,NA,NA,NA,NA,NA,NA,NA,NA,NA,NA,NA,NA,NA,NA
"227","stim/objects/Instruments/trumpet2.png",230,28,230,0.9,"stim/63.jpeg",6,3,3,NA,"Instruments",1,3,"left","",NA,0,0,1,1,NA,NA,NA,NA,NA,NA,NA,NA,NA,NA,NA,NA,NA,NA,NA,NA,NA,NA,NA,NA,NA,NA,NA,NA
"168","stim/objects/Instruments/record2.png",231,28,231,0.7,"stim/43.jpeg",4,3,2,NA,"Instruments",1,1,"left","",NA,0,0,1,1,NA,NA,NA,NA,NA,NA,NA,NA,NA,NA,NA,NA,NA,NA,NA,NA,NA,NA,NA,NA,NA,NA,NA,NA
"8","stim/objects/HouseObjects/recyclingbin2.png",232,28,232,0.3,"stim/41.jpeg",4,1,2,NA,"HouseObjects",2,4,"right","",NA,0,0,1,1,NA,NA,NA,NA,NA,NA,NA,NA,NA,NA,NA,NA,NA,NA,NA,NA,NA,NA,NA,NA,NA,NA,NA,NA
"156","stim/objects/Instruments/record_player2.png",233,28,233,0.7,"stim/44.jpeg",4,4,2,NA,"Instruments",1,3,"left","",NA,0,0,1,1,NA,NA,NA,NA,NA,NA,NA,NA,NA,NA,NA,NA,NA,NA,NA,NA,NA,NA,NA,NA,NA,NA,NA,NA
"51","stim/objects/HouseObjects/saw.png",234,28,234,0.5,"stim/22.jpeg",2,2,1,NA,"HouseObjects",2,1,"right","",NA,0,0,1,1,NA,NA,NA,NA,NA,NA,NA,NA,NA,NA,NA,NA,NA,NA,NA,NA,NA,NA,NA,NA,NA,NA,NA,NA
"240","stim/objects/Instruments/tuba2.png",235,28,235,0.9,"stim/64.jpeg",6,4,3,NA,"Instruments",1,3,"left","",NA,0,0,1,1,NA,NA,NA,NA,NA,NA,NA,NA,NA,NA,NA,NA,NA,NA,NA,NA,NA,NA,NA,NA,NA,NA,NA,NA
"13","stim/objects/HouseObjects/remote.png",236,28,236,0.5,"stim/12.jpeg",1,2,1,NA,"HouseObjects",2,2,"right","",NA,0,0,1,1,NA,NA,NA,NA,NA,NA,NA,NA,NA,NA,NA,NA,NA,NA,NA,NA,NA,NA,NA,NA,NA,NA,NA,NA
"228","stim/objects/Instruments/trumpet2.png",237,28,237,0.9,"stim/63.jpeg",6,3,3,NA,"Instruments",1,3,"left","",NA,0,0,1,1,NA,NA,NA,NA,NA,NA,NA,NA,NA,NA,NA,NA,NA,NA,NA,NA,NA,NA,NA,NA,NA,NA,NA,NA
"37","stim/objects/HouseObjects/safetypin.png",238,28,238,0.5,"stim/21.jpeg",2,1,1,NA,"HouseObjects",2,3,"right","",NA,0,0,1,1,NA,NA,NA,NA,NA,NA,NA,NA,NA,NA,NA,NA,NA,NA,NA,NA,NA,NA,NA,NA,NA,NA,NA,NA
"110","stim/objects/HouseObjects/thermometer.png",239,28,239,0.7,"stim/33.jpeg",3,3,2,NA,"HouseObjects",2,4,"right","",NA,0,0,1,1,NA,NA,NA,NA,NA,NA,NA,NA,NA,NA,NA,NA,NA,NA,NA,NA,NA,NA,NA,NA,NA,NA,NA,NA
"111","stim/objects/HouseObjects/thermometer.png",240,28,240,0.7,"stim/33.jpeg",3,3,2,NA,"HouseObjects",2,1,"right","",NA,0,0,1,1,NA,NA,NA,NA,NA,NA,NA,NA,NA,NA,NA,NA,NA,NA,NA,NA,NA,NA,NA,NA,NA,NA,NA,NA
"255","stim/objects/HouseObjects/bleachbottle4.png",248,28,241,0.7,"stim/33.jpeg",3,3,2,1,"HouseObjects",2,2,"right","",NA,0,0,1,0,130,28,1,0.7,2,"stim/33.jpeg",3,3,"stim/33.jpeg",2,"left",1.18200016,4,3,0.938999891,2,1.895999908,130,1,1,1,1,1,1
"542","stim/objects/Instruments/guitarcase4.png",249,28,242,0.1,"stim/52.jpeg",5,2,3,1,"Instruments",1,2,"left","left",0.701000214,1,1,1,0,42,28,1,0.1,1,"stim/52.jpeg",5,2,"stim/52.jpeg",2,"right",1.003999949,3,1,0.921999931,3,2.234000206,42,0,0,NA,0,NA,1
"433","stim/objects/Instruments/cornet3.png",250,28,243,0.5,"stim/23.jpeg",2,3,1,2,"Instruments",1,3,"left","left",0.458000183,1,1,1,0,NA,NA,NA,NA,NA,NA,NA,NA,NA,NA,NA,NA,NA,NA,NA,NA,NA,NA,NA,NA,NA,NA,NA,NA
"525","stim/objects/Instruments/grandpiano3.png",251,28,244,0.9,"stim/62.jpeg",6,2,3,2,"Instruments",1,2,"left","left",0.542999983,1,1,1,0,NA,NA,NA,NA,NA,NA,NA,NA,NA,NA,NA,NA,NA,NA,NA,NA,NA,NA,NA,NA,NA,NA,NA,NA
"290","stim/objects/HouseObjects/dishsoap4.png",252,28,245,0.3,"stim/43.jpeg",4,3,2,1,"HouseObjects",2,1,"right","left",0.518000364,0,0,1,0,101,28,1,0.3,2,"stim/43.jpeg",4,3,"stim/43.jpeg",1,"right",1.239000082,4,2,1.125000238,1,0.878000021,101,0,0,NA,1,NA,1
"394","stim/objects/HouseObjects/match3.png",253,28,246,0.5,"stim/24.jpeg",2,4,1,1,"HouseObjects",2,3,"right","left",0.445000172,0,0,1,0,58,28,1,0.5,2,"stim/24.jpeg",2,4,"stim/24.jpeg",3,"left",0.752000093,4,3,2.251000166,2,2.06400013,58,1,0,0,0,0,1
"275","stim/objects/HouseObjects/clothespin3.png",254,28,247,0.7,"stim/31.jpeg",3,1,2,2,"HouseObjects",2,1,"right","left",0.462000132,0,0,1,0,NA,NA,NA,NA,NA,NA,NA,NA,NA,NA,NA,NA,NA,NA,NA,NA,NA,NA,NA,NA,NA,NA,NA,NA
"434","stim/objects/Instruments/cornet3.png",255,28,248,0.5,"stim/24.jpeg",2,4,1,2,"Instruments",1,3,"left","",NA,0,0,1,0,NA,NA,NA,NA,NA,NA,NA,NA,NA,NA,NA,NA,NA,NA,NA,NA,NA,NA,NA,NA,NA,NA,NA,NA
"308","stim/objects/HouseObjects/dustpan3.png",256,28,249,0.9,"stim/52.jpeg",5,2,3,2,"HouseObjects",2,4,"right","left",0.481000185,0,0,1,0,NA,NA,NA,NA,NA,NA,NA,NA,NA,NA,NA,NA,NA,NA,NA,NA,NA,NA,NA,NA,NA,NA,NA,NA
"286","stim/objects/HouseObjects/cushion4.png",257,28,250,0.3,"stim/42.jpeg",4,2,2,1,"HouseObjects",2,2,"right","left",0.54700017,0,0,1,0,115,28,1,0.3,2,"stim/42.jpeg",4,2,"stim/42.jpeg",2,"right",0.802000046,3,1,1.028000116,1,0.900000095,115,0,0,NA,0,NA,1
"359","stim/objects/HouseObjects/glass3.png",258,28,251,0.9,"stim/54.jpeg",5,4,3,2,"HouseObjects",2,1,"right","left",0.482000113,0,0,1,0,NA,NA,NA,NA,NA,NA,NA,NA,NA,NA,NA,NA,NA,NA,NA,NA,NA,NA,NA,NA,NA,NA,NA,NA
"435","stim/objects/Instruments/cornet4.png",259,28,252,0.7,"stim/44.jpeg",4,4,2,1,"Instruments",1,4,"left","",NA,0,0,1,0,180,28,1,0.7,1,"stim/44.jpeg",4,4,"stim/44.jpeg",4,"right",0.910000086,3,3,0.881000042,1,0.781000137,180,0,0,NA,0,NA,1
"558","stim/objects/Instruments/metronome4.png",260,28,253,0.9,"stim/64.jpeg",6,4,3,1,"Instruments",1,2,"left","left",0.539000034,1,1,1,0,40,28,1,0.9,1,"stim/64.jpeg",6,4,"stim/64.jpeg",2,"left",1.09100008,3,3,1.326000214,3,1.520999908,40,1,0,0,0,0,1
"391","stim/objects/HouseObjects/knife4.png",261,28,254,0.1,"stim/61.jpeg",6,1,3,1,"HouseObjects",2,3,"right","right",0.383000135,1,1,1,0,174,28,1,0.1,2,"stim/61.jpeg",6,1,"stim/61.jpeg",3,"right",1.011000156,3,2,0.736999989,1,0.810000181,174,0,0,NA,0,NA,1
"244","stim/objects/HouseObjects/ballofstring3.png",262,28,255,0.5,"stim/11.jpeg",1,1,1,2,"HouseObjects",2,2,"right","",NA,0,0,1,0,NA,NA,NA,NA,NA,NA,NA,NA,NA,NA,NA,NA,NA,NA,NA,NA,NA,NA,NA,NA,NA,NA,NA,NA
"549","stim/objects/Instruments/keyboard3.png",263,28,256,0.5,"stim/13.jpeg",1,3,1,1,"Instruments",1,2,"left","",NA,0,0,1,0,32,28,1,0.5,1,"stim/13.jpeg",1,3,"stim/13.jpeg",2,"left",1.373000145,3,2,0.834000111,2,1.196000099,32,1,0,0,1,1,1
"415","stim/objects/Instruments/banjo3.png",264,28,257,0.5,"stim/11.jpeg",1,1,1,2,"Instruments",1,2,"left","",NA,0,0,1,0,NA,NA,NA,NA,NA,NA,NA,NA,NA,NA,NA,NA,NA,NA,NA,NA,NA,NA,NA,NA,NA,NA,NA,NA
"527","stim/objects/Instruments/grandpiano3.png",265,28,258,0.9,"stim/64.jpeg",6,4,3,2,"Instruments",1,3,"left","",NA,0,0,1,0,NA,NA,NA,NA,NA,NA,NA,NA,NA,NA,NA,NA,NA,NA,NA,NA,NA,NA,NA,NA,NA,NA,NA,NA
"562","stim/objects/Instruments/musicstand4.png",266,28,259,0.9,"stim/62.jpeg",6,2,3,1,"Instruments",1,2,"left","",NA,0,0,1,0,65,28,1,0.9,1,"stim/62.jpeg",6,2,"stim/62.jpeg",2,"left",0.971000195,4,3,1.782000065,2,2.590000153,65,1,0,0,1,1,1
"258","stim/objects/HouseObjects/blender4.png",267,28,260,0.3,"stim/42.jpeg",4,2,2,1,"HouseObjects",2,2,"right","",NA,0,0,1,0,193,28,1,0.3,2,"stim/42.jpeg",4,2,"stim/42.jpeg",2,"left",1.235000134,3,3,1.042999983,2,1.134000063,193,1,0,0,1,1,1
"246","stim/objects/HouseObjects/ballofstring4.png",268,28,261,0.7,"stim/34.jpeg",3,4,2,1,"HouseObjects",2,4,"right","",NA,0,0,1,0,100,28,1,0.7,2,"stim/34.jpeg",3,4,"stim/34.jpeg",4,"left",1.423000097,4,3,1.099000216,4,0.973000288,100,1,0,0,1,1,1
"460","stim/objects/Instruments/flute3.png",269,28,262,0.9,"stim/64.jpeg",6,4,3,2,"Instruments",1,4,"left","",NA,0,0,1,0,NA,NA,NA,NA,NA,NA,NA,NA,NA,NA,NA,NA,NA,NA,NA,NA,NA,NA,NA,NA,NA,NA,NA,NA
"528","stim/objects/Instruments/grandpiano3.png",270,28,263,0.9,"stim/62.jpeg",6,2,3,2,"Instruments",1,4,"left","",NA,0,0,1,0,NA,NA,NA,NA,NA,NA,NA,NA,NA,NA,NA,NA,NA,NA,NA,NA,NA,NA,NA,NA,NA,NA,NA,NA
"342","stim/objects/HouseObjects/garbagebin3.png",271,28,264,0.9,"stim/52.jpeg",5,2,3,2,"HouseObjects",2,2,"right","",NA,0,0,1,0,NA,NA,NA,NA,NA,NA,NA,NA,NA,NA,NA,NA,NA,NA,NA,NA,NA,NA,NA,NA,NA,NA,NA,NA
"395","stim/objects/HouseObjects/match4.png",272,28,265,0.1,"stim/63.jpeg",6,3,3,1,"HouseObjects",2,2,"right","",NA,0,0,1,0,151,28,1,0.1,2,"stim/63.jpeg",6,3,"stim/63.jpeg",2,"right",0.911000252,3,4,1.04700017,2,1.188999891,151,0,0,NA,1,NA,1
"362","stim/objects/HouseObjects/glass3.png",273,28,266,0.9,"stim/54.jpeg",5,4,3,2,"HouseObjects",2,1,"right","",NA,0,0,1,0,NA,NA,NA,NA,NA,NA,NA,NA,NA,NA,NA,NA,NA,NA,NA,NA,NA,NA,NA,NA,NA,NA,NA,NA
"287","stim/objects/HouseObjects/dishsoap3.png",274,28,267,0.7,"stim/31.jpeg",3,1,2,2,"HouseObjects",2,1,"right","",NA,0,0,1,0,NA,NA,NA,NA,NA,NA,NA,NA,NA,NA,NA,NA,NA,NA,NA,NA,NA,NA,NA,NA,NA,NA,NA,NA
"309","stim/objects/HouseObjects/dustpan3.png",275,28,268,0.9,"stim/52.jpeg",5,2,3,2,"HouseObjects",2,1,"right","",NA,0,0,1,0,NA,NA,NA,NA,NA,NA,NA,NA,NA,NA,NA,NA,NA,NA,NA,NA,NA,NA,NA,NA,NA,NA,NA,NA
"430","stim/objects/Instruments/clarinet3.png",276,28,269,0.5,"stim/22.jpeg",2,2,1,2,"Instruments",1,1,"left","",NA,0,0,1,0,NA,NA,NA,NA,NA,NA,NA,NA,NA,NA,NA,NA,NA,NA,NA,NA,NA,NA,NA,NA,NA,NA,NA,NA
"560","stim/objects/Instruments/musicsheet4.png",277,28,270,0.9,"stim/61.jpeg",6,1,3,1,"Instruments",1,1,"left","",NA,0,0,1,0,118,28,1,0.9,1,"stim/61.jpeg",6,1,"stim/61.jpeg",1,"right",0.962000132,1,1,0.948000193,1,1.029000044,118,0,1,NA,1,NA,1
"324","stim/objects/HouseObjects/dustpan4.png",278,28,271,0.9,"stim/54.jpeg",5,4,3,1,"HouseObjects",2,2,"right","",NA,0,0,1,0,43,28,1,0.9,2,"stim/54.jpeg",5,4,"stim/54.jpeg",2,"left",1.115000248,4,4,1.160000086,1,1.164000273,43,1,1,1,0,0,1
"259","stim/objects/HouseObjects/bottle3.png",279,28,272,0.5,"stim/23.jpeg",2,3,1,2,"HouseObjects",2,3,"right","",NA,0,0,1,0,NA,NA,NA,NA,NA,NA,NA,NA,NA,NA,NA,NA,NA,NA,NA,NA,NA,NA,NA,NA,NA,NA,NA,NA
"343","stim/objects/HouseObjects/garbagebin3.png",280,28,273,0.9,"stim/54.jpeg",5,4,3,2,"HouseObjects",2,3,"right","",NA,0,0,1,0,NA,NA,NA,NA,NA,NA,NA,NA,NA,NA,NA,NA,NA,NA,NA,NA,NA,NA,NA,NA,NA,NA,NA,NA
"382","stim/objects/HouseObjects/handvacuum3.png",281,28,274,0.5,"stim/11.jpeg",1,1,1,1,"HouseObjects",2,4,"right","",NA,0,0,1,0,147,28,1,0.5,1,"stim/11.jpeg",1,1,"stim/11.jpeg",4,"right",0.969000101,3,1,0.70600009,2,0.804000139,147,0,1,NA,0,NA,1
"363","stim/objects/HouseObjects/glass3.png",282,28,275,0.9,"stim/51.jpeg",5,1,3,2,"HouseObjects",2,3,"right","",NA,0,0,1,0,NA,NA,NA,NA,NA,NA,NA,NA,NA,NA,NA,NA,NA,NA,NA,NA,NA,NA,NA,NA,NA,NA,NA,NA
"408","stim/objects/Instruments/accordion4.png",283,28,276,0.3,"stim/32.jpeg",3,2,2,1,"Instruments",1,4,"left","",NA,0,0,1,0,198,28,1,0.3,1,"stim/32.jpeg",3,2,"stim/32.jpeg",4,"left",1.10800004,4,3,0.670000076,3,2.098999977,198,1,0,0,0,0,1
"421","stim/objects/Instruments/bassguitar3.png",284,28,277,0.5,"stim/23.jpeg",2,3,1,2,"Instruments",1,4,"left","",NA,0,0,1,0,NA,NA,NA,NA,NA,NA,NA,NA,NA,NA,NA,NA,NA,NA,NA,NA,NA,NA,NA,NA,NA,NA,NA,NA
"541","stim/objects/Instruments/guitarcase3.png",285,28,278,0.5,"stim/13.jpeg",1,3,1,1,"Instruments",1,1,"left","",NA,0,0,1,0,22,28,1,0.5,1,"stim/13.jpeg",1,3,"stim/13.jpeg",1,"right",0.746999979,2,4,1.296999931,1,1.532999992,22,0,0,NA,1,NA,1
"455","stim/objects/Instruments/electricguitar4.png",286,28,279,0.7,"stim/41.jpeg",4,1,2,1,"Instruments",1,3,"left","",NA,0,0,1,0,99,28,1,0.7,1,"stim/41.jpeg",4,1,"stim/41.jpeg",3,"right",1.282999992,3,3,1.019000053,1,1.192000151,99,0,0,NA,0,NA,1
"311","stim/objects/HouseObjects/dustpan3.png",287,28,280,0.9,"stim/52.jpeg",5,2,3,2,"HouseObjects",2,3,"right","",NA,0,0,1,0,NA,NA,NA,NA,NA,NA,NA,NA,NA,NA,NA,NA,NA,NA,NA,NA,NA,NA,NA,NA,NA,NA,NA,NA
"267","stim/objects/HouseObjects/bucket4.png",288,28,281,0.3,"stim/41.jpeg",4,1,2,1,"HouseObjects",2,1,"right","",NA,0,0,1,0,37,28,1,0.3,2,"stim/41.jpeg",4,1,"stim/41.jpeg",1,"left",1.687000036,4,3,0.857000113,2,1.539999962,37,1,0,0,0,0,1
"292","stim/objects/HouseObjects/doormat3.png",289,28,282,0.9,"stim/54.jpeg",5,4,3,2,"HouseObjects",2,2,"right","",NA,0,0,1,0,NA,NA,NA,NA,NA,NA,NA,NA,NA,NA,NA,NA,NA,NA,NA,NA,NA,NA,NA,NA,NA,NA,NA,NA
"252","stim/objects/HouseObjects/basket4.png",290,28,283,0.7,"stim/32.jpeg",3,2,2,1,"HouseObjects",2,2,"right","",NA,0,0,1,0,124,28,1,0.7,2,"stim/32.jpeg",3,2,"stim/32.jpeg",2,"left",1.058000088,4,3,0.765000105,2,1.463000059,124,1,0,0,1,1,1
"327","stim/objects/HouseObjects/flyswatter3.png",291,28,284,0.9,"stim/52.jpeg",5,2,3,2,"HouseObjects",2,2,"right","right",0.627000332,1,1,1,0,NA,NA,NA,NA,NA,NA,NA,NA,NA,NA,NA,NA,NA,NA,NA,NA,NA,NA,NA,NA,NA,NA,NA,NA
"291","stim/objects/HouseObjects/doormat3.png",292,28,285,0.9,"stim/51.jpeg",5,1,3,2,"HouseObjects",2,3,"right","",NA,0,0,1,0,NA,NA,NA,NA,NA,NA,NA,NA,NA,NA,NA,NA,NA,NA,NA,NA,NA,NA,NA,NA,NA,NA,NA,NA
"411","stim/objects/Instruments/acousticguitar4.png",293,28,286,0.3,"stim/33.jpeg",3,3,2,1,"Instruments",1,3,"left","",NA,0,0,1,0,137,28,1,0.3,1,"stim/33.jpeg",3,3,"stim/33.jpeg",3,"right",0.879000187,2,2,1.312000036,3,0.796000004,137,0,0,NA,1,NA,1
"312","stim/objects/HouseObjects/dustpan3.png",294,28,287,0.9,"stim/51.jpeg",5,1,3,2,"HouseObjects",2,4,"right","",NA,0,0,1,0,NA,NA,NA,NA,NA,NA,NA,NA,NA,NA,NA,NA,NA,NA,NA,NA,NA,NA,NA,NA,NA,NA,NA,NA
"294","stim/objects/HouseObjects/doormat3.png",295,28,288,0.9,"stim/53.jpeg",5,3,3,2,"HouseObjects",2,3,"right","",NA,0,0,1,0,NA,NA,NA,NA,NA,NA,NA,NA,NA,NA,NA,NA,NA,NA,NA,NA,NA,NA,NA,NA,NA,NA,NA,NA
"567","stim/objects/Instruments/vuvuzela3.png",296,28,289,0.3,"stim/34.jpeg",3,4,2,1,"Instruments",1,4,"left","",NA,0,0,1,0,81,28,1,0.3,1,"stim/34.jpeg",3,4,"stim/34.jpeg",4,"left",0.900000095,4,2,3.571000099,4,2.313000202,81,1,0,0,1,1,1
"427","stim/objects/Instruments/chime3.png",297,28,290,0.5,"stim/21.jpeg",2,1,1,2,"Instruments",1,2,"left","",NA,0,0,1,0,NA,NA,NA,NA,NA,NA,NA,NA,NA,NA,NA,NA,NA,NA,NA,NA,NA,NA,NA,NA,NA,NA,NA,NA
"380","stim/objects/HouseObjects/handbrush3.png",298,28,291,0.5,"stim/14.jpeg",1,4,1,1,"HouseObjects",2,2,"right","",NA,0,0,1,0,123,28,1,0.5,1,"stim/14.jpeg",1,4,"stim/14.jpeg",2,"right",0.991000175,3,4,1.562000036,2,1.633000135,123,0,1,NA,1,NA,1
"404","stim/objects/HouseObjects/wateringcan3.png",299,28,292,0.7,"stim/32.jpeg",3,2,2,1,"HouseObjects",2,3,"right","",NA,0,0,1,0,51,28,1,0.7,2,"stim/32.jpeg",3,2,"stim/32.jpeg",3,"left",1.763000011,3,2,0.822000027,3,1.582000017,51,1,1,1,1,1,1
"364","stim/objects/HouseObjects/glass3.png",300,28,293,0.9,"stim/52.jpeg",5,2,3,2,"HouseObjects",2,2,"right","",NA,0,0,1,0,NA,NA,NA,NA,NA,NA,NA,NA,NA,NA,NA,NA,NA,NA,NA,NA,NA,NA,NA,NA,NA,NA,NA,NA
"313","stim/objects/HouseObjects/dustpan3.png",301,28,294,0.9,"stim/54.jpeg",5,4,3,2,"HouseObjects",2,1,"right","",NA,0,0,1,0,NA,NA,NA,NA,NA,NA,NA,NA,NA,NA,NA,NA,NA,NA,NA,NA,NA,NA,NA,NA,NA,NA,NA,NA
"464","stim/objects/Instruments/flute3.png",302,28,295,0.9,"stim/62.jpeg",6,2,3,2,"Instruments",1,1,"left","",NA,0,0,1,0,NA,NA,NA,NA,NA,NA,NA,NA,NA,NA,NA,NA,NA,NA,NA,NA,NA,NA,NA,NA,NA,NA,NA,NA
"295","stim/objects/HouseObjects/doormat3.png",303,28,296,0.9,"stim/52.jpeg",5,2,3,2,"HouseObjects",2,4,"right","",NA,0,0,1,0,NA,NA,NA,NA,NA,NA,NA,NA,NA,NA,NA,NA,NA,NA,NA,NA,NA,NA,NA,NA,NA,NA,NA,NA
"365","stim/objects/HouseObjects/glass3.png",304,28,297,0.9,"stim/51.jpeg",5,1,3,2,"HouseObjects",2,4,"right","",NA,0,0,1,0,NA,NA,NA,NA,NA,NA,NA,NA,NA,NA,NA,NA,NA,NA,NA,NA,NA,NA,NA,NA,NA,NA,NA,NA
"491","stim/objects/Instruments/frenchhorn3.png",305,28,298,0.9,"stim/62.jpeg",6,2,3,2,"Instruments",1,4,"left","",NA,0,0,1,0,NA,NA,NA,NA,NA,NA,NA,NA,NA,NA,NA,NA,NA,NA,NA,NA,NA,NA,NA,NA,NA,NA,NA,NA
"492","stim/objects/Instruments/frenchhorn3.png",306,28,299,0.9,"stim/61.jpeg",6,1,3,2,"Instruments",1,1,"left","left",0.003000021,1,1,1,0,NA,NA,NA,NA,NA,NA,NA,NA,NA,NA,NA,NA,NA,NA,NA,NA,NA,NA,NA,NA,NA,NA,NA,NA
"564","stim/objects/Instruments/oboe4.png",307,28,300,0.9,"stim/63.jpeg",6,3,3,1,"Instruments",1,1,"left","left",0.003000259,1,1,1,0,39,28,1,0.9,1,"stim/63.jpeg",6,3,"stim/63.jpeg",1,"right",1.039999962,2,3,0.71600008,1,1.228000164,39,0,1,NA,1,NA,1
"256","stim/objects/HouseObjects/blender3.png",308,28,301,0.5,"stim/22.jpeg",2,2,1,2,"HouseObjects",2,2,"right","",NA,0,0,1,0,NA,NA,NA,NA,NA,NA,NA,NA,NA,NA,NA,NA,NA,NA,NA,NA,NA,NA,NA,NA,NA,NA,NA,NA
"475","stim/objects/Instruments/flutetrans3.png",309,28,302,0.9,"stim/61.jpeg",6,1,3,2,"Instruments",1,3,"left","",NA,0,0,1,0,NA,NA,NA,NA,NA,NA,NA,NA,NA,NA,NA,NA,NA,NA,NA,NA,NA,NA,NA,NA,NA,NA,NA,NA
"412","stim/objects/Instruments/balalaika3.png",310,28,303,0.5,"stim/13.jpeg",1,3,1,2,"Instruments",1,1,"left","",NA,0,0,1,0,NA,NA,NA,NA,NA,NA,NA,NA,NA,NA,NA,NA,NA,NA,NA,NA,NA,NA,NA,NA,NA,NA,NA,NA
"297","stim/objects/HouseObjects/doormat3.png",311,28,304,0.9,"stim/52.jpeg",5,2,3,2,"HouseObjects",2,2,"right","right",0.004000187,1,1,1,0,NA,NA,NA,NA,NA,NA,NA,NA,NA,NA,NA,NA,NA,NA,NA,NA,NA,NA,NA,NA,NA,NA,NA,NA
"529","stim/objects/Instruments/grandpiano3.png",312,28,305,0.9,"stim/64.jpeg",6,4,3,2,"Instruments",1,1,"left","",NA,0,0,1,0,NA,NA,NA,NA,NA,NA,NA,NA,NA,NA,NA,NA,NA,NA,NA,NA,NA,NA,NA,NA,NA,NA,NA,NA
"377","stim/objects/HouseObjects/glassmop4.png",313,28,306,0.9,"stim/54.jpeg",5,4,3,1,"HouseObjects",2,3,"right","",NA,0,0,1,0,117,28,1,0.9,2,"stim/54.jpeg",5,4,"stim/54.jpeg",3,"left",1.138999939,2,3,1.627000093,1,0.828000069,117,1,0,0,0,0,1
"563","stim/objects/Instruments/oboe3.png",314,28,307,0.3,"stim/32.jpeg",3,2,2,1,"Instruments",1,4,"left","",NA,0,0,1,0,191,28,1,0.3,1,"stim/32.jpeg",3,2,"stim/32.jpeg",4,"right",0.980000019,3,1,0.632000208,1,0.779000044,191,0,0,NA,0,NA,1
"508","stim/objects/Instruments/gong3.png",315,28,308,0.9,"stim/63.jpeg",6,3,3,2,"Instruments",1,4,"left","",NA,0,0,1,0,NA,NA,NA,NA,NA,NA,NA,NA,NA,NA,NA,NA,NA,NA,NA,NA,NA,NA,NA,NA,NA,NA,NA,NA
"265","stim/objects/HouseObjects/bucket3.png",316,28,309,0.5,"stim/22.jpeg",2,2,1,2,"HouseObjects",2,3,"right","",NA,0,0,1,0,NA,NA,NA,NA,NA,NA,NA,NA,NA,NA,NA,NA,NA,NA,NA,NA,NA,NA,NA,NA,NA,NA,NA,NA
"400","stim/objects/HouseObjects/towel3.png",317,28,310,0.7,"stim/34.jpeg",3,4,2,1,"HouseObjects",2,2,"right","",NA,0,0,1,0,11,28,1,0.7,2,"stim/34.jpeg",3,4,"stim/34.jpeg",2,"left",0.850000143,4,2,2.048000097,2,0.944000244,11,1,0,0,1,1,1
"553","stim/objects/Instruments/maraca3.png",318,28,311,0.5,"stim/22.jpeg",2,2,1,1,"Instruments",1,3,"left","",NA,0,0,1,0,141,28,1,0.5,2,"stim/22.jpeg",2,2,"stim/22.jpeg",3,"left",0.738000154,4,4,1.679000139,3,2.448000193,141,1,0,0,1,1,1
"389","stim/objects/HouseObjects/key4.png",319,28,312,0.1,"stim/64.jpeg",6,4,3,1,"HouseObjects",2,4,"right","",NA,0,0,1,0,15,28,1,0.1,2,"stim/64.jpeg",6,4,"stim/64.jpeg",4,"right",0.748000145,3,2,1.126000166,1,1.123000145,15,0,0,NA,0,NA,1
"405","stim/objects/HouseObjects/wateringcan4.png",320,28,313,0.1,"stim/64.jpeg",6,4,3,1,"HouseObjects",2,2,"right","",NA,0,0,1,0,25,28,1,0.1,2,"stim/64.jpeg",6,4,"stim/64.jpeg",2,"right",1.913000107,2,4,1.073000193,3,0.941000223,25,0,1,NA,0,NA,1
"561","stim/objects/Instruments/musicstand3.png",321,28,314,0.3,"stim/31.jpeg",3,1,2,1,"Instruments",1,2,"left","",NA,0,0,1,0,35,28,1,0.3,1,"stim/31.jpeg",3,1,"stim/31.jpeg",2,"left",1.21600008,4,1,0.766000032,2,0.729000092,35,1,1,1,1,1,1
"494","stim/objects/Instruments/frenchhorn3.png",322,28,315,0.9,"stim/62.jpeg",6,2,3,2,"Instruments",1,4,"left","",NA,0,0,1,0,NA,NA,NA,NA,NA,NA,NA,NA,NA,NA,NA,NA,NA,NA,NA,NA,NA,NA,NA,NA,NA,NA,NA,NA
"545","stim/objects/Instruments/harp3.png",323,28,316,0.5,"stim/11.jpeg",1,1,1,1,"Instruments",1,2,"left","right",0.349000216,0,0,1,0,82,28,1,0.5,1,"stim/11.jpeg",1,1,"stim/11.jpeg",2,"left",0.998000145,3,3,0.834000111,3,4.750000238,82,1,0,0,0,0,1
"418","stim/objects/Instruments/bassdrum3.png",324,28,317,0.5,"stim/12.jpeg",1,2,1,2,"Instruments",1,4,"left","",NA,0,0,1,0,NA,NA,NA,NA,NA,NA,NA,NA,NA,NA,NA,NA,NA,NA,NA,NA,NA,NA,NA,NA,NA,NA,NA,NA
"544","stim/objects/Instruments/harmonica4.png",325,28,318,0.1,"stim/53.jpeg",5,3,3,1,"Instruments",1,3,"left","",NA,0,0,1,0,167,28,1,0.1,1,"stim/53.jpeg",5,3,"stim/53.jpeg",3,"left",1.298000097,3,2,0.487000227,1,0.005000114,167,1,0,0,0,0,1
"476","stim/objects/Instruments/flutetrans3.png",326,28,319,0.9,"stim/62.jpeg",6,2,3,2,"Instruments",1,2,"left","",NA,0,0,1,0,NA,NA,NA,NA,NA,NA,NA,NA,NA,NA,NA,NA,NA,NA,NA,NA,NA,NA,NA,NA,NA,NA,NA,NA
"440","stim/objects/Instruments/doublebass3.png",327,28,320,0.7,"stim/44.jpeg",4,4,2,2,"Instruments",1,2,"left","",NA,0,0,1,0,NA,NA,NA,NA,NA,NA,NA,NA,NA,NA,NA,NA,NA,NA,NA,NA,NA,NA,NA,NA,NA,NA,NA,NA
"477","stim/objects/Instruments/flutetrans3.png",328,28,321,0.9,"stim/62.jpeg",6,2,3,2,"Instruments",1,4,"left","",NA,0,0,1,0,NA,NA,NA,NA,NA,NA,NA,NA,NA,NA,NA,NA,NA,NA,NA,NA,NA,NA,NA,NA,NA,NA,NA,NA
"299","stim/objects/HouseObjects/doormat3.png",329,28,322,0.9,"stim/51.jpeg",5,1,3,2,"HouseObjects",2,3,"right","",NA,0,0,1,0,NA,NA,NA,NA,NA,NA,NA,NA,NA,NA,NA,NA,NA,NA,NA,NA,NA,NA,NA,NA,NA,NA,NA,NA
"496","stim/objects/Instruments/frenchhorn3.png",330,28,323,0.9,"stim/64.jpeg",6,4,3,2,"Instruments",1,3,"left","",NA,0,0,1,0,NA,NA,NA,NA,NA,NA,NA,NA,NA,NA,NA,NA,NA,NA,NA,NA,NA,NA,NA,NA,NA,NA,NA,NA
"345","stim/objects/HouseObjects/garbagebin3.png",331,28,324,0.9,"stim/52.jpeg",5,2,3,2,"HouseObjects",2,1,"right","",NA,0,0,1,0,NA,NA,NA,NA,NA,NA,NA,NA,NA,NA,NA,NA,NA,NA,NA,NA,NA,NA,NA,NA,NA,NA,NA,NA
"358","stim/objects/HouseObjects/garbagebin4.png",332,28,325,0.9,"stim/52.jpeg",5,2,3,1,"HouseObjects",2,1,"right","right",0.554000139,1,1,1,0,170,28,1,0.9,2,"stim/52.jpeg",5,2,"stim/52.jpeg",1,"right",1.980000019,2,3,0.631000042,1,0.726999998,170,0,0,NA,1,NA,1
"300","stim/objects/HouseObjects/doormat3.png",333,28,326,0.9,"stim/53.jpeg",5,3,3,2,"HouseObjects",2,4,"right","",NA,0,0,1,0,NA,NA,NA,NA,NA,NA,NA,NA,NA,NA,NA,NA,NA,NA,NA,NA,NA,NA,NA,NA,NA,NA,NA,NA
"409","stim/objects/Instruments/acousticguitar3.png",334,28,327,0.5,"stim/12.jpeg",1,2,1,2,"Instruments",1,2,"left","",NA,0,0,1,0,NA,NA,NA,NA,NA,NA,NA,NA,NA,NA,NA,NA,NA,NA,NA,NA,NA,NA,NA,NA,NA,NA,NA,NA
"497","stim/objects/Instruments/frenchhorn3.png",335,28,328,0.9,"stim/63.jpeg",6,3,3,2,"Instruments",1,1,"left","",NA,0,0,1,0,NA,NA,NA,NA,NA,NA,NA,NA,NA,NA,NA,NA,NA,NA,NA,NA,NA,NA,NA,NA,NA,NA,NA,NA
"510","stim/objects/Instruments/gong3.png",336,28,329,0.9,"stim/64.jpeg",6,4,3,2,"Instruments",1,2,"left","",NA,0,0,1,0,NA,NA,NA,NA,NA,NA,NA,NA,NA,NA,NA,NA,NA,NA,NA,NA,NA,NA,NA,NA,NA,NA,NA,NA
"346","stim/objects/HouseObjects/garbagebin3.png",337,28,330,0.9,"stim/54.jpeg",5,4,3,2,"HouseObjects",2,3,"right","",NA,0,0,1,0,NA,NA,NA,NA,NA,NA,NA,NA,NA,NA,NA,NA,NA,NA,NA,NA,NA,NA,NA,NA,NA,NA,NA,NA
"465","stim/objects/Instruments/flute3.png",338,28,331,0.9,"stim/63.jpeg",6,3,3,2,"Instruments",1,1,"left","",NA,0,0,1,0,NA,NA,NA,NA,NA,NA,NA,NA,NA,NA,NA,NA,NA,NA,NA,NA,NA,NA,NA,NA,NA,NA,NA,NA
"344","stim/objects/HouseObjects/garbagebin3.png",339,28,332,0.9,"stim/53.jpeg",5,3,3,2,"HouseObjects",2,4,"right","",NA,0,0,1,0,NA,NA,NA,NA,NA,NA,NA,NA,NA,NA,NA,NA,NA,NA,NA,NA,NA,NA,NA,NA,NA,NA,NA,NA
"444","stim/objects/Instruments/drums3.png",340,28,333,0.7,"stim/44.jpeg",4,4,2,2,"Instruments",1,4,"left","",NA,0,0,1,0,NA,NA,NA,NA,NA,NA,NA,NA,NA,NA,NA,NA,NA,NA,NA,NA,NA,NA,NA,NA,NA,NA,NA,NA
"366","stim/objects/HouseObjects/glass3.png",341,28,334,0.9,"stim/52.jpeg",5,2,3,2,"HouseObjects",2,4,"right","",NA,0,0,1,0,NA,NA,NA,NA,NA,NA,NA,NA,NA,NA,NA,NA,NA,NA,NA,NA,NA,NA,NA,NA,NA,NA,NA,NA
"315","stim/objects/HouseObjects/dustpan3.png",342,28,335,0.9,"stim/53.jpeg",5,3,3,2,"HouseObjects",2,4,"right","",NA,0,0,1,0,NA,NA,NA,NA,NA,NA,NA,NA,NA,NA,NA,NA,NA,NA,NA,NA,NA,NA,NA,NA,NA,NA,NA,NA
"436","stim/objects/Instruments/cymbal3.png",343,28,336,0.7,"stim/43.jpeg",4,3,2,2,"Instruments",1,3,"left","",NA,0,0,1,0,NA,NA,NA,NA,NA,NA,NA,NA,NA,NA,NA,NA,NA,NA,NA,NA,NA,NA,NA,NA,NA,NA,NA,NA
"276","stim/objects/HouseObjects/clothespin3.png",344,28,337,0.7,"stim/34.jpeg",3,4,2,2,"HouseObjects",2,4,"right","",NA,0,0,1,0,NA,NA,NA,NA,NA,NA,NA,NA,NA,NA,NA,NA,NA,NA,NA,NA,NA,NA,NA,NA,NA,NA,NA,NA
"383","stim/objects/HouseObjects/handvacuum4.png",345,28,338,0.9,"stim/53.jpeg",5,3,3,1,"HouseObjects",2,3,"right","",NA,0,0,1,0,49,28,1,0.9,2,"stim/53.jpeg",5,3,"stim/53.jpeg",3,"left",0.846000195,4,3,2.603000164,1,0.845000029,49,1,1,1,0,0,1
"367","stim/objects/HouseObjects/glass3.png",346,28,339,0.9,"stim/53.jpeg",5,3,3,2,"HouseObjects",2,2,"right","",NA,0,0,1,0,NA,NA,NA,NA,NA,NA,NA,NA,NA,NA,NA,NA,NA,NA,NA,NA,NA,NA,NA,NA,NA,NA,NA,NA
"424","stim/objects/Instruments/cello3.png",347,28,340,0.5,"stim/21.jpeg",2,1,1,2,"Instruments",1,4,"left","",NA,0,0,1,0,NA,NA,NA,NA,NA,NA,NA,NA,NA,NA,NA,NA,NA,NA,NA,NA,NA,NA,NA,NA,NA,NA,NA,NA
"280","stim/objects/HouseObjects/coffee3.png",348,28,341,0.7,"stim/32.jpeg",3,2,2,2,"HouseObjects",2,2,"right","",NA,0,0,1,0,NA,NA,NA,NA,NA,NA,NA,NA,NA,NA,NA,NA,NA,NA,NA,NA,NA,NA,NA,NA,NA,NA,NA,NA
"447","stim/objects/Instruments/drums4.png",349,28,342,0.7,"stim/43.jpeg",4,3,2,1,"Instruments",1,4,"left","",NA,0,0,1,0,60,28,1,0.7,1,"stim/43.jpeg",4,3,"stim/43.jpeg",4,"right",1.575000048,2,1,0.65899992,2,1.329000235,60,0,0,NA,0,NA,1
"478","stim/objects/Instruments/flutetrans3.png",350,28,343,0.9,"stim/61.jpeg",6,1,3,2,"Instruments",1,1,"left","",NA,0,0,1,0,NA,NA,NA,NA,NA,NA,NA,NA,NA,NA,NA,NA,NA,NA,NA,NA,NA,NA,NA,NA,NA,NA,NA,NA
"531","stim/objects/Instruments/grandpiano3.png",351,28,344,0.9,"stim/64.jpeg",6,4,3,2,"Instruments",1,4,"left","",NA,0,0,1,0,NA,NA,NA,NA,NA,NA,NA,NA,NA,NA,NA,NA,NA,NA,NA,NA,NA,NA,NA,NA,NA,NA,NA,NA
"392","stim/objects/HouseObjects/lintroller3.png",352,28,345,0.5,"stim/23.jpeg",2,3,1,1,"HouseObjects",2,3,"right","",NA,0,0,1,0,31,28,1,0.5,2,"stim/23.jpeg",2,3,"stim/23.jpeg",3,"right",1.286000013,2,2,0.904999971,3,1.305000067,31,0,0,NA,1,NA,1
"512","stim/objects/Instruments/gong3.png",353,28,346,0.9,"stim/62.jpeg",6,2,3,2,"Instruments",1,2,"left","",NA,0,0,1,0,NA,NA,NA,NA,NA,NA,NA,NA,NA,NA,NA,NA,NA,NA,NA,NA,NA,NA,NA,NA,NA,NA,NA,NA
"513","stim/objects/Instruments/gong3.png",354,28,347,0.9,"stim/63.jpeg",6,3,3,2,"Instruments",1,4,"left","",NA,0,0,1,0,NA,NA,NA,NA,NA,NA,NA,NA,NA,NA,NA,NA,NA,NA,NA,NA,NA,NA,NA,NA,NA,NA,NA,NA
"472","stim/objects/Instruments/flute4.png",355,28,348,0.1,"stim/51.jpeg",5,1,3,1,"Instruments",1,3,"left","",NA,0,0,1,0,94,28,1,0.1,1,"stim/51.jpeg",5,1,"stim/51.jpeg",3,"left",0.893000126,3,2,1.138999939,1,1.412000179,94,1,0,0,0,0,1
"569","stim/objects/Instruments/xylophone3.png",356,28,349,0.3,"stim/31.jpeg",3,1,2,1,"Instruments",1,3,"left","",NA,0,0,1,0,149,28,1,0.3,1,"stim/31.jpeg",3,1,"stim/31.jpeg",3,"left",1.318000078,3,2,0.661999941,3,1.362000227,149,1,0,0,1,1,1
"368","stim/objects/HouseObjects/glass3.png",357,28,350,0.9,"stim/54.jpeg",5,4,3,2,"HouseObjects",2,3,"right","",NA,0,0,1,0,NA,NA,NA,NA,NA,NA,NA,NA,NA,NA,NA,NA,NA,NA,NA,NA,NA,NA,NA,NA,NA,NA,NA,NA
"425","stim/objects/Instruments/cello3.png",358,28,351,0.5,"stim/24.jpeg",2,4,1,2,"Instruments",1,4,"left","",NA,0,0,1,0,NA,NA,NA,NA,NA,NA,NA,NA,NA,NA,NA,NA,NA,NA,NA,NA,NA,NA,NA,NA,NA,NA,NA,NA
"566","stim/objects/Instruments/violin4.png",359,28,352,0.9,"stim/64.jpeg",6,4,3,1,"Instruments",1,3,"left","",NA,0,0,1,0,9,28,1,0.9,1,"stim/64.jpeg",6,4,"stim/64.jpeg",3,"right",1.112000227,2,3,1.105999947,3,1.228000164,9,0,0,NA,1,NA,1
"301","stim/objects/HouseObjects/doormat3.png",360,28,353,0.9,"stim/53.jpeg",5,3,3,2,"HouseObjects",2,2,"right","",NA,0,0,1,0,NA,NA,NA,NA,NA,NA,NA,NA,NA,NA,NA,NA,NA,NA,NA,NA,NA,NA,NA,NA,NA,NA,NA,NA
"331","stim/objects/HouseObjects/flyswatter3.png",361,28,354,0.9,"stim/53.jpeg",5,3,3,2,"HouseObjects",2,3,"right","",NA,0,0,1,0,NA,NA,NA,NA,NA,NA,NA,NA,NA,NA,NA,NA,NA,NA,NA,NA,NA,NA,NA,NA,NA,NA,NA,NA
"452","stim/objects/Instruments/electricguitar3.png",362,28,355,0.7,"stim/42.jpeg",4,2,2,2,"Instruments",1,1,"left","",NA,0,0,1,0,NA,NA,NA,NA,NA,NA,NA,NA,NA,NA,NA,NA,NA,NA,NA,NA,NA,NA,NA,NA,NA,NA,NA,NA
"250","stim/objects/HouseObjects/basket3.png",363,28,356,0.5,"stim/13.jpeg",1,3,1,2,"HouseObjects",2,3,"right","",NA,0,0,1,0,NA,NA,NA,NA,NA,NA,NA,NA,NA,NA,NA,NA,NA,NA,NA,NA,NA,NA,NA,NA,NA,NA,NA,NA
"281","stim/objects/HouseObjects/coffee3.png",364,28,357,0.7,"stim/31.jpeg",3,1,2,2,"HouseObjects",2,4,"right","",NA,0,0,1,0,NA,NA,NA,NA,NA,NA,NA,NA,NA,NA,NA,NA,NA,NA,NA,NA,NA,NA,NA,NA,NA,NA,NA,NA
"495","stim/objects/Instruments/frenchhorn3.png",365,28,358,0.9,"stim/64.jpeg",6,4,3,2,"Instruments",1,3,"left","",NA,0,0,1,0,NA,NA,NA,NA,NA,NA,NA,NA,NA,NA,NA,NA,NA,NA,NA,NA,NA,NA,NA,NA,NA,NA,NA,NA
"251","stim/objects/HouseObjects/basket3.png",366,28,359,0.5,"stim/14.jpeg",1,4,1,2,"HouseObjects",2,1,"right","",NA,0,0,1,0,NA,NA,NA,NA,NA,NA,NA,NA,NA,NA,NA,NA,NA,NA,NA,NA,NA,NA,NA,NA,NA,NA,NA,NA
"387","stim/objects/HouseObjects/ironingboard4.png",367,28,360,0.1,"stim/63.jpeg",6,3,3,1,"HouseObjects",2,4,"right","",NA,0,0,1,0,165,28,1,0.1,2,"stim/63.jpeg",6,3,"stim/63.jpeg",4,"right",0.827000141,4,3,0.72300005,2,0.727999926,165,0,1,NA,0,NA,1
"332","stim/objects/HouseObjects/flyswatter3.png",368,28,361,0.9,"stim/53.jpeg",5,3,3,2,"HouseObjects",2,1,"right","",NA,0,0,1,0,NA,NA,NA,NA,NA,NA,NA,NA,NA,NA,NA,NA,NA,NA,NA,NA,NA,NA,NA,NA,NA,NA,NA,NA
"524","stim/objects/Instruments/grandpiano3.png",369,28,362,0.9,"stim/63.jpeg",6,3,3,2,"Instruments",1,1,"left","",NA,0,0,1,0,NA,NA,NA,NA,NA,NA,NA,NA,NA,NA,NA,NA,NA,NA,NA,NA,NA,NA,NA,NA,NA,NA,NA,NA
"262","stim/objects/HouseObjects/broom3.png",370,28,363,0.5,"stim/21.jpeg",2,1,1,2,"HouseObjects",2,3,"right","",NA,0,0,1,0,NA,NA,NA,NA,NA,NA,NA,NA,NA,NA,NA,NA,NA,NA,NA,NA,NA,NA,NA,NA,NA,NA,NA,NA
"445","stim/objects/Instruments/drums3.png",371,28,364,0.7,"stim/43.jpeg",4,3,2,2,"Instruments",1,3,"left","",NA,0,0,1,0,NA,NA,NA,NA,NA,NA,NA,NA,NA,NA,NA,NA,NA,NA,NA,NA,NA,NA,NA,NA,NA,NA,NA,NA
"489","stim/objects/Instruments/flutetrans4.png",372,28,365,0.1,"stim/52.jpeg",5,2,3,1,"Instruments",1,4,"left","",NA,0,0,1,0,148,28,1,0.1,1,"stim/52.jpeg",5,2,"stim/52.jpeg",4,"right",1.959000111,3,1,0.875,3,1.180999994,148,0,0,NA,0,NA,1
"402","stim/objects/HouseObjects/vacuumcleaner3.png",373,28,366,0.7,"stim/31.jpeg",3,1,2,1,"HouseObjects",2,3,"right","",NA,0,0,1,0,102,28,1,0.7,2,"stim/31.jpeg",3,1,"stim/31.jpeg",3,"left",1,3,2,0.836000204,2,1.861999989,102,1,0,0,0,0,1
"526","stim/objects/Instruments/grandpiano3.png",374,28,367,0.9,"stim/63.jpeg",6,3,3,2,"Instruments",1,3,"left","",NA,0,0,1,0,NA,NA,NA,NA,NA,NA,NA,NA,NA,NA,NA,NA,NA,NA,NA,NA,NA,NA,NA,NA,NA,NA,NA,NA
"514","stim/objects/Instruments/gong3.png",375,28,368,0.9,"stim/63.jpeg",6,3,3,2,"Instruments",1,4,"left","",NA,0,0,1,0,NA,NA,NA,NA,NA,NA,NA,NA,NA,NA,NA,NA,NA,NA,NA,NA,NA,NA,NA,NA,NA,NA,NA,NA
"466","stim/objects/Instruments/flute3.png",376,28,369,0.9,"stim/63.jpeg",6,3,3,2,"Instruments",1,1,"left","",NA,0,0,1,0,NA,NA,NA,NA,NA,NA,NA,NA,NA,NA,NA,NA,NA,NA,NA,NA,NA,NA,NA,NA,NA,NA,NA,NA
"532","stim/objects/Instruments/grandpiano3.png",377,28,370,0.9,"stim/61.jpeg",6,1,3,2,"Instruments",1,1,"left","",NA,0,0,1,0,NA,NA,NA,NA,NA,NA,NA,NA,NA,NA,NA,NA,NA,NA,NA,NA,NA,NA,NA,NA,NA,NA,NA,NA
"456","stim/objects/Instruments/flute3.png",378,28,371,0.9,"stim/64.jpeg",6,4,3,2,"Instruments",1,4,"left","",NA,0,0,1,0,NA,NA,NA,NA,NA,NA,NA,NA,NA,NA,NA,NA,NA,NA,NA,NA,NA,NA,NA,NA,NA,NA,NA,NA
"375","stim/objects/HouseObjects/glass4.png",379,28,372,0.9,"stim/53.jpeg",5,3,3,1,"HouseObjects",2,4,"right","",NA,0,0,1,0,8,28,1,0.9,2,"stim/53.jpeg",5,3,"stim/53.jpeg",4,"left",0.967000246,4,4,3.522000074,2,1.779000282,8,1,0,0,0,0,1
"506","stim/objects/Instruments/frenchhorn4.png",380,28,373,0.1,"stim/53.jpeg",5,3,3,1,"Instruments",1,4,"left","",NA,0,0,1,0,13,28,1,0.1,1,"stim/53.jpeg",5,3,"stim/53.jpeg",4,"left",0.938999891,3,2,1.212000132,3,2.108999968,13,1,0,0,0,0,1
"457","stim/objects/Instruments/flute3.png",381,28,374,0.9,"stim/61.jpeg",6,1,3,2,"Instruments",1,1,"left","",NA,0,0,1,0,NA,NA,NA,NA,NA,NA,NA,NA,NA,NA,NA,NA,NA,NA,NA,NA,NA,NA,NA,NA,NA,NA,NA,NA
"458","stim/objects/Instruments/flute3.png",382,28,375,0.9,"stim/61.jpeg",6,1,3,2,"Instruments",1,1,"left","",NA,0,0,1,0,NA,NA,NA,NA,NA,NA,NA,NA,NA,NA,NA,NA,NA,NA,NA,NA,NA,NA,NA,NA,NA,NA,NA,NA
"516","stim/objects/Instruments/gong3.png",383,28,376,0.9,"stim/61.jpeg",6,1,3,2,"Instruments",1,4,"left","",NA,0,0,1,0,NA,NA,NA,NA,NA,NA,NA,NA,NA,NA,NA,NA,NA,NA,NA,NA,NA,NA,NA,NA,NA,NA,NA,NA
"459","stim/objects/Instruments/flute3.png",384,28,377,0.9,"stim/62.jpeg",6,2,3,2,"Instruments",1,3,"left","",NA,0,0,1,0,NA,NA,NA,NA,NA,NA,NA,NA,NA,NA,NA,NA,NA,NA,NA,NA,NA,NA,NA,NA,NA,NA,NA,NA
"501","stim/objects/Instruments/frenchhorn3.png",385,28,378,0.9,"stim/63.jpeg",6,3,3,2,"Instruments",1,4,"left","",NA,0,0,1,0,NA,NA,NA,NA,NA,NA,NA,NA,NA,NA,NA,NA,NA,NA,NA,NA,NA,NA,NA,NA,NA,NA,NA,NA
"384","stim/objects/HouseObjects/iron3.png",386,28,379,0.5,"stim/12.jpeg",1,2,1,1,"HouseObjects",2,2,"right","",NA,0,0,1,0,158,28,1,0.5,1,"stim/12.jpeg",1,2,"stim/12.jpeg",2,"left",1.244000196,3,1,0.590000153,2,0.828000307,158,1,0,0,1,1,1
"360","stim/objects/HouseObjects/glass3.png",387,28,380,0.9,"stim/53.jpeg",5,3,3,2,"HouseObjects",2,3,"right","",NA,0,0,1,0,NA,NA,NA,NA,NA,NA,NA,NA,NA,NA,NA,NA,NA,NA,NA,NA,NA,NA,NA,NA,NA,NA,NA,NA
"361","stim/objects/HouseObjects/glass3.png",388,28,381,0.9,"stim/51.jpeg",5,1,3,2,"HouseObjects",2,1,"right","",NA,0,0,1,0,NA,NA,NA,NA,NA,NA,NA,NA,NA,NA,NA,NA,NA,NA,NA,NA,NA,NA,NA,NA,NA,NA,NA,NA
"490","stim/objects/Instruments/frenchhorn3.png",389,28,382,0.9,"stim/63.jpeg",6,3,3,2,"Instruments",1,3,"left","",NA,0,0,1,0,NA,NA,NA,NA,NA,NA,NA,NA,NA,NA,NA,NA,NA,NA,NA,NA,NA,NA,NA,NA,NA,NA,NA,NA
"533","stim/objects/Instruments/grandpiano3.png",390,28,383,0.9,"stim/62.jpeg",6,2,3,2,"Instruments",1,2,"left","",NA,0,0,1,0,NA,NA,NA,NA,NA,NA,NA,NA,NA,NA,NA,NA,NA,NA,NA,NA,NA,NA,NA,NA,NA,NA,NA,NA
"349","stim/objects/HouseObjects/garbagebin3.png",391,28,384,0.9,"stim/54.jpeg",5,4,3,2,"HouseObjects",2,2,"right","",NA,0,0,1,0,NA,NA,NA,NA,NA,NA,NA,NA,NA,NA,NA,NA,NA,NA,NA,NA,NA,NA,NA,NA,NA,NA,NA,NA
"534","stim/objects/Instruments/grandpiano3.png",392,28,385,0.9,"stim/64.jpeg",6,4,3,2,"Instruments",1,3,"left","",NA,0,0,1,0,NA,NA,NA,NA,NA,NA,NA,NA,NA,NA,NA,NA,NA,NA,NA,NA,NA,NA,NA,NA,NA,NA,NA,NA
"461","stim/objects/Instruments/flute3.png",393,28,386,0.9,"stim/61.jpeg",6,1,3,2,"Instruments",1,2,"left","",NA,0,0,1,0,NA,NA,NA,NA,NA,NA,NA,NA,NA,NA,NA,NA,NA,NA,NA,NA,NA,NA,NA,NA,NA,NA,NA,NA
"369","stim/objects/HouseObjects/glass3.png",394,28,387,0.9,"stim/53.jpeg",5,3,3,2,"HouseObjects",2,2,"right","",NA,0,0,1,0,NA,NA,NA,NA,NA,NA,NA,NA,NA,NA,NA,NA,NA,NA,NA,NA,NA,NA,NA,NA,NA,NA,NA,NA
"330","stim/objects/HouseObjects/flyswatter3.png",395,28,388,0.9,"stim/53.jpeg",5,3,3,2,"HouseObjects",2,3,"right","",NA,0,0,1,0,NA,NA,NA,NA,NA,NA,NA,NA,NA,NA,NA,NA,NA,NA,NA,NA,NA,NA,NA,NA,NA,NA,NA,NA
"481","stim/objects/Instruments/flutetrans3.png",396,28,389,0.9,"stim/61.jpeg",6,1,3,2,"Instruments",1,3,"left","",NA,0,0,1,0,NA,NA,NA,NA,NA,NA,NA,NA,NA,NA,NA,NA,NA,NA,NA,NA,NA,NA,NA,NA,NA,NA,NA,NA
"432","stim/objects/Instruments/clarinet4.png",397,28,390,0.7,"stim/43.jpeg",4,3,2,1,"Instruments",1,3,"left","left",0.427000284,1,1,1,0,6,28,1,0.7,1,"stim/43.jpeg",4,3,"stim/43.jpeg",3,"right",1.210000277,2,2,1.098999977,3,1.916000128,6,0,0,NA,1,NA,1
"396","stim/objects/HouseObjects/pan3.png",398,28,391,0.7,"stim/32.jpeg",3,2,2,1,"HouseObjects",2,2,"right","",NA,0,0,1,0,188,28,1,0.7,2,"stim/32.jpeg",3,2,"stim/32.jpeg",2,"right",0.731000185,3,2,0.680000067,3,0.917000055,188,0,1,NA,0,NA,1
"507","stim/objects/Instruments/gong3.png",399,28,392,0.9,"stim/64.jpeg",6,4,3,2,"Instruments",1,1,"left","",NA,0,0,1,0,NA,NA,NA,NA,NA,NA,NA,NA,NA,NA,NA,NA,NA,NA,NA,NA,NA,NA,NA,NA,NA,NA,NA,NA
"249","stim/objects/HouseObjects/barbecuelighter4.png",400,28,393,0.7,"stim/31.jpeg",3,1,2,1,"HouseObjects",2,1,"right","",NA,0,0,1,0,156,28,1,0.7,2,"stim/31.jpeg",3,1,"stim/31.jpeg",1,"right",1.085000277,3,2,0.582999945,1,0.918000221,156,0,0,NA,1,NA,1
"540","stim/objects/Instruments/grandpiano4.png",401,28,394,0.1,"stim/51.jpeg",5,1,3,1,"Instruments",1,4,"left","",NA,0,0,1,0,163,28,1,0.1,1,"stim/51.jpeg",5,1,"stim/51.jpeg",4,"right",1.046000242,2,3,0.563000202,1,0.738000154,163,0,0,NA,0,NA,1
"310","stim/objects/HouseObjects/dustpan3.png",402,28,395,0.9,"stim/53.jpeg",5,3,3,2,"HouseObjects",2,4,"right","",NA,0,0,1,0,NA,NA,NA,NA,NA,NA,NA,NA,NA,NA,NA,NA,NA,NA,NA,NA,NA,NA,NA,NA,NA,NA,NA,NA
"518","stim/objects/Instruments/gong3.png",403,28,396,0.9,"stim/64.jpeg",6,4,3,2,"Instruments",1,1,"left","",NA,0,0,1,0,NA,NA,NA,NA,NA,NA,NA,NA,NA,NA,NA,NA,NA,NA,NA,NA,NA,NA,NA,NA,NA,NA,NA,NA
"462","stim/objects/Instruments/flute3.png",404,28,397,0.9,"stim/64.jpeg",6,4,3,2,"Instruments",1,1,"left","",NA,0,0,1,0,NA,NA,NA,NA,NA,NA,NA,NA,NA,NA,NA,NA,NA,NA,NA,NA,NA,NA,NA,NA,NA,NA,NA,NA
"260","stim/objects/HouseObjects/bottle3.png",405,28,398,0.5,"stim/24.jpeg",2,4,1,2,"HouseObjects",2,1,"right","",NA,0,0,1,0,NA,NA,NA,NA,NA,NA,NA,NA,NA,NA,NA,NA,NA,NA,NA,NA,NA,NA,NA,NA,NA,NA,NA,NA
"568","stim/objects/Instruments/vuvuzela4.png",406,28,399,0.9,"stim/61.jpeg",6,1,3,1,"Instruments",1,4,"left","",NA,0,0,1,0,145,28,1,0.9,1,"stim/61.jpeg",6,1,"stim/61.jpeg",4,"right",1.878000021,2,2,0.7900002,2,1.502000093,145,0,0,NA,0,NA,1
"283","stim/objects/HouseObjects/cushion3.png",407,28,400,0.7,"stim/34.jpeg",3,4,2,2,"HouseObjects",2,1,"right","",NA,0,0,1,0,NA,NA,NA,NA,NA,NA,NA,NA,NA,NA,NA,NA,NA,NA,NA,NA,NA,NA,NA,NA,NA,NA,NA,NA
"264","stim/objects/HouseObjects/broom4.png",408,28,401,0.3,"stim/44.jpeg",4,4,2,1,"HouseObjects",2,2,"right","",NA,0,0,1,0,196,28,1,0.3,2,"stim/44.jpeg",4,4,"stim/44.jpeg",2,"right",1.832999945,2,1,2.388000011,2,1.334000111,196,0,0,NA,1,NA,1
"279","stim/objects/HouseObjects/coffee3.png",409,28,402,0.7,"stim/33.jpeg",3,3,2,2,"HouseObjects",2,1,"right","",NA,0,0,1,0,NA,NA,NA,NA,NA,NA,NA,NA,NA,NA,NA,NA,NA,NA,NA,NA,NA,NA,NA,NA,NA,NA,NA,NA
"555","stim/objects/Instruments/marimba3.png",410,28,403,0.5,"stim/23.jpeg",2,3,1,1,"Instruments",1,2,"left","",NA,0,0,1,0,66,28,1,0.5,2,"stim/23.jpeg",2,3,"stim/23.jpeg",2,"left",1.226999998,4,4,0.965000153,1,2.525000095,66,1,0,0,0,0,1
"393","stim/objects/HouseObjects/lintroller4.png",411,28,404,0.1,"stim/62.jpeg",6,2,3,1,"HouseObjects",2,4,"right","",NA,0,0,1,0,63,28,1,0.1,2,"stim/62.jpeg",6,2,"stim/62.jpeg",4,"left",1.166000128,3,1,5.149000168,2,2.549000025,63,1,0,0,0,0,1
"268","stim/objects/HouseObjects/clock3.png",412,28,405,0.5,"stim/22.jpeg",2,2,1,2,"HouseObjects",2,2,"right","",NA,0,0,1,0,NA,NA,NA,NA,NA,NA,NA,NA,NA,NA,NA,NA,NA,NA,NA,NA,NA,NA,NA,NA,NA,NA,NA,NA
"559","stim/objects/Instruments/musicsheet3.png",413,28,406,0.5,"stim/21.jpeg",2,1,1,1,"Instruments",1,1,"left","",NA,0,0,1,0,186,28,1,0.5,2,"stim/21.jpeg",2,1,"stim/21.jpeg",1,"right",0.731000185,2,1,0.619000196,2,0.629000187,186,0,1,NA,0,NA,1
"293","stim/objects/HouseObjects/doormat3.png",414,28,407,0.9,"stim/52.jpeg",5,2,3,2,"HouseObjects",2,3,"right","",NA,0,0,1,0,NA,NA,NA,NA,NA,NA,NA,NA,NA,NA,NA,NA,NA,NA,NA,NA,NA,NA,NA,NA,NA,NA,NA,NA
"337","stim/objects/HouseObjects/flyswatter3.png",415,28,408,0.9,"stim/54.jpeg",5,4,3,2,"HouseObjects",2,2,"right","",NA,0,0,1,0,NA,NA,NA,NA,NA,NA,NA,NA,NA,NA,NA,NA,NA,NA,NA,NA,NA,NA,NA,NA,NA,NA,NA,NA
"318","stim/objects/HouseObjects/dustpan3.png",416,28,409,0.9,"stim/53.jpeg",5,3,3,2,"HouseObjects",2,1,"right","",NA,0,0,1,0,NA,NA,NA,NA,NA,NA,NA,NA,NA,NA,NA,NA,NA,NA,NA,NA,NA,NA,NA,NA,NA,NA,NA,NA
"565","stim/objects/Instruments/violin3.png",417,28,410,0.3,"stim/33.jpeg",3,3,2,1,"Instruments",1,1,"left","",NA,0,0,1,0,55,28,1,0.3,1,"stim/33.jpeg",3,3,"stim/33.jpeg",1,"right",0.80700016,2,2,1.674999952,2,1.354000092,55,0,0,NA,0,NA,1
"397","stim/objects/HouseObjects/pan4.png",418,28,411,0.1,"stim/64.jpeg",6,4,3,1,"HouseObjects",2,2,"right","",NA,0,0,1,0,83,28,1,0.1,2,"stim/64.jpeg",6,4,"stim/64.jpeg",2,"left",1.745000124,3,2,0.812000036,2,1.555000067,83,1,0,0,1,1,1
"270","stim/objects/HouseObjects/clock4.png",419,28,412,0.3,"stim/42.jpeg",4,2,2,1,"HouseObjects",2,2,"right","",NA,0,0,1,0,64,28,1,0.3,2,"stim/42.jpeg",4,2,"stim/42.jpeg",2,"right",1.0400002,2,4,1.231000185,3,1.827000141,64,0,0,NA,0,NA,1
"439","stim/objects/Instruments/cymbal4.png",420,28,413,0.7,"stim/41.jpeg",4,1,2,1,"Instruments",1,2,"left","",NA,0,0,1,0,44,28,1,0.7,1,"stim/41.jpeg",4,1,"stim/41.jpeg",2,"left",1.156000137,3,1,0.621999979,2,1.611999989,44,1,1,1,1,1,1
"278","stim/objects/HouseObjects/clothespin4.png",421,28,414,0.3,"stim/44.jpeg",4,4,2,1,"HouseObjects",2,4,"right","",NA,0,0,1,0,173,28,1,0.3,2,"stim/44.jpeg",4,4,"stim/44.jpeg",4,"right",0.920000076,3,3,1.715000153,2,1.369000196,173,0,0,NA,0,NA,1
"372","stim/objects/HouseObjects/glass3.png",422,28,415,0.9,"stim/54.jpeg",5,4,3,2,"HouseObjects",2,2,"right","left",0.003999949,0,0,1,0,NA,NA,NA,NA,NA,NA,NA,NA,NA,NA,NA,NA,NA,NA,NA,NA,NA,NA,NA,NA,NA,NA,NA,NA
"277","stim/objects/HouseObjects/clothespin3.png",423,28,416,0.7,"stim/32.jpeg",3,2,2,2,"HouseObjects",2,1,"right","",NA,0,0,1,0,NA,NA,NA,NA,NA,NA,NA,NA,NA,NA,NA,NA,NA,NA,NA,NA,NA,NA,NA,NA,NA,NA,NA,NA
"254","stim/objects/HouseObjects/bleachbottle3.png",424,28,417,0.5,"stim/14.jpeg",1,4,1,2,"HouseObjects",2,3,"right","right",0.003000021,1,1,1,0,NA,NA,NA,NA,NA,NA,NA,NA,NA,NA,NA,NA,NA,NA,NA,NA,NA,NA,NA,NA,NA,NA,NA,NA
"319","stim/objects/HouseObjects/dustpan3.png",425,28,418,0.9,"stim/54.jpeg",5,4,3,2,"HouseObjects",2,2,"right","left",0.004000187,0,0,1,0,NA,NA,NA,NA,NA,NA,NA,NA,NA,NA,NA,NA,NA,NA,NA,NA,NA,NA,NA,NA,NA,NA,NA,NA
"451","stim/objects/Instruments/electricdrumset4.png",426,28,419,0.7,"stim/44.jpeg",4,4,2,1,"Instruments",1,3,"left","right",0.119000196,0,0,1,0,7,28,1,0.7,1,"stim/44.jpeg",4,4,"stim/44.jpeg",3,"left",1.266000032,4,4,1.549000025,2,3.101000071,7,1,1,1,0,0,1
"520","stim/objects/Instruments/gong3.png",427,28,420,0.9,"stim/63.jpeg",6,3,3,2,"Instruments",1,3,"left","",NA,0,0,1,0,NA,NA,NA,NA,NA,NA,NA,NA,NA,NA,NA,NA,NA,NA,NA,NA,NA,NA,NA,NA,NA,NA,NA,NA
"296","stim/objects/HouseObjects/doormat3.png",428,28,421,0.9,"stim/51.jpeg",5,1,3,2,"HouseObjects",2,1,"right","",NA,0,0,1,0,NA,NA,NA,NA,NA,NA,NA,NA,NA,NA,NA,NA,NA,NA,NA,NA,NA,NA,NA,NA,NA,NA,NA,NA
"378","stim/objects/HouseObjects/hairdryer3.png",429,28,422,0.5,"stim/13.jpeg",1,3,1,1,"HouseObjects",2,1,"right","left",0.048000097,0,0,1,0,71,28,1,0.5,1,"stim/13.jpeg",1,3,"stim/13.jpeg",1,"right",0.734000206,3,2,0.545000076,1,0.680000067,71,0,0,NA,1,NA,1
"523","stim/objects/Instruments/gong4.png",430,28,423,0.1,"stim/54.jpeg",5,4,3,1,"Instruments",1,2,"left","",NA,0,0,1,0,132,28,1,0.1,1,"stim/54.jpeg",5,4,"stim/54.jpeg",2,"left",0.875999928,4,4,2.605000019,2,1.069000244,132,1,1,1,1,1,1
"320","stim/objects/HouseObjects/dustpan3.png",431,28,424,0.9,"stim/51.jpeg",5,1,3,2,"HouseObjects",2,2,"right","",NA,0,0,1,0,NA,NA,NA,NA,NA,NA,NA,NA,NA,NA,NA,NA,NA,NA,NA,NA,NA,NA,NA,NA,NA,NA,NA,NA
"353","stim/objects/HouseObjects/garbagebin3.png",432,28,425,0.9,"stim/52.jpeg",5,2,3,2,"HouseObjects",2,4,"right","",NA,0,0,1,0,NA,NA,NA,NA,NA,NA,NA,NA,NA,NA,NA,NA,NA,NA,NA,NA,NA,NA,NA,NA,NA,NA,NA,NA
"338","stim/objects/HouseObjects/flyswatter3.png",433,28,426,0.9,"stim/52.jpeg",5,2,3,2,"HouseObjects",2,1,"right","",NA,0,0,1,0,NA,NA,NA,NA,NA,NA,NA,NA,NA,NA,NA,NA,NA,NA,NA,NA,NA,NA,NA,NA,NA,NA,NA,NA
"388","stim/objects/HouseObjects/key3.png",434,28,427,0.5,"stim/21.jpeg",2,1,1,1,"HouseObjects",2,4,"right","",NA,0,0,1,0,70,28,1,0.5,2,"stim/21.jpeg",2,1,"stim/21.jpeg",4,"right",0.802000046,3,2,0.828999996,2,1.423000097,70,0,0,NA,0,NA,1
"314","stim/objects/HouseObjects/dustpan3.png",435,28,428,0.9,"stim/54.jpeg",5,4,3,2,"HouseObjects",2,3,"right","",NA,0,0,1,0,NA,NA,NA,NA,NA,NA,NA,NA,NA,NA,NA,NA,NA,NA,NA,NA,NA,NA,NA,NA,NA,NA,NA,NA
"504","stim/objects/Instruments/frenchhorn3.png",436,28,429,0.9,"stim/61.jpeg",6,1,3,2,"Instruments",1,4,"left","",NA,0,0,1,0,NA,NA,NA,NA,NA,NA,NA,NA,NA,NA,NA,NA,NA,NA,NA,NA,NA,NA,NA,NA,NA,NA,NA,NA
"266","stim/objects/HouseObjects/bucket3.png",437,28,430,0.5,"stim/21.jpeg",2,1,1,2,"HouseObjects",2,4,"right","",NA,0,0,1,0,NA,NA,NA,NA,NA,NA,NA,NA,NA,NA,NA,NA,NA,NA,NA,NA,NA,NA,NA,NA,NA,NA,NA,NA
"274","stim/objects/HouseObjects/clothesdryingrack4.png",438,28,431,0.3,"stim/43.jpeg",4,3,2,1,"HouseObjects",2,2,"right","",NA,0,0,1,0,36,28,1,0.3,2,"stim/43.jpeg",4,3,"stim/43.jpeg",2,"left",1.164000034,4,3,1.657000065,2,2.577000141,36,1,1,1,1,1,1
"493","stim/objects/Instruments/frenchhorn3.png",439,28,432,0.9,"stim/62.jpeg",6,2,3,2,"Instruments",1,2,"left","",NA,0,0,1,0,NA,NA,NA,NA,NA,NA,NA,NA,NA,NA,NA,NA,NA,NA,NA,NA,NA,NA,NA,NA,NA,NA,NA,NA
"530","stim/objects/Instruments/grandpiano3.png",440,28,433,0.9,"stim/62.jpeg",6,2,3,2,"Instruments",1,3,"left","left",0.451000214,1,1,1,0,NA,NA,NA,NA,NA,NA,NA,NA,NA,NA,NA,NA,NA,NA,NA,NA,NA,NA,NA,NA,NA,NA,NA,NA
"284","stim/objects/HouseObjects/cushion3.png",441,28,434,0.7,"stim/32.jpeg",3,2,2,2,"HouseObjects",2,1,"right","",NA,0,0,1,0,NA,NA,NA,NA,NA,NA,NA,NA,NA,NA,NA,NA,NA,NA,NA,NA,NA,NA,NA,NA,NA,NA,NA,NA
"509","stim/objects/Instruments/gong3.png",442,28,435,0.9,"stim/61.jpeg",6,1,3,2,"Instruments",1,1,"left","",NA,0,0,1,0,NA,NA,NA,NA,NA,NA,NA,NA,NA,NA,NA,NA,NA,NA,NA,NA,NA,NA,NA,NA,NA,NA,NA,NA
"470","stim/objects/Instruments/flute3.png",443,28,436,0.9,"stim/61.jpeg",6,1,3,2,"Instruments",1,1,"left","",NA,0,0,1,0,NA,NA,NA,NA,NA,NA,NA,NA,NA,NA,NA,NA,NA,NA,NA,NA,NA,NA,NA,NA,NA,NA,NA,NA
"341","stim/objects/HouseObjects/flyswatter4.png",444,28,437,0.9,"stim/51.jpeg",5,1,3,1,"HouseObjects",2,1,"right","",NA,0,0,1,0,72,28,1,0.9,2,"stim/51.jpeg",5,1,"stim/51.jpeg",1,"left",1.470000029,2,1,1.612000227,2,2.067000151,72,1,1,1,0,0,1
"352","stim/objects/HouseObjects/garbagebin3.png",445,28,438,0.9,"stim/51.jpeg",5,1,3,2,"HouseObjects",2,4,"right","",NA,0,0,1,0,NA,NA,NA,NA,NA,NA,NA,NA,NA,NA,NA,NA,NA,NA,NA,NA,NA,NA,NA,NA,NA,NA,NA,NA
"288","stim/objects/HouseObjects/dishsoap3.png",446,28,439,0.7,"stim/34.jpeg",3,4,2,2,"HouseObjects",2,4,"right","",NA,0,0,1,0,NA,NA,NA,NA,NA,NA,NA,NA,NA,NA,NA,NA,NA,NA,NA,NA,NA,NA,NA,NA,NA,NA,NA,NA
"442","stim/objects/Instruments/doublebass3.png",447,28,440,0.7,"stim/43.jpeg",4,3,2,2,"Instruments",1,2,"left","left",0.003000021,1,1,1,0,NA,NA,NA,NA,NA,NA,NA,NA,NA,NA,NA,NA,NA,NA,NA,NA,NA,NA,NA,NA,NA,NA,NA,NA
"414","stim/objects/Instruments/balalaika4.png",448,28,441,0.3,"stim/34.jpeg",3,4,2,1,"Instruments",1,2,"left","",NA,0,0,1,0,107,28,1,0.3,1,"stim/34.jpeg",3,4,"stim/34.jpeg",2,"left",1.879000187,2,3,0.508000135,2,1.498000145,107,1,0,0,1,1,1
"483","stim/objects/Instruments/flutetrans3.png",449,28,442,0.9,"stim/63.jpeg",6,3,3,2,"Instruments",1,1,"left","right",0.005000114,0,0,1,0,NA,NA,NA,NA,NA,NA,NA,NA,NA,NA,NA,NA,NA,NA,NA,NA,NA,NA,NA,NA,NA,NA,NA,NA
"450","stim/objects/Instruments/electricdrumset3.png",450,28,443,0.7,"stim/42.jpeg",4,2,2,2,"Instruments",1,3,"left","",NA,0,0,1,0,NA,NA,NA,NA,NA,NA,NA,NA,NA,NA,NA,NA,NA,NA,NA,NA,NA,NA,NA,NA,NA,NA,NA,NA
"350","stim/objects/HouseObjects/garbagebin3.png",451,28,444,0.9,"stim/53.jpeg",5,3,3,2,"HouseObjects",2,4,"right","",NA,0,0,1,0,NA,NA,NA,NA,NA,NA,NA,NA,NA,NA,NA,NA,NA,NA,NA,NA,NA,NA,NA,NA,NA,NA,NA,NA
"336","stim/objects/HouseObjects/flyswatter3.png",452,28,445,0.9,"stim/51.jpeg",5,1,3,2,"HouseObjects",2,4,"right","",NA,0,0,1,0,NA,NA,NA,NA,NA,NA,NA,NA,NA,NA,NA,NA,NA,NA,NA,NA,NA,NA,NA,NA,NA,NA,NA,NA
"390","stim/objects/HouseObjects/knife3.png",453,28,446,0.5,"stim/22.jpeg",2,2,1,1,"HouseObjects",2,2,"right","",NA,0,0,1,0,76,28,1,0.5,2,"stim/22.jpeg",2,2,"stim/22.jpeg",2,"right",1.106000185,3,3,0.9150002,2,1.006000042,76,0,0,NA,1,NA,1
"554","stim/objects/Instruments/maraca4.png",454,28,447,0.9,"stim/62.jpeg",6,2,3,1,"Instruments",1,4,"left","",NA,0,0,1,0,105,28,1,0.9,1,"stim/62.jpeg",6,2,"stim/62.jpeg",4,"right",0.629000187,4,2,0.815999985,1,1.069999933,105,0,1,NA,0,NA,1
"242","stim/objects/HouseObjects/ashtray3.png",455,28,448,0.5,"stim/11.jpeg",1,1,1,2,"HouseObjects",2,4,"right","",NA,0,0,1,0,NA,NA,NA,NA,NA,NA,NA,NA,NA,NA,NA,NA,NA,NA,NA,NA,NA,NA,NA,NA,NA,NA,NA,NA
"340","stim/objects/HouseObjects/flyswatter3.png",456,28,449,0.9,"stim/51.jpeg",5,1,3,2,"HouseObjects",2,3,"right","",NA,0,0,1,0,NA,NA,NA,NA,NA,NA,NA,NA,NA,NA,NA,NA,NA,NA,NA,NA,NA,NA,NA,NA,NA,NA,NA,NA
"248","stim/objects/HouseObjects/barbecuelighter3.png",457,28,450,0.5,"stim/12.jpeg",1,2,1,2,"HouseObjects",2,1,"right","",NA,0,0,1,0,NA,NA,NA,NA,NA,NA,NA,NA,NA,NA,NA,NA,NA,NA,NA,NA,NA,NA,NA,NA,NA,NA,NA,NA
"257","stim/objects/HouseObjects/blender3.png",458,28,451,0.5,"stim/23.jpeg",2,3,1,2,"HouseObjects",2,2,"right","",NA,0,0,1,0,NA,NA,NA,NA,NA,NA,NA,NA,NA,NA,NA,NA,NA,NA,NA,NA,NA,NA,NA,NA,NA,NA,NA,NA
"499","stim/objects/Instruments/frenchhorn3.png",459,28,452,0.9,"stim/64.jpeg",6,4,3,2,"Instruments",1,3,"left","",NA,0,0,1,0,NA,NA,NA,NA,NA,NA,NA,NA,NA,NA,NA,NA,NA,NA,NA,NA,NA,NA,NA,NA,NA,NA,NA,NA
"515","stim/objects/Instruments/gong3.png",460,28,453,0.9,"stim/62.jpeg",6,2,3,2,"Instruments",1,2,"left","",NA,0,0,1,0,NA,NA,NA,NA,NA,NA,NA,NA,NA,NA,NA,NA,NA,NA,NA,NA,NA,NA,NA,NA,NA,NA,NA,NA
"305","stim/objects/HouseObjects/doormat3.png",461,28,454,0.9,"stim/54.jpeg",5,4,3,2,"HouseObjects",2,4,"right","left",0.002000093,0,0,1,0,NA,NA,NA,NA,NA,NA,NA,NA,NA,NA,NA,NA,NA,NA,NA,NA,NA,NA,NA,NA,NA,NA,NA,NA
"431","stim/objects/Instruments/clarinet3.png",462,28,455,0.5,"stim/23.jpeg",2,3,1,2,"Instruments",1,1,"left","",NA,0,0,1,0,NA,NA,NA,NA,NA,NA,NA,NA,NA,NA,NA,NA,NA,NA,NA,NA,NA,NA,NA,NA,NA,NA,NA,NA
"263","stim/objects/HouseObjects/broom3.png",463,28,456,0.5,"stim/24.jpeg",2,4,1,2,"HouseObjects",2,4,"right","left",0.002000093,0,0,1,0,NA,NA,NA,NA,NA,NA,NA,NA,NA,NA,NA,NA,NA,NA,NA,NA,NA,NA,NA,NA,NA,NA,NA,NA
"321","stim/objects/HouseObjects/dustpan3.png",464,28,457,0.9,"stim/51.jpeg",5,1,3,2,"HouseObjects",2,2,"right","",NA,0,0,1,0,NA,NA,NA,NA,NA,NA,NA,NA,NA,NA,NA,NA,NA,NA,NA,NA,NA,NA,NA,NA,NA,NA,NA,NA
"379","stim/objects/HouseObjects/hairdryer4.png",465,28,458,0.9,"stim/51.jpeg",5,1,3,1,"HouseObjects",2,4,"right","",NA,0,0,1,0,62,28,1,0.9,2,"stim/51.jpeg",5,1,"stim/51.jpeg",4,"right",0.914000034,3,3,1.29700017,4,3.118000269,62,0,0,NA,1,NA,1
"441","stim/objects/Instruments/doublebass3.png",466,28,459,0.7,"stim/42.jpeg",4,2,2,2,"Instruments",1,2,"left","",NA,0,0,1,0,NA,NA,NA,NA,NA,NA,NA,NA,NA,NA,NA,NA,NA,NA,NA,NA,NA,NA,NA,NA,NA,NA,NA,NA
"307","stim/objects/HouseObjects/doormat4.png",467,28,460,0.9,"stim/53.jpeg",5,3,3,1,"HouseObjects",2,1,"right","",NA,0,0,1,0,54,28,1,0.9,2,"stim/53.jpeg",5,3,"stim/53.jpeg",1,"left",0.849999905,4,1,1.248000145,1,2.281000137,54,1,0,0,1,1,1
"245","stim/objects/HouseObjects/ballofstring3.png",468,28,461,0.5,"stim/12.jpeg",1,2,1,2,"HouseObjects",2,4,"right","",NA,0,0,1,0,NA,NA,NA,NA,NA,NA,NA,NA,NA,NA,NA,NA,NA,NA,NA,NA,NA,NA,NA,NA,NA,NA,NA,NA
"484","stim/objects/Instruments/flutetrans3.png",469,28,462,0.9,"stim/64.jpeg",6,4,3,2,"Instruments",1,2,"left","",NA,0,0,1,0,NA,NA,NA,NA,NA,NA,NA,NA,NA,NA,NA,NA,NA,NA,NA,NA,NA,NA,NA,NA,NA,NA,NA,NA
"448","stim/objects/Instruments/electricdrumset3.png",470,28,463,0.7,"stim/41.jpeg",4,1,2,2,"Instruments",1,1,"left","",NA,0,0,1,0,NA,NA,NA,NA,NA,NA,NA,NA,NA,NA,NA,NA,NA,NA,NA,NA,NA,NA,NA,NA,NA,NA,NA,NA
"323","stim/objects/HouseObjects/dustpan3.png",471,28,464,0.9,"stim/51.jpeg",5,1,3,2,"HouseObjects",2,2,"right","",NA,0,0,1,0,NA,NA,NA,NA,NA,NA,NA,NA,NA,NA,NA,NA,NA,NA,NA,NA,NA,NA,NA,NA,NA,NA,NA,NA
"407","stim/objects/Instruments/accordion3.png",472,28,465,0.5,"stim/12.jpeg",1,2,1,2,"Instruments",1,4,"left","",NA,0,0,1,0,NA,NA,NA,NA,NA,NA,NA,NA,NA,NA,NA,NA,NA,NA,NA,NA,NA,NA,NA,NA,NA,NA,NA,NA
"511","stim/objects/Instruments/gong3.png",473,28,466,0.9,"stim/62.jpeg",6,2,3,2,"Instruments",1,1,"left","left",0.242000341,1,1,1,0,NA,NA,NA,NA,NA,NA,NA,NA,NA,NA,NA,NA,NA,NA,NA,NA,NA,NA,NA,NA,NA,NA,NA,NA
"410","stim/objects/Instruments/acousticguitar3.png",474,28,467,0.5,"stim/13.jpeg",1,3,1,2,"Instruments",1,3,"left","right",0.24600029,0,0,1,0,NA,NA,NA,NA,NA,NA,NA,NA,NA,NA,NA,NA,NA,NA,NA,NA,NA,NA,NA,NA,NA,NA,NA,NA
"282","stim/objects/HouseObjects/coffee4.png",475,28,468,0.3,"stim/41.jpeg",4,1,2,1,"HouseObjects",2,3,"right","",NA,0,0,1,0,1,28,1,0.3,2,"stim/41.jpeg",4,1,"stim/41.jpeg",3,"left",1.279000044,4,1,2.812000036,1,5.444000006,1,1,1,1,0,0,1
"398","stim/objects/HouseObjects/pitcher3.png",476,28,469,0.7,"stim/33.jpeg",3,3,2,1,"HouseObjects",2,2,"right","",NA,0,0,1,0,68,28,1,0.7,2,"stim/33.jpeg",3,3,"stim/33.jpeg",2,"right",1.025000095,3,2,1.019000053,1,0.835000038,68,0,0,NA,0,NA,1
"406","stim/objects/Instruments/accordion3.png",477,28,470,0.5,"stim/11.jpeg",1,1,1,2,"Instruments",1,4,"left","",NA,0,0,1,0,NA,NA,NA,NA,NA,NA,NA,NA,NA,NA,NA,NA,NA,NA,NA,NA,NA,NA,NA,NA,NA,NA,NA,NA
"552","stim/objects/Instruments/laud4.png",478,28,471,0.9,"stim/61.jpeg",6,1,3,1,"Instruments",1,2,"left","left",0.388000011,1,1,1,0,146,28,1,0.9,1,"stim/61.jpeg",6,1,"stim/61.jpeg",2,"right",1.062000036,2,3,1.611999989,1,1.102000237,146,0,0,NA,0,NA,1
"503","stim/objects/Instruments/frenchhorn3.png",479,28,472,0.9,"stim/62.jpeg",6,2,3,2,"Instruments",1,2,"left","",NA,0,0,1,0,NA,NA,NA,NA,NA,NA,NA,NA,NA,NA,NA,NA,NA,NA,NA,NA,NA,NA,NA,NA,NA,NA,NA,NA
"347","stim/objects/HouseObjects/garbagebin3.png",480,28,473,0.9,"stim/53.jpeg",5,3,3,2,"HouseObjects",2,3,"right","",NA,0,0,1,0,NA,NA,NA,NA,NA,NA,NA,NA,NA,NA,NA,NA,NA,NA,NA,NA,NA,NA,NA,NA,NA,NA,NA,NA
"357","stim/objects/HouseObjects/garbagebin3.png",481,28,474,0.9,"stim/51.jpeg",5,1,3,2,"HouseObjects",2,4,"right","",NA,0,0,1,0,NA,NA,NA,NA,NA,NA,NA,NA,NA,NA,NA,NA,NA,NA,NA,NA,NA,NA,NA,NA,NA,NA,NA,NA
"538","stim/objects/Instruments/grandpiano3.png",482,28,475,0.9,"stim/61.jpeg",6,1,3,2,"Instruments",1,4,"left","",NA,0,0,1,0,NA,NA,NA,NA,NA,NA,NA,NA,NA,NA,NA,NA,NA,NA,NA,NA,NA,NA,NA,NA,NA,NA,NA,NA
"306","stim/objects/HouseObjects/doormat3.png",483,28,476,0.9,"stim/54.jpeg",5,4,3,2,"HouseObjects",2,2,"right","",NA,0,0,1,0,NA,NA,NA,NA,NA,NA,NA,NA,NA,NA,NA,NA,NA,NA,NA,NA,NA,NA,NA,NA,NA,NA,NA,NA
"381","stim/objects/HouseObjects/handbrush4.png",484,28,477,0.9,"stim/52.jpeg",5,2,3,1,"HouseObjects",2,1,"right","",NA,0,0,1,0,197,28,1,0.9,2,"stim/52.jpeg",5,2,"stim/52.jpeg",1,"right",0.776000023,3,2,0.491999865,2,1.481000185,197,0,1,NA,0,NA,1
"354","stim/objects/HouseObjects/garbagebin3.png",485,28,478,0.9,"stim/53.jpeg",5,3,3,2,"HouseObjects",2,4,"right","",NA,0,0,1,0,NA,NA,NA,NA,NA,NA,NA,NA,NA,NA,NA,NA,NA,NA,NA,NA,NA,NA,NA,NA,NA,NA,NA,NA
"370","stim/objects/HouseObjects/glass3.png",486,28,479,0.9,"stim/51.jpeg",5,1,3,2,"HouseObjects",2,3,"right","",NA,0,0,1,0,NA,NA,NA,NA,NA,NA,NA,NA,NA,NA,NA,NA,NA,NA,NA,NA,NA,NA,NA,NA,NA,NA,NA,NA
"522","stim/objects/Instruments/gong3.png",487,28,480,0.9,"stim/64.jpeg",6,4,3,2,"Instruments",1,2,"left","",NA,0,0,1,0,NA,NA,NA,NA,NA,NA,NA,NA,NA,NA,NA,NA,NA,NA,NA,NA,NA,NA,NA,NA,NA,NA,NA,NA
"498","stim/objects/Instruments/frenchhorn3.png",488,28,481,0.9,"stim/61.jpeg",6,1,3,2,"Instruments",1,3,"left","",NA,0,0,1,0,NA,NA,NA,NA,NA,NA,NA,NA,NA,NA,NA,NA,NA,NA,NA,NA,NA,NA,NA,NA,NA,NA,NA,NA
"438","stim/objects/Instruments/cymbal3.png",489,28,482,0.7,"stim/41.jpeg",4,1,2,2,"Instruments",1,3,"left","",NA,0,0,1,0,NA,NA,NA,NA,NA,NA,NA,NA,NA,NA,NA,NA,NA,NA,NA,NA,NA,NA,NA,NA,NA,NA,NA,NA
"443","stim/objects/Instruments/doublebass4.png",490,28,483,0.7,"stim/42.jpeg",4,2,2,1,"Instruments",1,4,"left","",NA,0,0,1,0,135,28,1,0.7,1,"stim/42.jpeg",4,2,"stim/42.jpeg",4,"left",1.767000198,3,2,0.596000195,1,3.031000137,135,1,1,1,0,0,1
"453","stim/objects/Instruments/electricguitar3.png",491,28,484,0.7,"stim/43.jpeg",4,3,2,2,"Instruments",1,4,"left","",NA,0,0,1,0,NA,NA,NA,NA,NA,NA,NA,NA,NA,NA,NA,NA,NA,NA,NA,NA,NA,NA,NA,NA,NA,NA,NA,NA
