"","participant","trial_index","trial_cond","scn_file","scn_cat","scn_inst","scn_condition","fillers","obj_cat","obj_cat_num","obj_file","quadrant","corr_ans","key_resp_trial.keys","key_resp_trial.rt","trial_acc","trial_acc_manual","group"
"1",28,1,0.7,"stim/43.jpeg",4,3,2,NA,"Instruments",1,"stim/objects/Instruments/record2.png",3,"left","",NA,0,0,1
"2",28,2,0.5,"stim/24.jpeg",2,4,1,NA,"Instruments",1,"stim/objects/Instruments/timbal.png",2,"left","right",0.488000154,0,0,1
"3",28,3,0.9,"stim/64.jpeg",6,4,3,NA,"Instruments",1,"stim/objects/Instruments/tuba2.png",4,"left","left",0.38100028,1,1,1
"4",28,4,0.9,"stim/64.jpeg",6,4,3,NA,"Instruments",1,"stim/objects/Instruments/tuba2.png",3,"left","",NA,0,0,1
"5",28,5,0.5,"stim/14.jpeg",1,4,1,NA,"HouseObjects",2,"stim/objects/HouseObjects/rug.png",1,"right","left",0.367000103,0,0,1
"6",28,6,0.9,"stim/52.jpeg",5,2,3,NA,"HouseObjects",2,"stim/objects/HouseObjects/saw2.png",3,"right","left",0.43900013,0,0,1
"7",28,7,0.9,"stim/64.jpeg",6,4,3,NA,"Instruments",1,"stim/objects/Instruments/tuba2.png",2,"left","left",0.371000051,1,1,1
"8",28,8,0.3,"stim/43.jpeg",4,3,2,NA,"HouseObjects",2,"stim/objects/HouseObjects/rubbergloves2.png",3,"right","left",0.42200017,0,0,1
"9",28,9,0.3,"stim/34.jpeg",3,4,2,NA,"Instruments",1,"stim/objects/Instruments/tuba.png",3,"left","right",0.515000105,0,0,1
"10",28,10,0.7,"stim/32.jpeg",3,2,2,NA,"HouseObjects",2,"stim/objects/HouseObjects/teapot.png",1,"right","left",0.484000206,0,0,1
"11",28,11,0.7,"stim/44.jpeg",4,4,2,NA,"Instruments",1,"stim/objects/Instruments/record_player2.png",4,"left","left",0.461000204,1,1,1
"12",28,12,0.3,"stim/41.jpeg",4,1,2,NA,"HouseObjects",2,"stim/objects/HouseObjects/recyclingbin2.png",3,"right","left",0.461000204,0,0,1
"13",28,13,0.7,"stim/34.jpeg",3,4,2,NA,"HouseObjects",2,"stim/objects/HouseObjects/thread.png",2,"right","left",0.440000296,0,0,1
"14",28,14,0.9,"stim/51.jpeg",5,1,3,NA,"HouseObjects",2,"stim/objects/HouseObjects/safetypin2.png",3,"right","",NA,0,0,1
"15",28,15,0.9,"stim/61.jpeg",6,1,3,NA,"Instruments",1,"stim/objects/Instruments/triangle2.png",4,"left","",NA,0,0,1
"16",28,16,0.5,"stim/14.jpeg",1,4,1,NA,"HouseObjects",2,"stim/objects/HouseObjects/rug.png",4,"right","",NA,0,0,1
"17",28,17,0.7,"stim/43.jpeg",4,3,2,NA,"Instruments",1,"stim/objects/Instruments/record2.png",3,"left","",NA,0,0,1
"18",28,18,0.5,"stim/13.jpeg",1,3,1,NA,"Instruments",1,"stim/objects/Instruments/record.png",1,"left","",NA,0,0,1
"19",28,19,0.9,"stim/54.jpeg",5,4,3,NA,"HouseObjects",2,"stim/objects/HouseObjects/sponge2.png",3,"right","",NA,0,0,1
"20",28,20,0.9,"stim/51.jpeg",5,1,3,NA,"HouseObjects",2,"stim/objects/HouseObjects/safetypin2.png",4,"right","",NA,0,0,1
"21",28,21,0.7,"stim/33.jpeg",3,3,2,NA,"HouseObjects",2,"stim/objects/HouseObjects/thermometer.png",1,"right","",NA,0,0,1
"22",28,22,0.3,"stim/33.jpeg",3,3,2,NA,"Instruments",1,"stim/objects/Instruments/trumpet.png",3,"left","",NA,0,0,1
"23",28,23,0.3,"stim/33.jpeg",3,3,2,NA,"Instruments",1,"stim/objects/Instruments/trumpet.png",4,"left","",NA,0,0,1
"24",28,24,0.9,"stim/61.jpeg",6,1,3,NA,"Instruments",1,"stim/objects/Instruments/triangle2.png",3,"left","",NA,0,0,1
"25",28,25,0.9,"stim/52.jpeg",5,2,3,NA,"HouseObjects",2,"stim/objects/HouseObjects/saw2.png",1,"right","left",0.00600028,0,0,1
"26",28,26,0.5,"stim/22.jpeg",2,2,1,NA,"Instruments",1,"stim/objects/Instruments/speaker.png",4,"left","",NA,0,0,1
"27",28,27,0.9,"stim/54.jpeg",5,4,3,NA,"HouseObjects",2,"stim/objects/HouseObjects/sponge2.png",3,"right","",NA,0,0,1
"28",28,28,0.9,"stim/62.jpeg",6,2,3,NA,"Instruments",1,"stim/objects/Instruments/trombone2.png",4,"left","",NA,0,0,1
"29",28,29,0.1,"stim/51.jpeg",5,1,3,NA,"Instruments",1,"stim/objects/Instruments/saxophone2.png",4,"left","",NA,0,0,1
"30",28,30,0.5,"stim/23.jpeg",2,3,1,NA,"HouseObjects",2,"stim/objects/HouseObjects/scale.png",2,"right","",NA,0,0,1
"31",28,31,0.9,"stim/53.jpeg",5,3,3,NA,"HouseObjects",2,"stim/objects/HouseObjects/scale2.png",2,"right","",NA,0,0,1
"32",28,32,0.7,"stim/32.jpeg",3,2,2,NA,"HouseObjects",2,"stim/objects/HouseObjects/teapot.png",3,"right","",NA,0,0,1
"33",28,33,0.5,"stim/12.jpeg",1,2,1,NA,"HouseObjects",2,"stim/objects/HouseObjects/remote.png",2,"right","",NA,0,0,1
"34",28,34,0.7,"stim/31.jpeg",3,1,2,NA,"HouseObjects",2,"stim/objects/HouseObjects/spraybottle.png",2,"right","",NA,0,0,1
"35",28,35,0.9,"stim/53.jpeg",5,3,3,NA,"HouseObjects",2,"stim/objects/HouseObjects/scale2.png",1,"right","",NA,0,0,1
"36",28,36,0.5,"stim/14.jpeg",1,4,1,NA,"Instruments",1,"stim/objects/Instruments/record_player.png",3,"left","",NA,0,0,1
"37",28,37,0.1,"stim/62.jpeg",6,2,3,NA,"HouseObjects",2,"stim/objects/HouseObjects/teapot2.png",1,"right","",NA,0,0,1
"38",28,38,0.5,"stim/14.jpeg",1,4,1,NA,"HouseObjects",2,"stim/objects/HouseObjects/rug.png",3,"right","",NA,0,0,1
"39",28,39,0.9,"stim/51.jpeg",5,1,3,NA,"HouseObjects",2,"stim/objects/HouseObjects/safetypin2.png",4,"right","",NA,0,0,1
"40",28,40,0.9,"stim/61.jpeg",6,1,3,NA,"Instruments",1,"stim/objects/Instruments/triangle2.png",3,"left","",NA,0,0,1
"41",28,41,0.9,"stim/63.jpeg",6,3,3,NA,"Instruments",1,"stim/objects/Instruments/trumpet2.png",4,"left","",NA,0,0,1
"42",28,42,0.7,"stim/41.jpeg",4,1,2,NA,"Instruments",1,"stim/objects/Instruments/panflute2.png",3,"left","",NA,0,0,1
"43",28,43,0.9,"stim/54.jpeg",5,4,3,NA,"HouseObjects",2,"stim/objects/HouseObjects/sponge2.png",4,"right","",NA,0,0,1
"44",28,44,0.5,"stim/24.jpeg",2,4,1,NA,"HouseObjects",2,"stim/objects/HouseObjects/sponge.png",2,"right","",NA,0,0,1
"45",28,45,0.3,"stim/43.jpeg",4,3,2,NA,"HouseObjects",2,"stim/objects/HouseObjects/rubbergloves2.png",4,"right","",NA,0,0,1
"46",28,46,0.7,"stim/41.jpeg",4,1,2,NA,"Instruments",1,"stim/objects/Instruments/panflute2.png",1,"left","",NA,0,0,1
"47",28,47,0.7,"stim/31.jpeg",3,1,2,NA,"HouseObjects",2,"stim/objects/HouseObjects/spraybottle.png",4,"right","",NA,0,0,1
"48",28,48,0.5,"stim/24.jpeg",2,4,1,NA,"HouseObjects",2,"stim/objects/HouseObjects/sponge.png",2,"right","",NA,0,0,1
"49",28,49,0.7,"stim/44.jpeg",4,4,2,NA,"Instruments",1,"stim/objects/Instruments/record_player2.png",1,"left","",NA,0,0,1
"50",28,50,0.5,"stim/22.jpeg",2,2,1,NA,"Instruments",1,"stim/objects/Instruments/speaker.png",1,"left","",NA,0,0,1
"51",28,51,0.9,"stim/54.jpeg",5,4,3,NA,"HouseObjects",2,"stim/objects/HouseObjects/sponge2.png",2,"right","",NA,0,0,1
"52",28,52,0.5,"stim/12.jpeg",1,2,1,NA,"Instruments",1,"stim/objects/Instruments/pipepiano.png",2,"left","",NA,0,0,1
"53",28,53,0.3,"stim/32.jpeg",3,2,2,NA,"Instruments",1,"stim/objects/Instruments/trombone.png",2,"left","",NA,0,0,1
"54",28,54,0.7,"stim/34.jpeg",3,4,2,NA,"HouseObjects",2,"stim/objects/HouseObjects/thread.png",3,"right","",NA,0,0,1
"55",28,55,0.9,"stim/52.jpeg",5,2,3,NA,"HouseObjects",2,"stim/objects/HouseObjects/saw2.png",2,"right","",NA,0,0,1
"56",28,56,0.7,"stim/31.jpeg",3,1,2,NA,"HouseObjects",2,"stim/objects/HouseObjects/spraybottle.png",3,"right","",NA,0,0,1
"57",28,57,0.7,"stim/32.jpeg",3,2,2,NA,"HouseObjects",2,"stim/objects/HouseObjects/teapot.png",1,"right","",NA,0,0,1
"58",28,58,0.5,"stim/23.jpeg",2,3,1,NA,"Instruments",1,"stim/objects/Instruments/tambourine.png",4,"left","",NA,0,0,1
"59",28,59,0.5,"stim/12.jpeg",1,2,1,NA,"Instruments",1,"stim/objects/Instruments/pipepiano.png",1,"left","",NA,0,0,1
"60",28,60,0.5,"stim/14.jpeg",1,4,1,NA,"Instruments",1,"stim/objects/Instruments/record_player.png",1,"left","",NA,0,0,1
"61",28,61,0.5,"stim/23.jpeg",2,3,1,NA,"HouseObjects",2,"stim/objects/HouseObjects/scale.png",3,"right","",NA,0,0,1
"62",28,62,0.9,"stim/63.jpeg",6,3,3,NA,"Instruments",1,"stim/objects/Instruments/trumpet2.png",2,"left","",NA,0,0,1
"63",28,63,0.5,"stim/22.jpeg",2,2,1,NA,"Instruments",1,"stim/objects/Instruments/speaker.png",4,"left","",NA,0,0,1
"64",28,64,0.5,"stim/13.jpeg",1,3,1,NA,"HouseObjects",2,"stim/objects/HouseObjects/rubbergloves.png",2,"right","",NA,0,0,1
"65",28,65,0.9,"stim/61.jpeg",6,1,3,NA,"Instruments",1,"stim/objects/Instruments/triangle2.png",4,"left","",NA,0,0,1
"66",28,66,0.5,"stim/11.jpeg",1,1,1,NA,"Instruments",1,"stim/objects/Instruments/panflute.png",2,"left","",NA,0,0,1
"67",28,67,0.5,"stim/11.jpeg",1,1,1,NA,"HouseObjects",2,"stim/objects/HouseObjects/recyclingbin.png",2,"right","",NA,0,0,1
"68",28,68,0.5,"stim/12.jpeg",1,2,1,NA,"Instruments",1,"stim/objects/Instruments/pipepiano.png",3,"left","",NA,0,0,1
"69",28,69,0.5,"stim/21.jpeg",2,1,1,NA,"HouseObjects",2,"stim/objects/HouseObjects/safetypin.png",4,"right","",NA,0,0,1
"70",28,70,0.3,"stim/34.jpeg",3,4,2,NA,"Instruments",1,"stim/objects/Instruments/tuba.png",2,"left","",NA,0,0,1
"71",28,71,0.5,"stim/11.jpeg",1,1,1,NA,"HouseObjects",2,"stim/objects/HouseObjects/recyclingbin.png",2,"right","",NA,0,0,1
"72",28,72,0.9,"stim/53.jpeg",5,3,3,NA,"HouseObjects",2,"stim/objects/HouseObjects/scale2.png",3,"right","",NA,0,0,1
"73",28,73,0.5,"stim/11.jpeg",1,1,1,NA,"HouseObjects",2,"stim/objects/HouseObjects/recyclingbin.png",2,"right","",NA,0,0,1
"74",28,74,0.7,"stim/42.jpeg",4,2,2,NA,"Instruments",1,"stim/objects/Instruments/pipepiano2.png",1,"left","",NA,0,0,1
"75",28,75,0.5,"stim/11.jpeg",1,1,1,NA,"HouseObjects",2,"stim/objects/HouseObjects/recyclingbin.png",3,"right","",NA,0,0,1
"76",28,76,0.7,"stim/33.jpeg",3,3,2,NA,"HouseObjects",2,"stim/objects/HouseObjects/thermometer.png",2,"right","",NA,0,0,1
"77",28,77,0.5,"stim/14.jpeg",1,4,1,NA,"Instruments",1,"stim/objects/Instruments/record_player.png",4,"left","",NA,0,0,1
"78",28,78,0.5,"stim/11.jpeg",1,1,1,NA,"Instruments",1,"stim/objects/Instruments/panflute.png",1,"left","",NA,0,0,1
"79",28,79,0.5,"stim/23.jpeg",2,3,1,NA,"HouseObjects",2,"stim/objects/HouseObjects/scale.png",1,"right","",NA,0,0,1
"80",28,80,0.5,"stim/21.jpeg",2,1,1,NA,"Instruments",1,"stim/objects/Instruments/saxophone.png",3,"left","",NA,0,0,1
"81",28,81,0.7,"stim/42.jpeg",4,2,2,NA,"Instruments",1,"stim/objects/Instruments/pipepiano2.png",1,"left","",NA,0,0,1
"82",28,82,0.7,"stim/41.jpeg",4,1,2,NA,"Instruments",1,"stim/objects/Instruments/panflute2.png",1,"left","",NA,0,0,1
"83",28,83,0.9,"stim/64.jpeg",6,4,3,NA,"Instruments",1,"stim/objects/Instruments/tuba2.png",2,"left","",NA,0,0,1
"84",28,84,0.7,"stim/31.jpeg",3,1,2,NA,"HouseObjects",2,"stim/objects/HouseObjects/spraybottle.png",4,"right","",NA,0,0,1
"85",28,85,0.9,"stim/64.jpeg",6,4,3,NA,"Instruments",1,"stim/objects/Instruments/tuba2.png",1,"left","right",0.005000114,0,0,1
"86",28,86,0.7,"stim/32.jpeg",3,2,2,NA,"HouseObjects",2,"stim/objects/HouseObjects/teapot.png",4,"right","right",0.009000301,1,1,1
"87",28,87,0.3,"stim/43.jpeg",4,3,2,NA,"HouseObjects",2,"stim/objects/HouseObjects/rubbergloves2.png",4,"right","",NA,0,0,1
"88",28,88,0.7,"stim/32.jpeg",3,2,2,NA,"HouseObjects",2,"stim/objects/HouseObjects/teapot.png",1,"right","",NA,0,0,1
"89",28,89,0.7,"stim/43.jpeg",4,3,2,NA,"Instruments",1,"stim/objects/Instruments/record2.png",1,"left","",NA,0,0,1
"90",28,90,0.3,"stim/42.jpeg",4,2,2,NA,"HouseObjects",2,"stim/objects/HouseObjects/remote2.png",2,"right","",NA,0,0,1
"91",28,91,0.9,"stim/51.jpeg",5,1,3,NA,"HouseObjects",2,"stim/objects/HouseObjects/safetypin2.png",3,"right","",NA,0,0,1
"92",28,92,0.5,"stim/24.jpeg",2,4,1,NA,"HouseObjects",2,"stim/objects/HouseObjects/sponge.png",2,"right","",NA,0,0,1
"93",28,93,0.9,"stim/54.jpeg",5,4,3,NA,"HouseObjects",2,"stim/objects/HouseObjects/sponge2.png",1,"right","",NA,0,0,1
"94",28,94,0.9,"stim/62.jpeg",6,2,3,NA,"Instruments",1,"stim/objects/Instruments/trombone2.png",1,"left","",NA,0,0,1
"95",28,95,0.9,"stim/51.jpeg",5,1,3,NA,"HouseObjects",2,"stim/objects/HouseObjects/safetypin2.png",1,"right","",NA,0,0,1
"96",28,96,0.5,"stim/12.jpeg",1,2,1,NA,"Instruments",1,"stim/objects/Instruments/pipepiano.png",4,"left","",NA,0,0,1
"97",28,97,0.5,"stim/11.jpeg",1,1,1,NA,"Instruments",1,"stim/objects/Instruments/panflute.png",1,"left","",NA,0,0,1
"98",28,98,0.9,"stim/62.jpeg",6,2,3,NA,"Instruments",1,"stim/objects/Instruments/trombone2.png",4,"left","",NA,0,0,1
"99",28,99,0.9,"stim/53.jpeg",5,3,3,NA,"HouseObjects",2,"stim/objects/HouseObjects/scale2.png",1,"right","",NA,0,0,1
"100",28,100,0.5,"stim/13.jpeg",1,3,1,NA,"Instruments",1,"stim/objects/Instruments/record.png",3,"left","",NA,0,0,1
"101",28,101,0.7,"stim/44.jpeg",4,4,2,NA,"Instruments",1,"stim/objects/Instruments/record_player2.png",1,"left","",NA,0,0,1
"102",28,102,0.9,"stim/53.jpeg",5,3,3,NA,"HouseObjects",2,"stim/objects/HouseObjects/scale2.png",2,"right","",NA,0,0,1
"103",28,103,0.9,"stim/63.jpeg",6,3,3,NA,"Instruments",1,"stim/objects/Instruments/trumpet2.png",1,"left","",NA,0,0,1
"104",28,104,0.7,"stim/43.jpeg",4,3,2,NA,"Instruments",1,"stim/objects/Instruments/record2.png",1,"left","",NA,0,0,1
"105",28,105,0.5,"stim/12.jpeg",1,2,1,NA,"HouseObjects",2,"stim/objects/HouseObjects/remote.png",1,"right","",NA,0,0,1
"106",28,106,0.9,"stim/61.jpeg",6,1,3,NA,"Instruments",1,"stim/objects/Instruments/triangle2.png",2,"left","",NA,0,0,1
"107",28,107,0.3,"stim/31.jpeg",3,1,2,NA,"Instruments",1,"stim/objects/Instruments/triangle.png",3,"left","",NA,0,0,1
"108",28,108,0.9,"stim/54.jpeg",5,4,3,NA,"HouseObjects",2,"stim/objects/HouseObjects/sponge2.png",1,"right","",NA,0,0,1
"109",28,109,0.7,"stim/41.jpeg",4,1,2,NA,"Instruments",1,"stim/objects/Instruments/panflute2.png",2,"left","",NA,0,0,1
"110",28,110,0.5,"stim/14.jpeg",1,4,1,NA,"HouseObjects",2,"stim/objects/HouseObjects/rug.png",2,"right","",NA,0,0,1
"111",28,111,0.9,"stim/63.jpeg",6,3,3,NA,"Instruments",1,"stim/objects/Instruments/trumpet2.png",2,"left","",NA,0,0,1
"112",28,112,0.1,"stim/63.jpeg",6,3,3,NA,"HouseObjects",2,"stim/objects/HouseObjects/thermometer2.png",4,"right","",NA,0,0,1
"113",28,113,0.7,"stim/41.jpeg",4,1,2,NA,"Instruments",1,"stim/objects/Instruments/panflute2.png",2,"left","",NA,0,0,1
"114",28,114,0.9,"stim/61.jpeg",6,1,3,NA,"Instruments",1,"stim/objects/Instruments/triangle2.png",2,"left","",NA,0,0,1
"115",28,115,0.7,"stim/33.jpeg",3,3,2,NA,"HouseObjects",2,"stim/objects/HouseObjects/thermometer.png",4,"right","",NA,0,0,1
"116",28,116,0.9,"stim/52.jpeg",5,2,3,NA,"HouseObjects",2,"stim/objects/HouseObjects/saw2.png",4,"right","",NA,0,0,1
"117",28,117,0.1,"stim/61.jpeg",6,1,3,NA,"HouseObjects",2,"stim/objects/HouseObjects/spraybottle2.png",2,"right","",NA,0,0,1
"118",28,118,0.1,"stim/54.jpeg",5,4,3,NA,"Instruments",1,"stim/objects/Instruments/timbal2.png",1,"left","",NA,0,0,1
"119",28,119,0.9,"stim/52.jpeg",5,2,3,NA,"HouseObjects",2,"stim/objects/HouseObjects/saw2.png",2,"right","",NA,0,0,1
"120",28,120,0.7,"stim/42.jpeg",4,2,2,NA,"Instruments",1,"stim/objects/Instruments/pipepiano2.png",4,"left","",NA,0,0,1
"121",28,121,0.9,"stim/52.jpeg",5,2,3,NA,"HouseObjects",2,"stim/objects/HouseObjects/saw2.png",2,"right","",NA,0,0,1
"122",28,122,0.5,"stim/13.jpeg",1,3,1,NA,"HouseObjects",2,"stim/objects/HouseObjects/rubbergloves.png",3,"right","",NA,0,0,1
"123",28,123,0.5,"stim/22.jpeg",2,2,1,NA,"HouseObjects",2,"stim/objects/HouseObjects/saw.png",1,"right","",NA,0,0,1
"124",28,124,0.9,"stim/54.jpeg",5,4,3,NA,"HouseObjects",2,"stim/objects/HouseObjects/sponge2.png",2,"right","",NA,0,0,1
"125",28,125,0.5,"stim/22.jpeg",2,2,1,NA,"Instruments",1,"stim/objects/Instruments/speaker.png",1,"left","",NA,0,0,1
"126",28,126,0.7,"stim/43.jpeg",4,3,2,NA,"Instruments",1,"stim/objects/Instruments/record2.png",2,"left","",NA,0,0,1
"127",28,127,0.9,"stim/62.jpeg",6,2,3,NA,"Instruments",1,"stim/objects/Instruments/trombone2.png",4,"left","",NA,0,0,1
"128",28,128,0.9,"stim/62.jpeg",6,2,3,NA,"Instruments",1,"stim/objects/Instruments/trombone2.png",1,"left","",NA,0,0,1
"129",28,129,0.5,"stim/12.jpeg",1,2,1,NA,"Instruments",1,"stim/objects/Instruments/pipepiano.png",4,"left","",NA,0,0,1
"130",28,130,0.9,"stim/63.jpeg",6,3,3,NA,"Instruments",1,"stim/objects/Instruments/trumpet2.png",3,"left","",NA,0,0,1
"131",28,131,0.7,"stim/42.jpeg",4,2,2,NA,"Instruments",1,"stim/objects/Instruments/pipepiano2.png",4,"left","",NA,0,0,1
"132",28,132,0.3,"stim/32.jpeg",3,2,2,NA,"Instruments",1,"stim/objects/Instruments/trombone.png",2,"left","",NA,0,0,1
"133",28,133,0.9,"stim/51.jpeg",5,1,3,NA,"HouseObjects",2,"stim/objects/HouseObjects/safetypin2.png",2,"right","",NA,0,0,1
"134",28,134,0.5,"stim/12.jpeg",1,2,1,NA,"HouseObjects",2,"stim/objects/HouseObjects/remote.png",2,"right","",NA,0,0,1
"135",28,135,0.7,"stim/32.jpeg",3,2,2,NA,"HouseObjects",2,"stim/objects/HouseObjects/teapot.png",3,"right","right",0.003000259,1,1,1
"136",28,136,0.5,"stim/22.jpeg",2,2,1,NA,"HouseObjects",2,"stim/objects/HouseObjects/saw.png",1,"right","",NA,0,0,1
"137",28,137,0.5,"stim/24.jpeg",2,4,1,NA,"Instruments",1,"stim/objects/Instruments/timbal.png",4,"left","right",0.133000135,0,0,1
"138",28,138,0.9,"stim/64.jpeg",6,4,3,NA,"Instruments",1,"stim/objects/Instruments/tuba2.png",3,"left","",NA,0,0,1
"139",28,139,0.3,"stim/44.jpeg",4,4,2,NA,"HouseObjects",2,"stim/objects/HouseObjects/rug2.png",1,"right","",NA,0,0,1
"140",28,140,0.5,"stim/22.jpeg",2,2,1,NA,"HouseObjects",2,"stim/objects/HouseObjects/saw.png",3,"right","",NA,0,0,1
"141",28,141,0.3,"stim/44.jpeg",4,4,2,NA,"HouseObjects",2,"stim/objects/HouseObjects/rug2.png",2,"right","",NA,0,0,1
"142",28,142,0.5,"stim/14.jpeg",1,4,1,NA,"Instruments",1,"stim/objects/Instruments/record_player.png",4,"left","",NA,0,0,1
"143",28,143,0.9,"stim/61.jpeg",6,1,3,NA,"Instruments",1,"stim/objects/Instruments/triangle2.png",4,"left","",NA,0,0,1
"144",28,144,0.1,"stim/52.jpeg",5,2,3,NA,"Instruments",1,"stim/objects/Instruments/speaker2.png",3,"left","",NA,0,0,1
"145",28,145,0.1,"stim/64.jpeg",6,4,3,NA,"HouseObjects",2,"stim/objects/HouseObjects/thread2.png",4,"right","",NA,0,0,1
"146",28,146,0.5,"stim/22.jpeg",2,2,1,NA,"Instruments",1,"stim/objects/Instruments/speaker.png",3,"left","",NA,0,0,1
"147",28,147,0.3,"stim/42.jpeg",4,2,2,NA,"HouseObjects",2,"stim/objects/HouseObjects/remote2.png",3,"right","",NA,0,0,1
"148",28,148,0.5,"stim/13.jpeg",1,3,1,NA,"HouseObjects",2,"stim/objects/HouseObjects/rubbergloves.png",4,"right","",NA,0,0,1
"149",28,149,0.5,"stim/21.jpeg",2,1,1,NA,"HouseObjects",2,"stim/objects/HouseObjects/safetypin.png",3,"right","",NA,0,0,1
"150",28,150,0.5,"stim/11.jpeg",1,1,1,NA,"Instruments",1,"stim/objects/Instruments/panflute.png",4,"left","",NA,0,0,1
"151",28,151,0.7,"stim/41.jpeg",4,1,2,NA,"Instruments",1,"stim/objects/Instruments/panflute2.png",1,"left","",NA,0,0,1
"152",28,152,0.5,"stim/23.jpeg",2,3,1,NA,"Instruments",1,"stim/objects/Instruments/tambourine.png",1,"left","",NA,0,0,1
"153",28,153,0.5,"stim/14.jpeg",1,4,1,NA,"Instruments",1,"stim/objects/Instruments/record_player.png",4,"left","",NA,0,0,1
"154",28,154,0.3,"stim/32.jpeg",3,2,2,NA,"Instruments",1,"stim/objects/Instruments/trombone.png",3,"left","",NA,0,0,1
"155",28,155,0.5,"stim/24.jpeg",2,4,1,NA,"HouseObjects",2,"stim/objects/HouseObjects/sponge.png",2,"right","",NA,0,0,1
"156",28,156,0.9,"stim/51.jpeg",5,1,3,NA,"HouseObjects",2,"stim/objects/HouseObjects/safetypin2.png",2,"right","",NA,0,0,1
"157",28,157,0.5,"stim/13.jpeg",1,3,1,NA,"HouseObjects",2,"stim/objects/HouseObjects/rubbergloves.png",1,"right","",NA,0,0,1
"158",28,158,0.5,"stim/13.jpeg",1,3,1,NA,"Instruments",1,"stim/objects/Instruments/record.png",3,"left","",NA,0,0,1
"159",28,159,0.7,"stim/31.jpeg",3,1,2,NA,"HouseObjects",2,"stim/objects/HouseObjects/spraybottle.png",3,"right","",NA,0,0,1
"160",28,160,0.5,"stim/21.jpeg",2,1,1,NA,"HouseObjects",2,"stim/objects/HouseObjects/safetypin.png",4,"right","",NA,0,0,1
"161",28,161,0.7,"stim/42.jpeg",4,2,2,NA,"Instruments",1,"stim/objects/Instruments/pipepiano2.png",3,"left","",NA,0,0,1
"162",28,162,0.3,"stim/34.jpeg",3,4,2,NA,"Instruments",1,"stim/objects/Instruments/tuba.png",3,"left","",NA,0,0,1
"163",28,163,0.5,"stim/14.jpeg",1,4,1,NA,"HouseObjects",2,"stim/objects/HouseObjects/rug.png",1,"right","",NA,0,0,1
"164",28,164,0.9,"stim/53.jpeg",5,3,3,NA,"HouseObjects",2,"stim/objects/HouseObjects/scale2.png",1,"right","",NA,0,0,1
"165",28,165,0.9,"stim/52.jpeg",5,2,3,NA,"HouseObjects",2,"stim/objects/HouseObjects/saw2.png",3,"right","",NA,0,0,1
"166",28,166,0.5,"stim/24.jpeg",2,4,1,NA,"HouseObjects",2,"stim/objects/HouseObjects/sponge.png",1,"right","",NA,0,0,1
"167",28,167,0.9,"stim/53.jpeg",5,3,3,NA,"HouseObjects",2,"stim/objects/HouseObjects/scale2.png",2,"right","",NA,0,0,1
"168",28,168,0.5,"stim/21.jpeg",2,1,1,NA,"Instruments",1,"stim/objects/Instruments/saxophone.png",4,"left","",NA,0,0,1
"169",28,169,0.7,"stim/34.jpeg",3,4,2,NA,"HouseObjects",2,"stim/objects/HouseObjects/thread.png",3,"right","",NA,0,0,1
"170",28,170,0.9,"stim/61.jpeg",6,1,3,NA,"Instruments",1,"stim/objects/Instruments/triangle2.png",3,"left","",NA,0,0,1
"171",28,171,0.9,"stim/54.jpeg",5,4,3,NA,"HouseObjects",2,"stim/objects/HouseObjects/sponge2.png",1,"right","",NA,0,0,1
"172",28,172,0.9,"stim/62.jpeg",6,2,3,NA,"Instruments",1,"stim/objects/Instruments/trombone2.png",1,"left","",NA,0,0,1
"173",28,173,0.5,"stim/21.jpeg",2,1,1,NA,"Instruments",1,"stim/objects/Instruments/saxophone.png",2,"left","",NA,0,0,1
"174",28,174,0.5,"stim/13.jpeg",1,3,1,NA,"Instruments",1,"stim/objects/Instruments/record.png",1,"left","",NA,0,0,1
"175",28,175,0.5,"stim/21.jpeg",2,1,1,NA,"Instruments",1,"stim/objects/Instruments/saxophone.png",4,"left","right",0.003000259,0,0,1
"176",28,176,0.9,"stim/62.jpeg",6,2,3,NA,"Instruments",1,"stim/objects/Instruments/trombone2.png",1,"left","",NA,0,0,1
"177",28,177,0.9,"stim/63.jpeg",6,3,3,NA,"Instruments",1,"stim/objects/Instruments/trumpet2.png",3,"left","",NA,0,0,1
"178",28,178,0.5,"stim/24.jpeg",2,4,1,NA,"Instruments",1,"stim/objects/Instruments/timbal.png",3,"left","",NA,0,0,1
"179",28,179,0.7,"stim/31.jpeg",3,1,2,NA,"HouseObjects",2,"stim/objects/HouseObjects/spraybottle.png",1,"right","",NA,0,0,1
"180",28,180,0.7,"stim/41.jpeg",4,1,2,NA,"Instruments",1,"stim/objects/Instruments/panflute2.png",2,"left","",NA,0,0,1
"181",28,181,0.5,"stim/23.jpeg",2,3,1,NA,"Instruments",1,"stim/objects/Instruments/tambourine.png",4,"left","",NA,0,0,1
"182",28,182,0.5,"stim/13.jpeg",1,3,1,NA,"Instruments",1,"stim/objects/Instruments/record.png",2,"left","",NA,0,0,1
"183",28,183,0.5,"stim/23.jpeg",2,3,1,NA,"Instruments",1,"stim/objects/Instruments/tambourine.png",3,"left","",NA,0,0,1
"184",28,184,0.7,"stim/44.jpeg",4,4,2,NA,"Instruments",1,"stim/objects/Instruments/record_player2.png",1,"left","",NA,0,0,1
"185",28,185,0.9,"stim/52.jpeg",5,2,3,NA,"HouseObjects",2,"stim/objects/HouseObjects/saw2.png",4,"right","",NA,0,0,1
"186",28,186,0.3,"stim/31.jpeg",3,1,2,NA,"Instruments",1,"stim/objects/Instruments/triangle.png",2,"left","",NA,0,0,1
"187",28,187,0.7,"stim/32.jpeg",3,2,2,NA,"HouseObjects",2,"stim/objects/HouseObjects/teapot.png",4,"right","",NA,0,0,1
"188",28,188,0.5,"stim/21.jpeg",2,1,1,NA,"HouseObjects",2,"stim/objects/HouseObjects/safetypin.png",3,"right","",NA,0,0,1
"189",28,189,0.7,"stim/43.jpeg",4,3,2,NA,"Instruments",1,"stim/objects/Instruments/record2.png",4,"left","",NA,0,0,1
"190",28,190,0.7,"stim/34.jpeg",3,4,2,NA,"HouseObjects",2,"stim/objects/HouseObjects/thread.png",4,"right","",NA,0,0,1
"191",28,191,0.3,"stim/41.jpeg",4,1,2,NA,"HouseObjects",2,"stim/objects/HouseObjects/recyclingbin2.png",4,"right","",NA,0,0,1
"192",28,192,0.5,"stim/23.jpeg",2,3,1,NA,"HouseObjects",2,"stim/objects/HouseObjects/scale.png",4,"right","",NA,0,0,1
"193",28,193,0.5,"stim/11.jpeg",1,1,1,NA,"HouseObjects",2,"stim/objects/HouseObjects/recyclingbin.png",1,"right","",NA,0,0,1
"194",28,194,0.7,"stim/34.jpeg",3,4,2,NA,"HouseObjects",2,"stim/objects/HouseObjects/thread.png",4,"right","",NA,0,0,1
"195",28,195,0.9,"stim/53.jpeg",5,3,3,NA,"HouseObjects",2,"stim/objects/HouseObjects/scale2.png",1,"right","",NA,0,0,1
"196",28,196,0.7,"stim/33.jpeg",3,3,2,NA,"HouseObjects",2,"stim/objects/HouseObjects/thermometer.png",4,"right","",NA,0,0,1
"197",28,197,0.7,"stim/44.jpeg",4,4,2,NA,"Instruments",1,"stim/objects/Instruments/record_player2.png",1,"left","",NA,0,0,1
"198",28,198,0.7,"stim/31.jpeg",3,1,2,NA,"HouseObjects",2,"stim/objects/HouseObjects/spraybottle.png",2,"right","",NA,0,0,1
"199",28,199,0.3,"stim/42.jpeg",4,2,2,NA,"HouseObjects",2,"stim/objects/HouseObjects/remote2.png",2,"right","",NA,0,0,1
"200",28,200,0.7,"stim/34.jpeg",3,4,2,NA,"HouseObjects",2,"stim/objects/HouseObjects/thread.png",2,"right","",NA,0,0,1
"201",28,201,0.5,"stim/24.jpeg",2,4,1,NA,"Instruments",1,"stim/objects/Instruments/timbal.png",3,"left","",NA,0,0,1
"202",28,202,0.9,"stim/63.jpeg",6,3,3,NA,"Instruments",1,"stim/objects/Instruments/trumpet2.png",4,"left","",NA,0,0,1
"203",28,203,0.3,"stim/31.jpeg",3,1,2,NA,"Instruments",1,"stim/objects/Instruments/triangle.png",2,"left","",NA,0,0,1
"204",28,204,0.5,"stim/22.jpeg",2,2,1,NA,"HouseObjects",2,"stim/objects/HouseObjects/saw.png",2,"right","",NA,0,0,1
"205",28,205,0.3,"stim/33.jpeg",3,3,2,NA,"Instruments",1,"stim/objects/Instruments/trumpet.png",1,"left","",NA,0,0,1
"206",28,206,0.5,"stim/21.jpeg",2,1,1,NA,"Instruments",1,"stim/objects/Instruments/saxophone.png",3,"left","",NA,0,0,1
"207",28,207,0.7,"stim/34.jpeg",3,4,2,NA,"HouseObjects",2,"stim/objects/HouseObjects/thread.png",4,"right","",NA,0,0,1
"208",28,208,0.9,"stim/62.jpeg",6,2,3,NA,"Instruments",1,"stim/objects/Instruments/trombone2.png",1,"left","",NA,0,0,1
"209",28,209,0.5,"stim/23.jpeg",2,3,1,NA,"Instruments",1,"stim/objects/Instruments/tambourine.png",4,"left","",NA,0,0,1
"210",28,210,0.5,"stim/12.jpeg",1,2,1,NA,"HouseObjects",2,"stim/objects/HouseObjects/remote.png",3,"right","",NA,0,0,1
"211",28,211,0.9,"stim/51.jpeg",5,1,3,NA,"HouseObjects",2,"stim/objects/HouseObjects/safetypin2.png",1,"right","",NA,0,0,1
"212",28,212,0.7,"stim/42.jpeg",4,2,2,NA,"Instruments",1,"stim/objects/Instruments/pipepiano2.png",3,"left","",NA,0,0,1
"213",28,213,0.5,"stim/24.jpeg",2,4,1,NA,"Instruments",1,"stim/objects/Instruments/timbal.png",1,"left","",NA,0,0,1
"214",28,214,0.7,"stim/42.jpeg",4,2,2,NA,"Instruments",1,"stim/objects/Instruments/pipepiano2.png",2,"left","",NA,0,0,1
"215",28,215,0.9,"stim/52.jpeg",5,2,3,NA,"HouseObjects",2,"stim/objects/HouseObjects/saw2.png",3,"right","",NA,0,0,1
"216",28,216,0.9,"stim/54.jpeg",5,4,3,NA,"HouseObjects",2,"stim/objects/HouseObjects/sponge2.png",4,"right","",NA,0,0,1
"217",28,217,0.9,"stim/51.jpeg",5,1,3,NA,"HouseObjects",2,"stim/objects/HouseObjects/safetypin2.png",4,"right","",NA,0,0,1
"218",28,218,0.5,"stim/13.jpeg",1,3,1,NA,"HouseObjects",2,"stim/objects/HouseObjects/rubbergloves.png",3,"right","",NA,0,0,1
"219",28,219,0.7,"stim/33.jpeg",3,3,2,NA,"HouseObjects",2,"stim/objects/HouseObjects/thermometer.png",2,"right","",NA,0,0,1
"220",28,220,0.3,"stim/44.jpeg",4,4,2,NA,"HouseObjects",2,"stim/objects/HouseObjects/rug2.png",4,"right","",NA,0,0,1
"221",28,221,0.9,"stim/61.jpeg",6,1,3,NA,"Instruments",1,"stim/objects/Instruments/triangle2.png",2,"left","",NA,0,0,1
"222",28,222,0.9,"stim/64.jpeg",6,4,3,NA,"Instruments",1,"stim/objects/Instruments/tuba2.png",2,"left","",NA,0,0,1
"223",28,223,0.5,"stim/11.jpeg",1,1,1,NA,"Instruments",1,"stim/objects/Instruments/panflute.png",2,"left","",NA,0,0,1
"224",28,224,0.7,"stim/44.jpeg",4,4,2,NA,"Instruments",1,"stim/objects/Instruments/record_player2.png",2,"left","",NA,0,0,1
"225",28,225,0.5,"stim/23.jpeg",2,3,1,NA,"HouseObjects",2,"stim/objects/HouseObjects/scale.png",4,"right","",NA,0,0,1
"226",28,226,0.1,"stim/53.jpeg",5,3,3,NA,"Instruments",1,"stim/objects/Instruments/tambourine2.png",4,"left","",NA,0,0,1
"227",28,227,0.9,"stim/62.jpeg",6,2,3,NA,"Instruments",1,"stim/objects/Instruments/trombone2.png",1,"left","",NA,0,0,1
"228",28,228,0.9,"stim/53.jpeg",5,3,3,NA,"HouseObjects",2,"stim/objects/HouseObjects/scale2.png",2,"right","",NA,0,0,1
"229",28,229,0.9,"stim/64.jpeg",6,4,3,NA,"Instruments",1,"stim/objects/Instruments/tuba2.png",3,"left","",NA,0,0,1
"230",28,230,0.9,"stim/63.jpeg",6,3,3,NA,"Instruments",1,"stim/objects/Instruments/trumpet2.png",3,"left","",NA,0,0,1
"231",28,231,0.7,"stim/43.jpeg",4,3,2,NA,"Instruments",1,"stim/objects/Instruments/record2.png",1,"left","",NA,0,0,1
"232",28,232,0.3,"stim/41.jpeg",4,1,2,NA,"HouseObjects",2,"stim/objects/HouseObjects/recyclingbin2.png",4,"right","",NA,0,0,1
"233",28,233,0.7,"stim/44.jpeg",4,4,2,NA,"Instruments",1,"stim/objects/Instruments/record_player2.png",3,"left","",NA,0,0,1
"234",28,234,0.5,"stim/22.jpeg",2,2,1,NA,"HouseObjects",2,"stim/objects/HouseObjects/saw.png",1,"right","",NA,0,0,1
"235",28,235,0.9,"stim/64.jpeg",6,4,3,NA,"Instruments",1,"stim/objects/Instruments/tuba2.png",3,"left","",NA,0,0,1
"236",28,236,0.5,"stim/12.jpeg",1,2,1,NA,"HouseObjects",2,"stim/objects/HouseObjects/remote.png",2,"right","",NA,0,0,1
"237",28,237,0.9,"stim/63.jpeg",6,3,3,NA,"Instruments",1,"stim/objects/Instruments/trumpet2.png",3,"left","",NA,0,0,1
"238",28,238,0.5,"stim/21.jpeg",2,1,1,NA,"HouseObjects",2,"stim/objects/HouseObjects/safetypin.png",3,"right","",NA,0,0,1
"239",28,239,0.7,"stim/33.jpeg",3,3,2,NA,"HouseObjects",2,"stim/objects/HouseObjects/thermometer.png",4,"right","",NA,0,0,1
"240",28,240,0.7,"stim/33.jpeg",3,3,2,NA,"HouseObjects",2,"stim/objects/HouseObjects/thermometer.png",1,"right","",NA,0,0,1
