"","obj_file","X.x","participant.x","trialN.x","trial_cond","scn_file.x","scn_cat","scn_inst","scn_condition","fillers","obj_cat","obj_cat_num","quadrant","corr_ans","key_resp_trial.keys","key_resp_trial.rt","trial_acc","trial_acc_manual","group.x","practice","X.y","participant.y","OvsN","PE_level","object_cat","scn_file.y","corr_scn_cat","corr_scn_inst","scn_file.1","corr_loc","key_resp_id.keys","key_resp_id.rt","key_resp_conf.keys","key_resp_assoc.keys","key_resp_assoc.rt","key_resp_loc.keys","key_resp_loc.rt","trialN.y","id_acc","assoc.acc","cond_assoc","loc.acc","cond_loc","group.y"
"37","stim/objects/HouseObjects/knife.png",1,12,1,0.5,"stim/54.jpeg",5,4,1,NA,"HouseObjects",1,4,"left","",NA,0,0,1,1,NA,NA,NA,NA,NA,NA,NA,NA,NA,NA,NA,NA,NA,NA,NA,NA,NA,NA,NA,NA,NA,NA,NA,NA
"109","stim/objects/HouseObjects/rug.png",2,12,2,0.3,"stim/14.jpeg",1,4,2,NA,"HouseObjects",1,4,"left","",NA,0,0,1,1,NA,NA,NA,NA,NA,NA,NA,NA,NA,NA,NA,NA,NA,NA,NA,NA,NA,NA,NA,NA,NA,NA,NA,NA
"134","stim/objects/Instruments/laud2.png",3,12,3,0.3,"stim/22.jpeg",2,2,2,NA,"Instruments",2,3,"right","",NA,0,0,1,1,NA,NA,NA,NA,NA,NA,NA,NA,NA,NA,NA,NA,NA,NA,NA,NA,NA,NA,NA,NA,NA,NA,NA,NA
"100","stim/objects/HouseObjects/rubbergloves2.png",4,12,4,0.9,"stim/43.jpeg",4,3,3,NA,"HouseObjects",1,2,"left","left",0.703000069,1,1,1,1,NA,NA,NA,NA,NA,NA,NA,NA,NA,NA,NA,NA,NA,NA,NA,NA,NA,NA,NA,NA,NA,NA,NA,NA
"6","stim/objects/HouseObjects/iron2.png",5,12,5,0.7,"stim/21.jpeg",2,1,2,NA,"HouseObjects",1,1,"left","left",0.704999924,1,1,1,1,NA,NA,NA,NA,NA,NA,NA,NA,NA,NA,NA,NA,NA,NA,NA,NA,NA,NA,NA,NA,NA,NA,NA,NA
"158","stim/objects/Instruments/metronome2.png",6,12,6,0.9,"stim/31.jpeg",3,1,3,NA,"Instruments",2,3,"right","right",0.724999905,1,1,1,1,NA,NA,NA,NA,NA,NA,NA,NA,NA,NA,NA,NA,NA,NA,NA,NA,NA,NA,NA,NA,NA,NA,NA,NA
"18","stim/objects/HouseObjects/ironingboard2.png",7,12,7,0.7,"stim/22.jpeg",2,2,2,NA,"HouseObjects",1,3,"left","left",0.628000021,1,1,1,1,NA,NA,NA,NA,NA,NA,NA,NA,NA,NA,NA,NA,NA,NA,NA,NA,NA,NA,NA,NA,NA,NA,NA,NA
"200","stim/objects/Instruments/oboe2.png",8,12,8,0.9,"stim/34.jpeg",3,4,3,NA,"Instruments",2,2,"right","right",0.855000019,1,1,1,1,NA,NA,NA,NA,NA,NA,NA,NA,NA,NA,NA,NA,NA,NA,NA,NA,NA,NA,NA,NA,NA,NA,NA,NA
"42","stim/objects/HouseObjects/knife2.png",9,12,9,0.7,"stim/24.jpeg",2,4,2,NA,"HouseObjects",1,4,"left","left",0.835999966,1,1,1,1,NA,NA,NA,NA,NA,NA,NA,NA,NA,NA,NA,NA,NA,NA,NA,NA,NA,NA,NA,NA,NA,NA,NA,NA
"135","stim/objects/Instruments/laud2.png",10,12,10,0.3,"stim/22.jpeg",2,2,2,NA,"Instruments",2,4,"right","left",0.724999905,0,0,1,1,NA,NA,NA,NA,NA,NA,NA,NA,NA,NA,NA,NA,NA,NA,NA,NA,NA,NA,NA,NA,NA,NA,NA,NA
"209","stim/objects/Instruments/panflute.png",11,12,11,0.7,"stim/11.jpeg",1,1,2,NA,"Instruments",2,1,"right","right",0.794000149,1,1,1,1,NA,NA,NA,NA,NA,NA,NA,NA,NA,NA,NA,NA,NA,NA,NA,NA,NA,NA,NA,NA,NA,NA,NA,NA
"112","stim/objects/HouseObjects/rug2.png",12,12,12,0.9,"stim/44.jpeg",4,4,3,NA,"HouseObjects",1,4,"left","left",0.687999964,1,1,1,1,NA,NA,NA,NA,NA,NA,NA,NA,NA,NA,NA,NA,NA,NA,NA,NA,NA,NA,NA,NA,NA,NA,NA,NA
"153","stim/objects/Instruments/metronome.png",13,12,13,0.5,"stim/61.jpeg",6,1,1,NA,"Instruments",2,2,"right","",NA,0,0,1,1,NA,NA,NA,NA,NA,NA,NA,NA,NA,NA,NA,NA,NA,NA,NA,NA,NA,NA,NA,NA,NA,NA,NA,NA
"150","stim/objects/Instruments/marimba2.png",14,12,14,0.3,"stim/24.jpeg",2,4,2,NA,"Instruments",2,2,"right","",NA,0,0,1,1,NA,NA,NA,NA,NA,NA,NA,NA,NA,NA,NA,NA,NA,NA,NA,NA,NA,NA,NA,NA,NA,NA,NA,NA
"225","stim/objects/Instruments/record_player.png",15,12,15,0.7,"stim/14.jpeg",1,4,2,NA,"Instruments",2,2,"right","right",0.655999899,1,1,1,1,NA,NA,NA,NA,NA,NA,NA,NA,NA,NA,NA,NA,NA,NA,NA,NA,NA,NA,NA,NA,NA,NA,NA,NA
"226","stim/objects/Instruments/record_player.png",16,12,16,0.7,"stim/14.jpeg",1,4,2,NA,"Instruments",2,4,"right","right",0.707000017,1,1,1,1,NA,NA,NA,NA,NA,NA,NA,NA,NA,NA,NA,NA,NA,NA,NA,NA,NA,NA,NA,NA,NA,NA,NA,NA
"101","stim/objects/HouseObjects/rubbergloves2.png",17,12,17,0.9,"stim/43.jpeg",4,3,3,NA,"HouseObjects",1,4,"left","left",0.68200016,1,1,1,1,NA,NA,NA,NA,NA,NA,NA,NA,NA,NA,NA,NA,NA,NA,NA,NA,NA,NA,NA,NA,NA,NA,NA,NA
"154","stim/objects/Instruments/metronome.png",18,12,18,0.5,"stim/61.jpeg",6,1,1,NA,"Instruments",2,2,"right","right",0.822999954,1,1,1,1,NA,NA,NA,NA,NA,NA,NA,NA,NA,NA,NA,NA,NA,NA,NA,NA,NA,NA,NA,NA,NA,NA,NA,NA
"201","stim/objects/Instruments/oboe2.png",19,12,19,0.9,"stim/34.jpeg",3,4,3,NA,"Instruments",2,1,"right","right",0.782999992,1,1,1,1,NA,NA,NA,NA,NA,NA,NA,NA,NA,NA,NA,NA,NA,NA,NA,NA,NA,NA,NA,NA,NA,NA,NA,NA
"210","stim/objects/Instruments/panflute.png",20,12,20,0.7,"stim/11.jpeg",1,1,2,NA,"Instruments",2,2,"right","right",0.907999992,1,1,1,1,NA,NA,NA,NA,NA,NA,NA,NA,NA,NA,NA,NA,NA,NA,NA,NA,NA,NA,NA,NA,NA,NA,NA,NA
"233","stim/objects/Instruments/record.png",21,12,21,0.7,"stim/13.jpeg",1,3,2,NA,"Instruments",2,4,"right","left",0.737999916,0,0,1,1,NA,NA,NA,NA,NA,NA,NA,NA,NA,NA,NA,NA,NA,NA,NA,NA,NA,NA,NA,NA,NA,NA,NA,NA
"217","stim/objects/Instruments/pipepiano.png",22,12,22,0.7,"stim/12.jpeg",1,2,2,NA,"Instruments",2,1,"right","right",0.65199995,1,1,1,1,NA,NA,NA,NA,NA,NA,NA,NA,NA,NA,NA,NA,NA,NA,NA,NA,NA,NA,NA,NA,NA,NA,NA,NA
"195","stim/objects/Instruments/oboe.png",23,12,23,0.5,"stim/64.jpeg",6,4,1,NA,"Instruments",2,3,"right","right",0.819999933,1,1,1,1,NA,NA,NA,NA,NA,NA,NA,NA,NA,NA,NA,NA,NA,NA,NA,NA,NA,NA,NA,NA,NA,NA,NA,NA
"61","stim/objects/HouseObjects/pan.png",24,12,24,0.5,"stim/63.jpeg",6,3,1,NA,"HouseObjects",1,3,"left","",NA,0,0,1,1,NA,NA,NA,NA,NA,NA,NA,NA,NA,NA,NA,NA,NA,NA,NA,NA,NA,NA,NA,NA,NA,NA,NA,NA
"218","stim/objects/Instruments/pipepiano.png",25,12,25,0.7,"stim/12.jpeg",1,2,2,NA,"Instruments",2,1,"right","right",0.657000065,1,1,1,1,NA,NA,NA,NA,NA,NA,NA,NA,NA,NA,NA,NA,NA,NA,NA,NA,NA,NA,NA,NA,NA,NA,NA,NA
"159","stim/objects/Instruments/metronome2.png",26,12,26,0.9,"stim/31.jpeg",3,1,3,NA,"Instruments",2,4,"right","right",0.746000051,1,1,1,1,NA,NA,NA,NA,NA,NA,NA,NA,NA,NA,NA,NA,NA,NA,NA,NA,NA,NA,NA,NA,NA,NA,NA,NA
"234","stim/objects/Instruments/record.png",27,12,27,0.7,"stim/13.jpeg",1,3,2,NA,"Instruments",2,4,"right","right",0.72300005,1,1,1,1,NA,NA,NA,NA,NA,NA,NA,NA,NA,NA,NA,NA,NA,NA,NA,NA,NA,NA,NA,NA,NA,NA,NA,NA
"88","stim/objects/HouseObjects/remote2.png",28,12,28,0.9,"stim/42.jpeg",4,2,3,NA,"HouseObjects",1,4,"left","left",0.693000078,1,1,1,1,NA,NA,NA,NA,NA,NA,NA,NA,NA,NA,NA,NA,NA,NA,NA,NA,NA,NA,NA,NA,NA,NA,NA,NA
"211","stim/objects/Instruments/panflute.png",29,12,29,0.7,"stim/11.jpeg",1,1,2,NA,"Instruments",2,3,"right","right",0.710999966,1,1,1,1,NA,NA,NA,NA,NA,NA,NA,NA,NA,NA,NA,NA,NA,NA,NA,NA,NA,NA,NA,NA,NA,NA,NA,NA
"55","stim/objects/HouseObjects/match.png",30,12,30,0.5,"stim/62.jpeg",6,2,1,NA,"HouseObjects",1,1,"left","",NA,0,0,1,1,NA,NA,NA,NA,NA,NA,NA,NA,NA,NA,NA,NA,NA,NA,NA,NA,NA,NA,NA,NA,NA,NA,NA,NA
"30","stim/objects/HouseObjects/key2.png",31,12,31,0.7,"stim/23.jpeg",2,3,2,NA,"HouseObjects",1,2,"left","",NA,0,0,1,1,NA,NA,NA,NA,NA,NA,NA,NA,NA,NA,NA,NA,NA,NA,NA,NA,NA,NA,NA,NA,NA,NA,NA,NA
"172","stim/objects/Instruments/musicsheet2.png",32,12,32,0.9,"stim/32.jpeg",3,2,3,NA,"Instruments",2,3,"right","right",0.644999981,1,1,1,1,NA,NA,NA,NA,NA,NA,NA,NA,NA,NA,NA,NA,NA,NA,NA,NA,NA,NA,NA,NA,NA,NA,NA,NA
"1","stim/objects/HouseObjects/iron.png",33,12,33,0.5,"stim/51.jpeg",5,1,1,NA,"HouseObjects",1,3,"left","right",0.773999929,0,0,1,1,NA,NA,NA,NA,NA,NA,NA,NA,NA,NA,NA,NA,NA,NA,NA,NA,NA,NA,NA,NA,NA,NA,NA,NA
"85","stim/objects/HouseObjects/remote.png",34,12,34,0.3,"stim/12.jpeg",1,2,2,NA,"HouseObjects",1,2,"left","right",0.703000069,0,0,1,1,NA,NA,NA,NA,NA,NA,NA,NA,NA,NA,NA,NA,NA,NA,NA,NA,NA,NA,NA,NA,NA,NA,NA,NA
"167","stim/objects/Instruments/musicsheet.png",35,12,35,0.5,"stim/62.jpeg",6,2,1,NA,"Instruments",2,1,"right","",NA,0,0,1,1,NA,NA,NA,NA,NA,NA,NA,NA,NA,NA,NA,NA,NA,NA,NA,NA,NA,NA,NA,NA,NA,NA,NA,NA
"173","stim/objects/Instruments/musicsheet2.png",36,12,36,0.9,"stim/32.jpeg",3,2,3,NA,"Instruments",2,4,"right","right",0.731999874,1,1,1,1,NA,NA,NA,NA,NA,NA,NA,NA,NA,NA,NA,NA,NA,NA,NA,NA,NA,NA,NA,NA,NA,NA,NA,NA
"151","stim/objects/Instruments/marimba2.png",37,12,37,0.3,"stim/24.jpeg",2,4,2,NA,"Instruments",2,3,"right","left",0.61500001,0,0,1,1,NA,NA,NA,NA,NA,NA,NA,NA,NA,NA,NA,NA,NA,NA,NA,NA,NA,NA,NA,NA,NA,NA,NA,NA
"212","stim/objects/Instruments/panflute.png",38,12,38,0.7,"stim/11.jpeg",1,1,2,NA,"Instruments",2,2,"right","right",0.633999825,1,1,1,1,NA,NA,NA,NA,NA,NA,NA,NA,NA,NA,NA,NA,NA,NA,NA,NA,NA,NA,NA,NA,NA,NA,NA,NA
"19","stim/objects/HouseObjects/ironingboard2.png",39,12,39,0.7,"stim/22.jpeg",2,2,2,NA,"HouseObjects",1,4,"left","left",0.763000011,1,1,1,1,NA,NA,NA,NA,NA,NA,NA,NA,NA,NA,NA,NA,NA,NA,NA,NA,NA,NA,NA,NA,NA,NA,NA,NA
"54","stim/objects/HouseObjects/lintroller2.png",40,12,40,0.1,"stim/31.jpeg",3,1,3,NA,"HouseObjects",1,4,"left","right",0.606000185,0,0,1,1,NA,NA,NA,NA,NA,NA,NA,NA,NA,NA,NA,NA,NA,NA,NA,NA,NA,NA,NA,NA,NA,NA,NA,NA
"76","stim/objects/HouseObjects/recyclingbin2.png",41,12,41,0.9,"stim/41.jpeg",4,1,3,NA,"HouseObjects",1,1,"left","left",0.61500001,1,1,1,1,NA,NA,NA,NA,NA,NA,NA,NA,NA,NA,NA,NA,NA,NA,NA,NA,NA,NA,NA,NA,NA,NA,NA,NA
"89","stim/objects/HouseObjects/remote2.png",42,12,42,0.9,"stim/42.jpeg",4,2,3,NA,"HouseObjects",1,1,"left","left",0.623999834,1,1,1,1,NA,NA,NA,NA,NA,NA,NA,NA,NA,NA,NA,NA,NA,NA,NA,NA,NA,NA,NA,NA,NA,NA,NA,NA
"60","stim/objects/HouseObjects/match2.png",43,12,43,0.1,"stim/32.jpeg",3,2,3,NA,"HouseObjects",1,4,"left","right",0.656999826,0,0,1,1,NA,NA,NA,NA,NA,NA,NA,NA,NA,NA,NA,NA,NA,NA,NA,NA,NA,NA,NA,NA,NA,NA,NA,NA
"97","stim/objects/HouseObjects/rubbergloves.png",44,12,44,0.3,"stim/13.jpeg",1,3,2,NA,"HouseObjects",1,1,"left","",NA,0,0,1,1,NA,NA,NA,NA,NA,NA,NA,NA,NA,NA,NA,NA,NA,NA,NA,NA,NA,NA,NA,NA,NA,NA,NA,NA
"20","stim/objects/HouseObjects/ironingboard2.png",45,12,45,0.7,"stim/22.jpeg",2,2,2,NA,"HouseObjects",1,3,"left","left",0.769000053,1,1,1,1,NA,NA,NA,NA,NA,NA,NA,NA,NA,NA,NA,NA,NA,NA,NA,NA,NA,NA,NA,NA,NA,NA,NA,NA
"110","stim/objects/HouseObjects/rug.png",46,12,46,0.3,"stim/14.jpeg",1,4,2,NA,"HouseObjects",1,2,"left","right",0.520999908,0,0,1,1,NA,NA,NA,NA,NA,NA,NA,NA,NA,NA,NA,NA,NA,NA,NA,NA,NA,NA,NA,NA,NA,NA,NA,NA
"202","stim/objects/Instruments/oboe2.png",47,12,47,0.9,"stim/34.jpeg",3,4,3,NA,"Instruments",2,1,"right","right",0.870999813,1,1,1,1,NA,NA,NA,NA,NA,NA,NA,NA,NA,NA,NA,NA,NA,NA,NA,NA,NA,NA,NA,NA,NA,NA,NA,NA
"49","stim/objects/HouseObjects/lintroller.png",48,12,48,0.5,"stim/61.jpeg",6,1,1,NA,"HouseObjects",1,4,"left","right",0.898000002,0,0,1,1,NA,NA,NA,NA,NA,NA,NA,NA,NA,NA,NA,NA,NA,NA,NA,NA,NA,NA,NA,NA,NA,NA,NA,NA
"121","stim/objects/Instruments/keyboard.png",49,12,49,0.5,"stim/51.jpeg",5,1,1,NA,"Instruments",2,4,"right","right",0.667000055,1,1,1,1,NA,NA,NA,NA,NA,NA,NA,NA,NA,NA,NA,NA,NA,NA,NA,NA,NA,NA,NA,NA,NA,NA,NA,NA
"213","stim/objects/Instruments/panflute.png",50,12,50,0.7,"stim/11.jpeg",1,1,2,NA,"Instruments",2,1,"right","right",0.633000135,1,1,1,1,NA,NA,NA,NA,NA,NA,NA,NA,NA,NA,NA,NA,NA,NA,NA,NA,NA,NA,NA,NA,NA,NA,NA,NA
"62","stim/objects/HouseObjects/pan.png",51,12,51,0.5,"stim/63.jpeg",6,3,1,NA,"HouseObjects",1,1,"left","left",0.835000038,1,1,1,1,NA,NA,NA,NA,NA,NA,NA,NA,NA,NA,NA,NA,NA,NA,NA,NA,NA,NA,NA,NA,NA,NA,NA,NA
"174","stim/objects/Instruments/musicsheet2.png",52,12,52,0.9,"stim/32.jpeg",3,2,3,NA,"Instruments",2,4,"right","right",0.523000002,1,1,1,1,NA,NA,NA,NA,NA,NA,NA,NA,NA,NA,NA,NA,NA,NA,NA,NA,NA,NA,NA,NA,NA,NA,NA,NA
"136","stim/objects/Instruments/laud2.png",53,12,53,0.3,"stim/22.jpeg",2,2,2,NA,"Instruments",2,4,"right","left",0.601000071,0,0,1,1,NA,NA,NA,NA,NA,NA,NA,NA,NA,NA,NA,NA,NA,NA,NA,NA,NA,NA,NA,NA,NA,NA,NA,NA
"145","stim/objects/Instruments/marimba.png",54,12,54,0.5,"stim/54.jpeg",5,4,1,NA,"Instruments",2,2,"right","",NA,0,0,1,1,NA,NA,NA,NA,NA,NA,NA,NA,NA,NA,NA,NA,NA,NA,NA,NA,NA,NA,NA,NA,NA,NA,NA,NA
"38","stim/objects/HouseObjects/knife.png",55,12,55,0.5,"stim/54.jpeg",5,4,1,NA,"HouseObjects",1,4,"left","right",0.609999895,0,0,1,1,NA,NA,NA,NA,NA,NA,NA,NA,NA,NA,NA,NA,NA,NA,NA,NA,NA,NA,NA,NA,NA,NA,NA,NA
"90","stim/objects/HouseObjects/remote2.png",56,12,56,0.9,"stim/42.jpeg",4,2,3,NA,"HouseObjects",1,2,"left","left",0.642999887,1,1,1,1,NA,NA,NA,NA,NA,NA,NA,NA,NA,NA,NA,NA,NA,NA,NA,NA,NA,NA,NA,NA,NA,NA,NA,NA
"13","stim/objects/HouseObjects/ironingboard.png",57,12,57,0.5,"stim/52.jpeg",5,2,1,NA,"HouseObjects",1,2,"left","right",0.804000139,0,0,1,1,NA,NA,NA,NA,NA,NA,NA,NA,NA,NA,NA,NA,NA,NA,NA,NA,NA,NA,NA,NA,NA,NA,NA,NA
"31","stim/objects/HouseObjects/key2.png",58,12,58,0.7,"stim/23.jpeg",2,3,2,NA,"HouseObjects",1,2,"left","left",0.851999998,1,1,1,1,NA,NA,NA,NA,NA,NA,NA,NA,NA,NA,NA,NA,NA,NA,NA,NA,NA,NA,NA,NA,NA,NA,NA,NA
"216","stim/objects/Instruments/panflute2.png",59,12,59,0.1,"stim/41.jpeg",4,1,3,NA,"Instruments",2,1,"right","left",0.687000036,0,0,1,1,NA,NA,NA,NA,NA,NA,NA,NA,NA,NA,NA,NA,NA,NA,NA,NA,NA,NA,NA,NA,NA,NA,NA,NA
"43","stim/objects/HouseObjects/knife2.png",60,12,60,0.7,"stim/24.jpeg",2,4,2,NA,"HouseObjects",1,3,"left","left",0.680999994,1,1,1,1,NA,NA,NA,NA,NA,NA,NA,NA,NA,NA,NA,NA,NA,NA,NA,NA,NA,NA,NA,NA,NA,NA,NA,NA
"7","stim/objects/HouseObjects/iron2.png",61,12,61,0.7,"stim/21.jpeg",2,1,2,NA,"HouseObjects",1,2,"left","left",0.704999924,1,1,1,1,NA,NA,NA,NA,NA,NA,NA,NA,NA,NA,NA,NA,NA,NA,NA,NA,NA,NA,NA,NA,NA,NA,NA,NA
"21","stim/objects/HouseObjects/ironingboard2.png",62,12,62,0.7,"stim/22.jpeg",2,2,2,NA,"HouseObjects",1,3,"left","left",0.794000149,1,1,1,1,NA,NA,NA,NA,NA,NA,NA,NA,NA,NA,NA,NA,NA,NA,NA,NA,NA,NA,NA,NA,NA,NA,NA,NA
"175","stim/objects/Instruments/musicsheet2.png",63,12,63,0.9,"stim/32.jpeg",3,2,3,NA,"Instruments",2,4,"right","right",0.664000034,1,1,1,1,NA,NA,NA,NA,NA,NA,NA,NA,NA,NA,NA,NA,NA,NA,NA,NA,NA,NA,NA,NA,NA,NA,NA,NA
"73","stim/objects/HouseObjects/recyclingbin.png",64,12,64,0.3,"stim/11.jpeg",1,1,2,NA,"HouseObjects",1,4,"left","right",0.837999821,0,0,1,1,NA,NA,NA,NA,NA,NA,NA,NA,NA,NA,NA,NA,NA,NA,NA,NA,NA,NA,NA,NA,NA,NA,NA,NA
"25","stim/objects/HouseObjects/key.png",65,12,65,0.5,"stim/53.jpeg",5,3,1,NA,"HouseObjects",1,1,"left","right",0.696000099,0,0,1,1,NA,NA,NA,NA,NA,NA,NA,NA,NA,NA,NA,NA,NA,NA,NA,NA,NA,NA,NA,NA,NA,NA,NA,NA
"102","stim/objects/HouseObjects/rubbergloves2.png",66,12,66,0.9,"stim/43.jpeg",4,3,3,NA,"HouseObjects",1,1,"left","left",0.697999954,1,1,1,1,NA,NA,NA,NA,NA,NA,NA,NA,NA,NA,NA,NA,NA,NA,NA,NA,NA,NA,NA,NA,NA,NA,NA,NA
"77","stim/objects/HouseObjects/recyclingbin2.png",67,12,67,0.9,"stim/41.jpeg",4,1,3,NA,"HouseObjects",1,1,"left","left",0.648999929,1,1,1,1,NA,NA,NA,NA,NA,NA,NA,NA,NA,NA,NA,NA,NA,NA,NA,NA,NA,NA,NA,NA,NA,NA,NA,NA
"146","stim/objects/Instruments/marimba.png",68,12,68,0.5,"stim/54.jpeg",5,4,1,NA,"Instruments",2,4,"right","right",0.67599988,1,1,1,1,NA,NA,NA,NA,NA,NA,NA,NA,NA,NA,NA,NA,NA,NA,NA,NA,NA,NA,NA,NA,NA,NA,NA,NA
"160","stim/objects/Instruments/metronome2.png",69,12,69,0.9,"stim/31.jpeg",3,1,3,NA,"Instruments",2,2,"right","right",0.717000008,1,1,1,1,NA,NA,NA,NA,NA,NA,NA,NA,NA,NA,NA,NA,NA,NA,NA,NA,NA,NA,NA,NA,NA,NA,NA,NA
"224","stim/objects/Instruments/pipepiano2.png",70,12,70,0.1,"stim/42.jpeg",4,2,3,NA,"Instruments",2,3,"right","left",0.64199996,0,0,1,1,NA,NA,NA,NA,NA,NA,NA,NA,NA,NA,NA,NA,NA,NA,NA,NA,NA,NA,NA,NA,NA,NA,NA,NA
"142","stim/objects/Instruments/maraca2.png",71,12,71,0.3,"stim/23.jpeg",2,3,2,NA,"Instruments",2,1,"right","left",0.727999926,0,0,1,1,NA,NA,NA,NA,NA,NA,NA,NA,NA,NA,NA,NA,NA,NA,NA,NA,NA,NA,NA,NA,NA,NA,NA,NA
"214","stim/objects/Instruments/panflute.png",72,12,72,0.7,"stim/11.jpeg",1,1,2,NA,"Instruments",2,3,"right","right",0.619999886,1,1,1,1,NA,NA,NA,NA,NA,NA,NA,NA,NA,NA,NA,NA,NA,NA,NA,NA,NA,NA,NA,NA,NA,NA,NA,NA
"113","stim/objects/HouseObjects/rug2.png",73,12,73,0.9,"stim/44.jpeg",4,4,3,NA,"HouseObjects",1,2,"left","left",0.594000101,1,1,1,1,NA,NA,NA,NA,NA,NA,NA,NA,NA,NA,NA,NA,NA,NA,NA,NA,NA,NA,NA,NA,NA,NA,NA,NA
"72","stim/objects/HouseObjects/pitcher2.png",74,12,74,0.1,"stim/34.jpeg",3,4,3,NA,"HouseObjects",1,3,"left","right",0.61500001,0,0,1,1,NA,NA,NA,NA,NA,NA,NA,NA,NA,NA,NA,NA,NA,NA,NA,NA,NA,NA,NA,NA,NA,NA,NA,NA
"227","stim/objects/Instruments/record_player.png",75,12,75,0.7,"stim/14.jpeg",1,4,2,NA,"Instruments",2,3,"right","right",0.671000004,1,1,1,1,NA,NA,NA,NA,NA,NA,NA,NA,NA,NA,NA,NA,NA,NA,NA,NA,NA,NA,NA,NA,NA,NA,NA,NA
"181","stim/objects/Instruments/musicstand.png",76,12,76,0.5,"stim/63.jpeg",6,3,1,NA,"Instruments",2,1,"right","",NA,0,0,1,1,NA,NA,NA,NA,NA,NA,NA,NA,NA,NA,NA,NA,NA,NA,NA,NA,NA,NA,NA,NA,NA,NA,NA,NA
"50","stim/objects/HouseObjects/lintroller.png",77,12,77,0.5,"stim/61.jpeg",6,1,1,NA,"HouseObjects",1,1,"left","left",0.775000095,1,1,1,1,NA,NA,NA,NA,NA,NA,NA,NA,NA,NA,NA,NA,NA,NA,NA,NA,NA,NA,NA,NA,NA,NA,NA,NA
"32","stim/objects/HouseObjects/key2.png",78,12,78,0.7,"stim/23.jpeg",2,3,2,NA,"HouseObjects",1,3,"left","right",0.778000116,0,0,1,1,NA,NA,NA,NA,NA,NA,NA,NA,NA,NA,NA,NA,NA,NA,NA,NA,NA,NA,NA,NA,NA,NA,NA,NA
"14","stim/objects/HouseObjects/ironingboard.png",79,12,79,0.5,"stim/52.jpeg",5,2,1,NA,"HouseObjects",1,2,"left","right",0.652999878,0,0,1,1,NA,NA,NA,NA,NA,NA,NA,NA,NA,NA,NA,NA,NA,NA,NA,NA,NA,NA,NA,NA,NA,NA,NA,NA
"26","stim/objects/HouseObjects/key.png",80,12,80,0.5,"stim/53.jpeg",5,3,1,NA,"HouseObjects",1,2,"left","right",0.816999912,0,0,1,1,NA,NA,NA,NA,NA,NA,NA,NA,NA,NA,NA,NA,NA,NA,NA,NA,NA,NA,NA,NA,NA,NA,NA,NA
"122","stim/objects/Instruments/keyboard.png",81,12,81,0.5,"stim/51.jpeg",5,1,1,NA,"Instruments",2,1,"right","right",0.687000036,1,1,1,1,NA,NA,NA,NA,NA,NA,NA,NA,NA,NA,NA,NA,NA,NA,NA,NA,NA,NA,NA,NA,NA,NA,NA,NA
"15","stim/objects/HouseObjects/ironingboard.png",82,12,82,0.5,"stim/52.jpeg",5,2,1,NA,"HouseObjects",1,1,"left","right",0.84100008,0,0,1,1,NA,NA,NA,NA,NA,NA,NA,NA,NA,NA,NA,NA,NA,NA,NA,NA,NA,NA,NA,NA,NA,NA,NA,NA
"232","stim/objects/Instruments/record_player2.png",83,12,83,0.1,"stim/44.jpeg",4,4,3,NA,"Instruments",2,3,"right","left",0.913000107,0,0,1,1,NA,NA,NA,NA,NA,NA,NA,NA,NA,NA,NA,NA,NA,NA,NA,NA,NA,NA,NA,NA,NA,NA,NA,NA
"203","stim/objects/Instruments/oboe2.png",84,12,84,0.9,"stim/34.jpeg",3,4,3,NA,"Instruments",2,4,"right","right",0.638000011,1,1,1,1,NA,NA,NA,NA,NA,NA,NA,NA,NA,NA,NA,NA,NA,NA,NA,NA,NA,NA,NA,NA,NA,NA,NA,NA
"186","stim/objects/Instruments/musicstand2.png",85,12,85,0.9,"stim/33.jpeg",3,3,3,NA,"Instruments",2,1,"right","right",0.616999865,1,1,1,1,NA,NA,NA,NA,NA,NA,NA,NA,NA,NA,NA,NA,NA,NA,NA,NA,NA,NA,NA,NA,NA,NA,NA,NA
"86","stim/objects/HouseObjects/remote.png",86,12,86,0.3,"stim/12.jpeg",1,2,2,NA,"HouseObjects",1,1,"left","right",0.684999943,0,0,1,1,NA,NA,NA,NA,NA,NA,NA,NA,NA,NA,NA,NA,NA,NA,NA,NA,NA,NA,NA,NA,NA,NA,NA,NA
"126","stim/objects/Instruments/keyboard2.png",87,12,87,0.3,"stim/21.jpeg",2,1,2,NA,"Instruments",2,4,"right","left",0.613999844,0,0,1,1,NA,NA,NA,NA,NA,NA,NA,NA,NA,NA,NA,NA,NA,NA,NA,NA,NA,NA,NA,NA,NA,NA,NA,NA
"127","stim/objects/Instruments/keyboard2.png",88,12,88,0.3,"stim/21.jpeg",2,1,2,NA,"Instruments",2,4,"right","right",0.715000153,1,1,1,1,NA,NA,NA,NA,NA,NA,NA,NA,NA,NA,NA,NA,NA,NA,NA,NA,NA,NA,NA,NA,NA,NA,NA,NA
"2","stim/objects/HouseObjects/iron.png",89,12,89,0.5,"stim/51.jpeg",5,1,1,NA,"HouseObjects",1,1,"left","",NA,0,0,1,1,NA,NA,NA,NA,NA,NA,NA,NA,NA,NA,NA,NA,NA,NA,NA,NA,NA,NA,NA,NA,NA,NA,NA,NA
"22","stim/objects/HouseObjects/ironingboard2.png",90,12,90,0.7,"stim/22.jpeg",2,2,2,NA,"HouseObjects",1,4,"left","",NA,0,0,1,1,NA,NA,NA,NA,NA,NA,NA,NA,NA,NA,NA,NA,NA,NA,NA,NA,NA,NA,NA,NA,NA,NA,NA,NA
"228","stim/objects/Instruments/record_player.png",91,12,91,0.7,"stim/14.jpeg",1,4,2,NA,"Instruments",2,1,"right","right",0.618999958,1,1,1,1,NA,NA,NA,NA,NA,NA,NA,NA,NA,NA,NA,NA,NA,NA,NA,NA,NA,NA,NA,NA,NA,NA,NA,NA
"98","stim/objects/HouseObjects/rubbergloves.png",92,12,92,0.3,"stim/13.jpeg",1,3,2,NA,"HouseObjects",1,4,"left","right",0.621999979,0,0,1,1,NA,NA,NA,NA,NA,NA,NA,NA,NA,NA,NA,NA,NA,NA,NA,NA,NA,NA,NA,NA,NA,NA,NA,NA
"44","stim/objects/HouseObjects/knife2.png",93,12,93,0.7,"stim/24.jpeg",2,4,2,NA,"HouseObjects",1,4,"left","",NA,0,0,1,1,NA,NA,NA,NA,NA,NA,NA,NA,NA,NA,NA,NA,NA,NA,NA,NA,NA,NA,NA,NA,NA,NA,NA,NA
"74","stim/objects/HouseObjects/recyclingbin.png",94,12,94,0.3,"stim/11.jpeg",1,1,2,NA,"HouseObjects",1,2,"left","",NA,0,0,1,1,NA,NA,NA,NA,NA,NA,NA,NA,NA,NA,NA,NA,NA,NA,NA,NA,NA,NA,NA,NA,NA,NA,NA,NA
"229","stim/objects/Instruments/record_player.png",95,12,95,0.7,"stim/14.jpeg",1,4,2,NA,"Instruments",2,3,"right","",NA,0,0,1,1,NA,NA,NA,NA,NA,NA,NA,NA,NA,NA,NA,NA,NA,NA,NA,NA,NA,NA,NA,NA,NA,NA,NA,NA
"8","stim/objects/HouseObjects/iron2.png",96,12,96,0.7,"stim/21.jpeg",2,1,2,NA,"HouseObjects",1,1,"left","left",0.670000076,1,1,1,1,NA,NA,NA,NA,NA,NA,NA,NA,NA,NA,NA,NA,NA,NA,NA,NA,NA,NA,NA,NA,NA,NA,NA,NA
"176","stim/objects/Instruments/musicsheet2.png",97,12,97,0.9,"stim/32.jpeg",3,2,3,NA,"Instruments",2,3,"right","right",0.644000053,1,1,1,1,NA,NA,NA,NA,NA,NA,NA,NA,NA,NA,NA,NA,NA,NA,NA,NA,NA,NA,NA,NA,NA,NA,NA,NA
"161","stim/objects/Instruments/metronome2.png",98,12,98,0.9,"stim/31.jpeg",3,1,3,NA,"Instruments",2,3,"right","right",0.569999933,1,1,1,1,NA,NA,NA,NA,NA,NA,NA,NA,NA,NA,NA,NA,NA,NA,NA,NA,NA,NA,NA,NA,NA,NA,NA,NA
"235","stim/objects/Instruments/record.png",99,12,99,0.7,"stim/13.jpeg",1,3,2,NA,"Instruments",2,2,"right","left",0.900000095,0,0,1,1,NA,NA,NA,NA,NA,NA,NA,NA,NA,NA,NA,NA,NA,NA,NA,NA,NA,NA,NA,NA,NA,NA,NA,NA
"63","stim/objects/HouseObjects/pan.png",100,12,100,0.5,"stim/63.jpeg",6,3,1,NA,"HouseObjects",1,1,"left","right",0.743999958,0,0,1,1,NA,NA,NA,NA,NA,NA,NA,NA,NA,NA,NA,NA,NA,NA,NA,NA,NA,NA,NA,NA,NA,NA,NA,NA
"129","stim/objects/Instruments/laud.png",101,12,101,0.5,"stim/52.jpeg",5,2,1,NA,"Instruments",2,2,"right","right",0.65199995,1,1,1,1,NA,NA,NA,NA,NA,NA,NA,NA,NA,NA,NA,NA,NA,NA,NA,NA,NA,NA,NA,NA,NA,NA,NA,NA
"99","stim/objects/HouseObjects/rubbergloves.png",102,12,102,0.3,"stim/13.jpeg",1,3,2,NA,"HouseObjects",1,4,"left","right",0.792000055,0,0,1,1,NA,NA,NA,NA,NA,NA,NA,NA,NA,NA,NA,NA,NA,NA,NA,NA,NA,NA,NA,NA,NA,NA,NA,NA
"91","stim/objects/HouseObjects/remote2.png",103,12,103,0.9,"stim/42.jpeg",4,2,3,NA,"HouseObjects",1,3,"left","left",0.630000114,1,1,1,1,NA,NA,NA,NA,NA,NA,NA,NA,NA,NA,NA,NA,NA,NA,NA,NA,NA,NA,NA,NA,NA,NA,NA,NA
"3","stim/objects/HouseObjects/iron.png",104,12,104,0.5,"stim/51.jpeg",5,1,1,NA,"HouseObjects",1,1,"left","right",0.644999981,0,0,1,1,NA,NA,NA,NA,NA,NA,NA,NA,NA,NA,NA,NA,NA,NA,NA,NA,NA,NA,NA,NA,NA,NA,NA,NA
"162","stim/objects/Instruments/metronome2.png",105,12,105,0.9,"stim/31.jpeg",3,1,3,NA,"Instruments",2,1,"right","",NA,0,0,1,1,NA,NA,NA,NA,NA,NA,NA,NA,NA,NA,NA,NA,NA,NA,NA,NA,NA,NA,NA,NA,NA,NA,NA,NA
"78","stim/objects/HouseObjects/recyclingbin2.png",106,12,106,0.9,"stim/41.jpeg",4,1,3,NA,"HouseObjects",1,1,"left","left",0.773000002,1,1,1,1,NA,NA,NA,NA,NA,NA,NA,NA,NA,NA,NA,NA,NA,NA,NA,NA,NA,NA,NA,NA,NA,NA,NA,NA
"147","stim/objects/Instruments/marimba.png",107,12,107,0.5,"stim/54.jpeg",5,4,1,NA,"Instruments",2,2,"right","right",0.720000029,1,1,1,1,NA,NA,NA,NA,NA,NA,NA,NA,NA,NA,NA,NA,NA,NA,NA,NA,NA,NA,NA,NA,NA,NA,NA,NA
"187","stim/objects/Instruments/musicstand2.png",108,12,108,0.9,"stim/33.jpeg",3,3,3,NA,"Instruments",2,1,"right","right",0.578999996,1,1,1,1,NA,NA,NA,NA,NA,NA,NA,NA,NA,NA,NA,NA,NA,NA,NA,NA,NA,NA,NA,NA,NA,NA,NA,NA
"79","stim/objects/HouseObjects/recyclingbin2.png",109,12,109,0.9,"stim/41.jpeg",4,1,3,NA,"HouseObjects",1,3,"left","left",0.51699996,1,1,1,1,NA,NA,NA,NA,NA,NA,NA,NA,NA,NA,NA,NA,NA,NA,NA,NA,NA,NA,NA,NA,NA,NA,NA,NA
"204","stim/objects/Instruments/oboe2.png",110,12,110,0.9,"stim/34.jpeg",3,4,3,NA,"Instruments",2,2,"right","right",0.523999929,1,1,1,1,NA,NA,NA,NA,NA,NA,NA,NA,NA,NA,NA,NA,NA,NA,NA,NA,NA,NA,NA,NA,NA,NA,NA,NA
"240","stim/objects/Instruments/record2.png",111,12,111,0.1,"stim/43.jpeg",4,3,3,NA,"Instruments",2,3,"right","left",0.579999924,0,0,1,1,NA,NA,NA,NA,NA,NA,NA,NA,NA,NA,NA,NA,NA,NA,NA,NA,NA,NA,NA,NA,NA,NA,NA,NA
"236","stim/objects/Instruments/record.png",112,12,112,0.7,"stim/13.jpeg",1,3,2,NA,"Instruments",2,1,"right","right",0.667000055,1,1,1,1,NA,NA,NA,NA,NA,NA,NA,NA,NA,NA,NA,NA,NA,NA,NA,NA,NA,NA,NA,NA,NA,NA,NA,NA
"123","stim/objects/Instruments/keyboard.png",113,12,113,0.5,"stim/51.jpeg",5,1,1,NA,"Instruments",2,4,"right","right",0.628999949,1,1,1,1,NA,NA,NA,NA,NA,NA,NA,NA,NA,NA,NA,NA,NA,NA,NA,NA,NA,NA,NA,NA,NA,NA,NA,NA
"188","stim/objects/Instruments/musicstand2.png",114,12,114,0.9,"stim/33.jpeg",3,3,3,NA,"Instruments",2,4,"right","right",0.654000044,1,1,1,1,NA,NA,NA,NA,NA,NA,NA,NA,NA,NA,NA,NA,NA,NA,NA,NA,NA,NA,NA,NA,NA,NA,NA,NA
"67","stim/objects/HouseObjects/pitcher.png",115,12,115,0.5,"stim/64.jpeg",6,4,1,NA,"HouseObjects",1,1,"left","left",0.882000208,1,1,1,1,NA,NA,NA,NA,NA,NA,NA,NA,NA,NA,NA,NA,NA,NA,NA,NA,NA,NA,NA,NA,NA,NA,NA,NA
"196","stim/objects/Instruments/oboe.png",116,12,116,0.5,"stim/64.jpeg",6,4,1,NA,"Instruments",2,3,"right","left",0.735000134,0,0,1,1,NA,NA,NA,NA,NA,NA,NA,NA,NA,NA,NA,NA,NA,NA,NA,NA,NA,NA,NA,NA,NA,NA,NA,NA
"39","stim/objects/HouseObjects/knife.png",117,12,117,0.5,"stim/54.jpeg",5,4,1,NA,"HouseObjects",1,1,"left","right",0.767000198,0,0,1,1,NA,NA,NA,NA,NA,NA,NA,NA,NA,NA,NA,NA,NA,NA,NA,NA,NA,NA,NA,NA,NA,NA,NA,NA
"27","stim/objects/HouseObjects/key.png",118,12,118,0.5,"stim/53.jpeg",5,3,1,NA,"HouseObjects",1,3,"left","right",0.58100009,0,0,1,1,NA,NA,NA,NA,NA,NA,NA,NA,NA,NA,NA,NA,NA,NA,NA,NA,NA,NA,NA,NA,NA,NA,NA,NA
"128","stim/objects/Instruments/keyboard2.png",119,12,119,0.3,"stim/21.jpeg",2,1,2,NA,"Instruments",2,2,"right","left",0.684999943,0,0,1,1,NA,NA,NA,NA,NA,NA,NA,NA,NA,NA,NA,NA,NA,NA,NA,NA,NA,NA,NA,NA,NA,NA,NA,NA
"189","stim/objects/Instruments/musicstand2.png",120,12,120,0.9,"stim/33.jpeg",3,3,3,NA,"Instruments",2,2,"right","left",0.819999933,0,0,1,1,NA,NA,NA,NA,NA,NA,NA,NA,NA,NA,NA,NA,NA,NA,NA,NA,NA,NA,NA,NA,NA,NA,NA,NA
"16","stim/objects/HouseObjects/ironingboard.png",121,12,121,0.5,"stim/52.jpeg",5,2,1,NA,"HouseObjects",1,3,"left","left",0.638000011,1,1,1,1,NA,NA,NA,NA,NA,NA,NA,NA,NA,NA,NA,NA,NA,NA,NA,NA,NA,NA,NA,NA,NA,NA,NA,NA
"163","stim/objects/Instruments/metronome2.png",122,12,122,0.9,"stim/31.jpeg",3,1,3,NA,"Instruments",2,2,"right","right",0.608999968,1,1,1,1,NA,NA,NA,NA,NA,NA,NA,NA,NA,NA,NA,NA,NA,NA,NA,NA,NA,NA,NA,NA,NA,NA,NA,NA
"80","stim/objects/HouseObjects/recyclingbin2.png",123,12,123,0.9,"stim/41.jpeg",4,1,3,NA,"HouseObjects",1,3,"left","left",0.648000002,1,1,1,1,NA,NA,NA,NA,NA,NA,NA,NA,NA,NA,NA,NA,NA,NA,NA,NA,NA,NA,NA,NA,NA,NA,NA,NA
"33","stim/objects/HouseObjects/key2.png",124,12,124,0.7,"stim/23.jpeg",2,3,2,NA,"HouseObjects",1,3,"left","right",0.849999905,0,0,1,1,NA,NA,NA,NA,NA,NA,NA,NA,NA,NA,NA,NA,NA,NA,NA,NA,NA,NA,NA,NA,NA,NA,NA,NA
"237","stim/objects/Instruments/record.png",125,12,125,0.7,"stim/13.jpeg",1,3,2,NA,"Instruments",2,4,"right","right",0.788000107,1,1,1,1,NA,NA,NA,NA,NA,NA,NA,NA,NA,NA,NA,NA,NA,NA,NA,NA,NA,NA,NA,NA,NA,NA,NA,NA
"190","stim/objects/Instruments/musicstand2.png",126,12,126,0.9,"stim/33.jpeg",3,3,3,NA,"Instruments",2,2,"right","right",0.59800005,1,1,1,1,NA,NA,NA,NA,NA,NA,NA,NA,NA,NA,NA,NA,NA,NA,NA,NA,NA,NA,NA,NA,NA,NA,NA,NA
"23","stim/objects/HouseObjects/ironingboard2.png",127,12,127,0.7,"stim/22.jpeg",2,2,2,NA,"HouseObjects",1,3,"left","right",0.792999983,0,0,1,1,NA,NA,NA,NA,NA,NA,NA,NA,NA,NA,NA,NA,NA,NA,NA,NA,NA,NA,NA,NA,NA,NA,NA,NA
"137","stim/objects/Instruments/maraca.png",128,12,128,0.5,"stim/53.jpeg",5,3,1,NA,"Instruments",2,3,"right","left",0.885999918,0,0,1,1,NA,NA,NA,NA,NA,NA,NA,NA,NA,NA,NA,NA,NA,NA,NA,NA,NA,NA,NA,NA,NA,NA,NA,NA
"114","stim/objects/HouseObjects/rug2.png",129,12,129,0.9,"stim/44.jpeg",4,4,3,NA,"HouseObjects",1,4,"left","left",0.644000053,1,1,1,1,NA,NA,NA,NA,NA,NA,NA,NA,NA,NA,NA,NA,NA,NA,NA,NA,NA,NA,NA,NA,NA,NA,NA,NA
"197","stim/objects/Instruments/oboe.png",130,12,130,0.5,"stim/64.jpeg",6,4,1,NA,"Instruments",2,3,"right","left",0.73300004,0,0,1,1,NA,NA,NA,NA,NA,NA,NA,NA,NA,NA,NA,NA,NA,NA,NA,NA,NA,NA,NA,NA,NA,NA,NA,NA
"40","stim/objects/HouseObjects/knife.png",131,12,131,0.5,"stim/54.jpeg",5,4,1,NA,"HouseObjects",1,2,"left","right",0.752000093,0,0,1,1,NA,NA,NA,NA,NA,NA,NA,NA,NA,NA,NA,NA,NA,NA,NA,NA,NA,NA,NA,NA,NA,NA,NA,NA
"191","stim/objects/Instruments/musicstand2.png",132,12,132,0.9,"stim/33.jpeg",3,3,3,NA,"Instruments",2,2,"right","right",0.634000063,1,1,1,1,NA,NA,NA,NA,NA,NA,NA,NA,NA,NA,NA,NA,NA,NA,NA,NA,NA,NA,NA,NA,NA,NA,NA,NA
"68","stim/objects/HouseObjects/pitcher.png",133,12,133,0.5,"stim/64.jpeg",6,4,1,NA,"HouseObjects",1,4,"left","left",0.697999954,1,1,1,1,NA,NA,NA,NA,NA,NA,NA,NA,NA,NA,NA,NA,NA,NA,NA,NA,NA,NA,NA,NA,NA,NA,NA,NA
"182","stim/objects/Instruments/musicstand.png",134,12,134,0.5,"stim/63.jpeg",6,3,1,NA,"Instruments",2,1,"right","right",0.795000076,1,1,1,1,NA,NA,NA,NA,NA,NA,NA,NA,NA,NA,NA,NA,NA,NA,NA,NA,NA,NA,NA,NA,NA,NA,NA,NA
"168","stim/objects/Instruments/musicsheet.png",135,12,135,0.5,"stim/62.jpeg",6,2,1,NA,"Instruments",2,2,"right","left",0.845999956,0,0,1,1,NA,NA,NA,NA,NA,NA,NA,NA,NA,NA,NA,NA,NA,NA,NA,NA,NA,NA,NA,NA,NA,NA,NA,NA
"177","stim/objects/Instruments/musicsheet2.png",136,12,136,0.9,"stim/32.jpeg",3,2,3,NA,"Instruments",2,4,"right","",NA,0,0,1,1,NA,NA,NA,NA,NA,NA,NA,NA,NA,NA,NA,NA,NA,NA,NA,NA,NA,NA,NA,NA,NA,NA,NA,NA
"152","stim/objects/Instruments/marimba2.png",137,12,137,0.3,"stim/24.jpeg",2,4,2,NA,"Instruments",2,2,"right","left",0.700000048,0,0,1,1,NA,NA,NA,NA,NA,NA,NA,NA,NA,NA,NA,NA,NA,NA,NA,NA,NA,NA,NA,NA,NA,NA,NA,NA
"192","stim/objects/Instruments/musicstand2.png",138,12,138,0.9,"stim/33.jpeg",3,3,3,NA,"Instruments",2,2,"right","right",0.56799984,1,1,1,1,NA,NA,NA,NA,NA,NA,NA,NA,NA,NA,NA,NA,NA,NA,NA,NA,NA,NA,NA,NA,NA,NA,NA,NA
"219","stim/objects/Instruments/pipepiano.png",139,12,139,0.7,"stim/12.jpeg",1,2,2,NA,"Instruments",2,1,"right","right",0.637000084,1,1,1,1,NA,NA,NA,NA,NA,NA,NA,NA,NA,NA,NA,NA,NA,NA,NA,NA,NA,NA,NA,NA,NA,NA,NA,NA
"9","stim/objects/HouseObjects/iron2.png",140,12,140,0.7,"stim/21.jpeg",2,1,2,NA,"HouseObjects",1,1,"left","left",0.607000113,1,1,1,1,NA,NA,NA,NA,NA,NA,NA,NA,NA,NA,NA,NA,NA,NA,NA,NA,NA,NA,NA,NA,NA,NA,NA,NA
"138","stim/objects/Instruments/maraca.png",141,12,141,0.5,"stim/53.jpeg",5,3,1,NA,"Instruments",2,2,"right","right",0.65199995,1,1,1,1,NA,NA,NA,NA,NA,NA,NA,NA,NA,NA,NA,NA,NA,NA,NA,NA,NA,NA,NA,NA,NA,NA,NA,NA
"56","stim/objects/HouseObjects/match.png",142,12,142,0.5,"stim/62.jpeg",6,2,1,NA,"HouseObjects",1,3,"left","right",0.789999962,0,0,1,1,NA,NA,NA,NA,NA,NA,NA,NA,NA,NA,NA,NA,NA,NA,NA,NA,NA,NA,NA,NA,NA,NA,NA,NA
"69","stim/objects/HouseObjects/pitcher.png",143,12,143,0.5,"stim/64.jpeg",6,4,1,NA,"HouseObjects",1,3,"left","left",0.715000153,1,1,1,1,NA,NA,NA,NA,NA,NA,NA,NA,NA,NA,NA,NA,NA,NA,NA,NA,NA,NA,NA,NA,NA,NA,NA,NA
"124","stim/objects/Instruments/keyboard.png",144,12,144,0.5,"stim/51.jpeg",5,1,1,NA,"Instruments",2,1,"right","right",0.667999983,1,1,1,1,NA,NA,NA,NA,NA,NA,NA,NA,NA,NA,NA,NA,NA,NA,NA,NA,NA,NA,NA,NA,NA,NA,NA,NA
"139","stim/objects/Instruments/maraca.png",145,12,145,0.5,"stim/53.jpeg",5,3,1,NA,"Instruments",2,2,"right","right",0.542999983,1,1,1,1,NA,NA,NA,NA,NA,NA,NA,NA,NA,NA,NA,NA,NA,NA,NA,NA,NA,NA,NA,NA,NA,NA,NA,NA
"103","stim/objects/HouseObjects/rubbergloves2.png",146,12,146,0.9,"stim/43.jpeg",4,3,3,NA,"HouseObjects",1,2,"left","left",0.56799984,1,1,1,1,NA,NA,NA,NA,NA,NA,NA,NA,NA,NA,NA,NA,NA,NA,NA,NA,NA,NA,NA,NA,NA,NA,NA,NA
"104","stim/objects/HouseObjects/rubbergloves2.png",147,12,147,0.9,"stim/43.jpeg",4,3,3,NA,"HouseObjects",1,2,"left","left",0.454999924,1,1,1,1,NA,NA,NA,NA,NA,NA,NA,NA,NA,NA,NA,NA,NA,NA,NA,NA,NA,NA,NA,NA,NA,NA,NA,NA
"220","stim/objects/Instruments/pipepiano.png",148,12,148,0.7,"stim/12.jpeg",1,2,2,NA,"Instruments",2,2,"right","right",0.589999914,1,1,1,1,NA,NA,NA,NA,NA,NA,NA,NA,NA,NA,NA,NA,NA,NA,NA,NA,NA,NA,NA,NA,NA,NA,NA,NA
"92","stim/objects/HouseObjects/remote2.png",149,12,149,0.9,"stim/42.jpeg",4,2,3,NA,"HouseObjects",1,1,"left","left",0.554000139,1,1,1,1,NA,NA,NA,NA,NA,NA,NA,NA,NA,NA,NA,NA,NA,NA,NA,NA,NA,NA,NA,NA,NA,NA,NA,NA
"81","stim/objects/HouseObjects/recyclingbin2.png",150,12,150,0.9,"stim/41.jpeg",4,1,3,NA,"HouseObjects",1,1,"left","left",0.544000149,1,1,1,1,NA,NA,NA,NA,NA,NA,NA,NA,NA,NA,NA,NA,NA,NA,NA,NA,NA,NA,NA,NA,NA,NA,NA,NA
"105","stim/objects/HouseObjects/rubbergloves2.png",151,12,151,0.9,"stim/43.jpeg",4,3,3,NA,"HouseObjects",1,3,"left","left",0.470000029,1,1,1,1,NA,NA,NA,NA,NA,NA,NA,NA,NA,NA,NA,NA,NA,NA,NA,NA,NA,NA,NA,NA,NA,NA,NA,NA
"178","stim/objects/Instruments/musicsheet2.png",152,12,152,0.9,"stim/32.jpeg",3,2,3,NA,"Instruments",2,4,"right","right",0.553999901,1,1,1,1,NA,NA,NA,NA,NA,NA,NA,NA,NA,NA,NA,NA,NA,NA,NA,NA,NA,NA,NA,NA,NA,NA,NA,NA
"82","stim/objects/HouseObjects/recyclingbin2.png",153,12,153,0.9,"stim/41.jpeg",4,1,3,NA,"HouseObjects",1,1,"left","left",0.621000051,1,1,1,1,NA,NA,NA,NA,NA,NA,NA,NA,NA,NA,NA,NA,NA,NA,NA,NA,NA,NA,NA,NA,NA,NA,NA,NA
"106","stim/objects/HouseObjects/rubbergloves2.png",154,12,154,0.9,"stim/43.jpeg",4,3,3,NA,"HouseObjects",1,4,"left","left",0.521999836,1,1,1,1,NA,NA,NA,NA,NA,NA,NA,NA,NA,NA,NA,NA,NA,NA,NA,NA,NA,NA,NA,NA,NA,NA,NA,NA
"130","stim/objects/Instruments/laud.png",155,12,155,0.5,"stim/52.jpeg",5,2,1,NA,"Instruments",2,4,"right","right",0.710000038,1,1,1,1,NA,NA,NA,NA,NA,NA,NA,NA,NA,NA,NA,NA,NA,NA,NA,NA,NA,NA,NA,NA,NA,NA,NA,NA
"125","stim/objects/Instruments/keyboard.png",156,12,156,0.5,"stim/51.jpeg",5,1,1,NA,"Instruments",2,4,"right","right",0.833999872,1,1,1,1,NA,NA,NA,NA,NA,NA,NA,NA,NA,NA,NA,NA,NA,NA,NA,NA,NA,NA,NA,NA,NA,NA,NA,NA
"140","stim/objects/Instruments/maraca.png",157,12,157,0.5,"stim/53.jpeg",5,3,1,NA,"Instruments",2,4,"right","right",0.784000158,1,1,1,1,NA,NA,NA,NA,NA,NA,NA,NA,NA,NA,NA,NA,NA,NA,NA,NA,NA,NA,NA,NA,NA,NA,NA,NA
"41","stim/objects/HouseObjects/knife.png",158,12,158,0.5,"stim/54.jpeg",5,4,1,NA,"HouseObjects",1,3,"left","left",0.670000076,1,1,1,1,NA,NA,NA,NA,NA,NA,NA,NA,NA,NA,NA,NA,NA,NA,NA,NA,NA,NA,NA,NA,NA,NA,NA,NA
"57","stim/objects/HouseObjects/match.png",159,12,159,0.5,"stim/62.jpeg",6,2,1,NA,"HouseObjects",1,1,"left","left",0.85800004,1,1,1,1,NA,NA,NA,NA,NA,NA,NA,NA,NA,NA,NA,NA,NA,NA,NA,NA,NA,NA,NA,NA,NA,NA,NA,NA
"51","stim/objects/HouseObjects/lintroller.png",160,12,160,0.5,"stim/61.jpeg",6,1,1,NA,"HouseObjects",1,2,"left","left",0.875999928,1,1,1,1,NA,NA,NA,NA,NA,NA,NA,NA,NA,NA,NA,NA,NA,NA,NA,NA,NA,NA,NA,NA,NA,NA,NA,NA
"70","stim/objects/HouseObjects/pitcher.png",161,12,161,0.5,"stim/64.jpeg",6,4,1,NA,"HouseObjects",1,3,"left","left",0.620000124,1,1,1,1,NA,NA,NA,NA,NA,NA,NA,NA,NA,NA,NA,NA,NA,NA,NA,NA,NA,NA,NA,NA,NA,NA,NA,NA
"143","stim/objects/Instruments/maraca2.png",162,12,162,0.3,"stim/23.jpeg",2,3,2,NA,"Instruments",2,2,"right","left",0.694000006,0,0,1,1,NA,NA,NA,NA,NA,NA,NA,NA,NA,NA,NA,NA,NA,NA,NA,NA,NA,NA,NA,NA,NA,NA,NA,NA
"58","stim/objects/HouseObjects/match.png",163,12,163,0.5,"stim/62.jpeg",6,2,1,NA,"HouseObjects",1,4,"left","",NA,0,0,1,1,NA,NA,NA,NA,NA,NA,NA,NA,NA,NA,NA,NA,NA,NA,NA,NA,NA,NA,NA,NA,NA,NA,NA,NA
"169","stim/objects/Instruments/musicsheet.png",164,12,164,0.5,"stim/62.jpeg",6,2,1,NA,"Instruments",2,2,"right","left",0.612999916,0,0,1,1,NA,NA,NA,NA,NA,NA,NA,NA,NA,NA,NA,NA,NA,NA,NA,NA,NA,NA,NA,NA,NA,NA,NA,NA
"144","stim/objects/Instruments/maraca2.png",165,12,165,0.3,"stim/23.jpeg",2,3,2,NA,"Instruments",2,1,"right","left",0.542999983,0,0,1,1,NA,NA,NA,NA,NA,NA,NA,NA,NA,NA,NA,NA,NA,NA,NA,NA,NA,NA,NA,NA,NA,NA,NA,NA
"230","stim/objects/Instruments/record_player.png",166,12,166,0.7,"stim/14.jpeg",1,4,2,NA,"Instruments",2,4,"right","",NA,0,0,1,1,NA,NA,NA,NA,NA,NA,NA,NA,NA,NA,NA,NA,NA,NA,NA,NA,NA,NA,NA,NA,NA,NA,NA,NA
"10","stim/objects/HouseObjects/iron2.png",167,12,167,0.7,"stim/21.jpeg",2,1,2,NA,"HouseObjects",1,3,"left","left",0.569000006,1,1,1,1,NA,NA,NA,NA,NA,NA,NA,NA,NA,NA,NA,NA,NA,NA,NA,NA,NA,NA,NA,NA,NA,NA,NA,NA
"93","stim/objects/HouseObjects/remote2.png",168,12,168,0.9,"stim/42.jpeg",4,2,3,NA,"HouseObjects",1,3,"left","left",0.667000055,1,1,1,1,NA,NA,NA,NA,NA,NA,NA,NA,NA,NA,NA,NA,NA,NA,NA,NA,NA,NA,NA,NA,NA,NA,NA,NA
"183","stim/objects/Instruments/musicstand.png",169,12,169,0.5,"stim/63.jpeg",6,3,1,NA,"Instruments",2,4,"right","right",0.717000008,1,1,1,1,NA,NA,NA,NA,NA,NA,NA,NA,NA,NA,NA,NA,NA,NA,NA,NA,NA,NA,NA,NA,NA,NA,NA,NA
"94","stim/objects/HouseObjects/remote2.png",170,12,170,0.9,"stim/42.jpeg",4,2,3,NA,"HouseObjects",1,2,"left","left",0.47300005,1,1,1,1,NA,NA,NA,NA,NA,NA,NA,NA,NA,NA,NA,NA,NA,NA,NA,NA,NA,NA,NA,NA,NA,NA,NA,NA
"75","stim/objects/HouseObjects/recyclingbin.png",171,12,171,0.3,"stim/11.jpeg",1,1,2,NA,"HouseObjects",1,1,"left","right",0.592000008,0,0,1,1,NA,NA,NA,NA,NA,NA,NA,NA,NA,NA,NA,NA,NA,NA,NA,NA,NA,NA,NA,NA,NA,NA,NA,NA
"64","stim/objects/HouseObjects/pan.png",172,12,172,0.5,"stim/63.jpeg",6,3,1,NA,"HouseObjects",1,4,"left","right",0.611999989,0,0,1,1,NA,NA,NA,NA,NA,NA,NA,NA,NA,NA,NA,NA,NA,NA,NA,NA,NA,NA,NA,NA,NA,NA,NA,NA
"115","stim/objects/HouseObjects/rug2.png",173,12,173,0.9,"stim/44.jpeg",4,4,3,NA,"HouseObjects",1,2,"left","left",0.694000006,1,1,1,1,NA,NA,NA,NA,NA,NA,NA,NA,NA,NA,NA,NA,NA,NA,NA,NA,NA,NA,NA,NA,NA,NA,NA,NA
"205","stim/objects/Instruments/oboe2.png",174,12,174,0.9,"stim/34.jpeg",3,4,3,NA,"Instruments",2,3,"right","right",0.579999924,1,1,1,1,NA,NA,NA,NA,NA,NA,NA,NA,NA,NA,NA,NA,NA,NA,NA,NA,NA,NA,NA,NA,NA,NA,NA,NA
"87","stim/objects/HouseObjects/remote.png",175,12,175,0.3,"stim/12.jpeg",1,2,2,NA,"HouseObjects",1,2,"left","right",0.644000053,0,0,1,1,NA,NA,NA,NA,NA,NA,NA,NA,NA,NA,NA,NA,NA,NA,NA,NA,NA,NA,NA,NA,NA,NA,NA,NA
"59","stim/objects/HouseObjects/match.png",176,12,176,0.5,"stim/62.jpeg",6,2,1,NA,"HouseObjects",1,3,"left","right",0.657999992,0,0,1,1,NA,NA,NA,NA,NA,NA,NA,NA,NA,NA,NA,NA,NA,NA,NA,NA,NA,NA,NA,NA,NA,NA,NA,NA
"45","stim/objects/HouseObjects/knife2.png",177,12,177,0.7,"stim/24.jpeg",2,4,2,NA,"HouseObjects",1,2,"left","left",0.697999954,1,1,1,1,NA,NA,NA,NA,NA,NA,NA,NA,NA,NA,NA,NA,NA,NA,NA,NA,NA,NA,NA,NA,NA,NA,NA,NA
"83","stim/objects/HouseObjects/recyclingbin2.png",178,12,178,0.9,"stim/41.jpeg",4,1,3,NA,"HouseObjects",1,2,"left","left",0.532000065,1,1,1,1,NA,NA,NA,NA,NA,NA,NA,NA,NA,NA,NA,NA,NA,NA,NA,NA,NA,NA,NA,NA,NA,NA,NA,NA
"193","stim/objects/Instruments/musicstand2.png",179,12,179,0.9,"stim/33.jpeg",3,3,3,NA,"Instruments",2,2,"right","right",0.603999853,1,1,1,1,NA,NA,NA,NA,NA,NA,NA,NA,NA,NA,NA,NA,NA,NA,NA,NA,NA,NA,NA,NA,NA,NA,NA,NA
"24","stim/objects/HouseObjects/ironingboard2.png",180,12,180,0.7,"stim/22.jpeg",2,2,2,NA,"HouseObjects",1,1,"left","left",0.57799983,1,1,1,1,NA,NA,NA,NA,NA,NA,NA,NA,NA,NA,NA,NA,NA,NA,NA,NA,NA,NA,NA,NA,NA,NA,NA,NA
"148","stim/objects/Instruments/marimba.png",181,12,181,0.5,"stim/54.jpeg",5,4,1,NA,"Instruments",2,3,"right","right",0.832999945,1,1,1,1,NA,NA,NA,NA,NA,NA,NA,NA,NA,NA,NA,NA,NA,NA,NA,NA,NA,NA,NA,NA,NA,NA,NA,NA
"155","stim/objects/Instruments/metronome.png",182,12,182,0.5,"stim/61.jpeg",6,1,1,NA,"Instruments",2,1,"right","left",0.822000027,0,0,1,1,NA,NA,NA,NA,NA,NA,NA,NA,NA,NA,NA,NA,NA,NA,NA,NA,NA,NA,NA,NA,NA,NA,NA,NA
"46","stim/objects/HouseObjects/knife2.png",183,12,183,0.7,"stim/24.jpeg",2,4,2,NA,"HouseObjects",1,3,"left","left",0.589999914,1,1,1,1,NA,NA,NA,NA,NA,NA,NA,NA,NA,NA,NA,NA,NA,NA,NA,NA,NA,NA,NA,NA,NA,NA,NA,NA
"164","stim/objects/Instruments/metronome2.png",184,12,184,0.9,"stim/31.jpeg",3,1,3,NA,"Instruments",2,1,"right","right",0.572999954,1,1,1,1,NA,NA,NA,NA,NA,NA,NA,NA,NA,NA,NA,NA,NA,NA,NA,NA,NA,NA,NA,NA,NA,NA,NA,NA
"71","stim/objects/HouseObjects/pitcher.png",185,12,185,0.5,"stim/64.jpeg",6,4,1,NA,"HouseObjects",1,4,"left","left",0.700999975,1,1,1,1,NA,NA,NA,NA,NA,NA,NA,NA,NA,NA,NA,NA,NA,NA,NA,NA,NA,NA,NA,NA,NA,NA,NA,NA
"52","stim/objects/HouseObjects/lintroller.png",186,12,186,0.5,"stim/61.jpeg",6,1,1,NA,"HouseObjects",1,4,"left","right",0.621000051,0,0,1,1,NA,NA,NA,NA,NA,NA,NA,NA,NA,NA,NA,NA,NA,NA,NA,NA,NA,NA,NA,NA,NA,NA,NA,NA
"28","stim/objects/HouseObjects/key.png",187,12,187,0.5,"stim/53.jpeg",5,3,1,NA,"HouseObjects",1,4,"left","",NA,0,0,1,1,NA,NA,NA,NA,NA,NA,NA,NA,NA,NA,NA,NA,NA,NA,NA,NA,NA,NA,NA,NA,NA,NA,NA,NA
"11","stim/objects/HouseObjects/iron2.png",188,12,188,0.7,"stim/21.jpeg",2,1,2,NA,"HouseObjects",1,1,"left","left",0.592000008,1,1,1,1,NA,NA,NA,NA,NA,NA,NA,NA,NA,NA,NA,NA,NA,NA,NA,NA,NA,NA,NA,NA,NA,NA,NA,NA
"221","stim/objects/Instruments/pipepiano.png",189,12,189,0.7,"stim/12.jpeg",1,2,2,NA,"Instruments",2,2,"right","right",0.597999811,1,1,1,1,NA,NA,NA,NA,NA,NA,NA,NA,NA,NA,NA,NA,NA,NA,NA,NA,NA,NA,NA,NA,NA,NA,NA,NA
"222","stim/objects/Instruments/pipepiano.png",190,12,190,0.7,"stim/12.jpeg",1,2,2,NA,"Instruments",2,3,"right","right",0.640000105,1,1,1,1,NA,NA,NA,NA,NA,NA,NA,NA,NA,NA,NA,NA,NA,NA,NA,NA,NA,NA,NA,NA,NA,NA,NA,NA
"12","stim/objects/HouseObjects/iron2.png",191,12,191,0.7,"stim/21.jpeg",2,1,2,NA,"HouseObjects",1,2,"left","left",0.551999807,1,1,1,1,NA,NA,NA,NA,NA,NA,NA,NA,NA,NA,NA,NA,NA,NA,NA,NA,NA,NA,NA,NA,NA,NA,NA,NA
"4","stim/objects/HouseObjects/iron.png",192,12,192,0.5,"stim/51.jpeg",5,1,1,NA,"HouseObjects",1,2,"left","right",0.897000074,0,0,1,1,NA,NA,NA,NA,NA,NA,NA,NA,NA,NA,NA,NA,NA,NA,NA,NA,NA,NA,NA,NA,NA,NA,NA,NA
"215","stim/objects/Instruments/panflute.png",193,12,193,0.7,"stim/11.jpeg",1,1,2,NA,"Instruments",2,3,"right","right",0.645999908,1,1,1,1,NA,NA,NA,NA,NA,NA,NA,NA,NA,NA,NA,NA,NA,NA,NA,NA,NA,NA,NA,NA,NA,NA,NA,NA
"47","stim/objects/HouseObjects/knife2.png",194,12,194,0.7,"stim/24.jpeg",2,4,2,NA,"HouseObjects",1,4,"left","left",0.796000004,1,1,1,1,NA,NA,NA,NA,NA,NA,NA,NA,NA,NA,NA,NA,NA,NA,NA,NA,NA,NA,NA,NA,NA,NA,NA,NA
"184","stim/objects/Instruments/musicstand.png",195,12,195,0.5,"stim/63.jpeg",6,3,1,NA,"Instruments",2,2,"right","right",0.707000017,1,1,1,1,NA,NA,NA,NA,NA,NA,NA,NA,NA,NA,NA,NA,NA,NA,NA,NA,NA,NA,NA,NA,NA,NA,NA,NA
"179","stim/objects/Instruments/musicsheet2.png",196,12,196,0.9,"stim/32.jpeg",3,2,3,NA,"Instruments",2,1,"right","right",0.678999901,1,1,1,1,NA,NA,NA,NA,NA,NA,NA,NA,NA,NA,NA,NA,NA,NA,NA,NA,NA,NA,NA,NA,NA,NA,NA,NA
"107","stim/objects/HouseObjects/rubbergloves2.png",197,12,197,0.9,"stim/43.jpeg",4,3,3,NA,"HouseObjects",1,1,"left","left",0.553999901,1,1,1,1,NA,NA,NA,NA,NA,NA,NA,NA,NA,NA,NA,NA,NA,NA,NA,NA,NA,NA,NA,NA,NA,NA,NA,NA
"206","stim/objects/Instruments/oboe2.png",198,12,198,0.9,"stim/34.jpeg",3,4,3,NA,"Instruments",2,3,"right","right",0.549999952,1,1,1,1,NA,NA,NA,NA,NA,NA,NA,NA,NA,NA,NA,NA,NA,NA,NA,NA,NA,NA,NA,NA,NA,NA,NA,NA
"170","stim/objects/Instruments/musicsheet.png",199,12,199,0.5,"stim/62.jpeg",6,2,1,NA,"Instruments",2,4,"right","left",0.852999926,0,0,1,1,NA,NA,NA,NA,NA,NA,NA,NA,NA,NA,NA,NA,NA,NA,NA,NA,NA,NA,NA,NA,NA,NA,NA,NA
"34","stim/objects/HouseObjects/key2.png",200,12,200,0.7,"stim/23.jpeg",2,3,2,NA,"HouseObjects",1,1,"left","left",0.690999985,1,1,1,1,NA,NA,NA,NA,NA,NA,NA,NA,NA,NA,NA,NA,NA,NA,NA,NA,NA,NA,NA,NA,NA,NA,NA,NA
"185","stim/objects/Instruments/musicstand.png",201,12,201,0.5,"stim/63.jpeg",6,3,1,NA,"Instruments",2,3,"right","right",0.63499999,1,1,1,1,NA,NA,NA,NA,NA,NA,NA,NA,NA,NA,NA,NA,NA,NA,NA,NA,NA,NA,NA,NA,NA,NA,NA,NA
"156","stim/objects/Instruments/metronome.png",202,12,202,0.5,"stim/61.jpeg",6,1,1,NA,"Instruments",2,3,"right","left",0.805000067,0,0,1,1,NA,NA,NA,NA,NA,NA,NA,NA,NA,NA,NA,NA,NA,NA,NA,NA,NA,NA,NA,NA,NA,NA,NA,NA
"223","stim/objects/Instruments/pipepiano.png",203,12,203,0.7,"stim/12.jpeg",1,2,2,NA,"Instruments",2,3,"right","right",0.661000013,1,1,1,1,NA,NA,NA,NA,NA,NA,NA,NA,NA,NA,NA,NA,NA,NA,NA,NA,NA,NA,NA,NA,NA,NA,NA,NA
"29","stim/objects/HouseObjects/key.png",204,12,204,0.5,"stim/53.jpeg",5,3,1,NA,"HouseObjects",1,4,"left","right",0.754999876,0,0,1,1,NA,NA,NA,NA,NA,NA,NA,NA,NA,NA,NA,NA,NA,NA,NA,NA,NA,NA,NA,NA,NA,NA,NA,NA
"95","stim/objects/HouseObjects/remote2.png",205,12,205,0.9,"stim/42.jpeg",4,2,3,NA,"HouseObjects",1,1,"left","left",0.649000168,1,1,1,1,NA,NA,NA,NA,NA,NA,NA,NA,NA,NA,NA,NA,NA,NA,NA,NA,NA,NA,NA,NA,NA,NA,NA,NA
"238","stim/objects/Instruments/record.png",206,12,206,0.7,"stim/13.jpeg",1,3,2,NA,"Instruments",2,4,"right","right",0.625,1,1,1,1,NA,NA,NA,NA,NA,NA,NA,NA,NA,NA,NA,NA,NA,NA,NA,NA,NA,NA,NA,NA,NA,NA,NA,NA
"116","stim/objects/HouseObjects/rug2.png",207,12,207,0.9,"stim/44.jpeg",4,4,3,NA,"HouseObjects",1,4,"left","left",0.88499999,1,1,1,1,NA,NA,NA,NA,NA,NA,NA,NA,NA,NA,NA,NA,NA,NA,NA,NA,NA,NA,NA,NA,NA,NA,NA,NA
"35","stim/objects/HouseObjects/key2.png",208,12,208,0.7,"stim/23.jpeg",2,3,2,NA,"HouseObjects",1,4,"left","left",0.636999846,1,1,1,1,NA,NA,NA,NA,NA,NA,NA,NA,NA,NA,NA,NA,NA,NA,NA,NA,NA,NA,NA,NA,NA,NA,NA,NA
"117","stim/objects/HouseObjects/rug2.png",209,12,209,0.9,"stim/44.jpeg",4,4,3,NA,"HouseObjects",1,4,"left","right",0.770999908,0,0,1,1,NA,NA,NA,NA,NA,NA,NA,NA,NA,NA,NA,NA,NA,NA,NA,NA,NA,NA,NA,NA,NA,NA,NA,NA
"198","stim/objects/Instruments/oboe.png",210,12,210,0.5,"stim/64.jpeg",6,4,1,NA,"Instruments",2,2,"right","left",0.736000061,0,0,1,1,NA,NA,NA,NA,NA,NA,NA,NA,NA,NA,NA,NA,NA,NA,NA,NA,NA,NA,NA,NA,NA,NA,NA,NA
"141","stim/objects/Instruments/maraca.png",211,12,211,0.5,"stim/53.jpeg",5,3,1,NA,"Instruments",2,3,"right","left",0.724999905,0,0,1,1,NA,NA,NA,NA,NA,NA,NA,NA,NA,NA,NA,NA,NA,NA,NA,NA,NA,NA,NA,NA,NA,NA,NA,NA
"108","stim/objects/HouseObjects/rubbergloves2.png",212,12,212,0.9,"stim/43.jpeg",4,3,3,NA,"HouseObjects",1,3,"left","left",0.568000078,1,1,1,1,NA,NA,NA,NA,NA,NA,NA,NA,NA,NA,NA,NA,NA,NA,NA,NA,NA,NA,NA,NA,NA,NA,NA,NA
"131","stim/objects/Instruments/laud.png",213,12,213,0.5,"stim/52.jpeg",5,2,1,NA,"Instruments",2,3,"right","right",0.835000038,1,1,1,1,NA,NA,NA,NA,NA,NA,NA,NA,NA,NA,NA,NA,NA,NA,NA,NA,NA,NA,NA,NA,NA,NA,NA,NA
"48","stim/objects/HouseObjects/knife2.png",214,12,214,0.7,"stim/24.jpeg",2,4,2,NA,"HouseObjects",1,2,"left","left",0.654999971,1,1,1,1,NA,NA,NA,NA,NA,NA,NA,NA,NA,NA,NA,NA,NA,NA,NA,NA,NA,NA,NA,NA,NA,NA,NA,NA
"84","stim/objects/HouseObjects/recyclingbin2.png",215,12,215,0.9,"stim/41.jpeg",4,1,3,NA,"HouseObjects",1,3,"left","left",0.592999935,1,1,1,1,NA,NA,NA,NA,NA,NA,NA,NA,NA,NA,NA,NA,NA,NA,NA,NA,NA,NA,NA,NA,NA,NA,NA,NA
"165","stim/objects/Instruments/metronome2.png",216,12,216,0.9,"stim/31.jpeg",3,1,3,NA,"Instruments",2,1,"right","right",0.595000029,1,1,1,1,NA,NA,NA,NA,NA,NA,NA,NA,NA,NA,NA,NA,NA,NA,NA,NA,NA,NA,NA,NA,NA,NA,NA,NA
"180","stim/objects/Instruments/musicsheet2.png",217,12,217,0.9,"stim/32.jpeg",3,2,3,NA,"Instruments",2,4,"right","right",0.588999987,1,1,1,1,NA,NA,NA,NA,NA,NA,NA,NA,NA,NA,NA,NA,NA,NA,NA,NA,NA,NA,NA,NA,NA,NA,NA,NA
"132","stim/objects/Instruments/laud.png",218,12,218,0.5,"stim/52.jpeg",5,2,1,NA,"Instruments",2,4,"right","right",0.695000172,1,1,1,1,NA,NA,NA,NA,NA,NA,NA,NA,NA,NA,NA,NA,NA,NA,NA,NA,NA,NA,NA,NA,NA,NA,NA,NA
"157","stim/objects/Instruments/metronome.png",219,12,219,0.5,"stim/61.jpeg",6,1,1,NA,"Instruments",2,3,"right","left",0.720000029,0,0,1,1,NA,NA,NA,NA,NA,NA,NA,NA,NA,NA,NA,NA,NA,NA,NA,NA,NA,NA,NA,NA,NA,NA,NA,NA
"118","stim/objects/HouseObjects/rug2.png",220,12,220,0.9,"stim/44.jpeg",4,4,3,NA,"HouseObjects",1,1,"left","left",0.632999897,1,1,1,1,NA,NA,NA,NA,NA,NA,NA,NA,NA,NA,NA,NA,NA,NA,NA,NA,NA,NA,NA,NA,NA,NA,NA,NA
"199","stim/objects/Instruments/oboe.png",221,12,221,0.5,"stim/64.jpeg",6,4,1,NA,"Instruments",2,1,"right","left",0.722000122,0,0,1,1,NA,NA,NA,NA,NA,NA,NA,NA,NA,NA,NA,NA,NA,NA,NA,NA,NA,NA,NA,NA,NA,NA,NA,NA
"239","stim/objects/Instruments/record.png",222,12,222,0.7,"stim/13.jpeg",1,3,2,NA,"Instruments",2,1,"right","right",0.869000196,1,1,1,1,NA,NA,NA,NA,NA,NA,NA,NA,NA,NA,NA,NA,NA,NA,NA,NA,NA,NA,NA,NA,NA,NA,NA,NA
"149","stim/objects/Instruments/marimba.png",223,12,223,0.5,"stim/54.jpeg",5,4,1,NA,"Instruments",2,3,"right","",NA,0,0,1,1,NA,NA,NA,NA,NA,NA,NA,NA,NA,NA,NA,NA,NA,NA,NA,NA,NA,NA,NA,NA,NA,NA,NA,NA
"36","stim/objects/HouseObjects/key2.png",224,12,224,0.7,"stim/23.jpeg",2,3,2,NA,"HouseObjects",1,1,"left","left",0.631999969,1,1,1,1,NA,NA,NA,NA,NA,NA,NA,NA,NA,NA,NA,NA,NA,NA,NA,NA,NA,NA,NA,NA,NA,NA,NA,NA
"5","stim/objects/HouseObjects/iron.png",225,12,225,0.5,"stim/51.jpeg",5,1,1,NA,"HouseObjects",1,1,"left","right",0.635999918,0,0,1,1,NA,NA,NA,NA,NA,NA,NA,NA,NA,NA,NA,NA,NA,NA,NA,NA,NA,NA,NA,NA,NA,NA,NA,NA
"119","stim/objects/HouseObjects/rug2.png",226,12,226,0.9,"stim/44.jpeg",4,4,3,NA,"HouseObjects",1,2,"left","left",0.636999846,1,1,1,1,NA,NA,NA,NA,NA,NA,NA,NA,NA,NA,NA,NA,NA,NA,NA,NA,NA,NA,NA,NA,NA,NA,NA,NA
"111","stim/objects/HouseObjects/rug.png",227,12,227,0.3,"stim/14.jpeg",1,4,2,NA,"HouseObjects",1,3,"left","right",0.684999943,0,0,1,1,NA,NA,NA,NA,NA,NA,NA,NA,NA,NA,NA,NA,NA,NA,NA,NA,NA,NA,NA,NA,NA,NA,NA,NA
"17","stim/objects/HouseObjects/ironingboard.png",228,12,228,0.5,"stim/52.jpeg",5,2,1,NA,"HouseObjects",1,2,"left","right",0.670000076,0,0,1,1,NA,NA,NA,NA,NA,NA,NA,NA,NA,NA,NA,NA,NA,NA,NA,NA,NA,NA,NA,NA,NA,NA,NA,NA
"65","stim/objects/HouseObjects/pan.png",229,12,229,0.5,"stim/63.jpeg",6,3,1,NA,"HouseObjects",1,4,"left","right",0.705000162,0,0,1,1,NA,NA,NA,NA,NA,NA,NA,NA,NA,NA,NA,NA,NA,NA,NA,NA,NA,NA,NA,NA,NA,NA,NA,NA
"133","stim/objects/Instruments/laud.png",230,12,230,0.5,"stim/52.jpeg",5,2,1,NA,"Instruments",2,2,"right","",NA,0,0,1,1,NA,NA,NA,NA,NA,NA,NA,NA,NA,NA,NA,NA,NA,NA,NA,NA,NA,NA,NA,NA,NA,NA,NA,NA
"171","stim/objects/Instruments/musicsheet.png",231,12,231,0.5,"stim/62.jpeg",6,2,1,NA,"Instruments",2,1,"right","left",0.672999859,0,0,1,1,NA,NA,NA,NA,NA,NA,NA,NA,NA,NA,NA,NA,NA,NA,NA,NA,NA,NA,NA,NA,NA,NA,NA,NA
"66","stim/objects/HouseObjects/pan2.png",232,12,232,0.1,"stim/33.jpeg",3,3,3,NA,"HouseObjects",1,4,"left","right",0.572000027,0,0,1,1,NA,NA,NA,NA,NA,NA,NA,NA,NA,NA,NA,NA,NA,NA,NA,NA,NA,NA,NA,NA,NA,NA,NA,NA
"166","stim/objects/Instruments/metronome2.png",233,12,233,0.9,"stim/31.jpeg",3,1,3,NA,"Instruments",2,3,"right","right",0.537000179,1,1,1,1,NA,NA,NA,NA,NA,NA,NA,NA,NA,NA,NA,NA,NA,NA,NA,NA,NA,NA,NA,NA,NA,NA,NA,NA
"194","stim/objects/Instruments/musicstand2.png",234,12,234,0.9,"stim/33.jpeg",3,3,3,NA,"Instruments",2,3,"right","right",0.470999956,1,1,1,1,NA,NA,NA,NA,NA,NA,NA,NA,NA,NA,NA,NA,NA,NA,NA,NA,NA,NA,NA,NA,NA,NA,NA,NA
"231","stim/objects/Instruments/record_player.png",235,12,235,0.7,"stim/14.jpeg",1,4,2,NA,"Instruments",2,3,"right","right",0.638999939,1,1,1,1,NA,NA,NA,NA,NA,NA,NA,NA,NA,NA,NA,NA,NA,NA,NA,NA,NA,NA,NA,NA,NA,NA,NA,NA
"207","stim/objects/Instruments/oboe2.png",236,12,236,0.9,"stim/34.jpeg",3,4,3,NA,"Instruments",2,2,"right","right",0.572000027,1,1,1,1,NA,NA,NA,NA,NA,NA,NA,NA,NA,NA,NA,NA,NA,NA,NA,NA,NA,NA,NA,NA,NA,NA,NA,NA
"208","stim/objects/Instruments/oboe2.png",237,12,237,0.9,"stim/34.jpeg",3,4,3,NA,"Instruments",2,4,"right","right",0.504999876,1,1,1,1,NA,NA,NA,NA,NA,NA,NA,NA,NA,NA,NA,NA,NA,NA,NA,NA,NA,NA,NA,NA,NA,NA,NA,NA
"96","stim/objects/HouseObjects/remote2.png",238,12,238,0.9,"stim/42.jpeg",4,2,3,NA,"HouseObjects",1,3,"left","left",0.621000051,1,1,1,1,NA,NA,NA,NA,NA,NA,NA,NA,NA,NA,NA,NA,NA,NA,NA,NA,NA,NA,NA,NA,NA,NA,NA,NA
"53","stim/objects/HouseObjects/lintroller.png",239,12,239,0.5,"stim/61.jpeg",6,1,1,NA,"HouseObjects",1,2,"left","left",0.715000153,1,1,1,1,NA,NA,NA,NA,NA,NA,NA,NA,NA,NA,NA,NA,NA,NA,NA,NA,NA,NA,NA,NA,NA,NA,NA,NA
"120","stim/objects/HouseObjects/rug2.png",240,12,240,0.9,"stim/44.jpeg",4,4,3,NA,"HouseObjects",1,2,"left","left",0.575000048,1,1,1,1,NA,NA,NA,NA,NA,NA,NA,NA,NA,NA,NA,NA,NA,NA,NA,NA,NA,NA,NA,NA,NA,NA,NA,NA
"455","stim/objects/Instruments/electricguitar2.png",248,12,241,0.3,"stim/23.jpeg",2,3,2,1,"Instruments",2,1,"right","",NA,0,0,1,0,113,12,1,0.3,2,"stim/23.jpeg",2,3,"stim/23.jpeg",1,"left",1.649999857,3,4,4.135999918,1,1.211999893,113,1,0,0,1,1,1
"283","stim/objects/HouseObjects/cushion.png",249,12,242,0.7,"stim/22.jpeg",2,2,2,2,"HouseObjects",1,3,"left","left",0.500999928,1,1,1,0,NA,NA,NA,NA,NA,NA,NA,NA,NA,NA,NA,NA,NA,NA,NA,NA,NA,NA,NA,NA,NA,NA,NA,NA
"426","stim/objects/Instruments/cello2.png",250,12,243,0.3,"stim/23.jpeg",2,3,2,1,"Instruments",2,3,"right","left",0.717000008,0,0,1,0,179,12,1,0.3,2,"stim/23.jpeg",2,3,"stim/23.jpeg",3,"left",1.332999945,2,3,0.694999933,1,0.578999758,179,1,1,1,0,0,1
"435","stim/objects/Instruments/cornet2.png",251,12,244,0.3,"stim/22.jpeg",2,2,2,1,"Instruments",2,4,"right","left",0.676000118,0,0,1,0,157,12,1,0.3,2,"stim/22.jpeg",2,2,"stim/22.jpeg",4,"right",2.061000109,1,3,0.699999809,2,0.508999825,157,0,0,NA,0,NA,1
"287","stim/objects/HouseObjects/dishsoap.png",252,12,245,0.7,"stim/22.jpeg",2,2,2,2,"HouseObjects",1,2,"left","left",0.784999847,1,1,1,0,NA,NA,NA,NA,NA,NA,NA,NA,NA,NA,NA,NA,NA,NA,NA,NA,NA,NA,NA,NA,NA,NA,NA,NA
"524","stim/objects/Instruments/grandpiano.png",253,12,246,0.9,"stim/31.jpeg",3,1,3,2,"Instruments",2,2,"right","right",0.63499999,1,1,1,0,NA,NA,NA,NA,NA,NA,NA,NA,NA,NA,NA,NA,NA,NA,NA,NA,NA,NA,NA,NA,NA,NA,NA,NA
"553","stim/objects/Instruments/tambourine.png",254,12,247,0.5,"stim/61.jpeg",6,1,1,1,"Instruments",2,2,"right","left",0.68200016,0,0,1,0,101,12,1,0.5,2,"stim/61.jpeg",6,1,"stim/61.jpeg",2,"left",3.388999939,2,4,3.013000011,3,1.688999891,101,1,0,0,0,0,1
"436","stim/objects/Instruments/cymbal.png",255,12,248,0.7,"stim/14.jpeg",1,4,2,2,"Instruments",2,2,"right","right",0.720999956,1,1,1,0,NA,NA,NA,NA,NA,NA,NA,NA,NA,NA,NA,NA,NA,NA,NA,NA,NA,NA,NA,NA,NA,NA,NA,NA
"359","stim/objects/HouseObjects/glass.png",256,12,249,0.9,"stim/43.jpeg",4,3,3,2,"HouseObjects",1,2,"left","left",0.621999979,1,1,1,0,NA,NA,NA,NA,NA,NA,NA,NA,NA,NA,NA,NA,NA,NA,NA,NA,NA,NA,NA,NA,NA,NA,NA,NA
"414","stim/objects/Instruments/balalaika2.png",257,12,250,0.7,"stim/11.jpeg",1,1,2,1,"Instruments",2,4,"right","left",0.901000023,0,0,1,0,77,12,1,0.7,2,"stim/11.jpeg",1,1,"stim/11.jpeg",4,"right",3.348999977,3,2,0.575000048,2,2.657999992,77,0,0,NA,0,NA,1
"377","stim/objects/HouseObjects/glassmop2.png",258,12,251,0.1,"stim/32.jpeg",3,2,3,1,"HouseObjects",1,3,"left","right",0.625,0,0,1,0,165,12,1,0.1,1,"stim/32.jpeg",3,2,"stim/32.jpeg",3,"right",1.962999821,3,2,0.338000059,3,0.743999958,165,0,1,NA,1,NA,1
"343","stim/objects/HouseObjects/garbagebin.png",259,12,252,0.9,"stim/41.jpeg",4,1,3,2,"HouseObjects",1,2,"left","left",0.684000015,1,1,1,0,NA,NA,NA,NA,NA,NA,NA,NA,NA,NA,NA,NA,NA,NA,NA,NA,NA,NA,NA,NA,NA,NA,NA,NA
"452","stim/objects/Instruments/electricguitar.png",260,12,253,0.7,"stim/13.jpeg",1,3,2,2,"Instruments",2,2,"right","right",0.601999998,1,1,1,0,NA,NA,NA,NA,NA,NA,NA,NA,NA,NA,NA,NA,NA,NA,NA,NA,NA,NA,NA,NA,NA,NA,NA,NA
"490","stim/objects/Instruments/frenchhorn.png",261,12,254,0.9,"stim/34.jpeg",3,4,3,2,"Instruments",2,1,"right","right",0.615999937,1,1,1,0,NA,NA,NA,NA,NA,NA,NA,NA,NA,NA,NA,NA,NA,NA,NA,NA,NA,NA,NA,NA,NA,NA,NA,NA
"432","stim/objects/Instruments/clarinet2.png",262,12,255,0.3,"stim/21.jpeg",2,1,2,1,"Instruments",2,1,"right","left",0.631999969,0,0,1,0,97,12,1,0.3,2,"stim/21.jpeg",2,1,"stim/21.jpeg",1,"right",1.246000051,3,2,0.376999855,4,1.095999956,97,0,0,NA,0,NA,1
"388","stim/objects/HouseObjects/scale.png",263,12,256,0.5,"stim/62.jpeg",6,2,1,1,"HouseObjects",1,2,"left","right",0.769999981,0,0,1,0,129,12,1,0.5,2,"stim/62.jpeg",6,2,"stim/62.jpeg",2,"left",1.032999754,4,3,4.079999924,2,3.424999952,129,1,0,0,1,1,1
"344","stim/objects/HouseObjects/garbagebin.png",264,12,257,0.9,"stim/42.jpeg",4,2,3,2,"HouseObjects",1,3,"left","left",0.718000174,1,1,1,0,NA,NA,NA,NA,NA,NA,NA,NA,NA,NA,NA,NA,NA,NA,NA,NA,NA,NA,NA,NA,NA,NA,NA,NA
"456","stim/objects/Instruments/flute.png",265,12,258,0.9,"stim/32.jpeg",3,2,3,2,"Instruments",2,2,"right","right",0.596999884,1,1,1,0,NA,NA,NA,NA,NA,NA,NA,NA,NA,NA,NA,NA,NA,NA,NA,NA,NA,NA,NA,NA,NA,NA,NA,NA
"428","stim/objects/Instruments/chime.png",266,12,259,0.5,"stim/61.jpeg",6,1,1,2,"Instruments",2,3,"right","left",0.815999985,0,0,1,0,NA,NA,NA,NA,NA,NA,NA,NA,NA,NA,NA,NA,NA,NA,NA,NA,NA,NA,NA,NA,NA,NA,NA,NA
"360","stim/objects/HouseObjects/glass.png",267,12,260,0.9,"stim/43.jpeg",4,3,3,2,"HouseObjects",1,3,"left","left",0.77699995,1,1,1,0,NA,NA,NA,NA,NA,NA,NA,NA,NA,NA,NA,NA,NA,NA,NA,NA,NA,NA,NA,NA,NA,NA,NA,NA
"272","stim/objects/HouseObjects/clothesdryingrack.png",268,12,261,0.7,"stim/23.jpeg",2,3,2,2,"HouseObjects",1,4,"left","left",0.710000038,1,1,1,0,NA,NA,NA,NA,NA,NA,NA,NA,NA,NA,NA,NA,NA,NA,NA,NA,NA,NA,NA,NA,NA,NA,NA,NA
"525","stim/objects/Instruments/grandpiano.png",269,12,262,0.9,"stim/34.jpeg",3,4,3,2,"Instruments",2,4,"right","right",0.671999931,1,1,1,0,NA,NA,NA,NA,NA,NA,NA,NA,NA,NA,NA,NA,NA,NA,NA,NA,NA,NA,NA,NA,NA,NA,NA,NA
"308","stim/objects/HouseObjects/dustpan.png",270,12,263,0.9,"stim/44.jpeg",4,4,3,2,"HouseObjects",1,1,"left","left",0.606000185,1,1,1,0,NA,NA,NA,NA,NA,NA,NA,NA,NA,NA,NA,NA,NA,NA,NA,NA,NA,NA,NA,NA,NA,NA,NA,NA
"309","stim/objects/HouseObjects/dustpan.png",271,12,264,0.9,"stim/42.jpeg",4,2,3,2,"HouseObjects",1,3,"left","left",0.592999935,1,1,1,0,NA,NA,NA,NA,NA,NA,NA,NA,NA,NA,NA,NA,NA,NA,NA,NA,NA,NA,NA,NA,NA,NA,NA,NA
"491","stim/objects/Instruments/frenchhorn.png",272,12,265,0.9,"stim/32.jpeg",3,2,3,2,"Instruments",2,2,"right","right",0.570999861,1,1,1,0,NA,NA,NA,NA,NA,NA,NA,NA,NA,NA,NA,NA,NA,NA,NA,NA,NA,NA,NA,NA,NA,NA,NA,NA
"262","stim/objects/HouseObjects/broom.png",273,12,266,0.5,"stim/61.jpeg",6,1,1,2,"HouseObjects",1,3,"left","right",0.81400013,0,0,1,0,NA,NA,NA,NA,NA,NA,NA,NA,NA,NA,NA,NA,NA,NA,NA,NA,NA,NA,NA,NA,NA,NA,NA,NA
"492","stim/objects/Instruments/frenchhorn.png",274,12,267,0.9,"stim/31.jpeg",3,1,3,2,"Instruments",2,1,"right","right",0.630000114,1,1,1,0,NA,NA,NA,NA,NA,NA,NA,NA,NA,NA,NA,NA,NA,NA,NA,NA,NA,NA,NA,NA,NA,NA,NA,NA
"507","stim/objects/Instruments/gong.png",275,12,268,0.9,"stim/33.jpeg",3,3,3,2,"Instruments",2,3,"right","right",0.677999973,1,1,1,0,NA,NA,NA,NA,NA,NA,NA,NA,NA,NA,NA,NA,NA,NA,NA,NA,NA,NA,NA,NA,NA,NA,NA,NA
"508","stim/objects/Instruments/gong.png",276,12,269,0.9,"stim/33.jpeg",3,3,3,2,"Instruments",2,3,"right","right",0.569000006,1,1,1,0,NA,NA,NA,NA,NA,NA,NA,NA,NA,NA,NA,NA,NA,NA,NA,NA,NA,NA,NA,NA,NA,NA,NA,NA
"361","stim/objects/HouseObjects/glass.png",277,12,270,0.9,"stim/44.jpeg",4,4,3,2,"HouseObjects",1,2,"left","left",0.574999809,1,1,1,0,NA,NA,NA,NA,NA,NA,NA,NA,NA,NA,NA,NA,NA,NA,NA,NA,NA,NA,NA,NA,NA,NA,NA,NA
"447","stim/objects/Instruments/drums2.png",278,12,271,0.3,"stim/21.jpeg",2,1,2,1,"Instruments",2,3,"right","left",0.552000046,0,0,1,0,149,12,1,0.3,2,"stim/21.jpeg",2,1,"stim/21.jpeg",3,"left",2.432999849,4,1,2.973999977,1,0.92599988,149,1,1,1,0,0,1
"526","stim/objects/Instruments/grandpiano.png",279,12,272,0.9,"stim/33.jpeg",3,3,3,2,"Instruments",2,4,"right","right",0.775000095,1,1,1,0,NA,NA,NA,NA,NA,NA,NA,NA,NA,NA,NA,NA,NA,NA,NA,NA,NA,NA,NA,NA,NA,NA,NA,NA
"293","stim/objects/HouseObjects/doormat.png",280,12,273,0.9,"stim/42.jpeg",4,2,3,2,"HouseObjects",1,1,"left","left",0.731999874,1,1,1,0,NA,NA,NA,NA,NA,NA,NA,NA,NA,NA,NA,NA,NA,NA,NA,NA,NA,NA,NA,NA,NA,NA,NA,NA
"509","stim/objects/Instruments/gong.png",281,12,274,0.9,"stim/31.jpeg",3,1,3,2,"Instruments",2,4,"right","right",0.559999943,1,1,1,0,NA,NA,NA,NA,NA,NA,NA,NA,NA,NA,NA,NA,NA,NA,NA,NA,NA,NA,NA,NA,NA,NA,NA,NA
"391","stim/objects/HouseObjects/sponge2.png",282,12,275,0.9,"stim/43.jpeg",4,3,3,1,"HouseObjects",1,4,"left","left",0.648000002,1,1,1,0,84,12,1,0.9,1,"stim/43.jpeg",4,3,"stim/43.jpeg",4,"left",1.004999876,4,4,5.953000069,3,3.815999985,84,1,0,0,0,0,1
"345","stim/objects/HouseObjects/garbagebin.png",283,12,276,0.9,"stim/44.jpeg",4,4,3,2,"HouseObjects",1,1,"left","left",0.59100008,1,1,1,0,NA,NA,NA,NA,NA,NA,NA,NA,NA,NA,NA,NA,NA,NA,NA,NA,NA,NA,NA,NA,NA,NA,NA,NA
"327","stim/objects/HouseObjects/flyswatter.png",284,12,277,0.9,"stim/43.jpeg",4,3,3,2,"HouseObjects",1,4,"left","left",0.621999979,1,1,1,0,NA,NA,NA,NA,NA,NA,NA,NA,NA,NA,NA,NA,NA,NA,NA,NA,NA,NA,NA,NA,NA,NA,NA,NA
"475","stim/objects/Instruments/flutetrans.png",285,12,278,0.9,"stim/32.jpeg",3,2,3,2,"Instruments",2,1,"right","right",0.582999945,1,1,1,0,NA,NA,NA,NA,NA,NA,NA,NA,NA,NA,NA,NA,NA,NA,NA,NA,NA,NA,NA,NA,NA,NA,NA,NA
"448","stim/objects/Instruments/electricdrumset.png",286,12,279,0.7,"stim/13.jpeg",1,3,2,2,"Instruments",2,4,"right","right",0.696000099,1,1,1,0,NA,NA,NA,NA,NA,NA,NA,NA,NA,NA,NA,NA,NA,NA,NA,NA,NA,NA,NA,NA,NA,NA,NA,NA
"268","stim/objects/HouseObjects/clock.png",287,12,280,0.5,"stim/63.jpeg",6,3,1,2,"HouseObjects",1,4,"left","right",0.822000027,0,0,1,0,NA,NA,NA,NA,NA,NA,NA,NA,NA,NA,NA,NA,NA,NA,NA,NA,NA,NA,NA,NA,NA,NA,NA,NA
"457","stim/objects/Instruments/flute.png",288,12,281,0.9,"stim/32.jpeg",3,2,3,2,"Instruments",2,4,"right","right",0.651000023,1,1,1,0,NA,NA,NA,NA,NA,NA,NA,NA,NA,NA,NA,NA,NA,NA,NA,NA,NA,NA,NA,NA,NA,NA,NA,NA
"412","stim/objects/Instruments/balalaika.png",289,12,282,0.5,"stim/53.jpeg",5,3,1,2,"Instruments",2,4,"right","right",0.751000166,1,1,1,0,NA,NA,NA,NA,NA,NA,NA,NA,NA,NA,NA,NA,NA,NA,NA,NA,NA,NA,NA,NA,NA,NA,NA,NA
"409","stim/objects/Instruments/acousticguitar.png",290,12,283,0.5,"stim/51.jpeg",5,1,1,2,"Instruments",2,3,"right","right",0.712000132,1,1,1,0,NA,NA,NA,NA,NA,NA,NA,NA,NA,NA,NA,NA,NA,NA,NA,NA,NA,NA,NA,NA,NA,NA,NA,NA
"383","stim/objects/HouseObjects/handvacuum2.png",291,12,284,0.1,"stim/31.jpeg",3,1,3,1,"HouseObjects",1,2,"left","right",0.684000015,0,0,1,0,190,12,1,0.1,1,"stim/31.jpeg",3,1,"stim/31.jpeg",2,"left",5.595999956,2,3,0.733999968,2,1.694999933,190,1,0,0,1,1,1
"310","stim/objects/HouseObjects/dustpan.png",292,12,285,0.9,"stim/42.jpeg",4,2,3,2,"HouseObjects",1,1,"left","left",0.604000092,1,1,1,0,NA,NA,NA,NA,NA,NA,NA,NA,NA,NA,NA,NA,NA,NA,NA,NA,NA,NA,NA,NA,NA,NA,NA,NA
"398","stim/objects/HouseObjects/thread.png",293,12,286,0.3,"stim/12.jpeg",1,2,2,1,"HouseObjects",1,3,"left","right",0.572000027,0,0,1,0,147,12,1,0.3,1,"stim/12.jpeg",1,2,"stim/12.jpeg",3,"left",1.200999975,4,3,1.673999786,2,1.128000021,147,1,0,0,0,0,1
"381","stim/objects/HouseObjects/handbrush2.png",294,12,287,0.1,"stim/34.jpeg",3,4,3,1,"HouseObjects",1,3,"left","right",0.664999962,0,0,1,0,2,12,1,0.1,1,"stim/34.jpeg",3,4,"stim/34.jpeg",3,"left",6.819000006,3,3,7.349999905,2,4.801000118,2,1,0,0,0,0,1
"437","stim/objects/Instruments/cymbal.png",295,12,288,0.7,"stim/11.jpeg",1,1,2,2,"Instruments",2,4,"right","right",0.590000153,1,1,1,0,NA,NA,NA,NA,NA,NA,NA,NA,NA,NA,NA,NA,NA,NA,NA,NA,NA,NA,NA,NA,NA,NA,NA,NA
"294","stim/objects/HouseObjects/doormat.png",296,12,289,0.9,"stim/44.jpeg",4,4,3,2,"HouseObjects",1,1,"left","left",0.633000135,1,1,1,0,NA,NA,NA,NA,NA,NA,NA,NA,NA,NA,NA,NA,NA,NA,NA,NA,NA,NA,NA,NA,NA,NA,NA,NA
"362","stim/objects/HouseObjects/glass.png",297,12,290,0.9,"stim/43.jpeg",4,3,3,2,"HouseObjects",1,4,"left","left",0.664999962,1,1,1,0,NA,NA,NA,NA,NA,NA,NA,NA,NA,NA,NA,NA,NA,NA,NA,NA,NA,NA,NA,NA,NA,NA,NA,NA
"328","stim/objects/HouseObjects/flyswatter.png",298,12,291,0.9,"stim/41.jpeg",4,1,3,2,"HouseObjects",1,1,"left","left",0.600000143,1,1,1,0,NA,NA,NA,NA,NA,NA,NA,NA,NA,NA,NA,NA,NA,NA,NA,NA,NA,NA,NA,NA,NA,NA,NA,NA
"493","stim/objects/Instruments/frenchhorn.png",299,12,292,0.9,"stim/33.jpeg",3,3,3,2,"Instruments",2,4,"right","right",0.534000158,1,1,1,0,NA,NA,NA,NA,NA,NA,NA,NA,NA,NA,NA,NA,NA,NA,NA,NA,NA,NA,NA,NA,NA,NA,NA,NA
"275","stim/objects/HouseObjects/clothespin.png",300,12,293,0.7,"stim/23.jpeg",2,3,2,2,"HouseObjects",1,2,"left","right",0.749000072,0,0,1,0,NA,NA,NA,NA,NA,NA,NA,NA,NA,NA,NA,NA,NA,NA,NA,NA,NA,NA,NA,NA,NA,NA,NA,NA
"346","stim/objects/HouseObjects/garbagebin.png",301,12,294,0.9,"stim/43.jpeg",4,3,3,2,"HouseObjects",1,3,"left","left",0.59800005,1,1,1,0,NA,NA,NA,NA,NA,NA,NA,NA,NA,NA,NA,NA,NA,NA,NA,NA,NA,NA,NA,NA,NA,NA,NA,NA
"440","stim/objects/Instruments/doublebass.png",302,12,295,0.7,"stim/12.jpeg",1,2,2,2,"Instruments",2,1,"right","right",0.532000065,1,1,1,0,NA,NA,NA,NA,NA,NA,NA,NA,NA,NA,NA,NA,NA,NA,NA,NA,NA,NA,NA,NA,NA,NA,NA,NA
"527","stim/objects/Instruments/grandpiano.png",303,12,296,0.9,"stim/34.jpeg",3,4,3,2,"Instruments",2,4,"right","right",0.499000072,1,1,1,0,NA,NA,NA,NA,NA,NA,NA,NA,NA,NA,NA,NA,NA,NA,NA,NA,NA,NA,NA,NA,NA,NA,NA,NA
"476","stim/objects/Instruments/flutetrans.png",304,12,297,0.9,"stim/31.jpeg",3,1,3,2,"Instruments",2,1,"right","right",0.526000023,1,1,1,0,NA,NA,NA,NA,NA,NA,NA,NA,NA,NA,NA,NA,NA,NA,NA,NA,NA,NA,NA,NA,NA,NA,NA,NA
"329","stim/objects/HouseObjects/flyswatter.png",305,12,298,0.9,"stim/43.jpeg",4,3,3,2,"HouseObjects",1,4,"left","right",0.805000067,0,0,1,0,NA,NA,NA,NA,NA,NA,NA,NA,NA,NA,NA,NA,NA,NA,NA,NA,NA,NA,NA,NA,NA,NA,NA,NA
"477","stim/objects/Instruments/flutetrans.png",306,12,299,0.9,"stim/33.jpeg",3,3,3,2,"Instruments",2,3,"right","right",0.684000015,1,1,1,0,NA,NA,NA,NA,NA,NA,NA,NA,NA,NA,NA,NA,NA,NA,NA,NA,NA,NA,NA,NA,NA,NA,NA,NA
"494","stim/objects/Instruments/frenchhorn.png",307,12,300,0.9,"stim/34.jpeg",3,4,3,2,"Instruments",2,1,"right","right",0.54399991,1,1,1,0,NA,NA,NA,NA,NA,NA,NA,NA,NA,NA,NA,NA,NA,NA,NA,NA,NA,NA,NA,NA,NA,NA,NA,NA
"261","stim/objects/HouseObjects/bottle2.png",308,12,301,0.7,"stim/21.jpeg",2,1,2,1,"HouseObjects",1,1,"left","left",0.638000011,1,1,1,0,110,12,1,0.7,1,"stim/21.jpeg",2,1,"stim/21.jpeg",1,"left",1.352999926,4,3,3.346999884,3,1.956999779,110,1,0,0,0,0,1
"558","stim/objects/Instruments/triangle2.png",309,12,302,0.1,"stim/42.jpeg",4,2,3,1,"Instruments",2,1,"right","left",0.692000151,0,0,1,0,23,12,1,0.1,2,"stim/42.jpeg",4,2,"stim/42.jpeg",1,"left",2.996999741,4,4,5.725999832,3,3.368999958,23,1,0,0,0,0,1
"510","stim/objects/Instruments/gong.png",310,12,303,0.9,"stim/34.jpeg",3,4,3,2,"Instruments",2,1,"right","right",0.569999933,1,1,1,0,NA,NA,NA,NA,NA,NA,NA,NA,NA,NA,NA,NA,NA,NA,NA,NA,NA,NA,NA,NA,NA,NA,NA,NA
"566","stim/objects/Instruments/violin2.png",311,12,304,0.1,"stim/42.jpeg",4,2,3,1,"Instruments",2,2,"right","left",0.825999975,0,0,1,0,40,12,1,0.1,2,"stim/42.jpeg",4,2,"stim/42.jpeg",2,"left",1.790999889,3,3,2.453999996,2,1.394000053,40,1,0,0,1,1,1
"378","stim/objects/HouseObjects/hairdryer.png",312,12,305,0.5,"stim/54.jpeg",5,4,1,1,"HouseObjects",1,3,"left","left",0.868999958,1,1,1,0,199,12,1,0.5,1,"stim/54.jpeg",5,4,"stim/54.jpeg",3,"right",1.445999861,3,2,0.305999994,2,0.381999969,199,0,0,NA,0,NA,1
"266","stim/objects/HouseObjects/bucket.png",313,12,306,0.5,"stim/63.jpeg",6,3,1,2,"HouseObjects",1,2,"left","right",0.736999989,0,0,1,0,NA,NA,NA,NA,NA,NA,NA,NA,NA,NA,NA,NA,NA,NA,NA,NA,NA,NA,NA,NA,NA,NA,NA,NA
"459","stim/objects/Instruments/flute.png",314,12,307,0.9,"stim/33.jpeg",3,3,3,2,"Instruments",2,1,"right","right",0.688000202,1,1,1,0,NA,NA,NA,NA,NA,NA,NA,NA,NA,NA,NA,NA,NA,NA,NA,NA,NA,NA,NA,NA,NA,NA,NA,NA
"529","stim/objects/Instruments/grandpiano.png",315,12,308,0.9,"stim/31.jpeg",3,1,3,2,"Instruments",2,4,"right","right",0.710999966,1,1,1,0,NA,NA,NA,NA,NA,NA,NA,NA,NA,NA,NA,NA,NA,NA,NA,NA,NA,NA,NA,NA,NA,NA,NA,NA
"363","stim/objects/HouseObjects/glass.png",316,12,309,0.9,"stim/43.jpeg",4,3,3,2,"HouseObjects",1,1,"left","left",0.61500001,1,1,1,0,NA,NA,NA,NA,NA,NA,NA,NA,NA,NA,NA,NA,NA,NA,NA,NA,NA,NA,NA,NA,NA,NA,NA,NA
"406","stim/objects/Instruments/accordion.png",317,12,310,0.5,"stim/54.jpeg",5,4,1,2,"Instruments",2,4,"right","left",0.88499999,0,0,1,0,NA,NA,NA,NA,NA,NA,NA,NA,NA,NA,NA,NA,NA,NA,NA,NA,NA,NA,NA,NA,NA,NA,NA,NA
"392","stim/objects/HouseObjects/spraybottle.png",318,12,311,0.5,"stim/64.jpeg",6,4,1,1,"HouseObjects",1,3,"left","left",0.75999999,1,1,1,0,128,12,1,0.5,2,"stim/64.jpeg",6,4,"stim/64.jpeg",3,"left",1.065000057,4,2,3.225999832,1,1.361000061,128,1,0,0,0,0,1
"550","stim/objects/Instruments/saxophone2.png",319,12,312,0.9,"stim/34.jpeg",3,4,3,1,"Instruments",2,2,"right","right",0.575999975,1,1,1,0,195,12,1,0.9,2,"stim/34.jpeg",3,4,"stim/34.jpeg",2,"right",2.496999741,1,2,0.549999952,3,0.367000103,195,0,0,NA,0,NA,1
"511","stim/objects/Instruments/gong.png",320,12,313,0.9,"stim/32.jpeg",3,2,3,2,"Instruments",2,4,"right","right",0.648000002,1,1,1,0,NA,NA,NA,NA,NA,NA,NA,NA,NA,NA,NA,NA,NA,NA,NA,NA,NA,NA,NA,NA,NA,NA,NA,NA
"246","stim/objects/HouseObjects/ballofstring2.png",321,12,314,0.3,"stim/13.jpeg",1,3,2,1,"HouseObjects",1,3,"left","right",0.686999798,0,0,1,0,183,12,1,0.3,1,"stim/13.jpeg",1,3,"stim/13.jpeg",3,"left",1.009000063,4,3,4.85199976,3,0.001999855,183,1,1,1,1,1,1
"474","stim/objects/Instruments/flutetrans.png",322,12,315,0.9,"stim/33.jpeg",3,3,3,2,"Instruments",2,2,"right","right",0.667999983,1,1,1,0,NA,NA,NA,NA,NA,NA,NA,NA,NA,NA,NA,NA,NA,NA,NA,NA,NA,NA,NA,NA,NA,NA,NA,NA
"259","stim/objects/HouseObjects/bottle.png",323,12,316,0.5,"stim/61.jpeg",6,1,1,2,"HouseObjects",1,2,"left","left",0.799999952,1,1,1,0,NA,NA,NA,NA,NA,NA,NA,NA,NA,NA,NA,NA,NA,NA,NA,NA,NA,NA,NA,NA,NA,NA,NA,NA
"411","stim/objects/Instruments/acousticguitar2.png",324,12,317,0.7,"stim/14.jpeg",1,4,2,1,"Instruments",2,4,"right","right",0.675000191,1,1,1,0,92,12,1,0.7,2,"stim/14.jpeg",1,4,"stim/14.jpeg",4,"right",0.909999847,3,4,3.937999725,4,1.338999987,92,0,1,NA,1,NA,1
"444","stim/objects/Instruments/drums.png",325,12,318,0.7,"stim/13.jpeg",1,3,2,2,"Instruments",2,2,"right","right",0.667000055,1,1,1,0,NA,NA,NA,NA,NA,NA,NA,NA,NA,NA,NA,NA,NA,NA,NA,NA,NA,NA,NA,NA,NA,NA,NA,NA
"564","stim/objects/Instruments/tuba2.png",326,12,319,0.1,"stim/41.jpeg",4,1,3,1,"Instruments",2,3,"right","left",0.756000042,0,0,1,0,91,12,1,0.1,2,"stim/41.jpeg",4,1,"stim/41.jpeg",3,"right",1.008999825,3,2,0.259999752,3,0.286999941,91,0,0,NA,1,NA,1
"400","stim/objects/HouseObjects/towel.png",327,12,320,0.3,"stim/13.jpeg",1,3,2,1,"HouseObjects",1,1,"left","right",0.690999985,0,0,1,0,70,12,1,0.3,1,"stim/13.jpeg",1,3,"stim/13.jpeg",1,"right",1.089999914,4,2,0.328999758,3,0.350999832,70,0,0,NA,0,NA,1
"375","stim/objects/HouseObjects/glass2.png",328,12,321,0.1,"stim/31.jpeg",3,1,3,1,"HouseObjects",1,1,"left","right",0.556999922,0,0,1,0,187,12,1,0.1,1,"stim/31.jpeg",3,1,"stim/31.jpeg",1,"left",1.399999857,4,2,2.308999777,3,1.432999849,187,1,0,0,0,0,1
"244","stim/objects/HouseObjects/ballofstring.png",329,12,322,0.5,"stim/52.jpeg",5,2,1,2,"HouseObjects",1,2,"left","right",0.674999952,0,0,1,0,NA,NA,NA,NA,NA,NA,NA,NA,NA,NA,NA,NA,NA,NA,NA,NA,NA,NA,NA,NA,NA,NA,NA,NA
"451","stim/objects/Instruments/electricdrumset2.png",330,12,323,0.3,"stim/22.jpeg",2,2,2,1,"Instruments",2,2,"right","left",0.923000097,0,0,1,0,137,12,1,0.3,2,"stim/22.jpeg",2,2,"stim/22.jpeg",2,"left",1.208999872,4,3,2.247999907,3,2.823999882,137,1,0,0,0,0,1
"376","stim/objects/HouseObjects/glassmop.png",331,12,324,0.5,"stim/53.jpeg",5,3,1,1,"HouseObjects",1,3,"left","",NA,0,0,1,0,49,12,1,0.5,1,"stim/53.jpeg",5,3,"stim/53.jpeg",3,"right",1.004999876,1,1,0.725000143,1,1.106999874,49,0,0,NA,0,NA,1
"364","stim/objects/HouseObjects/glass.png",332,12,325,0.9,"stim/41.jpeg",4,1,3,2,"HouseObjects",1,4,"left","left",0.625,1,1,1,0,NA,NA,NA,NA,NA,NA,NA,NA,NA,NA,NA,NA,NA,NA,NA,NA,NA,NA,NA,NA,NA,NA,NA,NA
"365","stim/objects/HouseObjects/glass.png",333,12,326,0.9,"stim/42.jpeg",4,2,3,2,"HouseObjects",1,2,"left","left",0.552999973,1,1,1,0,NA,NA,NA,NA,NA,NA,NA,NA,NA,NA,NA,NA,NA,NA,NA,NA,NA,NA,NA,NA,NA,NA,NA,NA
"420","stim/objects/Instruments/bassdrum2.png",334,12,327,0.7,"stim/13.jpeg",1,3,2,1,"Instruments",2,1,"right","right",0.559000015,1,1,1,0,89,12,1,0.7,2,"stim/13.jpeg",1,3,"stim/13.jpeg",1,"right",5.15199995,3,2,0.27699995,3,0.265999794,89,0,0,NA,0,NA,1
"290","stim/objects/HouseObjects/dishsoap2.png",335,12,328,0.7,"stim/21.jpeg",2,1,2,1,"HouseObjects",1,4,"left","left",0.644999981,1,1,1,0,71,12,1,0.7,1,"stim/21.jpeg",2,1,"stim/21.jpeg",4,"left",1.084000111,4,3,4.457999945,2,1.270999908,71,1,0,0,0,0,1
"495","stim/objects/Instruments/frenchhorn.png",336,12,329,0.9,"stim/33.jpeg",3,3,3,2,"Instruments",2,1,"right","right",0.71600008,1,1,1,0,NA,NA,NA,NA,NA,NA,NA,NA,NA,NA,NA,NA,NA,NA,NA,NA,NA,NA,NA,NA,NA,NA,NA,NA
"241","stim/objects/HouseObjects/ashtray.png",337,12,330,0.5,"stim/51.jpeg",5,1,1,2,"HouseObjects",1,3,"left","right",0.65199995,0,0,1,0,NA,NA,NA,NA,NA,NA,NA,NA,NA,NA,NA,NA,NA,NA,NA,NA,NA,NA,NA,NA,NA,NA,NA,NA
"513","stim/objects/Instruments/gong.png",338,12,331,0.9,"stim/34.jpeg",3,4,3,2,"Instruments",2,4,"right","right",0.638000011,1,1,1,0,NA,NA,NA,NA,NA,NA,NA,NA,NA,NA,NA,NA,NA,NA,NA,NA,NA,NA,NA,NA,NA,NA,NA,NA
"278","stim/objects/HouseObjects/clothespin2.png",339,12,332,0.7,"stim/22.jpeg",2,2,2,1,"HouseObjects",1,3,"left","left",0.618999958,1,1,1,0,94,12,1,0.7,1,"stim/22.jpeg",2,2,"stim/22.jpeg",3,"right",2.321999788,3,2,0.325999737,4,1.107999802,94,0,1,NA,0,NA,1
"366","stim/objects/HouseObjects/glass.png",340,12,333,0.9,"stim/42.jpeg",4,2,3,2,"HouseObjects",1,2,"left","left",0.726000071,1,1,1,0,NA,NA,NA,NA,NA,NA,NA,NA,NA,NA,NA,NA,NA,NA,NA,NA,NA,NA,NA,NA,NA,NA,NA,NA
"461","stim/objects/Instruments/flute.png",341,12,334,0.9,"stim/33.jpeg",3,3,3,2,"Instruments",2,1,"right","right",0.530999899,1,1,1,0,NA,NA,NA,NA,NA,NA,NA,NA,NA,NA,NA,NA,NA,NA,NA,NA,NA,NA,NA,NA,NA,NA,NA,NA
"540","stim/objects/Instruments/grandpiano2.png",342,12,335,0.9,"stim/33.jpeg",3,3,3,1,"Instruments",2,2,"right","right",0.589000225,1,1,1,0,56,12,1,0.9,2,"stim/33.jpeg",3,3,"stim/33.jpeg",2,"left",2.941999912,3,2,3.535999775,2,1.365999937,56,1,0,0,1,1,1
"257","stim/objects/HouseObjects/blender.png",343,12,336,0.5,"stim/64.jpeg",6,4,1,2,"HouseObjects",1,1,"left","left",0.789999962,1,1,1,0,NA,NA,NA,NA,NA,NA,NA,NA,NA,NA,NA,NA,NA,NA,NA,NA,NA,NA,NA,NA,NA,NA,NA,NA
"430","stim/objects/Instruments/clarinet.png",344,12,337,0.5,"stim/62.jpeg",6,2,1,2,"Instruments",2,2,"right","left",0.832000017,0,0,1,0,NA,NA,NA,NA,NA,NA,NA,NA,NA,NA,NA,NA,NA,NA,NA,NA,NA,NA,NA,NA,NA,NA,NA,NA
"253","stim/objects/HouseObjects/bleachbottle.png",345,12,338,0.5,"stim/51.jpeg",5,1,1,2,"HouseObjects",1,4,"left","right",0.741000175,0,0,1,0,NA,NA,NA,NA,NA,NA,NA,NA,NA,NA,NA,NA,NA,NA,NA,NA,NA,NA,NA,NA,NA,NA,NA,NA
"270","stim/objects/HouseObjects/clock2.png",346,12,339,0.7,"stim/24.jpeg",2,4,2,1,"HouseObjects",1,3,"left","left",0.739000082,1,1,1,0,150,12,1,0.7,1,"stim/24.jpeg",2,4,"stim/24.jpeg",3,"left",1.04399991,4,4,0.882999897,2,4.494999886,150,1,1,1,0,0,1
"389","stim/objects/HouseObjects/scale2.png",347,12,340,0.9,"stim/42.jpeg",4,2,3,1,"HouseObjects",1,4,"left","left",0.697999954,1,1,1,0,44,12,1,0.9,1,"stim/42.jpeg",4,2,"stim/42.jpeg",4,"right",0.745999813,1,1,2.248999834,2,2.502000093,44,0,0,NA,0,NA,1
"439","stim/objects/Instruments/cymbal2.png",348,12,341,0.3,"stim/23.jpeg",2,3,2,1,"Instruments",2,4,"right","left",0.654999971,0,0,1,0,74,12,1,0.3,2,"stim/23.jpeg",2,3,"stim/23.jpeg",4,"right",2.5,4,2,0.259999752,3,0.323999882,74,0,0,NA,0,NA,1
"330","stim/objects/HouseObjects/flyswatter.png",349,12,342,0.9,"stim/41.jpeg",4,1,3,2,"HouseObjects",1,1,"left","",NA,0,0,1,0,NA,NA,NA,NA,NA,NA,NA,NA,NA,NA,NA,NA,NA,NA,NA,NA,NA,NA,NA,NA,NA,NA,NA,NA
"413","stim/objects/Instruments/balalaika.png",350,12,343,0.5,"stim/52.jpeg",5,2,1,2,"Instruments",2,2,"right","right",0.802999973,1,1,1,0,NA,NA,NA,NA,NA,NA,NA,NA,NA,NA,NA,NA,NA,NA,NA,NA,NA,NA,NA,NA,NA,NA,NA,NA
"418","stim/objects/Instruments/bassdrum.png",351,12,344,0.5,"stim/51.jpeg",5,1,1,2,"Instruments",2,3,"right","right",0.664999962,1,1,1,0,NA,NA,NA,NA,NA,NA,NA,NA,NA,NA,NA,NA,NA,NA,NA,NA,NA,NA,NA,NA,NA,NA,NA,NA
"297","stim/objects/HouseObjects/doormat.png",352,12,345,0.9,"stim/43.jpeg",4,3,3,2,"HouseObjects",1,4,"left","left",0.562000036,1,1,1,0,NA,NA,NA,NA,NA,NA,NA,NA,NA,NA,NA,NA,NA,NA,NA,NA,NA,NA,NA,NA,NA,NA,NA,NA
"349","stim/objects/HouseObjects/garbagebin.png",353,12,346,0.9,"stim/44.jpeg",4,4,3,2,"HouseObjects",1,3,"left","left",0.552000046,1,1,1,0,NA,NA,NA,NA,NA,NA,NA,NA,NA,NA,NA,NA,NA,NA,NA,NA,NA,NA,NA,NA,NA,NA,NA,NA
"245","stim/objects/HouseObjects/ballofstring.png",354,12,347,0.5,"stim/53.jpeg",5,3,1,2,"HouseObjects",1,3,"left","right",0.705000162,0,0,1,0,NA,NA,NA,NA,NA,NA,NA,NA,NA,NA,NA,NA,NA,NA,NA,NA,NA,NA,NA,NA,NA,NA,NA,NA
"350","stim/objects/HouseObjects/garbagebin.png",355,12,348,0.9,"stim/44.jpeg",4,4,3,2,"HouseObjects",1,3,"left","left",0.673000097,1,1,1,0,NA,NA,NA,NA,NA,NA,NA,NA,NA,NA,NA,NA,NA,NA,NA,NA,NA,NA,NA,NA,NA,NA,NA,NA
"298","stim/objects/HouseObjects/doormat.png",356,12,349,0.9,"stim/42.jpeg",4,2,3,2,"HouseObjects",1,1,"left","left",0.583999872,1,1,1,0,NA,NA,NA,NA,NA,NA,NA,NA,NA,NA,NA,NA,NA,NA,NA,NA,NA,NA,NA,NA,NA,NA,NA,NA
"288","stim/objects/HouseObjects/dishsoap.png",357,12,350,0.7,"stim/21.jpeg",2,1,2,2,"HouseObjects",1,3,"left","",NA,0,0,1,0,NA,NA,NA,NA,NA,NA,NA,NA,NA,NA,NA,NA,NA,NA,NA,NA,NA,NA,NA,NA,NA,NA,NA,NA
"429","stim/objects/Instruments/chime2.png",358,12,351,0.3,"stim/24.jpeg",2,4,2,1,"Instruments",2,1,"right","left",0.685000181,0,0,1,0,66,12,1,0.3,2,"stim/24.jpeg",2,4,"stim/24.jpeg",1,"left",1.200000048,4,4,3.88499999,2,2.631999731,66,1,1,1,0,0,1
"480","stim/objects/Instruments/flutetrans.png",359,12,352,0.9,"stim/33.jpeg",3,3,3,2,"Instruments",2,2,"right","right",0.604000092,1,1,1,0,NA,NA,NA,NA,NA,NA,NA,NA,NA,NA,NA,NA,NA,NA,NA,NA,NA,NA,NA,NA,NA,NA,NA,NA
"351","stim/objects/HouseObjects/garbagebin.png",360,12,353,0.9,"stim/41.jpeg",4,1,3,2,"HouseObjects",1,4,"left","left",0.585999966,1,1,1,0,NA,NA,NA,NA,NA,NA,NA,NA,NA,NA,NA,NA,NA,NA,NA,NA,NA,NA,NA,NA,NA,NA,NA,NA
"331","stim/objects/HouseObjects/flyswatter.png",361,12,354,0.9,"stim/41.jpeg",4,1,3,2,"HouseObjects",1,1,"left","left",0.44900012,1,1,1,0,NA,NA,NA,NA,NA,NA,NA,NA,NA,NA,NA,NA,NA,NA,NA,NA,NA,NA,NA,NA,NA,NA,NA,NA
"563","stim/objects/Instruments/tuba.png",362,12,355,0.7,"stim/13.jpeg",1,3,2,1,"Instruments",2,3,"right","right",0.623000145,1,1,1,0,87,12,1,0.7,2,"stim/13.jpeg",1,3,"stim/13.jpeg",3,"right",1.022999763,3,2,0.265000105,3,0.389999866,87,0,0,NA,1,NA,1
"332","stim/objects/HouseObjects/flyswatter.png",363,12,356,0.9,"stim/44.jpeg",4,4,3,2,"HouseObjects",1,3,"left","left",0.532999992,1,1,1,0,NA,NA,NA,NA,NA,NA,NA,NA,NA,NA,NA,NA,NA,NA,NA,NA,NA,NA,NA,NA,NA,NA,NA,NA
"276","stim/objects/HouseObjects/clothespin.png",364,12,357,0.7,"stim/24.jpeg",2,4,2,2,"HouseObjects",1,3,"left","left",0.583000183,1,1,1,0,NA,NA,NA,NA,NA,NA,NA,NA,NA,NA,NA,NA,NA,NA,NA,NA,NA,NA,NA,NA,NA,NA,NA,NA
"462","stim/objects/Instruments/flute.png",365,12,358,0.9,"stim/34.jpeg",3,4,3,2,"Instruments",2,2,"right","right",0.638000011,1,1,1,0,NA,NA,NA,NA,NA,NA,NA,NA,NA,NA,NA,NA,NA,NA,NA,NA,NA,NA,NA,NA,NA,NA,NA,NA
"450","stim/objects/Instruments/electricdrumset.png",366,12,359,0.7,"stim/12.jpeg",1,2,2,2,"Instruments",2,1,"right","left",0.621999979,0,0,1,0,NA,NA,NA,NA,NA,NA,NA,NA,NA,NA,NA,NA,NA,NA,NA,NA,NA,NA,NA,NA,NA,NA,NA,NA
"546","stim/objects/Instruments/harp2.png",367,12,360,0.9,"stim/32.jpeg",3,2,3,1,"Instruments",2,1,"right","right",0.500999928,1,1,1,0,32,12,1,0.9,2,"stim/32.jpeg",3,2,"stim/32.jpeg",1,"left",1.217999935,4,2,7.016000032,4,3.407999992,32,1,1,1,0,0,1
"541","stim/objects/Instruments/guitarcase.png",368,12,361,0.5,"stim/52.jpeg",5,2,1,1,"Instruments",2,3,"right","right",0.684999943,1,1,1,0,169,12,1,0.5,1,"stim/52.jpeg",5,2,"stim/52.jpeg",3,"left",0.967000008,4,4,0.001999855,3,2.474999905,169,1,0,0,1,1,1
"325","stim/objects/HouseObjects/flyswatter.png",369,12,362,0.9,"stim/44.jpeg",4,4,3,2,"HouseObjects",1,2,"left","left",0.555000067,1,1,1,0,NA,NA,NA,NA,NA,NA,NA,NA,NA,NA,NA,NA,NA,NA,NA,NA,NA,NA,NA,NA,NA,NA,NA,NA
"438","stim/objects/Instruments/cymbal.png",370,12,363,0.7,"stim/13.jpeg",1,3,2,2,"Instruments",2,2,"right","right",0.508999825,1,1,1,0,NA,NA,NA,NA,NA,NA,NA,NA,NA,NA,NA,NA,NA,NA,NA,NA,NA,NA,NA,NA,NA,NA,NA,NA
"557","stim/objects/Instruments/triangle.png",371,12,364,0.5,"stim/63.jpeg",6,3,1,1,"Instruments",2,4,"right","right",0.687999964,1,1,1,0,15,12,1,0.5,2,"stim/63.jpeg",6,3,"stim/63.jpeg",4,"left",1.199999809,4,1,7.155999899,1,2.510999918,15,1,0,0,0,0,1
"326","stim/objects/HouseObjects/flyswatter.png",372,12,365,0.9,"stim/44.jpeg",4,4,3,2,"HouseObjects",1,3,"left","left",0.48300004,1,1,1,0,NA,NA,NA,NA,NA,NA,NA,NA,NA,NA,NA,NA,NA,NA,NA,NA,NA,NA,NA,NA,NA,NA,NA,NA
"353","stim/objects/HouseObjects/garbagebin.png",373,12,366,0.9,"stim/41.jpeg",4,1,3,2,"HouseObjects",1,3,"left","left",0.578999996,1,1,1,0,NA,NA,NA,NA,NA,NA,NA,NA,NA,NA,NA,NA,NA,NA,NA,NA,NA,NA,NA,NA,NA,NA,NA,NA
"548","stim/objects/Instruments/hihat2.png",374,12,367,0.9,"stim/33.jpeg",3,3,3,1,"Instruments",2,3,"right","right",0.508000135,1,1,1,0,80,12,1,0.9,2,"stim/33.jpeg",3,3,"stim/33.jpeg",3,"left",1.95299983,3,3,1.391000032,2,1.608999968,80,1,1,1,0,0,1
"291","stim/objects/HouseObjects/doormat.png",375,12,368,0.9,"stim/41.jpeg",4,1,3,2,"HouseObjects",1,2,"left","left",0.480999947,1,1,1,0,NA,NA,NA,NA,NA,NA,NA,NA,NA,NA,NA,NA,NA,NA,NA,NA,NA,NA,NA,NA,NA,NA,NA,NA
"300","stim/objects/HouseObjects/doormat.png",376,12,369,0.9,"stim/41.jpeg",4,1,3,2,"HouseObjects",1,4,"left","left",0.562000036,1,1,1,0,NA,NA,NA,NA,NA,NA,NA,NA,NA,NA,NA,NA,NA,NA,NA,NA,NA,NA,NA,NA,NA,NA,NA,NA
"496","stim/objects/Instruments/frenchhorn.png",377,12,370,0.9,"stim/34.jpeg",3,4,3,2,"Instruments",2,4,"right","right",0.513999939,1,1,1,0,NA,NA,NA,NA,NA,NA,NA,NA,NA,NA,NA,NA,NA,NA,NA,NA,NA,NA,NA,NA,NA,NA,NA,NA
"427","stim/objects/Instruments/chime.png",378,12,371,0.5,"stim/64.jpeg",6,4,1,2,"Instruments",2,1,"right","left",0.681999922,0,0,1,0,NA,NA,NA,NA,NA,NA,NA,NA,NA,NA,NA,NA,NA,NA,NA,NA,NA,NA,NA,NA,NA,NA,NA,NA
"473","stim/objects/Instruments/flutetrans.png",379,12,372,0.9,"stim/34.jpeg",3,4,3,2,"Instruments",2,3,"right","right",0.561000109,1,1,1,0,NA,NA,NA,NA,NA,NA,NA,NA,NA,NA,NA,NA,NA,NA,NA,NA,NA,NA,NA,NA,NA,NA,NA,NA
"433","stim/objects/Instruments/cornet.png",380,12,373,0.5,"stim/63.jpeg",6,3,1,2,"Instruments",2,1,"right","right",0.666999817,1,1,1,0,NA,NA,NA,NA,NA,NA,NA,NA,NA,NA,NA,NA,NA,NA,NA,NA,NA,NA,NA,NA,NA,NA,NA,NA
"319","stim/objects/HouseObjects/dustpan.png",381,12,374,0.9,"stim/42.jpeg",4,2,3,2,"HouseObjects",1,4,"left","left",0.516000032,1,1,1,0,NA,NA,NA,NA,NA,NA,NA,NA,NA,NA,NA,NA,NA,NA,NA,NA,NA,NA,NA,NA,NA,NA,NA,NA
"269","stim/objects/HouseObjects/clock.png",382,12,375,0.5,"stim/64.jpeg",6,4,1,2,"HouseObjects",1,1,"left","left",0.672999859,1,1,1,0,NA,NA,NA,NA,NA,NA,NA,NA,NA,NA,NA,NA,NA,NA,NA,NA,NA,NA,NA,NA,NA,NA,NA,NA
"271","stim/objects/HouseObjects/clothesdryingrack.png",383,12,376,0.7,"stim/22.jpeg",2,2,2,2,"HouseObjects",1,1,"left","left",0.582000017,1,1,1,0,NA,NA,NA,NA,NA,NA,NA,NA,NA,NA,NA,NA,NA,NA,NA,NA,NA,NA,NA,NA,NA,NA,NA,NA
"256","stim/objects/HouseObjects/blender.png",384,12,377,0.5,"stim/63.jpeg",6,3,1,2,"HouseObjects",1,4,"left","right",0.503000021,0,0,1,0,NA,NA,NA,NA,NA,NA,NA,NA,NA,NA,NA,NA,NA,NA,NA,NA,NA,NA,NA,NA,NA,NA,NA,NA
"247","stim/objects/HouseObjects/barbecuelighter.png",385,12,378,0.5,"stim/53.jpeg",5,3,1,2,"HouseObjects",1,1,"left","right",0.67200017,0,0,1,0,NA,NA,NA,NA,NA,NA,NA,NA,NA,NA,NA,NA,NA,NA,NA,NA,NA,NA,NA,NA,NA,NA,NA,NA
"559","stim/objects/Instruments/trombone.png",386,12,379,0.5,"stim/64.jpeg",6,4,1,1,"Instruments",2,1,"right","left",0.518999815,0,0,1,0,46,12,1,0.5,2,"stim/64.jpeg",6,4,"stim/64.jpeg",1,"left",1.697000027,2,3,5.495999813,2,7.940999985,46,1,0,0,0,0,1
"386","stim/objects/HouseObjects/saw.png",387,12,380,0.5,"stim/61.jpeg",6,1,1,1,"HouseObjects",1,2,"left","left",0.806999922,1,1,1,0,121,12,1,0.5,2,"stim/61.jpeg",6,1,"stim/61.jpeg",2,"left",0.980999947,4,1,5.963000059,1,0.799999952,121,1,1,1,0,0,1
"532","stim/objects/Instruments/grandpiano.png",388,12,381,0.9,"stim/32.jpeg",3,2,3,2,"Instruments",2,2,"right","right",0.604000092,1,1,1,0,NA,NA,NA,NA,NA,NA,NA,NA,NA,NA,NA,NA,NA,NA,NA,NA,NA,NA,NA,NA,NA,NA,NA,NA
"482","stim/objects/Instruments/flutetrans.png",389,12,382,0.9,"stim/31.jpeg",3,1,3,2,"Instruments",2,3,"right","right",0.651000023,1,1,1,0,NA,NA,NA,NA,NA,NA,NA,NA,NA,NA,NA,NA,NA,NA,NA,NA,NA,NA,NA,NA,NA,NA,NA,NA
"368","stim/objects/HouseObjects/glass.png",390,12,383,0.9,"stim/44.jpeg",4,4,3,2,"HouseObjects",1,4,"left","left",0.622999907,1,1,1,0,NA,NA,NA,NA,NA,NA,NA,NA,NA,NA,NA,NA,NA,NA,NA,NA,NA,NA,NA,NA,NA,NA,NA,NA
"248","stim/objects/HouseObjects/barbecuelighter.png",391,12,384,0.5,"stim/54.jpeg",5,4,1,2,"HouseObjects",1,2,"left","right",0.804000139,0,0,1,0,NA,NA,NA,NA,NA,NA,NA,NA,NA,NA,NA,NA,NA,NA,NA,NA,NA,NA,NA,NA,NA,NA,NA,NA
"263","stim/objects/HouseObjects/broom.png",392,12,385,0.5,"stim/62.jpeg",6,2,1,2,"HouseObjects",1,2,"left","left",0.799000025,1,1,1,0,NA,NA,NA,NA,NA,NA,NA,NA,NA,NA,NA,NA,NA,NA,NA,NA,NA,NA,NA,NA,NA,NA,NA,NA
"498","stim/objects/Instruments/frenchhorn.png",393,12,386,0.9,"stim/31.jpeg",3,1,3,2,"Instruments",2,2,"right","right",0.54399991,1,1,1,0,NA,NA,NA,NA,NA,NA,NA,NA,NA,NA,NA,NA,NA,NA,NA,NA,NA,NA,NA,NA,NA,NA,NA,NA
"301","stim/objects/HouseObjects/doormat.png",394,12,387,0.9,"stim/43.jpeg",4,3,3,2,"HouseObjects",1,3,"left","left",0.736999989,1,1,1,0,NA,NA,NA,NA,NA,NA,NA,NA,NA,NA,NA,NA,NA,NA,NA,NA,NA,NA,NA,NA,NA,NA,NA,NA
"489","stim/objects/Instruments/flutetrans2.png",395,12,388,0.9,"stim/34.jpeg",3,4,3,1,"Instruments",2,4,"right","right",0.536999941,1,1,1,0,9,12,1,0.9,2,"stim/34.jpeg",3,4,"stim/34.jpeg",4,"left",0.983999968,4,3,6.907999992,2,3.451999903,9,1,0,0,0,0,1
"445","stim/objects/Instruments/drums.png",396,12,389,0.7,"stim/12.jpeg",1,2,2,2,"Instruments",2,4,"right","right",0.644999981,1,1,1,0,NA,NA,NA,NA,NA,NA,NA,NA,NA,NA,NA,NA,NA,NA,NA,NA,NA,NA,NA,NA,NA,NA,NA,NA
"499","stim/objects/Instruments/frenchhorn.png",397,12,390,0.9,"stim/33.jpeg",3,3,3,2,"Instruments",2,3,"right","right",0.618000031,1,1,1,0,NA,NA,NA,NA,NA,NA,NA,NA,NA,NA,NA,NA,NA,NA,NA,NA,NA,NA,NA,NA,NA,NA,NA,NA
"317","stim/objects/HouseObjects/dustpan.png",398,12,391,0.9,"stim/41.jpeg",4,1,3,2,"HouseObjects",1,2,"left","left",0.643000126,1,1,1,0,NA,NA,NA,NA,NA,NA,NA,NA,NA,NA,NA,NA,NA,NA,NA,NA,NA,NA,NA,NA,NA,NA,NA,NA
"472","stim/objects/Instruments/flute2.png",399,12,392,0.9,"stim/33.jpeg",3,3,3,1,"Instruments",2,4,"right","right",0.569000006,1,1,1,0,111,12,1,0.9,2,"stim/33.jpeg",3,3,"stim/33.jpeg",4,"left",2.100999832,3,1,2.115999699,3,4.25999999,111,1,0,0,0,0,1
"243","stim/objects/HouseObjects/ashtray2.png",400,12,393,0.3,"stim/12.jpeg",1,2,2,1,"HouseObjects",1,2,"left","right",0.688999891,0,0,1,0,141,12,1,0.3,1,"stim/12.jpeg",1,2,"stim/12.jpeg",2,"right",1.203000069,3,3,3.004999876,2,0.986999989,141,0,0,NA,1,NA,1
"369","stim/objects/HouseObjects/glass.png",401,12,394,0.9,"stim/44.jpeg",4,4,3,2,"HouseObjects",1,3,"left","left",0.711999893,1,1,1,0,NA,NA,NA,NA,NA,NA,NA,NA,NA,NA,NA,NA,NA,NA,NA,NA,NA,NA,NA,NA,NA,NA,NA,NA
"415","stim/objects/Instruments/banjo.png",402,12,395,0.5,"stim/54.jpeg",5,4,1,2,"Instruments",2,2,"right","left",0.768999815,0,0,1,0,NA,NA,NA,NA,NA,NA,NA,NA,NA,NA,NA,NA,NA,NA,NA,NA,NA,NA,NA,NA,NA,NA,NA,NA
"255","stim/objects/HouseObjects/bleachbottle2.png",403,12,396,0.3,"stim/12.jpeg",1,2,2,1,"HouseObjects",1,4,"left","right",0.605000019,0,0,1,0,118,12,1,0.3,1,"stim/12.jpeg",1,2,"stim/12.jpeg",4,"left",1.187999964,4,2,2.707000017,3,1.519999743,118,1,1,1,0,0,1
"264","stim/objects/HouseObjects/broom2.png",404,12,397,0.7,"stim/22.jpeg",2,2,2,1,"HouseObjects",1,4,"left","left",0.756999969,1,1,1,0,138,12,1,0.7,1,"stim/22.jpeg",2,2,"stim/22.jpeg",4,"left",2.197999716,3,3,0.911999941,3,4.138999939,138,1,0,0,0,0,1
"371","stim/objects/HouseObjects/glass.png",405,12,398,0.9,"stim/42.jpeg",4,2,3,2,"HouseObjects",1,4,"left","left",0.713000059,1,1,1,0,NA,NA,NA,NA,NA,NA,NA,NA,NA,NA,NA,NA,NA,NA,NA,NA,NA,NA,NA,NA,NA,NA,NA,NA
"465","stim/objects/Instruments/flute.png",406,12,399,0.9,"stim/32.jpeg",3,2,3,2,"Instruments",2,4,"right","right",0.651000023,1,1,1,0,NA,NA,NA,NA,NA,NA,NA,NA,NA,NA,NA,NA,NA,NA,NA,NA,NA,NA,NA,NA,NA,NA,NA,NA
"295","stim/objects/HouseObjects/doormat.png",407,12,400,0.9,"stim/44.jpeg",4,4,3,2,"HouseObjects",1,2,"left","left",0.660000086,1,1,1,0,NA,NA,NA,NA,NA,NA,NA,NA,NA,NA,NA,NA,NA,NA,NA,NA,NA,NA,NA,NA,NA,NA,NA,NA
"333","stim/objects/HouseObjects/flyswatter.png",408,12,401,0.9,"stim/43.jpeg",4,3,3,2,"HouseObjects",1,1,"left","left",0.677999973,1,1,1,0,NA,NA,NA,NA,NA,NA,NA,NA,NA,NA,NA,NA,NA,NA,NA,NA,NA,NA,NA,NA,NA,NA,NA,NA
"286","stim/objects/HouseObjects/cushion2.png",409,12,402,0.7,"stim/24.jpeg",2,4,2,1,"HouseObjects",1,4,"left","left",0.734000206,1,1,1,0,59,12,1,0.7,1,"stim/24.jpeg",2,4,"stim/24.jpeg",4,"left",1.25,4,3,7.079999924,1,2.098999977,59,1,0,0,0,0,1
"289","stim/objects/HouseObjects/dishsoap.png",410,12,403,0.7,"stim/23.jpeg",2,3,2,2,"HouseObjects",1,1,"left","left",0.769999981,1,1,1,0,NA,NA,NA,NA,NA,NA,NA,NA,NA,NA,NA,NA,NA,NA,NA,NA,NA,NA,NA,NA,NA,NA,NA,NA
"367","stim/objects/HouseObjects/glass.png",411,12,404,0.9,"stim/42.jpeg",4,2,3,2,"HouseObjects",1,3,"left","left",0.710000038,1,1,1,0,NA,NA,NA,NA,NA,NA,NA,NA,NA,NA,NA,NA,NA,NA,NA,NA,NA,NA,NA,NA,NA,NA,NA,NA
"547","stim/objects/Instruments/hihat.png",412,12,405,0.5,"stim/51.jpeg",5,1,1,1,"Instruments",2,2,"right","right",0.684999943,1,1,1,0,120,12,1,0.5,1,"stim/51.jpeg",5,1,"stim/51.jpeg",2,"left",1.227999926,4,2,7.154999971,2,1.82799983,120,1,0,0,1,1,1
"515","stim/objects/Instruments/gong.png",413,12,406,0.9,"stim/32.jpeg",3,2,3,2,"Instruments",2,1,"right","",NA,0,0,1,0,NA,NA,NA,NA,NA,NA,NA,NA,NA,NA,NA,NA,NA,NA,NA,NA,NA,NA,NA,NA,NA,NA,NA,NA
"458","stim/objects/Instruments/flute.png",414,12,407,0.9,"stim/34.jpeg",3,4,3,2,"Instruments",2,1,"right","right",0.589999914,1,1,1,0,NA,NA,NA,NA,NA,NA,NA,NA,NA,NA,NA,NA,NA,NA,NA,NA,NA,NA,NA,NA,NA,NA,NA,NA
"265","stim/objects/HouseObjects/bucket.png",415,12,408,0.5,"stim/62.jpeg",6,2,1,2,"HouseObjects",1,4,"left","left",0.654999971,1,1,1,0,NA,NA,NA,NA,NA,NA,NA,NA,NA,NA,NA,NA,NA,NA,NA,NA,NA,NA,NA,NA,NA,NA,NA,NA
"250","stim/objects/HouseObjects/basket.png",416,12,409,0.5,"stim/51.jpeg",5,1,1,2,"HouseObjects",1,1,"left","right",0.532999992,0,0,1,0,NA,NA,NA,NA,NA,NA,NA,NA,NA,NA,NA,NA,NA,NA,NA,NA,NA,NA,NA,NA,NA,NA,NA,NA
"467","stim/objects/Instruments/flute.png",417,12,410,0.9,"stim/31.jpeg",3,1,3,2,"Instruments",2,2,"right","right",0.594000101,1,1,1,0,NA,NA,NA,NA,NA,NA,NA,NA,NA,NA,NA,NA,NA,NA,NA,NA,NA,NA,NA,NA,NA,NA,NA,NA
"403","stim/objects/HouseObjects/vacuumcleaner2.png",418,12,411,0.9,"stim/41.jpeg",4,1,3,1,"HouseObjects",1,2,"left","left",0.651000023,1,1,1,0,159,12,1,0.9,1,"stim/41.jpeg",4,1,"stim/41.jpeg",2,"right",1.987999916,3,4,0.617999792,2,0.703000069,159,0,0,NA,1,NA,1
"460","stim/objects/Instruments/flute.png",419,12,412,0.9,"stim/34.jpeg",3,4,3,2,"Instruments",2,4,"right","right",0.585999966,1,1,1,0,NA,NA,NA,NA,NA,NA,NA,NA,NA,NA,NA,NA,NA,NA,NA,NA,NA,NA,NA,NA,NA,NA,NA,NA
"468","stim/objects/Instruments/flute.png",420,12,413,0.9,"stim/31.jpeg",3,1,3,2,"Instruments",2,2,"right","right",0.609000206,1,1,1,0,NA,NA,NA,NA,NA,NA,NA,NA,NA,NA,NA,NA,NA,NA,NA,NA,NA,NA,NA,NA,NA,NA,NA,NA
"407","stim/objects/Instruments/accordion.png",421,12,414,0.5,"stim/51.jpeg",5,1,1,2,"Instruments",2,2,"right","right",0.649000168,1,1,1,0,NA,NA,NA,NA,NA,NA,NA,NA,NA,NA,NA,NA,NA,NA,NA,NA,NA,NA,NA,NA,NA,NA,NA,NA
"334","stim/objects/HouseObjects/flyswatter.png",422,12,415,0.9,"stim/42.jpeg",4,2,3,2,"HouseObjects",1,3,"left","left",0.737999916,1,1,1,0,NA,NA,NA,NA,NA,NA,NA,NA,NA,NA,NA,NA,NA,NA,NA,NA,NA,NA,NA,NA,NA,NA,NA,NA
"335","stim/objects/HouseObjects/flyswatter.png",423,12,416,0.9,"stim/44.jpeg",4,4,3,2,"HouseObjects",1,3,"left","left",0.767999887,1,1,1,0,NA,NA,NA,NA,NA,NA,NA,NA,NA,NA,NA,NA,NA,NA,NA,NA,NA,NA,NA,NA,NA,NA,NA,NA
"358","stim/objects/HouseObjects/garbagebin2.png",424,12,417,0.1,"stim/34.jpeg",3,4,3,1,"HouseObjects",1,4,"left","right",0.557999849,0,0,1,0,65,12,1,0.1,1,"stim/34.jpeg",3,4,"stim/34.jpeg",4,"right",1.376999855,4,3,0.389999866,2,0.323999882,65,0,0,NA,0,NA,1
"277","stim/objects/HouseObjects/clothespin.png",425,12,418,0.7,"stim/22.jpeg",2,2,2,2,"HouseObjects",1,1,"left","left",0.683000088,1,1,1,0,NA,NA,NA,NA,NA,NA,NA,NA,NA,NA,NA,NA,NA,NA,NA,NA,NA,NA,NA,NA,NA,NA,NA,NA
"417","stim/objects/Instruments/banjo2.png",426,12,419,0.7,"stim/12.jpeg",1,2,2,1,"Instruments",2,2,"right","right",0.52699995,1,1,1,0,116,12,1,0.7,2,"stim/12.jpeg",1,2,"stim/12.jpeg",2,"right",2.847999811,1,2,1.009999752,3,1.118999958,116,0,1,NA,0,NA,1
"320","stim/objects/HouseObjects/dustpan.png",427,12,420,0.9,"stim/44.jpeg",4,4,3,2,"HouseObjects",1,3,"left","right",0.602999926,0,0,1,0,NA,NA,NA,NA,NA,NA,NA,NA,NA,NA,NA,NA,NA,NA,NA,NA,NA,NA,NA,NA,NA,NA,NA,NA
"260","stim/objects/HouseObjects/bottle.png",428,12,421,0.5,"stim/64.jpeg",6,4,1,2,"HouseObjects",1,3,"left","left",0.684999943,1,1,1,0,NA,NA,NA,NA,NA,NA,NA,NA,NA,NA,NA,NA,NA,NA,NA,NA,NA,NA,NA,NA,NA,NA,NA,NA
"423","stim/objects/Instruments/bassguitar2.png",429,12,422,0.3,"stim/22.jpeg",2,2,2,1,"Instruments",2,4,"right","left",0.759000063,0,0,1,0,6,12,1,0.3,2,"stim/22.jpeg",2,2,"stim/22.jpeg",4,"left",1.426999807,4,3,15.01399994,4,1.871000051,6,1,0,0,1,1,1
"284","stim/objects/HouseObjects/cushion.png",430,12,423,0.7,"stim/24.jpeg",2,4,2,2,"HouseObjects",1,1,"left","left",0.661999941,1,1,1,0,NA,NA,NA,NA,NA,NA,NA,NA,NA,NA,NA,NA,NA,NA,NA,NA,NA,NA,NA,NA,NA,NA,NA,NA
"486","stim/objects/Instruments/flutetrans.png",431,12,424,0.9,"stim/31.jpeg",3,1,3,2,"Instruments",2,3,"right","right",0.610000134,1,1,1,0,NA,NA,NA,NA,NA,NA,NA,NA,NA,NA,NA,NA,NA,NA,NA,NA,NA,NA,NA,NA,NA,NA,NA,NA
"528","stim/objects/Instruments/grandpiano.png",432,12,425,0.9,"stim/32.jpeg",3,2,3,2,"Instruments",2,3,"right","right",0.565999985,1,1,1,0,NA,NA,NA,NA,NA,NA,NA,NA,NA,NA,NA,NA,NA,NA,NA,NA,NA,NA,NA,NA,NA,NA,NA,NA
"311","stim/objects/HouseObjects/dustpan.png",433,12,426,0.9,"stim/43.jpeg",4,3,3,2,"HouseObjects",1,4,"left","left",0.58100009,1,1,1,0,NA,NA,NA,NA,NA,NA,NA,NA,NA,NA,NA,NA,NA,NA,NA,NA,NA,NA,NA,NA,NA,NA,NA,NA
"397","stim/objects/HouseObjects/thermometer2.png",434,12,427,0.9,"stim/42.jpeg",4,2,3,1,"HouseObjects",1,1,"left","left",0.566999912,1,1,1,0,153,12,1,0.9,1,"stim/42.jpeg",4,2,"stim/42.jpeg",1,"left",1.121999979,4,3,4.021999836,2,2.29399991,153,1,0,0,0,0,1
"483","stim/objects/Instruments/flutetrans.png",435,12,428,0.9,"stim/33.jpeg",3,3,3,2,"Instruments",2,3,"right","right",0.569999933,1,1,1,0,NA,NA,NA,NA,NA,NA,NA,NA,NA,NA,NA,NA,NA,NA,NA,NA,NA,NA,NA,NA,NA,NA,NA,NA
"303","stim/objects/HouseObjects/doormat.png",436,12,429,0.9,"stim/42.jpeg",4,2,3,2,"HouseObjects",1,4,"left","left",0.798999786,1,1,1,0,NA,NA,NA,NA,NA,NA,NA,NA,NA,NA,NA,NA,NA,NA,NA,NA,NA,NA,NA,NA,NA,NA,NA,NA
"446","stim/objects/Instruments/drums.png",437,12,430,0.7,"stim/11.jpeg",1,1,2,2,"Instruments",2,4,"right","right",0.644999981,1,1,1,0,NA,NA,NA,NA,NA,NA,NA,NA,NA,NA,NA,NA,NA,NA,NA,NA,NA,NA,NA,NA,NA,NA,NA,NA
"354","stim/objects/HouseObjects/garbagebin.png",438,12,431,0.9,"stim/43.jpeg",4,3,3,2,"HouseObjects",1,2,"left","left",0.637000084,1,1,1,0,NA,NA,NA,NA,NA,NA,NA,NA,NA,NA,NA,NA,NA,NA,NA,NA,NA,NA,NA,NA,NA,NA,NA,NA
"292","stim/objects/HouseObjects/doormat.png",439,12,432,0.9,"stim/41.jpeg",4,1,3,2,"HouseObjects",1,4,"left","left",0.549999952,1,1,1,0,NA,NA,NA,NA,NA,NA,NA,NA,NA,NA,NA,NA,NA,NA,NA,NA,NA,NA,NA,NA,NA,NA,NA,NA
"479","stim/objects/Instruments/flutetrans.png",440,12,433,0.9,"stim/34.jpeg",3,4,3,2,"Instruments",2,4,"right","right",0.572999954,1,1,1,0,NA,NA,NA,NA,NA,NA,NA,NA,NA,NA,NA,NA,NA,NA,NA,NA,NA,NA,NA,NA,NA,NA,NA,NA
"469","stim/objects/Instruments/flute.png",441,12,434,0.9,"stim/31.jpeg",3,1,3,2,"Instruments",2,4,"right","right",0.667999983,1,1,1,0,NA,NA,NA,NA,NA,NA,NA,NA,NA,NA,NA,NA,NA,NA,NA,NA,NA,NA,NA,NA,NA,NA,NA,NA
"312","stim/objects/HouseObjects/dustpan.png",442,12,435,0.9,"stim/43.jpeg",4,3,3,2,"HouseObjects",1,4,"left","left",0.704999924,1,1,1,0,NA,NA,NA,NA,NA,NA,NA,NA,NA,NA,NA,NA,NA,NA,NA,NA,NA,NA,NA,NA,NA,NA,NA,NA
"370","stim/objects/HouseObjects/glass.png",443,12,436,0.9,"stim/44.jpeg",4,4,3,2,"HouseObjects",1,3,"left","left",0.616999865,1,1,1,0,NA,NA,NA,NA,NA,NA,NA,NA,NA,NA,NA,NA,NA,NA,NA,NA,NA,NA,NA,NA,NA,NA,NA,NA
"487","stim/objects/Instruments/flutetrans.png",444,12,437,0.9,"stim/34.jpeg",3,4,3,2,"Instruments",2,3,"right","right",0.552999973,1,1,1,0,NA,NA,NA,NA,NA,NA,NA,NA,NA,NA,NA,NA,NA,NA,NA,NA,NA,NA,NA,NA,NA,NA,NA,NA
"282","stim/objects/HouseObjects/coffee2.png",445,12,438,0.7,"stim/23.jpeg",2,3,2,1,"HouseObjects",1,2,"left","left",0.63499999,1,1,1,0,64,12,1,0.7,1,"stim/23.jpeg",2,3,"stim/23.jpeg",2,"left",1.40899992,4,4,3.184999943,1,0.922999859,64,1,0,0,0,0,1
"502","stim/objects/Instruments/frenchhorn.png",446,12,439,0.9,"stim/33.jpeg",3,3,3,2,"Instruments",2,1,"right","right",0.651000023,1,1,1,0,NA,NA,NA,NA,NA,NA,NA,NA,NA,NA,NA,NA,NA,NA,NA,NA,NA,NA,NA,NA,NA,NA,NA,NA
"280","stim/objects/HouseObjects/coffee.png",447,12,440,0.7,"stim/24.jpeg",2,4,2,2,"HouseObjects",1,4,"left","left",0.602999926,1,1,1,0,NA,NA,NA,NA,NA,NA,NA,NA,NA,NA,NA,NA,NA,NA,NA,NA,NA,NA,NA,NA,NA,NA,NA,NA
"552","stim/objects/Instruments/speaker2.png",448,12,441,0.1,"stim/43.jpeg",4,3,3,1,"Instruments",2,1,"right","left",0.532000065,0,0,1,0,103,12,1,0.1,2,"stim/43.jpeg",4,3,"stim/43.jpeg",1,"right",1.636999846,3,3,0.94299984,3,1.184999704,103,0,1,NA,0,NA,1
"347","stim/objects/HouseObjects/garbagebin.png",449,12,442,0.9,"stim/42.jpeg",4,2,3,2,"HouseObjects",1,4,"left","left",0.585000038,1,1,1,0,NA,NA,NA,NA,NA,NA,NA,NA,NA,NA,NA,NA,NA,NA,NA,NA,NA,NA,NA,NA,NA,NA,NA,NA
"520","stim/objects/Instruments/gong.png",450,12,443,0.9,"stim/33.jpeg",3,3,3,2,"Instruments",2,2,"right","right",0.584000111,1,1,1,0,NA,NA,NA,NA,NA,NA,NA,NA,NA,NA,NA,NA,NA,NA,NA,NA,NA,NA,NA,NA,NA,NA,NA,NA
"314","stim/objects/HouseObjects/dustpan.png",451,12,444,0.9,"stim/43.jpeg",4,3,3,2,"HouseObjects",1,2,"left","left",0.613000154,1,1,1,0,NA,NA,NA,NA,NA,NA,NA,NA,NA,NA,NA,NA,NA,NA,NA,NA,NA,NA,NA,NA,NA,NA,NA,NA
"568","stim/objects/Instruments/vuvuzela2.png",452,12,445,0.1,"stim/43.jpeg",4,3,3,1,"Instruments",2,3,"right","left",0.437000036,0,0,1,0,42,12,1,0.1,2,"stim/43.jpeg",4,3,"stim/43.jpeg",3,"left",4.031999826,2,4,6.211999893,1,1.324999809,42,1,0,0,0,0,1
"543","stim/objects/Instruments/harmonica.png",453,12,446,0.5,"stim/53.jpeg",5,3,1,1,"Instruments",2,3,"right","left",0.720999956,0,0,1,0,72,12,1,0.5,1,"stim/53.jpeg",5,3,"stim/53.jpeg",3,"left",1.17599988,4,3,3.985999823,3,2.583999872,72,1,1,1,1,1,1
"299","stim/objects/HouseObjects/doormat.png",454,12,447,0.9,"stim/44.jpeg",4,4,3,2,"HouseObjects",1,4,"left","left",0.638000011,1,1,1,0,NA,NA,NA,NA,NA,NA,NA,NA,NA,NA,NA,NA,NA,NA,NA,NA,NA,NA,NA,NA,NA,NA,NA,NA
"380","stim/objects/HouseObjects/handbrush.png",455,12,448,0.5,"stim/51.jpeg",5,1,1,1,"HouseObjects",1,1,"left","right",0.604000092,0,0,1,0,10,12,1,0.5,1,"stim/51.jpeg",5,1,"stim/51.jpeg",1,"right",1.634000063,4,2,10.17599988,4,5.664999962,10,0,0,NA,0,NA,1
"512","stim/objects/Instruments/gong.png",456,12,449,0.9,"stim/33.jpeg",3,3,3,2,"Instruments",2,2,"right","left",0.448000193,0,0,1,0,NA,NA,NA,NA,NA,NA,NA,NA,NA,NA,NA,NA,NA,NA,NA,NA,NA,NA,NA,NA,NA,NA,NA,NA
"538","stim/objects/Instruments/grandpiano.png",457,12,450,0.9,"stim/34.jpeg",3,4,3,2,"Instruments",2,1,"right","right",0.648000002,1,1,1,0,NA,NA,NA,NA,NA,NA,NA,NA,NA,NA,NA,NA,NA,NA,NA,NA,NA,NA,NA,NA,NA,NA,NA,NA
"323","stim/objects/HouseObjects/dustpan.png",458,12,451,0.9,"stim/44.jpeg",4,4,3,2,"HouseObjects",1,3,"left","left",0.568000078,1,1,1,0,NA,NA,NA,NA,NA,NA,NA,NA,NA,NA,NA,NA,NA,NA,NA,NA,NA,NA,NA,NA,NA,NA,NA,NA
"514","stim/objects/Instruments/gong.png",459,12,452,0.9,"stim/34.jpeg",3,4,3,2,"Instruments",2,4,"right","right",0.639000177,1,1,1,0,NA,NA,NA,NA,NA,NA,NA,NA,NA,NA,NA,NA,NA,NA,NA,NA,NA,NA,NA,NA,NA,NA,NA,NA
"324","stim/objects/HouseObjects/dustpan2.png",460,12,453,0.1,"stim/32.jpeg",3,2,3,1,"HouseObjects",1,2,"left","",NA,0,0,1,0,30,12,1,0.1,1,"stim/32.jpeg",3,2,"stim/32.jpeg",2,"right",2.082000017,4,4,0.838999987,2,1.618000031,30,0,0,NA,1,NA,1
"519","stim/objects/Instruments/gong.png",461,12,454,0.9,"stim/34.jpeg",3,4,3,2,"Instruments",2,3,"right","right",0.59800005,1,1,1,0,NA,NA,NA,NA,NA,NA,NA,NA,NA,NA,NA,NA,NA,NA,NA,NA,NA,NA,NA,NA,NA,NA,NA,NA
"545","stim/objects/Instruments/harp.png",462,12,455,0.5,"stim/54.jpeg",5,4,1,1,"Instruments",2,4,"right","left",0.781999826,0,0,1,0,99,12,1,0.5,1,"stim/54.jpeg",5,4,"stim/54.jpeg",4,"left",1.169999838,4,3,2.274999857,2,1.302999973,99,1,0,0,0,0,1
"555","stim/objects/Instruments/timbal.png",463,12,456,0.5,"stim/62.jpeg",6,2,1,1,"Instruments",2,4,"right","left",0.776000023,0,0,1,0,148,12,1,0.5,2,"stim/62.jpeg",6,2,"stim/62.jpeg",4,"left",2.874999762,3,4,1.013000011,2,1.138000011,148,1,0,0,0,0,1
"501","stim/objects/Instruments/frenchhorn.png",464,12,457,0.9,"stim/32.jpeg",3,2,3,2,"Instruments",2,1,"right","right",0.647000074,1,1,1,0,NA,NA,NA,NA,NA,NA,NA,NA,NA,NA,NA,NA,NA,NA,NA,NA,NA,NA,NA,NA,NA,NA,NA,NA
"537","stim/objects/Instruments/grandpiano.png",465,12,458,0.9,"stim/34.jpeg",3,4,3,2,"Instruments",2,1,"right","right",0.643999815,1,1,1,0,NA,NA,NA,NA,NA,NA,NA,NA,NA,NA,NA,NA,NA,NA,NA,NA,NA,NA,NA,NA,NA,NA,NA,NA
"242","stim/objects/HouseObjects/ashtray.png",466,12,459,0.5,"stim/52.jpeg",5,2,1,2,"HouseObjects",1,3,"left","left",0.838999987,1,1,1,0,NA,NA,NA,NA,NA,NA,NA,NA,NA,NA,NA,NA,NA,NA,NA,NA,NA,NA,NA,NA,NA,NA,NA,NA
"315","stim/objects/HouseObjects/dustpan.png",467,12,460,0.9,"stim/43.jpeg",4,3,3,2,"HouseObjects",1,2,"left","left",0.700000048,1,1,1,0,NA,NA,NA,NA,NA,NA,NA,NA,NA,NA,NA,NA,NA,NA,NA,NA,NA,NA,NA,NA,NA,NA,NA,NA
"554","stim/objects/Instruments/tambourine2.png",468,12,461,0.1,"stim/44.jpeg",4,4,3,1,"Instruments",2,4,"right","left",0.59100008,0,0,1,0,17,12,1,0.1,2,"stim/44.jpeg",4,4,"stim/44.jpeg",4,"left",1.016000032,4,3,5.945999861,2,1.741999865,17,1,0,0,0,0,1
"316","stim/objects/HouseObjects/dustpan.png",469,12,462,0.9,"stim/44.jpeg",4,4,3,2,"HouseObjects",1,2,"left","left",0.685000181,1,1,1,0,NA,NA,NA,NA,NA,NA,NA,NA,NA,NA,NA,NA,NA,NA,NA,NA,NA,NA,NA,NA,NA,NA,NA,NA
"442","stim/objects/Instruments/doublebass.png",470,12,463,0.7,"stim/11.jpeg",1,1,2,2,"Instruments",2,1,"right","right",0.770000219,1,1,1,0,NA,NA,NA,NA,NA,NA,NA,NA,NA,NA,NA,NA,NA,NA,NA,NA,NA,NA,NA,NA,NA,NA,NA,NA
