"","participant","OvsN","PE_level","object_cat","obj_file","scn_file","corr_scn_cat","corr_scn_inst","scn_file.1","corr_loc","key_resp_id.keys","key_resp_id.rt","key_resp_conf.keys","key_resp_assoc.keys","key_resp_assoc.rt","key_resp_loc.keys","key_resp_loc.rt","trialN","id_acc","assoc.acc","cond_assoc","loc.acc","cond_loc","group"
"1",12,1,0.7,1,"stim/objects/HouseObjects/clothesdryingrack2.png","stim/21.jpeg",2,1,"stim/21.jpeg",3,"left",2.489000082,4,2,9.225000143,3,2.555999994,1,1,0,0,1,1,1
"2",12,1,0.1,1,"stim/objects/HouseObjects/handbrush2.png","stim/34.jpeg",3,4,"stim/34.jpeg",3,"left",6.819000006,3,3,7.349999905,2,4.801000118,2,1,0,0,0,0,1
"3",12,2,0,2,"stim/objects/Instruments/electricguitar3.png","",0,0,"",0,"right",3.963999987,NA,NA,NA,NA,NA,3,1,NA,NA,NA,NA,1
"4",12,2,0,1,"stim/objects/HouseObjects/bleachbottle3.png","",0,0,"",0,"left",4.895999908,NA,NA,NA,NA,NA,4,0,NA,NA,NA,NA,1
"5",12,1,0.9,1,"stim/objects/HouseObjects/towel2.png","stim/44.jpeg",4,4,"stim/44.jpeg",3,"left",3.681999922,4,4,6.057999849,4,9.303999901,5,1,1,1,0,0,1
"6",12,1,0.3,2,"stim/objects/Instruments/bassguitar2.png","stim/22.jpeg",2,2,"stim/22.jpeg",4,"left",1.426999807,4,3,15.01399994,4,1.871000051,6,1,0,0,1,1,1
"7",12,2,0,2,"stim/objects/Instruments/bassguitar3.png","",0,0,"",0,"left",2.335999966,NA,NA,NA,NA,NA,7,0,NA,NA,NA,NA,1
"8",12,2,0,1,"stim/objects/HouseObjects/hairdryer3.png","",0,0,"",0,"right",3.08100009,NA,NA,NA,NA,NA,8,1,NA,NA,NA,NA,1
"9",12,1,0.9,2,"stim/objects/Instruments/flutetrans2.png","stim/34.jpeg",3,4,"stim/34.jpeg",4,"left",0.983999968,4,3,6.907999992,2,3.451999903,9,1,0,0,0,0,1
"10",12,1,0.5,1,"stim/objects/HouseObjects/handbrush.png","stim/51.jpeg",5,1,"stim/51.jpeg",1,"right",1.634000063,4,2,10.17599988,4,5.664999962,10,0,0,NA,0,NA,1
"11",12,2,0,1,"stim/objects/HouseObjects/safetypin3.png","",0,0,"",0,"left",1.395999908,NA,NA,NA,NA,NA,11,0,NA,NA,NA,NA,1
"12",12,1,0.3,1,"stim/objects/HouseObjects/thermometer.png","stim/11.jpeg",1,1,"stim/11.jpeg",1,"right",1.653000116,4,4,5.247999907,2,2.065999746,12,0,0,NA,0,NA,1
"13",12,2,0,2,"stim/objects/Instruments/doublebass4.png","",0,0,"",0,"right",3.03399992,NA,NA,NA,NA,NA,13,1,NA,NA,NA,NA,1
"14",12,2,0,2,"stim/objects/Instruments/electricdrumset3.png","",0,0,"",0,"left",2.111999989,NA,NA,NA,NA,NA,14,0,NA,NA,NA,NA,1
"15",12,1,0.5,2,"stim/objects/Instruments/triangle.png","stim/63.jpeg",6,3,"stim/63.jpeg",4,"left",1.199999809,4,1,7.155999899,1,2.510999918,15,1,0,0,0,0,1
"16",12,2,0,2,"stim/objects/Instruments/cornet3.png","",0,0,"",0,"right",1.557999849,NA,NA,NA,NA,NA,16,1,NA,NA,NA,NA,1
"17",12,1,0.1,2,"stim/objects/Instruments/tambourine2.png","stim/44.jpeg",4,4,"stim/44.jpeg",4,"left",1.016000032,4,3,5.945999861,2,1.741999865,17,1,0,0,0,0,1
"18",12,2,0,2,"stim/objects/Instruments/tuba3.png","",0,0,"",0,"left",2.242999792,NA,NA,NA,NA,NA,18,0,NA,NA,NA,NA,1
"19",12,1,0.7,2,"stim/objects/Instruments/violin.png","stim/14.jpeg",1,4,"stim/14.jpeg",2,"left",0.970999956,4,4,3.635999918,4,4.456999779,19,1,1,1,0,0,1
"20",12,2,0,1,"stim/objects/HouseObjects/blender3.png","",0,0,"",0,"left",2.53399992,NA,NA,NA,NA,NA,20,0,NA,NA,NA,NA,1
"21",12,2,0,2,"stim/objects/Instruments/vuvuzela3.png","",0,0,"",0,"right",0.944999933,NA,NA,NA,NA,NA,21,1,NA,NA,NA,NA,1
"22",12,1,0.3,2,"stim/objects/Instruments/doublebass2.png","stim/24.jpeg",2,4,"stim/24.jpeg",3,"right",1.166000128,4,4,2.460999966,4,1.011999846,22,0,1,NA,0,NA,1
"23",12,1,0.1,2,"stim/objects/Instruments/triangle2.png","stim/42.jpeg",4,2,"stim/42.jpeg",1,"left",2.996999741,4,4,5.725999832,3,3.368999958,23,1,0,0,0,0,1
"24",12,1,0.5,1,"stim/objects/HouseObjects/handvacuum.png","stim/52.jpeg",5,2,"stim/52.jpeg",4,"left",1.394999981,4,3,12.65400004,3,4.350999832,24,1,0,0,0,0,1
"25",12,2,0,2,"stim/objects/Instruments/hihat3.png","",0,0,"",0,"right",1.849999905,NA,NA,NA,NA,NA,25,1,NA,NA,NA,NA,1
"26",12,2,0,1,"stim/objects/HouseObjects/clothespin4.png","",0,0,"",0,"right",2.181999922,NA,NA,NA,NA,NA,26,1,NA,NA,NA,NA,1
"27",12,2,0,1,"stim/objects/HouseObjects/glass3.png","",0,0,"",0,"right",2.754999876,NA,NA,NA,NA,NA,27,1,NA,NA,NA,NA,1
"28",12,2,0,2,"stim/objects/Instruments/flute3.png","",0,0,"",0,"right",3.679999828,NA,NA,NA,NA,NA,28,1,NA,NA,NA,NA,1
"29",12,2,0,1,"stim/objects/HouseObjects/clothesdryingrack3.png","",0,0,"",0,"right",1.143000126,NA,NA,NA,NA,NA,29,1,NA,NA,NA,NA,1
"30",12,1,0.1,1,"stim/objects/HouseObjects/dustpan2.png","stim/32.jpeg",3,2,"stim/32.jpeg",2,"right",2.082000017,4,4,0.838999987,2,1.618000031,30,0,0,NA,1,NA,1
"31",12,2,0,2,"stim/objects/Instruments/cello3.png","",0,0,"",0,"left",1.161000013,NA,NA,NA,NA,NA,31,0,NA,NA,NA,NA,1
"32",12,1,0.9,2,"stim/objects/Instruments/harp2.png","stim/32.jpeg",3,2,"stim/32.jpeg",1,"left",1.217999935,4,2,7.016000032,4,3.407999992,32,1,1,1,0,0,1
"33",12,2,0,2,"stim/objects/Instruments/timbal3.png","",0,0,"",0,"right",1.274999857,NA,NA,NA,NA,NA,33,1,NA,NA,NA,NA,1
"34",12,2,0,2,"stim/objects/Instruments/doublebass3.png","",0,0,"",0,"right",1.047999859,NA,NA,NA,NA,NA,34,1,NA,NA,NA,NA,1
"35",12,1,0.1,1,"stim/objects/HouseObjects/doormat2.png","stim/31.jpeg",3,1,"stim/31.jpeg",1,"right",1.330999851,4,3,0.684999943,4,1.171000004,35,0,0,NA,0,NA,1
"36",12,2,0,2,"stim/objects/Instruments/gong3.png","",0,0,"",0,"right",2.082999945,NA,NA,NA,NA,NA,36,1,NA,NA,NA,NA,1
"37",12,1,0.9,2,"stim/objects/Instruments/gong2.png","stim/32.jpeg",3,2,"stim/32.jpeg",2,"right",1.167999983,4,1,2.897999763,1,1.187999964,37,0,0,NA,0,NA,1
"38",12,2,0,1,"stim/objects/HouseObjects/thermometer3.png","",0,0,"",0,"right",1.117999792,NA,NA,NA,NA,NA,38,1,NA,NA,NA,NA,1
"39",12,2,0,1,"stim/objects/HouseObjects/sponge3.png","",0,0,"",0,"right",2.123999834,NA,NA,NA,NA,NA,39,1,NA,NA,NA,NA,1
"40",12,1,0.1,2,"stim/objects/Instruments/violin2.png","stim/42.jpeg",4,2,"stim/42.jpeg",2,"left",1.790999889,3,3,2.453999996,2,1.394000053,40,1,0,0,1,1,1
"41",12,1,0.5,2,"stim/objects/Instruments/speaker.png","stim/64.jpeg",6,4,"stim/64.jpeg",1,"left",1.345000029,4,4,34.08999991,4,7.993000031,41,1,1,1,0,0,1
"42",12,1,0.1,2,"stim/objects/Instruments/vuvuzela2.png","stim/43.jpeg",4,3,"stim/43.jpeg",3,"left",4.031999826,2,4,6.211999893,1,1.324999809,42,1,0,0,0,0,1
"43",12,2,0,2,"stim/objects/Instruments/electricguitar4.png","",0,0,"",0,"right",1.27699995,NA,NA,NA,NA,NA,43,1,NA,NA,NA,NA,1
"44",12,1,0.9,1,"stim/objects/HouseObjects/scale2.png","stim/42.jpeg",4,2,"stim/42.jpeg",4,"right",0.745999813,1,1,2.248999834,2,2.502000093,44,0,0,NA,0,NA,1
"45",12,2,0,1,"stim/objects/HouseObjects/handvacuum3.png","",0,0,"",0,"right",3.047999859,NA,NA,NA,NA,NA,45,1,NA,NA,NA,NA,1
"46",12,1,0.5,2,"stim/objects/Instruments/trombone.png","stim/64.jpeg",6,4,"stim/64.jpeg",1,"left",1.697000027,2,3,5.495999813,2,7.940999985,46,1,0,0,0,0,1
"47",12,1,0.3,1,"stim/objects/HouseObjects/basket2.png","stim/11.jpeg",1,1,"stim/11.jpeg",2,"left",1.230999708,4,3,4.296999931,1,2.628999949,47,1,0,0,0,0,1
"48",12,2,0,2,"stim/objects/Instruments/speaker3.png","",0,0,"",0,"right",1.066999912,NA,NA,NA,NA,NA,48,1,NA,NA,NA,NA,1
"49",12,1,0.5,1,"stim/objects/HouseObjects/glassmop.png","stim/53.jpeg",5,3,"stim/53.jpeg",3,"right",1.004999876,1,1,0.725000143,1,1.106999874,49,0,0,NA,0,NA,1
"50",12,1,0.9,2,"stim/objects/Instruments/frenchhorn2.png","stim/31.jpeg",3,1,"stim/31.jpeg",1,"left",1.11500001,1,2,1.103999853,2,0.686000109,50,1,0,0,0,0,1
"51",12,1,0.1,2,"stim/objects/Instruments/trombone2.png","stim/43.jpeg",4,3,"stim/43.jpeg",4,"right",3.215999842,1,2,0.706999779,4,1.371999979,51,0,0,NA,1,NA,1
"52",12,2,0,2,"stim/objects/Instruments/cymbal4.png","",0,0,"",0,"right",1.426999807,NA,NA,NA,NA,NA,52,1,NA,NA,NA,NA,1
"53",12,2,0,2,"stim/objects/Instruments/drums4.png","",0,0,"",0,"right",1.485999823,NA,NA,NA,NA,NA,53,1,NA,NA,NA,NA,1
"54",12,2,0,1,"stim/objects/HouseObjects/thread3.png","",0,0,"",0,"right",1.174999952,NA,NA,NA,NA,NA,54,1,NA,NA,NA,NA,1
"55",12,1,0.1,1,"stim/objects/HouseObjects/flyswatter2.png","stim/33.jpeg",3,3,"stim/33.jpeg",3,"right",1.305000067,1,3,0.680000067,2,0.51699996,55,0,1,NA,0,NA,1
"56",12,1,0.9,2,"stim/objects/Instruments/grandpiano2.png","stim/33.jpeg",3,3,"stim/33.jpeg",2,"left",2.941999912,3,2,3.535999775,2,1.365999937,56,1,0,0,1,1,1
"57",12,2,0,2,"stim/objects/Instruments/balalaika4.png","",0,0,"",0,"left",1.240999937,NA,NA,NA,NA,NA,57,0,NA,NA,NA,NA,1
"58",12,1,0.1,1,"stim/objects/HouseObjects/safetypin2.png","stim/32.jpeg",3,2,"stim/32.jpeg",1,"right",2.014999866,1,3,0.384000063,2,0.394999981,58,0,0,NA,0,NA,1
"59",12,1,0.7,1,"stim/objects/HouseObjects/cushion2.png","stim/24.jpeg",2,4,"stim/24.jpeg",4,"left",1.25,4,3,7.079999924,1,2.098999977,59,1,0,0,0,0,1
"60",12,2,0,2,"stim/objects/Instruments/guitarcase3.png","",0,0,"",0,"right",2.539999962,NA,NA,NA,NA,NA,60,1,NA,NA,NA,NA,1
"61",12,1,0.3,1,"stim/objects/HouseObjects/wateringcan.png","stim/11.jpeg",1,1,"stim/11.jpeg",1,"right",1.072000027,2,3,0.309000015,1,0.385999918,61,0,0,NA,1,NA,1
"62",12,2,0,2,"stim/objects/Instruments/triangle3.png","",0,0,"",0,"right",1.133999825,NA,NA,NA,NA,NA,62,1,NA,NA,NA,NA,1
"63",12,2,0,1,"stim/objects/HouseObjects/broom4.png","",0,0,"",0,"right",1.572000027,NA,NA,NA,NA,NA,63,1,NA,NA,NA,NA,1
"64",12,1,0.7,1,"stim/objects/HouseObjects/coffee2.png","stim/23.jpeg",2,3,"stim/23.jpeg",2,"left",1.40899992,4,4,3.184999943,1,0.922999859,64,1,0,0,0,0,1
"65",12,1,0.1,1,"stim/objects/HouseObjects/garbagebin2.png","stim/34.jpeg",3,4,"stim/34.jpeg",4,"right",1.376999855,4,3,0.389999866,2,0.323999882,65,0,0,NA,0,NA,1
"66",12,1,0.3,2,"stim/objects/Instruments/chime2.png","stim/24.jpeg",2,4,"stim/24.jpeg",1,"left",1.200000048,4,4,3.88499999,2,2.631999731,66,1,1,1,0,0,1
"67",12,2,0,2,"stim/objects/Instruments/accordion4.png","",0,0,"",0,"left",1.325999975,NA,NA,NA,NA,NA,67,0,NA,NA,NA,NA,1
"68",12,2,0,1,"stim/objects/HouseObjects/wateringcan3.png","",0,0,"",0,"right",0.850999832,NA,NA,NA,NA,NA,68,1,NA,NA,NA,NA,1
"69",12,2,0,2,"stim/objects/Instruments/flutetrans3.png","",0,0,"",0,"right",1.249000072,NA,NA,NA,NA,NA,69,1,NA,NA,NA,NA,1
"70",12,1,0.3,1,"stim/objects/HouseObjects/towel.png","stim/13.jpeg",1,3,"stim/13.jpeg",1,"right",1.089999914,4,2,0.328999758,3,0.350999832,70,0,0,NA,0,NA,1
"71",12,1,0.7,1,"stim/objects/HouseObjects/dishsoap2.png","stim/21.jpeg",2,1,"stim/21.jpeg",4,"left",1.084000111,4,3,4.457999945,2,1.270999908,71,1,0,0,0,0,1
"72",12,1,0.5,1,"stim/objects/Instruments/harmonica.png","stim/53.jpeg",5,3,"stim/53.jpeg",3,"left",1.17599988,4,3,3.985999823,3,2.583999872,72,1,1,1,1,1,1
"73",12,2,0,2,"stim/objects/Instruments/accordion3.png","",0,0,"",0,"left",2.009999752,NA,NA,NA,NA,NA,73,0,NA,NA,NA,NA,1
"74",12,1,0.3,2,"stim/objects/Instruments/cymbal2.png","stim/23.jpeg",2,3,"stim/23.jpeg",4,"right",2.5,4,2,0.259999752,3,0.323999882,74,0,0,NA,0,NA,1
"75",12,1,0.1,1,"stim/objects/HouseObjects/hairdryer2.png","stim/33.jpeg",3,3,"stim/33.jpeg",3,"right",2.723999977,4,3,0.249999762,2,0.314999819,75,0,1,NA,0,NA,1
"76",12,2,0,1,"stim/objects/HouseObjects/clock3.png","",0,0,"",0,"right",5.032000065,NA,NA,NA,NA,NA,76,1,NA,NA,NA,NA,1
"77",12,1,0.7,2,"stim/objects/Instruments/balalaika2.png","stim/11.jpeg",1,1,"stim/11.jpeg",4,"right",3.348999977,3,2,0.575000048,2,2.657999992,77,0,0,NA,0,NA,1
"78",12,2,0,2,"stim/objects/Instruments/trumpet3.png","",0,0,"",0,"right",1.125999928,NA,NA,NA,NA,NA,78,1,NA,NA,NA,NA,1
"79",12,1,0.9,1,"stim/objects/HouseObjects/thread2.png","stim/43.jpeg",4,3,"stim/43.jpeg",3,"right",1.178999901,3,2,0.336999893,3,0.944000006,79,0,0,NA,1,NA,1
"80",12,1,0.9,2,"stim/objects/Instruments/hihat2.png","stim/33.jpeg",3,3,"stim/33.jpeg",3,"left",1.95299983,3,3,1.391000032,2,1.608999968,80,1,1,1,0,0,1
"81",12,2,0,1,"stim/objects/HouseObjects/clothespin3.png","",0,0,"",0,"left",1.51699996,NA,NA,NA,NA,NA,81,0,NA,NA,NA,NA,1
"82",12,2,0,1,"stim/objects/HouseObjects/broom3.png","",0,0,"",0,"right",1.325000048,NA,NA,NA,NA,NA,82,1,NA,NA,NA,NA,1
"83",12,2,0,2,"stim/objects/Instruments/trombone3.png","",0,0,"",0,"right",1.272000074,NA,NA,NA,NA,NA,83,1,NA,NA,NA,NA,1
"84",12,1,0.9,1,"stim/objects/HouseObjects/sponge2.png","stim/43.jpeg",4,3,"stim/43.jpeg",4,"left",1.004999876,4,4,5.953000069,3,3.815999985,84,1,0,0,0,0,1
"85",12,2,0,2,"stim/objects/Instruments/bassguitar4.png","",0,0,"",0,"right",1.148999929,NA,NA,NA,NA,NA,85,1,NA,NA,NA,NA,1
"86",12,2,0,1,"stim/objects/HouseObjects/clock4.png","",0,0,"",0,"right",0.991999865,NA,NA,NA,NA,NA,86,1,NA,NA,NA,NA,1
"87",12,1,0.7,2,"stim/objects/Instruments/tuba.png","stim/13.jpeg",1,3,"stim/13.jpeg",3,"right",1.022999763,3,2,0.265000105,3,0.389999866,87,0,0,NA,1,NA,1
"88",12,2,0,2,"stim/objects/Instruments/violin3.png","",0,0,"",0,"right",1.177999973,NA,NA,NA,NA,NA,88,1,NA,NA,NA,NA,1
"89",12,1,0.7,2,"stim/objects/Instruments/bassdrum2.png","stim/13.jpeg",1,3,"stim/13.jpeg",1,"right",5.15199995,3,2,0.27699995,3,0.265999794,89,0,0,NA,0,NA,1
"90",12,2,0,1,"stim/objects/HouseObjects/coffee4.png","",0,0,"",0,"right",0.950000048,NA,NA,NA,NA,NA,90,1,NA,NA,NA,NA,1
"91",12,1,0.1,2,"stim/objects/Instruments/tuba2.png","stim/41.jpeg",4,1,"stim/41.jpeg",3,"right",1.008999825,3,2,0.259999752,3,0.286999941,91,0,0,NA,1,NA,1
"92",12,1,0.7,2,"stim/objects/Instruments/acousticguitar2.png","stim/14.jpeg",1,4,"stim/14.jpeg",4,"right",0.909999847,3,4,3.937999725,4,1.338999987,92,0,1,NA,1,NA,1
"93",12,1,0.1,2,"stim/objects/Instruments/xylophone2.png","stim/44.jpeg",4,4,"stim/44.jpeg",2,"left",0.977999926,4,3,0.960000038,1,2.42599988,93,1,0,0,0,0,1
"94",12,1,0.7,1,"stim/objects/HouseObjects/clothespin2.png","stim/22.jpeg",2,2,"stim/22.jpeg",3,"right",2.321999788,3,2,0.325999737,4,1.107999802,94,0,1,NA,0,NA,1
"95",12,2,0,1,"stim/objects/HouseObjects/spraybottle3.png","",0,0,"",0,"right",1.118000031,NA,NA,NA,NA,NA,95,1,NA,NA,NA,NA,1
"96",12,2,0,1,"stim/objects/HouseObjects/vacuumcleaner3.png","",0,0,"",0,"right",1.356999874,NA,NA,NA,NA,NA,96,1,NA,NA,NA,NA,1
"97",12,1,0.3,2,"stim/objects/Instruments/clarinet2.png","stim/21.jpeg",2,1,"stim/21.jpeg",1,"right",1.246000051,3,2,0.376999855,4,1.095999956,97,0,0,NA,0,NA,1
"98",12,1,0.7,2,"stim/objects/Instruments/trumpet.png","stim/12.jpeg",1,2,"stim/12.jpeg",4,"left",1.961999893,3,2,2.194999933,2,1.902999878,98,1,1,1,0,0,1
"99",12,1,0.5,1,"stim/objects/Instruments/harp.png","stim/54.jpeg",5,4,"stim/54.jpeg",4,"left",1.169999838,4,3,2.274999857,2,1.302999973,99,1,0,0,0,0,1
"100",12,2,0,1,"stim/objects/HouseObjects/cushion4.png","",0,0,"",0,"right",1.142999887,NA,NA,NA,NA,NA,100,1,NA,NA,NA,NA,1
"101",12,1,0.5,2,"stim/objects/Instruments/tambourine.png","stim/61.jpeg",6,1,"stim/61.jpeg",2,"left",3.388999939,2,4,3.013000011,3,1.688999891,101,1,0,0,0,0,1
"102",12,2,0,1,"stim/objects/HouseObjects/blender4.png","",0,0,"",0,"right",2.424000025,NA,NA,NA,NA,NA,102,1,NA,NA,NA,NA,1
"103",12,1,0.1,2,"stim/objects/Instruments/speaker2.png","stim/43.jpeg",4,3,"stim/43.jpeg",1,"right",1.636999846,3,3,0.94299984,3,1.184999704,103,0,1,NA,0,NA,1
"104",12,1,0.3,1,"stim/objects/HouseObjects/vacuumcleaner.png","stim/14.jpeg",1,4,"stim/14.jpeg",1,"right",6.859999895,3,3,0.600999832,2,0.90899992,104,0,0,NA,0,NA,1
"105",12,1,0.3,1,"stim/objects/HouseObjects/barbecuelighter2.png","stim/14.jpeg",1,4,"stim/14.jpeg",3,"left",1.249000072,4,3,4.292999983,1,0.825999737,105,1,0,0,0,0,1
"106",12,2,0,1,"stim/objects/HouseObjects/scale3.png","",0,0,"",0,"left",1.127999783,NA,NA,NA,NA,NA,106,0,NA,NA,NA,NA,1
"107",12,2,0,2,"stim/objects/Instruments/chime4.png","",0,0,"",0,"right",1.637999773,NA,NA,NA,NA,NA,107,1,NA,NA,NA,NA,1
"108",12,1,0.5,2,"stim/objects/HouseObjects/teapot.png","stim/61.jpeg",6,1,"stim/61.jpeg",1,"left",1.208999872,4,4,2.349999905,3,9.679999828,108,1,0,0,0,0,1
"109",12,2,0,2,"stim/objects/Instruments/xylophone3.png","",0,0,"",0,"right",8.641000032,NA,NA,NA,NA,NA,109,1,NA,NA,NA,NA,1
"110",12,1,0.7,1,"stim/objects/HouseObjects/bottle2.png","stim/21.jpeg",2,1,"stim/21.jpeg",1,"left",1.352999926,4,3,3.346999884,3,1.956999779,110,1,0,0,0,0,1
"111",12,1,0.9,2,"stim/objects/Instruments/flute2.png","stim/33.jpeg",3,3,"stim/33.jpeg",4,"left",2.100999832,3,1,2.115999699,3,4.25999999,111,1,0,0,0,0,1
"112",12,2,0,2,"stim/objects/Instruments/saxophone3.png","",0,0,"",0,"left",2.802999973,NA,NA,NA,NA,NA,112,0,NA,NA,NA,NA,1
"113",12,1,0.3,2,"stim/objects/Instruments/electricguitar2.png","stim/23.jpeg",2,3,"stim/23.jpeg",1,"left",1.649999857,3,4,4.135999918,1,1.211999893,113,1,0,0,1,1,1
"114",12,2,0,1,"stim/objects/HouseObjects/bucket4.png","",0,0,"",0,"left",1.001999855,NA,NA,NA,NA,NA,114,0,NA,NA,NA,NA,1
"115",12,2,0,2,"stim/objects/Instruments/harp3.png","",0,0,"",0,"right",2.767999887,NA,NA,NA,NA,NA,115,1,NA,NA,NA,NA,1
"116",12,1,0.7,2,"stim/objects/Instruments/banjo2.png","stim/12.jpeg",1,2,"stim/12.jpeg",2,"right",2.847999811,1,2,1.009999752,3,1.118999958,116,0,1,NA,0,NA,1
"117",12,1,0.5,2,"stim/objects/HouseObjects/sponge.png","stim/63.jpeg",6,3,"stim/63.jpeg",1,"left",1.200999975,4,3,4.802000046,2,2.15899992,117,1,1,1,0,0,1
"118",12,1,0.3,1,"stim/objects/HouseObjects/bleachbottle2.png","stim/12.jpeg",1,2,"stim/12.jpeg",4,"left",1.187999964,4,2,2.707000017,3,1.519999743,118,1,1,1,0,0,1
"119",12,1,0.9,1,"stim/objects/HouseObjects/spraybottle2.png","stim/44.jpeg",4,4,"stim/44.jpeg",1,"left",1.210000038,3,1,2.562999725,1,2.156000137,119,1,0,0,1,1,1
"120",12,1,0.5,1,"stim/objects/Instruments/hihat.png","stim/51.jpeg",5,1,"stim/51.jpeg",2,"left",1.227999926,4,2,7.154999971,2,1.82799983,120,1,0,0,1,1,1
"121",12,1,0.5,2,"stim/objects/HouseObjects/saw.png","stim/61.jpeg",6,1,"stim/61.jpeg",2,"left",0.980999947,4,1,5.963000059,1,0.799999952,121,1,1,1,0,0,1
"122",12,2,0,1,"stim/objects/HouseObjects/coffee3.png","",0,0,"",0,"right",2.695999861,NA,NA,NA,NA,NA,122,1,NA,NA,NA,NA,1
"123",12,2,0,1,"stim/objects/HouseObjects/glassmop3.png","",0,0,"",0,"right",0.955999851,NA,NA,NA,NA,NA,123,1,NA,NA,NA,NA,1
"124",12,2,0,1,"stim/objects/HouseObjects/flyswatter3.png","",0,0,"",0,"right",1.639999866,NA,NA,NA,NA,NA,124,1,NA,NA,NA,NA,1
"125",12,2,0,1,"stim/objects/HouseObjects/barbecuelighter3.png","",0,0,"",0,"right",1.006000042,NA,NA,NA,NA,NA,125,1,NA,NA,NA,NA,1
"126",12,1,0.9,2,"stim/objects/Instruments/harmonica2.png","stim/31.jpeg",3,1,"stim/31.jpeg",1,"left",0.981999874,4,3,4.856999874,1,0.760999918,126,1,0,0,1,1,1
"127",12,2,0,1,"stim/objects/HouseObjects/teapot3.png","",0,0,"",0,"right",0.843999863,NA,NA,NA,NA,NA,127,1,NA,NA,NA,NA,1
"128",12,1,0.5,2,"stim/objects/HouseObjects/spraybottle.png","stim/64.jpeg",6,4,"stim/64.jpeg",3,"left",1.065000057,4,2,3.225999832,1,1.361000061,128,1,0,0,0,0,1
"129",12,1,0.5,2,"stim/objects/HouseObjects/scale.png","stim/62.jpeg",6,2,"stim/62.jpeg",2,"left",1.032999754,4,3,4.079999924,2,3.424999952,129,1,0,0,1,1,1
"130",12,2,0,2,"stim/objects/Instruments/balalaika3.png","",0,0,"",0,"left",3.141999722,NA,NA,NA,NA,NA,130,0,NA,NA,NA,NA,1
"131",12,2,0,2,"stim/objects/Instruments/grandpiano3.png","",0,0,"",0,"right",3.392999887,NA,NA,NA,NA,NA,131,1,NA,NA,NA,NA,1
"132",12,2,0,1,"stim/objects/HouseObjects/basket3.png","",0,0,"",0,"right",0.862999916,NA,NA,NA,NA,NA,132,1,NA,NA,NA,NA,1
"133",12,2,0,1,"stim/objects/HouseObjects/ashtray3.png","",0,0,"",0,"right",1.069999933,NA,NA,NA,NA,NA,133,1,NA,NA,NA,NA,1
"134",12,2,0,2,"stim/objects/Instruments/clarinet3.png","",0,0,"",0,"right",2.999000072,NA,NA,NA,NA,NA,134,1,NA,NA,NA,NA,1
"135",12,1,0.9,1,"stim/objects/HouseObjects/saw2.png","stim/41.jpeg",4,1,"stim/41.jpeg",3,"right",1.075999975,1,2,0.369999886,3,0.512999773,135,0,0,NA,1,NA,1
"136",12,2,0,1,"stim/objects/HouseObjects/bleachbottle4.png","",0,0,"",0,"right",0.997999907,NA,NA,NA,NA,NA,136,1,NA,NA,NA,NA,1
"137",12,1,0.3,2,"stim/objects/Instruments/electricdrumset2.png","stim/22.jpeg",2,2,"stim/22.jpeg",2,"left",1.208999872,4,3,2.247999907,3,2.823999882,137,1,0,0,0,0,1
"138",12,1,0.7,1,"stim/objects/HouseObjects/broom2.png","stim/22.jpeg",2,2,"stim/22.jpeg",4,"left",2.197999716,3,3,0.911999941,3,4.138999939,138,1,0,0,0,0,1
"139",12,2,0,2,"stim/objects/Instruments/cymbal3.png","",0,0,"",0,"left",1.143999815,NA,NA,NA,NA,NA,139,0,NA,NA,NA,NA,1
"140",12,2,0,1,"stim/objects/HouseObjects/dishsoap3.png","",0,0,"",0,"left",0.881999969,NA,NA,NA,NA,NA,140,0,NA,NA,NA,NA,1
"141",12,1,0.3,1,"stim/objects/HouseObjects/ashtray2.png","stim/12.jpeg",1,2,"stim/12.jpeg",2,"right",1.203000069,3,3,3.004999876,2,0.986999989,141,0,0,NA,1,NA,1
"142",12,2,0,1,"stim/objects/HouseObjects/basket4.png","",0,0,"",0,"right",2.149999857,NA,NA,NA,NA,NA,142,1,NA,NA,NA,NA,1
"143",12,2,0,1,"stim/objects/HouseObjects/ashtray4.png","",0,0,"",0,"right",0.945999861,NA,NA,NA,NA,NA,143,1,NA,NA,NA,NA,1
"144",12,1,0.5,1,"stim/objects/Instruments/saxophone.png","stim/52.jpeg",5,2,"stim/52.jpeg",2,"left",0.989000082,4,4,1.916999817,4,0.001999855,144,1,0,0,0,0,1
"145",12,2,0,2,"stim/objects/Instruments/banjo4.png","",0,0,"",0,"left",3.53399992,NA,NA,NA,NA,NA,145,0,NA,NA,NA,NA,1
"146",12,1,0.9,1,"stim/objects/HouseObjects/wateringcan2.png","stim/42.jpeg",4,2,"stim/42.jpeg",4,"left",4.77699995,3,2,1.5,1,1.345999956,146,1,1,1,0,0,1
"147",12,1,0.3,1,"stim/objects/HouseObjects/thread.png","stim/12.jpeg",1,2,"stim/12.jpeg",3,"left",1.200999975,4,3,1.673999786,2,1.128000021,147,1,0,0,0,0,1
"148",12,1,0.5,2,"stim/objects/Instruments/timbal.png","stim/62.jpeg",6,2,"stim/62.jpeg",4,"left",2.874999762,3,4,1.013000011,2,1.138000011,148,1,0,0,0,0,1
"149",12,1,0.3,2,"stim/objects/Instruments/drums2.png","stim/21.jpeg",2,1,"stim/21.jpeg",3,"left",2.432999849,4,1,2.973999977,1,0.92599988,149,1,1,1,0,0,1
"150",12,1,0.7,1,"stim/objects/HouseObjects/clock2.png","stim/24.jpeg",2,4,"stim/24.jpeg",3,"left",1.04399991,4,4,0.882999897,2,4.494999886,150,1,1,1,0,0,1
"151",12,2,0,1,"stim/objects/HouseObjects/cushion3.png","",0,0,"",0,"right",1.04399991,NA,NA,NA,NA,NA,151,1,NA,NA,NA,NA,1
"152",12,2,0,2,"stim/objects/Instruments/tambourine3.png","",0,0,"",0,"right",0.791999817,NA,NA,NA,NA,NA,152,1,NA,NA,NA,NA,1
"153",12,1,0.9,1,"stim/objects/HouseObjects/thermometer2.png","stim/42.jpeg",4,2,"stim/42.jpeg",1,"left",1.121999979,4,3,4.021999836,2,2.29399991,153,1,0,0,0,0,1
"154",12,2,0,2,"stim/objects/Instruments/acousticguitar4.png","",0,0,"",0,"left",2.108999968,NA,NA,NA,NA,NA,154,0,NA,NA,NA,NA,1
"155",12,2,0,1,"stim/objects/HouseObjects/ballofstring4.png","",0,0,"",0,"right",1.052999973,NA,NA,NA,NA,NA,155,1,NA,NA,NA,NA,1
"156",12,2,0,1,"stim/objects/HouseObjects/dustpan3.png","",0,0,"",0,"right",0.889999866,NA,NA,NA,NA,NA,156,1,NA,NA,NA,NA,1
"157",12,1,0.3,2,"stim/objects/Instruments/cornet2.png","stim/22.jpeg",2,2,"stim/22.jpeg",4,"right",2.061000109,1,3,0.699999809,2,0.508999825,157,0,0,NA,0,NA,1
"158",12,2,0,2,"stim/objects/Instruments/electricdrumset4.png","",0,0,"",0,"left",0.97300005,NA,NA,NA,NA,NA,158,0,NA,NA,NA,NA,1
"159",12,1,0.9,1,"stim/objects/HouseObjects/vacuumcleaner2.png","stim/41.jpeg",4,1,"stim/41.jpeg",2,"right",1.987999916,3,4,0.617999792,2,0.703000069,159,0,0,NA,1,NA,1
"160",12,2,0,2,"stim/objects/Instruments/chime3.png","",0,0,"",0,"right",1.094000101,NA,NA,NA,NA,NA,160,1,NA,NA,NA,NA,1
"161",12,2,0,1,"stim/objects/HouseObjects/saw3.png","",0,0,"",0,"right",1.032999754,NA,NA,NA,NA,NA,161,1,NA,NA,NA,NA,1
"162",12,1,0.7,2,"stim/objects/Instruments/accordion2.png","stim/13.jpeg",1,3,"stim/13.jpeg",2,"left",1.155999899,4,3,1.84100008,1,1.424999952,162,1,1,1,0,0,1
"163",12,2,0,1,"stim/objects/HouseObjects/barbecuelighter4.png","",0,0,"",0,"right",3.199999809,NA,NA,NA,NA,NA,163,1,NA,NA,NA,NA,1
"164",12,1,0.9,2,"stim/objects/Instruments/guitarcase2.png","stim/34.jpeg",3,4,"stim/34.jpeg",4,"left",0.990999937,4,3,1.688999891,1,1.767999887,164,1,0,0,0,0,1
"165",12,1,0.1,1,"stim/objects/HouseObjects/glassmop2.png","stim/32.jpeg",3,2,"stim/32.jpeg",3,"right",1.962999821,3,2,0.338000059,3,0.743999958,165,0,1,NA,1,NA,1
"166",12,2,0,2,"stim/objects/Instruments/bassdrum4.png","",0,0,"",0,"right",1.679999828,NA,NA,NA,NA,NA,166,1,NA,NA,NA,NA,1
"167",12,1,0.7,2,"stim/objects/Instruments/vuvuzela.png","stim/11.jpeg",1,1,"stim/11.jpeg",2,"left",4.220999956,4,3,9.059000015,1,0.953999996,167,1,0,0,0,0,1
"168",12,2,0,1,"stim/objects/HouseObjects/towel3.png","",0,0,"",0,"right",1.838000059,NA,NA,NA,NA,NA,168,1,NA,NA,NA,NA,1
"169",12,1,0.5,1,"stim/objects/Instruments/guitarcase.png","stim/52.jpeg",5,2,"stim/52.jpeg",3,"left",0.967000008,4,4,0.001999855,3,2.474999905,169,1,0,0,1,1,1
"170",12,2,0,2,"stim/objects/Instruments/cello4.png","",0,0,"",0,"left",13.38899994,NA,NA,NA,NA,NA,170,0,NA,NA,NA,NA,1
"171",12,2,0,2,"stim/objects/Instruments/banjo3.png","",0,0,"",0,"left",1.532999992,NA,NA,NA,NA,NA,171,0,NA,NA,NA,NA,1
"172",12,1,0.7,1,"stim/objects/HouseObjects/bucket2.png","stim/23.jpeg",2,3,"stim/23.jpeg",3,"right",1.289000034,2,3,0.619999886,1,0.733999968,172,0,1,NA,0,NA,1
"173",12,2,0,2,"stim/objects/Instruments/harmonica3.png","",0,0,"",0,"right",2.782000065,NA,NA,NA,NA,NA,173,1,NA,NA,NA,NA,1
"174",12,1,0.7,1,"stim/objects/HouseObjects/blender2.png","stim/24.jpeg",2,4,"stim/24.jpeg",3,"right",1.032999754,3,2,0.345000029,3,0.339999914,174,0,0,NA,1,NA,1
"175",12,1,0.9,1,"stim/objects/HouseObjects/teapot2.png","stim/41.jpeg",4,1,"stim/41.jpeg",4,"right",3.159999847,3,2,0.334000111,3,0.383999825,175,0,0,NA,0,NA,1
"176",12,2,0,1,"stim/objects/HouseObjects/bottle3.png","",0,0,"",0,"right",0.901000023,NA,NA,NA,NA,NA,176,1,NA,NA,NA,NA,1
"177",12,1,0.1,2,"stim/objects/Instruments/trumpet2.png","stim/44.jpeg",4,4,"stim/44.jpeg",1,"right",2.010999918,3,2,0.30099988,3,0.335999966,177,0,0,NA,0,NA,1
"178",12,2,0,1,"stim/objects/HouseObjects/clothesdryingrack4.png","",0,0,"",0,"right",0.883999825,NA,NA,NA,NA,NA,178,1,NA,NA,NA,NA,1
"179",12,1,0.3,2,"stim/objects/Instruments/cello2.png","stim/23.jpeg",2,3,"stim/23.jpeg",3,"left",1.332999945,2,3,0.694999933,1,0.578999758,179,1,1,1,0,0,1
"180",12,2,0,2,"stim/objects/Instruments/clarinet4.png","",0,0,"",0,"left",2.270999908,NA,NA,NA,NA,NA,180,0,NA,NA,NA,NA,1
"181",12,2,0,1,"stim/objects/HouseObjects/doormat3.png","",0,0,"",0,"right",1.737999916,NA,NA,NA,NA,NA,181,1,NA,NA,NA,NA,1
"182",12,2,0,1,"stim/objects/HouseObjects/dishsoap4.png","",0,0,"",0,"right",1.049999952,NA,NA,NA,NA,NA,182,1,NA,NA,NA,NA,1
"183",12,1,0.3,1,"stim/objects/HouseObjects/ballofstring2.png","stim/13.jpeg",1,3,"stim/13.jpeg",3,"left",1.009000063,4,3,4.85199976,3,0.001999855,183,1,1,1,1,1,1
"184",12,2,0,2,"stim/objects/Instruments/bassdrum3.png","",0,0,"",0,"right",5.579999924,NA,NA,NA,NA,NA,184,1,NA,NA,NA,NA,1
"185",12,2,0,2,"stim/objects/Instruments/acousticguitar3.png","",0,0,"",0,"right",3.872999907,NA,NA,NA,NA,NA,185,1,NA,NA,NA,NA,1
"186",12,2,0,2,"stim/objects/Instruments/frenchhorn3.png","",0,0,"",0,"left",1.100999832,NA,NA,NA,NA,NA,186,0,NA,NA,NA,NA,1
"187",12,1,0.1,1,"stim/objects/HouseObjects/glass2.png","stim/31.jpeg",3,1,"stim/31.jpeg",1,"left",1.399999857,4,2,2.308999777,3,1.432999849,187,1,0,0,0,0,1
"188",12,2,0,1,"stim/objects/HouseObjects/bottle4.png","",0,0,"",0,"right",3.852999926,NA,NA,NA,NA,NA,188,1,NA,NA,NA,NA,1
"189",12,1,0.5,1,"stim/objects/HouseObjects/safetypin.png","stim/53.jpeg",5,3,"stim/53.jpeg",3,"left",1.004999876,4,4,5.212999821,1,0.989999771,189,1,0,0,0,0,1
"190",12,1,0.1,1,"stim/objects/HouseObjects/handvacuum2.png","stim/31.jpeg",3,1,"stim/31.jpeg",2,"left",5.595999956,2,3,0.733999968,2,1.694999933,190,1,0,0,1,1,1
"191",12,1,0.7,2,"stim/objects/Instruments/xylophone.png","stim/12.jpeg",1,2,"stim/12.jpeg",3,"left",2.552999973,2,3,0.832999945,4,1.008999825,191,1,0,0,0,0,1
"192",12,1,0.1,2,"stim/objects/Instruments/timbal2.png","stim/41.jpeg",4,1,"stim/41.jpeg",1,"left",1.115999937,2,4,2.75,4,2.194000006,192,1,0,0,0,0,1
"193",12,2,0,1,"stim/objects/HouseObjects/ballofstring3.png","",0,0,"",0,"right",2.365999937,NA,NA,NA,NA,NA,193,1,NA,NA,NA,NA,1
"194",12,2,0,2,"stim/objects/Instruments/cornet4.png","",0,0,"",0,"right",0.850999832,NA,NA,NA,NA,NA,194,1,NA,NA,NA,NA,1
"195",12,1,0.9,2,"stim/objects/Instruments/saxophone2.png","stim/34.jpeg",3,4,"stim/34.jpeg",2,"right",2.496999741,1,2,0.549999952,3,0.367000103,195,0,0,NA,0,NA,1
"196",12,2,0,2,"stim/objects/Instruments/drums3.png","",0,0,"",0,"right",2.315999985,NA,NA,NA,NA,NA,196,1,NA,NA,NA,NA,1
"197",12,2,0,1,"stim/objects/HouseObjects/handbrush3.png","",0,0,"",0,"right",0.927999735,NA,NA,NA,NA,NA,197,1,NA,NA,NA,NA,1
"198",12,2,0,1,"stim/objects/HouseObjects/garbagebin3.png","",0,0,"",0,"right",1.133999825,NA,NA,NA,NA,NA,198,1,NA,NA,NA,NA,1
"199",12,1,0.5,1,"stim/objects/HouseObjects/hairdryer.png","stim/54.jpeg",5,4,"stim/54.jpeg",3,"right",1.445999861,3,2,0.305999994,2,0.381999969,199,0,0,NA,0,NA,1
"200",12,2,0,1,"stim/objects/HouseObjects/bucket3.png","",0,0,"",0,"right",1.272999763,NA,NA,NA,NA,NA,200,1,NA,NA,NA,NA,1
