"","participant","trial_index","trial_cond","scn_file","scn_cat","scn_inst","scn_condition","fillers","obj_cat","obj_cat_num","obj_file","quadrant","corr_ans","key_resp_trial.keys","key_resp_trial.rt","trial_acc","trial_acc_manual","group"
"1",12,1,0.5,"stim/54.jpeg",5,4,1,NA,"HouseObjects",1,"stim/objects/HouseObjects/knife.png",4,"left","",NA,0,0,1
"2",12,2,0.3,"stim/14.jpeg",1,4,2,NA,"HouseObjects",1,"stim/objects/HouseObjects/rug.png",4,"left","",NA,0,0,1
"3",12,3,0.3,"stim/22.jpeg",2,2,2,NA,"Instruments",2,"stim/objects/Instruments/laud2.png",3,"right","",NA,0,0,1
"4",12,4,0.9,"stim/43.jpeg",4,3,3,NA,"HouseObjects",1,"stim/objects/HouseObjects/rubbergloves2.png",2,"left","left",0.703000069,1,1,1
"5",12,5,0.7,"stim/21.jpeg",2,1,2,NA,"HouseObjects",1,"stim/objects/HouseObjects/iron2.png",1,"left","left",0.704999924,1,1,1
"6",12,6,0.9,"stim/31.jpeg",3,1,3,NA,"Instruments",2,"stim/objects/Instruments/metronome2.png",3,"right","right",0.724999905,1,1,1
"7",12,7,0.7,"stim/22.jpeg",2,2,2,NA,"HouseObjects",1,"stim/objects/HouseObjects/ironingboard2.png",3,"left","left",0.628000021,1,1,1
"8",12,8,0.9,"stim/34.jpeg",3,4,3,NA,"Instruments",2,"stim/objects/Instruments/oboe2.png",2,"right","right",0.855000019,1,1,1
"9",12,9,0.7,"stim/24.jpeg",2,4,2,NA,"HouseObjects",1,"stim/objects/HouseObjects/knife2.png",4,"left","left",0.835999966,1,1,1
"10",12,10,0.3,"stim/22.jpeg",2,2,2,NA,"Instruments",2,"stim/objects/Instruments/laud2.png",4,"right","left",0.724999905,0,0,1
"11",12,11,0.7,"stim/11.jpeg",1,1,2,NA,"Instruments",2,"stim/objects/Instruments/panflute.png",1,"right","right",0.794000149,1,1,1
"12",12,12,0.9,"stim/44.jpeg",4,4,3,NA,"HouseObjects",1,"stim/objects/HouseObjects/rug2.png",4,"left","left",0.687999964,1,1,1
"13",12,13,0.5,"stim/61.jpeg",6,1,1,NA,"Instruments",2,"stim/objects/Instruments/metronome.png",2,"right","",NA,0,0,1
"14",12,14,0.3,"stim/24.jpeg",2,4,2,NA,"Instruments",2,"stim/objects/Instruments/marimba2.png",2,"right","",NA,0,0,1
"15",12,15,0.7,"stim/14.jpeg",1,4,2,NA,"Instruments",2,"stim/objects/Instruments/record_player.png",2,"right","right",0.655999899,1,1,1
"16",12,16,0.7,"stim/14.jpeg",1,4,2,NA,"Instruments",2,"stim/objects/Instruments/record_player.png",4,"right","right",0.707000017,1,1,1
"17",12,17,0.9,"stim/43.jpeg",4,3,3,NA,"HouseObjects",1,"stim/objects/HouseObjects/rubbergloves2.png",4,"left","left",0.68200016,1,1,1
"18",12,18,0.5,"stim/61.jpeg",6,1,1,NA,"Instruments",2,"stim/objects/Instruments/metronome.png",2,"right","right",0.822999954,1,1,1
"19",12,19,0.9,"stim/34.jpeg",3,4,3,NA,"Instruments",2,"stim/objects/Instruments/oboe2.png",1,"right","right",0.782999992,1,1,1
"20",12,20,0.7,"stim/11.jpeg",1,1,2,NA,"Instruments",2,"stim/objects/Instruments/panflute.png",2,"right","right",0.907999992,1,1,1
"21",12,21,0.7,"stim/13.jpeg",1,3,2,NA,"Instruments",2,"stim/objects/Instruments/record.png",4,"right","left",0.737999916,0,0,1
"22",12,22,0.7,"stim/12.jpeg",1,2,2,NA,"Instruments",2,"stim/objects/Instruments/pipepiano.png",1,"right","right",0.65199995,1,1,1
"23",12,23,0.5,"stim/64.jpeg",6,4,1,NA,"Instruments",2,"stim/objects/Instruments/oboe.png",3,"right","right",0.819999933,1,1,1
"24",12,24,0.5,"stim/63.jpeg",6,3,1,NA,"HouseObjects",1,"stim/objects/HouseObjects/pan.png",3,"left","",NA,0,0,1
"25",12,25,0.7,"stim/12.jpeg",1,2,2,NA,"Instruments",2,"stim/objects/Instruments/pipepiano.png",1,"right","right",0.657000065,1,1,1
"26",12,26,0.9,"stim/31.jpeg",3,1,3,NA,"Instruments",2,"stim/objects/Instruments/metronome2.png",4,"right","right",0.746000051,1,1,1
"27",12,27,0.7,"stim/13.jpeg",1,3,2,NA,"Instruments",2,"stim/objects/Instruments/record.png",4,"right","right",0.72300005,1,1,1
"28",12,28,0.9,"stim/42.jpeg",4,2,3,NA,"HouseObjects",1,"stim/objects/HouseObjects/remote2.png",4,"left","left",0.693000078,1,1,1
"29",12,29,0.7,"stim/11.jpeg",1,1,2,NA,"Instruments",2,"stim/objects/Instruments/panflute.png",3,"right","right",0.710999966,1,1,1
"30",12,30,0.5,"stim/62.jpeg",6,2,1,NA,"HouseObjects",1,"stim/objects/HouseObjects/match.png",1,"left","",NA,0,0,1
"31",12,31,0.7,"stim/23.jpeg",2,3,2,NA,"HouseObjects",1,"stim/objects/HouseObjects/key2.png",2,"left","",NA,0,0,1
"32",12,32,0.9,"stim/32.jpeg",3,2,3,NA,"Instruments",2,"stim/objects/Instruments/musicsheet2.png",3,"right","right",0.644999981,1,1,1
"33",12,33,0.5,"stim/51.jpeg",5,1,1,NA,"HouseObjects",1,"stim/objects/HouseObjects/iron.png",3,"left","right",0.773999929,0,0,1
"34",12,34,0.3,"stim/12.jpeg",1,2,2,NA,"HouseObjects",1,"stim/objects/HouseObjects/remote.png",2,"left","right",0.703000069,0,0,1
"35",12,35,0.5,"stim/62.jpeg",6,2,1,NA,"Instruments",2,"stim/objects/Instruments/musicsheet.png",1,"right","",NA,0,0,1
"36",12,36,0.9,"stim/32.jpeg",3,2,3,NA,"Instruments",2,"stim/objects/Instruments/musicsheet2.png",4,"right","right",0.731999874,1,1,1
"37",12,37,0.3,"stim/24.jpeg",2,4,2,NA,"Instruments",2,"stim/objects/Instruments/marimba2.png",3,"right","left",0.61500001,0,0,1
"38",12,38,0.7,"stim/11.jpeg",1,1,2,NA,"Instruments",2,"stim/objects/Instruments/panflute.png",2,"right","right",0.633999825,1,1,1
"39",12,39,0.7,"stim/22.jpeg",2,2,2,NA,"HouseObjects",1,"stim/objects/HouseObjects/ironingboard2.png",4,"left","left",0.763000011,1,1,1
"40",12,40,0.1,"stim/31.jpeg",3,1,3,NA,"HouseObjects",1,"stim/objects/HouseObjects/lintroller2.png",4,"left","right",0.606000185,0,0,1
"41",12,41,0.9,"stim/41.jpeg",4,1,3,NA,"HouseObjects",1,"stim/objects/HouseObjects/recyclingbin2.png",1,"left","left",0.61500001,1,1,1
"42",12,42,0.9,"stim/42.jpeg",4,2,3,NA,"HouseObjects",1,"stim/objects/HouseObjects/remote2.png",1,"left","left",0.623999834,1,1,1
"43",12,43,0.1,"stim/32.jpeg",3,2,3,NA,"HouseObjects",1,"stim/objects/HouseObjects/match2.png",4,"left","right",0.656999826,0,0,1
"44",12,44,0.3,"stim/13.jpeg",1,3,2,NA,"HouseObjects",1,"stim/objects/HouseObjects/rubbergloves.png",1,"left","",NA,0,0,1
"45",12,45,0.7,"stim/22.jpeg",2,2,2,NA,"HouseObjects",1,"stim/objects/HouseObjects/ironingboard2.png",3,"left","left",0.769000053,1,1,1
"46",12,46,0.3,"stim/14.jpeg",1,4,2,NA,"HouseObjects",1,"stim/objects/HouseObjects/rug.png",2,"left","right",0.520999908,0,0,1
"47",12,47,0.9,"stim/34.jpeg",3,4,3,NA,"Instruments",2,"stim/objects/Instruments/oboe2.png",1,"right","right",0.870999813,1,1,1
"48",12,48,0.5,"stim/61.jpeg",6,1,1,NA,"HouseObjects",1,"stim/objects/HouseObjects/lintroller.png",4,"left","right",0.898000002,0,0,1
"49",12,49,0.5,"stim/51.jpeg",5,1,1,NA,"Instruments",2,"stim/objects/Instruments/keyboard.png",4,"right","right",0.667000055,1,1,1
"50",12,50,0.7,"stim/11.jpeg",1,1,2,NA,"Instruments",2,"stim/objects/Instruments/panflute.png",1,"right","right",0.633000135,1,1,1
"51",12,51,0.5,"stim/63.jpeg",6,3,1,NA,"HouseObjects",1,"stim/objects/HouseObjects/pan.png",1,"left","left",0.835000038,1,1,1
"52",12,52,0.9,"stim/32.jpeg",3,2,3,NA,"Instruments",2,"stim/objects/Instruments/musicsheet2.png",4,"right","right",0.523000002,1,1,1
"53",12,53,0.3,"stim/22.jpeg",2,2,2,NA,"Instruments",2,"stim/objects/Instruments/laud2.png",4,"right","left",0.601000071,0,0,1
"54",12,54,0.5,"stim/54.jpeg",5,4,1,NA,"Instruments",2,"stim/objects/Instruments/marimba.png",2,"right","",NA,0,0,1
"55",12,55,0.5,"stim/54.jpeg",5,4,1,NA,"HouseObjects",1,"stim/objects/HouseObjects/knife.png",4,"left","right",0.609999895,0,0,1
"56",12,56,0.9,"stim/42.jpeg",4,2,3,NA,"HouseObjects",1,"stim/objects/HouseObjects/remote2.png",2,"left","left",0.642999887,1,1,1
"57",12,57,0.5,"stim/52.jpeg",5,2,1,NA,"HouseObjects",1,"stim/objects/HouseObjects/ironingboard.png",2,"left","right",0.804000139,0,0,1
"58",12,58,0.7,"stim/23.jpeg",2,3,2,NA,"HouseObjects",1,"stim/objects/HouseObjects/key2.png",2,"left","left",0.851999998,1,1,1
"59",12,59,0.1,"stim/41.jpeg",4,1,3,NA,"Instruments",2,"stim/objects/Instruments/panflute2.png",1,"right","left",0.687000036,0,0,1
"60",12,60,0.7,"stim/24.jpeg",2,4,2,NA,"HouseObjects",1,"stim/objects/HouseObjects/knife2.png",3,"left","left",0.680999994,1,1,1
"61",12,61,0.7,"stim/21.jpeg",2,1,2,NA,"HouseObjects",1,"stim/objects/HouseObjects/iron2.png",2,"left","left",0.704999924,1,1,1
"62",12,62,0.7,"stim/22.jpeg",2,2,2,NA,"HouseObjects",1,"stim/objects/HouseObjects/ironingboard2.png",3,"left","left",0.794000149,1,1,1
"63",12,63,0.9,"stim/32.jpeg",3,2,3,NA,"Instruments",2,"stim/objects/Instruments/musicsheet2.png",4,"right","right",0.664000034,1,1,1
"64",12,64,0.3,"stim/11.jpeg",1,1,2,NA,"HouseObjects",1,"stim/objects/HouseObjects/recyclingbin.png",4,"left","right",0.837999821,0,0,1
"65",12,65,0.5,"stim/53.jpeg",5,3,1,NA,"HouseObjects",1,"stim/objects/HouseObjects/key.png",1,"left","right",0.696000099,0,0,1
"66",12,66,0.9,"stim/43.jpeg",4,3,3,NA,"HouseObjects",1,"stim/objects/HouseObjects/rubbergloves2.png",1,"left","left",0.697999954,1,1,1
"67",12,67,0.9,"stim/41.jpeg",4,1,3,NA,"HouseObjects",1,"stim/objects/HouseObjects/recyclingbin2.png",1,"left","left",0.648999929,1,1,1
"68",12,68,0.5,"stim/54.jpeg",5,4,1,NA,"Instruments",2,"stim/objects/Instruments/marimba.png",4,"right","right",0.67599988,1,1,1
"69",12,69,0.9,"stim/31.jpeg",3,1,3,NA,"Instruments",2,"stim/objects/Instruments/metronome2.png",2,"right","right",0.717000008,1,1,1
"70",12,70,0.1,"stim/42.jpeg",4,2,3,NA,"Instruments",2,"stim/objects/Instruments/pipepiano2.png",3,"right","left",0.64199996,0,0,1
"71",12,71,0.3,"stim/23.jpeg",2,3,2,NA,"Instruments",2,"stim/objects/Instruments/maraca2.png",1,"right","left",0.727999926,0,0,1
"72",12,72,0.7,"stim/11.jpeg",1,1,2,NA,"Instruments",2,"stim/objects/Instruments/panflute.png",3,"right","right",0.619999886,1,1,1
"73",12,73,0.9,"stim/44.jpeg",4,4,3,NA,"HouseObjects",1,"stim/objects/HouseObjects/rug2.png",2,"left","left",0.594000101,1,1,1
"74",12,74,0.1,"stim/34.jpeg",3,4,3,NA,"HouseObjects",1,"stim/objects/HouseObjects/pitcher2.png",3,"left","right",0.61500001,0,0,1
"75",12,75,0.7,"stim/14.jpeg",1,4,2,NA,"Instruments",2,"stim/objects/Instruments/record_player.png",3,"right","right",0.671000004,1,1,1
"76",12,76,0.5,"stim/63.jpeg",6,3,1,NA,"Instruments",2,"stim/objects/Instruments/musicstand.png",1,"right","",NA,0,0,1
"77",12,77,0.5,"stim/61.jpeg",6,1,1,NA,"HouseObjects",1,"stim/objects/HouseObjects/lintroller.png",1,"left","left",0.775000095,1,1,1
"78",12,78,0.7,"stim/23.jpeg",2,3,2,NA,"HouseObjects",1,"stim/objects/HouseObjects/key2.png",3,"left","right",0.778000116,0,0,1
"79",12,79,0.5,"stim/52.jpeg",5,2,1,NA,"HouseObjects",1,"stim/objects/HouseObjects/ironingboard.png",2,"left","right",0.652999878,0,0,1
"80",12,80,0.5,"stim/53.jpeg",5,3,1,NA,"HouseObjects",1,"stim/objects/HouseObjects/key.png",2,"left","right",0.816999912,0,0,1
"81",12,81,0.5,"stim/51.jpeg",5,1,1,NA,"Instruments",2,"stim/objects/Instruments/keyboard.png",1,"right","right",0.687000036,1,1,1
"82",12,82,0.5,"stim/52.jpeg",5,2,1,NA,"HouseObjects",1,"stim/objects/HouseObjects/ironingboard.png",1,"left","right",0.84100008,0,0,1
"83",12,83,0.1,"stim/44.jpeg",4,4,3,NA,"Instruments",2,"stim/objects/Instruments/record_player2.png",3,"right","left",0.913000107,0,0,1
"84",12,84,0.9,"stim/34.jpeg",3,4,3,NA,"Instruments",2,"stim/objects/Instruments/oboe2.png",4,"right","right",0.638000011,1,1,1
"85",12,85,0.9,"stim/33.jpeg",3,3,3,NA,"Instruments",2,"stim/objects/Instruments/musicstand2.png",1,"right","right",0.616999865,1,1,1
"86",12,86,0.3,"stim/12.jpeg",1,2,2,NA,"HouseObjects",1,"stim/objects/HouseObjects/remote.png",1,"left","right",0.684999943,0,0,1
"87",12,87,0.3,"stim/21.jpeg",2,1,2,NA,"Instruments",2,"stim/objects/Instruments/keyboard2.png",4,"right","left",0.613999844,0,0,1
"88",12,88,0.3,"stim/21.jpeg",2,1,2,NA,"Instruments",2,"stim/objects/Instruments/keyboard2.png",4,"right","right",0.715000153,1,1,1
"89",12,89,0.5,"stim/51.jpeg",5,1,1,NA,"HouseObjects",1,"stim/objects/HouseObjects/iron.png",1,"left","",NA,0,0,1
"90",12,90,0.7,"stim/22.jpeg",2,2,2,NA,"HouseObjects",1,"stim/objects/HouseObjects/ironingboard2.png",4,"left","",NA,0,0,1
"91",12,91,0.7,"stim/14.jpeg",1,4,2,NA,"Instruments",2,"stim/objects/Instruments/record_player.png",1,"right","right",0.618999958,1,1,1
"92",12,92,0.3,"stim/13.jpeg",1,3,2,NA,"HouseObjects",1,"stim/objects/HouseObjects/rubbergloves.png",4,"left","right",0.621999979,0,0,1
"93",12,93,0.7,"stim/24.jpeg",2,4,2,NA,"HouseObjects",1,"stim/objects/HouseObjects/knife2.png",4,"left","",NA,0,0,1
"94",12,94,0.3,"stim/11.jpeg",1,1,2,NA,"HouseObjects",1,"stim/objects/HouseObjects/recyclingbin.png",2,"left","",NA,0,0,1
"95",12,95,0.7,"stim/14.jpeg",1,4,2,NA,"Instruments",2,"stim/objects/Instruments/record_player.png",3,"right","",NA,0,0,1
"96",12,96,0.7,"stim/21.jpeg",2,1,2,NA,"HouseObjects",1,"stim/objects/HouseObjects/iron2.png",1,"left","left",0.670000076,1,1,1
"97",12,97,0.9,"stim/32.jpeg",3,2,3,NA,"Instruments",2,"stim/objects/Instruments/musicsheet2.png",3,"right","right",0.644000053,1,1,1
"98",12,98,0.9,"stim/31.jpeg",3,1,3,NA,"Instruments",2,"stim/objects/Instruments/metronome2.png",3,"right","right",0.569999933,1,1,1
"99",12,99,0.7,"stim/13.jpeg",1,3,2,NA,"Instruments",2,"stim/objects/Instruments/record.png",2,"right","left",0.900000095,0,0,1
"100",12,100,0.5,"stim/63.jpeg",6,3,1,NA,"HouseObjects",1,"stim/objects/HouseObjects/pan.png",1,"left","right",0.743999958,0,0,1
"101",12,101,0.5,"stim/52.jpeg",5,2,1,NA,"Instruments",2,"stim/objects/Instruments/laud.png",2,"right","right",0.65199995,1,1,1
"102",12,102,0.3,"stim/13.jpeg",1,3,2,NA,"HouseObjects",1,"stim/objects/HouseObjects/rubbergloves.png",4,"left","right",0.792000055,0,0,1
"103",12,103,0.9,"stim/42.jpeg",4,2,3,NA,"HouseObjects",1,"stim/objects/HouseObjects/remote2.png",3,"left","left",0.630000114,1,1,1
"104",12,104,0.5,"stim/51.jpeg",5,1,1,NA,"HouseObjects",1,"stim/objects/HouseObjects/iron.png",1,"left","right",0.644999981,0,0,1
"105",12,105,0.9,"stim/31.jpeg",3,1,3,NA,"Instruments",2,"stim/objects/Instruments/metronome2.png",1,"right","",NA,0,0,1
"106",12,106,0.9,"stim/41.jpeg",4,1,3,NA,"HouseObjects",1,"stim/objects/HouseObjects/recyclingbin2.png",1,"left","left",0.773000002,1,1,1
"107",12,107,0.5,"stim/54.jpeg",5,4,1,NA,"Instruments",2,"stim/objects/Instruments/marimba.png",2,"right","right",0.720000029,1,1,1
"108",12,108,0.9,"stim/33.jpeg",3,3,3,NA,"Instruments",2,"stim/objects/Instruments/musicstand2.png",1,"right","right",0.578999996,1,1,1
"109",12,109,0.9,"stim/41.jpeg",4,1,3,NA,"HouseObjects",1,"stim/objects/HouseObjects/recyclingbin2.png",3,"left","left",0.51699996,1,1,1
"110",12,110,0.9,"stim/34.jpeg",3,4,3,NA,"Instruments",2,"stim/objects/Instruments/oboe2.png",2,"right","right",0.523999929,1,1,1
"111",12,111,0.1,"stim/43.jpeg",4,3,3,NA,"Instruments",2,"stim/objects/Instruments/record2.png",3,"right","left",0.579999924,0,0,1
"112",12,112,0.7,"stim/13.jpeg",1,3,2,NA,"Instruments",2,"stim/objects/Instruments/record.png",1,"right","right",0.667000055,1,1,1
"113",12,113,0.5,"stim/51.jpeg",5,1,1,NA,"Instruments",2,"stim/objects/Instruments/keyboard.png",4,"right","right",0.628999949,1,1,1
"114",12,114,0.9,"stim/33.jpeg",3,3,3,NA,"Instruments",2,"stim/objects/Instruments/musicstand2.png",4,"right","right",0.654000044,1,1,1
"115",12,115,0.5,"stim/64.jpeg",6,4,1,NA,"HouseObjects",1,"stim/objects/HouseObjects/pitcher.png",1,"left","left",0.882000208,1,1,1
"116",12,116,0.5,"stim/64.jpeg",6,4,1,NA,"Instruments",2,"stim/objects/Instruments/oboe.png",3,"right","left",0.735000134,0,0,1
"117",12,117,0.5,"stim/54.jpeg",5,4,1,NA,"HouseObjects",1,"stim/objects/HouseObjects/knife.png",1,"left","right",0.767000198,0,0,1
"118",12,118,0.5,"stim/53.jpeg",5,3,1,NA,"HouseObjects",1,"stim/objects/HouseObjects/key.png",3,"left","right",0.58100009,0,0,1
"119",12,119,0.3,"stim/21.jpeg",2,1,2,NA,"Instruments",2,"stim/objects/Instruments/keyboard2.png",2,"right","left",0.684999943,0,0,1
"120",12,120,0.9,"stim/33.jpeg",3,3,3,NA,"Instruments",2,"stim/objects/Instruments/musicstand2.png",2,"right","left",0.819999933,0,0,1
"121",12,121,0.5,"stim/52.jpeg",5,2,1,NA,"HouseObjects",1,"stim/objects/HouseObjects/ironingboard.png",3,"left","left",0.638000011,1,1,1
"122",12,122,0.9,"stim/31.jpeg",3,1,3,NA,"Instruments",2,"stim/objects/Instruments/metronome2.png",2,"right","right",0.608999968,1,1,1
"123",12,123,0.9,"stim/41.jpeg",4,1,3,NA,"HouseObjects",1,"stim/objects/HouseObjects/recyclingbin2.png",3,"left","left",0.648000002,1,1,1
"124",12,124,0.7,"stim/23.jpeg",2,3,2,NA,"HouseObjects",1,"stim/objects/HouseObjects/key2.png",3,"left","right",0.849999905,0,0,1
"125",12,125,0.7,"stim/13.jpeg",1,3,2,NA,"Instruments",2,"stim/objects/Instruments/record.png",4,"right","right",0.788000107,1,1,1
"126",12,126,0.9,"stim/33.jpeg",3,3,3,NA,"Instruments",2,"stim/objects/Instruments/musicstand2.png",2,"right","right",0.59800005,1,1,1
"127",12,127,0.7,"stim/22.jpeg",2,2,2,NA,"HouseObjects",1,"stim/objects/HouseObjects/ironingboard2.png",3,"left","right",0.792999983,0,0,1
"128",12,128,0.5,"stim/53.jpeg",5,3,1,NA,"Instruments",2,"stim/objects/Instruments/maraca.png",3,"right","left",0.885999918,0,0,1
"129",12,129,0.9,"stim/44.jpeg",4,4,3,NA,"HouseObjects",1,"stim/objects/HouseObjects/rug2.png",4,"left","left",0.644000053,1,1,1
"130",12,130,0.5,"stim/64.jpeg",6,4,1,NA,"Instruments",2,"stim/objects/Instruments/oboe.png",3,"right","left",0.73300004,0,0,1
"131",12,131,0.5,"stim/54.jpeg",5,4,1,NA,"HouseObjects",1,"stim/objects/HouseObjects/knife.png",2,"left","right",0.752000093,0,0,1
"132",12,132,0.9,"stim/33.jpeg",3,3,3,NA,"Instruments",2,"stim/objects/Instruments/musicstand2.png",2,"right","right",0.634000063,1,1,1
"133",12,133,0.5,"stim/64.jpeg",6,4,1,NA,"HouseObjects",1,"stim/objects/HouseObjects/pitcher.png",4,"left","left",0.697999954,1,1,1
"134",12,134,0.5,"stim/63.jpeg",6,3,1,NA,"Instruments",2,"stim/objects/Instruments/musicstand.png",1,"right","right",0.795000076,1,1,1
"135",12,135,0.5,"stim/62.jpeg",6,2,1,NA,"Instruments",2,"stim/objects/Instruments/musicsheet.png",2,"right","left",0.845999956,0,0,1
"136",12,136,0.9,"stim/32.jpeg",3,2,3,NA,"Instruments",2,"stim/objects/Instruments/musicsheet2.png",4,"right","",NA,0,0,1
"137",12,137,0.3,"stim/24.jpeg",2,4,2,NA,"Instruments",2,"stim/objects/Instruments/marimba2.png",2,"right","left",0.700000048,0,0,1
"138",12,138,0.9,"stim/33.jpeg",3,3,3,NA,"Instruments",2,"stim/objects/Instruments/musicstand2.png",2,"right","right",0.56799984,1,1,1
"139",12,139,0.7,"stim/12.jpeg",1,2,2,NA,"Instruments",2,"stim/objects/Instruments/pipepiano.png",1,"right","right",0.637000084,1,1,1
"140",12,140,0.7,"stim/21.jpeg",2,1,2,NA,"HouseObjects",1,"stim/objects/HouseObjects/iron2.png",1,"left","left",0.607000113,1,1,1
"141",12,141,0.5,"stim/53.jpeg",5,3,1,NA,"Instruments",2,"stim/objects/Instruments/maraca.png",2,"right","right",0.65199995,1,1,1
"142",12,142,0.5,"stim/62.jpeg",6,2,1,NA,"HouseObjects",1,"stim/objects/HouseObjects/match.png",3,"left","right",0.789999962,0,0,1
"143",12,143,0.5,"stim/64.jpeg",6,4,1,NA,"HouseObjects",1,"stim/objects/HouseObjects/pitcher.png",3,"left","left",0.715000153,1,1,1
"144",12,144,0.5,"stim/51.jpeg",5,1,1,NA,"Instruments",2,"stim/objects/Instruments/keyboard.png",1,"right","right",0.667999983,1,1,1
"145",12,145,0.5,"stim/53.jpeg",5,3,1,NA,"Instruments",2,"stim/objects/Instruments/maraca.png",2,"right","right",0.542999983,1,1,1
"146",12,146,0.9,"stim/43.jpeg",4,3,3,NA,"HouseObjects",1,"stim/objects/HouseObjects/rubbergloves2.png",2,"left","left",0.56799984,1,1,1
"147",12,147,0.9,"stim/43.jpeg",4,3,3,NA,"HouseObjects",1,"stim/objects/HouseObjects/rubbergloves2.png",2,"left","left",0.454999924,1,1,1
"148",12,148,0.7,"stim/12.jpeg",1,2,2,NA,"Instruments",2,"stim/objects/Instruments/pipepiano.png",2,"right","right",0.589999914,1,1,1
"149",12,149,0.9,"stim/42.jpeg",4,2,3,NA,"HouseObjects",1,"stim/objects/HouseObjects/remote2.png",1,"left","left",0.554000139,1,1,1
"150",12,150,0.9,"stim/41.jpeg",4,1,3,NA,"HouseObjects",1,"stim/objects/HouseObjects/recyclingbin2.png",1,"left","left",0.544000149,1,1,1
"151",12,151,0.9,"stim/43.jpeg",4,3,3,NA,"HouseObjects",1,"stim/objects/HouseObjects/rubbergloves2.png",3,"left","left",0.470000029,1,1,1
"152",12,152,0.9,"stim/32.jpeg",3,2,3,NA,"Instruments",2,"stim/objects/Instruments/musicsheet2.png",4,"right","right",0.553999901,1,1,1
"153",12,153,0.9,"stim/41.jpeg",4,1,3,NA,"HouseObjects",1,"stim/objects/HouseObjects/recyclingbin2.png",1,"left","left",0.621000051,1,1,1
"154",12,154,0.9,"stim/43.jpeg",4,3,3,NA,"HouseObjects",1,"stim/objects/HouseObjects/rubbergloves2.png",4,"left","left",0.521999836,1,1,1
"155",12,155,0.5,"stim/52.jpeg",5,2,1,NA,"Instruments",2,"stim/objects/Instruments/laud.png",4,"right","right",0.710000038,1,1,1
"156",12,156,0.5,"stim/51.jpeg",5,1,1,NA,"Instruments",2,"stim/objects/Instruments/keyboard.png",4,"right","right",0.833999872,1,1,1
"157",12,157,0.5,"stim/53.jpeg",5,3,1,NA,"Instruments",2,"stim/objects/Instruments/maraca.png",4,"right","right",0.784000158,1,1,1
"158",12,158,0.5,"stim/54.jpeg",5,4,1,NA,"HouseObjects",1,"stim/objects/HouseObjects/knife.png",3,"left","left",0.670000076,1,1,1
"159",12,159,0.5,"stim/62.jpeg",6,2,1,NA,"HouseObjects",1,"stim/objects/HouseObjects/match.png",1,"left","left",0.85800004,1,1,1
"160",12,160,0.5,"stim/61.jpeg",6,1,1,NA,"HouseObjects",1,"stim/objects/HouseObjects/lintroller.png",2,"left","left",0.875999928,1,1,1
"161",12,161,0.5,"stim/64.jpeg",6,4,1,NA,"HouseObjects",1,"stim/objects/HouseObjects/pitcher.png",3,"left","left",0.620000124,1,1,1
"162",12,162,0.3,"stim/23.jpeg",2,3,2,NA,"Instruments",2,"stim/objects/Instruments/maraca2.png",2,"right","left",0.694000006,0,0,1
"163",12,163,0.5,"stim/62.jpeg",6,2,1,NA,"HouseObjects",1,"stim/objects/HouseObjects/match.png",4,"left","",NA,0,0,1
"164",12,164,0.5,"stim/62.jpeg",6,2,1,NA,"Instruments",2,"stim/objects/Instruments/musicsheet.png",2,"right","left",0.612999916,0,0,1
"165",12,165,0.3,"stim/23.jpeg",2,3,2,NA,"Instruments",2,"stim/objects/Instruments/maraca2.png",1,"right","left",0.542999983,0,0,1
"166",12,166,0.7,"stim/14.jpeg",1,4,2,NA,"Instruments",2,"stim/objects/Instruments/record_player.png",4,"right","",NA,0,0,1
"167",12,167,0.7,"stim/21.jpeg",2,1,2,NA,"HouseObjects",1,"stim/objects/HouseObjects/iron2.png",3,"left","left",0.569000006,1,1,1
"168",12,168,0.9,"stim/42.jpeg",4,2,3,NA,"HouseObjects",1,"stim/objects/HouseObjects/remote2.png",3,"left","left",0.667000055,1,1,1
"169",12,169,0.5,"stim/63.jpeg",6,3,1,NA,"Instruments",2,"stim/objects/Instruments/musicstand.png",4,"right","right",0.717000008,1,1,1
"170",12,170,0.9,"stim/42.jpeg",4,2,3,NA,"HouseObjects",1,"stim/objects/HouseObjects/remote2.png",2,"left","left",0.47300005,1,1,1
"171",12,171,0.3,"stim/11.jpeg",1,1,2,NA,"HouseObjects",1,"stim/objects/HouseObjects/recyclingbin.png",1,"left","right",0.592000008,0,0,1
"172",12,172,0.5,"stim/63.jpeg",6,3,1,NA,"HouseObjects",1,"stim/objects/HouseObjects/pan.png",4,"left","right",0.611999989,0,0,1
"173",12,173,0.9,"stim/44.jpeg",4,4,3,NA,"HouseObjects",1,"stim/objects/HouseObjects/rug2.png",2,"left","left",0.694000006,1,1,1
"174",12,174,0.9,"stim/34.jpeg",3,4,3,NA,"Instruments",2,"stim/objects/Instruments/oboe2.png",3,"right","right",0.579999924,1,1,1
"175",12,175,0.3,"stim/12.jpeg",1,2,2,NA,"HouseObjects",1,"stim/objects/HouseObjects/remote.png",2,"left","right",0.644000053,0,0,1
"176",12,176,0.5,"stim/62.jpeg",6,2,1,NA,"HouseObjects",1,"stim/objects/HouseObjects/match.png",3,"left","right",0.657999992,0,0,1
"177",12,177,0.7,"stim/24.jpeg",2,4,2,NA,"HouseObjects",1,"stim/objects/HouseObjects/knife2.png",2,"left","left",0.697999954,1,1,1
"178",12,178,0.9,"stim/41.jpeg",4,1,3,NA,"HouseObjects",1,"stim/objects/HouseObjects/recyclingbin2.png",2,"left","left",0.532000065,1,1,1
"179",12,179,0.9,"stim/33.jpeg",3,3,3,NA,"Instruments",2,"stim/objects/Instruments/musicstand2.png",2,"right","right",0.603999853,1,1,1
"180",12,180,0.7,"stim/22.jpeg",2,2,2,NA,"HouseObjects",1,"stim/objects/HouseObjects/ironingboard2.png",1,"left","left",0.57799983,1,1,1
"181",12,181,0.5,"stim/54.jpeg",5,4,1,NA,"Instruments",2,"stim/objects/Instruments/marimba.png",3,"right","right",0.832999945,1,1,1
"182",12,182,0.5,"stim/61.jpeg",6,1,1,NA,"Instruments",2,"stim/objects/Instruments/metronome.png",1,"right","left",0.822000027,0,0,1
"183",12,183,0.7,"stim/24.jpeg",2,4,2,NA,"HouseObjects",1,"stim/objects/HouseObjects/knife2.png",3,"left","left",0.589999914,1,1,1
"184",12,184,0.9,"stim/31.jpeg",3,1,3,NA,"Instruments",2,"stim/objects/Instruments/metronome2.png",1,"right","right",0.572999954,1,1,1
"185",12,185,0.5,"stim/64.jpeg",6,4,1,NA,"HouseObjects",1,"stim/objects/HouseObjects/pitcher.png",4,"left","left",0.700999975,1,1,1
"186",12,186,0.5,"stim/61.jpeg",6,1,1,NA,"HouseObjects",1,"stim/objects/HouseObjects/lintroller.png",4,"left","right",0.621000051,0,0,1
"187",12,187,0.5,"stim/53.jpeg",5,3,1,NA,"HouseObjects",1,"stim/objects/HouseObjects/key.png",4,"left","",NA,0,0,1
"188",12,188,0.7,"stim/21.jpeg",2,1,2,NA,"HouseObjects",1,"stim/objects/HouseObjects/iron2.png",1,"left","left",0.592000008,1,1,1
"189",12,189,0.7,"stim/12.jpeg",1,2,2,NA,"Instruments",2,"stim/objects/Instruments/pipepiano.png",2,"right","right",0.597999811,1,1,1
"190",12,190,0.7,"stim/12.jpeg",1,2,2,NA,"Instruments",2,"stim/objects/Instruments/pipepiano.png",3,"right","right",0.640000105,1,1,1
"191",12,191,0.7,"stim/21.jpeg",2,1,2,NA,"HouseObjects",1,"stim/objects/HouseObjects/iron2.png",2,"left","left",0.551999807,1,1,1
"192",12,192,0.5,"stim/51.jpeg",5,1,1,NA,"HouseObjects",1,"stim/objects/HouseObjects/iron.png",2,"left","right",0.897000074,0,0,1
"193",12,193,0.7,"stim/11.jpeg",1,1,2,NA,"Instruments",2,"stim/objects/Instruments/panflute.png",3,"right","right",0.645999908,1,1,1
"194",12,194,0.7,"stim/24.jpeg",2,4,2,NA,"HouseObjects",1,"stim/objects/HouseObjects/knife2.png",4,"left","left",0.796000004,1,1,1
"195",12,195,0.5,"stim/63.jpeg",6,3,1,NA,"Instruments",2,"stim/objects/Instruments/musicstand.png",2,"right","right",0.707000017,1,1,1
"196",12,196,0.9,"stim/32.jpeg",3,2,3,NA,"Instruments",2,"stim/objects/Instruments/musicsheet2.png",1,"right","right",0.678999901,1,1,1
"197",12,197,0.9,"stim/43.jpeg",4,3,3,NA,"HouseObjects",1,"stim/objects/HouseObjects/rubbergloves2.png",1,"left","left",0.553999901,1,1,1
"198",12,198,0.9,"stim/34.jpeg",3,4,3,NA,"Instruments",2,"stim/objects/Instruments/oboe2.png",3,"right","right",0.549999952,1,1,1
"199",12,199,0.5,"stim/62.jpeg",6,2,1,NA,"Instruments",2,"stim/objects/Instruments/musicsheet.png",4,"right","left",0.852999926,0,0,1
"200",12,200,0.7,"stim/23.jpeg",2,3,2,NA,"HouseObjects",1,"stim/objects/HouseObjects/key2.png",1,"left","left",0.690999985,1,1,1
"201",12,201,0.5,"stim/63.jpeg",6,3,1,NA,"Instruments",2,"stim/objects/Instruments/musicstand.png",3,"right","right",0.63499999,1,1,1
"202",12,202,0.5,"stim/61.jpeg",6,1,1,NA,"Instruments",2,"stim/objects/Instruments/metronome.png",3,"right","left",0.805000067,0,0,1
"203",12,203,0.7,"stim/12.jpeg",1,2,2,NA,"Instruments",2,"stim/objects/Instruments/pipepiano.png",3,"right","right",0.661000013,1,1,1
"204",12,204,0.5,"stim/53.jpeg",5,3,1,NA,"HouseObjects",1,"stim/objects/HouseObjects/key.png",4,"left","right",0.754999876,0,0,1
"205",12,205,0.9,"stim/42.jpeg",4,2,3,NA,"HouseObjects",1,"stim/objects/HouseObjects/remote2.png",1,"left","left",0.649000168,1,1,1
"206",12,206,0.7,"stim/13.jpeg",1,3,2,NA,"Instruments",2,"stim/objects/Instruments/record.png",4,"right","right",0.625,1,1,1
"207",12,207,0.9,"stim/44.jpeg",4,4,3,NA,"HouseObjects",1,"stim/objects/HouseObjects/rug2.png",4,"left","left",0.88499999,1,1,1
"208",12,208,0.7,"stim/23.jpeg",2,3,2,NA,"HouseObjects",1,"stim/objects/HouseObjects/key2.png",4,"left","left",0.636999846,1,1,1
"209",12,209,0.9,"stim/44.jpeg",4,4,3,NA,"HouseObjects",1,"stim/objects/HouseObjects/rug2.png",4,"left","right",0.770999908,0,0,1
"210",12,210,0.5,"stim/64.jpeg",6,4,1,NA,"Instruments",2,"stim/objects/Instruments/oboe.png",2,"right","left",0.736000061,0,0,1
"211",12,211,0.5,"stim/53.jpeg",5,3,1,NA,"Instruments",2,"stim/objects/Instruments/maraca.png",3,"right","left",0.724999905,0,0,1
"212",12,212,0.9,"stim/43.jpeg",4,3,3,NA,"HouseObjects",1,"stim/objects/HouseObjects/rubbergloves2.png",3,"left","left",0.568000078,1,1,1
"213",12,213,0.5,"stim/52.jpeg",5,2,1,NA,"Instruments",2,"stim/objects/Instruments/laud.png",3,"right","right",0.835000038,1,1,1
"214",12,214,0.7,"stim/24.jpeg",2,4,2,NA,"HouseObjects",1,"stim/objects/HouseObjects/knife2.png",2,"left","left",0.654999971,1,1,1
"215",12,215,0.9,"stim/41.jpeg",4,1,3,NA,"HouseObjects",1,"stim/objects/HouseObjects/recyclingbin2.png",3,"left","left",0.592999935,1,1,1
"216",12,216,0.9,"stim/31.jpeg",3,1,3,NA,"Instruments",2,"stim/objects/Instruments/metronome2.png",1,"right","right",0.595000029,1,1,1
"217",12,217,0.9,"stim/32.jpeg",3,2,3,NA,"Instruments",2,"stim/objects/Instruments/musicsheet2.png",4,"right","right",0.588999987,1,1,1
"218",12,218,0.5,"stim/52.jpeg",5,2,1,NA,"Instruments",2,"stim/objects/Instruments/laud.png",4,"right","right",0.695000172,1,1,1
"219",12,219,0.5,"stim/61.jpeg",6,1,1,NA,"Instruments",2,"stim/objects/Instruments/metronome.png",3,"right","left",0.720000029,0,0,1
"220",12,220,0.9,"stim/44.jpeg",4,4,3,NA,"HouseObjects",1,"stim/objects/HouseObjects/rug2.png",1,"left","left",0.632999897,1,1,1
"221",12,221,0.5,"stim/64.jpeg",6,4,1,NA,"Instruments",2,"stim/objects/Instruments/oboe.png",1,"right","left",0.722000122,0,0,1
"222",12,222,0.7,"stim/13.jpeg",1,3,2,NA,"Instruments",2,"stim/objects/Instruments/record.png",1,"right","right",0.869000196,1,1,1
"223",12,223,0.5,"stim/54.jpeg",5,4,1,NA,"Instruments",2,"stim/objects/Instruments/marimba.png",3,"right","",NA,0,0,1
"224",12,224,0.7,"stim/23.jpeg",2,3,2,NA,"HouseObjects",1,"stim/objects/HouseObjects/key2.png",1,"left","left",0.631999969,1,1,1
"225",12,225,0.5,"stim/51.jpeg",5,1,1,NA,"HouseObjects",1,"stim/objects/HouseObjects/iron.png",1,"left","right",0.635999918,0,0,1
"226",12,226,0.9,"stim/44.jpeg",4,4,3,NA,"HouseObjects",1,"stim/objects/HouseObjects/rug2.png",2,"left","left",0.636999846,1,1,1
"227",12,227,0.3,"stim/14.jpeg",1,4,2,NA,"HouseObjects",1,"stim/objects/HouseObjects/rug.png",3,"left","right",0.684999943,0,0,1
"228",12,228,0.5,"stim/52.jpeg",5,2,1,NA,"HouseObjects",1,"stim/objects/HouseObjects/ironingboard.png",2,"left","right",0.670000076,0,0,1
"229",12,229,0.5,"stim/63.jpeg",6,3,1,NA,"HouseObjects",1,"stim/objects/HouseObjects/pan.png",4,"left","right",0.705000162,0,0,1
"230",12,230,0.5,"stim/52.jpeg",5,2,1,NA,"Instruments",2,"stim/objects/Instruments/laud.png",2,"right","",NA,0,0,1
"231",12,231,0.5,"stim/62.jpeg",6,2,1,NA,"Instruments",2,"stim/objects/Instruments/musicsheet.png",1,"right","left",0.672999859,0,0,1
"232",12,232,0.1,"stim/33.jpeg",3,3,3,NA,"HouseObjects",1,"stim/objects/HouseObjects/pan2.png",4,"left","right",0.572000027,0,0,1
"233",12,233,0.9,"stim/31.jpeg",3,1,3,NA,"Instruments",2,"stim/objects/Instruments/metronome2.png",3,"right","right",0.537000179,1,1,1
"234",12,234,0.9,"stim/33.jpeg",3,3,3,NA,"Instruments",2,"stim/objects/Instruments/musicstand2.png",3,"right","right",0.470999956,1,1,1
"235",12,235,0.7,"stim/14.jpeg",1,4,2,NA,"Instruments",2,"stim/objects/Instruments/record_player.png",3,"right","right",0.638999939,1,1,1
"236",12,236,0.9,"stim/34.jpeg",3,4,3,NA,"Instruments",2,"stim/objects/Instruments/oboe2.png",2,"right","right",0.572000027,1,1,1
"237",12,237,0.9,"stim/34.jpeg",3,4,3,NA,"Instruments",2,"stim/objects/Instruments/oboe2.png",4,"right","right",0.504999876,1,1,1
"238",12,238,0.9,"stim/42.jpeg",4,2,3,NA,"HouseObjects",1,"stim/objects/HouseObjects/remote2.png",3,"left","left",0.621000051,1,1,1
"239",12,239,0.5,"stim/61.jpeg",6,1,1,NA,"HouseObjects",1,"stim/objects/HouseObjects/lintroller.png",2,"left","left",0.715000153,1,1,1
"240",12,240,0.9,"stim/44.jpeg",4,4,3,NA,"HouseObjects",1,"stim/objects/HouseObjects/rug2.png",2,"left","left",0.575000048,1,1,1
