"","obj_file","X.x","participant.x","trialN.x","trial_cond","scn_file.x","scn_cat","scn_inst","scn_condition","fillers","obj_cat","obj_cat_num","quadrant","corr_ans","key_resp_trial.keys","key_resp_trial.rt","trial_acc","trial_acc_manual","group.x","practice","X.y","participant.y","OvsN","PE_level","object_cat","scn_file.y","corr_scn_cat","corr_scn_inst","scn_file.1","corr_loc","key_resp_id.keys","key_resp_id.rt","key_resp_conf.keys","key_resp_assoc.keys","key_resp_assoc.rt","key_resp_loc.keys","key_resp_loc.rt","trialN.y","id_acc","assoc.acc","cond_assoc","loc.acc","cond_loc","group.y"
"126","stim/objects/Instruments/panflute2.png",1,48,1,0.7,"stim/41.jpeg",4,1,2,NA,"Instruments",1,1,"left","",NA,0,0,0,1,NA,NA,NA,NA,NA,NA,NA,NA,NA,NA,NA,NA,NA,NA,NA,NA,NA,NA,NA,NA,NA,NA,NA,NA
"17","stim/objects/HouseObjects/rubbergloves.png",2,48,2,0.5,"stim/13.jpeg",1,3,1,NA,"HouseObjects",2,1,"right","right",0.538000107,1,1,0,1,NA,NA,NA,NA,NA,NA,NA,NA,NA,NA,NA,NA,NA,NA,NA,NA,NA,NA,NA,NA,NA,NA,NA,NA
"193","stim/objects/Instruments/triangle.png",3,48,3,0.3,"stim/31.jpeg",3,1,2,NA,"Instruments",1,2,"left","left",0.615999937,1,1,0,1,NA,NA,NA,NA,NA,NA,NA,NA,NA,NA,NA,NA,NA,NA,NA,NA,NA,NA,NA,NA,NA,NA,NA,NA
"162","stim/objects/Instruments/record2.png",4,48,4,0.7,"stim/43.jpeg",4,3,2,NA,"Instruments",1,3,"left","left",0.561999798,1,1,0,1,NA,NA,NA,NA,NA,NA,NA,NA,NA,NA,NA,NA,NA,NA,NA,NA,NA,NA,NA,NA,NA,NA,NA,NA
"220","stim/objects/Instruments/trumpet2.png",5,48,5,0.9,"stim/63.jpeg",6,3,3,NA,"Instruments",1,4,"left","left",0.606999874,1,1,0,1,NA,NA,NA,NA,NA,NA,NA,NA,NA,NA,NA,NA,NA,NA,NA,NA,NA,NA,NA,NA,NA,NA,NA,NA
"113","stim/objects/HouseObjects/thread.png",6,48,6,0.7,"stim/34.jpeg",3,4,2,NA,"HouseObjects",2,3,"right","left",0.581999779,0,0,0,1,NA,NA,NA,NA,NA,NA,NA,NA,NA,NA,NA,NA,NA,NA,NA,NA,NA,NA,NA,NA,NA,NA,NA,NA
"208","stim/objects/Instruments/trombone2.png",7,48,7,0.9,"stim/62.jpeg",6,2,3,NA,"Instruments",1,4,"left","left",0.530999899,1,1,0,1,NA,NA,NA,NA,NA,NA,NA,NA,NA,NA,NA,NA,NA,NA,NA,NA,NA,NA,NA,NA,NA,NA,NA,NA
"30","stim/objects/HouseObjects/rug2.png",8,48,8,0.3,"stim/44.jpeg",4,4,2,NA,"HouseObjects",2,2,"right","left",0.679000139,0,0,0,1,NA,NA,NA,NA,NA,NA,NA,NA,NA,NA,NA,NA,NA,NA,NA,NA,NA,NA,NA,NA,NA,NA,NA,NA
"52","stim/objects/HouseObjects/saw2.png",9,48,9,0.9,"stim/52.jpeg",5,2,3,NA,"HouseObjects",2,2,"right","right",0.578999758,1,1,0,1,NA,NA,NA,NA,NA,NA,NA,NA,NA,NA,NA,NA,NA,NA,NA,NA,NA,NA,NA,NA,NA,NA,NA,NA
"127","stim/objects/Instruments/panflute2.png",10,48,10,0.7,"stim/41.jpeg",4,1,2,NA,"Instruments",1,2,"left","left",0.499999762,1,1,0,1,NA,NA,NA,NA,NA,NA,NA,NA,NA,NA,NA,NA,NA,NA,NA,NA,NA,NA,NA,NA,NA,NA,NA,NA
"221","stim/objects/Instruments/trumpet2.png",11,48,11,0.9,"stim/63.jpeg",6,3,3,NA,"Instruments",1,3,"left","left",0.417999983,1,1,0,1,NA,NA,NA,NA,NA,NA,NA,NA,NA,NA,NA,NA,NA,NA,NA,NA,NA,NA,NA,NA,NA,NA,NA,NA
"121","stim/objects/Instruments/panflute.png",12,48,12,0.5,"stim/11.jpeg",1,1,1,NA,"Instruments",1,2,"left","right",0.515999794,0,0,0,1,NA,NA,NA,NA,NA,NA,NA,NA,NA,NA,NA,NA,NA,NA,NA,NA,NA,NA,NA,NA,NA,NA,NA,NA
"138","stim/objects/Instruments/pipepiano2.png",13,48,13,0.7,"stim/42.jpeg",4,2,2,NA,"Instruments",1,4,"left","right",0.661999941,0,0,0,1,NA,NA,NA,NA,NA,NA,NA,NA,NA,NA,NA,NA,NA,NA,NA,NA,NA,NA,NA,NA,NA,NA,NA,NA
"187","stim/objects/Instruments/timbal.png",14,48,14,0.5,"stim/24.jpeg",2,4,1,NA,"Instruments",1,3,"left","right",0.632999897,0,0,0,1,NA,NA,NA,NA,NA,NA,NA,NA,NA,NA,NA,NA,NA,NA,NA,NA,NA,NA,NA,NA,NA,NA,NA,NA
"33","stim/objects/HouseObjects/safetypin.png",15,48,15,0.5,"stim/21.jpeg",2,1,1,NA,"HouseObjects",2,3,"right","right",0.731999874,1,1,0,1,NA,NA,NA,NA,NA,NA,NA,NA,NA,NA,NA,NA,NA,NA,NA,NA,NA,NA,NA,NA,NA,NA,NA,NA
"163","stim/objects/Instruments/record2.png",16,48,16,0.7,"stim/43.jpeg",4,3,2,NA,"Instruments",1,2,"left","left",0.611999989,1,1,0,1,NA,NA,NA,NA,NA,NA,NA,NA,NA,NA,NA,NA,NA,NA,NA,NA,NA,NA,NA,NA,NA,NA,NA,NA
"89","stim/objects/HouseObjects/spraybottle.png",17,48,17,0.7,"stim/31.jpeg",3,1,2,NA,"HouseObjects",2,3,"right","right",0.748999834,1,1,0,1,NA,NA,NA,NA,NA,NA,NA,NA,NA,NA,NA,NA,NA,NA,NA,NA,NA,NA,NA,NA,NA,NA,NA,NA
"181","stim/objects/Instruments/tambourine.png",18,48,18,0.5,"stim/23.jpeg",2,3,1,NA,"Instruments",1,4,"left","right",0.713999748,0,0,0,1,NA,NA,NA,NA,NA,NA,NA,NA,NA,NA,NA,NA,NA,NA,NA,NA,NA,NA,NA,NA,NA,NA,NA,NA
"196","stim/objects/Instruments/triangle2.png",19,48,19,0.9,"stim/61.jpeg",6,1,3,NA,"Instruments",1,4,"left","left",0.556999922,1,1,0,1,NA,NA,NA,NA,NA,NA,NA,NA,NA,NA,NA,NA,NA,NA,NA,NA,NA,NA,NA,NA,NA,NA,NA,NA
"22","stim/objects/HouseObjects/rubbergloves2.png",20,48,20,0.3,"stim/43.jpeg",4,3,2,NA,"HouseObjects",2,4,"right","left",0.714999914,0,0,0,1,NA,NA,NA,NA,NA,NA,NA,NA,NA,NA,NA,NA,NA,NA,NA,NA,NA,NA,NA,NA,NA,NA,NA,NA
"197","stim/objects/Instruments/triangle2.png",21,48,21,0.9,"stim/61.jpeg",6,1,3,NA,"Instruments",1,3,"left","left",0.549000025,1,1,0,1,NA,NA,NA,NA,NA,NA,NA,NA,NA,NA,NA,NA,NA,NA,NA,NA,NA,NA,NA,NA,NA,NA,NA,NA
"18","stim/objects/HouseObjects/rubbergloves.png",22,48,22,0.5,"stim/13.jpeg",1,3,1,NA,"HouseObjects",2,2,"right","right",0.645999908,1,1,0,1,NA,NA,NA,NA,NA,NA,NA,NA,NA,NA,NA,NA,NA,NA,NA,NA,NA,NA,NA,NA,NA,NA,NA,NA
"205","stim/objects/Instruments/trombone.png",23,48,23,0.3,"stim/32.jpeg",3,2,2,NA,"Instruments",1,2,"left","right",0.704999924,0,0,0,1,NA,NA,NA,NA,NA,NA,NA,NA,NA,NA,NA,NA,NA,NA,NA,NA,NA,NA,NA,NA,NA,NA,NA,NA
"122","stim/objects/Instruments/panflute.png",24,48,24,0.5,"stim/11.jpeg",1,1,1,NA,"Instruments",1,1,"left","right",0.657999754,0,0,0,1,NA,NA,NA,NA,NA,NA,NA,NA,NA,NA,NA,NA,NA,NA,NA,NA,NA,NA,NA,NA,NA,NA,NA,NA
"19","stim/objects/HouseObjects/rubbergloves.png",25,48,25,0.5,"stim/13.jpeg",1,3,1,NA,"HouseObjects",2,3,"right","right",0.646999836,1,1,0,1,NA,NA,NA,NA,NA,NA,NA,NA,NA,NA,NA,NA,NA,NA,NA,NA,NA,NA,NA,NA,NA,NA,NA,NA
"38","stim/objects/HouseObjects/safetypin2.png",26,48,26,0.9,"stim/51.jpeg",5,1,3,NA,"HouseObjects",2,1,"right","right",0.586999893,1,1,0,1,NA,NA,NA,NA,NA,NA,NA,NA,NA,NA,NA,NA,NA,NA,NA,NA,NA,NA,NA,NA,NA,NA,NA,NA
"188","stim/objects/Instruments/timbal.png",27,48,27,0.5,"stim/24.jpeg",2,4,1,NA,"Instruments",1,2,"left","left",0.73699975,1,1,0,1,NA,NA,NA,NA,NA,NA,NA,NA,NA,NA,NA,NA,NA,NA,NA,NA,NA,NA,NA,NA,NA,NA,NA,NA
"105","stim/objects/HouseObjects/thermometer.png",28,48,28,0.7,"stim/33.jpeg",3,3,2,NA,"HouseObjects",2,1,"right","left",0.780999899,0,0,0,1,NA,NA,NA,NA,NA,NA,NA,NA,NA,NA,NA,NA,NA,NA,NA,NA,NA,NA,NA,NA,NA,NA,NA,NA
"1","stim/objects/HouseObjects/recyclingbin.png",29,48,29,0.5,"stim/11.jpeg",1,1,1,NA,"HouseObjects",2,1,"right","right",0.679999828,1,1,0,1,NA,NA,NA,NA,NA,NA,NA,NA,NA,NA,NA,NA,NA,NA,NA,NA,NA,NA,NA,NA,NA,NA,NA,NA
"9","stim/objects/HouseObjects/remote.png",30,48,30,0.5,"stim/12.jpeg",1,2,1,NA,"HouseObjects",2,2,"right","left",0.891999722,0,0,0,1,NA,NA,NA,NA,NA,NA,NA,NA,NA,NA,NA,NA,NA,NA,NA,NA,NA,NA,NA,NA,NA,NA,NA,NA
"75","stim/objects/HouseObjects/sponge.png",31,48,31,0.5,"stim/24.jpeg",2,4,1,NA,"HouseObjects",2,2,"right","left",0.867000103,0,0,0,1,NA,NA,NA,NA,NA,NA,NA,NA,NA,NA,NA,NA,NA,NA,NA,NA,NA,NA,NA,NA,NA,NA,NA,NA
"189","stim/objects/Instruments/timbal.png",32,48,32,0.5,"stim/24.jpeg",2,4,1,NA,"Instruments",1,4,"left","right",0.657999992,0,0,0,1,NA,NA,NA,NA,NA,NA,NA,NA,NA,NA,NA,NA,NA,NA,NA,NA,NA,NA,NA,NA,NA,NA,NA,NA
"106","stim/objects/HouseObjects/thermometer.png",33,48,33,0.7,"stim/33.jpeg",3,3,2,NA,"HouseObjects",2,4,"right","right",0.740999937,1,1,0,1,NA,NA,NA,NA,NA,NA,NA,NA,NA,NA,NA,NA,NA,NA,NA,NA,NA,NA,NA,NA,NA,NA,NA,NA
"25","stim/objects/HouseObjects/rug.png",34,48,34,0.5,"stim/14.jpeg",1,4,1,NA,"HouseObjects",2,1,"right","right",0.67599988,1,1,0,1,NA,NA,NA,NA,NA,NA,NA,NA,NA,NA,NA,NA,NA,NA,NA,NA,NA,NA,NA,NA,NA,NA,NA,NA
"145","stim/objects/Instruments/record_player.png",35,48,35,0.5,"stim/14.jpeg",1,4,1,NA,"Instruments",1,3,"left","right",0.667999983,0,0,0,1,NA,NA,NA,NA,NA,NA,NA,NA,NA,NA,NA,NA,NA,NA,NA,NA,NA,NA,NA,NA,NA,NA,NA,NA
"34","stim/objects/HouseObjects/safetypin.png",36,48,36,0.5,"stim/21.jpeg",2,1,1,NA,"HouseObjects",2,3,"right","right",0.73300004,1,1,0,1,NA,NA,NA,NA,NA,NA,NA,NA,NA,NA,NA,NA,NA,NA,NA,NA,NA,NA,NA,NA,NA,NA,NA,NA
"222","stim/objects/Instruments/trumpet2.png",37,48,37,0.9,"stim/63.jpeg",6,3,3,NA,"Instruments",1,4,"left","left",0.549999952,1,1,0,1,NA,NA,NA,NA,NA,NA,NA,NA,NA,NA,NA,NA,NA,NA,NA,NA,NA,NA,NA,NA,NA,NA,NA,NA
"232","stim/objects/Instruments/tuba2.png",38,48,38,0.9,"stim/64.jpeg",6,4,3,NA,"Instruments",1,2,"left","left",0.509999752,1,1,0,1,NA,NA,NA,NA,NA,NA,NA,NA,NA,NA,NA,NA,NA,NA,NA,NA,NA,NA,NA,NA,NA,NA,NA,NA
"157","stim/objects/Instruments/record.png",39,48,39,0.5,"stim/13.jpeg",1,3,1,NA,"Instruments",1,2,"left","right",0.621999979,0,0,0,1,NA,NA,NA,NA,NA,NA,NA,NA,NA,NA,NA,NA,NA,NA,NA,NA,NA,NA,NA,NA,NA,NA,NA,NA
"14","stim/objects/HouseObjects/remote2.png",40,48,40,0.3,"stim/42.jpeg",4,2,2,NA,"HouseObjects",2,2,"right","left",0.71999979,0,0,0,1,NA,NA,NA,NA,NA,NA,NA,NA,NA,NA,NA,NA,NA,NA,NA,NA,NA,NA,NA,NA,NA,NA,NA,NA
"76","stim/objects/HouseObjects/sponge.png",41,48,41,0.5,"stim/24.jpeg",2,4,1,NA,"HouseObjects",2,2,"right","left",0.787999868,0,0,0,1,NA,NA,NA,NA,NA,NA,NA,NA,NA,NA,NA,NA,NA,NA,NA,NA,NA,NA,NA,NA,NA,NA,NA,NA
"31","stim/objects/HouseObjects/rug2.png",42,48,42,0.3,"stim/44.jpeg",4,4,2,NA,"HouseObjects",2,1,"right","left",0.651000023,0,0,0,1,NA,NA,NA,NA,NA,NA,NA,NA,NA,NA,NA,NA,NA,NA,NA,NA,NA,NA,NA,NA,NA,NA,NA,NA
"47","stim/objects/HouseObjects/saw.png",43,48,43,0.5,"stim/22.jpeg",2,2,1,NA,"HouseObjects",2,1,"right","left",0.641999722,0,0,0,1,NA,NA,NA,NA,NA,NA,NA,NA,NA,NA,NA,NA,NA,NA,NA,NA,NA,NA,NA,NA,NA,NA,NA,NA
"48","stim/objects/HouseObjects/saw.png",44,48,44,0.5,"stim/22.jpeg",2,2,1,NA,"HouseObjects",2,3,"right","right",0.521999836,1,1,0,1,NA,NA,NA,NA,NA,NA,NA,NA,NA,NA,NA,NA,NA,NA,NA,NA,NA,NA,NA,NA,NA,NA,NA,NA
"229","stim/objects/Instruments/tuba.png",45,48,45,0.3,"stim/34.jpeg",3,4,2,NA,"Instruments",1,3,"left","left",0.547999859,1,1,0,1,NA,NA,NA,NA,NA,NA,NA,NA,NA,NA,NA,NA,NA,NA,NA,NA,NA,NA,NA,NA,NA,NA,NA,NA
"233","stim/objects/Instruments/tuba2.png",46,48,46,0.9,"stim/64.jpeg",6,4,3,NA,"Instruments",1,2,"left","left",0.507999897,1,1,0,1,NA,NA,NA,NA,NA,NA,NA,NA,NA,NA,NA,NA,NA,NA,NA,NA,NA,NA,NA,NA,NA,NA,NA,NA
"139","stim/objects/Instruments/pipepiano2.png",47,48,47,0.7,"stim/42.jpeg",4,2,2,NA,"Instruments",1,1,"left","left",0.652999878,1,1,0,1,NA,NA,NA,NA,NA,NA,NA,NA,NA,NA,NA,NA,NA,NA,NA,NA,NA,NA,NA,NA,NA,NA,NA,NA
"80","stim/objects/HouseObjects/sponge2.png",48,48,48,0.9,"stim/54.jpeg",5,4,3,NA,"HouseObjects",2,4,"right","right",0.585999966,1,1,0,1,NA,NA,NA,NA,NA,NA,NA,NA,NA,NA,NA,NA,NA,NA,NA,NA,NA,NA,NA,NA,NA,NA,NA,NA
"26","stim/objects/HouseObjects/rug.png",49,48,49,0.5,"stim/14.jpeg",1,4,1,NA,"HouseObjects",2,1,"right","right",0.66899991,1,1,0,1,NA,NA,NA,NA,NA,NA,NA,NA,NA,NA,NA,NA,NA,NA,NA,NA,NA,NA,NA,NA,NA,NA,NA,NA
"107","stim/objects/HouseObjects/thermometer.png",50,48,50,0.7,"stim/33.jpeg",3,3,2,NA,"HouseObjects",2,4,"right","left",0.729999781,0,0,0,1,NA,NA,NA,NA,NA,NA,NA,NA,NA,NA,NA,NA,NA,NA,NA,NA,NA,NA,NA,NA,NA,NA,NA,NA
"223","stim/objects/Instruments/trumpet2.png",51,48,51,0.9,"stim/63.jpeg",6,3,3,NA,"Instruments",1,1,"left","left",0.497999907,1,1,0,1,NA,NA,NA,NA,NA,NA,NA,NA,NA,NA,NA,NA,NA,NA,NA,NA,NA,NA,NA,NA,NA,NA,NA,NA
"224","stim/objects/Instruments/trumpet2.png",52,48,52,0.9,"stim/63.jpeg",6,3,3,NA,"Instruments",1,2,"left","left",0.457000017,1,1,0,1,NA,NA,NA,NA,NA,NA,NA,NA,NA,NA,NA,NA,NA,NA,NA,NA,NA,NA,NA,NA,NA,NA,NA,NA
"175","stim/objects/Instruments/speaker.png",53,48,53,0.5,"stim/22.jpeg",2,2,1,NA,"Instruments",1,1,"left","right",0.643999815,0,0,0,1,NA,NA,NA,NA,NA,NA,NA,NA,NA,NA,NA,NA,NA,NA,NA,NA,NA,NA,NA,NA,NA,NA,NA,NA
"150","stim/objects/Instruments/record_player2.png",54,48,54,0.7,"stim/44.jpeg",4,4,2,NA,"Instruments",1,3,"left","left",0.630999804,1,1,0,1,NA,NA,NA,NA,NA,NA,NA,NA,NA,NA,NA,NA,NA,NA,NA,NA,NA,NA,NA,NA,NA,NA,NA,NA
"6","stim/objects/HouseObjects/recyclingbin2.png",55,48,55,0.3,"stim/41.jpeg",4,1,2,NA,"HouseObjects",2,4,"right","left",0.473999739,0,0,0,1,NA,NA,NA,NA,NA,NA,NA,NA,NA,NA,NA,NA,NA,NA,NA,NA,NA,NA,NA,NA,NA,NA,NA,NA
"10","stim/objects/HouseObjects/remote.png",56,48,56,0.5,"stim/12.jpeg",1,2,1,NA,"HouseObjects",2,1,"right","right",0.631999969,1,1,0,1,NA,NA,NA,NA,NA,NA,NA,NA,NA,NA,NA,NA,NA,NA,NA,NA,NA,NA,NA,NA,NA,NA,NA,NA
"81","stim/objects/HouseObjects/sponge2.png",57,48,57,0.9,"stim/54.jpeg",5,4,3,NA,"HouseObjects",2,3,"right","right",0.684000015,1,1,0,1,NA,NA,NA,NA,NA,NA,NA,NA,NA,NA,NA,NA,NA,NA,NA,NA,NA,NA,NA,NA,NA,NA,NA,NA
"206","stim/objects/Instruments/trombone.png",58,48,58,0.3,"stim/32.jpeg",3,2,2,NA,"Instruments",1,3,"left","left",0.848999739,1,1,0,1,NA,NA,NA,NA,NA,NA,NA,NA,NA,NA,NA,NA,NA,NA,NA,NA,NA,NA,NA,NA,NA,NA,NA,NA
"23","stim/objects/HouseObjects/rubbergloves2.png",59,48,59,0.3,"stim/43.jpeg",4,3,2,NA,"HouseObjects",2,3,"right","left",0.70600009,0,0,0,1,NA,NA,NA,NA,NA,NA,NA,NA,NA,NA,NA,NA,NA,NA,NA,NA,NA,NA,NA,NA,NA,NA,NA,NA
"97","stim/objects/HouseObjects/teapot.png",60,48,60,0.7,"stim/32.jpeg",3,2,2,NA,"HouseObjects",2,4,"right","left",0.593999863,0,0,0,1,NA,NA,NA,NA,NA,NA,NA,NA,NA,NA,NA,NA,NA,NA,NA,NA,NA,NA,NA,NA,NA,NA,NA,NA
"225","stim/objects/Instruments/trumpet2.png",61,48,61,0.9,"stim/63.jpeg",6,3,3,NA,"Instruments",1,3,"left","left",0.544999838,1,1,0,1,NA,NA,NA,NA,NA,NA,NA,NA,NA,NA,NA,NA,NA,NA,NA,NA,NA,NA,NA,NA,NA,NA,NA,NA
"234","stim/objects/Instruments/tuba2.png",62,48,62,0.9,"stim/64.jpeg",6,4,3,NA,"Instruments",1,1,"left","left",0.527999878,1,1,0,1,NA,NA,NA,NA,NA,NA,NA,NA,NA,NA,NA,NA,NA,NA,NA,NA,NA,NA,NA,NA,NA,NA,NA,NA
"176","stim/objects/Instruments/speaker.png",63,48,63,0.5,"stim/22.jpeg",2,2,1,NA,"Instruments",1,3,"left","right",0.447000027,0,0,0,1,NA,NA,NA,NA,NA,NA,NA,NA,NA,NA,NA,NA,NA,NA,NA,NA,NA,NA,NA,NA,NA,NA,NA,NA
"66","stim/objects/HouseObjects/scale2.png",64,48,64,0.9,"stim/53.jpeg",5,3,3,NA,"HouseObjects",2,1,"right","right",0.549999952,1,1,0,1,NA,NA,NA,NA,NA,NA,NA,NA,NA,NA,NA,NA,NA,NA,NA,NA,NA,NA,NA,NA,NA,NA,NA,NA
"90","stim/objects/HouseObjects/spraybottle.png",65,48,65,0.7,"stim/31.jpeg",3,1,2,NA,"HouseObjects",2,4,"right","left",0.595000029,0,0,0,1,NA,NA,NA,NA,NA,NA,NA,NA,NA,NA,NA,NA,NA,NA,NA,NA,NA,NA,NA,NA,NA,NA,NA,NA
"67","stim/objects/HouseObjects/scale2.png",66,48,66,0.9,"stim/53.jpeg",5,3,3,NA,"HouseObjects",2,2,"right","right",0.526000023,1,1,0,1,NA,NA,NA,NA,NA,NA,NA,NA,NA,NA,NA,NA,NA,NA,NA,NA,NA,NA,NA,NA,NA,NA,NA,NA
"7","stim/objects/HouseObjects/recyclingbin2.png",67,48,67,0.3,"stim/41.jpeg",4,1,2,NA,"HouseObjects",2,3,"right","left",0.680000067,0,0,0,1,NA,NA,NA,NA,NA,NA,NA,NA,NA,NA,NA,NA,NA,NA,NA,NA,NA,NA,NA,NA,NA,NA,NA,NA
"169","stim/objects/Instruments/saxophone.png",68,48,68,0.5,"stim/21.jpeg",2,1,1,NA,"Instruments",1,3,"left","right",0.532999754,0,0,0,1,NA,NA,NA,NA,NA,NA,NA,NA,NA,NA,NA,NA,NA,NA,NA,NA,NA,NA,NA,NA,NA,NA,NA,NA
"182","stim/objects/Instruments/tambourine.png",69,48,69,0.5,"stim/23.jpeg",2,3,1,NA,"Instruments",1,4,"left","right",0.476999998,0,0,0,1,NA,NA,NA,NA,NA,NA,NA,NA,NA,NA,NA,NA,NA,NA,NA,NA,NA,NA,NA,NA,NA,NA,NA,NA
"77","stim/objects/HouseObjects/sponge.png",70,48,70,0.5,"stim/24.jpeg",2,4,1,NA,"HouseObjects",2,2,"right","right",0.687999964,1,1,0,1,NA,NA,NA,NA,NA,NA,NA,NA,NA,NA,NA,NA,NA,NA,NA,NA,NA,NA,NA,NA,NA,NA,NA,NA
"177","stim/objects/Instruments/speaker.png",71,48,71,0.5,"stim/22.jpeg",2,2,1,NA,"Instruments",1,4,"left","right",0.445999861,0,0,0,1,NA,NA,NA,NA,NA,NA,NA,NA,NA,NA,NA,NA,NA,NA,NA,NA,NA,NA,NA,NA,NA,NA,NA,NA
"180","stim/objects/Instruments/speaker2.png",72,48,72,0.1,"stim/52.jpeg",5,2,3,NA,"Instruments",1,3,"left","right",0.554999828,0,0,0,1,NA,NA,NA,NA,NA,NA,NA,NA,NA,NA,NA,NA,NA,NA,NA,NA,NA,NA,NA,NA,NA,NA,NA,NA
"158","stim/objects/Instruments/record.png",73,48,73,0.5,"stim/13.jpeg",1,3,1,NA,"Instruments",1,1,"left","right",0.612999916,0,0,0,1,NA,NA,NA,NA,NA,NA,NA,NA,NA,NA,NA,NA,NA,NA,NA,NA,NA,NA,NA,NA,NA,NA,NA,NA
"35","stim/objects/HouseObjects/safetypin.png",74,48,74,0.5,"stim/21.jpeg",2,1,1,NA,"HouseObjects",2,3,"right","right",0.57799983,1,1,0,1,NA,NA,NA,NA,NA,NA,NA,NA,NA,NA,NA,NA,NA,NA,NA,NA,NA,NA,NA,NA,NA,NA,NA,NA
"123","stim/objects/Instruments/panflute.png",75,48,75,0.5,"stim/11.jpeg",1,1,1,NA,"Instruments",1,2,"left","right",0.842000008,0,0,0,1,NA,NA,NA,NA,NA,NA,NA,NA,NA,NA,NA,NA,NA,NA,NA,NA,NA,NA,NA,NA,NA,NA,NA,NA
"183","stim/objects/Instruments/tambourine.png",76,48,76,0.5,"stim/23.jpeg",2,3,1,NA,"Instruments",1,1,"left","",NA,0,0,0,1,NA,NA,NA,NA,NA,NA,NA,NA,NA,NA,NA,NA,NA,NA,NA,NA,NA,NA,NA,NA,NA,NA,NA,NA
"151","stim/objects/Instruments/record_player2.png",77,48,77,0.7,"stim/44.jpeg",4,4,2,NA,"Instruments",1,1,"left","left",0.53399992,1,1,0,1,NA,NA,NA,NA,NA,NA,NA,NA,NA,NA,NA,NA,NA,NA,NA,NA,NA,NA,NA,NA,NA,NA,NA,NA
"2","stim/objects/HouseObjects/recyclingbin.png",78,48,78,0.5,"stim/11.jpeg",1,1,1,NA,"HouseObjects",2,2,"right","right",0.503999949,1,1,0,1,NA,NA,NA,NA,NA,NA,NA,NA,NA,NA,NA,NA,NA,NA,NA,NA,NA,NA,NA,NA,NA,NA,NA,NA
"68","stim/objects/HouseObjects/scale2.png",79,48,79,0.9,"stim/53.jpeg",5,3,3,NA,"HouseObjects",2,1,"right","right",0.491999865,1,1,0,1,NA,NA,NA,NA,NA,NA,NA,NA,NA,NA,NA,NA,NA,NA,NA,NA,NA,NA,NA,NA,NA,NA,NA,NA
"108","stim/objects/HouseObjects/thermometer.png",80,48,80,0.7,"stim/33.jpeg",3,3,2,NA,"HouseObjects",2,1,"right","right",0.659999847,1,1,0,1,NA,NA,NA,NA,NA,NA,NA,NA,NA,NA,NA,NA,NA,NA,NA,NA,NA,NA,NA,NA,NA,NA,NA,NA
"235","stim/objects/Instruments/tuba2.png",81,48,81,0.9,"stim/64.jpeg",6,4,3,NA,"Instruments",1,3,"left","left",0.512000084,1,1,0,1,NA,NA,NA,NA,NA,NA,NA,NA,NA,NA,NA,NA,NA,NA,NA,NA,NA,NA,NA,NA,NA,NA,NA,NA
"226","stim/objects/Instruments/trumpet2.png",82,48,82,0.9,"stim/63.jpeg",6,3,3,NA,"Instruments",1,3,"left","left",0.440999985,1,1,0,1,NA,NA,NA,NA,NA,NA,NA,NA,NA,NA,NA,NA,NA,NA,NA,NA,NA,NA,NA,NA,NA,NA,NA,NA
"217","stim/objects/Instruments/trumpet.png",83,48,83,0.3,"stim/33.jpeg",3,3,2,NA,"Instruments",1,1,"left","right",0.482000113,0,0,0,1,NA,NA,NA,NA,NA,NA,NA,NA,NA,NA,NA,NA,NA,NA,NA,NA,NA,NA,NA,NA,NA,NA,NA,NA
"82","stim/objects/HouseObjects/sponge2.png",84,48,84,0.9,"stim/54.jpeg",5,4,3,NA,"HouseObjects",2,1,"right","right",0.488999844,1,1,0,1,NA,NA,NA,NA,NA,NA,NA,NA,NA,NA,NA,NA,NA,NA,NA,NA,NA,NA,NA,NA,NA,NA,NA,NA
"3","stim/objects/HouseObjects/recyclingbin.png",85,48,85,0.5,"stim/11.jpeg",1,1,1,NA,"HouseObjects",2,3,"right","right",0.664000034,1,1,0,1,NA,NA,NA,NA,NA,NA,NA,NA,NA,NA,NA,NA,NA,NA,NA,NA,NA,NA,NA,NA,NA,NA,NA,NA
"69","stim/objects/HouseObjects/scale2.png",86,48,86,0.9,"stim/53.jpeg",5,3,3,NA,"HouseObjects",2,1,"right","right",0.454999924,1,1,0,1,NA,NA,NA,NA,NA,NA,NA,NA,NA,NA,NA,NA,NA,NA,NA,NA,NA,NA,NA,NA,NA,NA,NA,NA
"236","stim/objects/Instruments/tuba2.png",87,48,87,0.9,"stim/64.jpeg",6,4,3,NA,"Instruments",1,3,"left","left",0.483999968,1,1,0,1,NA,NA,NA,NA,NA,NA,NA,NA,NA,NA,NA,NA,NA,NA,NA,NA,NA,NA,NA,NA,NA,NA,NA,NA
"39","stim/objects/HouseObjects/safetypin2.png",88,48,88,0.9,"stim/51.jpeg",5,1,3,NA,"HouseObjects",2,4,"right","right",0.476999998,1,1,0,1,NA,NA,NA,NA,NA,NA,NA,NA,NA,NA,NA,NA,NA,NA,NA,NA,NA,NA,NA,NA,NA,NA,NA,NA
"198","stim/objects/Instruments/triangle2.png",89,48,89,0.9,"stim/61.jpeg",6,1,3,NA,"Instruments",1,3,"left","left",0.504999876,1,1,0,1,NA,NA,NA,NA,NA,NA,NA,NA,NA,NA,NA,NA,NA,NA,NA,NA,NA,NA,NA,NA,NA,NA,NA,NA
"184","stim/objects/Instruments/tambourine.png",90,48,90,0.5,"stim/23.jpeg",2,3,1,NA,"Instruments",1,3,"left","left",0.638999939,1,1,0,1,NA,NA,NA,NA,NA,NA,NA,NA,NA,NA,NA,NA,NA,NA,NA,NA,NA,NA,NA,NA,NA,NA,NA,NA
"178","stim/objects/Instruments/speaker.png",91,48,91,0.5,"stim/22.jpeg",2,2,1,NA,"Instruments",1,4,"left","right",0.532999754,0,0,0,1,NA,NA,NA,NA,NA,NA,NA,NA,NA,NA,NA,NA,NA,NA,NA,NA,NA,NA,NA,NA,NA,NA,NA,NA
"209","stim/objects/Instruments/trombone2.png",92,48,92,0.9,"stim/62.jpeg",6,2,3,NA,"Instruments",1,1,"left","left",0.513000011,1,1,0,1,NA,NA,NA,NA,NA,NA,NA,NA,NA,NA,NA,NA,NA,NA,NA,NA,NA,NA,NA,NA,NA,NA,NA,NA
"133","stim/objects/Instruments/pipepiano.png",93,48,93,0.5,"stim/12.jpeg",1,2,1,NA,"Instruments",1,2,"left","right",0.671000004,0,0,0,1,NA,NA,NA,NA,NA,NA,NA,NA,NA,NA,NA,NA,NA,NA,NA,NA,NA,NA,NA,NA,NA,NA,NA,NA
"11","stim/objects/HouseObjects/remote.png",94,48,94,0.5,"stim/12.jpeg",1,2,1,NA,"HouseObjects",2,2,"right","right",0.623999834,1,1,0,1,NA,NA,NA,NA,NA,NA,NA,NA,NA,NA,NA,NA,NA,NA,NA,NA,NA,NA,NA,NA,NA,NA,NA,NA
"146","stim/objects/Instruments/record_player.png",95,48,95,0.5,"stim/14.jpeg",1,4,1,NA,"Instruments",1,4,"left","right",0.467000008,0,0,0,1,NA,NA,NA,NA,NA,NA,NA,NA,NA,NA,NA,NA,NA,NA,NA,NA,NA,NA,NA,NA,NA,NA,NA,NA
"210","stim/objects/Instruments/trombone2.png",96,48,96,0.9,"stim/62.jpeg",6,2,3,NA,"Instruments",1,4,"left","left",0.557999849,1,1,0,1,NA,NA,NA,NA,NA,NA,NA,NA,NA,NA,NA,NA,NA,NA,NA,NA,NA,NA,NA,NA,NA,NA,NA,NA
"140","stim/objects/Instruments/pipepiano2.png",97,48,97,0.7,"stim/42.jpeg",4,2,2,NA,"Instruments",1,2,"left","left",0.627999783,1,1,0,1,NA,NA,NA,NA,NA,NA,NA,NA,NA,NA,NA,NA,NA,NA,NA,NA,NA,NA,NA,NA,NA,NA,NA,NA
"194","stim/objects/Instruments/triangle.png",98,48,98,0.3,"stim/31.jpeg",3,1,2,NA,"Instruments",1,2,"left","right",0.47300005,0,0,0,1,NA,NA,NA,NA,NA,NA,NA,NA,NA,NA,NA,NA,NA,NA,NA,NA,NA,NA,NA,NA,NA,NA,NA,NA
"128","stim/objects/Instruments/panflute2.png",99,48,99,0.7,"stim/41.jpeg",4,1,2,NA,"Instruments",1,2,"left","left",0.615999937,1,1,0,1,NA,NA,NA,NA,NA,NA,NA,NA,NA,NA,NA,NA,NA,NA,NA,NA,NA,NA,NA,NA,NA,NA,NA,NA
"164","stim/objects/Instruments/record2.png",100,48,100,0.7,"stim/43.jpeg",4,3,2,NA,"Instruments",1,1,"left","left",0.674000025,1,1,0,1,NA,NA,NA,NA,NA,NA,NA,NA,NA,NA,NA,NA,NA,NA,NA,NA,NA,NA,NA,NA,NA,NA,NA,NA
"61","stim/objects/HouseObjects/scale.png",101,48,101,0.5,"stim/23.jpeg",2,3,1,NA,"HouseObjects",2,3,"right","left",0.680999994,0,0,0,1,NA,NA,NA,NA,NA,NA,NA,NA,NA,NA,NA,NA,NA,NA,NA,NA,NA,NA,NA,NA,NA,NA,NA,NA
"190","stim/objects/Instruments/timbal.png",102,48,102,0.5,"stim/24.jpeg",2,4,1,NA,"Instruments",1,1,"left","right",0.519999743,0,0,0,1,NA,NA,NA,NA,NA,NA,NA,NA,NA,NA,NA,NA,NA,NA,NA,NA,NA,NA,NA,NA,NA,NA,NA,NA
"159","stim/objects/Instruments/record.png",103,48,103,0.5,"stim/13.jpeg",1,3,1,NA,"Instruments",1,1,"left","right",0.657000065,0,0,0,1,NA,NA,NA,NA,NA,NA,NA,NA,NA,NA,NA,NA,NA,NA,NA,NA,NA,NA,NA,NA,NA,NA,NA,NA
"4","stim/objects/HouseObjects/recyclingbin.png",104,48,104,0.5,"stim/11.jpeg",1,1,1,NA,"HouseObjects",2,2,"right","",NA,0,0,0,1,NA,NA,NA,NA,NA,NA,NA,NA,NA,NA,NA,NA,NA,NA,NA,NA,NA,NA,NA,NA,NA,NA,NA,NA
"62","stim/objects/HouseObjects/scale.png",105,48,105,0.5,"stim/23.jpeg",2,3,1,NA,"HouseObjects",2,4,"right","left",0.838000059,0,0,0,1,NA,NA,NA,NA,NA,NA,NA,NA,NA,NA,NA,NA,NA,NA,NA,NA,NA,NA,NA,NA,NA,NA,NA,NA
"129","stim/objects/Instruments/panflute2.png",106,48,106,0.7,"stim/41.jpeg",4,1,2,NA,"Instruments",1,2,"left","left",0.532000065,1,1,0,1,NA,NA,NA,NA,NA,NA,NA,NA,NA,NA,NA,NA,NA,NA,NA,NA,NA,NA,NA,NA,NA,NA,NA,NA
"83","stim/objects/HouseObjects/sponge2.png",107,48,107,0.9,"stim/54.jpeg",5,4,3,NA,"HouseObjects",2,1,"right","right",0.510999918,1,1,0,1,NA,NA,NA,NA,NA,NA,NA,NA,NA,NA,NA,NA,NA,NA,NA,NA,NA,NA,NA,NA,NA,NA,NA,NA
"199","stim/objects/Instruments/triangle2.png",108,48,108,0.9,"stim/61.jpeg",6,1,3,NA,"Instruments",1,4,"left","left",0.529999971,1,1,0,1,NA,NA,NA,NA,NA,NA,NA,NA,NA,NA,NA,NA,NA,NA,NA,NA,NA,NA,NA,NA,NA,NA,NA,NA
"8","stim/objects/HouseObjects/recyclingbin2.png",109,48,109,0.3,"stim/41.jpeg",4,1,2,NA,"HouseObjects",2,4,"right","left",0.55099988,0,0,0,1,NA,NA,NA,NA,NA,NA,NA,NA,NA,NA,NA,NA,NA,NA,NA,NA,NA,NA,NA,NA,NA,NA,NA,NA
"63","stim/objects/HouseObjects/scale.png",110,48,110,0.5,"stim/23.jpeg",2,3,1,NA,"HouseObjects",2,2,"right","left",0.61500001,0,0,0,1,NA,NA,NA,NA,NA,NA,NA,NA,NA,NA,NA,NA,NA,NA,NA,NA,NA,NA,NA,NA,NA,NA,NA,NA
"12","stim/objects/HouseObjects/remote.png",111,48,111,0.5,"stim/12.jpeg",1,2,1,NA,"HouseObjects",2,2,"right","right",0.639999866,1,1,0,1,NA,NA,NA,NA,NA,NA,NA,NA,NA,NA,NA,NA,NA,NA,NA,NA,NA,NA,NA,NA,NA,NA,NA,NA
"218","stim/objects/Instruments/trumpet.png",112,48,112,0.3,"stim/33.jpeg",3,3,2,NA,"Instruments",1,3,"left","right",0.614000082,0,0,0,1,NA,NA,NA,NA,NA,NA,NA,NA,NA,NA,NA,NA,NA,NA,NA,NA,NA,NA,NA,NA,NA,NA,NA,NA
"70","stim/objects/HouseObjects/scale2.png",113,48,113,0.9,"stim/53.jpeg",5,3,3,NA,"HouseObjects",2,2,"right","right",0.515000105,1,1,0,1,NA,NA,NA,NA,NA,NA,NA,NA,NA,NA,NA,NA,NA,NA,NA,NA,NA,NA,NA,NA,NA,NA,NA,NA
"84","stim/objects/HouseObjects/sponge2.png",114,48,114,0.9,"stim/54.jpeg",5,4,3,NA,"HouseObjects",2,2,"right","right",0.437999964,1,1,0,1,NA,NA,NA,NA,NA,NA,NA,NA,NA,NA,NA,NA,NA,NA,NA,NA,NA,NA,NA,NA,NA,NA,NA,NA
"230","stim/objects/Instruments/tuba.png",115,48,115,0.3,"stim/34.jpeg",3,4,2,NA,"Instruments",1,2,"left","left",0.570999861,1,1,0,1,NA,NA,NA,NA,NA,NA,NA,NA,NA,NA,NA,NA,NA,NA,NA,NA,NA,NA,NA,NA,NA,NA,NA,NA
"152","stim/objects/Instruments/record_player2.png",116,48,116,0.7,"stim/44.jpeg",4,4,2,NA,"Instruments",1,1,"left","left",0.60800004,1,1,0,1,NA,NA,NA,NA,NA,NA,NA,NA,NA,NA,NA,NA,NA,NA,NA,NA,NA,NA,NA,NA,NA,NA,NA,NA
"53","stim/objects/HouseObjects/saw2.png",117,48,117,0.9,"stim/52.jpeg",5,2,3,NA,"HouseObjects",2,1,"right","right",0.508999825,1,1,0,1,NA,NA,NA,NA,NA,NA,NA,NA,NA,NA,NA,NA,NA,NA,NA,NA,NA,NA,NA,NA,NA,NA,NA,NA
"5","stim/objects/HouseObjects/recyclingbin.png",118,48,118,0.5,"stim/11.jpeg",1,1,1,NA,"HouseObjects",2,2,"right","left",0.71600008,0,0,0,1,NA,NA,NA,NA,NA,NA,NA,NA,NA,NA,NA,NA,NA,NA,NA,NA,NA,NA,NA,NA,NA,NA,NA,NA
"170","stim/objects/Instruments/saxophone.png",119,48,119,0.5,"stim/21.jpeg",2,1,1,NA,"Instruments",1,4,"left","right",0.604999781,0,0,0,1,NA,NA,NA,NA,NA,NA,NA,NA,NA,NA,NA,NA,NA,NA,NA,NA,NA,NA,NA,NA,NA,NA,NA,NA
"141","stim/objects/Instruments/pipepiano2.png",120,48,120,0.7,"stim/42.jpeg",4,2,2,NA,"Instruments",1,4,"left","left",0.580999851,1,1,0,1,NA,NA,NA,NA,NA,NA,NA,NA,NA,NA,NA,NA,NA,NA,NA,NA,NA,NA,NA,NA,NA,NA,NA,NA
"153","stim/objects/Instruments/record_player2.png",121,48,121,0.7,"stim/44.jpeg",4,4,2,NA,"Instruments",1,1,"left","left",0.576999903,1,1,0,1,NA,NA,NA,NA,NA,NA,NA,NA,NA,NA,NA,NA,NA,NA,NA,NA,NA,NA,NA,NA,NA,NA,NA,NA
"49","stim/objects/HouseObjects/saw.png",122,48,122,0.5,"stim/22.jpeg",2,2,1,NA,"HouseObjects",2,1,"right","right",0.733999968,1,1,0,1,NA,NA,NA,NA,NA,NA,NA,NA,NA,NA,NA,NA,NA,NA,NA,NA,NA,NA,NA,NA,NA,NA,NA,NA
"134","stim/objects/Instruments/pipepiano.png",123,48,123,0.5,"stim/12.jpeg",1,2,1,NA,"Instruments",1,4,"left","right",0.599999905,0,0,0,1,NA,NA,NA,NA,NA,NA,NA,NA,NA,NA,NA,NA,NA,NA,NA,NA,NA,NA,NA,NA,NA,NA,NA,NA
"13","stim/objects/HouseObjects/remote.png",124,48,124,0.5,"stim/12.jpeg",1,2,1,NA,"HouseObjects",2,3,"right","right",0.580999851,1,1,0,1,NA,NA,NA,NA,NA,NA,NA,NA,NA,NA,NA,NA,NA,NA,NA,NA,NA,NA,NA,NA,NA,NA,NA,NA
"200","stim/objects/Instruments/triangle2.png",125,48,125,0.9,"stim/61.jpeg",6,1,3,NA,"Instruments",1,2,"left","left",0.477999926,1,1,0,1,NA,NA,NA,NA,NA,NA,NA,NA,NA,NA,NA,NA,NA,NA,NA,NA,NA,NA,NA,NA,NA,NA,NA,NA
"207","stim/objects/Instruments/trombone.png",126,48,126,0.3,"stim/32.jpeg",3,2,2,NA,"Instruments",1,2,"left","right",0.661999941,0,0,0,1,NA,NA,NA,NA,NA,NA,NA,NA,NA,NA,NA,NA,NA,NA,NA,NA,NA,NA,NA,NA,NA,NA,NA,NA
"237","stim/objects/Instruments/tuba2.png",127,48,127,0.9,"stim/64.jpeg",6,4,3,NA,"Instruments",1,3,"left","left",0.495999813,1,1,0,1,NA,NA,NA,NA,NA,NA,NA,NA,NA,NA,NA,NA,NA,NA,NA,NA,NA,NA,NA,NA,NA,NA,NA,NA
"40","stim/objects/HouseObjects/safetypin2.png",128,48,128,0.9,"stim/51.jpeg",5,1,3,NA,"HouseObjects",2,1,"right","right",0.507999897,1,1,0,1,NA,NA,NA,NA,NA,NA,NA,NA,NA,NA,NA,NA,NA,NA,NA,NA,NA,NA,NA,NA,NA,NA,NA,NA
"142","stim/objects/Instruments/pipepiano2.png",129,48,129,0.7,"stim/42.jpeg",4,2,2,NA,"Instruments",1,3,"left","left",0.523999929,1,1,0,1,NA,NA,NA,NA,NA,NA,NA,NA,NA,NA,NA,NA,NA,NA,NA,NA,NA,NA,NA,NA,NA,NA,NA,NA
"91","stim/objects/HouseObjects/spraybottle.png",130,48,130,0.7,"stim/31.jpeg",3,1,2,NA,"HouseObjects",2,1,"right","right",0.56400013,1,1,0,1,NA,NA,NA,NA,NA,NA,NA,NA,NA,NA,NA,NA,NA,NA,NA,NA,NA,NA,NA,NA,NA,NA,NA,NA
"211","stim/objects/Instruments/trombone2.png",131,48,131,0.9,"stim/62.jpeg",6,2,3,NA,"Instruments",1,4,"left","left",0.522999763,1,1,0,1,NA,NA,NA,NA,NA,NA,NA,NA,NA,NA,NA,NA,NA,NA,NA,NA,NA,NA,NA,NA,NA,NA,NA,NA
"135","stim/objects/Instruments/pipepiano.png",132,48,132,0.5,"stim/12.jpeg",1,2,1,NA,"Instruments",1,1,"left","right",0.467999935,0,0,0,1,NA,NA,NA,NA,NA,NA,NA,NA,NA,NA,NA,NA,NA,NA,NA,NA,NA,NA,NA,NA,NA,NA,NA,NA
"96","stim/objects/HouseObjects/spraybottle2.png",133,48,133,0.1,"stim/61.jpeg",6,1,3,NA,"HouseObjects",2,2,"right","left",0.451999903,0,0,0,1,NA,NA,NA,NA,NA,NA,NA,NA,NA,NA,NA,NA,NA,NA,NA,NA,NA,NA,NA,NA,NA,NA,NA,NA
"98","stim/objects/HouseObjects/teapot.png",134,48,134,0.7,"stim/32.jpeg",3,2,2,NA,"HouseObjects",2,1,"right","",NA,0,0,0,1,NA,NA,NA,NA,NA,NA,NA,NA,NA,NA,NA,NA,NA,NA,NA,NA,NA,NA,NA,NA,NA,NA,NA,NA
"64","stim/objects/HouseObjects/scale.png",135,48,135,0.5,"stim/23.jpeg",2,3,1,NA,"HouseObjects",2,1,"right","left",0.593999863,0,0,0,1,NA,NA,NA,NA,NA,NA,NA,NA,NA,NA,NA,NA,NA,NA,NA,NA,NA,NA,NA,NA,NA,NA,NA,NA
"143","stim/objects/Instruments/pipepiano2.png",136,48,136,0.7,"stim/42.jpeg",4,2,2,NA,"Instruments",1,3,"left","left",0.541999817,1,1,0,1,NA,NA,NA,NA,NA,NA,NA,NA,NA,NA,NA,NA,NA,NA,NA,NA,NA,NA,NA,NA,NA,NA,NA,NA
"212","stim/objects/Instruments/trombone2.png",137,48,137,0.9,"stim/62.jpeg",6,2,3,NA,"Instruments",1,1,"left","left",0.484999895,1,1,0,1,NA,NA,NA,NA,NA,NA,NA,NA,NA,NA,NA,NA,NA,NA,NA,NA,NA,NA,NA,NA,NA,NA,NA,NA
"120","stim/objects/HouseObjects/thread2.png",138,48,138,0.1,"stim/64.jpeg",6,4,3,NA,"HouseObjects",2,4,"right","left",0.483999729,0,0,0,1,NA,NA,NA,NA,NA,NA,NA,NA,NA,NA,NA,NA,NA,NA,NA,NA,NA,NA,NA,NA,NA,NA,NA,NA
"186","stim/objects/Instruments/tambourine2.png",139,48,139,0.1,"stim/53.jpeg",5,3,3,NA,"Instruments",1,4,"left","right",0.53399992,0,0,0,1,NA,NA,NA,NA,NA,NA,NA,NA,NA,NA,NA,NA,NA,NA,NA,NA,NA,NA,NA,NA,NA,NA,NA,NA
"136","stim/objects/Instruments/pipepiano.png",140,48,140,0.5,"stim/12.jpeg",1,2,1,NA,"Instruments",1,4,"left","right",0.613999844,0,0,0,1,NA,NA,NA,NA,NA,NA,NA,NA,NA,NA,NA,NA,NA,NA,NA,NA,NA,NA,NA,NA,NA,NA,NA,NA
"36","stim/objects/HouseObjects/safetypin.png",141,48,141,0.5,"stim/21.jpeg",2,1,1,NA,"HouseObjects",2,4,"right","right",0.654999971,1,1,0,1,NA,NA,NA,NA,NA,NA,NA,NA,NA,NA,NA,NA,NA,NA,NA,NA,NA,NA,NA,NA,NA,NA,NA,NA
"114","stim/objects/HouseObjects/thread.png",142,48,142,0.7,"stim/34.jpeg",3,4,2,NA,"HouseObjects",2,3,"right","right",0.733999968,1,1,0,1,NA,NA,NA,NA,NA,NA,NA,NA,NA,NA,NA,NA,NA,NA,NA,NA,NA,NA,NA,NA,NA,NA,NA,NA
"71","stim/objects/HouseObjects/scale2.png",143,48,143,0.9,"stim/53.jpeg",5,3,3,NA,"HouseObjects",2,3,"right","right",0.501999855,1,1,0,1,NA,NA,NA,NA,NA,NA,NA,NA,NA,NA,NA,NA,NA,NA,NA,NA,NA,NA,NA,NA,NA,NA,NA,NA
"41","stim/objects/HouseObjects/safetypin2.png",144,48,144,0.9,"stim/51.jpeg",5,1,3,NA,"HouseObjects",2,4,"right","right",0.582000017,1,1,0,1,NA,NA,NA,NA,NA,NA,NA,NA,NA,NA,NA,NA,NA,NA,NA,NA,NA,NA,NA,NA,NA,NA,NA,NA
"147","stim/objects/Instruments/record_player.png",145,48,145,0.5,"stim/14.jpeg",1,4,1,NA,"Instruments",1,4,"left","right",0.715999842,0,0,0,1,NA,NA,NA,NA,NA,NA,NA,NA,NA,NA,NA,NA,NA,NA,NA,NA,NA,NA,NA,NA,NA,NA,NA,NA
"201","stim/objects/Instruments/triangle2.png",146,48,146,0.9,"stim/61.jpeg",6,1,3,NA,"Instruments",1,3,"left","left",0.605999947,1,1,0,1,NA,NA,NA,NA,NA,NA,NA,NA,NA,NA,NA,NA,NA,NA,NA,NA,NA,NA,NA,NA,NA,NA,NA,NA
"99","stim/objects/HouseObjects/teapot.png",147,48,147,0.7,"stim/32.jpeg",3,2,2,NA,"HouseObjects",2,1,"right","right",0.541000128,1,1,0,1,NA,NA,NA,NA,NA,NA,NA,NA,NA,NA,NA,NA,NA,NA,NA,NA,NA,NA,NA,NA,NA,NA,NA,NA
"174","stim/objects/Instruments/saxophone2.png",148,48,148,0.1,"stim/51.jpeg",5,1,3,NA,"Instruments",1,4,"left","right",0.480999947,0,0,0,1,NA,NA,NA,NA,NA,NA,NA,NA,NA,NA,NA,NA,NA,NA,NA,NA,NA,NA,NA,NA,NA,NA,NA,NA
"37","stim/objects/HouseObjects/safetypin.png",149,48,149,0.5,"stim/21.jpeg",2,1,1,NA,"HouseObjects",2,4,"right","right",0.498999834,1,1,0,1,NA,NA,NA,NA,NA,NA,NA,NA,NA,NA,NA,NA,NA,NA,NA,NA,NA,NA,NA,NA,NA,NA,NA,NA
"137","stim/objects/Instruments/pipepiano.png",150,48,150,0.5,"stim/12.jpeg",1,2,1,NA,"Instruments",1,3,"left","right",0.686000109,0,0,0,1,NA,NA,NA,NA,NA,NA,NA,NA,NA,NA,NA,NA,NA,NA,NA,NA,NA,NA,NA,NA,NA,NA,NA,NA
"42","stim/objects/HouseObjects/safetypin2.png",151,48,151,0.9,"stim/51.jpeg",5,1,3,NA,"HouseObjects",2,2,"right","right",0.490999937,1,1,0,1,NA,NA,NA,NA,NA,NA,NA,NA,NA,NA,NA,NA,NA,NA,NA,NA,NA,NA,NA,NA,NA,NA,NA,NA
"144","stim/objects/Instruments/pipepiano2.png",152,48,152,0.7,"stim/42.jpeg",4,2,2,NA,"Instruments",1,1,"left","left",0.542999983,1,1,0,1,NA,NA,NA,NA,NA,NA,NA,NA,NA,NA,NA,NA,NA,NA,NA,NA,NA,NA,NA,NA,NA,NA,NA,NA
"43","stim/objects/HouseObjects/safetypin2.png",153,48,153,0.9,"stim/51.jpeg",5,1,3,NA,"HouseObjects",2,2,"right","right",0.429999828,1,1,0,1,NA,NA,NA,NA,NA,NA,NA,NA,NA,NA,NA,NA,NA,NA,NA,NA,NA,NA,NA,NA,NA,NA,NA,NA
"27","stim/objects/HouseObjects/rug.png",154,48,154,0.5,"stim/14.jpeg",1,4,1,NA,"HouseObjects",2,3,"right","left",0.453999758,0,0,0,1,NA,NA,NA,NA,NA,NA,NA,NA,NA,NA,NA,NA,NA,NA,NA,NA,NA,NA,NA,NA,NA,NA,NA,NA
"213","stim/objects/Instruments/trombone2.png",155,48,155,0.9,"stim/62.jpeg",6,2,3,NA,"Instruments",1,1,"left","left",0.549999952,1,1,0,1,NA,NA,NA,NA,NA,NA,NA,NA,NA,NA,NA,NA,NA,NA,NA,NA,NA,NA,NA,NA,NA,NA,NA,NA
"160","stim/objects/Instruments/record.png",156,48,156,0.5,"stim/13.jpeg",1,3,1,NA,"Instruments",1,3,"left","right",0.477999926,0,0,0,1,NA,NA,NA,NA,NA,NA,NA,NA,NA,NA,NA,NA,NA,NA,NA,NA,NA,NA,NA,NA,NA,NA,NA,NA
"15","stim/objects/HouseObjects/remote2.png",157,48,157,0.3,"stim/42.jpeg",4,2,2,NA,"HouseObjects",2,3,"right","left",0.529000044,0,0,0,1,NA,NA,NA,NA,NA,NA,NA,NA,NA,NA,NA,NA,NA,NA,NA,NA,NA,NA,NA,NA,NA,NA,NA,NA
"238","stim/objects/Instruments/tuba2.png",158,48,158,0.9,"stim/64.jpeg",6,4,3,NA,"Instruments",1,4,"left","left",0.501999855,1,1,0,1,NA,NA,NA,NA,NA,NA,NA,NA,NA,NA,NA,NA,NA,NA,NA,NA,NA,NA,NA,NA,NA,NA,NA,NA
"44","stim/objects/HouseObjects/safetypin2.png",159,48,159,0.9,"stim/51.jpeg",5,1,3,NA,"HouseObjects",2,3,"right","right",0.47699976,1,1,0,1,NA,NA,NA,NA,NA,NA,NA,NA,NA,NA,NA,NA,NA,NA,NA,NA,NA,NA,NA,NA,NA,NA,NA,NA
"214","stim/objects/Instruments/trombone2.png",160,48,160,0.9,"stim/62.jpeg",6,2,3,NA,"Instruments",1,1,"left","left",0.51699996,1,1,0,1,NA,NA,NA,NA,NA,NA,NA,NA,NA,NA,NA,NA,NA,NA,NA,NA,NA,NA,NA,NA,NA,NA,NA,NA
"72","stim/objects/HouseObjects/scale2.png",161,48,161,0.9,"stim/53.jpeg",5,3,3,NA,"HouseObjects",2,1,"right","right",0.43599987,1,1,0,1,NA,NA,NA,NA,NA,NA,NA,NA,NA,NA,NA,NA,NA,NA,NA,NA,NA,NA,NA,NA,NA,NA,NA,NA
"85","stim/objects/HouseObjects/sponge2.png",162,48,162,0.9,"stim/54.jpeg",5,4,3,NA,"HouseObjects",2,4,"right","right",0.650000095,1,1,0,1,NA,NA,NA,NA,NA,NA,NA,NA,NA,NA,NA,NA,NA,NA,NA,NA,NA,NA,NA,NA,NA,NA,NA,NA
"54","stim/objects/HouseObjects/saw2.png",163,48,163,0.9,"stim/52.jpeg",5,2,3,NA,"HouseObjects",2,2,"right","right",0.570999861,1,1,0,1,NA,NA,NA,NA,NA,NA,NA,NA,NA,NA,NA,NA,NA,NA,NA,NA,NA,NA,NA,NA,NA,NA,NA,NA
"92","stim/objects/HouseObjects/spraybottle.png",164,48,164,0.7,"stim/31.jpeg",3,1,2,NA,"HouseObjects",2,3,"right","left",0.457999945,0,0,0,1,NA,NA,NA,NA,NA,NA,NA,NA,NA,NA,NA,NA,NA,NA,NA,NA,NA,NA,NA,NA,NA,NA,NA,NA
"50","stim/objects/HouseObjects/saw.png",165,48,165,0.5,"stim/22.jpeg",2,2,1,NA,"HouseObjects",2,2,"right","right",0.65199995,1,1,0,1,NA,NA,NA,NA,NA,NA,NA,NA,NA,NA,NA,NA,NA,NA,NA,NA,NA,NA,NA,NA,NA,NA,NA,NA
"192","stim/objects/Instruments/timbal2.png",166,48,166,0.1,"stim/54.jpeg",5,4,3,NA,"Instruments",1,1,"left","right",0.586999893,0,0,0,1,NA,NA,NA,NA,NA,NA,NA,NA,NA,NA,NA,NA,NA,NA,NA,NA,NA,NA,NA,NA,NA,NA,NA,NA
"215","stim/objects/Instruments/trombone2.png",167,48,167,0.9,"stim/62.jpeg",6,2,3,NA,"Instruments",1,1,"left","left",0.512999773,1,1,0,1,NA,NA,NA,NA,NA,NA,NA,NA,NA,NA,NA,NA,NA,NA,NA,NA,NA,NA,NA,NA,NA,NA,NA,NA
"20","stim/objects/HouseObjects/rubbergloves.png",168,48,168,0.5,"stim/13.jpeg",1,3,1,NA,"HouseObjects",2,3,"right","right",0.518000126,1,1,0,1,NA,NA,NA,NA,NA,NA,NA,NA,NA,NA,NA,NA,NA,NA,NA,NA,NA,NA,NA,NA,NA,NA,NA,NA
"115","stim/objects/HouseObjects/thread.png",169,48,169,0.7,"stim/34.jpeg",3,4,2,NA,"HouseObjects",2,2,"right","right",0.670000076,1,1,0,1,NA,NA,NA,NA,NA,NA,NA,NA,NA,NA,NA,NA,NA,NA,NA,NA,NA,NA,NA,NA,NA,NA,NA,NA
"109","stim/objects/HouseObjects/thermometer.png",170,48,170,0.7,"stim/33.jpeg",3,3,2,NA,"HouseObjects",2,4,"right","right",0.596999884,1,1,0,1,NA,NA,NA,NA,NA,NA,NA,NA,NA,NA,NA,NA,NA,NA,NA,NA,NA,NA,NA,NA,NA,NA,NA,NA
"93","stim/objects/HouseObjects/spraybottle.png",171,48,171,0.7,"stim/31.jpeg",3,1,2,NA,"HouseObjects",2,2,"right","right",0.46999979,1,1,0,1,NA,NA,NA,NA,NA,NA,NA,NA,NA,NA,NA,NA,NA,NA,NA,NA,NA,NA,NA,NA,NA,NA,NA,NA
"28","stim/objects/HouseObjects/rug.png",172,48,172,0.5,"stim/14.jpeg",1,4,1,NA,"HouseObjects",2,2,"right","right",0.460999966,1,1,0,1,NA,NA,NA,NA,NA,NA,NA,NA,NA,NA,NA,NA,NA,NA,NA,NA,NA,NA,NA,NA,NA,NA,NA,NA
"51","stim/objects/HouseObjects/saw.png",173,48,173,0.5,"stim/22.jpeg",2,2,1,NA,"HouseObjects",2,1,"right","right",0.513999939,1,1,0,1,NA,NA,NA,NA,NA,NA,NA,NA,NA,NA,NA,NA,NA,NA,NA,NA,NA,NA,NA,NA,NA,NA,NA,NA
"104","stim/objects/HouseObjects/teapot2.png",174,48,174,0.1,"stim/62.jpeg",6,2,3,NA,"HouseObjects",2,1,"right","left",0.491999865,0,0,0,1,NA,NA,NA,NA,NA,NA,NA,NA,NA,NA,NA,NA,NA,NA,NA,NA,NA,NA,NA,NA,NA,NA,NA,NA
"116","stim/objects/HouseObjects/thread.png",175,48,175,0.7,"stim/34.jpeg",3,4,2,NA,"HouseObjects",2,2,"right","right",0.449999809,1,1,0,1,NA,NA,NA,NA,NA,NA,NA,NA,NA,NA,NA,NA,NA,NA,NA,NA,NA,NA,NA,NA,NA,NA,NA,NA
"45","stim/objects/HouseObjects/safetypin2.png",176,48,176,0.9,"stim/51.jpeg",5,1,3,NA,"HouseObjects",2,4,"right","right",0.513000011,1,1,0,1,NA,NA,NA,NA,NA,NA,NA,NA,NA,NA,NA,NA,NA,NA,NA,NA,NA,NA,NA,NA,NA,NA,NA,NA
"24","stim/objects/HouseObjects/rubbergloves2.png",177,48,177,0.3,"stim/43.jpeg",4,3,2,NA,"HouseObjects",2,4,"right","right",0.429999828,1,1,0,1,NA,NA,NA,NA,NA,NA,NA,NA,NA,NA,NA,NA,NA,NA,NA,NA,NA,NA,NA,NA,NA,NA,NA,NA
"86","stim/objects/HouseObjects/sponge2.png",178,48,178,0.9,"stim/54.jpeg",5,4,3,NA,"HouseObjects",2,3,"right","right",0.55099988,1,1,0,1,NA,NA,NA,NA,NA,NA,NA,NA,NA,NA,NA,NA,NA,NA,NA,NA,NA,NA,NA,NA,NA,NA,NA,NA
"55","stim/objects/HouseObjects/saw2.png",179,48,179,0.9,"stim/52.jpeg",5,2,3,NA,"HouseObjects",2,4,"right","left",0.554999828,0,0,0,1,NA,NA,NA,NA,NA,NA,NA,NA,NA,NA,NA,NA,NA,NA,NA,NA,NA,NA,NA,NA,NA,NA,NA,NA
"130","stim/objects/Instruments/panflute2.png",180,48,180,0.7,"stim/41.jpeg",4,1,2,NA,"Instruments",1,3,"left","left",0.684999943,1,1,0,1,NA,NA,NA,NA,NA,NA,NA,NA,NA,NA,NA,NA,NA,NA,NA,NA,NA,NA,NA,NA,NA,NA,NA,NA
"239","stim/objects/Instruments/tuba2.png",181,48,181,0.9,"stim/64.jpeg",6,4,3,NA,"Instruments",1,3,"left","left",0.525999784,1,1,0,1,NA,NA,NA,NA,NA,NA,NA,NA,NA,NA,NA,NA,NA,NA,NA,NA,NA,NA,NA,NA,NA,NA,NA,NA
"227","stim/objects/Instruments/trumpet2.png",182,48,182,0.9,"stim/63.jpeg",6,3,3,NA,"Instruments",1,3,"left","left",0.526000023,1,1,0,1,NA,NA,NA,NA,NA,NA,NA,NA,NA,NA,NA,NA,NA,NA,NA,NA,NA,NA,NA,NA,NA,NA,NA,NA
"165","stim/objects/Instruments/record2.png",183,48,183,0.7,"stim/43.jpeg",4,3,2,NA,"Instruments",1,1,"left","left",0.618999958,1,1,0,1,NA,NA,NA,NA,NA,NA,NA,NA,NA,NA,NA,NA,NA,NA,NA,NA,NA,NA,NA,NA,NA,NA,NA,NA
"56","stim/objects/HouseObjects/saw2.png",184,48,184,0.9,"stim/52.jpeg",5,2,3,NA,"HouseObjects",2,3,"right","right",0.63499999,1,1,0,1,NA,NA,NA,NA,NA,NA,NA,NA,NA,NA,NA,NA,NA,NA,NA,NA,NA,NA,NA,NA,NA,NA,NA,NA
"131","stim/objects/Instruments/panflute2.png",185,48,185,0.7,"stim/41.jpeg",4,1,2,NA,"Instruments",1,1,"left","left",0.566999912,1,1,0,1,NA,NA,NA,NA,NA,NA,NA,NA,NA,NA,NA,NA,NA,NA,NA,NA,NA,NA,NA,NA,NA,NA,NA,NA
"73","stim/objects/HouseObjects/scale2.png",186,48,186,0.9,"stim/53.jpeg",5,3,3,NA,"HouseObjects",2,2,"right","right",0.634000063,1,1,0,1,NA,NA,NA,NA,NA,NA,NA,NA,NA,NA,NA,NA,NA,NA,NA,NA,NA,NA,NA,NA,NA,NA,NA,NA
"117","stim/objects/HouseObjects/thread.png",187,48,187,0.7,"stim/34.jpeg",3,4,2,NA,"HouseObjects",2,4,"right","right",0.662999868,1,1,0,1,NA,NA,NA,NA,NA,NA,NA,NA,NA,NA,NA,NA,NA,NA,NA,NA,NA,NA,NA,NA,NA,NA,NA,NA
"57","stim/objects/HouseObjects/saw2.png",188,48,188,0.9,"stim/52.jpeg",5,2,3,NA,"HouseObjects",2,4,"right","right",0.494999886,1,1,0,1,NA,NA,NA,NA,NA,NA,NA,NA,NA,NA,NA,NA,NA,NA,NA,NA,NA,NA,NA,NA,NA,NA,NA,NA
"124","stim/objects/Instruments/panflute.png",189,48,189,0.5,"stim/11.jpeg",1,1,1,NA,"Instruments",1,1,"left","right",0.644999981,0,0,0,1,NA,NA,NA,NA,NA,NA,NA,NA,NA,NA,NA,NA,NA,NA,NA,NA,NA,NA,NA,NA,NA,NA,NA,NA
"94","stim/objects/HouseObjects/spraybottle.png",190,48,190,0.7,"stim/31.jpeg",3,1,2,NA,"HouseObjects",2,4,"right","right",0.619999886,1,1,0,1,NA,NA,NA,NA,NA,NA,NA,NA,NA,NA,NA,NA,NA,NA,NA,NA,NA,NA,NA,NA,NA,NA,NA,NA
"100","stim/objects/HouseObjects/teapot.png",191,48,191,0.7,"stim/32.jpeg",3,2,2,NA,"HouseObjects",2,3,"right","right",0.520999908,1,1,0,1,NA,NA,NA,NA,NA,NA,NA,NA,NA,NA,NA,NA,NA,NA,NA,NA,NA,NA,NA,NA,NA,NA,NA,NA
"58","stim/objects/HouseObjects/saw2.png",192,48,192,0.9,"stim/52.jpeg",5,2,3,NA,"HouseObjects",2,2,"right","right",0.485999823,1,1,0,1,NA,NA,NA,NA,NA,NA,NA,NA,NA,NA,NA,NA,NA,NA,NA,NA,NA,NA,NA,NA,NA,NA,NA,NA
"16","stim/objects/HouseObjects/remote2.png",193,48,193,0.3,"stim/42.jpeg",4,2,2,NA,"HouseObjects",2,2,"right","left",0.555999994,0,0,0,1,NA,NA,NA,NA,NA,NA,NA,NA,NA,NA,NA,NA,NA,NA,NA,NA,NA,NA,NA,NA,NA,NA,NA,NA
"228","stim/objects/Instruments/trumpet2.png",194,48,194,0.9,"stim/63.jpeg",6,3,3,NA,"Instruments",1,2,"left","left",0.54399991,1,1,0,1,NA,NA,NA,NA,NA,NA,NA,NA,NA,NA,NA,NA,NA,NA,NA,NA,NA,NA,NA,NA,NA,NA,NA,NA
"101","stim/objects/HouseObjects/teapot.png",195,48,195,0.7,"stim/32.jpeg",3,2,2,NA,"HouseObjects",2,1,"right","right",0.468999863,1,1,0,1,NA,NA,NA,NA,NA,NA,NA,NA,NA,NA,NA,NA,NA,NA,NA,NA,NA,NA,NA,NA,NA,NA,NA,NA
"166","stim/objects/Instruments/record2.png",196,48,196,0.7,"stim/43.jpeg",4,3,2,NA,"Instruments",1,1,"left","left",0.563999891,1,1,0,1,NA,NA,NA,NA,NA,NA,NA,NA,NA,NA,NA,NA,NA,NA,NA,NA,NA,NA,NA,NA,NA,NA,NA,NA
"102","stim/objects/HouseObjects/teapot.png",197,48,197,0.7,"stim/32.jpeg",3,2,2,NA,"HouseObjects",2,3,"right","right",0.582999945,1,1,0,1,NA,NA,NA,NA,NA,NA,NA,NA,NA,NA,NA,NA,NA,NA,NA,NA,NA,NA,NA,NA,NA,NA,NA,NA
"125","stim/objects/Instruments/panflute.png",198,48,198,0.5,"stim/11.jpeg",1,1,1,NA,"Instruments",1,4,"left","left",0.703000069,1,1,0,1,NA,NA,NA,NA,NA,NA,NA,NA,NA,NA,NA,NA,NA,NA,NA,NA,NA,NA,NA,NA,NA,NA,NA,NA
"118","stim/objects/HouseObjects/thread.png",199,48,199,0.7,"stim/34.jpeg",3,4,2,NA,"HouseObjects",2,4,"right","right",0.436000109,1,1,0,1,NA,NA,NA,NA,NA,NA,NA,NA,NA,NA,NA,NA,NA,NA,NA,NA,NA,NA,NA,NA,NA,NA,NA,NA
"185","stim/objects/Instruments/tambourine.png",200,48,200,0.5,"stim/23.jpeg",2,3,1,NA,"Instruments",1,4,"left","right",0.463999987,0,0,0,1,NA,NA,NA,NA,NA,NA,NA,NA,NA,NA,NA,NA,NA,NA,NA,NA,NA,NA,NA,NA,NA,NA,NA,NA
"59","stim/objects/HouseObjects/saw2.png",201,48,201,0.9,"stim/52.jpeg",5,2,3,NA,"HouseObjects",2,3,"right","right",0.579999924,1,1,0,1,NA,NA,NA,NA,NA,NA,NA,NA,NA,NA,NA,NA,NA,NA,NA,NA,NA,NA,NA,NA,NA,NA,NA,NA
"60","stim/objects/HouseObjects/saw2.png",202,48,202,0.9,"stim/52.jpeg",5,2,3,NA,"HouseObjects",2,3,"right","right",0.447999954,1,1,0,1,NA,NA,NA,NA,NA,NA,NA,NA,NA,NA,NA,NA,NA,NA,NA,NA,NA,NA,NA,NA,NA,NA,NA,NA
"78","stim/objects/HouseObjects/sponge.png",203,48,203,0.5,"stim/24.jpeg",2,4,1,NA,"HouseObjects",2,1,"right","left",0.782999992,0,0,0,1,NA,NA,NA,NA,NA,NA,NA,NA,NA,NA,NA,NA,NA,NA,NA,NA,NA,NA,NA,NA,NA,NA,NA,NA
"171","stim/objects/Instruments/saxophone.png",204,48,204,0.5,"stim/21.jpeg",2,1,1,NA,"Instruments",1,3,"left","right",0.513000011,0,0,0,1,NA,NA,NA,NA,NA,NA,NA,NA,NA,NA,NA,NA,NA,NA,NA,NA,NA,NA,NA,NA,NA,NA,NA,NA
"29","stim/objects/HouseObjects/rug.png",205,48,205,0.5,"stim/14.jpeg",1,4,1,NA,"HouseObjects",2,4,"right","right",0.562999725,1,1,0,1,NA,NA,NA,NA,NA,NA,NA,NA,NA,NA,NA,NA,NA,NA,NA,NA,NA,NA,NA,NA,NA,NA,NA,NA
"195","stim/objects/Instruments/triangle.png",206,48,206,0.3,"stim/31.jpeg",3,1,2,NA,"Instruments",1,3,"left","right",0.427999973,0,0,0,1,NA,NA,NA,NA,NA,NA,NA,NA,NA,NA,NA,NA,NA,NA,NA,NA,NA,NA,NA,NA,NA,NA,NA,NA
"32","stim/objects/HouseObjects/rug2.png",207,48,207,0.3,"stim/44.jpeg",4,4,2,NA,"HouseObjects",2,4,"right","left",0.681999922,0,0,0,1,NA,NA,NA,NA,NA,NA,NA,NA,NA,NA,NA,NA,NA,NA,NA,NA,NA,NA,NA,NA,NA,NA,NA,NA
"148","stim/objects/Instruments/record_player.png",208,48,208,0.5,"stim/14.jpeg",1,4,1,NA,"Instruments",1,1,"left","right",0.513000011,0,0,0,1,NA,NA,NA,NA,NA,NA,NA,NA,NA,NA,NA,NA,NA,NA,NA,NA,NA,NA,NA,NA,NA,NA,NA,NA
"87","stim/objects/HouseObjects/sponge2.png",209,48,209,0.9,"stim/54.jpeg",5,4,3,NA,"HouseObjects",2,1,"right","right",0.48699975,1,1,0,1,NA,NA,NA,NA,NA,NA,NA,NA,NA,NA,NA,NA,NA,NA,NA,NA,NA,NA,NA,NA,NA,NA,NA,NA
"202","stim/objects/Instruments/triangle2.png",210,48,210,0.9,"stim/61.jpeg",6,1,3,NA,"Instruments",1,2,"left","left",0.511999846,1,1,0,1,NA,NA,NA,NA,NA,NA,NA,NA,NA,NA,NA,NA,NA,NA,NA,NA,NA,NA,NA,NA,NA,NA,NA,NA
"154","stim/objects/Instruments/record_player2.png",211,48,211,0.7,"stim/44.jpeg",4,4,2,NA,"Instruments",1,2,"left","left",0.528999805,1,1,0,1,NA,NA,NA,NA,NA,NA,NA,NA,NA,NA,NA,NA,NA,NA,NA,NA,NA,NA,NA,NA,NA,NA,NA,NA
"74","stim/objects/HouseObjects/scale2.png",212,48,212,0.9,"stim/53.jpeg",5,3,3,NA,"HouseObjects",2,2,"right","right",0.41899991,1,1,0,1,NA,NA,NA,NA,NA,NA,NA,NA,NA,NA,NA,NA,NA,NA,NA,NA,NA,NA,NA,NA,NA,NA,NA,NA
"103","stim/objects/HouseObjects/teapot.png",213,48,213,0.7,"stim/32.jpeg",3,2,2,NA,"HouseObjects",2,4,"right","right",0.637999773,1,1,0,1,NA,NA,NA,NA,NA,NA,NA,NA,NA,NA,NA,NA,NA,NA,NA,NA,NA,NA,NA,NA,NA,NA,NA,NA
"179","stim/objects/Instruments/speaker.png",214,48,214,0.5,"stim/22.jpeg",2,2,1,NA,"Instruments",1,1,"left","right",0.644999981,0,0,0,1,NA,NA,NA,NA,NA,NA,NA,NA,NA,NA,NA,NA,NA,NA,NA,NA,NA,NA,NA,NA,NA,NA,NA,NA
"21","stim/objects/HouseObjects/rubbergloves.png",215,48,215,0.5,"stim/13.jpeg",1,3,1,NA,"HouseObjects",2,4,"right","right",0.563999891,1,1,0,1,NA,NA,NA,NA,NA,NA,NA,NA,NA,NA,NA,NA,NA,NA,NA,NA,NA,NA,NA,NA,NA,NA,NA,NA
"216","stim/objects/Instruments/trombone2.png",216,48,216,0.9,"stim/62.jpeg",6,2,3,NA,"Instruments",1,1,"left","left",0.581999779,1,1,0,1,NA,NA,NA,NA,NA,NA,NA,NA,NA,NA,NA,NA,NA,NA,NA,NA,NA,NA,NA,NA,NA,NA,NA,NA
"95","stim/objects/HouseObjects/spraybottle.png",217,48,217,0.7,"stim/31.jpeg",3,1,2,NA,"HouseObjects",2,2,"right","right",0.72300005,1,1,0,1,NA,NA,NA,NA,NA,NA,NA,NA,NA,NA,NA,NA,NA,NA,NA,NA,NA,NA,NA,NA,NA,NA,NA,NA
"203","stim/objects/Instruments/triangle2.png",218,48,218,0.9,"stim/61.jpeg",6,1,3,NA,"Instruments",1,4,"left","left",0.487999916,1,1,0,1,NA,NA,NA,NA,NA,NA,NA,NA,NA,NA,NA,NA,NA,NA,NA,NA,NA,NA,NA,NA,NA,NA,NA,NA
"88","stim/objects/HouseObjects/sponge2.png",219,48,219,0.9,"stim/54.jpeg",5,4,3,NA,"HouseObjects",2,2,"right","right",0.463000059,1,1,0,1,NA,NA,NA,NA,NA,NA,NA,NA,NA,NA,NA,NA,NA,NA,NA,NA,NA,NA,NA,NA,NA,NA,NA,NA
"167","stim/objects/Instruments/record2.png",220,48,220,0.7,"stim/43.jpeg",4,3,2,NA,"Instruments",1,4,"left","left",0.502000093,1,1,0,1,NA,NA,NA,NA,NA,NA,NA,NA,NA,NA,NA,NA,NA,NA,NA,NA,NA,NA,NA,NA,NA,NA,NA,NA
"149","stim/objects/Instruments/record_player.png",221,48,221,0.5,"stim/14.jpeg",1,4,1,NA,"Instruments",1,4,"left","left",0.789999962,1,1,0,1,NA,NA,NA,NA,NA,NA,NA,NA,NA,NA,NA,NA,NA,NA,NA,NA,NA,NA,NA,NA,NA,NA,NA,NA
"110","stim/objects/HouseObjects/thermometer.png",222,48,222,0.7,"stim/33.jpeg",3,3,2,NA,"HouseObjects",2,2,"right","right",0.566999912,1,1,0,1,NA,NA,NA,NA,NA,NA,NA,NA,NA,NA,NA,NA,NA,NA,NA,NA,NA,NA,NA,NA,NA,NA,NA,NA
"155","stim/objects/Instruments/record_player2.png",223,48,223,0.7,"stim/44.jpeg",4,4,2,NA,"Instruments",1,4,"left","left",0.569000006,1,1,0,1,NA,NA,NA,NA,NA,NA,NA,NA,NA,NA,NA,NA,NA,NA,NA,NA,NA,NA,NA,NA,NA,NA,NA,NA
"240","stim/objects/Instruments/tuba2.png",224,48,224,0.9,"stim/64.jpeg",6,4,3,NA,"Instruments",1,2,"left","left",0.549999952,1,1,0,1,NA,NA,NA,NA,NA,NA,NA,NA,NA,NA,NA,NA,NA,NA,NA,NA,NA,NA,NA,NA,NA,NA,NA,NA
"219","stim/objects/Instruments/trumpet.png",225,48,225,0.3,"stim/33.jpeg",3,3,2,NA,"Instruments",1,4,"left","right",0.519000053,0,0,0,1,NA,NA,NA,NA,NA,NA,NA,NA,NA,NA,NA,NA,NA,NA,NA,NA,NA,NA,NA,NA,NA,NA,NA,NA
"172","stim/objects/Instruments/saxophone.png",226,48,226,0.5,"stim/21.jpeg",2,1,1,NA,"Instruments",1,4,"left","right",0.48300004,0,0,0,1,NA,NA,NA,NA,NA,NA,NA,NA,NA,NA,NA,NA,NA,NA,NA,NA,NA,NA,NA,NA,NA,NA,NA,NA
"173","stim/objects/Instruments/saxophone.png",227,48,227,0.5,"stim/21.jpeg",2,1,1,NA,"Instruments",1,2,"left","right",0.60199976,0,0,0,1,NA,NA,NA,NA,NA,NA,NA,NA,NA,NA,NA,NA,NA,NA,NA,NA,NA,NA,NA,NA,NA,NA,NA,NA
"168","stim/objects/Instruments/record2.png",228,48,228,0.7,"stim/43.jpeg",4,3,2,NA,"Instruments",1,3,"left","left",0.549999714,1,1,0,1,NA,NA,NA,NA,NA,NA,NA,NA,NA,NA,NA,NA,NA,NA,NA,NA,NA,NA,NA,NA,NA,NA,NA,NA
"204","stim/objects/Instruments/triangle2.png",229,48,229,0.9,"stim/61.jpeg",6,1,3,NA,"Instruments",1,2,"left","left",0.493999958,1,1,0,1,NA,NA,NA,NA,NA,NA,NA,NA,NA,NA,NA,NA,NA,NA,NA,NA,NA,NA,NA,NA,NA,NA,NA,NA
"161","stim/objects/Instruments/record.png",230,48,230,0.5,"stim/13.jpeg",1,3,1,NA,"Instruments",1,3,"left","right",0.508999825,0,0,0,1,NA,NA,NA,NA,NA,NA,NA,NA,NA,NA,NA,NA,NA,NA,NA,NA,NA,NA,NA,NA,NA,NA,NA,NA
"156","stim/objects/Instruments/record_player2.png",231,48,231,0.7,"stim/44.jpeg",4,4,2,NA,"Instruments",1,1,"left","left",0.599999905,1,1,0,1,NA,NA,NA,NA,NA,NA,NA,NA,NA,NA,NA,NA,NA,NA,NA,NA,NA,NA,NA,NA,NA,NA,NA,NA
"132","stim/objects/Instruments/panflute2.png",232,48,232,0.7,"stim/41.jpeg",4,1,2,NA,"Instruments",1,1,"left","left",0.454999924,1,1,0,1,NA,NA,NA,NA,NA,NA,NA,NA,NA,NA,NA,NA,NA,NA,NA,NA,NA,NA,NA,NA,NA,NA,NA,NA
"46","stim/objects/HouseObjects/safetypin2.png",233,48,233,0.9,"stim/51.jpeg",5,1,3,NA,"HouseObjects",2,3,"right","right",0.56099987,1,1,0,1,NA,NA,NA,NA,NA,NA,NA,NA,NA,NA,NA,NA,NA,NA,NA,NA,NA,NA,NA,NA,NA,NA,NA,NA
"112","stim/objects/HouseObjects/thermometer2.png",234,48,234,0.1,"stim/63.jpeg",6,3,3,NA,"HouseObjects",2,4,"right","left",0.516000032,0,0,0,1,NA,NA,NA,NA,NA,NA,NA,NA,NA,NA,NA,NA,NA,NA,NA,NA,NA,NA,NA,NA,NA,NA,NA,NA
"79","stim/objects/HouseObjects/sponge.png",235,48,235,0.5,"stim/24.jpeg",2,4,1,NA,"HouseObjects",2,2,"right","right",0.452000141,1,1,0,1,NA,NA,NA,NA,NA,NA,NA,NA,NA,NA,NA,NA,NA,NA,NA,NA,NA,NA,NA,NA,NA,NA,NA,NA
"191","stim/objects/Instruments/timbal.png",236,48,236,0.5,"stim/24.jpeg",2,4,1,NA,"Instruments",1,3,"left","right",0.434000015,0,0,0,1,NA,NA,NA,NA,NA,NA,NA,NA,NA,NA,NA,NA,NA,NA,NA,NA,NA,NA,NA,NA,NA,NA,NA,NA
"111","stim/objects/HouseObjects/thermometer.png",237,48,237,0.7,"stim/33.jpeg",3,3,2,NA,"HouseObjects",2,2,"right","right",0.569999933,1,1,0,1,NA,NA,NA,NA,NA,NA,NA,NA,NA,NA,NA,NA,NA,NA,NA,NA,NA,NA,NA,NA,NA,NA,NA,NA
"119","stim/objects/HouseObjects/thread.png",238,48,238,0.7,"stim/34.jpeg",3,4,2,NA,"HouseObjects",2,4,"right","right",0.487999916,1,1,0,1,NA,NA,NA,NA,NA,NA,NA,NA,NA,NA,NA,NA,NA,NA,NA,NA,NA,NA,NA,NA,NA,NA,NA,NA
"65","stim/objects/HouseObjects/scale.png",239,48,239,0.5,"stim/23.jpeg",2,3,1,NA,"HouseObjects",2,4,"right","left",0.705999851,0,0,0,1,NA,NA,NA,NA,NA,NA,NA,NA,NA,NA,NA,NA,NA,NA,NA,NA,NA,NA,NA,NA,NA,NA,NA,NA
"231","stim/objects/Instruments/tuba.png",240,48,240,0.3,"stim/34.jpeg",3,4,2,NA,"Instruments",1,3,"left","right",0.54399991,0,0,0,1,NA,NA,NA,NA,NA,NA,NA,NA,NA,NA,NA,NA,NA,NA,NA,NA,NA,NA,NA,NA,NA,NA,NA,NA
"546","stim/objects/Instruments/harp4.png",248,48,241,0.1,"stim/54.jpeg",5,4,3,1,"Instruments",1,2,"left","right",0.572999954,0,0,1,0,93,48,1,0.1,1,"stim/54.jpeg",5,4,"stim/54.jpeg",2,"right",0.927999973,1,4,2.272000074,3,1.648999929,93,0,1,NA,0,NA,0
"452","stim/objects/Instruments/electricguitar3.png",249,48,242,0.7,"stim/43.jpeg",4,3,2,2,"Instruments",1,4,"left","left",0.631999969,1,1,1,0,NA,NA,NA,NA,NA,NA,NA,NA,NA,NA,NA,NA,NA,NA,NA,NA,NA,NA,NA,NA,NA,NA,NA,NA
"291","stim/objects/HouseObjects/doormat3.png",250,48,243,0.9,"stim/52.jpeg",5,2,3,2,"HouseObjects",2,3,"right","right",0.585999966,1,1,1,0,NA,NA,NA,NA,NA,NA,NA,NA,NA,NA,NA,NA,NA,NA,NA,NA,NA,NA,NA,NA,NA,NA,NA,NA
"412","stim/objects/Instruments/balalaika3.png",251,48,244,0.5,"stim/13.jpeg",1,3,1,2,"Instruments",1,1,"left","right",0.625999928,0,0,1,0,NA,NA,NA,NA,NA,NA,NA,NA,NA,NA,NA,NA,NA,NA,NA,NA,NA,NA,NA,NA,NA,NA,NA,NA
"507","stim/objects/Instruments/gong3.png",252,48,245,0.9,"stim/63.jpeg",6,3,3,2,"Instruments",1,4,"left","left",0.547999859,1,1,1,0,NA,NA,NA,NA,NA,NA,NA,NA,NA,NA,NA,NA,NA,NA,NA,NA,NA,NA,NA,NA,NA,NA,NA,NA
"287","stim/objects/HouseObjects/dishsoap3.png",253,48,246,0.7,"stim/34.jpeg",3,4,2,2,"HouseObjects",2,4,"right","right",0.534999847,1,1,1,0,NA,NA,NA,NA,NA,NA,NA,NA,NA,NA,NA,NA,NA,NA,NA,NA,NA,NA,NA,NA,NA,NA,NA,NA
"473","stim/objects/Instruments/flutetrans3.png",254,48,247,0.9,"stim/61.jpeg",6,1,3,2,"Instruments",1,2,"left","left",0.506999731,1,1,1,0,NA,NA,NA,NA,NA,NA,NA,NA,NA,NA,NA,NA,NA,NA,NA,NA,NA,NA,NA,NA,NA,NA,NA,NA
"270","stim/objects/HouseObjects/clock4.png",255,48,248,0.3,"stim/42.jpeg",4,2,2,1,"HouseObjects",2,2,"right","left",0.562000036,0,0,1,0,183,48,1,0.3,2,"stim/42.jpeg",4,2,"stim/42.jpeg",2,"right",0.85800004,3,4,2.318000078,2,2.464999914,183,0,0,NA,1,NA,0
"386","stim/objects/HouseObjects/ironingboard3.png",256,48,249,0.5,"stim/24.jpeg",2,4,1,1,"HouseObjects",2,1,"right","right",0.458999872,1,1,1,0,34,48,1,0.5,2,"stim/24.jpeg",2,4,"stim/24.jpeg",1,"left",0.77699995,4,1,2.870000124,3,3.375,34,1,0,0,0,0,0
"261","stim/objects/HouseObjects/bottle4.png",257,48,250,0.3,"stim/43.jpeg",4,3,2,1,"HouseObjects",2,3,"right","left",0.562999964,0,0,1,0,164,48,1,0.3,2,"stim/43.jpeg",4,3,"stim/43.jpeg",3,"right",0.717000008,3,3,1.009000063,3,2.486000061,164,0,1,NA,1,NA,0
"508","stim/objects/Instruments/gong3.png",258,48,251,0.9,"stim/61.jpeg",6,1,3,2,"Instruments",1,1,"left","left",0.495000124,1,1,1,0,NA,NA,NA,NA,NA,NA,NA,NA,NA,NA,NA,NA,NA,NA,NA,NA,NA,NA,NA,NA,NA,NA,NA,NA
"421","stim/objects/Instruments/bassguitar3.png",259,48,252,0.5,"stim/24.jpeg",2,4,1,2,"Instruments",1,2,"left","right",0.528999805,0,0,1,0,NA,NA,NA,NA,NA,NA,NA,NA,NA,NA,NA,NA,NA,NA,NA,NA,NA,NA,NA,NA,NA,NA,NA,NA
"423","stim/objects/Instruments/bassguitar4.png",260,48,253,0.7,"stim/44.jpeg",4,4,2,1,"Instruments",1,1,"left","left",0.561000109,1,1,1,0,96,48,1,0.7,1,"stim/44.jpeg",4,4,"stim/44.jpeg",1,"right",0.861000061,2,1,1.700000048,3,2.447000027,96,0,0,NA,0,NA,0
"509","stim/objects/Instruments/gong3.png",261,48,254,0.9,"stim/62.jpeg",6,2,3,2,"Instruments",1,2,"left","left",0.502999783,1,1,1,0,NA,NA,NA,NA,NA,NA,NA,NA,NA,NA,NA,NA,NA,NA,NA,NA,NA,NA,NA,NA,NA,NA,NA,NA
"293","stim/objects/HouseObjects/doormat3.png",262,48,255,0.9,"stim/52.jpeg",5,2,3,2,"HouseObjects",2,2,"right","right",0.470000029,1,1,1,0,NA,NA,NA,NA,NA,NA,NA,NA,NA,NA,NA,NA,NA,NA,NA,NA,NA,NA,NA,NA,NA,NA,NA,NA
"241","stim/objects/HouseObjects/ashtray3.png",263,48,256,0.5,"stim/14.jpeg",1,4,1,2,"HouseObjects",2,1,"right","right",0.65199995,1,1,1,0,NA,NA,NA,NA,NA,NA,NA,NA,NA,NA,NA,NA,NA,NA,NA,NA,NA,NA,NA,NA,NA,NA,NA,NA
"258","stim/objects/HouseObjects/blender4.png",264,48,257,0.3,"stim/42.jpeg",4,2,2,1,"HouseObjects",2,2,"right","left",0.506999731,0,0,1,0,94,48,1,0.3,2,"stim/42.jpeg",4,2,"stim/42.jpeg",2,"left",1.753999949,2,3,3.220000029,1,2.781000137,94,1,0,0,0,0,0
"344","stim/objects/HouseObjects/garbagebin3.png",265,48,258,0.9,"stim/51.jpeg",5,1,3,2,"HouseObjects",2,4,"right","right",0.458999872,1,1,1,0,NA,NA,NA,NA,NA,NA,NA,NA,NA,NA,NA,NA,NA,NA,NA,NA,NA,NA,NA,NA,NA,NA,NA,NA
"457","stim/objects/Instruments/flute3.png",266,48,259,0.9,"stim/62.jpeg",6,2,3,2,"Instruments",1,3,"left","left",0.51699996,1,1,1,0,NA,NA,NA,NA,NA,NA,NA,NA,NA,NA,NA,NA,NA,NA,NA,NA,NA,NA,NA,NA,NA,NA,NA,NA
"403","stim/objects/HouseObjects/vacuumcleaner4.png",267,48,260,0.1,"stim/63.jpeg",6,3,3,1,"HouseObjects",2,4,"right","left",0.46600008,0,0,1,0,110,48,1,0.1,2,"stim/63.jpeg",6,3,"stim/63.jpeg",4,"right",1.348999977,2,4,2.872999907,4,3.429000139,110,0,0,NA,1,NA,0
"359","stim/objects/HouseObjects/glass3.png",268,48,261,0.9,"stim/51.jpeg",5,1,3,2,"HouseObjects",2,3,"right","right",0.479999781,1,1,1,0,NA,NA,NA,NA,NA,NA,NA,NA,NA,NA,NA,NA,NA,NA,NA,NA,NA,NA,NA,NA,NA,NA,NA,NA
"375","stim/objects/HouseObjects/glass4.png",269,48,262,0.9,"stim/53.jpeg",5,3,3,1,"HouseObjects",2,4,"right","right",0.486999989,1,1,1,0,70,48,1,0.9,2,"stim/53.jpeg",5,3,"stim/53.jpeg",4,"right",4.729000092,2,1,4.262000084,4,2.368000031,70,0,0,NA,1,NA,0
"279","stim/objects/HouseObjects/coffee3.png",270,48,263,0.7,"stim/31.jpeg",3,1,2,2,"HouseObjects",2,4,"right","right",0.504999876,1,1,1,0,NA,NA,NA,NA,NA,NA,NA,NA,NA,NA,NA,NA,NA,NA,NA,NA,NA,NA,NA,NA,NA,NA,NA,NA
"275","stim/objects/HouseObjects/clothespin3.png",271,48,264,0.7,"stim/32.jpeg",3,2,2,2,"HouseObjects",2,1,"right","right",0.612999916,1,1,1,0,NA,NA,NA,NA,NA,NA,NA,NA,NA,NA,NA,NA,NA,NA,NA,NA,NA,NA,NA,NA,NA,NA,NA,NA
"307","stim/objects/HouseObjects/doormat4.png",272,48,265,0.9,"stim/53.jpeg",5,3,3,1,"HouseObjects",2,1,"right","right",0.49000001,1,1,1,0,180,48,1,0.9,2,"stim/53.jpeg",5,3,"stim/53.jpeg",1,"left",0.845999956,4,1,6.549000025,2,4.698999882,180,1,0,0,0,0,0
"414","stim/objects/Instruments/balalaika4.png",273,48,266,0.3,"stim/34.jpeg",3,4,2,1,"Instruments",1,2,"left","right",0.462999821,0,0,1,0,54,48,1,0.3,1,"stim/34.jpeg",3,4,"stim/34.jpeg",2,"left",0.973999977,3,1,2.90199995,2,2.778000116,54,1,0,0,1,1,0
"250","stim/objects/HouseObjects/basket3.png",274,48,267,0.5,"stim/14.jpeg",1,4,1,2,"HouseObjects",2,1,"right","right",0.547999859,1,1,1,0,NA,NA,NA,NA,NA,NA,NA,NA,NA,NA,NA,NA,NA,NA,NA,NA,NA,NA,NA,NA,NA,NA,NA,NA
"491","stim/objects/Instruments/frenchhorn3.png",275,48,268,0.9,"stim/64.jpeg",6,4,3,2,"Instruments",1,3,"left","left",0.51699996,1,1,1,0,NA,NA,NA,NA,NA,NA,NA,NA,NA,NA,NA,NA,NA,NA,NA,NA,NA,NA,NA,NA,NA,NA,NA,NA
"525","stim/objects/Instruments/grandpiano3.png",276,48,269,0.9,"stim/64.jpeg",6,4,3,2,"Instruments",1,1,"left","left",0.447999954,1,1,1,0,NA,NA,NA,NA,NA,NA,NA,NA,NA,NA,NA,NA,NA,NA,NA,NA,NA,NA,NA,NA,NA,NA,NA,NA
"492","stim/objects/Instruments/frenchhorn3.png",277,48,270,0.9,"stim/61.jpeg",6,1,3,2,"Instruments",1,3,"left","left",0.487999916,1,1,1,0,NA,NA,NA,NA,NA,NA,NA,NA,NA,NA,NA,NA,NA,NA,NA,NA,NA,NA,NA,NA,NA,NA,NA,NA
"246","stim/objects/HouseObjects/ballofstring4.png",278,48,271,0.7,"stim/34.jpeg",3,4,2,1,"HouseObjects",2,4,"right","right",0.513999939,1,1,1,0,199,48,1,0.7,2,"stim/34.jpeg",3,4,"stim/34.jpeg",4,"left",1.200999975,3,2,1.976999998,2,2.69900012,199,1,0,0,0,0,0
"324","stim/objects/HouseObjects/dustpan4.png",279,48,272,0.9,"stim/54.jpeg",5,4,3,1,"HouseObjects",2,2,"right","right",0.56799984,1,1,1,0,14,48,1,0.9,2,"stim/54.jpeg",5,4,"stim/54.jpeg",2,"right",2.831999779,2,1,5.887000084,3,3.174999952,14,0,0,NA,0,NA,0
"346","stim/objects/HouseObjects/garbagebin3.png",280,48,273,0.9,"stim/54.jpeg",5,4,3,2,"HouseObjects",2,3,"right","right",0.499000072,1,1,1,0,NA,NA,NA,NA,NA,NA,NA,NA,NA,NA,NA,NA,NA,NA,NA,NA,NA,NA,NA,NA,NA,NA,NA,NA
"253","stim/objects/HouseObjects/bleachbottle3.png",281,48,274,0.5,"stim/11.jpeg",1,1,1,2,"HouseObjects",2,1,"right","left",0.569999933,0,0,1,0,NA,NA,NA,NA,NA,NA,NA,NA,NA,NA,NA,NA,NA,NA,NA,NA,NA,NA,NA,NA,NA,NA,NA,NA
"283","stim/objects/HouseObjects/cushion3.png",282,48,275,0.7,"stim/32.jpeg",3,2,2,2,"HouseObjects",2,1,"right","right",0.506000042,1,1,1,0,NA,NA,NA,NA,NA,NA,NA,NA,NA,NA,NA,NA,NA,NA,NA,NA,NA,NA,NA,NA,NA,NA,NA,NA
"555","stim/objects/Instruments/marimba3.png",283,48,276,0.5,"stim/23.jpeg",2,3,1,1,"Instruments",1,2,"left","left",0.596999884,1,1,1,0,25,48,1,0.5,2,"stim/23.jpeg",2,3,"stim/23.jpeg",2,"left",1.190000057,3,4,4.132999897,1,4.761999846,25,1,0,0,0,0,0
"259","stim/objects/HouseObjects/bottle3.png",284,48,277,0.5,"stim/24.jpeg",2,4,1,2,"HouseObjects",2,1,"right","left",0.536999941,0,0,1,0,NA,NA,NA,NA,NA,NA,NA,NA,NA,NA,NA,NA,NA,NA,NA,NA,NA,NA,NA,NA,NA,NA,NA,NA
"493","stim/objects/Instruments/frenchhorn3.png",285,48,278,0.9,"stim/63.jpeg",6,3,3,2,"Instruments",1,4,"left","left",0.520999908,1,1,1,0,NA,NA,NA,NA,NA,NA,NA,NA,NA,NA,NA,NA,NA,NA,NA,NA,NA,NA,NA,NA,NA,NA,NA,NA
"347","stim/objects/HouseObjects/garbagebin3.png",286,48,279,0.9,"stim/51.jpeg",5,1,3,2,"HouseObjects",2,4,"right","right",0.530999899,1,1,1,0,NA,NA,NA,NA,NA,NA,NA,NA,NA,NA,NA,NA,NA,NA,NA,NA,NA,NA,NA,NA,NA,NA,NA,NA
"458","stim/objects/Instruments/flute3.png",287,48,280,0.9,"stim/61.jpeg",6,1,3,2,"Instruments",1,2,"left","left",0.475999832,1,1,1,0,NA,NA,NA,NA,NA,NA,NA,NA,NA,NA,NA,NA,NA,NA,NA,NA,NA,NA,NA,NA,NA,NA,NA,NA
"282","stim/objects/HouseObjects/coffee4.png",288,48,281,0.3,"stim/41.jpeg",4,1,2,1,"HouseObjects",2,3,"right","left",0.551999807,0,0,1,0,52,48,1,0.3,2,"stim/41.jpeg",4,1,"stim/41.jpeg",3,"right",3.640000105,2,1,1.281000137,4,2.678999901,52,0,1,NA,0,NA,0
"444","stim/objects/Instruments/drums3.png",289,48,282,0.7,"stim/44.jpeg",4,4,2,2,"Instruments",1,4,"left","left",0.566999912,1,1,1,0,NA,NA,NA,NA,NA,NA,NA,NA,NA,NA,NA,NA,NA,NA,NA,NA,NA,NA,NA,NA,NA,NA,NA,NA
"527","stim/objects/Instruments/grandpiano3.png",290,48,283,0.9,"stim/61.jpeg",6,1,3,2,"Instruments",1,1,"left","left",0.532999754,1,1,1,0,NA,NA,NA,NA,NA,NA,NA,NA,NA,NA,NA,NA,NA,NA,NA,NA,NA,NA,NA,NA,NA,NA,NA,NA
"528","stim/objects/Instruments/grandpiano3.png",291,48,284,0.9,"stim/62.jpeg",6,2,3,2,"Instruments",1,2,"left","left",0.486000061,1,1,1,0,NA,NA,NA,NA,NA,NA,NA,NA,NA,NA,NA,NA,NA,NA,NA,NA,NA,NA,NA,NA,NA,NA,NA,NA
"295","stim/objects/HouseObjects/doormat3.png",292,48,285,0.9,"stim/53.jpeg",5,3,3,2,"HouseObjects",2,2,"right","right",0.438999891,1,1,1,0,NA,NA,NA,NA,NA,NA,NA,NA,NA,NA,NA,NA,NA,NA,NA,NA,NA,NA,NA,NA,NA,NA,NA,NA
"459","stim/objects/Instruments/flute3.png",293,48,286,0.9,"stim/63.jpeg",6,3,3,2,"Instruments",1,3,"left","left",0.450000048,1,1,1,0,NA,NA,NA,NA,NA,NA,NA,NA,NA,NA,NA,NA,NA,NA,NA,NA,NA,NA,NA,NA,NA,NA,NA,NA
"399","stim/objects/HouseObjects/pitcher4.png",294,48,287,0.1,"stim/61.jpeg",6,1,3,1,"HouseObjects",2,4,"right","left",0.49399972,0,0,1,0,130,48,1,0.1,2,"stim/61.jpeg",6,1,"stim/61.jpeg",4,"right",0.81799984,2,1,2.325999975,2,2.527999878,130,0,1,NA,0,NA,0
"566","stim/objects/Instruments/violin4.png",295,48,288,0.9,"stim/64.jpeg",6,4,3,1,"Instruments",1,3,"left","left",0.433000088,1,1,1,0,68,48,1,0.9,1,"stim/64.jpeg",6,4,"stim/64.jpeg",3,"left",2.233999968,3,2,1.894000053,4,4.497999907,68,1,0,0,0,0,0
"557","stim/objects/Instruments/metronome3.png",296,48,289,0.5,"stim/24.jpeg",2,4,1,1,"Instruments",1,2,"left","left",0.634000063,1,1,1,0,5,48,1,0.5,2,"stim/24.jpeg",2,4,"stim/24.jpeg",2,"left",2.743999958,3,2,10.73900008,4,4.910999775,5,1,0,0,0,0,0
"348","stim/objects/HouseObjects/garbagebin3.png",297,48,290,0.9,"stim/52.jpeg",5,2,3,2,"HouseObjects",2,4,"right","right",0.644000053,1,1,1,0,NA,NA,NA,NA,NA,NA,NA,NA,NA,NA,NA,NA,NA,NA,NA,NA,NA,NA,NA,NA,NA,NA,NA,NA
"440","stim/objects/Instruments/doublebass3.png",298,48,291,0.7,"stim/42.jpeg",4,2,2,2,"Instruments",1,2,"left","left",0.509000063,1,1,1,0,NA,NA,NA,NA,NA,NA,NA,NA,NA,NA,NA,NA,NA,NA,NA,NA,NA,NA,NA,NA,NA,NA,NA,NA
"460","stim/objects/Instruments/flute3.png",299,48,292,0.9,"stim/61.jpeg",6,1,3,2,"Instruments",1,1,"left","left",0.506999969,1,1,1,0,NA,NA,NA,NA,NA,NA,NA,NA,NA,NA,NA,NA,NA,NA,NA,NA,NA,NA,NA,NA,NA,NA,NA,NA
"529","stim/objects/Instruments/grandpiano3.png",300,48,293,0.9,"stim/63.jpeg",6,3,3,2,"Instruments",1,3,"left","left",0.477999926,1,1,1,0,NA,NA,NA,NA,NA,NA,NA,NA,NA,NA,NA,NA,NA,NA,NA,NA,NA,NA,NA,NA,NA,NA,NA,NA
"266","stim/objects/HouseObjects/bucket3.png",301,48,294,0.5,"stim/22.jpeg",2,2,1,2,"HouseObjects",2,3,"right","left",0.424999952,0,0,1,0,NA,NA,NA,NA,NA,NA,NA,NA,NA,NA,NA,NA,NA,NA,NA,NA,NA,NA,NA,NA,NA,NA,NA,NA
"494","stim/objects/Instruments/frenchhorn3.png",302,48,295,0.9,"stim/61.jpeg",6,1,3,2,"Instruments",1,1,"left","left",0.477999926,1,1,1,0,NA,NA,NA,NA,NA,NA,NA,NA,NA,NA,NA,NA,NA,NA,NA,NA,NA,NA,NA,NA,NA,NA,NA,NA
"475","stim/objects/Instruments/flutetrans3.png",303,48,296,0.9,"stim/63.jpeg",6,3,3,2,"Instruments",1,3,"left","left",0.412999868,1,1,1,0,NA,NA,NA,NA,NA,NA,NA,NA,NA,NA,NA,NA,NA,NA,NA,NA,NA,NA,NA,NA,NA,NA,NA,NA
"443","stim/objects/Instruments/doublebass4.png",304,48,297,0.7,"stim/42.jpeg",4,2,2,1,"Instruments",1,4,"left","left",0.53399992,1,1,1,0,13,48,1,0.7,1,"stim/42.jpeg",4,2,"stim/42.jpeg",4,"left",1.884000063,3,1,7.496999979,4,7.407999992,13,1,0,0,1,1,0
"495","stim/objects/Instruments/frenchhorn3.png",305,48,298,0.9,"stim/63.jpeg",6,3,3,2,"Instruments",1,2,"left","left",0.429000139,1,1,1,0,NA,NA,NA,NA,NA,NA,NA,NA,NA,NA,NA,NA,NA,NA,NA,NA,NA,NA,NA,NA,NA,NA,NA,NA
"510","stim/objects/Instruments/gong3.png",306,48,299,0.9,"stim/62.jpeg",6,2,3,2,"Instruments",1,1,"left","left",0.423000097,1,1,1,0,NA,NA,NA,NA,NA,NA,NA,NA,NA,NA,NA,NA,NA,NA,NA,NA,NA,NA,NA,NA,NA,NA,NA,NA
"413","stim/objects/Instruments/balalaika3.png",307,48,300,0.5,"stim/14.jpeg",1,4,1,2,"Instruments",1,1,"left","right",0.581999779,0,0,1,0,NA,NA,NA,NA,NA,NA,NA,NA,NA,NA,NA,NA,NA,NA,NA,NA,NA,NA,NA,NA,NA,NA,NA,NA
"262","stim/objects/HouseObjects/broom3.png",308,48,301,0.5,"stim/24.jpeg",2,4,1,2,"HouseObjects",2,4,"right","right",0.667999983,1,1,1,0,NA,NA,NA,NA,NA,NA,NA,NA,NA,NA,NA,NA,NA,NA,NA,NA,NA,NA,NA,NA,NA,NA,NA,NA
"309","stim/objects/HouseObjects/dustpan3.png",309,48,302,0.9,"stim/52.jpeg",5,2,3,2,"HouseObjects",2,3,"right","right",0.549999952,1,1,1,0,NA,NA,NA,NA,NA,NA,NA,NA,NA,NA,NA,NA,NA,NA,NA,NA,NA,NA,NA,NA,NA,NA,NA,NA
"530","stim/objects/Instruments/grandpiano3.png",310,48,303,0.9,"stim/61.jpeg",6,1,3,2,"Instruments",1,1,"left","left",0.513999939,1,1,1,0,NA,NA,NA,NA,NA,NA,NA,NA,NA,NA,NA,NA,NA,NA,NA,NA,NA,NA,NA,NA,NA,NA,NA,NA
"570","stim/objects/Instruments/xylophone4.png",311,48,304,0.9,"stim/62.jpeg",6,2,3,1,"Instruments",1,4,"left","left",0.472000122,1,1,1,0,123,48,1,0.9,1,"stim/62.jpeg",6,2,"stim/62.jpeg",4,"right",1.566999912,3,2,3.227999926,1,2.844000101,123,0,1,NA,0,NA,0
"556","stim/objects/Instruments/marimba4.png",312,48,305,0.9,"stim/63.jpeg",6,3,3,1,"Instruments",1,3,"left","left",0.505000114,1,1,1,0,125,48,1,0.9,1,"stim/63.jpeg",6,3,"stim/63.jpeg",3,"right",1.529999971,2,4,3.069000006,2,4.653000116,125,0,0,NA,0,NA,0
"247","stim/objects/HouseObjects/barbecuelighter3.png",313,48,306,0.5,"stim/13.jpeg",1,3,1,2,"HouseObjects",2,3,"right","left",0.697999954,0,0,1,0,NA,NA,NA,NA,NA,NA,NA,NA,NA,NA,NA,NA,NA,NA,NA,NA,NA,NA,NA,NA,NA,NA,NA,NA
"327","stim/objects/HouseObjects/flyswatter3.png",314,48,307,0.9,"stim/54.jpeg",5,4,3,2,"HouseObjects",2,3,"right","right",0.579999924,1,1,1,0,NA,NA,NA,NA,NA,NA,NA,NA,NA,NA,NA,NA,NA,NA,NA,NA,NA,NA,NA,NA,NA,NA,NA,NA
"417","stim/objects/Instruments/banjo4.png",315,48,308,0.3,"stim/31.jpeg",3,1,2,1,"Instruments",1,3,"left","left",0.797999859,1,1,1,0,3,48,1,0.3,1,"stim/31.jpeg",3,1,"stim/31.jpeg",3,"left",2.375,2,1,3.983999968,1,2.677999973,3,1,1,1,0,0,0
"477","stim/objects/Instruments/flutetrans3.png",316,48,309,0.9,"stim/62.jpeg",6,2,3,2,"Instruments",1,3,"left","left",0.450999975,1,1,1,0,NA,NA,NA,NA,NA,NA,NA,NA,NA,NA,NA,NA,NA,NA,NA,NA,NA,NA,NA,NA,NA,NA,NA,NA
"532","stim/objects/Instruments/grandpiano3.png",317,48,310,0.9,"stim/64.jpeg",6,4,3,2,"Instruments",1,4,"left","right",0.432999849,0,0,1,0,NA,NA,NA,NA,NA,NA,NA,NA,NA,NA,NA,NA,NA,NA,NA,NA,NA,NA,NA,NA,NA,NA,NA,NA
"297","stim/objects/HouseObjects/doormat3.png",318,48,311,0.9,"stim/51.jpeg",5,1,3,2,"HouseObjects",2,1,"right","right",0.494999886,1,1,1,0,NA,NA,NA,NA,NA,NA,NA,NA,NA,NA,NA,NA,NA,NA,NA,NA,NA,NA,NA,NA,NA,NA,NA,NA
"385","stim/objects/HouseObjects/iron4.png",319,48,312,0.9,"stim/54.jpeg",5,4,3,1,"HouseObjects",2,2,"right","right",0.424999952,1,1,1,0,186,48,1,0.9,2,"stim/54.jpeg",5,4,"stim/54.jpeg",2,"right",0.874000072,2,2,1.899000168,4,3.345000029,186,0,0,NA,0,NA,0
"439","stim/objects/Instruments/cymbal4.png",320,48,313,0.7,"stim/41.jpeg",4,1,2,1,"Instruments",1,2,"left","left",0.57799983,1,1,1,0,38,48,1,0.7,1,"stim/41.jpeg",4,1,"stim/41.jpeg",2,"left",3.253000021,2,2,5.326000214,2,4.219000101,38,1,0,0,1,1,0
"436","stim/objects/Instruments/cymbal3.png",321,48,314,0.7,"stim/41.jpeg",4,1,2,2,"Instruments",1,3,"left","left",0.434999943,1,1,1,0,NA,NA,NA,NA,NA,NA,NA,NA,NA,NA,NA,NA,NA,NA,NA,NA,NA,NA,NA,NA,NA,NA,NA,NA
"360","stim/objects/HouseObjects/glass3.png",322,48,315,0.9,"stim/51.jpeg",5,1,3,2,"HouseObjects",2,4,"right","right",0.646999836,1,1,1,0,NA,NA,NA,NA,NA,NA,NA,NA,NA,NA,NA,NA,NA,NA,NA,NA,NA,NA,NA,NA,NA,NA,NA,NA
"461","stim/objects/Instruments/flute3.png",323,48,316,0.9,"stim/62.jpeg",6,2,3,2,"Instruments",1,1,"left","left",0.514999866,1,1,1,0,NA,NA,NA,NA,NA,NA,NA,NA,NA,NA,NA,NA,NA,NA,NA,NA,NA,NA,NA,NA,NA,NA,NA,NA
"349","stim/objects/HouseObjects/garbagebin3.png",324,48,317,0.9,"stim/51.jpeg",5,1,3,2,"HouseObjects",2,1,"right","right",0.473999739,1,1,1,0,NA,NA,NA,NA,NA,NA,NA,NA,NA,NA,NA,NA,NA,NA,NA,NA,NA,NA,NA,NA,NA,NA,NA,NA
"448","stim/objects/Instruments/electricdrumset3.png",325,48,318,0.7,"stim/41.jpeg",4,1,2,2,"Instruments",1,1,"left","left",0.565999985,1,1,1,0,NA,NA,NA,NA,NA,NA,NA,NA,NA,NA,NA,NA,NA,NA,NA,NA,NA,NA,NA,NA,NA,NA,NA,NA
"328","stim/objects/HouseObjects/flyswatter3.png",326,48,319,0.9,"stim/53.jpeg",5,3,3,2,"HouseObjects",2,3,"right","right",0.513999939,1,1,1,0,NA,NA,NA,NA,NA,NA,NA,NA,NA,NA,NA,NA,NA,NA,NA,NA,NA,NA,NA,NA,NA,NA,NA,NA
"404","stim/objects/HouseObjects/wateringcan3.png",327,48,320,0.7,"stim/32.jpeg",3,2,2,1,"HouseObjects",2,3,"right","right",0.535999775,1,1,1,0,120,48,1,0.7,2,"stim/32.jpeg",3,2,"stim/32.jpeg",3,"right",1.079999924,2,3,3.631000042,3,2.611000061,120,0,0,NA,1,NA,0
"568","stim/objects/Instruments/vuvuzela4.png",328,48,321,0.9,"stim/61.jpeg",6,1,3,1,"Instruments",1,4,"left","left",0.405999899,1,1,1,0,193,48,1,0.9,1,"stim/61.jpeg",6,1,"stim/61.jpeg",4,"right",1.223999977,2,1,1.438000202,1,2.805000067,193,0,1,NA,0,NA,0
"462","stim/objects/Instruments/flute3.png",329,48,322,0.9,"stim/61.jpeg",6,1,3,2,"Instruments",1,1,"left","left",0.460000038,1,1,1,0,NA,NA,NA,NA,NA,NA,NA,NA,NA,NA,NA,NA,NA,NA,NA,NA,NA,NA,NA,NA,NA,NA,NA,NA
"437","stim/objects/Instruments/cymbal3.png",330,48,323,0.7,"stim/42.jpeg",4,2,2,2,"Instruments",1,4,"left","left",0.629999876,1,1,1,0,NA,NA,NA,NA,NA,NA,NA,NA,NA,NA,NA,NA,NA,NA,NA,NA,NA,NA,NA,NA,NA,NA,NA,NA
"472","stim/objects/Instruments/flute4.png",331,48,324,0.1,"stim/51.jpeg",5,1,3,1,"Instruments",1,3,"left","right",0.494999886,0,0,1,0,181,48,1,0.1,1,"stim/51.jpeg",5,1,"stim/51.jpeg",3,"right",0.855999947,3,4,2.146000147,3,1.386999846,181,0,0,NA,1,NA,0
"441","stim/objects/Instruments/doublebass3.png",332,48,325,0.7,"stim/44.jpeg",4,4,2,2,"Instruments",1,2,"left","right",0.70299983,0,0,1,0,NA,NA,NA,NA,NA,NA,NA,NA,NA,NA,NA,NA,NA,NA,NA,NA,NA,NA,NA,NA,NA,NA,NA,NA
"512","stim/objects/Instruments/gong3.png",333,48,326,0.9,"stim/62.jpeg",6,2,3,2,"Instruments",1,4,"left","left",0.566999912,1,1,1,0,NA,NA,NA,NA,NA,NA,NA,NA,NA,NA,NA,NA,NA,NA,NA,NA,NA,NA,NA,NA,NA,NA,NA,NA
"400","stim/objects/HouseObjects/towel3.png",334,48,327,0.7,"stim/34.jpeg",3,4,2,1,"HouseObjects",2,2,"right","right",0.629999876,1,1,1,0,171,48,1,0.7,2,"stim/34.jpeg",3,4,"stim/34.jpeg",2,"left",1.828999996,2,1,1.945999861,3,9.195999861,171,1,0,0,0,0,0
"533","stim/objects/Instruments/grandpiano3.png",335,48,328,0.9,"stim/61.jpeg",6,1,3,2,"Instruments",1,4,"left","left",0.528999805,1,1,1,0,NA,NA,NA,NA,NA,NA,NA,NA,NA,NA,NA,NA,NA,NA,NA,NA,NA,NA,NA,NA,NA,NA,NA,NA
"474","stim/objects/Instruments/flutetrans3.png",336,48,329,0.9,"stim/61.jpeg",6,1,3,2,"Instruments",1,3,"left","left",0.430999756,1,1,1,0,NA,NA,NA,NA,NA,NA,NA,NA,NA,NA,NA,NA,NA,NA,NA,NA,NA,NA,NA,NA,NA,NA,NA,NA
"514","stim/objects/Instruments/gong3.png",337,48,330,0.9,"stim/61.jpeg",6,1,3,2,"Instruments",1,4,"left","left",0.396999836,1,1,1,0,NA,NA,NA,NA,NA,NA,NA,NA,NA,NA,NA,NA,NA,NA,NA,NA,NA,NA,NA,NA,NA,NA,NA,NA
"377","stim/objects/HouseObjects/glassmop4.png",338,48,331,0.9,"stim/54.jpeg",5,4,3,1,"HouseObjects",2,3,"right","right",0.501999855,1,1,1,0,111,48,1,0.9,2,"stim/54.jpeg",5,4,"stim/54.jpeg",3,"right",1.430999994,2,1,1.1650002,1,1.281999826,111,0,0,NA,0,NA,0
"562","stim/objects/Instruments/musicstand4.png",339,48,332,0.9,"stim/62.jpeg",6,2,3,1,"Instruments",1,2,"left","left",0.482999802,1,1,1,0,39,48,1,0.9,1,"stim/62.jpeg",6,2,"stim/62.jpeg",2,"right",2.885999918,2,1,6.102999926,3,7.495000124,39,0,0,NA,0,NA,0
"248","stim/objects/HouseObjects/barbecuelighter3.png",340,48,333,0.5,"stim/12.jpeg",1,2,1,2,"HouseObjects",2,1,"right","right",0.546000004,1,1,1,0,NA,NA,NA,NA,NA,NA,NA,NA,NA,NA,NA,NA,NA,NA,NA,NA,NA,NA,NA,NA,NA,NA,NA,NA
"276","stim/objects/HouseObjects/clothespin3.png",341,48,334,0.7,"stim/34.jpeg",3,4,2,2,"HouseObjects",2,4,"right","right",0.565000057,1,1,1,0,NA,NA,NA,NA,NA,NA,NA,NA,NA,NA,NA,NA,NA,NA,NA,NA,NA,NA,NA,NA,NA,NA,NA,NA
"418","stim/objects/Instruments/bassdrum3.png",342,48,335,0.5,"stim/11.jpeg",1,1,1,2,"Instruments",1,3,"left","right",0.60800004,0,0,1,0,NA,NA,NA,NA,NA,NA,NA,NA,NA,NA,NA,NA,NA,NA,NA,NA,NA,NA,NA,NA,NA,NA,NA,NA
"298","stim/objects/HouseObjects/doormat3.png",343,48,336,0.9,"stim/54.jpeg",5,4,3,2,"HouseObjects",2,2,"right","right",0.545000076,1,1,1,0,NA,NA,NA,NA,NA,NA,NA,NA,NA,NA,NA,NA,NA,NA,NA,NA,NA,NA,NA,NA,NA,NA,NA,NA
"263","stim/objects/HouseObjects/broom3.png",344,48,337,0.5,"stim/21.jpeg",2,1,1,2,"HouseObjects",2,3,"right","right",0.600999832,1,1,1,0,NA,NA,NA,NA,NA,NA,NA,NA,NA,NA,NA,NA,NA,NA,NA,NA,NA,NA,NA,NA,NA,NA,NA,NA
"463","stim/objects/Instruments/flute3.png",345,48,338,0.9,"stim/61.jpeg",6,1,3,2,"Instruments",1,1,"left","left",0.513000011,1,1,1,0,NA,NA,NA,NA,NA,NA,NA,NA,NA,NA,NA,NA,NA,NA,NA,NA,NA,NA,NA,NA,NA,NA,NA,NA
"449","stim/objects/Instruments/electricdrumset3.png",346,48,339,0.7,"stim/44.jpeg",4,4,2,2,"Instruments",1,1,"left","left",0.566999912,1,1,1,0,NA,NA,NA,NA,NA,NA,NA,NA,NA,NA,NA,NA,NA,NA,NA,NA,NA,NA,NA,NA,NA,NA,NA,NA
"415","stim/objects/Instruments/banjo3.png",347,48,340,0.5,"stim/14.jpeg",1,4,1,2,"Instruments",1,4,"left","right",0.628999949,0,0,1,0,NA,NA,NA,NA,NA,NA,NA,NA,NA,NA,NA,NA,NA,NA,NA,NA,NA,NA,NA,NA,NA,NA,NA,NA
"397","stim/objects/HouseObjects/pan4.png",348,48,341,0.1,"stim/64.jpeg",6,4,3,1,"HouseObjects",2,2,"right","left",0.479999781,0,0,1,0,95,48,1,0.1,2,"stim/64.jpeg",6,4,"stim/64.jpeg",2,"left",1.779999971,3,1,4.434999943,4,8.11500001,95,1,0,0,0,0,0
"445","stim/objects/Instruments/drums3.png",349,48,342,0.7,"stim/43.jpeg",4,3,2,2,"Instruments",1,3,"left","left",0.561999798,1,1,1,0,NA,NA,NA,NA,NA,NA,NA,NA,NA,NA,NA,NA,NA,NA,NA,NA,NA,NA,NA,NA,NA,NA,NA,NA
"515","stim/objects/Instruments/gong3.png",350,48,343,0.9,"stim/63.jpeg",6,3,3,2,"Instruments",1,3,"left","left",0.476000071,1,1,1,0,NA,NA,NA,NA,NA,NA,NA,NA,NA,NA,NA,NA,NA,NA,NA,NA,NA,NA,NA,NA,NA,NA,NA,NA
"438","stim/objects/Instruments/cymbal3.png",351,48,344,0.7,"stim/43.jpeg",4,3,2,2,"Instruments",1,3,"left","left",0.524999857,1,1,1,0,NA,NA,NA,NA,NA,NA,NA,NA,NA,NA,NA,NA,NA,NA,NA,NA,NA,NA,NA,NA,NA,NA,NA,NA
"411","stim/objects/Instruments/acousticguitar4.png",352,48,345,0.3,"stim/33.jpeg",3,3,2,1,"Instruments",1,3,"left","right",0.654000044,0,0,1,0,97,48,1,0.3,1,"stim/33.jpeg",3,3,"stim/33.jpeg",3,"right",1.121000051,2,4,2.187000036,1,1.881999969,97,0,0,NA,0,NA,0
"351","stim/objects/HouseObjects/garbagebin3.png",353,48,346,0.9,"stim/52.jpeg",5,2,3,2,"HouseObjects",2,3,"right","right",0.52699995,1,1,1,0,NA,NA,NA,NA,NA,NA,NA,NA,NA,NA,NA,NA,NA,NA,NA,NA,NA,NA,NA,NA,NA,NA,NA,NA
"455","stim/objects/Instruments/electricguitar4.png",354,48,347,0.7,"stim/41.jpeg",4,1,2,1,"Instruments",1,3,"left","left",0.478999853,1,1,1,0,127,48,1,0.7,1,"stim/41.jpeg",4,1,"stim/41.jpeg",3,"left",1.075999975,3,4,3.63499999,3,2.516000032,127,1,0,0,1,1,0
"249","stim/objects/HouseObjects/barbecuelighter4.png",355,48,348,0.7,"stim/31.jpeg",3,1,2,1,"HouseObjects",2,1,"right","right",0.509000063,1,1,1,0,1,48,1,0.7,2,"stim/31.jpeg",3,1,"stim/31.jpeg",1,"left",1.273000002,4,3,2.761000156,2,3.891000032,1,1,0,0,0,0,0
"361","stim/objects/HouseObjects/glass3.png",356,48,349,0.9,"stim/54.jpeg",5,4,3,2,"HouseObjects",2,2,"right","right",0.471999884,1,1,1,0,NA,NA,NA,NA,NA,NA,NA,NA,NA,NA,NA,NA,NA,NA,NA,NA,NA,NA,NA,NA,NA,NA,NA,NA
"272","stim/objects/HouseObjects/clothesdryingrack3.png",357,48,350,0.7,"stim/33.jpeg",3,3,2,2,"HouseObjects",2,4,"right","left",0.510999918,0,0,1,0,NA,NA,NA,NA,NA,NA,NA,NA,NA,NA,NA,NA,NA,NA,NA,NA,NA,NA,NA,NA,NA,NA,NA,NA
"479","stim/objects/Instruments/flutetrans3.png",358,48,351,0.9,"stim/62.jpeg",6,2,3,2,"Instruments",1,2,"left","left",0.601999998,1,1,1,0,NA,NA,NA,NA,NA,NA,NA,NA,NA,NA,NA,NA,NA,NA,NA,NA,NA,NA,NA,NA,NA,NA,NA,NA
"310","stim/objects/HouseObjects/dustpan3.png",359,48,352,0.9,"stim/51.jpeg",5,1,3,2,"HouseObjects",2,2,"right","right",0.523999929,1,1,1,0,NA,NA,NA,NA,NA,NA,NA,NA,NA,NA,NA,NA,NA,NA,NA,NA,NA,NA,NA,NA,NA,NA,NA,NA
"301","stim/objects/HouseObjects/doormat3.png",360,48,353,0.9,"stim/54.jpeg",5,4,3,2,"HouseObjects",2,2,"right","right",0.473999739,1,1,1,0,NA,NA,NA,NA,NA,NA,NA,NA,NA,NA,NA,NA,NA,NA,NA,NA,NA,NA,NA,NA,NA,NA,NA,NA
"516","stim/objects/Instruments/gong3.png",361,48,354,0.9,"stim/64.jpeg",6,4,3,2,"Instruments",1,1,"left","left",0.468999863,1,1,1,0,NA,NA,NA,NA,NA,NA,NA,NA,NA,NA,NA,NA,NA,NA,NA,NA,NA,NA,NA,NA,NA,NA,NA,NA
"394","stim/objects/HouseObjects/match3.png",362,48,355,0.5,"stim/24.jpeg",2,4,1,1,"HouseObjects",2,3,"right","right",0.56799984,1,1,1,0,145,48,1,0.5,2,"stim/24.jpeg",2,4,"stim/24.jpeg",3,"left",1.613000154,4,2,2.230999947,2,3.696000099,145,1,0,0,0,0,0
"312","stim/objects/HouseObjects/dustpan3.png",363,48,356,0.9,"stim/54.jpeg",5,4,3,2,"HouseObjects",2,1,"right","right",0.565999985,1,1,1,0,NA,NA,NA,NA,NA,NA,NA,NA,NA,NA,NA,NA,NA,NA,NA,NA,NA,NA,NA,NA,NA,NA,NA,NA
"480","stim/objects/Instruments/flutetrans3.png",364,48,357,0.9,"stim/61.jpeg",6,1,3,2,"Instruments",1,3,"left","left",0.481999874,1,1,1,0,NA,NA,NA,NA,NA,NA,NA,NA,NA,NA,NA,NA,NA,NA,NA,NA,NA,NA,NA,NA,NA,NA,NA,NA
"409","stim/objects/Instruments/acousticguitar3.png",365,48,358,0.5,"stim/12.jpeg",1,2,1,2,"Instruments",1,2,"left","right",0.527999878,0,0,1,0,NA,NA,NA,NA,NA,NA,NA,NA,NA,NA,NA,NA,NA,NA,NA,NA,NA,NA,NA,NA,NA,NA,NA,NA
"268","stim/objects/HouseObjects/clock3.png",366,48,359,0.5,"stim/22.jpeg",2,2,1,2,"HouseObjects",2,2,"right","right",0.493000031,1,1,1,0,NA,NA,NA,NA,NA,NA,NA,NA,NA,NA,NA,NA,NA,NA,NA,NA,NA,NA,NA,NA,NA,NA,NA,NA
"544","stim/objects/Instruments/harmonica4.png",367,48,360,0.1,"stim/53.jpeg",5,3,3,1,"Instruments",1,3,"left","right",0.593999863,0,0,1,0,115,48,1,0.1,1,"stim/53.jpeg",5,3,"stim/53.jpeg",3,"left",2.13499999,2,3,2.35800004,3,5.111999989,115,1,1,1,1,1,0
"435","stim/objects/Instruments/cornet4.png",368,48,361,0.7,"stim/44.jpeg",4,4,2,1,"Instruments",1,4,"left","left",0.578999996,1,1,1,0,85,48,1,0.7,1,"stim/44.jpeg",4,4,"stim/44.jpeg",4,"right",1.390000105,2,2,2.540999889,4,2.603999853,85,0,0,NA,1,NA,0
"547","stim/objects/Instruments/hihat3.png",369,48,362,0.5,"stim/12.jpeg",1,2,1,1,"Instruments",1,3,"left","left",0.45299983,1,1,1,0,8,48,1,0.5,1,"stim/12.jpeg",1,2,"stim/12.jpeg",3,"left",1.089999914,3,3,6.621000051,2,4.289999962,8,1,0,0,0,0,0
"416","stim/objects/Instruments/banjo3.png",370,48,363,0.5,"stim/11.jpeg",1,1,1,2,"Instruments",1,2,"left","left",0.645999908,1,1,1,0,NA,NA,NA,NA,NA,NA,NA,NA,NA,NA,NA,NA,NA,NA,NA,NA,NA,NA,NA,NA,NA,NA,NA,NA
"387","stim/objects/HouseObjects/ironingboard4.png",371,48,364,0.1,"stim/63.jpeg",6,3,3,1,"HouseObjects",2,4,"right","left",0.596999884,0,0,1,0,72,48,1,0.1,2,"stim/63.jpeg",6,3,"stim/63.jpeg",4,"left",1.745000124,3,3,4.116000175,3,2.18200016,72,1,1,1,0,0,0
"517","stim/objects/Instruments/gong3.png",372,48,365,0.9,"stim/61.jpeg",6,1,3,2,"Instruments",1,4,"left","left",0.51699996,1,1,1,0,NA,NA,NA,NA,NA,NA,NA,NA,NA,NA,NA,NA,NA,NA,NA,NA,NA,NA,NA,NA,NA,NA,NA,NA
"352","stim/objects/HouseObjects/garbagebin3.png",373,48,366,0.9,"stim/54.jpeg",5,4,3,2,"HouseObjects",2,3,"right","right",0.546999931,1,1,1,0,NA,NA,NA,NA,NA,NA,NA,NA,NA,NA,NA,NA,NA,NA,NA,NA,NA,NA,NA,NA,NA,NA,NA,NA
"398","stim/objects/HouseObjects/pitcher3.png",374,48,367,0.7,"stim/33.jpeg",3,3,2,1,"HouseObjects",2,2,"right","right",0.561999798,1,1,1,0,106,48,1,0.7,2,"stim/33.jpeg",3,3,"stim/33.jpeg",2,"left",2.388000011,4,1,2.445999861,2,3.967999935,106,1,0,0,1,1,0
"498","stim/objects/Instruments/frenchhorn3.png",375,48,368,0.9,"stim/64.jpeg",6,4,3,2,"Instruments",1,1,"left","left",0.519000053,1,1,1,0,NA,NA,NA,NA,NA,NA,NA,NA,NA,NA,NA,NA,NA,NA,NA,NA,NA,NA,NA,NA,NA,NA,NA,NA
"558","stim/objects/Instruments/metronome4.png",376,48,369,0.9,"stim/64.jpeg",6,4,3,1,"Instruments",1,2,"left","left",0.447000027,1,1,1,0,16,48,1,0.9,1,"stim/64.jpeg",6,4,"stim/64.jpeg",2,"left",1.217999935,2,1,5.646999836,3,6.940000057,16,1,0,0,0,0,0
"342","stim/objects/HouseObjects/garbagebin3.png",377,48,370,0.9,"stim/52.jpeg",5,2,3,2,"HouseObjects",2,1,"right","right",0.498000145,1,1,1,0,NA,NA,NA,NA,NA,NA,NA,NA,NA,NA,NA,NA,NA,NA,NA,NA,NA,NA,NA,NA,NA,NA,NA,NA
"292","stim/objects/HouseObjects/doormat3.png",378,48,371,0.9,"stim/52.jpeg",5,2,3,2,"HouseObjects",2,4,"right","right",0.494999886,1,1,1,0,NA,NA,NA,NA,NA,NA,NA,NA,NA,NA,NA,NA,NA,NA,NA,NA,NA,NA,NA,NA,NA,NA,NA,NA
"315","stim/objects/HouseObjects/dustpan3.png",379,48,372,0.9,"stim/51.jpeg",5,1,3,2,"HouseObjects",2,2,"right","right",0.480999947,1,1,1,0,NA,NA,NA,NA,NA,NA,NA,NA,NA,NA,NA,NA,NA,NA,NA,NA,NA,NA,NA,NA,NA,NA,NA,NA
"518","stim/objects/Instruments/gong3.png",380,48,373,0.9,"stim/62.jpeg",6,2,3,2,"Instruments",1,2,"left","left",0.53399992,1,1,1,0,NA,NA,NA,NA,NA,NA,NA,NA,NA,NA,NA,NA,NA,NA,NA,NA,NA,NA,NA,NA,NA,NA,NA,NA
"343","stim/objects/HouseObjects/garbagebin3.png",381,48,374,0.9,"stim/53.jpeg",5,3,3,2,"HouseObjects",2,4,"right","right",0.430000067,1,1,1,0,NA,NA,NA,NA,NA,NA,NA,NA,NA,NA,NA,NA,NA,NA,NA,NA,NA,NA,NA,NA,NA,NA,NA,NA
"481","stim/objects/Instruments/flutetrans3.png",382,48,375,0.9,"stim/61.jpeg",6,1,3,2,"Instruments",1,1,"left","left",0.492999792,1,1,1,0,NA,NA,NA,NA,NA,NA,NA,NA,NA,NA,NA,NA,NA,NA,NA,NA,NA,NA,NA,NA,NA,NA,NA,NA
"380","stim/objects/HouseObjects/handbrush3.png",383,48,376,0.5,"stim/14.jpeg",1,4,1,1,"HouseObjects",2,2,"right","right",0.612999916,1,1,1,0,50,48,1,0.5,1,"stim/14.jpeg",1,4,"stim/14.jpeg",2,"left",0.944999933,2,3,1.632999897,1,1.85800004,50,1,0,0,0,0,0
"427","stim/objects/Instruments/chime3.png",384,48,377,0.5,"stim/21.jpeg",2,1,1,2,"Instruments",1,2,"left","right",0.478999853,0,0,1,0,NA,NA,NA,NA,NA,NA,NA,NA,NA,NA,NA,NA,NA,NA,NA,NA,NA,NA,NA,NA,NA,NA,NA,NA
"456","stim/objects/Instruments/flute3.png",385,48,378,0.9,"stim/64.jpeg",6,4,3,2,"Instruments",1,1,"left","left",0.559999943,1,1,1,0,NA,NA,NA,NA,NA,NA,NA,NA,NA,NA,NA,NA,NA,NA,NA,NA,NA,NA,NA,NA,NA,NA,NA,NA
"242","stim/objects/HouseObjects/ashtray3.png",386,48,379,0.5,"stim/11.jpeg",1,1,1,2,"HouseObjects",2,4,"right","right",0.446999788,1,1,1,0,NA,NA,NA,NA,NA,NA,NA,NA,NA,NA,NA,NA,NA,NA,NA,NA,NA,NA,NA,NA,NA,NA,NA,NA
"316","stim/objects/HouseObjects/dustpan3.png",387,48,380,0.9,"stim/51.jpeg",5,1,3,2,"HouseObjects",2,2,"right","right",0.513000011,1,1,1,0,NA,NA,NA,NA,NA,NA,NA,NA,NA,NA,NA,NA,NA,NA,NA,NA,NA,NA,NA,NA,NA,NA,NA,NA
"294","stim/objects/HouseObjects/doormat3.png",388,48,381,0.9,"stim/53.jpeg",5,3,3,2,"HouseObjects",2,4,"right","right",0.464999914,1,1,1,0,NA,NA,NA,NA,NA,NA,NA,NA,NA,NA,NA,NA,NA,NA,NA,NA,NA,NA,NA,NA,NA,NA,NA,NA
"365","stim/objects/HouseObjects/glass3.png",389,48,382,0.9,"stim/54.jpeg",5,4,3,2,"HouseObjects",2,1,"right","right",0.599999905,1,1,1,0,NA,NA,NA,NA,NA,NA,NA,NA,NA,NA,NA,NA,NA,NA,NA,NA,NA,NA,NA,NA,NA,NA,NA,NA
"345","stim/objects/HouseObjects/garbagebin3.png",390,48,383,0.9,"stim/53.jpeg",5,3,3,2,"HouseObjects",2,4,"right","right",0.447999954,1,1,1,0,NA,NA,NA,NA,NA,NA,NA,NA,NA,NA,NA,NA,NA,NA,NA,NA,NA,NA,NA,NA,NA,NA,NA,NA
"341","stim/objects/HouseObjects/flyswatter4.png",391,48,384,0.9,"stim/51.jpeg",5,1,3,1,"HouseObjects",2,1,"right","right",0.460999727,1,1,1,0,197,48,1,0.9,2,"stim/51.jpeg",5,1,"stim/51.jpeg",1,"left",1.160999775,3,3,2.618000031,4,4.337000132,197,1,0,0,0,0,0
"378","stim/objects/HouseObjects/hairdryer3.png",392,48,385,0.5,"stim/13.jpeg",1,3,1,1,"HouseObjects",2,1,"right","right",0.505999804,1,1,1,0,76,48,1,0.5,1,"stim/13.jpeg",1,3,"stim/13.jpeg",1,"right",0.941999912,3,4,1.542999983,1,4.470999956,76,0,0,NA,1,NA,0
"524","stim/objects/Instruments/grandpiano3.png",393,48,386,0.9,"stim/63.jpeg",6,3,3,2,"Instruments",1,3,"left","left",0.518999815,1,1,1,0,NA,NA,NA,NA,NA,NA,NA,NA,NA,NA,NA,NA,NA,NA,NA,NA,NA,NA,NA,NA,NA,NA,NA,NA
"563","stim/objects/Instruments/oboe3.png",394,48,387,0.3,"stim/32.jpeg",3,2,2,1,"Instruments",1,4,"left","right",0.450999975,0,0,1,0,154,48,1,0.3,1,"stim/32.jpeg",3,2,"stim/32.jpeg",4,"right",0.96600008,3,4,1.859999895,3,2.042000055,154,0,0,NA,0,NA,0
"317","stim/objects/HouseObjects/dustpan3.png",395,48,388,0.9,"stim/52.jpeg",5,2,3,2,"HouseObjects",2,4,"right","right",0.464999914,1,1,1,0,NA,NA,NA,NA,NA,NA,NA,NA,NA,NA,NA,NA,NA,NA,NA,NA,NA,NA,NA,NA,NA,NA,NA,NA
"367","stim/objects/HouseObjects/glass3.png",396,48,389,0.9,"stim/53.jpeg",5,3,3,2,"HouseObjects",2,2,"right","right",0.513999939,1,1,1,0,NA,NA,NA,NA,NA,NA,NA,NA,NA,NA,NA,NA,NA,NA,NA,NA,NA,NA,NA,NA,NA,NA,NA,NA
"541","stim/objects/Instruments/guitarcase3.png",397,48,390,0.5,"stim/13.jpeg",1,3,1,1,"Instruments",1,1,"left","right",0.612999916,0,0,1,0,90,48,1,0.5,1,"stim/13.jpeg",1,3,"stim/13.jpeg",1,"right",1.155999899,3,1,1.458999872,2,4.315999985,90,0,0,NA,0,NA,0
"482","stim/objects/Instruments/flutetrans3.png",398,48,391,0.9,"stim/64.jpeg",6,4,3,2,"Instruments",1,3,"left","left",0.573999882,1,1,1,0,NA,NA,NA,NA,NA,NA,NA,NA,NA,NA,NA,NA,NA,NA,NA,NA,NA,NA,NA,NA,NA,NA,NA,NA
"453","stim/objects/Instruments/electricguitar3.png",399,48,392,0.7,"stim/42.jpeg",4,2,2,2,"Instruments",1,1,"left","left",0.531999826,1,1,1,0,NA,NA,NA,NA,NA,NA,NA,NA,NA,NA,NA,NA,NA,NA,NA,NA,NA,NA,NA,NA,NA,NA,NA,NA
"389","stim/objects/HouseObjects/key4.png",400,48,393,0.1,"stim/64.jpeg",6,4,3,1,"HouseObjects",2,4,"right","left",0.516999722,0,0,1,0,140,48,1,0.1,2,"stim/64.jpeg",6,4,"stim/64.jpeg",4,"right",0.782999992,3,4,2.075999975,1,1.586999893,140,0,1,NA,0,NA,0
"535","stim/objects/Instruments/grandpiano3.png",401,48,394,0.9,"stim/64.jpeg",6,4,3,2,"Instruments",1,3,"left","left",0.476999998,1,1,1,0,NA,NA,NA,NA,NA,NA,NA,NA,NA,NA,NA,NA,NA,NA,NA,NA,NA,NA,NA,NA,NA,NA,NA,NA
"362","stim/objects/HouseObjects/glass3.png",402,48,395,0.9,"stim/53.jpeg",5,3,3,2,"HouseObjects",2,3,"right","right",0.535000086,1,1,1,0,NA,NA,NA,NA,NA,NA,NA,NA,NA,NA,NA,NA,NA,NA,NA,NA,NA,NA,NA,NA,NA,NA,NA,NA
"285","stim/objects/HouseObjects/cushion3.png",403,48,396,0.7,"stim/34.jpeg",3,4,2,2,"HouseObjects",2,1,"right","right",0.613999844,1,1,1,0,NA,NA,NA,NA,NA,NA,NA,NA,NA,NA,NA,NA,NA,NA,NA,NA,NA,NA,NA,NA,NA,NA,NA,NA
"526","stim/objects/Instruments/grandpiano3.png",404,48,397,0.9,"stim/63.jpeg",6,3,3,2,"Instruments",1,3,"left","left",0.529999971,1,1,1,0,NA,NA,NA,NA,NA,NA,NA,NA,NA,NA,NA,NA,NA,NA,NA,NA,NA,NA,NA,NA,NA,NA,NA,NA
"376","stim/objects/HouseObjects/glassmop3.png",405,48,398,0.5,"stim/12.jpeg",1,2,1,1,"HouseObjects",2,4,"right","right",0.41899991,1,1,1,0,41,48,1,0.5,1,"stim/12.jpeg",1,2,"stim/12.jpeg",4,"right",1.041000128,2,2,1.394000053,1,2.506999969,41,0,1,NA,0,NA,0
"540","stim/objects/Instruments/grandpiano4.png",406,48,399,0.1,"stim/51.jpeg",5,1,3,1,"Instruments",1,4,"left","right",0.492999792,0,0,1,0,65,48,1,0.1,1,"stim/51.jpeg",5,1,"stim/51.jpeg",4,"left",1.676000118,3,4,2.660999775,2,6.254999876,65,1,0,0,0,0,0
"332","stim/objects/HouseObjects/flyswatter3.png",407,48,400,0.9,"stim/52.jpeg",5,2,3,2,"HouseObjects",2,1,"right","right",0.486999989,1,1,1,0,NA,NA,NA,NA,NA,NA,NA,NA,NA,NA,NA,NA,NA,NA,NA,NA,NA,NA,NA,NA,NA,NA,NA,NA
"497","stim/objects/Instruments/frenchhorn3.png",408,48,401,0.9,"stim/63.jpeg",6,3,3,2,"Instruments",1,1,"left","left",0.498999834,1,1,1,0,NA,NA,NA,NA,NA,NA,NA,NA,NA,NA,NA,NA,NA,NA,NA,NA,NA,NA,NA,NA,NA,NA,NA,NA
"308","stim/objects/HouseObjects/dustpan3.png",409,48,402,0.9,"stim/52.jpeg",5,2,3,2,"HouseObjects",2,4,"right","right",0.429000139,1,1,1,0,NA,NA,NA,NA,NA,NA,NA,NA,NA,NA,NA,NA,NA,NA,NA,NA,NA,NA,NA,NA,NA,NA,NA,NA
"484","stim/objects/Instruments/flutetrans3.png",410,48,403,0.9,"stim/62.jpeg",6,2,3,2,"Instruments",1,2,"left","left",0.591999769,1,1,1,0,NA,NA,NA,NA,NA,NA,NA,NA,NA,NA,NA,NA,NA,NA,NA,NA,NA,NA,NA,NA,NA,NA,NA,NA
"569","stim/objects/Instruments/xylophone3.png",411,48,404,0.3,"stim/31.jpeg",3,1,2,1,"Instruments",1,3,"left","right",0.534999847,0,0,1,0,92,48,1,0.3,1,"stim/31.jpeg",3,1,"stim/31.jpeg",3,"right",4.02699995,2,3,2.166000128,2,2.27699995,92,0,0,NA,0,NA,0
"381","stim/objects/HouseObjects/handbrush4.png",412,48,405,0.9,"stim/52.jpeg",5,2,3,1,"HouseObjects",2,1,"right","right",0.48300004,1,1,1,0,129,48,1,0.9,2,"stim/52.jpeg",5,2,"stim/52.jpeg",1,"right",0.861000061,2,3,2.571999788,3,2.861000061,129,0,0,NA,0,NA,0
"430","stim/objects/Instruments/clarinet3.png",413,48,406,0.5,"stim/23.jpeg",2,3,1,2,"Instruments",1,1,"left","right",0.703999996,0,0,1,0,NA,NA,NA,NA,NA,NA,NA,NA,NA,NA,NA,NA,NA,NA,NA,NA,NA,NA,NA,NA,NA,NA,NA,NA
"551","stim/objects/Instruments/laud3.png",414,48,407,0.5,"stim/21.jpeg",2,1,1,1,"Instruments",1,1,"left","right",0.49000001,0,0,1,0,36,48,1,0.5,2,"stim/21.jpeg",2,1,"stim/21.jpeg",1,"left",1.760999918,2,1,6.421000004,1,4.673000097,36,1,1,1,1,1,0
"284","stim/objects/HouseObjects/cushion3.png",415,48,408,0.7,"stim/33.jpeg",3,3,2,2,"HouseObjects",2,1,"right","right",0.606999874,1,1,1,0,NA,NA,NA,NA,NA,NA,NA,NA,NA,NA,NA,NA,NA,NA,NA,NA,NA,NA,NA,NA,NA,NA,NA,NA
"326","stim/objects/HouseObjects/flyswatter3.png",416,48,409,0.9,"stim/52.jpeg",5,2,3,2,"HouseObjects",2,1,"right","right",0.514999866,1,1,1,0,NA,NA,NA,NA,NA,NA,NA,NA,NA,NA,NA,NA,NA,NA,NA,NA,NA,NA,NA,NA,NA,NA,NA,NA
"384","stim/objects/HouseObjects/iron3.png",417,48,410,0.5,"stim/12.jpeg",1,2,1,1,"HouseObjects",2,2,"right","right",0.676999807,1,1,1,0,102,48,1,0.5,1,"stim/12.jpeg",1,2,"stim/12.jpeg",2,"left",1.200999975,3,3,4.56099987,3,3.750999928,102,1,0,0,0,0,0
"370","stim/objects/HouseObjects/glass3.png",418,48,411,0.9,"stim/52.jpeg",5,2,3,2,"HouseObjects",2,2,"right","right",0.467999935,1,1,1,0,NA,NA,NA,NA,NA,NA,NA,NA,NA,NA,NA,NA,NA,NA,NA,NA,NA,NA,NA,NA,NA,NA,NA,NA
"405","stim/objects/HouseObjects/wateringcan4.png",419,48,412,0.1,"stim/64.jpeg",6,4,3,1,"HouseObjects",2,2,"right","left",0.507999897,0,0,1,0,15,48,1,0.1,2,"stim/64.jpeg",6,4,"stim/64.jpeg",2,"left",3.295000076,2,3,2.17200017,3,2.243999958,15,1,0,0,0,0,0
"388","stim/objects/HouseObjects/key3.png",420,48,413,0.5,"stim/21.jpeg",2,1,1,1,"HouseObjects",2,4,"right","right",0.430999994,1,1,1,0,141,48,1,0.5,2,"stim/21.jpeg",2,1,"stim/21.jpeg",4,"right",0.976000071,2,2,1.960000038,2,2.492000103,141,0,0,NA,0,NA,0
"334","stim/objects/HouseObjects/flyswatter3.png",421,48,414,0.9,"stim/51.jpeg",5,1,3,2,"HouseObjects",2,3,"right","right",0.51699996,1,1,1,0,NA,NA,NA,NA,NA,NA,NA,NA,NA,NA,NA,NA,NA,NA,NA,NA,NA,NA,NA,NA,NA,NA,NA,NA
"371","stim/objects/HouseObjects/glass3.png",422,48,415,0.9,"stim/51.jpeg",5,1,3,2,"HouseObjects",2,1,"right","right",0.433999777,1,1,1,0,NA,NA,NA,NA,NA,NA,NA,NA,NA,NA,NA,NA,NA,NA,NA,NA,NA,NA,NA,NA,NA,NA,NA,NA
"561","stim/objects/Instruments/musicstand3.png",423,48,416,0.3,"stim/31.jpeg",3,1,2,1,"Instruments",1,2,"left","left",0.510999918,1,1,1,0,124,48,1,0.3,1,"stim/31.jpeg",3,1,"stim/31.jpeg",2,"right",0.983999968,2,3,1.201999903,2,5.286999941,124,0,0,NA,1,NA,0
"335","stim/objects/HouseObjects/flyswatter3.png",424,48,417,0.9,"stim/52.jpeg",5,2,3,2,"HouseObjects",2,1,"right","right",0.430000067,1,1,1,0,NA,NA,NA,NA,NA,NA,NA,NA,NA,NA,NA,NA,NA,NA,NA,NA,NA,NA,NA,NA,NA,NA,NA,NA
"296","stim/objects/HouseObjects/doormat3.png",425,48,418,0.9,"stim/51.jpeg",5,1,3,2,"HouseObjects",2,3,"right","right",0.467000008,1,1,1,0,NA,NA,NA,NA,NA,NA,NA,NA,NA,NA,NA,NA,NA,NA,NA,NA,NA,NA,NA,NA,NA,NA,NA,NA
"353","stim/objects/HouseObjects/garbagebin3.png",426,48,419,0.9,"stim/54.jpeg",5,4,3,2,"HouseObjects",2,3,"right","right",0.447000027,1,1,1,0,NA,NA,NA,NA,NA,NA,NA,NA,NA,NA,NA,NA,NA,NA,NA,NA,NA,NA,NA,NA,NA,NA,NA,NA
"286","stim/objects/HouseObjects/cushion4.png",427,48,420,0.3,"stim/42.jpeg",4,2,2,1,"HouseObjects",2,2,"right","left",0.878999949,0,0,1,0,157,48,1,0.3,2,"stim/42.jpeg",4,2,"stim/42.jpeg",2,"left",1.249000072,3,2,1.493000031,4,3.363000154,157,1,1,1,0,0,0
"506","stim/objects/Instruments/frenchhorn4.png",428,48,421,0.1,"stim/53.jpeg",5,3,3,1,"Instruments",1,4,"left","right",0.464999914,0,0,1,0,28,48,1,0.1,1,"stim/53.jpeg",5,3,"stim/53.jpeg",4,"left",2.91899991,2,2,3.177999973,1,5.196000099,28,1,0,0,0,0,0
"543","stim/objects/Instruments/harmonica3.png",429,48,422,0.5,"stim/14.jpeg",1,4,1,1,"Instruments",1,3,"left","right",0.562000036,0,0,1,0,23,48,1,0.5,1,"stim/14.jpeg",1,4,"stim/14.jpeg",3,"left",1.461999893,2,4,2.18900013,3,7.040999889,23,1,1,1,1,1,0
"366","stim/objects/HouseObjects/glass3.png",430,48,423,0.9,"stim/51.jpeg",5,1,3,2,"HouseObjects",2,3,"right","right",0.529000044,1,1,1,0,NA,NA,NA,NA,NA,NA,NA,NA,NA,NA,NA,NA,NA,NA,NA,NA,NA,NA,NA,NA,NA,NA,NA,NA
"554","stim/objects/Instruments/maraca4.png",431,48,424,0.9,"stim/62.jpeg",6,2,3,1,"Instruments",1,4,"left","left",0.563999891,1,1,1,0,190,48,1,0.9,1,"stim/62.jpeg",6,2,"stim/62.jpeg",4,"left",1.092999935,4,4,4.137000084,2,3.595999956,190,1,0,0,0,0,0
"476","stim/objects/Instruments/flutetrans3.png",432,48,425,0.9,"stim/64.jpeg",6,4,3,2,"Instruments",1,2,"left","left",0.460000038,1,1,1,0,NA,NA,NA,NA,NA,NA,NA,NA,NA,NA,NA,NA,NA,NA,NA,NA,NA,NA,NA,NA,NA,NA,NA,NA
"496","stim/objects/Instruments/frenchhorn3.png",433,48,426,0.9,"stim/62.jpeg",6,2,3,2,"Instruments",1,4,"left","left",0.746000051,1,1,1,0,NA,NA,NA,NA,NA,NA,NA,NA,NA,NA,NA,NA,NA,NA,NA,NA,NA,NA,NA,NA,NA,NA,NA,NA
"500","stim/objects/Instruments/frenchhorn3.png",434,48,427,0.9,"stim/62.jpeg",6,2,3,2,"Instruments",1,4,"left","left",0.430999994,1,1,1,0,NA,NA,NA,NA,NA,NA,NA,NA,NA,NA,NA,NA,NA,NA,NA,NA,NA,NA,NA,NA,NA,NA,NA,NA
"402","stim/objects/HouseObjects/vacuumcleaner3.png",435,48,428,0.7,"stim/31.jpeg",3,1,2,1,"HouseObjects",2,3,"right","right",0.5849998,1,1,1,0,105,48,1,0.7,2,"stim/31.jpeg",3,1,"stim/31.jpeg",3,"right",1.59100008,1,2,2.102999926,3,3.078999996,105,0,0,NA,1,NA,0
"531","stim/objects/Instruments/grandpiano3.png",436,48,429,0.9,"stim/61.jpeg",6,1,3,2,"Instruments",1,1,"left","left",0.480999947,1,1,1,0,NA,NA,NA,NA,NA,NA,NA,NA,NA,NA,NA,NA,NA,NA,NA,NA,NA,NA,NA,NA,NA,NA,NA,NA
"447","stim/objects/Instruments/drums4.png",437,48,430,0.7,"stim/43.jpeg",4,3,2,1,"Instruments",1,4,"left","left",0.546999931,1,1,1,0,86,48,1,0.7,1,"stim/43.jpeg",4,3,"stim/43.jpeg",4,"right",0.895999908,2,4,1.809999943,3,4.205000162,86,0,0,NA,0,NA,0
"251","stim/objects/HouseObjects/basket3.png",438,48,431,0.5,"stim/13.jpeg",1,3,1,2,"HouseObjects",2,3,"right","right",0.511999846,1,1,1,0,NA,NA,NA,NA,NA,NA,NA,NA,NA,NA,NA,NA,NA,NA,NA,NA,NA,NA,NA,NA,NA,NA,NA,NA
"534","stim/objects/Instruments/grandpiano3.png",439,48,432,0.9,"stim/62.jpeg",6,2,3,2,"Instruments",1,3,"left","left",0.523000002,1,1,1,0,NA,NA,NA,NA,NA,NA,NA,NA,NA,NA,NA,NA,NA,NA,NA,NA,NA,NA,NA,NA,NA,NA,NA,NA
"243","stim/objects/HouseObjects/ashtray4.png",440,48,433,0.7,"stim/33.jpeg",3,3,2,1,"HouseObjects",2,1,"right","right",0.485999823,1,1,1,0,29,48,1,0.7,2,"stim/33.jpeg",3,3,"stim/33.jpeg",1,"left",0.947000027,3,4,3.230000019,2,2.588000059,29,1,0,0,0,0,0
"511","stim/objects/Instruments/gong3.png",441,48,434,0.9,"stim/64.jpeg",6,4,3,2,"Instruments",1,1,"left","left",0.528999805,1,1,1,0,NA,NA,NA,NA,NA,NA,NA,NA,NA,NA,NA,NA,NA,NA,NA,NA,NA,NA,NA,NA,NA,NA,NA,NA
"483","stim/objects/Instruments/flutetrans3.png",442,48,435,0.9,"stim/64.jpeg",6,4,3,2,"Instruments",1,1,"left","left",0.445999861,1,1,1,0,NA,NA,NA,NA,NA,NA,NA,NA,NA,NA,NA,NA,NA,NA,NA,NA,NA,NA,NA,NA,NA,NA,NA,NA
"564","stim/objects/Instruments/oboe4.png",443,48,436,0.9,"stim/63.jpeg",6,3,3,1,"Instruments",1,1,"left","left",0.461999893,1,1,1,0,84,48,1,0.9,1,"stim/63.jpeg",6,3,"stim/63.jpeg",1,"left",1.277000189,3,2,6.417000055,2,2.695000172,84,1,0,0,0,0,0
"466","stim/objects/Instruments/flute3.png",444,48,437,0.9,"stim/64.jpeg",6,4,3,2,"Instruments",1,3,"left","left",0.78399992,1,1,1,0,NA,NA,NA,NA,NA,NA,NA,NA,NA,NA,NA,NA,NA,NA,NA,NA,NA,NA,NA,NA,NA,NA,NA,NA
"450","stim/objects/Instruments/electricdrumset3.png",445,48,438,0.7,"stim/42.jpeg",4,2,2,2,"Instruments",1,3,"left","left",0.581999779,1,1,1,0,NA,NA,NA,NA,NA,NA,NA,NA,NA,NA,NA,NA,NA,NA,NA,NA,NA,NA,NA,NA,NA,NA,NA,NA
"553","stim/objects/Instruments/maraca3.png",446,48,439,0.5,"stim/22.jpeg",2,2,1,1,"Instruments",1,3,"left","right",0.569000006,0,0,1,0,69,48,1,0.5,2,"stim/22.jpeg",2,2,"stim/22.jpeg",3,"left",1.697999954,3,4,2.943000078,2,2.5,69,1,0,0,0,0,0
"426","stim/objects/Instruments/cello4.png",447,48,440,0.7,"stim/41.jpeg",4,1,2,1,"Instruments",1,1,"left","left",0.465999842,1,1,1,0,47,48,1,0.7,1,"stim/41.jpeg",4,1,"stim/41.jpeg",1,"right",1.382999897,3,2,1.394000053,3,3.013000011,47,0,0,NA,0,NA,0
"350","stim/objects/HouseObjects/garbagebin3.png",448,48,441,0.9,"stim/53.jpeg",5,3,3,2,"HouseObjects",2,4,"right","right",0.536999941,1,1,1,0,NA,NA,NA,NA,NA,NA,NA,NA,NA,NA,NA,NA,NA,NA,NA,NA,NA,NA,NA,NA,NA,NA,NA,NA
"325","stim/objects/HouseObjects/flyswatter3.png",449,48,442,0.9,"stim/54.jpeg",5,4,3,2,"HouseObjects",2,4,"right","right",0.447000027,1,1,1,0,NA,NA,NA,NA,NA,NA,NA,NA,NA,NA,NA,NA,NA,NA,NA,NA,NA,NA,NA,NA,NA,NA,NA,NA
"539","stim/objects/Instruments/grandpiano3.png",450,48,443,0.9,"stim/62.jpeg",6,2,3,2,"Instruments",1,2,"left","left",0.524999857,1,1,1,0,NA,NA,NA,NA,NA,NA,NA,NA,NA,NA,NA,NA,NA,NA,NA,NA,NA,NA,NA,NA,NA,NA,NA,NA
"373","stim/objects/HouseObjects/glass3.png",451,48,444,0.9,"stim/52.jpeg",5,2,3,2,"HouseObjects",2,4,"right","right",0.545999765,1,1,1,0,NA,NA,NA,NA,NA,NA,NA,NA,NA,NA,NA,NA,NA,NA,NA,NA,NA,NA,NA,NA,NA,NA,NA,NA
"329","stim/objects/HouseObjects/flyswatter3.png",452,48,445,0.9,"stim/53.jpeg",5,3,3,2,"HouseObjects",2,1,"right","right",0.551999807,1,1,1,0,NA,NA,NA,NA,NA,NA,NA,NA,NA,NA,NA,NA,NA,NA,NA,NA,NA,NA,NA,NA,NA,NA,NA,NA
"260","stim/objects/HouseObjects/bottle3.png",453,48,446,0.5,"stim/23.jpeg",2,3,1,2,"HouseObjects",2,3,"right","",NA,0,0,1,0,NA,NA,NA,NA,NA,NA,NA,NA,NA,NA,NA,NA,NA,NA,NA,NA,NA,NA,NA,NA,NA,NA,NA,NA
"369","stim/objects/HouseObjects/glass3.png",454,48,447,0.9,"stim/52.jpeg",5,2,3,2,"HouseObjects",2,1,"right","right",0.59800005,1,1,1,0,NA,NA,NA,NA,NA,NA,NA,NA,NA,NA,NA,NA,NA,NA,NA,NA,NA,NA,NA,NA,NA,NA,NA,NA
"391","stim/objects/HouseObjects/knife4.png",455,48,448,0.1,"stim/61.jpeg",6,1,3,1,"HouseObjects",2,3,"right","left",0.532999754,0,0,1,0,19,48,1,0.1,2,"stim/61.jpeg",6,1,"stim/61.jpeg",3,"right",2.664999962,2,3,4.29700017,2,3.917000055,19,0,0,NA,0,NA,0
"264","stim/objects/HouseObjects/broom4.png",456,48,449,0.3,"stim/44.jpeg",4,4,2,1,"HouseObjects",2,2,"right","left",0.559000015,0,0,1,0,66,48,1,0.3,2,"stim/44.jpeg",4,4,"stim/44.jpeg",2,"right",3.10800004,2,2,2.262000084,1,4.111999989,66,0,0,NA,0,NA,0
"303","stim/objects/HouseObjects/doormat3.png",457,48,450,0.9,"stim/54.jpeg",5,4,3,2,"HouseObjects",2,3,"right","right",0.467000008,1,1,1,0,NA,NA,NA,NA,NA,NA,NA,NA,NA,NA,NA,NA,NA,NA,NA,NA,NA,NA,NA,NA,NA,NA,NA,NA
"549","stim/objects/Instruments/keyboard3.png",458,48,451,0.5,"stim/13.jpeg",1,3,1,1,"Instruments",1,2,"left","right",0.598999977,0,0,1,0,113,48,1,0.5,1,"stim/13.jpeg",1,3,"stim/13.jpeg",2,"right",2.854000092,2,3,1.117999792,2,1.912999868,113,0,1,NA,1,NA,0
"311","stim/objects/HouseObjects/dustpan3.png",459,48,452,0.9,"stim/54.jpeg",5,4,3,2,"HouseObjects",2,2,"right","right",0.51699996,1,1,1,0,NA,NA,NA,NA,NA,NA,NA,NA,NA,NA,NA,NA,NA,NA,NA,NA,NA,NA,NA,NA,NA,NA,NA,NA
"454","stim/objects/Instruments/electricguitar3.png",460,48,453,0.7,"stim/41.jpeg",4,1,2,2,"Instruments",1,2,"left","left",0.534999847,1,1,1,0,NA,NA,NA,NA,NA,NA,NA,NA,NA,NA,NA,NA,NA,NA,NA,NA,NA,NA,NA,NA,NA,NA,NA,NA
"355","stim/objects/HouseObjects/garbagebin3.png",461,48,454,0.9,"stim/52.jpeg",5,2,3,2,"HouseObjects",2,2,"right","right",0.527999878,1,1,1,0,NA,NA,NA,NA,NA,NA,NA,NA,NA,NA,NA,NA,NA,NA,NA,NA,NA,NA,NA,NA,NA,NA,NA,NA
"565","stim/objects/Instruments/violin3.png",462,48,455,0.3,"stim/33.jpeg",3,3,2,1,"Instruments",1,1,"left","right",0.553999901,0,0,1,0,42,48,1,0.3,1,"stim/33.jpeg",3,3,"stim/33.jpeg",1,"right",1.079999924,1,3,6.528999805,2,1.836999893,42,0,1,NA,0,NA,0
"244","stim/objects/HouseObjects/ballofstring3.png",463,48,456,0.5,"stim/11.jpeg",1,1,1,2,"HouseObjects",2,2,"right","right",0.545000076,1,1,1,0,NA,NA,NA,NA,NA,NA,NA,NA,NA,NA,NA,NA,NA,NA,NA,NA,NA,NA,NA,NA,NA,NA,NA,NA
"523","stim/objects/Instruments/gong4.png",464,48,457,0.1,"stim/54.jpeg",5,4,3,1,"Instruments",1,2,"left","right",0.503999949,0,0,1,0,57,48,1,0.1,1,"stim/54.jpeg",5,4,"stim/54.jpeg",2,"right",1.34100008,3,3,4.450999975,4,3.02699995,57,0,0,NA,0,NA,0
"379","stim/objects/HouseObjects/hairdryer4.png",465,48,458,0.9,"stim/51.jpeg",5,1,3,1,"HouseObjects",2,4,"right","right",0.517999887,1,1,1,0,60,48,1,0.9,2,"stim/51.jpeg",5,1,"stim/51.jpeg",4,"right",3.585000038,2,1,2.566999912,1,1.406000137,60,0,1,NA,0,NA,0
