"","participant","OvsN","PE_level","object_cat","obj_file","scn_file","corr_scn_cat","corr_scn_inst","scn_file.1","corr_loc","key_resp_id.keys","key_resp_id.rt","key_resp_conf.keys","key_resp_assoc.keys","key_resp_assoc.rt","key_resp_loc.keys","key_resp_loc.rt","trialN","id_acc","assoc.acc","cond_assoc","loc.acc","cond_loc","group"
"1",29,2,0,2,"stim/objects/Instruments/cello4.png","",0,0,"",0,"right",3.954999924,NA,NA,NA,NA,NA,1,1,NA,NA,NA,NA,1
"2",29,2,0,2,"stim/objects/Instruments/doublebass3.png","",0,0,"",0,"left",2.284999847,NA,NA,NA,NA,NA,2,0,NA,NA,NA,NA,1
"3",29,2,0,1,"stim/objects/HouseObjects/bucket4.png","",0,0,"",0,"right",1.312000036,NA,NA,NA,NA,NA,3,1,NA,NA,NA,NA,1
"4",29,1,0.3,2,"stim/objects/Instruments/bassguitar2.png","stim/62.jpeg",6,2,"stim/62.jpeg",3,"left",1.566999912,2,4,7.703999758,3,1.980000019,4,1,0,0,1,1,1
"5",29,1,0.9,2,"stim/objects/Instruments/harmonica2.png","stim/11.jpeg",1,1,"stim/11.jpeg",3,"left",1.451999903,4,3,10.90199995,3,1.398999929,5,1,0,0,1,1,1
"6",29,1,0.5,2,"stim/objects/Instruments/musicsheet.png","stim/44.jpeg",4,4,"stim/44.jpeg",2,"left",2.537999868,4,3,4.791999817,2,0.9599998,6,1,0,0,1,1,1
"7",29,1,0.5,1,"stim/objects/Instruments/hihat.png","stim/31.jpeg",3,1,"stim/31.jpeg",4,"left",1.606999874,4,3,9.540999889,4,0.674999952,7,1,0,0,1,1,1
"8",29,1,0.1,1,"stim/objects/HouseObjects/iron2.png","stim/12.jpeg",1,2,"stim/12.jpeg",4,"left",2.019999981,4,1,3.51699996,2,0.75399971,8,1,0,0,0,0,1
"9",29,2,0,2,"stim/objects/Instruments/hihat3.png","",0,0,"",0,"right",1.785000086,NA,NA,NA,NA,NA,9,1,NA,NA,NA,NA,1
"10",29,1,0.1,1,"stim/objects/HouseObjects/flyswatter2.png","stim/13.jpeg",1,3,"stim/13.jpeg",3,"right",2.046999931,1,2,1.552999973,1,0.84100008,10,0,0,NA,0,NA,1
"11",29,2,0,2,"stim/objects/Instruments/harp3.png","",0,0,"",0,"right",2.616999865,NA,NA,NA,NA,NA,11,1,NA,NA,NA,NA,1
"12",29,1,0.7,1,"stim/objects/HouseObjects/clothespin2.png","stim/62.jpeg",6,2,"stim/62.jpeg",4,"left",1.331999779,4,4,4.437999964,4,0.980999947,12,1,0,0,1,1,1
"13",29,2,0,1,"stim/objects/HouseObjects/basket3.png","",0,0,"",0,"right",2.905999899,NA,NA,NA,NA,NA,13,1,NA,NA,NA,NA,1
"14",29,2,0,2,"stim/objects/Instruments/oboe3.png","",0,0,"",0,"left",1.673000097,NA,NA,NA,NA,NA,14,0,NA,NA,NA,NA,1
"15",29,2,0,1,"stim/objects/HouseObjects/ballofstring4.png","",0,0,"",0,"left",1.075999975,NA,NA,NA,NA,NA,15,0,NA,NA,NA,NA,1
"16",29,1,0.7,2,"stim/objects/Instruments/acousticguitar2.png","stim/54.jpeg",5,4,"stim/54.jpeg",1,"left",4.753000021,2,4,7.855999947,4,0.725999832,16,1,1,1,0,0,1
"17",29,2,0,2,"stim/objects/Instruments/electricdrumset4.png","",0,0,"",0,"left",1.171000004,NA,NA,NA,NA,NA,17,0,NA,NA,NA,NA,1
"18",29,2,0,1,"stim/objects/HouseObjects/handbrush3.png","",0,0,"",0,"right",1.019999981,NA,NA,NA,NA,NA,18,1,NA,NA,NA,NA,1
"19",29,1,0.9,1,"stim/objects/HouseObjects/pitcher2.png","stim/23.jpeg",2,3,"stim/23.jpeg",2,"right",1.029999971,2,1,2.626999855,2,0.539000034,19,0,0,NA,1,NA,1
"20",29,1,0.9,1,"stim/objects/HouseObjects/lintroller2.png","stim/24.jpeg",2,4,"stim/24.jpeg",4,"left",1.65899992,2,3,0.950000048,4,0.481999874,20,1,0,0,1,1,1
"21",29,2,0,1,"stim/objects/HouseObjects/dishsoap4.png","",0,0,"",0,"right",1.54399991,NA,NA,NA,NA,NA,21,1,NA,NA,NA,NA,1
"22",29,1,0.5,2,"stim/objects/Instruments/laud.png","stim/44.jpeg",4,4,"stim/44.jpeg",1,"left",1.018999815,4,4,5.434999943,1,0.319999933,22,1,1,1,1,1,1
"23",29,2,0,2,"stim/objects/Instruments/electricguitar3.png","",0,0,"",0,"right",1.173000097,NA,NA,NA,NA,NA,23,1,NA,NA,NA,NA,1
"24",29,2,0,2,"stim/objects/Instruments/record3.png","",0,0,"",0,"left",1.121999741,NA,NA,NA,NA,NA,24,0,NA,NA,NA,NA,1
"25",29,1,0.3,2,"stim/objects/Instruments/drums2.png","stim/61.jpeg",6,1,"stim/61.jpeg",3,"right",1.052000046,3,4,6.005999804,4,0.304999828,25,0,0,NA,0,NA,1
"26",29,1,0.5,2,"stim/objects/HouseObjects/knife.png","stim/43.jpeg",4,3,"stim/43.jpeg",1,"left",4.174000025,4,4,4.265999794,1,0.680999994,26,1,0,0,1,1,1
"27",29,2,0,2,"stim/objects/Instruments/balalaika3.png","",0,0,"",0,"left",2.282999992,NA,NA,NA,NA,NA,27,0,NA,NA,NA,NA,1
"28",29,2,0,2,"stim/objects/Instruments/flute3.png","",0,0,"",0,"left",1.037999868,NA,NA,NA,NA,NA,28,0,NA,NA,NA,NA,1
"29",29,2,0,2,"stim/objects/Instruments/cymbal3.png","",0,0,"",0,"right",0.870999813,NA,NA,NA,NA,NA,29,1,NA,NA,NA,NA,1
"30",29,1,0.9,2,"stim/objects/Instruments/frenchhorn2.png","stim/11.jpeg",1,1,"stim/11.jpeg",1,"left",0.944999933,4,1,13.46600008,1,0.750999928,30,1,1,1,1,1,1
"31",29,1,0.5,2,"stim/objects/Instruments/marimba.png","stim/42.jpeg",4,2,"stim/42.jpeg",4,"left",1.998999834,4,1,11.32399988,4,0.963999987,31,1,0,0,1,1,1
"32",29,1,0.5,1,"stim/objects/HouseObjects/handvacuum.png","stim/32.jpeg",3,2,"stim/32.jpeg",2,"left",1.81099987,4,2,2.578000069,2,0.76699996,32,1,1,1,1,1,1
"33",29,1,0.7,2,"stim/objects/Instruments/musicstand.png","stim/52.jpeg",5,2,"stim/52.jpeg",2,"left",3.505000114,4,2,3.212999821,4,2.598999739,33,1,1,1,0,0,1
"34",29,1,0.5,1,"stim/objects/HouseObjects/iron.png","stim/33.jpeg",3,3,"stim/33.jpeg",2,"right",1.773999929,2,2,1.534999847,2,0.150999784,34,0,0,NA,1,NA,1
"35",29,1,0.1,2,"stim/objects/Instruments/marimba2.png","stim/21.jpeg",2,1,"stim/21.jpeg",2,"right",2.040999889,2,3,1.035999775,2,0.595999718,35,0,0,NA,1,NA,1
"36",29,2,0,1,"stim/objects/HouseObjects/hairdryer3.png","",0,0,"",0,"left",1.203000069,NA,NA,NA,NA,NA,36,0,NA,NA,NA,NA,1
"37",29,2,0,2,"stim/objects/Instruments/cello3.png","",0,0,"",0,"right",1.113000154,NA,NA,NA,NA,NA,37,1,NA,NA,NA,NA,1
"38",29,1,0.3,2,"stim/objects/Instruments/doublebass2.png","stim/64.jpeg",6,4,"stim/64.jpeg",2,"left",0.875,4,4,6.275999784,4,0.468999863,38,1,1,1,0,0,1
"39",29,2,0,2,"stim/objects/Instruments/grandpiano3.png","",0,0,"",0,"left",1.549999952,NA,NA,NA,NA,NA,39,0,NA,NA,NA,NA,1
"40",29,2,0,2,"stim/objects/Instruments/gong3.png","",0,0,"",0,"left",1.462000132,NA,NA,NA,NA,NA,40,0,NA,NA,NA,NA,1
"41",29,2,0,2,"stim/objects/Instruments/clarinet3.png","",0,0,"",0,"left",0.833999872,NA,NA,NA,NA,NA,41,0,NA,NA,NA,NA,1
"42",29,1,0.9,1,"stim/objects/HouseObjects/key2.png","stim/22.jpeg",2,2,"stim/22.jpeg",3,"left",1.00999999,4,3,2.257999897,2,0.365999937,42,1,0,0,0,0,1
"43",29,1,0.3,2,"stim/objects/Instruments/cello2.png","stim/63.jpeg",6,3,"stim/63.jpeg",4,"left",2.390000105,4,3,1.56099987,4,0.398000002,43,1,1,1,1,1,1
"44",29,2,0,1,"stim/objects/HouseObjects/doormat3.png","",0,0,"",0,"right",1.194999933,NA,NA,NA,NA,NA,44,1,NA,NA,NA,NA,1
"45",29,2,0,2,"stim/objects/Instruments/accordion4.png","",0,0,"",0,"right",1.187000036,NA,NA,NA,NA,NA,45,1,NA,NA,NA,NA,1
"46",29,2,0,1,"stim/objects/HouseObjects/recyclingbin3.png","",0,0,"",0,"right",0.852999926,NA,NA,NA,NA,NA,46,1,NA,NA,NA,NA,1
"47",29,1,0.7,1,"stim/objects/HouseObjects/blender2.png","stim/64.jpeg",6,4,"stim/64.jpeg",2,"left",0.910000086,4,4,1.270999908,2,0.703999996,47,1,1,1,1,1,1
"48",29,1,0.5,1,"stim/objects/Instruments/keyboard.png","stim/32.jpeg",3,2,"stim/32.jpeg",2,"left",3.711999893,3,3,1.426999807,4,0.56799984,48,1,0,0,0,0,1
"49",29,1,0.3,2,"stim/objects/Instruments/cornet2.png","stim/62.jpeg",6,2,"stim/62.jpeg",2,"left",1.849999905,3,4,12.17299986,3,0.641000032,49,1,0,0,0,0,1
"50",29,1,0.5,2,"stim/objects/HouseObjects/lintroller.png","stim/44.jpeg",4,4,"stim/44.jpeg",1,"left",1.647000074,2,1,1.522000074,1,0.384999752,50,1,0,0,1,1,1
"51",29,2,0,1,"stim/objects/HouseObjects/clothespin4.png","",0,0,"",0,"right",3.101999998,NA,NA,NA,NA,NA,51,1,NA,NA,NA,NA,1
"52",29,2,0,1,"stim/objects/HouseObjects/coffee3.png","",0,0,"",0,"right",0.957999945,NA,NA,NA,NA,NA,52,1,NA,NA,NA,NA,1
"53",29,1,0.9,2,"stim/objects/Instruments/flutetrans2.png","stim/14.jpeg",1,4,"stim/14.jpeg",4,"right",1.822999954,1,1,0.859999895,1,0.194999933,53,0,0,NA,0,NA,1
"54",29,1,0.3,1,"stim/objects/HouseObjects/basket2.png","stim/51.jpeg",5,1,"stim/51.jpeg",3,"left",1.372999907,2,3,1.797999859,2,1.282999992,54,1,0,0,0,0,1
"55",29,1,0.9,2,"stim/objects/Instruments/guitarcase2.png","stim/14.jpeg",1,4,"stim/14.jpeg",4,"left",2.115999937,3,3,3.037999868,3,0.626999855,55,1,0,0,0,0,1
"56",29,2,0,2,"stim/objects/Instruments/bassguitar3.png","",0,0,"",0,"right",2.181999922,NA,NA,NA,NA,NA,56,1,NA,NA,NA,NA,1
"57",29,1,0.3,1,"stim/objects/HouseObjects/remote.png","stim/54.jpeg",5,4,"stim/54.jpeg",3,"left",1.020999908,4,4,4.674999952,3,0.842000008,57,1,1,1,1,1,1
"58",29,2,0,1,"stim/objects/HouseObjects/dustpan3.png","",0,0,"",0,"right",1.322999954,NA,NA,NA,NA,NA,58,1,NA,NA,NA,NA,1
"59",29,2,0,1,"stim/objects/HouseObjects/bottle4.png","",0,0,"",0,"right",1.587999821,NA,NA,NA,NA,NA,59,1,NA,NA,NA,NA,1
"60",29,2,0,1,"stim/objects/HouseObjects/blender3.png","",0,0,"",0,"right",0.845000029,NA,NA,NA,NA,NA,60,1,NA,NA,NA,NA,1
"61",29,1,0.9,2,"stim/objects/Instruments/grandpiano2.png","stim/13.jpeg",1,3,"stim/13.jpeg",1,"right",1.006999969,2,2,2.144000053,3,0.386999846,61,0,0,NA,0,NA,1
"62",29,1,0.9,1,"stim/objects/HouseObjects/ironingboard2.png","stim/21.jpeg",2,1,"stim/21.jpeg",4,"left",1.611000061,4,1,1.946999788,3,0.637000084,62,1,1,1,0,0,1
"63",29,2,0,2,"stim/objects/Instruments/laud3.png","",0,0,"",0,"right",1.513999939,NA,NA,NA,NA,NA,63,1,NA,NA,NA,NA,1
"64",29,1,0.9,1,"stim/objects/HouseObjects/knife2.png","stim/23.jpeg",2,3,"stim/23.jpeg",3,"left",1.237999916,4,3,3.636999846,3,0.774999857,64,1,1,1,1,1,1
"65",29,2,0,1,"stim/objects/HouseObjects/basket4.png","",0,0,"",0,"right",1.717999935,NA,NA,NA,NA,NA,65,1,NA,NA,NA,NA,1
"66",29,1,0.9,2,"stim/objects/Instruments/hihat2.png","stim/13.jpeg",1,3,"stim/13.jpeg",3,"right",1.074999809,4,4,0.909999847,4,0.499999762,66,0,0,NA,0,NA,1
"67",29,2,0,1,"stim/objects/HouseObjects/flyswatter3.png","",0,0,"",0,"left",1.444999933,NA,NA,NA,NA,NA,67,0,NA,NA,NA,NA,1
"68",29,2,0,1,"stim/objects/HouseObjects/barbecuelighter3.png","",0,0,"",0,"left",0.911999702,NA,NA,NA,NA,NA,68,0,NA,NA,NA,NA,1
"69",29,2,0,1,"stim/objects/HouseObjects/cushion3.png","",0,0,"",0,"right",1.152999878,NA,NA,NA,NA,NA,69,1,NA,NA,NA,NA,1
"70",29,1,0.3,1,"stim/objects/HouseObjects/rubbergloves.png","stim/51.jpeg",5,1,"stim/51.jpeg",1,"right",0.975999832,4,4,0.49000001,4,0.153999805,70,0,0,NA,0,NA,1
"71",29,1,0.3,1,"stim/objects/HouseObjects/pan.png","stim/51.jpeg",5,1,"stim/51.jpeg",4,"left",1.193000078,4,4,0.371999979,4,0.415999889,71,1,0,0,1,1,1
"72",29,2,0,1,"stim/objects/HouseObjects/bleachbottle4.png","",0,0,"",0,"left",4.298999786,NA,NA,NA,NA,NA,72,0,NA,NA,NA,NA,1
"73",29,2,0,1,"stim/objects/HouseObjects/glass3.png","",0,0,"",0,"right",1.583999872,NA,NA,NA,NA,NA,73,1,NA,NA,NA,NA,1
"74",29,2,0,2,"stim/objects/Instruments/marimba3.png","",0,0,"",0,"right",0.855000019,NA,NA,NA,NA,NA,74,1,NA,NA,NA,NA,1
"75",29,2,0,2,"stim/objects/Instruments/frenchhorn3.png","",0,0,"",0,"right",1.009000063,NA,NA,NA,NA,NA,75,1,NA,NA,NA,NA,1
"76",29,1,0.7,2,"stim/objects/Instruments/balalaika2.png","stim/51.jpeg",5,1,"stim/51.jpeg",3,"left",1.088999987,3,3,3.100999832,2,0.444999933,76,1,0,0,0,0,1
"77",29,1,0.1,2,"stim/objects/Instruments/record2.png","stim/24.jpeg",2,4,"stim/24.jpeg",3,"right",1.554999828,4,4,0.882999897,4,0.406000137,77,0,1,NA,0,NA,1
"78",29,2,0,2,"stim/objects/Instruments/cornet3.png","",0,0,"",0,"right",2.700000048,NA,NA,NA,NA,NA,78,1,NA,NA,NA,NA,1
"79",29,2,0,2,"stim/objects/Instruments/acousticguitar4.png","",0,0,"",0,"right",0.910999775,NA,NA,NA,NA,NA,79,1,NA,NA,NA,NA,1
"80",29,2,0,1,"stim/objects/HouseObjects/garbagebin3.png","",0,0,"",0,"right",0.903999805,NA,NA,NA,NA,NA,80,1,NA,NA,NA,NA,1
"81",29,1,0.1,2,"stim/objects/Instruments/panflute2.png","stim/22.jpeg",2,2,"stim/22.jpeg",1,"right",0.921999931,4,4,0.266000032,4,0.21999979,81,0,0,NA,0,NA,1
"82",29,2,0,1,"stim/objects/HouseObjects/clock3.png","",0,0,"",0,"right",1.15899992,NA,NA,NA,NA,NA,82,1,NA,NA,NA,NA,1
"83",29,2,0,2,"stim/objects/Instruments/metronome3.png","",0,0,"",0,"right",0.917999983,NA,NA,NA,NA,NA,83,1,NA,NA,NA,NA,1
"84",29,1,0.9,2,"stim/objects/Instruments/gong2.png","stim/12.jpeg",1,2,"stim/12.jpeg",2,"right",1.268000126,4,4,0.22699976,4,0.226999998,84,0,0,NA,0,NA,1
"85",29,1,0.7,1,"stim/objects/HouseObjects/bucket2.png","stim/63.jpeg",6,3,"stim/63.jpeg",4,"right",1.240999937,4,4,0.55099988,4,0.316999912,85,0,0,NA,1,NA,1
"86",29,2,0,1,"stim/objects/HouseObjects/broom3.png","",0,0,"",0,"right",1.248999834,NA,NA,NA,NA,NA,86,1,NA,NA,NA,NA,1
"87",29,2,0,2,"stim/objects/Instruments/chime3.png","",0,0,"",0,"right",0.76699996,NA,NA,NA,NA,NA,87,1,NA,NA,NA,NA,1
"88",29,1,0.1,1,"stim/objects/HouseObjects/handvacuum2.png","stim/11.jpeg",1,1,"stim/11.jpeg",2,"right",1.046999931,4,4,0.274999857,4,0.236999989,88,0,0,NA,0,NA,1
"89",29,1,0.5,1,"stim/objects/Instruments/harmonica.png","stim/33.jpeg",3,3,"stim/33.jpeg",3,"right",1.646999836,1,1,1.037999868,2,0.616999865,89,0,0,NA,0,NA,1
"90",29,2,0,1,"stim/objects/HouseObjects/dishsoap3.png","",0,0,"",0,"right",2.768999815,NA,NA,NA,NA,NA,90,1,NA,NA,NA,NA,1
"91",29,2,0,2,"stim/objects/Instruments/chime4.png","",0,0,"",0,"right",0.671999693,NA,NA,NA,NA,NA,91,1,NA,NA,NA,NA,1
"92",29,2,0,2,"stim/objects/Instruments/clarinet4.png","",0,0,"",0,"left",1.523000002,NA,NA,NA,NA,NA,92,0,NA,NA,NA,NA,1
"93",29,2,0,2,"stim/objects/Instruments/harmonica3.png","",0,0,"",0,"right",0.991999865,NA,NA,NA,NA,NA,93,1,NA,NA,NA,NA,1
"94",29,2,0,2,"stim/objects/Instruments/banjo4.png","",0,0,"",0,"right",0.904999971,NA,NA,NA,NA,NA,94,1,NA,NA,NA,NA,1
"95",29,2,0,2,"stim/objects/Instruments/maraca3.png","",0,0,"",0,"left",1.234999895,NA,NA,NA,NA,NA,95,0,NA,NA,NA,NA,1
"96",29,1,0.3,2,"stim/objects/Instruments/electricdrumset2.png","stim/62.jpeg",6,2,"stim/62.jpeg",4,"left",1.625999928,4,4,2.269999981,2,0.697000027,96,1,0,0,0,0,1
"97",29,1,0.5,2,"stim/objects/Instruments/metronome.png","stim/43.jpeg",4,3,"stim/43.jpeg",3,"left",1.746999979,4,3,3.246999979,3,0.784999847,97,1,1,1,1,1,1
"98",29,1,0.1,1,"stim/objects/HouseObjects/hairdryer2.png","stim/13.jpeg",1,3,"stim/13.jpeg",4,"left",1.353999853,4,4,2.431999922,1,0.665999889,98,1,0,0,0,0,1
"99",29,2,0,1,"stim/objects/HouseObjects/iron3.png","",0,0,"",0,"right",1.65199995,NA,NA,NA,NA,NA,99,1,NA,NA,NA,NA,1
"100",29,1,0.3,2,"stim/objects/Instruments/clarinet2.png","stim/61.jpeg",6,1,"stim/61.jpeg",3,"right",0.982999802,2,1,0.755999804,1,0.182999849,100,0,1,NA,0,NA,1
"101",29,1,0.7,2,"stim/objects/Instruments/banjo2.png","stim/52.jpeg",5,2,"stim/52.jpeg",1,"right",1.351000071,1,1,0.716999769,1,0.203999996,101,0,0,NA,1,NA,1
"102",29,1,0.5,2,"stim/objects/HouseObjects/key.png","stim/42.jpeg",4,2,"stim/42.jpeg",4,"right",1.377999783,1,1,0.491999865,1,0.295999765,102,0,0,NA,0,NA,1
"103",29,1,0.9,1,"stim/objects/HouseObjects/pan2.png","stim/22.jpeg",2,2,"stim/22.jpeg",3,"left",1.248000145,4,1,1.111999989,3,0.801999807,103,1,0,0,1,1,1
"104",29,1,0.9,1,"stim/objects/HouseObjects/match2.png","stim/21.jpeg",2,1,"stim/21.jpeg",2,"left",2.289999962,2,2,0.836999893,1,0.957000017,104,1,0,0,0,0,1
"105",29,1,0.7,1,"stim/objects/HouseObjects/dishsoap2.png","stim/61.jpeg",6,1,"stim/61.jpeg",1,"left",1.737999916,4,1,3.163999796,1,0.378999949,105,1,1,1,1,1,1
"106",29,2,0,2,"stim/objects/Instruments/doublebass4.png","",0,0,"",0,"left",2.434000015,NA,NA,NA,NA,NA,106,0,NA,NA,NA,NA,1
"107",29,2,0,2,"stim/objects/Instruments/keyboard3.png","",0,0,"",0,"right",2.80099988,NA,NA,NA,NA,NA,107,1,NA,NA,NA,NA,1
"108",29,1,0.7,1,"stim/objects/HouseObjects/bottle2.png","stim/61.jpeg",6,1,"stim/61.jpeg",4,"left",2.322999954,2,2,1.205999851,2,0.838999987,108,1,0,0,0,0,1
"109",29,1,0.1,2,"stim/objects/Instruments/oboe2.png","stim/21.jpeg",2,1,"stim/21.jpeg",4,"left",1.122999907,1,1,0.746000051,1,0.618000031,109,1,1,1,0,0,1
"110",29,2,0,2,"stim/objects/Instruments/electricguitar4.png","",0,0,"",0,"right",5.558000088,NA,NA,NA,NA,NA,110,1,NA,NA,NA,NA,1
"111",29,1,0.7,2,"stim/objects/Instruments/pipepiano.png","stim/51.jpeg",5,1,"stim/51.jpeg",4,"left",1.960000038,4,4,2.417999983,4,0.50999999,111,1,0,0,1,1,1
"112",29,1,0.1,2,"stim/objects/Instruments/musicstand2.png","stim/24.jpeg",2,4,"stim/24.jpeg",3,"right",1.437999964,1,1,0.27699995,1,0.259999752,112,0,0,NA,0,NA,1
"113",29,2,0,2,"stim/objects/Instruments/musicstand3.png","",0,0,"",0,"right",5.50999999,NA,NA,NA,NA,NA,113,1,NA,NA,NA,NA,1
"114",29,1,0.7,1,"stim/objects/HouseObjects/clothesdryingrack2.png","stim/61.jpeg",6,1,"stim/61.jpeg",4,"left",1.069999933,4,4,3.897000074,3,0.875999928,114,1,0,0,0,0,1
"115",29,1,0.3,1,"stim/objects/HouseObjects/ashtray2.png","stim/52.jpeg",5,2,"stim/52.jpeg",3,"left",1.286000013,4,2,5.180999994,3,1.126999855,115,1,1,1,1,1,1
"116",29,1,0.7,2,"stim/objects/Instruments/oboe.png","stim/53.jpeg",5,3,"stim/53.jpeg",1,"right",1.236999989,1,3,3.782000065,3,0.749999762,116,0,1,NA,0,NA,1
"117",29,1,0.3,2,"stim/objects/Instruments/chime2.png","stim/64.jpeg",6,4,"stim/64.jpeg",1,"right",1.162999868,4,4,1.434000015,4,0.291999817,117,0,1,NA,0,NA,1
"118",29,1,0.1,1,"stim/objects/HouseObjects/glass2.png","stim/11.jpeg",1,1,"stim/11.jpeg",4,"left",1.694999933,4,4,2.076999903,4,0.453999758,118,1,0,0,1,1,1
"119",29,1,0.1,2,"stim/objects/Instruments/maraca2.png","stim/24.jpeg",2,4,"stim/24.jpeg",4,"right",1.556999922,4,4,0.559999943,4,0.278999805,119,0,1,NA,1,NA,1
"120",29,1,0.5,1,"stim/objects/HouseObjects/glassmop.png","stim/33.jpeg",3,3,"stim/33.jpeg",1,"left",2.661000013,2,2,1.684999943,4,0.697000027,120,1,0,0,0,0,1
"121",29,2,0,2,"stim/objects/Instruments/acousticguitar3.png","",0,0,"",0,"right",1.211999893,NA,NA,NA,NA,NA,121,1,NA,NA,NA,NA,1
"122",29,2,0,1,"stim/objects/HouseObjects/lintroller3.png","",0,0,"",0,"right",0.832000017,NA,NA,NA,NA,NA,122,1,NA,NA,NA,NA,1
"123",29,2,0,1,"stim/objects/HouseObjects/match3.png","",0,0,"",0,"right",0.91899991,NA,NA,NA,NA,NA,123,1,NA,NA,NA,NA,1
"124",29,1,0.9,2,"stim/objects/Instruments/keyboard2.png","stim/14.jpeg",1,4,"stim/14.jpeg",2,"left",0.984999895,4,4,1.586999893,2,0.52699995,124,1,1,1,1,1,1
"125",29,1,0.9,1,"stim/objects/HouseObjects/rubbergloves2.png","stim/22.jpeg",2,2,"stim/22.jpeg",4,"right",1.25,1,1,0.912999868,1,0.422999859,125,0,0,NA,0,NA,1
"126",29,1,0.7,2,"stim/objects/Instruments/panflute.png","stim/54.jpeg",5,4,"stim/54.jpeg",4,"right",1.510999918,1,1,0.454999924,1,0.356999874,126,0,0,NA,0,NA,1
"127",29,2,0,1,"stim/objects/HouseObjects/clock4.png","",0,0,"",0,"left",1.349999905,NA,NA,NA,NA,NA,127,0,NA,NA,NA,NA,1
"128",29,2,0,2,"stim/objects/Instruments/electricdrumset3.png","",0,0,"",0,"right",1.015000105,NA,NA,NA,NA,NA,128,1,NA,NA,NA,NA,1
"129",29,1,0.3,1,"stim/objects/HouseObjects/ballofstring2.png","stim/53.jpeg",5,3,"stim/53.jpeg",3,"left",0.85800004,4,2,1.588999987,3,1.336999893,129,1,0,0,1,1,1
"130",29,2,0,1,"stim/objects/HouseObjects/bleachbottle3.png","",0,0,"",0,"right",2.473999977,NA,NA,NA,NA,NA,130,1,NA,NA,NA,NA,1
"131",29,1,0.3,1,"stim/objects/HouseObjects/pitcher.png","stim/52.jpeg",5,2,"stim/52.jpeg",2,"right",0.619999886,1,1,0.522000074,1,0.262999773,131,0,0,NA,0,NA,1
"132",29,2,0,1,"stim/objects/HouseObjects/coffee4.png","",0,0,"",0,"left",3.792999744,NA,NA,NA,NA,NA,132,0,NA,NA,NA,NA,1
"133",29,1,0.9,1,"stim/objects/HouseObjects/recyclingbin2.png","stim/24.jpeg",2,4,"stim/24.jpeg",1,"right",0.795000076,1,1,0.805999994,1,0.253000021,133,0,0,NA,1,NA,1
"134",29,2,0,1,"stim/objects/HouseObjects/pitcher3.png","",0,0,"",0,"right",0.971999884,NA,NA,NA,NA,NA,134,1,NA,NA,NA,NA,1
"135",29,2,0,1,"stim/objects/HouseObjects/barbecuelighter4.png","",0,0,"",0,"left",0.967000008,NA,NA,NA,NA,NA,135,0,NA,NA,NA,NA,1
"136",29,1,0.5,1,"stim/objects/HouseObjects/handbrush.png","stim/31.jpeg",3,1,"stim/31.jpeg",4,"right",0.938999891,1,1,0.892999887,1,0.296000004,136,0,1,NA,0,NA,1
"137",29,1,0.5,1,"stim/objects/Instruments/guitarcase.png","stim/32.jpeg",3,2,"stim/32.jpeg",2,"left",4.779999733,3,3,1.036000013,4,0.516000032,137,1,0,0,0,0,1
"138",29,1,0.9,1,"stim/objects/HouseObjects/remote2.png","stim/21.jpeg",2,1,"stim/21.jpeg",2,"right",1.762999773,1,1,0.46999979,1,0.28399992,138,0,1,NA,0,NA,1
"139",29,1,0.7,2,"stim/objects/Instruments/bassdrum2.png","stim/53.jpeg",5,3,"stim/53.jpeg",2,"right",1.436999798,1,1,0.226999998,1,0.507999897,139,0,0,NA,0,NA,1
"140",29,2,0,1,"stim/objects/HouseObjects/handvacuum3.png","",0,0,"",0,"right",8.559999943,NA,NA,NA,NA,NA,140,1,NA,NA,NA,NA,1
"141",29,1,0.1,1,"stim/objects/HouseObjects/glassmop2.png","stim/12.jpeg",1,2,"stim/12.jpeg",3,"right",0.782000065,1,2,0.990999937,1,0.868999958,141,0,1,NA,0,NA,1
"142",29,1,0.5,1,"stim/objects/HouseObjects/hairdryer.png","stim/34.jpeg",3,4,"stim/34.jpeg",3,"right",1.715999842,1,1,0.223999977,1,0.246999979,142,0,0,NA,0,NA,1
"143",29,1,0.5,2,"stim/objects/Instruments/maraca.png","stim/41.jpeg",4,1,"stim/41.jpeg",3,"left",1.914000034,4,3,6.984999895,3,0.618000031,143,1,0,0,1,1,1
"144",29,2,0,1,"stim/objects/HouseObjects/bottle3.png","",0,0,"",0,"left",1.087000132,NA,NA,NA,NA,NA,144,0,NA,NA,NA,NA,1
"145",29,1,0.7,1,"stim/objects/HouseObjects/broom2.png","stim/62.jpeg",6,2,"stim/62.jpeg",2,"left",2.111999989,4,4,1.207000017,2,0.932999849,145,1,0,0,1,1,1
"146",29,2,0,1,"stim/objects/HouseObjects/ballofstring3.png","",0,0,"",0,"right",7.289999962,NA,NA,NA,NA,NA,146,1,NA,NA,NA,NA,1
"147",29,2,0,2,"stim/objects/Instruments/cornet4.png","",0,0,"",0,"right",0.825999975,NA,NA,NA,NA,NA,147,1,NA,NA,NA,NA,1
"148",29,1,0.7,2,"stim/objects/Instruments/accordion2.png","stim/53.jpeg",5,3,"stim/53.jpeg",4,"left",2.864000082,3,4,1.338999987,2,3.214999914,148,1,0,0,0,0,1
"149",29,2,0,2,"stim/objects/Instruments/banjo3.png","",0,0,"",0,"left",1.237999916,NA,NA,NA,NA,NA,149,0,NA,NA,NA,NA,1
"150",29,2,0,2,"stim/objects/Instruments/guitarcase3.png","",0,0,"",0,"right",0.98300004,NA,NA,NA,NA,NA,150,1,NA,NA,NA,NA,1
"151",29,2,0,2,"stim/objects/Instruments/pipepiano3.png","",0,0,"",0,"right",0.884999752,NA,NA,NA,NA,NA,151,1,NA,NA,NA,NA,1
"152",29,1,0.3,1,"stim/objects/HouseObjects/bleachbottle2.png","stim/52.jpeg",5,2,"stim/52.jpeg",4,"left",0.950000048,4,4,2.013999939,3,3.326999903,152,1,0,0,0,0,1
"153",29,1,0.1,1,"stim/objects/HouseObjects/garbagebin2.png","stim/14.jpeg",1,4,"stim/14.jpeg",3,"right",2.601999998,1,1,0.474999905,1,0.786999941,153,0,0,NA,0,NA,1
"154",29,1,0.1,1,"stim/objects/HouseObjects/dustpan2.png","stim/12.jpeg",1,2,"stim/12.jpeg",2,"right",2.58100009,1,2,0.681999922,4,1.54399991,154,0,1,NA,0,NA,1
"155",29,2,0,2,"stim/objects/Instruments/panflute3.png","",0,0,"",0,"right",1.190999985,NA,NA,NA,NA,NA,155,1,NA,NA,NA,NA,1
"156",29,2,0,2,"stim/objects/Instruments/musicsheet3.png","",0,0,"",0,"right",1.06799984,NA,NA,NA,NA,NA,156,1,NA,NA,NA,NA,1
"157",29,1,0.1,2,"stim/objects/Instruments/pipepiano2.png","stim/23.jpeg",2,3,"stim/23.jpeg",3,"right",0.842000008,1,2,0.834000111,3,1.365999937,157,0,0,NA,1,NA,1
"158",29,2,0,2,"stim/objects/Instruments/bassdrum4.png","",0,0,"",0,"right",3.231999874,NA,NA,NA,NA,NA,158,1,NA,NA,NA,NA,1
"159",29,1,0.9,2,"stim/objects/Instruments/flute2.png","stim/13.jpeg",1,3,"stim/13.jpeg",3,"right",1.044999838,2,1,1.421000004,3,0.921000004,159,0,0,NA,1,NA,1
"160",29,1,0.5,1,"stim/objects/Instruments/harp.png","stim/34.jpeg",3,4,"stim/34.jpeg",2,"right",1.698999882,1,1,0.954999924,1,0.271999836,160,0,0,NA,0,NA,1
"161",29,2,0,1,"stim/objects/HouseObjects/remote3.png","",0,0,"",0,"right",1.352999926,NA,NA,NA,NA,NA,161,1,NA,NA,NA,NA,1
"162",29,2,0,1,"stim/objects/HouseObjects/clothespin3.png","",0,0,"",0,"right",0.915999889,NA,NA,NA,NA,NA,162,1,NA,NA,NA,NA,1
"163",29,1,0.7,2,"stim/objects/Instruments/record.png","stim/52.jpeg",5,2,"stim/52.jpeg",3,"right",0.809999943,1,2,0.757999897,3,0.971999884,163,0,1,NA,1,NA,1
"164",29,1,0.7,1,"stim/objects/HouseObjects/clock2.png","stim/64.jpeg",6,4,"stim/64.jpeg",1,"left",1.737999916,4,4,1.653999805,2,0.656999826,164,1,1,1,0,0,1
"165",29,2,0,1,"stim/objects/HouseObjects/broom4.png","",0,0,"",0,"right",1.858999968,NA,NA,NA,NA,NA,165,1,NA,NA,NA,NA,1
"166",29,1,0.1,1,"stim/objects/HouseObjects/handbrush2.png","stim/14.jpeg",1,4,"stim/14.jpeg",2,"right",0.823999882,1,1,0.609999895,1,0.259000063,166,0,0,NA,0,NA,1
"167",29,1,0.1,1,"stim/objects/HouseObjects/doormat2.png","stim/11.jpeg",1,1,"stim/11.jpeg",4,"left",1.352999926,4,3,10.56099987,4,0.822000027,167,1,0,0,1,1,1
"168",29,2,0,1,"stim/objects/HouseObjects/clothesdryingrack4.png","",0,0,"",0,"right",1.39199996,NA,NA,NA,NA,NA,168,1,NA,NA,NA,NA,1
"169",29,1,0.3,2,"stim/objects/Instruments/electricguitar2.png","stim/63.jpeg",6,3,"stim/63.jpeg",1,"right",0.842000008,1,1,0.604999781,1,0.287999868,169,0,0,NA,1,NA,1
"170",29,2,0,2,"stim/objects/Instruments/cymbal4.png","",0,0,"",0,"right",1.143999815,NA,NA,NA,NA,NA,170,1,NA,NA,NA,NA,1
"171",29,2,0,2,"stim/objects/Instruments/bassdrum3.png","",0,0,"",0,"right",0.578999758,NA,NA,NA,NA,NA,171,1,NA,NA,NA,NA,1
"172",29,1,0.5,2,"stim/objects/HouseObjects/match.png","stim/41.jpeg",4,1,"stim/41.jpeg",1,"left",0.953999996,4,1,4.574999809,1,0.3349998,172,1,1,1,1,1,1
"173",29,2,0,1,"stim/objects/HouseObjects/rubbergloves3.png","",0,0,"",0,"right",1.16899991,NA,NA,NA,NA,NA,173,1,NA,NA,NA,NA,1
"174",29,2,0,1,"stim/objects/HouseObjects/cushion4.png","",0,0,"",0,"right",0.565000057,NA,NA,NA,NA,NA,174,1,NA,NA,NA,NA,1
"175",29,2,0,2,"stim/objects/Instruments/drums3.png","",0,0,"",0,"right",0.609999895,NA,NA,NA,NA,NA,175,1,NA,NA,NA,NA,1
"176",29,1,0.1,2,"stim/objects/Instruments/musicsheet2.png","stim/23.jpeg",2,3,"stim/23.jpeg",4,"right",0.960999966,1,1,0.588999748,1,0.296000004,176,0,0,NA,0,NA,1
"177",29,1,0.3,2,"stim/objects/Instruments/cymbal2.png","stim/63.jpeg",6,3,"stim/63.jpeg",3,"right",1.64199996,4,1,0.930999994,1,0.58100009,177,0,0,NA,0,NA,1
"178",29,2,0,1,"stim/objects/HouseObjects/knife3.png","",0,0,"",0,"right",2.073999882,NA,NA,NA,NA,NA,178,1,NA,NA,NA,NA,1
"179",29,2,0,1,"stim/objects/HouseObjects/ashtray4.png","",0,0,"",0,"right",1.112999916,NA,NA,NA,NA,NA,179,1,NA,NA,NA,NA,1
"180",29,2,0,2,"stim/objects/Instruments/flutetrans3.png","",0,0,"",0,"right",0.75999999,NA,NA,NA,NA,NA,180,1,NA,NA,NA,NA,1
"181",29,2,0,1,"stim/objects/HouseObjects/key3.png","",0,0,"",0,"right",0.8349998,NA,NA,NA,NA,NA,181,1,NA,NA,NA,NA,1
"182",29,1,0.3,1,"stim/objects/HouseObjects/barbecuelighter2.png","stim/54.jpeg",5,4,"stim/54.jpeg",1,"right",0.792999744,1,1,0.506000042,1,0.221999884,182,0,0,NA,1,NA,1
"183",29,2,0,1,"stim/objects/HouseObjects/ironingboard3.png","",0,0,"",0,"right",1.131000042,NA,NA,NA,NA,NA,183,1,NA,NA,NA,NA,1
"184",29,1,0.1,2,"stim/objects/Instruments/laud2.png","stim/23.jpeg",2,3,"stim/23.jpeg",4,"right",0.558999777,1,1,0.210999966,1,0.449999809,184,0,0,NA,0,NA,1
"185",29,2,0,2,"stim/objects/Instruments/balalaika4.png","",0,0,"",0,"right",2.247999907,NA,NA,NA,NA,NA,185,1,NA,NA,NA,NA,1
"186",29,2,0,2,"stim/objects/Instruments/accordion3.png","",0,0,"",0,"right",1.008000135,NA,NA,NA,NA,NA,186,1,NA,NA,NA,NA,1
"187",29,1,0.1,2,"stim/objects/Instruments/metronome2.png","stim/22.jpeg",2,2,"stim/22.jpeg",3,"right",3.055999994,1,1,0.540999889,1,0.195999861,187,0,0,NA,0,NA,1
"188",29,1,0.7,1,"stim/objects/HouseObjects/coffee2.png","stim/63.jpeg",6,3,"stim/63.jpeg",1,"left",1.855999947,4,4,1.889999866,2,2.059000015,188,1,0,0,0,0,1
"189",29,2,0,1,"stim/objects/HouseObjects/clothesdryingrack3.png","",0,0,"",0,"right",3.480999947,NA,NA,NA,NA,NA,189,1,NA,NA,NA,NA,1
"190",29,2,0,2,"stim/objects/Instruments/drums4.png","",0,0,"",0,"right",0.951999903,NA,NA,NA,NA,NA,190,1,NA,NA,NA,NA,1
"191",29,2,0,1,"stim/objects/HouseObjects/bucket3.png","",0,0,"",0,"right",0.546000004,NA,NA,NA,NA,NA,191,1,NA,NA,NA,NA,1
"192",29,1,0.5,2,"stim/objects/HouseObjects/ironingboard.png","stim/41.jpeg",4,1,"stim/41.jpeg",3,"right",0.769000053,1,1,1.394999981,1,0.322000027,192,0,1,NA,0,NA,1
"193",29,1,0.3,1,"stim/objects/HouseObjects/recyclingbin.png","stim/53.jpeg",5,3,"stim/53.jpeg",1,"right",2.090999842,1,1,0.492999792,1,0.22300005,193,0,0,NA,1,NA,1
"194",29,1,0.7,1,"stim/objects/HouseObjects/cushion2.png","stim/64.jpeg",6,4,"stim/64.jpeg",3,"left",3.246999979,4,4,5.411999941,3,1.176000118,194,1,1,1,1,1,1
"195",29,2,0,1,"stim/objects/HouseObjects/blender4.png","",0,0,"",0,"right",1.197999954,NA,NA,NA,NA,NA,195,1,NA,NA,NA,NA,1
"196",29,2,0,1,"stim/objects/HouseObjects/ashtray3.png","",0,0,"",0,"right",0.930999994,NA,NA,NA,NA,NA,196,1,NA,NA,NA,NA,1
"197",29,2,0,1,"stim/objects/HouseObjects/glassmop3.png","",0,0,"",0,"right",0.921000004,NA,NA,NA,NA,NA,197,1,NA,NA,NA,NA,1
"198",29,2,0,2,"stim/objects/Instruments/bassguitar4.png","",0,0,"",0,"right",0.647000074,NA,NA,NA,NA,NA,198,1,NA,NA,NA,NA,1
"199",29,1,0.9,2,"stim/objects/Instruments/harp2.png","stim/12.jpeg",1,2,"stim/12.jpeg",2,"right",0.669999838,1,1,0.438999891,1,0.160000086,199,0,0,NA,0,NA,1
"200",29,2,0,1,"stim/objects/HouseObjects/pan3.png","",0,0,"",0,"right",1.166999817,NA,NA,NA,NA,NA,200,1,NA,NA,NA,NA,1
