"","obj_file","X.x","participant.x","trialN.x","trial_cond","scn_file.x","scn_cat","scn_inst","scn_condition","fillers","obj_cat","obj_cat_num","quadrant","corr_ans","key_resp_trial.keys","key_resp_trial.rt","trial_acc","trial_acc_manual","group.x","practice","X.y","participant.y","OvsN","PE_level","object_cat","scn_file.y","corr_scn_cat","corr_scn_inst","scn_file.1","corr_loc","key_resp_id.keys","key_resp_id.rt","key_resp_conf.keys","key_resp_assoc.keys","key_resp_assoc.rt","key_resp_loc.keys","key_resp_loc.rt","trialN.y","id_acc","assoc.acc","cond_assoc","loc.acc","cond_loc","group.y"
"158","stim/objects/Instruments/timbal2.png",1,29,1,0.9,"stim/11.jpeg",1,1,3,NA,"Instruments",2,1,"right","",NA,0,0,1,1,NA,NA,NA,NA,NA,NA,NA,NA,NA,NA,NA,NA,NA,NA,NA,NA,NA,NA,NA,NA,NA,NA,NA,NA
"112","stim/objects/HouseObjects/wateringcan2.png",2,29,2,0.9,"stim/24.jpeg",2,4,3,NA,"HouseObjects",1,1,"left","left",0.57799983,1,1,1,1,NA,NA,NA,NA,NA,NA,NA,NA,NA,NA,NA,NA,NA,NA,NA,NA,NA,NA,NA,NA,NA,NA,NA,NA
"200","stim/objects/Instruments/trumpet2.png",3,29,3,0.9,"stim/14.jpeg",1,4,3,NA,"Instruments",2,3,"right","right",0.541000128,1,1,1,1,NA,NA,NA,NA,NA,NA,NA,NA,NA,NA,NA,NA,NA,NA,NA,NA,NA,NA,NA,NA,NA,NA,NA,NA
"145","stim/objects/Instruments/tambourine.png",4,29,4,0.5,"stim/34.jpeg",3,4,1,NA,"Instruments",2,2,"right","left",0.811000109,0,0,1,1,NA,NA,NA,NA,NA,NA,NA,NA,NA,NA,NA,NA,NA,NA,NA,NA,NA,NA,NA,NA,NA,NA,NA,NA
"146","stim/objects/Instruments/tambourine.png",5,29,5,0.5,"stim/34.jpeg",3,4,1,NA,"Instruments",2,1,"right","right",0.734999895,1,1,1,1,NA,NA,NA,NA,NA,NA,NA,NA,NA,NA,NA,NA,NA,NA,NA,NA,NA,NA,NA,NA,NA,NA,NA,NA
"76","stim/objects/HouseObjects/thread2.png",6,29,6,0.9,"stim/21.jpeg",2,1,3,NA,"HouseObjects",1,2,"left","left",0.519000053,1,1,1,1,NA,NA,NA,NA,NA,NA,NA,NA,NA,NA,NA,NA,NA,NA,NA,NA,NA,NA,NA,NA,NA,NA,NA,NA
"186","stim/objects/Instruments/trombone2.png",7,29,7,0.9,"stim/13.jpeg",1,3,3,NA,"Instruments",2,2,"right","right",0.5,1,1,1,1,NA,NA,NA,NA,NA,NA,NA,NA,NA,NA,NA,NA,NA,NA,NA,NA,NA,NA,NA,NA,NA,NA,NA,NA
"195","stim/objects/Instruments/trumpet.png",8,29,8,0.5,"stim/44.jpeg",4,4,1,NA,"Instruments",2,3,"right","left",0.664000034,0,0,1,1,NA,NA,NA,NA,NA,NA,NA,NA,NA,NA,NA,NA,NA,NA,NA,NA,NA,NA,NA,NA,NA,NA,NA,NA
"159","stim/objects/Instruments/timbal2.png",9,29,9,0.9,"stim/11.jpeg",1,1,3,NA,"Instruments",2,1,"right","right",0.528999805,1,1,1,1,NA,NA,NA,NA,NA,NA,NA,NA,NA,NA,NA,NA,NA,NA,NA,NA,NA,NA,NA,NA,NA,NA,NA,NA
"13","stim/objects/HouseObjects/safetypin.png",10,29,10,0.5,"stim/32.jpeg",3,2,1,NA,"HouseObjects",1,4,"left","left",0.629999876,1,1,1,1,NA,NA,NA,NA,NA,NA,NA,NA,NA,NA,NA,NA,NA,NA,NA,NA,NA,NA,NA,NA,NA,NA,NA,NA
"97","stim/objects/HouseObjects/vacuumcleaner.png",11,29,11,0.3,"stim/53.jpeg",5,3,2,NA,"HouseObjects",1,3,"left","right",0.701999903,0,0,1,1,NA,NA,NA,NA,NA,NA,NA,NA,NA,NA,NA,NA,NA,NA,NA,NA,NA,NA,NA,NA,NA,NA,NA,NA
"172","stim/objects/Instruments/triangle2.png",12,29,12,0.9,"stim/12.jpeg",1,2,3,NA,"Instruments",2,1,"right","right",0.51699996,1,1,1,1,NA,NA,NA,NA,NA,NA,NA,NA,NA,NA,NA,NA,NA,NA,NA,NA,NA,NA,NA,NA,NA,NA,NA,NA
"77","stim/objects/HouseObjects/thread2.png",13,29,13,0.9,"stim/21.jpeg",2,1,3,NA,"HouseObjects",1,1,"left","left",0.562000036,1,1,1,1,NA,NA,NA,NA,NA,NA,NA,NA,NA,NA,NA,NA,NA,NA,NA,NA,NA,NA,NA,NA,NA,NA,NA,NA
"49","stim/objects/HouseObjects/sponge.png",14,29,14,0.5,"stim/41.jpeg",4,1,1,NA,"HouseObjects",1,3,"left","left",0.802999973,1,1,1,1,NA,NA,NA,NA,NA,NA,NA,NA,NA,NA,NA,NA,NA,NA,NA,NA,NA,NA,NA,NA,NA,NA,NA,NA
"14","stim/objects/HouseObjects/safetypin.png",15,29,15,0.5,"stim/32.jpeg",3,2,1,NA,"HouseObjects",1,4,"left","",NA,0,0,1,1,NA,NA,NA,NA,NA,NA,NA,NA,NA,NA,NA,NA,NA,NA,NA,NA,NA,NA,NA,NA,NA,NA,NA,NA
"18","stim/objects/HouseObjects/safetypin2.png",16,29,16,0.7,"stim/62.jpeg",6,2,2,NA,"HouseObjects",1,1,"left","",NA,0,0,1,1,NA,NA,NA,NA,NA,NA,NA,NA,NA,NA,NA,NA,NA,NA,NA,NA,NA,NA,NA,NA,NA,NA,NA,NA
"15","stim/objects/HouseObjects/safetypin.png",17,29,17,0.5,"stim/32.jpeg",3,2,1,NA,"HouseObjects",1,1,"left","left",0.759000063,1,1,1,1,NA,NA,NA,NA,NA,NA,NA,NA,NA,NA,NA,NA,NA,NA,NA,NA,NA,NA,NA,NA,NA,NA,NA,NA
"60","stim/objects/HouseObjects/spraybottle2.png",18,29,18,0.1,"stim/12.jpeg",1,2,3,NA,"HouseObjects",1,3,"left","right",0.552999973,0,0,1,1,NA,NA,NA,NA,NA,NA,NA,NA,NA,NA,NA,NA,NA,NA,NA,NA,NA,NA,NA,NA,NA,NA,NA,NA
"19","stim/objects/HouseObjects/safetypin2.png",19,29,19,0.7,"stim/62.jpeg",6,2,2,NA,"HouseObjects",1,3,"left","left",0.525999784,1,1,1,1,NA,NA,NA,NA,NA,NA,NA,NA,NA,NA,NA,NA,NA,NA,NA,NA,NA,NA,NA,NA,NA,NA,NA,NA
"100","stim/objects/HouseObjects/vacuumcleaner2.png",20,29,20,0.9,"stim/23.jpeg",2,3,3,NA,"HouseObjects",1,1,"left","left",0.494999886,1,1,1,1,NA,NA,NA,NA,NA,NA,NA,NA,NA,NA,NA,NA,NA,NA,NA,NA,NA,NA,NA,NA,NA,NA,NA,NA
"201","stim/objects/Instruments/trumpet2.png",21,29,21,0.9,"stim/14.jpeg",1,4,3,NA,"Instruments",2,4,"right","right",0.687999725,1,1,1,1,NA,NA,NA,NA,NA,NA,NA,NA,NA,NA,NA,NA,NA,NA,NA,NA,NA,NA,NA,NA,NA,NA,NA,NA
"20","stim/objects/HouseObjects/safetypin2.png",22,29,22,0.7,"stim/62.jpeg",6,2,2,NA,"HouseObjects",1,4,"left","left",0.548000097,1,1,1,1,NA,NA,NA,NA,NA,NA,NA,NA,NA,NA,NA,NA,NA,NA,NA,NA,NA,NA,NA,NA,NA,NA,NA,NA
"196","stim/objects/Instruments/trumpet.png",23,29,23,0.5,"stim/44.jpeg",4,4,1,NA,"Instruments",2,3,"right","left",0.619999886,0,0,1,1,NA,NA,NA,NA,NA,NA,NA,NA,NA,NA,NA,NA,NA,NA,NA,NA,NA,NA,NA,NA,NA,NA,NA,NA
"42","stim/objects/HouseObjects/scale2.png",24,29,24,0.7,"stim/64.jpeg",6,4,2,NA,"HouseObjects",1,3,"left","",NA,0,0,1,1,NA,NA,NA,NA,NA,NA,NA,NA,NA,NA,NA,NA,NA,NA,NA,NA,NA,NA,NA,NA,NA,NA,NA,NA
"217","stim/objects/Instruments/violin.png",25,29,25,0.7,"stim/52.jpeg",5,2,2,NA,"Instruments",2,3,"right","",NA,0,0,1,1,NA,NA,NA,NA,NA,NA,NA,NA,NA,NA,NA,NA,NA,NA,NA,NA,NA,NA,NA,NA,NA,NA,NA,NA
"25","stim/objects/HouseObjects/saw.png",26,29,26,0.5,"stim/33.jpeg",3,3,1,NA,"HouseObjects",1,3,"left","left",0.667999983,1,1,1,1,NA,NA,NA,NA,NA,NA,NA,NA,NA,NA,NA,NA,NA,NA,NA,NA,NA,NA,NA,NA,NA,NA,NA,NA
"218","stim/objects/Instruments/violin.png",27,29,27,0.7,"stim/52.jpeg",5,2,2,NA,"Instruments",2,4,"right","right",0.687000036,1,1,1,1,NA,NA,NA,NA,NA,NA,NA,NA,NA,NA,NA,NA,NA,NA,NA,NA,NA,NA,NA,NA,NA,NA,NA,NA
"101","stim/objects/HouseObjects/vacuumcleaner2.png",28,29,28,0.9,"stim/23.jpeg",2,3,3,NA,"HouseObjects",1,3,"left","left",0.461999893,1,1,1,1,NA,NA,NA,NA,NA,NA,NA,NA,NA,NA,NA,NA,NA,NA,NA,NA,NA,NA,NA,NA,NA,NA,NA,NA
"126","stim/objects/Instruments/record_player2.png",29,29,29,0.3,"stim/61.jpeg",6,1,2,NA,"Instruments",2,3,"right","left",0.589999914,0,0,1,1,NA,NA,NA,NA,NA,NA,NA,NA,NA,NA,NA,NA,NA,NA,NA,NA,NA,NA,NA,NA,NA,NA,NA,NA
"109","stim/objects/HouseObjects/wateringcan.png",30,29,30,0.3,"stim/54.jpeg",5,4,2,NA,"HouseObjects",1,2,"left","",NA,0,0,1,1,NA,NA,NA,NA,NA,NA,NA,NA,NA,NA,NA,NA,NA,NA,NA,NA,NA,NA,NA,NA,NA,NA,NA,NA
"67","stim/objects/HouseObjects/thermometer.png",31,29,31,0.5,"stim/44.jpeg",4,4,1,NA,"HouseObjects",1,3,"left","left",0.602999926,1,1,1,1,NA,NA,NA,NA,NA,NA,NA,NA,NA,NA,NA,NA,NA,NA,NA,NA,NA,NA,NA,NA,NA,NA,NA,NA
"113","stim/objects/HouseObjects/wateringcan2.png",32,29,32,0.9,"stim/24.jpeg",2,4,3,NA,"HouseObjects",1,1,"left","left",0.494999886,1,1,1,1,NA,NA,NA,NA,NA,NA,NA,NA,NA,NA,NA,NA,NA,NA,NA,NA,NA,NA,NA,NA,NA,NA,NA,NA
"181","stim/objects/Instruments/trombone.png",33,29,33,0.5,"stim/43.jpeg",4,3,1,NA,"Instruments",2,4,"right","left",0.562999964,0,0,1,1,NA,NA,NA,NA,NA,NA,NA,NA,NA,NA,NA,NA,NA,NA,NA,NA,NA,NA,NA,NA,NA,NA,NA,NA
"102","stim/objects/HouseObjects/vacuumcleaner2.png",34,29,34,0.9,"stim/23.jpeg",2,3,3,NA,"HouseObjects",1,4,"left","left",0.553999901,1,1,1,1,NA,NA,NA,NA,NA,NA,NA,NA,NA,NA,NA,NA,NA,NA,NA,NA,NA,NA,NA,NA,NA,NA,NA,NA
"61","stim/objects/HouseObjects/teapot.png",35,29,35,0.5,"stim/43.jpeg",4,3,1,NA,"HouseObjects",1,4,"left","left",0.562999964,1,1,1,1,NA,NA,NA,NA,NA,NA,NA,NA,NA,NA,NA,NA,NA,NA,NA,NA,NA,NA,NA,NA,NA,NA,NA,NA
"103","stim/objects/HouseObjects/vacuumcleaner2.png",36,29,36,0.9,"stim/23.jpeg",2,3,3,NA,"HouseObjects",1,2,"left","left",0.529000044,1,1,1,1,NA,NA,NA,NA,NA,NA,NA,NA,NA,NA,NA,NA,NA,NA,NA,NA,NA,NA,NA,NA,NA,NA,NA,NA
"98","stim/objects/HouseObjects/vacuumcleaner.png",37,29,37,0.3,"stim/53.jpeg",5,3,2,NA,"HouseObjects",1,4,"left","right",0.629999876,0,0,1,1,NA,NA,NA,NA,NA,NA,NA,NA,NA,NA,NA,NA,NA,NA,NA,NA,NA,NA,NA,NA,NA,NA,NA,NA
"21","stim/objects/HouseObjects/safetypin2.png",38,29,38,0.7,"stim/62.jpeg",6,2,2,NA,"HouseObjects",1,3,"left","left",0.458999872,1,1,1,1,NA,NA,NA,NA,NA,NA,NA,NA,NA,NA,NA,NA,NA,NA,NA,NA,NA,NA,NA,NA,NA,NA,NA,NA
"104","stim/objects/HouseObjects/vacuumcleaner2.png",39,29,39,0.9,"stim/23.jpeg",2,3,3,NA,"HouseObjects",1,4,"left","left",0.512999773,1,1,1,1,NA,NA,NA,NA,NA,NA,NA,NA,NA,NA,NA,NA,NA,NA,NA,NA,NA,NA,NA,NA,NA,NA,NA,NA
"187","stim/objects/Instruments/trombone2.png",40,29,40,0.9,"stim/13.jpeg",1,3,3,NA,"Instruments",2,3,"right","right",0.514999866,1,1,1,1,NA,NA,NA,NA,NA,NA,NA,NA,NA,NA,NA,NA,NA,NA,NA,NA,NA,NA,NA,NA,NA,NA,NA,NA
"55","stim/objects/HouseObjects/spraybottle.png",41,29,41,0.5,"stim/42.jpeg",4,2,1,NA,"HouseObjects",1,2,"left","left",0.542999983,1,1,1,1,NA,NA,NA,NA,NA,NA,NA,NA,NA,NA,NA,NA,NA,NA,NA,NA,NA,NA,NA,NA,NA,NA,NA,NA
"134","stim/objects/Instruments/saxophone2.png",42,29,42,0.3,"stim/62.jpeg",6,2,2,NA,"Instruments",2,4,"right","left",0.565999985,0,0,1,1,NA,NA,NA,NA,NA,NA,NA,NA,NA,NA,NA,NA,NA,NA,NA,NA,NA,NA,NA,NA,NA,NA,NA,NA
"78","stim/objects/HouseObjects/thread2.png",43,29,43,0.9,"stim/21.jpeg",2,1,3,NA,"HouseObjects",1,2,"left","left",0.569999933,1,1,1,1,NA,NA,NA,NA,NA,NA,NA,NA,NA,NA,NA,NA,NA,NA,NA,NA,NA,NA,NA,NA,NA,NA,NA,NA
"62","stim/objects/HouseObjects/teapot.png",44,29,44,0.5,"stim/43.jpeg",4,3,1,NA,"HouseObjects",1,4,"left","left",0.545999765,1,1,1,1,NA,NA,NA,NA,NA,NA,NA,NA,NA,NA,NA,NA,NA,NA,NA,NA,NA,NA,NA,NA,NA,NA,NA,NA
"135","stim/objects/Instruments/saxophone2.png",45,29,45,0.3,"stim/62.jpeg",6,2,2,NA,"Instruments",2,3,"right","left",0.444999933,0,0,1,1,NA,NA,NA,NA,NA,NA,NA,NA,NA,NA,NA,NA,NA,NA,NA,NA,NA,NA,NA,NA,NA,NA,NA,NA
"142","stim/objects/Instruments/speaker2.png",46,29,46,0.3,"stim/63.jpeg",6,3,2,NA,"Instruments",2,4,"right","left",0.5,0,0,1,1,NA,NA,NA,NA,NA,NA,NA,NA,NA,NA,NA,NA,NA,NA,NA,NA,NA,NA,NA,NA,NA,NA,NA,NA
"129","stim/objects/Instruments/saxophone.png",47,29,47,0.5,"stim/32.jpeg",3,2,1,NA,"Instruments",2,1,"right","",NA,0,0,1,1,NA,NA,NA,NA,NA,NA,NA,NA,NA,NA,NA,NA,NA,NA,NA,NA,NA,NA,NA,NA,NA,NA,NA,NA
"127","stim/objects/Instruments/record_player2.png",48,29,48,0.3,"stim/61.jpeg",6,1,2,NA,"Instruments",2,1,"right","left",0.530999899,0,0,1,1,NA,NA,NA,NA,NA,NA,NA,NA,NA,NA,NA,NA,NA,NA,NA,NA,NA,NA,NA,NA,NA,NA,NA,NA
"1","stim/objects/HouseObjects/rug.png",49,29,49,0.5,"stim/31.jpeg",3,1,1,NA,"HouseObjects",1,1,"left","left",0.565999746,1,1,1,1,NA,NA,NA,NA,NA,NA,NA,NA,NA,NA,NA,NA,NA,NA,NA,NA,NA,NA,NA,NA,NA,NA,NA,NA
"73","stim/objects/HouseObjects/thread.png",50,29,50,0.3,"stim/51.jpeg",5,1,2,NA,"HouseObjects",1,2,"left","right",0.756999969,0,0,1,1,NA,NA,NA,NA,NA,NA,NA,NA,NA,NA,NA,NA,NA,NA,NA,NA,NA,NA,NA,NA,NA,NA,NA,NA
"30","stim/objects/HouseObjects/saw2.png",51,29,51,0.7,"stim/63.jpeg",6,3,2,NA,"HouseObjects",1,4,"left","left",0.565000057,1,1,1,1,NA,NA,NA,NA,NA,NA,NA,NA,NA,NA,NA,NA,NA,NA,NA,NA,NA,NA,NA,NA,NA,NA,NA,NA
"188","stim/objects/Instruments/trombone2.png",52,29,52,0.9,"stim/13.jpeg",1,3,3,NA,"Instruments",2,2,"right","left",0.523000002,0,0,1,1,NA,NA,NA,NA,NA,NA,NA,NA,NA,NA,NA,NA,NA,NA,NA,NA,NA,NA,NA,NA,NA,NA,NA,NA
"66","stim/objects/HouseObjects/teapot2.png",53,29,53,0.1,"stim/13.jpeg",1,3,3,NA,"HouseObjects",1,1,"left","right",0.394999981,0,0,1,1,NA,NA,NA,NA,NA,NA,NA,NA,NA,NA,NA,NA,NA,NA,NA,NA,NA,NA,NA,NA,NA,NA,NA,NA
"150","stim/objects/Instruments/tambourine2.png",54,29,54,0.3,"stim/64.jpeg",6,4,2,NA,"Instruments",2,4,"right","left",0.516000032,0,0,1,1,NA,NA,NA,NA,NA,NA,NA,NA,NA,NA,NA,NA,NA,NA,NA,NA,NA,NA,NA,NA,NA,NA,NA,NA
"31","stim/objects/HouseObjects/saw2.png",55,29,55,0.7,"stim/63.jpeg",6,3,2,NA,"HouseObjects",1,3,"left","left",0.509999752,1,1,1,1,NA,NA,NA,NA,NA,NA,NA,NA,NA,NA,NA,NA,NA,NA,NA,NA,NA,NA,NA,NA,NA,NA,NA,NA
"182","stim/objects/Instruments/trombone.png",56,29,56,0.5,"stim/43.jpeg",4,3,1,NA,"Instruments",2,4,"right","left",0.520999908,0,0,1,1,NA,NA,NA,NA,NA,NA,NA,NA,NA,NA,NA,NA,NA,NA,NA,NA,NA,NA,NA,NA,NA,NA,NA,NA
"167","stim/objects/Instruments/triangle.png",57,29,57,0.5,"stim/42.jpeg",4,2,1,NA,"Instruments",2,2,"right","left",0.588000059,0,0,1,1,NA,NA,NA,NA,NA,NA,NA,NA,NA,NA,NA,NA,NA,NA,NA,NA,NA,NA,NA,NA,NA,NA,NA,NA
"114","stim/objects/HouseObjects/wateringcan2.png",58,29,58,0.9,"stim/24.jpeg",2,4,3,NA,"HouseObjects",1,2,"left","left",0.541000128,1,1,1,1,NA,NA,NA,NA,NA,NA,NA,NA,NA,NA,NA,NA,NA,NA,NA,NA,NA,NA,NA,NA,NA,NA,NA,NA
"79","stim/objects/HouseObjects/thread2.png",59,29,59,0.9,"stim/21.jpeg",2,1,3,NA,"HouseObjects",1,4,"left","left",0.542999983,1,1,1,1,NA,NA,NA,NA,NA,NA,NA,NA,NA,NA,NA,NA,NA,NA,NA,NA,NA,NA,NA,NA,NA,NA,NA,NA
"233","stim/objects/Instruments/xylophone.png",60,29,60,0.7,"stim/54.jpeg",5,4,2,NA,"Instruments",2,4,"right","right",0.614999771,1,1,1,1,NA,NA,NA,NA,NA,NA,NA,NA,NA,NA,NA,NA,NA,NA,NA,NA,NA,NA,NA,NA,NA,NA,NA,NA
"225","stim/objects/Instruments/vuvuzela.png",61,29,61,0.7,"stim/53.jpeg",5,3,2,NA,"Instruments",2,2,"right","right",0.404999971,1,1,1,1,NA,NA,NA,NA,NA,NA,NA,NA,NA,NA,NA,NA,NA,NA,NA,NA,NA,NA,NA,NA,NA,NA,NA,NA
"189","stim/objects/Instruments/trombone2.png",62,29,62,0.9,"stim/13.jpeg",1,3,3,NA,"Instruments",2,2,"right","right",0.664999962,1,1,1,1,NA,NA,NA,NA,NA,NA,NA,NA,NA,NA,NA,NA,NA,NA,NA,NA,NA,NA,NA,NA,NA,NA,NA,NA
"32","stim/objects/HouseObjects/saw2.png",63,29,63,0.7,"stim/63.jpeg",6,3,2,NA,"HouseObjects",1,3,"left","left",0.508999825,1,1,1,1,NA,NA,NA,NA,NA,NA,NA,NA,NA,NA,NA,NA,NA,NA,NA,NA,NA,NA,NA,NA,NA,NA,NA,NA
"226","stim/objects/Instruments/vuvuzela.png",64,29,64,0.7,"stim/53.jpeg",5,3,2,NA,"Instruments",2,1,"right","",NA,0,0,1,1,NA,NA,NA,NA,NA,NA,NA,NA,NA,NA,NA,NA,NA,NA,NA,NA,NA,NA,NA,NA,NA,NA,NA,NA
"183","stim/objects/Instruments/trombone.png",65,29,65,0.5,"stim/43.jpeg",4,3,1,NA,"Instruments",2,3,"right","left",0.549000025,0,0,1,1,NA,NA,NA,NA,NA,NA,NA,NA,NA,NA,NA,NA,NA,NA,NA,NA,NA,NA,NA,NA,NA,NA,NA,NA
"115","stim/objects/HouseObjects/wateringcan2.png",66,29,66,0.9,"stim/24.jpeg",2,4,3,NA,"HouseObjects",1,2,"left","right",0.475999832,0,0,1,1,NA,NA,NA,NA,NA,NA,NA,NA,NA,NA,NA,NA,NA,NA,NA,NA,NA,NA,NA,NA,NA,NA,NA,NA
"2","stim/objects/HouseObjects/rug.png",67,29,67,0.5,"stim/31.jpeg",3,1,1,NA,"HouseObjects",1,3,"left","right",0.751999855,0,0,1,1,NA,NA,NA,NA,NA,NA,NA,NA,NA,NA,NA,NA,NA,NA,NA,NA,NA,NA,NA,NA,NA,NA,NA,NA
"216","stim/objects/Instruments/tuba2.png",68,29,68,0.1,"stim/21.jpeg",2,1,3,NA,"Instruments",2,1,"right","left",0.614000082,0,0,1,1,NA,NA,NA,NA,NA,NA,NA,NA,NA,NA,NA,NA,NA,NA,NA,NA,NA,NA,NA,NA,NA,NA,NA,NA
"26","stim/objects/HouseObjects/saw.png",69,29,69,0.5,"stim/33.jpeg",3,3,1,NA,"HouseObjects",1,3,"left","",NA,0,0,1,1,NA,NA,NA,NA,NA,NA,NA,NA,NA,NA,NA,NA,NA,NA,NA,NA,NA,NA,NA,NA,NA,NA,NA,NA
"153","stim/objects/Instruments/timbal.png",70,29,70,0.5,"stim/41.jpeg",4,1,1,NA,"Instruments",2,2,"right","left",0.623000145,0,0,1,1,NA,NA,NA,NA,NA,NA,NA,NA,NA,NA,NA,NA,NA,NA,NA,NA,NA,NA,NA,NA,NA,NA,NA,NA
"151","stim/objects/Instruments/tambourine2.png",71,29,71,0.3,"stim/64.jpeg",6,4,2,NA,"Instruments",2,1,"right","left",0.703000069,0,0,1,1,NA,NA,NA,NA,NA,NA,NA,NA,NA,NA,NA,NA,NA,NA,NA,NA,NA,NA,NA,NA,NA,NA,NA,NA
"209","stim/objects/Instruments/tuba.png",72,29,72,0.7,"stim/51.jpeg",5,1,2,NA,"Instruments",2,1,"right","right",0.745000124,1,1,1,1,NA,NA,NA,NA,NA,NA,NA,NA,NA,NA,NA,NA,NA,NA,NA,NA,NA,NA,NA,NA,NA,NA,NA,NA
"85","stim/objects/HouseObjects/towel.png",73,29,73,0.3,"stim/52.jpeg",5,2,2,NA,"HouseObjects",1,1,"left","right",0.409999847,0,0,1,1,NA,NA,NA,NA,NA,NA,NA,NA,NA,NA,NA,NA,NA,NA,NA,NA,NA,NA,NA,NA,NA,NA,NA,NA
"88","stim/objects/HouseObjects/towel2.png",74,29,74,0.9,"stim/22.jpeg",2,2,3,NA,"HouseObjects",1,2,"left","left",0.527999878,1,1,1,1,NA,NA,NA,NA,NA,NA,NA,NA,NA,NA,NA,NA,NA,NA,NA,NA,NA,NA,NA,NA,NA,NA,NA,NA
"89","stim/objects/HouseObjects/towel2.png",75,29,75,0.9,"stim/22.jpeg",2,2,3,NA,"HouseObjects",1,1,"left","left",0.551000118,1,1,1,1,NA,NA,NA,NA,NA,NA,NA,NA,NA,NA,NA,NA,NA,NA,NA,NA,NA,NA,NA,NA,NA,NA,NA,NA
"33","stim/objects/HouseObjects/saw2.png",76,29,76,0.7,"stim/63.jpeg",6,3,2,NA,"HouseObjects",1,3,"left","left",0.534999847,1,1,1,1,NA,NA,NA,NA,NA,NA,NA,NA,NA,NA,NA,NA,NA,NA,NA,NA,NA,NA,NA,NA,NA,NA,NA,NA
"6","stim/objects/HouseObjects/rug2.png",77,29,77,0.7,"stim/61.jpeg",6,1,2,NA,"HouseObjects",1,2,"left","left",0.541999817,1,1,1,1,NA,NA,NA,NA,NA,NA,NA,NA,NA,NA,NA,NA,NA,NA,NA,NA,NA,NA,NA,NA,NA,NA,NA,NA
"219","stim/objects/Instruments/violin.png",78,29,78,0.7,"stim/52.jpeg",5,2,2,NA,"Instruments",2,2,"right","right",0.69299984,1,1,1,1,NA,NA,NA,NA,NA,NA,NA,NA,NA,NA,NA,NA,NA,NA,NA,NA,NA,NA,NA,NA,NA,NA,NA,NA
"234","stim/objects/Instruments/xylophone.png",79,29,79,0.7,"stim/54.jpeg",5,4,2,NA,"Instruments",2,1,"right","right",0.687000036,1,1,1,1,NA,NA,NA,NA,NA,NA,NA,NA,NA,NA,NA,NA,NA,NA,NA,NA,NA,NA,NA,NA,NA,NA,NA,NA
"80","stim/objects/HouseObjects/thread2.png",80,29,80,0.9,"stim/21.jpeg",2,1,3,NA,"HouseObjects",1,4,"left","left",0.56799984,1,1,1,1,NA,NA,NA,NA,NA,NA,NA,NA,NA,NA,NA,NA,NA,NA,NA,NA,NA,NA,NA,NA,NA,NA,NA,NA
"34","stim/objects/HouseObjects/saw2.png",81,29,81,0.7,"stim/63.jpeg",6,3,2,NA,"HouseObjects",1,2,"left","left",0.490999937,1,1,1,1,NA,NA,NA,NA,NA,NA,NA,NA,NA,NA,NA,NA,NA,NA,NA,NA,NA,NA,NA,NA,NA,NA,NA,NA
"50","stim/objects/HouseObjects/sponge.png",82,29,82,0.5,"stim/41.jpeg",4,1,1,NA,"HouseObjects",1,4,"left","left",0.597000122,1,1,1,1,NA,NA,NA,NA,NA,NA,NA,NA,NA,NA,NA,NA,NA,NA,NA,NA,NA,NA,NA,NA,NA,NA,NA,NA
"154","stim/objects/Instruments/timbal.png",83,29,83,0.5,"stim/41.jpeg",4,1,1,NA,"Instruments",2,2,"right","left",0.459000111,0,0,1,1,NA,NA,NA,NA,NA,NA,NA,NA,NA,NA,NA,NA,NA,NA,NA,NA,NA,NA,NA,NA,NA,NA,NA,NA
"235","stim/objects/Instruments/xylophone.png",84,29,84,0.7,"stim/54.jpeg",5,4,2,NA,"Instruments",2,1,"right","",NA,0,0,1,1,NA,NA,NA,NA,NA,NA,NA,NA,NA,NA,NA,NA,NA,NA,NA,NA,NA,NA,NA,NA,NA,NA,NA,NA
"3","stim/objects/HouseObjects/rug.png",85,29,85,0.5,"stim/31.jpeg",3,1,1,NA,"HouseObjects",1,2,"left","right",0.638000011,0,0,1,1,NA,NA,NA,NA,NA,NA,NA,NA,NA,NA,NA,NA,NA,NA,NA,NA,NA,NA,NA,NA,NA,NA,NA,NA
"173","stim/objects/Instruments/triangle2.png",86,29,86,0.9,"stim/12.jpeg",1,2,3,NA,"Instruments",2,3,"right","right",0.619999886,1,1,1,1,NA,NA,NA,NA,NA,NA,NA,NA,NA,NA,NA,NA,NA,NA,NA,NA,NA,NA,NA,NA,NA,NA,NA,NA
"197","stim/objects/Instruments/trumpet.png",87,29,87,0.5,"stim/44.jpeg",4,4,1,NA,"Instruments",2,1,"right","",NA,0,0,1,1,NA,NA,NA,NA,NA,NA,NA,NA,NA,NA,NA,NA,NA,NA,NA,NA,NA,NA,NA,NA,NA,NA,NA,NA
"74","stim/objects/HouseObjects/thread.png",88,29,88,0.3,"stim/51.jpeg",5,1,2,NA,"HouseObjects",1,4,"left","right",0.704999924,0,0,1,1,NA,NA,NA,NA,NA,NA,NA,NA,NA,NA,NA,NA,NA,NA,NA,NA,NA,NA,NA,NA,NA,NA,NA,NA
"116","stim/objects/HouseObjects/wateringcan2.png",89,29,89,0.9,"stim/24.jpeg",2,4,3,NA,"HouseObjects",1,4,"left","left",0.538999796,1,1,1,1,NA,NA,NA,NA,NA,NA,NA,NA,NA,NA,NA,NA,NA,NA,NA,NA,NA,NA,NA,NA,NA,NA,NA,NA
"117","stim/objects/HouseObjects/wateringcan2.png",90,29,90,0.9,"stim/24.jpeg",2,4,3,NA,"HouseObjects",1,4,"left","left",0.373000145,1,1,1,1,NA,NA,NA,NA,NA,NA,NA,NA,NA,NA,NA,NA,NA,NA,NA,NA,NA,NA,NA,NA,NA,NA,NA,NA
"7","stim/objects/HouseObjects/rug2.png",91,29,91,0.7,"stim/61.jpeg",6,1,2,NA,"HouseObjects",1,3,"left","left",0.505999804,1,1,1,1,NA,NA,NA,NA,NA,NA,NA,NA,NA,NA,NA,NA,NA,NA,NA,NA,NA,NA,NA,NA,NA,NA,NA,NA
"4","stim/objects/HouseObjects/rug.png",92,29,92,0.5,"stim/31.jpeg",3,1,1,NA,"HouseObjects",1,3,"left","left",0.461999893,1,1,1,1,NA,NA,NA,NA,NA,NA,NA,NA,NA,NA,NA,NA,NA,NA,NA,NA,NA,NA,NA,NA,NA,NA,NA,NA
"168","stim/objects/Instruments/triangle.png",93,29,93,0.5,"stim/42.jpeg",4,2,1,NA,"Instruments",2,1,"right","left",0.648999929,0,0,1,1,NA,NA,NA,NA,NA,NA,NA,NA,NA,NA,NA,NA,NA,NA,NA,NA,NA,NA,NA,NA,NA,NA,NA,NA
"210","stim/objects/Instruments/tuba.png",94,29,94,0.7,"stim/51.jpeg",5,1,2,NA,"Instruments",2,2,"right","right",0.629999876,1,1,1,1,NA,NA,NA,NA,NA,NA,NA,NA,NA,NA,NA,NA,NA,NA,NA,NA,NA,NA,NA,NA,NA,NA,NA,NA
"220","stim/objects/Instruments/violin.png",95,29,95,0.7,"stim/52.jpeg",5,2,2,NA,"Instruments",2,3,"right","",NA,0,0,1,1,NA,NA,NA,NA,NA,NA,NA,NA,NA,NA,NA,NA,NA,NA,NA,NA,NA,NA,NA,NA,NA,NA,NA,NA
"86","stim/objects/HouseObjects/towel.png",96,29,96,0.3,"stim/52.jpeg",5,2,2,NA,"HouseObjects",1,2,"left","right",0.451999903,0,0,1,1,NA,NA,NA,NA,NA,NA,NA,NA,NA,NA,NA,NA,NA,NA,NA,NA,NA,NA,NA,NA,NA,NA,NA,NA
"72","stim/objects/HouseObjects/thermometer2.png",97,29,97,0.1,"stim/14.jpeg",1,4,3,NA,"HouseObjects",1,3,"left","right",0.602999926,0,0,1,1,NA,NA,NA,NA,NA,NA,NA,NA,NA,NA,NA,NA,NA,NA,NA,NA,NA,NA,NA,NA,NA,NA,NA,NA
"130","stim/objects/Instruments/saxophone.png",98,29,98,0.5,"stim/32.jpeg",3,2,1,NA,"Instruments",2,1,"right","left",0.622999907,0,0,1,1,NA,NA,NA,NA,NA,NA,NA,NA,NA,NA,NA,NA,NA,NA,NA,NA,NA,NA,NA,NA,NA,NA,NA,NA
"227","stim/objects/Instruments/vuvuzela.png",99,29,99,0.7,"stim/53.jpeg",5,3,2,NA,"Instruments",2,4,"right","right",0.480000019,1,1,1,1,NA,NA,NA,NA,NA,NA,NA,NA,NA,NA,NA,NA,NA,NA,NA,NA,NA,NA,NA,NA,NA,NA,NA,NA
"43","stim/objects/HouseObjects/scale2.png",100,29,100,0.7,"stim/64.jpeg",6,4,2,NA,"HouseObjects",1,4,"left","left",0.638999939,1,1,1,1,NA,NA,NA,NA,NA,NA,NA,NA,NA,NA,NA,NA,NA,NA,NA,NA,NA,NA,NA,NA,NA,NA,NA,NA
"184","stim/objects/Instruments/trombone.png",101,29,101,0.5,"stim/43.jpeg",4,3,1,NA,"Instruments",2,3,"right","left",0.773999929,0,0,1,1,NA,NA,NA,NA,NA,NA,NA,NA,NA,NA,NA,NA,NA,NA,NA,NA,NA,NA,NA,NA,NA,NA,NA,NA
"27","stim/objects/HouseObjects/saw.png",102,29,102,0.5,"stim/33.jpeg",3,3,1,NA,"HouseObjects",1,2,"left","",NA,0,0,1,1,NA,NA,NA,NA,NA,NA,NA,NA,NA,NA,NA,NA,NA,NA,NA,NA,NA,NA,NA,NA,NA,NA,NA,NA
"160","stim/objects/Instruments/timbal2.png",103,29,103,0.9,"stim/11.jpeg",1,1,3,NA,"Instruments",2,4,"right","right",0.681999922,1,1,1,1,NA,NA,NA,NA,NA,NA,NA,NA,NA,NA,NA,NA,NA,NA,NA,NA,NA,NA,NA,NA,NA,NA,NA,NA
"81","stim/objects/HouseObjects/thread2.png",104,29,104,0.9,"stim/21.jpeg",2,1,3,NA,"HouseObjects",1,2,"left","left",0.563999891,1,1,1,1,NA,NA,NA,NA,NA,NA,NA,NA,NA,NA,NA,NA,NA,NA,NA,NA,NA,NA,NA,NA,NA,NA,NA,NA
"121","stim/objects/Instruments/record_player.png",105,29,105,0.5,"stim/31.jpeg",3,1,1,NA,"Instruments",2,2,"right","right",0.802999973,1,1,1,1,NA,NA,NA,NA,NA,NA,NA,NA,NA,NA,NA,NA,NA,NA,NA,NA,NA,NA,NA,NA,NA,NA,NA,NA
"90","stim/objects/HouseObjects/towel2.png",106,29,106,0.9,"stim/22.jpeg",2,2,3,NA,"HouseObjects",1,3,"left","left",0.470999956,1,1,1,1,NA,NA,NA,NA,NA,NA,NA,NA,NA,NA,NA,NA,NA,NA,NA,NA,NA,NA,NA,NA,NA,NA,NA,NA
"202","stim/objects/Instruments/trumpet2.png",107,29,107,0.9,"stim/14.jpeg",1,4,3,NA,"Instruments",2,2,"right","right",0.528999805,1,1,1,1,NA,NA,NA,NA,NA,NA,NA,NA,NA,NA,NA,NA,NA,NA,NA,NA,NA,NA,NA,NA,NA,NA,NA,NA
"63","stim/objects/HouseObjects/teapot.png",108,29,108,0.5,"stim/43.jpeg",4,3,1,NA,"HouseObjects",1,2,"left","left",0.601000071,1,1,1,1,NA,NA,NA,NA,NA,NA,NA,NA,NA,NA,NA,NA,NA,NA,NA,NA,NA,NA,NA,NA,NA,NA,NA,NA
"137","stim/objects/Instruments/speaker.png",109,29,109,0.5,"stim/33.jpeg",3,3,1,NA,"Instruments",2,3,"right","right",0.574999809,1,1,1,1,NA,NA,NA,NA,NA,NA,NA,NA,NA,NA,NA,NA,NA,NA,NA,NA,NA,NA,NA,NA,NA,NA,NA,NA
"198","stim/objects/Instruments/trumpet.png",110,29,110,0.5,"stim/44.jpeg",4,4,1,NA,"Instruments",2,4,"right","left",0.662999868,0,0,1,1,NA,NA,NA,NA,NA,NA,NA,NA,NA,NA,NA,NA,NA,NA,NA,NA,NA,NA,NA,NA,NA,NA,NA,NA
"155","stim/objects/Instruments/timbal.png",111,29,111,0.5,"stim/41.jpeg",4,1,1,NA,"Instruments",2,4,"right","",NA,0,0,1,1,NA,NA,NA,NA,NA,NA,NA,NA,NA,NA,NA,NA,NA,NA,NA,NA,NA,NA,NA,NA,NA,NA,NA,NA
"82","stim/objects/HouseObjects/thread2.png",112,29,112,0.9,"stim/21.jpeg",2,1,3,NA,"HouseObjects",1,1,"left","left",0.585000038,1,1,1,1,NA,NA,NA,NA,NA,NA,NA,NA,NA,NA,NA,NA,NA,NA,NA,NA,NA,NA,NA,NA,NA,NA,NA,NA
"118","stim/objects/HouseObjects/wateringcan2.png",113,29,113,0.9,"stim/24.jpeg",2,4,3,NA,"HouseObjects",1,3,"left","left",0.489999771,1,1,1,1,NA,NA,NA,NA,NA,NA,NA,NA,NA,NA,NA,NA,NA,NA,NA,NA,NA,NA,NA,NA,NA,NA,NA,NA
"211","stim/objects/Instruments/tuba.png",114,29,114,0.7,"stim/51.jpeg",5,1,2,NA,"Instruments",2,1,"right","right",0.717000008,1,1,1,1,NA,NA,NA,NA,NA,NA,NA,NA,NA,NA,NA,NA,NA,NA,NA,NA,NA,NA,NA,NA,NA,NA,NA,NA
"28","stim/objects/HouseObjects/saw.png",115,29,115,0.5,"stim/33.jpeg",3,3,1,NA,"HouseObjects",1,1,"left","left",0.569000006,1,1,1,1,NA,NA,NA,NA,NA,NA,NA,NA,NA,NA,NA,NA,NA,NA,NA,NA,NA,NA,NA,NA,NA,NA,NA,NA
"174","stim/objects/Instruments/triangle2.png",116,29,116,0.9,"stim/12.jpeg",1,2,3,NA,"Instruments",2,2,"right","right",0.615999937,1,1,1,1,NA,NA,NA,NA,NA,NA,NA,NA,NA,NA,NA,NA,NA,NA,NA,NA,NA,NA,NA,NA,NA,NA,NA,NA
"51","stim/objects/HouseObjects/sponge.png",117,29,117,0.5,"stim/41.jpeg",4,1,1,NA,"HouseObjects",1,3,"left","left",0.592999935,1,1,1,1,NA,NA,NA,NA,NA,NA,NA,NA,NA,NA,NA,NA,NA,NA,NA,NA,NA,NA,NA,NA,NA,NA,NA,NA
"175","stim/objects/Instruments/triangle2.png",118,29,118,0.9,"stim/12.jpeg",1,2,3,NA,"Instruments",2,3,"right","right",0.540999889,1,1,1,1,NA,NA,NA,NA,NA,NA,NA,NA,NA,NA,NA,NA,NA,NA,NA,NA,NA,NA,NA,NA,NA,NA,NA,NA
"240","stim/objects/Instruments/xylophone2.png",119,29,119,0.1,"stim/24.jpeg",2,4,3,NA,"Instruments",2,3,"right","left",0.474999905,0,0,1,1,NA,NA,NA,NA,NA,NA,NA,NA,NA,NA,NA,NA,NA,NA,NA,NA,NA,NA,NA,NA,NA,NA,NA,NA
"122","stim/objects/Instruments/record_player.png",120,29,120,0.5,"stim/31.jpeg",3,1,1,NA,"Instruments",2,1,"right","right",0.674999952,1,1,1,1,NA,NA,NA,NA,NA,NA,NA,NA,NA,NA,NA,NA,NA,NA,NA,NA,NA,NA,NA,NA,NA,NA,NA,NA
"37","stim/objects/HouseObjects/scale.png",121,29,121,0.5,"stim/34.jpeg",3,4,1,NA,"HouseObjects",1,3,"left","",NA,0,0,1,1,NA,NA,NA,NA,NA,NA,NA,NA,NA,NA,NA,NA,NA,NA,NA,NA,NA,NA,NA,NA,NA,NA,NA,NA
"161","stim/objects/Instruments/timbal2.png",122,29,122,0.9,"stim/11.jpeg",1,1,3,NA,"Instruments",2,1,"right","right",0.65199995,1,1,1,1,NA,NA,NA,NA,NA,NA,NA,NA,NA,NA,NA,NA,NA,NA,NA,NA,NA,NA,NA,NA,NA,NA,NA,NA
"91","stim/objects/HouseObjects/towel2.png",123,29,123,0.9,"stim/22.jpeg",2,2,3,NA,"HouseObjects",1,2,"left","left",0.648999929,1,1,1,1,NA,NA,NA,NA,NA,NA,NA,NA,NA,NA,NA,NA,NA,NA,NA,NA,NA,NA,NA,NA,NA,NA,NA,NA
"221","stim/objects/Instruments/violin.png",124,29,124,0.7,"stim/52.jpeg",5,2,2,NA,"Instruments",2,2,"right","right",0.710999966,1,1,1,1,NA,NA,NA,NA,NA,NA,NA,NA,NA,NA,NA,NA,NA,NA,NA,NA,NA,NA,NA,NA,NA,NA,NA,NA
"169","stim/objects/Instruments/triangle.png",125,29,125,0.5,"stim/42.jpeg",4,2,1,NA,"Instruments",2,3,"right","left",0.650999784,0,0,1,1,NA,NA,NA,NA,NA,NA,NA,NA,NA,NA,NA,NA,NA,NA,NA,NA,NA,NA,NA,NA,NA,NA,NA,NA
"8","stim/objects/HouseObjects/rug2.png",126,29,126,0.7,"stim/61.jpeg",6,1,2,NA,"HouseObjects",1,3,"left","left",0.659999847,1,1,1,1,NA,NA,NA,NA,NA,NA,NA,NA,NA,NA,NA,NA,NA,NA,NA,NA,NA,NA,NA,NA,NA,NA,NA,NA
"190","stim/objects/Instruments/trombone2.png",127,29,127,0.9,"stim/13.jpeg",1,3,3,NA,"Instruments",2,3,"right","right",0.640999794,1,1,1,1,NA,NA,NA,NA,NA,NA,NA,NA,NA,NA,NA,NA,NA,NA,NA,NA,NA,NA,NA,NA,NA,NA,NA,NA
"136","stim/objects/Instruments/saxophone2.png",128,29,128,0.3,"stim/62.jpeg",6,2,2,NA,"Instruments",2,4,"right","left",0.756999969,0,0,1,1,NA,NA,NA,NA,NA,NA,NA,NA,NA,NA,NA,NA,NA,NA,NA,NA,NA,NA,NA,NA,NA,NA,NA,NA
"22","stim/objects/HouseObjects/safetypin2.png",129,29,129,0.7,"stim/62.jpeg",6,2,2,NA,"HouseObjects",1,2,"left","left",0.565999985,1,1,1,1,NA,NA,NA,NA,NA,NA,NA,NA,NA,NA,NA,NA,NA,NA,NA,NA,NA,NA,NA,NA,NA,NA,NA,NA
"138","stim/objects/Instruments/speaker.png",130,29,130,0.5,"stim/33.jpeg",3,3,1,NA,"Instruments",2,2,"right","left",0.616999865,0,0,1,1,NA,NA,NA,NA,NA,NA,NA,NA,NA,NA,NA,NA,NA,NA,NA,NA,NA,NA,NA,NA,NA,NA,NA,NA
"92","stim/objects/HouseObjects/towel2.png",131,29,131,0.9,"stim/22.jpeg",2,2,3,NA,"HouseObjects",1,4,"left","left",0.612999916,1,1,1,1,NA,NA,NA,NA,NA,NA,NA,NA,NA,NA,NA,NA,NA,NA,NA,NA,NA,NA,NA,NA,NA,NA,NA,NA
"105","stim/objects/HouseObjects/vacuumcleaner2.png",132,29,132,0.9,"stim/23.jpeg",2,3,3,NA,"HouseObjects",1,3,"left","left",0.546999931,1,1,1,1,NA,NA,NA,NA,NA,NA,NA,NA,NA,NA,NA,NA,NA,NA,NA,NA,NA,NA,NA,NA,NA,NA,NA,NA
"123","stim/objects/Instruments/record_player.png",133,29,133,0.5,"stim/31.jpeg",3,1,1,NA,"Instruments",2,1,"right","right",0.723999977,1,1,1,1,NA,NA,NA,NA,NA,NA,NA,NA,NA,NA,NA,NA,NA,NA,NA,NA,NA,NA,NA,NA,NA,NA,NA,NA
"9","stim/objects/HouseObjects/rug2.png",134,29,134,0.7,"stim/61.jpeg",6,1,2,NA,"HouseObjects",1,2,"left","left",0.552000046,1,1,1,1,NA,NA,NA,NA,NA,NA,NA,NA,NA,NA,NA,NA,NA,NA,NA,NA,NA,NA,NA,NA,NA,NA,NA,NA
"44","stim/objects/HouseObjects/scale2.png",135,29,135,0.7,"stim/64.jpeg",6,4,2,NA,"HouseObjects",1,2,"left","left",0.585999966,1,1,1,1,NA,NA,NA,NA,NA,NA,NA,NA,NA,NA,NA,NA,NA,NA,NA,NA,NA,NA,NA,NA,NA,NA,NA,NA
"212","stim/objects/Instruments/tuba.png",136,29,136,0.7,"stim/51.jpeg",5,1,2,NA,"Instruments",2,2,"right","left",0.476000071,0,0,1,1,NA,NA,NA,NA,NA,NA,NA,NA,NA,NA,NA,NA,NA,NA,NA,NA,NA,NA,NA,NA,NA,NA,NA,NA
"176","stim/objects/Instruments/triangle2.png",137,29,137,0.9,"stim/12.jpeg",1,2,3,NA,"Instruments",2,4,"right","left",0.529000044,0,0,1,1,NA,NA,NA,NA,NA,NA,NA,NA,NA,NA,NA,NA,NA,NA,NA,NA,NA,NA,NA,NA,NA,NA,NA,NA
"162","stim/objects/Instruments/timbal2.png",138,29,138,0.9,"stim/11.jpeg",1,1,3,NA,"Instruments",2,2,"right","right",0.615999937,1,1,1,1,NA,NA,NA,NA,NA,NA,NA,NA,NA,NA,NA,NA,NA,NA,NA,NA,NA,NA,NA,NA,NA,NA,NA,NA
"83","stim/objects/HouseObjects/thread2.png",139,29,139,0.9,"stim/21.jpeg",2,1,3,NA,"HouseObjects",1,4,"left","left",0.572999954,1,1,1,1,NA,NA,NA,NA,NA,NA,NA,NA,NA,NA,NA,NA,NA,NA,NA,NA,NA,NA,NA,NA,NA,NA,NA,NA
"124","stim/objects/Instruments/record_player.png",140,29,140,0.5,"stim/31.jpeg",3,1,1,NA,"Instruments",2,1,"right","right",0.728999853,1,1,1,1,NA,NA,NA,NA,NA,NA,NA,NA,NA,NA,NA,NA,NA,NA,NA,NA,NA,NA,NA,NA,NA,NA,NA,NA
"93","stim/objects/HouseObjects/towel2.png",141,29,141,0.9,"stim/22.jpeg",2,2,3,NA,"HouseObjects",1,2,"left","left",0.527999878,1,1,1,1,NA,NA,NA,NA,NA,NA,NA,NA,NA,NA,NA,NA,NA,NA,NA,NA,NA,NA,NA,NA,NA,NA,NA,NA
"224","stim/objects/Instruments/violin2.png",142,29,142,0.1,"stim/22.jpeg",2,2,3,NA,"Instruments",2,4,"right","left",0.503999949,0,0,1,1,NA,NA,NA,NA,NA,NA,NA,NA,NA,NA,NA,NA,NA,NA,NA,NA,NA,NA,NA,NA,NA,NA,NA,NA
"147","stim/objects/Instruments/tambourine.png",143,29,143,0.5,"stim/34.jpeg",3,4,1,NA,"Instruments",2,4,"right","left",0.722999811,0,0,1,1,NA,NA,NA,NA,NA,NA,NA,NA,NA,NA,NA,NA,NA,NA,NA,NA,NA,NA,NA,NA,NA,NA,NA,NA
"143","stim/objects/Instruments/speaker2.png",144,29,144,0.3,"stim/63.jpeg",6,3,2,NA,"Instruments",2,3,"right","left",0.724999905,0,0,1,1,NA,NA,NA,NA,NA,NA,NA,NA,NA,NA,NA,NA,NA,NA,NA,NA,NA,NA,NA,NA,NA,NA,NA,NA
"106","stim/objects/HouseObjects/vacuumcleaner2.png",145,29,145,0.9,"stim/23.jpeg",2,3,3,NA,"HouseObjects",1,4,"left","left",0.474999905,1,1,1,1,NA,NA,NA,NA,NA,NA,NA,NA,NA,NA,NA,NA,NA,NA,NA,NA,NA,NA,NA,NA,NA,NA,NA,NA
"35","stim/objects/HouseObjects/saw2.png",146,29,146,0.7,"stim/63.jpeg",6,3,2,NA,"HouseObjects",1,4,"left","left",0.520999908,1,1,1,1,NA,NA,NA,NA,NA,NA,NA,NA,NA,NA,NA,NA,NA,NA,NA,NA,NA,NA,NA,NA,NA,NA,NA,NA
"56","stim/objects/HouseObjects/spraybottle.png",147,29,147,0.5,"stim/42.jpeg",4,2,1,NA,"HouseObjects",1,4,"left","left",0.553999901,1,1,1,1,NA,NA,NA,NA,NA,NA,NA,NA,NA,NA,NA,NA,NA,NA,NA,NA,NA,NA,NA,NA,NA,NA,NA,NA
"64","stim/objects/HouseObjects/teapot.png",148,29,148,0.5,"stim/43.jpeg",4,3,1,NA,"HouseObjects",1,2,"left","left",0.527999878,1,1,1,1,NA,NA,NA,NA,NA,NA,NA,NA,NA,NA,NA,NA,NA,NA,NA,NA,NA,NA,NA,NA,NA,NA,NA,NA
"177","stim/objects/Instruments/triangle2.png",149,29,149,0.9,"stim/12.jpeg",1,2,3,NA,"Instruments",2,1,"right","right",0.558999777,1,1,1,1,NA,NA,NA,NA,NA,NA,NA,NA,NA,NA,NA,NA,NA,NA,NA,NA,NA,NA,NA,NA,NA,NA,NA,NA
"203","stim/objects/Instruments/trumpet2.png",150,29,150,0.9,"stim/14.jpeg",1,4,3,NA,"Instruments",2,2,"right","right",0.53399992,1,1,1,1,NA,NA,NA,NA,NA,NA,NA,NA,NA,NA,NA,NA,NA,NA,NA,NA,NA,NA,NA,NA,NA,NA,NA,NA
"204","stim/objects/Instruments/trumpet2.png",151,29,151,0.9,"stim/14.jpeg",1,4,3,NA,"Instruments",2,3,"right","left",0.414999962,0,0,1,1,NA,NA,NA,NA,NA,NA,NA,NA,NA,NA,NA,NA,NA,NA,NA,NA,NA,NA,NA,NA,NA,NA,NA,NA
"191","stim/objects/Instruments/trombone2.png",152,29,152,0.9,"stim/13.jpeg",1,3,3,NA,"Instruments",2,4,"right","right",0.483999729,1,1,1,1,NA,NA,NA,NA,NA,NA,NA,NA,NA,NA,NA,NA,NA,NA,NA,NA,NA,NA,NA,NA,NA,NA,NA,NA
"52","stim/objects/HouseObjects/sponge.png",153,29,153,0.5,"stim/41.jpeg",4,1,1,NA,"HouseObjects",1,4,"left","left",0.56099987,1,1,1,1,NA,NA,NA,NA,NA,NA,NA,NA,NA,NA,NA,NA,NA,NA,NA,NA,NA,NA,NA,NA,NA,NA,NA,NA
"139","stim/objects/Instruments/speaker.png",154,29,154,0.5,"stim/33.jpeg",3,3,1,NA,"Instruments",2,1,"right","right",0.816999912,1,1,1,1,NA,NA,NA,NA,NA,NA,NA,NA,NA,NA,NA,NA,NA,NA,NA,NA,NA,NA,NA,NA,NA,NA,NA,NA
"144","stim/objects/Instruments/speaker2.png",155,29,155,0.3,"stim/63.jpeg",6,3,2,NA,"Instruments",2,1,"right","left",0.604000092,0,0,1,1,NA,NA,NA,NA,NA,NA,NA,NA,NA,NA,NA,NA,NA,NA,NA,NA,NA,NA,NA,NA,NA,NA,NA,NA
"110","stim/objects/HouseObjects/wateringcan.png",156,29,156,0.3,"stim/54.jpeg",5,4,2,NA,"HouseObjects",1,2,"left","right",0.809000015,0,0,1,1,NA,NA,NA,NA,NA,NA,NA,NA,NA,NA,NA,NA,NA,NA,NA,NA,NA,NA,NA,NA,NA,NA,NA,NA
"236","stim/objects/Instruments/xylophone.png",157,29,157,0.7,"stim/54.jpeg",5,4,2,NA,"Instruments",2,1,"right","",NA,0,0,1,1,NA,NA,NA,NA,NA,NA,NA,NA,NA,NA,NA,NA,NA,NA,NA,NA,NA,NA,NA,NA,NA,NA,NA,NA
"140","stim/objects/Instruments/speaker.png",158,29,158,0.5,"stim/33.jpeg",3,3,1,NA,"Instruments",2,3,"right","",NA,0,0,1,1,NA,NA,NA,NA,NA,NA,NA,NA,NA,NA,NA,NA,NA,NA,NA,NA,NA,NA,NA,NA,NA,NA,NA,NA
"237","stim/objects/Instruments/xylophone.png",159,29,159,0.7,"stim/54.jpeg",5,4,2,NA,"Instruments",2,2,"right","right",0.671999931,1,1,1,1,NA,NA,NA,NA,NA,NA,NA,NA,NA,NA,NA,NA,NA,NA,NA,NA,NA,NA,NA,NA,NA,NA,NA,NA
"23","stim/objects/HouseObjects/safetypin2.png",160,29,160,0.7,"stim/62.jpeg",6,2,2,NA,"HouseObjects",1,2,"left","left",0.506000042,1,1,1,1,NA,NA,NA,NA,NA,NA,NA,NA,NA,NA,NA,NA,NA,NA,NA,NA,NA,NA,NA,NA,NA,NA,NA,NA
"29","stim/objects/HouseObjects/saw.png",161,29,161,0.5,"stim/33.jpeg",3,3,1,NA,"HouseObjects",1,1,"left","left",0.661999941,1,1,1,1,NA,NA,NA,NA,NA,NA,NA,NA,NA,NA,NA,NA,NA,NA,NA,NA,NA,NA,NA,NA,NA,NA,NA,NA
"54","stim/objects/HouseObjects/sponge2.png",162,29,162,0.1,"stim/11.jpeg",1,1,3,NA,"HouseObjects",1,2,"left","right",0.677999973,0,0,1,1,NA,NA,NA,NA,NA,NA,NA,NA,NA,NA,NA,NA,NA,NA,NA,NA,NA,NA,NA,NA,NA,NA,NA,NA
"87","stim/objects/HouseObjects/towel.png",163,29,163,0.3,"stim/52.jpeg",5,2,2,NA,"HouseObjects",1,4,"left","right",0.707999945,0,0,1,1,NA,NA,NA,NA,NA,NA,NA,NA,NA,NA,NA,NA,NA,NA,NA,NA,NA,NA,NA,NA,NA,NA,NA,NA
"192","stim/objects/Instruments/trombone2.png",164,29,164,0.9,"stim/13.jpeg",1,3,3,NA,"Instruments",2,3,"right","right",0.572999954,1,1,1,1,NA,NA,NA,NA,NA,NA,NA,NA,NA,NA,NA,NA,NA,NA,NA,NA,NA,NA,NA,NA,NA,NA,NA,NA
"10","stim/objects/HouseObjects/rug2.png",165,29,165,0.7,"stim/61.jpeg",6,1,2,NA,"HouseObjects",1,1,"left","left",0.715999842,1,1,1,1,NA,NA,NA,NA,NA,NA,NA,NA,NA,NA,NA,NA,NA,NA,NA,NA,NA,NA,NA,NA,NA,NA,NA,NA
"11","stim/objects/HouseObjects/rug2.png",166,29,166,0.7,"stim/61.jpeg",6,1,2,NA,"HouseObjects",1,1,"left","left",0.536000013,1,1,1,1,NA,NA,NA,NA,NA,NA,NA,NA,NA,NA,NA,NA,NA,NA,NA,NA,NA,NA,NA,NA,NA,NA,NA,NA
"222","stim/objects/Instruments/violin.png",167,29,167,0.7,"stim/52.jpeg",5,2,2,NA,"Instruments",2,2,"right","right",0.503000021,1,1,1,1,NA,NA,NA,NA,NA,NA,NA,NA,NA,NA,NA,NA,NA,NA,NA,NA,NA,NA,NA,NA,NA,NA,NA,NA
"38","stim/objects/HouseObjects/scale.png",168,29,168,0.5,"stim/34.jpeg",3,4,1,NA,"HouseObjects",1,2,"left","left",0.690000057,1,1,1,1,NA,NA,NA,NA,NA,NA,NA,NA,NA,NA,NA,NA,NA,NA,NA,NA,NA,NA,NA,NA,NA,NA,NA,NA
"94","stim/objects/HouseObjects/towel2.png",169,29,169,0.9,"stim/22.jpeg",2,2,3,NA,"HouseObjects",1,4,"left","left",0.549999952,1,1,1,1,NA,NA,NA,NA,NA,NA,NA,NA,NA,NA,NA,NA,NA,NA,NA,NA,NA,NA,NA,NA,NA,NA,NA,NA
"178","stim/objects/Instruments/triangle2.png",170,29,170,0.9,"stim/12.jpeg",1,2,3,NA,"Instruments",2,3,"right","right",0.586999893,1,1,1,1,NA,NA,NA,NA,NA,NA,NA,NA,NA,NA,NA,NA,NA,NA,NA,NA,NA,NA,NA,NA,NA,NA,NA,NA
"57","stim/objects/HouseObjects/spraybottle.png",171,29,171,0.5,"stim/42.jpeg",4,2,1,NA,"HouseObjects",1,4,"left","left",0.536000013,1,1,1,1,NA,NA,NA,NA,NA,NA,NA,NA,NA,NA,NA,NA,NA,NA,NA,NA,NA,NA,NA,NA,NA,NA,NA,NA
"12","stim/objects/HouseObjects/rug2.png",172,29,172,0.7,"stim/61.jpeg",6,1,2,NA,"HouseObjects",1,3,"left","left",0.542999983,1,1,1,1,NA,NA,NA,NA,NA,NA,NA,NA,NA,NA,NA,NA,NA,NA,NA,NA,NA,NA,NA,NA,NA,NA,NA,NA
"119","stim/objects/HouseObjects/wateringcan2.png",173,29,173,0.9,"stim/24.jpeg",2,4,3,NA,"HouseObjects",1,3,"left","left",0.495999813,1,1,1,1,NA,NA,NA,NA,NA,NA,NA,NA,NA,NA,NA,NA,NA,NA,NA,NA,NA,NA,NA,NA,NA,NA,NA,NA
"148","stim/objects/Instruments/tambourine.png",174,29,174,0.5,"stim/34.jpeg",3,4,1,NA,"Instruments",2,1,"right","left",0.621999979,0,0,1,1,NA,NA,NA,NA,NA,NA,NA,NA,NA,NA,NA,NA,NA,NA,NA,NA,NA,NA,NA,NA,NA,NA,NA,NA
"228","stim/objects/Instruments/vuvuzela.png",175,29,175,0.7,"stim/53.jpeg",5,3,2,NA,"Instruments",2,1,"right","right",0.767999887,1,1,1,1,NA,NA,NA,NA,NA,NA,NA,NA,NA,NA,NA,NA,NA,NA,NA,NA,NA,NA,NA,NA,NA,NA,NA,NA
"45","stim/objects/HouseObjects/scale2.png",176,29,176,0.7,"stim/64.jpeg",6,4,2,NA,"HouseObjects",1,4,"left","left",0.474999905,1,1,1,1,NA,NA,NA,NA,NA,NA,NA,NA,NA,NA,NA,NA,NA,NA,NA,NA,NA,NA,NA,NA,NA,NA,NA,NA
"107","stim/objects/HouseObjects/vacuumcleaner2.png",177,29,177,0.9,"stim/23.jpeg",2,3,3,NA,"HouseObjects",1,1,"left","left",0.507999897,1,1,1,1,NA,NA,NA,NA,NA,NA,NA,NA,NA,NA,NA,NA,NA,NA,NA,NA,NA,NA,NA,NA,NA,NA,NA,NA
"163","stim/objects/Instruments/timbal2.png",178,29,178,0.9,"stim/11.jpeg",1,1,3,NA,"Instruments",2,1,"right","left",0.513999939,0,0,1,1,NA,NA,NA,NA,NA,NA,NA,NA,NA,NA,NA,NA,NA,NA,NA,NA,NA,NA,NA,NA,NA,NA,NA,NA
"199","stim/objects/Instruments/trumpet.png",179,29,179,0.5,"stim/44.jpeg",4,4,1,NA,"Instruments",2,2,"right","left",0.598999977,0,0,1,1,NA,NA,NA,NA,NA,NA,NA,NA,NA,NA,NA,NA,NA,NA,NA,NA,NA,NA,NA,NA,NA,NA,NA,NA
"68","stim/objects/HouseObjects/thermometer.png",180,29,180,0.5,"stim/44.jpeg",4,4,1,NA,"HouseObjects",1,3,"left","left",0.70299983,1,1,1,1,NA,NA,NA,NA,NA,NA,NA,NA,NA,NA,NA,NA,NA,NA,NA,NA,NA,NA,NA,NA,NA,NA,NA,NA
"53","stim/objects/HouseObjects/sponge.png",181,29,181,0.5,"stim/41.jpeg",4,1,1,NA,"HouseObjects",1,2,"left","",NA,0,0,1,1,NA,NA,NA,NA,NA,NA,NA,NA,NA,NA,NA,NA,NA,NA,NA,NA,NA,NA,NA,NA,NA,NA,NA,NA
"170","stim/objects/Instruments/triangle.png",182,29,182,0.5,"stim/42.jpeg",4,2,1,NA,"Instruments",2,1,"right","left",0.732999802,0,0,1,1,NA,NA,NA,NA,NA,NA,NA,NA,NA,NA,NA,NA,NA,NA,NA,NA,NA,NA,NA,NA,NA,NA,NA,NA
"84","stim/objects/HouseObjects/thread2.png",183,29,183,0.9,"stim/21.jpeg",2,1,3,NA,"HouseObjects",1,4,"left","left",0.612999916,1,1,1,1,NA,NA,NA,NA,NA,NA,NA,NA,NA,NA,NA,NA,NA,NA,NA,NA,NA,NA,NA,NA,NA,NA,NA,NA
"131","stim/objects/Instruments/saxophone.png",184,29,184,0.5,"stim/32.jpeg",3,2,1,NA,"Instruments",2,4,"right","left",0.806999922,0,0,1,1,NA,NA,NA,NA,NA,NA,NA,NA,NA,NA,NA,NA,NA,NA,NA,NA,NA,NA,NA,NA,NA,NA,NA,NA
"193","stim/objects/Instruments/trombone2.png",185,29,185,0.9,"stim/13.jpeg",1,3,3,NA,"Instruments",2,2,"right","right",0.728999853,1,1,1,1,NA,NA,NA,NA,NA,NA,NA,NA,NA,NA,NA,NA,NA,NA,NA,NA,NA,NA,NA,NA,NA,NA,NA,NA
"132","stim/objects/Instruments/saxophone.png",186,29,186,0.5,"stim/32.jpeg",3,2,1,NA,"Instruments",2,3,"right","left",0.691999912,0,0,1,1,NA,NA,NA,NA,NA,NA,NA,NA,NA,NA,NA,NA,NA,NA,NA,NA,NA,NA,NA,NA,NA,NA,NA,NA
"39","stim/objects/HouseObjects/scale.png",187,29,187,0.5,"stim/34.jpeg",3,4,1,NA,"HouseObjects",1,4,"left","right",0.744999886,0,0,1,1,NA,NA,NA,NA,NA,NA,NA,NA,NA,NA,NA,NA,NA,NA,NA,NA,NA,NA,NA,NA,NA,NA,NA,NA
"205","stim/objects/Instruments/trumpet2.png",188,29,188,0.9,"stim/14.jpeg",1,4,3,NA,"Instruments",2,3,"right","right",0.786000013,1,1,1,1,NA,NA,NA,NA,NA,NA,NA,NA,NA,NA,NA,NA,NA,NA,NA,NA,NA,NA,NA,NA,NA,NA,NA,NA
"36","stim/objects/HouseObjects/saw2.png",189,29,189,0.7,"stim/63.jpeg",6,3,2,NA,"HouseObjects",1,4,"left","left",0.562999725,1,1,1,1,NA,NA,NA,NA,NA,NA,NA,NA,NA,NA,NA,NA,NA,NA,NA,NA,NA,NA,NA,NA,NA,NA,NA,NA
"141","stim/objects/Instruments/speaker.png",190,29,190,0.5,"stim/33.jpeg",3,3,1,NA,"Instruments",2,1,"right","right",0.682999849,1,1,1,1,NA,NA,NA,NA,NA,NA,NA,NA,NA,NA,NA,NA,NA,NA,NA,NA,NA,NA,NA,NA,NA,NA,NA,NA
"206","stim/objects/Instruments/trumpet2.png",191,29,191,0.9,"stim/14.jpeg",1,4,3,NA,"Instruments",2,3,"right","right",0.657999754,1,1,1,1,NA,NA,NA,NA,NA,NA,NA,NA,NA,NA,NA,NA,NA,NA,NA,NA,NA,NA,NA,NA,NA,NA,NA,NA
"207","stim/objects/Instruments/trumpet2.png",192,29,192,0.9,"stim/14.jpeg",1,4,3,NA,"Instruments",2,1,"right","right",0.463999748,1,1,1,1,NA,NA,NA,NA,NA,NA,NA,NA,NA,NA,NA,NA,NA,NA,NA,NA,NA,NA,NA,NA,NA,NA,NA,NA
"229","stim/objects/Instruments/vuvuzela.png",193,29,193,0.7,"stim/53.jpeg",5,3,2,NA,"Instruments",2,4,"right","right",0.681999922,1,1,1,1,NA,NA,NA,NA,NA,NA,NA,NA,NA,NA,NA,NA,NA,NA,NA,NA,NA,NA,NA,NA,NA,NA,NA,NA
"16","stim/objects/HouseObjects/safetypin.png",194,29,194,0.5,"stim/32.jpeg",3,2,1,NA,"HouseObjects",1,3,"left","",NA,0,0,1,1,NA,NA,NA,NA,NA,NA,NA,NA,NA,NA,NA,NA,NA,NA,NA,NA,NA,NA,NA,NA,NA,NA,NA,NA
"125","stim/objects/Instruments/record_player.png",195,29,195,0.5,"stim/31.jpeg",3,1,1,NA,"Instruments",2,4,"right","right",0.712999821,1,1,1,1,NA,NA,NA,NA,NA,NA,NA,NA,NA,NA,NA,NA,NA,NA,NA,NA,NA,NA,NA,NA,NA,NA,NA,NA
"164","stim/objects/Instruments/timbal2.png",196,29,196,0.9,"stim/11.jpeg",1,1,3,NA,"Instruments",2,2,"right","right",0.665999889,1,1,1,1,NA,NA,NA,NA,NA,NA,NA,NA,NA,NA,NA,NA,NA,NA,NA,NA,NA,NA,NA,NA,NA,NA,NA,NA
"40","stim/objects/HouseObjects/scale.png",197,29,197,0.5,"stim/34.jpeg",3,4,1,NA,"HouseObjects",1,2,"left","right",0.651000023,0,0,1,1,NA,NA,NA,NA,NA,NA,NA,NA,NA,NA,NA,NA,NA,NA,NA,NA,NA,NA,NA,NA,NA,NA,NA,NA
"108","stim/objects/HouseObjects/vacuumcleaner2.png",198,29,198,0.9,"stim/23.jpeg",2,3,3,NA,"HouseObjects",1,4,"left","left",0.54399991,1,1,1,1,NA,NA,NA,NA,NA,NA,NA,NA,NA,NA,NA,NA,NA,NA,NA,NA,NA,NA,NA,NA,NA,NA,NA,NA
"17","stim/objects/HouseObjects/safetypin.png",199,29,199,0.5,"stim/32.jpeg",3,2,1,NA,"HouseObjects",1,3,"left","right",0.717999935,0,0,1,1,NA,NA,NA,NA,NA,NA,NA,NA,NA,NA,NA,NA,NA,NA,NA,NA,NA,NA,NA,NA,NA,NA,NA,NA
"213","stim/objects/Instruments/tuba.png",200,29,200,0.7,"stim/51.jpeg",5,1,2,NA,"Instruments",2,2,"right","right",0.703999996,1,1,1,1,NA,NA,NA,NA,NA,NA,NA,NA,NA,NA,NA,NA,NA,NA,NA,NA,NA,NA,NA,NA,NA,NA,NA,NA
"133","stim/objects/Instruments/saxophone.png",201,29,201,0.5,"stim/32.jpeg",3,2,1,NA,"Instruments",2,1,"right","right",0.748999834,1,1,1,1,NA,NA,NA,NA,NA,NA,NA,NA,NA,NA,NA,NA,NA,NA,NA,NA,NA,NA,NA,NA,NA,NA,NA,NA
"179","stim/objects/Instruments/triangle2.png",202,29,202,0.9,"stim/12.jpeg",1,2,3,NA,"Instruments",2,1,"right","right",0.725000143,1,1,1,1,NA,NA,NA,NA,NA,NA,NA,NA,NA,NA,NA,NA,NA,NA,NA,NA,NA,NA,NA,NA,NA,NA,NA,NA
"208","stim/objects/Instruments/trumpet2.png",203,29,203,0.9,"stim/14.jpeg",1,4,3,NA,"Instruments",2,1,"right","right",0.660999775,1,1,1,1,NA,NA,NA,NA,NA,NA,NA,NA,NA,NA,NA,NA,NA,NA,NA,NA,NA,NA,NA,NA,NA,NA,NA,NA
"128","stim/objects/Instruments/record_player2.png",204,29,204,0.3,"stim/61.jpeg",6,1,2,NA,"Instruments",2,1,"right","left",0.579999924,0,0,1,1,NA,NA,NA,NA,NA,NA,NA,NA,NA,NA,NA,NA,NA,NA,NA,NA,NA,NA,NA,NA,NA,NA,NA,NA
"149","stim/objects/Instruments/tambourine.png",205,29,205,0.5,"stim/34.jpeg",3,4,1,NA,"Instruments",2,1,"right","right",0.747999907,1,1,1,1,NA,NA,NA,NA,NA,NA,NA,NA,NA,NA,NA,NA,NA,NA,NA,NA,NA,NA,NA,NA,NA,NA,NA,NA
"156","stim/objects/Instruments/timbal.png",206,29,206,0.5,"stim/41.jpeg",4,1,1,NA,"Instruments",2,1,"right","right",0.690000057,1,1,1,1,NA,NA,NA,NA,NA,NA,NA,NA,NA,NA,NA,NA,NA,NA,NA,NA,NA,NA,NA,NA,NA,NA,NA,NA
"238","stim/objects/Instruments/xylophone.png",207,29,207,0.7,"stim/54.jpeg",5,4,2,NA,"Instruments",2,3,"right","right",0.805999756,1,1,1,1,NA,NA,NA,NA,NA,NA,NA,NA,NA,NA,NA,NA,NA,NA,NA,NA,NA,NA,NA,NA,NA,NA,NA,NA
"230","stim/objects/Instruments/vuvuzela.png",208,29,208,0.7,"stim/53.jpeg",5,3,2,NA,"Instruments",2,1,"right","right",0.513999939,1,1,1,1,NA,NA,NA,NA,NA,NA,NA,NA,NA,NA,NA,NA,NA,NA,NA,NA,NA,NA,NA,NA,NA,NA,NA,NA
"95","stim/objects/HouseObjects/towel2.png",209,29,209,0.9,"stim/22.jpeg",2,2,3,NA,"HouseObjects",1,3,"left","left",0.50999999,1,1,1,1,NA,NA,NA,NA,NA,NA,NA,NA,NA,NA,NA,NA,NA,NA,NA,NA,NA,NA,NA,NA,NA,NA,NA,NA
"239","stim/objects/Instruments/xylophone.png",210,29,210,0.7,"stim/54.jpeg",5,4,2,NA,"Instruments",2,1,"right","right",0.484999895,1,1,1,1,NA,NA,NA,NA,NA,NA,NA,NA,NA,NA,NA,NA,NA,NA,NA,NA,NA,NA,NA,NA,NA,NA,NA,NA
"120","stim/objects/HouseObjects/wateringcan2.png",211,29,211,0.9,"stim/24.jpeg",2,4,3,NA,"HouseObjects",1,4,"left","left",0.694999933,1,1,1,1,NA,NA,NA,NA,NA,NA,NA,NA,NA,NA,NA,NA,NA,NA,NA,NA,NA,NA,NA,NA,NA,NA,NA,NA
"157","stim/objects/Instruments/timbal.png",212,29,212,0.5,"stim/41.jpeg",4,1,1,NA,"Instruments",2,2,"right","right",0.698999882,1,1,1,1,NA,NA,NA,NA,NA,NA,NA,NA,NA,NA,NA,NA,NA,NA,NA,NA,NA,NA,NA,NA,NA,NA,NA,NA
"171","stim/objects/Instruments/triangle.png",213,29,213,0.5,"stim/42.jpeg",4,2,1,NA,"Instruments",2,2,"right","",NA,0,0,1,1,NA,NA,NA,NA,NA,NA,NA,NA,NA,NA,NA,NA,NA,NA,NA,NA,NA,NA,NA,NA,NA,NA,NA,NA
"214","stim/objects/Instruments/tuba.png",214,29,214,0.7,"stim/51.jpeg",5,1,2,NA,"Instruments",2,3,"right","right",0.65899992,1,1,1,1,NA,NA,NA,NA,NA,NA,NA,NA,NA,NA,NA,NA,NA,NA,NA,NA,NA,NA,NA,NA,NA,NA,NA,NA
"180","stim/objects/Instruments/triangle2.png",215,29,215,0.9,"stim/12.jpeg",1,2,3,NA,"Instruments",2,1,"right","right",0.585999966,1,1,1,1,NA,NA,NA,NA,NA,NA,NA,NA,NA,NA,NA,NA,NA,NA,NA,NA,NA,NA,NA,NA,NA,NA,NA,NA
"58","stim/objects/HouseObjects/spraybottle.png",216,29,216,0.5,"stim/42.jpeg",4,2,1,NA,"HouseObjects",1,4,"left","left",0.59800005,1,1,1,1,NA,NA,NA,NA,NA,NA,NA,NA,NA,NA,NA,NA,NA,NA,NA,NA,NA,NA,NA,NA,NA,NA,NA,NA
"46","stim/objects/HouseObjects/scale2.png",217,29,217,0.7,"stim/64.jpeg",6,4,2,NA,"HouseObjects",1,4,"left","left",0.553999901,1,1,1,1,NA,NA,NA,NA,NA,NA,NA,NA,NA,NA,NA,NA,NA,NA,NA,NA,NA,NA,NA,NA,NA,NA,NA,NA
"47","stim/objects/HouseObjects/scale2.png",218,29,218,0.7,"stim/64.jpeg",6,4,2,NA,"HouseObjects",1,2,"left","left",0.470999718,1,1,1,1,NA,NA,NA,NA,NA,NA,NA,NA,NA,NA,NA,NA,NA,NA,NA,NA,NA,NA,NA,NA,NA,NA,NA,NA
"111","stim/objects/HouseObjects/wateringcan.png",219,29,219,0.3,"stim/54.jpeg",5,4,2,NA,"HouseObjects",1,3,"left","right",0.618000031,0,0,1,1,NA,NA,NA,NA,NA,NA,NA,NA,NA,NA,NA,NA,NA,NA,NA,NA,NA,NA,NA,NA,NA,NA,NA,NA
"165","stim/objects/Instruments/timbal2.png",220,29,220,0.9,"stim/11.jpeg",1,1,3,NA,"Instruments",2,4,"right","right",0.593999863,1,1,1,1,NA,NA,NA,NA,NA,NA,NA,NA,NA,NA,NA,NA,NA,NA,NA,NA,NA,NA,NA,NA,NA,NA,NA,NA
"69","stim/objects/HouseObjects/thermometer.png",221,29,221,0.5,"stim/44.jpeg",4,4,1,NA,"HouseObjects",1,2,"left","left",0.789999962,1,1,1,1,NA,NA,NA,NA,NA,NA,NA,NA,NA,NA,NA,NA,NA,NA,NA,NA,NA,NA,NA,NA,NA,NA,NA,NA
"70","stim/objects/HouseObjects/thermometer.png",222,29,222,0.5,"stim/44.jpeg",4,4,1,NA,"HouseObjects",1,2,"left","left",0.464999914,1,1,1,1,NA,NA,NA,NA,NA,NA,NA,NA,NA,NA,NA,NA,NA,NA,NA,NA,NA,NA,NA,NA,NA,NA,NA,NA
"96","stim/objects/HouseObjects/towel2.png",223,29,223,0.9,"stim/22.jpeg",2,2,3,NA,"HouseObjects",1,3,"left","left",0.486999989,1,1,1,1,NA,NA,NA,NA,NA,NA,NA,NA,NA,NA,NA,NA,NA,NA,NA,NA,NA,NA,NA,NA,NA,NA,NA,NA
"24","stim/objects/HouseObjects/safetypin2.png",224,29,224,0.7,"stim/62.jpeg",6,2,2,NA,"HouseObjects",1,1,"left","left",0.510999918,1,1,1,1,NA,NA,NA,NA,NA,NA,NA,NA,NA,NA,NA,NA,NA,NA,NA,NA,NA,NA,NA,NA,NA,NA,NA,NA
"223","stim/objects/Instruments/violin.png",225,29,225,0.7,"stim/52.jpeg",5,2,2,NA,"Instruments",2,4,"right","right",0.722999811,1,1,1,1,NA,NA,NA,NA,NA,NA,NA,NA,NA,NA,NA,NA,NA,NA,NA,NA,NA,NA,NA,NA,NA,NA,NA,NA
"71","stim/objects/HouseObjects/thermometer.png",226,29,226,0.5,"stim/44.jpeg",4,4,1,NA,"HouseObjects",1,1,"left","left",0.625999928,1,1,1,1,NA,NA,NA,NA,NA,NA,NA,NA,NA,NA,NA,NA,NA,NA,NA,NA,NA,NA,NA,NA,NA,NA,NA,NA
"5","stim/objects/HouseObjects/rug.png",227,29,227,0.5,"stim/31.jpeg",3,1,1,NA,"HouseObjects",1,2,"left","right",0.67599988,0,0,1,1,NA,NA,NA,NA,NA,NA,NA,NA,NA,NA,NA,NA,NA,NA,NA,NA,NA,NA,NA,NA,NA,NA,NA,NA
"166","stim/objects/Instruments/timbal2.png",228,29,228,0.9,"stim/11.jpeg",1,1,3,NA,"Instruments",2,1,"right","right",0.750999928,1,1,1,1,NA,NA,NA,NA,NA,NA,NA,NA,NA,NA,NA,NA,NA,NA,NA,NA,NA,NA,NA,NA,NA,NA,NA,NA
"59","stim/objects/HouseObjects/spraybottle.png",229,29,229,0.5,"stim/42.jpeg",4,2,1,NA,"HouseObjects",1,4,"left","left",0.698999882,1,1,1,1,NA,NA,NA,NA,NA,NA,NA,NA,NA,NA,NA,NA,NA,NA,NA,NA,NA,NA,NA,NA,NA,NA,NA,NA
"41","stim/objects/HouseObjects/scale.png",230,29,230,0.5,"stim/34.jpeg",3,4,1,NA,"HouseObjects",1,3,"left","",NA,0,0,1,1,NA,NA,NA,NA,NA,NA,NA,NA,NA,NA,NA,NA,NA,NA,NA,NA,NA,NA,NA,NA,NA,NA,NA,NA
"99","stim/objects/HouseObjects/vacuumcleaner.png",231,29,231,0.3,"stim/53.jpeg",5,3,2,NA,"HouseObjects",1,3,"left","right",0.809999943,0,0,1,1,NA,NA,NA,NA,NA,NA,NA,NA,NA,NA,NA,NA,NA,NA,NA,NA,NA,NA,NA,NA,NA,NA,NA,NA
"215","stim/objects/Instruments/tuba.png",232,29,232,0.7,"stim/51.jpeg",5,1,2,NA,"Instruments",2,1,"right","right",0.546000004,1,1,1,1,NA,NA,NA,NA,NA,NA,NA,NA,NA,NA,NA,NA,NA,NA,NA,NA,NA,NA,NA,NA,NA,NA,NA,NA
"48","stim/objects/HouseObjects/scale2.png",233,29,233,0.7,"stim/64.jpeg",6,4,2,NA,"HouseObjects",1,4,"left","left",0.600999832,1,1,1,1,NA,NA,NA,NA,NA,NA,NA,NA,NA,NA,NA,NA,NA,NA,NA,NA,NA,NA,NA,NA,NA,NA,NA,NA
"231","stim/objects/Instruments/vuvuzela.png",234,29,234,0.7,"stim/53.jpeg",5,3,2,NA,"Instruments",2,2,"right","right",0.667000055,1,1,1,1,NA,NA,NA,NA,NA,NA,NA,NA,NA,NA,NA,NA,NA,NA,NA,NA,NA,NA,NA,NA,NA,NA,NA,NA
"152","stim/objects/Instruments/tambourine2.png",235,29,235,0.3,"stim/64.jpeg",6,4,2,NA,"Instruments",2,3,"right","left",0.536000013,0,0,1,1,NA,NA,NA,NA,NA,NA,NA,NA,NA,NA,NA,NA,NA,NA,NA,NA,NA,NA,NA,NA,NA,NA,NA,NA
"185","stim/objects/Instruments/trombone.png",236,29,236,0.5,"stim/43.jpeg",4,3,1,NA,"Instruments",2,4,"right","left",0.597999811,0,0,1,1,NA,NA,NA,NA,NA,NA,NA,NA,NA,NA,NA,NA,NA,NA,NA,NA,NA,NA,NA,NA,NA,NA,NA,NA
"75","stim/objects/HouseObjects/thread.png",237,29,237,0.3,"stim/51.jpeg",5,1,2,NA,"HouseObjects",1,1,"left","right",0.536999941,0,0,1,1,NA,NA,NA,NA,NA,NA,NA,NA,NA,NA,NA,NA,NA,NA,NA,NA,NA,NA,NA,NA,NA,NA,NA,NA
"194","stim/objects/Instruments/trombone2.png",238,29,238,0.9,"stim/13.jpeg",1,3,3,NA,"Instruments",2,4,"right","",NA,0,0,1,1,NA,NA,NA,NA,NA,NA,NA,NA,NA,NA,NA,NA,NA,NA,NA,NA,NA,NA,NA,NA,NA,NA,NA,NA
"232","stim/objects/Instruments/vuvuzela2.png",239,29,239,0.1,"stim/23.jpeg",2,3,3,NA,"Instruments",2,2,"right","left",0.54399991,0,0,1,1,NA,NA,NA,NA,NA,NA,NA,NA,NA,NA,NA,NA,NA,NA,NA,NA,NA,NA,NA,NA,NA,NA,NA,NA
"65","stim/objects/HouseObjects/teapot.png",240,29,240,0.5,"stim/43.jpeg",4,3,1,NA,"HouseObjects",1,4,"left","left",0.760999918,1,1,1,1,NA,NA,NA,NA,NA,NA,NA,NA,NA,NA,NA,NA,NA,NA,NA,NA,NA,NA,NA,NA,NA,NA,NA,NA
"490","stim/objects/Instruments/frenchhorn.png",248,29,241,0.9,"stim/11.jpeg",1,1,3,2,"Instruments",2,3,"right","right",0.817000151,1,1,1,0,NA,NA,NA,NA,NA,NA,NA,NA,NA,NA,NA,NA,NA,NA,NA,NA,NA,NA,NA,NA,NA,NA,NA,NA
"279","stim/objects/HouseObjects/coffee.png",249,29,242,0.7,"stim/64.jpeg",6,4,2,2,"HouseObjects",1,2,"left","left",0.542000055,1,1,1,0,NA,NA,NA,NA,NA,NA,NA,NA,NA,NA,NA,NA,NA,NA,NA,NA,NA,NA,NA,NA,NA,NA,NA,NA
"443","stim/objects/Instruments/doublebass2.png",250,29,243,0.3,"stim/64.jpeg",6,4,2,1,"Instruments",2,2,"right","left",0.430999994,0,0,1,0,38,29,1,0.3,2,"stim/64.jpeg",6,4,"stim/64.jpeg",2,"left",0.875,4,4,6.275999784,4,0.468999863,38,1,1,1,0,0,1
"359","stim/objects/HouseObjects/glass.png",251,29,244,0.9,"stim/22.jpeg",2,2,3,2,"HouseObjects",1,2,"left","left",0.481999874,1,1,1,0,NA,NA,NA,NA,NA,NA,NA,NA,NA,NA,NA,NA,NA,NA,NA,NA,NA,NA,NA,NA,NA,NA,NA,NA
"440","stim/objects/Instruments/doublebass.png",252,29,245,0.7,"stim/52.jpeg",5,2,2,2,"Instruments",2,2,"right","right",0.569999933,1,1,1,0,NA,NA,NA,NA,NA,NA,NA,NA,NA,NA,NA,NA,NA,NA,NA,NA,NA,NA,NA,NA,NA,NA,NA,NA
"524","stim/objects/Instruments/grandpiano.png",253,29,246,0.9,"stim/11.jpeg",1,1,3,2,"Instruments",2,3,"right","right",0.636999846,1,1,1,0,NA,NA,NA,NA,NA,NA,NA,NA,NA,NA,NA,NA,NA,NA,NA,NA,NA,NA,NA,NA,NA,NA,NA,NA
"282","stim/objects/HouseObjects/coffee2.png",254,29,247,0.7,"stim/63.jpeg",6,3,2,1,"HouseObjects",1,1,"left","right",0.495999813,0,0,1,0,188,29,1,0.7,1,"stim/63.jpeg",6,3,"stim/63.jpeg",1,"left",1.855999947,4,4,1.889999866,2,2.059000015,188,1,0,0,0,0,1
"325","stim/objects/HouseObjects/flyswatter.png",255,29,248,0.9,"stim/24.jpeg",2,4,3,2,"HouseObjects",1,1,"left","left",0.496000051,1,1,1,0,NA,NA,NA,NA,NA,NA,NA,NA,NA,NA,NA,NA,NA,NA,NA,NA,NA,NA,NA,NA,NA,NA,NA,NA
"556","stim/objects/Instruments/marimba2.png",256,29,249,0.1,"stim/21.jpeg",2,1,3,1,"Instruments",2,2,"right","left",0.466999769,0,0,1,0,35,29,1,0.1,2,"stim/21.jpeg",2,1,"stim/21.jpeg",2,"right",2.040999889,2,3,1.035999775,2,0.595999718,35,0,0,NA,1,NA,1
"326","stim/objects/HouseObjects/flyswatter.png",257,29,250,0.9,"stim/24.jpeg",2,4,3,2,"HouseObjects",1,4,"left","left",0.476999998,1,1,1,0,NA,NA,NA,NA,NA,NA,NA,NA,NA,NA,NA,NA,NA,NA,NA,NA,NA,NA,NA,NA,NA,NA,NA,NA
"433","stim/objects/Instruments/cornet.png",258,29,251,0.5,"stim/43.jpeg",4,3,1,2,"Instruments",2,4,"right","left",0.601999998,0,0,1,0,NA,NA,NA,NA,NA,NA,NA,NA,NA,NA,NA,NA,NA,NA,NA,NA,NA,NA,NA,NA,NA,NA,NA,NA
"491","stim/objects/Instruments/frenchhorn.png",259,29,252,0.9,"stim/12.jpeg",1,2,3,2,"Instruments",2,3,"right","right",0.518999815,1,1,1,0,NA,NA,NA,NA,NA,NA,NA,NA,NA,NA,NA,NA,NA,NA,NA,NA,NA,NA,NA,NA,NA,NA,NA,NA
"386","stim/objects/HouseObjects/ironingboard.png",260,29,253,0.5,"stim/41.jpeg",4,1,1,1,"HouseObjects",1,3,"left","left",0.559999943,1,1,1,0,192,29,1,0.5,2,"stim/41.jpeg",4,1,"stim/41.jpeg",3,"right",0.769000053,1,1,1.394999981,1,0.322000027,192,0,1,NA,0,NA,1
"456","stim/objects/Instruments/flute.png",261,29,254,0.9,"stim/11.jpeg",1,1,3,2,"Instruments",2,1,"right","right",0.582999945,1,1,1,0,NA,NA,NA,NA,NA,NA,NA,NA,NA,NA,NA,NA,NA,NA,NA,NA,NA,NA,NA,NA,NA,NA,NA,NA
"259","stim/objects/HouseObjects/bottle.png",262,29,255,0.5,"stim/44.jpeg",4,4,1,2,"HouseObjects",1,2,"left","left",0.552999973,1,1,1,0,NA,NA,NA,NA,NA,NA,NA,NA,NA,NA,NA,NA,NA,NA,NA,NA,NA,NA,NA,NA,NA,NA,NA,NA
"424","stim/objects/Instruments/cello.png",263,29,256,0.5,"stim/43.jpeg",4,3,1,2,"Instruments",2,2,"right","left",0.464999914,0,0,1,0,NA,NA,NA,NA,NA,NA,NA,NA,NA,NA,NA,NA,NA,NA,NA,NA,NA,NA,NA,NA,NA,NA,NA,NA
"327","stim/objects/HouseObjects/flyswatter.png",264,29,257,0.9,"stim/22.jpeg",2,2,3,2,"HouseObjects",1,1,"left","left",0.736999989,1,1,1,0,NA,NA,NA,NA,NA,NA,NA,NA,NA,NA,NA,NA,NA,NA,NA,NA,NA,NA,NA,NA,NA,NA,NA,NA
"506","stim/objects/Instruments/frenchhorn2.png",265,29,258,0.9,"stim/11.jpeg",1,1,3,1,"Instruments",2,1,"right","right",0.565000057,1,1,1,0,30,29,1,0.9,2,"stim/11.jpeg",1,1,"stim/11.jpeg",1,"left",0.944999933,4,1,13.46600008,1,0.750999928,30,1,1,1,1,1,1
"287","stim/objects/HouseObjects/dishsoap.png",266,29,259,0.7,"stim/62.jpeg",6,2,2,2,"HouseObjects",1,1,"left","left",0.556999922,1,1,1,0,NA,NA,NA,NA,NA,NA,NA,NA,NA,NA,NA,NA,NA,NA,NA,NA,NA,NA,NA,NA,NA,NA,NA,NA
"492","stim/objects/Instruments/frenchhorn.png",267,29,260,0.9,"stim/13.jpeg",1,3,3,2,"Instruments",2,1,"right","right",0.631999969,1,1,1,0,NA,NA,NA,NA,NA,NA,NA,NA,NA,NA,NA,NA,NA,NA,NA,NA,NA,NA,NA,NA,NA,NA,NA,NA
"474","stim/objects/Instruments/flutetrans.png",268,29,261,0.9,"stim/11.jpeg",1,1,3,2,"Instruments",2,3,"right","right",0.59800005,1,1,1,0,NA,NA,NA,NA,NA,NA,NA,NA,NA,NA,NA,NA,NA,NA,NA,NA,NA,NA,NA,NA,NA,NA,NA,NA
"360","stim/objects/HouseObjects/glass.png",269,29,262,0.9,"stim/24.jpeg",2,4,3,2,"HouseObjects",1,4,"left","left",0.490999937,1,1,1,0,NA,NA,NA,NA,NA,NA,NA,NA,NA,NA,NA,NA,NA,NA,NA,NA,NA,NA,NA,NA,NA,NA,NA,NA
"246","stim/objects/HouseObjects/ballofstring2.png",270,29,263,0.3,"stim/53.jpeg",5,3,2,1,"HouseObjects",1,3,"left","",NA,0,0,1,0,129,29,1,0.3,1,"stim/53.jpeg",5,3,"stim/53.jpeg",3,"left",0.85800004,4,2,1.588999987,3,1.336999893,129,1,0,0,1,1,1
"525","stim/objects/Instruments/grandpiano.png",271,29,264,0.9,"stim/12.jpeg",1,2,3,2,"Instruments",2,4,"right","right",0.583999872,1,1,1,0,NA,NA,NA,NA,NA,NA,NA,NA,NA,NA,NA,NA,NA,NA,NA,NA,NA,NA,NA,NA,NA,NA,NA,NA
"457","stim/objects/Instruments/flute.png",272,29,265,0.9,"stim/13.jpeg",1,3,3,2,"Instruments",2,3,"right","right",0.568000078,1,1,1,0,NA,NA,NA,NA,NA,NA,NA,NA,NA,NA,NA,NA,NA,NA,NA,NA,NA,NA,NA,NA,NA,NA,NA,NA
"418","stim/objects/Instruments/bassdrum.png",273,29,266,0.5,"stim/34.jpeg",3,4,1,2,"Instruments",2,3,"right","left",0.527999878,0,0,1,0,NA,NA,NA,NA,NA,NA,NA,NA,NA,NA,NA,NA,NA,NA,NA,NA,NA,NA,NA,NA,NA,NA,NA,NA
"475","stim/objects/Instruments/flutetrans.png",274,29,267,0.9,"stim/11.jpeg",1,1,3,2,"Instruments",2,2,"right","right",0.539999962,1,1,1,0,NA,NA,NA,NA,NA,NA,NA,NA,NA,NA,NA,NA,NA,NA,NA,NA,NA,NA,NA,NA,NA,NA,NA,NA
"361","stim/objects/HouseObjects/glass.png",275,29,268,0.9,"stim/23.jpeg",2,3,3,2,"HouseObjects",1,1,"left","left",0.500999928,1,1,1,0,NA,NA,NA,NA,NA,NA,NA,NA,NA,NA,NA,NA,NA,NA,NA,NA,NA,NA,NA,NA,NA,NA,NA,NA
"554","stim/objects/Instruments/maraca2.png",276,29,269,0.1,"stim/24.jpeg",2,4,3,1,"Instruments",2,4,"right","left",0.445999861,0,0,1,0,119,29,1,0.1,2,"stim/24.jpeg",2,4,"stim/24.jpeg",4,"right",1.556999922,4,4,0.559999943,4,0.278999805,119,0,1,NA,1,NA,1
"309","stim/objects/HouseObjects/dustpan.png",277,29,270,0.9,"stim/21.jpeg",2,1,3,2,"HouseObjects",1,2,"left","left",0.436999798,1,1,1,0,NA,NA,NA,NA,NA,NA,NA,NA,NA,NA,NA,NA,NA,NA,NA,NA,NA,NA,NA,NA,NA,NA,NA,NA
"526","stim/objects/Instruments/grandpiano.png",278,29,271,0.9,"stim/14.jpeg",1,4,3,2,"Instruments",2,2,"right","right",0.556999922,1,1,1,0,NA,NA,NA,NA,NA,NA,NA,NA,NA,NA,NA,NA,NA,NA,NA,NA,NA,NA,NA,NA,NA,NA,NA,NA
"542","stim/objects/Instruments/guitarcase2.png",279,29,272,0.9,"stim/14.jpeg",1,4,3,1,"Instruments",2,4,"right","right",0.499999762,1,1,1,0,55,29,1,0.9,2,"stim/14.jpeg",1,4,"stim/14.jpeg",4,"left",2.115999937,3,3,3.037999868,3,0.626999855,55,1,0,0,0,0,1
"459","stim/objects/Instruments/flute.png",280,29,273,0.9,"stim/13.jpeg",1,3,3,2,"Instruments",2,2,"right","right",0.463999987,1,1,1,0,NA,NA,NA,NA,NA,NA,NA,NA,NA,NA,NA,NA,NA,NA,NA,NA,NA,NA,NA,NA,NA,NA,NA,NA
"549","stim/objects/Instruments/keyboard.png",281,29,274,0.5,"stim/32.jpeg",3,2,1,1,"Instruments",2,2,"right","left",0.684000015,0,0,1,0,48,29,1,0.5,1,"stim/32.jpeg",3,2,"stim/32.jpeg",2,"left",3.711999893,3,3,1.426999807,4,0.56799984,48,1,0,0,0,0,1
"292","stim/objects/HouseObjects/doormat.png",282,29,275,0.9,"stim/21.jpeg",2,1,3,2,"HouseObjects",1,3,"left","left",0.53399992,1,1,1,0,NA,NA,NA,NA,NA,NA,NA,NA,NA,NA,NA,NA,NA,NA,NA,NA,NA,NA,NA,NA,NA,NA,NA,NA
"411","stim/objects/Instruments/acousticguitar2.png",283,29,276,0.7,"stim/54.jpeg",5,4,2,1,"Instruments",2,1,"right","right",0.819999933,1,1,1,0,16,29,1,0.7,2,"stim/54.jpeg",5,4,"stim/54.jpeg",1,"left",4.753000021,2,4,7.855999947,4,0.725999832,16,1,1,1,0,0,1
"527","stim/objects/Instruments/grandpiano.png",284,29,277,0.9,"stim/14.jpeg",1,4,3,2,"Instruments",2,4,"right","right",0.636999846,1,1,1,0,NA,NA,NA,NA,NA,NA,NA,NA,NA,NA,NA,NA,NA,NA,NA,NA,NA,NA,NA,NA,NA,NA,NA,NA
"508","stim/objects/Instruments/gong.png",285,29,278,0.9,"stim/13.jpeg",1,3,3,2,"Instruments",2,3,"right","right",0.473999977,1,1,1,0,NA,NA,NA,NA,NA,NA,NA,NA,NA,NA,NA,NA,NA,NA,NA,NA,NA,NA,NA,NA,NA,NA,NA,NA
"391","stim/objects/HouseObjects/knife2.png",286,29,279,0.9,"stim/23.jpeg",2,3,3,1,"HouseObjects",1,3,"left","left",0.684999943,1,1,1,0,64,29,1,0.9,1,"stim/23.jpeg",2,3,"stim/23.jpeg",3,"left",1.237999916,4,3,3.636999846,3,0.774999857,64,1,1,1,1,1,1
"528","stim/objects/Instruments/grandpiano.png",287,29,280,0.9,"stim/13.jpeg",1,3,3,2,"Instruments",2,4,"right","right",0.552999973,1,1,1,0,NA,NA,NA,NA,NA,NA,NA,NA,NA,NA,NA,NA,NA,NA,NA,NA,NA,NA,NA,NA,NA,NA,NA,NA
"343","stim/objects/HouseObjects/garbagebin.png",288,29,281,0.9,"stim/24.jpeg",2,4,3,2,"HouseObjects",1,1,"left","left",0.582999945,1,1,1,0,NA,NA,NA,NA,NA,NA,NA,NA,NA,NA,NA,NA,NA,NA,NA,NA,NA,NA,NA,NA,NA,NA,NA,NA
"420","stim/objects/Instruments/bassdrum2.png",289,29,282,0.7,"stim/53.jpeg",5,3,2,1,"Instruments",2,2,"right","right",0.602999926,1,1,1,0,139,29,1,0.7,2,"stim/53.jpeg",5,3,"stim/53.jpeg",2,"right",1.436999798,1,1,0.226999998,1,0.507999897,139,0,0,NA,0,NA,1
"494","stim/objects/Instruments/frenchhorn.png",290,29,283,0.9,"stim/11.jpeg",1,1,3,2,"Instruments",2,1,"right","right",0.546000004,1,1,1,0,NA,NA,NA,NA,NA,NA,NA,NA,NA,NA,NA,NA,NA,NA,NA,NA,NA,NA,NA,NA,NA,NA,NA,NA
"441","stim/objects/Instruments/doublebass.png",291,29,284,0.7,"stim/54.jpeg",5,4,2,2,"Instruments",2,2,"right","right",0.528000116,1,1,1,0,NA,NA,NA,NA,NA,NA,NA,NA,NA,NA,NA,NA,NA,NA,NA,NA,NA,NA,NA,NA,NA,NA,NA,NA
"476","stim/objects/Instruments/flutetrans.png",292,29,285,0.9,"stim/14.jpeg",1,4,3,2,"Instruments",2,3,"right","right",0.505999804,1,1,1,0,NA,NA,NA,NA,NA,NA,NA,NA,NA,NA,NA,NA,NA,NA,NA,NA,NA,NA,NA,NA,NA,NA,NA,NA
"288","stim/objects/HouseObjects/dishsoap.png",293,29,286,0.7,"stim/61.jpeg",6,1,2,2,"HouseObjects",1,3,"left","left",0.569000006,1,1,1,0,NA,NA,NA,NA,NA,NA,NA,NA,NA,NA,NA,NA,NA,NA,NA,NA,NA,NA,NA,NA,NA,NA,NA,NA
"559","stim/objects/Instruments/musicsheet.png",294,29,287,0.5,"stim/44.jpeg",4,4,1,1,"Instruments",2,2,"right","left",0.552999973,0,0,1,0,6,29,1,0.5,2,"stim/44.jpeg",4,4,"stim/44.jpeg",2,"left",2.537999868,4,3,4.791999817,2,0.9599998,6,1,0,0,1,1,1
"250","stim/objects/HouseObjects/basket.png",295,29,288,0.5,"stim/31.jpeg",3,1,1,2,"HouseObjects",1,3,"left","right",0.743000031,0,0,1,0,NA,NA,NA,NA,NA,NA,NA,NA,NA,NA,NA,NA,NA,NA,NA,NA,NA,NA,NA,NA,NA,NA,NA,NA
"344","stim/objects/HouseObjects/garbagebin.png",296,29,289,0.9,"stim/21.jpeg",2,1,3,2,"HouseObjects",1,3,"left","left",0.578000069,1,1,1,0,NA,NA,NA,NA,NA,NA,NA,NA,NA,NA,NA,NA,NA,NA,NA,NA,NA,NA,NA,NA,NA,NA,NA,NA
"247","stim/objects/HouseObjects/barbecuelighter.png",297,29,290,0.5,"stim/34.jpeg",3,4,1,2,"HouseObjects",1,1,"left","left",0.718999863,1,1,1,0,NA,NA,NA,NA,NA,NA,NA,NA,NA,NA,NA,NA,NA,NA,NA,NA,NA,NA,NA,NA,NA,NA,NA,NA
"345","stim/objects/HouseObjects/garbagebin.png",298,29,291,0.9,"stim/23.jpeg",2,3,3,2,"HouseObjects",1,3,"left","left",0.572999954,1,1,1,0,NA,NA,NA,NA,NA,NA,NA,NA,NA,NA,NA,NA,NA,NA,NA,NA,NA,NA,NA,NA,NA,NA,NA,NA
"362","stim/objects/HouseObjects/glass.png",299,29,292,0.9,"stim/22.jpeg",2,2,3,2,"HouseObjects",1,3,"left","left",0.394000053,1,1,1,0,NA,NA,NA,NA,NA,NA,NA,NA,NA,NA,NA,NA,NA,NA,NA,NA,NA,NA,NA,NA,NA,NA,NA,NA
"283","stim/objects/HouseObjects/cushion.png",300,29,293,0.7,"stim/61.jpeg",6,1,2,2,"HouseObjects",1,4,"left","left",0.576999903,1,1,1,0,NA,NA,NA,NA,NA,NA,NA,NA,NA,NA,NA,NA,NA,NA,NA,NA,NA,NA,NA,NA,NA,NA,NA,NA
"260","stim/objects/HouseObjects/bottle.png",301,29,294,0.5,"stim/41.jpeg",4,1,1,2,"HouseObjects",1,2,"left","left",0.68599987,1,1,1,0,NA,NA,NA,NA,NA,NA,NA,NA,NA,NA,NA,NA,NA,NA,NA,NA,NA,NA,NA,NA,NA,NA,NA,NA
"495","stim/objects/Instruments/frenchhorn.png",302,29,295,0.9,"stim/12.jpeg",1,2,3,2,"Instruments",2,2,"right","right",0.558000088,1,1,1,0,NA,NA,NA,NA,NA,NA,NA,NA,NA,NA,NA,NA,NA,NA,NA,NA,NA,NA,NA,NA,NA,NA,NA,NA
"310","stim/objects/HouseObjects/dustpan.png",303,29,296,0.9,"stim/22.jpeg",2,2,3,2,"HouseObjects",1,1,"left","left",0.495999813,1,1,1,0,NA,NA,NA,NA,NA,NA,NA,NA,NA,NA,NA,NA,NA,NA,NA,NA,NA,NA,NA,NA,NA,NA,NA,NA
"241","stim/objects/HouseObjects/ashtray.png",304,29,297,0.5,"stim/32.jpeg",3,2,1,2,"HouseObjects",1,2,"left","left",0.621000051,1,1,1,0,NA,NA,NA,NA,NA,NA,NA,NA,NA,NA,NA,NA,NA,NA,NA,NA,NA,NA,NA,NA,NA,NA,NA,NA
"393","stim/objects/HouseObjects/lintroller2.png",305,29,298,0.9,"stim/24.jpeg",2,4,3,1,"HouseObjects",1,4,"left","left",0.523999929,1,1,1,0,20,29,1,0.9,1,"stim/24.jpeg",2,4,"stim/24.jpeg",4,"left",1.65899992,2,3,0.950000048,4,0.481999874,20,1,0,0,1,1,1
"346","stim/objects/HouseObjects/garbagebin.png",306,29,299,0.9,"stim/22.jpeg",2,2,3,2,"HouseObjects",1,1,"left","left",0.471999884,1,1,1,0,NA,NA,NA,NA,NA,NA,NA,NA,NA,NA,NA,NA,NA,NA,NA,NA,NA,NA,NA,NA,NA,NA,NA,NA
"496","stim/objects/Instruments/frenchhorn.png",307,29,300,0.9,"stim/14.jpeg",1,4,3,2,"Instruments",2,1,"right","right",0.602999926,1,1,1,0,NA,NA,NA,NA,NA,NA,NA,NA,NA,NA,NA,NA,NA,NA,NA,NA,NA,NA,NA,NA,NA,NA,NA,NA
"509","stim/objects/Instruments/gong.png",308,29,301,0.9,"stim/12.jpeg",1,2,3,2,"Instruments",2,4,"right","right",0.47699976,1,1,1,0,NA,NA,NA,NA,NA,NA,NA,NA,NA,NA,NA,NA,NA,NA,NA,NA,NA,NA,NA,NA,NA,NA,NA,NA
"249","stim/objects/HouseObjects/barbecuelighter2.png",309,29,302,0.3,"stim/54.jpeg",5,4,2,1,"HouseObjects",1,1,"left","left",0.47699976,1,1,1,0,182,29,1,0.3,1,"stim/54.jpeg",5,4,"stim/54.jpeg",1,"right",0.792999744,1,1,0.506000042,1,0.221999884,182,0,0,NA,1,NA,1
"452","stim/objects/Instruments/electricguitar.png",310,29,303,0.7,"stim/54.jpeg",5,4,2,2,"Instruments",2,1,"right","left",0.45299983,0,0,1,0,NA,NA,NA,NA,NA,NA,NA,NA,NA,NA,NA,NA,NA,NA,NA,NA,NA,NA,NA,NA,NA,NA,NA,NA
"427","stim/objects/Instruments/chime.png",311,29,304,0.5,"stim/41.jpeg",4,1,1,2,"Instruments",2,2,"right","right",0.56799984,1,1,1,0,NA,NA,NA,NA,NA,NA,NA,NA,NA,NA,NA,NA,NA,NA,NA,NA,NA,NA,NA,NA,NA,NA,NA,NA
"447","stim/objects/Instruments/drums2.png",312,29,305,0.3,"stim/61.jpeg",6,1,2,1,"Instruments",2,3,"right","left",0.480999947,0,0,1,0,25,29,1,0.3,2,"stim/61.jpeg",6,1,"stim/61.jpeg",3,"right",1.052000046,3,4,6.005999804,4,0.304999828,25,0,0,NA,0,NA,1
"264","stim/objects/HouseObjects/broom2.png",313,29,306,0.7,"stim/62.jpeg",6,2,2,1,"HouseObjects",1,2,"left","left",0.569999933,1,1,1,0,145,29,1,0.7,1,"stim/62.jpeg",6,2,"stim/62.jpeg",2,"left",2.111999989,4,4,1.207000017,2,0.932999849,145,1,0,0,1,1,1
"275","stim/objects/HouseObjects/clothespin.png",314,29,307,0.7,"stim/64.jpeg",6,4,2,2,"HouseObjects",1,3,"left","left",0.619999886,1,1,1,0,NA,NA,NA,NA,NA,NA,NA,NA,NA,NA,NA,NA,NA,NA,NA,NA,NA,NA,NA,NA,NA,NA,NA,NA
"294","stim/objects/HouseObjects/doormat.png",315,29,308,0.9,"stim/24.jpeg",2,4,3,2,"HouseObjects",1,2,"left","left",0.446999788,1,1,1,0,NA,NA,NA,NA,NA,NA,NA,NA,NA,NA,NA,NA,NA,NA,NA,NA,NA,NA,NA,NA,NA,NA,NA,NA
"412","stim/objects/Instruments/balalaika.png",316,29,309,0.5,"stim/32.jpeg",3,2,1,2,"Instruments",2,1,"right","left",0.646999836,0,0,1,0,NA,NA,NA,NA,NA,NA,NA,NA,NA,NA,NA,NA,NA,NA,NA,NA,NA,NA,NA,NA,NA,NA,NA,NA
"295","stim/objects/HouseObjects/doormat.png",317,29,310,0.9,"stim/23.jpeg",2,3,3,2,"HouseObjects",1,3,"left","left",0.544000149,1,1,1,0,NA,NA,NA,NA,NA,NA,NA,NA,NA,NA,NA,NA,NA,NA,NA,NA,NA,NA,NA,NA,NA,NA,NA,NA
"426","stim/objects/Instruments/cello2.png",318,29,311,0.3,"stim/63.jpeg",6,3,2,1,"Instruments",2,4,"right","left",0.457999945,0,0,1,0,43,29,1,0.3,2,"stim/63.jpeg",6,3,"stim/63.jpeg",4,"left",2.390000105,4,3,1.56099987,4,0.398000002,43,1,1,1,1,1,1
"497","stim/objects/Instruments/frenchhorn.png",319,29,312,0.9,"stim/12.jpeg",1,2,3,2,"Instruments",2,1,"right","left",0.519999981,0,0,1,0,NA,NA,NA,NA,NA,NA,NA,NA,NA,NA,NA,NA,NA,NA,NA,NA,NA,NA,NA,NA,NA,NA,NA,NA
"388","stim/objects/HouseObjects/key.png",320,29,313,0.5,"stim/42.jpeg",4,2,1,1,"HouseObjects",1,4,"left","left",0.644000053,1,1,1,0,102,29,1,0.5,2,"stim/42.jpeg",4,2,"stim/42.jpeg",4,"right",1.377999783,1,1,0.491999865,1,0.295999765,102,0,0,NA,0,NA,1
"570","stim/objects/Instruments/record2.png",321,29,314,0.1,"stim/24.jpeg",2,4,3,1,"Instruments",2,3,"right","left",0.486000061,0,0,1,0,77,29,1,0.1,2,"stim/24.jpeg",2,4,"stim/24.jpeg",3,"right",1.554999828,4,4,0.882999897,4,0.406000137,77,0,1,NA,0,NA,1
"383","stim/objects/HouseObjects/handvacuum2.png",322,29,315,0.1,"stim/11.jpeg",1,1,3,1,"HouseObjects",1,2,"left","right",0.770999908,0,0,1,0,88,29,1,0.1,1,"stim/11.jpeg",1,1,"stim/11.jpeg",2,"right",1.046999931,4,4,0.274999857,4,0.236999989,88,0,0,NA,0,NA,1
"297","stim/objects/HouseObjects/doormat.png",323,29,316,0.9,"stim/23.jpeg",2,3,3,2,"HouseObjects",1,2,"left","left",0.713000059,1,1,1,0,NA,NA,NA,NA,NA,NA,NA,NA,NA,NA,NA,NA,NA,NA,NA,NA,NA,NA,NA,NA,NA,NA,NA,NA
"430","stim/objects/Instruments/clarinet.png",324,29,317,0.5,"stim/41.jpeg",4,1,1,2,"Instruments",2,4,"right","right",0.822000027,1,1,1,0,NA,NA,NA,NA,NA,NA,NA,NA,NA,NA,NA,NA,NA,NA,NA,NA,NA,NA,NA,NA,NA,NA,NA,NA
"347","stim/objects/HouseObjects/garbagebin.png",325,29,318,0.9,"stim/23.jpeg",2,3,3,2,"HouseObjects",1,2,"left","left",0.480999947,1,1,1,0,NA,NA,NA,NA,NA,NA,NA,NA,NA,NA,NA,NA,NA,NA,NA,NA,NA,NA,NA,NA,NA,NA,NA,NA
"530","stim/objects/Instruments/grandpiano.png",326,29,319,0.9,"stim/12.jpeg",1,2,3,2,"Instruments",2,2,"right","right",0.564999819,1,1,1,0,NA,NA,NA,NA,NA,NA,NA,NA,NA,NA,NA,NA,NA,NA,NA,NA,NA,NA,NA,NA,NA,NA,NA,NA
"245","stim/objects/HouseObjects/ballofstring.png",327,29,320,0.5,"stim/33.jpeg",3,3,1,2,"HouseObjects",1,1,"left","right",0.838000059,0,0,1,0,NA,NA,NA,NA,NA,NA,NA,NA,NA,NA,NA,NA,NA,NA,NA,NA,NA,NA,NA,NA,NA,NA,NA,NA
"328","stim/objects/HouseObjects/flyswatter.png",328,29,321,0.9,"stim/22.jpeg",2,2,3,2,"HouseObjects",1,3,"left","left",0.427999973,1,1,1,0,NA,NA,NA,NA,NA,NA,NA,NA,NA,NA,NA,NA,NA,NA,NA,NA,NA,NA,NA,NA,NA,NA,NA,NA
"478","stim/objects/Instruments/flutetrans.png",329,29,322,0.9,"stim/13.jpeg",1,3,3,2,"Instruments",2,2,"right","right",0.485999823,1,1,1,0,NA,NA,NA,NA,NA,NA,NA,NA,NA,NA,NA,NA,NA,NA,NA,NA,NA,NA,NA,NA,NA,NA,NA,NA
"329","stim/objects/HouseObjects/flyswatter.png",330,29,323,0.9,"stim/22.jpeg",2,2,3,2,"HouseObjects",1,1,"left","left",0.487999916,1,1,1,0,NA,NA,NA,NA,NA,NA,NA,NA,NA,NA,NA,NA,NA,NA,NA,NA,NA,NA,NA,NA,NA,NA,NA,NA
"511","stim/objects/Instruments/gong.png",331,29,324,0.9,"stim/14.jpeg",1,4,3,2,"Instruments",2,1,"right","right",0.49399972,1,1,1,0,NA,NA,NA,NA,NA,NA,NA,NA,NA,NA,NA,NA,NA,NA,NA,NA,NA,NA,NA,NA,NA,NA,NA,NA
"460","stim/objects/Instruments/flute.png",332,29,325,0.9,"stim/12.jpeg",1,2,3,2,"Instruments",2,2,"right","right",0.514999866,1,1,1,0,NA,NA,NA,NA,NA,NA,NA,NA,NA,NA,NA,NA,NA,NA,NA,NA,NA,NA,NA,NA,NA,NA,NA,NA
"531","stim/objects/Instruments/grandpiano.png",333,29,326,0.9,"stim/11.jpeg",1,1,3,2,"Instruments",2,3,"right","right",0.488999844,1,1,1,0,NA,NA,NA,NA,NA,NA,NA,NA,NA,NA,NA,NA,NA,NA,NA,NA,NA,NA,NA,NA,NA,NA,NA,NA
"262","stim/objects/HouseObjects/broom.png",334,29,327,0.5,"stim/41.jpeg",4,1,1,2,"HouseObjects",1,4,"left","left",0.536000013,1,1,1,0,NA,NA,NA,NA,NA,NA,NA,NA,NA,NA,NA,NA,NA,NA,NA,NA,NA,NA,NA,NA,NA,NA,NA,NA
"252","stim/objects/HouseObjects/basket2.png",335,29,328,0.3,"stim/51.jpeg",5,1,2,1,"HouseObjects",1,3,"left","left",0.728999853,1,1,1,0,54,29,1,0.3,1,"stim/51.jpeg",5,1,"stim/51.jpeg",3,"left",1.372999907,2,3,1.797999859,2,1.282999992,54,1,0,0,0,0,1
"425","stim/objects/Instruments/cello.png",336,29,329,0.5,"stim/44.jpeg",4,4,1,2,"Instruments",2,4,"right","left",0.684000015,0,0,1,0,NA,NA,NA,NA,NA,NA,NA,NA,NA,NA,NA,NA,NA,NA,NA,NA,NA,NA,NA,NA,NA,NA,NA,NA
"532","stim/objects/Instruments/grandpiano.png",337,29,330,0.9,"stim/14.jpeg",1,4,3,2,"Instruments",2,4,"right","right",0.625,1,1,1,0,NA,NA,NA,NA,NA,NA,NA,NA,NA,NA,NA,NA,NA,NA,NA,NA,NA,NA,NA,NA,NA,NA,NA,NA
"364","stim/objects/HouseObjects/glass.png",338,29,331,0.9,"stim/21.jpeg",2,1,3,2,"HouseObjects",1,1,"left","left",0.506000042,1,1,1,0,NA,NA,NA,NA,NA,NA,NA,NA,NA,NA,NA,NA,NA,NA,NA,NA,NA,NA,NA,NA,NA,NA,NA,NA
"533","stim/objects/Instruments/grandpiano.png",339,29,332,0.9,"stim/12.jpeg",1,2,3,2,"Instruments",2,3,"right","right",0.627999783,1,1,1,0,NA,NA,NA,NA,NA,NA,NA,NA,NA,NA,NA,NA,NA,NA,NA,NA,NA,NA,NA,NA,NA,NA,NA,NA
"553","stim/objects/Instruments/maraca.png",340,29,333,0.5,"stim/41.jpeg",4,1,1,1,"Instruments",2,3,"right","left",0.631000042,0,0,1,0,143,29,1,0.5,2,"stim/41.jpeg",4,1,"stim/41.jpeg",3,"left",1.914000034,4,3,6.984999895,3,0.618000031,143,1,0,0,1,1,1
"397","stim/objects/HouseObjects/pan2.png",341,29,334,0.9,"stim/22.jpeg",2,2,3,1,"HouseObjects",1,3,"left","left",0.665999889,1,1,1,0,103,29,1,0.9,1,"stim/22.jpeg",2,2,"stim/22.jpeg",3,"left",1.248000145,4,1,1.111999989,3,0.801999807,103,1,0,0,1,1,1
"312","stim/objects/HouseObjects/dustpan.png",342,29,335,0.9,"stim/24.jpeg",2,4,3,2,"HouseObjects",1,4,"left","left",0.43599987,1,1,1,0,NA,NA,NA,NA,NA,NA,NA,NA,NA,NA,NA,NA,NA,NA,NA,NA,NA,NA,NA,NA,NA,NA,NA,NA
"560","stim/objects/Instruments/musicsheet2.png",343,29,336,0.1,"stim/23.jpeg",2,3,3,1,"Instruments",2,4,"right","left",0.421999931,0,0,1,0,176,29,1,0.1,2,"stim/23.jpeg",2,3,"stim/23.jpeg",4,"right",0.960999966,1,1,0.588999748,1,0.296000004,176,0,0,NA,0,NA,1
"480","stim/objects/Instruments/flutetrans.png",344,29,337,0.9,"stim/13.jpeg",1,3,3,2,"Instruments",2,2,"right","right",0.552000046,1,1,1,0,NA,NA,NA,NA,NA,NA,NA,NA,NA,NA,NA,NA,NA,NA,NA,NA,NA,NA,NA,NA,NA,NA,NA,NA
"512","stim/objects/Instruments/gong.png",345,29,338,0.9,"stim/14.jpeg",1,4,3,2,"Instruments",2,4,"right","right",0.479000092,1,1,1,0,NA,NA,NA,NA,NA,NA,NA,NA,NA,NA,NA,NA,NA,NA,NA,NA,NA,NA,NA,NA,NA,NA,NA,NA
"534","stim/objects/Instruments/grandpiano.png",346,29,339,0.9,"stim/14.jpeg",1,4,3,2,"Instruments",2,2,"right","right",0.481999874,1,1,1,0,NA,NA,NA,NA,NA,NA,NA,NA,NA,NA,NA,NA,NA,NA,NA,NA,NA,NA,NA,NA,NA,NA,NA,NA
"395","stim/objects/HouseObjects/match2.png",347,29,340,0.9,"stim/21.jpeg",2,1,3,1,"HouseObjects",1,2,"left","left",0.523999929,1,1,1,0,104,29,1,0.9,1,"stim/21.jpeg",2,1,"stim/21.jpeg",2,"left",2.289999962,2,2,0.836999893,1,0.957000017,104,1,0,0,0,0,1
"453","stim/objects/Instruments/electricguitar.png",348,29,341,0.7,"stim/51.jpeg",5,1,2,2,"Instruments",2,1,"right","left",0.720999956,0,0,1,0,NA,NA,NA,NA,NA,NA,NA,NA,NA,NA,NA,NA,NA,NA,NA,NA,NA,NA,NA,NA,NA,NA,NA,NA
"461","stim/objects/Instruments/flute.png",349,29,342,0.9,"stim/14.jpeg",1,4,3,2,"Instruments",2,2,"right","right",0.570999861,1,1,1,0,NA,NA,NA,NA,NA,NA,NA,NA,NA,NA,NA,NA,NA,NA,NA,NA,NA,NA,NA,NA,NA,NA,NA,NA
"513","stim/objects/Instruments/gong.png",350,29,343,0.9,"stim/14.jpeg",1,4,3,2,"Instruments",2,3,"right","right",0.412999868,1,1,1,0,NA,NA,NA,NA,NA,NA,NA,NA,NA,NA,NA,NA,NA,NA,NA,NA,NA,NA,NA,NA,NA,NA,NA,NA
"365","stim/objects/HouseObjects/glass.png",351,29,344,0.9,"stim/21.jpeg",2,1,3,2,"HouseObjects",1,4,"left","right",0.398999929,0,0,1,0,NA,NA,NA,NA,NA,NA,NA,NA,NA,NA,NA,NA,NA,NA,NA,NA,NA,NA,NA,NA,NA,NA,NA,NA
"270","stim/objects/HouseObjects/clock2.png",352,29,345,0.7,"stim/64.jpeg",6,4,2,1,"HouseObjects",1,1,"left","left",0.598999739,1,1,1,0,164,29,1,0.7,1,"stim/64.jpeg",6,4,"stim/64.jpeg",1,"left",1.737999916,4,4,1.653999805,2,0.656999826,164,1,1,1,0,0,1
"449","stim/objects/Instruments/electricdrumset.png",353,29,346,0.7,"stim/52.jpeg",5,2,2,2,"Instruments",2,3,"right","right",0.707000017,1,1,1,0,NA,NA,NA,NA,NA,NA,NA,NA,NA,NA,NA,NA,NA,NA,NA,NA,NA,NA,NA,NA,NA,NA,NA,NA
"330","stim/objects/HouseObjects/flyswatter.png",354,29,347,0.9,"stim/24.jpeg",2,4,3,2,"HouseObjects",1,3,"left","left",0.457999945,1,1,1,0,NA,NA,NA,NA,NA,NA,NA,NA,NA,NA,NA,NA,NA,NA,NA,NA,NA,NA,NA,NA,NA,NA,NA,NA
"462","stim/objects/Instruments/flute.png",355,29,348,0.9,"stim/12.jpeg",1,2,3,2,"Instruments",2,2,"right","right",0.532999992,1,1,1,0,NA,NA,NA,NA,NA,NA,NA,NA,NA,NA,NA,NA,NA,NA,NA,NA,NA,NA,NA,NA,NA,NA,NA,NA
"242","stim/objects/HouseObjects/ashtray.png",356,29,349,0.5,"stim/31.jpeg",3,1,1,2,"HouseObjects",1,1,"left","right",0.633999825,0,0,1,0,NA,NA,NA,NA,NA,NA,NA,NA,NA,NA,NA,NA,NA,NA,NA,NA,NA,NA,NA,NA,NA,NA,NA,NA
"276","stim/objects/HouseObjects/clothespin.png",357,29,350,0.7,"stim/62.jpeg",6,2,2,2,"HouseObjects",1,2,"left","left",0.467999935,1,1,1,0,NA,NA,NA,NA,NA,NA,NA,NA,NA,NA,NA,NA,NA,NA,NA,NA,NA,NA,NA,NA,NA,NA,NA,NA
"416","stim/objects/Instruments/banjo.png",358,29,351,0.5,"stim/33.jpeg",3,3,1,2,"Instruments",2,2,"right","left",0.739000082,0,0,1,0,NA,NA,NA,NA,NA,NA,NA,NA,NA,NA,NA,NA,NA,NA,NA,NA,NA,NA,NA,NA,NA,NA,NA,NA
"454","stim/objects/Instruments/electricguitar.png",359,29,352,0.7,"stim/53.jpeg",5,3,2,2,"Instruments",2,4,"right","",NA,0,0,1,0,NA,NA,NA,NA,NA,NA,NA,NA,NA,NA,NA,NA,NA,NA,NA,NA,NA,NA,NA,NA,NA,NA,NA,NA
"510","stim/objects/Instruments/gong.png",360,29,353,0.9,"stim/11.jpeg",1,1,3,2,"Instruments",2,2,"right","right",0.616999865,1,1,1,0,NA,NA,NA,NA,NA,NA,NA,NA,NA,NA,NA,NA,NA,NA,NA,NA,NA,NA,NA,NA,NA,NA,NA,NA
"375","stim/objects/HouseObjects/glass2.png",361,29,354,0.1,"stim/11.jpeg",1,1,3,1,"HouseObjects",1,4,"left","right",0.609999895,0,0,1,0,118,29,1,0.1,1,"stim/11.jpeg",1,1,"stim/11.jpeg",4,"left",1.694999933,4,4,2.076999903,4,0.453999758,118,1,0,0,1,1,1
"349","stim/objects/HouseObjects/garbagebin.png",362,29,355,0.9,"stim/24.jpeg",2,4,3,2,"HouseObjects",1,3,"left","right",0.652999878,0,0,1,0,NA,NA,NA,NA,NA,NA,NA,NA,NA,NA,NA,NA,NA,NA,NA,NA,NA,NA,NA,NA,NA,NA,NA,NA
"561","stim/objects/Instruments/musicstand.png",363,29,356,0.7,"stim/52.jpeg",5,2,2,1,"Instruments",2,2,"right","right",0.633999825,1,1,1,0,33,29,1,0.7,2,"stim/52.jpeg",5,2,"stim/52.jpeg",2,"left",3.505000114,4,2,3.212999821,4,2.598999739,33,1,1,1,0,0,1
"450","stim/objects/Instruments/electricdrumset.png",364,29,357,0.7,"stim/54.jpeg",5,4,2,2,"Instruments",2,1,"right","right",0.772000074,1,1,1,0,NA,NA,NA,NA,NA,NA,NA,NA,NA,NA,NA,NA,NA,NA,NA,NA,NA,NA,NA,NA,NA,NA,NA,NA
"313","stim/objects/HouseObjects/dustpan.png",365,29,358,0.9,"stim/23.jpeg",2,3,3,2,"HouseObjects",1,4,"left","left",0.484999895,1,1,1,0,NA,NA,NA,NA,NA,NA,NA,NA,NA,NA,NA,NA,NA,NA,NA,NA,NA,NA,NA,NA,NA,NA,NA,NA
"253","stim/objects/HouseObjects/bleachbottle.png",366,29,359,0.5,"stim/32.jpeg",3,2,1,2,"HouseObjects",1,3,"left","",NA,0,0,1,0,NA,NA,NA,NA,NA,NA,NA,NA,NA,NA,NA,NA,NA,NA,NA,NA,NA,NA,NA,NA,NA,NA,NA,NA
"257","stim/objects/HouseObjects/blender.png",367,29,360,0.5,"stim/44.jpeg",4,4,1,2,"HouseObjects",1,2,"left","left",0.555999994,1,1,1,0,NA,NA,NA,NA,NA,NA,NA,NA,NA,NA,NA,NA,NA,NA,NA,NA,NA,NA,NA,NA,NA,NA,NA,NA
"421","stim/objects/Instruments/bassguitar.png",368,29,361,0.5,"stim/42.jpeg",4,2,1,2,"Instruments",2,4,"right","left",0.705999851,0,0,1,0,NA,NA,NA,NA,NA,NA,NA,NA,NA,NA,NA,NA,NA,NA,NA,NA,NA,NA,NA,NA,NA,NA,NA,NA
"376","stim/objects/HouseObjects/glassmop.png",369,29,362,0.5,"stim/33.jpeg",3,3,1,1,"HouseObjects",1,1,"left","right",0.680000067,0,0,1,0,120,29,1,0.5,1,"stim/33.jpeg",3,3,"stim/33.jpeg",1,"left",2.661000013,2,2,1.684999943,4,0.697000027,120,1,0,0,0,0,1
"435","stim/objects/Instruments/cornet2.png",370,29,363,0.3,"stim/62.jpeg",6,2,2,1,"Instruments",2,2,"right","left",0.514999866,0,0,1,0,49,29,1,0.3,2,"stim/62.jpeg",6,2,"stim/62.jpeg",2,"left",1.849999905,3,4,12.17299986,3,0.641000032,49,1,0,0,0,0,1
"473","stim/objects/Instruments/flutetrans.png",371,29,364,0.9,"stim/12.jpeg",1,2,3,2,"Instruments",2,3,"right","right",0.639999866,1,1,1,0,NA,NA,NA,NA,NA,NA,NA,NA,NA,NA,NA,NA,NA,NA,NA,NA,NA,NA,NA,NA,NA,NA,NA,NA
"500","stim/objects/Instruments/frenchhorn.png",372,29,365,0.9,"stim/11.jpeg",1,1,3,2,"Instruments",2,4,"right","right",0.46600008,1,1,1,0,NA,NA,NA,NA,NA,NA,NA,NA,NA,NA,NA,NA,NA,NA,NA,NA,NA,NA,NA,NA,NA,NA,NA,NA
"401","stim/objects/HouseObjects/recyclingbin2.png",373,29,366,0.9,"stim/24.jpeg",2,4,3,1,"HouseObjects",1,1,"left","left",0.512000084,1,1,1,0,133,29,1,0.9,1,"stim/24.jpeg",2,4,"stim/24.jpeg",1,"right",0.795000076,1,1,0.805999994,1,0.253000021,133,0,0,NA,1,NA,1
"403","stim/objects/HouseObjects/remote2.png",374,29,367,0.9,"stim/21.jpeg",2,1,3,1,"HouseObjects",1,2,"left","left",0.511999846,1,1,1,0,138,29,1,0.9,1,"stim/21.jpeg",2,1,"stim/21.jpeg",2,"right",1.762999773,1,1,0.46999979,1,0.28399992,138,0,1,NA,0,NA,1
"406","stim/objects/Instruments/accordion.png",375,29,368,0.5,"stim/34.jpeg",3,4,1,2,"Instruments",2,1,"right","right",0.569999933,1,1,1,0,NA,NA,NA,NA,NA,NA,NA,NA,NA,NA,NA,NA,NA,NA,NA,NA,NA,NA,NA,NA,NA,NA,NA,NA
"350","stim/objects/HouseObjects/garbagebin.png",376,29,369,0.9,"stim/23.jpeg",2,3,3,2,"HouseObjects",1,1,"left","left",0.519000053,1,1,1,0,NA,NA,NA,NA,NA,NA,NA,NA,NA,NA,NA,NA,NA,NA,NA,NA,NA,NA,NA,NA,NA,NA,NA,NA
"291","stim/objects/HouseObjects/doormat.png",377,29,370,0.9,"stim/24.jpeg",2,4,3,2,"HouseObjects",1,4,"left","left",0.492999792,1,1,1,0,NA,NA,NA,NA,NA,NA,NA,NA,NA,NA,NA,NA,NA,NA,NA,NA,NA,NA,NA,NA,NA,NA,NA,NA
"263","stim/objects/HouseObjects/broom.png",378,29,371,0.5,"stim/42.jpeg",4,2,1,2,"HouseObjects",1,1,"left","left",0.798999786,1,1,1,0,NA,NA,NA,NA,NA,NA,NA,NA,NA,NA,NA,NA,NA,NA,NA,NA,NA,NA,NA,NA,NA,NA,NA,NA
"332","stim/objects/HouseObjects/flyswatter.png",379,29,372,0.9,"stim/24.jpeg",2,4,3,2,"HouseObjects",1,4,"left","left",0.493000031,1,1,1,0,NA,NA,NA,NA,NA,NA,NA,NA,NA,NA,NA,NA,NA,NA,NA,NA,NA,NA,NA,NA,NA,NA,NA,NA
"380","stim/objects/HouseObjects/handbrush.png",380,29,373,0.5,"stim/31.jpeg",3,1,1,1,"HouseObjects",1,4,"left","right",0.529000044,0,0,1,0,136,29,1,0.5,1,"stim/31.jpeg",3,1,"stim/31.jpeg",4,"right",0.938999891,1,1,0.892999887,1,0.296000004,136,0,1,NA,0,NA,1
"258","stim/objects/HouseObjects/blender2.png",381,29,374,0.7,"stim/64.jpeg",6,4,2,1,"HouseObjects",1,2,"left","left",0.545999765,1,1,1,0,47,29,1,0.7,1,"stim/64.jpeg",6,4,"stim/64.jpeg",2,"left",0.910000086,4,4,1.270999908,2,0.703999996,47,1,1,1,1,1,1
"501","stim/objects/Instruments/frenchhorn.png",382,29,375,0.9,"stim/14.jpeg",1,4,3,2,"Instruments",2,1,"right","left",0.482000113,0,0,1,0,NA,NA,NA,NA,NA,NA,NA,NA,NA,NA,NA,NA,NA,NA,NA,NA,NA,NA,NA,NA,NA,NA,NA,NA
"366","stim/objects/HouseObjects/glass.png",383,29,376,0.9,"stim/21.jpeg",2,1,3,2,"HouseObjects",1,1,"left","left",0.57400012,1,1,1,0,NA,NA,NA,NA,NA,NA,NA,NA,NA,NA,NA,NA,NA,NA,NA,NA,NA,NA,NA,NA,NA,NA,NA,NA
"483","stim/objects/Instruments/flutetrans.png",384,29,377,0.9,"stim/12.jpeg",1,2,3,2,"Instruments",2,4,"right","right",0.559999943,1,1,1,0,NA,NA,NA,NA,NA,NA,NA,NA,NA,NA,NA,NA,NA,NA,NA,NA,NA,NA,NA,NA,NA,NA,NA,NA
"299","stim/objects/HouseObjects/doormat.png",385,29,378,0.9,"stim/21.jpeg",2,1,3,2,"HouseObjects",1,2,"left","right",0.436999798,0,0,1,0,NA,NA,NA,NA,NA,NA,NA,NA,NA,NA,NA,NA,NA,NA,NA,NA,NA,NA,NA,NA,NA,NA,NA,NA
"255","stim/objects/HouseObjects/bleachbottle2.png",386,29,379,0.3,"stim/52.jpeg",5,2,2,1,"HouseObjects",1,4,"left","right",0.656999826,0,0,1,0,152,29,1,0.3,1,"stim/52.jpeg",5,2,"stim/52.jpeg",4,"left",0.950000048,4,4,2.013999939,3,3.326999903,152,1,0,0,0,0,1
"268","stim/objects/HouseObjects/clock.png",387,29,380,0.5,"stim/44.jpeg",4,4,1,2,"HouseObjects",1,1,"left","left",0.595000029,1,1,1,0,NA,NA,NA,NA,NA,NA,NA,NA,NA,NA,NA,NA,NA,NA,NA,NA,NA,NA,NA,NA,NA,NA,NA,NA
"390","stim/objects/HouseObjects/knife.png",388,29,381,0.5,"stim/43.jpeg",4,3,1,1,"HouseObjects",1,1,"left","left",0.529999971,1,1,1,0,26,29,1,0.5,2,"stim/43.jpeg",4,3,"stim/43.jpeg",1,"left",4.174000025,4,4,4.265999794,1,0.680999994,26,1,0,0,1,1,1
"389","stim/objects/HouseObjects/key2.png",389,29,382,0.9,"stim/22.jpeg",2,2,3,1,"HouseObjects",1,3,"left","left",0.464999914,1,1,1,0,42,29,1,0.9,1,"stim/22.jpeg",2,2,"stim/22.jpeg",3,"left",1.00999999,4,3,2.257999897,2,0.365999937,42,1,0,0,0,0,1
"333","stim/objects/HouseObjects/flyswatter.png",390,29,383,0.9,"stim/23.jpeg",2,3,3,2,"HouseObjects",1,3,"left","left",0.546999931,1,1,1,0,NA,NA,NA,NA,NA,NA,NA,NA,NA,NA,NA,NA,NA,NA,NA,NA,NA,NA,NA,NA,NA,NA,NA,NA
"244","stim/objects/HouseObjects/ballofstring.png",391,29,384,0.5,"stim/32.jpeg",3,2,1,2,"HouseObjects",1,3,"left","left",0.76699996,1,1,1,0,NA,NA,NA,NA,NA,NA,NA,NA,NA,NA,NA,NA,NA,NA,NA,NA,NA,NA,NA,NA,NA,NA,NA,NA
"464","stim/objects/Instruments/flute.png",392,29,385,0.9,"stim/13.jpeg",1,3,3,2,"Instruments",2,4,"right","right",0.600999832,1,1,1,0,NA,NA,NA,NA,NA,NA,NA,NA,NA,NA,NA,NA,NA,NA,NA,NA,NA,NA,NA,NA,NA,NA,NA,NA
"248","stim/objects/HouseObjects/barbecuelighter.png",393,29,386,0.5,"stim/33.jpeg",3,3,1,2,"HouseObjects",1,2,"left","right",0.660999775,0,0,1,0,NA,NA,NA,NA,NA,NA,NA,NA,NA,NA,NA,NA,NA,NA,NA,NA,NA,NA,NA,NA,NA,NA,NA,NA
"272","stim/objects/HouseObjects/clothesdryingrack.png",394,29,387,0.7,"stim/62.jpeg",6,2,2,2,"HouseObjects",1,4,"left","left",0.602999926,1,1,1,0,NA,NA,NA,NA,NA,NA,NA,NA,NA,NA,NA,NA,NA,NA,NA,NA,NA,NA,NA,NA,NA,NA,NA,NA
"351","stim/objects/HouseObjects/garbagebin.png",395,29,388,0.9,"stim/22.jpeg",2,2,3,2,"HouseObjects",1,1,"left","left",0.573999882,1,1,1,0,NA,NA,NA,NA,NA,NA,NA,NA,NA,NA,NA,NA,NA,NA,NA,NA,NA,NA,NA,NA,NA,NA,NA,NA
"455","stim/objects/Instruments/electricguitar2.png",396,29,389,0.3,"stim/63.jpeg",6,3,2,1,"Instruments",2,1,"right","left",0.483999968,0,0,1,0,169,29,1,0.3,2,"stim/63.jpeg",6,3,"stim/63.jpeg",1,"right",0.842000008,1,1,0.604999781,1,0.287999868,169,0,0,NA,1,NA,1
"308","stim/objects/HouseObjects/dustpan.png",397,29,390,0.9,"stim/23.jpeg",2,3,3,2,"HouseObjects",1,4,"left","left",0.536000013,1,1,1,0,NA,NA,NA,NA,NA,NA,NA,NA,NA,NA,NA,NA,NA,NA,NA,NA,NA,NA,NA,NA,NA,NA,NA,NA
"385","stim/objects/HouseObjects/iron2.png",398,29,391,0.1,"stim/12.jpeg",1,2,3,1,"HouseObjects",1,4,"left","left",0.502999783,1,1,1,0,8,29,1,0.1,1,"stim/12.jpeg",1,2,"stim/12.jpeg",4,"left",2.019999981,4,1,3.51699996,2,0.75399971,8,1,0,0,0,0,1
"569","stim/objects/Instruments/record.png",399,29,392,0.7,"stim/52.jpeg",5,2,2,1,"Instruments",2,3,"right","left",0.743000031,0,0,1,0,163,29,1,0.7,2,"stim/52.jpeg",5,2,"stim/52.jpeg",3,"right",0.809999943,1,2,0.757999897,3,0.971999884,163,0,1,NA,1,NA,1
"458","stim/objects/Instruments/flute.png",400,29,393,0.9,"stim/12.jpeg",1,2,3,2,"Instruments",2,4,"right","right",0.662999868,1,1,1,0,NA,NA,NA,NA,NA,NA,NA,NA,NA,NA,NA,NA,NA,NA,NA,NA,NA,NA,NA,NA,NA,NA,NA,NA
"498","stim/objects/Instruments/frenchhorn.png",401,29,394,0.9,"stim/13.jpeg",1,3,3,2,"Instruments",2,2,"right","right",0.464999914,1,1,1,0,NA,NA,NA,NA,NA,NA,NA,NA,NA,NA,NA,NA,NA,NA,NA,NA,NA,NA,NA,NA,NA,NA,NA,NA
"415","stim/objects/Instruments/banjo.png",402,29,395,0.5,"stim/34.jpeg",3,4,1,2,"Instruments",2,3,"right","right",0.516000032,1,1,1,0,NA,NA,NA,NA,NA,NA,NA,NA,NA,NA,NA,NA,NA,NA,NA,NA,NA,NA,NA,NA,NA,NA,NA,NA
"537","stim/objects/Instruments/grandpiano.png",403,29,396,0.9,"stim/12.jpeg",1,2,3,2,"Instruments",2,2,"right","right",0.528000116,1,1,1,0,NA,NA,NA,NA,NA,NA,NA,NA,NA,NA,NA,NA,NA,NA,NA,NA,NA,NA,NA,NA,NA,NA,NA,NA
"547","stim/objects/Instruments/hihat.png",404,29,397,0.5,"stim/31.jpeg",3,1,1,1,"Instruments",2,4,"right","right",0.667999983,1,1,1,0,7,29,1,0.5,1,"stim/31.jpeg",3,1,"stim/31.jpeg",4,"left",1.606999874,4,3,9.540999889,4,0.674999952,7,1,0,0,1,1,1
"316","stim/objects/HouseObjects/dustpan.png",405,29,398,0.9,"stim/21.jpeg",2,1,3,2,"HouseObjects",1,3,"left","left",0.540999889,1,1,1,0,NA,NA,NA,NA,NA,NA,NA,NA,NA,NA,NA,NA,NA,NA,NA,NA,NA,NA,NA,NA,NA,NA,NA,NA
"516","stim/objects/Instruments/gong.png",406,29,399,0.9,"stim/12.jpeg",1,2,3,2,"Instruments",2,2,"right","right",0.563999891,1,1,1,0,NA,NA,NA,NA,NA,NA,NA,NA,NA,NA,NA,NA,NA,NA,NA,NA,NA,NA,NA,NA,NA,NA,NA,NA
"493","stim/objects/Instruments/frenchhorn.png",407,29,400,0.9,"stim/11.jpeg",1,1,3,2,"Instruments",2,2,"right","right",0.579999924,1,1,1,0,NA,NA,NA,NA,NA,NA,NA,NA,NA,NA,NA,NA,NA,NA,NA,NA,NA,NA,NA,NA,NA,NA,NA,NA
"408","stim/objects/Instruments/accordion2.png",408,29,401,0.7,"stim/53.jpeg",5,3,2,1,"Instruments",2,4,"right","left",0.707999945,0,0,1,0,148,29,1,0.7,2,"stim/53.jpeg",5,3,"stim/53.jpeg",4,"left",2.864000082,3,4,1.338999987,2,3.214999914,148,1,0,0,0,0,1
"336","stim/objects/HouseObjects/flyswatter.png",409,29,402,0.9,"stim/21.jpeg",2,1,3,2,"HouseObjects",1,3,"left","right",0.545999765,0,0,1,0,NA,NA,NA,NA,NA,NA,NA,NA,NA,NA,NA,NA,NA,NA,NA,NA,NA,NA,NA,NA,NA,NA,NA,NA
"546","stim/objects/Instruments/harp2.png",410,29,403,0.9,"stim/12.jpeg",1,2,3,1,"Instruments",2,2,"right","right",0.536000013,1,1,1,0,199,29,1,0.9,2,"stim/12.jpeg",1,2,"stim/12.jpeg",2,"right",0.669999838,1,1,0.438999891,1,0.160000086,199,0,0,NA,0,NA,1
"432","stim/objects/Instruments/clarinet2.png",411,29,404,0.3,"stim/61.jpeg",6,1,2,1,"Instruments",2,3,"right","left",0.566999912,0,0,1,0,100,29,1,0.3,2,"stim/61.jpeg",6,1,"stim/61.jpeg",3,"right",0.982999802,2,1,0.755999804,1,0.182999849,100,0,1,NA,0,NA,1
"300","stim/objects/HouseObjects/doormat.png",412,29,405,0.9,"stim/21.jpeg",2,1,3,2,"HouseObjects",1,3,"left","left",0.485999823,1,1,1,0,NA,NA,NA,NA,NA,NA,NA,NA,NA,NA,NA,NA,NA,NA,NA,NA,NA,NA,NA,NA,NA,NA,NA,NA
"503","stim/objects/Instruments/frenchhorn.png",413,29,406,0.9,"stim/14.jpeg",1,4,3,2,"Instruments",2,4,"right","left",0.666999817,0,0,1,0,NA,NA,NA,NA,NA,NA,NA,NA,NA,NA,NA,NA,NA,NA,NA,NA,NA,NA,NA,NA,NA,NA,NA,NA
"396","stim/objects/HouseObjects/pan.png",414,29,407,0.3,"stim/51.jpeg",5,1,2,1,"HouseObjects",1,4,"left","right",0.78399992,0,0,1,0,71,29,1,0.3,1,"stim/51.jpeg",5,1,"stim/51.jpeg",4,"left",1.193000078,4,4,0.371999979,4,0.415999889,71,1,0,0,1,1,1
"392","stim/objects/HouseObjects/lintroller.png",415,29,408,0.5,"stim/44.jpeg",4,4,1,1,"HouseObjects",1,1,"left","left",0.691999912,1,1,1,0,50,29,1,0.5,2,"stim/44.jpeg",4,4,"stim/44.jpeg",1,"left",1.647000074,2,1,1.522000074,1,0.384999752,50,1,0,0,1,1,1
"301","stim/objects/HouseObjects/doormat.png",416,29,409,0.9,"stim/24.jpeg",2,4,3,2,"HouseObjects",1,2,"left","left",0.74000001,1,1,1,0,NA,NA,NA,NA,NA,NA,NA,NA,NA,NA,NA,NA,NA,NA,NA,NA,NA,NA,NA,NA,NA,NA,NA,NA
"544","stim/objects/Instruments/harmonica2.png",417,29,410,0.9,"stim/11.jpeg",1,1,3,1,"Instruments",2,3,"right","right",0.79399991,1,1,1,0,5,29,1,0.9,2,"stim/11.jpeg",1,1,"stim/11.jpeg",3,"left",1.451999903,4,3,10.90199995,3,1.398999929,5,1,0,0,1,1,1
"273","stim/objects/HouseObjects/clothesdryingrack.png",418,29,411,0.7,"stim/61.jpeg",6,1,2,2,"HouseObjects",1,2,"left","left",0.537999868,1,1,1,0,NA,NA,NA,NA,NA,NA,NA,NA,NA,NA,NA,NA,NA,NA,NA,NA,NA,NA,NA,NA,NA,NA,NA,NA
"358","stim/objects/HouseObjects/garbagebin2.png",419,29,412,0.1,"stim/14.jpeg",1,4,3,1,"HouseObjects",1,3,"left","right",0.598999739,0,0,1,0,153,29,1,0.1,1,"stim/14.jpeg",1,4,"stim/14.jpeg",3,"right",2.601999998,1,1,0.474999905,1,0.786999941,153,0,0,NA,0,NA,1
"479","stim/objects/Instruments/flutetrans.png",420,29,413,0.9,"stim/12.jpeg",1,2,3,2,"Instruments",2,1,"right","right",0.44900012,1,1,1,0,NA,NA,NA,NA,NA,NA,NA,NA,NA,NA,NA,NA,NA,NA,NA,NA,NA,NA,NA,NA,NA,NA,NA,NA
"482","stim/objects/Instruments/flutetrans.png",421,29,414,0.9,"stim/12.jpeg",1,2,3,2,"Instruments",2,1,"right","right",0.421000004,1,1,1,0,NA,NA,NA,NA,NA,NA,NA,NA,NA,NA,NA,NA,NA,NA,NA,NA,NA,NA,NA,NA,NA,NA,NA,NA
"468","stim/objects/Instruments/flute.png",422,29,415,0.9,"stim/11.jpeg",1,1,3,2,"Instruments",2,4,"right","left",0.595999956,0,0,1,0,NA,NA,NA,NA,NA,NA,NA,NA,NA,NA,NA,NA,NA,NA,NA,NA,NA,NA,NA,NA,NA,NA,NA,NA
"285","stim/objects/HouseObjects/cushion.png",423,29,416,0.7,"stim/62.jpeg",6,2,2,2,"HouseObjects",1,3,"left","left",0.539999962,1,1,1,0,NA,NA,NA,NA,NA,NA,NA,NA,NA,NA,NA,NA,NA,NA,NA,NA,NA,NA,NA,NA,NA,NA,NA,NA
"485","stim/objects/Instruments/flutetrans.png",424,29,417,0.9,"stim/14.jpeg",1,4,3,2,"Instruments",2,4,"right","left",0.476999998,0,0,1,0,NA,NA,NA,NA,NA,NA,NA,NA,NA,NA,NA,NA,NA,NA,NA,NA,NA,NA,NA,NA,NA,NA,NA,NA
"439","stim/objects/Instruments/cymbal2.png",425,29,418,0.3,"stim/63.jpeg",6,3,2,1,"Instruments",2,3,"right","",NA,0,0,1,0,177,29,1,0.3,2,"stim/63.jpeg",6,3,"stim/63.jpeg",3,"right",1.64199996,4,1,0.930999994,1,0.58100009,177,0,0,NA,0,NA,1
"477","stim/objects/Instruments/flutetrans.png",426,29,419,0.9,"stim/14.jpeg",1,4,3,2,"Instruments",2,1,"right","right",0.595000029,1,1,1,0,NA,NA,NA,NA,NA,NA,NA,NA,NA,NA,NA,NA,NA,NA,NA,NA,NA,NA,NA,NA,NA,NA,NA,NA
"314","stim/objects/HouseObjects/dustpan.png",427,29,420,0.9,"stim/22.jpeg",2,2,3,2,"HouseObjects",1,1,"left","left",0.53399992,1,1,1,0,NA,NA,NA,NA,NA,NA,NA,NA,NA,NA,NA,NA,NA,NA,NA,NA,NA,NA,NA,NA,NA,NA,NA,NA
"400","stim/objects/HouseObjects/recyclingbin.png",428,29,421,0.3,"stim/53.jpeg",5,3,2,1,"HouseObjects",1,1,"left","right",0.74000001,0,0,1,0,193,29,1,0.3,1,"stim/53.jpeg",5,3,"stim/53.jpeg",1,"right",2.090999842,1,1,0.492999792,1,0.22300005,193,0,0,NA,1,NA,1
"315","stim/objects/HouseObjects/dustpan.png",429,29,422,0.9,"stim/24.jpeg",2,4,3,2,"HouseObjects",1,2,"left","left",0.559000015,1,1,1,0,NA,NA,NA,NA,NA,NA,NA,NA,NA,NA,NA,NA,NA,NA,NA,NA,NA,NA,NA,NA,NA,NA,NA,NA
"311","stim/objects/HouseObjects/dustpan.png",430,29,423,0.9,"stim/23.jpeg",2,3,3,2,"HouseObjects",1,1,"left","left",0.574999809,1,1,1,0,NA,NA,NA,NA,NA,NA,NA,NA,NA,NA,NA,NA,NA,NA,NA,NA,NA,NA,NA,NA,NA,NA,NA,NA
"387","stim/objects/HouseObjects/ironingboard2.png",431,29,424,0.9,"stim/21.jpeg",2,1,3,1,"HouseObjects",1,4,"left","left",0.460999966,1,1,1,0,62,29,1,0.9,1,"stim/21.jpeg",2,1,"stim/21.jpeg",4,"left",1.611000061,4,1,1.946999788,3,0.637000084,62,1,1,1,0,0,1
"254","stim/objects/HouseObjects/bleachbottle.png",432,29,425,0.5,"stim/31.jpeg",3,1,1,2,"HouseObjects",1,3,"left","right",0.609999895,0,0,1,0,NA,NA,NA,NA,NA,NA,NA,NA,NA,NA,NA,NA,NA,NA,NA,NA,NA,NA,NA,NA,NA,NA,NA,NA
"293","stim/objects/HouseObjects/doormat.png",433,29,426,0.9,"stim/22.jpeg",2,2,3,2,"HouseObjects",1,1,"left","left",0.56099987,1,1,1,0,NA,NA,NA,NA,NA,NA,NA,NA,NA,NA,NA,NA,NA,NA,NA,NA,NA,NA,NA,NA,NA,NA,NA,NA
"399","stim/objects/HouseObjects/pitcher2.png",434,29,427,0.9,"stim/23.jpeg",2,3,3,1,"HouseObjects",1,2,"left","left",0.507999897,1,1,1,0,19,29,1,0.9,1,"stim/23.jpeg",2,3,"stim/23.jpeg",2,"right",1.029999971,2,1,2.626999855,2,0.539000034,19,0,0,NA,1,NA,1
"445","stim/objects/Instruments/drums.png",435,29,428,0.7,"stim/53.jpeg",5,3,2,2,"Instruments",2,2,"right","right",0.768999815,1,1,1,0,NA,NA,NA,NA,NA,NA,NA,NA,NA,NA,NA,NA,NA,NA,NA,NA,NA,NA,NA,NA,NA,NA,NA,NA
"319","stim/objects/HouseObjects/dustpan.png",436,29,429,0.9,"stim/21.jpeg",2,1,3,2,"HouseObjects",1,4,"left","left",0.460999966,1,1,1,0,NA,NA,NA,NA,NA,NA,NA,NA,NA,NA,NA,NA,NA,NA,NA,NA,NA,NA,NA,NA,NA,NA,NA,NA
"434","stim/objects/Instruments/cornet.png",437,29,430,0.5,"stim/42.jpeg",4,2,1,2,"Instruments",2,3,"right","left",0.720999718,0,0,1,0,NA,NA,NA,NA,NA,NA,NA,NA,NA,NA,NA,NA,NA,NA,NA,NA,NA,NA,NA,NA,NA,NA,NA,NA
"251","stim/objects/HouseObjects/basket.png",438,29,431,0.5,"stim/34.jpeg",3,4,1,2,"HouseObjects",1,4,"left","left",0.744999886,1,1,1,0,NA,NA,NA,NA,NA,NA,NA,NA,NA,NA,NA,NA,NA,NA,NA,NA,NA,NA,NA,NA,NA,NA,NA,NA
"563","stim/objects/Instruments/oboe.png",439,29,432,0.7,"stim/53.jpeg",5,3,2,1,"Instruments",2,1,"right","left",0.732999802,0,0,1,0,116,29,1,0.7,2,"stim/53.jpeg",5,3,"stim/53.jpeg",1,"right",1.236999989,1,3,3.782000065,3,0.749999762,116,0,1,NA,0,NA,1
"405","stim/objects/HouseObjects/rubbergloves2.png",440,29,433,0.9,"stim/22.jpeg",2,2,3,1,"HouseObjects",1,4,"left","left",0.516000032,1,1,1,0,125,29,1,0.9,1,"stim/22.jpeg",2,2,"stim/22.jpeg",4,"right",1.25,1,1,0.912999868,1,0.422999859,125,0,0,NA,0,NA,1
"429","stim/objects/Instruments/chime2.png",441,29,434,0.3,"stim/64.jpeg",6,4,2,1,"Instruments",2,1,"right","left",0.544999838,0,0,1,0,117,29,1,0.3,2,"stim/64.jpeg",6,4,"stim/64.jpeg",1,"right",1.162999868,4,4,1.434000015,4,0.291999817,117,0,1,NA,0,NA,1
"379","stim/objects/HouseObjects/hairdryer2.png",442,29,435,0.1,"stim/13.jpeg",1,3,3,1,"HouseObjects",1,4,"left","right",0.622999907,0,0,1,0,98,29,1,0.1,1,"stim/13.jpeg",1,3,"stim/13.jpeg",4,"left",1.353999853,4,4,2.431999922,1,0.665999889,98,1,0,0,0,0,1
"296","stim/objects/HouseObjects/doormat.png",443,29,436,0.9,"stim/23.jpeg",2,3,3,2,"HouseObjects",1,4,"left","left",0.474999905,1,1,1,0,NA,NA,NA,NA,NA,NA,NA,NA,NA,NA,NA,NA,NA,NA,NA,NA,NA,NA,NA,NA,NA,NA,NA,NA
"565","stim/objects/Instruments/panflute.png",444,29,437,0.7,"stim/54.jpeg",5,4,2,1,"Instruments",2,4,"right","right",0.673000097,1,1,1,0,126,29,1,0.7,2,"stim/54.jpeg",5,4,"stim/54.jpeg",4,"right",1.510999918,1,1,0.454999924,1,0.356999874,126,0,0,NA,0,NA,1
"419","stim/objects/Instruments/bassdrum.png",445,29,438,0.5,"stim/31.jpeg",3,1,1,2,"Instruments",2,1,"right","right",0.679999828,1,1,1,0,NA,NA,NA,NA,NA,NA,NA,NA,NA,NA,NA,NA,NA,NA,NA,NA,NA,NA,NA,NA,NA,NA,NA,NA
"446","stim/objects/Instruments/drums.png",446,29,439,0.7,"stim/51.jpeg",5,1,2,2,"Instruments",2,2,"right","right",0.822000027,1,1,1,0,NA,NA,NA,NA,NA,NA,NA,NA,NA,NA,NA,NA,NA,NA,NA,NA,NA,NA,NA,NA,NA,NA,NA,NA
"320","stim/objects/HouseObjects/dustpan.png",447,29,440,0.9,"stim/22.jpeg",2,2,3,2,"HouseObjects",1,3,"left","left",0.536999941,1,1,1,0,NA,NA,NA,NA,NA,NA,NA,NA,NA,NA,NA,NA,NA,NA,NA,NA,NA,NA,NA,NA,NA,NA,NA,NA
"368","stim/objects/HouseObjects/glass.png",448,29,441,0.9,"stim/21.jpeg",2,1,3,2,"HouseObjects",1,1,"left","left",0.474999905,1,1,1,0,NA,NA,NA,NA,NA,NA,NA,NA,NA,NA,NA,NA,NA,NA,NA,NA,NA,NA,NA,NA,NA,NA,NA,NA
"436","stim/objects/Instruments/cymbal.png",449,29,442,0.7,"stim/51.jpeg",5,1,2,2,"Instruments",2,3,"right","right",0.717999935,1,1,1,0,NA,NA,NA,NA,NA,NA,NA,NA,NA,NA,NA,NA,NA,NA,NA,NA,NA,NA,NA,NA,NA,NA,NA,NA
"502","stim/objects/Instruments/frenchhorn.png",450,29,443,0.9,"stim/14.jpeg",1,4,3,2,"Instruments",2,1,"right","right",0.517999887,1,1,1,0,NA,NA,NA,NA,NA,NA,NA,NA,NA,NA,NA,NA,NA,NA,NA,NA,NA,NA,NA,NA,NA,NA,NA,NA
"567","stim/objects/Instruments/pipepiano.png",451,29,444,0.7,"stim/51.jpeg",5,1,2,1,"Instruments",2,4,"right","right",0.625999928,1,1,1,0,111,29,1,0.7,2,"stim/51.jpeg",5,1,"stim/51.jpeg",4,"left",1.960000038,4,4,2.417999983,4,0.50999999,111,1,0,0,1,1,1
"410","stim/objects/Instruments/acousticguitar.png",452,29,445,0.5,"stim/32.jpeg",3,2,1,2,"Instruments",2,3,"right","",NA,0,0,1,0,NA,NA,NA,NA,NA,NA,NA,NA,NA,NA,NA,NA,NA,NA,NA,NA,NA,NA,NA,NA,NA,NA,NA,NA
"404","stim/objects/HouseObjects/rubbergloves.png",453,29,446,0.3,"stim/51.jpeg",5,1,2,1,"HouseObjects",1,1,"left","right",0.605999947,0,0,1,0,70,29,1,0.3,1,"stim/51.jpeg",5,1,"stim/51.jpeg",1,"right",0.975999832,4,4,0.49000001,4,0.153999805,70,0,0,NA,0,NA,1
"394","stim/objects/HouseObjects/match.png",454,29,447,0.5,"stim/41.jpeg",4,1,1,1,"HouseObjects",1,1,"left","right",0.743999958,0,0,1,0,172,29,1,0.5,2,"stim/41.jpeg",4,1,"stim/41.jpeg",1,"left",0.953999996,4,1,4.574999809,1,0.3349998,172,1,1,1,1,1,1
"331","stim/objects/HouseObjects/flyswatter.png",455,29,448,0.9,"stim/23.jpeg",2,3,3,2,"HouseObjects",1,1,"left","left",0.551999807,1,1,1,0,NA,NA,NA,NA,NA,NA,NA,NA,NA,NA,NA,NA,NA,NA,NA,NA,NA,NA,NA,NA,NA,NA,NA,NA
"402","stim/objects/HouseObjects/remote.png",456,29,449,0.3,"stim/54.jpeg",5,4,2,1,"HouseObjects",1,3,"left","right",0.644999981,0,0,1,0,57,29,1,0.3,1,"stim/54.jpeg",5,4,"stim/54.jpeg",3,"left",1.020999908,4,4,4.674999952,3,0.842000008,57,1,1,1,1,1,1
"284","stim/objects/HouseObjects/cushion.png",457,29,450,0.7,"stim/64.jpeg",6,4,2,2,"HouseObjects",1,3,"left","left",0.481999874,1,1,1,0,NA,NA,NA,NA,NA,NA,NA,NA,NA,NA,NA,NA,NA,NA,NA,NA,NA,NA,NA,NA,NA,NA,NA,NA
"339","stim/objects/HouseObjects/flyswatter.png",458,29,451,0.9,"stim/21.jpeg",2,1,3,2,"HouseObjects",1,3,"left","left",0.584000111,1,1,1,0,NA,NA,NA,NA,NA,NA,NA,NA,NA,NA,NA,NA,NA,NA,NA,NA,NA,NA,NA,NA,NA,NA,NA,NA
"417","stim/objects/Instruments/banjo2.png",459,29,452,0.7,"stim/52.jpeg",5,2,2,1,"Instruments",2,1,"right","right",0.737999916,1,1,1,0,101,29,1,0.7,2,"stim/52.jpeg",5,2,"stim/52.jpeg",1,"right",1.351000071,1,1,0.716999769,1,0.203999996,101,0,0,NA,1,NA,1
"515","stim/objects/Instruments/gong.png",460,29,453,0.9,"stim/12.jpeg",1,2,3,2,"Instruments",2,1,"right","right",0.624000072,1,1,1,0,NA,NA,NA,NA,NA,NA,NA,NA,NA,NA,NA,NA,NA,NA,NA,NA,NA,NA,NA,NA,NA,NA,NA,NA
"541","stim/objects/Instruments/guitarcase.png",461,29,454,0.5,"stim/32.jpeg",3,2,1,1,"Instruments",2,2,"right","",NA,0,0,1,0,137,29,1,0.5,1,"stim/32.jpeg",3,2,"stim/32.jpeg",2,"left",4.779999733,3,3,1.036000013,4,0.516000032,137,1,0,0,0,0,1
"265","stim/objects/HouseObjects/bucket.png",462,29,455,0.5,"stim/43.jpeg",4,3,1,2,"HouseObjects",1,3,"left","left",0.663999796,1,1,1,0,NA,NA,NA,NA,NA,NA,NA,NA,NA,NA,NA,NA,NA,NA,NA,NA,NA,NA,NA,NA,NA,NA,NA,NA
"552","stim/objects/Instruments/laud2.png",463,29,456,0.1,"stim/23.jpeg",2,3,3,1,"Instruments",2,4,"right","left",0.598999977,0,0,1,0,184,29,1,0.1,2,"stim/23.jpeg",2,3,"stim/23.jpeg",4,"right",0.558999777,1,1,0.210999966,1,0.449999809,184,0,0,NA,0,NA,1
"271","stim/objects/HouseObjects/clothesdryingrack.png",464,29,457,0.7,"stim/63.jpeg",6,3,2,2,"HouseObjects",1,2,"left","left",0.555000067,1,1,1,0,NA,NA,NA,NA,NA,NA,NA,NA,NA,NA,NA,NA,NA,NA,NA,NA,NA,NA,NA,NA,NA,NA,NA,NA
"548","stim/objects/Instruments/hihat2.png",465,29,458,0.9,"stim/13.jpeg",1,3,3,1,"Instruments",2,3,"right","right",0.622999907,1,1,1,0,66,29,1,0.9,2,"stim/13.jpeg",1,3,"stim/13.jpeg",3,"right",1.074999809,4,4,0.909999847,4,0.499999762,66,0,0,NA,0,NA,1
"431","stim/objects/Instruments/clarinet.png",466,29,459,0.5,"stim/42.jpeg",4,2,1,2,"Instruments",2,2,"right","left",0.54399991,0,0,1,0,NA,NA,NA,NA,NA,NA,NA,NA,NA,NA,NA,NA,NA,NA,NA,NA,NA,NA,NA,NA,NA,NA,NA,NA
"353","stim/objects/HouseObjects/garbagebin.png",467,29,460,0.9,"stim/24.jpeg",2,4,3,2,"HouseObjects",1,3,"left","left",0.525000095,1,1,1,0,NA,NA,NA,NA,NA,NA,NA,NA,NA,NA,NA,NA,NA,NA,NA,NA,NA,NA,NA,NA,NA,NA,NA,NA
"540","stim/objects/Instruments/grandpiano2.png",468,29,461,0.9,"stim/13.jpeg",1,3,3,1,"Instruments",2,1,"right","right",0.500999928,1,1,1,0,61,29,1,0.9,2,"stim/13.jpeg",1,3,"stim/13.jpeg",1,"right",1.006999969,2,2,2.144000053,3,0.386999846,61,0,0,NA,0,NA,1
