"","obj_file","X.x","participant.x","trialN.x","trial_cond","scn_file.x","scn_cat","scn_inst","scn_condition","fillers","obj_cat","obj_cat_num","quadrant","corr_ans","key_resp_trial.keys","key_resp_trial.rt","trial_acc","trial_acc_manual","group.x","practice","X.y","participant.y","OvsN","PE_level","object_cat","scn_file.y","corr_scn_cat","corr_scn_inst","scn_file.1","corr_loc","key_resp_id.keys","key_resp_id.rt","key_resp_conf.keys","key_resp_assoc.keys","key_resp_assoc.rt","key_resp_loc.keys","key_resp_loc.rt","trialN.y","id_acc","assoc.acc","cond_assoc","loc.acc","cond_loc","group.y"
"97","stim/objects/HouseObjects/clothesdryingrack.png",1,65,1,0.3,"stim/33.jpeg",3,3,2,NA,"HouseObjects",1,3,"left","",NA,0,0,0,1,NA,NA,NA,NA,NA,NA,NA,NA,NA,NA,NA,NA,NA,NA,NA,NA,NA,NA,NA,NA,NA,NA,NA,NA
"25","stim/objects/HouseObjects/barbecuelighter.png",2,65,2,0.5,"stim/13.jpeg",1,3,1,NA,"HouseObjects",1,3,"left","right",0.471000195,0,0,0,1,NA,NA,NA,NA,NA,NA,NA,NA,NA,NA,NA,NA,NA,NA,NA,NA,NA,NA,NA,NA,NA,NA,NA,NA
"6","stim/objects/HouseObjects/ashtray2.png",3,65,3,0.7,"stim/41.jpeg",4,1,2,NA,"HouseObjects",1,2,"left","left",0.332000256,1,1,0,1,NA,NA,NA,NA,NA,NA,NA,NA,NA,NA,NA,NA,NA,NA,NA,NA,NA,NA,NA,NA,NA,NA,NA,NA
"109","stim/objects/HouseObjects/clothespin.png",4,65,4,0.3,"stim/34.jpeg",3,4,2,NA,"HouseObjects",1,4,"left","right",0.634000063,0,0,0,1,NA,NA,NA,NA,NA,NA,NA,NA,NA,NA,NA,NA,NA,NA,NA,NA,NA,NA,NA,NA,NA,NA,NA,NA
"30","stim/objects/HouseObjects/barbecuelighter2.png",5,65,5,0.7,"stim/43.jpeg",4,3,2,NA,"HouseObjects",1,4,"left","left",0.261000156,1,1,0,1,NA,NA,NA,NA,NA,NA,NA,NA,NA,NA,NA,NA,NA,NA,NA,NA,NA,NA,NA,NA,NA,NA,NA,NA
"137","stim/objects/Instruments/balalaika.png",6,65,6,0.5,"stim/13.jpeg",1,3,1,NA,"Instruments",2,4,"right","right",0.637000084,1,1,0,1,NA,NA,NA,NA,NA,NA,NA,NA,NA,NA,NA,NA,NA,NA,NA,NA,NA,NA,NA,NA,NA,NA,NA,NA
"129","stim/objects/Instruments/acousticguitar.png",7,65,7,0.5,"stim/12.jpeg",1,2,1,NA,"Instruments",2,2,"right","right",0.383000135,1,1,0,1,NA,NA,NA,NA,NA,NA,NA,NA,NA,NA,NA,NA,NA,NA,NA,NA,NA,NA,NA,NA,NA,NA,NA,NA
"61","stim/objects/HouseObjects/bottle.png",8,65,8,0.5,"stim/23.jpeg",2,3,1,NA,"HouseObjects",1,3,"left","right",0.24600029,0,0,0,1,NA,NA,NA,NA,NA,NA,NA,NA,NA,NA,NA,NA,NA,NA,NA,NA,NA,NA,NA,NA,NA,NA,NA,NA
"100","stim/objects/HouseObjects/clothesdryingrack2.png",9,65,9,0.9,"stim/63.jpeg",6,3,3,NA,"HouseObjects",1,4,"left","left",0.553000212,1,1,0,1,NA,NA,NA,NA,NA,NA,NA,NA,NA,NA,NA,NA,NA,NA,NA,NA,NA,NA,NA,NA,NA,NA,NA,NA
"217","stim/objects/Instruments/cornet.png",10,65,10,0.7,"stim/32.jpeg",3,2,2,NA,"Instruments",2,2,"right","",NA,0,0,0,1,NA,NA,NA,NA,NA,NA,NA,NA,NA,NA,NA,NA,NA,NA,NA,NA,NA,NA,NA,NA,NA,NA,NA,NA
"209","stim/objects/Instruments/clarinet.png",11,65,11,0.7,"stim/31.jpeg",3,1,2,NA,"Instruments",2,4,"right","left",0.369000196,0,0,0,1,NA,NA,NA,NA,NA,NA,NA,NA,NA,NA,NA,NA,NA,NA,NA,NA,NA,NA,NA,NA,NA,NA,NA,NA
"49","stim/objects/HouseObjects/bleachbottle.png",12,65,12,0.5,"stim/21.jpeg",2,1,1,NA,"HouseObjects",1,1,"left","right",0.22200036,0,0,0,1,NA,NA,NA,NA,NA,NA,NA,NA,NA,NA,NA,NA,NA,NA,NA,NA,NA,NA,NA,NA,NA,NA,NA,NA
"112","stim/objects/HouseObjects/clothespin2.png",13,65,13,0.9,"stim/64.jpeg",6,4,3,NA,"HouseObjects",1,2,"left","left",0.508000135,1,1,0,1,NA,NA,NA,NA,NA,NA,NA,NA,NA,NA,NA,NA,NA,NA,NA,NA,NA,NA,NA,NA,NA,NA,NA,NA
"67","stim/objects/HouseObjects/broom.png",14,65,14,0.5,"stim/24.jpeg",2,4,1,NA,"HouseObjects",1,4,"left","right",0.45600009,0,0,0,1,NA,NA,NA,NA,NA,NA,NA,NA,NA,NA,NA,NA,NA,NA,NA,NA,NA,NA,NA,NA,NA,NA,NA,NA
"200","stim/objects/Instruments/chime2.png",15,65,15,0.9,"stim/54.jpeg",5,4,3,NA,"Instruments",2,2,"right","right",0.717000246,1,1,0,1,NA,NA,NA,NA,NA,NA,NA,NA,NA,NA,NA,NA,NA,NA,NA,NA,NA,NA,NA,NA,NA,NA,NA,NA
"195","stim/objects/Instruments/chime.png",16,65,16,0.5,"stim/24.jpeg",2,4,1,NA,"Instruments",2,4,"right","left",0.85800004,0,0,0,1,NA,NA,NA,NA,NA,NA,NA,NA,NA,NA,NA,NA,NA,NA,NA,NA,NA,NA,NA,NA,NA,NA,NA,NA
"145","stim/objects/Instruments/banjo.png",17,65,17,0.5,"stim/14.jpeg",1,4,1,NA,"Instruments",2,1,"right","right",0.562000036,1,1,0,1,NA,NA,NA,NA,NA,NA,NA,NA,NA,NA,NA,NA,NA,NA,NA,NA,NA,NA,NA,NA,NA,NA,NA,NA
"150","stim/objects/Instruments/banjo2.png",18,65,18,0.3,"stim/44.jpeg",4,4,2,NA,"Instruments",2,3,"right","right",0.551000118,1,1,0,1,NA,NA,NA,NA,NA,NA,NA,NA,NA,NA,NA,NA,NA,NA,NA,NA,NA,NA,NA,NA,NA,NA,NA,NA
"18","stim/objects/HouseObjects/ballofstring2.png",19,65,19,0.7,"stim/42.jpeg",4,2,2,NA,"HouseObjects",1,2,"left","left",0.407000303,1,1,0,1,NA,NA,NA,NA,NA,NA,NA,NA,NA,NA,NA,NA,NA,NA,NA,NA,NA,NA,NA,NA,NA,NA,NA,NA
"218","stim/objects/Instruments/cornet.png",20,65,20,0.7,"stim/32.jpeg",3,2,2,NA,"Instruments",2,4,"right","right",0.703000307,1,1,0,1,NA,NA,NA,NA,NA,NA,NA,NA,NA,NA,NA,NA,NA,NA,NA,NA,NA,NA,NA,NA,NA,NA,NA,NA
"167","stim/objects/Instruments/bassguitar.png",21,65,21,0.5,"stim/22.jpeg",2,2,1,NA,"Instruments",2,2,"right","left",0.492000341,0,0,0,1,NA,NA,NA,NA,NA,NA,NA,NA,NA,NA,NA,NA,NA,NA,NA,NA,NA,NA,NA,NA,NA,NA,NA,NA
"172","stim/objects/Instruments/bassguitar2.png",22,65,22,0.9,"stim/52.jpeg",5,2,3,NA,"Instruments",2,2,"right","right",0.462000132,1,1,0,1,NA,NA,NA,NA,NA,NA,NA,NA,NA,NA,NA,NA,NA,NA,NA,NA,NA,NA,NA,NA,NA,NA,NA,NA
"62","stim/objects/HouseObjects/bottle.png",23,65,23,0.5,"stim/23.jpeg",2,3,1,NA,"HouseObjects",1,1,"left","left",0.880000114,1,1,0,1,NA,NA,NA,NA,NA,NA,NA,NA,NA,NA,NA,NA,NA,NA,NA,NA,NA,NA,NA,NA,NA,NA,NA,NA
"225","stim/objects/Instruments/cymbal.png",24,65,24,0.7,"stim/33.jpeg",3,3,2,NA,"Instruments",2,1,"right","right",0.654000044,1,1,0,1,NA,NA,NA,NA,NA,NA,NA,NA,NA,NA,NA,NA,NA,NA,NA,NA,NA,NA,NA,NA,NA,NA,NA,NA
"26","stim/objects/HouseObjects/barbecuelighter.png",25,65,25,0.5,"stim/13.jpeg",1,3,1,NA,"HouseObjects",1,4,"left","left",0.314000368,1,1,0,1,NA,NA,NA,NA,NA,NA,NA,NA,NA,NA,NA,NA,NA,NA,NA,NA,NA,NA,NA,NA,NA,NA,NA,NA
"76","stim/objects/HouseObjects/bucket2.png",26,65,26,0.9,"stim/61.jpeg",6,1,3,NA,"HouseObjects",1,2,"left","left",0.471000195,1,1,0,1,NA,NA,NA,NA,NA,NA,NA,NA,NA,NA,NA,NA,NA,NA,NA,NA,NA,NA,NA,NA,NA,NA,NA,NA
"186","stim/objects/Instruments/cello2.png",27,65,27,0.9,"stim/53.jpeg",5,3,3,NA,"Instruments",2,1,"right","right",0.393000126,1,1,0,1,NA,NA,NA,NA,NA,NA,NA,NA,NA,NA,NA,NA,NA,NA,NA,NA,NA,NA,NA,NA,NA,NA,NA,NA
"101","stim/objects/HouseObjects/clothesdryingrack2.png",28,65,28,0.9,"stim/63.jpeg",6,3,3,NA,"HouseObjects",1,4,"left","left",0.677000284,1,1,0,1,NA,NA,NA,NA,NA,NA,NA,NA,NA,NA,NA,NA,NA,NA,NA,NA,NA,NA,NA,NA,NA,NA,NA,NA
"168","stim/objects/Instruments/bassguitar.png",29,65,29,0.5,"stim/22.jpeg",2,2,1,NA,"Instruments",2,1,"right","right",0.534000158,1,1,0,1,NA,NA,NA,NA,NA,NA,NA,NA,NA,NA,NA,NA,NA,NA,NA,NA,NA,NA,NA,NA,NA,NA,NA,NA
"226","stim/objects/Instruments/cymbal.png",30,65,30,0.7,"stim/33.jpeg",3,3,2,NA,"Instruments",2,2,"right","right",0.845000029,1,1,0,1,NA,NA,NA,NA,NA,NA,NA,NA,NA,NA,NA,NA,NA,NA,NA,NA,NA,NA,NA,NA,NA,NA,NA,NA
"240","stim/objects/Instruments/doublebass2.png",31,65,31,0.1,"stim/64.jpeg",6,4,3,NA,"Instruments",2,3,"right","left",0.54700017,0,0,0,1,NA,NA,NA,NA,NA,NA,NA,NA,NA,NA,NA,NA,NA,NA,NA,NA,NA,NA,NA,NA,NA,NA,NA,NA
"85","stim/objects/HouseObjects/clock.png",32,65,32,0.3,"stim/32.jpeg",3,2,2,NA,"HouseObjects",1,3,"left","left",0.733000278,1,1,0,1,NA,NA,NA,NA,NA,NA,NA,NA,NA,NA,NA,NA,NA,NA,NA,NA,NA,NA,NA,NA,NA,NA,NA,NA
"42","stim/objects/HouseObjects/basket2.png",33,65,33,0.7,"stim/44.jpeg",4,4,2,NA,"HouseObjects",1,4,"left","",NA,0,0,0,1,NA,NA,NA,NA,NA,NA,NA,NA,NA,NA,NA,NA,NA,NA,NA,NA,NA,NA,NA,NA,NA,NA,NA,NA
"153","stim/objects/Instruments/bassdrum.png",34,65,34,0.5,"stim/21.jpeg",2,1,1,NA,"Instruments",2,1,"right","right",0.684000015,1,1,0,1,NA,NA,NA,NA,NA,NA,NA,NA,NA,NA,NA,NA,NA,NA,NA,NA,NA,NA,NA,NA,NA,NA,NA,NA
"73","stim/objects/HouseObjects/bucket.png",35,65,35,0.3,"stim/31.jpeg",3,1,2,NA,"HouseObjects",1,3,"left","left",0.516000032,1,1,0,1,NA,NA,NA,NA,NA,NA,NA,NA,NA,NA,NA,NA,NA,NA,NA,NA,NA,NA,NA,NA,NA,NA,NA,NA
"142","stim/objects/Instruments/balalaika2.png",36,65,36,0.3,"stim/43.jpeg",4,3,2,NA,"Instruments",2,1,"right","left",0.664000273,0,0,0,1,NA,NA,NA,NA,NA,NA,NA,NA,NA,NA,NA,NA,NA,NA,NA,NA,NA,NA,NA,NA,NA,NA,NA,NA
"219","stim/objects/Instruments/cornet.png",37,65,37,0.7,"stim/32.jpeg",3,2,2,NA,"Instruments",2,2,"right","left",0.69900012,0,0,0,1,NA,NA,NA,NA,NA,NA,NA,NA,NA,NA,NA,NA,NA,NA,NA,NA,NA,NA,NA,NA,NA,NA,NA,NA
"233","stim/objects/Instruments/doublebass.png",38,65,38,0.7,"stim/34.jpeg",3,4,2,NA,"Instruments",2,4,"right","right",0.277000189,1,1,0,1,NA,NA,NA,NA,NA,NA,NA,NA,NA,NA,NA,NA,NA,NA,NA,NA,NA,NA,NA,NA,NA,NA,NA,NA
"227","stim/objects/Instruments/cymbal.png",39,65,39,0.7,"stim/33.jpeg",3,3,2,NA,"Instruments",2,3,"right","right",0.262000084,1,1,0,1,NA,NA,NA,NA,NA,NA,NA,NA,NA,NA,NA,NA,NA,NA,NA,NA,NA,NA,NA,NA,NA,NA,NA,NA
"60","stim/objects/HouseObjects/blender2.png",40,65,40,0.1,"stim/52.jpeg",5,2,3,NA,"HouseObjects",1,3,"left","left",0.382000208,1,1,0,1,NA,NA,NA,NA,NA,NA,NA,NA,NA,NA,NA,NA,NA,NA,NA,NA,NA,NA,NA,NA,NA,NA,NA,NA
"43","stim/objects/HouseObjects/basket2.png",41,65,41,0.7,"stim/44.jpeg",4,4,2,NA,"HouseObjects",1,1,"left","",NA,0,0,0,1,NA,NA,NA,NA,NA,NA,NA,NA,NA,NA,NA,NA,NA,NA,NA,NA,NA,NA,NA,NA,NA,NA,NA,NA
"13","stim/objects/HouseObjects/ballofstring.png",42,65,42,0.5,"stim/12.jpeg",1,2,1,NA,"HouseObjects",1,4,"left","right",0.309000254,0,0,0,1,NA,NA,NA,NA,NA,NA,NA,NA,NA,NA,NA,NA,NA,NA,NA,NA,NA,NA,NA,NA,NA,NA,NA,NA
"31","stim/objects/HouseObjects/barbecuelighter2.png",43,65,43,0.7,"stim/43.jpeg",4,3,2,NA,"HouseObjects",1,4,"left","right",0.56400013,0,0,0,1,NA,NA,NA,NA,NA,NA,NA,NA,NA,NA,NA,NA,NA,NA,NA,NA,NA,NA,NA,NA,NA,NA,NA,NA
"102","stim/objects/HouseObjects/clothesdryingrack2.png",44,65,44,0.9,"stim/63.jpeg",6,3,3,NA,"HouseObjects",1,3,"left","left",0.900000095,1,1,0,1,NA,NA,NA,NA,NA,NA,NA,NA,NA,NA,NA,NA,NA,NA,NA,NA,NA,NA,NA,NA,NA,NA,NA,NA
"86","stim/objects/HouseObjects/clock.png",45,65,45,0.3,"stim/32.jpeg",3,2,2,NA,"HouseObjects",1,4,"left","right",0.78000021,0,0,0,1,NA,NA,NA,NA,NA,NA,NA,NA,NA,NA,NA,NA,NA,NA,NA,NA,NA,NA,NA,NA,NA,NA,NA,NA
"158","stim/objects/Instruments/bassdrum2.png",46,65,46,0.9,"stim/51.jpeg",5,1,3,NA,"Instruments",2,1,"right","right",0.626000166,1,1,0,1,NA,NA,NA,NA,NA,NA,NA,NA,NA,NA,NA,NA,NA,NA,NA,NA,NA,NA,NA,NA,NA,NA,NA,NA
"1","stim/objects/HouseObjects/ashtray.png",47,65,47,0.5,"stim/11.jpeg",1,1,1,NA,"HouseObjects",1,2,"left","left",0.742000103,1,1,0,1,NA,NA,NA,NA,NA,NA,NA,NA,NA,NA,NA,NA,NA,NA,NA,NA,NA,NA,NA,NA,NA,NA,NA,NA
"74","stim/objects/HouseObjects/bucket.png",48,65,48,0.3,"stim/31.jpeg",3,1,2,NA,"HouseObjects",1,1,"left","right",0.611999989,0,0,0,1,NA,NA,NA,NA,NA,NA,NA,NA,NA,NA,NA,NA,NA,NA,NA,NA,NA,NA,NA,NA,NA,NA,NA,NA
"14","stim/objects/HouseObjects/ballofstring.png",49,65,49,0.5,"stim/12.jpeg",1,2,1,NA,"HouseObjects",1,2,"left","right",0.587000132,0,0,0,1,NA,NA,NA,NA,NA,NA,NA,NA,NA,NA,NA,NA,NA,NA,NA,NA,NA,NA,NA,NA,NA,NA,NA,NA
"77","stim/objects/HouseObjects/bucket2.png",50,65,50,0.9,"stim/61.jpeg",6,1,3,NA,"HouseObjects",1,2,"left","left",0.615000248,1,1,0,1,NA,NA,NA,NA,NA,NA,NA,NA,NA,NA,NA,NA,NA,NA,NA,NA,NA,NA,NA,NA,NA,NA,NA,NA
"113","stim/objects/HouseObjects/clothespin2.png",51,65,51,0.9,"stim/64.jpeg",6,4,3,NA,"HouseObjects",1,3,"left","left",0.480999947,1,1,0,1,NA,NA,NA,NA,NA,NA,NA,NA,NA,NA,NA,NA,NA,NA,NA,NA,NA,NA,NA,NA,NA,NA,NA,NA
"54","stim/objects/HouseObjects/bleachbottle2.png",52,65,52,0.1,"stim/51.jpeg",5,1,3,NA,"HouseObjects",1,1,"left","right",0.600000143,0,0,0,1,NA,NA,NA,NA,NA,NA,NA,NA,NA,NA,NA,NA,NA,NA,NA,NA,NA,NA,NA,NA,NA,NA,NA,NA
"201","stim/objects/Instruments/chime2.png",53,65,53,0.9,"stim/54.jpeg",5,4,3,NA,"Instruments",2,3,"right","right",0.603000164,1,1,0,1,NA,NA,NA,NA,NA,NA,NA,NA,NA,NA,NA,NA,NA,NA,NA,NA,NA,NA,NA,NA,NA,NA,NA,NA
"173","stim/objects/Instruments/bassguitar2.png",54,65,54,0.9,"stim/52.jpeg",5,2,3,NA,"Instruments",2,3,"right","left",0.779000044,0,0,0,1,NA,NA,NA,NA,NA,NA,NA,NA,NA,NA,NA,NA,NA,NA,NA,NA,NA,NA,NA,NA,NA,NA,NA,NA
"228","stim/objects/Instruments/cymbal.png",55,65,55,0.7,"stim/33.jpeg",3,3,2,NA,"Instruments",2,2,"right","left",0.736000299,0,0,0,1,NA,NA,NA,NA,NA,NA,NA,NA,NA,NA,NA,NA,NA,NA,NA,NA,NA,NA,NA,NA,NA,NA,NA,NA
"88","stim/objects/HouseObjects/clock2.png",56,65,56,0.9,"stim/62.jpeg",6,2,3,NA,"HouseObjects",1,3,"left","left",0.676000118,1,1,0,1,NA,NA,NA,NA,NA,NA,NA,NA,NA,NA,NA,NA,NA,NA,NA,NA,NA,NA,NA,NA,NA,NA,NA,NA
"68","stim/objects/HouseObjects/broom.png",57,65,57,0.5,"stim/24.jpeg",2,4,1,NA,"HouseObjects",1,4,"left","",NA,0,0,0,1,NA,NA,NA,NA,NA,NA,NA,NA,NA,NA,NA,NA,NA,NA,NA,NA,NA,NA,NA,NA,NA,NA,NA,NA
"174","stim/objects/Instruments/bassguitar2.png",58,65,58,0.9,"stim/52.jpeg",5,2,3,NA,"Instruments",2,3,"right","right",0.482000113,1,1,0,1,NA,NA,NA,NA,NA,NA,NA,NA,NA,NA,NA,NA,NA,NA,NA,NA,NA,NA,NA,NA,NA,NA,NA,NA
"154","stim/objects/Instruments/bassdrum.png",59,65,59,0.5,"stim/21.jpeg",2,1,1,NA,"Instruments",2,2,"right","right",0.762000084,1,1,0,1,NA,NA,NA,NA,NA,NA,NA,NA,NA,NA,NA,NA,NA,NA,NA,NA,NA,NA,NA,NA,NA,NA,NA,NA
"32","stim/objects/HouseObjects/barbecuelighter2.png",60,65,60,0.7,"stim/43.jpeg",4,3,2,NA,"HouseObjects",1,1,"left","",NA,0,0,0,1,NA,NA,NA,NA,NA,NA,NA,NA,NA,NA,NA,NA,NA,NA,NA,NA,NA,NA,NA,NA,NA,NA,NA,NA
"175","stim/objects/Instruments/bassguitar2.png",61,65,61,0.9,"stim/52.jpeg",5,2,3,NA,"Instruments",2,1,"right","left",0.453000069,0,0,0,1,NA,NA,NA,NA,NA,NA,NA,NA,NA,NA,NA,NA,NA,NA,NA,NA,NA,NA,NA,NA,NA,NA,NA,NA
"176","stim/objects/Instruments/bassguitar2.png",62,65,62,0.9,"stim/52.jpeg",5,2,3,NA,"Instruments",2,1,"right","right",0.765000343,1,1,0,1,NA,NA,NA,NA,NA,NA,NA,NA,NA,NA,NA,NA,NA,NA,NA,NA,NA,NA,NA,NA,NA,NA,NA,NA
"7","stim/objects/HouseObjects/ashtray2.png",63,65,63,0.7,"stim/41.jpeg",4,1,2,NA,"HouseObjects",1,4,"left","left",0.868000031,1,1,0,1,NA,NA,NA,NA,NA,NA,NA,NA,NA,NA,NA,NA,NA,NA,NA,NA,NA,NA,NA,NA,NA,NA,NA,NA
"50","stim/objects/HouseObjects/bleachbottle.png",64,65,64,0.5,"stim/21.jpeg",2,1,1,NA,"HouseObjects",1,1,"left","",NA,0,0,0,1,NA,NA,NA,NA,NA,NA,NA,NA,NA,NA,NA,NA,NA,NA,NA,NA,NA,NA,NA,NA,NA,NA,NA,NA
"89","stim/objects/HouseObjects/clock2.png",65,65,65,0.9,"stim/62.jpeg",6,2,3,NA,"HouseObjects",1,4,"left","left",0.562000275,1,1,0,1,NA,NA,NA,NA,NA,NA,NA,NA,NA,NA,NA,NA,NA,NA,NA,NA,NA,NA,NA,NA,NA,NA,NA,NA
"78","stim/objects/HouseObjects/bucket2.png",66,65,66,0.9,"stim/61.jpeg",6,1,3,NA,"HouseObjects",1,2,"left","left",0.595000267,1,1,0,1,NA,NA,NA,NA,NA,NA,NA,NA,NA,NA,NA,NA,NA,NA,NA,NA,NA,NA,NA,NA,NA,NA,NA,NA
"90","stim/objects/HouseObjects/clock2.png",67,65,67,0.9,"stim/62.jpeg",6,2,3,NA,"HouseObjects",1,4,"left","left",0.584000111,1,1,0,1,NA,NA,NA,NA,NA,NA,NA,NA,NA,NA,NA,NA,NA,NA,NA,NA,NA,NA,NA,NA,NA,NA,NA,NA
"79","stim/objects/HouseObjects/bucket2.png",68,65,68,0.9,"stim/61.jpeg",6,1,3,NA,"HouseObjects",1,3,"left","left",0.549000263,1,1,0,1,NA,NA,NA,NA,NA,NA,NA,NA,NA,NA,NA,NA,NA,NA,NA,NA,NA,NA,NA,NA,NA,NA,NA,NA
"151","stim/objects/Instruments/banjo2.png",69,65,69,0.3,"stim/44.jpeg",4,4,2,NA,"Instruments",2,1,"right","right",0.776000261,1,1,0,1,NA,NA,NA,NA,NA,NA,NA,NA,NA,NA,NA,NA,NA,NA,NA,NA,NA,NA,NA,NA,NA,NA,NA,NA
"138","stim/objects/Instruments/balalaika.png",70,65,70,0.5,"stim/13.jpeg",1,3,1,NA,"Instruments",2,2,"right","left",0.745000124,0,0,0,1,NA,NA,NA,NA,NA,NA,NA,NA,NA,NA,NA,NA,NA,NA,NA,NA,NA,NA,NA,NA,NA,NA,NA,NA
"33","stim/objects/HouseObjects/barbecuelighter2.png",71,65,71,0.7,"stim/43.jpeg",4,3,2,NA,"HouseObjects",1,2,"left","left",0.732000113,1,1,0,1,NA,NA,NA,NA,NA,NA,NA,NA,NA,NA,NA,NA,NA,NA,NA,NA,NA,NA,NA,NA,NA,NA,NA,NA
"51","stim/objects/HouseObjects/bleachbottle.png",72,65,72,0.5,"stim/21.jpeg",2,1,1,NA,"HouseObjects",1,3,"left","right",0.618000269,0,0,0,1,NA,NA,NA,NA,NA,NA,NA,NA,NA,NA,NA,NA,NA,NA,NA,NA,NA,NA,NA,NA,NA,NA,NA,NA
"19","stim/objects/HouseObjects/ballofstring2.png",73,65,73,0.7,"stim/42.jpeg",4,2,2,NA,"HouseObjects",1,4,"left","left",0.251000166,1,1,0,1,NA,NA,NA,NA,NA,NA,NA,NA,NA,NA,NA,NA,NA,NA,NA,NA,NA,NA,NA,NA,NA,NA,NA,NA
"159","stim/objects/Instruments/bassdrum2.png",74,65,74,0.9,"stim/51.jpeg",5,1,3,NA,"Instruments",2,4,"right","right",0.849000216,1,1,0,1,NA,NA,NA,NA,NA,NA,NA,NA,NA,NA,NA,NA,NA,NA,NA,NA,NA,NA,NA,NA,NA,NA,NA,NA
"87","stim/objects/HouseObjects/clock.png",75,65,75,0.3,"stim/32.jpeg",3,2,2,NA,"HouseObjects",1,2,"left","right",0.680000305,0,0,0,1,NA,NA,NA,NA,NA,NA,NA,NA,NA,NA,NA,NA,NA,NA,NA,NA,NA,NA,NA,NA,NA,NA,NA,NA
"103","stim/objects/HouseObjects/clothesdryingrack2.png",76,65,76,0.9,"stim/63.jpeg",6,3,3,NA,"HouseObjects",1,4,"left","",NA,0,0,0,1,NA,NA,NA,NA,NA,NA,NA,NA,NA,NA,NA,NA,NA,NA,NA,NA,NA,NA,NA,NA,NA,NA,NA,NA
"114","stim/objects/HouseObjects/clothespin2.png",77,65,77,0.9,"stim/64.jpeg",6,4,3,NA,"HouseObjects",1,1,"left","left",0.769000053,1,1,0,1,NA,NA,NA,NA,NA,NA,NA,NA,NA,NA,NA,NA,NA,NA,NA,NA,NA,NA,NA,NA,NA,NA,NA,NA
"177","stim/objects/Instruments/bassguitar2.png",78,65,78,0.9,"stim/52.jpeg",5,2,3,NA,"Instruments",2,3,"right","right",0.494000196,1,1,0,1,NA,NA,NA,NA,NA,NA,NA,NA,NA,NA,NA,NA,NA,NA,NA,NA,NA,NA,NA,NA,NA,NA,NA,NA
"220","stim/objects/Instruments/cornet.png",79,65,79,0.7,"stim/32.jpeg",3,2,2,NA,"Instruments",2,1,"right","right",0.764000177,1,1,0,1,NA,NA,NA,NA,NA,NA,NA,NA,NA,NA,NA,NA,NA,NA,NA,NA,NA,NA,NA,NA,NA,NA,NA,NA
"104","stim/objects/HouseObjects/clothesdryingrack2.png",80,65,80,0.9,"stim/63.jpeg",6,3,3,NA,"HouseObjects",1,4,"left","left",0.583000183,1,1,0,1,NA,NA,NA,NA,NA,NA,NA,NA,NA,NA,NA,NA,NA,NA,NA,NA,NA,NA,NA,NA,NA,NA,NA,NA
"52","stim/objects/HouseObjects/bleachbottle.png",81,65,81,0.5,"stim/21.jpeg",2,1,1,NA,"HouseObjects",1,4,"left","left",0.503000259,1,1,0,1,NA,NA,NA,NA,NA,NA,NA,NA,NA,NA,NA,NA,NA,NA,NA,NA,NA,NA,NA,NA,NA,NA,NA,NA
"155","stim/objects/Instruments/bassdrum.png",82,65,82,0.5,"stim/21.jpeg",2,1,1,NA,"Instruments",2,1,"right","",NA,0,0,0,1,NA,NA,NA,NA,NA,NA,NA,NA,NA,NA,NA,NA,NA,NA,NA,NA,NA,NA,NA,NA,NA,NA,NA,NA
"126","stim/objects/Instruments/accordion2.png",83,65,83,0.3,"stim/41.jpeg",4,1,2,NA,"Instruments",2,2,"right","left",0.517000198,0,0,0,1,NA,NA,NA,NA,NA,NA,NA,NA,NA,NA,NA,NA,NA,NA,NA,NA,NA,NA,NA,NA,NA,NA,NA,NA
"143","stim/objects/Instruments/balalaika2.png",84,65,84,0.3,"stim/43.jpeg",4,3,2,NA,"Instruments",2,2,"right","left",0.698000193,0,0,0,1,NA,NA,NA,NA,NA,NA,NA,NA,NA,NA,NA,NA,NA,NA,NA,NA,NA,NA,NA,NA,NA,NA,NA,NA
"156","stim/objects/Instruments/bassdrum.png",85,65,85,0.5,"stim/21.jpeg",2,1,1,NA,"Instruments",2,4,"right","",NA,0,0,0,1,NA,NA,NA,NA,NA,NA,NA,NA,NA,NA,NA,NA,NA,NA,NA,NA,NA,NA,NA,NA,NA,NA,NA,NA
"160","stim/objects/Instruments/bassdrum2.png",86,65,86,0.9,"stim/51.jpeg",5,1,3,NA,"Instruments",2,1,"right","right",0.580000162,1,1,0,1,NA,NA,NA,NA,NA,NA,NA,NA,NA,NA,NA,NA,NA,NA,NA,NA,NA,NA,NA,NA,NA,NA,NA,NA
"44","stim/objects/HouseObjects/basket2.png",87,65,87,0.7,"stim/44.jpeg",4,4,2,NA,"HouseObjects",1,3,"left","",NA,0,0,0,1,NA,NA,NA,NA,NA,NA,NA,NA,NA,NA,NA,NA,NA,NA,NA,NA,NA,NA,NA,NA,NA,NA,NA,NA
"15","stim/objects/HouseObjects/ballofstring.png",88,65,88,0.5,"stim/12.jpeg",1,2,1,NA,"HouseObjects",1,2,"left","",NA,0,0,0,1,NA,NA,NA,NA,NA,NA,NA,NA,NA,NA,NA,NA,NA,NA,NA,NA,NA,NA,NA,NA,NA,NA,NA,NA
"202","stim/objects/Instruments/chime2.png",89,65,89,0.9,"stim/54.jpeg",5,4,3,NA,"Instruments",2,2,"right","left",0.515000343,0,0,0,1,NA,NA,NA,NA,NA,NA,NA,NA,NA,NA,NA,NA,NA,NA,NA,NA,NA,NA,NA,NA,NA,NA,NA,NA
"187","stim/objects/Instruments/cello2.png",90,65,90,0.9,"stim/53.jpeg",5,3,3,NA,"Instruments",2,2,"right","right",0.652000189,1,1,0,1,NA,NA,NA,NA,NA,NA,NA,NA,NA,NA,NA,NA,NA,NA,NA,NA,NA,NA,NA,NA,NA,NA,NA,NA
"234","stim/objects/Instruments/doublebass.png",91,65,91,0.7,"stim/34.jpeg",3,4,2,NA,"Instruments",2,1,"right","left",0.693000078,0,0,0,1,NA,NA,NA,NA,NA,NA,NA,NA,NA,NA,NA,NA,NA,NA,NA,NA,NA,NA,NA,NA,NA,NA,NA,NA
"110","stim/objects/HouseObjects/clothespin.png",92,65,92,0.3,"stim/34.jpeg",3,4,2,NA,"HouseObjects",1,1,"left","right",0.463000059,0,0,0,1,NA,NA,NA,NA,NA,NA,NA,NA,NA,NA,NA,NA,NA,NA,NA,NA,NA,NA,NA,NA,NA,NA,NA,NA
"181","stim/objects/Instruments/cello.png",93,65,93,0.5,"stim/23.jpeg",2,3,1,NA,"Instruments",2,4,"right","",NA,0,0,0,1,NA,NA,NA,NA,NA,NA,NA,NA,NA,NA,NA,NA,NA,NA,NA,NA,NA,NA,NA,NA,NA,NA,NA,NA
"20","stim/objects/HouseObjects/ballofstring2.png",94,65,94,0.7,"stim/42.jpeg",4,2,2,NA,"HouseObjects",1,3,"left","right",0.656000137,0,0,0,1,NA,NA,NA,NA,NA,NA,NA,NA,NA,NA,NA,NA,NA,NA,NA,NA,NA,NA,NA,NA,NA,NA,NA,NA
"182","stim/objects/Instruments/cello.png",95,65,95,0.5,"stim/23.jpeg",2,3,1,NA,"Instruments",2,2,"right","left",0.294000387,0,0,0,1,NA,NA,NA,NA,NA,NA,NA,NA,NA,NA,NA,NA,NA,NA,NA,NA,NA,NA,NA,NA,NA,NA,NA,NA
"98","stim/objects/HouseObjects/clothesdryingrack.png",96,65,96,0.3,"stim/33.jpeg",3,3,2,NA,"HouseObjects",1,4,"left","right",0.346000195,0,0,0,1,NA,NA,NA,NA,NA,NA,NA,NA,NA,NA,NA,NA,NA,NA,NA,NA,NA,NA,NA,NA,NA,NA,NA,NA
"224","stim/objects/Instruments/cornet2.png",97,65,97,0.1,"stim/62.jpeg",6,2,3,NA,"Instruments",2,1,"right","right",0.309000254,1,1,0,1,NA,NA,NA,NA,NA,NA,NA,NA,NA,NA,NA,NA,NA,NA,NA,NA,NA,NA,NA,NA,NA,NA,NA,NA
"16","stim/objects/HouseObjects/ballofstring.png",98,65,98,0.5,"stim/12.jpeg",1,2,1,NA,"HouseObjects",1,3,"left","right",0.699000359,0,0,0,1,NA,NA,NA,NA,NA,NA,NA,NA,NA,NA,NA,NA,NA,NA,NA,NA,NA,NA,NA,NA,NA,NA,NA,NA
"91","stim/objects/HouseObjects/clock2.png",99,65,99,0.9,"stim/62.jpeg",6,2,3,NA,"HouseObjects",1,1,"left","left",0.791000128,1,1,0,1,NA,NA,NA,NA,NA,NA,NA,NA,NA,NA,NA,NA,NA,NA,NA,NA,NA,NA,NA,NA,NA,NA,NA,NA
"111","stim/objects/HouseObjects/clothespin.png",100,65,100,0.3,"stim/34.jpeg",3,4,2,NA,"HouseObjects",1,1,"left","right",0.649000168,0,0,0,1,NA,NA,NA,NA,NA,NA,NA,NA,NA,NA,NA,NA,NA,NA,NA,NA,NA,NA,NA,NA,NA,NA,NA,NA
"203","stim/objects/Instruments/chime2.png",101,65,101,0.9,"stim/54.jpeg",5,4,3,NA,"Instruments",2,1,"right","right",0.481000185,1,1,0,1,NA,NA,NA,NA,NA,NA,NA,NA,NA,NA,NA,NA,NA,NA,NA,NA,NA,NA,NA,NA,NA,NA,NA,NA
"204","stim/objects/Instruments/chime2.png",102,65,102,0.9,"stim/54.jpeg",5,4,3,NA,"Instruments",2,4,"right","right",0.632000208,1,1,0,1,NA,NA,NA,NA,NA,NA,NA,NA,NA,NA,NA,NA,NA,NA,NA,NA,NA,NA,NA,NA,NA,NA,NA,NA
"27","stim/objects/HouseObjects/barbecuelighter.png",103,65,103,0.5,"stim/13.jpeg",1,3,1,NA,"HouseObjects",1,1,"left","left",0.691000223,1,1,0,1,NA,NA,NA,NA,NA,NA,NA,NA,NA,NA,NA,NA,NA,NA,NA,NA,NA,NA,NA,NA,NA,NA,NA,NA
"17","stim/objects/HouseObjects/ballofstring.png",104,65,104,0.5,"stim/12.jpeg",1,2,1,NA,"HouseObjects",1,1,"left","left",0.847000122,1,1,0,1,NA,NA,NA,NA,NA,NA,NA,NA,NA,NA,NA,NA,NA,NA,NA,NA,NA,NA,NA,NA,NA,NA,NA,NA
"8","stim/objects/HouseObjects/ashtray2.png",105,65,105,0.7,"stim/41.jpeg",4,1,2,NA,"HouseObjects",1,4,"left","left",0.785000086,1,1,0,1,NA,NA,NA,NA,NA,NA,NA,NA,NA,NA,NA,NA,NA,NA,NA,NA,NA,NA,NA,NA,NA,NA,NA,NA
"235","stim/objects/Instruments/doublebass.png",106,65,106,0.7,"stim/34.jpeg",3,4,2,NA,"Instruments",2,3,"right","right",0.434000254,1,1,0,1,NA,NA,NA,NA,NA,NA,NA,NA,NA,NA,NA,NA,NA,NA,NA,NA,NA,NA,NA,NA,NA,NA,NA,NA
"115","stim/objects/HouseObjects/clothespin2.png",107,65,107,0.9,"stim/64.jpeg",6,4,3,NA,"HouseObjects",1,1,"left","left",0.495000124,1,1,0,1,NA,NA,NA,NA,NA,NA,NA,NA,NA,NA,NA,NA,NA,NA,NA,NA,NA,NA,NA,NA,NA,NA,NA,NA
"139","stim/objects/Instruments/balalaika.png",108,65,108,0.5,"stim/13.jpeg",1,3,1,NA,"Instruments",2,2,"right","right",0.756999969,1,1,0,1,NA,NA,NA,NA,NA,NA,NA,NA,NA,NA,NA,NA,NA,NA,NA,NA,NA,NA,NA,NA,NA,NA,NA,NA
"130","stim/objects/Instruments/acousticguitar.png",109,65,109,0.5,"stim/12.jpeg",1,2,1,NA,"Instruments",2,3,"right","left",0.447000265,0,0,0,1,NA,NA,NA,NA,NA,NA,NA,NA,NA,NA,NA,NA,NA,NA,NA,NA,NA,NA,NA,NA,NA,NA,NA,NA
"210","stim/objects/Instruments/clarinet.png",110,65,110,0.7,"stim/31.jpeg",3,1,2,NA,"Instruments",2,3,"right","right",0.445000172,1,1,0,1,NA,NA,NA,NA,NA,NA,NA,NA,NA,NA,NA,NA,NA,NA,NA,NA,NA,NA,NA,NA,NA,NA,NA,NA
"116","stim/objects/HouseObjects/clothespin2.png",111,65,111,0.9,"stim/64.jpeg",6,4,3,NA,"HouseObjects",1,4,"left","left",0.499000072,1,1,0,1,NA,NA,NA,NA,NA,NA,NA,NA,NA,NA,NA,NA,NA,NA,NA,NA,NA,NA,NA,NA,NA,NA,NA,NA
"146","stim/objects/Instruments/banjo.png",112,65,112,0.5,"stim/14.jpeg",1,4,1,NA,"Instruments",2,3,"right","right",0.440000296,1,1,0,1,NA,NA,NA,NA,NA,NA,NA,NA,NA,NA,NA,NA,NA,NA,NA,NA,NA,NA,NA,NA,NA,NA,NA,NA
"161","stim/objects/Instruments/bassdrum2.png",113,65,113,0.9,"stim/51.jpeg",5,1,3,NA,"Instruments",2,3,"right","right",0.578999996,1,1,0,1,NA,NA,NA,NA,NA,NA,NA,NA,NA,NA,NA,NA,NA,NA,NA,NA,NA,NA,NA,NA,NA,NA,NA,NA
"196","stim/objects/Instruments/chime.png",114,65,114,0.5,"stim/24.jpeg",2,4,1,NA,"Instruments",2,1,"right","left",0.663000107,0,0,0,1,NA,NA,NA,NA,NA,NA,NA,NA,NA,NA,NA,NA,NA,NA,NA,NA,NA,NA,NA,NA,NA,NA,NA,NA
"80","stim/objects/HouseObjects/bucket2.png",115,65,115,0.9,"stim/61.jpeg",6,1,3,NA,"HouseObjects",1,4,"left","right",0.386000156,0,0,0,1,NA,NA,NA,NA,NA,NA,NA,NA,NA,NA,NA,NA,NA,NA,NA,NA,NA,NA,NA,NA,NA,NA,NA,NA
"152","stim/objects/Instruments/banjo2.png",116,65,116,0.3,"stim/44.jpeg",4,4,2,NA,"Instruments",2,4,"right","left",0.761000156,0,0,0,1,NA,NA,NA,NA,NA,NA,NA,NA,NA,NA,NA,NA,NA,NA,NA,NA,NA,NA,NA,NA,NA,NA,NA,NA
"121","stim/objects/Instruments/accordion.png",117,65,117,0.5,"stim/11.jpeg",1,1,1,NA,"Instruments",2,3,"right","right",0.359000206,1,1,0,1,NA,NA,NA,NA,NA,NA,NA,NA,NA,NA,NA,NA,NA,NA,NA,NA,NA,NA,NA,NA,NA,NA,NA,NA
"2","stim/objects/HouseObjects/ashtray.png",118,65,118,0.5,"stim/11.jpeg",1,1,1,NA,"HouseObjects",1,4,"left","left",0.59800005,1,1,0,1,NA,NA,NA,NA,NA,NA,NA,NA,NA,NA,NA,NA,NA,NA,NA,NA,NA,NA,NA,NA,NA,NA,NA,NA
"55","stim/objects/HouseObjects/blender.png",119,65,119,0.5,"stim/22.jpeg",2,2,1,NA,"HouseObjects",1,3,"left","right",0.731000185,0,0,0,1,NA,NA,NA,NA,NA,NA,NA,NA,NA,NA,NA,NA,NA,NA,NA,NA,NA,NA,NA,NA,NA,NA,NA,NA
"92","stim/objects/HouseObjects/clock2.png",120,65,120,0.9,"stim/62.jpeg",6,2,3,NA,"HouseObjects",1,4,"left","left",0.531000137,1,1,0,1,NA,NA,NA,NA,NA,NA,NA,NA,NA,NA,NA,NA,NA,NA,NA,NA,NA,NA,NA,NA,NA,NA,NA,NA
"53","stim/objects/HouseObjects/bleachbottle.png",121,65,121,0.5,"stim/21.jpeg",2,1,1,NA,"HouseObjects",1,1,"left","right",0.509000063,0,0,0,1,NA,NA,NA,NA,NA,NA,NA,NA,NA,NA,NA,NA,NA,NA,NA,NA,NA,NA,NA,NA,NA,NA,NA,NA
"21","stim/objects/HouseObjects/ballofstring2.png",122,65,122,0.7,"stim/42.jpeg",4,2,2,NA,"HouseObjects",1,2,"left","left",0.399000168,1,1,0,1,NA,NA,NA,NA,NA,NA,NA,NA,NA,NA,NA,NA,NA,NA,NA,NA,NA,NA,NA,NA,NA,NA,NA,NA
"216","stim/objects/Instruments/clarinet2.png",123,65,123,0.1,"stim/61.jpeg",6,1,3,NA,"Instruments",2,4,"right","left",0.670000076,0,0,0,1,NA,NA,NA,NA,NA,NA,NA,NA,NA,NA,NA,NA,NA,NA,NA,NA,NA,NA,NA,NA,NA,NA,NA,NA
"169","stim/objects/Instruments/bassguitar.png",124,65,124,0.5,"stim/22.jpeg",2,2,1,NA,"Instruments",2,1,"right","right",0.645000219,1,1,0,1,NA,NA,NA,NA,NA,NA,NA,NA,NA,NA,NA,NA,NA,NA,NA,NA,NA,NA,NA,NA,NA,NA,NA,NA
"45","stim/objects/HouseObjects/basket2.png",125,65,125,0.7,"stim/44.jpeg",4,4,2,NA,"HouseObjects",1,3,"left","",NA,0,0,0,1,NA,NA,NA,NA,NA,NA,NA,NA,NA,NA,NA,NA,NA,NA,NA,NA,NA,NA,NA,NA,NA,NA,NA,NA
"56","stim/objects/HouseObjects/blender.png",126,65,126,0.5,"stim/22.jpeg",2,2,1,NA,"HouseObjects",1,4,"left","left",0.24600029,1,1,0,1,NA,NA,NA,NA,NA,NA,NA,NA,NA,NA,NA,NA,NA,NA,NA,NA,NA,NA,NA,NA,NA,NA,NA,NA
"211","stim/objects/Instruments/clarinet.png",127,65,127,0.7,"stim/31.jpeg",3,1,2,NA,"Instruments",2,1,"right","right",0.661000013,1,1,0,1,NA,NA,NA,NA,NA,NA,NA,NA,NA,NA,NA,NA,NA,NA,NA,NA,NA,NA,NA,NA,NA,NA,NA,NA
"22","stim/objects/HouseObjects/ballofstring2.png",128,65,128,0.7,"stim/42.jpeg",4,2,2,NA,"HouseObjects",1,3,"left","",NA,0,0,0,1,NA,NA,NA,NA,NA,NA,NA,NA,NA,NA,NA,NA,NA,NA,NA,NA,NA,NA,NA,NA,NA,NA,NA,NA
"205","stim/objects/Instruments/chime2.png",129,65,129,0.9,"stim/54.jpeg",5,4,3,NA,"Instruments",2,3,"right","right",0.434000015,1,1,0,1,NA,NA,NA,NA,NA,NA,NA,NA,NA,NA,NA,NA,NA,NA,NA,NA,NA,NA,NA,NA,NA,NA,NA,NA
"3","stim/objects/HouseObjects/ashtray.png",130,65,130,0.5,"stim/11.jpeg",1,1,1,NA,"HouseObjects",1,4,"left","",NA,0,0,0,1,NA,NA,NA,NA,NA,NA,NA,NA,NA,NA,NA,NA,NA,NA,NA,NA,NA,NA,NA,NA,NA,NA,NA,NA
"93","stim/objects/HouseObjects/clock2.png",131,65,131,0.9,"stim/62.jpeg",6,2,3,NA,"HouseObjects",1,1,"left","right",0.294000149,0,0,0,1,NA,NA,NA,NA,NA,NA,NA,NA,NA,NA,NA,NA,NA,NA,NA,NA,NA,NA,NA,NA,NA,NA,NA,NA
"162","stim/objects/Instruments/bassdrum2.png",132,65,132,0.9,"stim/51.jpeg",5,1,3,NA,"Instruments",2,3,"right","right",0.59800005,1,1,0,1,NA,NA,NA,NA,NA,NA,NA,NA,NA,NA,NA,NA,NA,NA,NA,NA,NA,NA,NA,NA,NA,NA,NA,NA
"147","stim/objects/Instruments/banjo.png",133,65,133,0.5,"stim/14.jpeg",1,4,1,NA,"Instruments",2,3,"right","left",0.636000156,0,0,0,1,NA,NA,NA,NA,NA,NA,NA,NA,NA,NA,NA,NA,NA,NA,NA,NA,NA,NA,NA,NA,NA,NA,NA,NA
"57","stim/objects/HouseObjects/blender.png",134,65,134,0.5,"stim/22.jpeg",2,2,1,NA,"HouseObjects",1,3,"left","left",0.700000048,1,1,0,1,NA,NA,NA,NA,NA,NA,NA,NA,NA,NA,NA,NA,NA,NA,NA,NA,NA,NA,NA,NA,NA,NA,NA,NA
"34","stim/objects/HouseObjects/barbecuelighter2.png",135,65,135,0.7,"stim/43.jpeg",4,3,2,NA,"HouseObjects",1,2,"left","left",0.728000164,1,1,0,1,NA,NA,NA,NA,NA,NA,NA,NA,NA,NA,NA,NA,NA,NA,NA,NA,NA,NA,NA,NA,NA,NA,NA,NA
"94","stim/objects/HouseObjects/clock2.png",136,65,136,0.9,"stim/62.jpeg",6,2,3,NA,"HouseObjects",1,3,"left","right",0.512000322,0,0,0,1,NA,NA,NA,NA,NA,NA,NA,NA,NA,NA,NA,NA,NA,NA,NA,NA,NA,NA,NA,NA,NA,NA,NA,NA
"37","stim/objects/HouseObjects/basket.png",137,65,137,0.5,"stim/14.jpeg",1,4,1,NA,"HouseObjects",1,4,"left","left",0.426000357,1,1,0,1,NA,NA,NA,NA,NA,NA,NA,NA,NA,NA,NA,NA,NA,NA,NA,NA,NA,NA,NA,NA,NA,NA,NA,NA
"81","stim/objects/HouseObjects/bucket2.png",138,65,138,0.9,"stim/61.jpeg",6,1,3,NA,"HouseObjects",1,3,"left","left",0.663000345,1,1,0,1,NA,NA,NA,NA,NA,NA,NA,NA,NA,NA,NA,NA,NA,NA,NA,NA,NA,NA,NA,NA,NA,NA,NA,NA
"134","stim/objects/Instruments/acousticguitar2.png",139,65,139,0.3,"stim/42.jpeg",4,2,2,NA,"Instruments",2,3,"right","right",0.880000114,1,1,0,1,NA,NA,NA,NA,NA,NA,NA,NA,NA,NA,NA,NA,NA,NA,NA,NA,NA,NA,NA,NA,NA,NA,NA,NA
"131","stim/objects/Instruments/acousticguitar.png",140,65,140,0.5,"stim/12.jpeg",1,2,1,NA,"Instruments",2,2,"right","left",0.46900034,0,0,0,1,NA,NA,NA,NA,NA,NA,NA,NA,NA,NA,NA,NA,NA,NA,NA,NA,NA,NA,NA,NA,NA,NA,NA,NA
"38","stim/objects/HouseObjects/basket.png",141,65,141,0.5,"stim/14.jpeg",1,4,1,NA,"HouseObjects",1,4,"left","right",0.695000172,0,0,0,1,NA,NA,NA,NA,NA,NA,NA,NA,NA,NA,NA,NA,NA,NA,NA,NA,NA,NA,NA,NA,NA,NA,NA,NA
"188","stim/objects/Instruments/cello2.png",142,65,142,0.9,"stim/53.jpeg",5,3,3,NA,"Instruments",2,3,"right","right",0.445000172,1,1,0,1,NA,NA,NA,NA,NA,NA,NA,NA,NA,NA,NA,NA,NA,NA,NA,NA,NA,NA,NA,NA,NA,NA,NA,NA
"183","stim/objects/Instruments/cello.png",143,65,143,0.5,"stim/23.jpeg",2,3,1,NA,"Instruments",2,4,"right","left",0.84800005,0,0,0,1,NA,NA,NA,NA,NA,NA,NA,NA,NA,NA,NA,NA,NA,NA,NA,NA,NA,NA,NA,NA,NA,NA,NA,NA
"148","stim/objects/Instruments/banjo.png",144,65,144,0.5,"stim/14.jpeg",1,4,1,NA,"Instruments",2,1,"right","right",0.380000353,1,1,0,1,NA,NA,NA,NA,NA,NA,NA,NA,NA,NA,NA,NA,NA,NA,NA,NA,NA,NA,NA,NA,NA,NA,NA,NA
"132","stim/objects/Instruments/acousticguitar.png",145,65,145,0.5,"stim/12.jpeg",1,2,1,NA,"Instruments",2,3,"right","right",0.563000202,1,1,0,1,NA,NA,NA,NA,NA,NA,NA,NA,NA,NA,NA,NA,NA,NA,NA,NA,NA,NA,NA,NA,NA,NA,NA,NA
"236","stim/objects/Instruments/doublebass.png",146,65,146,0.7,"stim/34.jpeg",3,4,2,NA,"Instruments",2,3,"right","left",0.550000191,0,0,0,1,NA,NA,NA,NA,NA,NA,NA,NA,NA,NA,NA,NA,NA,NA,NA,NA,NA,NA,NA,NA,NA,NA,NA,NA
"149","stim/objects/Instruments/banjo.png",147,65,147,0.5,"stim/14.jpeg",1,4,1,NA,"Instruments",2,2,"right","right",0.33100009,1,1,0,1,NA,NA,NA,NA,NA,NA,NA,NA,NA,NA,NA,NA,NA,NA,NA,NA,NA,NA,NA,NA,NA,NA,NA,NA
"170","stim/objects/Instruments/bassguitar.png",148,65,148,0.5,"stim/22.jpeg",2,2,1,NA,"Instruments",2,1,"right","left",0.332000256,0,0,0,1,NA,NA,NA,NA,NA,NA,NA,NA,NA,NA,NA,NA,NA,NA,NA,NA,NA,NA,NA,NA,NA,NA,NA,NA
"189","stim/objects/Instruments/cello2.png",149,65,149,0.9,"stim/53.jpeg",5,3,3,NA,"Instruments",2,2,"right","right",0.764000177,1,1,0,1,NA,NA,NA,NA,NA,NA,NA,NA,NA,NA,NA,NA,NA,NA,NA,NA,NA,NA,NA,NA,NA,NA,NA,NA
"221","stim/objects/Instruments/cornet.png",150,65,150,0.7,"stim/32.jpeg",3,2,2,NA,"Instruments",2,1,"right","left",0.493000269,0,0,0,1,NA,NA,NA,NA,NA,NA,NA,NA,NA,NA,NA,NA,NA,NA,NA,NA,NA,NA,NA,NA,NA,NA,NA,NA
"58","stim/objects/HouseObjects/blender.png",151,65,151,0.5,"stim/22.jpeg",2,2,1,NA,"HouseObjects",1,2,"left","right",0.681000233,0,0,0,1,NA,NA,NA,NA,NA,NA,NA,NA,NA,NA,NA,NA,NA,NA,NA,NA,NA,NA,NA,NA,NA,NA,NA,NA
"163","stim/objects/Instruments/bassdrum2.png",152,65,152,0.9,"stim/51.jpeg",5,1,3,NA,"Instruments",2,4,"right","right",0.578000069,1,1,0,1,NA,NA,NA,NA,NA,NA,NA,NA,NA,NA,NA,NA,NA,NA,NA,NA,NA,NA,NA,NA,NA,NA,NA,NA
"9","stim/objects/HouseObjects/ashtray2.png",153,65,153,0.7,"stim/41.jpeg",4,1,2,NA,"HouseObjects",1,2,"left","left",0.7900002,1,1,0,1,NA,NA,NA,NA,NA,NA,NA,NA,NA,NA,NA,NA,NA,NA,NA,NA,NA,NA,NA,NA,NA,NA,NA,NA
"127","stim/objects/Instruments/accordion2.png",154,65,154,0.3,"stim/41.jpeg",4,1,2,NA,"Instruments",2,1,"right","",NA,0,0,0,1,NA,NA,NA,NA,NA,NA,NA,NA,NA,NA,NA,NA,NA,NA,NA,NA,NA,NA,NA,NA,NA,NA,NA,NA
"69","stim/objects/HouseObjects/broom.png",155,65,155,0.5,"stim/24.jpeg",2,4,1,NA,"HouseObjects",1,2,"left","right",0.650000334,0,0,0,1,NA,NA,NA,NA,NA,NA,NA,NA,NA,NA,NA,NA,NA,NA,NA,NA,NA,NA,NA,NA,NA,NA,NA,NA
"39","stim/objects/HouseObjects/basket.png",156,65,156,0.5,"stim/14.jpeg",1,4,1,NA,"HouseObjects",1,3,"left","right",0.58100009,0,0,0,1,NA,NA,NA,NA,NA,NA,NA,NA,NA,NA,NA,NA,NA,NA,NA,NA,NA,NA,NA,NA,NA,NA,NA,NA
"212","stim/objects/Instruments/clarinet.png",157,65,157,0.7,"stim/31.jpeg",3,1,2,NA,"Instruments",2,1,"right","right",0.46600008,1,1,0,1,NA,NA,NA,NA,NA,NA,NA,NA,NA,NA,NA,NA,NA,NA,NA,NA,NA,NA,NA,NA,NA,NA,NA,NA
"99","stim/objects/HouseObjects/clothesdryingrack.png",158,65,158,0.3,"stim/33.jpeg",3,3,2,NA,"HouseObjects",1,1,"left","right",0.464000225,0,0,0,1,NA,NA,NA,NA,NA,NA,NA,NA,NA,NA,NA,NA,NA,NA,NA,NA,NA,NA,NA,NA,NA,NA,NA,NA
"190","stim/objects/Instruments/cello2.png",159,65,159,0.9,"stim/53.jpeg",5,3,3,NA,"Instruments",2,1,"right","right",0.495000124,1,1,0,1,NA,NA,NA,NA,NA,NA,NA,NA,NA,NA,NA,NA,NA,NA,NA,NA,NA,NA,NA,NA,NA,NA,NA,NA
"206","stim/objects/Instruments/chime2.png",160,65,160,0.9,"stim/54.jpeg",5,4,3,NA,"Instruments",2,4,"right","right",0.618000269,1,1,0,1,NA,NA,NA,NA,NA,NA,NA,NA,NA,NA,NA,NA,NA,NA,NA,NA,NA,NA,NA,NA,NA,NA,NA,NA
"40","stim/objects/HouseObjects/basket.png",161,65,161,0.5,"stim/14.jpeg",1,4,1,NA,"HouseObjects",1,2,"left","left",0.825000286,1,1,0,1,NA,NA,NA,NA,NA,NA,NA,NA,NA,NA,NA,NA,NA,NA,NA,NA,NA,NA,NA,NA,NA,NA,NA,NA
"122","stim/objects/Instruments/accordion.png",162,65,162,0.5,"stim/11.jpeg",1,1,1,NA,"Instruments",2,3,"right","",NA,0,0,0,1,NA,NA,NA,NA,NA,NA,NA,NA,NA,NA,NA,NA,NA,NA,NA,NA,NA,NA,NA,NA,NA,NA,NA,NA
"222","stim/objects/Instruments/cornet.png",163,65,163,0.7,"stim/32.jpeg",3,2,2,NA,"Instruments",2,3,"right","left",0.397000313,0,0,0,1,NA,NA,NA,NA,NA,NA,NA,NA,NA,NA,NA,NA,NA,NA,NA,NA,NA,NA,NA,NA,NA,NA,NA,NA
"82","stim/objects/HouseObjects/bucket2.png",164,65,164,0.9,"stim/61.jpeg",6,1,3,NA,"HouseObjects",1,2,"left","right",0.066000223,0,0,0,1,NA,NA,NA,NA,NA,NA,NA,NA,NA,NA,NA,NA,NA,NA,NA,NA,NA,NA,NA,NA,NA,NA,NA,NA
"144","stim/objects/Instruments/balalaika2.png",165,65,165,0.3,"stim/43.jpeg",4,3,2,NA,"Instruments",2,3,"right","right",0.482000113,1,1,0,1,NA,NA,NA,NA,NA,NA,NA,NA,NA,NA,NA,NA,NA,NA,NA,NA,NA,NA,NA,NA,NA,NA,NA,NA
"223","stim/objects/Instruments/cornet.png",166,65,166,0.7,"stim/32.jpeg",3,2,2,NA,"Instruments",2,1,"right","left",0.696000099,0,0,0,1,NA,NA,NA,NA,NA,NA,NA,NA,NA,NA,NA,NA,NA,NA,NA,NA,NA,NA,NA,NA,NA,NA,NA,NA
"10","stim/objects/HouseObjects/ashtray2.png",167,65,167,0.7,"stim/41.jpeg",4,1,2,NA,"HouseObjects",1,2,"left","left",0.496999979,1,1,0,1,NA,NA,NA,NA,NA,NA,NA,NA,NA,NA,NA,NA,NA,NA,NA,NA,NA,NA,NA,NA,NA,NA,NA,NA
"191","stim/objects/Instruments/cello2.png",168,65,168,0.9,"stim/53.jpeg",5,3,3,NA,"Instruments",2,2,"right","right",0.729000092,1,1,0,1,NA,NA,NA,NA,NA,NA,NA,NA,NA,NA,NA,NA,NA,NA,NA,NA,NA,NA,NA,NA,NA,NA,NA,NA
"184","stim/objects/Instruments/cello.png",169,65,169,0.5,"stim/23.jpeg",2,3,1,NA,"Instruments",2,4,"right","left",0.684000254,0,0,0,1,NA,NA,NA,NA,NA,NA,NA,NA,NA,NA,NA,NA,NA,NA,NA,NA,NA,NA,NA,NA,NA,NA,NA,NA
"117","stim/objects/HouseObjects/clothespin2.png",170,65,170,0.9,"stim/64.jpeg",6,4,3,NA,"HouseObjects",1,1,"left","right",0.227000237,0,0,0,1,NA,NA,NA,NA,NA,NA,NA,NA,NA,NA,NA,NA,NA,NA,NA,NA,NA,NA,NA,NA,NA,NA,NA,NA
"135","stim/objects/Instruments/acousticguitar2.png",171,65,171,0.3,"stim/42.jpeg",4,2,2,NA,"Instruments",2,4,"right","right",0.828000069,1,1,0,1,NA,NA,NA,NA,NA,NA,NA,NA,NA,NA,NA,NA,NA,NA,NA,NA,NA,NA,NA,NA,NA,NA,NA,NA
"213","stim/objects/Instruments/clarinet.png",172,65,172,0.7,"stim/31.jpeg",3,1,2,NA,"Instruments",2,1,"right","right",0.695000172,1,1,0,1,NA,NA,NA,NA,NA,NA,NA,NA,NA,NA,NA,NA,NA,NA,NA,NA,NA,NA,NA,NA,NA,NA,NA,NA
"46","stim/objects/HouseObjects/basket2.png",173,65,173,0.7,"stim/44.jpeg",4,4,2,NA,"HouseObjects",1,3,"left","left",0.630000114,1,1,0,1,NA,NA,NA,NA,NA,NA,NA,NA,NA,NA,NA,NA,NA,NA,NA,NA,NA,NA,NA,NA,NA,NA,NA,NA
"207","stim/objects/Instruments/chime2.png",174,65,174,0.9,"stim/54.jpeg",5,4,3,NA,"Instruments",2,4,"right","right",0.481000185,1,1,0,1,NA,NA,NA,NA,NA,NA,NA,NA,NA,NA,NA,NA,NA,NA,NA,NA,NA,NA,NA,NA,NA,NA,NA,NA
"140","stim/objects/Instruments/balalaika.png",175,65,175,0.5,"stim/13.jpeg",1,3,1,NA,"Instruments",2,3,"right","left",0.613000154,0,0,0,1,NA,NA,NA,NA,NA,NA,NA,NA,NA,NA,NA,NA,NA,NA,NA,NA,NA,NA,NA,NA,NA,NA,NA,NA
"164","stim/objects/Instruments/bassdrum2.png",176,65,176,0.9,"stim/51.jpeg",5,1,3,NA,"Instruments",2,1,"right","right",0.685000181,1,1,0,1,NA,NA,NA,NA,NA,NA,NA,NA,NA,NA,NA,NA,NA,NA,NA,NA,NA,NA,NA,NA,NA,NA,NA,NA
"83","stim/objects/HouseObjects/bucket2.png",177,65,177,0.9,"stim/61.jpeg",6,1,3,NA,"HouseObjects",1,2,"left","left",0.532000065,1,1,0,1,NA,NA,NA,NA,NA,NA,NA,NA,NA,NA,NA,NA,NA,NA,NA,NA,NA,NA,NA,NA,NA,NA,NA,NA
"47","stim/objects/HouseObjects/basket2.png",178,65,178,0.7,"stim/44.jpeg",4,4,2,NA,"HouseObjects",1,1,"left","right",0.626000166,0,0,0,1,NA,NA,NA,NA,NA,NA,NA,NA,NA,NA,NA,NA,NA,NA,NA,NA,NA,NA,NA,NA,NA,NA,NA,NA
"95","stim/objects/HouseObjects/clock2.png",179,65,179,0.9,"stim/62.jpeg",6,2,3,NA,"HouseObjects",1,2,"left","left",0.568000078,1,1,0,1,NA,NA,NA,NA,NA,NA,NA,NA,NA,NA,NA,NA,NA,NA,NA,NA,NA,NA,NA,NA,NA,NA,NA,NA
"118","stim/objects/HouseObjects/clothespin2.png",180,65,180,0.9,"stim/64.jpeg",6,4,3,NA,"HouseObjects",1,4,"left","right",0.526000023,0,0,0,1,NA,NA,NA,NA,NA,NA,NA,NA,NA,NA,NA,NA,NA,NA,NA,NA,NA,NA,NA,NA,NA,NA,NA,NA
"123","stim/objects/Instruments/accordion.png",181,65,181,0.5,"stim/11.jpeg",1,1,1,NA,"Instruments",2,3,"right","right",0.700000286,1,1,0,1,NA,NA,NA,NA,NA,NA,NA,NA,NA,NA,NA,NA,NA,NA,NA,NA,NA,NA,NA,NA,NA,NA,NA,NA
"165","stim/objects/Instruments/bassdrum2.png",182,65,182,0.9,"stim/51.jpeg",5,1,3,NA,"Instruments",2,2,"right","right",0.635000229,1,1,0,1,NA,NA,NA,NA,NA,NA,NA,NA,NA,NA,NA,NA,NA,NA,NA,NA,NA,NA,NA,NA,NA,NA,NA,NA
"63","stim/objects/HouseObjects/bottle.png",183,65,183,0.5,"stim/23.jpeg",2,3,1,NA,"HouseObjects",1,1,"left","",NA,0,0,0,1,NA,NA,NA,NA,NA,NA,NA,NA,NA,NA,NA,NA,NA,NA,NA,NA,NA,NA,NA,NA,NA,NA,NA,NA
"166","stim/objects/Instruments/bassdrum2.png",184,65,184,0.9,"stim/51.jpeg",5,1,3,NA,"Instruments",2,1,"right","right",0.58100009,1,1,0,1,NA,NA,NA,NA,NA,NA,NA,NA,NA,NA,NA,NA,NA,NA,NA,NA,NA,NA,NA,NA,NA,NA,NA,NA
"214","stim/objects/Instruments/clarinet.png",185,65,185,0.7,"stim/31.jpeg",3,1,2,NA,"Instruments",2,3,"right","right",0.679000139,1,1,0,1,NA,NA,NA,NA,NA,NA,NA,NA,NA,NA,NA,NA,NA,NA,NA,NA,NA,NA,NA,NA,NA,NA,NA,NA
"178","stim/objects/Instruments/bassguitar2.png",186,65,186,0.9,"stim/52.jpeg",5,2,3,NA,"Instruments",2,1,"right","right",0.695000172,1,1,0,1,NA,NA,NA,NA,NA,NA,NA,NA,NA,NA,NA,NA,NA,NA,NA,NA,NA,NA,NA,NA,NA,NA,NA,NA
"23","stim/objects/HouseObjects/ballofstring2.png",187,65,187,0.7,"stim/42.jpeg",4,2,2,NA,"HouseObjects",1,2,"left","left",0.582000017,1,1,0,1,NA,NA,NA,NA,NA,NA,NA,NA,NA,NA,NA,NA,NA,NA,NA,NA,NA,NA,NA,NA,NA,NA,NA,NA
"232","stim/objects/Instruments/cymbal2.png",188,65,188,0.1,"stim/63.jpeg",6,3,3,NA,"Instruments",2,4,"right","right",0.69900012,1,1,0,1,NA,NA,NA,NA,NA,NA,NA,NA,NA,NA,NA,NA,NA,NA,NA,NA,NA,NA,NA,NA,NA,NA,NA,NA
"124","stim/objects/Instruments/accordion.png",189,65,189,0.5,"stim/11.jpeg",1,1,1,NA,"Instruments",2,2,"right","",NA,0,0,0,1,NA,NA,NA,NA,NA,NA,NA,NA,NA,NA,NA,NA,NA,NA,NA,NA,NA,NA,NA,NA,NA,NA,NA,NA
"11","stim/objects/HouseObjects/ashtray2.png",190,65,190,0.7,"stim/41.jpeg",4,1,2,NA,"HouseObjects",1,4,"left","left",0.619000196,1,1,0,1,NA,NA,NA,NA,NA,NA,NA,NA,NA,NA,NA,NA,NA,NA,NA,NA,NA,NA,NA,NA,NA,NA,NA,NA
"72","stim/objects/HouseObjects/broom2.png",191,65,191,0.1,"stim/54.jpeg",5,4,3,NA,"HouseObjects",1,4,"left","right",0.542000294,0,0,0,1,NA,NA,NA,NA,NA,NA,NA,NA,NA,NA,NA,NA,NA,NA,NA,NA,NA,NA,NA,NA,NA,NA,NA,NA
"28","stim/objects/HouseObjects/barbecuelighter.png",192,65,192,0.5,"stim/13.jpeg",1,3,1,NA,"HouseObjects",1,3,"left","right",0.643000126,0,0,0,1,NA,NA,NA,NA,NA,NA,NA,NA,NA,NA,NA,NA,NA,NA,NA,NA,NA,NA,NA,NA,NA,NA,NA,NA
"197","stim/objects/Instruments/chime.png",193,65,193,0.5,"stim/24.jpeg",2,4,1,NA,"Instruments",2,1,"right","left",0.71600008,0,0,0,1,NA,NA,NA,NA,NA,NA,NA,NA,NA,NA,NA,NA,NA,NA,NA,NA,NA,NA,NA,NA,NA,NA,NA,NA
"96","stim/objects/HouseObjects/clock2.png",194,65,194,0.9,"stim/62.jpeg",6,2,3,NA,"HouseObjects",1,3,"left","left",0.633000135,1,1,0,1,NA,NA,NA,NA,NA,NA,NA,NA,NA,NA,NA,NA,NA,NA,NA,NA,NA,NA,NA,NA,NA,NA,NA,NA
"75","stim/objects/HouseObjects/bucket.png",195,65,195,0.3,"stim/31.jpeg",3,1,2,NA,"HouseObjects",1,2,"left","right",0.582000017,0,0,0,1,NA,NA,NA,NA,NA,NA,NA,NA,NA,NA,NA,NA,NA,NA,NA,NA,NA,NA,NA,NA,NA,NA,NA,NA
"198","stim/objects/Instruments/chime.png",196,65,196,0.5,"stim/24.jpeg",2,4,1,NA,"Instruments",2,1,"right","right",0.778000116,1,1,0,1,NA,NA,NA,NA,NA,NA,NA,NA,NA,NA,NA,NA,NA,NA,NA,NA,NA,NA,NA,NA,NA,NA,NA,NA
"119","stim/objects/HouseObjects/clothespin2.png",197,65,197,0.9,"stim/64.jpeg",6,4,3,NA,"HouseObjects",1,3,"left","left",0.628000259,1,1,0,1,NA,NA,NA,NA,NA,NA,NA,NA,NA,NA,NA,NA,NA,NA,NA,NA,NA,NA,NA,NA,NA,NA,NA,NA
"229","stim/objects/Instruments/cymbal.png",198,65,198,0.7,"stim/33.jpeg",3,3,2,NA,"Instruments",2,3,"right","left",0.613000154,0,0,0,1,NA,NA,NA,NA,NA,NA,NA,NA,NA,NA,NA,NA,NA,NA,NA,NA,NA,NA,NA,NA,NA,NA,NA,NA
"125","stim/objects/Instruments/accordion.png",199,65,199,0.5,"stim/11.jpeg",1,1,1,NA,"Instruments",2,4,"right","left",0.586000204,0,0,0,1,NA,NA,NA,NA,NA,NA,NA,NA,NA,NA,NA,NA,NA,NA,NA,NA,NA,NA,NA,NA,NA,NA,NA,NA
"4","stim/objects/HouseObjects/ashtray.png",200,65,200,0.5,"stim/11.jpeg",1,1,1,NA,"HouseObjects",1,2,"left","left",0.567000151,1,1,0,1,NA,NA,NA,NA,NA,NA,NA,NA,NA,NA,NA,NA,NA,NA,NA,NA,NA,NA,NA,NA,NA,NA,NA,NA
"179","stim/objects/Instruments/bassguitar2.png",201,65,201,0.9,"stim/52.jpeg",5,2,3,NA,"Instruments",2,4,"right","right",0.732000113,1,1,0,1,NA,NA,NA,NA,NA,NA,NA,NA,NA,NA,NA,NA,NA,NA,NA,NA,NA,NA,NA,NA,NA,NA,NA,NA
"105","stim/objects/HouseObjects/clothesdryingrack2.png",202,65,202,0.9,"stim/63.jpeg",6,3,3,NA,"HouseObjects",1,2,"left","left",0.710999966,1,1,0,1,NA,NA,NA,NA,NA,NA,NA,NA,NA,NA,NA,NA,NA,NA,NA,NA,NA,NA,NA,NA,NA,NA,NA,NA
"208","stim/objects/Instruments/chime2.png",203,65,203,0.9,"stim/54.jpeg",5,4,3,NA,"Instruments",2,2,"right","right",0.627000093,1,1,0,1,NA,NA,NA,NA,NA,NA,NA,NA,NA,NA,NA,NA,NA,NA,NA,NA,NA,NA,NA,NA,NA,NA,NA,NA
"35","stim/objects/HouseObjects/barbecuelighter2.png",204,65,204,0.7,"stim/43.jpeg",4,3,2,NA,"HouseObjects",1,4,"left","left",0.687000036,1,1,0,1,NA,NA,NA,NA,NA,NA,NA,NA,NA,NA,NA,NA,NA,NA,NA,NA,NA,NA,NA,NA,NA,NA,NA,NA
"5","stim/objects/HouseObjects/ashtray.png",205,65,205,0.5,"stim/11.jpeg",1,1,1,NA,"HouseObjects",1,2,"left","right",0.884000063,0,0,0,1,NA,NA,NA,NA,NA,NA,NA,NA,NA,NA,NA,NA,NA,NA,NA,NA,NA,NA,NA,NA,NA,NA,NA,NA
"70","stim/objects/HouseObjects/broom.png",206,65,206,0.5,"stim/24.jpeg",2,4,1,NA,"HouseObjects",1,3,"left","",NA,0,0,0,1,NA,NA,NA,NA,NA,NA,NA,NA,NA,NA,NA,NA,NA,NA,NA,NA,NA,NA,NA,NA,NA,NA,NA,NA
"192","stim/objects/Instruments/cello2.png",207,65,207,0.9,"stim/53.jpeg",5,3,3,NA,"Instruments",2,2,"right","right",0.663000107,1,1,0,1,NA,NA,NA,NA,NA,NA,NA,NA,NA,NA,NA,NA,NA,NA,NA,NA,NA,NA,NA,NA,NA,NA,NA,NA
"141","stim/objects/Instruments/balalaika.png",208,65,208,0.5,"stim/13.jpeg",1,3,1,NA,"Instruments",2,4,"right","left",0.561000109,0,0,0,1,NA,NA,NA,NA,NA,NA,NA,NA,NA,NA,NA,NA,NA,NA,NA,NA,NA,NA,NA,NA,NA,NA,NA,NA
"230","stim/objects/Instruments/cymbal.png",209,65,209,0.7,"stim/33.jpeg",3,3,2,NA,"Instruments",2,1,"right","right",0.680000067,1,1,0,1,NA,NA,NA,NA,NA,NA,NA,NA,NA,NA,NA,NA,NA,NA,NA,NA,NA,NA,NA,NA,NA,NA,NA,NA
"128","stim/objects/Instruments/accordion2.png",210,65,210,0.3,"stim/41.jpeg",4,1,2,NA,"Instruments",2,3,"right","",NA,0,0,0,1,NA,NA,NA,NA,NA,NA,NA,NA,NA,NA,NA,NA,NA,NA,NA,NA,NA,NA,NA,NA,NA,NA,NA,NA
"106","stim/objects/HouseObjects/clothesdryingrack2.png",211,65,211,0.9,"stim/63.jpeg",6,3,3,NA,"HouseObjects",1,2,"left","left",0.563000202,1,1,0,1,NA,NA,NA,NA,NA,NA,NA,NA,NA,NA,NA,NA,NA,NA,NA,NA,NA,NA,NA,NA,NA,NA,NA,NA
"120","stim/objects/HouseObjects/clothespin2.png",212,65,212,0.9,"stim/64.jpeg",6,4,3,NA,"HouseObjects",1,3,"left","left",0.702000141,1,1,0,1,NA,NA,NA,NA,NA,NA,NA,NA,NA,NA,NA,NA,NA,NA,NA,NA,NA,NA,NA,NA,NA,NA,NA,NA
"66","stim/objects/HouseObjects/bottle2.png",213,65,213,0.1,"stim/53.jpeg",5,3,3,NA,"HouseObjects",1,2,"left","",NA,0,0,0,1,NA,NA,NA,NA,NA,NA,NA,NA,NA,NA,NA,NA,NA,NA,NA,NA,NA,NA,NA,NA,NA,NA,NA,NA
"12","stim/objects/HouseObjects/ashtray2.png",214,65,214,0.7,"stim/41.jpeg",4,1,2,NA,"HouseObjects",1,2,"left","left",0.484000206,1,1,0,1,NA,NA,NA,NA,NA,NA,NA,NA,NA,NA,NA,NA,NA,NA,NA,NA,NA,NA,NA,NA,NA,NA,NA,NA
"237","stim/objects/Instruments/doublebass.png",215,65,215,0.7,"stim/34.jpeg",3,4,2,NA,"Instruments",2,4,"right","left",0.616000175,0,0,0,1,NA,NA,NA,NA,NA,NA,NA,NA,NA,NA,NA,NA,NA,NA,NA,NA,NA,NA,NA,NA,NA,NA,NA,NA
"36","stim/objects/HouseObjects/barbecuelighter2.png",216,65,216,0.7,"stim/43.jpeg",4,3,2,NA,"HouseObjects",1,2,"left","left",0.446000099,1,1,0,1,NA,NA,NA,NA,NA,NA,NA,NA,NA,NA,NA,NA,NA,NA,NA,NA,NA,NA,NA,NA,NA,NA,NA,NA
"48","stim/objects/HouseObjects/basket2.png",217,65,217,0.7,"stim/44.jpeg",4,4,2,NA,"HouseObjects",1,2,"left","",NA,0,0,0,1,NA,NA,NA,NA,NA,NA,NA,NA,NA,NA,NA,NA,NA,NA,NA,NA,NA,NA,NA,NA,NA,NA,NA,NA
"193","stim/objects/Instruments/cello2.png",218,65,218,0.9,"stim/53.jpeg",5,3,3,NA,"Instruments",2,1,"right","right",0.570000172,1,1,0,1,NA,NA,NA,NA,NA,NA,NA,NA,NA,NA,NA,NA,NA,NA,NA,NA,NA,NA,NA,NA,NA,NA,NA,NA
"71","stim/objects/HouseObjects/broom.png",219,65,219,0.5,"stim/24.jpeg",2,4,1,NA,"HouseObjects",1,4,"left","left",0.512000084,1,1,0,1,NA,NA,NA,NA,NA,NA,NA,NA,NA,NA,NA,NA,NA,NA,NA,NA,NA,NA,NA,NA,NA,NA,NA,NA
"64","stim/objects/HouseObjects/bottle.png",220,65,220,0.5,"stim/23.jpeg",2,3,1,NA,"HouseObjects",1,2,"left","right",0.863000154,0,0,0,1,NA,NA,NA,NA,NA,NA,NA,NA,NA,NA,NA,NA,NA,NA,NA,NA,NA,NA,NA,NA,NA,NA,NA,NA
"157","stim/objects/Instruments/bassdrum.png",221,65,221,0.5,"stim/21.jpeg",2,1,1,NA,"Instruments",2,2,"right","",NA,0,0,0,1,NA,NA,NA,NA,NA,NA,NA,NA,NA,NA,NA,NA,NA,NA,NA,NA,NA,NA,NA,NA,NA,NA,NA,NA
"238","stim/objects/Instruments/doublebass.png",222,65,222,0.7,"stim/34.jpeg",3,4,2,NA,"Instruments",2,3,"right","left",0.666000128,0,0,0,1,NA,NA,NA,NA,NA,NA,NA,NA,NA,NA,NA,NA,NA,NA,NA,NA,NA,NA,NA,NA,NA,NA,NA,NA
"231","stim/objects/Instruments/cymbal.png",223,65,223,0.7,"stim/33.jpeg",3,3,2,NA,"Instruments",2,1,"right","right",0.544000149,1,1,0,1,NA,NA,NA,NA,NA,NA,NA,NA,NA,NA,NA,NA,NA,NA,NA,NA,NA,NA,NA,NA,NA,NA,NA,NA
"29","stim/objects/HouseObjects/barbecuelighter.png",224,65,224,0.5,"stim/13.jpeg",1,3,1,NA,"HouseObjects",1,1,"left","right",0.684000015,0,0,0,1,NA,NA,NA,NA,NA,NA,NA,NA,NA,NA,NA,NA,NA,NA,NA,NA,NA,NA,NA,NA,NA,NA,NA,NA
"199","stim/objects/Instruments/chime.png",225,65,225,0.5,"stim/24.jpeg",2,4,1,NA,"Instruments",2,3,"right","left",0.667000294,0,0,0,1,NA,NA,NA,NA,NA,NA,NA,NA,NA,NA,NA,NA,NA,NA,NA,NA,NA,NA,NA,NA,NA,NA,NA,NA
"180","stim/objects/Instruments/bassguitar2.png",226,65,226,0.9,"stim/52.jpeg",5,2,3,NA,"Instruments",2,3,"right","right",0.613000154,1,1,0,1,NA,NA,NA,NA,NA,NA,NA,NA,NA,NA,NA,NA,NA,NA,NA,NA,NA,NA,NA,NA,NA,NA,NA,NA
"65","stim/objects/HouseObjects/bottle.png",227,65,227,0.5,"stim/23.jpeg",2,3,1,NA,"HouseObjects",1,1,"left","right",0.781000137,0,0,0,1,NA,NA,NA,NA,NA,NA,NA,NA,NA,NA,NA,NA,NA,NA,NA,NA,NA,NA,NA,NA,NA,NA,NA,NA
"107","stim/objects/HouseObjects/clothesdryingrack2.png",228,65,228,0.9,"stim/63.jpeg",6,3,3,NA,"HouseObjects",1,2,"left","left",0.580000162,1,1,0,1,NA,NA,NA,NA,NA,NA,NA,NA,NA,NA,NA,NA,NA,NA,NA,NA,NA,NA,NA,NA,NA,NA,NA,NA
"185","stim/objects/Instruments/cello.png",229,65,229,0.5,"stim/23.jpeg",2,3,1,NA,"Instruments",2,3,"right","left",0.697000265,0,0,0,1,NA,NA,NA,NA,NA,NA,NA,NA,NA,NA,NA,NA,NA,NA,NA,NA,NA,NA,NA,NA,NA,NA,NA,NA
"171","stim/objects/Instruments/bassguitar.png",230,65,230,0.5,"stim/22.jpeg",2,2,1,NA,"Instruments",2,1,"right","left",0.828999996,0,0,0,1,NA,NA,NA,NA,NA,NA,NA,NA,NA,NA,NA,NA,NA,NA,NA,NA,NA,NA,NA,NA,NA,NA,NA,NA
"136","stim/objects/Instruments/acousticguitar2.png",231,65,231,0.3,"stim/42.jpeg",4,2,2,NA,"Instruments",2,2,"right","left",0.676000357,0,0,0,1,NA,NA,NA,NA,NA,NA,NA,NA,NA,NA,NA,NA,NA,NA,NA,NA,NA,NA,NA,NA,NA,NA,NA,NA
"24","stim/objects/HouseObjects/ballofstring2.png",232,65,232,0.7,"stim/42.jpeg",4,2,2,NA,"HouseObjects",1,4,"left","",NA,0,0,0,1,NA,NA,NA,NA,NA,NA,NA,NA,NA,NA,NA,NA,NA,NA,NA,NA,NA,NA,NA,NA,NA,NA,NA,NA
"84","stim/objects/HouseObjects/bucket2.png",233,65,233,0.9,"stim/61.jpeg",6,1,3,NA,"HouseObjects",1,1,"left","left",0.713000298,1,1,0,1,NA,NA,NA,NA,NA,NA,NA,NA,NA,NA,NA,NA,NA,NA,NA,NA,NA,NA,NA,NA,NA,NA,NA,NA
"108","stim/objects/HouseObjects/clothesdryingrack2.png",234,65,234,0.9,"stim/63.jpeg",6,3,3,NA,"HouseObjects",1,1,"left","right",0.528000116,0,0,0,1,NA,NA,NA,NA,NA,NA,NA,NA,NA,NA,NA,NA,NA,NA,NA,NA,NA,NA,NA,NA,NA,NA,NA,NA
"133","stim/objects/Instruments/acousticguitar.png",235,65,235,0.5,"stim/12.jpeg",1,2,1,NA,"Instruments",2,4,"right","right",0.69900012,1,1,0,1,NA,NA,NA,NA,NA,NA,NA,NA,NA,NA,NA,NA,NA,NA,NA,NA,NA,NA,NA,NA,NA,NA,NA,NA
"59","stim/objects/HouseObjects/blender.png",236,65,236,0.5,"stim/22.jpeg",2,2,1,NA,"HouseObjects",1,2,"left","",NA,0,0,0,1,NA,NA,NA,NA,NA,NA,NA,NA,NA,NA,NA,NA,NA,NA,NA,NA,NA,NA,NA,NA,NA,NA,NA,NA
"215","stim/objects/Instruments/clarinet.png",237,65,237,0.7,"stim/31.jpeg",3,1,2,NA,"Instruments",2,4,"right","right",0.563000202,1,1,0,1,NA,NA,NA,NA,NA,NA,NA,NA,NA,NA,NA,NA,NA,NA,NA,NA,NA,NA,NA,NA,NA,NA,NA,NA
"194","stim/objects/Instruments/cello2.png",238,65,238,0.9,"stim/53.jpeg",5,3,3,NA,"Instruments",2,4,"right","right",0.614000082,1,1,0,1,NA,NA,NA,NA,NA,NA,NA,NA,NA,NA,NA,NA,NA,NA,NA,NA,NA,NA,NA,NA,NA,NA,NA,NA
"41","stim/objects/HouseObjects/basket.png",239,65,239,0.5,"stim/14.jpeg",1,4,1,NA,"HouseObjects",1,3,"left","left",0.497000217,1,1,0,1,NA,NA,NA,NA,NA,NA,NA,NA,NA,NA,NA,NA,NA,NA,NA,NA,NA,NA,NA,NA,NA,NA,NA,NA
"239","stim/objects/Instruments/doublebass.png",240,65,240,0.7,"stim/34.jpeg",3,4,2,NA,"Instruments",2,4,"right","left",0.649000168,0,0,0,1,NA,NA,NA,NA,NA,NA,NA,NA,NA,NA,NA,NA,NA,NA,NA,NA,NA,NA,NA,NA,NA,NA,NA,NA
"546","stim/objects/Instruments/record_player2.png",248,65,241,0.9,"stim/53.jpeg",5,3,3,1,"Instruments",2,2,"right","",NA,0,0,1,0,148,65,1,0.9,2,"stim/53.jpeg",5,3,"stim/53.jpeg",2,"right",0.785999775,3,4,1.70299983,4,2.419999838,148,0,0,NA,0,NA,0
"423","stim/objects/Instruments/frenchhorn2.png",249,65,242,0.3,"stim/42.jpeg",4,2,2,1,"Instruments",2,1,"right","left",0.634000063,0,0,1,0,26,65,1,0.3,2,"stim/42.jpeg",4,2,"stim/42.jpeg",1,"right",3.250999928,2,2,2.628999949,3,1.73300004,26,0,1,NA,0,NA,0
"343","stim/objects/HouseObjects/pan.png",250,65,243,0.9,"stim/62.jpeg",6,2,3,2,"HouseObjects",1,4,"left","right",0.461000204,0,0,1,0,NA,NA,NA,NA,NA,NA,NA,NA,NA,NA,NA,NA,NA,NA,NA,NA,NA,NA,NA,NA,NA,NA,NA,NA
"426","stim/objects/Instruments/gong2.png",251,65,244,0.3,"stim/43.jpeg",4,3,2,1,"Instruments",2,4,"right","right",0.677999973,1,1,1,0,124,65,1,0.3,2,"stim/43.jpeg",4,3,"stim/43.jpeg",4,"right",1.018999815,2,2,0.720000029,1,2.274999857,124,0,0,NA,0,NA,0
"432","stim/objects/Instruments/guitarcase2.png",252,65,245,0.3,"stim/41.jpeg",4,1,2,1,"Instruments",2,4,"right","left",0.763000011,0,0,1,0,114,65,1,0.3,2,"stim/41.jpeg",4,1,"stim/41.jpeg",4,"right",0.563999891,1,1,1.051999807,3,1.318000078,114,0,1,NA,0,NA,0
"560","stim/objects/Instruments/trombone2.png",253,65,246,0.1,"stim/63.jpeg",6,3,3,1,"Instruments",2,4,"right","left",0.483000278,0,0,1,0,184,65,1,0.1,2,"stim/63.jpeg",6,3,"stim/63.jpeg",4,"left",1.15899992,3,3,1.63499999,2,1.391000032,184,1,1,1,0,0,0
"345","stim/objects/HouseObjects/pan.png",254,65,247,0.9,"stim/61.jpeg",6,1,3,2,"HouseObjects",1,1,"left","left",0.451000214,1,1,1,0,NA,NA,NA,NA,NA,NA,NA,NA,NA,NA,NA,NA,NA,NA,NA,NA,NA,NA,NA,NA,NA,NA,NA,NA
"420","stim/objects/Instruments/flutetrans2.png",255,65,248,0.7,"stim/33.jpeg",3,3,2,1,"Instruments",2,1,"right","right",0.664000273,1,1,1,0,19,65,1,0.7,2,"stim/33.jpeg",3,3,"stim/33.jpeg",1,"left",1.475999832,3,1,3.026000023,1,0.986999989,19,1,0,0,1,1,0
"308","stim/objects/HouseObjects/lintroller.png",256,65,249,0.9,"stim/61.jpeg",6,1,3,2,"HouseObjects",1,1,"left","left",0.445000172,1,1,1,0,NA,NA,NA,NA,NA,NA,NA,NA,NA,NA,NA,NA,NA,NA,NA,NA,NA,NA,NA,NA,NA,NA,NA,NA
"548","stim/objects/Instruments/record2.png",257,65,250,0.9,"stim/52.jpeg",5,2,3,1,"Instruments",2,2,"right","right",0.664000273,1,1,1,0,171,65,1,0.9,2,"stim/52.jpeg",5,2,"stim/52.jpeg",2,"right",0.717000008,3,1,1.044000149,1,0.638000011,171,0,0,NA,0,NA,0
"490","stim/objects/Instruments/musicsheet.png",258,65,251,0.9,"stim/52.jpeg",5,2,3,2,"Instruments",2,4,"right","right",0.512000084,1,1,1,0,NA,NA,NA,NA,NA,NA,NA,NA,NA,NA,NA,NA,NA,NA,NA,NA,NA,NA,NA,NA,NA,NA,NA,NA
"524","stim/objects/Instruments/oboe.png",259,65,252,0.9,"stim/51.jpeg",5,1,3,2,"Instruments",2,1,"right","left",0.366000175,0,0,1,0,NA,NA,NA,NA,NA,NA,NA,NA,NA,NA,NA,NA,NA,NA,NA,NA,NA,NA,NA,NA,NA,NA,NA,NA
"359","stim/objects/HouseObjects/pitcher.png",260,65,253,0.9,"stim/63.jpeg",6,3,3,2,"HouseObjects",1,4,"left","left",0.660000324,1,1,1,0,NA,NA,NA,NA,NA,NA,NA,NA,NA,NA,NA,NA,NA,NA,NA,NA,NA,NA,NA,NA,NA,NA,NA,NA
"395","stim/objects/HouseObjects/teapot2.png",261,65,254,0.9,"stim/61.jpeg",6,1,3,1,"HouseObjects",1,1,"left","left",0.581000328,1,1,1,0,135,65,1,0.9,1,"stim/61.jpeg",6,1,"stim/61.jpeg",1,"right",1.103999853,2,1,40.68099976,1,1.503999949,135,0,1,NA,1,NA,0
"424","stim/objects/Instruments/gong.png",262,65,255,0.5,"stim/23.jpeg",2,3,1,2,"Instruments",2,2,"right","right",0.748000145,1,1,1,0,NA,NA,NA,NA,NA,NA,NA,NA,NA,NA,NA,NA,NA,NA,NA,NA,NA,NA,NA,NA,NA,NA,NA,NA
"247","stim/objects/HouseObjects/dishsoap.png",263,65,256,0.5,"stim/14.jpeg",1,4,1,2,"HouseObjects",1,1,"left","right",0.794000149,0,0,1,0,NA,NA,NA,NA,NA,NA,NA,NA,NA,NA,NA,NA,NA,NA,NA,NA,NA,NA,NA,NA,NA,NA,NA,NA
"291","stim/objects/HouseObjects/knife.png",264,65,257,0.9,"stim/64.jpeg",6,4,3,2,"HouseObjects",1,4,"left","left",0.514000177,1,1,1,0,NA,NA,NA,NA,NA,NA,NA,NA,NA,NA,NA,NA,NA,NA,NA,NA,NA,NA,NA,NA,NA,NA,NA,NA
"360","stim/objects/HouseObjects/pitcher.png",265,65,258,0.9,"stim/64.jpeg",6,4,3,2,"HouseObjects",1,3,"left","left",0.444000006,1,1,1,0,NA,NA,NA,NA,NA,NA,NA,NA,NA,NA,NA,NA,NA,NA,NA,NA,NA,NA,NA,NA,NA,NA,NA,NA
"265","stim/objects/HouseObjects/glassmop.png",266,65,259,0.5,"stim/22.jpeg",2,2,1,2,"HouseObjects",1,1,"left","right",0.685000181,0,0,1,0,NA,NA,NA,NA,NA,NA,NA,NA,NA,NA,NA,NA,NA,NA,NA,NA,NA,NA,NA,NA,NA,NA,NA,NA
"456","stim/objects/Instruments/marimba.png",267,65,260,0.9,"stim/52.jpeg",5,2,3,2,"Instruments",2,3,"right","left",0.479000092,0,0,1,0,NA,NA,NA,NA,NA,NA,NA,NA,NA,NA,NA,NA,NA,NA,NA,NA,NA,NA,NA,NA,NA,NA,NA,NA
"326","stim/objects/HouseObjects/match.png",268,65,261,0.9,"stim/64.jpeg",6,4,3,2,"HouseObjects",1,3,"left","left",0.555000305,1,1,1,0,NA,NA,NA,NA,NA,NA,NA,NA,NA,NA,NA,NA,NA,NA,NA,NA,NA,NA,NA,NA,NA,NA,NA,NA
"429","stim/objects/Instruments/grandpiano2.png",269,65,262,0.3,"stim/44.jpeg",4,4,2,1,"Instruments",2,4,"right","right",0.620000124,1,1,1,0,18,65,1,0.3,2,"stim/44.jpeg",4,4,"stim/44.jpeg",4,"left",0.91899991,3,4,4.537999868,1,2.234999895,18,1,1,1,0,0,0
"394","stim/objects/HouseObjects/teapot.png",270,65,263,0.5,"stim/21.jpeg",2,1,1,1,"HouseObjects",1,4,"left","right",0.811000109,0,0,1,0,91,65,1,0.5,2,"stim/21.jpeg",2,1,"stim/21.jpeg",4,"right",0.778000116,2,4,3.338999987,3,1.335999966,91,0,0,NA,0,NA,0
"508","stim/objects/Instruments/musicstand.png",271,65,264,0.9,"stim/54.jpeg",5,4,3,2,"Instruments",2,4,"right","right",0.529000282,1,1,1,0,NA,NA,NA,NA,NA,NA,NA,NA,NA,NA,NA,NA,NA,NA,NA,NA,NA,NA,NA,NA,NA,NA,NA,NA
"292","stim/objects/HouseObjects/knife.png",272,65,265,0.9,"stim/63.jpeg",6,3,3,2,"HouseObjects",1,4,"left","left",0.527000189,1,1,1,0,NA,NA,NA,NA,NA,NA,NA,NA,NA,NA,NA,NA,NA,NA,NA,NA,NA,NA,NA,NA,NA,NA,NA,NA
"564","stim/objects/Instruments/tuba2.png",273,65,266,0.1,"stim/61.jpeg",6,1,3,1,"Instruments",2,2,"right","left",0.493999958,0,0,1,0,85,65,1,0.1,2,"stim/61.jpeg",6,1,"stim/61.jpeg",2,"right",0.998999834,3,3,1.088000059,2,1.118999958,85,0,0,NA,1,NA,0
"474","stim/objects/Instruments/metronome.png",274,65,267,0.9,"stim/53.jpeg",5,3,3,2,"Instruments",2,2,"right","left",0.527000189,0,0,1,0,NA,NA,NA,NA,NA,NA,NA,NA,NA,NA,NA,NA,NA,NA,NA,NA,NA,NA,NA,NA,NA,NA,NA,NA
"310","stim/objects/HouseObjects/lintroller.png",275,65,268,0.9,"stim/64.jpeg",6,4,3,2,"HouseObjects",1,3,"left","left",0.575000286,1,1,1,0,NA,NA,NA,NA,NA,NA,NA,NA,NA,NA,NA,NA,NA,NA,NA,NA,NA,NA,NA,NA,NA,NA,NA,NA
"566","stim/objects/Instruments/violin2.png",276,65,269,0.1,"stim/62.jpeg",6,2,3,1,"Instruments",2,4,"right","left",0.58700037,0,0,1,0,69,65,1,0.1,2,"stim/62.jpeg",6,2,"stim/62.jpeg",4,"left",0.539000034,4,3,1.82799983,2,1.201999903,69,1,0,0,0,0,0
"328","stim/objects/HouseObjects/match.png",277,65,270,0.9,"stim/63.jpeg",6,3,3,2,"HouseObjects",1,1,"left","left",0.649000168,1,1,1,0,NA,NA,NA,NA,NA,NA,NA,NA,NA,NA,NA,NA,NA,NA,NA,NA,NA,NA,NA,NA,NA,NA,NA,NA
"555","stim/objects/Instruments/timbal.png",278,65,271,0.5,"stim/22.jpeg",2,2,1,1,"Instruments",2,2,"right","right",0.828999996,1,1,1,0,29,65,1,0.5,2,"stim/22.jpeg",2,2,"stim/22.jpeg",2,"right",2.822000027,1,3,3.859999895,4,1.296999931,29,0,0,NA,0,NA,0
"472","stim/objects/Instruments/marimba2.png",279,65,272,0.9,"stim/53.jpeg",5,3,3,1,"Instruments",2,1,"right","right",0.61400032,1,1,1,0,189,65,1,0.9,2,"stim/53.jpeg",5,3,"stim/53.jpeg",1,"left",0.856999874,3,3,1.325999975,4,1.327000141,189,1,1,1,0,0,0
"492","stim/objects/Instruments/musicsheet.png",280,65,273,0.9,"stim/53.jpeg",5,3,3,2,"Instruments",2,1,"right","right",0.732000351,1,1,1,0,NA,NA,NA,NA,NA,NA,NA,NA,NA,NA,NA,NA,NA,NA,NA,NA,NA,NA,NA,NA,NA,NA,NA,NA
"311","stim/objects/HouseObjects/lintroller.png",281,65,274,0.9,"stim/63.jpeg",6,3,3,2,"HouseObjects",1,1,"left","right",0.862000227,0,0,1,0,NA,NA,NA,NA,NA,NA,NA,NA,NA,NA,NA,NA,NA,NA,NA,NA,NA,NA,NA,NA,NA,NA,NA,NA
"387","stim/objects/HouseObjects/saw2.png",282,65,275,0.9,"stim/61.jpeg",6,1,3,1,"HouseObjects",1,1,"left","left",0.54700017,1,1,1,0,152,65,1,0.9,1,"stim/61.jpeg",6,1,"stim/61.jpeg",1,"left",1.342000008,2,4,2.588999987,3,1.247999907,152,1,0,0,0,0,0
"329","stim/objects/HouseObjects/match.png",283,65,276,0.9,"stim/62.jpeg",6,2,3,2,"HouseObjects",1,3,"left","left",0.595000029,1,1,1,0,NA,NA,NA,NA,NA,NA,NA,NA,NA,NA,NA,NA,NA,NA,NA,NA,NA,NA,NA,NA,NA,NA,NA,NA
"447","stim/objects/Instruments/keyboard2.png",284,65,277,0.3,"stim/41.jpeg",4,1,2,1,"Instruments",2,4,"right","left",0.680000305,0,0,1,0,156,65,1,0.3,2,"stim/41.jpeg",4,1,"stim/41.jpeg",4,"left",1.070999861,3,1,1.139999866,1,1.519000053,156,1,1,1,0,0,0
"419","stim/objects/Instruments/flutetrans.png",285,65,278,0.5,"stim/11.jpeg",1,1,1,2,"Instruments",2,3,"right","left",0.811000109,0,0,1,0,NA,NA,NA,NA,NA,NA,NA,NA,NA,NA,NA,NA,NA,NA,NA,NA,NA,NA,NA,NA,NA,NA,NA,NA
"475","stim/objects/Instruments/metronome.png",286,65,279,0.9,"stim/51.jpeg",5,1,3,2,"Instruments",2,4,"right","right",0.600000143,1,1,1,0,NA,NA,NA,NA,NA,NA,NA,NA,NA,NA,NA,NA,NA,NA,NA,NA,NA,NA,NA,NA,NA,NA,NA,NA
"341","stim/objects/HouseObjects/match2.png",287,65,280,0.1,"stim/53.jpeg",5,3,3,1,"HouseObjects",1,3,"left","right",0.617000103,0,0,1,0,137,65,1,0.1,1,"stim/53.jpeg",5,3,"stim/53.jpeg",3,"right",1.431999922,2,1,2.328000069,4,4.256999969,137,0,0,NA,0,NA,0
"561","stim/objects/Instruments/trumpet.png",288,65,281,0.7,"stim/32.jpeg",3,2,2,1,"Instruments",2,2,"right","right",0.736000061,1,1,1,0,136,65,1,0.7,2,"stim/32.jpeg",3,2,"stim/32.jpeg",2,"left",0.862999916,4,1,1.255999804,1,0.325000048,136,1,0,0,0,0,0
"540","stim/objects/Instruments/oboe2.png",289,65,282,0.9,"stim/53.jpeg",5,3,3,1,"Instruments",2,4,"right","right",0.516000271,1,1,1,0,157,65,1,0.9,2,"stim/53.jpeg",5,3,"stim/53.jpeg",4,"left",0.764999866,3,4,1.088000059,2,1.669999838,157,1,0,0,0,0,0
"493","stim/objects/Instruments/musicsheet.png",290,65,283,0.9,"stim/53.jpeg",5,3,3,2,"Instruments",2,1,"right","right",0.761000156,1,1,1,0,NA,NA,NA,NA,NA,NA,NA,NA,NA,NA,NA,NA,NA,NA,NA,NA,NA,NA,NA,NA,NA,NA,NA,NA
"262","stim/objects/HouseObjects/glass.png",291,65,284,0.5,"stim/22.jpeg",2,2,1,2,"HouseObjects",1,4,"left","",NA,0,0,1,0,NA,NA,NA,NA,NA,NA,NA,NA,NA,NA,NA,NA,NA,NA,NA,NA,NA,NA,NA,NA,NA,NA,NA,NA
"293","stim/objects/HouseObjects/knife.png",292,65,285,0.9,"stim/63.jpeg",6,3,3,2,"HouseObjects",1,1,"left","left",0.745000124,1,1,1,0,NA,NA,NA,NA,NA,NA,NA,NA,NA,NA,NA,NA,NA,NA,NA,NA,NA,NA,NA,NA,NA,NA,NA,NA
"248","stim/objects/HouseObjects/dishsoap.png",293,65,286,0.5,"stim/13.jpeg",1,3,1,2,"HouseObjects",1,4,"left","right",0.750000238,0,0,1,0,NA,NA,NA,NA,NA,NA,NA,NA,NA,NA,NA,NA,NA,NA,NA,NA,NA,NA,NA,NA,NA,NA,NA,NA
"457","stim/objects/Instruments/marimba.png",294,65,287,0.9,"stim/52.jpeg",5,2,3,2,"Instruments",2,2,"right","left",0.762000084,0,0,1,0,NA,NA,NA,NA,NA,NA,NA,NA,NA,NA,NA,NA,NA,NA,NA,NA,NA,NA,NA,NA,NA,NA,NA,NA
"377","stim/objects/HouseObjects/recyclingbin2.png",295,65,288,0.1,"stim/52.jpeg",5,2,3,1,"HouseObjects",1,3,"left","left",0.810000181,1,1,1,0,175,65,1,0.1,1,"stim/52.jpeg",5,2,"stim/52.jpeg",3,"right",0.693000078,1,4,1.403999805,3,1.768999815,175,0,0,NA,1,NA,0
"347","stim/objects/HouseObjects/pan.png",296,65,289,0.9,"stim/63.jpeg",6,3,3,2,"HouseObjects",1,1,"left","right",0.462000132,0,0,1,0,NA,NA,NA,NA,NA,NA,NA,NA,NA,NA,NA,NA,NA,NA,NA,NA,NA,NA,NA,NA,NA,NA,NA,NA
"421","stim/objects/Instruments/frenchhorn.png",297,65,290,0.5,"stim/23.jpeg",2,3,1,2,"Instruments",2,4,"right","",NA,0,0,1,0,NA,NA,NA,NA,NA,NA,NA,NA,NA,NA,NA,NA,NA,NA,NA,NA,NA,NA,NA,NA,NA,NA,NA,NA
"494","stim/objects/Instruments/musicsheet.png",298,65,291,0.9,"stim/51.jpeg",5,1,3,2,"Instruments",2,4,"right","right",0.549000025,1,1,1,0,NA,NA,NA,NA,NA,NA,NA,NA,NA,NA,NA,NA,NA,NA,NA,NA,NA,NA,NA,NA,NA,NA,NA,NA
"270","stim/objects/HouseObjects/hairdryer2.png",299,65,292,0.7,"stim/44.jpeg",4,4,2,1,"HouseObjects",1,3,"left","left",0.603000164,1,1,1,0,50,65,1,0.7,1,"stim/44.jpeg",4,4,"stim/44.jpeg",3,"left",1.124000072,3,1,2.357999802,4,1.674999952,50,1,0,0,0,0,0
"403","stim/objects/HouseObjects/vacuumcleaner2.png",300,65,293,0.9,"stim/61.jpeg",6,1,3,1,"HouseObjects",1,1,"left","left",0.634000301,1,1,1,0,73,65,1,0.9,1,"stim/61.jpeg",6,1,"stim/61.jpeg",1,"right",2.117999792,2,1,0.72300005,2,0.587999821,73,0,1,NA,0,NA,0
"525","stim/objects/Instruments/oboe.png",301,65,294,0.9,"stim/51.jpeg",5,1,3,2,"Instruments",2,3,"right","",NA,0,0,1,0,NA,NA,NA,NA,NA,NA,NA,NA,NA,NA,NA,NA,NA,NA,NA,NA,NA,NA,NA,NA,NA,NA,NA,NA
"250","stim/objects/HouseObjects/doormat.png",302,65,295,0.5,"stim/11.jpeg",1,1,1,2,"HouseObjects",1,1,"left","right",0.618999958,0,0,1,0,NA,NA,NA,NA,NA,NA,NA,NA,NA,NA,NA,NA,NA,NA,NA,NA,NA,NA,NA,NA,NA,NA,NA,NA
"268","stim/objects/HouseObjects/hairdryer.png",303,65,296,0.5,"stim/23.jpeg",2,3,1,2,"HouseObjects",1,4,"left","left",0.634000063,1,1,1,0,NA,NA,NA,NA,NA,NA,NA,NA,NA,NA,NA,NA,NA,NA,NA,NA,NA,NA,NA,NA,NA,NA,NA,NA
"348","stim/objects/HouseObjects/pan.png",304,65,297,0.9,"stim/64.jpeg",6,4,3,2,"HouseObjects",1,1,"left","left",0.663000345,1,1,1,0,NA,NA,NA,NA,NA,NA,NA,NA,NA,NA,NA,NA,NA,NA,NA,NA,NA,NA,NA,NA,NA,NA,NA,NA
"511","stim/objects/Instruments/musicstand.png",305,65,298,0.9,"stim/54.jpeg",5,4,3,2,"Instruments",2,3,"right","right",0.598999977,1,1,1,0,NA,NA,NA,NA,NA,NA,NA,NA,NA,NA,NA,NA,NA,NA,NA,NA,NA,NA,NA,NA,NA,NA,NA,NA
"435","stim/objects/Instruments/harmonica2.png",306,65,299,0.3,"stim/42.jpeg",4,2,2,1,"Instruments",2,2,"right","left",0.746999979,0,0,1,0,47,65,1,0.3,2,"stim/42.jpeg",4,2,"stim/42.jpeg",2,"right",0.792999744,2,2,2.348999977,4,1.299999952,47,0,1,NA,0,NA,0
"363","stim/objects/HouseObjects/pitcher.png",307,65,300,0.9,"stim/64.jpeg",6,4,3,2,"HouseObjects",1,4,"left","left",0.709000111,1,1,1,0,NA,NA,NA,NA,NA,NA,NA,NA,NA,NA,NA,NA,NA,NA,NA,NA,NA,NA,NA,NA,NA,NA,NA,NA
"452","stim/objects/Instruments/maraca.png",308,65,301,0.7,"stim/34.jpeg",3,4,2,2,"Instruments",2,2,"right","right",0.588000059,1,1,1,0,NA,NA,NA,NA,NA,NA,NA,NA,NA,NA,NA,NA,NA,NA,NA,NA,NA,NA,NA,NA,NA,NA,NA,NA
"507","stim/objects/Instruments/musicstand.png",309,65,302,0.9,"stim/51.jpeg",5,1,3,2,"Instruments",2,4,"right","right",0.713999987,1,1,1,0,NA,NA,NA,NA,NA,NA,NA,NA,NA,NA,NA,NA,NA,NA,NA,NA,NA,NA,NA,NA,NA,NA,NA,NA
"453","stim/objects/Instruments/maraca.png",310,65,303,0.7,"stim/31.jpeg",3,1,2,2,"Instruments",2,1,"right","left",0.698000193,0,0,1,0,NA,NA,NA,NA,NA,NA,NA,NA,NA,NA,NA,NA,NA,NA,NA,NA,NA,NA,NA,NA,NA,NA,NA,NA
"443","stim/objects/Instruments/hihat2.png",311,65,304,0.3,"stim/44.jpeg",4,4,2,1,"Instruments",2,2,"right","right",0.749000072,1,1,1,0,161,65,1,0.3,2,"stim/44.jpeg",4,4,"stim/44.jpeg",2,"right",0.876999855,3,3,1.936999798,1,3.127000093,161,0,0,NA,0,NA,0
"294","stim/objects/HouseObjects/knife.png",312,65,305,0.9,"stim/63.jpeg",6,3,3,2,"HouseObjects",1,1,"left","left",0.643000126,1,1,1,0,NA,NA,NA,NA,NA,NA,NA,NA,NA,NA,NA,NA,NA,NA,NA,NA,NA,NA,NA,NA,NA,NA,NA,NA
"274","stim/objects/HouseObjects/handbrush2.png",313,65,306,0.7,"stim/41.jpeg",4,1,2,1,"HouseObjects",1,1,"left","right",0.629000187,0,0,1,0,97,65,1,0.7,1,"stim/41.jpeg",4,1,"stim/41.jpeg",1,"right",0.599999905,1,1,2.369999886,2,0.792999744,97,0,1,NA,0,NA,0
"563","stim/objects/Instruments/tuba.png",314,65,307,0.7,"stim/33.jpeg",3,3,2,1,"Instruments",2,4,"right","left",0.54700017,0,0,1,0,2,65,1,0.7,2,"stim/33.jpeg",3,3,"stim/33.jpeg",4,"left",1.803999901,3,1,2.792999744,4,1.812999725,2,1,0,0,1,1,0
"288","stim/objects/HouseObjects/key.png",315,65,308,0.7,"stim/43.jpeg",4,3,2,2,"HouseObjects",1,3,"left","left",0.777000189,1,1,1,0,NA,NA,NA,NA,NA,NA,NA,NA,NA,NA,NA,NA,NA,NA,NA,NA,NA,NA,NA,NA,NA,NA,NA,NA
"495","stim/objects/Instruments/musicsheet.png",316,65,309,0.9,"stim/52.jpeg",5,2,3,2,"Instruments",2,2,"right","right",0.762000322,1,1,1,0,NA,NA,NA,NA,NA,NA,NA,NA,NA,NA,NA,NA,NA,NA,NA,NA,NA,NA,NA,NA,NA,NA,NA,NA
"407","stim/objects/Instruments/drums.png",317,65,310,0.5,"stim/11.jpeg",1,1,1,2,"Instruments",2,3,"right","",NA,0,0,1,0,NA,NA,NA,NA,NA,NA,NA,NA,NA,NA,NA,NA,NA,NA,NA,NA,NA,NA,NA,NA,NA,NA,NA,NA
"437","stim/objects/Instruments/harp.png",318,65,311,0.7,"stim/34.jpeg",3,4,2,2,"Instruments",2,2,"right","right",0.770000219,1,1,1,0,NA,NA,NA,NA,NA,NA,NA,NA,NA,NA,NA,NA,NA,NA,NA,NA,NA,NA,NA,NA,NA,NA,NA,NA
"527","stim/objects/Instruments/oboe.png",319,65,312,0.9,"stim/52.jpeg",5,2,3,2,"Instruments",2,4,"right","right",0.631000042,1,1,1,0,NA,NA,NA,NA,NA,NA,NA,NA,NA,NA,NA,NA,NA,NA,NA,NA,NA,NA,NA,NA,NA,NA,NA,NA
"512","stim/objects/Instruments/musicstand.png",320,65,313,0.9,"stim/52.jpeg",5,2,3,2,"Instruments",2,2,"right","right",0.610000134,1,1,1,0,NA,NA,NA,NA,NA,NA,NA,NA,NA,NA,NA,NA,NA,NA,NA,NA,NA,NA,NA,NA,NA,NA,NA,NA
"513","stim/objects/Instruments/musicstand.png",321,65,314,0.9,"stim/52.jpeg",5,2,3,2,"Instruments",2,3,"right","left",0.728000164,0,0,1,0,NA,NA,NA,NA,NA,NA,NA,NA,NA,NA,NA,NA,NA,NA,NA,NA,NA,NA,NA,NA,NA,NA,NA,NA
"514","stim/objects/Instruments/musicstand.png",322,65,315,0.9,"stim/54.jpeg",5,4,3,2,"Instruments",2,3,"right","right",0.695000172,1,1,1,0,NA,NA,NA,NA,NA,NA,NA,NA,NA,NA,NA,NA,NA,NA,NA,NA,NA,NA,NA,NA,NA,NA,NA,NA
"331","stim/objects/HouseObjects/match.png",323,65,316,0.9,"stim/61.jpeg",6,1,3,2,"HouseObjects",1,3,"left","right",0.433000326,0,0,1,0,NA,NA,NA,NA,NA,NA,NA,NA,NA,NA,NA,NA,NA,NA,NA,NA,NA,NA,NA,NA,NA,NA,NA,NA
"515","stim/objects/Instruments/musicstand.png",324,65,317,0.9,"stim/51.jpeg",5,1,3,2,"Instruments",2,3,"right","right",0.718000174,1,1,1,0,NA,NA,NA,NA,NA,NA,NA,NA,NA,NA,NA,NA,NA,NA,NA,NA,NA,NA,NA,NA,NA,NA,NA,NA
"496","stim/objects/Instruments/musicsheet.png",325,65,318,0.9,"stim/53.jpeg",5,3,3,2,"Instruments",2,3,"right","right",0.626000166,1,1,1,0,NA,NA,NA,NA,NA,NA,NA,NA,NA,NA,NA,NA,NA,NA,NA,NA,NA,NA,NA,NA,NA,NA,NA,NA
"295","stim/objects/HouseObjects/knife.png",326,65,319,0.9,"stim/64.jpeg",6,4,3,2,"HouseObjects",1,2,"left","left",0.494000196,1,1,1,0,NA,NA,NA,NA,NA,NA,NA,NA,NA,NA,NA,NA,NA,NA,NA,NA,NA,NA,NA,NA,NA,NA,NA,NA
"287","stim/objects/HouseObjects/key.png",327,65,320,0.7,"stim/42.jpeg",4,2,2,2,"HouseObjects",1,1,"left","",NA,0,0,1,0,NA,NA,NA,NA,NA,NA,NA,NA,NA,NA,NA,NA,NA,NA,NA,NA,NA,NA,NA,NA,NA,NA,NA,NA
"497","stim/objects/Instruments/musicsheet.png",328,65,321,0.9,"stim/51.jpeg",5,1,3,2,"Instruments",2,2,"right","right",0.651000023,1,1,1,0,NA,NA,NA,NA,NA,NA,NA,NA,NA,NA,NA,NA,NA,NA,NA,NA,NA,NA,NA,NA,NA,NA,NA,NA
"241","stim/objects/HouseObjects/coffee.png",329,65,322,0.5,"stim/11.jpeg",1,1,1,2,"HouseObjects",1,2,"left","right",0.615000248,0,0,1,0,NA,NA,NA,NA,NA,NA,NA,NA,NA,NA,NA,NA,NA,NA,NA,NA,NA,NA,NA,NA,NA,NA,NA,NA
"332","stim/objects/HouseObjects/match.png",330,65,323,0.9,"stim/64.jpeg",6,4,3,2,"HouseObjects",1,1,"left","right",0.548000097,0,0,1,0,NA,NA,NA,NA,NA,NA,NA,NA,NA,NA,NA,NA,NA,NA,NA,NA,NA,NA,NA,NA,NA,NA,NA,NA
"430","stim/objects/Instruments/guitarcase.png",331,65,324,0.5,"stim/21.jpeg",2,1,1,2,"Instruments",2,1,"right","left",0.680000305,0,0,1,0,NA,NA,NA,NA,NA,NA,NA,NA,NA,NA,NA,NA,NA,NA,NA,NA,NA,NA,NA,NA,NA,NA,NA,NA
"459","stim/objects/Instruments/marimba.png",332,65,325,0.9,"stim/52.jpeg",5,2,3,2,"Instruments",2,2,"right","left",0.463000059,0,0,1,0,NA,NA,NA,NA,NA,NA,NA,NA,NA,NA,NA,NA,NA,NA,NA,NA,NA,NA,NA,NA,NA,NA,NA,NA
"402","stim/objects/HouseObjects/vacuumcleaner.png",333,65,326,0.3,"stim/34.jpeg",3,4,2,1,"HouseObjects",1,3,"left","left",0.762000084,1,1,1,0,67,65,1,0.3,1,"stim/34.jpeg",3,4,"stim/34.jpeg",3,"left",1.290999889,2,4,1.224999905,3,0.557999849,67,1,1,1,1,1,0
"547","stim/objects/Instruments/record.png",334,65,327,0.5,"stim/14.jpeg",1,4,1,1,"Instruments",2,1,"right","right",0.59800005,1,1,1,0,90,65,1,0.5,1,"stim/14.jpeg",1,4,"stim/14.jpeg",1,"right",0.484999895,3,1,0.753000021,1,1.064999819,90,0,0,NA,1,NA,0
"333","stim/objects/HouseObjects/match.png",335,65,328,0.9,"stim/61.jpeg",6,1,3,2,"HouseObjects",1,4,"left","left",0.664000034,1,1,1,0,NA,NA,NA,NA,NA,NA,NA,NA,NA,NA,NA,NA,NA,NA,NA,NA,NA,NA,NA,NA,NA,NA,NA,NA
"528","stim/objects/Instruments/oboe.png",336,65,329,0.9,"stim/53.jpeg",5,3,3,2,"Instruments",2,4,"right","right",0.613000154,1,1,1,0,NA,NA,NA,NA,NA,NA,NA,NA,NA,NA,NA,NA,NA,NA,NA,NA,NA,NA,NA,NA,NA,NA,NA,NA
"460","stim/objects/Instruments/marimba.png",337,65,330,0.9,"stim/54.jpeg",5,4,3,2,"Instruments",2,3,"right","right",0.683000088,1,1,1,0,NA,NA,NA,NA,NA,NA,NA,NA,NA,NA,NA,NA,NA,NA,NA,NA,NA,NA,NA,NA,NA,NA,NA,NA
"263","stim/objects/HouseObjects/glass.png",338,65,331,0.5,"stim/21.jpeg",2,1,1,2,"HouseObjects",1,3,"left","left",0.664000034,1,1,1,0,NA,NA,NA,NA,NA,NA,NA,NA,NA,NA,NA,NA,NA,NA,NA,NA,NA,NA,NA,NA,NA,NA,NA,NA
"444","stim/objects/Instruments/keyboard.png",339,65,332,0.7,"stim/32.jpeg",3,2,2,2,"Instruments",2,3,"right","right",0.829000235,1,1,1,0,NA,NA,NA,NA,NA,NA,NA,NA,NA,NA,NA,NA,NA,NA,NA,NA,NA,NA,NA,NA,NA,NA,NA,NA
"349","stim/objects/HouseObjects/pan.png",340,65,333,0.9,"stim/64.jpeg",6,4,3,2,"HouseObjects",1,2,"left","left",0.582000017,1,1,1,0,NA,NA,NA,NA,NA,NA,NA,NA,NA,NA,NA,NA,NA,NA,NA,NA,NA,NA,NA,NA,NA,NA,NA,NA
"378","stim/objects/HouseObjects/remote.png",341,65,334,0.5,"stim/14.jpeg",1,4,1,1,"HouseObjects",1,1,"left","right",0.533000231,0,0,1,0,24,65,1,0.5,1,"stim/14.jpeg",1,4,"stim/14.jpeg",1,"right",1.322999954,2,1,7.039999962,2,30.3829999,24,0,0,NA,0,NA,0
"461","stim/objects/Instruments/marimba.png",342,65,335,0.9,"stim/53.jpeg",5,3,3,2,"Instruments",2,2,"right","right",0.659000158,1,1,1,0,NA,NA,NA,NA,NA,NA,NA,NA,NA,NA,NA,NA,NA,NA,NA,NA,NA,NA,NA,NA,NA,NA,NA,NA
"314","stim/objects/HouseObjects/lintroller.png",343,65,336,0.9,"stim/62.jpeg",6,2,3,2,"HouseObjects",1,2,"left","left",0.549000025,1,1,1,0,NA,NA,NA,NA,NA,NA,NA,NA,NA,NA,NA,NA,NA,NA,NA,NA,NA,NA,NA,NA,NA,NA,NA,NA
"382","stim/objects/HouseObjects/rug.png",344,65,337,0.5,"stim/12.jpeg",1,2,1,1,"HouseObjects",1,2,"left","right",0.506999969,0,0,1,0,183,65,1,0.5,1,"stim/12.jpeg",1,2,"stim/12.jpeg",2,"right",1.069999933,2,4,1.16899991,1,0.769999981,183,0,0,NA,0,NA,0
"399","stim/objects/HouseObjects/thread2.png",345,65,338,0.9,"stim/63.jpeg",6,3,3,1,"HouseObjects",1,3,"left","right",0.56400013,0,0,1,0,200,65,1,0.9,1,"stim/63.jpeg",6,3,"stim/63.jpeg",3,"right",1.26699996,3,1,1.039999962,4,1.319999933,200,0,0,NA,0,NA,0
"462","stim/objects/Instruments/marimba.png",346,65,339,0.9,"stim/51.jpeg",5,1,3,2,"Instruments",2,3,"right","left",0.442000151,0,0,1,0,NA,NA,NA,NA,NA,NA,NA,NA,NA,NA,NA,NA,NA,NA,NA,NA,NA,NA,NA,NA,NA,NA,NA,NA
"296","stim/objects/HouseObjects/knife.png",347,65,340,0.9,"stim/62.jpeg",6,2,3,2,"HouseObjects",1,4,"left","left",0.624000311,1,1,1,0,NA,NA,NA,NA,NA,NA,NA,NA,NA,NA,NA,NA,NA,NA,NA,NA,NA,NA,NA,NA,NA,NA,NA,NA
"431","stim/objects/Instruments/guitarcase.png",348,65,341,0.5,"stim/22.jpeg",2,2,1,2,"Instruments",2,2,"right","right",0.84400034,1,1,1,0,NA,NA,NA,NA,NA,NA,NA,NA,NA,NA,NA,NA,NA,NA,NA,NA,NA,NA,NA,NA,NA,NA,NA,NA
"556","stim/objects/Instruments/timbal2.png",349,65,342,0.1,"stim/61.jpeg",6,1,3,1,"Instruments",2,2,"right","left",0.718000174,0,0,1,0,34,65,1,0.1,2,"stim/61.jpeg",6,1,"stim/61.jpeg",2,"left",1.419999838,2,3,4.669999838,4,4.215999842,34,1,0,0,0,0,0
"315","stim/objects/HouseObjects/lintroller.png",350,65,343,0.9,"stim/61.jpeg",6,1,3,2,"HouseObjects",1,4,"left","left",0.584000111,1,1,1,0,NA,NA,NA,NA,NA,NA,NA,NA,NA,NA,NA,NA,NA,NA,NA,NA,NA,NA,NA,NA,NA,NA,NA,NA
"316","stim/objects/HouseObjects/lintroller.png",351,65,344,0.9,"stim/63.jpeg",6,3,3,2,"HouseObjects",1,2,"left","left",0.450000048,1,1,1,0,NA,NA,NA,NA,NA,NA,NA,NA,NA,NA,NA,NA,NA,NA,NA,NA,NA,NA,NA,NA,NA,NA,NA,NA
"324","stim/objects/HouseObjects/lintroller2.png",352,65,345,0.1,"stim/52.jpeg",5,2,3,1,"HouseObjects",1,3,"left","right",0.701000214,0,0,1,0,63,65,1,0.1,1,"stim/52.jpeg",5,2,"stim/52.jpeg",3,"right",1.039000034,2,3,2.129999876,3,1.620999813,63,0,0,NA,1,NA,0
"313","stim/objects/HouseObjects/lintroller.png",353,65,346,0.9,"stim/64.jpeg",6,4,3,2,"HouseObjects",1,2,"left","left",0.615000248,1,1,1,0,NA,NA,NA,NA,NA,NA,NA,NA,NA,NA,NA,NA,NA,NA,NA,NA,NA,NA,NA,NA,NA,NA,NA,NA
"464","stim/objects/Instruments/marimba.png",354,65,347,0.9,"stim/53.jpeg",5,3,3,2,"Instruments",2,3,"right","right",0.579000235,1,1,1,0,NA,NA,NA,NA,NA,NA,NA,NA,NA,NA,NA,NA,NA,NA,NA,NA,NA,NA,NA,NA,NA,NA,NA,NA
"558","stim/objects/Instruments/triangle2.png",355,65,348,0.1,"stim/62.jpeg",6,2,3,1,"Instruments",2,2,"right","left",0.524000168,0,0,1,0,56,65,1,0.1,2,"stim/62.jpeg",6,2,"stim/62.jpeg",2,"right",1.145999908,2,3,1.191999912,3,0.655999899,56,0,0,NA,0,NA,0
"317","stim/objects/HouseObjects/lintroller.png",356,65,349,0.9,"stim/64.jpeg",6,4,3,2,"HouseObjects",1,2,"left","left",0.5400002,1,1,1,0,NA,NA,NA,NA,NA,NA,NA,NA,NA,NA,NA,NA,NA,NA,NA,NA,NA,NA,NA,NA,NA,NA,NA,NA
"449","stim/objects/Instruments/laud.png",357,65,350,0.7,"stim/34.jpeg",3,4,2,2,"Instruments",2,3,"right","right",0.662000179,1,1,1,0,NA,NA,NA,NA,NA,NA,NA,NA,NA,NA,NA,NA,NA,NA,NA,NA,NA,NA,NA,NA,NA,NA,NA,NA
"477","stim/objects/Instruments/metronome.png",358,65,351,0.9,"stim/54.jpeg",5,4,3,2,"Instruments",2,1,"right","right",0.587000132,1,1,1,0,NA,NA,NA,NA,NA,NA,NA,NA,NA,NA,NA,NA,NA,NA,NA,NA,NA,NA,NA,NA,NA,NA,NA,NA
"334","stim/objects/HouseObjects/match.png",359,65,352,0.9,"stim/64.jpeg",6,4,3,2,"HouseObjects",1,4,"left","left",0.533000231,1,1,1,0,NA,NA,NA,NA,NA,NA,NA,NA,NA,NA,NA,NA,NA,NA,NA,NA,NA,NA,NA,NA,NA,NA,NA,NA
"318","stim/objects/HouseObjects/lintroller.png",360,65,353,0.9,"stim/64.jpeg",6,4,3,2,"HouseObjects",1,4,"left","left",0.414000034,1,1,1,0,NA,NA,NA,NA,NA,NA,NA,NA,NA,NA,NA,NA,NA,NA,NA,NA,NA,NA,NA,NA,NA,NA,NA,NA
"517","stim/objects/Instruments/musicstand.png",361,65,354,0.9,"stim/52.jpeg",5,2,3,2,"Instruments",2,4,"right","right",0.669000149,1,1,1,0,NA,NA,NA,NA,NA,NA,NA,NA,NA,NA,NA,NA,NA,NA,NA,NA,NA,NA,NA,NA,NA,NA,NA,NA
"518","stim/objects/Instruments/musicstand.png",362,65,355,0.9,"stim/51.jpeg",5,1,3,2,"Instruments",2,3,"right","right",0.738000154,1,1,1,0,NA,NA,NA,NA,NA,NA,NA,NA,NA,NA,NA,NA,NA,NA,NA,NA,NA,NA,NA,NA,NA,NA,NA,NA
"319","stim/objects/HouseObjects/lintroller.png",363,65,356,0.9,"stim/61.jpeg",6,1,3,2,"HouseObjects",1,3,"left","left",0.582000017,1,1,1,0,NA,NA,NA,NA,NA,NA,NA,NA,NA,NA,NA,NA,NA,NA,NA,NA,NA,NA,NA,NA,NA,NA,NA,NA
"523","stim/objects/Instruments/musicstand2.png",364,65,357,0.9,"stim/52.jpeg",5,2,3,1,"Instruments",2,4,"right","right",0.450000048,1,1,1,0,122,65,1,0.9,2,"stim/52.jpeg",5,2,"stim/52.jpeg",4,"left",1.403000116,2,1,0.876999855,1,0.620999813,122,1,0,0,0,0,0
"271","stim/objects/HouseObjects/handbrush.png",365,65,358,0.7,"stim/41.jpeg",4,1,2,2,"HouseObjects",1,2,"left","right",0.829000235,0,0,1,0,NA,NA,NA,NA,NA,NA,NA,NA,NA,NA,NA,NA,NA,NA,NA,NA,NA,NA,NA,NA,NA,NA,NA,NA
"551","stim/objects/Instruments/speaker.png",366,65,359,0.5,"stim/24.jpeg",2,4,1,1,"Instruments",2,1,"right","left",0.713000298,0,0,1,0,126,65,1,0.5,2,"stim/24.jpeg",2,4,"stim/24.jpeg",1,"right",0.671999931,1,2,1.818000078,2,1.01699996,126,0,0,NA,0,NA,0
"408","stim/objects/Instruments/drums2.png",367,65,360,0.7,"stim/33.jpeg",3,3,2,1,"Instruments",2,1,"right","right",0.531000137,1,1,1,0,58,65,1,0.7,2,"stim/33.jpeg",3,3,"stim/33.jpeg",1,"right",0.796999931,4,1,1.487999916,1,0.713000059,58,0,0,NA,1,NA,0
"251","stim/objects/HouseObjects/doormat.png",368,65,361,0.5,"stim/14.jpeg",1,4,1,2,"HouseObjects",1,4,"left","left",0.667000055,1,1,1,0,NA,NA,NA,NA,NA,NA,NA,NA,NA,NA,NA,NA,NA,NA,NA,NA,NA,NA,NA,NA,NA,NA,NA,NA
"325","stim/objects/HouseObjects/match.png",369,65,362,0.9,"stim/63.jpeg",6,3,3,2,"HouseObjects",1,1,"left","right",0.597000122,0,0,1,0,NA,NA,NA,NA,NA,NA,NA,NA,NA,NA,NA,NA,NA,NA,NA,NA,NA,NA,NA,NA,NA,NA,NA,NA
"342","stim/objects/HouseObjects/pan.png",370,65,363,0.9,"stim/64.jpeg",6,4,3,2,"HouseObjects",1,1,"left","left",0.604000092,1,1,1,0,NA,NA,NA,NA,NA,NA,NA,NA,NA,NA,NA,NA,NA,NA,NA,NA,NA,NA,NA,NA,NA,NA,NA,NA
"275","stim/objects/HouseObjects/handvacuum.png",371,65,364,0.7,"stim/44.jpeg",4,4,2,2,"HouseObjects",1,2,"left","right",0.606000185,0,0,1,0,NA,NA,NA,NA,NA,NA,NA,NA,NA,NA,NA,NA,NA,NA,NA,NA,NA,NA,NA,NA,NA,NA,NA,NA
"279","stim/objects/HouseObjects/iron.png",372,65,365,0.7,"stim/41.jpeg",4,1,2,2,"HouseObjects",1,4,"left","left",0.613000154,1,1,1,0,NA,NA,NA,NA,NA,NA,NA,NA,NA,NA,NA,NA,NA,NA,NA,NA,NA,NA,NA,NA,NA,NA,NA,NA
"344","stim/objects/HouseObjects/pan.png",373,65,366,0.9,"stim/62.jpeg",6,2,3,2,"HouseObjects",1,4,"left","left",0.496000051,1,1,1,0,NA,NA,NA,NA,NA,NA,NA,NA,NA,NA,NA,NA,NA,NA,NA,NA,NA,NA,NA,NA,NA,NA,NA,NA
"451","stim/objects/Instruments/laud2.png",374,65,367,0.3,"stim/42.jpeg",4,2,2,1,"Instruments",2,3,"right","right",0.577000141,1,1,1,0,55,65,1,0.3,2,"stim/42.jpeg",4,2,"stim/42.jpeg",3,"left",1.104000092,4,4,3.868999958,1,2.439999819,55,1,0,0,0,0,0
"246","stim/objects/HouseObjects/cushion2.png",375,65,368,0.3,"stim/33.jpeg",3,3,2,1,"HouseObjects",1,4,"left","left",0.578999996,1,1,1,0,158,65,1,0.3,1,"stim/33.jpeg",3,3,"stim/33.jpeg",4,"left",1.670999765,3,1,1.071999788,1,0.805999994,158,1,0,0,0,0,0
"418","stim/objects/Instruments/flutetrans.png",376,65,369,0.5,"stim/14.jpeg",1,4,1,2,"Instruments",2,4,"right","left",0.667000294,0,0,1,0,NA,NA,NA,NA,NA,NA,NA,NA,NA,NA,NA,NA,NA,NA,NA,NA,NA,NA,NA,NA,NA,NA,NA,NA
"465","stim/objects/Instruments/marimba.png",377,65,370,0.9,"stim/53.jpeg",5,3,3,2,"Instruments",2,1,"right","right",0.54700017,1,1,1,0,NA,NA,NA,NA,NA,NA,NA,NA,NA,NA,NA,NA,NA,NA,NA,NA,NA,NA,NA,NA,NA,NA,NA,NA
"309","stim/objects/HouseObjects/lintroller.png",378,65,371,0.9,"stim/61.jpeg",6,1,3,2,"HouseObjects",1,2,"left","left",0.596000195,1,1,1,0,NA,NA,NA,NA,NA,NA,NA,NA,NA,NA,NA,NA,NA,NA,NA,NA,NA,NA,NA,NA,NA,NA,NA,NA
"479","stim/objects/Instruments/metronome.png",379,65,372,0.9,"stim/51.jpeg",5,1,3,2,"Instruments",2,1,"right","right",0.58100009,1,1,1,0,NA,NA,NA,NA,NA,NA,NA,NA,NA,NA,NA,NA,NA,NA,NA,NA,NA,NA,NA,NA,NA,NA,NA,NA
"390","stim/objects/HouseObjects/sponge.png",380,65,373,0.5,"stim/23.jpeg",2,3,1,1,"HouseObjects",1,3,"left","left",0.760000229,1,1,1,0,132,65,1,0.5,2,"stim/23.jpeg",2,3,"stim/23.jpeg",3,"right",1.308999777,2,2,0.884000063,1,1.364000082,132,0,0,NA,0,NA,0
"312","stim/objects/HouseObjects/lintroller.png",381,65,374,0.9,"stim/63.jpeg",6,3,3,2,"HouseObjects",1,4,"left","left",0.618000031,1,1,1,0,NA,NA,NA,NA,NA,NA,NA,NA,NA,NA,NA,NA,NA,NA,NA,NA,NA,NA,NA,NA,NA,NA,NA,NA
"261","stim/objects/HouseObjects/garbagebin2.png",382,65,375,0.7,"stim/41.jpeg",4,1,2,1,"HouseObjects",1,1,"left","right",0.600000143,0,0,1,0,123,65,1,0.7,1,"stim/41.jpeg",4,1,"stim/41.jpeg",1,"right",1.505999804,2,2,1.715999842,4,0.940000057,123,0,0,NA,0,NA,0
"466","stim/objects/Instruments/marimba.png",383,65,376,0.9,"stim/51.jpeg",5,1,3,2,"Instruments",2,3,"right","right",0.595000267,1,1,1,0,NA,NA,NA,NA,NA,NA,NA,NA,NA,NA,NA,NA,NA,NA,NA,NA,NA,NA,NA,NA,NA,NA,NA,NA
"298","stim/objects/HouseObjects/knife.png",384,65,377,0.9,"stim/61.jpeg",6,1,3,2,"HouseObjects",1,2,"left","left",0.493000269,1,1,1,0,NA,NA,NA,NA,NA,NA,NA,NA,NA,NA,NA,NA,NA,NA,NA,NA,NA,NA,NA,NA,NA,NA,NA,NA
"351","stim/objects/HouseObjects/pan.png",385,65,378,0.9,"stim/63.jpeg",6,3,3,2,"HouseObjects",1,4,"left","",NA,0,0,1,0,NA,NA,NA,NA,NA,NA,NA,NA,NA,NA,NA,NA,NA,NA,NA,NA,NA,NA,NA,NA,NA,NA,NA,NA
"450","stim/objects/Instruments/laud.png",386,65,379,0.7,"stim/32.jpeg",3,2,2,2,"Instruments",2,2,"right","left",0.481000185,0,0,1,0,NA,NA,NA,NA,NA,NA,NA,NA,NA,NA,NA,NA,NA,NA,NA,NA,NA,NA,NA,NA,NA,NA,NA,NA
"249","stim/objects/HouseObjects/dishsoap2.png",387,65,380,0.3,"stim/34.jpeg",3,4,2,1,"HouseObjects",1,1,"left","right",0.480000257,0,0,1,0,54,65,1,0.3,1,"stim/34.jpeg",3,4,"stim/34.jpeg",1,"right",1.234999895,2,2,0.835999966,1,1.036999941,54,0,0,NA,1,NA,0
"397","stim/objects/HouseObjects/thermometer2.png",388,65,381,0.9,"stim/62.jpeg",6,2,3,1,"HouseObjects",1,2,"left","left",0.512000322,1,1,1,0,21,65,1,0.9,1,"stim/62.jpeg",6,2,"stim/62.jpeg",2,"right",1.194000006,3,1,7.612999916,1,2.477999926,21,0,0,NA,0,NA,0
"476","stim/objects/Instruments/metronome.png",389,65,382,0.9,"stim/52.jpeg",5,2,3,2,"Instruments",2,3,"right","right",0.649000168,1,1,1,0,NA,NA,NA,NA,NA,NA,NA,NA,NA,NA,NA,NA,NA,NA,NA,NA,NA,NA,NA,NA,NA,NA,NA,NA
"286","stim/objects/HouseObjects/ironingboard2.png",390,65,383,0.7,"stim/44.jpeg",4,4,2,1,"HouseObjects",1,1,"left","left",0.64800024,1,1,1,0,174,65,1,0.7,1,"stim/44.jpeg",4,4,"stim/44.jpeg",1,"right",4.108999729,1,1,0.720999956,4,1.104000092,174,0,0,NA,0,NA,0
"327","stim/objects/HouseObjects/match.png",391,65,384,0.9,"stim/61.jpeg",6,1,3,2,"HouseObjects",1,1,"left","left",0.580000162,1,1,1,0,NA,NA,NA,NA,NA,NA,NA,NA,NA,NA,NA,NA,NA,NA,NA,NA,NA,NA,NA,NA,NA,NA,NA,NA
"375","stim/objects/HouseObjects/pitcher2.png",392,65,385,0.1,"stim/51.jpeg",5,1,3,1,"HouseObjects",1,1,"left","right",0.611000061,0,0,1,0,104,65,1,0.1,1,"stim/51.jpeg",5,1,"stim/51.jpeg",1,"left",1.103999853,2,2,1.794999838,1,1.217000008,104,1,0,0,1,1,0
"463","stim/objects/Instruments/marimba.png",393,65,386,0.9,"stim/54.jpeg",5,4,3,2,"Instruments",2,4,"right","right",0.810000181,1,1,1,0,NA,NA,NA,NA,NA,NA,NA,NA,NA,NA,NA,NA,NA,NA,NA,NA,NA,NA,NA,NA,NA,NA,NA,NA
"473","stim/objects/Instruments/metronome.png",394,65,387,0.9,"stim/54.jpeg",5,4,3,2,"Instruments",2,1,"right","right",0.58100009,1,1,1,0,NA,NA,NA,NA,NA,NA,NA,NA,NA,NA,NA,NA,NA,NA,NA,NA,NA,NA,NA,NA,NA,NA,NA,NA
"502","stim/objects/Instruments/musicsheet.png",395,65,388,0.9,"stim/51.jpeg",5,1,3,2,"Instruments",2,2,"right","left",0.629000187,0,0,1,0,NA,NA,NA,NA,NA,NA,NA,NA,NA,NA,NA,NA,NA,NA,NA,NA,NA,NA,NA,NA,NA,NA,NA,NA
"379","stim/objects/HouseObjects/remote2.png",396,65,389,0.1,"stim/53.jpeg",5,3,3,1,"HouseObjects",1,1,"left","right",0.693000078,0,0,1,0,20,65,1,0.1,1,"stim/53.jpeg",5,3,"stim/53.jpeg",1,"right",2.855999947,2,4,1.902999878,1,2.368000031,20,0,0,NA,1,NA,0
"406","stim/objects/Instruments/drums.png",397,65,390,0.5,"stim/14.jpeg",1,4,1,2,"Instruments",2,2,"right","left",0.680000067,0,0,1,0,NA,NA,NA,NA,NA,NA,NA,NA,NA,NA,NA,NA,NA,NA,NA,NA,NA,NA,NA,NA,NA,NA,NA,NA
"519","stim/objects/Instruments/musicstand.png",398,65,391,0.9,"stim/54.jpeg",5,4,3,2,"Instruments",2,4,"right","right",0.713000059,1,1,1,0,NA,NA,NA,NA,NA,NA,NA,NA,NA,NA,NA,NA,NA,NA,NA,NA,NA,NA,NA,NA,NA,NA,NA,NA
"509","stim/objects/Instruments/musicstand.png",399,65,392,0.9,"stim/52.jpeg",5,2,3,2,"Instruments",2,3,"right","left",0.64800024,0,0,1,0,NA,NA,NA,NA,NA,NA,NA,NA,NA,NA,NA,NA,NA,NA,NA,NA,NA,NA,NA,NA,NA,NA,NA,NA
"491","stim/objects/Instruments/musicsheet.png",400,65,393,0.9,"stim/54.jpeg",5,4,3,2,"Instruments",2,3,"right","right",0.871000051,1,1,1,0,NA,NA,NA,NA,NA,NA,NA,NA,NA,NA,NA,NA,NA,NA,NA,NA,NA,NA,NA,NA,NA,NA,NA,NA
"307","stim/objects/HouseObjects/knife2.png",401,65,394,0.1,"stim/51.jpeg",5,1,3,1,"HouseObjects",1,3,"left","right",0.663000107,0,0,1,0,180,65,1,0.1,1,"stim/51.jpeg",5,1,"stim/51.jpeg",3,"right",1.053999901,3,3,1.57799983,1,0.552999973,180,0,0,NA,0,NA,0
"300","stim/objects/HouseObjects/knife.png",402,65,395,0.9,"stim/61.jpeg",6,1,3,2,"HouseObjects",1,1,"left","left",0.650000334,1,1,1,0,NA,NA,NA,NA,NA,NA,NA,NA,NA,NA,NA,NA,NA,NA,NA,NA,NA,NA,NA,NA,NA,NA,NA,NA
"544","stim/objects/Instruments/pipepiano2.png",403,65,396,0.9,"stim/51.jpeg",5,1,3,1,"Instruments",2,1,"right","right",0.647000074,1,1,1,0,195,65,1,0.9,2,"stim/51.jpeg",5,1,"stim/51.jpeg",1,"left",0.796999931,2,3,1.369999886,4,1.322999954,195,1,0,0,0,0,0
"542","stim/objects/Instruments/panflute2.png",404,65,397,0.9,"stim/54.jpeg",5,4,3,1,"Instruments",2,3,"right","right",0.661000252,1,1,1,0,22,65,1,0.9,2,"stim/54.jpeg",5,4,"stim/54.jpeg",3,"left",1.592000008,3,4,1.286999941,2,1.605000019,22,1,1,1,0,0,0
"346","stim/objects/HouseObjects/pan.png",405,65,398,0.9,"stim/64.jpeg",6,4,3,2,"HouseObjects",1,4,"left","left",0.645000219,1,1,1,0,NA,NA,NA,NA,NA,NA,NA,NA,NA,NA,NA,NA,NA,NA,NA,NA,NA,NA,NA,NA,NA,NA,NA,NA
"568","stim/objects/Instruments/vuvuzela2.png",406,65,399,0.1,"stim/63.jpeg",6,3,3,1,"Instruments",2,2,"right","left",0.612000227,0,0,1,0,39,65,1,0.1,2,"stim/63.jpeg",6,3,"stim/63.jpeg",2,"right",0.95299983,2,3,1.835999966,2,2.260999918,39,0,1,NA,1,NA,0
"367","stim/objects/HouseObjects/pitcher.png",407,65,400,0.9,"stim/62.jpeg",6,2,3,2,"HouseObjects",1,4,"left","left",0.565000057,1,1,1,0,NA,NA,NA,NA,NA,NA,NA,NA,NA,NA,NA,NA,NA,NA,NA,NA,NA,NA,NA,NA,NA,NA,NA,NA
"383","stim/objects/HouseObjects/rug2.png",408,65,401,0.1,"stim/51.jpeg",5,1,3,1,"HouseObjects",1,2,"left","",NA,0,0,1,0,181,65,1,0.1,1,"stim/51.jpeg",5,1,"stim/51.jpeg",2,"right",2.371999979,2,2,1.618999958,1,0.467999935,181,0,0,NA,0,NA,0
"455","stim/objects/Instruments/maraca2.png",409,65,402,0.3,"stim/43.jpeg",4,3,2,1,"Instruments",2,2,"right","right",0.513999939,1,1,1,0,192,65,1,0.3,2,"stim/43.jpeg",4,3,"stim/43.jpeg",2,"right",0.906999826,2,1,0.857000113,3,1.541000128,192,0,0,NA,0,NA,0
"361","stim/objects/HouseObjects/pitcher.png",410,65,403,0.9,"stim/61.jpeg",6,1,3,2,"HouseObjects",1,3,"left","left",0.561000109,1,1,1,0,NA,NA,NA,NA,NA,NA,NA,NA,NA,NA,NA,NA,NA,NA,NA,NA,NA,NA,NA,NA,NA,NA,NA,NA
"483","stim/objects/Instruments/metronome.png",411,65,404,0.9,"stim/53.jpeg",5,3,3,2,"Instruments",2,2,"right","right",0.597000122,1,1,1,0,NA,NA,NA,NA,NA,NA,NA,NA,NA,NA,NA,NA,NA,NA,NA,NA,NA,NA,NA,NA,NA,NA,NA,NA
"478","stim/objects/Instruments/metronome.png",412,65,405,0.9,"stim/54.jpeg",5,4,3,2,"Instruments",2,1,"right","",NA,0,0,1,0,NA,NA,NA,NA,NA,NA,NA,NA,NA,NA,NA,NA,NA,NA,NA,NA,NA,NA,NA,NA,NA,NA,NA,NA
"272","stim/objects/HouseObjects/handbrush.png",413,65,406,0.7,"stim/43.jpeg",4,3,2,2,"HouseObjects",1,2,"left","right",0.662000179,0,0,1,0,NA,NA,NA,NA,NA,NA,NA,NA,NA,NA,NA,NA,NA,NA,NA,NA,NA,NA,NA,NA,NA,NA,NA,NA
"256","stim/objects/HouseObjects/flyswatter.png",414,65,407,0.5,"stim/24.jpeg",2,4,1,2,"HouseObjects",1,2,"left","left",0.579000235,1,1,1,0,NA,NA,NA,NA,NA,NA,NA,NA,NA,NA,NA,NA,NA,NA,NA,NA,NA,NA,NA,NA,NA,NA,NA,NA
"531","stim/objects/Instruments/oboe.png",415,65,408,0.9,"stim/52.jpeg",5,2,3,2,"Instruments",2,2,"right","left",0.651000261,0,0,1,0,NA,NA,NA,NA,NA,NA,NA,NA,NA,NA,NA,NA,NA,NA,NA,NA,NA,NA,NA,NA,NA,NA,NA,NA
"412","stim/objects/Instruments/electricguitar.png",416,65,409,0.5,"stim/13.jpeg",1,3,1,2,"Instruments",2,3,"right","left",0.679000139,0,0,1,0,NA,NA,NA,NA,NA,NA,NA,NA,NA,NA,NA,NA,NA,NA,NA,NA,NA,NA,NA,NA,NA,NA,NA,NA
"371","stim/objects/HouseObjects/pitcher.png",417,65,410,0.9,"stim/61.jpeg",6,1,3,2,"HouseObjects",1,3,"left","left",0.435000181,1,1,1,0,NA,NA,NA,NA,NA,NA,NA,NA,NA,NA,NA,NA,NA,NA,NA,NA,NA,NA,NA,NA,NA,NA,NA,NA
"570","stim/objects/Instruments/xylophone2.png",418,65,411,0.1,"stim/64.jpeg",6,4,3,1,"Instruments",2,4,"right","left",0.495000124,0,0,1,0,23,65,1,0.1,2,"stim/64.jpeg",6,4,"stim/64.jpeg",4,"right",1.315000057,2,2,2.93599987,3,2.08100009,23,0,0,NA,0,NA,0
"283","stim/objects/HouseObjects/ironingboard.png",419,65,412,0.7,"stim/42.jpeg",4,2,2,2,"HouseObjects",1,1,"left","right",0.51699996,0,0,1,0,NA,NA,NA,NA,NA,NA,NA,NA,NA,NA,NA,NA,NA,NA,NA,NA,NA,NA,NA,NA,NA,NA,NA,NA
"506","stim/objects/Instruments/musicsheet2.png",420,65,413,0.9,"stim/51.jpeg",5,1,3,1,"Instruments",2,3,"right","right",0.664000273,1,1,1,0,15,65,1,0.9,2,"stim/51.jpeg",5,1,"stim/51.jpeg",3,"left",2.485999823,1,1,3.808999777,2,3.046999931,15,1,1,1,0,0,0
"458","stim/objects/Instruments/marimba.png",421,65,414,0.9,"stim/51.jpeg",5,1,3,2,"Instruments",2,4,"right","right",0.444000244,1,1,1,0,NA,NA,NA,NA,NA,NA,NA,NA,NA,NA,NA,NA,NA,NA,NA,NA,NA,NA,NA,NA,NA,NA,NA,NA
"532","stim/objects/Instruments/oboe.png",422,65,415,0.9,"stim/52.jpeg",5,2,3,2,"Instruments",2,2,"right","left",0.630000114,0,0,1,0,NA,NA,NA,NA,NA,NA,NA,NA,NA,NA,NA,NA,NA,NA,NA,NA,NA,NA,NA,NA,NA,NA,NA,NA
"550","stim/objects/Instruments/saxophone2.png",423,65,416,0.9,"stim/54.jpeg",5,4,3,1,"Instruments",2,1,"right","right",0.485000134,1,1,1,0,82,65,1,0.9,2,"stim/54.jpeg",5,4,"stim/54.jpeg",1,"left",1.189999819,3,1,1.569999933,2,2.138999939,82,1,0,0,0,0,0
"353","stim/objects/HouseObjects/pan.png",424,65,417,0.9,"stim/61.jpeg",6,1,3,2,"HouseObjects",1,4,"left","right",0.496999979,0,0,1,0,NA,NA,NA,NA,NA,NA,NA,NA,NA,NA,NA,NA,NA,NA,NA,NA,NA,NA,NA,NA,NA,NA,NA,NA
"549","stim/objects/Instruments/saxophone.png",425,65,418,0.5,"stim/12.jpeg",1,2,1,1,"Instruments",2,3,"right","",NA,0,0,1,0,191,65,1,0.5,1,"stim/12.jpeg",1,2,"stim/12.jpeg",3,"left",1.244999886,3,2,1.835999727,4,3.777999878,191,1,1,1,0,0,0
"273","stim/objects/HouseObjects/handbrush.png",426,65,419,0.7,"stim/42.jpeg",4,2,2,2,"HouseObjects",1,4,"left","left",0.550000191,1,1,1,0,NA,NA,NA,NA,NA,NA,NA,NA,NA,NA,NA,NA,NA,NA,NA,NA,NA,NA,NA,NA,NA,NA,NA,NA
"393","stim/objects/HouseObjects/spraybottle2.png",427,65,420,0.9,"stim/64.jpeg",6,4,3,1,"HouseObjects",1,4,"left","left",0.714000225,1,1,1,0,66,65,1,0.9,1,"stim/64.jpeg",6,4,"stim/64.jpeg",4,"right",1.273999929,2,1,1.206999779,3,1.489999771,66,0,0,NA,0,NA,0
"372","stim/objects/HouseObjects/pitcher.png",428,65,421,0.9,"stim/64.jpeg",6,4,3,2,"HouseObjects",1,4,"left","left",0.516000271,1,1,1,0,NA,NA,NA,NA,NA,NA,NA,NA,NA,NA,NA,NA,NA,NA,NA,NA,NA,NA,NA,NA,NA,NA,NA,NA
"299","stim/objects/HouseObjects/knife.png",429,65,422,0.9,"stim/61.jpeg",6,1,3,2,"HouseObjects",1,2,"left","left",0.596000195,1,1,1,0,NA,NA,NA,NA,NA,NA,NA,NA,NA,NA,NA,NA,NA,NA,NA,NA,NA,NA,NA,NA,NA,NA,NA,NA
"260","stim/objects/HouseObjects/garbagebin.png",430,65,423,0.5,"stim/24.jpeg",2,4,1,2,"HouseObjects",1,4,"left","right",0.708000183,0,0,1,0,NA,NA,NA,NA,NA,NA,NA,NA,NA,NA,NA,NA,NA,NA,NA,NA,NA,NA,NA,NA,NA,NA,NA,NA
"501","stim/objects/Instruments/musicsheet.png",431,65,424,0.9,"stim/52.jpeg",5,2,3,2,"Instruments",2,4,"right","right",0.711000204,1,1,1,0,NA,NA,NA,NA,NA,NA,NA,NA,NA,NA,NA,NA,NA,NA,NA,NA,NA,NA,NA,NA,NA,NA,NA,NA
"364","stim/objects/HouseObjects/pitcher.png",432,65,425,0.9,"stim/64.jpeg",6,4,3,2,"HouseObjects",1,2,"left","left",0.611000299,1,1,1,0,NA,NA,NA,NA,NA,NA,NA,NA,NA,NA,NA,NA,NA,NA,NA,NA,NA,NA,NA,NA,NA,NA,NA,NA
"252","stim/objects/HouseObjects/doormat2.png",433,65,426,0.3,"stim/31.jpeg",3,1,2,1,"HouseObjects",1,3,"left","right",0.562000036,0,0,1,0,167,65,1,0.3,1,"stim/31.jpeg",3,1,"stim/31.jpeg",3,"right",0.769999981,4,1,2.003999949,1,0.669999838,167,0,1,NA,0,NA,0
"405","stim/objects/HouseObjects/wateringcan2.png",434,65,427,0.9,"stim/62.jpeg",6,2,3,1,"HouseObjects",1,4,"left","left",0.64800024,1,1,1,0,65,65,1,0.9,1,"stim/62.jpeg",6,2,"stim/62.jpeg",4,"left",1.18599987,2,4,2.428999901,4,1.463000059,65,1,0,0,1,1,0
"526","stim/objects/Instruments/oboe.png",435,65,428,0.9,"stim/53.jpeg",5,3,3,2,"Instruments",2,2,"right","right",0.599000216,1,1,1,0,NA,NA,NA,NA,NA,NA,NA,NA,NA,NA,NA,NA,NA,NA,NA,NA,NA,NA,NA,NA,NA,NA,NA,NA
"468","stim/objects/Instruments/marimba.png",436,65,429,0.9,"stim/54.jpeg",5,4,3,2,"Instruments",2,3,"right","left",0.577000141,0,0,1,0,NA,NA,NA,NA,NA,NA,NA,NA,NA,NA,NA,NA,NA,NA,NA,NA,NA,NA,NA,NA,NA,NA,NA,NA
"410","stim/objects/Instruments/electricdrumset.png",437,65,430,0.5,"stim/12.jpeg",1,2,1,2,"Instruments",2,1,"right","left",0.63800025,0,0,1,0,NA,NA,NA,NA,NA,NA,NA,NA,NA,NA,NA,NA,NA,NA,NA,NA,NA,NA,NA,NA,NA,NA,NA,NA
"565","stim/objects/Instruments/violin.png",438,65,431,0.7,"stim/34.jpeg",3,4,2,1,"Instruments",2,4,"right","right",0.813000202,1,1,1,0,190,65,1,0.7,2,"stim/34.jpeg",3,4,"stim/34.jpeg",4,"left",0.855999947,4,1,0.917999983,2,2.503000021,190,1,0,0,0,0,0
"354","stim/objects/HouseObjects/pan.png",439,65,432,0.9,"stim/63.jpeg",6,3,3,2,"HouseObjects",1,1,"left","left",0.728000164,1,1,1,0,NA,NA,NA,NA,NA,NA,NA,NA,NA,NA,NA,NA,NA,NA,NA,NA,NA,NA,NA,NA,NA,NA,NA,NA
"489","stim/objects/Instruments/metronome2.png",440,65,433,0.9,"stim/54.jpeg",5,4,3,1,"Instruments",2,3,"right","right",0.648000002,1,1,1,0,117,65,1,0.9,2,"stim/54.jpeg",5,4,"stim/54.jpeg",3,"right",0.522999763,4,2,2.559999943,2,0.619999886,117,0,0,NA,0,NA,0
"469","stim/objects/Instruments/marimba.png",441,65,434,0.9,"stim/51.jpeg",5,1,3,2,"Instruments",2,3,"right","right",0.668000221,1,1,1,0,NA,NA,NA,NA,NA,NA,NA,NA,NA,NA,NA,NA,NA,NA,NA,NA,NA,NA,NA,NA,NA,NA,NA,NA
"400","stim/objects/HouseObjects/towel.png",442,65,435,0.3,"stim/33.jpeg",3,3,2,1,"HouseObjects",1,4,"left","left",0.681000233,1,1,1,0,155,65,1,0.3,1,"stim/33.jpeg",3,3,"stim/33.jpeg",4,"right",0.772000074,2,2,1.586999893,3,1.451999903,155,0,0,NA,0,NA,0
"266","stim/objects/HouseObjects/glassmop.png",443,65,436,0.5,"stim/23.jpeg",2,3,1,2,"HouseObjects",1,3,"left","left",0.664000034,1,1,1,0,NA,NA,NA,NA,NA,NA,NA,NA,NA,NA,NA,NA,NA,NA,NA,NA,NA,NA,NA,NA,NA,NA,NA,NA
"554","stim/objects/Instruments/tambourine2.png",444,65,437,0.1,"stim/64.jpeg",6,4,3,1,"Instruments",2,4,"right","left",0.574000359,0,0,1,0,131,65,1,0.1,2,"stim/64.jpeg",6,4,"stim/64.jpeg",4,"left",0.888000011,4,2,2.769000053,2,2.352999926,131,1,0,0,0,0,0
"438","stim/objects/Instruments/harp.png",445,65,438,0.7,"stim/31.jpeg",3,1,2,2,"Instruments",2,3,"right","right",0.626000166,1,1,1,0,NA,NA,NA,NA,NA,NA,NA,NA,NA,NA,NA,NA,NA,NA,NA,NA,NA,NA,NA,NA,NA,NA,NA,NA
"520","stim/objects/Instruments/musicstand.png",446,65,439,0.9,"stim/53.jpeg",5,3,3,2,"Instruments",2,3,"right","right",0.647000074,1,1,1,0,NA,NA,NA,NA,NA,NA,NA,NA,NA,NA,NA,NA,NA,NA,NA,NA,NA,NA,NA,NA,NA,NA,NA,NA
"321","stim/objects/HouseObjects/lintroller.png",447,65,440,0.9,"stim/62.jpeg",6,2,3,2,"HouseObjects",1,3,"left","left",0.65500021,1,1,1,0,NA,NA,NA,NA,NA,NA,NA,NA,NA,NA,NA,NA,NA,NA,NA,NA,NA,NA,NA,NA,NA,NA,NA,NA
"243","stim/objects/HouseObjects/coffee2.png",448,65,441,0.3,"stim/32.jpeg",3,2,2,1,"HouseObjects",1,2,"left","right",0.562000036,0,0,1,0,105,65,1,0.3,1,"stim/32.jpeg",3,2,"stim/32.jpeg",2,"right",1.440999985,3,1,2.121000051,3,1.541000128,105,0,0,NA,0,NA,0
"545","stim/objects/Instruments/record_player.png",449,65,442,0.5,"stim/11.jpeg",1,1,1,1,"Instruments",2,3,"right","left",0.538000107,0,0,1,0,127,65,1,0.5,1,"stim/11.jpeg",1,1,"stim/11.jpeg",3,"left",0.848999977,2,3,0.669999838,3,0.896999836,127,1,0,0,1,1,0
"534","stim/objects/Instruments/oboe.png",450,65,443,0.9,"stim/54.jpeg",5,4,3,2,"Instruments",2,1,"right","right",0.614000082,1,1,1,0,NA,NA,NA,NA,NA,NA,NA,NA,NA,NA,NA,NA,NA,NA,NA,NA,NA,NA,NA,NA,NA,NA,NA,NA
"269","stim/objects/HouseObjects/hairdryer.png",451,65,444,0.5,"stim/24.jpeg",2,4,1,2,"HouseObjects",1,2,"left","left",0.701000214,1,1,1,0,NA,NA,NA,NA,NA,NA,NA,NA,NA,NA,NA,NA,NA,NA,NA,NA,NA,NA,NA,NA,NA,NA,NA,NA
"417","stim/objects/Instruments/flute2.png",452,65,445,0.7,"stim/32.jpeg",3,2,2,1,"Instruments",2,2,"right","right",0.501000166,1,1,1,0,48,65,1,0.7,2,"stim/32.jpeg",3,2,"stim/32.jpeg",2,"left",1.322999954,3,3,2.405999899,1,1.268000126,48,1,0,0,0,0,0
"409","stim/objects/Instruments/electricdrumset.png",453,65,446,0.5,"stim/11.jpeg",1,1,1,2,"Instruments",2,1,"right","right",0.49600029,1,1,1,0,NA,NA,NA,NA,NA,NA,NA,NA,NA,NA,NA,NA,NA,NA,NA,NA,NA,NA,NA,NA,NA,NA,NA,NA
"365","stim/objects/HouseObjects/pitcher.png",454,65,447,0.9,"stim/62.jpeg",6,2,3,2,"HouseObjects",1,3,"left","left",0.413000107,1,1,1,0,NA,NA,NA,NA,NA,NA,NA,NA,NA,NA,NA,NA,NA,NA,NA,NA,NA,NA,NA,NA,NA,NA,NA,NA
"366","stim/objects/HouseObjects/pitcher.png",455,65,448,0.9,"stim/63.jpeg",6,3,3,2,"HouseObjects",1,2,"left","right",0.499000072,0,0,1,0,NA,NA,NA,NA,NA,NA,NA,NA,NA,NA,NA,NA,NA,NA,NA,NA,NA,NA,NA,NA,NA,NA,NA,NA
"337","stim/objects/HouseObjects/match.png",456,65,449,0.9,"stim/62.jpeg",6,2,3,2,"HouseObjects",1,1,"left","left",0.511000156,1,1,1,0,NA,NA,NA,NA,NA,NA,NA,NA,NA,NA,NA,NA,NA,NA,NA,NA,NA,NA,NA,NA,NA,NA,NA,NA
"470","stim/objects/Instruments/marimba.png",457,65,450,0.9,"stim/52.jpeg",5,2,3,2,"Instruments",2,3,"right","right",0.548000097,1,1,1,0,NA,NA,NA,NA,NA,NA,NA,NA,NA,NA,NA,NA,NA,NA,NA,NA,NA,NA,NA,NA,NA,NA,NA,NA
"302","stim/objects/HouseObjects/knife.png",458,65,451,0.9,"stim/64.jpeg",6,4,3,2,"HouseObjects",1,2,"left","right",0.434000254,0,0,1,0,NA,NA,NA,NA,NA,NA,NA,NA,NA,NA,NA,NA,NA,NA,NA,NA,NA,NA,NA,NA,NA,NA,NA,NA
"486","stim/objects/Instruments/metronome.png",459,65,452,0.9,"stim/51.jpeg",5,1,3,2,"Instruments",2,1,"right","right",0.579000235,1,1,1,0,NA,NA,NA,NA,NA,NA,NA,NA,NA,NA,NA,NA,NA,NA,NA,NA,NA,NA,NA,NA,NA,NA,NA,NA
"259","stim/objects/HouseObjects/garbagebin.png",460,65,453,0.5,"stim/21.jpeg",2,1,1,2,"HouseObjects",1,4,"left","left",0.680000067,1,1,1,0,NA,NA,NA,NA,NA,NA,NA,NA,NA,NA,NA,NA,NA,NA,NA,NA,NA,NA,NA,NA,NA,NA,NA,NA
"335","stim/objects/HouseObjects/match.png",461,65,454,0.9,"stim/61.jpeg",6,1,3,2,"HouseObjects",1,2,"left","left",0.730000257,1,1,1,0,NA,NA,NA,NA,NA,NA,NA,NA,NA,NA,NA,NA,NA,NA,NA,NA,NA,NA,NA,NA,NA,NA,NA,NA
"389","stim/objects/HouseObjects/scale2.png",462,65,455,0.9,"stim/62.jpeg",6,2,3,1,"HouseObjects",1,3,"left","left",0.664000273,1,1,1,0,49,65,1,0.9,1,"stim/62.jpeg",6,2,"stim/62.jpeg",3,"right",1.042999744,2,3,1.803999901,3,2.144000053,49,0,0,NA,1,NA,0
"471","stim/objects/Instruments/marimba.png",463,65,456,0.9,"stim/53.jpeg",5,3,3,2,"Instruments",2,4,"right","right",0.611000299,1,1,1,0,NA,NA,NA,NA,NA,NA,NA,NA,NA,NA,NA,NA,NA,NA,NA,NA,NA,NA,NA,NA,NA,NA,NA,NA
"487","stim/objects/Instruments/metronome.png",464,65,457,0.9,"stim/54.jpeg",5,4,3,2,"Instruments",2,2,"right","right",0.527000189,1,1,1,0,NA,NA,NA,NA,NA,NA,NA,NA,NA,NA,NA,NA,NA,NA,NA,NA,NA,NA,NA,NA,NA,NA,NA,NA
"448","stim/objects/Instruments/laud.png",465,65,458,0.7,"stim/33.jpeg",3,3,2,2,"Instruments",2,3,"right","left",0.661000252,0,0,1,0,NA,NA,NA,NA,NA,NA,NA,NA,NA,NA,NA,NA,NA,NA,NA,NA,NA,NA,NA,NA,NA,NA,NA,NA
"516","stim/objects/Instruments/musicstand.png",466,65,459,0.9,"stim/53.jpeg",5,3,3,2,"Instruments",2,4,"right","right",0.667000294,1,1,1,0,NA,NA,NA,NA,NA,NA,NA,NA,NA,NA,NA,NA,NA,NA,NA,NA,NA,NA,NA,NA,NA,NA,NA,NA
"553","stim/objects/Instruments/tambourine.png",467,65,460,0.5,"stim/21.jpeg",2,1,1,1,"Instruments",2,2,"right","left",0.592000008,0,0,1,0,162,65,1,0.5,2,"stim/21.jpeg",2,1,"stim/21.jpeg",2,"left",0.840999842,3,3,1.737999916,2,1.8349998,162,1,0,0,1,1,0
"285","stim/objects/HouseObjects/ironingboard.png",468,65,461,0.7,"stim/44.jpeg",4,4,2,2,"HouseObjects",1,2,"left","right",0.683000088,0,0,1,0,NA,NA,NA,NA,NA,NA,NA,NA,NA,NA,NA,NA,NA,NA,NA,NA,NA,NA,NA,NA,NA,NA,NA,NA
