"","obj_file","X.x","participant.x","trialN.x","trial_cond","scn_file.x","scn_cat","scn_inst","scn_condition","fillers","obj_cat","obj_cat_num","quadrant","corr_ans","key_resp_trial.keys","key_resp_trial.rt","trial_acc","trial_acc_manual","group.x","practice","X.y","participant.y","OvsN","PE_level","object_cat","scn_file.y","corr_scn_cat","corr_scn_inst","scn_file.1","corr_loc","key_resp_id.keys","key_resp_id.rt","key_resp_conf.keys","key_resp_assoc.keys","key_resp_assoc.rt","key_resp_loc.keys","key_resp_loc.rt","trialN.y","id_acc","assoc.acc","cond_assoc","loc.acc","cond_loc","group.y"
"25","stim/objects/HouseObjects/key.png",1,17,1,0.5,"stim/53.jpeg",5,3,1,NA,"HouseObjects",1,4,"left","",NA,0,0,1,1,NA,NA,NA,NA,NA,NA,NA,NA,NA,NA,NA,NA,NA,NA,NA,NA,NA,NA,NA,NA,NA,NA,NA,NA
"18","stim/objects/HouseObjects/ironingboard2.png",2,17,2,0.7,"stim/22.jpeg",2,2,2,NA,"HouseObjects",1,3,"left","left",0.002000093,1,1,1,1,NA,NA,NA,NA,NA,NA,NA,NA,NA,NA,NA,NA,NA,NA,NA,NA,NA,NA,NA,NA,NA,NA,NA,NA
"112","stim/objects/HouseObjects/rug2.png",3,17,3,0.9,"stim/44.jpeg",4,4,3,NA,"HouseObjects",1,2,"left","left",0.77699995,1,1,1,1,NA,NA,NA,NA,NA,NA,NA,NA,NA,NA,NA,NA,NA,NA,NA,NA,NA,NA,NA,NA,NA,NA,NA,NA
"55","stim/objects/HouseObjects/match.png",4,17,4,0.5,"stim/62.jpeg",6,2,1,NA,"HouseObjects",1,3,"left","right",0.56400013,0,0,1,1,NA,NA,NA,NA,NA,NA,NA,NA,NA,NA,NA,NA,NA,NA,NA,NA,NA,NA,NA,NA,NA,NA,NA,NA
"137","stim/objects/Instruments/maraca.png",5,17,5,0.5,"stim/53.jpeg",5,3,1,NA,"Instruments",2,4,"right","left",0.739000082,0,0,1,1,NA,NA,NA,NA,NA,NA,NA,NA,NA,NA,NA,NA,NA,NA,NA,NA,NA,NA,NA,NA,NA,NA,NA,NA
"6","stim/objects/HouseObjects/iron2.png",6,17,6,0.7,"stim/21.jpeg",2,1,2,NA,"HouseObjects",1,1,"left","left",0.680999994,1,1,1,1,NA,NA,NA,NA,NA,NA,NA,NA,NA,NA,NA,NA,NA,NA,NA,NA,NA,NA,NA,NA,NA,NA,NA,NA
"42","stim/objects/HouseObjects/knife2.png",7,17,7,0.7,"stim/24.jpeg",2,4,2,NA,"HouseObjects",1,2,"left","left",0.607000113,1,1,1,1,NA,NA,NA,NA,NA,NA,NA,NA,NA,NA,NA,NA,NA,NA,NA,NA,NA,NA,NA,NA,NA,NA,NA,NA
"150","stim/objects/Instruments/marimba2.png",8,17,8,0.3,"stim/24.jpeg",2,4,2,NA,"Instruments",2,2,"right","left",0.461000204,0,0,1,1,NA,NA,NA,NA,NA,NA,NA,NA,NA,NA,NA,NA,NA,NA,NA,NA,NA,NA,NA,NA,NA,NA,NA,NA
"19","stim/objects/HouseObjects/ironingboard2.png",9,17,9,0.7,"stim/22.jpeg",2,2,2,NA,"HouseObjects",1,1,"left","left",0.580000162,1,1,1,1,NA,NA,NA,NA,NA,NA,NA,NA,NA,NA,NA,NA,NA,NA,NA,NA,NA,NA,NA,NA,NA,NA,NA,NA
"76","stim/objects/HouseObjects/recyclingbin2.png",10,17,10,0.9,"stim/41.jpeg",4,1,3,NA,"HouseObjects",1,1,"left","left",0.588000298,1,1,1,1,NA,NA,NA,NA,NA,NA,NA,NA,NA,NA,NA,NA,NA,NA,NA,NA,NA,NA,NA,NA,NA,NA,NA,NA
"151","stim/objects/Instruments/marimba2.png",11,17,11,0.3,"stim/24.jpeg",2,4,2,NA,"Instruments",2,3,"right","left",0.637000084,0,0,1,1,NA,NA,NA,NA,NA,NA,NA,NA,NA,NA,NA,NA,NA,NA,NA,NA,NA,NA,NA,NA,NA,NA,NA,NA
"30","stim/objects/HouseObjects/key2.png",12,17,12,0.7,"stim/23.jpeg",2,3,2,NA,"HouseObjects",1,3,"left","left",0.703999996,1,1,1,1,NA,NA,NA,NA,NA,NA,NA,NA,NA,NA,NA,NA,NA,NA,NA,NA,NA,NA,NA,NA,NA,NA,NA,NA
"172","stim/objects/Instruments/musicsheet2.png",13,17,13,0.9,"stim/32.jpeg",3,2,3,NA,"Instruments",2,3,"right","",NA,0,0,1,1,NA,NA,NA,NA,NA,NA,NA,NA,NA,NA,NA,NA,NA,NA,NA,NA,NA,NA,NA,NA,NA,NA,NA,NA
"152","stim/objects/Instruments/marimba2.png",14,17,14,0.3,"stim/24.jpeg",2,4,2,NA,"Instruments",2,2,"right","left",0.488000154,0,0,1,1,NA,NA,NA,NA,NA,NA,NA,NA,NA,NA,NA,NA,NA,NA,NA,NA,NA,NA,NA,NA,NA,NA,NA,NA
"217","stim/objects/Instruments/pipepiano.png",15,17,15,0.7,"stim/12.jpeg",1,2,2,NA,"Instruments",2,2,"right","left",0.503000021,0,0,1,1,NA,NA,NA,NA,NA,NA,NA,NA,NA,NA,NA,NA,NA,NA,NA,NA,NA,NA,NA,NA,NA,NA,NA,NA
"61","stim/objects/HouseObjects/pan.png",16,17,16,0.5,"stim/63.jpeg",6,3,1,NA,"HouseObjects",1,4,"left","",NA,0,0,1,1,NA,NA,NA,NA,NA,NA,NA,NA,NA,NA,NA,NA,NA,NA,NA,NA,NA,NA,NA,NA,NA,NA,NA,NA
"43","stim/objects/HouseObjects/knife2.png",17,17,17,0.7,"stim/24.jpeg",2,4,2,NA,"HouseObjects",1,4,"left","left",0.605000019,1,1,1,1,NA,NA,NA,NA,NA,NA,NA,NA,NA,NA,NA,NA,NA,NA,NA,NA,NA,NA,NA,NA,NA,NA,NA,NA
"49","stim/objects/HouseObjects/lintroller.png",18,17,18,0.5,"stim/61.jpeg",6,1,1,NA,"HouseObjects",1,2,"left","left",0.81400013,1,1,1,1,NA,NA,NA,NA,NA,NA,NA,NA,NA,NA,NA,NA,NA,NA,NA,NA,NA,NA,NA,NA,NA,NA,NA,NA
"195","stim/objects/Instruments/oboe.png",19,17,19,0.5,"stim/64.jpeg",6,4,1,NA,"Instruments",2,1,"right","left",0.725000143,0,0,1,1,NA,NA,NA,NA,NA,NA,NA,NA,NA,NA,NA,NA,NA,NA,NA,NA,NA,NA,NA,NA,NA,NA,NA,NA
"225","stim/objects/Instruments/record_player.png",20,17,20,0.7,"stim/14.jpeg",1,4,2,NA,"Instruments",2,4,"right","left",0.590000153,0,0,1,1,NA,NA,NA,NA,NA,NA,NA,NA,NA,NA,NA,NA,NA,NA,NA,NA,NA,NA,NA,NA,NA,NA,NA,NA
"100","stim/objects/HouseObjects/rubbergloves2.png",21,17,21,0.9,"stim/43.jpeg",4,3,3,NA,"HouseObjects",1,1,"left","left",0.724000216,1,1,1,1,NA,NA,NA,NA,NA,NA,NA,NA,NA,NA,NA,NA,NA,NA,NA,NA,NA,NA,NA,NA,NA,NA,NA,NA
"26","stim/objects/HouseObjects/key.png",22,17,22,0.5,"stim/53.jpeg",5,3,1,NA,"HouseObjects",1,3,"left","left",0.73900032,1,1,1,1,NA,NA,NA,NA,NA,NA,NA,NA,NA,NA,NA,NA,NA,NA,NA,NA,NA,NA,NA,NA,NA,NA,NA,NA
"121","stim/objects/Instruments/keyboard.png",23,17,23,0.5,"stim/51.jpeg",5,1,1,NA,"Instruments",2,4,"right","left",0.950000048,0,0,1,1,NA,NA,NA,NA,NA,NA,NA,NA,NA,NA,NA,NA,NA,NA,NA,NA,NA,NA,NA,NA,NA,NA,NA,NA
"122","stim/objects/Instruments/keyboard.png",24,17,24,0.5,"stim/51.jpeg",5,1,1,NA,"Instruments",2,1,"right","left",0.647000074,0,0,1,1,NA,NA,NA,NA,NA,NA,NA,NA,NA,NA,NA,NA,NA,NA,NA,NA,NA,NA,NA,NA,NA,NA,NA,NA
"167","stim/objects/Instruments/musicsheet.png",25,17,25,0.5,"stim/62.jpeg",6,2,1,NA,"Instruments",2,1,"right","left",0.921000242,0,0,1,1,NA,NA,NA,NA,NA,NA,NA,NA,NA,NA,NA,NA,NA,NA,NA,NA,NA,NA,NA,NA,NA,NA,NA,NA
"97","stim/objects/HouseObjects/rubbergloves.png",26,17,26,0.3,"stim/13.jpeg",1,3,2,NA,"HouseObjects",1,4,"left","right",0.736000299,0,0,1,1,NA,NA,NA,NA,NA,NA,NA,NA,NA,NA,NA,NA,NA,NA,NA,NA,NA,NA,NA,NA,NA,NA,NA,NA
"158","stim/objects/Instruments/metronome2.png",27,17,27,0.9,"stim/31.jpeg",3,1,3,NA,"Instruments",2,4,"right","",NA,0,0,1,1,NA,NA,NA,NA,NA,NA,NA,NA,NA,NA,NA,NA,NA,NA,NA,NA,NA,NA,NA,NA,NA,NA,NA,NA
"77","stim/objects/HouseObjects/recyclingbin2.png",28,17,28,0.9,"stim/41.jpeg",4,1,3,NA,"HouseObjects",1,3,"left","left",0.614000082,1,1,1,1,NA,NA,NA,NA,NA,NA,NA,NA,NA,NA,NA,NA,NA,NA,NA,NA,NA,NA,NA,NA,NA,NA,NA,NA
"226","stim/objects/Instruments/record_player.png",29,17,29,0.7,"stim/14.jpeg",1,4,2,NA,"Instruments",2,2,"right","left",0.946000338,0,0,1,1,NA,NA,NA,NA,NA,NA,NA,NA,NA,NA,NA,NA,NA,NA,NA,NA,NA,NA,NA,NA,NA,NA,NA,NA
"181","stim/objects/Instruments/musicstand.png",30,17,30,0.5,"stim/63.jpeg",6,3,1,NA,"Instruments",2,2,"right","left",0.877000093,0,0,1,1,NA,NA,NA,NA,NA,NA,NA,NA,NA,NA,NA,NA,NA,NA,NA,NA,NA,NA,NA,NA,NA,NA,NA,NA
"159","stim/objects/Instruments/metronome2.png",31,17,31,0.9,"stim/31.jpeg",3,1,3,NA,"Instruments",2,1,"right","",NA,0,0,1,1,NA,NA,NA,NA,NA,NA,NA,NA,NA,NA,NA,NA,NA,NA,NA,NA,NA,NA,NA,NA,NA,NA,NA,NA
"37","stim/objects/HouseObjects/knife.png",32,17,32,0.5,"stim/54.jpeg",5,4,1,NA,"HouseObjects",1,1,"left","left",0.498000145,1,1,1,1,NA,NA,NA,NA,NA,NA,NA,NA,NA,NA,NA,NA,NA,NA,NA,NA,NA,NA,NA,NA,NA,NA,NA,NA
"227","stim/objects/Instruments/record_player.png",33,17,33,0.7,"stim/14.jpeg",1,4,2,NA,"Instruments",2,4,"right","right",0.74600029,1,1,1,1,NA,NA,NA,NA,NA,NA,NA,NA,NA,NA,NA,NA,NA,NA,NA,NA,NA,NA,NA,NA,NA,NA,NA,NA
"218","stim/objects/Instruments/pipepiano.png",34,17,34,0.7,"stim/12.jpeg",1,2,2,NA,"Instruments",2,3,"right","left",0.6650002,0,0,1,1,NA,NA,NA,NA,NA,NA,NA,NA,NA,NA,NA,NA,NA,NA,NA,NA,NA,NA,NA,NA,NA,NA,NA,NA
"126","stim/objects/Instruments/keyboard2.png",35,17,35,0.3,"stim/21.jpeg",2,1,2,NA,"Instruments",2,4,"right","left",0.678000212,0,0,1,1,NA,NA,NA,NA,NA,NA,NA,NA,NA,NA,NA,NA,NA,NA,NA,NA,NA,NA,NA,NA,NA,NA,NA,NA
"182","stim/objects/Instruments/musicstand.png",36,17,36,0.5,"stim/63.jpeg",6,3,1,NA,"Instruments",2,1,"right","left",0.73900032,0,0,1,1,NA,NA,NA,NA,NA,NA,NA,NA,NA,NA,NA,NA,NA,NA,NA,NA,NA,NA,NA,NA,NA,NA,NA,NA
"109","stim/objects/HouseObjects/rug.png",37,17,37,0.3,"stim/14.jpeg",1,4,2,NA,"HouseObjects",1,2,"left","right",0.630000353,0,0,1,1,NA,NA,NA,NA,NA,NA,NA,NA,NA,NA,NA,NA,NA,NA,NA,NA,NA,NA,NA,NA,NA,NA,NA,NA
"67","stim/objects/HouseObjects/pitcher.png",38,17,38,0.5,"stim/64.jpeg",6,4,1,NA,"HouseObjects",1,1,"left","left",0.772000313,1,1,1,1,NA,NA,NA,NA,NA,NA,NA,NA,NA,NA,NA,NA,NA,NA,NA,NA,NA,NA,NA,NA,NA,NA,NA,NA
"153","stim/objects/Instruments/metronome.png",39,17,39,0.5,"stim/61.jpeg",6,1,1,NA,"Instruments",2,2,"right","",NA,0,0,1,1,NA,NA,NA,NA,NA,NA,NA,NA,NA,NA,NA,NA,NA,NA,NA,NA,NA,NA,NA,NA,NA,NA,NA,NA
"168","stim/objects/Instruments/musicsheet.png",40,17,40,0.5,"stim/62.jpeg",6,2,1,NA,"Instruments",2,2,"right","",NA,0,0,1,1,NA,NA,NA,NA,NA,NA,NA,NA,NA,NA,NA,NA,NA,NA,NA,NA,NA,NA,NA,NA,NA,NA,NA,NA
"78","stim/objects/HouseObjects/recyclingbin2.png",41,17,41,0.9,"stim/41.jpeg",4,1,3,NA,"HouseObjects",1,1,"left","left",0.513000011,1,1,1,1,NA,NA,NA,NA,NA,NA,NA,NA,NA,NA,NA,NA,NA,NA,NA,NA,NA,NA,NA,NA,NA,NA,NA,NA
"145","stim/objects/Instruments/marimba.png",42,17,42,0.5,"stim/54.jpeg",5,4,1,NA,"Instruments",2,3,"right","left",0.45600009,0,0,1,1,NA,NA,NA,NA,NA,NA,NA,NA,NA,NA,NA,NA,NA,NA,NA,NA,NA,NA,NA,NA,NA,NA,NA,NA
"79","stim/objects/HouseObjects/recyclingbin2.png",43,17,43,0.9,"stim/41.jpeg",4,1,3,NA,"HouseObjects",1,3,"left","left",0.468000174,1,1,1,1,NA,NA,NA,NA,NA,NA,NA,NA,NA,NA,NA,NA,NA,NA,NA,NA,NA,NA,NA,NA,NA,NA,NA,NA
"7","stim/objects/HouseObjects/iron2.png",44,17,44,0.7,"stim/21.jpeg",2,1,2,NA,"HouseObjects",1,1,"left","left",0.536000252,1,1,1,1,NA,NA,NA,NA,NA,NA,NA,NA,NA,NA,NA,NA,NA,NA,NA,NA,NA,NA,NA,NA,NA,NA,NA,NA
"68","stim/objects/HouseObjects/pitcher.png",45,17,45,0.5,"stim/64.jpeg",6,4,1,NA,"HouseObjects",1,4,"left","right",0.594000101,0,0,1,1,NA,NA,NA,NA,NA,NA,NA,NA,NA,NA,NA,NA,NA,NA,NA,NA,NA,NA,NA,NA,NA,NA,NA,NA
"56","stim/objects/HouseObjects/match.png",46,17,46,0.5,"stim/62.jpeg",6,2,1,NA,"HouseObjects",1,3,"left","left",0.821000338,1,1,1,1,NA,NA,NA,NA,NA,NA,NA,NA,NA,NA,NA,NA,NA,NA,NA,NA,NA,NA,NA,NA,NA,NA,NA,NA
"1","stim/objects/HouseObjects/iron.png",47,17,47,0.5,"stim/51.jpeg",5,1,1,NA,"HouseObjects",1,1,"left","left",0.601000071,1,1,1,1,NA,NA,NA,NA,NA,NA,NA,NA,NA,NA,NA,NA,NA,NA,NA,NA,NA,NA,NA,NA,NA,NA,NA,NA
"186","stim/objects/Instruments/musicstand2.png",48,17,48,0.9,"stim/33.jpeg",3,3,3,NA,"Instruments",2,1,"right","right",0.788000107,1,1,1,1,NA,NA,NA,NA,NA,NA,NA,NA,NA,NA,NA,NA,NA,NA,NA,NA,NA,NA,NA,NA,NA,NA,NA,NA
"146","stim/objects/Instruments/marimba.png",49,17,49,0.5,"stim/54.jpeg",5,4,1,NA,"Instruments",2,3,"right","left",0.68900013,0,0,1,1,NA,NA,NA,NA,NA,NA,NA,NA,NA,NA,NA,NA,NA,NA,NA,NA,NA,NA,NA,NA,NA,NA,NA,NA
"101","stim/objects/HouseObjects/rubbergloves2.png",50,17,50,0.9,"stim/43.jpeg",4,3,3,NA,"HouseObjects",1,3,"left","left",0.593000174,1,1,1,1,NA,NA,NA,NA,NA,NA,NA,NA,NA,NA,NA,NA,NA,NA,NA,NA,NA,NA,NA,NA,NA,NA,NA,NA
"228","stim/objects/Instruments/record_player.png",51,17,51,0.7,"stim/14.jpeg",1,4,2,NA,"Instruments",2,3,"right","left",0.748000145,0,0,1,1,NA,NA,NA,NA,NA,NA,NA,NA,NA,NA,NA,NA,NA,NA,NA,NA,NA,NA,NA,NA,NA,NA,NA,NA
"169","stim/objects/Instruments/musicsheet.png",52,17,52,0.5,"stim/62.jpeg",6,2,1,NA,"Instruments",2,1,"right","left",0.703999996,0,0,1,1,NA,NA,NA,NA,NA,NA,NA,NA,NA,NA,NA,NA,NA,NA,NA,NA,NA,NA,NA,NA,NA,NA,NA,NA
"113","stim/objects/HouseObjects/rug2.png",53,17,53,0.9,"stim/44.jpeg",4,4,3,NA,"HouseObjects",1,4,"left","left",0.742000103,1,1,1,1,NA,NA,NA,NA,NA,NA,NA,NA,NA,NA,NA,NA,NA,NA,NA,NA,NA,NA,NA,NA,NA,NA,NA,NA
"44","stim/objects/HouseObjects/knife2.png",54,17,54,0.7,"stim/24.jpeg",2,4,2,NA,"HouseObjects",1,2,"left","left",0.852000237,1,1,1,1,NA,NA,NA,NA,NA,NA,NA,NA,NA,NA,NA,NA,NA,NA,NA,NA,NA,NA,NA,NA,NA,NA,NA,NA
"219","stim/objects/Instruments/pipepiano.png",55,17,55,0.7,"stim/12.jpeg",1,2,2,NA,"Instruments",2,2,"right","left",0.541000128,0,0,1,1,NA,NA,NA,NA,NA,NA,NA,NA,NA,NA,NA,NA,NA,NA,NA,NA,NA,NA,NA,NA,NA,NA,NA,NA
"123","stim/objects/Instruments/keyboard.png",56,17,56,0.5,"stim/51.jpeg",5,1,1,NA,"Instruments",2,1,"right","left",0.534000158,0,0,1,1,NA,NA,NA,NA,NA,NA,NA,NA,NA,NA,NA,NA,NA,NA,NA,NA,NA,NA,NA,NA,NA,NA,NA,NA
"129","stim/objects/Instruments/laud.png",57,17,57,0.5,"stim/52.jpeg",5,2,1,NA,"Instruments",2,2,"right","left",0.583000183,0,0,1,1,NA,NA,NA,NA,NA,NA,NA,NA,NA,NA,NA,NA,NA,NA,NA,NA,NA,NA,NA,NA,NA,NA,NA,NA
"13","stim/objects/HouseObjects/ironingboard.png",58,17,58,0.5,"stim/52.jpeg",5,2,1,NA,"HouseObjects",1,3,"left","left",0.960000038,1,1,1,1,NA,NA,NA,NA,NA,NA,NA,NA,NA,NA,NA,NA,NA,NA,NA,NA,NA,NA,NA,NA,NA,NA,NA,NA
"160","stim/objects/Instruments/metronome2.png",59,17,59,0.9,"stim/31.jpeg",3,1,3,NA,"Instruments",2,2,"right","right",0.647000074,1,1,1,1,NA,NA,NA,NA,NA,NA,NA,NA,NA,NA,NA,NA,NA,NA,NA,NA,NA,NA,NA,NA,NA,NA,NA,NA
"173","stim/objects/Instruments/musicsheet2.png",60,17,60,0.9,"stim/32.jpeg",3,2,3,NA,"Instruments",2,4,"right","right",0.588000059,1,1,1,1,NA,NA,NA,NA,NA,NA,NA,NA,NA,NA,NA,NA,NA,NA,NA,NA,NA,NA,NA,NA,NA,NA,NA,NA
"50","stim/objects/HouseObjects/lintroller.png",61,17,61,0.5,"stim/61.jpeg",6,1,1,NA,"HouseObjects",1,4,"left","right",0.55700016,0,0,1,1,NA,NA,NA,NA,NA,NA,NA,NA,NA,NA,NA,NA,NA,NA,NA,NA,NA,NA,NA,NA,NA,NA,NA,NA
"38","stim/objects/HouseObjects/knife.png",62,17,62,0.5,"stim/54.jpeg",5,4,1,NA,"HouseObjects",1,2,"left","right",0.832999945,0,0,1,1,NA,NA,NA,NA,NA,NA,NA,NA,NA,NA,NA,NA,NA,NA,NA,NA,NA,NA,NA,NA,NA,NA,NA,NA
"110","stim/objects/HouseObjects/rug.png",63,17,63,0.3,"stim/14.jpeg",1,4,2,NA,"HouseObjects",1,3,"left","right",0.690000057,0,0,1,1,NA,NA,NA,NA,NA,NA,NA,NA,NA,NA,NA,NA,NA,NA,NA,NA,NA,NA,NA,NA,NA,NA,NA,NA
"102","stim/objects/HouseObjects/rubbergloves2.png",64,17,64,0.9,"stim/43.jpeg",4,3,3,NA,"HouseObjects",1,4,"left","left",0.777000189,1,1,1,1,NA,NA,NA,NA,NA,NA,NA,NA,NA,NA,NA,NA,NA,NA,NA,NA,NA,NA,NA,NA,NA,NA,NA,NA
"161","stim/objects/Instruments/metronome2.png",65,17,65,0.9,"stim/31.jpeg",3,1,3,NA,"Instruments",2,3,"right","right",0.646000147,1,1,1,1,NA,NA,NA,NA,NA,NA,NA,NA,NA,NA,NA,NA,NA,NA,NA,NA,NA,NA,NA,NA,NA,NA,NA,NA
"154","stim/objects/Instruments/metronome.png",66,17,66,0.5,"stim/61.jpeg",6,1,1,NA,"Instruments",2,3,"right","right",0.773000002,1,1,1,1,NA,NA,NA,NA,NA,NA,NA,NA,NA,NA,NA,NA,NA,NA,NA,NA,NA,NA,NA,NA,NA,NA,NA,NA
"114","stim/objects/HouseObjects/rug2.png",67,17,67,0.9,"stim/44.jpeg",4,4,3,NA,"HouseObjects",1,4,"left","left",0.650000095,1,1,1,1,NA,NA,NA,NA,NA,NA,NA,NA,NA,NA,NA,NA,NA,NA,NA,NA,NA,NA,NA,NA,NA,NA,NA,NA
"2","stim/objects/HouseObjects/iron.png",68,17,68,0.5,"stim/51.jpeg",5,1,1,NA,"HouseObjects",1,2,"left","left",0.602000237,1,1,1,1,NA,NA,NA,NA,NA,NA,NA,NA,NA,NA,NA,NA,NA,NA,NA,NA,NA,NA,NA,NA,NA,NA,NA,NA
"73","stim/objects/HouseObjects/recyclingbin.png",69,17,69,0.3,"stim/11.jpeg",1,1,2,NA,"HouseObjects",1,2,"left","left",0.695000172,1,1,1,1,NA,NA,NA,NA,NA,NA,NA,NA,NA,NA,NA,NA,NA,NA,NA,NA,NA,NA,NA,NA,NA,NA,NA,NA
"51","stim/objects/HouseObjects/lintroller.png",70,17,70,0.5,"stim/61.jpeg",6,1,1,NA,"HouseObjects",1,4,"left","right",0.577000141,0,0,1,1,NA,NA,NA,NA,NA,NA,NA,NA,NA,NA,NA,NA,NA,NA,NA,NA,NA,NA,NA,NA,NA,NA,NA,NA
"130","stim/objects/Instruments/laud.png",71,17,71,0.5,"stim/52.jpeg",5,2,1,NA,"Instruments",2,4,"right","left",0.637000084,0,0,1,1,NA,NA,NA,NA,NA,NA,NA,NA,NA,NA,NA,NA,NA,NA,NA,NA,NA,NA,NA,NA,NA,NA,NA,NA
"209","stim/objects/Instruments/panflute.png",72,17,72,0.7,"stim/11.jpeg",1,1,2,NA,"Instruments",2,1,"right","left",0.740000248,0,0,1,1,NA,NA,NA,NA,NA,NA,NA,NA,NA,NA,NA,NA,NA,NA,NA,NA,NA,NA,NA,NA,NA,NA,NA,NA
"88","stim/objects/HouseObjects/remote2.png",73,17,73,0.9,"stim/42.jpeg",4,2,3,NA,"HouseObjects",1,3,"left","left",0.762000084,1,1,1,1,NA,NA,NA,NA,NA,NA,NA,NA,NA,NA,NA,NA,NA,NA,NA,NA,NA,NA,NA,NA,NA,NA,NA,NA
"103","stim/objects/HouseObjects/rubbergloves2.png",74,17,74,0.9,"stim/43.jpeg",4,3,3,NA,"HouseObjects",1,3,"left","left",0.642000198,1,1,1,1,NA,NA,NA,NA,NA,NA,NA,NA,NA,NA,NA,NA,NA,NA,NA,NA,NA,NA,NA,NA,NA,NA,NA,NA
"210","stim/objects/Instruments/panflute.png",75,17,75,0.7,"stim/11.jpeg",1,1,2,NA,"Instruments",2,1,"right","left",0.631000042,0,0,1,1,NA,NA,NA,NA,NA,NA,NA,NA,NA,NA,NA,NA,NA,NA,NA,NA,NA,NA,NA,NA,NA,NA,NA,NA
"220","stim/objects/Instruments/pipepiano.png",76,17,76,0.7,"stim/12.jpeg",1,2,2,NA,"Instruments",2,1,"right","",NA,0,0,1,1,NA,NA,NA,NA,NA,NA,NA,NA,NA,NA,NA,NA,NA,NA,NA,NA,NA,NA,NA,NA,NA,NA,NA,NA
"211","stim/objects/Instruments/panflute.png",77,17,77,0.7,"stim/11.jpeg",1,1,2,NA,"Instruments",2,3,"right","right",0.50600028,1,1,1,1,NA,NA,NA,NA,NA,NA,NA,NA,NA,NA,NA,NA,NA,NA,NA,NA,NA,NA,NA,NA,NA,NA,NA,NA
"62","stim/objects/HouseObjects/pan.png",78,17,78,0.5,"stim/63.jpeg",6,3,1,NA,"HouseObjects",1,1,"left","right",0.818000078,0,0,1,1,NA,NA,NA,NA,NA,NA,NA,NA,NA,NA,NA,NA,NA,NA,NA,NA,NA,NA,NA,NA,NA,NA,NA,NA
"31","stim/objects/HouseObjects/key2.png",79,17,79,0.7,"stim/23.jpeg",2,3,2,NA,"HouseObjects",1,1,"left","left",0.590000153,1,1,1,1,NA,NA,NA,NA,NA,NA,NA,NA,NA,NA,NA,NA,NA,NA,NA,NA,NA,NA,NA,NA,NA,NA,NA,NA
"221","stim/objects/Instruments/pipepiano.png",80,17,80,0.7,"stim/12.jpeg",1,2,2,NA,"Instruments",2,3,"right","left",0.609000206,0,0,1,1,NA,NA,NA,NA,NA,NA,NA,NA,NA,NA,NA,NA,NA,NA,NA,NA,NA,NA,NA,NA,NA,NA,NA,NA
"142","stim/objects/Instruments/maraca2.png",81,17,81,0.3,"stim/23.jpeg",2,3,2,NA,"Instruments",2,1,"right","left",0.605000257,0,0,1,1,NA,NA,NA,NA,NA,NA,NA,NA,NA,NA,NA,NA,NA,NA,NA,NA,NA,NA,NA,NA,NA,NA,NA,NA
"183","stim/objects/Instruments/musicstand.png",82,17,82,0.5,"stim/63.jpeg",6,3,1,NA,"Instruments",2,1,"right","left",0.539999962,0,0,1,1,NA,NA,NA,NA,NA,NA,NA,NA,NA,NA,NA,NA,NA,NA,NA,NA,NA,NA,NA,NA,NA,NA,NA,NA
"57","stim/objects/HouseObjects/match.png",83,17,83,0.5,"stim/62.jpeg",6,2,1,NA,"HouseObjects",1,4,"left","left",0.851000309,1,1,1,1,NA,NA,NA,NA,NA,NA,NA,NA,NA,NA,NA,NA,NA,NA,NA,NA,NA,NA,NA,NA,NA,NA,NA,NA
"155","stim/objects/Instruments/metronome.png",84,17,84,0.5,"stim/61.jpeg",6,1,1,NA,"Instruments",2,2,"right","right",0.350000143,1,1,1,1,NA,NA,NA,NA,NA,NA,NA,NA,NA,NA,NA,NA,NA,NA,NA,NA,NA,NA,NA,NA,NA,NA,NA,NA
"187","stim/objects/Instruments/musicstand2.png",85,17,85,0.9,"stim/33.jpeg",3,3,3,NA,"Instruments",2,1,"right","right",0.596000195,1,1,1,1,NA,NA,NA,NA,NA,NA,NA,NA,NA,NA,NA,NA,NA,NA,NA,NA,NA,NA,NA,NA,NA,NA,NA,NA
"188","stim/objects/Instruments/musicstand2.png",86,17,86,0.9,"stim/33.jpeg",3,3,3,NA,"Instruments",2,2,"right","right",0.508000374,1,1,1,1,NA,NA,NA,NA,NA,NA,NA,NA,NA,NA,NA,NA,NA,NA,NA,NA,NA,NA,NA,NA,NA,NA,NA,NA
"80","stim/objects/HouseObjects/recyclingbin2.png",87,17,87,0.9,"stim/41.jpeg",4,1,3,NA,"HouseObjects",1,1,"left","left",0.569000244,1,1,1,1,NA,NA,NA,NA,NA,NA,NA,NA,NA,NA,NA,NA,NA,NA,NA,NA,NA,NA,NA,NA,NA,NA,NA,NA
"39","stim/objects/HouseObjects/knife.png",88,17,88,0.5,"stim/54.jpeg",5,4,1,NA,"HouseObjects",1,3,"left","left",0.847000122,1,1,1,1,NA,NA,NA,NA,NA,NA,NA,NA,NA,NA,NA,NA,NA,NA,NA,NA,NA,NA,NA,NA,NA,NA,NA,NA
"196","stim/objects/Instruments/oboe.png",89,17,89,0.5,"stim/64.jpeg",6,4,1,NA,"Instruments",2,3,"right","right",0.7900002,1,1,1,1,NA,NA,NA,NA,NA,NA,NA,NA,NA,NA,NA,NA,NA,NA,NA,NA,NA,NA,NA,NA,NA,NA,NA,NA
"81","stim/objects/HouseObjects/recyclingbin2.png",90,17,90,0.9,"stim/41.jpeg",4,1,3,NA,"HouseObjects",1,3,"left","left",0.535000086,1,1,1,1,NA,NA,NA,NA,NA,NA,NA,NA,NA,NA,NA,NA,NA,NA,NA,NA,NA,NA,NA,NA,NA,NA,NA,NA
"45","stim/objects/HouseObjects/knife2.png",91,17,91,0.7,"stim/24.jpeg",2,4,2,NA,"HouseObjects",1,4,"left","left",0.651000261,1,1,1,1,NA,NA,NA,NA,NA,NA,NA,NA,NA,NA,NA,NA,NA,NA,NA,NA,NA,NA,NA,NA,NA,NA,NA,NA
"40","stim/objects/HouseObjects/knife.png",92,17,92,0.5,"stim/54.jpeg",5,4,1,NA,"HouseObjects",1,4,"left","right",0.927000284,0,0,1,1,NA,NA,NA,NA,NA,NA,NA,NA,NA,NA,NA,NA,NA,NA,NA,NA,NA,NA,NA,NA,NA,NA,NA,NA
"156","stim/objects/Instruments/metronome.png",93,17,93,0.5,"stim/61.jpeg",6,1,1,NA,"Instruments",2,1,"right","right",0.690000057,1,1,1,1,NA,NA,NA,NA,NA,NA,NA,NA,NA,NA,NA,NA,NA,NA,NA,NA,NA,NA,NA,NA,NA,NA,NA,NA
"111","stim/objects/HouseObjects/rug.png",94,17,94,0.3,"stim/14.jpeg",1,4,2,NA,"HouseObjects",1,4,"left","right",0.680999994,0,0,1,1,NA,NA,NA,NA,NA,NA,NA,NA,NA,NA,NA,NA,NA,NA,NA,NA,NA,NA,NA,NA,NA,NA,NA,NA
"72","stim/objects/HouseObjects/pitcher2.png",95,17,95,0.1,"stim/34.jpeg",3,4,3,NA,"HouseObjects",1,3,"left","right",0.604000092,0,0,1,1,NA,NA,NA,NA,NA,NA,NA,NA,NA,NA,NA,NA,NA,NA,NA,NA,NA,NA,NA,NA,NA,NA,NA,NA
"189","stim/objects/Instruments/musicstand2.png",96,17,96,0.9,"stim/33.jpeg",3,3,3,NA,"Instruments",2,2,"right","right",0.534000158,1,1,1,1,NA,NA,NA,NA,NA,NA,NA,NA,NA,NA,NA,NA,NA,NA,NA,NA,NA,NA,NA,NA,NA,NA,NA,NA
"27","stim/objects/HouseObjects/key.png",97,17,97,0.5,"stim/53.jpeg",5,3,1,NA,"HouseObjects",1,4,"left","left",0.825999975,1,1,1,1,NA,NA,NA,NA,NA,NA,NA,NA,NA,NA,NA,NA,NA,NA,NA,NA,NA,NA,NA,NA,NA,NA,NA,NA
"190","stim/objects/Instruments/musicstand2.png",98,17,98,0.9,"stim/33.jpeg",3,3,3,NA,"Instruments",2,2,"right","right",0.779999971,1,1,1,1,NA,NA,NA,NA,NA,NA,NA,NA,NA,NA,NA,NA,NA,NA,NA,NA,NA,NA,NA,NA,NA,NA,NA,NA
"157","stim/objects/Instruments/metronome.png",99,17,99,0.5,"stim/61.jpeg",6,1,1,NA,"Instruments",2,3,"right","right",0.652000189,1,1,1,1,NA,NA,NA,NA,NA,NA,NA,NA,NA,NA,NA,NA,NA,NA,NA,NA,NA,NA,NA,NA,NA,NA,NA,NA
"191","stim/objects/Instruments/musicstand2.png",100,17,100,0.9,"stim/33.jpeg",3,3,3,NA,"Instruments",2,4,"right","right",0.597000122,1,1,1,1,NA,NA,NA,NA,NA,NA,NA,NA,NA,NA,NA,NA,NA,NA,NA,NA,NA,NA,NA,NA,NA,NA,NA,NA
"200","stim/objects/Instruments/oboe2.png",101,17,101,0.9,"stim/34.jpeg",3,4,3,NA,"Instruments",2,2,"right","right",0.605000019,1,1,1,1,NA,NA,NA,NA,NA,NA,NA,NA,NA,NA,NA,NA,NA,NA,NA,NA,NA,NA,NA,NA,NA,NA,NA,NA
"104","stim/objects/HouseObjects/rubbergloves2.png",102,17,102,0.9,"stim/43.jpeg",4,3,3,NA,"HouseObjects",1,2,"left","left",0.616000175,1,1,1,1,NA,NA,NA,NA,NA,NA,NA,NA,NA,NA,NA,NA,NA,NA,NA,NA,NA,NA,NA,NA,NA,NA,NA,NA
"60","stim/objects/HouseObjects/match2.png",103,17,103,0.1,"stim/32.jpeg",3,2,3,NA,"HouseObjects",1,4,"left","right",0.594000101,0,0,1,1,NA,NA,NA,NA,NA,NA,NA,NA,NA,NA,NA,NA,NA,NA,NA,NA,NA,NA,NA,NA,NA,NA,NA,NA
"46","stim/objects/HouseObjects/knife2.png",104,17,104,0.7,"stim/24.jpeg",2,4,2,NA,"HouseObjects",1,3,"left","left",0.845000029,1,1,1,1,NA,NA,NA,NA,NA,NA,NA,NA,NA,NA,NA,NA,NA,NA,NA,NA,NA,NA,NA,NA,NA,NA,NA,NA
"32","stim/objects/HouseObjects/key2.png",105,17,105,0.7,"stim/23.jpeg",2,3,2,NA,"HouseObjects",1,1,"left","left",0.47300005,1,1,1,1,NA,NA,NA,NA,NA,NA,NA,NA,NA,NA,NA,NA,NA,NA,NA,NA,NA,NA,NA,NA,NA,NA,NA,NA
"184","stim/objects/Instruments/musicstand.png",106,17,106,0.5,"stim/63.jpeg",6,3,1,NA,"Instruments",2,4,"right","right",0.613000154,1,1,1,1,NA,NA,NA,NA,NA,NA,NA,NA,NA,NA,NA,NA,NA,NA,NA,NA,NA,NA,NA,NA,NA,NA,NA,NA
"8","stim/objects/HouseObjects/iron2.png",107,17,107,0.7,"stim/21.jpeg",2,1,2,NA,"HouseObjects",1,1,"left","left",0.526000261,1,1,1,1,NA,NA,NA,NA,NA,NA,NA,NA,NA,NA,NA,NA,NA,NA,NA,NA,NA,NA,NA,NA,NA,NA,NA,NA
"9","stim/objects/HouseObjects/iron2.png",108,17,108,0.7,"stim/21.jpeg",2,1,2,NA,"HouseObjects",1,1,"left","left",0.458000183,1,1,1,1,NA,NA,NA,NA,NA,NA,NA,NA,NA,NA,NA,NA,NA,NA,NA,NA,NA,NA,NA,NA,NA,NA,NA,NA
"240","stim/objects/Instruments/record2.png",109,17,109,0.1,"stim/43.jpeg",4,3,3,NA,"Instruments",2,3,"right","left",0.636000156,0,0,1,1,NA,NA,NA,NA,NA,NA,NA,NA,NA,NA,NA,NA,NA,NA,NA,NA,NA,NA,NA,NA,NA,NA,NA,NA
"201","stim/objects/Instruments/oboe2.png",110,17,110,0.9,"stim/34.jpeg",3,4,3,NA,"Instruments",2,3,"right","left",0.411000252,0,0,1,1,NA,NA,NA,NA,NA,NA,NA,NA,NA,NA,NA,NA,NA,NA,NA,NA,NA,NA,NA,NA,NA,NA,NA,NA
"222","stim/objects/Instruments/pipepiano.png",111,17,111,0.7,"stim/12.jpeg",1,2,2,NA,"Instruments",2,1,"right","left",0.568000078,0,0,1,1,NA,NA,NA,NA,NA,NA,NA,NA,NA,NA,NA,NA,NA,NA,NA,NA,NA,NA,NA,NA,NA,NA,NA,NA
"162","stim/objects/Instruments/metronome2.png",112,17,112,0.9,"stim/31.jpeg",3,1,3,NA,"Instruments",2,1,"right","right",0.487000227,1,1,1,1,NA,NA,NA,NA,NA,NA,NA,NA,NA,NA,NA,NA,NA,NA,NA,NA,NA,NA,NA,NA,NA,NA,NA,NA
"131","stim/objects/Instruments/laud.png",113,17,113,0.5,"stim/52.jpeg",5,2,1,NA,"Instruments",2,2,"right","right",0.761000156,1,1,1,1,NA,NA,NA,NA,NA,NA,NA,NA,NA,NA,NA,NA,NA,NA,NA,NA,NA,NA,NA,NA,NA,NA,NA,NA
"202","stim/objects/Instruments/oboe2.png",114,17,114,0.9,"stim/34.jpeg",3,4,3,NA,"Instruments",2,1,"right","right",0.467999935,1,1,1,1,NA,NA,NA,NA,NA,NA,NA,NA,NA,NA,NA,NA,NA,NA,NA,NA,NA,NA,NA,NA,NA,NA,NA,NA
"174","stim/objects/Instruments/musicsheet2.png",115,17,115,0.9,"stim/32.jpeg",3,2,3,NA,"Instruments",2,4,"right","right",0.417999983,1,1,1,1,NA,NA,NA,NA,NA,NA,NA,NA,NA,NA,NA,NA,NA,NA,NA,NA,NA,NA,NA,NA,NA,NA,NA,NA
"170","stim/objects/Instruments/musicsheet.png",116,17,116,0.5,"stim/62.jpeg",6,2,1,NA,"Instruments",2,4,"right","right",0.578000069,1,1,1,1,NA,NA,NA,NA,NA,NA,NA,NA,NA,NA,NA,NA,NA,NA,NA,NA,NA,NA,NA,NA,NA,NA,NA,NA
"138","stim/objects/Instruments/maraca.png",117,17,117,0.5,"stim/53.jpeg",5,3,1,NA,"Instruments",2,2,"right","right",0.777000189,1,1,1,1,NA,NA,NA,NA,NA,NA,NA,NA,NA,NA,NA,NA,NA,NA,NA,NA,NA,NA,NA,NA,NA,NA,NA,NA
"41","stim/objects/HouseObjects/knife.png",118,17,118,0.5,"stim/54.jpeg",5,4,1,NA,"HouseObjects",1,4,"left","left",0.845000267,1,1,1,1,NA,NA,NA,NA,NA,NA,NA,NA,NA,NA,NA,NA,NA,NA,NA,NA,NA,NA,NA,NA,NA,NA,NA,NA
"163","stim/objects/Instruments/metronome2.png",119,17,119,0.9,"stim/31.jpeg",3,1,3,NA,"Instruments",2,3,"right","right",0.650000095,1,1,1,1,NA,NA,NA,NA,NA,NA,NA,NA,NA,NA,NA,NA,NA,NA,NA,NA,NA,NA,NA,NA,NA,NA,NA,NA
"105","stim/objects/HouseObjects/rubbergloves2.png",120,17,120,0.9,"stim/43.jpeg",4,3,3,NA,"HouseObjects",1,4,"left","",NA,0,0,1,1,NA,NA,NA,NA,NA,NA,NA,NA,NA,NA,NA,NA,NA,NA,NA,NA,NA,NA,NA,NA,NA,NA,NA,NA
"175","stim/objects/Instruments/musicsheet2.png",121,17,121,0.9,"stim/32.jpeg",3,2,3,NA,"Instruments",2,4,"right","right",0.477000237,1,1,1,1,NA,NA,NA,NA,NA,NA,NA,NA,NA,NA,NA,NA,NA,NA,NA,NA,NA,NA,NA,NA,NA,NA,NA,NA
"192","stim/objects/Instruments/musicstand2.png",122,17,122,0.9,"stim/33.jpeg",3,3,3,NA,"Instruments",2,2,"right","right",0.495000124,1,1,1,1,NA,NA,NA,NA,NA,NA,NA,NA,NA,NA,NA,NA,NA,NA,NA,NA,NA,NA,NA,NA,NA,NA,NA,NA
"233","stim/objects/Instruments/record.png",123,17,123,0.7,"stim/13.jpeg",1,3,2,NA,"Instruments",2,2,"right","right",0.680999994,1,1,1,1,NA,NA,NA,NA,NA,NA,NA,NA,NA,NA,NA,NA,NA,NA,NA,NA,NA,NA,NA,NA,NA,NA,NA,NA
"33","stim/objects/HouseObjects/key2.png",124,17,124,0.7,"stim/23.jpeg",2,3,2,NA,"HouseObjects",1,3,"left","left",0.586000204,1,1,1,1,NA,NA,NA,NA,NA,NA,NA,NA,NA,NA,NA,NA,NA,NA,NA,NA,NA,NA,NA,NA,NA,NA,NA,NA
"115","stim/objects/HouseObjects/rug2.png",125,17,125,0.9,"stim/44.jpeg",4,4,3,NA,"HouseObjects",1,2,"left","left",0.746000051,1,1,1,1,NA,NA,NA,NA,NA,NA,NA,NA,NA,NA,NA,NA,NA,NA,NA,NA,NA,NA,NA,NA,NA,NA,NA,NA
"82","stim/objects/HouseObjects/recyclingbin2.png",126,17,126,0.9,"stim/41.jpeg",4,1,3,NA,"HouseObjects",1,2,"left","left",0.556000233,1,1,1,1,NA,NA,NA,NA,NA,NA,NA,NA,NA,NA,NA,NA,NA,NA,NA,NA,NA,NA,NA,NA,NA,NA,NA,NA
"89","stim/objects/HouseObjects/remote2.png",127,17,127,0.9,"stim/42.jpeg",4,2,3,NA,"HouseObjects",1,1,"left","left",0.736999989,1,1,1,1,NA,NA,NA,NA,NA,NA,NA,NA,NA,NA,NA,NA,NA,NA,NA,NA,NA,NA,NA,NA,NA,NA,NA,NA
"139","stim/objects/Instruments/maraca.png",128,17,128,0.5,"stim/53.jpeg",5,3,1,NA,"Instruments",2,2,"right","right",0.603000164,1,1,1,1,NA,NA,NA,NA,NA,NA,NA,NA,NA,NA,NA,NA,NA,NA,NA,NA,NA,NA,NA,NA,NA,NA,NA,NA
"143","stim/objects/Instruments/maraca2.png",129,17,129,0.3,"stim/23.jpeg",2,3,2,NA,"Instruments",2,1,"right","left",0.537000179,0,0,1,1,NA,NA,NA,NA,NA,NA,NA,NA,NA,NA,NA,NA,NA,NA,NA,NA,NA,NA,NA,NA,NA,NA,NA,NA
"14","stim/objects/HouseObjects/ironingboard.png",130,17,130,0.5,"stim/52.jpeg",5,2,1,NA,"HouseObjects",1,2,"left","left",0.527000189,1,1,1,1,NA,NA,NA,NA,NA,NA,NA,NA,NA,NA,NA,NA,NA,NA,NA,NA,NA,NA,NA,NA,NA,NA,NA,NA
"212","stim/objects/Instruments/panflute.png",131,17,131,0.7,"stim/11.jpeg",1,1,2,NA,"Instruments",2,2,"right","left",0.59400034,0,0,1,1,NA,NA,NA,NA,NA,NA,NA,NA,NA,NA,NA,NA,NA,NA,NA,NA,NA,NA,NA,NA,NA,NA,NA,NA
"127","stim/objects/Instruments/keyboard2.png",132,17,132,0.3,"stim/21.jpeg",2,1,2,NA,"Instruments",2,2,"right","left",0.555000067,0,0,1,1,NA,NA,NA,NA,NA,NA,NA,NA,NA,NA,NA,NA,NA,NA,NA,NA,NA,NA,NA,NA,NA,NA,NA,NA
"223","stim/objects/Instruments/pipepiano.png",133,17,133,0.7,"stim/12.jpeg",1,2,2,NA,"Instruments",2,1,"right","left",0.406000376,0,0,1,1,NA,NA,NA,NA,NA,NA,NA,NA,NA,NA,NA,NA,NA,NA,NA,NA,NA,NA,NA,NA,NA,NA,NA,NA
"28","stim/objects/HouseObjects/key.png",134,17,134,0.5,"stim/53.jpeg",5,3,1,NA,"HouseObjects",1,1,"left","right",0.611999989,0,0,1,1,NA,NA,NA,NA,NA,NA,NA,NA,NA,NA,NA,NA,NA,NA,NA,NA,NA,NA,NA,NA,NA,NA,NA,NA
"164","stim/objects/Instruments/metronome2.png",135,17,135,0.9,"stim/31.jpeg",3,1,3,NA,"Instruments",2,3,"right","right",0.535000086,1,1,1,1,NA,NA,NA,NA,NA,NA,NA,NA,NA,NA,NA,NA,NA,NA,NA,NA,NA,NA,NA,NA,NA,NA,NA,NA
"216","stim/objects/Instruments/panflute2.png",136,17,136,0.1,"stim/41.jpeg",4,1,3,NA,"Instruments",2,1,"right","left",0.511000156,0,0,1,1,NA,NA,NA,NA,NA,NA,NA,NA,NA,NA,NA,NA,NA,NA,NA,NA,NA,NA,NA,NA,NA,NA,NA,NA
"85","stim/objects/HouseObjects/remote.png",137,17,137,0.3,"stim/12.jpeg",1,2,2,NA,"HouseObjects",1,2,"left","right",0.641000271,0,0,1,1,NA,NA,NA,NA,NA,NA,NA,NA,NA,NA,NA,NA,NA,NA,NA,NA,NA,NA,NA,NA,NA,NA,NA,NA
"229","stim/objects/Instruments/record_player.png",138,17,138,0.7,"stim/14.jpeg",1,4,2,NA,"Instruments",2,3,"right","",NA,0,0,1,1,NA,NA,NA,NA,NA,NA,NA,NA,NA,NA,NA,NA,NA,NA,NA,NA,NA,NA,NA,NA,NA,NA,NA,NA
"232","stim/objects/Instruments/record_player2.png",139,17,139,0.1,"stim/44.jpeg",4,4,3,NA,"Instruments",2,3,"right","left",0.555999994,0,0,1,1,NA,NA,NA,NA,NA,NA,NA,NA,NA,NA,NA,NA,NA,NA,NA,NA,NA,NA,NA,NA,NA,NA,NA,NA
"34","stim/objects/HouseObjects/key2.png",140,17,140,0.7,"stim/23.jpeg",2,3,2,NA,"HouseObjects",1,4,"left","left",0.585000277,1,1,1,1,NA,NA,NA,NA,NA,NA,NA,NA,NA,NA,NA,NA,NA,NA,NA,NA,NA,NA,NA,NA,NA,NA,NA,NA
"193","stim/objects/Instruments/musicstand2.png",141,17,141,0.9,"stim/33.jpeg",3,3,3,NA,"Instruments",2,2,"right","right",0.526000023,1,1,1,1,NA,NA,NA,NA,NA,NA,NA,NA,NA,NA,NA,NA,NA,NA,NA,NA,NA,NA,NA,NA,NA,NA,NA,NA
"106","stim/objects/HouseObjects/rubbergloves2.png",142,17,142,0.9,"stim/43.jpeg",4,3,3,NA,"HouseObjects",1,2,"left","left",0.5400002,1,1,1,1,NA,NA,NA,NA,NA,NA,NA,NA,NA,NA,NA,NA,NA,NA,NA,NA,NA,NA,NA,NA,NA,NA,NA,NA
"144","stim/objects/Instruments/maraca2.png",143,17,143,0.3,"stim/23.jpeg",2,3,2,NA,"Instruments",2,2,"right","left",0.524000168,0,0,1,1,NA,NA,NA,NA,NA,NA,NA,NA,NA,NA,NA,NA,NA,NA,NA,NA,NA,NA,NA,NA,NA,NA,NA,NA
"124","stim/objects/Instruments/keyboard.png",144,17,144,0.5,"stim/51.jpeg",5,1,1,NA,"Instruments",2,4,"right","left",0.664000273,0,0,1,1,NA,NA,NA,NA,NA,NA,NA,NA,NA,NA,NA,NA,NA,NA,NA,NA,NA,NA,NA,NA,NA,NA,NA,NA
"116","stim/objects/HouseObjects/rug2.png",145,17,145,0.9,"stim/44.jpeg",4,4,3,NA,"HouseObjects",1,2,"left","left",0.572000265,1,1,1,1,NA,NA,NA,NA,NA,NA,NA,NA,NA,NA,NA,NA,NA,NA,NA,NA,NA,NA,NA,NA,NA,NA,NA,NA
"20","stim/objects/HouseObjects/ironingboard2.png",146,17,146,0.7,"stim/22.jpeg",2,2,2,NA,"HouseObjects",1,4,"left","left",0.804000139,1,1,1,1,NA,NA,NA,NA,NA,NA,NA,NA,NA,NA,NA,NA,NA,NA,NA,NA,NA,NA,NA,NA,NA,NA,NA,NA
"10","stim/objects/HouseObjects/iron2.png",147,17,147,0.7,"stim/21.jpeg",2,1,2,NA,"HouseObjects",1,3,"left","left",0.604000092,1,1,1,1,NA,NA,NA,NA,NA,NA,NA,NA,NA,NA,NA,NA,NA,NA,NA,NA,NA,NA,NA,NA,NA,NA,NA,NA
"63","stim/objects/HouseObjects/pan.png",148,17,148,0.5,"stim/63.jpeg",6,3,1,NA,"HouseObjects",1,3,"left","left",0.817000151,1,1,1,1,NA,NA,NA,NA,NA,NA,NA,NA,NA,NA,NA,NA,NA,NA,NA,NA,NA,NA,NA,NA,NA,NA,NA,NA
"98","stim/objects/HouseObjects/rubbergloves.png",149,17,149,0.3,"stim/13.jpeg",1,3,2,NA,"HouseObjects",1,1,"left","right",0.865000248,0,0,1,1,NA,NA,NA,NA,NA,NA,NA,NA,NA,NA,NA,NA,NA,NA,NA,NA,NA,NA,NA,NA,NA,NA,NA,NA
"132","stim/objects/Instruments/laud.png",150,17,150,0.5,"stim/52.jpeg",5,2,1,NA,"Instruments",2,3,"right","left",0.583000183,0,0,1,1,NA,NA,NA,NA,NA,NA,NA,NA,NA,NA,NA,NA,NA,NA,NA,NA,NA,NA,NA,NA,NA,NA,NA,NA
"197","stim/objects/Instruments/oboe.png",151,17,151,0.5,"stim/64.jpeg",6,4,1,NA,"Instruments",2,3,"right","left",0.400000095,0,0,1,1,NA,NA,NA,NA,NA,NA,NA,NA,NA,NA,NA,NA,NA,NA,NA,NA,NA,NA,NA,NA,NA,NA,NA,NA
"203","stim/objects/Instruments/oboe2.png",152,17,152,0.9,"stim/34.jpeg",3,4,3,NA,"Instruments",2,1,"right","right",0.650000095,1,1,1,1,NA,NA,NA,NA,NA,NA,NA,NA,NA,NA,NA,NA,NA,NA,NA,NA,NA,NA,NA,NA,NA,NA,NA,NA
"204","stim/objects/Instruments/oboe2.png",153,17,153,0.9,"stim/34.jpeg",3,4,3,NA,"Instruments",2,3,"right","right",0.887000084,1,1,1,1,NA,NA,NA,NA,NA,NA,NA,NA,NA,NA,NA,NA,NA,NA,NA,NA,NA,NA,NA,NA,NA,NA,NA,NA
"147","stim/objects/Instruments/marimba.png",154,17,154,0.5,"stim/54.jpeg",5,4,1,NA,"Instruments",2,4,"right","",NA,0,0,1,1,NA,NA,NA,NA,NA,NA,NA,NA,NA,NA,NA,NA,NA,NA,NA,NA,NA,NA,NA,NA,NA,NA,NA,NA
"90","stim/objects/HouseObjects/remote2.png",155,17,155,0.9,"stim/42.jpeg",4,2,3,NA,"HouseObjects",1,2,"left","left",0.656000137,1,1,1,1,NA,NA,NA,NA,NA,NA,NA,NA,NA,NA,NA,NA,NA,NA,NA,NA,NA,NA,NA,NA,NA,NA,NA,NA
"128","stim/objects/Instruments/keyboard2.png",156,17,156,0.3,"stim/21.jpeg",2,1,2,NA,"Instruments",2,4,"right","left",0.587000132,0,0,1,1,NA,NA,NA,NA,NA,NA,NA,NA,NA,NA,NA,NA,NA,NA,NA,NA,NA,NA,NA,NA,NA,NA,NA,NA
"148","stim/objects/Instruments/marimba.png",157,17,157,0.5,"stim/54.jpeg",5,4,1,NA,"Instruments",2,2,"right","left",0.882000208,0,0,1,1,NA,NA,NA,NA,NA,NA,NA,NA,NA,NA,NA,NA,NA,NA,NA,NA,NA,NA,NA,NA,NA,NA,NA,NA
"54","stim/objects/HouseObjects/lintroller2.png",158,17,158,0.1,"stim/31.jpeg",3,1,3,NA,"HouseObjects",1,4,"left","right",0.741000175,0,0,1,1,NA,NA,NA,NA,NA,NA,NA,NA,NA,NA,NA,NA,NA,NA,NA,NA,NA,NA,NA,NA,NA,NA,NA,NA
"15","stim/objects/HouseObjects/ironingboard.png",159,17,159,0.5,"stim/52.jpeg",5,2,1,NA,"HouseObjects",1,2,"left","left",0.662000179,1,1,1,1,NA,NA,NA,NA,NA,NA,NA,NA,NA,NA,NA,NA,NA,NA,NA,NA,NA,NA,NA,NA,NA,NA,NA,NA
"16","stim/objects/HouseObjects/ironingboard.png",160,17,160,0.5,"stim/52.jpeg",5,2,1,NA,"HouseObjects",1,1,"left","left",0.460000038,1,1,1,1,NA,NA,NA,NA,NA,NA,NA,NA,NA,NA,NA,NA,NA,NA,NA,NA,NA,NA,NA,NA,NA,NA,NA,NA
"52","stim/objects/HouseObjects/lintroller.png",161,17,161,0.5,"stim/61.jpeg",6,1,1,NA,"HouseObjects",1,1,"left","left",0.774000168,1,1,1,1,NA,NA,NA,NA,NA,NA,NA,NA,NA,NA,NA,NA,NA,NA,NA,NA,NA,NA,NA,NA,NA,NA,NA,NA
"165","stim/objects/Instruments/metronome2.png",162,17,162,0.9,"stim/31.jpeg",3,1,3,NA,"Instruments",2,1,"right","right",0.518000126,1,1,1,1,NA,NA,NA,NA,NA,NA,NA,NA,NA,NA,NA,NA,NA,NA,NA,NA,NA,NA,NA,NA,NA,NA,NA,NA
"21","stim/objects/HouseObjects/ironingboard2.png",163,17,163,0.7,"stim/22.jpeg",2,2,2,NA,"HouseObjects",1,3,"left","right",0.536000252,0,0,1,1,NA,NA,NA,NA,NA,NA,NA,NA,NA,NA,NA,NA,NA,NA,NA,NA,NA,NA,NA,NA,NA,NA,NA,NA
"198","stim/objects/Instruments/oboe.png",164,17,164,0.5,"stim/64.jpeg",6,4,1,NA,"Instruments",2,3,"right","right",0.394000053,1,1,1,1,NA,NA,NA,NA,NA,NA,NA,NA,NA,NA,NA,NA,NA,NA,NA,NA,NA,NA,NA,NA,NA,NA,NA,NA
"64","stim/objects/HouseObjects/pan.png",165,17,165,0.5,"stim/63.jpeg",6,3,1,NA,"HouseObjects",1,4,"left","",NA,0,0,1,1,NA,NA,NA,NA,NA,NA,NA,NA,NA,NA,NA,NA,NA,NA,NA,NA,NA,NA,NA,NA,NA,NA,NA,NA
"176","stim/objects/Instruments/musicsheet2.png",166,17,166,0.9,"stim/32.jpeg",3,2,3,NA,"Instruments",2,1,"right","right",0.502000093,1,1,1,1,NA,NA,NA,NA,NA,NA,NA,NA,NA,NA,NA,NA,NA,NA,NA,NA,NA,NA,NA,NA,NA,NA,NA,NA
"58","stim/objects/HouseObjects/match.png",167,17,167,0.5,"stim/62.jpeg",6,2,1,NA,"HouseObjects",1,1,"left","right",0.56400013,0,0,1,1,NA,NA,NA,NA,NA,NA,NA,NA,NA,NA,NA,NA,NA,NA,NA,NA,NA,NA,NA,NA,NA,NA,NA,NA
"213","stim/objects/Instruments/panflute.png",168,17,168,0.7,"stim/11.jpeg",1,1,2,NA,"Instruments",2,3,"right","right",0.755000353,1,1,1,1,NA,NA,NA,NA,NA,NA,NA,NA,NA,NA,NA,NA,NA,NA,NA,NA,NA,NA,NA,NA,NA,NA,NA,NA
"3","stim/objects/HouseObjects/iron.png",169,17,169,0.5,"stim/51.jpeg",5,1,1,NA,"HouseObjects",1,3,"left","right",0.712000132,0,0,1,1,NA,NA,NA,NA,NA,NA,NA,NA,NA,NA,NA,NA,NA,NA,NA,NA,NA,NA,NA,NA,NA,NA,NA,NA
"69","stim/objects/HouseObjects/pitcher.png",170,17,170,0.5,"stim/64.jpeg",6,4,1,NA,"HouseObjects",1,3,"left","right",0.585000277,0,0,1,1,NA,NA,NA,NA,NA,NA,NA,NA,NA,NA,NA,NA,NA,NA,NA,NA,NA,NA,NA,NA,NA,NA,NA,NA
"205","stim/objects/Instruments/oboe2.png",171,17,171,0.9,"stim/34.jpeg",3,4,3,NA,"Instruments",2,4,"right","right",0.698000193,1,1,1,1,NA,NA,NA,NA,NA,NA,NA,NA,NA,NA,NA,NA,NA,NA,NA,NA,NA,NA,NA,NA,NA,NA,NA,NA
"134","stim/objects/Instruments/laud2.png",172,17,172,0.3,"stim/22.jpeg",2,2,2,NA,"Instruments",2,3,"right","left",0.628999949,0,0,1,1,NA,NA,NA,NA,NA,NA,NA,NA,NA,NA,NA,NA,NA,NA,NA,NA,NA,NA,NA,NA,NA,NA,NA,NA
"117","stim/objects/HouseObjects/rug2.png",173,17,173,0.9,"stim/44.jpeg",4,4,3,NA,"HouseObjects",1,2,"left","right",0.496000051,0,0,1,1,NA,NA,NA,NA,NA,NA,NA,NA,NA,NA,NA,NA,NA,NA,NA,NA,NA,NA,NA,NA,NA,NA,NA,NA
"199","stim/objects/Instruments/oboe.png",174,17,174,0.5,"stim/64.jpeg",6,4,1,NA,"Instruments",2,2,"right","left",0.711000204,0,0,1,1,NA,NA,NA,NA,NA,NA,NA,NA,NA,NA,NA,NA,NA,NA,NA,NA,NA,NA,NA,NA,NA,NA,NA,NA
"4","stim/objects/HouseObjects/iron.png",175,17,175,0.5,"stim/51.jpeg",5,1,1,NA,"HouseObjects",1,1,"left","left",0.670000076,1,1,1,1,NA,NA,NA,NA,NA,NA,NA,NA,NA,NA,NA,NA,NA,NA,NA,NA,NA,NA,NA,NA,NA,NA,NA,NA
"47","stim/objects/HouseObjects/knife2.png",176,17,176,0.7,"stim/24.jpeg",2,4,2,NA,"HouseObjects",1,3,"left","",NA,0,0,1,1,NA,NA,NA,NA,NA,NA,NA,NA,NA,NA,NA,NA,NA,NA,NA,NA,NA,NA,NA,NA,NA,NA,NA,NA
"83","stim/objects/HouseObjects/recyclingbin2.png",177,17,177,0.9,"stim/41.jpeg",4,1,3,NA,"HouseObjects",1,1,"left","left",0.526000023,1,1,1,1,NA,NA,NA,NA,NA,NA,NA,NA,NA,NA,NA,NA,NA,NA,NA,NA,NA,NA,NA,NA,NA,NA,NA,NA
"133","stim/objects/Instruments/laud.png",178,17,178,0.5,"stim/52.jpeg",5,2,1,NA,"Instruments",2,4,"right","left",0.861000061,0,0,1,1,NA,NA,NA,NA,NA,NA,NA,NA,NA,NA,NA,NA,NA,NA,NA,NA,NA,NA,NA,NA,NA,NA,NA,NA
"177","stim/objects/Instruments/musicsheet2.png",179,17,179,0.9,"stim/32.jpeg",3,2,3,NA,"Instruments",2,3,"right","right",0.656000137,1,1,1,1,NA,NA,NA,NA,NA,NA,NA,NA,NA,NA,NA,NA,NA,NA,NA,NA,NA,NA,NA,NA,NA,NA,NA,NA
"107","stim/objects/HouseObjects/rubbergloves2.png",180,17,180,0.9,"stim/43.jpeg",4,3,3,NA,"HouseObjects",1,2,"left","left",0.534000158,1,1,1,1,NA,NA,NA,NA,NA,NA,NA,NA,NA,NA,NA,NA,NA,NA,NA,NA,NA,NA,NA,NA,NA,NA,NA,NA
"171","stim/objects/Instruments/musicsheet.png",181,17,181,0.5,"stim/62.jpeg",6,2,1,NA,"Instruments",2,2,"right","right",0.761000156,1,1,1,1,NA,NA,NA,NA,NA,NA,NA,NA,NA,NA,NA,NA,NA,NA,NA,NA,NA,NA,NA,NA,NA,NA,NA,NA
"29","stim/objects/HouseObjects/key.png",182,17,182,0.5,"stim/53.jpeg",5,3,1,NA,"HouseObjects",1,2,"left","left",0.67200017,1,1,1,1,NA,NA,NA,NA,NA,NA,NA,NA,NA,NA,NA,NA,NA,NA,NA,NA,NA,NA,NA,NA,NA,NA,NA,NA
"84","stim/objects/HouseObjects/recyclingbin2.png",183,17,183,0.9,"stim/41.jpeg",4,1,3,NA,"HouseObjects",1,1,"left","left",0.446000099,1,1,1,1,NA,NA,NA,NA,NA,NA,NA,NA,NA,NA,NA,NA,NA,NA,NA,NA,NA,NA,NA,NA,NA,NA,NA,NA
"135","stim/objects/Instruments/laud2.png",184,17,184,0.3,"stim/22.jpeg",2,2,2,NA,"Instruments",2,4,"right","left",0.549000263,0,0,1,1,NA,NA,NA,NA,NA,NA,NA,NA,NA,NA,NA,NA,NA,NA,NA,NA,NA,NA,NA,NA,NA,NA,NA,NA
"224","stim/objects/Instruments/pipepiano2.png",185,17,185,0.1,"stim/42.jpeg",4,2,3,NA,"Instruments",2,3,"right","left",0.567000151,0,0,1,1,NA,NA,NA,NA,NA,NA,NA,NA,NA,NA,NA,NA,NA,NA,NA,NA,NA,NA,NA,NA,NA,NA,NA,NA
"140","stim/objects/Instruments/maraca.png",186,17,186,0.5,"stim/53.jpeg",5,3,1,NA,"Instruments",2,3,"right","left",0.642000198,0,0,1,1,NA,NA,NA,NA,NA,NA,NA,NA,NA,NA,NA,NA,NA,NA,NA,NA,NA,NA,NA,NA,NA,NA,NA,NA
"86","stim/objects/HouseObjects/remote.png",187,17,187,0.3,"stim/12.jpeg",1,2,2,NA,"HouseObjects",1,1,"left","left",0.953000307,1,1,1,1,NA,NA,NA,NA,NA,NA,NA,NA,NA,NA,NA,NA,NA,NA,NA,NA,NA,NA,NA,NA,NA,NA,NA,NA
"74","stim/objects/HouseObjects/recyclingbin.png",188,17,188,0.3,"stim/11.jpeg",1,1,2,NA,"HouseObjects",1,1,"left","right",0.772000313,0,0,1,1,NA,NA,NA,NA,NA,NA,NA,NA,NA,NA,NA,NA,NA,NA,NA,NA,NA,NA,NA,NA,NA,NA,NA,NA
"70","stim/objects/HouseObjects/pitcher.png",189,17,189,0.5,"stim/64.jpeg",6,4,1,NA,"HouseObjects",1,4,"left","right",0.818000078,0,0,1,1,NA,NA,NA,NA,NA,NA,NA,NA,NA,NA,NA,NA,NA,NA,NA,NA,NA,NA,NA,NA,NA,NA,NA,NA
"22","stim/objects/HouseObjects/ironingboard2.png",190,17,190,0.7,"stim/22.jpeg",2,2,2,NA,"HouseObjects",1,3,"left","left",0.569000244,1,1,1,1,NA,NA,NA,NA,NA,NA,NA,NA,NA,NA,NA,NA,NA,NA,NA,NA,NA,NA,NA,NA,NA,NA,NA,NA
"91","stim/objects/HouseObjects/remote2.png",191,17,191,0.9,"stim/42.jpeg",4,2,3,NA,"HouseObjects",1,1,"left","left",0.583000183,1,1,1,1,NA,NA,NA,NA,NA,NA,NA,NA,NA,NA,NA,NA,NA,NA,NA,NA,NA,NA,NA,NA,NA,NA,NA,NA
"149","stim/objects/Instruments/marimba.png",192,17,192,0.5,"stim/54.jpeg",5,4,1,NA,"Instruments",2,2,"right","right",0.808000088,1,1,1,1,NA,NA,NA,NA,NA,NA,NA,NA,NA,NA,NA,NA,NA,NA,NA,NA,NA,NA,NA,NA,NA,NA,NA,NA
"230","stim/objects/Instruments/record_player.png",193,17,193,0.7,"stim/14.jpeg",1,4,2,NA,"Instruments",2,1,"right","left",0.955000162,0,0,1,1,NA,NA,NA,NA,NA,NA,NA,NA,NA,NA,NA,NA,NA,NA,NA,NA,NA,NA,NA,NA,NA,NA,NA,NA
"206","stim/objects/Instruments/oboe2.png",194,17,194,0.9,"stim/34.jpeg",3,4,3,NA,"Instruments",2,4,"right","",NA,0,0,1,1,NA,NA,NA,NA,NA,NA,NA,NA,NA,NA,NA,NA,NA,NA,NA,NA,NA,NA,NA,NA,NA,NA,NA,NA
"234","stim/objects/Instruments/record.png",195,17,195,0.7,"stim/13.jpeg",1,3,2,NA,"Instruments",2,4,"right","right",0.633000135,1,1,1,1,NA,NA,NA,NA,NA,NA,NA,NA,NA,NA,NA,NA,NA,NA,NA,NA,NA,NA,NA,NA,NA,NA,NA,NA
"92","stim/objects/HouseObjects/remote2.png",196,17,196,0.9,"stim/42.jpeg",4,2,3,NA,"HouseObjects",1,1,"left","left",0.534000158,1,1,1,1,NA,NA,NA,NA,NA,NA,NA,NA,NA,NA,NA,NA,NA,NA,NA,NA,NA,NA,NA,NA,NA,NA,NA,NA
"235","stim/objects/Instruments/record.png",197,17,197,0.7,"stim/13.jpeg",1,3,2,NA,"Instruments",2,4,"right","right",0.565000296,1,1,1,1,NA,NA,NA,NA,NA,NA,NA,NA,NA,NA,NA,NA,NA,NA,NA,NA,NA,NA,NA,NA,NA,NA,NA,NA
"214","stim/objects/Instruments/panflute.png",198,17,198,0.7,"stim/11.jpeg",1,1,2,NA,"Instruments",2,2,"right","right",0.683000088,1,1,1,1,NA,NA,NA,NA,NA,NA,NA,NA,NA,NA,NA,NA,NA,NA,NA,NA,NA,NA,NA,NA,NA,NA,NA,NA
"178","stim/objects/Instruments/musicsheet2.png",199,17,199,0.9,"stim/32.jpeg",3,2,3,NA,"Instruments",2,4,"right","right",0.526000023,1,1,1,1,NA,NA,NA,NA,NA,NA,NA,NA,NA,NA,NA,NA,NA,NA,NA,NA,NA,NA,NA,NA,NA,NA,NA,NA
"141","stim/objects/Instruments/maraca.png",200,17,200,0.5,"stim/53.jpeg",5,3,1,NA,"Instruments",2,3,"right","left",0.539000273,0,0,1,1,NA,NA,NA,NA,NA,NA,NA,NA,NA,NA,NA,NA,NA,NA,NA,NA,NA,NA,NA,NA,NA,NA,NA,NA
"93","stim/objects/HouseObjects/remote2.png",201,17,201,0.9,"stim/42.jpeg",4,2,3,NA,"HouseObjects",1,3,"left","left",0.515000105,1,1,1,1,NA,NA,NA,NA,NA,NA,NA,NA,NA,NA,NA,NA,NA,NA,NA,NA,NA,NA,NA,NA,NA,NA,NA,NA
"231","stim/objects/Instruments/record_player.png",202,17,202,0.7,"stim/14.jpeg",1,4,2,NA,"Instruments",2,3,"right","right",0.586000204,1,1,1,1,NA,NA,NA,NA,NA,NA,NA,NA,NA,NA,NA,NA,NA,NA,NA,NA,NA,NA,NA,NA,NA,NA,NA,NA
"35","stim/objects/HouseObjects/key2.png",203,17,203,0.7,"stim/23.jpeg",2,3,2,NA,"HouseObjects",1,2,"left","left",0.574000359,1,1,1,1,NA,NA,NA,NA,NA,NA,NA,NA,NA,NA,NA,NA,NA,NA,NA,NA,NA,NA,NA,NA,NA,NA,NA,NA
"5","stim/objects/HouseObjects/iron.png",204,17,204,0.5,"stim/51.jpeg",5,1,1,NA,"HouseObjects",1,1,"left","left",0.719000101,1,1,1,1,NA,NA,NA,NA,NA,NA,NA,NA,NA,NA,NA,NA,NA,NA,NA,NA,NA,NA,NA,NA,NA,NA,NA,NA
"11","stim/objects/HouseObjects/iron2.png",205,17,205,0.7,"stim/21.jpeg",2,1,2,NA,"HouseObjects",1,2,"left","left",0.505000353,1,1,1,1,NA,NA,NA,NA,NA,NA,NA,NA,NA,NA,NA,NA,NA,NA,NA,NA,NA,NA,NA,NA,NA,NA,NA,NA
"118","stim/objects/HouseObjects/rug2.png",206,17,206,0.9,"stim/44.jpeg",4,4,3,NA,"HouseObjects",1,4,"left","left",0.707000256,1,1,1,1,NA,NA,NA,NA,NA,NA,NA,NA,NA,NA,NA,NA,NA,NA,NA,NA,NA,NA,NA,NA,NA,NA,NA,NA
"236","stim/objects/Instruments/record.png",207,17,207,0.7,"stim/13.jpeg",1,3,2,NA,"Instruments",2,1,"right","right",0.817000151,1,1,1,1,NA,NA,NA,NA,NA,NA,NA,NA,NA,NA,NA,NA,NA,NA,NA,NA,NA,NA,NA,NA,NA,NA,NA,NA
"53","stim/objects/HouseObjects/lintroller.png",208,17,208,0.5,"stim/61.jpeg",6,1,1,NA,"HouseObjects",1,2,"left","right",0.813000202,0,0,1,1,NA,NA,NA,NA,NA,NA,NA,NA,NA,NA,NA,NA,NA,NA,NA,NA,NA,NA,NA,NA,NA,NA,NA,NA
"207","stim/objects/Instruments/oboe2.png",209,17,209,0.9,"stim/34.jpeg",3,4,3,NA,"Instruments",2,2,"right","right",0.478000164,1,1,1,1,NA,NA,NA,NA,NA,NA,NA,NA,NA,NA,NA,NA,NA,NA,NA,NA,NA,NA,NA,NA,NA,NA,NA,NA
"237","stim/objects/Instruments/record.png",210,17,210,0.7,"stim/13.jpeg",1,3,2,NA,"Instruments",2,4,"right","right",0.923000097,1,1,1,1,NA,NA,NA,NA,NA,NA,NA,NA,NA,NA,NA,NA,NA,NA,NA,NA,NA,NA,NA,NA,NA,NA,NA,NA
"179","stim/objects/Instruments/musicsheet2.png",211,17,211,0.9,"stim/32.jpeg",3,2,3,NA,"Instruments",2,4,"right","right",0.509000301,1,1,1,1,NA,NA,NA,NA,NA,NA,NA,NA,NA,NA,NA,NA,NA,NA,NA,NA,NA,NA,NA,NA,NA,NA,NA,NA
"71","stim/objects/HouseObjects/pitcher.png",212,17,212,0.5,"stim/64.jpeg",6,4,1,NA,"HouseObjects",1,3,"left","right",0.642000198,0,0,1,1,NA,NA,NA,NA,NA,NA,NA,NA,NA,NA,NA,NA,NA,NA,NA,NA,NA,NA,NA,NA,NA,NA,NA,NA
"17","stim/objects/HouseObjects/ironingboard.png",213,17,213,0.5,"stim/52.jpeg",5,2,1,NA,"HouseObjects",1,2,"left","left",0.602000237,1,1,1,1,NA,NA,NA,NA,NA,NA,NA,NA,NA,NA,NA,NA,NA,NA,NA,NA,NA,NA,NA,NA,NA,NA,NA,NA
"65","stim/objects/HouseObjects/pan.png",214,17,214,0.5,"stim/63.jpeg",6,3,1,NA,"HouseObjects",1,1,"left","left",0.645000219,1,1,1,1,NA,NA,NA,NA,NA,NA,NA,NA,NA,NA,NA,NA,NA,NA,NA,NA,NA,NA,NA,NA,NA,NA,NA,NA
"66","stim/objects/HouseObjects/pan2.png",215,17,215,0.1,"stim/33.jpeg",3,3,3,NA,"HouseObjects",1,4,"left","right",0.698000193,0,0,1,1,NA,NA,NA,NA,NA,NA,NA,NA,NA,NA,NA,NA,NA,NA,NA,NA,NA,NA,NA,NA,NA,NA,NA,NA
"99","stim/objects/HouseObjects/rubbergloves.png",216,17,216,0.3,"stim/13.jpeg",1,3,2,NA,"HouseObjects",1,4,"left","right",0.516000032,0,0,1,1,NA,NA,NA,NA,NA,NA,NA,NA,NA,NA,NA,NA,NA,NA,NA,NA,NA,NA,NA,NA,NA,NA,NA,NA
"215","stim/objects/Instruments/panflute.png",217,17,217,0.7,"stim/11.jpeg",1,1,2,NA,"Instruments",2,3,"right","right",0.587000132,1,1,1,1,NA,NA,NA,NA,NA,NA,NA,NA,NA,NA,NA,NA,NA,NA,NA,NA,NA,NA,NA,NA,NA,NA,NA,NA
"166","stim/objects/Instruments/metronome2.png",218,17,218,0.9,"stim/31.jpeg",3,1,3,NA,"Instruments",2,2,"right","right",0.612000227,1,1,1,1,NA,NA,NA,NA,NA,NA,NA,NA,NA,NA,NA,NA,NA,NA,NA,NA,NA,NA,NA,NA,NA,NA,NA,NA
"23","stim/objects/HouseObjects/ironingboard2.png",219,17,219,0.7,"stim/22.jpeg",2,2,2,NA,"HouseObjects",1,4,"left","right",0.403000116,0,0,1,1,NA,NA,NA,NA,NA,NA,NA,NA,NA,NA,NA,NA,NA,NA,NA,NA,NA,NA,NA,NA,NA,NA,NA,NA
"59","stim/objects/HouseObjects/match.png",220,17,220,0.5,"stim/62.jpeg",6,2,1,NA,"HouseObjects",1,1,"left","right",0.634000301,0,0,1,1,NA,NA,NA,NA,NA,NA,NA,NA,NA,NA,NA,NA,NA,NA,NA,NA,NA,NA,NA,NA,NA,NA,NA,NA
"87","stim/objects/HouseObjects/remote.png",221,17,221,0.3,"stim/12.jpeg",1,2,2,NA,"HouseObjects",1,2,"left","right",0.637000084,0,0,1,1,NA,NA,NA,NA,NA,NA,NA,NA,NA,NA,NA,NA,NA,NA,NA,NA,NA,NA,NA,NA,NA,NA,NA,NA
"119","stim/objects/HouseObjects/rug2.png",222,17,222,0.9,"stim/44.jpeg",4,4,3,NA,"HouseObjects",1,4,"left","",NA,0,0,1,1,NA,NA,NA,NA,NA,NA,NA,NA,NA,NA,NA,NA,NA,NA,NA,NA,NA,NA,NA,NA,NA,NA,NA,NA
"120","stim/objects/HouseObjects/rug2.png",223,17,223,0.9,"stim/44.jpeg",4,4,3,NA,"HouseObjects",1,1,"left","left",0.362000227,1,1,1,1,NA,NA,NA,NA,NA,NA,NA,NA,NA,NA,NA,NA,NA,NA,NA,NA,NA,NA,NA,NA,NA,NA,NA,NA
"238","stim/objects/Instruments/record.png",224,17,224,0.7,"stim/13.jpeg",1,3,2,NA,"Instruments",2,4,"right","right",0.729000092,1,1,1,1,NA,NA,NA,NA,NA,NA,NA,NA,NA,NA,NA,NA,NA,NA,NA,NA,NA,NA,NA,NA,NA,NA,NA,NA
"36","stim/objects/HouseObjects/key2.png",225,17,225,0.7,"stim/23.jpeg",2,3,2,NA,"HouseObjects",1,2,"left","left",0.600000143,1,1,1,1,NA,NA,NA,NA,NA,NA,NA,NA,NA,NA,NA,NA,NA,NA,NA,NA,NA,NA,NA,NA,NA,NA,NA,NA
"194","stim/objects/Instruments/musicstand2.png",226,17,226,0.9,"stim/33.jpeg",3,3,3,NA,"Instruments",2,3,"right","right",0.525000095,1,1,1,1,NA,NA,NA,NA,NA,NA,NA,NA,NA,NA,NA,NA,NA,NA,NA,NA,NA,NA,NA,NA,NA,NA,NA,NA
"24","stim/objects/HouseObjects/ironingboard2.png",227,17,227,0.7,"stim/22.jpeg",2,2,2,NA,"HouseObjects",1,3,"left","left",0.756999969,1,1,1,1,NA,NA,NA,NA,NA,NA,NA,NA,NA,NA,NA,NA,NA,NA,NA,NA,NA,NA,NA,NA,NA,NA,NA,NA
"185","stim/objects/Instruments/musicstand.png",228,17,228,0.5,"stim/63.jpeg",6,3,1,NA,"Instruments",2,3,"right","right",0.904000044,1,1,1,1,NA,NA,NA,NA,NA,NA,NA,NA,NA,NA,NA,NA,NA,NA,NA,NA,NA,NA,NA,NA,NA,NA,NA,NA
"48","stim/objects/HouseObjects/knife2.png",229,17,229,0.7,"stim/24.jpeg",2,4,2,NA,"HouseObjects",1,4,"left","left",0.65500021,1,1,1,1,NA,NA,NA,NA,NA,NA,NA,NA,NA,NA,NA,NA,NA,NA,NA,NA,NA,NA,NA,NA,NA,NA,NA,NA
"136","stim/objects/Instruments/laud2.png",230,17,230,0.3,"stim/22.jpeg",2,2,2,NA,"Instruments",2,4,"right","left",0.517000198,0,0,1,1,NA,NA,NA,NA,NA,NA,NA,NA,NA,NA,NA,NA,NA,NA,NA,NA,NA,NA,NA,NA,NA,NA,NA,NA
"94","stim/objects/HouseObjects/remote2.png",231,17,231,0.9,"stim/42.jpeg",4,2,3,NA,"HouseObjects",1,4,"left","left",0.488000154,1,1,1,1,NA,NA,NA,NA,NA,NA,NA,NA,NA,NA,NA,NA,NA,NA,NA,NA,NA,NA,NA,NA,NA,NA,NA,NA
"239","stim/objects/Instruments/record.png",232,17,232,0.7,"stim/13.jpeg",1,3,2,NA,"Instruments",2,1,"right","right",0.660000086,1,1,1,1,NA,NA,NA,NA,NA,NA,NA,NA,NA,NA,NA,NA,NA,NA,NA,NA,NA,NA,NA,NA,NA,NA,NA,NA
"75","stim/objects/HouseObjects/recyclingbin.png",233,17,233,0.3,"stim/11.jpeg",1,1,2,NA,"HouseObjects",1,4,"left","right",0.63800025,0,0,1,1,NA,NA,NA,NA,NA,NA,NA,NA,NA,NA,NA,NA,NA,NA,NA,NA,NA,NA,NA,NA,NA,NA,NA,NA
"12","stim/objects/HouseObjects/iron2.png",234,17,234,0.7,"stim/21.jpeg",2,1,2,NA,"HouseObjects",1,2,"left","left",0.516000271,1,1,1,1,NA,NA,NA,NA,NA,NA,NA,NA,NA,NA,NA,NA,NA,NA,NA,NA,NA,NA,NA,NA,NA,NA,NA,NA
"95","stim/objects/HouseObjects/remote2.png",235,17,235,0.9,"stim/42.jpeg",4,2,3,NA,"HouseObjects",1,3,"left","left",0.527000189,1,1,1,1,NA,NA,NA,NA,NA,NA,NA,NA,NA,NA,NA,NA,NA,NA,NA,NA,NA,NA,NA,NA,NA,NA,NA,NA
"96","stim/objects/HouseObjects/remote2.png",236,17,236,0.9,"stim/42.jpeg",4,2,3,NA,"HouseObjects",1,2,"left","left",0.512000322,1,1,1,1,NA,NA,NA,NA,NA,NA,NA,NA,NA,NA,NA,NA,NA,NA,NA,NA,NA,NA,NA,NA,NA,NA,NA,NA
"180","stim/objects/Instruments/musicsheet2.png",237,17,237,0.9,"stim/32.jpeg",3,2,3,NA,"Instruments",2,4,"right","right",0.489000082,1,1,1,1,NA,NA,NA,NA,NA,NA,NA,NA,NA,NA,NA,NA,NA,NA,NA,NA,NA,NA,NA,NA,NA,NA,NA,NA
"108","stim/objects/HouseObjects/rubbergloves2.png",238,17,238,0.9,"stim/43.jpeg",4,3,3,NA,"HouseObjects",1,1,"left","left",0.489000082,1,1,1,1,NA,NA,NA,NA,NA,NA,NA,NA,NA,NA,NA,NA,NA,NA,NA,NA,NA,NA,NA,NA,NA,NA,NA,NA
"125","stim/objects/Instruments/keyboard.png",239,17,239,0.5,"stim/51.jpeg",5,1,1,NA,"Instruments",2,4,"right","left",0.552999973,0,0,1,1,NA,NA,NA,NA,NA,NA,NA,NA,NA,NA,NA,NA,NA,NA,NA,NA,NA,NA,NA,NA,NA,NA,NA,NA
"208","stim/objects/Instruments/oboe2.png",240,17,240,0.9,"stim/34.jpeg",3,4,3,NA,"Instruments",2,2,"right","right",0.709000111,1,1,1,1,NA,NA,NA,NA,NA,NA,NA,NA,NA,NA,NA,NA,NA,NA,NA,NA,NA,NA,NA,NA,NA,NA,NA,NA
"308","stim/objects/HouseObjects/dustpan.png",248,17,241,0.9,"stim/43.jpeg",4,3,3,2,"HouseObjects",1,4,"left","left",0.832000256,1,1,1,0,NA,NA,NA,NA,NA,NA,NA,NA,NA,NA,NA,NA,NA,NA,NA,NA,NA,NA,NA,NA,NA,NA,NA,NA
"325","stim/objects/HouseObjects/flyswatter.png",249,17,242,0.9,"stim/43.jpeg",4,3,3,2,"HouseObjects",1,4,"left","left",0.59100008,1,1,1,0,NA,NA,NA,NA,NA,NA,NA,NA,NA,NA,NA,NA,NA,NA,NA,NA,NA,NA,NA,NA,NA,NA,NA,NA
"490","stim/objects/Instruments/frenchhorn.png",250,17,243,0.9,"stim/31.jpeg",3,1,3,2,"Instruments",2,2,"right","right",0.822000027,1,1,1,0,NA,NA,NA,NA,NA,NA,NA,NA,NA,NA,NA,NA,NA,NA,NA,NA,NA,NA,NA,NA,NA,NA,NA,NA
"491","stim/objects/Instruments/frenchhorn.png",251,17,244,0.9,"stim/34.jpeg",3,4,3,2,"Instruments",2,2,"right","right",0.733000278,1,1,1,0,NA,NA,NA,NA,NA,NA,NA,NA,NA,NA,NA,NA,NA,NA,NA,NA,NA,NA,NA,NA,NA,NA,NA,NA
"342","stim/objects/HouseObjects/garbagebin.png",252,17,245,0.9,"stim/42.jpeg",4,2,3,2,"HouseObjects",1,2,"left","left",0.815000057,1,1,1,0,NA,NA,NA,NA,NA,NA,NA,NA,NA,NA,NA,NA,NA,NA,NA,NA,NA,NA,NA,NA,NA,NA,NA,NA
"524","stim/objects/Instruments/grandpiano.png",253,17,246,0.9,"stim/31.jpeg",3,1,3,2,"Instruments",2,4,"right","right",0.536000252,1,1,1,0,NA,NA,NA,NA,NA,NA,NA,NA,NA,NA,NA,NA,NA,NA,NA,NA,NA,NA,NA,NA,NA,NA,NA,NA
"523","stim/objects/Instruments/gong2.png",254,17,247,0.9,"stim/32.jpeg",3,2,3,1,"Instruments",2,2,"right","right",0.64800024,1,1,1,0,162,17,1,0.9,2,"stim/32.jpeg",3,2,"stim/32.jpeg",2,"right",1.162999868,2,2,0.832000017,3,7.236999989,162,0,1,NA,0,NA,1
"451","stim/objects/Instruments/electricdrumset2.png",255,17,248,0.3,"stim/22.jpeg",2,2,2,1,"Instruments",2,2,"right","right",0.691000223,1,1,1,0,126,17,1,0.3,2,"stim/22.jpeg",2,2,"stim/22.jpeg",2,"left",1.239999771,3,1,2.284999847,2,1.749000072,126,1,0,0,1,1,1
"456","stim/objects/Instruments/flute.png",256,17,249,0.9,"stim/33.jpeg",3,3,3,2,"Instruments",2,1,"right","left",0.482000113,0,0,1,0,NA,NA,NA,NA,NA,NA,NA,NA,NA,NA,NA,NA,NA,NA,NA,NA,NA,NA,NA,NA,NA,NA,NA,NA
"436","stim/objects/Instruments/cymbal.png",257,17,250,0.7,"stim/13.jpeg",1,3,2,2,"Instruments",2,2,"right","right",0.644999981,1,1,1,0,NA,NA,NA,NA,NA,NA,NA,NA,NA,NA,NA,NA,NA,NA,NA,NA,NA,NA,NA,NA,NA,NA,NA,NA
"326","stim/objects/HouseObjects/flyswatter.png",258,17,251,0.9,"stim/41.jpeg",4,1,3,2,"HouseObjects",1,1,"left","left",0.467000246,1,1,1,0,NA,NA,NA,NA,NA,NA,NA,NA,NA,NA,NA,NA,NA,NA,NA,NA,NA,NA,NA,NA,NA,NA,NA,NA
"444","stim/objects/Instruments/drums.png",259,17,252,0.7,"stim/13.jpeg",1,3,2,2,"Instruments",2,2,"right","right",0.593000174,1,1,1,0,NA,NA,NA,NA,NA,NA,NA,NA,NA,NA,NA,NA,NA,NA,NA,NA,NA,NA,NA,NA,NA,NA,NA,NA
"343","stim/objects/HouseObjects/garbagebin.png",260,17,253,0.9,"stim/42.jpeg",4,2,3,2,"HouseObjects",1,4,"left","left",0.701000214,1,1,1,0,NA,NA,NA,NA,NA,NA,NA,NA,NA,NA,NA,NA,NA,NA,NA,NA,NA,NA,NA,NA,NA,NA,NA,NA
"327","stim/objects/HouseObjects/flyswatter.png",261,17,254,0.9,"stim/43.jpeg",4,3,3,2,"HouseObjects",1,4,"left","left",0.769999981,1,1,1,0,NA,NA,NA,NA,NA,NA,NA,NA,NA,NA,NA,NA,NA,NA,NA,NA,NA,NA,NA,NA,NA,NA,NA,NA
"414","stim/objects/Instruments/balalaika2.png",262,17,255,0.7,"stim/11.jpeg",1,1,2,1,"Instruments",2,4,"right","right",0.721000195,1,1,1,0,170,17,1,0.7,2,"stim/11.jpeg",1,1,"stim/11.jpeg",4,"left",4.61500001,3,3,8.137000084,2,2.690000057,170,1,0,0,0,0,1
"250","stim/objects/HouseObjects/basket.png",263,17,256,0.5,"stim/51.jpeg",5,1,1,2,"HouseObjects",1,1,"left","right",0.750000238,0,0,1,0,NA,NA,NA,NA,NA,NA,NA,NA,NA,NA,NA,NA,NA,NA,NA,NA,NA,NA,NA,NA,NA,NA,NA,NA
"556","stim/objects/Instruments/timbal2.png",264,17,257,0.1,"stim/41.jpeg",4,1,3,1,"Instruments",2,1,"right","left",0.707000256,0,0,1,0,112,17,1,0.1,2,"stim/41.jpeg",4,1,"stim/41.jpeg",1,"left",2.296999931,4,1,6.244999886,2,2.763000011,112,1,1,1,0,0,1
"359","stim/objects/HouseObjects/glass.png",265,17,258,0.9,"stim/44.jpeg",4,4,3,2,"HouseObjects",1,4,"left","left",0.659000158,1,1,1,0,NA,NA,NA,NA,NA,NA,NA,NA,NA,NA,NA,NA,NA,NA,NA,NA,NA,NA,NA,NA,NA,NA,NA,NA
"309","stim/objects/HouseObjects/dustpan.png",266,17,259,0.9,"stim/42.jpeg",4,2,3,2,"HouseObjects",1,4,"left","left",0.569000244,1,1,1,0,NA,NA,NA,NA,NA,NA,NA,NA,NA,NA,NA,NA,NA,NA,NA,NA,NA,NA,NA,NA,NA,NA,NA,NA
"489","stim/objects/Instruments/flutetrans2.png",267,17,260,0.9,"stim/34.jpeg",3,4,3,1,"Instruments",2,4,"right","right",0.65500021,1,1,1,0,164,17,1,0.9,2,"stim/34.jpeg",3,4,"stim/34.jpeg",4,"left",1.200999975,3,4,4.977999926,1,1.910000086,164,1,1,1,0,0,1
"287","stim/objects/HouseObjects/dishsoap.png",268,17,261,0.7,"stim/23.jpeg",2,3,2,2,"HouseObjects",1,1,"left","left",0.659000158,1,1,1,0,NA,NA,NA,NA,NA,NA,NA,NA,NA,NA,NA,NA,NA,NA,NA,NA,NA,NA,NA,NA,NA,NA,NA,NA
"540","stim/objects/Instruments/grandpiano2.png",269,17,262,0.9,"stim/33.jpeg",3,3,3,1,"Instruments",2,2,"right","right",0.569000244,1,1,1,0,160,17,1,0.9,2,"stim/33.jpeg",3,3,"stim/33.jpeg",2,"left",1.821000099,3,3,3.222000122,2,2.571000099,160,1,1,1,1,1,1
"328","stim/objects/HouseObjects/flyswatter.png",270,17,263,0.9,"stim/43.jpeg",4,3,3,2,"HouseObjects",1,1,"left","left",0.553000212,1,1,1,0,NA,NA,NA,NA,NA,NA,NA,NA,NA,NA,NA,NA,NA,NA,NA,NA,NA,NA,NA,NA,NA,NA,NA,NA
"421","stim/objects/Instruments/bassguitar.png",271,17,264,0.5,"stim/62.jpeg",6,2,1,2,"Instruments",2,4,"right","left",0.859000206,0,0,1,0,NA,NA,NA,NA,NA,NA,NA,NA,NA,NA,NA,NA,NA,NA,NA,NA,NA,NA,NA,NA,NA,NA,NA,NA
"329","stim/objects/HouseObjects/flyswatter.png",272,17,265,0.9,"stim/42.jpeg",4,2,3,2,"HouseObjects",1,1,"left","left",0.721000195,1,1,1,0,NA,NA,NA,NA,NA,NA,NA,NA,NA,NA,NA,NA,NA,NA,NA,NA,NA,NA,NA,NA,NA,NA,NA,NA
"270","stim/objects/HouseObjects/clock2.png",273,17,266,0.7,"stim/24.jpeg",2,4,2,1,"HouseObjects",1,3,"left","left",0.697000265,1,1,1,0,152,17,1,0.7,1,"stim/24.jpeg",2,4,"stim/24.jpeg",3,"left",1.986000061,3,2,4.263999939,2,15.24399996,152,1,0,0,0,0,1
"424","stim/objects/Instruments/cello.png",274,17,267,0.5,"stim/64.jpeg",6,4,1,2,"Instruments",2,4,"right","right",0.87100029,1,1,1,0,NA,NA,NA,NA,NA,NA,NA,NA,NA,NA,NA,NA,NA,NA,NA,NA,NA,NA,NA,NA,NA,NA,NA,NA
"330","stim/objects/HouseObjects/flyswatter.png",275,17,268,0.9,"stim/44.jpeg",4,4,3,2,"HouseObjects",1,3,"left","left",0.732000113,1,1,1,0,NA,NA,NA,NA,NA,NA,NA,NA,NA,NA,NA,NA,NA,NA,NA,NA,NA,NA,NA,NA,NA,NA,NA,NA
"551","stim/objects/Instruments/speaker.png",276,17,269,0.5,"stim/64.jpeg",6,4,1,1,"Instruments",2,1,"right","right",0.804000139,1,1,1,0,18,17,1,0.5,2,"stim/64.jpeg",6,4,"stim/64.jpeg",1,"left",0.833000183,4,2,1.812999964,1,1.274999857,18,1,0,0,1,1,1
"310","stim/objects/HouseObjects/dustpan.png",277,17,270,0.9,"stim/43.jpeg",4,3,3,2,"HouseObjects",1,2,"left","left",0.657000303,1,1,1,0,NA,NA,NA,NA,NA,NA,NA,NA,NA,NA,NA,NA,NA,NA,NA,NA,NA,NA,NA,NA,NA,NA,NA,NA
"276","stim/objects/HouseObjects/clothespin.png",278,17,271,0.7,"stim/22.jpeg",2,2,2,2,"HouseObjects",1,1,"left","left",0.519000053,1,1,1,0,NA,NA,NA,NA,NA,NA,NA,NA,NA,NA,NA,NA,NA,NA,NA,NA,NA,NA,NA,NA,NA,NA,NA,NA
"362","stim/objects/HouseObjects/glass.png",279,17,272,0.9,"stim/41.jpeg",4,1,3,2,"HouseObjects",1,2,"left","left",0.561000109,1,1,1,0,NA,NA,NA,NA,NA,NA,NA,NA,NA,NA,NA,NA,NA,NA,NA,NA,NA,NA,NA,NA,NA,NA,NA,NA
"292","stim/objects/HouseObjects/doormat.png",280,17,273,0.9,"stim/41.jpeg",4,1,3,2,"HouseObjects",1,4,"left","left",0.56400013,1,1,1,0,NA,NA,NA,NA,NA,NA,NA,NA,NA,NA,NA,NA,NA,NA,NA,NA,NA,NA,NA,NA,NA,NA,NA,NA
"507","stim/objects/Instruments/gong.png",281,17,274,0.9,"stim/31.jpeg",3,1,3,2,"Instruments",2,4,"right","right",0.776000023,1,1,1,0,NA,NA,NA,NA,NA,NA,NA,NA,NA,NA,NA,NA,NA,NA,NA,NA,NA,NA,NA,NA,NA,NA,NA,NA
"311","stim/objects/HouseObjects/dustpan.png",282,17,275,0.9,"stim/42.jpeg",4,2,3,2,"HouseObjects",1,3,"left","left",0.616000175,1,1,1,0,NA,NA,NA,NA,NA,NA,NA,NA,NA,NA,NA,NA,NA,NA,NA,NA,NA,NA,NA,NA,NA,NA,NA,NA
"331","stim/objects/HouseObjects/flyswatter.png",283,17,276,0.9,"stim/41.jpeg",4,1,3,2,"HouseObjects",1,1,"left","left",0.554000139,1,1,1,0,NA,NA,NA,NA,NA,NA,NA,NA,NA,NA,NA,NA,NA,NA,NA,NA,NA,NA,NA,NA,NA,NA,NA,NA
"344","stim/objects/HouseObjects/garbagebin.png",284,17,277,0.9,"stim/43.jpeg",4,3,3,2,"HouseObjects",1,2,"left","left",0.539999962,1,1,1,0,NA,NA,NA,NA,NA,NA,NA,NA,NA,NA,NA,NA,NA,NA,NA,NA,NA,NA,NA,NA,NA,NA,NA,NA
"542","stim/objects/Instruments/guitarcase2.png",285,17,278,0.9,"stim/34.jpeg",3,4,3,1,"Instruments",2,4,"right","right",0.601999998,1,1,1,0,55,17,1,0.9,2,"stim/34.jpeg",3,4,"stim/34.jpeg",4,"right",3.171000004,2,2,2.617000103,3,3.672999859,55,0,0,NA,0,NA,1
"378","stim/objects/HouseObjects/hairdryer.png",286,17,279,0.5,"stim/54.jpeg",5,4,1,1,"HouseObjects",1,3,"left","right",0.7900002,0,0,1,0,180,17,1,0.5,1,"stim/54.jpeg",5,4,"stim/54.jpeg",3,"right",3.944999933,3,3,5.638999939,3,3.615999937,180,0,0,NA,1,NA,1
"363","stim/objects/HouseObjects/glass.png",287,17,280,0.9,"stim/42.jpeg",4,2,3,2,"HouseObjects",1,4,"left","left",0.779999971,1,1,1,0,NA,NA,NA,NA,NA,NA,NA,NA,NA,NA,NA,NA,NA,NA,NA,NA,NA,NA,NA,NA,NA,NA,NA,NA
"312","stim/objects/HouseObjects/dustpan.png",288,17,281,0.9,"stim/41.jpeg",4,1,3,2,"HouseObjects",1,2,"left","left",0.588000298,1,1,1,0,NA,NA,NA,NA,NA,NA,NA,NA,NA,NA,NA,NA,NA,NA,NA,NA,NA,NA,NA,NA,NA,NA,NA,NA
"401","stim/objects/HouseObjects/towel2.png",289,17,282,0.9,"stim/44.jpeg",4,4,3,1,"HouseObjects",1,3,"left","left",0.519000053,1,1,1,0,101,17,1,0.9,1,"stim/44.jpeg",4,4,"stim/44.jpeg",3,"left",1.309000015,3,2,2.611999989,3,2.247999907,101,1,0,0,1,1,1
"452","stim/objects/Instruments/electricguitar.png",290,17,283,0.7,"stim/14.jpeg",1,4,2,2,"Instruments",2,4,"right","right",0.544000149,1,1,1,0,NA,NA,NA,NA,NA,NA,NA,NA,NA,NA,NA,NA,NA,NA,NA,NA,NA,NA,NA,NA,NA,NA,NA,NA
"294","stim/objects/HouseObjects/doormat.png",291,17,284,0.9,"stim/43.jpeg",4,3,3,2,"HouseObjects",1,3,"left","left",0.618000031,1,1,1,0,NA,NA,NA,NA,NA,NA,NA,NA,NA,NA,NA,NA,NA,NA,NA,NA,NA,NA,NA,NA,NA,NA,NA,NA
"569","stim/objects/Instruments/xylophone.png",292,17,285,0.7,"stim/12.jpeg",1,2,2,1,"Instruments",2,3,"right","left",0.695000172,0,0,1,0,48,17,1,0.7,2,"stim/12.jpeg",1,2,"stim/12.jpeg",3,"right",0.894000053,2,2,1.061999798,3,1.49000001,48,0,1,NA,1,NA,1
"459","stim/objects/Instruments/flute.png",293,17,286,0.9,"stim/32.jpeg",3,2,3,2,"Instruments",2,2,"right","right",0.616000175,1,1,1,0,NA,NA,NA,NA,NA,NA,NA,NA,NA,NA,NA,NA,NA,NA,NA,NA,NA,NA,NA,NA,NA,NA,NA,NA
"492","stim/objects/Instruments/frenchhorn.png",294,17,287,0.9,"stim/32.jpeg",3,2,3,2,"Instruments",2,4,"right","right",0.54700017,1,1,1,0,NA,NA,NA,NA,NA,NA,NA,NA,NA,NA,NA,NA,NA,NA,NA,NA,NA,NA,NA,NA,NA,NA,NA,NA
"332","stim/objects/HouseObjects/flyswatter.png",295,17,288,0.9,"stim/41.jpeg",4,1,3,2,"HouseObjects",1,1,"left","left",0.470000267,1,1,1,0,NA,NA,NA,NA,NA,NA,NA,NA,NA,NA,NA,NA,NA,NA,NA,NA,NA,NA,NA,NA,NA,NA,NA,NA
"508","stim/objects/Instruments/gong.png",296,17,289,0.9,"stim/34.jpeg",3,4,3,2,"Instruments",2,4,"right","right",0.517000198,1,1,1,0,NA,NA,NA,NA,NA,NA,NA,NA,NA,NA,NA,NA,NA,NA,NA,NA,NA,NA,NA,NA,NA,NA,NA,NA
"525","stim/objects/Instruments/grandpiano.png",297,17,290,0.9,"stim/31.jpeg",3,1,3,2,"Instruments",2,2,"right","right",0.63800025,1,1,1,0,NA,NA,NA,NA,NA,NA,NA,NA,NA,NA,NA,NA,NA,NA,NA,NA,NA,NA,NA,NA,NA,NA,NA,NA
"345","stim/objects/HouseObjects/garbagebin.png",298,17,291,0.9,"stim/41.jpeg",4,1,3,2,"HouseObjects",1,4,"left","",NA,0,0,1,0,NA,NA,NA,NA,NA,NA,NA,NA,NA,NA,NA,NA,NA,NA,NA,NA,NA,NA,NA,NA,NA,NA,NA,NA
"509","stim/objects/Instruments/gong.png",299,17,292,0.9,"stim/33.jpeg",3,3,3,2,"Instruments",2,2,"right","right",0.731000185,1,1,1,0,NA,NA,NA,NA,NA,NA,NA,NA,NA,NA,NA,NA,NA,NA,NA,NA,NA,NA,NA,NA,NA,NA,NA,NA
"246","stim/objects/HouseObjects/ballofstring2.png",300,17,293,0.3,"stim/13.jpeg",1,3,2,1,"HouseObjects",1,3,"left","right",0.691000223,0,0,1,0,78,17,1,0.3,1,"stim/13.jpeg",1,3,"stim/13.jpeg",3,"left",1.241999865,3,2,1.621999979,3,1.157000065,78,1,0,0,1,1,1
"510","stim/objects/Instruments/gong.png",301,17,294,0.9,"stim/34.jpeg",3,4,3,2,"Instruments",2,4,"right","right",0.566000223,1,1,1,0,NA,NA,NA,NA,NA,NA,NA,NA,NA,NA,NA,NA,NA,NA,NA,NA,NA,NA,NA,NA,NA,NA,NA,NA
"282","stim/objects/HouseObjects/coffee2.png",302,17,295,0.7,"stim/23.jpeg",2,3,2,1,"HouseObjects",1,2,"left","left",0.580000162,1,1,1,0,86,17,1,0.7,1,"stim/23.jpeg",2,3,"stim/23.jpeg",2,"left",2.131000042,3,2,3.071000099,2,2.417000055,86,1,0,0,1,1,1
"364","stim/objects/HouseObjects/glass.png",303,17,296,0.9,"stim/42.jpeg",4,2,3,2,"HouseObjects",1,3,"left","left",0.476999998,1,1,1,0,NA,NA,NA,NA,NA,NA,NA,NA,NA,NA,NA,NA,NA,NA,NA,NA,NA,NA,NA,NA,NA,NA,NA,NA
"295","stim/objects/HouseObjects/doormat.png",304,17,297,0.9,"stim/41.jpeg",4,1,3,2,"HouseObjects",1,2,"left","left",0.533000231,1,1,1,0,NA,NA,NA,NA,NA,NA,NA,NA,NA,NA,NA,NA,NA,NA,NA,NA,NA,NA,NA,NA,NA,NA,NA,NA
"365","stim/objects/HouseObjects/glass.png",305,17,298,0.9,"stim/44.jpeg",4,4,3,2,"HouseObjects",1,3,"left","left",0.566000223,1,1,1,0,NA,NA,NA,NA,NA,NA,NA,NA,NA,NA,NA,NA,NA,NA,NA,NA,NA,NA,NA,NA,NA,NA,NA,NA
"554","stim/objects/Instruments/tambourine2.png",306,17,299,0.1,"stim/44.jpeg",4,4,3,1,"Instruments",2,4,"right","left",0.616000175,0,0,1,0,51,17,1,0.1,2,"stim/44.jpeg",4,4,"stim/44.jpeg",4,"right",1.069000006,2,3,1.507999897,3,2.095999956,51,0,0,NA,0,NA,1
"511","stim/objects/Instruments/gong.png",307,17,300,0.9,"stim/34.jpeg",3,4,3,2,"Instruments",2,1,"right","left",0.593000174,0,0,1,0,NA,NA,NA,NA,NA,NA,NA,NA,NA,NA,NA,NA,NA,NA,NA,NA,NA,NA,NA,NA,NA,NA,NA,NA
"283","stim/objects/HouseObjects/cushion.png",308,17,301,0.7,"stim/22.jpeg",2,2,2,2,"HouseObjects",1,3,"left","left",0.560000181,1,1,1,0,NA,NA,NA,NA,NA,NA,NA,NA,NA,NA,NA,NA,NA,NA,NA,NA,NA,NA,NA,NA,NA,NA,NA,NA
"366","stim/objects/HouseObjects/glass.png",309,17,302,0.9,"stim/43.jpeg",4,3,3,2,"HouseObjects",1,4,"left","left",0.618999958,1,1,1,0,NA,NA,NA,NA,NA,NA,NA,NA,NA,NA,NA,NA,NA,NA,NA,NA,NA,NA,NA,NA,NA,NA,NA,NA
"493","stim/objects/Instruments/frenchhorn.png",310,17,303,0.9,"stim/31.jpeg",3,1,3,2,"Instruments",2,1,"right","right",0.584000111,1,1,1,0,NA,NA,NA,NA,NA,NA,NA,NA,NA,NA,NA,NA,NA,NA,NA,NA,NA,NA,NA,NA,NA,NA,NA,NA
"259","stim/objects/HouseObjects/bottle.png",311,17,304,0.5,"stim/61.jpeg",6,1,1,2,"HouseObjects",1,2,"left","right",0.828000069,0,0,1,0,NA,NA,NA,NA,NA,NA,NA,NA,NA,NA,NA,NA,NA,NA,NA,NA,NA,NA,NA,NA,NA,NA,NA,NA
"476","stim/objects/Instruments/flutetrans.png",312,17,305,0.9,"stim/31.jpeg",3,1,3,2,"Instruments",2,3,"right","right",0.62100029,1,1,1,0,NA,NA,NA,NA,NA,NA,NA,NA,NA,NA,NA,NA,NA,NA,NA,NA,NA,NA,NA,NA,NA,NA,NA,NA
"288","stim/objects/HouseObjects/dishsoap.png",313,17,306,0.7,"stim/22.jpeg",2,2,2,2,"HouseObjects",1,2,"left","right",0.732000351,0,0,1,0,NA,NA,NA,NA,NA,NA,NA,NA,NA,NA,NA,NA,NA,NA,NA,NA,NA,NA,NA,NA,NA,NA,NA,NA
"271","stim/objects/HouseObjects/clothesdryingrack.png",314,17,307,0.7,"stim/21.jpeg",2,1,2,2,"HouseObjects",1,1,"left","left",0.820000172,1,1,1,0,NA,NA,NA,NA,NA,NA,NA,NA,NA,NA,NA,NA,NA,NA,NA,NA,NA,NA,NA,NA,NA,NA,NA,NA
"564","stim/objects/Instruments/tuba2.png",315,17,308,0.1,"stim/41.jpeg",4,1,3,1,"Instruments",2,3,"right","left",0.465000153,0,0,1,0,100,17,1,0.1,2,"stim/41.jpeg",4,1,"stim/41.jpeg",3,"right",2.023000002,1,2,1.563000202,3,8.375999928,100,0,0,NA,1,NA,1
"460","stim/objects/Instruments/flute.png",316,17,309,0.9,"stim/34.jpeg",3,4,3,2,"Instruments",2,1,"right","right",0.598999977,1,1,1,0,NA,NA,NA,NA,NA,NA,NA,NA,NA,NA,NA,NA,NA,NA,NA,NA,NA,NA,NA,NA,NA,NA,NA,NA
"247","stim/objects/HouseObjects/barbecuelighter.png",317,17,310,0.5,"stim/53.jpeg",5,3,1,2,"HouseObjects",1,1,"left","right",0.700000048,0,0,1,0,NA,NA,NA,NA,NA,NA,NA,NA,NA,NA,NA,NA,NA,NA,NA,NA,NA,NA,NA,NA,NA,NA,NA,NA
"253","stim/objects/HouseObjects/bleachbottle.png",318,17,311,0.5,"stim/51.jpeg",5,1,1,2,"HouseObjects",1,4,"left","right",0.778000116,0,0,1,0,NA,NA,NA,NA,NA,NA,NA,NA,NA,NA,NA,NA,NA,NA,NA,NA,NA,NA,NA,NA,NA,NA,NA,NA
"461","stim/objects/Instruments/flute.png",319,17,312,0.9,"stim/33.jpeg",3,3,3,2,"Instruments",2,1,"right","right",0.666000128,1,1,1,0,NA,NA,NA,NA,NA,NA,NA,NA,NA,NA,NA,NA,NA,NA,NA,NA,NA,NA,NA,NA,NA,NA,NA,NA
"406","stim/objects/Instruments/accordion.png",320,17,313,0.5,"stim/51.jpeg",5,1,1,2,"Instruments",2,2,"right","right",0.850000143,1,1,1,0,NA,NA,NA,NA,NA,NA,NA,NA,NA,NA,NA,NA,NA,NA,NA,NA,NA,NA,NA,NA,NA,NA,NA,NA
"423","stim/objects/Instruments/bassguitar2.png",321,17,314,0.3,"stim/22.jpeg",2,2,2,1,"Instruments",2,4,"right","left",0.876000166,0,0,1,0,65,17,1,0.3,2,"stim/22.jpeg",2,2,"stim/22.jpeg",4,"left",4.947999954,3,3,3.30700016,4,3.523999929,65,1,0,0,1,1,1
"286","stim/objects/HouseObjects/cushion2.png",322,17,315,0.7,"stim/24.jpeg",2,4,2,1,"HouseObjects",1,4,"left","left",0.595000029,1,1,1,0,147,17,1,0.7,1,"stim/24.jpeg",2,4,"stim/24.jpeg",4,"right",1.692000151,4,2,4.381000042,4,2.329999924,147,0,0,NA,1,NA,1
"432","stim/objects/Instruments/clarinet2.png",323,17,316,0.3,"stim/21.jpeg",2,1,2,1,"Instruments",2,1,"right","left",0.531000137,0,0,1,0,64,17,1,0.3,2,"stim/21.jpeg",2,1,"stim/21.jpeg",1,"left",1.09499979,3,1,2.370000124,2,1.767999887,64,1,1,1,0,0,1
"559","stim/objects/Instruments/trombone.png",324,17,317,0.5,"stim/64.jpeg",6,4,1,1,"Instruments",2,1,"right","right",0.492000103,1,1,1,0,61,17,1,0.5,2,"stim/64.jpeg",6,4,"stim/64.jpeg",1,"right",2.537999868,3,3,3.158000231,1,2.893000126,61,0,0,NA,1,NA,1
"265","stim/objects/HouseObjects/bucket.png",325,17,318,0.5,"stim/63.jpeg",6,3,1,2,"HouseObjects",1,2,"left","right",0.757000208,0,0,1,0,NA,NA,NA,NA,NA,NA,NA,NA,NA,NA,NA,NA,NA,NA,NA,NA,NA,NA,NA,NA,NA,NA,NA,NA
"527","stim/objects/Instruments/grandpiano.png",326,17,319,0.9,"stim/34.jpeg",3,4,3,2,"Instruments",2,4,"right","right",0.647000074,1,1,1,0,NA,NA,NA,NA,NA,NA,NA,NA,NA,NA,NA,NA,NA,NA,NA,NA,NA,NA,NA,NA,NA,NA,NA,NA
"439","stim/objects/Instruments/cymbal2.png",327,17,320,0.3,"stim/23.jpeg",2,3,2,1,"Instruments",2,4,"right","right",0.690000057,1,1,1,0,98,17,1,0.3,2,"stim/23.jpeg",2,3,"stim/23.jpeg",4,"left",1.628000021,3,3,4.713999987,3,6.444000006,98,1,1,1,0,0,1
"266","stim/objects/HouseObjects/bucket.png",328,17,321,0.5,"stim/62.jpeg",6,2,1,2,"HouseObjects",1,4,"left","",NA,0,0,1,0,NA,NA,NA,NA,NA,NA,NA,NA,NA,NA,NA,NA,NA,NA,NA,NA,NA,NA,NA,NA,NA,NA,NA,NA
"528","stim/objects/Instruments/grandpiano.png",329,17,322,0.9,"stim/33.jpeg",3,3,3,2,"Instruments",2,2,"right","right",0.565000057,1,1,1,0,NA,NA,NA,NA,NA,NA,NA,NA,NA,NA,NA,NA,NA,NA,NA,NA,NA,NA,NA,NA,NA,NA,NA,NA
"296","stim/objects/HouseObjects/doormat.png",330,17,323,0.9,"stim/42.jpeg",4,2,3,2,"HouseObjects",1,1,"left","right",0.454000235,0,0,1,0,NA,NA,NA,NA,NA,NA,NA,NA,NA,NA,NA,NA,NA,NA,NA,NA,NA,NA,NA,NA,NA,NA,NA,NA
"380","stim/objects/HouseObjects/handbrush.png",331,17,324,0.5,"stim/51.jpeg",5,1,1,1,"HouseObjects",1,1,"left","left",0.914999962,1,1,1,0,194,17,1,0.5,1,"stim/51.jpeg",5,1,"stim/51.jpeg",1,"left",11.29699993,3,2,3.757999897,4,9.325000048,194,1,0,0,0,0,1
"261","stim/objects/HouseObjects/bottle2.png",332,17,325,0.7,"stim/21.jpeg",2,1,2,1,"HouseObjects",1,1,"left","left",0.641000271,1,1,1,0,31,17,1,0.7,1,"stim/21.jpeg",2,1,"stim/21.jpeg",1,"right",1.419000149,2,3,2.019000053,3,1.652999878,31,0,0,NA,0,NA,1
"290","stim/objects/HouseObjects/dishsoap2.png",333,17,326,0.7,"stim/21.jpeg",2,1,2,1,"HouseObjects",1,4,"left","left",0.861000299,1,1,1,0,80,17,1,0.7,1,"stim/21.jpeg",2,1,"stim/21.jpeg",4,"left",0.846000195,4,1,6.476999998,3,2.59100008,80,1,1,1,0,0,1
"379","stim/objects/HouseObjects/hairdryer2.png",334,17,327,0.1,"stim/33.jpeg",3,3,3,1,"HouseObjects",1,3,"left","right",0.50600028,0,0,1,0,175,17,1,0.1,1,"stim/33.jpeg",3,3,"stim/33.jpeg",3,"left",1.055000067,3,2,0.960999966,2,5.034999847,175,1,0,0,0,0,1
"477","stim/objects/Instruments/flutetrans.png",335,17,328,0.9,"stim/34.jpeg",3,4,3,2,"Instruments",2,3,"right","right",0.59700036,1,1,1,0,NA,NA,NA,NA,NA,NA,NA,NA,NA,NA,NA,NA,NA,NA,NA,NA,NA,NA,NA,NA,NA,NA,NA,NA
"453","stim/objects/Instruments/electricguitar.png",336,17,329,0.7,"stim/11.jpeg",1,1,2,2,"Instruments",2,2,"right","right",0.669000149,1,1,1,0,NA,NA,NA,NA,NA,NA,NA,NA,NA,NA,NA,NA,NA,NA,NA,NA,NA,NA,NA,NA,NA,NA,NA,NA
"448","stim/objects/Instruments/electricdrumset.png",337,17,330,0.7,"stim/12.jpeg",1,2,2,2,"Instruments",2,1,"right","right",0.600000143,1,1,1,0,NA,NA,NA,NA,NA,NA,NA,NA,NA,NA,NA,NA,NA,NA,NA,NA,NA,NA,NA,NA,NA,NA,NA,NA
"430","stim/objects/Instruments/clarinet.png",338,17,331,0.5,"stim/62.jpeg",6,2,1,2,"Instruments",2,2,"right","left",0.68900013,0,0,1,0,NA,NA,NA,NA,NA,NA,NA,NA,NA,NA,NA,NA,NA,NA,NA,NA,NA,NA,NA,NA,NA,NA,NA,NA
"449","stim/objects/Instruments/electricdrumset.png",339,17,332,0.7,"stim/13.jpeg",1,3,2,2,"Instruments",2,4,"right","right",0.710000038,1,1,1,0,NA,NA,NA,NA,NA,NA,NA,NA,NA,NA,NA,NA,NA,NA,NA,NA,NA,NA,NA,NA,NA,NA,NA,NA
"478","stim/objects/Instruments/flutetrans.png",340,17,333,0.9,"stim/32.jpeg",3,2,3,2,"Instruments",2,1,"right","right",0.85800004,1,1,1,0,NA,NA,NA,NA,NA,NA,NA,NA,NA,NA,NA,NA,NA,NA,NA,NA,NA,NA,NA,NA,NA,NA,NA,NA
"279","stim/objects/HouseObjects/coffee.png",341,17,334,0.7,"stim/23.jpeg",2,3,2,2,"HouseObjects",1,3,"left","",NA,0,0,1,0,NA,NA,NA,NA,NA,NA,NA,NA,NA,NA,NA,NA,NA,NA,NA,NA,NA,NA,NA,NA,NA,NA,NA,NA
"426","stim/objects/Instruments/cello2.png",342,17,335,0.3,"stim/23.jpeg",2,3,2,1,"Instruments",2,3,"right","left",0.467000008,0,0,1,0,6,17,1,0.3,2,"stim/23.jpeg",2,3,"stim/23.jpeg",3,"left",3.013000011,4,3,5.912000179,3,2.322999954,6,1,1,1,1,1,1
"349","stim/objects/HouseObjects/garbagebin.png",343,17,336,0.9,"stim/41.jpeg",4,1,3,2,"HouseObjects",1,2,"left","left",0.536999941,1,1,1,0,NA,NA,NA,NA,NA,NA,NA,NA,NA,NA,NA,NA,NA,NA,NA,NA,NA,NA,NA,NA,NA,NA,NA,NA
"350","stim/objects/HouseObjects/garbagebin.png",344,17,337,0.9,"stim/44.jpeg",4,4,3,2,"HouseObjects",1,1,"left","left",0.418000221,1,1,1,0,NA,NA,NA,NA,NA,NA,NA,NA,NA,NA,NA,NA,NA,NA,NA,NA,NA,NA,NA,NA,NA,NA,NA,NA
"298","stim/objects/HouseObjects/doormat.png",345,17,338,0.9,"stim/43.jpeg",4,3,3,2,"HouseObjects",1,4,"left","left",0.511000156,1,1,1,0,NA,NA,NA,NA,NA,NA,NA,NA,NA,NA,NA,NA,NA,NA,NA,NA,NA,NA,NA,NA,NA,NA,NA,NA
"463","stim/objects/Instruments/flute.png",346,17,339,0.9,"stim/31.jpeg",3,1,3,2,"Instruments",2,2,"right","right",0.551000118,1,1,1,0,NA,NA,NA,NA,NA,NA,NA,NA,NA,NA,NA,NA,NA,NA,NA,NA,NA,NA,NA,NA,NA,NA,NA,NA
"307","stim/objects/HouseObjects/doormat2.png",347,17,340,0.1,"stim/31.jpeg",3,1,3,1,"HouseObjects",1,1,"left","right",0.571000338,0,0,1,0,188,17,1,0.1,1,"stim/31.jpeg",3,1,"stim/31.jpeg",1,"left",1.786000013,3,4,1.321999788,1,5.065000057,188,1,0,0,1,1,1
"385","stim/objects/HouseObjects/safetypin2.png",348,17,341,0.1,"stim/32.jpeg",3,2,3,1,"HouseObjects",1,1,"left","right",0.590000391,0,0,1,0,200,17,1,0.1,1,"stim/32.jpeg",3,2,"stim/32.jpeg",1,"right",0.956999779,2,2,0.898999929,2,4.338999987,200,0,1,NA,0,NA,1
"552","stim/objects/Instruments/speaker2.png",349,17,342,0.1,"stim/43.jpeg",4,3,3,1,"Instruments",2,1,"right","left",0.940000057,0,0,1,0,159,17,1,0.1,2,"stim/43.jpeg",4,3,"stim/43.jpeg",1,"right",0.986000061,2,3,3.45299983,1,2.004000187,159,0,1,NA,1,NA,1
"480","stim/objects/Instruments/flutetrans.png",350,17,343,0.9,"stim/32.jpeg",3,2,3,2,"Instruments",2,1,"right","left",0.664000273,0,0,1,0,NA,NA,NA,NA,NA,NA,NA,NA,NA,NA,NA,NA,NA,NA,NA,NA,NA,NA,NA,NA,NA,NA,NA,NA
"427","stim/objects/Instruments/chime.png",351,17,344,0.5,"stim/64.jpeg",6,4,1,2,"Instruments",2,1,"right","right",0.715000153,1,1,1,0,NA,NA,NA,NA,NA,NA,NA,NA,NA,NA,NA,NA,NA,NA,NA,NA,NA,NA,NA,NA,NA,NA,NA,NA
"314","stim/objects/HouseObjects/dustpan.png",352,17,345,0.9,"stim/42.jpeg",4,2,3,2,"HouseObjects",1,4,"left","left",0.621999979,1,1,1,0,NA,NA,NA,NA,NA,NA,NA,NA,NA,NA,NA,NA,NA,NA,NA,NA,NA,NA,NA,NA,NA,NA,NA,NA
"494","stim/objects/Instruments/frenchhorn.png",353,17,346,0.9,"stim/33.jpeg",3,3,3,2,"Instruments",2,4,"right","right",0.510000229,1,1,1,0,NA,NA,NA,NA,NA,NA,NA,NA,NA,NA,NA,NA,NA,NA,NA,NA,NA,NA,NA,NA,NA,NA,NA,NA
"437","stim/objects/Instruments/cymbal.png",354,17,347,0.7,"stim/14.jpeg",1,4,2,2,"Instruments",2,2,"right","right",0.582000017,1,1,1,0,NA,NA,NA,NA,NA,NA,NA,NA,NA,NA,NA,NA,NA,NA,NA,NA,NA,NA,NA,NA,NA,NA,NA,NA
"324","stim/objects/HouseObjects/dustpan2.png",355,17,348,0.1,"stim/32.jpeg",3,2,3,1,"HouseObjects",1,2,"left","right",0.592000008,0,0,1,0,73,17,1,0.1,1,"stim/32.jpeg",3,2,"stim/32.jpeg",2,"left",4.132999897,2,3,5.298999786,2,2.360000134,73,1,0,0,1,1,1
"464","stim/objects/Instruments/flute.png",356,17,349,0.9,"stim/34.jpeg",3,4,3,2,"Instruments",2,4,"right","right",0.503000259,1,1,1,0,NA,NA,NA,NA,NA,NA,NA,NA,NA,NA,NA,NA,NA,NA,NA,NA,NA,NA,NA,NA,NA,NA,NA,NA
"251","stim/objects/HouseObjects/basket.png",357,17,350,0.5,"stim/54.jpeg",5,4,1,2,"HouseObjects",1,1,"left","left",0.746000051,1,1,1,0,NA,NA,NA,NA,NA,NA,NA,NA,NA,NA,NA,NA,NA,NA,NA,NA,NA,NA,NA,NA,NA,NA,NA,NA
"375","stim/objects/HouseObjects/glass2.png",358,17,351,0.1,"stim/31.jpeg",3,1,3,1,"HouseObjects",1,1,"left","right",0.742000103,0,0,1,0,179,17,1,0.1,1,"stim/31.jpeg",3,1,"stim/31.jpeg",1,"right",2.19900012,2,2,0.880999804,2,0.945000172,179,0,0,NA,0,NA,1
"392","stim/objects/HouseObjects/spraybottle.png",359,17,352,0.5,"stim/64.jpeg",6,4,1,1,"HouseObjects",1,3,"left","right",0.787000179,0,0,1,0,119,17,1,0.5,2,"stim/64.jpeg",6,4,"stim/64.jpeg",3,"left",1.54700017,3,3,4.721999884,1,5.986000061,119,1,0,0,0,0,1
"262","stim/objects/HouseObjects/broom.png",360,17,353,0.5,"stim/62.jpeg",6,2,1,2,"HouseObjects",1,2,"left","right",0.728000164,0,0,1,0,NA,NA,NA,NA,NA,NA,NA,NA,NA,NA,NA,NA,NA,NA,NA,NA,NA,NA,NA,NA,NA,NA,NA,NA
"341","stim/objects/HouseObjects/flyswatter2.png",361,17,354,0.1,"stim/33.jpeg",3,3,3,1,"HouseObjects",1,3,"left","right",0.933000088,0,0,1,0,2,17,1,0.1,1,"stim/33.jpeg",3,3,"stim/33.jpeg",3,"right",2.266000032,3,1,3.16899991,3,2.916999817,2,0,0,NA,1,NA,1
"529","stim/objects/Instruments/grandpiano.png",362,17,355,0.9,"stim/33.jpeg",3,3,3,2,"Instruments",2,4,"right","right",0.550000191,1,1,1,0,NA,NA,NA,NA,NA,NA,NA,NA,NA,NA,NA,NA,NA,NA,NA,NA,NA,NA,NA,NA,NA,NA,NA,NA
"440","stim/objects/Instruments/doublebass.png",363,17,356,0.7,"stim/11.jpeg",1,1,2,2,"Instruments",2,1,"right","right",0.680000305,1,1,1,0,NA,NA,NA,NA,NA,NA,NA,NA,NA,NA,NA,NA,NA,NA,NA,NA,NA,NA,NA,NA,NA,NA,NA,NA
"335","stim/objects/HouseObjects/flyswatter.png",364,17,357,0.9,"stim/44.jpeg",4,4,3,2,"HouseObjects",1,3,"left","left",0.652000189,1,1,1,0,NA,NA,NA,NA,NA,NA,NA,NA,NA,NA,NA,NA,NA,NA,NA,NA,NA,NA,NA,NA,NA,NA,NA,NA
"272","stim/objects/HouseObjects/clothesdryingrack.png",365,17,358,0.7,"stim/23.jpeg",2,3,2,2,"HouseObjects",1,4,"left","right",0.722000122,0,0,1,0,NA,NA,NA,NA,NA,NA,NA,NA,NA,NA,NA,NA,NA,NA,NA,NA,NA,NA,NA,NA,NA,NA,NA,NA
"443","stim/objects/Instruments/doublebass2.png",366,17,359,0.3,"stim/24.jpeg",2,4,2,1,"Instruments",2,3,"right","left",0.692000151,0,0,1,0,158,17,1,0.3,2,"stim/24.jpeg",2,4,"stim/24.jpeg",3,"right",1.183000088,3,3,2.103999853,3,2.617000103,158,0,0,NA,1,NA,1
"482","stim/objects/Instruments/flutetrans.png",367,17,360,0.9,"stim/33.jpeg",3,3,3,2,"Instruments",2,3,"right","right",0.779000282,1,1,1,0,NA,NA,NA,NA,NA,NA,NA,NA,NA,NA,NA,NA,NA,NA,NA,NA,NA,NA,NA,NA,NA,NA,NA,NA
"530","stim/objects/Instruments/grandpiano.png",368,17,361,0.9,"stim/32.jpeg",3,2,3,2,"Instruments",2,1,"right","right",0.566000223,1,1,1,0,NA,NA,NA,NA,NA,NA,NA,NA,NA,NA,NA,NA,NA,NA,NA,NA,NA,NA,NA,NA,NA,NA,NA,NA
"389","stim/objects/HouseObjects/scale2.png",369,17,362,0.9,"stim/42.jpeg",4,2,3,1,"HouseObjects",1,4,"left","left",0.602000237,1,1,1,0,95,17,1,0.9,1,"stim/42.jpeg",4,2,"stim/42.jpeg",4,"left",0.766000032,4,3,2.049000025,2,1.687000036,95,1,0,0,0,0,1
"351","stim/objects/HouseObjects/garbagebin.png",370,17,363,0.9,"stim/44.jpeg",4,4,3,2,"HouseObjects",1,3,"left","left",0.702000141,1,1,1,0,NA,NA,NA,NA,NA,NA,NA,NA,NA,NA,NA,NA,NA,NA,NA,NA,NA,NA,NA,NA,NA,NA,NA,NA
"513","stim/objects/Instruments/gong.png",371,17,364,0.9,"stim/34.jpeg",3,4,3,2,"Instruments",2,3,"right","right",0.653000116,1,1,1,0,NA,NA,NA,NA,NA,NA,NA,NA,NA,NA,NA,NA,NA,NA,NA,NA,NA,NA,NA,NA,NA,NA,NA,NA
"445","stim/objects/Instruments/drums.png",372,17,365,0.7,"stim/11.jpeg",1,1,2,2,"Instruments",2,4,"right","right",0.703000069,1,1,1,0,NA,NA,NA,NA,NA,NA,NA,NA,NA,NA,NA,NA,NA,NA,NA,NA,NA,NA,NA,NA,NA,NA,NA,NA
"299","stim/objects/HouseObjects/doormat.png",373,17,366,0.9,"stim/44.jpeg",4,4,3,2,"HouseObjects",1,2,"left","left",0.636000156,1,1,1,0,NA,NA,NA,NA,NA,NA,NA,NA,NA,NA,NA,NA,NA,NA,NA,NA,NA,NA,NA,NA,NA,NA,NA,NA
"297","stim/objects/HouseObjects/doormat.png",374,17,367,0.9,"stim/42.jpeg",4,2,3,2,"HouseObjects",1,4,"left","left",0.577000141,1,1,1,0,NA,NA,NA,NA,NA,NA,NA,NA,NA,NA,NA,NA,NA,NA,NA,NA,NA,NA,NA,NA,NA,NA,NA,NA
"473","stim/objects/Instruments/flutetrans.png",375,17,368,0.9,"stim/33.jpeg",3,3,3,2,"Instruments",2,2,"right","left",0.524000168,0,0,1,0,NA,NA,NA,NA,NA,NA,NA,NA,NA,NA,NA,NA,NA,NA,NA,NA,NA,NA,NA,NA,NA,NA,NA,NA
"474","stim/objects/Instruments/flutetrans.png",376,17,369,0.9,"stim/34.jpeg",3,4,3,2,"Instruments",2,4,"right","right",0.428000212,1,1,1,0,NA,NA,NA,NA,NA,NA,NA,NA,NA,NA,NA,NA,NA,NA,NA,NA,NA,NA,NA,NA,NA,NA,NA,NA
"337","stim/objects/HouseObjects/flyswatter.png",377,17,370,0.9,"stim/43.jpeg",4,3,3,2,"HouseObjects",1,1,"left","left",0.695000172,1,1,1,0,NA,NA,NA,NA,NA,NA,NA,NA,NA,NA,NA,NA,NA,NA,NA,NA,NA,NA,NA,NA,NA,NA,NA,NA
"413","stim/objects/Instruments/balalaika.png",378,17,371,0.5,"stim/52.jpeg",5,2,1,2,"Instruments",2,2,"right","right",0.649000168,1,1,1,0,NA,NA,NA,NA,NA,NA,NA,NA,NA,NA,NA,NA,NA,NA,NA,NA,NA,NA,NA,NA,NA,NA,NA,NA
"514","stim/objects/Instruments/gong.png",379,17,372,0.9,"stim/31.jpeg",3,1,3,2,"Instruments",2,3,"right","right",0.524000168,1,1,1,0,NA,NA,NA,NA,NA,NA,NA,NA,NA,NA,NA,NA,NA,NA,NA,NA,NA,NA,NA,NA,NA,NA,NA,NA
"420","stim/objects/Instruments/bassdrum2.png",380,17,373,0.7,"stim/13.jpeg",1,3,2,1,"Instruments",2,1,"right","right",0.667000055,1,1,1,0,76,17,1,0.7,2,"stim/13.jpeg",1,3,"stim/13.jpeg",1,"right",1.062999964,1,3,6.28000021,3,2.513000011,76,0,1,NA,0,NA,1
"387","stim/objects/HouseObjects/saw2.png",381,17,374,0.9,"stim/41.jpeg",4,1,3,1,"HouseObjects",1,3,"left","left",0.565000296,1,1,1,0,110,17,1,0.9,1,"stim/41.jpeg",4,1,"stim/41.jpeg",3,"left",1.520999908,3,2,5.04399991,1,1.705000162,110,1,0,0,0,0,1
"315","stim/objects/HouseObjects/dustpan.png",382,17,375,0.9,"stim/44.jpeg",4,4,3,2,"HouseObjects",1,3,"left","left",0.475000143,1,1,1,0,NA,NA,NA,NA,NA,NA,NA,NA,NA,NA,NA,NA,NA,NA,NA,NA,NA,NA,NA,NA,NA,NA,NA,NA
"475","stim/objects/Instruments/flutetrans.png",383,17,376,0.9,"stim/34.jpeg",3,4,3,2,"Instruments",2,3,"right","right",0.594000101,1,1,1,0,NA,NA,NA,NA,NA,NA,NA,NA,NA,NA,NA,NA,NA,NA,NA,NA,NA,NA,NA,NA,NA,NA,NA,NA
"408","stim/objects/Instruments/accordion2.png",384,17,377,0.7,"stim/13.jpeg",1,3,2,1,"Instruments",2,2,"right","right",0.827000141,1,1,1,0,196,17,1,0.7,2,"stim/13.jpeg",1,3,"stim/13.jpeg",2,"left",2.115999937,4,2,4.231999874,4,1.601000071,196,1,0,0,0,0,1
"398","stim/objects/HouseObjects/thread.png",385,17,378,0.3,"stim/12.jpeg",1,2,2,1,"HouseObjects",1,3,"left","right",0.69900012,0,0,1,0,108,17,1,0.3,1,"stim/12.jpeg",1,2,"stim/12.jpeg",3,"left",0.721000195,2,1,1.205000162,2,2.450999975,108,1,0,0,0,0,1
"497","stim/objects/Instruments/frenchhorn.png",386,17,379,0.9,"stim/34.jpeg",3,4,3,2,"Instruments",2,4,"right","right",0.55700016,1,1,1,0,NA,NA,NA,NA,NA,NA,NA,NA,NA,NA,NA,NA,NA,NA,NA,NA,NA,NA,NA,NA,NA,NA,NA,NA
"429","stim/objects/Instruments/chime2.png",387,17,380,0.3,"stim/24.jpeg",2,4,2,1,"Instruments",2,1,"right","",NA,0,0,1,0,114,17,1,0.3,2,"stim/24.jpeg",2,4,"stim/24.jpeg",1,"left",1.97300005,4,2,3.368000031,2,1.516000032,114,1,0,0,0,0,1
"275","stim/objects/HouseObjects/clothespin.png",388,17,381,0.7,"stim/24.jpeg",2,4,2,2,"HouseObjects",1,3,"left","right",0.507000208,0,0,1,0,NA,NA,NA,NA,NA,NA,NA,NA,NA,NA,NA,NA,NA,NA,NA,NA,NA,NA,NA,NA,NA,NA,NA,NA
"479","stim/objects/Instruments/flutetrans.png",389,17,382,0.9,"stim/34.jpeg",3,4,3,2,"Instruments",2,4,"right","right",0.471000195,1,1,1,0,NA,NA,NA,NA,NA,NA,NA,NA,NA,NA,NA,NA,NA,NA,NA,NA,NA,NA,NA,NA,NA,NA,NA,NA
"457","stim/objects/Instruments/flute.png",390,17,383,0.9,"stim/34.jpeg",3,4,3,2,"Instruments",2,4,"right","right",0.475000381,1,1,1,0,NA,NA,NA,NA,NA,NA,NA,NA,NA,NA,NA,NA,NA,NA,NA,NA,NA,NA,NA,NA,NA,NA,NA,NA
"438","stim/objects/Instruments/cymbal.png",391,17,384,0.7,"stim/11.jpeg",1,1,2,2,"Instruments",2,4,"right","right",0.663000345,1,1,1,0,NA,NA,NA,NA,NA,NA,NA,NA,NA,NA,NA,NA,NA,NA,NA,NA,NA,NA,NA,NA,NA,NA,NA,NA
"515","stim/objects/Instruments/gong.png",392,17,385,0.9,"stim/32.jpeg",3,2,3,2,"Instruments",2,4,"right","right",0.462000132,1,1,1,0,NA,NA,NA,NA,NA,NA,NA,NA,NA,NA,NA,NA,NA,NA,NA,NA,NA,NA,NA,NA,NA,NA,NA,NA
"516","stim/objects/Instruments/gong.png",393,17,386,0.9,"stim/33.jpeg",3,3,3,2,"Instruments",2,3,"right","right",0.804000139,1,1,1,0,NA,NA,NA,NA,NA,NA,NA,NA,NA,NA,NA,NA,NA,NA,NA,NA,NA,NA,NA,NA,NA,NA,NA,NA
"360","stim/objects/HouseObjects/glass.png",394,17,387,0.9,"stim/43.jpeg",4,3,3,2,"HouseObjects",1,1,"left","left",0.423000336,1,1,1,0,NA,NA,NA,NA,NA,NA,NA,NA,NA,NA,NA,NA,NA,NA,NA,NA,NA,NA,NA,NA,NA,NA,NA,NA
"402","stim/objects/HouseObjects/vacuumcleaner.png",395,17,388,0.3,"stim/14.jpeg",1,4,2,1,"HouseObjects",1,1,"left","left",0.594000101,1,1,1,0,24,17,1,0.3,1,"stim/14.jpeg",1,4,"stim/14.jpeg",1,"left",0.931999922,4,1,2.945999861,1,1.358999968,24,1,0,0,1,1,1
"338","stim/objects/HouseObjects/flyswatter.png",396,17,389,0.9,"stim/41.jpeg",4,1,3,2,"HouseObjects",1,1,"left","left",0.519000053,1,1,1,0,NA,NA,NA,NA,NA,NA,NA,NA,NA,NA,NA,NA,NA,NA,NA,NA,NA,NA,NA,NA,NA,NA,NA,NA
"361","stim/objects/HouseObjects/glass.png",397,17,390,0.9,"stim/41.jpeg",4,1,3,2,"HouseObjects",1,4,"left","left",0.47300005,1,1,1,0,NA,NA,NA,NA,NA,NA,NA,NA,NA,NA,NA,NA,NA,NA,NA,NA,NA,NA,NA,NA,NA,NA,NA,NA
"433","stim/objects/Instruments/cornet.png",398,17,391,0.5,"stim/62.jpeg",6,2,1,2,"Instruments",2,2,"right","right",0.580000162,1,1,1,0,NA,NA,NA,NA,NA,NA,NA,NA,NA,NA,NA,NA,NA,NA,NA,NA,NA,NA,NA,NA,NA,NA,NA,NA
"417","stim/objects/Instruments/banjo2.png",399,17,392,0.7,"stim/12.jpeg",1,2,2,1,"Instruments",2,2,"right","right",0.771000147,1,1,1,0,43,17,1,0.7,2,"stim/12.jpeg",1,2,"stim/12.jpeg",2,"right",1.003999949,1,2,1.255999804,3,1.381999969,43,0,1,NA,0,NA,1
"467","stim/objects/Instruments/flute.png",400,17,393,0.9,"stim/31.jpeg",3,1,3,2,"Instruments",2,4,"right","right",0.611000061,1,1,1,0,NA,NA,NA,NA,NA,NA,NA,NA,NA,NA,NA,NA,NA,NA,NA,NA,NA,NA,NA,NA,NA,NA,NA,NA
"242","stim/objects/HouseObjects/ashtray.png",401,17,394,0.5,"stim/52.jpeg",5,2,1,2,"HouseObjects",1,3,"left","left",0.485000134,1,1,1,0,NA,NA,NA,NA,NA,NA,NA,NA,NA,NA,NA,NA,NA,NA,NA,NA,NA,NA,NA,NA,NA,NA,NA,NA
"391","stim/objects/HouseObjects/sponge2.png",402,17,395,0.9,"stim/43.jpeg",4,3,3,1,"HouseObjects",1,4,"left","left",0.555000305,1,1,1,0,74,17,1,0.9,1,"stim/43.jpeg",4,3,"stim/43.jpeg",4,"right",1.008999825,2,3,4.410000086,3,1.65899992,74,0,1,NA,0,NA,1
"481","stim/objects/Instruments/flutetrans.png",403,17,396,0.9,"stim/33.jpeg",3,3,3,2,"Instruments",2,2,"right","right",0.582000017,1,1,1,0,NA,NA,NA,NA,NA,NA,NA,NA,NA,NA,NA,NA,NA,NA,NA,NA,NA,NA,NA,NA,NA,NA,NA,NA
"268","stim/objects/HouseObjects/clock.png",404,17,397,0.5,"stim/64.jpeg",6,4,1,2,"HouseObjects",1,1,"left","right",0.650000095,0,0,1,0,NA,NA,NA,NA,NA,NA,NA,NA,NA,NA,NA,NA,NA,NA,NA,NA,NA,NA,NA,NA,NA,NA,NA,NA
"431","stim/objects/Instruments/clarinet.png",405,17,398,0.5,"stim/61.jpeg",6,1,1,2,"Instruments",2,4,"right","right",0.426000118,1,1,1,0,NA,NA,NA,NA,NA,NA,NA,NA,NA,NA,NA,NA,NA,NA,NA,NA,NA,NA,NA,NA,NA,NA,NA,NA
"393","stim/objects/HouseObjects/spraybottle2.png",406,17,399,0.9,"stim/44.jpeg",4,4,3,1,"HouseObjects",1,1,"left","left",0.559000015,1,1,1,0,68,17,1,0.9,1,"stim/44.jpeg",4,4,"stim/44.jpeg",1,"right",2.536999941,2,3,3.411000013,2,1.804000139,68,0,0,NA,0,NA,1
"244","stim/objects/HouseObjects/ballofstring.png",407,17,400,0.5,"stim/53.jpeg",5,3,1,2,"HouseObjects",1,3,"left","left",0.637000084,1,1,1,0,NA,NA,NA,NA,NA,NA,NA,NA,NA,NA,NA,NA,NA,NA,NA,NA,NA,NA,NA,NA,NA,NA,NA,NA
"484","stim/objects/Instruments/flutetrans.png",408,17,401,0.9,"stim/33.jpeg",3,3,3,2,"Instruments",2,3,"right","right",0.683000088,1,1,1,0,NA,NA,NA,NA,NA,NA,NA,NA,NA,NA,NA,NA,NA,NA,NA,NA,NA,NA,NA,NA,NA,NA,NA,NA
"567","stim/objects/Instruments/vuvuzela.png",409,17,402,0.7,"stim/11.jpeg",1,1,2,1,"Instruments",2,2,"right","right",0.677000046,1,1,1,0,137,17,1,0.7,2,"stim/11.jpeg",1,1,"stim/11.jpeg",2,"left",1.332000017,4,3,5.045000076,1,2.535000086,137,1,0,0,0,0,1
"277","stim/objects/HouseObjects/clothespin.png",410,17,403,0.7,"stim/23.jpeg",2,3,2,2,"HouseObjects",1,2,"left","left",0.710000038,1,1,1,0,NA,NA,NA,NA,NA,NA,NA,NA,NA,NA,NA,NA,NA,NA,NA,NA,NA,NA,NA,NA,NA,NA,NA,NA
"411","stim/objects/Instruments/acousticguitar2.png",411,17,404,0.7,"stim/14.jpeg",1,4,2,1,"Instruments",2,4,"right","right",0.740000248,1,1,1,0,104,17,1,0.7,2,"stim/14.jpeg",1,4,"stim/14.jpeg",4,"right",0.694000006,1,2,0.784000158,3,1.258999825,104,0,0,NA,0,NA,1
"531","stim/objects/Instruments/grandpiano.png",412,17,405,0.9,"stim/31.jpeg",3,1,3,2,"Instruments",2,2,"right","right",0.532000065,1,1,1,0,NA,NA,NA,NA,NA,NA,NA,NA,NA,NA,NA,NA,NA,NA,NA,NA,NA,NA,NA,NA,NA,NA,NA,NA
"549","stim/objects/Instruments/saxophone.png",413,17,406,0.5,"stim/52.jpeg",5,2,1,1,"Instruments",2,2,"right","left",0.863000393,0,0,1,0,37,17,1,0.5,1,"stim/52.jpeg",5,2,"stim/52.jpeg",2,"right",5.487999916,2,4,2.871999979,3,2.342999935,37,0,0,NA,0,NA,1
"386","stim/objects/HouseObjects/saw.png",414,17,407,0.5,"stim/61.jpeg",6,1,1,1,"HouseObjects",1,2,"left","left",0.618000031,1,1,1,0,81,17,1,0.5,2,"stim/61.jpeg",6,1,"stim/61.jpeg",2,"left",1.375999928,3,3,15.06500006,3,2.161000013,81,1,0,0,0,0,1
"384","stim/objects/HouseObjects/safetypin.png",415,17,408,0.5,"stim/53.jpeg",5,3,1,1,"HouseObjects",1,3,"left","left",0.730000257,1,1,1,0,97,17,1,0.5,1,"stim/53.jpeg",5,3,"stim/53.jpeg",3,"left",1.43599987,3,2,2.56400013,2,2.322000027,97,1,0,0,0,0,1
"399","stim/objects/HouseObjects/thread2.png",416,17,409,0.9,"stim/43.jpeg",4,3,3,1,"HouseObjects",1,3,"left","left",0.719000101,1,1,1,0,105,17,1,0.9,1,"stim/43.jpeg",4,3,"stim/43.jpeg",3,"left",2.506999969,3,2,2.556999922,3,2.348999977,105,1,0,0,1,1,1
"318","stim/objects/HouseObjects/dustpan.png",417,17,410,0.9,"stim/42.jpeg",4,2,3,2,"HouseObjects",1,1,"left","left",0.74000001,1,1,1,0,NA,NA,NA,NA,NA,NA,NA,NA,NA,NA,NA,NA,NA,NA,NA,NA,NA,NA,NA,NA,NA,NA,NA,NA
"455","stim/objects/Instruments/electricguitar2.png",418,17,411,0.3,"stim/23.jpeg",2,3,2,1,"Instruments",2,1,"right","left",0.577000141,0,0,1,0,167,17,1,0.3,2,"stim/23.jpeg",2,3,"stim/23.jpeg",1,"right",1.138999939,2,2,1.976000071,4,3.287999868,167,0,0,NA,0,NA,1
"278","stim/objects/HouseObjects/clothespin2.png",419,17,412,0.7,"stim/22.jpeg",2,2,2,1,"HouseObjects",1,3,"left","left",0.699000359,1,1,1,0,161,17,1,0.7,1,"stim/22.jpeg",2,2,"stim/22.jpeg",3,"left",1.539000034,3,2,2.855000019,1,3.912999868,161,1,1,1,0,0,1
"469","stim/objects/Instruments/flute.png",420,17,413,0.9,"stim/32.jpeg",3,2,3,2,"Instruments",2,4,"right","right",0.535000324,1,1,1,0,NA,NA,NA,NA,NA,NA,NA,NA,NA,NA,NA,NA,NA,NA,NA,NA,NA,NA,NA,NA,NA,NA,NA,NA
"346","stim/objects/HouseObjects/garbagebin.png",421,17,414,0.9,"stim/44.jpeg",4,4,3,2,"HouseObjects",1,3,"left","left",0.631000042,1,1,1,0,NA,NA,NA,NA,NA,NA,NA,NA,NA,NA,NA,NA,NA,NA,NA,NA,NA,NA,NA,NA,NA,NA,NA,NA
"284","stim/objects/HouseObjects/cushion.png",422,17,415,0.7,"stim/24.jpeg",2,4,2,2,"HouseObjects",1,1,"left","left",0.54700017,1,1,1,0,NA,NA,NA,NA,NA,NA,NA,NA,NA,NA,NA,NA,NA,NA,NA,NA,NA,NA,NA,NA,NA,NA,NA,NA
"422","stim/objects/Instruments/bassguitar.png",423,17,416,0.5,"stim/63.jpeg",6,3,1,2,"Instruments",2,4,"right","left",0.781000137,0,0,1,0,NA,NA,NA,NA,NA,NA,NA,NA,NA,NA,NA,NA,NA,NA,NA,NA,NA,NA,NA,NA,NA,NA,NA,NA
"397","stim/objects/HouseObjects/thermometer2.png",424,17,417,0.9,"stim/42.jpeg",4,2,3,1,"HouseObjects",1,1,"left","left",0.503000021,1,1,1,0,193,17,1,0.9,1,"stim/42.jpeg",4,2,"stim/42.jpeg",1,"right",1.064999819,2,2,1.662000179,1,3.157999992,193,0,1,NA,1,NA,1
"241","stim/objects/HouseObjects/ashtray.png",425,17,418,0.5,"stim/51.jpeg",5,1,1,2,"HouseObjects",1,3,"left","left",0.633000135,1,1,1,0,NA,NA,NA,NA,NA,NA,NA,NA,NA,NA,NA,NA,NA,NA,NA,NA,NA,NA,NA,NA,NA,NA,NA,NA
"442","stim/objects/Instruments/doublebass.png",426,17,419,0.7,"stim/12.jpeg",1,2,2,2,"Instruments",2,1,"right","right",0.6650002,1,1,1,0,NA,NA,NA,NA,NA,NA,NA,NA,NA,NA,NA,NA,NA,NA,NA,NA,NA,NA,NA,NA,NA,NA,NA,NA
"381","stim/objects/HouseObjects/handbrush2.png",427,17,420,0.1,"stim/34.jpeg",3,4,3,1,"HouseObjects",1,3,"left","right",0.55700016,0,0,1,0,186,17,1,0.1,1,"stim/34.jpeg",3,4,"stim/34.jpeg",3,"left",1.886999846,3,3,2.730999947,1,2.7900002,186,1,0,0,0,0,1
"252","stim/objects/HouseObjects/basket2.png",428,17,421,0.3,"stim/11.jpeg",1,1,2,1,"HouseObjects",1,2,"left","right",0.605000019,0,0,1,0,116,17,1,0.3,1,"stim/11.jpeg",1,1,"stim/11.jpeg",2,"left",1.453999996,4,3,5.378999949,2,2.686000109,116,1,0,0,1,1,1
"369","stim/objects/HouseObjects/glass.png",429,17,422,0.9,"stim/44.jpeg",4,4,3,2,"HouseObjects",1,2,"left","right",0.438000202,0,0,1,0,NA,NA,NA,NA,NA,NA,NA,NA,NA,NA,NA,NA,NA,NA,NA,NA,NA,NA,NA,NA,NA,NA,NA,NA
"454","stim/objects/Instruments/electricguitar.png",430,17,423,0.7,"stim/13.jpeg",1,3,2,2,"Instruments",2,2,"right","right",0.754000187,1,1,1,0,NA,NA,NA,NA,NA,NA,NA,NA,NA,NA,NA,NA,NA,NA,NA,NA,NA,NA,NA,NA,NA,NA,NA,NA
"355","stim/objects/HouseObjects/garbagebin.png",431,17,424,0.9,"stim/41.jpeg",4,1,3,2,"HouseObjects",1,3,"left","left",0.510000229,1,1,1,0,NA,NA,NA,NA,NA,NA,NA,NA,NA,NA,NA,NA,NA,NA,NA,NA,NA,NA,NA,NA,NA,NA,NA,NA
"373","stim/objects/HouseObjects/glass.png",432,17,425,0.9,"stim/42.jpeg",4,2,3,2,"HouseObjects",1,2,"left","left",0.649000168,1,1,1,0,NA,NA,NA,NA,NA,NA,NA,NA,NA,NA,NA,NA,NA,NA,NA,NA,NA,NA,NA,NA,NA,NA,NA,NA
"356","stim/objects/HouseObjects/garbagebin.png",433,17,426,0.9,"stim/41.jpeg",4,1,3,2,"HouseObjects",1,4,"left","left",0.605000257,1,1,1,0,NA,NA,NA,NA,NA,NA,NA,NA,NA,NA,NA,NA,NA,NA,NA,NA,NA,NA,NA,NA,NA,NA,NA,NA
"371","stim/objects/HouseObjects/glass.png",434,17,427,0.9,"stim/44.jpeg",4,4,3,2,"HouseObjects",1,3,"left","left",0.570000172,1,1,1,0,NA,NA,NA,NA,NA,NA,NA,NA,NA,NA,NA,NA,NA,NA,NA,NA,NA,NA,NA,NA,NA,NA,NA,NA
"372","stim/objects/HouseObjects/glass.png",435,17,428,0.9,"stim/43.jpeg",4,3,3,2,"HouseObjects",1,2,"left","left",0.586000204,1,1,1,0,NA,NA,NA,NA,NA,NA,NA,NA,NA,NA,NA,NA,NA,NA,NA,NA,NA,NA,NA,NA,NA,NA,NA,NA
"388","stim/objects/HouseObjects/scale.png",436,17,429,0.5,"stim/62.jpeg",6,2,1,1,"HouseObjects",1,2,"left","left",0.732000113,1,1,1,0,189,17,1,0.5,2,"stim/62.jpeg",6,2,"stim/62.jpeg",2,"left",1.22300005,3,1,3.098999977,4,2.049000025,189,1,0,0,0,0,1
"302","stim/objects/HouseObjects/doormat.png",437,17,430,0.9,"stim/41.jpeg",4,1,3,2,"HouseObjects",1,2,"left","left",0.700999975,1,1,1,0,NA,NA,NA,NA,NA,NA,NA,NA,NA,NA,NA,NA,NA,NA,NA,NA,NA,NA,NA,NA,NA,NA,NA,NA
"557","stim/objects/Instruments/triangle.png",438,17,431,0.5,"stim/63.jpeg",6,3,1,1,"Instruments",2,4,"right","right",0.620000362,1,1,1,0,5,17,1,0.5,2,"stim/63.jpeg",6,3,"stim/63.jpeg",4,"left",0.850000143,4,4,6.241999865,3,1.936000109,5,1,0,0,0,0,1
"533","stim/objects/Instruments/grandpiano.png",439,17,432,0.9,"stim/32.jpeg",3,2,3,2,"Instruments",2,3,"right","right",0.551000118,1,1,1,0,NA,NA,NA,NA,NA,NA,NA,NA,NA,NA,NA,NA,NA,NA,NA,NA,NA,NA,NA,NA,NA,NA,NA,NA
"339","stim/objects/HouseObjects/flyswatter.png",440,17,433,0.9,"stim/42.jpeg",4,2,3,2,"HouseObjects",1,2,"left","left",0.794000149,1,1,1,0,NA,NA,NA,NA,NA,NA,NA,NA,NA,NA,NA,NA,NA,NA,NA,NA,NA,NA,NA,NA,NA,NA,NA,NA
"354","stim/objects/HouseObjects/garbagebin.png",441,17,434,0.9,"stim/43.jpeg",4,3,3,2,"HouseObjects",1,3,"left","left",0.504000187,1,1,1,0,NA,NA,NA,NA,NA,NA,NA,NA,NA,NA,NA,NA,NA,NA,NA,NA,NA,NA,NA,NA,NA,NA,NA,NA
"547","stim/objects/Instruments/hihat.png",442,17,435,0.5,"stim/51.jpeg",5,1,1,1,"Instruments",2,2,"right","left",0.53000021,0,0,1,0,54,17,1,0.5,1,"stim/51.jpeg",5,1,"stim/51.jpeg",2,"left",2.744000196,3,3,7.005000114,2,2.48300004,54,1,0,0,1,1,1
"506","stim/objects/Instruments/frenchhorn2.png",443,17,436,0.9,"stim/31.jpeg",3,1,3,1,"Instruments",2,1,"right","left",0.481000185,0,0,1,0,1,17,1,0.9,2,"stim/31.jpeg",3,1,"stim/31.jpeg",1,"left",1.772000074,4,2,5.514999866,3,4.847999811,1,1,0,0,0,0,1
"435","stim/objects/Instruments/cornet2.png",444,17,437,0.3,"stim/22.jpeg",2,2,2,1,"Instruments",2,4,"right","left",0.49000001,0,0,1,0,191,17,1,0.3,2,"stim/22.jpeg",2,2,"stim/22.jpeg",4,"right",0.825000048,2,2,2.421000004,1,1.273999929,191,0,1,NA,0,NA,1
"333","stim/objects/HouseObjects/flyswatter.png",445,17,438,0.9,"stim/42.jpeg",4,2,3,2,"HouseObjects",1,3,"left","left",0.677000284,1,1,1,0,NA,NA,NA,NA,NA,NA,NA,NA,NA,NA,NA,NA,NA,NA,NA,NA,NA,NA,NA,NA,NA,NA,NA,NA
"352","stim/objects/HouseObjects/garbagebin.png",446,17,439,0.9,"stim/42.jpeg",4,2,3,2,"HouseObjects",1,1,"left","left",0.621000051,1,1,1,0,NA,NA,NA,NA,NA,NA,NA,NA,NA,NA,NA,NA,NA,NA,NA,NA,NA,NA,NA,NA,NA,NA,NA,NA
"434","stim/objects/Instruments/cornet.png",447,17,440,0.5,"stim/63.jpeg",6,3,1,2,"Instruments",2,1,"right","right",0.921000004,1,1,1,0,NA,NA,NA,NA,NA,NA,NA,NA,NA,NA,NA,NA,NA,NA,NA,NA,NA,NA,NA,NA,NA,NA,NA,NA
"348","stim/objects/HouseObjects/garbagebin.png",448,17,441,0.9,"stim/43.jpeg",4,3,3,2,"HouseObjects",1,3,"left","left",0.440000057,1,1,1,0,NA,NA,NA,NA,NA,NA,NA,NA,NA,NA,NA,NA,NA,NA,NA,NA,NA,NA,NA,NA,NA,NA,NA,NA
"561","stim/objects/Instruments/trumpet.png",449,17,442,0.7,"stim/12.jpeg",1,2,2,1,"Instruments",2,4,"right","right",0.774000168,1,1,1,0,88,17,1,0.7,2,"stim/12.jpeg",1,2,"stim/12.jpeg",4,"right",2.910000086,1,2,2.986000061,1,2.236999989,88,0,1,NA,0,NA,1
"517","stim/objects/Instruments/gong.png",450,17,443,0.9,"stim/32.jpeg",3,2,3,2,"Instruments",2,4,"right","right",0.577000141,1,1,1,0,NA,NA,NA,NA,NA,NA,NA,NA,NA,NA,NA,NA,NA,NA,NA,NA,NA,NA,NA,NA,NA,NA,NA,NA
"425","stim/objects/Instruments/cello.png",451,17,444,0.5,"stim/63.jpeg",6,3,1,2,"Instruments",2,1,"right","right",0.623000145,1,1,1,0,NA,NA,NA,NA,NA,NA,NA,NA,NA,NA,NA,NA,NA,NA,NA,NA,NA,NA,NA,NA,NA,NA,NA,NA
"462","stim/objects/Instruments/flute.png",452,17,445,0.9,"stim/32.jpeg",3,2,3,2,"Instruments",2,4,"right","right",0.637000322,1,1,1,0,NA,NA,NA,NA,NA,NA,NA,NA,NA,NA,NA,NA,NA,NA,NA,NA,NA,NA,NA,NA,NA,NA,NA,NA
"458","stim/objects/Instruments/flute.png",453,17,446,0.9,"stim/31.jpeg",3,1,3,2,"Instruments",2,2,"right","right",0.440000057,1,1,1,0,NA,NA,NA,NA,NA,NA,NA,NA,NA,NA,NA,NA,NA,NA,NA,NA,NA,NA,NA,NA,NA,NA,NA,NA
"412","stim/objects/Instruments/balalaika.png",454,17,447,0.5,"stim/53.jpeg",5,3,1,2,"Instruments",2,4,"right","right",0.69900012,1,1,1,0,NA,NA,NA,NA,NA,NA,NA,NA,NA,NA,NA,NA,NA,NA,NA,NA,NA,NA,NA,NA,NA,NA,NA,NA
"249","stim/objects/HouseObjects/barbecuelighter2.png",455,17,448,0.3,"stim/14.jpeg",1,4,2,1,"HouseObjects",1,3,"left","right",0.828000307,0,0,1,0,41,17,1,0.3,1,"stim/14.jpeg",1,4,"stim/14.jpeg",3,"left",0.898999929,4,3,2.819999933,3,1.414000034,41,1,0,0,1,1,1
"501","stim/objects/Instruments/frenchhorn.png",456,17,449,0.9,"stim/34.jpeg",3,4,3,2,"Instruments",2,1,"right","right",0.488000154,1,1,1,0,NA,NA,NA,NA,NA,NA,NA,NA,NA,NA,NA,NA,NA,NA,NA,NA,NA,NA,NA,NA,NA,NA,NA,NA
"520","stim/objects/Instruments/gong.png",457,17,450,0.9,"stim/32.jpeg",3,2,3,2,"Instruments",2,3,"right","right",0.686000109,1,1,1,0,NA,NA,NA,NA,NA,NA,NA,NA,NA,NA,NA,NA,NA,NA,NA,NA,NA,NA,NA,NA,NA,NA,NA,NA
"418","stim/objects/Instruments/bassdrum.png",458,17,451,0.5,"stim/54.jpeg",5,4,1,2,"Instruments",2,3,"right","left",0.7900002,0,0,1,0,NA,NA,NA,NA,NA,NA,NA,NA,NA,NA,NA,NA,NA,NA,NA,NA,NA,NA,NA,NA,NA,NA,NA,NA
"565","stim/objects/Instruments/violin.png",459,17,452,0.7,"stim/14.jpeg",1,4,2,1,"Instruments",2,2,"right","left",0.809000015,0,0,1,0,67,17,1,0.7,2,"stim/14.jpeg",1,4,"stim/14.jpeg",2,"right",1.019999981,2,2,1.887000084,3,1.453000069,67,0,0,NA,0,NA,1
"450","stim/objects/Instruments/electricdrumset.png",460,17,453,0.7,"stim/14.jpeg",1,4,2,2,"Instruments",2,2,"right","left",0.460000277,0,0,1,0,NA,NA,NA,NA,NA,NA,NA,NA,NA,NA,NA,NA,NA,NA,NA,NA,NA,NA,NA,NA,NA,NA,NA,NA
"486","stim/objects/Instruments/flutetrans.png",461,17,454,0.9,"stim/31.jpeg",3,1,3,2,"Instruments",2,1,"right","right",0.568000317,1,1,1,0,NA,NA,NA,NA,NA,NA,NA,NA,NA,NA,NA,NA,NA,NA,NA,NA,NA,NA,NA,NA,NA,NA,NA,NA
"553","stim/objects/Instruments/tambourine.png",462,17,455,0.5,"stim/61.jpeg",6,1,1,1,"Instruments",2,2,"right","right",0.704000235,1,1,1,0,151,17,1,0.5,2,"stim/61.jpeg",6,1,"stim/61.jpeg",2,"left",5.598999977,3,2,11.51499987,2,1.770999908,151,1,0,0,1,1,1
"289","stim/objects/HouseObjects/dishsoap.png",463,17,456,0.7,"stim/21.jpeg",2,1,2,2,"HouseObjects",1,3,"left","left",0.72300005,1,1,1,0,NA,NA,NA,NA,NA,NA,NA,NA,NA,NA,NA,NA,NA,NA,NA,NA,NA,NA,NA,NA,NA,NA,NA,NA
"410","stim/objects/Instruments/acousticguitar.png",464,17,457,0.5,"stim/52.jpeg",5,2,1,2,"Instruments",2,1,"right","right",0.761000156,1,1,1,0,NA,NA,NA,NA,NA,NA,NA,NA,NA,NA,NA,NA,NA,NA,NA,NA,NA,NA,NA,NA,NA,NA,NA,NA
"396","stim/objects/HouseObjects/thermometer.png",465,17,458,0.3,"stim/11.jpeg",1,1,2,1,"HouseObjects",1,1,"left","right",0.842000246,0,0,1,0,45,17,1,0.3,1,"stim/11.jpeg",1,1,"stim/11.jpeg",1,"left",1.032999992,4,2,1.136000156,4,1.052000046,45,1,0,0,0,0,1
"504","stim/objects/Instruments/frenchhorn.png",466,17,459,0.9,"stim/33.jpeg",3,3,3,2,"Instruments",2,3,"right","right",0.563000202,1,1,1,0,NA,NA,NA,NA,NA,NA,NA,NA,NA,NA,NA,NA,NA,NA,NA,NA,NA,NA,NA,NA,NA,NA,NA,NA
"498","stim/objects/Instruments/frenchhorn.png",467,17,460,0.9,"stim/31.jpeg",3,1,3,2,"Instruments",2,2,"right","right",0.666000128,1,1,1,0,NA,NA,NA,NA,NA,NA,NA,NA,NA,NA,NA,NA,NA,NA,NA,NA,NA,NA,NA,NA,NA,NA,NA,NA
"256","stim/objects/HouseObjects/blender.png",468,17,461,0.5,"stim/63.jpeg",6,3,1,2,"HouseObjects",1,4,"left","right",0.419000149,0,0,1,0,NA,NA,NA,NA,NA,NA,NA,NA,NA,NA,NA,NA,NA,NA,NA,NA,NA,NA,NA,NA,NA,NA,NA,NA
