"","obj_file","X.x","participant.x","trialN.x","trial_cond","scn_file.x","scn_cat","scn_inst","scn_condition","fillers","obj_cat","obj_cat_num","quadrant","corr_ans","key_resp_trial.keys","key_resp_trial.rt","trial_acc","trial_acc_manual","group.x","practice","X.y","participant.y","OvsN","PE_level","object_cat","scn_file.y","corr_scn_cat","corr_scn_inst","scn_file.1","corr_loc","key_resp_id.keys","key_resp_id.rt","key_resp_conf.keys","key_resp_assoc.keys","key_resp_assoc.rt","key_resp_loc.keys","key_resp_loc.rt","trialN.y","id_acc","assoc.acc","cond_assoc","loc.acc","cond_loc","group.y"
"217","stim/objects/Instruments/violin.png",1,34,1,0.7,"stim/52.jpeg",5,2,2,NA,"Instruments",2,4,"right","",NA,0,0,1,1,NA,NA,NA,NA,NA,NA,NA,NA,NA,NA,NA,NA,NA,NA,NA,NA,NA,NA,NA,NA,NA,NA,NA,NA
"6","stim/objects/HouseObjects/rug2.png",2,34,2,0.7,"stim/61.jpeg",6,1,2,NA,"HouseObjects",1,3,"left","",NA,0,0,1,1,NA,NA,NA,NA,NA,NA,NA,NA,NA,NA,NA,NA,NA,NA,NA,NA,NA,NA,NA,NA,NA,NA,NA,NA
"233","stim/objects/Instruments/xylophone.png",3,34,3,0.7,"stim/54.jpeg",5,4,2,NA,"Instruments",2,1,"right","right",0.657000065,1,1,1,1,NA,NA,NA,NA,NA,NA,NA,NA,NA,NA,NA,NA,NA,NA,NA,NA,NA,NA,NA,NA,NA,NA,NA,NA
"112","stim/objects/HouseObjects/wateringcan2.png",4,34,4,0.9,"stim/24.jpeg",2,4,3,NA,"HouseObjects",1,4,"left","left",0.667999983,1,1,1,1,NA,NA,NA,NA,NA,NA,NA,NA,NA,NA,NA,NA,NA,NA,NA,NA,NA,NA,NA,NA,NA,NA,NA,NA
"113","stim/objects/HouseObjects/wateringcan2.png",5,34,5,0.9,"stim/24.jpeg",2,4,3,NA,"HouseObjects",1,2,"left","left",0.489999771,1,1,1,1,NA,NA,NA,NA,NA,NA,NA,NA,NA,NA,NA,NA,NA,NA,NA,NA,NA,NA,NA,NA,NA,NA,NA,NA
"172","stim/objects/Instruments/triangle2.png",6,34,6,0.9,"stim/12.jpeg",1,2,3,NA,"Instruments",2,3,"right","right",0.663999796,1,1,1,1,NA,NA,NA,NA,NA,NA,NA,NA,NA,NA,NA,NA,NA,NA,NA,NA,NA,NA,NA,NA,NA,NA,NA,NA
"18","stim/objects/HouseObjects/safetypin2.png",7,34,7,0.7,"stim/62.jpeg",6,2,2,NA,"HouseObjects",1,4,"left","left",0.641000032,1,1,1,1,NA,NA,NA,NA,NA,NA,NA,NA,NA,NA,NA,NA,NA,NA,NA,NA,NA,NA,NA,NA,NA,NA,NA,NA
"186","stim/objects/Instruments/trombone2.png",8,34,8,0.9,"stim/13.jpeg",1,3,3,NA,"Instruments",2,3,"right","right",0.661999941,1,1,1,1,NA,NA,NA,NA,NA,NA,NA,NA,NA,NA,NA,NA,NA,NA,NA,NA,NA,NA,NA,NA,NA,NA,NA,NA
"126","stim/objects/Instruments/record_player2.png",9,34,9,0.3,"stim/61.jpeg",6,1,2,NA,"Instruments",2,3,"right","left",0.600999832,0,0,1,1,NA,NA,NA,NA,NA,NA,NA,NA,NA,NA,NA,NA,NA,NA,NA,NA,NA,NA,NA,NA,NA,NA,NA,NA
"200","stim/objects/Instruments/trumpet2.png",10,34,10,0.9,"stim/14.jpeg",1,4,3,NA,"Instruments",2,2,"right","right",0.588999748,1,1,1,1,NA,NA,NA,NA,NA,NA,NA,NA,NA,NA,NA,NA,NA,NA,NA,NA,NA,NA,NA,NA,NA,NA,NA,NA
"121","stim/objects/Instruments/record_player.png",11,34,11,0.5,"stim/31.jpeg",3,1,1,NA,"Instruments",2,1,"right","",NA,0,0,1,1,NA,NA,NA,NA,NA,NA,NA,NA,NA,NA,NA,NA,NA,NA,NA,NA,NA,NA,NA,NA,NA,NA,NA,NA
"145","stim/objects/Instruments/tambourine.png",12,34,12,0.5,"stim/34.jpeg",3,4,1,NA,"Instruments",2,1,"right","right",0.510999918,1,1,1,1,NA,NA,NA,NA,NA,NA,NA,NA,NA,NA,NA,NA,NA,NA,NA,NA,NA,NA,NA,NA,NA,NA,NA,NA
"19","stim/objects/HouseObjects/safetypin2.png",13,34,13,0.7,"stim/62.jpeg",6,2,2,NA,"HouseObjects",1,3,"left","left",0.672999859,1,1,1,1,NA,NA,NA,NA,NA,NA,NA,NA,NA,NA,NA,NA,NA,NA,NA,NA,NA,NA,NA,NA,NA,NA,NA,NA
"158","stim/objects/Instruments/timbal2.png",14,34,14,0.9,"stim/11.jpeg",1,1,3,NA,"Instruments",2,4,"right","right",0.497999907,1,1,1,1,NA,NA,NA,NA,NA,NA,NA,NA,NA,NA,NA,NA,NA,NA,NA,NA,NA,NA,NA,NA,NA,NA,NA,NA
"30","stim/objects/HouseObjects/saw2.png",15,34,15,0.7,"stim/63.jpeg",6,3,2,NA,"HouseObjects",1,4,"left","left",0.686999798,1,1,1,1,NA,NA,NA,NA,NA,NA,NA,NA,NA,NA,NA,NA,NA,NA,NA,NA,NA,NA,NA,NA,NA,NA,NA,NA
"49","stim/objects/HouseObjects/sponge.png",16,34,16,0.5,"stim/41.jpeg",4,1,1,NA,"HouseObjects",1,3,"left","right",0.493999958,0,0,1,1,NA,NA,NA,NA,NA,NA,NA,NA,NA,NA,NA,NA,NA,NA,NA,NA,NA,NA,NA,NA,NA,NA,NA,NA
"142","stim/objects/Instruments/speaker2.png",17,34,17,0.3,"stim/63.jpeg",6,3,2,NA,"Instruments",2,1,"right","left",0.728999853,0,0,1,1,NA,NA,NA,NA,NA,NA,NA,NA,NA,NA,NA,NA,NA,NA,NA,NA,NA,NA,NA,NA,NA,NA,NA,NA
"42","stim/objects/HouseObjects/scale2.png",18,34,18,0.7,"stim/64.jpeg",6,4,2,NA,"HouseObjects",1,3,"left","",NA,0,0,1,1,NA,NA,NA,NA,NA,NA,NA,NA,NA,NA,NA,NA,NA,NA,NA,NA,NA,NA,NA,NA,NA,NA,NA,NA
"13","stim/objects/HouseObjects/safetypin.png",19,34,19,0.5,"stim/32.jpeg",3,2,1,NA,"HouseObjects",1,3,"left","right",0.636000156,0,0,1,1,NA,NA,NA,NA,NA,NA,NA,NA,NA,NA,NA,NA,NA,NA,NA,NA,NA,NA,NA,NA,NA,NA,NA,NA
"61","stim/objects/HouseObjects/teapot.png",20,34,20,0.5,"stim/43.jpeg",4,3,1,NA,"HouseObjects",1,2,"left","",NA,0,0,1,1,NA,NA,NA,NA,NA,NA,NA,NA,NA,NA,NA,NA,NA,NA,NA,NA,NA,NA,NA,NA,NA,NA,NA,NA
"173","stim/objects/Instruments/triangle2.png",21,34,21,0.9,"stim/12.jpeg",1,2,3,NA,"Instruments",2,2,"right","right",0.531999826,1,1,1,1,NA,NA,NA,NA,NA,NA,NA,NA,NA,NA,NA,NA,NA,NA,NA,NA,NA,NA,NA,NA,NA,NA,NA,NA
"20","stim/objects/HouseObjects/safetypin2.png",22,34,22,0.7,"stim/62.jpeg",6,2,2,NA,"HouseObjects",1,1,"left","left",0.601999998,1,1,1,1,NA,NA,NA,NA,NA,NA,NA,NA,NA,NA,NA,NA,NA,NA,NA,NA,NA,NA,NA,NA,NA,NA,NA,NA
"159","stim/objects/Instruments/timbal2.png",23,34,23,0.9,"stim/11.jpeg",1,1,3,NA,"Instruments",2,4,"right","right",0.559999943,1,1,1,1,NA,NA,NA,NA,NA,NA,NA,NA,NA,NA,NA,NA,NA,NA,NA,NA,NA,NA,NA,NA,NA,NA,NA,NA
"143","stim/objects/Instruments/speaker2.png",24,34,24,0.3,"stim/63.jpeg",6,3,2,NA,"Instruments",2,3,"right","left",0.709000111,0,0,1,1,NA,NA,NA,NA,NA,NA,NA,NA,NA,NA,NA,NA,NA,NA,NA,NA,NA,NA,NA,NA,NA,NA,NA,NA
"76","stim/objects/HouseObjects/thread2.png",25,34,25,0.9,"stim/21.jpeg",2,1,3,NA,"HouseObjects",1,2,"left","left",0.628999949,1,1,1,1,NA,NA,NA,NA,NA,NA,NA,NA,NA,NA,NA,NA,NA,NA,NA,NA,NA,NA,NA,NA,NA,NA,NA,NA
"201","stim/objects/Instruments/trumpet2.png",26,34,26,0.9,"stim/14.jpeg",1,4,3,NA,"Instruments",2,3,"right","right",0.568000078,1,1,1,1,NA,NA,NA,NA,NA,NA,NA,NA,NA,NA,NA,NA,NA,NA,NA,NA,NA,NA,NA,NA,NA,NA,NA,NA
"31","stim/objects/HouseObjects/saw2.png",27,34,27,0.7,"stim/63.jpeg",6,3,2,NA,"HouseObjects",1,4,"left","right",0.614000082,0,0,1,1,NA,NA,NA,NA,NA,NA,NA,NA,NA,NA,NA,NA,NA,NA,NA,NA,NA,NA,NA,NA,NA,NA,NA,NA
"129","stim/objects/Instruments/saxophone.png",28,34,28,0.5,"stim/32.jpeg",3,2,1,NA,"Instruments",2,1,"right","right",0.665999889,1,1,1,1,NA,NA,NA,NA,NA,NA,NA,NA,NA,NA,NA,NA,NA,NA,NA,NA,NA,NA,NA,NA,NA,NA,NA,NA
"174","stim/objects/Instruments/triangle2.png",29,34,29,0.9,"stim/12.jpeg",1,2,3,NA,"Instruments",2,1,"right","right",0.710999966,1,1,1,1,NA,NA,NA,NA,NA,NA,NA,NA,NA,NA,NA,NA,NA,NA,NA,NA,NA,NA,NA,NA,NA,NA,NA,NA
"150","stim/objects/Instruments/tambourine2.png",30,34,30,0.3,"stim/64.jpeg",6,4,2,NA,"Instruments",2,3,"right","left",0.652999878,0,0,1,1,NA,NA,NA,NA,NA,NA,NA,NA,NA,NA,NA,NA,NA,NA,NA,NA,NA,NA,NA,NA,NA,NA,NA,NA
"209","stim/objects/Instruments/tuba.png",31,34,31,0.7,"stim/51.jpeg",5,1,2,NA,"Instruments",2,3,"right","right",0.527999878,1,1,1,1,NA,NA,NA,NA,NA,NA,NA,NA,NA,NA,NA,NA,NA,NA,NA,NA,NA,NA,NA,NA,NA,NA,NA,NA
"37","stim/objects/HouseObjects/scale.png",32,34,32,0.5,"stim/34.jpeg",3,4,1,NA,"HouseObjects",1,2,"left","right",0.726999998,0,0,1,1,NA,NA,NA,NA,NA,NA,NA,NA,NA,NA,NA,NA,NA,NA,NA,NA,NA,NA,NA,NA,NA,NA,NA,NA
"153","stim/objects/Instruments/timbal.png",33,34,33,0.5,"stim/41.jpeg",4,1,1,NA,"Instruments",2,1,"right","",NA,0,0,1,1,NA,NA,NA,NA,NA,NA,NA,NA,NA,NA,NA,NA,NA,NA,NA,NA,NA,NA,NA,NA,NA,NA,NA,NA
"62","stim/objects/HouseObjects/teapot.png",34,34,34,0.5,"stim/43.jpeg",4,3,1,NA,"HouseObjects",1,4,"left","right",0.546999931,0,0,1,1,NA,NA,NA,NA,NA,NA,NA,NA,NA,NA,NA,NA,NA,NA,NA,NA,NA,NA,NA,NA,NA,NA,NA,NA
"224","stim/objects/Instruments/violin2.png",35,34,35,0.1,"stim/22.jpeg",2,2,3,NA,"Instruments",2,4,"right","left",0.68599987,0,0,1,1,NA,NA,NA,NA,NA,NA,NA,NA,NA,NA,NA,NA,NA,NA,NA,NA,NA,NA,NA,NA,NA,NA,NA,NA
"73","stim/objects/HouseObjects/thread.png",36,34,36,0.3,"stim/51.jpeg",5,1,2,NA,"HouseObjects",1,4,"left","right",0.796000004,0,0,1,1,NA,NA,NA,NA,NA,NA,NA,NA,NA,NA,NA,NA,NA,NA,NA,NA,NA,NA,NA,NA,NA,NA,NA,NA
"234","stim/objects/Instruments/xylophone.png",37,34,37,0.7,"stim/54.jpeg",5,4,2,NA,"Instruments",2,1,"right","left",0.710000038,0,0,1,1,NA,NA,NA,NA,NA,NA,NA,NA,NA,NA,NA,NA,NA,NA,NA,NA,NA,NA,NA,NA,NA,NA,NA,NA
"122","stim/objects/Instruments/record_player.png",38,34,38,0.5,"stim/31.jpeg",3,1,1,NA,"Instruments",2,2,"right","right",0.684999943,1,1,1,1,NA,NA,NA,NA,NA,NA,NA,NA,NA,NA,NA,NA,NA,NA,NA,NA,NA,NA,NA,NA,NA,NA,NA,NA
"160","stim/objects/Instruments/timbal2.png",39,34,39,0.9,"stim/11.jpeg",1,1,3,NA,"Instruments",2,1,"right","right",0.680999756,1,1,1,1,NA,NA,NA,NA,NA,NA,NA,NA,NA,NA,NA,NA,NA,NA,NA,NA,NA,NA,NA,NA,NA,NA,NA,NA
"154","stim/objects/Instruments/timbal.png",40,34,40,0.5,"stim/41.jpeg",4,1,1,NA,"Instruments",2,4,"right","right",0.671999931,1,1,1,1,NA,NA,NA,NA,NA,NA,NA,NA,NA,NA,NA,NA,NA,NA,NA,NA,NA,NA,NA,NA,NA,NA,NA,NA
"1","stim/objects/HouseObjects/rug.png",41,34,41,0.5,"stim/31.jpeg",3,1,1,NA,"HouseObjects",1,3,"left","",NA,0,0,1,1,NA,NA,NA,NA,NA,NA,NA,NA,NA,NA,NA,NA,NA,NA,NA,NA,NA,NA,NA,NA,NA,NA,NA,NA
"225","stim/objects/Instruments/vuvuzela.png",42,34,42,0.7,"stim/53.jpeg",5,3,2,NA,"Instruments",2,4,"right","right",0.665999889,1,1,1,1,NA,NA,NA,NA,NA,NA,NA,NA,NA,NA,NA,NA,NA,NA,NA,NA,NA,NA,NA,NA,NA,NA,NA,NA
"127","stim/objects/Instruments/record_player2.png",43,34,43,0.3,"stim/61.jpeg",6,1,2,NA,"Instruments",2,1,"right","left",0.606999874,0,0,1,1,NA,NA,NA,NA,NA,NA,NA,NA,NA,NA,NA,NA,NA,NA,NA,NA,NA,NA,NA,NA,NA,NA,NA,NA
"210","stim/objects/Instruments/tuba.png",44,34,44,0.7,"stim/51.jpeg",5,1,2,NA,"Instruments",2,2,"right","right",0.565000057,1,1,1,1,NA,NA,NA,NA,NA,NA,NA,NA,NA,NA,NA,NA,NA,NA,NA,NA,NA,NA,NA,NA,NA,NA,NA,NA
"226","stim/objects/Instruments/vuvuzela.png",45,34,45,0.7,"stim/53.jpeg",5,3,2,NA,"Instruments",2,2,"right","right",0.608999968,1,1,1,1,NA,NA,NA,NA,NA,NA,NA,NA,NA,NA,NA,NA,NA,NA,NA,NA,NA,NA,NA,NA,NA,NA,NA,NA
"155","stim/objects/Instruments/timbal.png",46,34,46,0.5,"stim/41.jpeg",4,1,1,NA,"Instruments",2,2,"right","",NA,0,0,1,1,NA,NA,NA,NA,NA,NA,NA,NA,NA,NA,NA,NA,NA,NA,NA,NA,NA,NA,NA,NA,NA,NA,NA,NA
"50","stim/objects/HouseObjects/sponge.png",47,34,47,0.5,"stim/41.jpeg",4,1,1,NA,"HouseObjects",1,4,"left","right",0.572000027,0,0,1,1,NA,NA,NA,NA,NA,NA,NA,NA,NA,NA,NA,NA,NA,NA,NA,NA,NA,NA,NA,NA,NA,NA,NA,NA
"77","stim/objects/HouseObjects/thread2.png",48,34,48,0.9,"stim/21.jpeg",2,1,3,NA,"HouseObjects",1,1,"left","left",0.492999792,1,1,1,1,NA,NA,NA,NA,NA,NA,NA,NA,NA,NA,NA,NA,NA,NA,NA,NA,NA,NA,NA,NA,NA,NA,NA,NA
"14","stim/objects/HouseObjects/safetypin.png",49,34,49,0.5,"stim/32.jpeg",3,2,1,NA,"HouseObjects",1,1,"left","right",0.68599987,0,0,1,1,NA,NA,NA,NA,NA,NA,NA,NA,NA,NA,NA,NA,NA,NA,NA,NA,NA,NA,NA,NA,NA,NA,NA,NA
"25","stim/objects/HouseObjects/saw.png",50,34,50,0.5,"stim/33.jpeg",3,3,1,NA,"HouseObjects",1,3,"left","left",0.613999844,1,1,1,1,NA,NA,NA,NA,NA,NA,NA,NA,NA,NA,NA,NA,NA,NA,NA,NA,NA,NA,NA,NA,NA,NA,NA,NA
"144","stim/objects/Instruments/speaker2.png",51,34,51,0.3,"stim/63.jpeg",6,3,2,NA,"Instruments",2,4,"right","left",0.772999763,0,0,1,1,NA,NA,NA,NA,NA,NA,NA,NA,NA,NA,NA,NA,NA,NA,NA,NA,NA,NA,NA,NA,NA,NA,NA,NA
"60","stim/objects/HouseObjects/spraybottle2.png",52,34,52,0.1,"stim/12.jpeg",1,2,3,NA,"HouseObjects",1,3,"left","right",0.765000105,0,0,1,1,NA,NA,NA,NA,NA,NA,NA,NA,NA,NA,NA,NA,NA,NA,NA,NA,NA,NA,NA,NA,NA,NA,NA,NA
"218","stim/objects/Instruments/violin.png",53,34,53,0.7,"stim/52.jpeg",5,2,2,NA,"Instruments",2,2,"right","right",0.445999861,1,1,1,1,NA,NA,NA,NA,NA,NA,NA,NA,NA,NA,NA,NA,NA,NA,NA,NA,NA,NA,NA,NA,NA,NA,NA,NA
"97","stim/objects/HouseObjects/vacuumcleaner.png",54,34,54,0.3,"stim/53.jpeg",5,3,2,NA,"HouseObjects",1,4,"left","right",0.559999943,0,0,1,1,NA,NA,NA,NA,NA,NA,NA,NA,NA,NA,NA,NA,NA,NA,NA,NA,NA,NA,NA,NA,NA,NA,NA,NA
"146","stim/objects/Instruments/tambourine.png",55,34,55,0.5,"stim/34.jpeg",3,4,1,NA,"Instruments",2,1,"right","left",0.481999874,0,0,1,1,NA,NA,NA,NA,NA,NA,NA,NA,NA,NA,NA,NA,NA,NA,NA,NA,NA,NA,NA,NA,NA,NA,NA,NA
"88","stim/objects/HouseObjects/towel2.png",56,34,56,0.9,"stim/22.jpeg",2,2,3,NA,"HouseObjects",1,3,"left","left",0.671000004,1,1,1,1,NA,NA,NA,NA,NA,NA,NA,NA,NA,NA,NA,NA,NA,NA,NA,NA,NA,NA,NA,NA,NA,NA,NA,NA
"67","stim/objects/HouseObjects/thermometer.png",57,34,57,0.5,"stim/44.jpeg",4,4,1,NA,"HouseObjects",1,3,"left","right",0.576999903,0,0,1,1,NA,NA,NA,NA,NA,NA,NA,NA,NA,NA,NA,NA,NA,NA,NA,NA,NA,NA,NA,NA,NA,NA,NA,NA
"26","stim/objects/HouseObjects/saw.png",58,34,58,0.5,"stim/33.jpeg",3,3,1,NA,"HouseObjects",1,2,"left","left",0.625999928,1,1,1,1,NA,NA,NA,NA,NA,NA,NA,NA,NA,NA,NA,NA,NA,NA,NA,NA,NA,NA,NA,NA,NA,NA,NA,NA
"219","stim/objects/Instruments/violin.png",59,34,59,0.7,"stim/52.jpeg",5,2,2,NA,"Instruments",2,4,"right","right",0.606999874,1,1,1,1,NA,NA,NA,NA,NA,NA,NA,NA,NA,NA,NA,NA,NA,NA,NA,NA,NA,NA,NA,NA,NA,NA,NA,NA
"137","stim/objects/Instruments/speaker.png",60,34,60,0.5,"stim/33.jpeg",3,3,1,NA,"Instruments",2,3,"right","right",0.694999933,1,1,1,1,NA,NA,NA,NA,NA,NA,NA,NA,NA,NA,NA,NA,NA,NA,NA,NA,NA,NA,NA,NA,NA,NA,NA,NA
"63","stim/objects/HouseObjects/teapot.png",61,34,61,0.5,"stim/43.jpeg",4,3,1,NA,"HouseObjects",1,2,"left","left",0.535000086,1,1,1,1,NA,NA,NA,NA,NA,NA,NA,NA,NA,NA,NA,NA,NA,NA,NA,NA,NA,NA,NA,NA,NA,NA,NA,NA
"43","stim/objects/HouseObjects/scale2.png",62,34,62,0.7,"stim/64.jpeg",6,4,2,NA,"HouseObjects",1,4,"left","right",0.734999895,0,0,1,1,NA,NA,NA,NA,NA,NA,NA,NA,NA,NA,NA,NA,NA,NA,NA,NA,NA,NA,NA,NA,NA,NA,NA,NA
"123","stim/objects/Instruments/record_player.png",63,34,63,0.5,"stim/31.jpeg",3,1,1,NA,"Instruments",2,4,"right","left",0.592999935,0,0,1,1,NA,NA,NA,NA,NA,NA,NA,NA,NA,NA,NA,NA,NA,NA,NA,NA,NA,NA,NA,NA,NA,NA,NA,NA
"138","stim/objects/Instruments/speaker.png",64,34,64,0.5,"stim/33.jpeg",3,3,1,NA,"Instruments",2,1,"right","right",0.598999977,1,1,1,1,NA,NA,NA,NA,NA,NA,NA,NA,NA,NA,NA,NA,NA,NA,NA,NA,NA,NA,NA,NA,NA,NA,NA,NA
"27","stim/objects/HouseObjects/saw.png",65,34,65,0.5,"stim/33.jpeg",3,3,1,NA,"HouseObjects",1,1,"left","right",0.636999846,0,0,1,1,NA,NA,NA,NA,NA,NA,NA,NA,NA,NA,NA,NA,NA,NA,NA,NA,NA,NA,NA,NA,NA,NA,NA,NA
"187","stim/objects/Instruments/trombone2.png",66,34,66,0.9,"stim/13.jpeg",1,3,3,NA,"Instruments",2,2,"right","right",0.612999916,1,1,1,1,NA,NA,NA,NA,NA,NA,NA,NA,NA,NA,NA,NA,NA,NA,NA,NA,NA,NA,NA,NA,NA,NA,NA,NA
"202","stim/objects/Instruments/trumpet2.png",67,34,67,0.9,"stim/14.jpeg",1,4,3,NA,"Instruments",2,1,"right","right",0.570999861,1,1,1,1,NA,NA,NA,NA,NA,NA,NA,NA,NA,NA,NA,NA,NA,NA,NA,NA,NA,NA,NA,NA,NA,NA,NA,NA
"100","stim/objects/HouseObjects/vacuumcleaner2.png",68,34,68,0.9,"stim/23.jpeg",2,3,3,NA,"HouseObjects",1,3,"left","left",0.644000053,1,1,1,1,NA,NA,NA,NA,NA,NA,NA,NA,NA,NA,NA,NA,NA,NA,NA,NA,NA,NA,NA,NA,NA,NA,NA,NA
"240","stim/objects/Instruments/xylophone2.png",69,34,69,0.1,"stim/24.jpeg",2,4,3,NA,"Instruments",2,3,"right","left",0.513000011,0,0,1,1,NA,NA,NA,NA,NA,NA,NA,NA,NA,NA,NA,NA,NA,NA,NA,NA,NA,NA,NA,NA,NA,NA,NA,NA
"188","stim/objects/Instruments/trombone2.png",70,34,70,0.9,"stim/13.jpeg",1,3,3,NA,"Instruments",2,3,"right","right",0.669999838,1,1,1,1,NA,NA,NA,NA,NA,NA,NA,NA,NA,NA,NA,NA,NA,NA,NA,NA,NA,NA,NA,NA,NA,NA,NA,NA
"55","stim/objects/HouseObjects/spraybottle.png",71,34,71,0.5,"stim/42.jpeg",4,2,1,NA,"HouseObjects",1,4,"left","left",0.710999966,1,1,1,1,NA,NA,NA,NA,NA,NA,NA,NA,NA,NA,NA,NA,NA,NA,NA,NA,NA,NA,NA,NA,NA,NA,NA,NA
"134","stim/objects/Instruments/saxophone2.png",72,34,72,0.3,"stim/62.jpeg",6,2,2,NA,"Instruments",2,4,"right","left",0.72699976,0,0,1,1,NA,NA,NA,NA,NA,NA,NA,NA,NA,NA,NA,NA,NA,NA,NA,NA,NA,NA,NA,NA,NA,NA,NA,NA
"44","stim/objects/HouseObjects/scale2.png",73,34,73,0.7,"stim/64.jpeg",6,4,2,NA,"HouseObjects",1,4,"left","right",0.618000031,0,0,1,1,NA,NA,NA,NA,NA,NA,NA,NA,NA,NA,NA,NA,NA,NA,NA,NA,NA,NA,NA,NA,NA,NA,NA,NA
"114","stim/objects/HouseObjects/wateringcan2.png",74,34,74,0.9,"stim/24.jpeg",2,4,3,NA,"HouseObjects",1,3,"left","left",0.598999977,1,1,1,1,NA,NA,NA,NA,NA,NA,NA,NA,NA,NA,NA,NA,NA,NA,NA,NA,NA,NA,NA,NA,NA,NA,NA,NA
"115","stim/objects/HouseObjects/wateringcan2.png",75,34,75,0.9,"stim/24.jpeg",2,4,3,NA,"HouseObjects",1,4,"left","left",0.56099987,1,1,1,1,NA,NA,NA,NA,NA,NA,NA,NA,NA,NA,NA,NA,NA,NA,NA,NA,NA,NA,NA,NA,NA,NA,NA,NA
"109","stim/objects/HouseObjects/wateringcan.png",76,34,76,0.3,"stim/54.jpeg",5,4,2,NA,"HouseObjects",1,2,"left","right",0.688999891,0,0,1,1,NA,NA,NA,NA,NA,NA,NA,NA,NA,NA,NA,NA,NA,NA,NA,NA,NA,NA,NA,NA,NA,NA,NA,NA
"38","stim/objects/HouseObjects/scale.png",77,34,77,0.5,"stim/34.jpeg",3,4,1,NA,"HouseObjects",1,4,"left","",NA,0,0,1,1,NA,NA,NA,NA,NA,NA,NA,NA,NA,NA,NA,NA,NA,NA,NA,NA,NA,NA,NA,NA,NA,NA,NA,NA
"56","stim/objects/HouseObjects/spraybottle.png",78,34,78,0.5,"stim/42.jpeg",4,2,1,NA,"HouseObjects",1,4,"left","right",0.673999786,0,0,1,1,NA,NA,NA,NA,NA,NA,NA,NA,NA,NA,NA,NA,NA,NA,NA,NA,NA,NA,NA,NA,NA,NA,NA,NA
"74","stim/objects/HouseObjects/thread.png",79,34,79,0.3,"stim/51.jpeg",5,1,2,NA,"HouseObjects",1,2,"left","left",0.523000002,1,1,1,1,NA,NA,NA,NA,NA,NA,NA,NA,NA,NA,NA,NA,NA,NA,NA,NA,NA,NA,NA,NA,NA,NA,NA,NA
"85","stim/objects/HouseObjects/towel.png",80,34,80,0.3,"stim/52.jpeg",5,2,2,NA,"HouseObjects",1,1,"left","right",0.646999836,0,0,1,1,NA,NA,NA,NA,NA,NA,NA,NA,NA,NA,NA,NA,NA,NA,NA,NA,NA,NA,NA,NA,NA,NA,NA,NA
"7","stim/objects/HouseObjects/rug2.png",81,34,81,0.7,"stim/61.jpeg",6,1,2,NA,"HouseObjects",1,1,"left","right",0.819000006,0,0,1,1,NA,NA,NA,NA,NA,NA,NA,NA,NA,NA,NA,NA,NA,NA,NA,NA,NA,NA,NA,NA,NA,NA,NA,NA
"68","stim/objects/HouseObjects/thermometer.png",82,34,82,0.5,"stim/44.jpeg",4,4,1,NA,"HouseObjects",1,2,"left","right",0.726000071,0,0,1,1,NA,NA,NA,NA,NA,NA,NA,NA,NA,NA,NA,NA,NA,NA,NA,NA,NA,NA,NA,NA,NA,NA,NA,NA
"181","stim/objects/Instruments/trombone.png",83,34,83,0.5,"stim/43.jpeg",4,3,1,NA,"Instruments",2,3,"right","",NA,0,0,1,1,NA,NA,NA,NA,NA,NA,NA,NA,NA,NA,NA,NA,NA,NA,NA,NA,NA,NA,NA,NA,NA,NA,NA,NA
"211","stim/objects/Instruments/tuba.png",84,34,84,0.7,"stim/51.jpeg",5,1,2,NA,"Instruments",2,2,"right","right",0.559999943,1,1,1,1,NA,NA,NA,NA,NA,NA,NA,NA,NA,NA,NA,NA,NA,NA,NA,NA,NA,NA,NA,NA,NA,NA,NA,NA
"135","stim/objects/Instruments/saxophone2.png",85,34,85,0.3,"stim/62.jpeg",6,2,2,NA,"Instruments",2,3,"right","left",0.635999918,0,0,1,1,NA,NA,NA,NA,NA,NA,NA,NA,NA,NA,NA,NA,NA,NA,NA,NA,NA,NA,NA,NA,NA,NA,NA,NA
"189","stim/objects/Instruments/trombone2.png",86,34,86,0.9,"stim/13.jpeg",1,3,3,NA,"Instruments",2,4,"right","right",0.572999954,1,1,1,1,NA,NA,NA,NA,NA,NA,NA,NA,NA,NA,NA,NA,NA,NA,NA,NA,NA,NA,NA,NA,NA,NA,NA,NA
"89","stim/objects/HouseObjects/towel2.png",87,34,87,0.9,"stim/22.jpeg",2,2,3,NA,"HouseObjects",1,4,"left","left",0.672999859,1,1,1,1,NA,NA,NA,NA,NA,NA,NA,NA,NA,NA,NA,NA,NA,NA,NA,NA,NA,NA,NA,NA,NA,NA,NA,NA
"167","stim/objects/Instruments/triangle.png",88,34,88,0.5,"stim/42.jpeg",4,2,1,NA,"Instruments",2,1,"right","right",0.74000001,1,1,1,1,NA,NA,NA,NA,NA,NA,NA,NA,NA,NA,NA,NA,NA,NA,NA,NA,NA,NA,NA,NA,NA,NA,NA,NA
"235","stim/objects/Instruments/xylophone.png",89,34,89,0.7,"stim/54.jpeg",5,4,2,NA,"Instruments",2,3,"right","right",0.678999901,1,1,1,1,NA,NA,NA,NA,NA,NA,NA,NA,NA,NA,NA,NA,NA,NA,NA,NA,NA,NA,NA,NA,NA,NA,NA,NA
"195","stim/objects/Instruments/trumpet.png",90,34,90,0.5,"stim/44.jpeg",4,4,1,NA,"Instruments",2,3,"right","left",0.663999796,0,0,1,1,NA,NA,NA,NA,NA,NA,NA,NA,NA,NA,NA,NA,NA,NA,NA,NA,NA,NA,NA,NA,NA,NA,NA,NA
"168","stim/objects/Instruments/triangle.png",91,34,91,0.5,"stim/42.jpeg",4,2,1,NA,"Instruments",2,3,"right","right",0.773000002,1,1,1,1,NA,NA,NA,NA,NA,NA,NA,NA,NA,NA,NA,NA,NA,NA,NA,NA,NA,NA,NA,NA,NA,NA,NA,NA
"51","stim/objects/HouseObjects/sponge.png",92,34,92,0.5,"stim/41.jpeg",4,1,1,NA,"HouseObjects",1,4,"left","left",0.697999954,1,1,1,1,NA,NA,NA,NA,NA,NA,NA,NA,NA,NA,NA,NA,NA,NA,NA,NA,NA,NA,NA,NA,NA,NA,NA,NA
"54","stim/objects/HouseObjects/sponge2.png",93,34,93,0.1,"stim/11.jpeg",1,1,3,NA,"HouseObjects",1,2,"left","right",0.646000147,0,0,1,1,NA,NA,NA,NA,NA,NA,NA,NA,NA,NA,NA,NA,NA,NA,NA,NA,NA,NA,NA,NA,NA,NA,NA,NA
"212","stim/objects/Instruments/tuba.png",94,34,94,0.7,"stim/51.jpeg",5,1,2,NA,"Instruments",2,1,"right","right",0.633999825,1,1,1,1,NA,NA,NA,NA,NA,NA,NA,NA,NA,NA,NA,NA,NA,NA,NA,NA,NA,NA,NA,NA,NA,NA,NA,NA
"21","stim/objects/HouseObjects/safetypin2.png",95,34,95,0.7,"stim/62.jpeg",6,2,2,NA,"HouseObjects",1,2,"left","right",0.809999943,0,0,1,1,NA,NA,NA,NA,NA,NA,NA,NA,NA,NA,NA,NA,NA,NA,NA,NA,NA,NA,NA,NA,NA,NA,NA,NA
"101","stim/objects/HouseObjects/vacuumcleaner2.png",96,34,96,0.9,"stim/23.jpeg",2,3,3,NA,"HouseObjects",1,4,"left","left",0.618000031,1,1,1,1,NA,NA,NA,NA,NA,NA,NA,NA,NA,NA,NA,NA,NA,NA,NA,NA,NA,NA,NA,NA,NA,NA,NA,NA
"90","stim/objects/HouseObjects/towel2.png",97,34,97,0.9,"stim/22.jpeg",2,2,3,NA,"HouseObjects",1,2,"left","left",0.46999979,1,1,1,1,NA,NA,NA,NA,NA,NA,NA,NA,NA,NA,NA,NA,NA,NA,NA,NA,NA,NA,NA,NA,NA,NA,NA,NA
"45","stim/objects/HouseObjects/scale2.png",98,34,98,0.7,"stim/64.jpeg",6,4,2,NA,"HouseObjects",1,2,"left","",NA,0,0,1,1,NA,NA,NA,NA,NA,NA,NA,NA,NA,NA,NA,NA,NA,NA,NA,NA,NA,NA,NA,NA,NA,NA,NA,NA
"169","stim/objects/Instruments/triangle.png",99,34,99,0.5,"stim/42.jpeg",4,2,1,NA,"Instruments",2,1,"right","right",0.687999725,1,1,1,1,NA,NA,NA,NA,NA,NA,NA,NA,NA,NA,NA,NA,NA,NA,NA,NA,NA,NA,NA,NA,NA,NA,NA,NA
"8","stim/objects/HouseObjects/rug2.png",100,34,100,0.7,"stim/61.jpeg",6,1,2,NA,"HouseObjects",1,1,"left","right",0.598999977,0,0,1,1,NA,NA,NA,NA,NA,NA,NA,NA,NA,NA,NA,NA,NA,NA,NA,NA,NA,NA,NA,NA,NA,NA,NA,NA
"236","stim/objects/Instruments/xylophone.png",101,34,101,0.7,"stim/54.jpeg",5,4,2,NA,"Instruments",2,1,"right","left",0.574999809,0,0,1,1,NA,NA,NA,NA,NA,NA,NA,NA,NA,NA,NA,NA,NA,NA,NA,NA,NA,NA,NA,NA,NA,NA,NA,NA
"175","stim/objects/Instruments/triangle2.png",102,34,102,0.9,"stim/12.jpeg",1,2,3,NA,"Instruments",2,3,"right","right",0.56799984,1,1,1,1,NA,NA,NA,NA,NA,NA,NA,NA,NA,NA,NA,NA,NA,NA,NA,NA,NA,NA,NA,NA,NA,NA,NA,NA
"78","stim/objects/HouseObjects/thread2.png",103,34,103,0.9,"stim/21.jpeg",2,1,3,NA,"HouseObjects",1,4,"left","left",0.654999733,1,1,1,1,NA,NA,NA,NA,NA,NA,NA,NA,NA,NA,NA,NA,NA,NA,NA,NA,NA,NA,NA,NA,NA,NA,NA,NA
"9","stim/objects/HouseObjects/rug2.png",104,34,104,0.7,"stim/61.jpeg",6,1,2,NA,"HouseObjects",1,2,"left","right",0.711999893,0,0,1,1,NA,NA,NA,NA,NA,NA,NA,NA,NA,NA,NA,NA,NA,NA,NA,NA,NA,NA,NA,NA,NA,NA,NA,NA
"182","stim/objects/Instruments/trombone.png",105,34,105,0.5,"stim/43.jpeg",4,3,1,NA,"Instruments",2,4,"right","left",0.836999893,0,0,1,1,NA,NA,NA,NA,NA,NA,NA,NA,NA,NA,NA,NA,NA,NA,NA,NA,NA,NA,NA,NA,NA,NA,NA,NA
"102","stim/objects/HouseObjects/vacuumcleaner2.png",106,34,106,0.9,"stim/23.jpeg",2,3,3,NA,"HouseObjects",1,4,"left","left",0.61500001,1,1,1,1,NA,NA,NA,NA,NA,NA,NA,NA,NA,NA,NA,NA,NA,NA,NA,NA,NA,NA,NA,NA,NA,NA,NA,NA
"183","stim/objects/Instruments/trombone.png",107,34,107,0.5,"stim/43.jpeg",4,3,1,NA,"Instruments",2,3,"right","right",0.624000072,1,1,1,1,NA,NA,NA,NA,NA,NA,NA,NA,NA,NA,NA,NA,NA,NA,NA,NA,NA,NA,NA,NA,NA,NA,NA,NA
"220","stim/objects/Instruments/violin.png",108,34,108,0.7,"stim/52.jpeg",5,2,2,NA,"Instruments",2,3,"right","right",0.781999826,1,1,1,1,NA,NA,NA,NA,NA,NA,NA,NA,NA,NA,NA,NA,NA,NA,NA,NA,NA,NA,NA,NA,NA,NA,NA,NA
"2","stim/objects/HouseObjects/rug.png",109,34,109,0.5,"stim/31.jpeg",3,1,1,NA,"HouseObjects",1,2,"left","right",0.822999954,0,0,1,1,NA,NA,NA,NA,NA,NA,NA,NA,NA,NA,NA,NA,NA,NA,NA,NA,NA,NA,NA,NA,NA,NA,NA,NA
"128","stim/objects/Instruments/record_player2.png",110,34,110,0.3,"stim/61.jpeg",6,1,2,NA,"Instruments",2,1,"right","",NA,0,0,1,1,NA,NA,NA,NA,NA,NA,NA,NA,NA,NA,NA,NA,NA,NA,NA,NA,NA,NA,NA,NA,NA,NA,NA,NA
"161","stim/objects/Instruments/timbal2.png",111,34,111,0.9,"stim/11.jpeg",1,1,3,NA,"Instruments",2,1,"right","right",0.852999926,1,1,1,1,NA,NA,NA,NA,NA,NA,NA,NA,NA,NA,NA,NA,NA,NA,NA,NA,NA,NA,NA,NA,NA,NA,NA,NA
"39","stim/objects/HouseObjects/scale.png",112,34,112,0.5,"stim/34.jpeg",3,4,1,NA,"HouseObjects",1,3,"left","left",0.718999863,1,1,1,1,NA,NA,NA,NA,NA,NA,NA,NA,NA,NA,NA,NA,NA,NA,NA,NA,NA,NA,NA,NA,NA,NA,NA,NA
"10","stim/objects/HouseObjects/rug2.png",113,34,113,0.7,"stim/61.jpeg",6,1,2,NA,"HouseObjects",1,2,"left","right",0.594000101,0,0,1,1,NA,NA,NA,NA,NA,NA,NA,NA,NA,NA,NA,NA,NA,NA,NA,NA,NA,NA,NA,NA,NA,NA,NA,NA
"3","stim/objects/HouseObjects/rug.png",114,34,114,0.5,"stim/31.jpeg",3,1,1,NA,"HouseObjects",1,3,"left","left",0.697999954,1,1,1,1,NA,NA,NA,NA,NA,NA,NA,NA,NA,NA,NA,NA,NA,NA,NA,NA,NA,NA,NA,NA,NA,NA,NA,NA
"32","stim/objects/HouseObjects/saw2.png",115,34,115,0.7,"stim/63.jpeg",6,3,2,NA,"HouseObjects",1,2,"left","right",0.667999983,0,0,1,1,NA,NA,NA,NA,NA,NA,NA,NA,NA,NA,NA,NA,NA,NA,NA,NA,NA,NA,NA,NA,NA,NA,NA,NA
"22","stim/objects/HouseObjects/safetypin2.png",116,34,116,0.7,"stim/62.jpeg",6,2,2,NA,"HouseObjects",1,2,"left","right",0.837999821,0,0,1,1,NA,NA,NA,NA,NA,NA,NA,NA,NA,NA,NA,NA,NA,NA,NA,NA,NA,NA,NA,NA,NA,NA,NA,NA
"156","stim/objects/Instruments/timbal.png",117,34,117,0.5,"stim/41.jpeg",4,1,1,NA,"Instruments",2,2,"right","",NA,0,0,1,1,NA,NA,NA,NA,NA,NA,NA,NA,NA,NA,NA,NA,NA,NA,NA,NA,NA,NA,NA,NA,NA,NA,NA,NA
"79","stim/objects/HouseObjects/thread2.png",118,34,118,0.9,"stim/21.jpeg",2,1,3,NA,"HouseObjects",1,1,"left","right",0.570999861,0,0,1,1,NA,NA,NA,NA,NA,NA,NA,NA,NA,NA,NA,NA,NA,NA,NA,NA,NA,NA,NA,NA,NA,NA,NA,NA
"69","stim/objects/HouseObjects/thermometer.png",119,34,119,0.5,"stim/44.jpeg",4,4,1,NA,"HouseObjects",1,1,"left","left",0.715999842,1,1,1,1,NA,NA,NA,NA,NA,NA,NA,NA,NA,NA,NA,NA,NA,NA,NA,NA,NA,NA,NA,NA,NA,NA,NA,NA
"151","stim/objects/Instruments/tambourine2.png",120,34,120,0.3,"stim/64.jpeg",6,4,2,NA,"Instruments",2,1,"right","left",0.809000015,0,0,1,1,NA,NA,NA,NA,NA,NA,NA,NA,NA,NA,NA,NA,NA,NA,NA,NA,NA,NA,NA,NA,NA,NA,NA,NA
"196","stim/objects/Instruments/trumpet.png",121,34,121,0.5,"stim/44.jpeg",4,4,1,NA,"Instruments",2,1,"right","left",0.703999758,0,0,1,1,NA,NA,NA,NA,NA,NA,NA,NA,NA,NA,NA,NA,NA,NA,NA,NA,NA,NA,NA,NA,NA,NA,NA,NA
"40","stim/objects/HouseObjects/scale.png",122,34,122,0.5,"stim/34.jpeg",3,4,1,NA,"HouseObjects",1,3,"left","right",0.739999771,0,0,1,1,NA,NA,NA,NA,NA,NA,NA,NA,NA,NA,NA,NA,NA,NA,NA,NA,NA,NA,NA,NA,NA,NA,NA,NA
"162","stim/objects/Instruments/timbal2.png",123,34,123,0.9,"stim/11.jpeg",1,1,3,NA,"Instruments",2,1,"right","right",0.735999823,1,1,1,1,NA,NA,NA,NA,NA,NA,NA,NA,NA,NA,NA,NA,NA,NA,NA,NA,NA,NA,NA,NA,NA,NA,NA,NA
"176","stim/objects/Instruments/triangle2.png",124,34,124,0.9,"stim/12.jpeg",1,2,3,NA,"Instruments",2,1,"right","right",0.717000008,1,1,1,1,NA,NA,NA,NA,NA,NA,NA,NA,NA,NA,NA,NA,NA,NA,NA,NA,NA,NA,NA,NA,NA,NA,NA,NA
"157","stim/objects/Instruments/timbal.png",125,34,125,0.5,"stim/41.jpeg",4,1,1,NA,"Instruments",2,2,"right","",NA,0,0,1,1,NA,NA,NA,NA,NA,NA,NA,NA,NA,NA,NA,NA,NA,NA,NA,NA,NA,NA,NA,NA,NA,NA,NA,NA
"33","stim/objects/HouseObjects/saw2.png",126,34,126,0.7,"stim/63.jpeg",6,3,2,NA,"HouseObjects",1,3,"left","left",0.796000004,1,1,1,1,NA,NA,NA,NA,NA,NA,NA,NA,NA,NA,NA,NA,NA,NA,NA,NA,NA,NA,NA,NA,NA,NA,NA,NA
"130","stim/objects/Instruments/saxophone.png",127,34,127,0.5,"stim/32.jpeg",3,2,1,NA,"Instruments",2,1,"right","",NA,0,0,1,1,NA,NA,NA,NA,NA,NA,NA,NA,NA,NA,NA,NA,NA,NA,NA,NA,NA,NA,NA,NA,NA,NA,NA,NA
"91","stim/objects/HouseObjects/towel2.png",128,34,128,0.9,"stim/22.jpeg",2,2,3,NA,"HouseObjects",1,2,"left","left",0.552000046,1,1,1,1,NA,NA,NA,NA,NA,NA,NA,NA,NA,NA,NA,NA,NA,NA,NA,NA,NA,NA,NA,NA,NA,NA,NA,NA
"64","stim/objects/HouseObjects/teapot.png",129,34,129,0.5,"stim/43.jpeg",4,3,1,NA,"HouseObjects",1,4,"left","left",0.664000034,1,1,1,1,NA,NA,NA,NA,NA,NA,NA,NA,NA,NA,NA,NA,NA,NA,NA,NA,NA,NA,NA,NA,NA,NA,NA,NA
"139","stim/objects/Instruments/speaker.png",130,34,130,0.5,"stim/33.jpeg",3,3,1,NA,"Instruments",2,2,"right","right",0.541000128,1,1,1,1,NA,NA,NA,NA,NA,NA,NA,NA,NA,NA,NA,NA,NA,NA,NA,NA,NA,NA,NA,NA,NA,NA,NA,NA
"203","stim/objects/Instruments/trumpet2.png",131,34,131,0.9,"stim/14.jpeg",1,4,3,NA,"Instruments",2,3,"right","right",0.589999914,1,1,1,1,NA,NA,NA,NA,NA,NA,NA,NA,NA,NA,NA,NA,NA,NA,NA,NA,NA,NA,NA,NA,NA,NA,NA,NA
"28","stim/objects/HouseObjects/saw.png",132,34,132,0.5,"stim/33.jpeg",3,3,1,NA,"HouseObjects",1,3,"left","right",0.644000053,0,0,1,1,NA,NA,NA,NA,NA,NA,NA,NA,NA,NA,NA,NA,NA,NA,NA,NA,NA,NA,NA,NA,NA,NA,NA,NA
"190","stim/objects/Instruments/trombone2.png",133,34,133,0.9,"stim/13.jpeg",1,3,3,NA,"Instruments",2,2,"right","",NA,0,0,1,1,NA,NA,NA,NA,NA,NA,NA,NA,NA,NA,NA,NA,NA,NA,NA,NA,NA,NA,NA,NA,NA,NA,NA,NA
"103","stim/objects/HouseObjects/vacuumcleaner2.png",134,34,134,0.9,"stim/23.jpeg",2,3,3,NA,"HouseObjects",1,1,"left","left",0.568000078,1,1,1,1,NA,NA,NA,NA,NA,NA,NA,NA,NA,NA,NA,NA,NA,NA,NA,NA,NA,NA,NA,NA,NA,NA,NA,NA
"237","stim/objects/Instruments/xylophone.png",135,34,135,0.7,"stim/54.jpeg",5,4,2,NA,"Instruments",2,4,"right","right",0.549000025,1,1,1,1,NA,NA,NA,NA,NA,NA,NA,NA,NA,NA,NA,NA,NA,NA,NA,NA,NA,NA,NA,NA,NA,NA,NA,NA
"177","stim/objects/Instruments/triangle2.png",136,34,136,0.9,"stim/12.jpeg",1,2,3,NA,"Instruments",2,3,"right","right",0.519000053,1,1,1,1,NA,NA,NA,NA,NA,NA,NA,NA,NA,NA,NA,NA,NA,NA,NA,NA,NA,NA,NA,NA,NA,NA,NA,NA
"221","stim/objects/Instruments/violin.png",137,34,137,0.7,"stim/52.jpeg",5,2,2,NA,"Instruments",2,2,"right","right",0.549999952,1,1,1,1,NA,NA,NA,NA,NA,NA,NA,NA,NA,NA,NA,NA,NA,NA,NA,NA,NA,NA,NA,NA,NA,NA,NA,NA
"124","stim/objects/Instruments/record_player.png",138,34,138,0.5,"stim/31.jpeg",3,1,1,NA,"Instruments",2,1,"right","left",0.629999876,0,0,1,1,NA,NA,NA,NA,NA,NA,NA,NA,NA,NA,NA,NA,NA,NA,NA,NA,NA,NA,NA,NA,NA,NA,NA,NA
"98","stim/objects/HouseObjects/vacuumcleaner.png",139,34,139,0.3,"stim/53.jpeg",5,3,2,NA,"HouseObjects",1,3,"left","right",0.455999851,0,0,1,1,NA,NA,NA,NA,NA,NA,NA,NA,NA,NA,NA,NA,NA,NA,NA,NA,NA,NA,NA,NA,NA,NA,NA,NA
"80","stim/objects/HouseObjects/thread2.png",140,34,140,0.9,"stim/21.jpeg",2,1,3,NA,"HouseObjects",1,2,"left","left",0.611999989,1,1,1,1,NA,NA,NA,NA,NA,NA,NA,NA,NA,NA,NA,NA,NA,NA,NA,NA,NA,NA,NA,NA,NA,NA,NA,NA
"204","stim/objects/Instruments/trumpet2.png",141,34,141,0.9,"stim/14.jpeg",1,4,3,NA,"Instruments",2,3,"right","right",0.542999983,1,1,1,1,NA,NA,NA,NA,NA,NA,NA,NA,NA,NA,NA,NA,NA,NA,NA,NA,NA,NA,NA,NA,NA,NA,NA,NA
"184","stim/objects/Instruments/trombone.png",142,34,142,0.5,"stim/43.jpeg",4,3,1,NA,"Instruments",2,4,"right","left",0.662999868,0,0,1,1,NA,NA,NA,NA,NA,NA,NA,NA,NA,NA,NA,NA,NA,NA,NA,NA,NA,NA,NA,NA,NA,NA,NA,NA
"205","stim/objects/Instruments/trumpet2.png",143,34,143,0.9,"stim/14.jpeg",1,4,3,NA,"Instruments",2,2,"right","right",0.518999815,1,1,1,1,NA,NA,NA,NA,NA,NA,NA,NA,NA,NA,NA,NA,NA,NA,NA,NA,NA,NA,NA,NA,NA,NA,NA,NA
"227","stim/objects/Instruments/vuvuzela.png",144,34,144,0.7,"stim/53.jpeg",5,3,2,NA,"Instruments",2,1,"right","right",0.549000025,1,1,1,1,NA,NA,NA,NA,NA,NA,NA,NA,NA,NA,NA,NA,NA,NA,NA,NA,NA,NA,NA,NA,NA,NA,NA,NA
"131","stim/objects/Instruments/saxophone.png",145,34,145,0.5,"stim/32.jpeg",3,2,1,NA,"Instruments",2,4,"right","left",0.724999905,0,0,1,1,NA,NA,NA,NA,NA,NA,NA,NA,NA,NA,NA,NA,NA,NA,NA,NA,NA,NA,NA,NA,NA,NA,NA,NA
"140","stim/objects/Instruments/speaker.png",146,34,146,0.5,"stim/33.jpeg",3,3,1,NA,"Instruments",2,3,"right","right",0.448999882,1,1,1,1,NA,NA,NA,NA,NA,NA,NA,NA,NA,NA,NA,NA,NA,NA,NA,NA,NA,NA,NA,NA,NA,NA,NA,NA
"104","stim/objects/HouseObjects/vacuumcleaner2.png",147,34,147,0.9,"stim/23.jpeg",2,3,3,NA,"HouseObjects",1,2,"left","left",0.520999908,1,1,1,1,NA,NA,NA,NA,NA,NA,NA,NA,NA,NA,NA,NA,NA,NA,NA,NA,NA,NA,NA,NA,NA,NA,NA,NA
"92","stim/objects/HouseObjects/towel2.png",148,34,148,0.9,"stim/22.jpeg",2,2,3,NA,"HouseObjects",1,4,"left","left",0.486999989,1,1,1,1,NA,NA,NA,NA,NA,NA,NA,NA,NA,NA,NA,NA,NA,NA,NA,NA,NA,NA,NA,NA,NA,NA,NA,NA
"191","stim/objects/Instruments/trombone2.png",149,34,149,0.9,"stim/13.jpeg",1,3,3,NA,"Instruments",2,4,"right","left",0.611000061,0,0,1,1,NA,NA,NA,NA,NA,NA,NA,NA,NA,NA,NA,NA,NA,NA,NA,NA,NA,NA,NA,NA,NA,NA,NA,NA
"147","stim/objects/Instruments/tambourine.png",150,34,150,0.5,"stim/34.jpeg",3,4,1,NA,"Instruments",2,4,"right","right",0.527999878,1,1,1,1,NA,NA,NA,NA,NA,NA,NA,NA,NA,NA,NA,NA,NA,NA,NA,NA,NA,NA,NA,NA,NA,NA,NA,NA
"70","stim/objects/HouseObjects/thermometer.png",151,34,151,0.5,"stim/44.jpeg",4,4,1,NA,"HouseObjects",1,2,"left","",NA,0,0,1,1,NA,NA,NA,NA,NA,NA,NA,NA,NA,NA,NA,NA,NA,NA,NA,NA,NA,NA,NA,NA,NA,NA,NA,NA
"132","stim/objects/Instruments/saxophone.png",152,34,152,0.5,"stim/32.jpeg",3,2,1,NA,"Instruments",2,3,"right","right",0.596999884,1,1,1,1,NA,NA,NA,NA,NA,NA,NA,NA,NA,NA,NA,NA,NA,NA,NA,NA,NA,NA,NA,NA,NA,NA,NA,NA
"81","stim/objects/HouseObjects/thread2.png",153,34,153,0.9,"stim/21.jpeg",2,1,3,NA,"HouseObjects",1,4,"left","left",0.539999962,1,1,1,1,NA,NA,NA,NA,NA,NA,NA,NA,NA,NA,NA,NA,NA,NA,NA,NA,NA,NA,NA,NA,NA,NA,NA,NA
"57","stim/objects/HouseObjects/spraybottle.png",154,34,154,0.5,"stim/42.jpeg",4,2,1,NA,"HouseObjects",1,4,"left","left",0.65899992,1,1,1,1,NA,NA,NA,NA,NA,NA,NA,NA,NA,NA,NA,NA,NA,NA,NA,NA,NA,NA,NA,NA,NA,NA,NA,NA
"11","stim/objects/HouseObjects/rug2.png",155,34,155,0.7,"stim/61.jpeg",6,1,2,NA,"HouseObjects",1,3,"left","right",0.562000036,0,0,1,1,NA,NA,NA,NA,NA,NA,NA,NA,NA,NA,NA,NA,NA,NA,NA,NA,NA,NA,NA,NA,NA,NA,NA,NA
"82","stim/objects/HouseObjects/thread2.png",156,34,156,0.9,"stim/21.jpeg",2,1,3,NA,"HouseObjects",1,2,"left","left",0.487999916,1,1,1,1,NA,NA,NA,NA,NA,NA,NA,NA,NA,NA,NA,NA,NA,NA,NA,NA,NA,NA,NA,NA,NA,NA,NA,NA
"152","stim/objects/Instruments/tambourine2.png",157,34,157,0.3,"stim/64.jpeg",6,4,2,NA,"Instruments",2,4,"right","right",0.582999945,1,1,1,1,NA,NA,NA,NA,NA,NA,NA,NA,NA,NA,NA,NA,NA,NA,NA,NA,NA,NA,NA,NA,NA,NA,NA,NA
"12","stim/objects/HouseObjects/rug2.png",158,34,158,0.7,"stim/61.jpeg",6,1,2,NA,"HouseObjects",1,3,"left","right",0.644999981,0,0,1,1,NA,NA,NA,NA,NA,NA,NA,NA,NA,NA,NA,NA,NA,NA,NA,NA,NA,NA,NA,NA,NA,NA,NA,NA
"105","stim/objects/HouseObjects/vacuumcleaner2.png",159,34,159,0.9,"stim/23.jpeg",2,3,3,NA,"HouseObjects",1,3,"left","left",0.536000013,1,1,1,1,NA,NA,NA,NA,NA,NA,NA,NA,NA,NA,NA,NA,NA,NA,NA,NA,NA,NA,NA,NA,NA,NA,NA,NA
"192","stim/objects/Instruments/trombone2.png",160,34,160,0.9,"stim/13.jpeg",1,3,3,NA,"Instruments",2,2,"right","right",0.610000134,1,1,1,1,NA,NA,NA,NA,NA,NA,NA,NA,NA,NA,NA,NA,NA,NA,NA,NA,NA,NA,NA,NA,NA,NA,NA,NA
"75","stim/objects/HouseObjects/thread.png",161,34,161,0.3,"stim/51.jpeg",5,1,2,NA,"HouseObjects",1,1,"left","right",0.628999949,0,0,1,1,NA,NA,NA,NA,NA,NA,NA,NA,NA,NA,NA,NA,NA,NA,NA,NA,NA,NA,NA,NA,NA,NA,NA,NA
"193","stim/objects/Instruments/trombone2.png",162,34,162,0.9,"stim/13.jpeg",1,3,3,NA,"Instruments",2,2,"right","right",0.760999918,1,1,1,1,NA,NA,NA,NA,NA,NA,NA,NA,NA,NA,NA,NA,NA,NA,NA,NA,NA,NA,NA,NA,NA,NA,NA,NA
"163","stim/objects/Instruments/timbal2.png",163,34,163,0.9,"stim/11.jpeg",1,1,3,NA,"Instruments",2,2,"right","right",0.534999847,1,1,1,1,NA,NA,NA,NA,NA,NA,NA,NA,NA,NA,NA,NA,NA,NA,NA,NA,NA,NA,NA,NA,NA,NA,NA,NA
"125","stim/objects/Instruments/record_player.png",164,34,164,0.5,"stim/31.jpeg",3,1,1,NA,"Instruments",2,1,"right","left",0.746000051,0,0,1,1,NA,NA,NA,NA,NA,NA,NA,NA,NA,NA,NA,NA,NA,NA,NA,NA,NA,NA,NA,NA,NA,NA,NA,NA
"213","stim/objects/Instruments/tuba.png",165,34,165,0.7,"stim/51.jpeg",5,1,2,NA,"Instruments",2,2,"right","right",0.664999723,1,1,1,1,NA,NA,NA,NA,NA,NA,NA,NA,NA,NA,NA,NA,NA,NA,NA,NA,NA,NA,NA,NA,NA,NA,NA,NA
"15","stim/objects/HouseObjects/safetypin.png",166,34,166,0.5,"stim/32.jpeg",3,2,1,NA,"HouseObjects",1,3,"left","right",0.809000015,0,0,1,1,NA,NA,NA,NA,NA,NA,NA,NA,NA,NA,NA,NA,NA,NA,NA,NA,NA,NA,NA,NA,NA,NA,NA,NA
"34","stim/objects/HouseObjects/saw2.png",167,34,167,0.7,"stim/63.jpeg",6,3,2,NA,"HouseObjects",1,3,"left","left",0.799999952,1,1,1,1,NA,NA,NA,NA,NA,NA,NA,NA,NA,NA,NA,NA,NA,NA,NA,NA,NA,NA,NA,NA,NA,NA,NA,NA
"214","stim/objects/Instruments/tuba.png",168,34,168,0.7,"stim/51.jpeg",5,1,2,NA,"Instruments",2,1,"right","right",0.65899992,1,1,1,1,NA,NA,NA,NA,NA,NA,NA,NA,NA,NA,NA,NA,NA,NA,NA,NA,NA,NA,NA,NA,NA,NA,NA,NA
"133","stim/objects/Instruments/saxophone.png",169,34,169,0.5,"stim/32.jpeg",3,2,1,NA,"Instruments",2,1,"right","left",0.680999994,0,0,1,1,NA,NA,NA,NA,NA,NA,NA,NA,NA,NA,NA,NA,NA,NA,NA,NA,NA,NA,NA,NA,NA,NA,NA,NA
"110","stim/objects/HouseObjects/wateringcan.png",170,34,170,0.3,"stim/54.jpeg",5,4,2,NA,"HouseObjects",1,3,"left","right",0.525999784,0,0,1,1,NA,NA,NA,NA,NA,NA,NA,NA,NA,NA,NA,NA,NA,NA,NA,NA,NA,NA,NA,NA,NA,NA,NA,NA
"65","stim/objects/HouseObjects/teapot.png",171,34,171,0.5,"stim/43.jpeg",4,3,1,NA,"HouseObjects",1,4,"left","left",0.789999962,1,1,1,1,NA,NA,NA,NA,NA,NA,NA,NA,NA,NA,NA,NA,NA,NA,NA,NA,NA,NA,NA,NA,NA,NA,NA,NA
"71","stim/objects/HouseObjects/thermometer.png",172,34,172,0.5,"stim/44.jpeg",4,4,1,NA,"HouseObjects",1,3,"left","right",0.732000113,0,0,1,1,NA,NA,NA,NA,NA,NA,NA,NA,NA,NA,NA,NA,NA,NA,NA,NA,NA,NA,NA,NA,NA,NA,NA,NA
"116","stim/objects/HouseObjects/wateringcan2.png",173,34,173,0.9,"stim/24.jpeg",2,4,3,NA,"HouseObjects",1,1,"left","left",0.569999933,1,1,1,1,NA,NA,NA,NA,NA,NA,NA,NA,NA,NA,NA,NA,NA,NA,NA,NA,NA,NA,NA,NA,NA,NA,NA,NA
"216","stim/objects/Instruments/tuba2.png",174,34,174,0.1,"stim/21.jpeg",2,1,3,NA,"Instruments",2,1,"right","left",0.576999903,0,0,1,1,NA,NA,NA,NA,NA,NA,NA,NA,NA,NA,NA,NA,NA,NA,NA,NA,NA,NA,NA,NA,NA,NA,NA,NA
"194","stim/objects/Instruments/trombone2.png",175,34,175,0.9,"stim/13.jpeg",1,3,3,NA,"Instruments",2,3,"right","right",0.717999935,1,1,1,1,NA,NA,NA,NA,NA,NA,NA,NA,NA,NA,NA,NA,NA,NA,NA,NA,NA,NA,NA,NA,NA,NA,NA,NA
"228","stim/objects/Instruments/vuvuzela.png",176,34,176,0.7,"stim/53.jpeg",5,3,2,NA,"Instruments",2,2,"right","right",0.523000002,1,1,1,1,NA,NA,NA,NA,NA,NA,NA,NA,NA,NA,NA,NA,NA,NA,NA,NA,NA,NA,NA,NA,NA,NA,NA,NA
"46","stim/objects/HouseObjects/scale2.png",177,34,177,0.7,"stim/64.jpeg",6,4,2,NA,"HouseObjects",1,2,"left","left",0.76699996,1,1,1,1,NA,NA,NA,NA,NA,NA,NA,NA,NA,NA,NA,NA,NA,NA,NA,NA,NA,NA,NA,NA,NA,NA,NA,NA
"117","stim/objects/HouseObjects/wateringcan2.png",178,34,178,0.9,"stim/24.jpeg",2,4,3,NA,"HouseObjects",1,3,"left","left",0.534999847,1,1,1,1,NA,NA,NA,NA,NA,NA,NA,NA,NA,NA,NA,NA,NA,NA,NA,NA,NA,NA,NA,NA,NA,NA,NA,NA
"72","stim/objects/HouseObjects/thermometer2.png",179,34,179,0.1,"stim/14.jpeg",1,4,3,NA,"HouseObjects",1,3,"left","right",0.490999937,0,0,1,1,NA,NA,NA,NA,NA,NA,NA,NA,NA,NA,NA,NA,NA,NA,NA,NA,NA,NA,NA,NA,NA,NA,NA,NA
"58","stim/objects/HouseObjects/spraybottle.png",180,34,180,0.5,"stim/42.jpeg",4,2,1,NA,"HouseObjects",1,4,"left","right",0.596999884,0,0,1,1,NA,NA,NA,NA,NA,NA,NA,NA,NA,NA,NA,NA,NA,NA,NA,NA,NA,NA,NA,NA,NA,NA,NA,NA
"178","stim/objects/Instruments/triangle2.png",181,34,181,0.9,"stim/12.jpeg",1,2,3,NA,"Instruments",2,4,"right","right",0.723999977,1,1,1,1,NA,NA,NA,NA,NA,NA,NA,NA,NA,NA,NA,NA,NA,NA,NA,NA,NA,NA,NA,NA,NA,NA,NA,NA
"99","stim/objects/HouseObjects/vacuumcleaner.png",182,34,182,0.3,"stim/53.jpeg",5,3,2,NA,"HouseObjects",1,3,"left","right",0.583999872,0,0,1,1,NA,NA,NA,NA,NA,NA,NA,NA,NA,NA,NA,NA,NA,NA,NA,NA,NA,NA,NA,NA,NA,NA,NA,NA
"229","stim/objects/Instruments/vuvuzela.png",183,34,183,0.7,"stim/53.jpeg",5,3,2,NA,"Instruments",2,1,"right","right",0.720000029,1,1,1,1,NA,NA,NA,NA,NA,NA,NA,NA,NA,NA,NA,NA,NA,NA,NA,NA,NA,NA,NA,NA,NA,NA,NA,NA
"179","stim/objects/Instruments/triangle2.png",184,34,184,0.9,"stim/12.jpeg",1,2,3,NA,"Instruments",2,1,"right","right",0.555000067,1,1,1,1,NA,NA,NA,NA,NA,NA,NA,NA,NA,NA,NA,NA,NA,NA,NA,NA,NA,NA,NA,NA,NA,NA,NA,NA
"4","stim/objects/HouseObjects/rug.png",185,34,185,0.5,"stim/31.jpeg",3,1,1,NA,"HouseObjects",1,1,"left","left",0.713999987,1,1,1,1,NA,NA,NA,NA,NA,NA,NA,NA,NA,NA,NA,NA,NA,NA,NA,NA,NA,NA,NA,NA,NA,NA,NA,NA
"47","stim/objects/HouseObjects/scale2.png",186,34,186,0.7,"stim/64.jpeg",6,4,2,NA,"HouseObjects",1,4,"left","right",0.814999819,0,0,1,1,NA,NA,NA,NA,NA,NA,NA,NA,NA,NA,NA,NA,NA,NA,NA,NA,NA,NA,NA,NA,NA,NA,NA,NA
"206","stim/objects/Instruments/trumpet2.png",187,34,187,0.9,"stim/14.jpeg",1,4,3,NA,"Instruments",2,1,"right","right",0.51699996,1,1,1,1,NA,NA,NA,NA,NA,NA,NA,NA,NA,NA,NA,NA,NA,NA,NA,NA,NA,NA,NA,NA,NA,NA,NA,NA
"83","stim/objects/HouseObjects/thread2.png",188,34,188,0.9,"stim/21.jpeg",2,1,3,NA,"HouseObjects",1,4,"left","left",0.595000029,1,1,1,1,NA,NA,NA,NA,NA,NA,NA,NA,NA,NA,NA,NA,NA,NA,NA,NA,NA,NA,NA,NA,NA,NA,NA,NA
"148","stim/objects/Instruments/tambourine.png",189,34,189,0.5,"stim/34.jpeg",3,4,1,NA,"Instruments",2,1,"right","right",0.741999865,1,1,1,1,NA,NA,NA,NA,NA,NA,NA,NA,NA,NA,NA,NA,NA,NA,NA,NA,NA,NA,NA,NA,NA,NA,NA,NA
"23","stim/objects/HouseObjects/safetypin2.png",190,34,190,0.7,"stim/62.jpeg",6,2,2,NA,"HouseObjects",1,3,"left","left",0.750999928,1,1,1,1,NA,NA,NA,NA,NA,NA,NA,NA,NA,NA,NA,NA,NA,NA,NA,NA,NA,NA,NA,NA,NA,NA,NA,NA
"149","stim/objects/Instruments/tambourine.png",191,34,191,0.5,"stim/34.jpeg",3,4,1,NA,"Instruments",2,2,"right","right",0.789999962,1,1,1,1,NA,NA,NA,NA,NA,NA,NA,NA,NA,NA,NA,NA,NA,NA,NA,NA,NA,NA,NA,NA,NA,NA,NA,NA
"238","stim/objects/Instruments/xylophone.png",192,34,192,0.7,"stim/54.jpeg",5,4,2,NA,"Instruments",2,2,"right","right",0.760999918,1,1,1,1,NA,NA,NA,NA,NA,NA,NA,NA,NA,NA,NA,NA,NA,NA,NA,NA,NA,NA,NA,NA,NA,NA,NA,NA
"111","stim/objects/HouseObjects/wateringcan.png",193,34,193,0.3,"stim/54.jpeg",5,4,2,NA,"HouseObjects",1,2,"left","right",0.638000011,0,0,1,1,NA,NA,NA,NA,NA,NA,NA,NA,NA,NA,NA,NA,NA,NA,NA,NA,NA,NA,NA,NA,NA,NA,NA,NA
"118","stim/objects/HouseObjects/wateringcan2.png",194,34,194,0.9,"stim/24.jpeg",2,4,3,NA,"HouseObjects",1,2,"left","left",0.687999964,1,1,1,1,NA,NA,NA,NA,NA,NA,NA,NA,NA,NA,NA,NA,NA,NA,NA,NA,NA,NA,NA,NA,NA,NA,NA,NA
"239","stim/objects/Instruments/xylophone.png",195,34,195,0.7,"stim/54.jpeg",5,4,2,NA,"Instruments",2,1,"right","right",0.590999842,1,1,1,1,NA,NA,NA,NA,NA,NA,NA,NA,NA,NA,NA,NA,NA,NA,NA,NA,NA,NA,NA,NA,NA,NA,NA,NA
"164","stim/objects/Instruments/timbal2.png",196,34,196,0.9,"stim/11.jpeg",1,1,3,NA,"Instruments",2,1,"right","right",0.562999964,1,1,1,1,NA,NA,NA,NA,NA,NA,NA,NA,NA,NA,NA,NA,NA,NA,NA,NA,NA,NA,NA,NA,NA,NA,NA,NA
"48","stim/objects/HouseObjects/scale2.png",197,34,197,0.7,"stim/64.jpeg",6,4,2,NA,"HouseObjects",1,4,"left","left",0.729999781,1,1,1,1,NA,NA,NA,NA,NA,NA,NA,NA,NA,NA,NA,NA,NA,NA,NA,NA,NA,NA,NA,NA,NA,NA,NA,NA
"52","stim/objects/HouseObjects/sponge.png",198,34,198,0.5,"stim/41.jpeg",4,1,1,NA,"HouseObjects",1,3,"left","right",0.583999872,0,0,1,1,NA,NA,NA,NA,NA,NA,NA,NA,NA,NA,NA,NA,NA,NA,NA,NA,NA,NA,NA,NA,NA,NA,NA,NA
"86","stim/objects/HouseObjects/towel.png",199,34,199,0.3,"stim/52.jpeg",5,2,2,NA,"HouseObjects",1,2,"left","right",0.687000036,0,0,1,1,NA,NA,NA,NA,NA,NA,NA,NA,NA,NA,NA,NA,NA,NA,NA,NA,NA,NA,NA,NA,NA,NA,NA,NA
"93","stim/objects/HouseObjects/towel2.png",200,34,200,0.9,"stim/22.jpeg",2,2,3,NA,"HouseObjects",1,3,"left","left",0.621000051,1,1,1,1,NA,NA,NA,NA,NA,NA,NA,NA,NA,NA,NA,NA,NA,NA,NA,NA,NA,NA,NA,NA,NA,NA,NA,NA
"165","stim/objects/Instruments/timbal2.png",201,34,201,0.9,"stim/11.jpeg",1,1,3,NA,"Instruments",2,1,"right","right",0.534999847,1,1,1,1,NA,NA,NA,NA,NA,NA,NA,NA,NA,NA,NA,NA,NA,NA,NA,NA,NA,NA,NA,NA,NA,NA,NA,NA
"119","stim/objects/HouseObjects/wateringcan2.png",202,34,202,0.9,"stim/24.jpeg",2,4,3,NA,"HouseObjects",1,1,"left","left",0.667999744,1,1,1,1,NA,NA,NA,NA,NA,NA,NA,NA,NA,NA,NA,NA,NA,NA,NA,NA,NA,NA,NA,NA,NA,NA,NA,NA
"94","stim/objects/HouseObjects/towel2.png",203,34,203,0.9,"stim/22.jpeg",2,2,3,NA,"HouseObjects",1,1,"left","left",0.628999949,1,1,1,1,NA,NA,NA,NA,NA,NA,NA,NA,NA,NA,NA,NA,NA,NA,NA,NA,NA,NA,NA,NA,NA,NA,NA,NA
"87","stim/objects/HouseObjects/towel.png",204,34,204,0.3,"stim/52.jpeg",5,2,2,NA,"HouseObjects",1,4,"left","right",0.677999973,0,0,1,1,NA,NA,NA,NA,NA,NA,NA,NA,NA,NA,NA,NA,NA,NA,NA,NA,NA,NA,NA,NA,NA,NA,NA,NA
"66","stim/objects/HouseObjects/teapot2.png",205,34,205,0.1,"stim/13.jpeg",1,3,3,NA,"HouseObjects",1,1,"left","right",0.717999935,0,0,1,1,NA,NA,NA,NA,NA,NA,NA,NA,NA,NA,NA,NA,NA,NA,NA,NA,NA,NA,NA,NA,NA,NA,NA,NA
"197","stim/objects/Instruments/trumpet.png",206,34,206,0.5,"stim/44.jpeg",4,4,1,NA,"Instruments",2,3,"right","left",0.677999973,0,0,1,1,NA,NA,NA,NA,NA,NA,NA,NA,NA,NA,NA,NA,NA,NA,NA,NA,NA,NA,NA,NA,NA,NA,NA,NA
"29","stim/objects/HouseObjects/saw.png",207,34,207,0.5,"stim/33.jpeg",3,3,1,NA,"HouseObjects",1,1,"left","right",0.576999903,0,0,1,1,NA,NA,NA,NA,NA,NA,NA,NA,NA,NA,NA,NA,NA,NA,NA,NA,NA,NA,NA,NA,NA,NA,NA,NA
"185","stim/objects/Instruments/trombone.png",208,34,208,0.5,"stim/43.jpeg",4,3,1,NA,"Instruments",2,4,"right","left",0.55099988,0,0,1,1,NA,NA,NA,NA,NA,NA,NA,NA,NA,NA,NA,NA,NA,NA,NA,NA,NA,NA,NA,NA,NA,NA,NA,NA
"35","stim/objects/HouseObjects/saw2.png",209,34,209,0.7,"stim/63.jpeg",6,3,2,NA,"HouseObjects",1,3,"left","left",0.816999912,1,1,1,1,NA,NA,NA,NA,NA,NA,NA,NA,NA,NA,NA,NA,NA,NA,NA,NA,NA,NA,NA,NA,NA,NA,NA,NA
"95","stim/objects/HouseObjects/towel2.png",210,34,210,0.9,"stim/22.jpeg",2,2,3,NA,"HouseObjects",1,2,"left","left",0.600999832,1,1,1,1,NA,NA,NA,NA,NA,NA,NA,NA,NA,NA,NA,NA,NA,NA,NA,NA,NA,NA,NA,NA,NA,NA,NA,NA
"84","stim/objects/HouseObjects/thread2.png",211,34,211,0.9,"stim/21.jpeg",2,1,3,NA,"HouseObjects",1,4,"left","left",0.517999887,1,1,1,1,NA,NA,NA,NA,NA,NA,NA,NA,NA,NA,NA,NA,NA,NA,NA,NA,NA,NA,NA,NA,NA,NA,NA,NA
"53","stim/objects/HouseObjects/sponge.png",212,34,212,0.5,"stim/41.jpeg",4,1,1,NA,"HouseObjects",1,2,"left","",NA,0,0,1,1,NA,NA,NA,NA,NA,NA,NA,NA,NA,NA,NA,NA,NA,NA,NA,NA,NA,NA,NA,NA,NA,NA,NA,NA
"170","stim/objects/Instruments/triangle.png",213,34,213,0.5,"stim/42.jpeg",4,2,1,NA,"Instruments",2,2,"right","right",0.628999949,1,1,1,1,NA,NA,NA,NA,NA,NA,NA,NA,NA,NA,NA,NA,NA,NA,NA,NA,NA,NA,NA,NA,NA,NA,NA,NA
"106","stim/objects/HouseObjects/vacuumcleaner2.png",214,34,214,0.9,"stim/23.jpeg",2,3,3,NA,"HouseObjects",1,4,"left","left",0.629999876,1,1,1,1,NA,NA,NA,NA,NA,NA,NA,NA,NA,NA,NA,NA,NA,NA,NA,NA,NA,NA,NA,NA,NA,NA,NA,NA
"120","stim/objects/HouseObjects/wateringcan2.png",215,34,215,0.9,"stim/24.jpeg",2,4,3,NA,"HouseObjects",1,4,"left","left",0.494999886,1,1,1,1,NA,NA,NA,NA,NA,NA,NA,NA,NA,NA,NA,NA,NA,NA,NA,NA,NA,NA,NA,NA,NA,NA,NA,NA
"5","stim/objects/HouseObjects/rug.png",216,34,216,0.5,"stim/31.jpeg",3,1,1,NA,"HouseObjects",1,2,"left","right",0.786000013,0,0,1,1,NA,NA,NA,NA,NA,NA,NA,NA,NA,NA,NA,NA,NA,NA,NA,NA,NA,NA,NA,NA,NA,NA,NA,NA
"16","stim/objects/HouseObjects/safetypin.png",217,34,217,0.5,"stim/32.jpeg",3,2,1,NA,"HouseObjects",1,4,"left","left",0.519999981,1,1,1,1,NA,NA,NA,NA,NA,NA,NA,NA,NA,NA,NA,NA,NA,NA,NA,NA,NA,NA,NA,NA,NA,NA,NA,NA
"180","stim/objects/Instruments/triangle2.png",218,34,218,0.9,"stim/12.jpeg",1,2,3,NA,"Instruments",2,1,"right","right",0.611999989,1,1,1,1,NA,NA,NA,NA,NA,NA,NA,NA,NA,NA,NA,NA,NA,NA,NA,NA,NA,NA,NA,NA,NA,NA,NA,NA
"24","stim/objects/HouseObjects/safetypin2.png",219,34,219,0.7,"stim/62.jpeg",6,2,2,NA,"HouseObjects",1,1,"left","left",0.628999949,1,1,1,1,NA,NA,NA,NA,NA,NA,NA,NA,NA,NA,NA,NA,NA,NA,NA,NA,NA,NA,NA,NA,NA,NA,NA,NA
"96","stim/objects/HouseObjects/towel2.png",220,34,220,0.9,"stim/22.jpeg",2,2,3,NA,"HouseObjects",1,3,"left","left",0.618999958,1,1,1,1,NA,NA,NA,NA,NA,NA,NA,NA,NA,NA,NA,NA,NA,NA,NA,NA,NA,NA,NA,NA,NA,NA,NA,NA
"36","stim/objects/HouseObjects/saw2.png",221,34,221,0.7,"stim/63.jpeg",6,3,2,NA,"HouseObjects",1,4,"left","left",0.637000084,1,1,1,1,NA,NA,NA,NA,NA,NA,NA,NA,NA,NA,NA,NA,NA,NA,NA,NA,NA,NA,NA,NA,NA,NA,NA,NA
"222","stim/objects/Instruments/violin.png",222,34,222,0.7,"stim/52.jpeg",5,2,2,NA,"Instruments",2,2,"right","right",0.579999924,1,1,1,1,NA,NA,NA,NA,NA,NA,NA,NA,NA,NA,NA,NA,NA,NA,NA,NA,NA,NA,NA,NA,NA,NA,NA,NA
"107","stim/objects/HouseObjects/vacuumcleaner2.png",223,34,223,0.9,"stim/23.jpeg",2,3,3,NA,"HouseObjects",1,4,"left","left",0.53399992,1,1,1,1,NA,NA,NA,NA,NA,NA,NA,NA,NA,NA,NA,NA,NA,NA,NA,NA,NA,NA,NA,NA,NA,NA,NA,NA
"198","stim/objects/Instruments/trumpet.png",224,34,224,0.5,"stim/44.jpeg",4,4,1,NA,"Instruments",2,2,"right","left",0.851000071,0,0,1,1,NA,NA,NA,NA,NA,NA,NA,NA,NA,NA,NA,NA,NA,NA,NA,NA,NA,NA,NA,NA,NA,NA,NA,NA
"207","stim/objects/Instruments/trumpet2.png",225,34,225,0.9,"stim/14.jpeg",1,4,3,NA,"Instruments",2,3,"right","right",0.562999964,1,1,1,1,NA,NA,NA,NA,NA,NA,NA,NA,NA,NA,NA,NA,NA,NA,NA,NA,NA,NA,NA,NA,NA,NA,NA,NA
"166","stim/objects/Instruments/timbal2.png",226,34,226,0.9,"stim/11.jpeg",1,1,3,NA,"Instruments",2,2,"right","left",0.569999933,0,0,1,1,NA,NA,NA,NA,NA,NA,NA,NA,NA,NA,NA,NA,NA,NA,NA,NA,NA,NA,NA,NA,NA,NA,NA,NA
"230","stim/objects/Instruments/vuvuzela.png",227,34,227,0.7,"stim/53.jpeg",5,3,2,NA,"Instruments",2,1,"right","right",0.536000013,1,1,1,1,NA,NA,NA,NA,NA,NA,NA,NA,NA,NA,NA,NA,NA,NA,NA,NA,NA,NA,NA,NA,NA,NA,NA,NA
"136","stim/objects/Instruments/saxophone2.png",228,34,228,0.3,"stim/62.jpeg",6,2,2,NA,"Instruments",2,4,"right","left",0.684999943,0,0,1,1,NA,NA,NA,NA,NA,NA,NA,NA,NA,NA,NA,NA,NA,NA,NA,NA,NA,NA,NA,NA,NA,NA,NA,NA
"141","stim/objects/Instruments/speaker.png",229,34,229,0.5,"stim/33.jpeg",3,3,1,NA,"Instruments",2,1,"right","right",0.698999882,1,1,1,1,NA,NA,NA,NA,NA,NA,NA,NA,NA,NA,NA,NA,NA,NA,NA,NA,NA,NA,NA,NA,NA,NA,NA,NA
"108","stim/objects/HouseObjects/vacuumcleaner2.png",230,34,230,0.9,"stim/23.jpeg",2,3,3,NA,"HouseObjects",1,1,"left","left",0.619999886,1,1,1,1,NA,NA,NA,NA,NA,NA,NA,NA,NA,NA,NA,NA,NA,NA,NA,NA,NA,NA,NA,NA,NA,NA,NA,NA
"223","stim/objects/Instruments/violin.png",231,34,231,0.7,"stim/52.jpeg",5,2,2,NA,"Instruments",2,3,"right","",NA,0,0,1,1,NA,NA,NA,NA,NA,NA,NA,NA,NA,NA,NA,NA,NA,NA,NA,NA,NA,NA,NA,NA,NA,NA,NA,NA
"208","stim/objects/Instruments/trumpet2.png",232,34,232,0.9,"stim/14.jpeg",1,4,3,NA,"Instruments",2,4,"right","right",0.736000061,1,1,1,1,NA,NA,NA,NA,NA,NA,NA,NA,NA,NA,NA,NA,NA,NA,NA,NA,NA,NA,NA,NA,NA,NA,NA,NA
"171","stim/objects/Instruments/triangle.png",233,34,233,0.5,"stim/42.jpeg",4,2,1,NA,"Instruments",2,2,"right","right",0.786999941,1,1,1,1,NA,NA,NA,NA,NA,NA,NA,NA,NA,NA,NA,NA,NA,NA,NA,NA,NA,NA,NA,NA,NA,NA,NA,NA
"231","stim/objects/Instruments/vuvuzela.png",234,34,234,0.7,"stim/53.jpeg",5,3,2,NA,"Instruments",2,4,"right","right",0.732999802,1,1,1,1,NA,NA,NA,NA,NA,NA,NA,NA,NA,NA,NA,NA,NA,NA,NA,NA,NA,NA,NA,NA,NA,NA,NA,NA
"41","stim/objects/HouseObjects/scale.png",235,34,235,0.5,"stim/34.jpeg",3,4,1,NA,"HouseObjects",1,2,"left","right",0.595999956,0,0,1,1,NA,NA,NA,NA,NA,NA,NA,NA,NA,NA,NA,NA,NA,NA,NA,NA,NA,NA,NA,NA,NA,NA,NA,NA
"59","stim/objects/HouseObjects/spraybottle.png",236,34,236,0.5,"stim/42.jpeg",4,2,1,NA,"HouseObjects",1,2,"left","right",0.56799984,0,0,1,1,NA,NA,NA,NA,NA,NA,NA,NA,NA,NA,NA,NA,NA,NA,NA,NA,NA,NA,NA,NA,NA,NA,NA,NA
"215","stim/objects/Instruments/tuba.png",237,34,237,0.7,"stim/51.jpeg",5,1,2,NA,"Instruments",2,1,"right","right",0.630999804,1,1,1,1,NA,NA,NA,NA,NA,NA,NA,NA,NA,NA,NA,NA,NA,NA,NA,NA,NA,NA,NA,NA,NA,NA,NA,NA
"232","stim/objects/Instruments/vuvuzela2.png",238,34,238,0.1,"stim/23.jpeg",2,3,3,NA,"Instruments",2,2,"right","left",0.617000103,0,0,1,1,NA,NA,NA,NA,NA,NA,NA,NA,NA,NA,NA,NA,NA,NA,NA,NA,NA,NA,NA,NA,NA,NA,NA,NA
"17","stim/objects/HouseObjects/safetypin.png",239,34,239,0.5,"stim/32.jpeg",3,2,1,NA,"HouseObjects",1,4,"left","right",0.619999886,0,0,1,1,NA,NA,NA,NA,NA,NA,NA,NA,NA,NA,NA,NA,NA,NA,NA,NA,NA,NA,NA,NA,NA,NA,NA,NA
"199","stim/objects/Instruments/trumpet.png",240,34,240,0.5,"stim/44.jpeg",4,4,1,NA,"Instruments",2,4,"right","left",0.786999941,0,0,1,1,NA,NA,NA,NA,NA,NA,NA,NA,NA,NA,NA,NA,NA,NA,NA,NA,NA,NA,NA,NA,NA,NA,NA,NA
"456","stim/objects/Instruments/flute.png",248,34,241,0.9,"stim/13.jpeg",1,3,3,2,"Instruments",2,3,"right","right",0.720999956,1,1,1,0,NA,NA,NA,NA,NA,NA,NA,NA,NA,NA,NA,NA,NA,NA,NA,NA,NA,NA,NA,NA,NA,NA,NA,NA
"389","stim/objects/HouseObjects/key2.png",249,34,242,0.9,"stim/22.jpeg",2,2,3,1,"HouseObjects",1,3,"left","left",0.569000006,1,1,1,0,72,34,1,0.9,1,"stim/22.jpeg",2,2,"stim/22.jpeg",3,"right",2.391000032,3,3,1.210999966,3,0.475999832,72,0,0,NA,1,NA,1
"491","stim/objects/Instruments/frenchhorn.png",250,34,243,0.9,"stim/11.jpeg",1,1,3,2,"Instruments",2,3,"right","right",0.462999821,1,1,1,0,NA,NA,NA,NA,NA,NA,NA,NA,NA,NA,NA,NA,NA,NA,NA,NA,NA,NA,NA,NA,NA,NA,NA,NA
"359","stim/objects/HouseObjects/glass.png",251,34,244,0.9,"stim/22.jpeg",2,2,3,2,"HouseObjects",1,3,"left","left",0.486000061,1,1,1,0,NA,NA,NA,NA,NA,NA,NA,NA,NA,NA,NA,NA,NA,NA,NA,NA,NA,NA,NA,NA,NA,NA,NA,NA
"291","stim/objects/HouseObjects/doormat.png",252,34,245,0.9,"stim/21.jpeg",2,1,3,2,"HouseObjects",1,2,"left","left",0.488999844,1,1,1,0,NA,NA,NA,NA,NA,NA,NA,NA,NA,NA,NA,NA,NA,NA,NA,NA,NA,NA,NA,NA,NA,NA,NA,NA
"556","stim/objects/Instruments/marimba2.png",253,34,246,0.1,"stim/21.jpeg",2,1,3,1,"Instruments",2,2,"right","left",0.529000044,0,0,1,0,186,34,1,0.1,2,"stim/21.jpeg",2,1,"stim/21.jpeg",2,"left",0.947000027,3,2,0.603999853,2,0.519999981,186,1,0,0,1,1,1
"507","stim/objects/Instruments/gong.png",254,34,247,0.9,"stim/14.jpeg",1,4,3,2,"Instruments",2,4,"right","right",0.448999882,1,1,1,0,NA,NA,NA,NA,NA,NA,NA,NA,NA,NA,NA,NA,NA,NA,NA,NA,NA,NA,NA,NA,NA,NA,NA,NA
"308","stim/objects/HouseObjects/dustpan.png",255,34,248,0.9,"stim/24.jpeg",2,4,3,2,"HouseObjects",1,4,"left","left",0.426000118,1,1,1,0,NA,NA,NA,NA,NA,NA,NA,NA,NA,NA,NA,NA,NA,NA,NA,NA,NA,NA,NA,NA,NA,NA,NA,NA
"473","stim/objects/Instruments/flutetrans.png",256,34,249,0.9,"stim/13.jpeg",1,3,3,2,"Instruments",2,2,"right","right",0.559000015,1,1,1,0,NA,NA,NA,NA,NA,NA,NA,NA,NA,NA,NA,NA,NA,NA,NA,NA,NA,NA,NA,NA,NA,NA,NA,NA
"440","stim/objects/Instruments/doublebass.png",257,34,250,0.7,"stim/54.jpeg",5,4,2,2,"Instruments",2,2,"right","right",0.513000011,1,1,1,0,NA,NA,NA,NA,NA,NA,NA,NA,NA,NA,NA,NA,NA,NA,NA,NA,NA,NA,NA,NA,NA,NA,NA,NA
"292","stim/objects/HouseObjects/doormat.png",258,34,251,0.9,"stim/23.jpeg",2,3,3,2,"HouseObjects",1,4,"left","left",0.626999855,1,1,1,0,NA,NA,NA,NA,NA,NA,NA,NA,NA,NA,NA,NA,NA,NA,NA,NA,NA,NA,NA,NA,NA,NA,NA,NA
"309","stim/objects/HouseObjects/dustpan.png",259,34,252,0.9,"stim/24.jpeg",2,4,3,2,"HouseObjects",1,1,"left","left",0.501999855,1,1,1,0,NA,NA,NA,NA,NA,NA,NA,NA,NA,NA,NA,NA,NA,NA,NA,NA,NA,NA,NA,NA,NA,NA,NA,NA
"253","stim/objects/HouseObjects/bleachbottle.png",260,34,253,0.5,"stim/32.jpeg",3,2,1,2,"HouseObjects",1,3,"left","right",0.646999836,0,0,1,0,NA,NA,NA,NA,NA,NA,NA,NA,NA,NA,NA,NA,NA,NA,NA,NA,NA,NA,NA,NA,NA,NA,NA,NA
"524","stim/objects/Instruments/grandpiano.png",261,34,254,0.9,"stim/13.jpeg",1,3,3,2,"Instruments",2,2,"right","right",0.682999849,1,1,1,0,NA,NA,NA,NA,NA,NA,NA,NA,NA,NA,NA,NA,NA,NA,NA,NA,NA,NA,NA,NA,NA,NA,NA,NA
"360","stim/objects/HouseObjects/glass.png",262,34,255,0.9,"stim/24.jpeg",2,4,3,2,"HouseObjects",1,1,"left","left",0.491999865,1,1,1,0,NA,NA,NA,NA,NA,NA,NA,NA,NA,NA,NA,NA,NA,NA,NA,NA,NA,NA,NA,NA,NA,NA,NA,NA
"310","stim/objects/HouseObjects/dustpan.png",263,34,256,0.9,"stim/24.jpeg",2,4,3,2,"HouseObjects",1,1,"left","left",0.648000002,1,1,1,0,NA,NA,NA,NA,NA,NA,NA,NA,NA,NA,NA,NA,NA,NA,NA,NA,NA,NA,NA,NA,NA,NA,NA,NA
"525","stim/objects/Instruments/grandpiano.png",264,34,257,0.9,"stim/12.jpeg",1,2,3,2,"Instruments",2,2,"right","right",0.621000051,1,1,1,0,NA,NA,NA,NA,NA,NA,NA,NA,NA,NA,NA,NA,NA,NA,NA,NA,NA,NA,NA,NA,NA,NA,NA,NA
"492","stim/objects/Instruments/frenchhorn.png",265,34,258,0.9,"stim/14.jpeg",1,4,3,2,"Instruments",2,1,"right","right",0.569999933,1,1,1,0,NA,NA,NA,NA,NA,NA,NA,NA,NA,NA,NA,NA,NA,NA,NA,NA,NA,NA,NA,NA,NA,NA,NA,NA
"324","stim/objects/HouseObjects/dustpan2.png",266,34,259,0.1,"stim/12.jpeg",1,2,3,1,"HouseObjects",1,2,"left","right",0.475999832,0,0,1,0,89,34,1,0.1,1,"stim/12.jpeg",1,2,"stim/12.jpeg",2,"left",0.962000132,4,3,4.332000017,1,0.819999933,89,1,0,0,0,0,1
"493","stim/objects/Instruments/frenchhorn.png",267,34,260,0.9,"stim/11.jpeg",1,1,3,2,"Instruments",2,1,"right","right",0.452000141,1,1,1,0,NA,NA,NA,NA,NA,NA,NA,NA,NA,NA,NA,NA,NA,NA,NA,NA,NA,NA,NA,NA,NA,NA,NA,NA
"282","stim/objects/HouseObjects/coffee2.png",268,34,261,0.7,"stim/63.jpeg",6,3,2,1,"HouseObjects",1,1,"left","right",0.444000006,0,0,1,0,71,34,1,0.7,1,"stim/63.jpeg",6,3,"stim/63.jpeg",1,"left",0.904000044,4,2,3.772999763,2,1.179999828,71,1,0,0,0,0,1
"494","stim/objects/Instruments/frenchhorn.png",269,34,262,0.9,"stim/11.jpeg",1,1,3,2,"Instruments",2,2,"right","right",0.615999937,1,1,1,0,NA,NA,NA,NA,NA,NA,NA,NA,NA,NA,NA,NA,NA,NA,NA,NA,NA,NA,NA,NA,NA,NA,NA,NA
"270","stim/objects/HouseObjects/clock2.png",270,34,263,0.7,"stim/64.jpeg",6,4,2,1,"HouseObjects",1,1,"left","left",0.86500001,1,1,1,0,66,34,1,0.7,1,"stim/64.jpeg",6,4,"stim/64.jpeg",1,"left",2.159999847,2,1,3.269999743,4,3.583999872,66,1,0,0,0,0,1
"474","stim/objects/Instruments/flutetrans.png",271,34,264,0.9,"stim/12.jpeg",1,2,3,2,"Instruments",2,3,"right","right",0.528999805,1,1,1,0,NA,NA,NA,NA,NA,NA,NA,NA,NA,NA,NA,NA,NA,NA,NA,NA,NA,NA,NA,NA,NA,NA,NA,NA
"426","stim/objects/Instruments/cello2.png",272,34,265,0.3,"stim/63.jpeg",6,3,2,1,"Instruments",2,4,"right","left",0.627000093,0,0,1,0,104,34,1,0.3,2,"stim/63.jpeg",6,3,"stim/63.jpeg",4,"left",0.894999981,3,2,3.482999802,2,5.046999931,104,1,0,0,0,0,1
"475","stim/objects/Instruments/flutetrans.png",273,34,266,0.9,"stim/11.jpeg",1,1,3,2,"Instruments",2,3,"right","right",0.578999758,1,1,1,0,NA,NA,NA,NA,NA,NA,NA,NA,NA,NA,NA,NA,NA,NA,NA,NA,NA,NA,NA,NA,NA,NA,NA,NA
"540","stim/objects/Instruments/grandpiano2.png",274,34,267,0.9,"stim/13.jpeg",1,3,3,1,"Instruments",2,1,"right","right",0.57799983,1,1,1,0,183,34,1,0.9,2,"stim/13.jpeg",1,3,"stim/13.jpeg",1,"right",0.997999907,3,3,0.609999895,3,0.657999992,183,0,1,NA,0,NA,1
"441","stim/objects/Instruments/doublebass.png",275,34,268,0.7,"stim/52.jpeg",5,2,2,2,"Instruments",2,2,"right","right",0.60800004,1,1,1,0,NA,NA,NA,NA,NA,NA,NA,NA,NA,NA,NA,NA,NA,NA,NA,NA,NA,NA,NA,NA,NA,NA,NA,NA
"509","stim/objects/Instruments/gong.png",276,34,269,0.9,"stim/13.jpeg",1,3,3,2,"Instruments",2,2,"right","right",0.457999945,1,1,1,0,NA,NA,NA,NA,NA,NA,NA,NA,NA,NA,NA,NA,NA,NA,NA,NA,NA,NA,NA,NA,NA,NA,NA,NA
"550","stim/objects/Instruments/keyboard2.png",277,34,270,0.9,"stim/14.jpeg",1,4,3,1,"Instruments",2,2,"right","right",0.473999977,1,1,1,0,64,34,1,0.9,2,"stim/14.jpeg",1,4,"stim/14.jpeg",2,"left",1.023999929,3,2,1.121999979,2,0.51699996,64,1,0,0,1,1,1
"432","stim/objects/Instruments/clarinet2.png",278,34,271,0.3,"stim/61.jpeg",6,1,2,1,"Instruments",2,3,"right","right",0.487999916,1,1,1,0,165,34,1,0.3,2,"stim/61.jpeg",6,1,"stim/61.jpeg",3,"right",0.621999979,4,3,4.0849998,1,1.118000031,165,0,0,NA,0,NA,1
"430","stim/objects/Instruments/clarinet.png",279,34,272,0.5,"stim/42.jpeg",4,2,1,2,"Instruments",2,2,"right","",NA,0,0,1,0,NA,NA,NA,NA,NA,NA,NA,NA,NA,NA,NA,NA,NA,NA,NA,NA,NA,NA,NA,NA,NA,NA,NA,NA
"379","stim/objects/HouseObjects/hairdryer2.png",280,34,273,0.1,"stim/13.jpeg",1,3,3,1,"HouseObjects",1,4,"left","right",0.454999924,0,0,1,0,117,34,1,0.1,1,"stim/13.jpeg",1,3,"stim/13.jpeg",4,"left",0.894999981,4,2,1.813999891,4,2.172999859,117,1,0,0,1,1,1
"549","stim/objects/Instruments/keyboard.png",281,34,274,0.5,"stim/32.jpeg",3,2,1,1,"Instruments",2,2,"right","right",0.434999943,1,1,1,0,22,34,1,0.5,1,"stim/32.jpeg",3,2,"stim/32.jpeg",2,"left",0.893999815,3,4,0.975999832,3,0.999999762,22,1,0,0,0,0,1
"384","stim/objects/HouseObjects/iron.png",282,34,275,0.5,"stim/33.jpeg",3,3,1,1,"HouseObjects",1,2,"left","right",0.796000004,0,0,1,0,18,34,1,0.5,1,"stim/33.jpeg",3,3,"stim/33.jpeg",2,"left",0.8349998,4,3,0.927000046,3,1.43599987,18,1,1,1,0,0,1
"555","stim/objects/Instruments/marimba.png",283,34,276,0.5,"stim/42.jpeg",4,2,1,1,"Instruments",2,4,"right","right",0.509000063,1,1,1,0,37,34,1,0.5,2,"stim/42.jpeg",4,2,"stim/42.jpeg",4,"left",1.013000011,4,2,3.398000002,3,1.886999846,37,1,1,1,0,0,1
"250","stim/objects/HouseObjects/basket.png",284,34,277,0.5,"stim/34.jpeg",3,4,1,2,"HouseObjects",1,4,"left","left",0.650000095,1,1,1,0,NA,NA,NA,NA,NA,NA,NA,NA,NA,NA,NA,NA,NA,NA,NA,NA,NA,NA,NA,NA,NA,NA,NA,NA
"476","stim/objects/Instruments/flutetrans.png",285,34,278,0.9,"stim/11.jpeg",1,1,3,2,"Instruments",2,2,"right","right",0.597000122,1,1,1,0,NA,NA,NA,NA,NA,NA,NA,NA,NA,NA,NA,NA,NA,NA,NA,NA,NA,NA,NA,NA,NA,NA,NA,NA
"418","stim/objects/Instruments/bassdrum.png",286,34,279,0.5,"stim/34.jpeg",3,4,1,2,"Instruments",2,3,"right","right",0.707999945,1,1,1,0,NA,NA,NA,NA,NA,NA,NA,NA,NA,NA,NA,NA,NA,NA,NA,NA,NA,NA,NA,NA,NA,NA,NA,NA
"458","stim/objects/Instruments/flute.png",287,34,280,0.9,"stim/13.jpeg",1,3,3,2,"Instruments",2,2,"right","right",0.722999811,1,1,1,0,NA,NA,NA,NA,NA,NA,NA,NA,NA,NA,NA,NA,NA,NA,NA,NA,NA,NA,NA,NA,NA,NA,NA,NA
"271","stim/objects/HouseObjects/clothesdryingrack.png",288,34,281,0.7,"stim/61.jpeg",6,1,2,2,"HouseObjects",1,2,"left","left",0.640999794,1,1,1,0,NA,NA,NA,NA,NA,NA,NA,NA,NA,NA,NA,NA,NA,NA,NA,NA,NA,NA,NA,NA,NA,NA,NA,NA
"278","stim/objects/HouseObjects/clothespin2.png",289,34,282,0.7,"stim/62.jpeg",6,2,2,1,"HouseObjects",1,4,"left","",NA,0,0,1,0,148,34,1,0.7,1,"stim/62.jpeg",6,2,"stim/62.jpeg",4,"left",1.274999857,3,2,0.823999882,2,1.083999872,148,1,1,1,0,0,1
"511","stim/objects/Instruments/gong.png",290,34,283,0.9,"stim/14.jpeg",1,4,3,2,"Instruments",2,3,"right","right",0.42599988,1,1,1,0,NA,NA,NA,NA,NA,NA,NA,NA,NA,NA,NA,NA,NA,NA,NA,NA,NA,NA,NA,NA,NA,NA,NA,NA
"563","stim/objects/Instruments/oboe.png",291,34,284,0.7,"stim/53.jpeg",5,3,2,1,"Instruments",2,1,"right","right",0.536000013,1,1,1,0,147,34,1,0.7,2,"stim/53.jpeg",5,3,"stim/53.jpeg",1,"left",0.789999962,4,4,1.646999836,4,0.96999979,147,1,0,0,0,0,1
"460","stim/objects/Instruments/flute.png",292,34,285,0.9,"stim/12.jpeg",1,2,3,2,"Instruments",2,4,"right","right",0.431999922,1,1,1,0,NA,NA,NA,NA,NA,NA,NA,NA,NA,NA,NA,NA,NA,NA,NA,NA,NA,NA,NA,NA,NA,NA,NA,NA
"362","stim/objects/HouseObjects/glass.png",293,34,286,0.9,"stim/22.jpeg",2,2,3,2,"HouseObjects",1,2,"left","left",0.634999752,1,1,1,0,NA,NA,NA,NA,NA,NA,NA,NA,NA,NA,NA,NA,NA,NA,NA,NA,NA,NA,NA,NA,NA,NA,NA,NA
"380","stim/objects/HouseObjects/handbrush.png",294,34,287,0.5,"stim/31.jpeg",3,1,1,1,"HouseObjects",1,4,"left","right",0.589999914,0,0,1,0,166,34,1,0.5,1,"stim/31.jpeg",3,1,"stim/31.jpeg",4,"left",1.164999962,4,1,2.190000057,2,1.31099987,166,1,1,1,0,0,1
"435","stim/objects/Instruments/cornet2.png",295,34,288,0.3,"stim/62.jpeg",6,2,2,1,"Instruments",2,2,"right","left",0.661000013,0,0,1,0,199,34,1,0.3,2,"stim/62.jpeg",6,2,"stim/62.jpeg",2,"left",1.085999966,4,3,0.628999949,3,0.565999985,199,1,0,0,0,0,1
"409","stim/objects/Instruments/acousticguitar.png",296,34,289,0.5,"stim/31.jpeg",3,1,1,2,"Instruments",2,4,"right","right",0.518999815,1,1,1,0,NA,NA,NA,NA,NA,NA,NA,NA,NA,NA,NA,NA,NA,NA,NA,NA,NA,NA,NA,NA,NA,NA,NA,NA
"311","stim/objects/HouseObjects/dustpan.png",297,34,290,0.9,"stim/21.jpeg",2,1,3,2,"HouseObjects",1,2,"left","left",0.593999863,1,1,1,0,NA,NA,NA,NA,NA,NA,NA,NA,NA,NA,NA,NA,NA,NA,NA,NA,NA,NA,NA,NA,NA,NA,NA,NA
"326","stim/objects/HouseObjects/flyswatter.png",298,34,291,0.9,"stim/24.jpeg",2,4,3,2,"HouseObjects",1,4,"left","left",0.557999849,1,1,1,0,NA,NA,NA,NA,NA,NA,NA,NA,NA,NA,NA,NA,NA,NA,NA,NA,NA,NA,NA,NA,NA,NA,NA,NA
"461","stim/objects/Instruments/flute.png",299,34,292,0.9,"stim/13.jpeg",1,3,3,2,"Instruments",2,2,"right","right",0.671999931,1,1,1,0,NA,NA,NA,NA,NA,NA,NA,NA,NA,NA,NA,NA,NA,NA,NA,NA,NA,NA,NA,NA,NA,NA,NA,NA
"399","stim/objects/HouseObjects/pitcher2.png",300,34,293,0.9,"stim/23.jpeg",2,3,3,1,"HouseObjects",1,2,"left","left",0.66899991,1,1,1,0,143,34,1,0.9,1,"stim/23.jpeg",2,3,"stim/23.jpeg",2,"right",0.946000099,3,3,0.61899972,3,0.323999882,143,0,1,NA,0,NA,1
"444","stim/objects/Instruments/drums.png",301,34,294,0.7,"stim/53.jpeg",5,3,2,2,"Instruments",2,2,"right","right",0.427999973,1,1,1,0,NA,NA,NA,NA,NA,NA,NA,NA,NA,NA,NA,NA,NA,NA,NA,NA,NA,NA,NA,NA,NA,NA,NA,NA
"551","stim/objects/Instruments/laud.png",302,34,295,0.5,"stim/44.jpeg",4,4,1,1,"Instruments",2,1,"right","right",0.660999775,1,1,1,0,44,34,1,0.5,2,"stim/44.jpeg",4,4,"stim/44.jpeg",1,"left",1.00999999,2,3,0.838999987,1,1.013000011,44,1,0,0,1,1,1
"327","stim/objects/HouseObjects/flyswatter.png",303,34,296,0.9,"stim/22.jpeg",2,2,3,2,"HouseObjects",1,1,"left","left",0.61500001,1,1,1,0,NA,NA,NA,NA,NA,NA,NA,NA,NA,NA,NA,NA,NA,NA,NA,NA,NA,NA,NA,NA,NA,NA,NA,NA
"439","stim/objects/Instruments/cymbal2.png",304,34,297,0.3,"stim/63.jpeg",6,3,2,1,"Instruments",2,3,"right","right",0.603999853,1,1,1,0,193,34,1,0.3,2,"stim/63.jpeg",6,3,"stim/63.jpeg",3,"left",1.02699995,4,3,3.798000097,2,1.532999992,193,1,1,1,0,0,1
"527","stim/objects/Instruments/grandpiano.png",305,34,298,0.9,"stim/13.jpeg",1,3,3,2,"Instruments",2,4,"right","right",0.610999823,1,1,1,0,NA,NA,NA,NA,NA,NA,NA,NA,NA,NA,NA,NA,NA,NA,NA,NA,NA,NA,NA,NA,NA,NA,NA,NA
"295","stim/objects/HouseObjects/doormat.png",306,34,299,0.9,"stim/24.jpeg",2,4,3,2,"HouseObjects",1,2,"left","left",0.56799984,1,1,1,0,NA,NA,NA,NA,NA,NA,NA,NA,NA,NA,NA,NA,NA,NA,NA,NA,NA,NA,NA,NA,NA,NA,NA,NA
"254","stim/objects/HouseObjects/bleachbottle.png",307,34,300,0.5,"stim/31.jpeg",3,1,1,2,"HouseObjects",1,3,"left","right",0.448999882,0,0,1,0,NA,NA,NA,NA,NA,NA,NA,NA,NA,NA,NA,NA,NA,NA,NA,NA,NA,NA,NA,NA,NA,NA,NA,NA
"495","stim/objects/Instruments/frenchhorn.png",308,34,301,0.9,"stim/14.jpeg",1,4,3,2,"Instruments",2,1,"right","right",0.673999786,1,1,1,0,NA,NA,NA,NA,NA,NA,NA,NA,NA,NA,NA,NA,NA,NA,NA,NA,NA,NA,NA,NA,NA,NA,NA,NA
"344","stim/objects/HouseObjects/garbagebin.png",309,34,302,0.9,"stim/23.jpeg",2,3,3,2,"HouseObjects",1,3,"left","left",0.639999866,1,1,1,0,NA,NA,NA,NA,NA,NA,NA,NA,NA,NA,NA,NA,NA,NA,NA,NA,NA,NA,NA,NA,NA,NA,NA,NA
"462","stim/objects/Instruments/flute.png",310,34,303,0.9,"stim/11.jpeg",1,1,3,2,"Instruments",2,1,"right","right",0.740999937,1,1,1,0,NA,NA,NA,NA,NA,NA,NA,NA,NA,NA,NA,NA,NA,NA,NA,NA,NA,NA,NA,NA,NA,NA,NA,NA
"513","stim/objects/Instruments/gong.png",311,34,304,0.9,"stim/12.jpeg",1,2,3,2,"Instruments",2,2,"right","right",0.733999968,1,1,1,0,NA,NA,NA,NA,NA,NA,NA,NA,NA,NA,NA,NA,NA,NA,NA,NA,NA,NA,NA,NA,NA,NA,NA,NA
"528","stim/objects/Instruments/grandpiano.png",312,34,305,0.9,"stim/14.jpeg",1,4,3,2,"Instruments",2,4,"right","right",0.545999765,1,1,1,0,NA,NA,NA,NA,NA,NA,NA,NA,NA,NA,NA,NA,NA,NA,NA,NA,NA,NA,NA,NA,NA,NA,NA,NA
"363","stim/objects/HouseObjects/glass.png",313,34,306,0.9,"stim/22.jpeg",2,2,3,2,"HouseObjects",1,4,"left","left",0.753000021,1,1,1,0,NA,NA,NA,NA,NA,NA,NA,NA,NA,NA,NA,NA,NA,NA,NA,NA,NA,NA,NA,NA,NA,NA,NA,NA
"463","stim/objects/Instruments/flute.png",314,34,307,0.9,"stim/14.jpeg",1,4,3,2,"Instruments",2,2,"right","right",0.505000114,1,1,1,0,NA,NA,NA,NA,NA,NA,NA,NA,NA,NA,NA,NA,NA,NA,NA,NA,NA,NA,NA,NA,NA,NA,NA,NA
"478","stim/objects/Instruments/flutetrans.png",315,34,308,0.9,"stim/12.jpeg",1,2,3,2,"Instruments",2,1,"right","right",0.621999741,1,1,1,0,NA,NA,NA,NA,NA,NA,NA,NA,NA,NA,NA,NA,NA,NA,NA,NA,NA,NA,NA,NA,NA,NA,NA,NA
"383","stim/objects/HouseObjects/handvacuum2.png",316,34,309,0.1,"stim/11.jpeg",1,1,3,1,"HouseObjects",1,2,"left","right",0.727999926,0,0,1,0,73,34,1,0.1,1,"stim/11.jpeg",1,1,"stim/11.jpeg",2,"left",0.923999786,4,2,3.401000023,4,3.036999941,73,1,0,0,0,0,1
"296","stim/objects/HouseObjects/doormat.png",317,34,310,0.9,"stim/21.jpeg",2,1,3,2,"HouseObjects",1,2,"left","left",0.769000053,1,1,1,0,NA,NA,NA,NA,NA,NA,NA,NA,NA,NA,NA,NA,NA,NA,NA,NA,NA,NA,NA,NA,NA,NA,NA,NA
"496","stim/objects/Instruments/frenchhorn.png",318,34,311,0.9,"stim/12.jpeg",1,2,3,2,"Instruments",2,2,"right","right",0.517999887,1,1,1,0,NA,NA,NA,NA,NA,NA,NA,NA,NA,NA,NA,NA,NA,NA,NA,NA,NA,NA,NA,NA,NA,NA,NA,NA
"328","stim/objects/HouseObjects/flyswatter.png",319,34,312,0.9,"stim/23.jpeg",2,3,3,2,"HouseObjects",1,1,"left","left",0.571999788,1,1,1,0,NA,NA,NA,NA,NA,NA,NA,NA,NA,NA,NA,NA,NA,NA,NA,NA,NA,NA,NA,NA,NA,NA,NA,NA
"329","stim/objects/HouseObjects/flyswatter.png",320,34,313,0.9,"stim/21.jpeg",2,1,3,2,"HouseObjects",1,1,"left","left",0.589999914,1,1,1,0,NA,NA,NA,NA,NA,NA,NA,NA,NA,NA,NA,NA,NA,NA,NA,NA,NA,NA,NA,NA,NA,NA,NA,NA
"364","stim/objects/HouseObjects/glass.png",321,34,314,0.9,"stim/21.jpeg",2,1,3,2,"HouseObjects",1,1,"left","left",0.629999876,1,1,1,0,NA,NA,NA,NA,NA,NA,NA,NA,NA,NA,NA,NA,NA,NA,NA,NA,NA,NA,NA,NA,NA,NA,NA,NA
"312","stim/objects/HouseObjects/dustpan.png",322,34,315,0.9,"stim/24.jpeg",2,4,3,2,"HouseObjects",1,2,"left","left",0.77699995,1,1,1,0,NA,NA,NA,NA,NA,NA,NA,NA,NA,NA,NA,NA,NA,NA,NA,NA,NA,NA,NA,NA,NA,NA,NA,NA
"464","stim/objects/Instruments/flute.png",323,34,316,0.9,"stim/11.jpeg",1,1,3,2,"Instruments",2,2,"right","right",0.635999918,1,1,1,0,NA,NA,NA,NA,NA,NA,NA,NA,NA,NA,NA,NA,NA,NA,NA,NA,NA,NA,NA,NA,NA,NA,NA,NA
"313","stim/objects/HouseObjects/dustpan.png",324,34,317,0.9,"stim/21.jpeg",2,1,3,2,"HouseObjects",1,3,"left","left",0.619999886,1,1,1,0,NA,NA,NA,NA,NA,NA,NA,NA,NA,NA,NA,NA,NA,NA,NA,NA,NA,NA,NA,NA,NA,NA,NA,NA
"284","stim/objects/HouseObjects/cushion.png",325,34,318,0.7,"stim/62.jpeg",6,2,2,2,"HouseObjects",1,3,"left","right",0.778999805,0,0,1,0,NA,NA,NA,NA,NA,NA,NA,NA,NA,NA,NA,NA,NA,NA,NA,NA,NA,NA,NA,NA,NA,NA,NA,NA
"241","stim/objects/HouseObjects/ashtray.png",326,34,319,0.5,"stim/31.jpeg",3,1,1,2,"HouseObjects",1,1,"left","right",0.737999916,0,0,1,0,NA,NA,NA,NA,NA,NA,NA,NA,NA,NA,NA,NA,NA,NA,NA,NA,NA,NA,NA,NA,NA,NA,NA,NA
"479","stim/objects/Instruments/flutetrans.png",327,34,320,0.9,"stim/11.jpeg",1,1,3,2,"Instruments",2,2,"right","right",0.672999859,1,1,1,0,NA,NA,NA,NA,NA,NA,NA,NA,NA,NA,NA,NA,NA,NA,NA,NA,NA,NA,NA,NA,NA,NA,NA,NA
"570","stim/objects/Instruments/record2.png",328,34,321,0.1,"stim/24.jpeg",2,4,3,1,"Instruments",2,3,"right","left",0.569999933,0,0,1,0,154,34,1,0.1,2,"stim/24.jpeg",2,4,"stim/24.jpeg",3,"left",2.348999977,4,2,5.220999956,3,3.394000053,154,1,0,0,1,1,1
"445","stim/objects/Instruments/drums.png",329,34,322,0.7,"stim/51.jpeg",5,1,2,2,"Instruments",2,2,"right","right",0.589999914,1,1,1,0,NA,NA,NA,NA,NA,NA,NA,NA,NA,NA,NA,NA,NA,NA,NA,NA,NA,NA,NA,NA,NA,NA,NA,NA
"544","stim/objects/Instruments/harmonica2.png",330,34,323,0.9,"stim/11.jpeg",1,1,3,1,"Instruments",2,3,"right","right",0.67599988,1,1,1,0,93,34,1,0.9,2,"stim/11.jpeg",1,1,"stim/11.jpeg",3,"right",1.365999937,3,2,0.638999939,2,0.482000113,93,0,0,NA,0,NA,1
"381","stim/objects/HouseObjects/handbrush2.png",331,34,324,0.1,"stim/14.jpeg",1,4,3,1,"HouseObjects",1,2,"left","right",0.661000013,0,0,1,0,63,34,1,0.1,1,"stim/14.jpeg",1,4,"stim/14.jpeg",2,"right",0.981999874,3,2,0.747999907,1,1.437999964,63,0,0,NA,0,NA,1
"365","stim/objects/HouseObjects/glass.png",332,34,325,0.9,"stim/24.jpeg",2,4,3,2,"HouseObjects",1,4,"left","left",0.689999819,1,1,1,0,NA,NA,NA,NA,NA,NA,NA,NA,NA,NA,NA,NA,NA,NA,NA,NA,NA,NA,NA,NA,NA,NA,NA,NA
"514","stim/objects/Instruments/gong.png",333,34,326,0.9,"stim/13.jpeg",1,3,3,2,"Instruments",2,2,"right","right",0.487999916,1,1,1,0,NA,NA,NA,NA,NA,NA,NA,NA,NA,NA,NA,NA,NA,NA,NA,NA,NA,NA,NA,NA,NA,NA,NA,NA
"433","stim/objects/Instruments/cornet.png",334,34,327,0.5,"stim/43.jpeg",4,3,1,2,"Instruments",2,4,"right","right",0.639999866,1,1,1,0,NA,NA,NA,NA,NA,NA,NA,NA,NA,NA,NA,NA,NA,NA,NA,NA,NA,NA,NA,NA,NA,NA,NA,NA
"529","stim/objects/Instruments/grandpiano.png",335,34,328,0.9,"stim/12.jpeg",1,2,3,2,"Instruments",2,4,"right","right",0.699999809,1,1,1,0,NA,NA,NA,NA,NA,NA,NA,NA,NA,NA,NA,NA,NA,NA,NA,NA,NA,NA,NA,NA,NA,NA,NA,NA
"453","stim/objects/Instruments/electricguitar.png",336,34,329,0.7,"stim/53.jpeg",5,3,2,2,"Instruments",2,4,"right","right",0.642999887,1,1,1,0,NA,NA,NA,NA,NA,NA,NA,NA,NA,NA,NA,NA,NA,NA,NA,NA,NA,NA,NA,NA,NA,NA,NA,NA
"394","stim/objects/HouseObjects/match.png",337,34,330,0.5,"stim/41.jpeg",4,1,1,1,"HouseObjects",1,1,"left","left",0.641999722,1,1,1,0,197,34,1,0.5,2,"stim/41.jpeg",4,1,"stim/41.jpeg",1,"left",0.941999912,4,3,1.907999992,3,1.032999992,197,1,0,0,0,0,1
"297","stim/objects/HouseObjects/doormat.png",338,34,331,0.9,"stim/22.jpeg",2,2,3,2,"HouseObjects",1,4,"left","left",0.640999794,1,1,1,0,NA,NA,NA,NA,NA,NA,NA,NA,NA,NA,NA,NA,NA,NA,NA,NA,NA,NA,NA,NA,NA,NA,NA,NA
"547","stim/objects/Instruments/hihat.png",339,34,332,0.5,"stim/31.jpeg",3,1,1,1,"Instruments",2,4,"right","right",0.609999895,1,1,1,0,169,34,1,0.5,1,"stim/31.jpeg",3,1,"stim/31.jpeg",4,"left",0.930999756,1,3,0.494999886,3,0.536999941,169,1,0,0,0,0,1
"246","stim/objects/HouseObjects/ballofstring2.png",340,34,333,0.3,"stim/53.jpeg",5,3,2,1,"HouseObjects",1,3,"left","right",0.558999777,0,0,1,0,132,34,1,0.3,1,"stim/53.jpeg",5,3,"stim/53.jpeg",3,"left",1.07799983,3,1,1.634000063,4,1.699999809,132,1,0,0,0,0,1
"515","stim/objects/Instruments/gong.png",341,34,334,0.9,"stim/14.jpeg",1,4,3,2,"Instruments",2,4,"right","right",0.592999935,1,1,1,0,NA,NA,NA,NA,NA,NA,NA,NA,NA,NA,NA,NA,NA,NA,NA,NA,NA,NA,NA,NA,NA,NA,NA,NA
"516","stim/objects/Instruments/gong.png",342,34,335,0.9,"stim/11.jpeg",1,1,3,2,"Instruments",2,3,"right","right",0.680999994,1,1,1,0,NA,NA,NA,NA,NA,NA,NA,NA,NA,NA,NA,NA,NA,NA,NA,NA,NA,NA,NA,NA,NA,NA,NA,NA
"331","stim/objects/HouseObjects/flyswatter.png",343,34,336,0.9,"stim/23.jpeg",2,3,3,2,"HouseObjects",1,1,"left","left",0.689999819,1,1,1,0,NA,NA,NA,NA,NA,NA,NA,NA,NA,NA,NA,NA,NA,NA,NA,NA,NA,NA,NA,NA,NA,NA,NA,NA
"294","stim/objects/HouseObjects/doormat.png",344,34,337,0.9,"stim/24.jpeg",2,4,3,2,"HouseObjects",1,2,"left","left",0.683999777,1,1,1,0,NA,NA,NA,NA,NA,NA,NA,NA,NA,NA,NA,NA,NA,NA,NA,NA,NA,NA,NA,NA,NA,NA,NA,NA
"497","stim/objects/Instruments/frenchhorn.png",345,34,338,0.9,"stim/13.jpeg",1,3,3,2,"Instruments",2,1,"right","right",0.667000055,1,1,1,0,NA,NA,NA,NA,NA,NA,NA,NA,NA,NA,NA,NA,NA,NA,NA,NA,NA,NA,NA,NA,NA,NA,NA,NA
"422","stim/objects/Instruments/bassguitar.png",346,34,339,0.5,"stim/43.jpeg",4,3,1,2,"Instruments",2,4,"right","left",0.640999794,0,0,1,0,NA,NA,NA,NA,NA,NA,NA,NA,NA,NA,NA,NA,NA,NA,NA,NA,NA,NA,NA,NA,NA,NA,NA,NA
"395","stim/objects/HouseObjects/match2.png",347,34,340,0.9,"stim/21.jpeg",2,1,3,1,"HouseObjects",1,2,"left","left",0.687999964,1,1,1,0,34,34,1,0.9,1,"stim/21.jpeg",2,1,"stim/21.jpeg",2,"left",0.848999977,3,3,3.389999866,1,1.709000111,34,1,0,0,0,0,1
"498","stim/objects/Instruments/frenchhorn.png",348,34,341,0.9,"stim/12.jpeg",1,2,3,2,"Instruments",2,2,"right","right",0.55099988,1,1,1,0,NA,NA,NA,NA,NA,NA,NA,NA,NA,NA,NA,NA,NA,NA,NA,NA,NA,NA,NA,NA,NA,NA,NA,NA
"376","stim/objects/HouseObjects/glassmop.png",349,34,342,0.5,"stim/33.jpeg",3,3,1,1,"HouseObjects",1,1,"left","left",0.755999804,1,1,1,0,90,34,1,0.5,1,"stim/33.jpeg",3,3,"stim/33.jpeg",1,"left",1.013999939,4,2,1.752999783,1,1.073999882,90,1,0,0,1,1,1
"480","stim/objects/Instruments/flutetrans.png",350,34,343,0.9,"stim/12.jpeg",1,2,3,2,"Instruments",2,4,"right","right",0.52699995,1,1,1,0,NA,NA,NA,NA,NA,NA,NA,NA,NA,NA,NA,NA,NA,NA,NA,NA,NA,NA,NA,NA,NA,NA,NA,NA
"415","stim/objects/Instruments/banjo.png",351,34,344,0.5,"stim/33.jpeg",3,3,1,2,"Instruments",2,2,"right","left",0.57799983,0,0,1,0,NA,NA,NA,NA,NA,NA,NA,NA,NA,NA,NA,NA,NA,NA,NA,NA,NA,NA,NA,NA,NA,NA,NA,NA
"267","stim/objects/HouseObjects/bucket2.png",352,34,345,0.7,"stim/63.jpeg",6,3,2,1,"HouseObjects",1,4,"left","right",0.596999884,0,0,1,0,145,34,1,0.7,1,"stim/63.jpeg",6,3,"stim/63.jpeg",4,"right",0.619999886,2,3,0.735999823,3,0.490999937,145,0,1,NA,0,NA,1
"273","stim/objects/HouseObjects/clothesdryingrack.png",353,34,346,0.7,"stim/62.jpeg",6,2,2,2,"HouseObjects",1,4,"left","left",0.648999929,1,1,1,0,NA,NA,NA,NA,NA,NA,NA,NA,NA,NA,NA,NA,NA,NA,NA,NA,NA,NA,NA,NA,NA,NA,NA,NA
"398","stim/objects/HouseObjects/pitcher.png",354,34,347,0.3,"stim/52.jpeg",5,2,2,1,"HouseObjects",1,2,"left","right",0.517999887,0,0,1,0,116,34,1,0.3,1,"stim/52.jpeg",5,2,"stim/52.jpeg",2,"left",0.848999977,4,3,4.34800005,1,1.377999783,116,1,0,0,0,0,1
"332","stim/objects/HouseObjects/flyswatter.png",355,34,348,0.9,"stim/23.jpeg",2,3,3,2,"HouseObjects",1,3,"left","left",0.749999762,1,1,1,0,NA,NA,NA,NA,NA,NA,NA,NA,NA,NA,NA,NA,NA,NA,NA,NA,NA,NA,NA,NA,NA,NA,NA,NA
"543","stim/objects/Instruments/harmonica.png",356,34,349,0.5,"stim/33.jpeg",3,3,1,1,"Instruments",2,3,"right","right",0.654999971,1,1,1,0,21,34,1,0.5,1,"stim/33.jpeg",3,3,"stim/33.jpeg",3,"right",0.943999767,4,4,0.532999754,4,0.526000023,21,0,0,NA,0,NA,1
"300","stim/objects/HouseObjects/doormat.png",357,34,350,0.9,"stim/23.jpeg",2,3,3,2,"HouseObjects",1,1,"left","left",0.635999918,1,1,1,0,NA,NA,NA,NA,NA,NA,NA,NA,NA,NA,NA,NA,NA,NA,NA,NA,NA,NA,NA,NA,NA,NA,NA,NA
"560","stim/objects/Instruments/musicsheet2.png",358,34,351,0.1,"stim/23.jpeg",2,3,3,1,"Instruments",2,4,"right","left",0.572999954,0,0,1,0,191,34,1,0.1,2,"stim/23.jpeg",2,3,"stim/23.jpeg",4,"left",0.916000128,4,3,2.479999781,3,0.380000114,191,1,1,1,0,0,1
"530","stim/objects/Instruments/grandpiano.png",359,34,352,0.9,"stim/11.jpeg",1,1,3,2,"Instruments",2,3,"right","right",0.714999914,1,1,1,0,NA,NA,NA,NA,NA,NA,NA,NA,NA,NA,NA,NA,NA,NA,NA,NA,NA,NA,NA,NA,NA,NA,NA,NA
"424","stim/objects/Instruments/cello.png",360,34,353,0.5,"stim/43.jpeg",4,3,1,2,"Instruments",2,2,"right","left",0.726000071,0,0,1,0,NA,NA,NA,NA,NA,NA,NA,NA,NA,NA,NA,NA,NA,NA,NA,NA,NA,NA,NA,NA,NA,NA,NA,NA
"366","stim/objects/HouseObjects/glass.png",361,34,354,0.9,"stim/24.jpeg",2,4,3,2,"HouseObjects",1,1,"left","right",0.463000059,0,0,1,0,NA,NA,NA,NA,NA,NA,NA,NA,NA,NA,NA,NA,NA,NA,NA,NA,NA,NA,NA,NA,NA,NA,NA,NA
"333","stim/objects/HouseObjects/flyswatter.png",362,34,355,0.9,"stim/22.jpeg",2,2,3,2,"HouseObjects",1,1,"left","left",0.546000004,1,1,1,0,NA,NA,NA,NA,NA,NA,NA,NA,NA,NA,NA,NA,NA,NA,NA,NA,NA,NA,NA,NA,NA,NA,NA,NA
"442","stim/objects/Instruments/doublebass.png",363,34,356,0.7,"stim/51.jpeg",5,1,2,2,"Instruments",2,4,"right","right",0.64199996,1,1,1,0,NA,NA,NA,NA,NA,NA,NA,NA,NA,NA,NA,NA,NA,NA,NA,NA,NA,NA,NA,NA,NA,NA,NA,NA
"244","stim/objects/HouseObjects/ballofstring.png",364,34,357,0.5,"stim/33.jpeg",3,3,1,2,"HouseObjects",1,1,"left","",NA,0,0,1,0,NA,NA,NA,NA,NA,NA,NA,NA,NA,NA,NA,NA,NA,NA,NA,NA,NA,NA,NA,NA,NA,NA,NA,NA
"412","stim/objects/Instruments/balalaika.png",365,34,358,0.5,"stim/33.jpeg",3,3,1,2,"Instruments",2,4,"right","right",0.633999825,1,1,1,0,NA,NA,NA,NA,NA,NA,NA,NA,NA,NA,NA,NA,NA,NA,NA,NA,NA,NA,NA,NA,NA,NA,NA,NA
"345","stim/objects/HouseObjects/garbagebin.png",366,34,359,0.9,"stim/21.jpeg",2,1,3,2,"HouseObjects",1,3,"left","left",0.474999905,1,1,1,0,NA,NA,NA,NA,NA,NA,NA,NA,NA,NA,NA,NA,NA,NA,NA,NA,NA,NA,NA,NA,NA,NA,NA,NA
"391","stim/objects/HouseObjects/knife2.png",367,34,360,0.9,"stim/23.jpeg",2,3,3,1,"HouseObjects",1,3,"left","left",0.634999752,1,1,1,0,31,34,1,0.9,1,"stim/23.jpeg",2,3,"stim/23.jpeg",3,"left",1.009000063,3,4,3.087999821,3,1.636999846,31,1,0,0,1,1,1
"517","stim/objects/Instruments/gong.png",368,34,361,0.9,"stim/11.jpeg",1,1,3,2,"Instruments",2,4,"right","right",0.536999941,1,1,1,0,NA,NA,NA,NA,NA,NA,NA,NA,NA,NA,NA,NA,NA,NA,NA,NA,NA,NA,NA,NA,NA,NA,NA,NA
"481","stim/objects/Instruments/flutetrans.png",369,34,362,0.9,"stim/11.jpeg",1,1,3,2,"Instruments",2,3,"right","right",0.815999985,1,1,1,0,NA,NA,NA,NA,NA,NA,NA,NA,NA,NA,NA,NA,NA,NA,NA,NA,NA,NA,NA,NA,NA,NA,NA,NA
"562","stim/objects/Instruments/musicstand2.png",370,34,363,0.1,"stim/24.jpeg",2,4,3,1,"Instruments",2,3,"right","left",0.626999855,0,0,1,0,32,34,1,0.1,2,"stim/24.jpeg",2,4,"stim/24.jpeg",3,"left",0.795000076,2,3,0.921000004,1,1.365999937,32,1,0,0,0,0,1
"335","stim/objects/HouseObjects/flyswatter.png",371,34,364,0.9,"stim/21.jpeg",2,1,3,2,"HouseObjects",1,3,"left","left",0.524999857,1,1,1,0,NA,NA,NA,NA,NA,NA,NA,NA,NA,NA,NA,NA,NA,NA,NA,NA,NA,NA,NA,NA,NA,NA,NA,NA
"396","stim/objects/HouseObjects/pan.png",372,34,365,0.3,"stim/51.jpeg",5,1,2,1,"HouseObjects",1,4,"left","right",0.56099987,0,0,1,0,149,34,1,0.3,1,"stim/51.jpeg",5,1,"stim/51.jpeg",4,"right",1.104000092,3,1,0.856999874,3,0.575000048,149,0,1,NA,0,NA,1
"245","stim/objects/HouseObjects/ballofstring.png",373,34,366,0.5,"stim/32.jpeg",3,2,1,2,"HouseObjects",1,3,"left","right",0.669999838,0,0,1,0,NA,NA,NA,NA,NA,NA,NA,NA,NA,NA,NA,NA,NA,NA,NA,NA,NA,NA,NA,NA,NA,NA,NA,NA
"247","stim/objects/HouseObjects/barbecuelighter.png",374,34,367,0.5,"stim/34.jpeg",3,4,1,2,"HouseObjects",1,1,"left","left",0.700999975,1,1,1,0,NA,NA,NA,NA,NA,NA,NA,NA,NA,NA,NA,NA,NA,NA,NA,NA,NA,NA,NA,NA,NA,NA,NA,NA
"411","stim/objects/Instruments/acousticguitar2.png",375,34,368,0.7,"stim/54.jpeg",5,4,2,1,"Instruments",2,1,"right","right",0.645999908,1,1,1,0,58,34,1,0.7,2,"stim/54.jpeg",5,4,"stim/54.jpeg",1,"right",1.078000069,3,3,0.582000017,3,0.665999889,58,0,0,NA,0,NA,1
"449","stim/objects/Instruments/electricdrumset.png",376,34,369,0.7,"stim/53.jpeg",5,3,2,2,"Instruments",2,2,"right","right",0.651000023,1,1,1,0,NA,NA,NA,NA,NA,NA,NA,NA,NA,NA,NA,NA,NA,NA,NA,NA,NA,NA,NA,NA,NA,NA,NA,NA
"392","stim/objects/HouseObjects/lintroller.png",377,34,370,0.5,"stim/44.jpeg",4,4,1,1,"HouseObjects",1,1,"left","left",0.833999872,1,1,1,0,43,34,1,0.5,2,"stim/44.jpeg",4,4,"stim/44.jpeg",1,"left",0.830999851,4,3,2.135999918,1,1.075000048,43,1,0,0,1,1,1
"347","stim/objects/HouseObjects/garbagebin.png",378,34,371,0.9,"stim/22.jpeg",2,2,3,2,"HouseObjects",1,1,"left","left",0.689999819,1,1,1,0,NA,NA,NA,NA,NA,NA,NA,NA,NA,NA,NA,NA,NA,NA,NA,NA,NA,NA,NA,NA,NA,NA,NA,NA
"506","stim/objects/Instruments/frenchhorn2.png",379,34,372,0.9,"stim/11.jpeg",1,1,3,1,"Instruments",2,1,"right","right",0.729999781,1,1,1,0,173,34,1,0.9,2,"stim/11.jpeg",1,1,"stim/11.jpeg",1,"right",0.899999857,3,3,0.444999933,3,0.579999924,173,0,0,NA,0,NA,1
"414","stim/objects/Instruments/balalaika2.png",380,34,373,0.7,"stim/51.jpeg",5,1,2,1,"Instruments",2,3,"right","right",0.7099998,1,1,1,0,46,34,1,0.7,2,"stim/51.jpeg",5,1,"stim/51.jpeg",3,"left",0.635999918,4,1,2.431999922,2,1.134000063,46,1,1,1,0,0,1
"404","stim/objects/HouseObjects/rubbergloves.png",381,34,374,0.3,"stim/51.jpeg",5,1,2,1,"HouseObjects",1,1,"left","left",0.441999912,1,1,1,0,10,34,1,0.3,1,"stim/51.jpeg",5,1,"stim/51.jpeg",1,"right",0.929999828,2,2,1.371000051,2,0.716999769,10,0,0,NA,0,NA,1
"403","stim/objects/HouseObjects/remote2.png",382,34,375,0.9,"stim/21.jpeg",2,1,3,1,"HouseObjects",1,2,"left","left",0.709000111,1,1,1,0,88,34,1,0.9,1,"stim/21.jpeg",2,1,"stim/21.jpeg",2,"right",0.724999905,4,3,1.079999924,1,1.273000002,88,0,0,NA,0,NA,1
"388","stim/objects/HouseObjects/key.png",383,34,376,0.5,"stim/42.jpeg",4,2,1,1,"HouseObjects",1,4,"left","right",0.845999956,0,0,1,0,57,34,1,0.5,2,"stim/42.jpeg",4,2,"stim/42.jpeg",4,"right",1.006000042,3,3,0.66899991,3,0.440999746,57,0,0,NA,0,NA,1
"446","stim/objects/Instruments/drums.png",384,34,377,0.7,"stim/52.jpeg",5,2,2,2,"Instruments",2,1,"right","right",0.5,1,1,1,0,NA,NA,NA,NA,NA,NA,NA,NA,NA,NA,NA,NA,NA,NA,NA,NA,NA,NA,NA,NA,NA,NA,NA,NA
"406","stim/objects/Instruments/accordion.png",385,34,378,0.5,"stim/34.jpeg",3,4,1,2,"Instruments",2,1,"right","left",0.68599987,0,0,1,0,NA,NA,NA,NA,NA,NA,NA,NA,NA,NA,NA,NA,NA,NA,NA,NA,NA,NA,NA,NA,NA,NA,NA,NA
"484","stim/objects/Instruments/flutetrans.png",386,34,379,0.9,"stim/14.jpeg",1,4,3,2,"Instruments",2,4,"right","right",0.50999999,1,1,1,0,NA,NA,NA,NA,NA,NA,NA,NA,NA,NA,NA,NA,NA,NA,NA,NA,NA,NA,NA,NA,NA,NA,NA,NA
"457","stim/objects/Instruments/flute.png",387,34,380,0.9,"stim/13.jpeg",1,3,3,2,"Instruments",2,4,"right","right",0.43599987,1,1,1,0,NA,NA,NA,NA,NA,NA,NA,NA,NA,NA,NA,NA,NA,NA,NA,NA,NA,NA,NA,NA,NA,NA,NA,NA
"485","stim/objects/Instruments/flutetrans.png",388,34,381,0.9,"stim/14.jpeg",1,4,3,2,"Instruments",2,3,"right","right",0.450999975,1,1,1,0,NA,NA,NA,NA,NA,NA,NA,NA,NA,NA,NA,NA,NA,NA,NA,NA,NA,NA,NA,NA,NA,NA,NA,NA
"452","stim/objects/Instruments/electricguitar.png",389,34,382,0.7,"stim/54.jpeg",5,4,2,2,"Instruments",2,1,"right","right",0.461999893,1,1,1,0,NA,NA,NA,NA,NA,NA,NA,NA,NA,NA,NA,NA,NA,NA,NA,NA,NA,NA,NA,NA,NA,NA,NA,NA
"532","stim/objects/Instruments/grandpiano.png",390,34,383,0.9,"stim/11.jpeg",1,1,3,2,"Instruments",2,3,"right","right",0.391999722,1,1,1,0,NA,NA,NA,NA,NA,NA,NA,NA,NA,NA,NA,NA,NA,NA,NA,NA,NA,NA,NA,NA,NA,NA,NA,NA
"361","stim/objects/HouseObjects/glass.png",391,34,384,0.9,"stim/23.jpeg",2,3,3,2,"HouseObjects",1,3,"left","left",0.651999712,1,1,1,0,NA,NA,NA,NA,NA,NA,NA,NA,NA,NA,NA,NA,NA,NA,NA,NA,NA,NA,NA,NA,NA,NA,NA,NA
"554","stim/objects/Instruments/maraca2.png",392,34,385,0.1,"stim/24.jpeg",2,4,3,1,"Instruments",2,4,"right","left",0.437999964,0,0,1,0,7,34,1,0.1,2,"stim/24.jpeg",2,4,"stim/24.jpeg",4,"left",1.104000092,3,3,2.249000072,2,0.901000023,7,1,0,0,0,0,1
"508","stim/objects/Instruments/gong.png",393,34,386,0.9,"stim/12.jpeg",1,2,3,2,"Instruments",2,4,"right","right",0.529999971,1,1,1,0,NA,NA,NA,NA,NA,NA,NA,NA,NA,NA,NA,NA,NA,NA,NA,NA,NA,NA,NA,NA,NA,NA,NA,NA
"256","stim/objects/HouseObjects/blender.png",394,34,387,0.5,"stim/43.jpeg",4,3,1,2,"HouseObjects",1,3,"left","right",0.596999884,0,0,1,0,NA,NA,NA,NA,NA,NA,NA,NA,NA,NA,NA,NA,NA,NA,NA,NA,NA,NA,NA,NA,NA,NA,NA,NA
"261","stim/objects/HouseObjects/bottle2.png",395,34,388,0.7,"stim/61.jpeg",6,1,2,1,"HouseObjects",1,4,"left","left",0.710999966,1,1,1,0,114,34,1,0.7,1,"stim/61.jpeg",6,1,"stim/61.jpeg",4,"left",0.890999794,4,4,4.18599987,3,1.876999855,114,1,0,0,0,0,1
"341","stim/objects/HouseObjects/flyswatter2.png",396,34,389,0.1,"stim/13.jpeg",1,3,3,1,"HouseObjects",1,3,"left","right",0.546999931,0,0,1,0,2,34,1,0.1,1,"stim/13.jpeg",1,3,"stim/13.jpeg",3,"left",1.0849998,4,4,2.947999954,4,2.355000019,2,1,0,0,0,0,1
"302","stim/objects/HouseObjects/doormat.png",397,34,390,0.9,"stim/22.jpeg",2,2,3,2,"HouseObjects",1,2,"left","right",0.496000051,0,0,1,0,NA,NA,NA,NA,NA,NA,NA,NA,NA,NA,NA,NA,NA,NA,NA,NA,NA,NA,NA,NA,NA,NA,NA,NA
"342","stim/objects/HouseObjects/garbagebin.png",398,34,391,0.9,"stim/24.jpeg",2,4,3,2,"HouseObjects",1,1,"left","left",0.45299983,1,1,1,0,NA,NA,NA,NA,NA,NA,NA,NA,NA,NA,NA,NA,NA,NA,NA,NA,NA,NA,NA,NA,NA,NA,NA,NA
"265","stim/objects/HouseObjects/bucket.png",399,34,392,0.5,"stim/42.jpeg",4,2,1,2,"HouseObjects",1,4,"left","right",0.726999998,0,0,1,0,NA,NA,NA,NA,NA,NA,NA,NA,NA,NA,NA,NA,NA,NA,NA,NA,NA,NA,NA,NA,NA,NA,NA,NA
"416","stim/objects/Instruments/banjo.png",400,34,393,0.5,"stim/34.jpeg",3,4,1,2,"Instruments",2,3,"right","left",0.733999968,0,0,1,0,NA,NA,NA,NA,NA,NA,NA,NA,NA,NA,NA,NA,NA,NA,NA,NA,NA,NA,NA,NA,NA,NA,NA,NA
"526","stim/objects/Instruments/grandpiano.png",401,34,394,0.9,"stim/13.jpeg",1,3,3,2,"Instruments",2,1,"right","right",0.596999884,1,1,1,0,NA,NA,NA,NA,NA,NA,NA,NA,NA,NA,NA,NA,NA,NA,NA,NA,NA,NA,NA,NA,NA,NA,NA,NA
"400","stim/objects/HouseObjects/recyclingbin.png",402,34,395,0.3,"stim/53.jpeg",5,3,2,1,"HouseObjects",1,1,"left","right",0.559999943,0,0,1,0,19,34,1,0.3,1,"stim/53.jpeg",5,3,"stim/53.jpeg",1,"left",0.839999914,3,2,1.001999855,1,0.898999929,19,1,0,0,1,1,1
"427","stim/objects/Instruments/chime.png",403,34,396,0.5,"stim/41.jpeg",4,1,1,2,"Instruments",2,2,"right","left",0.714999914,0,0,1,0,NA,NA,NA,NA,NA,NA,NA,NA,NA,NA,NA,NA,NA,NA,NA,NA,NA,NA,NA,NA,NA,NA,NA,NA
"455","stim/objects/Instruments/electricguitar2.png",404,34,397,0.3,"stim/63.jpeg",6,3,2,1,"Instruments",2,1,"right","right",0.802999973,1,1,1,0,49,34,1,0.3,2,"stim/63.jpeg",6,3,"stim/63.jpeg",1,"left",1.089999914,2,4,2.332999945,3,1.994999886,49,1,0,0,0,0,1
"533","stim/objects/Instruments/grandpiano.png",405,34,398,0.9,"stim/11.jpeg",1,1,3,2,"Instruments",2,1,"right","right",0.700999975,1,1,1,0,NA,NA,NA,NA,NA,NA,NA,NA,NA,NA,NA,NA,NA,NA,NA,NA,NA,NA,NA,NA,NA,NA,NA,NA
"315","stim/objects/HouseObjects/dustpan.png",406,34,399,0.9,"stim/22.jpeg",2,2,3,2,"HouseObjects",1,1,"left","left",0.476999998,1,1,1,0,NA,NA,NA,NA,NA,NA,NA,NA,NA,NA,NA,NA,NA,NA,NA,NA,NA,NA,NA,NA,NA,NA,NA,NA
"519","stim/objects/Instruments/gong.png",407,34,400,0.9,"stim/13.jpeg",1,3,3,2,"Instruments",2,4,"right","right",0.757999897,1,1,1,0,NA,NA,NA,NA,NA,NA,NA,NA,NA,NA,NA,NA,NA,NA,NA,NA,NA,NA,NA,NA,NA,NA,NA,NA
"559","stim/objects/Instruments/musicsheet.png",408,34,401,0.5,"stim/44.jpeg",4,4,1,1,"Instruments",2,2,"right","left",0.799999952,0,0,1,0,98,34,1,0.5,2,"stim/44.jpeg",4,4,"stim/44.jpeg",2,"left",1.252999783,4,4,6.647000074,4,1.244999886,98,1,1,1,0,0,1
"520","stim/objects/Instruments/gong.png",409,34,402,0.9,"stim/13.jpeg",1,3,3,2,"Instruments",2,3,"right","right",0.497999907,1,1,1,0,NA,NA,NA,NA,NA,NA,NA,NA,NA,NA,NA,NA,NA,NA,NA,NA,NA,NA,NA,NA,NA,NA,NA,NA
"459","stim/objects/Instruments/flute.png",410,34,403,0.9,"stim/14.jpeg",1,4,3,2,"Instruments",2,4,"right","right",0.565999985,1,1,1,0,NA,NA,NA,NA,NA,NA,NA,NA,NA,NA,NA,NA,NA,NA,NA,NA,NA,NA,NA,NA,NA,NA,NA,NA
"502","stim/objects/Instruments/frenchhorn.png",411,34,404,0.9,"stim/14.jpeg",1,4,3,2,"Instruments",2,4,"right","right",0.464999914,1,1,1,0,NA,NA,NA,NA,NA,NA,NA,NA,NA,NA,NA,NA,NA,NA,NA,NA,NA,NA,NA,NA,NA,NA,NA,NA
"477","stim/objects/Instruments/flutetrans.png",412,34,405,0.9,"stim/13.jpeg",1,3,3,2,"Instruments",2,2,"right","right",0.4599998,1,1,1,0,NA,NA,NA,NA,NA,NA,NA,NA,NA,NA,NA,NA,NA,NA,NA,NA,NA,NA,NA,NA,NA,NA,NA,NA
"534","stim/objects/Instruments/grandpiano.png",413,34,406,0.9,"stim/14.jpeg",1,4,3,2,"Instruments",2,2,"right","right",0.708999872,1,1,1,0,NA,NA,NA,NA,NA,NA,NA,NA,NA,NA,NA,NA,NA,NA,NA,NA,NA,NA,NA,NA,NA,NA,NA,NA
"350","stim/objects/HouseObjects/garbagebin.png",414,34,407,0.9,"stim/23.jpeg",2,3,3,2,"HouseObjects",1,3,"left","left",0.463999987,1,1,1,0,NA,NA,NA,NA,NA,NA,NA,NA,NA,NA,NA,NA,NA,NA,NA,NA,NA,NA,NA,NA,NA,NA,NA,NA
"512","stim/objects/Instruments/gong.png",415,34,408,0.9,"stim/12.jpeg",1,2,3,2,"Instruments",2,2,"right","right",0.460999727,1,1,1,0,NA,NA,NA,NA,NA,NA,NA,NA,NA,NA,NA,NA,NA,NA,NA,NA,NA,NA,NA,NA,NA,NA,NA,NA
"343","stim/objects/HouseObjects/garbagebin.png",416,34,409,0.9,"stim/21.jpeg",2,1,3,2,"HouseObjects",1,3,"left","right",0.479999781,0,0,1,0,NA,NA,NA,NA,NA,NA,NA,NA,NA,NA,NA,NA,NA,NA,NA,NA,NA,NA,NA,NA,NA,NA,NA,NA
"258","stim/objects/HouseObjects/blender2.png",417,34,410,0.7,"stim/64.jpeg",6,4,2,1,"HouseObjects",1,2,"left","right",0.497999907,0,0,1,0,6,34,1,0.7,1,"stim/64.jpeg",6,4,"stim/64.jpeg",2,"left",0.655999899,4,4,1.004999876,4,1.062000036,6,1,1,1,0,0,1
"286","stim/objects/HouseObjects/cushion2.png",418,34,411,0.7,"stim/64.jpeg",6,4,2,1,"HouseObjects",1,3,"left","left",0.618999958,1,1,1,0,3,34,1,0.7,1,"stim/64.jpeg",6,4,"stim/64.jpeg",3,"left",1.757999897,4,4,1.566999912,4,1.333999872,3,1,1,1,0,0,1
"535","stim/objects/Instruments/grandpiano.png",419,34,412,0.9,"stim/14.jpeg",1,4,3,2,"Instruments",2,4,"right","right",0.633999825,1,1,1,0,NA,NA,NA,NA,NA,NA,NA,NA,NA,NA,NA,NA,NA,NA,NA,NA,NA,NA,NA,NA,NA,NA,NA,NA
"421","stim/objects/Instruments/bassguitar.png",420,34,413,0.5,"stim/42.jpeg",4,2,1,2,"Instruments",2,4,"right","left",0.687999725,0,0,1,0,NA,NA,NA,NA,NA,NA,NA,NA,NA,NA,NA,NA,NA,NA,NA,NA,NA,NA,NA,NA,NA,NA,NA,NA
"569","stim/objects/Instruments/record.png",421,34,414,0.7,"stim/52.jpeg",5,2,2,1,"Instruments",2,3,"right","right",0.730999947,1,1,1,0,176,34,1,0.7,2,"stim/52.jpeg",5,2,"stim/52.jpeg",3,"left",1.484999895,4,2,0.773000002,2,0.449999809,176,1,1,1,0,0,1
"454","stim/objects/Instruments/electricguitar.png",422,34,415,0.7,"stim/51.jpeg",5,1,2,2,"Instruments",2,1,"right","right",0.700000048,1,1,1,0,NA,NA,NA,NA,NA,NA,NA,NA,NA,NA,NA,NA,NA,NA,NA,NA,NA,NA,NA,NA,NA,NA,NA,NA
"568","stim/objects/Instruments/pipepiano2.png",423,34,416,0.1,"stim/23.jpeg",2,3,3,1,"Instruments",2,3,"right","left",0.633999825,0,0,1,0,170,34,1,0.1,2,"stim/23.jpeg",2,3,"stim/23.jpeg",3,"right",0.871999979,2,2,0.618999958,2,0.667999983,170,0,0,NA,0,NA,1
"483","stim/objects/Instruments/flutetrans.png",424,34,417,0.9,"stim/14.jpeg",1,4,3,2,"Instruments",2,1,"right","right",0.740999937,1,1,1,0,NA,NA,NA,NA,NA,NA,NA,NA,NA,NA,NA,NA,NA,NA,NA,NA,NA,NA,NA,NA,NA,NA,NA,NA
"541","stim/objects/Instruments/guitarcase.png",425,34,418,0.5,"stim/32.jpeg",3,2,1,1,"Instruments",2,2,"right","right",0.809999943,1,1,1,0,24,34,1,0.5,1,"stim/32.jpeg",3,2,"stim/32.jpeg",2,"right",0.85800004,1,2,0.852999926,2,0.796999931,24,0,1,NA,1,NA,1
"369","stim/objects/HouseObjects/glass.png",426,34,419,0.9,"stim/23.jpeg",2,3,3,2,"HouseObjects",1,1,"left","left",0.545000076,1,1,1,0,NA,NA,NA,NA,NA,NA,NA,NA,NA,NA,NA,NA,NA,NA,NA,NA,NA,NA,NA,NA,NA,NA,NA,NA
"306","stim/objects/HouseObjects/doormat.png",427,34,420,0.9,"stim/24.jpeg",2,4,3,2,"HouseObjects",1,4,"left","left",0.57799983,1,1,1,0,NA,NA,NA,NA,NA,NA,NA,NA,NA,NA,NA,NA,NA,NA,NA,NA,NA,NA,NA,NA,NA,NA,NA,NA
"428","stim/objects/Instruments/chime.png",428,34,421,0.5,"stim/44.jpeg",4,4,1,2,"Instruments",2,1,"right","",NA,0,0,1,0,NA,NA,NA,NA,NA,NA,NA,NA,NA,NA,NA,NA,NA,NA,NA,NA,NA,NA,NA,NA,NA,NA,NA,NA
"285","stim/objects/HouseObjects/cushion.png",429,34,422,0.7,"stim/64.jpeg",6,4,2,2,"HouseObjects",1,3,"left","",NA,0,0,1,0,NA,NA,NA,NA,NA,NA,NA,NA,NA,NA,NA,NA,NA,NA,NA,NA,NA,NA,NA,NA,NA,NA,NA,NA
"262","stim/objects/HouseObjects/broom.png",430,34,423,0.5,"stim/42.jpeg",4,2,1,2,"HouseObjects",1,1,"left","right",0.695999861,0,0,1,0,NA,NA,NA,NA,NA,NA,NA,NA,NA,NA,NA,NA,NA,NA,NA,NA,NA,NA,NA,NA,NA,NA,NA,NA
"304","stim/objects/HouseObjects/doormat.png",431,34,424,0.9,"stim/21.jpeg",2,1,3,2,"HouseObjects",1,3,"left","left",0.648999929,1,1,1,0,NA,NA,NA,NA,NA,NA,NA,NA,NA,NA,NA,NA,NA,NA,NA,NA,NA,NA,NA,NA,NA,NA,NA,NA
"552","stim/objects/Instruments/laud2.png",432,34,425,0.1,"stim/23.jpeg",2,3,3,1,"Instruments",2,4,"right","left",0.553999901,0,0,1,0,172,34,1,0.1,2,"stim/23.jpeg",2,3,"stim/23.jpeg",4,"left",1.183999777,3,2,0.596999884,2,0.430999994,172,1,0,0,0,0,1
"289","stim/objects/HouseObjects/dishsoap.png",433,34,426,0.7,"stim/62.jpeg",6,2,2,2,"HouseObjects",1,1,"left","right",0.585999966,0,0,1,0,NA,NA,NA,NA,NA,NA,NA,NA,NA,NA,NA,NA,NA,NA,NA,NA,NA,NA,NA,NA,NA,NA,NA,NA
"266","stim/objects/HouseObjects/bucket.png",434,34,427,0.5,"stim/43.jpeg",4,3,1,2,"HouseObjects",1,3,"left","left",0.671999931,1,1,1,0,NA,NA,NA,NA,NA,NA,NA,NA,NA,NA,NA,NA,NA,NA,NA,NA,NA,NA,NA,NA,NA,NA,NA,NA
"408","stim/objects/Instruments/accordion2.png",435,34,428,0.7,"stim/53.jpeg",5,3,2,1,"Instruments",2,4,"right","right",0.592999935,1,1,1,0,137,34,1,0.7,2,"stim/53.jpeg",5,3,"stim/53.jpeg",4,"right",0.717999935,4,3,1.373999834,3,0.480000019,137,0,1,NA,0,NA,1
"410","stim/objects/Instruments/acousticguitar.png",436,34,429,0.5,"stim/32.jpeg",3,2,1,2,"Instruments",2,3,"right","right",0.529999733,1,1,1,0,NA,NA,NA,NA,NA,NA,NA,NA,NA,NA,NA,NA,NA,NA,NA,NA,NA,NA,NA,NA,NA,NA,NA,NA
"386","stim/objects/HouseObjects/ironingboard.png",437,34,430,0.5,"stim/41.jpeg",4,1,1,1,"HouseObjects",1,3,"left","left",0.570999861,1,1,1,0,187,34,1,0.5,2,"stim/41.jpeg",4,1,"stim/41.jpeg",3,"left",1.212999821,2,3,3.131999731,3,0.756999969,187,1,0,0,1,1,1
"537","stim/objects/Instruments/grandpiano.png",438,34,431,0.9,"stim/12.jpeg",1,2,3,2,"Instruments",2,3,"right","right",0.503999949,1,1,1,0,NA,NA,NA,NA,NA,NA,NA,NA,NA,NA,NA,NA,NA,NA,NA,NA,NA,NA,NA,NA,NA,NA,NA,NA
"405","stim/objects/HouseObjects/rubbergloves2.png",439,34,432,0.9,"stim/22.jpeg",2,2,3,1,"HouseObjects",1,4,"left","left",0.570999861,1,1,1,0,23,34,1,0.9,1,"stim/22.jpeg",2,2,"stim/22.jpeg",4,"right",0.88499999,2,2,0.773000002,2,0.625,23,0,1,NA,0,NA,1
"567","stim/objects/Instruments/pipepiano.png",440,34,433,0.7,"stim/51.jpeg",5,1,2,1,"Instruments",2,4,"right","right",0.503000021,1,1,1,0,121,34,1,0.7,2,"stim/51.jpeg",5,1,"stim/51.jpeg",4,"left",1.024999857,4,2,2.231999874,1,2.411999941,121,1,0,0,0,0,1
"348","stim/objects/HouseObjects/garbagebin.png",441,34,434,0.9,"stim/22.jpeg",2,2,3,2,"HouseObjects",1,2,"left","left",0.619999886,1,1,1,0,NA,NA,NA,NA,NA,NA,NA,NA,NA,NA,NA,NA,NA,NA,NA,NA,NA,NA,NA,NA,NA,NA,NA,NA
"542","stim/objects/Instruments/guitarcase2.png",442,34,435,0.9,"stim/14.jpeg",1,4,3,1,"Instruments",2,4,"right","right",0.605999708,1,1,1,0,167,34,1,0.9,2,"stim/14.jpeg",1,4,"stim/14.jpeg",4,"right",0.792000055,4,3,0.503000021,3,0.40199995,167,0,0,NA,0,NA,1
"319","stim/objects/HouseObjects/dustpan.png",443,34,436,0.9,"stim/21.jpeg",2,1,3,2,"HouseObjects",1,3,"left","left",0.490999937,1,1,1,0,NA,NA,NA,NA,NA,NA,NA,NA,NA,NA,NA,NA,NA,NA,NA,NA,NA,NA,NA,NA,NA,NA,NA,NA
"564","stim/objects/Instruments/oboe2.png",444,34,437,0.1,"stim/21.jpeg",2,1,3,1,"Instruments",2,4,"right","left",0.548999786,0,0,1,0,76,34,1,0.1,2,"stim/21.jpeg",2,1,"stim/21.jpeg",4,"left",0.959000111,4,2,2.768999815,3,3.384000063,76,1,0,0,0,0,1
"338","stim/objects/HouseObjects/flyswatter.png",445,34,438,0.9,"stim/22.jpeg",2,2,3,2,"HouseObjects",1,3,"left","left",0.579999924,1,1,1,0,NA,NA,NA,NA,NA,NA,NA,NA,NA,NA,NA,NA,NA,NA,NA,NA,NA,NA,NA,NA,NA,NA,NA,NA
"472","stim/objects/Instruments/flute2.png",446,34,439,0.9,"stim/13.jpeg",1,3,3,1,"Instruments",2,3,"right","right",0.573999882,1,1,1,0,168,34,1,0.9,2,"stim/13.jpeg",1,3,"stim/13.jpeg",3,"right",1.144999981,2,3,0.780999899,3,3.154999971,168,0,1,NA,1,NA,1
"413","stim/objects/Instruments/balalaika.png",447,34,440,0.5,"stim/32.jpeg",3,2,1,2,"Instruments",2,1,"right","right",0.447999954,1,1,1,0,NA,NA,NA,NA,NA,NA,NA,NA,NA,NA,NA,NA,NA,NA,NA,NA,NA,NA,NA,NA,NA,NA,NA,NA
"536","stim/objects/Instruments/grandpiano.png",448,34,441,0.9,"stim/11.jpeg",1,1,3,2,"Instruments",2,3,"right","right",0.637999773,1,1,1,0,NA,NA,NA,NA,NA,NA,NA,NA,NA,NA,NA,NA,NA,NA,NA,NA,NA,NA,NA,NA,NA,NA,NA,NA
"330","stim/objects/HouseObjects/flyswatter.png",449,34,442,0.9,"stim/23.jpeg",2,3,3,2,"HouseObjects",1,4,"left","left",0.65899992,1,1,1,0,NA,NA,NA,NA,NA,NA,NA,NA,NA,NA,NA,NA,NA,NA,NA,NA,NA,NA,NA,NA,NA,NA,NA,NA
"558","stim/objects/Instruments/metronome2.png",450,34,443,0.1,"stim/22.jpeg",2,2,3,1,"Instruments",2,3,"right","left",0.511999846,0,0,1,0,158,34,1,0.1,2,"stim/22.jpeg",2,2,"stim/22.jpeg",3,"right",0.814999819,4,2,0.575000048,2,0.332999945,158,0,1,NA,0,NA,1
"382","stim/objects/HouseObjects/handvacuum.png",451,34,444,0.5,"stim/32.jpeg",3,2,1,1,"HouseObjects",1,2,"left","right",0.655999899,0,0,1,0,65,34,1,0.5,1,"stim/32.jpeg",3,2,"stim/32.jpeg",2,"left",1.017999887,3,1,1.400000095,1,0.532999992,65,1,0,0,0,0,1
"275","stim/objects/HouseObjects/clothespin.png",452,34,445,0.7,"stim/63.jpeg",6,3,2,2,"HouseObjects",1,2,"left","left",0.858999968,1,1,1,0,NA,NA,NA,NA,NA,NA,NA,NA,NA,NA,NA,NA,NA,NA,NA,NA,NA,NA,NA,NA,NA,NA,NA,NA
"471","stim/objects/Instruments/flute.png",453,34,446,0.9,"stim/11.jpeg",1,1,3,2,"Instruments",2,4,"right","right",0.518999815,1,1,1,0,NA,NA,NA,NA,NA,NA,NA,NA,NA,NA,NA,NA,NA,NA,NA,NA,NA,NA,NA,NA,NA,NA,NA,NA
"553","stim/objects/Instruments/maraca.png",454,34,447,0.5,"stim/41.jpeg",4,1,1,1,"Instruments",2,3,"right","right",0.802000046,1,1,1,0,50,34,1,0.5,2,"stim/41.jpeg",4,1,"stim/41.jpeg",3,"left",1.844000101,3,4,1.742999792,3,1.634000063,50,1,0,0,1,1,1
"320","stim/objects/HouseObjects/dustpan.png",455,34,448,0.9,"stim/22.jpeg",2,2,3,2,"HouseObjects",1,1,"left","left",0.540999889,1,1,1,0,NA,NA,NA,NA,NA,NA,NA,NA,NA,NA,NA,NA,NA,NA,NA,NA,NA,NA,NA,NA,NA,NA,NA,NA
"351","stim/objects/HouseObjects/garbagebin.png",456,34,449,0.9,"stim/21.jpeg",2,1,3,2,"HouseObjects",1,3,"left","right",0.468999863,0,0,1,0,NA,NA,NA,NA,NA,NA,NA,NA,NA,NA,NA,NA,NA,NA,NA,NA,NA,NA,NA,NA,NA,NA,NA,NA
"251","stim/objects/HouseObjects/basket.png",457,34,450,0.5,"stim/31.jpeg",3,1,1,2,"HouseObjects",1,3,"left","right",0.796000004,0,0,1,0,NA,NA,NA,NA,NA,NA,NA,NA,NA,NA,NA,NA,NA,NA,NA,NA,NA,NA,NA,NA,NA,NA,NA,NA
"272","stim/objects/HouseObjects/clothesdryingrack.png",458,34,451,0.7,"stim/63.jpeg",6,3,2,2,"HouseObjects",1,2,"left","left",0.798000097,1,1,1,0,NA,NA,NA,NA,NA,NA,NA,NA,NA,NA,NA,NA,NA,NA,NA,NA,NA,NA,NA,NA,NA,NA,NA,NA
"318","stim/objects/HouseObjects/dustpan.png",459,34,452,0.9,"stim/23.jpeg",2,3,3,2,"HouseObjects",1,4,"left","right",0.502999783,0,0,1,0,NA,NA,NA,NA,NA,NA,NA,NA,NA,NA,NA,NA,NA,NA,NA,NA,NA,NA,NA,NA,NA,NA,NA,NA
"298","stim/objects/HouseObjects/doormat.png",460,34,453,0.9,"stim/21.jpeg",2,1,3,2,"HouseObjects",1,3,"left","left",0.523999929,1,1,1,0,NA,NA,NA,NA,NA,NA,NA,NA,NA,NA,NA,NA,NA,NA,NA,NA,NA,NA,NA,NA,NA,NA,NA,NA
"448","stim/objects/Instruments/electricdrumset.png",461,34,454,0.7,"stim/52.jpeg",5,2,2,2,"Instruments",2,3,"right","right",0.753000021,1,1,1,0,NA,NA,NA,NA,NA,NA,NA,NA,NA,NA,NA,NA,NA,NA,NA,NA,NA,NA,NA,NA,NA,NA,NA,NA
"358","stim/objects/HouseObjects/garbagebin2.png",462,34,455,0.1,"stim/14.jpeg",1,4,3,1,"HouseObjects",1,3,"left","right",0.680999994,0,0,1,0,74,34,1,0.1,1,"stim/14.jpeg",1,4,"stim/14.jpeg",3,"left",1.051999807,3,2,1.253999949,1,0.963999987,74,1,0,0,0,0,1
"276","stim/objects/HouseObjects/clothespin.png",463,34,456,0.7,"stim/62.jpeg",6,2,2,2,"HouseObjects",1,2,"left","left",0.592000008,1,1,1,0,NA,NA,NA,NA,NA,NA,NA,NA,NA,NA,NA,NA,NA,NA,NA,NA,NA,NA,NA,NA,NA,NA,NA,NA
"305","stim/objects/HouseObjects/doormat.png",464,34,457,0.9,"stim/23.jpeg",2,3,3,2,"HouseObjects",1,3,"left","left",0.708999872,1,1,1,0,NA,NA,NA,NA,NA,NA,NA,NA,NA,NA,NA,NA,NA,NA,NA,NA,NA,NA,NA,NA,NA,NA,NA,NA
"257","stim/objects/HouseObjects/blender.png",465,34,458,0.5,"stim/44.jpeg",4,4,1,2,"HouseObjects",1,2,"left","",NA,0,0,1,0,NA,NA,NA,NA,NA,NA,NA,NA,NA,NA,NA,NA,NA,NA,NA,NA,NA,NA,NA,NA,NA,NA,NA,NA
"447","stim/objects/Instruments/drums2.png",466,34,459,0.3,"stim/61.jpeg",6,1,2,1,"Instruments",2,3,"right","right",0.789000034,1,1,1,0,75,34,1,0.3,2,"stim/61.jpeg",6,1,"stim/61.jpeg",3,"left",1.506999969,4,2,6.178999901,3,4.377999783,75,1,0,0,1,1,1
"488","stim/objects/Instruments/flutetrans.png",467,34,460,0.9,"stim/12.jpeg",1,2,3,2,"Instruments",2,1,"right","right",0.671999931,1,1,1,0,NA,NA,NA,NA,NA,NA,NA,NA,NA,NA,NA,NA,NA,NA,NA,NA,NA,NA,NA,NA,NA,NA,NA,NA
"280","stim/objects/HouseObjects/coffee.png",468,34,461,0.7,"stim/63.jpeg",6,3,2,2,"HouseObjects",1,1,"left","left",0.74000001,1,1,1,0,NA,NA,NA,NA,NA,NA,NA,NA,NA,NA,NA,NA,NA,NA,NA,NA,NA,NA,NA,NA,NA,NA,NA,NA
