"","obj_file","X.x","participant.x","trialN.x","trial_cond","scn_file.x","scn_cat","scn_inst","scn_condition","fillers","obj_cat","obj_cat_num","quadrant","corr_ans","key_resp_trial.keys","key_resp_trial.rt","trial_acc","trial_acc_manual","group.x","practice","X.y","participant.y","OvsN","PE_level","object_cat","scn_file.y","corr_scn_cat","corr_scn_inst","scn_file.1","corr_loc","key_resp_id.keys","key_resp_id.rt","key_resp_conf.keys","key_resp_assoc.keys","key_resp_assoc.rt","key_resp_loc.keys","key_resp_loc.rt","trialN.y","id_acc","assoc.acc","cond_assoc","loc.acc","cond_loc","group.y"
"38","stim/objects/HouseObjects/dustpan2.png",1,56,1,0.9,"stim/11.jpeg",1,1,3,NA,"HouseObjects",2,2,"right","right",0.739000082,1,1,0,1,NA,NA,NA,NA,NA,NA,NA,NA,NA,NA,NA,NA,NA,NA,NA,NA,NA,NA,NA,NA,NA,NA,NA,NA
"75","stim/objects/HouseObjects/glass.png",2,56,2,0.5,"stim/44.jpeg",4,4,1,NA,"HouseObjects",2,3,"right","left",0.75,0,0,0,1,NA,NA,NA,NA,NA,NA,NA,NA,NA,NA,NA,NA,NA,NA,NA,NA,NA,NA,NA,NA,NA,NA,NA,NA
"39","stim/objects/HouseObjects/dustpan2.png",3,56,3,0.9,"stim/11.jpeg",1,1,3,NA,"HouseObjects",2,1,"right","right",0.585000038,1,1,0,1,NA,NA,NA,NA,NA,NA,NA,NA,NA,NA,NA,NA,NA,NA,NA,NA,NA,NA,NA,NA,NA,NA,NA,NA
"175","stim/objects/Instruments/frenchhorn.png",4,56,4,0.5,"stim/42.jpeg",4,2,1,NA,"Instruments",1,3,"left","left",0.635999918,1,1,0,1,NA,NA,NA,NA,NA,NA,NA,NA,NA,NA,NA,NA,NA,NA,NA,NA,NA,NA,NA,NA,NA,NA,NA,NA
"14","stim/objects/HouseObjects/cushion2.png",5,56,5,0.3,"stim/62.jpeg",6,2,2,NA,"HouseObjects",2,1,"right","left",0.829999924,0,0,0,1,NA,NA,NA,NA,NA,NA,NA,NA,NA,NA,NA,NA,NA,NA,NA,NA,NA,NA,NA,NA,NA,NA,NA,NA
"205","stim/objects/Instruments/harmonica.png",6,56,6,0.3,"stim/52.jpeg",5,2,2,NA,"Instruments",1,2,"left","right",0.537999868,0,0,0,1,NA,NA,NA,NA,NA,NA,NA,NA,NA,NA,NA,NA,NA,NA,NA,NA,NA,NA,NA,NA,NA,NA,NA,NA
"47","stim/objects/HouseObjects/flyswatter.png",7,56,7,0.5,"stim/42.jpeg",4,2,1,NA,"HouseObjects",2,2,"right","left",0.642999887,0,0,0,1,NA,NA,NA,NA,NA,NA,NA,NA,NA,NA,NA,NA,NA,NA,NA,NA,NA,NA,NA,NA,NA,NA,NA,NA
"133","stim/objects/Instruments/electricdrumset.png",8,56,8,0.5,"stim/32.jpeg",3,2,1,NA,"Instruments",1,4,"left","right",0.373999834,0,0,0,1,NA,NA,NA,NA,NA,NA,NA,NA,NA,NA,NA,NA,NA,NA,NA,NA,NA,NA,NA,NA,NA,NA,NA,NA
"150","stim/objects/Instruments/electricguitar2.png",9,56,9,0.7,"stim/63.jpeg",6,3,2,NA,"Instruments",1,4,"left","right",0.674999714,0,0,0,1,NA,NA,NA,NA,NA,NA,NA,NA,NA,NA,NA,NA,NA,NA,NA,NA,NA,NA,NA,NA,NA,NA,NA,NA
"1","stim/objects/HouseObjects/coffee.png",10,56,10,0.5,"stim/31.jpeg",3,1,1,NA,"HouseObjects",2,4,"right","right",0.481999874,1,1,0,1,NA,NA,NA,NA,NA,NA,NA,NA,NA,NA,NA,NA,NA,NA,NA,NA,NA,NA,NA,NA,NA,NA,NA,NA
"97","stim/objects/HouseObjects/hairdryer.png",11,56,11,0.7,"stim/52.jpeg",5,2,2,NA,"HouseObjects",2,2,"right","left",0.524999857,0,0,0,1,NA,NA,NA,NA,NA,NA,NA,NA,NA,NA,NA,NA,NA,NA,NA,NA,NA,NA,NA,NA,NA,NA,NA,NA
"113","stim/objects/HouseObjects/handvacuum.png",12,56,12,0.7,"stim/54.jpeg",5,4,2,NA,"HouseObjects",2,1,"right","right",0.519999743,1,1,0,1,NA,NA,NA,NA,NA,NA,NA,NA,NA,NA,NA,NA,NA,NA,NA,NA,NA,NA,NA,NA,NA,NA,NA,NA
"145","stim/objects/Instruments/electricguitar.png",13,56,13,0.5,"stim/33.jpeg",3,3,1,NA,"Instruments",1,3,"left","right",0.544999838,0,0,0,1,NA,NA,NA,NA,NA,NA,NA,NA,NA,NA,NA,NA,NA,NA,NA,NA,NA,NA,NA,NA,NA,NA,NA,NA
"15","stim/objects/HouseObjects/cushion2.png",14,56,14,0.3,"stim/62.jpeg",6,2,2,NA,"HouseObjects",2,2,"right","left",0.58100009,0,0,0,1,NA,NA,NA,NA,NA,NA,NA,NA,NA,NA,NA,NA,NA,NA,NA,NA,NA,NA,NA,NA,NA,NA,NA,NA
"48","stim/objects/HouseObjects/flyswatter.png",15,56,15,0.5,"stim/42.jpeg",4,2,1,NA,"HouseObjects",2,4,"right","right",0.395999908,1,1,0,1,NA,NA,NA,NA,NA,NA,NA,NA,NA,NA,NA,NA,NA,NA,NA,NA,NA,NA,NA,NA,NA,NA,NA,NA
"232","stim/objects/Instruments/hihat2.png",16,56,16,0.9,"stim/24.jpeg",2,4,3,NA,"Instruments",1,4,"left","right",0.700999975,0,0,0,1,NA,NA,NA,NA,NA,NA,NA,NA,NA,NA,NA,NA,NA,NA,NA,NA,NA,NA,NA,NA,NA,NA,NA,NA
"52","stim/objects/HouseObjects/flyswatter2.png",17,56,17,0.9,"stim/12.jpeg",1,2,3,NA,"HouseObjects",2,3,"right","",NA,0,0,0,1,NA,NA,NA,NA,NA,NA,NA,NA,NA,NA,NA,NA,NA,NA,NA,NA,NA,NA,NA,NA,NA,NA,NA,NA
"208","stim/objects/Instruments/harmonica2.png",18,56,18,0.9,"stim/22.jpeg",2,2,3,NA,"Instruments",1,3,"left","left",0.674000025,1,1,0,1,NA,NA,NA,NA,NA,NA,NA,NA,NA,NA,NA,NA,NA,NA,NA,NA,NA,NA,NA,NA,NA,NA,NA,NA
"169","stim/objects/Instruments/flutetrans.png",19,56,19,0.5,"stim/41.jpeg",4,1,1,NA,"Instruments",1,4,"left","right",0.489000082,0,0,0,1,NA,NA,NA,NA,NA,NA,NA,NA,NA,NA,NA,NA,NA,NA,NA,NA,NA,NA,NA,NA,NA,NA,NA,NA
"220","stim/objects/Instruments/harp2.png",20,56,20,0.9,"stim/23.jpeg",2,3,3,NA,"Instruments",1,1,"left","left",0.623999834,1,1,0,1,NA,NA,NA,NA,NA,NA,NA,NA,NA,NA,NA,NA,NA,NA,NA,NA,NA,NA,NA,NA,NA,NA,NA,NA
"89","stim/objects/HouseObjects/glassmop.png",21,56,21,0.7,"stim/51.jpeg",5,1,2,NA,"HouseObjects",2,4,"right","right",0.542999983,1,1,0,1,NA,NA,NA,NA,NA,NA,NA,NA,NA,NA,NA,NA,NA,NA,NA,NA,NA,NA,NA,NA,NA,NA,NA,NA
"66","stim/objects/HouseObjects/garbagebin2.png",22,56,22,0.9,"stim/13.jpeg",1,3,3,NA,"HouseObjects",2,3,"right","",NA,0,0,0,1,NA,NA,NA,NA,NA,NA,NA,NA,NA,NA,NA,NA,NA,NA,NA,NA,NA,NA,NA,NA,NA,NA,NA,NA
"98","stim/objects/HouseObjects/hairdryer.png",23,56,23,0.7,"stim/52.jpeg",5,2,2,NA,"HouseObjects",2,3,"right","right",0.444999933,1,1,0,1,NA,NA,NA,NA,NA,NA,NA,NA,NA,NA,NA,NA,NA,NA,NA,NA,NA,NA,NA,NA,NA,NA,NA,NA
"114","stim/objects/HouseObjects/handvacuum.png",24,56,24,0.7,"stim/54.jpeg",5,4,2,NA,"HouseObjects",2,4,"right","right",0.466999769,1,1,0,1,NA,NA,NA,NA,NA,NA,NA,NA,NA,NA,NA,NA,NA,NA,NA,NA,NA,NA,NA,NA,NA,NA,NA,NA
"229","stim/objects/Instruments/hihat.png",25,56,25,0.3,"stim/54.jpeg",5,4,2,NA,"Instruments",1,1,"left","right",0.506999969,0,0,0,1,NA,NA,NA,NA,NA,NA,NA,NA,NA,NA,NA,NA,NA,NA,NA,NA,NA,NA,NA,NA,NA,NA,NA,NA
"105","stim/objects/HouseObjects/handbrush.png",26,56,26,0.7,"stim/53.jpeg",5,3,2,NA,"HouseObjects",2,2,"right","right",0.581999779,1,1,0,1,NA,NA,NA,NA,NA,NA,NA,NA,NA,NA,NA,NA,NA,NA,NA,NA,NA,NA,NA,NA,NA,NA,NA,NA
"146","stim/objects/Instruments/electricguitar.png",27,56,27,0.5,"stim/33.jpeg",3,3,1,NA,"Instruments",1,4,"left","right",0.439999819,0,0,0,1,NA,NA,NA,NA,NA,NA,NA,NA,NA,NA,NA,NA,NA,NA,NA,NA,NA,NA,NA,NA,NA,NA,NA,NA
"209","stim/objects/Instruments/harmonica2.png",28,56,28,0.9,"stim/22.jpeg",2,2,3,NA,"Instruments",1,2,"left","left",0.519999981,1,1,0,1,NA,NA,NA,NA,NA,NA,NA,NA,NA,NA,NA,NA,NA,NA,NA,NA,NA,NA,NA,NA,NA,NA,NA,NA
"187","stim/objects/Instruments/grandpiano.png",29,56,29,0.5,"stim/44.jpeg",4,4,1,NA,"Instruments",1,2,"left","left",0.713999987,1,1,0,1,NA,NA,NA,NA,NA,NA,NA,NA,NA,NA,NA,NA,NA,NA,NA,NA,NA,NA,NA,NA,NA,NA,NA,NA
"61","stim/objects/HouseObjects/garbagebin.png",30,56,30,0.5,"stim/43.jpeg",4,3,1,NA,"HouseObjects",2,4,"right","",NA,0,0,0,1,NA,NA,NA,NA,NA,NA,NA,NA,NA,NA,NA,NA,NA,NA,NA,NA,NA,NA,NA,NA,NA,NA,NA,NA
"181","stim/objects/Instruments/gong.png",31,56,31,0.5,"stim/43.jpeg",4,3,1,NA,"Instruments",1,2,"left","left",0.612999916,1,1,0,1,NA,NA,NA,NA,NA,NA,NA,NA,NA,NA,NA,NA,NA,NA,NA,NA,NA,NA,NA,NA,NA,NA,NA,NA
"196","stim/objects/Instruments/guitarcase2.png",32,56,32,0.9,"stim/21.jpeg",2,1,3,NA,"Instruments",1,1,"left","left",0.734999895,1,1,0,1,NA,NA,NA,NA,NA,NA,NA,NA,NA,NA,NA,NA,NA,NA,NA,NA,NA,NA,NA,NA,NA,NA,NA,NA
"233","stim/objects/Instruments/hihat2.png",33,56,33,0.9,"stim/24.jpeg",2,4,3,NA,"Instruments",1,3,"left","left",0.721999884,1,1,0,1,NA,NA,NA,NA,NA,NA,NA,NA,NA,NA,NA,NA,NA,NA,NA,NA,NA,NA,NA,NA,NA,NA,NA,NA
"25","stim/objects/HouseObjects/doormat.png",34,56,34,0.5,"stim/34.jpeg",3,4,1,NA,"HouseObjects",2,1,"right","right",0.498999834,1,1,0,1,NA,NA,NA,NA,NA,NA,NA,NA,NA,NA,NA,NA,NA,NA,NA,NA,NA,NA,NA,NA,NA,NA,NA,NA
"221","stim/objects/Instruments/harp2.png",35,56,35,0.9,"stim/23.jpeg",2,3,3,NA,"Instruments",1,4,"left","left",0.59100008,1,1,0,1,NA,NA,NA,NA,NA,NA,NA,NA,NA,NA,NA,NA,NA,NA,NA,NA,NA,NA,NA,NA,NA,NA,NA,NA
"121","stim/objects/Instruments/drums.png",36,56,36,0.5,"stim/31.jpeg",3,1,1,NA,"Instruments",1,1,"left","right",0.461999893,0,0,0,1,NA,NA,NA,NA,NA,NA,NA,NA,NA,NA,NA,NA,NA,NA,NA,NA,NA,NA,NA,NA,NA,NA,NA,NA
"49","stim/objects/HouseObjects/flyswatter.png",37,56,37,0.5,"stim/42.jpeg",4,2,1,NA,"HouseObjects",2,3,"right","left",0.572000027,0,0,0,1,NA,NA,NA,NA,NA,NA,NA,NA,NA,NA,NA,NA,NA,NA,NA,NA,NA,NA,NA,NA,NA,NA,NA,NA
"99","stim/objects/HouseObjects/hairdryer.png",38,56,38,0.7,"stim/52.jpeg",5,2,2,NA,"HouseObjects",2,4,"right","right",0.559999943,1,1,0,1,NA,NA,NA,NA,NA,NA,NA,NA,NA,NA,NA,NA,NA,NA,NA,NA,NA,NA,NA,NA,NA,NA,NA,NA
"76","stim/objects/HouseObjects/glass.png",39,56,39,0.5,"stim/44.jpeg",4,4,1,NA,"HouseObjects",2,2,"right","left",0.637999773,0,0,0,1,NA,NA,NA,NA,NA,NA,NA,NA,NA,NA,NA,NA,NA,NA,NA,NA,NA,NA,NA,NA,NA,NA,NA,NA
"222","stim/objects/Instruments/harp2.png",40,56,40,0.9,"stim/23.jpeg",2,3,3,NA,"Instruments",1,3,"left","left",0.573999882,1,1,0,1,NA,NA,NA,NA,NA,NA,NA,NA,NA,NA,NA,NA,NA,NA,NA,NA,NA,NA,NA,NA,NA,NA,NA,NA
"115","stim/objects/HouseObjects/handvacuum.png",41,56,41,0.7,"stim/54.jpeg",5,4,2,NA,"HouseObjects",2,4,"right","right",0.460999966,1,1,0,1,NA,NA,NA,NA,NA,NA,NA,NA,NA,NA,NA,NA,NA,NA,NA,NA,NA,NA,NA,NA,NA,NA,NA,NA
"67","stim/objects/HouseObjects/garbagebin2.png",42,56,42,0.9,"stim/13.jpeg",1,3,3,NA,"HouseObjects",2,3,"right","right",0.632999897,1,1,0,1,NA,NA,NA,NA,NA,NA,NA,NA,NA,NA,NA,NA,NA,NA,NA,NA,NA,NA,NA,NA,NA,NA,NA,NA
"162","stim/objects/Instruments/flute2.png",43,56,43,0.7,"stim/64.jpeg",6,4,2,NA,"Instruments",1,4,"left","left",0.613999844,1,1,0,1,NA,NA,NA,NA,NA,NA,NA,NA,NA,NA,NA,NA,NA,NA,NA,NA,NA,NA,NA,NA,NA,NA,NA,NA
"62","stim/objects/HouseObjects/garbagebin.png",44,56,44,0.5,"stim/43.jpeg",4,3,1,NA,"HouseObjects",2,1,"right","right",0.493999958,1,1,0,1,NA,NA,NA,NA,NA,NA,NA,NA,NA,NA,NA,NA,NA,NA,NA,NA,NA,NA,NA,NA,NA,NA,NA,NA
"9","stim/objects/HouseObjects/cushion.png",45,56,45,0.5,"stim/32.jpeg",3,2,1,NA,"HouseObjects",2,1,"right","right",0.572000027,1,1,0,1,NA,NA,NA,NA,NA,NA,NA,NA,NA,NA,NA,NA,NA,NA,NA,NA,NA,NA,NA,NA,NA,NA,NA,NA
"90","stim/objects/HouseObjects/glassmop.png",46,56,46,0.7,"stim/51.jpeg",5,1,2,NA,"HouseObjects",2,3,"right","left",0.701999903,0,0,0,1,NA,NA,NA,NA,NA,NA,NA,NA,NA,NA,NA,NA,NA,NA,NA,NA,NA,NA,NA,NA,NA,NA,NA,NA
"40","stim/objects/HouseObjects/dustpan2.png",47,56,47,0.9,"stim/11.jpeg",1,1,3,NA,"HouseObjects",2,3,"right","right",0.496999979,1,1,0,1,NA,NA,NA,NA,NA,NA,NA,NA,NA,NA,NA,NA,NA,NA,NA,NA,NA,NA,NA,NA,NA,NA,NA,NA
"106","stim/objects/HouseObjects/handbrush.png",48,56,48,0.7,"stim/53.jpeg",5,3,2,NA,"HouseObjects",2,3,"right","right",0.482000113,1,1,0,1,NA,NA,NA,NA,NA,NA,NA,NA,NA,NA,NA,NA,NA,NA,NA,NA,NA,NA,NA,NA,NA,NA,NA,NA
"197","stim/objects/Instruments/guitarcase2.png",49,56,49,0.9,"stim/21.jpeg",2,1,3,NA,"Instruments",1,2,"left","left",0.503000021,1,1,0,1,NA,NA,NA,NA,NA,NA,NA,NA,NA,NA,NA,NA,NA,NA,NA,NA,NA,NA,NA,NA,NA,NA,NA,NA
"17","stim/objects/HouseObjects/dishsoap.png",50,56,50,0.5,"stim/33.jpeg",3,3,1,NA,"HouseObjects",2,2,"right","right",0.55099988,1,1,0,1,NA,NA,NA,NA,NA,NA,NA,NA,NA,NA,NA,NA,NA,NA,NA,NA,NA,NA,NA,NA,NA,NA,NA,NA
"182","stim/objects/Instruments/gong.png",51,56,51,0.5,"stim/43.jpeg",4,3,1,NA,"Instruments",1,4,"left","left",0.430999756,1,1,0,1,NA,NA,NA,NA,NA,NA,NA,NA,NA,NA,NA,NA,NA,NA,NA,NA,NA,NA,NA,NA,NA,NA,NA,NA
"116","stim/objects/HouseObjects/handvacuum.png",52,56,52,0.7,"stim/54.jpeg",5,4,2,NA,"HouseObjects",2,1,"right","right",0.457000017,1,1,0,1,NA,NA,NA,NA,NA,NA,NA,NA,NA,NA,NA,NA,NA,NA,NA,NA,NA,NA,NA,NA,NA,NA,NA,NA
"198","stim/objects/Instruments/guitarcase2.png",53,56,53,0.9,"stim/21.jpeg",2,1,3,NA,"Instruments",1,2,"left","left",0.432999849,1,1,0,1,NA,NA,NA,NA,NA,NA,NA,NA,NA,NA,NA,NA,NA,NA,NA,NA,NA,NA,NA,NA,NA,NA,NA,NA
"68","stim/objects/HouseObjects/garbagebin2.png",54,56,54,0.9,"stim/13.jpeg",1,3,3,NA,"HouseObjects",2,1,"right","right",0.361000061,1,1,0,1,NA,NA,NA,NA,NA,NA,NA,NA,NA,NA,NA,NA,NA,NA,NA,NA,NA,NA,NA,NA,NA,NA,NA,NA
"96","stim/objects/HouseObjects/glassmop2.png",55,56,55,0.1,"stim/21.jpeg",2,1,3,NA,"HouseObjects",2,3,"right","left",0.372999907,0,0,0,1,NA,NA,NA,NA,NA,NA,NA,NA,NA,NA,NA,NA,NA,NA,NA,NA,NA,NA,NA,NA,NA,NA,NA,NA
"217","stim/objects/Instruments/harp.png",56,56,56,0.3,"stim/53.jpeg",5,3,2,NA,"Instruments",1,1,"left","left",0.417999983,1,1,0,1,NA,NA,NA,NA,NA,NA,NA,NA,NA,NA,NA,NA,NA,NA,NA,NA,NA,NA,NA,NA,NA,NA,NA,NA
"176","stim/objects/Instruments/frenchhorn.png",57,56,57,0.5,"stim/42.jpeg",4,2,1,NA,"Instruments",1,4,"left","right",0.339999914,0,0,0,1,NA,NA,NA,NA,NA,NA,NA,NA,NA,NA,NA,NA,NA,NA,NA,NA,NA,NA,NA,NA,NA,NA,NA,NA
"50","stim/objects/HouseObjects/flyswatter.png",58,56,58,0.5,"stim/42.jpeg",4,2,1,NA,"HouseObjects",2,2,"right","left",0.496999741,0,0,0,1,NA,NA,NA,NA,NA,NA,NA,NA,NA,NA,NA,NA,NA,NA,NA,NA,NA,NA,NA,NA,NA,NA,NA,NA
"170","stim/objects/Instruments/flutetrans.png",59,56,59,0.5,"stim/41.jpeg",4,1,1,NA,"Instruments",1,1,"left","right",0.437000036,0,0,0,1,NA,NA,NA,NA,NA,NA,NA,NA,NA,NA,NA,NA,NA,NA,NA,NA,NA,NA,NA,NA,NA,NA,NA,NA
"33","stim/objects/HouseObjects/dustpan.png",60,56,60,0.5,"stim/41.jpeg",4,1,1,NA,"HouseObjects",2,4,"right","left",0.446999788,0,0,0,1,NA,NA,NA,NA,NA,NA,NA,NA,NA,NA,NA,NA,NA,NA,NA,NA,NA,NA,NA,NA,NA,NA,NA,NA
"126","stim/objects/Instruments/drums2.png",61,56,61,0.7,"stim/61.jpeg",6,1,2,NA,"Instruments",1,2,"left","left",0.628999949,1,1,0,1,NA,NA,NA,NA,NA,NA,NA,NA,NA,NA,NA,NA,NA,NA,NA,NA,NA,NA,NA,NA,NA,NA,NA,NA
"171","stim/objects/Instruments/flutetrans.png",62,56,62,0.5,"stim/41.jpeg",4,1,1,NA,"Instruments",1,2,"left","left",0.530999899,1,1,0,1,NA,NA,NA,NA,NA,NA,NA,NA,NA,NA,NA,NA,NA,NA,NA,NA,NA,NA,NA,NA,NA,NA,NA,NA
"138","stim/objects/Instruments/electricdrumset2.png",63,56,63,0.7,"stim/62.jpeg",6,2,2,NA,"Instruments",1,3,"left","right",0.611999989,0,0,0,1,NA,NA,NA,NA,NA,NA,NA,NA,NA,NA,NA,NA,NA,NA,NA,NA,NA,NA,NA,NA,NA,NA,NA,NA
"139","stim/objects/Instruments/electricdrumset2.png",64,56,64,0.7,"stim/62.jpeg",6,2,2,NA,"Instruments",1,1,"left","right",0.792999983,0,0,0,1,NA,NA,NA,NA,NA,NA,NA,NA,NA,NA,NA,NA,NA,NA,NA,NA,NA,NA,NA,NA,NA,NA,NA,NA
"2","stim/objects/HouseObjects/coffee.png",65,56,65,0.5,"stim/31.jpeg",3,1,1,NA,"HouseObjects",2,1,"right","right",0.570999861,1,1,0,1,NA,NA,NA,NA,NA,NA,NA,NA,NA,NA,NA,NA,NA,NA,NA,NA,NA,NA,NA,NA,NA,NA,NA,NA
"100","stim/objects/HouseObjects/hairdryer.png",66,56,66,0.7,"stim/52.jpeg",5,2,2,NA,"HouseObjects",2,3,"right","left",0.45299983,0,0,0,1,NA,NA,NA,NA,NA,NA,NA,NA,NA,NA,NA,NA,NA,NA,NA,NA,NA,NA,NA,NA,NA,NA,NA,NA
"234","stim/objects/Instruments/hihat2.png",67,56,67,0.9,"stim/24.jpeg",2,4,3,NA,"Instruments",1,1,"left","left",0.713999987,1,1,0,1,NA,NA,NA,NA,NA,NA,NA,NA,NA,NA,NA,NA,NA,NA,NA,NA,NA,NA,NA,NA,NA,NA,NA,NA
"210","stim/objects/Instruments/harmonica2.png",68,56,68,0.9,"stim/22.jpeg",2,2,3,NA,"Instruments",1,4,"left","left",0.5849998,1,1,0,1,NA,NA,NA,NA,NA,NA,NA,NA,NA,NA,NA,NA,NA,NA,NA,NA,NA,NA,NA,NA,NA,NA,NA,NA
"211","stim/objects/Instruments/harmonica2.png",69,56,69,0.9,"stim/22.jpeg",2,2,3,NA,"Instruments",1,3,"left","left",0.56799984,1,1,0,1,NA,NA,NA,NA,NA,NA,NA,NA,NA,NA,NA,NA,NA,NA,NA,NA,NA,NA,NA,NA,NA,NA,NA,NA
"223","stim/objects/Instruments/harp2.png",70,56,70,0.9,"stim/23.jpeg",2,3,3,NA,"Instruments",1,4,"left","left",0.546999931,1,1,0,1,NA,NA,NA,NA,NA,NA,NA,NA,NA,NA,NA,NA,NA,NA,NA,NA,NA,NA,NA,NA,NA,NA,NA,NA
"53","stim/objects/HouseObjects/flyswatter2.png",71,56,71,0.9,"stim/12.jpeg",1,2,3,NA,"HouseObjects",2,4,"right","right",0.468999863,1,1,0,1,NA,NA,NA,NA,NA,NA,NA,NA,NA,NA,NA,NA,NA,NA,NA,NA,NA,NA,NA,NA,NA,NA,NA,NA
"77","stim/objects/HouseObjects/glass.png",72,56,72,0.5,"stim/44.jpeg",4,4,1,NA,"HouseObjects",2,3,"right","left",0.423999786,0,0,0,1,NA,NA,NA,NA,NA,NA,NA,NA,NA,NA,NA,NA,NA,NA,NA,NA,NA,NA,NA,NA,NA,NA,NA,NA
"80","stim/objects/HouseObjects/glass2.png",73,56,73,0.9,"stim/14.jpeg",1,4,3,NA,"HouseObjects",2,1,"right","left",0.667999983,0,0,0,1,NA,NA,NA,NA,NA,NA,NA,NA,NA,NA,NA,NA,NA,NA,NA,NA,NA,NA,NA,NA,NA,NA,NA,NA
"199","stim/objects/Instruments/guitarcase2.png",74,56,74,0.9,"stim/21.jpeg",2,1,3,NA,"Instruments",1,2,"left","left",0.595999956,1,1,0,1,NA,NA,NA,NA,NA,NA,NA,NA,NA,NA,NA,NA,NA,NA,NA,NA,NA,NA,NA,NA,NA,NA,NA,NA
"6","stim/objects/HouseObjects/coffee2.png",75,56,75,0.3,"stim/61.jpeg",6,1,2,NA,"HouseObjects",2,3,"right","right",0.721999884,1,1,0,1,NA,NA,NA,NA,NA,NA,NA,NA,NA,NA,NA,NA,NA,NA,NA,NA,NA,NA,NA,NA,NA,NA,NA,NA
"117","stim/objects/HouseObjects/handvacuum.png",76,56,76,0.7,"stim/54.jpeg",5,4,2,NA,"HouseObjects",2,3,"right","right",0.601000071,1,1,0,1,NA,NA,NA,NA,NA,NA,NA,NA,NA,NA,NA,NA,NA,NA,NA,NA,NA,NA,NA,NA,NA,NA,NA,NA
"26","stim/objects/HouseObjects/doormat.png",77,56,77,0.5,"stim/34.jpeg",3,4,1,NA,"HouseObjects",2,3,"right","left",0.850999832,0,0,0,1,NA,NA,NA,NA,NA,NA,NA,NA,NA,NA,NA,NA,NA,NA,NA,NA,NA,NA,NA,NA,NA,NA,NA,NA
"34","stim/objects/HouseObjects/dustpan.png",78,56,78,0.5,"stim/41.jpeg",4,1,1,NA,"HouseObjects",2,1,"right","right",0.428999901,1,1,0,1,NA,NA,NA,NA,NA,NA,NA,NA,NA,NA,NA,NA,NA,NA,NA,NA,NA,NA,NA,NA,NA,NA,NA,NA
"16","stim/objects/HouseObjects/cushion2.png",79,56,79,0.3,"stim/62.jpeg",6,2,2,NA,"HouseObjects",2,4,"right","right",0.491999865,1,1,0,1,NA,NA,NA,NA,NA,NA,NA,NA,NA,NA,NA,NA,NA,NA,NA,NA,NA,NA,NA,NA,NA,NA,NA,NA
"157","stim/objects/Instruments/flute.png",80,56,80,0.5,"stim/34.jpeg",3,4,1,NA,"Instruments",1,2,"left","left",0.485000134,1,1,0,1,NA,NA,NA,NA,NA,NA,NA,NA,NA,NA,NA,NA,NA,NA,NA,NA,NA,NA,NA,NA,NA,NA,NA,NA
"122","stim/objects/Instruments/drums.png",81,56,81,0.5,"stim/31.jpeg",3,1,1,NA,"Instruments",1,1,"left","right",0.512000084,0,0,0,1,NA,NA,NA,NA,NA,NA,NA,NA,NA,NA,NA,NA,NA,NA,NA,NA,NA,NA,NA,NA,NA,NA,NA,NA
"163","stim/objects/Instruments/flute2.png",82,56,82,0.7,"stim/64.jpeg",6,4,2,NA,"Instruments",1,2,"left","left",0.602999926,1,1,0,1,NA,NA,NA,NA,NA,NA,NA,NA,NA,NA,NA,NA,NA,NA,NA,NA,NA,NA,NA,NA,NA,NA,NA,NA
"81","stim/objects/HouseObjects/glass2.png",83,56,83,0.9,"stim/14.jpeg",1,4,3,NA,"HouseObjects",2,2,"right","right",0.593999863,1,1,0,1,NA,NA,NA,NA,NA,NA,NA,NA,NA,NA,NA,NA,NA,NA,NA,NA,NA,NA,NA,NA,NA,NA,NA,NA
"107","stim/objects/HouseObjects/handbrush.png",84,56,84,0.7,"stim/53.jpeg",5,3,2,NA,"HouseObjects",2,3,"right","right",0.575000048,1,1,0,1,NA,NA,NA,NA,NA,NA,NA,NA,NA,NA,NA,NA,NA,NA,NA,NA,NA,NA,NA,NA,NA,NA,NA,NA
"127","stim/objects/Instruments/drums2.png",85,56,85,0.7,"stim/61.jpeg",6,1,2,NA,"Instruments",1,1,"left","left",0.554999828,1,1,0,1,NA,NA,NA,NA,NA,NA,NA,NA,NA,NA,NA,NA,NA,NA,NA,NA,NA,NA,NA,NA,NA,NA,NA,NA
"177","stim/objects/Instruments/frenchhorn.png",86,56,86,0.5,"stim/42.jpeg",4,2,1,NA,"Instruments",1,3,"left","right",0.535000086,0,0,0,1,NA,NA,NA,NA,NA,NA,NA,NA,NA,NA,NA,NA,NA,NA,NA,NA,NA,NA,NA,NA,NA,NA,NA,NA
"183","stim/objects/Instruments/gong.png",87,56,87,0.5,"stim/43.jpeg",4,3,1,NA,"Instruments",1,1,"left","right",0.4599998,0,0,0,1,NA,NA,NA,NA,NA,NA,NA,NA,NA,NA,NA,NA,NA,NA,NA,NA,NA,NA,NA,NA,NA,NA,NA,NA
"128","stim/objects/Instruments/drums2.png",88,56,88,0.7,"stim/61.jpeg",6,1,2,NA,"Instruments",1,4,"left","left",0.56799984,1,1,0,1,NA,NA,NA,NA,NA,NA,NA,NA,NA,NA,NA,NA,NA,NA,NA,NA,NA,NA,NA,NA,NA,NA,NA,NA
"140","stim/objects/Instruments/electricdrumset2.png",89,56,89,0.7,"stim/62.jpeg",6,2,2,NA,"Instruments",1,3,"left","left",0.542000055,1,1,0,1,NA,NA,NA,NA,NA,NA,NA,NA,NA,NA,NA,NA,NA,NA,NA,NA,NA,NA,NA,NA,NA,NA,NA,NA
"123","stim/objects/Instruments/drums.png",90,56,90,0.5,"stim/31.jpeg",3,1,1,NA,"Instruments",1,2,"left","right",0.426999807,0,0,0,1,NA,NA,NA,NA,NA,NA,NA,NA,NA,NA,NA,NA,NA,NA,NA,NA,NA,NA,NA,NA,NA,NA,NA,NA
"3","stim/objects/HouseObjects/coffee.png",91,56,91,0.5,"stim/31.jpeg",3,1,1,NA,"HouseObjects",2,2,"right","left",0.480000019,0,0,0,1,NA,NA,NA,NA,NA,NA,NA,NA,NA,NA,NA,NA,NA,NA,NA,NA,NA,NA,NA,NA,NA,NA,NA,NA
"224","stim/objects/Instruments/harp2.png",92,56,92,0.9,"stim/23.jpeg",2,3,3,NA,"Instruments",1,1,"left","left",0.579999924,1,1,0,1,NA,NA,NA,NA,NA,NA,NA,NA,NA,NA,NA,NA,NA,NA,NA,NA,NA,NA,NA,NA,NA,NA,NA,NA
"54","stim/objects/HouseObjects/flyswatter2.png",93,56,93,0.9,"stim/12.jpeg",1,2,3,NA,"HouseObjects",2,1,"right","right",0.595000029,1,1,0,1,NA,NA,NA,NA,NA,NA,NA,NA,NA,NA,NA,NA,NA,NA,NA,NA,NA,NA,NA,NA,NA,NA,NA,NA
"200","stim/objects/Instruments/guitarcase2.png",94,56,94,0.9,"stim/21.jpeg",2,1,3,NA,"Instruments",1,1,"left","left",0.670999765,1,1,0,1,NA,NA,NA,NA,NA,NA,NA,NA,NA,NA,NA,NA,NA,NA,NA,NA,NA,NA,NA,NA,NA,NA,NA,NA
"164","stim/objects/Instruments/flute2.png",95,56,95,0.7,"stim/64.jpeg",6,4,2,NA,"Instruments",1,4,"left","left",0.63499999,1,1,0,1,NA,NA,NA,NA,NA,NA,NA,NA,NA,NA,NA,NA,NA,NA,NA,NA,NA,NA,NA,NA,NA,NA,NA,NA
"235","stim/objects/Instruments/hihat2.png",96,56,96,0.9,"stim/24.jpeg",2,4,3,NA,"Instruments",1,2,"left","left",0.599999905,1,1,0,1,NA,NA,NA,NA,NA,NA,NA,NA,NA,NA,NA,NA,NA,NA,NA,NA,NA,NA,NA,NA,NA,NA,NA,NA
"193","stim/objects/Instruments/guitarcase.png",97,56,97,0.3,"stim/51.jpeg",5,1,2,NA,"Instruments",1,3,"left","right",0.417000055,0,0,0,1,NA,NA,NA,NA,NA,NA,NA,NA,NA,NA,NA,NA,NA,NA,NA,NA,NA,NA,NA,NA,NA,NA,NA,NA
"225","stim/objects/Instruments/harp2.png",98,56,98,0.9,"stim/23.jpeg",2,3,3,NA,"Instruments",1,2,"left","left",0.532999754,1,1,0,1,NA,NA,NA,NA,NA,NA,NA,NA,NA,NA,NA,NA,NA,NA,NA,NA,NA,NA,NA,NA,NA,NA,NA,NA
"51","stim/objects/HouseObjects/flyswatter.png",99,56,99,0.5,"stim/42.jpeg",4,2,1,NA,"HouseObjects",2,2,"right","left",0.621999979,0,0,0,1,NA,NA,NA,NA,NA,NA,NA,NA,NA,NA,NA,NA,NA,NA,NA,NA,NA,NA,NA,NA,NA,NA,NA,NA
"141","stim/objects/Instruments/electricdrumset2.png",100,56,100,0.7,"stim/62.jpeg",6,2,2,NA,"Instruments",1,3,"left","left",0.687999964,1,1,0,1,NA,NA,NA,NA,NA,NA,NA,NA,NA,NA,NA,NA,NA,NA,NA,NA,NA,NA,NA,NA,NA,NA,NA,NA
"142","stim/objects/Instruments/electricdrumset2.png",101,56,101,0.7,"stim/62.jpeg",6,2,2,NA,"Instruments",1,4,"left","right",0.535999775,0,0,0,1,NA,NA,NA,NA,NA,NA,NA,NA,NA,NA,NA,NA,NA,NA,NA,NA,NA,NA,NA,NA,NA,NA,NA,NA
"10","stim/objects/HouseObjects/cushion.png",102,56,102,0.5,"stim/32.jpeg",3,2,1,NA,"HouseObjects",2,3,"right","right",0.652999878,1,1,0,1,NA,NA,NA,NA,NA,NA,NA,NA,NA,NA,NA,NA,NA,NA,NA,NA,NA,NA,NA,NA,NA,NA,NA,NA
"91","stim/objects/HouseObjects/glassmop.png",103,56,103,0.7,"stim/51.jpeg",5,1,2,NA,"HouseObjects",2,4,"right","left",0.70299983,0,0,0,1,NA,NA,NA,NA,NA,NA,NA,NA,NA,NA,NA,NA,NA,NA,NA,NA,NA,NA,NA,NA,NA,NA,NA,NA
"11","stim/objects/HouseObjects/cushion.png",104,56,104,0.5,"stim/32.jpeg",3,2,1,NA,"HouseObjects",2,1,"right","left",0.678999901,0,0,0,1,NA,NA,NA,NA,NA,NA,NA,NA,NA,NA,NA,NA,NA,NA,NA,NA,NA,NA,NA,NA,NA,NA,NA,NA
"151","stim/objects/Instruments/electricguitar2.png",105,56,105,0.7,"stim/63.jpeg",6,3,2,NA,"Instruments",1,3,"left","right",0.563999891,0,0,0,1,NA,NA,NA,NA,NA,NA,NA,NA,NA,NA,NA,NA,NA,NA,NA,NA,NA,NA,NA,NA,NA,NA,NA,NA
"18","stim/objects/HouseObjects/dishsoap.png",106,56,106,0.5,"stim/33.jpeg",3,3,1,NA,"HouseObjects",2,3,"right","right",0.715999842,1,1,0,1,NA,NA,NA,NA,NA,NA,NA,NA,NA,NA,NA,NA,NA,NA,NA,NA,NA,NA,NA,NA,NA,NA,NA,NA
"55","stim/objects/HouseObjects/flyswatter2.png",107,56,107,0.9,"stim/12.jpeg",1,2,3,NA,"HouseObjects",2,4,"right","right",0.723999977,1,1,0,1,NA,NA,NA,NA,NA,NA,NA,NA,NA,NA,NA,NA,NA,NA,NA,NA,NA,NA,NA,NA,NA,NA,NA,NA
"82","stim/objects/HouseObjects/glass2.png",108,56,108,0.9,"stim/14.jpeg",1,4,3,NA,"HouseObjects",2,1,"right","right",0.578999758,1,1,0,1,NA,NA,NA,NA,NA,NA,NA,NA,NA,NA,NA,NA,NA,NA,NA,NA,NA,NA,NA,NA,NA,NA,NA,NA
"108","stim/objects/HouseObjects/handbrush.png",109,56,109,0.7,"stim/53.jpeg",5,3,2,NA,"HouseObjects",2,2,"right","left",0.655999899,0,0,0,1,NA,NA,NA,NA,NA,NA,NA,NA,NA,NA,NA,NA,NA,NA,NA,NA,NA,NA,NA,NA,NA,NA,NA,NA
"186","stim/objects/Instruments/gong2.png",110,56,110,0.1,"stim/13.jpeg",1,3,3,NA,"Instruments",1,2,"left","right",0.462999821,0,0,0,1,NA,NA,NA,NA,NA,NA,NA,NA,NA,NA,NA,NA,NA,NA,NA,NA,NA,NA,NA,NA,NA,NA,NA,NA
"212","stim/objects/Instruments/harmonica2.png",111,56,111,0.9,"stim/22.jpeg",2,2,3,NA,"Instruments",1,4,"left","left",0.617000103,1,1,0,1,NA,NA,NA,NA,NA,NA,NA,NA,NA,NA,NA,NA,NA,NA,NA,NA,NA,NA,NA,NA,NA,NA,NA,NA
"101","stim/objects/HouseObjects/hairdryer.png",112,56,112,0.7,"stim/52.jpeg",5,2,2,NA,"HouseObjects",2,3,"right","right",0.528000116,1,1,0,1,NA,NA,NA,NA,NA,NA,NA,NA,NA,NA,NA,NA,NA,NA,NA,NA,NA,NA,NA,NA,NA,NA,NA,NA
"4","stim/objects/HouseObjects/coffee.png",113,56,113,0.5,"stim/31.jpeg",3,1,1,NA,"HouseObjects",2,3,"right","right",0.680999994,1,1,0,1,NA,NA,NA,NA,NA,NA,NA,NA,NA,NA,NA,NA,NA,NA,NA,NA,NA,NA,NA,NA,NA,NA,NA,NA
"147","stim/objects/Instruments/electricguitar.png",114,56,114,0.5,"stim/33.jpeg",3,3,1,NA,"Instruments",1,1,"left","left",0.618999958,1,1,0,1,NA,NA,NA,NA,NA,NA,NA,NA,NA,NA,NA,NA,NA,NA,NA,NA,NA,NA,NA,NA,NA,NA,NA,NA
"104","stim/objects/HouseObjects/hairdryer2.png",115,56,115,0.1,"stim/22.jpeg",2,2,3,NA,"HouseObjects",2,2,"right","left",0.667999983,0,0,0,1,NA,NA,NA,NA,NA,NA,NA,NA,NA,NA,NA,NA,NA,NA,NA,NA,NA,NA,NA,NA,NA,NA,NA,NA
"22","stim/objects/HouseObjects/dishsoap2.png",116,56,116,0.3,"stim/63.jpeg",6,3,2,NA,"HouseObjects",2,4,"right","left",0.621999979,0,0,0,1,NA,NA,NA,NA,NA,NA,NA,NA,NA,NA,NA,NA,NA,NA,NA,NA,NA,NA,NA,NA,NA,NA,NA,NA
"226","stim/objects/Instruments/harp2.png",117,56,117,0.9,"stim/23.jpeg",2,3,3,NA,"Instruments",1,4,"left","left",0.542000055,1,1,0,1,NA,NA,NA,NA,NA,NA,NA,NA,NA,NA,NA,NA,NA,NA,NA,NA,NA,NA,NA,NA,NA,NA,NA,NA
"23","stim/objects/HouseObjects/dishsoap2.png",118,56,118,0.3,"stim/63.jpeg",6,3,2,NA,"HouseObjects",2,2,"right","left",0.720999956,0,0,0,1,NA,NA,NA,NA,NA,NA,NA,NA,NA,NA,NA,NA,NA,NA,NA,NA,NA,NA,NA,NA,NA,NA,NA,NA
"236","stim/objects/Instruments/hihat2.png",119,56,119,0.9,"stim/24.jpeg",2,4,3,NA,"Instruments",1,1,"left","left",0.616999865,1,1,0,1,NA,NA,NA,NA,NA,NA,NA,NA,NA,NA,NA,NA,NA,NA,NA,NA,NA,NA,NA,NA,NA,NA,NA,NA
"112","stim/objects/HouseObjects/handbrush2.png",120,56,120,0.1,"stim/23.jpeg",2,3,3,NA,"HouseObjects",2,4,"right","right",0.679999828,1,1,0,1,NA,NA,NA,NA,NA,NA,NA,NA,NA,NA,NA,NA,NA,NA,NA,NA,NA,NA,NA,NA,NA,NA,NA,NA
"56","stim/objects/HouseObjects/flyswatter2.png",121,56,121,0.9,"stim/12.jpeg",1,2,3,NA,"HouseObjects",2,1,"right","right",0.790999889,1,1,0,1,NA,NA,NA,NA,NA,NA,NA,NA,NA,NA,NA,NA,NA,NA,NA,NA,NA,NA,NA,NA,NA,NA,NA,NA
"134","stim/objects/Instruments/electricdrumset.png",122,56,122,0.5,"stim/32.jpeg",3,2,1,NA,"Instruments",1,4,"left","left",0.860999823,1,1,0,1,NA,NA,NA,NA,NA,NA,NA,NA,NA,NA,NA,NA,NA,NA,NA,NA,NA,NA,NA,NA,NA,NA,NA,NA
"227","stim/objects/Instruments/harp2.png",123,56,123,0.9,"stim/23.jpeg",2,3,3,NA,"Instruments",1,3,"left","right",0.889999866,0,0,0,1,NA,NA,NA,NA,NA,NA,NA,NA,NA,NA,NA,NA,NA,NA,NA,NA,NA,NA,NA,NA,NA,NA,NA,NA
"63","stim/objects/HouseObjects/garbagebin.png",124,56,124,0.5,"stim/43.jpeg",4,3,1,NA,"HouseObjects",2,3,"right","left",0.825999975,0,0,0,1,NA,NA,NA,NA,NA,NA,NA,NA,NA,NA,NA,NA,NA,NA,NA,NA,NA,NA,NA,NA,NA,NA,NA,NA
"12","stim/objects/HouseObjects/cushion.png",125,56,125,0.5,"stim/32.jpeg",3,2,1,NA,"HouseObjects",2,4,"right","right",0.762000084,1,1,0,1,NA,NA,NA,NA,NA,NA,NA,NA,NA,NA,NA,NA,NA,NA,NA,NA,NA,NA,NA,NA,NA,NA,NA,NA
"109","stim/objects/HouseObjects/handbrush.png",126,56,126,0.7,"stim/53.jpeg",5,3,2,NA,"HouseObjects",2,3,"right","left",0.705999851,0,0,0,1,NA,NA,NA,NA,NA,NA,NA,NA,NA,NA,NA,NA,NA,NA,NA,NA,NA,NA,NA,NA,NA,NA,NA,NA
"213","stim/objects/Instruments/harmonica2.png",127,56,127,0.9,"stim/22.jpeg",2,2,3,NA,"Instruments",1,1,"left","right",0.498999834,0,0,0,1,NA,NA,NA,NA,NA,NA,NA,NA,NA,NA,NA,NA,NA,NA,NA,NA,NA,NA,NA,NA,NA,NA,NA,NA
"214","stim/objects/Instruments/harmonica2.png",128,56,128,0.9,"stim/22.jpeg",2,2,3,NA,"Instruments",1,2,"left","left",0.583999872,1,1,0,1,NA,NA,NA,NA,NA,NA,NA,NA,NA,NA,NA,NA,NA,NA,NA,NA,NA,NA,NA,NA,NA,NA,NA,NA
"172","stim/objects/Instruments/flutetrans.png",129,56,129,0.5,"stim/41.jpeg",4,1,1,NA,"Instruments",1,2,"left","left",0.589999914,1,1,0,1,NA,NA,NA,NA,NA,NA,NA,NA,NA,NA,NA,NA,NA,NA,NA,NA,NA,NA,NA,NA,NA,NA,NA,NA
"188","stim/objects/Instruments/grandpiano.png",130,56,130,0.5,"stim/44.jpeg",4,4,1,NA,"Instruments",1,3,"left","right",0.572000027,0,0,0,1,NA,NA,NA,NA,NA,NA,NA,NA,NA,NA,NA,NA,NA,NA,NA,NA,NA,NA,NA,NA,NA,NA,NA,NA
"178","stim/objects/Instruments/frenchhorn.png",131,56,131,0.5,"stim/42.jpeg",4,2,1,NA,"Instruments",1,2,"left","left",0.523000002,1,1,0,1,NA,NA,NA,NA,NA,NA,NA,NA,NA,NA,NA,NA,NA,NA,NA,NA,NA,NA,NA,NA,NA,NA,NA,NA
"41","stim/objects/HouseObjects/dustpan2.png",132,56,132,0.9,"stim/11.jpeg",1,1,3,NA,"HouseObjects",2,3,"right","right",0.603999853,1,1,0,1,NA,NA,NA,NA,NA,NA,NA,NA,NA,NA,NA,NA,NA,NA,NA,NA,NA,NA,NA,NA,NA,NA,NA,NA
"215","stim/objects/Instruments/harmonica2.png",133,56,133,0.9,"stim/22.jpeg",2,2,3,NA,"Instruments",1,4,"left","left",0.763000011,1,1,0,1,NA,NA,NA,NA,NA,NA,NA,NA,NA,NA,NA,NA,NA,NA,NA,NA,NA,NA,NA,NA,NA,NA,NA,NA
"129","stim/objects/Instruments/drums2.png",134,56,134,0.7,"stim/61.jpeg",6,1,2,NA,"Instruments",1,4,"left","right",0.77699995,0,0,0,1,NA,NA,NA,NA,NA,NA,NA,NA,NA,NA,NA,NA,NA,NA,NA,NA,NA,NA,NA,NA,NA,NA,NA,NA
"165","stim/objects/Instruments/flute2.png",135,56,135,0.7,"stim/64.jpeg",6,4,2,NA,"Instruments",1,3,"left","left",0.369999886,1,1,0,1,NA,NA,NA,NA,NA,NA,NA,NA,NA,NA,NA,NA,NA,NA,NA,NA,NA,NA,NA,NA,NA,NA,NA,NA
"124","stim/objects/Instruments/drums.png",136,56,136,0.5,"stim/31.jpeg",3,1,1,NA,"Instruments",1,2,"left","right",0.721999884,0,0,0,1,NA,NA,NA,NA,NA,NA,NA,NA,NA,NA,NA,NA,NA,NA,NA,NA,NA,NA,NA,NA,NA,NA,NA,NA
"69","stim/objects/HouseObjects/garbagebin2.png",137,56,137,0.9,"stim/13.jpeg",1,3,3,NA,"HouseObjects",2,2,"right","right",0.713999987,1,1,0,1,NA,NA,NA,NA,NA,NA,NA,NA,NA,NA,NA,NA,NA,NA,NA,NA,NA,NA,NA,NA,NA,NA,NA,NA
"92","stim/objects/HouseObjects/glassmop.png",138,56,138,0.7,"stim/51.jpeg",5,1,2,NA,"HouseObjects",2,4,"right","left",0.746999979,0,0,0,1,NA,NA,NA,NA,NA,NA,NA,NA,NA,NA,NA,NA,NA,NA,NA,NA,NA,NA,NA,NA,NA,NA,NA,NA
"5","stim/objects/HouseObjects/coffee.png",139,56,139,0.5,"stim/31.jpeg",3,1,1,NA,"HouseObjects",2,1,"right","right",0.631999969,1,1,0,1,NA,NA,NA,NA,NA,NA,NA,NA,NA,NA,NA,NA,NA,NA,NA,NA,NA,NA,NA,NA,NA,NA,NA,NA
"70","stim/objects/HouseObjects/garbagebin2.png",140,56,140,0.9,"stim/13.jpeg",1,3,3,NA,"HouseObjects",2,2,"right","right",0.659999847,1,1,0,1,NA,NA,NA,NA,NA,NA,NA,NA,NA,NA,NA,NA,NA,NA,NA,NA,NA,NA,NA,NA,NA,NA,NA,NA
"184","stim/objects/Instruments/gong.png",141,56,141,0.5,"stim/43.jpeg",4,3,1,NA,"Instruments",1,4,"left","left",0.558999777,1,1,0,1,NA,NA,NA,NA,NA,NA,NA,NA,NA,NA,NA,NA,NA,NA,NA,NA,NA,NA,NA,NA,NA,NA,NA,NA
"194","stim/objects/Instruments/guitarcase.png",142,56,142,0.3,"stim/51.jpeg",5,1,2,NA,"Instruments",1,1,"left","right",0.507999897,0,0,0,1,NA,NA,NA,NA,NA,NA,NA,NA,NA,NA,NA,NA,NA,NA,NA,NA,NA,NA,NA,NA,NA,NA,NA,NA
"130","stim/objects/Instruments/drums2.png",143,56,143,0.7,"stim/61.jpeg",6,1,2,NA,"Instruments",1,1,"left","left",0.713000059,1,1,0,1,NA,NA,NA,NA,NA,NA,NA,NA,NA,NA,NA,NA,NA,NA,NA,NA,NA,NA,NA,NA,NA,NA,NA,NA
"152","stim/objects/Instruments/electricguitar2.png",144,56,144,0.7,"stim/63.jpeg",6,3,2,NA,"Instruments",1,2,"left","right",0.867999792,0,0,0,1,NA,NA,NA,NA,NA,NA,NA,NA,NA,NA,NA,NA,NA,NA,NA,NA,NA,NA,NA,NA,NA,NA,NA,NA
"13","stim/objects/HouseObjects/cushion.png",145,56,145,0.5,"stim/32.jpeg",3,2,1,NA,"HouseObjects",2,1,"right","left",0.806999922,0,0,0,1,NA,NA,NA,NA,NA,NA,NA,NA,NA,NA,NA,NA,NA,NA,NA,NA,NA,NA,NA,NA,NA,NA,NA,NA
"230","stim/objects/Instruments/hihat.png",146,56,146,0.3,"stim/54.jpeg",5,4,2,NA,"Instruments",1,2,"left","left",0.654999971,1,1,0,1,NA,NA,NA,NA,NA,NA,NA,NA,NA,NA,NA,NA,NA,NA,NA,NA,NA,NA,NA,NA,NA,NA,NA,NA
"83","stim/objects/HouseObjects/glass2.png",147,56,147,0.9,"stim/14.jpeg",1,4,3,NA,"HouseObjects",2,4,"right","right",0.676999807,1,1,0,1,NA,NA,NA,NA,NA,NA,NA,NA,NA,NA,NA,NA,NA,NA,NA,NA,NA,NA,NA,NA,NA,NA,NA,NA
"57","stim/objects/HouseObjects/flyswatter2.png",148,56,148,0.9,"stim/12.jpeg",1,2,3,NA,"HouseObjects",2,2,"right","right",0.65199995,1,1,0,1,NA,NA,NA,NA,NA,NA,NA,NA,NA,NA,NA,NA,NA,NA,NA,NA,NA,NA,NA,NA,NA,NA,NA,NA
"71","stim/objects/HouseObjects/garbagebin2.png",149,56,149,0.9,"stim/13.jpeg",1,3,3,NA,"HouseObjects",2,4,"right","right",0.644000053,1,1,0,1,NA,NA,NA,NA,NA,NA,NA,NA,NA,NA,NA,NA,NA,NA,NA,NA,NA,NA,NA,NA,NA,NA,NA,NA
"135","stim/objects/Instruments/electricdrumset.png",150,56,150,0.5,"stim/32.jpeg",3,2,1,NA,"Instruments",1,4,"left","left",0.657000065,1,1,0,1,NA,NA,NA,NA,NA,NA,NA,NA,NA,NA,NA,NA,NA,NA,NA,NA,NA,NA,NA,NA,NA,NA,NA,NA
"19","stim/objects/HouseObjects/dishsoap.png",151,56,151,0.5,"stim/33.jpeg",3,3,1,NA,"HouseObjects",2,3,"right","right",0.66899991,1,1,0,1,NA,NA,NA,NA,NA,NA,NA,NA,NA,NA,NA,NA,NA,NA,NA,NA,NA,NA,NA,NA,NA,NA,NA,NA
"35","stim/objects/HouseObjects/dustpan.png",152,56,152,0.5,"stim/41.jpeg",4,1,1,NA,"HouseObjects",2,4,"right","left",0.71999979,0,0,0,1,NA,NA,NA,NA,NA,NA,NA,NA,NA,NA,NA,NA,NA,NA,NA,NA,NA,NA,NA,NA,NA,NA,NA,NA
"153","stim/objects/Instruments/electricguitar2.png",153,56,153,0.7,"stim/63.jpeg",6,3,2,NA,"Instruments",1,2,"left","right",0.805999994,0,0,0,1,NA,NA,NA,NA,NA,NA,NA,NA,NA,NA,NA,NA,NA,NA,NA,NA,NA,NA,NA,NA,NA,NA,NA,NA
"201","stim/objects/Instruments/guitarcase2.png",154,56,154,0.9,"stim/21.jpeg",2,1,3,NA,"Instruments",1,4,"left","left",0.683999777,1,1,0,1,NA,NA,NA,NA,NA,NA,NA,NA,NA,NA,NA,NA,NA,NA,NA,NA,NA,NA,NA,NA,NA,NA,NA,NA
"58","stim/objects/HouseObjects/flyswatter2.png",155,56,155,0.9,"stim/12.jpeg",1,2,3,NA,"HouseObjects",2,2,"right","right",0.54399991,1,1,0,1,NA,NA,NA,NA,NA,NA,NA,NA,NA,NA,NA,NA,NA,NA,NA,NA,NA,NA,NA,NA,NA,NA,NA,NA
"148","stim/objects/Instruments/electricguitar.png",156,56,156,0.5,"stim/33.jpeg",3,3,1,NA,"Instruments",1,4,"left","right",0.506999969,0,0,0,1,NA,NA,NA,NA,NA,NA,NA,NA,NA,NA,NA,NA,NA,NA,NA,NA,NA,NA,NA,NA,NA,NA,NA,NA
"237","stim/objects/Instruments/hihat2.png",157,56,157,0.9,"stim/24.jpeg",2,4,3,NA,"Instruments",1,1,"left","left",0.614999771,1,1,0,1,NA,NA,NA,NA,NA,NA,NA,NA,NA,NA,NA,NA,NA,NA,NA,NA,NA,NA,NA,NA,NA,NA,NA,NA
"238","stim/objects/Instruments/hihat2.png",158,56,158,0.9,"stim/24.jpeg",2,4,3,NA,"Instruments",1,3,"left","left",0.449999809,1,1,0,1,NA,NA,NA,NA,NA,NA,NA,NA,NA,NA,NA,NA,NA,NA,NA,NA,NA,NA,NA,NA,NA,NA,NA,NA
"59","stim/objects/HouseObjects/flyswatter2.png",159,56,159,0.9,"stim/12.jpeg",1,2,3,NA,"HouseObjects",2,4,"right","right",0.519999743,1,1,0,1,NA,NA,NA,NA,NA,NA,NA,NA,NA,NA,NA,NA,NA,NA,NA,NA,NA,NA,NA,NA,NA,NA,NA,NA
"93","stim/objects/HouseObjects/glassmop.png",160,56,160,0.7,"stim/51.jpeg",5,1,2,NA,"HouseObjects",2,2,"right","",NA,0,0,0,1,NA,NA,NA,NA,NA,NA,NA,NA,NA,NA,NA,NA,NA,NA,NA,NA,NA,NA,NA,NA,NA,NA,NA,NA
"125","stim/objects/Instruments/drums.png",161,56,161,0.5,"stim/31.jpeg",3,1,1,NA,"Instruments",1,2,"left","right",0.588999748,0,0,0,1,NA,NA,NA,NA,NA,NA,NA,NA,NA,NA,NA,NA,NA,NA,NA,NA,NA,NA,NA,NA,NA,NA,NA,NA
"84","stim/objects/HouseObjects/glass2.png",162,56,162,0.9,"stim/14.jpeg",1,4,3,NA,"HouseObjects",2,3,"right","right",0.585999727,1,1,0,1,NA,NA,NA,NA,NA,NA,NA,NA,NA,NA,NA,NA,NA,NA,NA,NA,NA,NA,NA,NA,NA,NA,NA,NA
"189","stim/objects/Instruments/grandpiano.png",163,56,163,0.5,"stim/44.jpeg",4,4,1,NA,"Instruments",1,2,"left","left",0.556999922,1,1,0,1,NA,NA,NA,NA,NA,NA,NA,NA,NA,NA,NA,NA,NA,NA,NA,NA,NA,NA,NA,NA,NA,NA,NA,NA
"195","stim/objects/Instruments/guitarcase.png",164,56,164,0.3,"stim/51.jpeg",5,1,2,NA,"Instruments",1,1,"left","left",0.76699996,1,1,0,1,NA,NA,NA,NA,NA,NA,NA,NA,NA,NA,NA,NA,NA,NA,NA,NA,NA,NA,NA,NA,NA,NA,NA,NA
"27","stim/objects/HouseObjects/doormat.png",165,56,165,0.5,"stim/34.jpeg",3,4,1,NA,"HouseObjects",2,1,"right","right",0.491999865,1,1,0,1,NA,NA,NA,NA,NA,NA,NA,NA,NA,NA,NA,NA,NA,NA,NA,NA,NA,NA,NA,NA,NA,NA,NA,NA
"206","stim/objects/Instruments/harmonica.png",166,56,166,0.3,"stim/52.jpeg",5,2,2,NA,"Instruments",1,1,"left","right",0.585000038,0,0,0,1,NA,NA,NA,NA,NA,NA,NA,NA,NA,NA,NA,NA,NA,NA,NA,NA,NA,NA,NA,NA,NA,NA,NA,NA
"202","stim/objects/Instruments/guitarcase2.png",167,56,167,0.9,"stim/21.jpeg",2,1,3,NA,"Instruments",1,2,"left","left",0.710999966,1,1,0,1,NA,NA,NA,NA,NA,NA,NA,NA,NA,NA,NA,NA,NA,NA,NA,NA,NA,NA,NA,NA,NA,NA,NA,NA
"78","stim/objects/HouseObjects/glass.png",168,56,168,0.5,"stim/44.jpeg",4,4,1,NA,"HouseObjects",2,4,"right","right",0.764999866,1,1,0,1,NA,NA,NA,NA,NA,NA,NA,NA,NA,NA,NA,NA,NA,NA,NA,NA,NA,NA,NA,NA,NA,NA,NA,NA
"20","stim/objects/HouseObjects/dishsoap.png",169,56,169,0.5,"stim/33.jpeg",3,3,1,NA,"HouseObjects",2,4,"right","right",0.623999834,1,1,0,1,NA,NA,NA,NA,NA,NA,NA,NA,NA,NA,NA,NA,NA,NA,NA,NA,NA,NA,NA,NA,NA,NA,NA,NA
"72","stim/objects/HouseObjects/garbagebin2.png",170,56,170,0.9,"stim/13.jpeg",1,3,3,NA,"HouseObjects",2,3,"right","left",0.531999826,0,0,0,1,NA,NA,NA,NA,NA,NA,NA,NA,NA,NA,NA,NA,NA,NA,NA,NA,NA,NA,NA,NA,NA,NA,NA,NA
"85","stim/objects/HouseObjects/glass2.png",171,56,171,0.9,"stim/14.jpeg",1,4,3,NA,"HouseObjects",2,3,"right","right",0.564999819,1,1,0,1,NA,NA,NA,NA,NA,NA,NA,NA,NA,NA,NA,NA,NA,NA,NA,NA,NA,NA,NA,NA,NA,NA,NA,NA
"166","stim/objects/Instruments/flute2.png",172,56,172,0.7,"stim/64.jpeg",6,4,2,NA,"Instruments",1,4,"left","left",0.695999861,1,1,0,1,NA,NA,NA,NA,NA,NA,NA,NA,NA,NA,NA,NA,NA,NA,NA,NA,NA,NA,NA,NA,NA,NA,NA,NA
"86","stim/objects/HouseObjects/glass2.png",173,56,173,0.9,"stim/14.jpeg",1,4,3,NA,"HouseObjects",2,3,"right","right",0.441999912,1,1,0,1,NA,NA,NA,NA,NA,NA,NA,NA,NA,NA,NA,NA,NA,NA,NA,NA,NA,NA,NA,NA,NA,NA,NA,NA
"231","stim/objects/Instruments/hihat.png",174,56,174,0.3,"stim/54.jpeg",5,4,2,NA,"Instruments",1,2,"left","left",0.689999819,1,1,0,1,NA,NA,NA,NA,NA,NA,NA,NA,NA,NA,NA,NA,NA,NA,NA,NA,NA,NA,NA,NA,NA,NA,NA,NA
"174","stim/objects/Instruments/flutetrans2.png",175,56,175,0.1,"stim/11.jpeg",1,1,3,NA,"Instruments",1,3,"left","right",0.49000001,0,0,0,1,NA,NA,NA,NA,NA,NA,NA,NA,NA,NA,NA,NA,NA,NA,NA,NA,NA,NA,NA,NA,NA,NA,NA,NA
"131","stim/objects/Instruments/drums2.png",176,56,176,0.7,"stim/61.jpeg",6,1,2,NA,"Instruments",1,1,"left","left",0.688999891,1,1,0,1,NA,NA,NA,NA,NA,NA,NA,NA,NA,NA,NA,NA,NA,NA,NA,NA,NA,NA,NA,NA,NA,NA,NA,NA
"7","stim/objects/HouseObjects/coffee2.png",177,56,177,0.3,"stim/61.jpeg",6,1,2,NA,"HouseObjects",2,2,"right","left",0.476999998,0,0,0,1,NA,NA,NA,NA,NA,NA,NA,NA,NA,NA,NA,NA,NA,NA,NA,NA,NA,NA,NA,NA,NA,NA,NA,NA
"110","stim/objects/HouseObjects/handbrush.png",178,56,178,0.7,"stim/53.jpeg",5,3,2,NA,"HouseObjects",2,3,"right","right",0.565000057,1,1,0,1,NA,NA,NA,NA,NA,NA,NA,NA,NA,NA,NA,NA,NA,NA,NA,NA,NA,NA,NA,NA,NA,NA,NA,NA
"239","stim/objects/Instruments/hihat2.png",179,56,179,0.9,"stim/24.jpeg",2,4,3,NA,"Instruments",1,4,"left","left",0.556999922,1,1,0,1,NA,NA,NA,NA,NA,NA,NA,NA,NA,NA,NA,NA,NA,NA,NA,NA,NA,NA,NA,NA,NA,NA,NA,NA
"149","stim/objects/Instruments/electricguitar.png",180,56,180,0.5,"stim/33.jpeg",3,3,1,NA,"Instruments",1,1,"left","right",0.523999929,0,0,0,1,NA,NA,NA,NA,NA,NA,NA,NA,NA,NA,NA,NA,NA,NA,NA,NA,NA,NA,NA,NA,NA,NA,NA,NA
"42","stim/objects/HouseObjects/dustpan2.png",181,56,181,0.9,"stim/11.jpeg",1,1,3,NA,"HouseObjects",2,4,"right","right",0.707000017,1,1,0,1,NA,NA,NA,NA,NA,NA,NA,NA,NA,NA,NA,NA,NA,NA,NA,NA,NA,NA,NA,NA,NA,NA,NA,NA
"94","stim/objects/HouseObjects/glassmop.png",182,56,182,0.7,"stim/51.jpeg",5,1,2,NA,"HouseObjects",2,3,"right","left",0.870999813,0,0,0,1,NA,NA,NA,NA,NA,NA,NA,NA,NA,NA,NA,NA,NA,NA,NA,NA,NA,NA,NA,NA,NA,NA,NA,NA
"167","stim/objects/Instruments/flute2.png",183,56,183,0.7,"stim/64.jpeg",6,4,2,NA,"Instruments",1,1,"left","right",0.548999786,0,0,0,1,NA,NA,NA,NA,NA,NA,NA,NA,NA,NA,NA,NA,NA,NA,NA,NA,NA,NA,NA,NA,NA,NA,NA,NA
"168","stim/objects/Instruments/flute2.png",184,56,184,0.7,"stim/64.jpeg",6,4,2,NA,"Instruments",1,2,"left","right",0.802999973,0,0,0,1,NA,NA,NA,NA,NA,NA,NA,NA,NA,NA,NA,NA,NA,NA,NA,NA,NA,NA,NA,NA,NA,NA,NA,NA
"43","stim/objects/HouseObjects/dustpan2.png",185,56,185,0.9,"stim/11.jpeg",1,1,3,NA,"HouseObjects",2,4,"right","right",0.590999842,1,1,0,1,NA,NA,NA,NA,NA,NA,NA,NA,NA,NA,NA,NA,NA,NA,NA,NA,NA,NA,NA,NA,NA,NA,NA,NA
"136","stim/objects/Instruments/electricdrumset.png",186,56,186,0.5,"stim/32.jpeg",3,2,1,NA,"Instruments",1,3,"left","left",0.576999903,1,1,0,1,NA,NA,NA,NA,NA,NA,NA,NA,NA,NA,NA,NA,NA,NA,NA,NA,NA,NA,NA,NA,NA,NA,NA,NA
"137","stim/objects/Instruments/electricdrumset.png",187,56,187,0.5,"stim/32.jpeg",3,2,1,NA,"Instruments",1,2,"left","left",0.515999794,1,1,0,1,NA,NA,NA,NA,NA,NA,NA,NA,NA,NA,NA,NA,NA,NA,NA,NA,NA,NA,NA,NA,NA,NA,NA,NA
"64","stim/objects/HouseObjects/garbagebin.png",188,56,188,0.5,"stim/43.jpeg",4,3,1,NA,"HouseObjects",2,3,"right","right",0.624000072,1,1,0,1,NA,NA,NA,NA,NA,NA,NA,NA,NA,NA,NA,NA,NA,NA,NA,NA,NA,NA,NA,NA,NA,NA,NA,NA
"60","stim/objects/HouseObjects/flyswatter2.png",189,56,189,0.9,"stim/12.jpeg",1,2,3,NA,"HouseObjects",2,2,"right","right",0.622999907,1,1,0,1,NA,NA,NA,NA,NA,NA,NA,NA,NA,NA,NA,NA,NA,NA,NA,NA,NA,NA,NA,NA,NA,NA,NA,NA
"111","stim/objects/HouseObjects/handbrush.png",190,56,190,0.7,"stim/53.jpeg",5,3,2,NA,"HouseObjects",2,1,"right","right",0.56799984,1,1,0,1,NA,NA,NA,NA,NA,NA,NA,NA,NA,NA,NA,NA,NA,NA,NA,NA,NA,NA,NA,NA,NA,NA,NA,NA
"173","stim/objects/Instruments/flutetrans.png",191,56,191,0.5,"stim/41.jpeg",4,1,1,NA,"Instruments",1,2,"left","left",0.674999952,1,1,0,1,NA,NA,NA,NA,NA,NA,NA,NA,NA,NA,NA,NA,NA,NA,NA,NA,NA,NA,NA,NA,NA,NA,NA,NA
"44","stim/objects/HouseObjects/dustpan2.png",192,56,192,0.9,"stim/11.jpeg",1,1,3,NA,"HouseObjects",2,1,"right","right",0.64199996,1,1,0,1,NA,NA,NA,NA,NA,NA,NA,NA,NA,NA,NA,NA,NA,NA,NA,NA,NA,NA,NA,NA,NA,NA,NA,NA
"102","stim/objects/HouseObjects/hairdryer.png",193,56,193,0.7,"stim/52.jpeg",5,2,2,NA,"HouseObjects",2,1,"right","right",0.671999931,1,1,0,1,NA,NA,NA,NA,NA,NA,NA,NA,NA,NA,NA,NA,NA,NA,NA,NA,NA,NA,NA,NA,NA,NA,NA,NA
"158","stim/objects/Instruments/flute.png",194,56,194,0.5,"stim/34.jpeg",3,4,1,NA,"Instruments",1,1,"left","left",0.664000034,1,1,0,1,NA,NA,NA,NA,NA,NA,NA,NA,NA,NA,NA,NA,NA,NA,NA,NA,NA,NA,NA,NA,NA,NA,NA,NA
"36","stim/objects/HouseObjects/dustpan.png",195,56,195,0.5,"stim/41.jpeg",4,1,1,NA,"HouseObjects",2,4,"right","left",0.739000082,0,0,0,1,NA,NA,NA,NA,NA,NA,NA,NA,NA,NA,NA,NA,NA,NA,NA,NA,NA,NA,NA,NA,NA,NA,NA,NA
"179","stim/objects/Instruments/frenchhorn.png",196,56,196,0.5,"stim/42.jpeg",4,2,1,NA,"Instruments",1,4,"left","right",0.828000069,0,0,0,1,NA,NA,NA,NA,NA,NA,NA,NA,NA,NA,NA,NA,NA,NA,NA,NA,NA,NA,NA,NA,NA,NA,NA,NA
"203","stim/objects/Instruments/guitarcase2.png",197,56,197,0.9,"stim/21.jpeg",2,1,3,NA,"Instruments",1,1,"left","left",0.707999945,1,1,0,1,NA,NA,NA,NA,NA,NA,NA,NA,NA,NA,NA,NA,NA,NA,NA,NA,NA,NA,NA,NA,NA,NA,NA,NA
"154","stim/objects/Instruments/electricguitar2.png",198,56,198,0.7,"stim/63.jpeg",6,3,2,NA,"Instruments",1,2,"left","right",0.649999857,0,0,0,1,NA,NA,NA,NA,NA,NA,NA,NA,NA,NA,NA,NA,NA,NA,NA,NA,NA,NA,NA,NA,NA,NA,NA,NA
"218","stim/objects/Instruments/harp.png",199,56,199,0.3,"stim/53.jpeg",5,3,2,NA,"Instruments",1,4,"left","right",0.648000002,0,0,0,1,NA,NA,NA,NA,NA,NA,NA,NA,NA,NA,NA,NA,NA,NA,NA,NA,NA,NA,NA,NA,NA,NA,NA,NA
"192","stim/objects/Instruments/grandpiano2.png",200,56,200,0.1,"stim/14.jpeg",1,4,3,NA,"Instruments",1,2,"left","right",0.592999935,0,0,0,1,NA,NA,NA,NA,NA,NA,NA,NA,NA,NA,NA,NA,NA,NA,NA,NA,NA,NA,NA,NA,NA,NA,NA,NA
"65","stim/objects/HouseObjects/garbagebin.png",201,56,201,0.5,"stim/43.jpeg",4,3,1,NA,"HouseObjects",2,1,"right","right",0.539999723,1,1,0,1,NA,NA,NA,NA,NA,NA,NA,NA,NA,NA,NA,NA,NA,NA,NA,NA,NA,NA,NA,NA,NA,NA,NA,NA
"79","stim/objects/HouseObjects/glass.png",202,56,202,0.5,"stim/44.jpeg",4,4,1,NA,"HouseObjects",2,1,"right","left",0.770999908,0,0,0,1,NA,NA,NA,NA,NA,NA,NA,NA,NA,NA,NA,NA,NA,NA,NA,NA,NA,NA,NA,NA,NA,NA,NA,NA
"73","stim/objects/HouseObjects/garbagebin2.png",203,56,203,0.9,"stim/13.jpeg",1,3,3,NA,"HouseObjects",2,1,"right","right",0.55099988,1,1,0,1,NA,NA,NA,NA,NA,NA,NA,NA,NA,NA,NA,NA,NA,NA,NA,NA,NA,NA,NA,NA,NA,NA,NA,NA
"180","stim/objects/Instruments/frenchhorn2.png",204,56,204,0.1,"stim/12.jpeg",1,2,3,NA,"Instruments",1,3,"left","left",0.855999947,1,1,0,1,NA,NA,NA,NA,NA,NA,NA,NA,NA,NA,NA,NA,NA,NA,NA,NA,NA,NA,NA,NA,NA,NA,NA,NA
"21","stim/objects/HouseObjects/dishsoap.png",205,56,205,0.5,"stim/33.jpeg",3,3,1,NA,"HouseObjects",2,3,"right","right",0.708999872,1,1,0,1,NA,NA,NA,NA,NA,NA,NA,NA,NA,NA,NA,NA,NA,NA,NA,NA,NA,NA,NA,NA,NA,NA,NA,NA
"204","stim/objects/Instruments/guitarcase2.png",206,56,206,0.9,"stim/21.jpeg",2,1,3,NA,"Instruments",1,1,"left","left",0.752999783,1,1,0,1,NA,NA,NA,NA,NA,NA,NA,NA,NA,NA,NA,NA,NA,NA,NA,NA,NA,NA,NA,NA,NA,NA,NA,NA
"118","stim/objects/HouseObjects/handvacuum.png",207,56,207,0.7,"stim/54.jpeg",5,4,2,NA,"HouseObjects",2,2,"right","right",0.656999826,1,1,0,1,NA,NA,NA,NA,NA,NA,NA,NA,NA,NA,NA,NA,NA,NA,NA,NA,NA,NA,NA,NA,NA,NA,NA,NA
"30","stim/objects/HouseObjects/doormat2.png",208,56,208,0.3,"stim/64.jpeg",6,4,2,NA,"HouseObjects",2,1,"right","left",0.737999916,0,0,0,1,NA,NA,NA,NA,NA,NA,NA,NA,NA,NA,NA,NA,NA,NA,NA,NA,NA,NA,NA,NA,NA,NA,NA,NA
"155","stim/objects/Instruments/electricguitar2.png",209,56,209,0.7,"stim/63.jpeg",6,3,2,NA,"Instruments",1,1,"left","right",0.763000011,0,0,0,1,NA,NA,NA,NA,NA,NA,NA,NA,NA,NA,NA,NA,NA,NA,NA,NA,NA,NA,NA,NA,NA,NA,NA,NA
"45","stim/objects/HouseObjects/dustpan2.png",210,56,210,0.9,"stim/11.jpeg",1,1,3,NA,"HouseObjects",2,2,"right","right",0.681999922,1,1,0,1,NA,NA,NA,NA,NA,NA,NA,NA,NA,NA,NA,NA,NA,NA,NA,NA,NA,NA,NA,NA,NA,NA,NA,NA
"28","stim/objects/HouseObjects/doormat.png",211,56,211,0.5,"stim/34.jpeg",3,4,1,NA,"HouseObjects",2,3,"right","right",0.552999973,1,1,0,1,NA,NA,NA,NA,NA,NA,NA,NA,NA,NA,NA,NA,NA,NA,NA,NA,NA,NA,NA,NA,NA,NA,NA,NA
"119","stim/objects/HouseObjects/handvacuum.png",212,56,212,0.7,"stim/54.jpeg",5,4,2,NA,"HouseObjects",2,4,"right","right",0.863999844,1,1,0,1,NA,NA,NA,NA,NA,NA,NA,NA,NA,NA,NA,NA,NA,NA,NA,NA,NA,NA,NA,NA,NA,NA,NA,NA
"29","stim/objects/HouseObjects/doormat.png",213,56,213,0.5,"stim/34.jpeg",3,4,1,NA,"HouseObjects",2,1,"right","right",0.642999887,1,1,0,1,NA,NA,NA,NA,NA,NA,NA,NA,NA,NA,NA,NA,NA,NA,NA,NA,NA,NA,NA,NA,NA,NA,NA,NA
"190","stim/objects/Instruments/grandpiano.png",214,56,214,0.5,"stim/44.jpeg",4,4,1,NA,"Instruments",1,4,"left","left",0.536999702,1,1,0,1,NA,NA,NA,NA,NA,NA,NA,NA,NA,NA,NA,NA,NA,NA,NA,NA,NA,NA,NA,NA,NA,NA,NA,NA
"240","stim/objects/Instruments/hihat2.png",215,56,215,0.9,"stim/24.jpeg",2,4,3,NA,"Instruments",1,4,"left","left",0.681999922,1,1,0,1,NA,NA,NA,NA,NA,NA,NA,NA,NA,NA,NA,NA,NA,NA,NA,NA,NA,NA,NA,NA,NA,NA,NA,NA
"95","stim/objects/HouseObjects/glassmop.png",216,56,216,0.7,"stim/51.jpeg",5,1,2,NA,"HouseObjects",2,1,"right","left",0.787999868,0,0,0,1,NA,NA,NA,NA,NA,NA,NA,NA,NA,NA,NA,NA,NA,NA,NA,NA,NA,NA,NA,NA,NA,NA,NA,NA
"132","stim/objects/Instruments/drums2.png",217,56,217,0.7,"stim/61.jpeg",6,1,2,NA,"Instruments",1,3,"left","left",0.620999813,1,1,0,1,NA,NA,NA,NA,NA,NA,NA,NA,NA,NA,NA,NA,NA,NA,NA,NA,NA,NA,NA,NA,NA,NA,NA,NA
"143","stim/objects/Instruments/electricdrumset2.png",218,56,218,0.7,"stim/62.jpeg",6,2,2,NA,"Instruments",1,4,"left","right",0.630999804,0,0,0,1,NA,NA,NA,NA,NA,NA,NA,NA,NA,NA,NA,NA,NA,NA,NA,NA,NA,NA,NA,NA,NA,NA,NA,NA
"8","stim/objects/HouseObjects/coffee2.png",219,56,219,0.3,"stim/61.jpeg",6,1,2,NA,"HouseObjects",2,3,"right","left",0.569999933,0,0,0,1,NA,NA,NA,NA,NA,NA,NA,NA,NA,NA,NA,NA,NA,NA,NA,NA,NA,NA,NA,NA,NA,NA,NA,NA
"228","stim/objects/Instruments/harp2.png",220,56,220,0.9,"stim/23.jpeg",2,3,3,NA,"Instruments",1,1,"left","left",0.693000078,1,1,0,1,NA,NA,NA,NA,NA,NA,NA,NA,NA,NA,NA,NA,NA,NA,NA,NA,NA,NA,NA,NA,NA,NA,NA,NA
"159","stim/objects/Instruments/flute.png",221,56,221,0.5,"stim/34.jpeg",3,4,1,NA,"Instruments",1,2,"left","left",0.756999969,1,1,0,1,NA,NA,NA,NA,NA,NA,NA,NA,NA,NA,NA,NA,NA,NA,NA,NA,NA,NA,NA,NA,NA,NA,NA,NA
"216","stim/objects/Instruments/harmonica2.png",222,56,222,0.9,"stim/22.jpeg",2,2,3,NA,"Instruments",1,3,"left","",NA,0,0,0,1,NA,NA,NA,NA,NA,NA,NA,NA,NA,NA,NA,NA,NA,NA,NA,NA,NA,NA,NA,NA,NA,NA,NA,NA
"103","stim/objects/HouseObjects/hairdryer.png",223,56,223,0.7,"stim/52.jpeg",5,2,2,NA,"HouseObjects",2,2,"right","right",0.509999752,1,1,0,1,NA,NA,NA,NA,NA,NA,NA,NA,NA,NA,NA,NA,NA,NA,NA,NA,NA,NA,NA,NA,NA,NA,NA,NA
"207","stim/objects/Instruments/harmonica.png",224,56,224,0.3,"stim/52.jpeg",5,2,2,NA,"Instruments",1,1,"left","right",0.500999928,0,0,0,1,NA,NA,NA,NA,NA,NA,NA,NA,NA,NA,NA,NA,NA,NA,NA,NA,NA,NA,NA,NA,NA,NA,NA,NA
"37","stim/objects/HouseObjects/dustpan.png",225,56,225,0.5,"stim/41.jpeg",4,1,1,NA,"HouseObjects",2,1,"right","right",0.635999918,1,1,0,1,NA,NA,NA,NA,NA,NA,NA,NA,NA,NA,NA,NA,NA,NA,NA,NA,NA,NA,NA,NA,NA,NA,NA,NA
"74","stim/objects/HouseObjects/garbagebin2.png",226,56,226,0.9,"stim/13.jpeg",1,3,3,NA,"HouseObjects",2,1,"right","right",0.61500001,1,1,0,1,NA,NA,NA,NA,NA,NA,NA,NA,NA,NA,NA,NA,NA,NA,NA,NA,NA,NA,NA,NA,NA,NA,NA,NA
"87","stim/objects/HouseObjects/glass2.png",227,56,227,0.9,"stim/14.jpeg",1,4,3,NA,"HouseObjects",2,2,"right","right",0.694000006,1,1,0,1,NA,NA,NA,NA,NA,NA,NA,NA,NA,NA,NA,NA,NA,NA,NA,NA,NA,NA,NA,NA,NA,NA,NA,NA
"46","stim/objects/HouseObjects/dustpan2.png",228,56,228,0.9,"stim/11.jpeg",1,1,3,NA,"HouseObjects",2,4,"right","right",0.645999908,1,1,0,1,NA,NA,NA,NA,NA,NA,NA,NA,NA,NA,NA,NA,NA,NA,NA,NA,NA,NA,NA,NA,NA,NA,NA,NA
"31","stim/objects/HouseObjects/doormat2.png",229,56,229,0.3,"stim/64.jpeg",6,4,2,NA,"HouseObjects",2,2,"right","left",0.638000011,0,0,0,1,NA,NA,NA,NA,NA,NA,NA,NA,NA,NA,NA,NA,NA,NA,NA,NA,NA,NA,NA,NA,NA,NA,NA,NA
"88","stim/objects/HouseObjects/glass2.png",230,56,230,0.9,"stim/14.jpeg",1,4,3,NA,"HouseObjects",2,4,"right","right",0.542999983,1,1,0,1,NA,NA,NA,NA,NA,NA,NA,NA,NA,NA,NA,NA,NA,NA,NA,NA,NA,NA,NA,NA,NA,NA,NA,NA
"160","stim/objects/Instruments/flute.png",231,56,231,0.5,"stim/34.jpeg",3,4,1,NA,"Instruments",1,3,"left","right",0.65199995,0,0,0,1,NA,NA,NA,NA,NA,NA,NA,NA,NA,NA,NA,NA,NA,NA,NA,NA,NA,NA,NA,NA,NA,NA,NA,NA
"144","stim/objects/Instruments/electricdrumset2.png",232,56,232,0.7,"stim/62.jpeg",6,2,2,NA,"Instruments",1,2,"left","left",0.523000002,1,1,0,1,NA,NA,NA,NA,NA,NA,NA,NA,NA,NA,NA,NA,NA,NA,NA,NA,NA,NA,NA,NA,NA,NA,NA,NA
"32","stim/objects/HouseObjects/doormat2.png",233,56,233,0.3,"stim/64.jpeg",6,4,2,NA,"HouseObjects",2,4,"right","left",0.556999922,0,0,0,1,NA,NA,NA,NA,NA,NA,NA,NA,NA,NA,NA,NA,NA,NA,NA,NA,NA,NA,NA,NA,NA,NA,NA,NA
"161","stim/objects/Instruments/flute.png",234,56,234,0.5,"stim/34.jpeg",3,4,1,NA,"Instruments",1,3,"left","right",0.512000084,0,0,0,1,NA,NA,NA,NA,NA,NA,NA,NA,NA,NA,NA,NA,NA,NA,NA,NA,NA,NA,NA,NA,NA,NA,NA,NA
"219","stim/objects/Instruments/harp.png",235,56,235,0.3,"stim/53.jpeg",5,3,2,NA,"Instruments",1,1,"left","right",0.65199995,0,0,0,1,NA,NA,NA,NA,NA,NA,NA,NA,NA,NA,NA,NA,NA,NA,NA,NA,NA,NA,NA,NA,NA,NA,NA,NA
"156","stim/objects/Instruments/electricguitar2.png",236,56,236,0.7,"stim/63.jpeg",6,3,2,NA,"Instruments",1,3,"left","left",0.329999924,1,1,0,1,NA,NA,NA,NA,NA,NA,NA,NA,NA,NA,NA,NA,NA,NA,NA,NA,NA,NA,NA,NA,NA,NA,NA,NA
"24","stim/objects/HouseObjects/dishsoap2.png",237,56,237,0.3,"stim/63.jpeg",6,3,2,NA,"HouseObjects",2,4,"right","left",0.411999941,0,0,0,1,NA,NA,NA,NA,NA,NA,NA,NA,NA,NA,NA,NA,NA,NA,NA,NA,NA,NA,NA,NA,NA,NA,NA,NA
"191","stim/objects/Instruments/grandpiano.png",238,56,238,0.5,"stim/44.jpeg",4,4,1,NA,"Instruments",1,3,"left","right",0.531000137,0,0,0,1,NA,NA,NA,NA,NA,NA,NA,NA,NA,NA,NA,NA,NA,NA,NA,NA,NA,NA,NA,NA,NA,NA,NA,NA
"120","stim/objects/HouseObjects/handvacuum2.png",239,56,239,0.1,"stim/24.jpeg",2,4,3,NA,"HouseObjects",2,3,"right","left",0.622999907,0,0,0,1,NA,NA,NA,NA,NA,NA,NA,NA,NA,NA,NA,NA,NA,NA,NA,NA,NA,NA,NA,NA,NA,NA,NA,NA
"185","stim/objects/Instruments/gong.png",240,56,240,0.5,"stim/43.jpeg",4,3,1,NA,"Instruments",1,2,"left","left",0.519999743,1,1,0,1,NA,NA,NA,NA,NA,NA,NA,NA,NA,NA,NA,NA,NA,NA,NA,NA,NA,NA,NA,NA,NA,NA,NA,NA
"456","stim/objects/Instruments/marimba3.png",248,56,241,0.9,"stim/22.jpeg",2,2,3,2,"Instruments",1,4,"left","",NA,0,0,1,0,NA,NA,NA,NA,NA,NA,NA,NA,NA,NA,NA,NA,NA,NA,NA,NA,NA,NA,NA,NA,NA,NA,NA,NA
"268","stim/objects/HouseObjects/clock3.png",249,56,242,0.5,"stim/43.jpeg",4,3,1,2,"HouseObjects",2,1,"right","right",0.563999891,1,1,1,0,NA,NA,NA,NA,NA,NA,NA,NA,NA,NA,NA,NA,NA,NA,NA,NA,NA,NA,NA,NA,NA,NA,NA,NA
"308","stim/objects/HouseObjects/lintroller3.png",250,56,243,0.9,"stim/13.jpeg",1,3,3,2,"HouseObjects",2,2,"right","right",0.608999968,1,1,1,0,NA,NA,NA,NA,NA,NA,NA,NA,NA,NA,NA,NA,NA,NA,NA,NA,NA,NA,NA,NA,NA,NA,NA,NA
"524","stim/objects/Instruments/oboe3.png",251,56,244,0.9,"stim/22.jpeg",2,2,3,2,"Instruments",1,4,"left","right",0.601000071,0,0,1,0,NA,NA,NA,NA,NA,NA,NA,NA,NA,NA,NA,NA,NA,NA,NA,NA,NA,NA,NA,NA,NA,NA,NA,NA
"543","stim/objects/Instruments/pipepiano3.png",252,56,245,0.5,"stim/34.jpeg",3,4,1,1,"Instruments",1,2,"left","right",0.549000025,0,0,1,0,132,56,1,0.5,1,"stim/34.jpeg",3,4,"stim/34.jpeg",2,"left",1.453999996,3,3,4.05099988,2,1.680999994,132,1,0,0,1,1,0
"525","stim/objects/Instruments/oboe3.png",253,56,246,0.9,"stim/22.jpeg",2,2,3,2,"Instruments",1,4,"left","left",0.635999918,1,1,1,0,NA,NA,NA,NA,NA,NA,NA,NA,NA,NA,NA,NA,NA,NA,NA,NA,NA,NA,NA,NA,NA,NA,NA,NA
"489","stim/objects/Instruments/metronome4.png",254,56,247,0.1,"stim/12.jpeg",1,2,3,1,"Instruments",1,4,"left","right",0.610999823,0,0,1,0,18,56,1,0.1,1,"stim/12.jpeg",1,2,"stim/12.jpeg",4,"left",2.430999994,3,1,5.865999937,2,9.85800004,18,1,0,0,0,0,0
"490","stim/objects/Instruments/musicsheet3.png",255,56,248,0.9,"stim/24.jpeg",2,4,3,2,"Instruments",1,1,"left","left",0.622999907,1,1,1,0,NA,NA,NA,NA,NA,NA,NA,NA,NA,NA,NA,NA,NA,NA,NA,NA,NA,NA,NA,NA,NA,NA,NA,NA
"473","stim/objects/Instruments/metronome3.png",256,56,249,0.9,"stim/23.jpeg",2,3,3,2,"Instruments",1,4,"left","left",0.55099988,1,1,1,0,NA,NA,NA,NA,NA,NA,NA,NA,NA,NA,NA,NA,NA,NA,NA,NA,NA,NA,NA,NA,NA,NA,NA,NA
"359","stim/objects/HouseObjects/pitcher3.png",257,56,250,0.9,"stim/12.jpeg",1,2,3,2,"HouseObjects",2,1,"right","right",0.699999809,1,1,1,0,NA,NA,NA,NA,NA,NA,NA,NA,NA,NA,NA,NA,NA,NA,NA,NA,NA,NA,NA,NA,NA,NA,NA,NA
"258","stim/objects/HouseObjects/blender4.png",258,56,251,0.3,"stim/62.jpeg",6,2,2,1,"HouseObjects",2,1,"right","left",0.613999844,0,0,1,0,5,56,1,0.3,2,"stim/62.jpeg",6,2,"stim/62.jpeg",1,"left",4.199999809,3,1,6.822999954,1,6.516000032,5,1,0,0,1,1,0
"397","stim/objects/HouseObjects/thermometer4.png",259,56,252,0.1,"stim/24.jpeg",2,4,3,1,"HouseObjects",2,1,"right","left",0.565000057,0,0,1,0,65,56,1,0.1,2,"stim/24.jpeg",2,4,"stim/24.jpeg",1,"right",0.915999889,4,4,8.375999928,3,6.963999987,65,0,1,NA,0,NA,0
"507","stim/objects/Instruments/musicstand3.png",260,56,253,0.9,"stim/24.jpeg",2,4,3,2,"Instruments",1,3,"left","left",0.536999941,1,1,1,0,NA,NA,NA,NA,NA,NA,NA,NA,NA,NA,NA,NA,NA,NA,NA,NA,NA,NA,NA,NA,NA,NA,NA,NA
"506","stim/objects/Instruments/musicsheet4.png",261,56,254,0.1,"stim/13.jpeg",1,3,3,1,"Instruments",1,1,"left","right",0.53399992,0,0,1,0,2,56,1,0.1,1,"stim/13.jpeg",1,3,"stim/13.jpeg",1,"left",4.074999809,4,2,12.25500011,2,4.503999949,2,1,0,0,0,0,0
"404","stim/objects/HouseObjects/wateringcan3.png",262,56,255,0.7,"stim/52.jpeg",5,2,2,1,"HouseObjects",2,4,"right","",NA,0,0,1,0,178,56,1,0.7,2,"stim/52.jpeg",5,2,"stim/52.jpeg",4,"right",1.350999832,3,3,5.122999907,1,1.107999802,178,0,0,NA,0,NA,0
"341","stim/objects/HouseObjects/match4.png",263,56,256,0.9,"stim/11.jpeg",1,1,3,1,"HouseObjects",2,2,"right","right",0.666999817,1,1,1,0,6,56,1,0.9,2,"stim/11.jpeg",1,1,"stim/11.jpeg",2,"left",7.520999908,2,1,4.470000029,4,2.428999901,6,1,1,1,0,0,0
"256","stim/objects/HouseObjects/blender3.png",264,56,257,0.5,"stim/42.jpeg",4,2,1,2,"HouseObjects",2,1,"right","left",0.614000082,0,0,1,0,NA,NA,NA,NA,NA,NA,NA,NA,NA,NA,NA,NA,NA,NA,NA,NA,NA,NA,NA,NA,NA,NA,NA,NA
"444","stim/objects/Instruments/keyboard3.png",265,56,258,0.7,"stim/63.jpeg",6,3,2,2,"Instruments",1,2,"left","left",0.498999834,1,1,1,0,NA,NA,NA,NA,NA,NA,NA,NA,NA,NA,NA,NA,NA,NA,NA,NA,NA,NA,NA,NA,NA,NA,NA,NA
"398","stim/objects/HouseObjects/thread3.png",266,56,259,0.7,"stim/53.jpeg",5,3,2,1,"HouseObjects",2,1,"right","right",0.552000046,1,1,1,0,159,56,1,0.7,2,"stim/53.jpeg",5,3,"stim/53.jpeg",1,"right",10.04900002,2,2,3.173000097,3,1.157999754,159,0,0,NA,0,NA,0
"309","stim/objects/HouseObjects/lintroller3.png",267,56,260,0.9,"stim/11.jpeg",1,1,3,2,"HouseObjects",2,2,"right","right",0.621999979,1,1,1,0,NA,NA,NA,NA,NA,NA,NA,NA,NA,NA,NA,NA,NA,NA,NA,NA,NA,NA,NA,NA,NA,NA,NA,NA
"556","stim/objects/Instruments/timbal4.png",268,56,261,0.9,"stim/23.jpeg",2,3,3,1,"Instruments",1,1,"left","left",0.717999935,1,1,1,0,198,56,1,0.9,1,"stim/23.jpeg",2,3,"stim/23.jpeg",1,"right",3.184000015,3,3,5.288000107,3,1.263999939,198,0,1,NA,0,NA,0
"343","stim/objects/HouseObjects/pan3.png",269,56,262,0.9,"stim/13.jpeg",1,3,3,2,"HouseObjects",2,1,"right","right",0.606999874,1,1,1,0,NA,NA,NA,NA,NA,NA,NA,NA,NA,NA,NA,NA,NA,NA,NA,NA,NA,NA,NA,NA,NA,NA,NA,NA
"427","stim/objects/Instruments/chime3.png",270,56,263,0.5,"stim/41.jpeg",4,1,1,2,"Instruments",1,2,"left","left",0.552000046,1,1,1,0,NA,NA,NA,NA,NA,NA,NA,NA,NA,NA,NA,NA,NA,NA,NA,NA,NA,NA,NA,NA,NA,NA,NA,NA
"405","stim/objects/HouseObjects/wateringcan4.png",271,56,264,0.1,"stim/24.jpeg",2,4,3,1,"HouseObjects",2,4,"right","left",0.618999958,0,0,1,0,141,56,1,0.1,2,"stim/24.jpeg",2,4,"stim/24.jpeg",4,"right",0.832999945,1,1,1.924999952,1,1.652999878,141,0,0,NA,0,NA,0
"344","stim/objects/HouseObjects/pan3.png",272,56,265,0.9,"stim/14.jpeg",1,4,3,2,"HouseObjects",2,3,"right","right",0.621999979,1,1,1,0,NA,NA,NA,NA,NA,NA,NA,NA,NA,NA,NA,NA,NA,NA,NA,NA,NA,NA,NA,NA,NA,NA,NA,NA
"445","stim/objects/Instruments/keyboard3.png",273,56,266,0.7,"stim/64.jpeg",6,4,2,2,"Instruments",1,2,"left","left",0.586999893,1,1,1,0,NA,NA,NA,NA,NA,NA,NA,NA,NA,NA,NA,NA,NA,NA,NA,NA,NA,NA,NA,NA,NA,NA,NA,NA
"492","stim/objects/Instruments/musicsheet3.png",274,56,267,0.9,"stim/23.jpeg",2,3,3,2,"Instruments",1,1,"left","left",0.582999706,1,1,1,0,NA,NA,NA,NA,NA,NA,NA,NA,NA,NA,NA,NA,NA,NA,NA,NA,NA,NA,NA,NA,NA,NA,NA,NA
"564","stim/objects/Instruments/tuba4.png",275,56,268,0.9,"stim/23.jpeg",2,3,3,1,"Instruments",1,3,"left","left",0.484999895,1,1,1,0,42,56,1,0.9,1,"stim/23.jpeg",2,3,"stim/23.jpeg",3,"left",1.082999945,3,3,31.94799995,3,7.350999832,42,1,1,1,1,1,0
"291","stim/objects/HouseObjects/knife3.png",276,56,269,0.9,"stim/11.jpeg",1,1,3,2,"HouseObjects",2,4,"right","right",0.597999811,1,1,1,0,NA,NA,NA,NA,NA,NA,NA,NA,NA,NA,NA,NA,NA,NA,NA,NA,NA,NA,NA,NA,NA,NA,NA,NA
"526","stim/objects/Instruments/oboe3.png",277,56,270,0.9,"stim/22.jpeg",2,2,3,2,"Instruments",1,1,"left","left",0.582999945,1,1,1,0,NA,NA,NA,NA,NA,NA,NA,NA,NA,NA,NA,NA,NA,NA,NA,NA,NA,NA,NA,NA,NA,NA,NA,NA
"380","stim/objects/HouseObjects/rubbergloves3.png",278,56,271,0.5,"stim/34.jpeg",3,4,1,1,"HouseObjects",2,3,"right","right",0.572999716,1,1,1,0,96,56,1,0.5,1,"stim/34.jpeg",3,4,"stim/34.jpeg",3,"right",0.811999798,3,4,7.388999939,1,2.523000002,96,0,1,NA,0,NA,0
"393","stim/objects/HouseObjects/spraybottle4.png",279,56,272,0.1,"stim/22.jpeg",2,2,3,1,"HouseObjects",2,1,"right","left",0.534999847,0,0,1,0,66,56,1,0.1,2,"stim/22.jpeg",2,2,"stim/22.jpeg",1,"left",2.173999786,2,2,3.569999933,2,2.751999855,66,1,1,1,0,0,0
"457","stim/objects/Instruments/marimba3.png",280,56,273,0.9,"stim/22.jpeg",2,2,3,2,"Instruments",1,2,"left","left",0.460999966,1,1,1,0,NA,NA,NA,NA,NA,NA,NA,NA,NA,NA,NA,NA,NA,NA,NA,NA,NA,NA,NA,NA,NA,NA,NA,NA
"345","stim/objects/HouseObjects/pan3.png",281,56,274,0.9,"stim/13.jpeg",1,3,3,2,"HouseObjects",2,3,"right","left",0.609999895,0,0,1,0,NA,NA,NA,NA,NA,NA,NA,NA,NA,NA,NA,NA,NA,NA,NA,NA,NA,NA,NA,NA,NA,NA,NA,NA
"476","stim/objects/Instruments/metronome3.png",282,56,275,0.9,"stim/21.jpeg",2,1,3,2,"Instruments",1,2,"left","left",0.532000065,1,1,1,0,NA,NA,NA,NA,NA,NA,NA,NA,NA,NA,NA,NA,NA,NA,NA,NA,NA,NA,NA,NA,NA,NA,NA,NA
"493","stim/objects/Instruments/musicsheet3.png",283,56,276,0.9,"stim/21.jpeg",2,1,3,2,"Instruments",1,3,"left","left",0.608999968,1,1,1,0,NA,NA,NA,NA,NA,NA,NA,NA,NA,NA,NA,NA,NA,NA,NA,NA,NA,NA,NA,NA,NA,NA,NA,NA
"360","stim/objects/HouseObjects/pitcher3.png",284,56,277,0.9,"stim/11.jpeg",1,1,3,2,"HouseObjects",2,2,"right","right",0.530999899,1,1,1,0,NA,NA,NA,NA,NA,NA,NA,NA,NA,NA,NA,NA,NA,NA,NA,NA,NA,NA,NA,NA,NA,NA,NA,NA
"376","stim/objects/HouseObjects/recyclingbin3.png",285,56,278,0.5,"stim/32.jpeg",3,2,1,1,"HouseObjects",2,3,"right","left",0.684999943,0,0,1,0,23,56,1,0.5,1,"stim/32.jpeg",3,2,"stim/32.jpeg",3,"left",2.294999838,3,4,13.42600012,3,4.267999887,23,1,0,0,1,1,0
"509","stim/objects/Instruments/musicstand3.png",286,56,279,0.9,"stim/24.jpeg",2,4,3,2,"Instruments",1,3,"left","left",0.691999912,1,1,1,0,NA,NA,NA,NA,NA,NA,NA,NA,NA,NA,NA,NA,NA,NA,NA,NA,NA,NA,NA,NA,NA,NA,NA,NA
"287","stim/objects/HouseObjects/key3.png",287,56,280,0.7,"stim/51.jpeg",5,1,2,2,"HouseObjects",2,3,"right","right",0.571999788,1,1,1,0,NA,NA,NA,NA,NA,NA,NA,NA,NA,NA,NA,NA,NA,NA,NA,NA,NA,NA,NA,NA,NA,NA,NA,NA
"458","stim/objects/Instruments/marimba3.png",288,56,281,0.9,"stim/23.jpeg",2,3,3,2,"Instruments",1,2,"left","left",0.549000025,1,1,1,0,NA,NA,NA,NA,NA,NA,NA,NA,NA,NA,NA,NA,NA,NA,NA,NA,NA,NA,NA,NA,NA,NA,NA,NA
"292","stim/objects/HouseObjects/knife3.png",289,56,282,0.9,"stim/13.jpeg",1,3,3,2,"HouseObjects",2,4,"right","right",0.59499979,1,1,1,0,NA,NA,NA,NA,NA,NA,NA,NA,NA,NA,NA,NA,NA,NA,NA,NA,NA,NA,NA,NA,NA,NA,NA,NA
"384","stim/objects/HouseObjects/safetypin3.png",290,56,283,0.5,"stim/32.jpeg",3,2,1,1,"HouseObjects",2,3,"right","left",0.638000011,0,0,1,0,105,56,1,0.5,1,"stim/32.jpeg",3,2,"stim/32.jpeg",3,"left",1.065999985,3,3,3.996999979,4,5.507999897,105,1,0,0,0,0,0
"542","stim/objects/Instruments/panflute4.png",291,56,284,0.1,"stim/12.jpeg",1,2,3,1,"Instruments",1,3,"left","left",0.707999945,1,1,1,0,90,56,1,0.1,1,"stim/12.jpeg",1,2,"stim/12.jpeg",3,"left",1.232999802,3,3,5.64199996,3,3.135999918,90,1,0,0,1,1,0
"394","stim/objects/HouseObjects/teapot3.png",292,56,285,0.5,"stim/44.jpeg",4,4,1,1,"HouseObjects",2,3,"right","right",0.532999992,1,1,1,0,155,56,1,0.5,2,"stim/44.jpeg",4,4,"stim/44.jpeg",3,"right",0.840000153,2,3,11.102,2,1.505999804,155,0,0,NA,0,NA,0
"418","stim/objects/Instruments/bassdrum3.png",293,56,286,0.5,"stim/32.jpeg",3,2,1,2,"Instruments",1,1,"left","right",0.585000038,0,0,1,0,NA,NA,NA,NA,NA,NA,NA,NA,NA,NA,NA,NA,NA,NA,NA,NA,NA,NA,NA,NA,NA,NA,NA,NA
"477","stim/objects/Instruments/metronome3.png",294,56,287,0.9,"stim/22.jpeg",2,2,3,2,"Instruments",1,1,"left","left",0.570999861,1,1,1,0,NA,NA,NA,NA,NA,NA,NA,NA,NA,NA,NA,NA,NA,NA,NA,NA,NA,NA,NA,NA,NA,NA,NA,NA
"527","stim/objects/Instruments/oboe3.png",295,56,288,0.9,"stim/23.jpeg",2,3,3,2,"Instruments",1,3,"left","left",0.583999872,1,1,1,0,NA,NA,NA,NA,NA,NA,NA,NA,NA,NA,NA,NA,NA,NA,NA,NA,NA,NA,NA,NA,NA,NA,NA,NA
"270","stim/objects/HouseObjects/clock4.png",296,56,289,0.3,"stim/62.jpeg",6,2,2,1,"HouseObjects",2,2,"right","left",0.582999945,0,0,1,0,27,56,1,0.3,2,"stim/62.jpeg",6,2,"stim/62.jpeg",2,"right",2.246999741,3,4,5.403999805,3,3.696999788,27,0,0,NA,0,NA,0
"362","stim/objects/HouseObjects/pitcher3.png",297,56,290,0.9,"stim/11.jpeg",1,1,3,2,"HouseObjects",2,4,"right","right",0.684999704,1,1,1,0,NA,NA,NA,NA,NA,NA,NA,NA,NA,NA,NA,NA,NA,NA,NA,NA,NA,NA,NA,NA,NA,NA,NA,NA
"259","stim/objects/HouseObjects/bottle3.png",298,56,291,0.5,"stim/43.jpeg",4,3,1,2,"HouseObjects",2,4,"right","right",0.549999952,1,1,1,0,NA,NA,NA,NA,NA,NA,NA,NA,NA,NA,NA,NA,NA,NA,NA,NA,NA,NA,NA,NA,NA,NA,NA,NA
"328","stim/objects/HouseObjects/match3.png",299,56,292,0.9,"stim/13.jpeg",1,3,3,2,"HouseObjects",2,4,"right","right",0.657999992,1,1,1,0,NA,NA,NA,NA,NA,NA,NA,NA,NA,NA,NA,NA,NA,NA,NA,NA,NA,NA,NA,NA,NA,NA,NA,NA
"311","stim/objects/HouseObjects/lintroller3.png",300,56,293,0.9,"stim/11.jpeg",1,1,3,2,"HouseObjects",2,3,"right","left",0.600999832,0,0,1,0,NA,NA,NA,NA,NA,NA,NA,NA,NA,NA,NA,NA,NA,NA,NA,NA,NA,NA,NA,NA,NA,NA,NA,NA
"363","stim/objects/HouseObjects/pitcher3.png",301,56,294,0.9,"stim/14.jpeg",1,4,3,2,"HouseObjects",2,1,"right","right",0.576999903,1,1,1,0,NA,NA,NA,NA,NA,NA,NA,NA,NA,NA,NA,NA,NA,NA,NA,NA,NA,NA,NA,NA,NA,NA,NA,NA
"510","stim/objects/Instruments/musicstand3.png",302,56,295,0.9,"stim/21.jpeg",2,1,3,2,"Instruments",1,3,"left","left",0.579999924,1,1,1,0,NA,NA,NA,NA,NA,NA,NA,NA,NA,NA,NA,NA,NA,NA,NA,NA,NA,NA,NA,NA,NA,NA,NA,NA
"385","stim/objects/HouseObjects/safetypin4.png",303,56,296,0.9,"stim/14.jpeg",1,4,3,1,"HouseObjects",2,1,"right","right",0.535999775,1,1,1,0,139,56,1,0.9,2,"stim/14.jpeg",1,4,"stim/14.jpeg",1,"right",1.023999929,3,2,7.296999931,1,2,139,0,0,NA,1,NA,0
"293","stim/objects/HouseObjects/knife3.png",304,56,297,0.9,"stim/12.jpeg",1,2,3,2,"HouseObjects",2,1,"right","right",0.440000057,1,1,1,0,NA,NA,NA,NA,NA,NA,NA,NA,NA,NA,NA,NA,NA,NA,NA,NA,NA,NA,NA,NA,NA,NA,NA,NA
"540","stim/objects/Instruments/oboe4.png",305,56,298,0.1,"stim/11.jpeg",1,1,3,1,"Instruments",1,4,"left","right",0.600999832,0,0,1,0,116,56,1,0.1,1,"stim/11.jpeg",1,1,"stim/11.jpeg",4,"left",3.648999929,2,2,5.047999859,2,1.299999952,116,1,0,0,0,0,0
"264","stim/objects/HouseObjects/broom4.png",306,56,299,0.3,"stim/64.jpeg",6,4,2,1,"HouseObjects",2,4,"right","left",0.618000031,0,0,1,0,57,56,1,0.3,2,"stim/64.jpeg",6,4,"stim/64.jpeg",4,"left",4.437999964,3,4,9.002999783,4,6.171999931,57,1,1,1,1,1,0
"288","stim/objects/HouseObjects/key3.png",307,56,300,0.7,"stim/54.jpeg",5,4,2,2,"HouseObjects",2,2,"right","right",0.53399992,1,1,1,0,NA,NA,NA,NA,NA,NA,NA,NA,NA,NA,NA,NA,NA,NA,NA,NA,NA,NA,NA,NA,NA,NA,NA,NA
"265","stim/objects/HouseObjects/bucket3.png",308,56,301,0.5,"stim/42.jpeg",4,2,1,2,"HouseObjects",2,1,"right","right",0.661000013,1,1,1,0,NA,NA,NA,NA,NA,NA,NA,NA,NA,NA,NA,NA,NA,NA,NA,NA,NA,NA,NA,NA,NA,NA,NA,NA
"388","stim/objects/HouseObjects/scale3.png",309,56,302,0.5,"stim/41.jpeg",4,1,1,1,"HouseObjects",2,1,"right","right",0.58100009,1,1,1,0,80,56,1,0.5,2,"stim/41.jpeg",4,1,"stim/41.jpeg",1,"left",2.465999842,4,3,30.01199985,2,3.098999739,80,1,0,0,0,0,0
"243","stim/objects/HouseObjects/ashtray4.png",310,56,303,0.7,"stim/53.jpeg",5,3,2,1,"HouseObjects",2,3,"right","left",0.602999926,0,0,1,0,165,56,1,0.7,2,"stim/53.jpeg",5,3,"stim/53.jpeg",3,"left",1.105999947,4,1,4.171000004,2,2.840000153,165,1,0,0,0,0,0
"289","stim/objects/HouseObjects/key3.png",311,56,304,0.7,"stim/53.jpeg",5,3,2,2,"HouseObjects",2,2,"right","right",0.510999918,1,1,1,0,NA,NA,NA,NA,NA,NA,NA,NA,NA,NA,NA,NA,NA,NA,NA,NA,NA,NA,NA,NA,NA,NA,NA,NA
"460","stim/objects/Instruments/marimba3.png",312,56,305,0.9,"stim/24.jpeg",2,4,3,2,"Instruments",1,4,"left","left",0.714999914,1,1,1,0,NA,NA,NA,NA,NA,NA,NA,NA,NA,NA,NA,NA,NA,NA,NA,NA,NA,NA,NA,NA,NA,NA,NA,NA
"529","stim/objects/Instruments/oboe3.png",313,56,306,0.9,"stim/24.jpeg",2,4,3,2,"Instruments",1,4,"left","left",0.414999962,1,1,1,0,NA,NA,NA,NA,NA,NA,NA,NA,NA,NA,NA,NA,NA,NA,NA,NA,NA,NA,NA,NA,NA,NA,NA,NA
"566","stim/objects/Instruments/violin4.png",314,56,307,0.9,"stim/24.jpeg",2,4,3,1,"Instruments",1,3,"left","left",0.516000032,1,1,1,0,61,56,1,0.9,1,"stim/24.jpeg",2,4,"stim/24.jpeg",3,"left",1.549999952,4,4,7.62899971,2,2.646999836,61,1,1,1,0,0,0
"269","stim/objects/HouseObjects/clock3.png",315,56,308,0.5,"stim/42.jpeg",4,2,1,2,"HouseObjects",2,4,"right","right",0.515999794,1,1,1,0,NA,NA,NA,NA,NA,NA,NA,NA,NA,NA,NA,NA,NA,NA,NA,NA,NA,NA,NA,NA,NA,NA,NA,NA
"307","stim/objects/HouseObjects/knife4.png",316,56,309,0.9,"stim/13.jpeg",1,3,3,1,"HouseObjects",2,2,"right","left",0.636999846,0,0,1,0,34,56,1,0.9,2,"stim/13.jpeg",1,3,"stim/13.jpeg",2,"left",2.690999985,3,4,6.907999992,1,6.823999882,34,1,0,0,0,0,0
"421","stim/objects/Instruments/bassguitar3.png",317,56,310,0.5,"stim/43.jpeg",4,3,1,2,"Instruments",1,4,"left","right",0.670000076,0,0,1,0,NA,NA,NA,NA,NA,NA,NA,NA,NA,NA,NA,NA,NA,NA,NA,NA,NA,NA,NA,NA,NA,NA,NA,NA
"329","stim/objects/HouseObjects/match3.png",318,56,311,0.9,"stim/11.jpeg",1,1,3,2,"HouseObjects",2,1,"right","right",0.568000078,1,1,1,0,NA,NA,NA,NA,NA,NA,NA,NA,NA,NA,NA,NA,NA,NA,NA,NA,NA,NA,NA,NA,NA,NA,NA,NA
"266","stim/objects/HouseObjects/bucket3.png",319,56,312,0.5,"stim/41.jpeg",4,1,1,2,"HouseObjects",2,2,"right","right",0.559999943,1,1,1,0,NA,NA,NA,NA,NA,NA,NA,NA,NA,NA,NA,NA,NA,NA,NA,NA,NA,NA,NA,NA,NA,NA,NA,NA
"364","stim/objects/HouseObjects/pitcher3.png",320,56,313,0.9,"stim/11.jpeg",1,1,3,2,"HouseObjects",2,1,"right","right",0.659999847,1,1,1,0,NA,NA,NA,NA,NA,NA,NA,NA,NA,NA,NA,NA,NA,NA,NA,NA,NA,NA,NA,NA,NA,NA,NA,NA
"396","stim/objects/HouseObjects/thermometer3.png",321,56,314,0.7,"stim/52.jpeg",5,2,2,1,"HouseObjects",2,2,"right","left",0.51699996,0,0,1,0,188,56,1,0.7,2,"stim/52.jpeg",5,2,"stim/52.jpeg",2,"right",1.217000008,3,3,3.629999876,2,2.35800004,188,0,0,NA,1,NA,0
"530","stim/objects/Instruments/oboe3.png",322,56,315,0.9,"stim/21.jpeg",2,1,3,2,"Instruments",1,1,"left","left",0.623999834,1,1,1,0,NA,NA,NA,NA,NA,NA,NA,NA,NA,NA,NA,NA,NA,NA,NA,NA,NA,NA,NA,NA,NA,NA,NA,NA
"349","stim/objects/HouseObjects/pan3.png",323,56,316,0.9,"stim/11.jpeg",1,1,3,2,"HouseObjects",2,2,"right","right",0.638999939,1,1,1,0,NA,NA,NA,NA,NA,NA,NA,NA,NA,NA,NA,NA,NA,NA,NA,NA,NA,NA,NA,NA,NA,NA,NA,NA
"250","stim/objects/HouseObjects/basket3.png",324,56,317,0.5,"stim/34.jpeg",3,4,1,2,"HouseObjects",2,1,"right","right",0.736000061,1,1,1,0,NA,NA,NA,NA,NA,NA,NA,NA,NA,NA,NA,NA,NA,NA,NA,NA,NA,NA,NA,NA,NA,NA,NA,NA
"244","stim/objects/HouseObjects/ballofstring3.png",325,56,318,0.5,"stim/32.jpeg",3,2,1,2,"HouseObjects",2,3,"right","left",0.769000053,0,0,1,0,NA,NA,NA,NA,NA,NA,NA,NA,NA,NA,NA,NA,NA,NA,NA,NA,NA,NA,NA,NA,NA,NA,NA,NA
"480","stim/objects/Instruments/metronome3.png",326,56,319,0.9,"stim/23.jpeg",2,3,3,2,"Instruments",1,3,"left","left",0.52699995,1,1,1,0,NA,NA,NA,NA,NA,NA,NA,NA,NA,NA,NA,NA,NA,NA,NA,NA,NA,NA,NA,NA,NA,NA,NA,NA
"417","stim/objects/Instruments/banjo4.png",327,56,320,0.3,"stim/51.jpeg",5,1,2,1,"Instruments",1,3,"left","right",0.871999979,0,0,1,0,163,56,1,0.3,1,"stim/51.jpeg",5,1,"stim/51.jpeg",3,"left",2.161000013,2,2,4.302999973,2,1.338999987,163,1,0,0,0,0,0
"365","stim/objects/HouseObjects/pitcher3.png",328,56,321,0.9,"stim/13.jpeg",1,3,3,2,"HouseObjects",2,2,"right","right",0.644999743,1,1,1,0,NA,NA,NA,NA,NA,NA,NA,NA,NA,NA,NA,NA,NA,NA,NA,NA,NA,NA,NA,NA,NA,NA,NA,NA
"245","stim/objects/HouseObjects/ballofstring3.png",329,56,322,0.5,"stim/31.jpeg",3,1,1,2,"HouseObjects",2,3,"right","left",0.592000008,0,0,1,0,NA,NA,NA,NA,NA,NA,NA,NA,NA,NA,NA,NA,NA,NA,NA,NA,NA,NA,NA,NA,NA,NA,NA,NA
"513","stim/objects/Instruments/musicstand3.png",330,56,323,0.9,"stim/24.jpeg",2,4,3,2,"Instruments",1,2,"left","left",0.568000078,1,1,1,0,NA,NA,NA,NA,NA,NA,NA,NA,NA,NA,NA,NA,NA,NA,NA,NA,NA,NA,NA,NA,NA,NA,NA,NA
"263","stim/objects/HouseObjects/broom3.png",331,56,324,0.5,"stim/41.jpeg",4,1,1,2,"HouseObjects",2,4,"right","right",0.523999929,1,1,1,0,NA,NA,NA,NA,NA,NA,NA,NA,NA,NA,NA,NA,NA,NA,NA,NA,NA,NA,NA,NA,NA,NA,NA,NA
"330","stim/objects/HouseObjects/match3.png",332,56,325,0.9,"stim/11.jpeg",1,1,3,2,"HouseObjects",2,2,"right","left",0.654999971,0,0,1,0,NA,NA,NA,NA,NA,NA,NA,NA,NA,NA,NA,NA,NA,NA,NA,NA,NA,NA,NA,NA,NA,NA,NA,NA
"278","stim/objects/HouseObjects/clothespin4.png",333,56,326,0.3,"stim/64.jpeg",6,4,2,1,"HouseObjects",2,1,"right","left",0.601000071,0,0,1,0,7,56,1,0.3,2,"stim/64.jpeg",6,4,"stim/64.jpeg",1,"left",2.959000111,3,4,12.12799978,2,4.43599987,7,1,1,1,0,0,0
"531","stim/objects/Instruments/oboe3.png",334,56,327,0.9,"stim/23.jpeg",2,3,3,2,"Instruments",1,2,"left","left",0.56799984,1,1,1,0,NA,NA,NA,NA,NA,NA,NA,NA,NA,NA,NA,NA,NA,NA,NA,NA,NA,NA,NA,NA,NA,NA,NA,NA
"386","stim/objects/HouseObjects/saw3.png",335,56,328,0.5,"stim/44.jpeg",4,4,1,1,"HouseObjects",2,2,"right","right",0.587000132,1,1,1,0,175,56,1,0.5,2,"stim/44.jpeg",4,4,"stim/44.jpeg",2,"left",1.505999804,3,1,5.542999983,2,2.25999999,175,1,0,0,1,1,0
"464","stim/objects/Instruments/marimba3.png",336,56,329,0.9,"stim/22.jpeg",2,2,3,2,"Instruments",1,1,"left","left",0.630000114,1,1,1,0,NA,NA,NA,NA,NA,NA,NA,NA,NA,NA,NA,NA,NA,NA,NA,NA,NA,NA,NA,NA,NA,NA,NA,NA
"331","stim/objects/HouseObjects/match3.png",337,56,330,0.9,"stim/13.jpeg",1,3,3,2,"HouseObjects",2,4,"right","right",0.56799984,1,1,1,0,NA,NA,NA,NA,NA,NA,NA,NA,NA,NA,NA,NA,NA,NA,NA,NA,NA,NA,NA,NA,NA,NA,NA,NA
"532","stim/objects/Instruments/oboe3.png",338,56,331,0.9,"stim/22.jpeg",2,2,3,2,"Instruments",1,2,"left","left",0.579999924,1,1,1,0,NA,NA,NA,NA,NA,NA,NA,NA,NA,NA,NA,NA,NA,NA,NA,NA,NA,NA,NA,NA,NA,NA,NA,NA
"494","stim/objects/Instruments/musicsheet3.png",339,56,332,0.9,"stim/21.jpeg",2,1,3,2,"Instruments",1,3,"left","left",0.573999882,1,1,1,0,NA,NA,NA,NA,NA,NA,NA,NA,NA,NA,NA,NA,NA,NA,NA,NA,NA,NA,NA,NA,NA,NA,NA,NA
"430","stim/objects/Instruments/clarinet3.png",340,56,333,0.5,"stim/42.jpeg",4,2,1,2,"Instruments",1,2,"left","right",0.684000015,0,0,1,0,NA,NA,NA,NA,NA,NA,NA,NA,NA,NA,NA,NA,NA,NA,NA,NA,NA,NA,NA,NA,NA,NA,NA,NA
"294","stim/objects/HouseObjects/knife3.png",341,56,334,0.9,"stim/13.jpeg",1,3,3,2,"HouseObjects",2,1,"right","right",0.588000059,1,1,1,0,NA,NA,NA,NA,NA,NA,NA,NA,NA,NA,NA,NA,NA,NA,NA,NA,NA,NA,NA,NA,NA,NA,NA,NA
"312","stim/objects/HouseObjects/lintroller3.png",342,56,335,0.9,"stim/12.jpeg",1,2,3,2,"HouseObjects",2,3,"right","left",0.69900012,0,0,1,0,NA,NA,NA,NA,NA,NA,NA,NA,NA,NA,NA,NA,NA,NA,NA,NA,NA,NA,NA,NA,NA,NA,NA,NA
"366","stim/objects/HouseObjects/pitcher3.png",343,56,336,0.9,"stim/13.jpeg",1,3,3,2,"HouseObjects",2,3,"right","right",0.51699996,1,1,1,0,NA,NA,NA,NA,NA,NA,NA,NA,NA,NA,NA,NA,NA,NA,NA,NA,NA,NA,NA,NA,NA,NA,NA,NA
"350","stim/objects/HouseObjects/pan3.png",344,56,337,0.9,"stim/12.jpeg",1,2,3,2,"HouseObjects",2,4,"right","right",0.619999886,1,1,1,0,NA,NA,NA,NA,NA,NA,NA,NA,NA,NA,NA,NA,NA,NA,NA,NA,NA,NA,NA,NA,NA,NA,NA,NA
"274","stim/objects/HouseObjects/clothesdryingrack4.png",345,56,338,0.3,"stim/63.jpeg",6,3,2,1,"HouseObjects",2,3,"right","left",0.68900013,0,0,1,0,166,56,1,0.3,2,"stim/63.jpeg",6,3,"stim/63.jpeg",3,"left",2.328999996,3,3,4.63499999,1,2.049999952,166,1,1,1,0,0,0
"451","stim/objects/Instruments/laud4.png",346,56,339,0.7,"stim/64.jpeg",6,4,2,1,"Instruments",1,2,"left","left",0.700999975,1,1,1,0,192,56,1,0.7,1,"stim/64.jpeg",6,4,"stim/64.jpeg",2,"left",1.490999699,2,3,3.423999786,1,4.826999903,192,1,0,0,0,0,0
"367","stim/objects/HouseObjects/pitcher3.png",347,56,340,0.9,"stim/13.jpeg",1,3,3,2,"HouseObjects",2,4,"right","right",0.555999994,1,1,1,0,NA,NA,NA,NA,NA,NA,NA,NA,NA,NA,NA,NA,NA,NA,NA,NA,NA,NA,NA,NA,NA,NA,NA,NA
"436","stim/objects/Instruments/cymbal3.png",348,56,341,0.7,"stim/61.jpeg",6,1,2,2,"Instruments",1,4,"left","left",0.563999891,1,1,1,0,NA,NA,NA,NA,NA,NA,NA,NA,NA,NA,NA,NA,NA,NA,NA,NA,NA,NA,NA,NA,NA,NA,NA,NA
"332","stim/objects/HouseObjects/match3.png",349,56,342,0.9,"stim/12.jpeg",1,2,3,2,"HouseObjects",2,1,"right","right",0.575000048,1,1,1,0,NA,NA,NA,NA,NA,NA,NA,NA,NA,NA,NA,NA,NA,NA,NA,NA,NA,NA,NA,NA,NA,NA,NA,NA
"420","stim/objects/Instruments/bassdrum4.png",350,56,343,0.3,"stim/52.jpeg",5,2,2,1,"Instruments",1,2,"left","left",0.608999968,1,1,1,0,53,56,1,0.3,1,"stim/52.jpeg",5,2,"stim/52.jpeg",2,"right",1.470000029,2,4,5.99000001,2,2.937999964,53,0,0,NA,1,NA,0
"465","stim/objects/Instruments/marimba3.png",351,56,344,0.9,"stim/23.jpeg",2,3,3,2,"Instruments",1,3,"left","left",0.621999979,1,1,1,0,NA,NA,NA,NA,NA,NA,NA,NA,NA,NA,NA,NA,NA,NA,NA,NA,NA,NA,NA,NA,NA,NA,NA,NA
"409","stim/objects/Instruments/acousticguitar3.png",352,56,345,0.5,"stim/33.jpeg",3,3,1,2,"Instruments",1,1,"left","right",0.493999958,0,0,1,0,NA,NA,NA,NA,NA,NA,NA,NA,NA,NA,NA,NA,NA,NA,NA,NA,NA,NA,NA,NA,NA,NA,NA,NA
"399","stim/objects/HouseObjects/thread4.png",353,56,346,0.1,"stim/21.jpeg",2,1,3,1,"HouseObjects",2,3,"right","left",0.523000002,0,0,1,0,106,56,1,0.1,2,"stim/21.jpeg",2,1,"stim/21.jpeg",3,"left",1.276000023,2,2,4.773999929,3,2.314999819,106,1,0,0,1,1,0
"554","stim/objects/Instruments/tambourine4.png",354,56,347,0.9,"stim/22.jpeg",2,2,3,1,"Instruments",1,2,"left","left",0.484999895,1,1,1,0,59,56,1,0.9,1,"stim/22.jpeg",2,2,"stim/22.jpeg",2,"right",1.161999941,3,2,7.643999815,2,3.977999926,59,0,1,NA,1,NA,0
"440","stim/objects/Instruments/doublebass3.png",355,56,348,0.7,"stim/64.jpeg",6,4,2,2,"Instruments",1,3,"left","right",0.619999886,0,0,1,0,NA,NA,NA,NA,NA,NA,NA,NA,NA,NA,NA,NA,NA,NA,NA,NA,NA,NA,NA,NA,NA,NA,NA,NA
"515","stim/objects/Instruments/musicstand3.png",356,56,349,0.9,"stim/22.jpeg",2,2,3,2,"Instruments",1,4,"left","left",0.65899992,1,1,1,0,NA,NA,NA,NA,NA,NA,NA,NA,NA,NA,NA,NA,NA,NA,NA,NA,NA,NA,NA,NA,NA,NA,NA,NA
"516","stim/objects/Instruments/musicstand3.png",357,56,350,0.9,"stim/23.jpeg",2,3,3,2,"Instruments",1,4,"left","left",0.555999994,1,1,1,0,NA,NA,NA,NA,NA,NA,NA,NA,NA,NA,NA,NA,NA,NA,NA,NA,NA,NA,NA,NA,NA,NA,NA,NA
"382","stim/objects/HouseObjects/rug3.png",358,56,351,0.5,"stim/31.jpeg",3,1,1,1,"HouseObjects",2,4,"right","right",0.621999979,1,1,1,0,152,56,1,0.5,1,"stim/31.jpeg",3,1,"stim/31.jpeg",4,"right",0.94299984,2,2,4.503999949,1,3.076999903,152,0,0,NA,0,NA,0
"495","stim/objects/Instruments/musicsheet3.png",359,56,352,0.9,"stim/23.jpeg",2,3,3,2,"Instruments",1,4,"left","left",0.343999863,1,1,1,0,NA,NA,NA,NA,NA,NA,NA,NA,NA,NA,NA,NA,NA,NA,NA,NA,NA,NA,NA,NA,NA,NA,NA,NA
"333","stim/objects/HouseObjects/match3.png",360,56,353,0.9,"stim/12.jpeg",1,2,3,2,"HouseObjects",2,2,"right","left",0.661000013,0,0,1,0,NA,NA,NA,NA,NA,NA,NA,NA,NA,NA,NA,NA,NA,NA,NA,NA,NA,NA,NA,NA,NA,NA,NA,NA
"435","stim/objects/Instruments/cornet4.png",361,56,354,0.7,"stim/64.jpeg",6,4,2,1,"Instruments",1,1,"left","left",0.618000031,1,1,1,0,176,56,1,0.7,1,"stim/64.jpeg",6,4,"stim/64.jpeg",1,"right",0.901000023,3,2,2.556999922,3,1.259000063,176,0,0,NA,0,NA,0
"334","stim/objects/HouseObjects/match3.png",362,56,355,0.9,"stim/14.jpeg",1,4,3,2,"HouseObjects",2,3,"right","right",0.777999878,1,1,1,0,NA,NA,NA,NA,NA,NA,NA,NA,NA,NA,NA,NA,NA,NA,NA,NA,NA,NA,NA,NA,NA,NA,NA,NA
"351","stim/objects/HouseObjects/pan3.png",363,56,356,0.9,"stim/12.jpeg",1,2,3,2,"HouseObjects",2,1,"right","right",0.682999849,1,1,1,0,NA,NA,NA,NA,NA,NA,NA,NA,NA,NA,NA,NA,NA,NA,NA,NA,NA,NA,NA,NA,NA,NA,NA,NA
"549","stim/objects/Instruments/saxophone3.png",364,56,357,0.5,"stim/33.jpeg",3,3,1,1,"Instruments",1,3,"left","right",0.583999872,0,0,1,0,130,56,1,0.5,1,"stim/33.jpeg",3,3,"stim/33.jpeg",3,"left",1.149999857,3,2,5.967000008,2,2.188999891,130,1,0,0,0,0,0
"358","stim/objects/HouseObjects/pan4.png",365,56,358,0.9,"stim/12.jpeg",1,2,3,1,"HouseObjects",2,4,"right","right",0.568999767,1,1,1,0,45,56,1,0.9,2,"stim/12.jpeg",1,2,"stim/12.jpeg",4,"right",1.128000021,3,2,6.657999754,1,5.062999964,45,0,1,NA,0,NA,0
"400","stim/objects/HouseObjects/towel3.png",366,56,359,0.7,"stim/54.jpeg",5,4,2,1,"HouseObjects",2,2,"right","left",0.749000072,0,0,1,0,44,56,1,0.7,2,"stim/54.jpeg",5,4,"stim/54.jpeg",2,"left",1.431999922,4,1,4.457000017,4,3.609999895,44,1,0,0,0,0,0
"313","stim/objects/HouseObjects/lintroller3.png",367,56,360,0.9,"stim/12.jpeg",1,2,3,2,"HouseObjects",2,4,"right","right",0.519999743,1,1,1,0,NA,NA,NA,NA,NA,NA,NA,NA,NA,NA,NA,NA,NA,NA,NA,NA,NA,NA,NA,NA,NA,NA,NA,NA
"553","stim/objects/Instruments/tambourine3.png",368,56,361,0.5,"stim/42.jpeg",4,2,1,1,"Instruments",1,3,"left","left",0.618999958,1,1,1,0,194,56,1,0.5,2,"stim/42.jpeg",4,2,"stim/42.jpeg",3,"left",0.89199996,3,4,4.651000023,3,0.882999897,194,1,0,0,1,1,0
"295","stim/objects/HouseObjects/knife3.png",369,56,362,0.9,"stim/11.jpeg",1,1,3,2,"HouseObjects",2,3,"right","right",0.597999811,1,1,1,0,NA,NA,NA,NA,NA,NA,NA,NA,NA,NA,NA,NA,NA,NA,NA,NA,NA,NA,NA,NA,NA,NA,NA,NA
"496","stim/objects/Instruments/musicsheet3.png",370,56,363,0.9,"stim/24.jpeg",2,4,3,2,"Instruments",1,2,"left","left",0.552999735,1,1,1,0,NA,NA,NA,NA,NA,NA,NA,NA,NA,NA,NA,NA,NA,NA,NA,NA,NA,NA,NA,NA,NA,NA,NA,NA
"335","stim/objects/HouseObjects/match3.png",371,56,364,0.9,"stim/14.jpeg",1,4,3,2,"HouseObjects",2,3,"right","right",0.588999748,1,1,1,0,NA,NA,NA,NA,NA,NA,NA,NA,NA,NA,NA,NA,NA,NA,NA,NA,NA,NA,NA,NA,NA,NA,NA,NA
"497","stim/objects/Instruments/musicsheet3.png",372,56,365,0.9,"stim/21.jpeg",2,1,3,2,"Instruments",1,4,"left","left",0.635999918,1,1,1,0,NA,NA,NA,NA,NA,NA,NA,NA,NA,NA,NA,NA,NA,NA,NA,NA,NA,NA,NA,NA,NA,NA,NA,NA
"325","stim/objects/HouseObjects/match3.png",373,56,366,0.9,"stim/11.jpeg",1,1,3,2,"HouseObjects",2,1,"right","right",0.710000038,1,1,1,0,NA,NA,NA,NA,NA,NA,NA,NA,NA,NA,NA,NA,NA,NA,NA,NA,NA,NA,NA,NA,NA,NA,NA,NA
"419","stim/objects/Instruments/bassdrum3.png",374,56,367,0.5,"stim/31.jpeg",3,1,1,2,"Instruments",1,3,"left","right",0.65199995,0,0,1,0,NA,NA,NA,NA,NA,NA,NA,NA,NA,NA,NA,NA,NA,NA,NA,NA,NA,NA,NA,NA,NA,NA,NA,NA
"326","stim/objects/HouseObjects/match3.png",375,56,368,0.9,"stim/13.jpeg",1,3,3,2,"HouseObjects",2,2,"right","right",0.649999857,1,1,1,0,NA,NA,NA,NA,NA,NA,NA,NA,NA,NA,NA,NA,NA,NA,NA,NA,NA,NA,NA,NA,NA,NA,NA,NA
"296","stim/objects/HouseObjects/knife3.png",376,56,369,0.9,"stim/12.jpeg",1,2,3,2,"HouseObjects",2,3,"right","right",0.697999954,1,1,1,0,NA,NA,NA,NA,NA,NA,NA,NA,NA,NA,NA,NA,NA,NA,NA,NA,NA,NA,NA,NA,NA,NA,NA,NA
"297","stim/objects/HouseObjects/knife3.png",377,56,370,0.9,"stim/12.jpeg",1,2,3,2,"HouseObjects",2,1,"right","right",0.700000048,1,1,1,0,NA,NA,NA,NA,NA,NA,NA,NA,NA,NA,NA,NA,NA,NA,NA,NA,NA,NA,NA,NA,NA,NA,NA,NA
"483","stim/objects/Instruments/metronome3.png",378,56,371,0.9,"stim/21.jpeg",2,1,3,2,"Instruments",1,4,"left","left",0.674000025,1,1,1,0,NA,NA,NA,NA,NA,NA,NA,NA,NA,NA,NA,NA,NA,NA,NA,NA,NA,NA,NA,NA,NA,NA,NA,NA
"241","stim/objects/HouseObjects/ashtray3.png",379,56,372,0.5,"stim/34.jpeg",3,4,1,2,"HouseObjects",2,2,"right","left",0.737999916,0,0,1,0,NA,NA,NA,NA,NA,NA,NA,NA,NA,NA,NA,NA,NA,NA,NA,NA,NA,NA,NA,NA,NA,NA,NA,NA
"342","stim/objects/HouseObjects/pan3.png",380,56,373,0.9,"stim/11.jpeg",1,1,3,2,"HouseObjects",2,1,"right","right",0.588999748,1,1,1,0,NA,NA,NA,NA,NA,NA,NA,NA,NA,NA,NA,NA,NA,NA,NA,NA,NA,NA,NA,NA,NA,NA,NA,NA
"391","stim/objects/HouseObjects/sponge4.png",381,56,374,0.1,"stim/21.jpeg",2,1,3,1,"HouseObjects",2,3,"right","left",0.535999775,0,0,1,0,101,56,1,0.1,2,"stim/21.jpeg",2,1,"stim/21.jpeg",3,"left",0.980000019,3,4,5.440999985,2,5.16899991,101,1,0,0,0,0,0
"508","stim/objects/Instruments/musicstand3.png",382,56,375,0.9,"stim/21.jpeg",2,1,3,2,"Instruments",1,2,"left","left",0.659999847,1,1,1,0,NA,NA,NA,NA,NA,NA,NA,NA,NA,NA,NA,NA,NA,NA,NA,NA,NA,NA,NA,NA,NA,NA,NA,NA
"406","stim/objects/Instruments/accordion3.png",383,56,376,0.5,"stim/32.jpeg",3,2,1,2,"Instruments",1,1,"left","left",0.605000019,1,1,1,0,NA,NA,NA,NA,NA,NA,NA,NA,NA,NA,NA,NA,NA,NA,NA,NA,NA,NA,NA,NA,NA,NA,NA,NA
"491","stim/objects/Instruments/musicsheet3.png",384,56,377,0.9,"stim/21.jpeg",2,1,3,2,"Instruments",1,4,"left","left",0.66899991,1,1,1,0,NA,NA,NA,NA,NA,NA,NA,NA,NA,NA,NA,NA,NA,NA,NA,NA,NA,NA,NA,NA,NA,NA,NA,NA
"568","stim/objects/Instruments/vuvuzela4.png",385,56,378,0.9,"stim/21.jpeg",2,1,3,1,"Instruments",1,2,"left","left",0.553999901,1,1,1,0,126,56,1,0.9,1,"stim/21.jpeg",2,1,"stim/21.jpeg",2,"left",2.224999905,3,1,2.822999954,2,1.72699976,126,1,1,1,1,1,0
"541","stim/objects/Instruments/panflute3.png",386,56,379,0.5,"stim/33.jpeg",3,3,1,1,"Instruments",1,2,"left","left",0.649999857,1,1,1,0,199,56,1,0.5,1,"stim/33.jpeg",3,3,"stim/33.jpeg",2,"left",1.398999929,3,2,3.875999928,3,1.014999866,199,1,0,0,0,0,0
"474","stim/objects/Instruments/metronome3.png",387,56,380,0.9,"stim/24.jpeg",2,4,3,2,"Instruments",1,1,"left","left",0.663000107,1,1,1,0,NA,NA,NA,NA,NA,NA,NA,NA,NA,NA,NA,NA,NA,NA,NA,NA,NA,NA,NA,NA,NA,NA,NA,NA
"498","stim/objects/Instruments/musicsheet3.png",388,56,381,0.9,"stim/22.jpeg",2,2,3,2,"Instruments",1,4,"left","left",0.881999969,1,1,1,0,NA,NA,NA,NA,NA,NA,NA,NA,NA,NA,NA,NA,NA,NA,NA,NA,NA,NA,NA,NA,NA,NA,NA,NA
"570","stim/objects/Instruments/xylophone4.png",389,56,382,0.9,"stim/22.jpeg",2,2,3,1,"Instruments",1,4,"left","left",0.487999916,1,1,1,0,86,56,1,0.9,1,"stim/22.jpeg",2,2,"stim/22.jpeg",4,"right",0.995999813,1,1,2.519999981,2,5.210999727,86,0,0,NA,0,NA,0
"550","stim/objects/Instruments/saxophone4.png",390,56,383,0.1,"stim/12.jpeg",1,2,3,1,"Instruments",1,4,"left","right",0.708999872,0,0,1,0,19,56,1,0.1,1,"stim/12.jpeg",1,2,"stim/12.jpeg",4,"right",1.271999836,2,2,7.842999935,2,5.339999914,19,0,1,NA,0,NA,0
"448","stim/objects/Instruments/laud3.png",391,56,384,0.7,"stim/64.jpeg",6,4,2,2,"Instruments",1,3,"left","left",0.652999878,1,1,1,0,NA,NA,NA,NA,NA,NA,NA,NA,NA,NA,NA,NA,NA,NA,NA,NA,NA,NA,NA,NA,NA,NA,NA,NA
"310","stim/objects/HouseObjects/lintroller3.png",392,56,385,0.9,"stim/12.jpeg",1,2,3,2,"HouseObjects",2,1,"right","right",0.561000109,1,1,1,0,NA,NA,NA,NA,NA,NA,NA,NA,NA,NA,NA,NA,NA,NA,NA,NA,NA,NA,NA,NA,NA,NA,NA,NA
"299","stim/objects/HouseObjects/knife3.png",393,56,386,0.9,"stim/14.jpeg",1,4,3,2,"HouseObjects",2,4,"right","right",0.633000135,1,1,1,0,NA,NA,NA,NA,NA,NA,NA,NA,NA,NA,NA,NA,NA,NA,NA,NA,NA,NA,NA,NA,NA,NA,NA,NA
"468","stim/objects/Instruments/marimba3.png",394,56,387,0.9,"stim/21.jpeg",2,1,3,2,"Instruments",1,3,"left","left",0.622999907,1,1,1,0,NA,NA,NA,NA,NA,NA,NA,NA,NA,NA,NA,NA,NA,NA,NA,NA,NA,NA,NA,NA,NA,NA,NA,NA
"482","stim/objects/Instruments/metronome3.png",395,56,388,0.9,"stim/21.jpeg",2,1,3,2,"Instruments",1,3,"left","left",0.553999901,1,1,1,0,NA,NA,NA,NA,NA,NA,NA,NA,NA,NA,NA,NA,NA,NA,NA,NA,NA,NA,NA,NA,NA,NA,NA,NA
"383","stim/objects/HouseObjects/rug4.png",396,56,389,0.9,"stim/13.jpeg",1,3,3,1,"HouseObjects",2,2,"right","right",0.664999962,1,1,1,0,151,56,1,0.9,2,"stim/13.jpeg",1,3,"stim/13.jpeg",2,"right",0.906999826,2,4,6.683000088,1,2.938999891,151,0,0,NA,0,NA,0
"300","stim/objects/HouseObjects/knife3.png",397,56,390,0.9,"stim/13.jpeg",1,3,3,2,"HouseObjects",2,2,"right","right",0.423000097,1,1,1,0,NA,NA,NA,NA,NA,NA,NA,NA,NA,NA,NA,NA,NA,NA,NA,NA,NA,NA,NA,NA,NA,NA,NA,NA
"370","stim/objects/HouseObjects/pitcher3.png",398,56,391,0.9,"stim/12.jpeg",1,2,3,2,"HouseObjects",2,2,"right","right",0.584000111,1,1,1,0,NA,NA,NA,NA,NA,NA,NA,NA,NA,NA,NA,NA,NA,NA,NA,NA,NA,NA,NA,NA,NA,NA,NA,NA
"262","stim/objects/HouseObjects/broom3.png",399,56,392,0.5,"stim/44.jpeg",4,4,1,2,"HouseObjects",2,4,"right","right",0.640999794,1,1,1,0,NA,NA,NA,NA,NA,NA,NA,NA,NA,NA,NA,NA,NA,NA,NA,NA,NA,NA,NA,NA,NA,NA,NA,NA
"455","stim/objects/Instruments/maraca4.png",400,56,393,0.7,"stim/61.jpeg",6,1,2,1,"Instruments",1,4,"left","left",0.656000137,1,1,1,0,142,56,1,0.7,1,"stim/61.jpeg",6,1,"stim/61.jpeg",4,"right",9.77699995,3,4,3.921000004,3,1.54399991,142,0,0,NA,0,NA,0
"301","stim/objects/HouseObjects/knife3.png",401,56,394,0.9,"stim/14.jpeg",1,4,3,2,"HouseObjects",2,1,"right","right",0.65199995,1,1,1,0,NA,NA,NA,NA,NA,NA,NA,NA,NA,NA,NA,NA,NA,NA,NA,NA,NA,NA,NA,NA,NA,NA,NA,NA
"433","stim/objects/Instruments/cornet3.png",402,56,395,0.5,"stim/43.jpeg",4,3,1,2,"Instruments",1,3,"left","left",0.667999983,1,1,1,0,NA,NA,NA,NA,NA,NA,NA,NA,NA,NA,NA,NA,NA,NA,NA,NA,NA,NA,NA,NA,NA,NA,NA,NA
"443","stim/objects/Instruments/doublebass4.png",403,56,396,0.7,"stim/62.jpeg",6,2,2,1,"Instruments",1,3,"left","right",0.635999918,0,0,1,0,85,56,1,0.7,1,"stim/62.jpeg",6,2,"stim/62.jpeg",3,"right",0.934999943,2,1,9.142999887,3,2.273999929,85,0,0,NA,1,NA,0
"557","stim/objects/Instruments/triangle3.png",404,56,397,0.5,"stim/44.jpeg",4,4,1,1,"Instruments",1,1,"left","right",0.557999849,0,0,1,0,128,56,1,0.5,2,"stim/44.jpeg",4,4,"stim/44.jpeg",1,"left",1.684000015,3,2,2.046999931,2,1.962000132,128,1,0,0,0,0,0
"280","stim/objects/HouseObjects/iron3.png",405,56,398,0.7,"stim/52.jpeg",5,2,2,2,"HouseObjects",2,4,"right","right",0.65199995,1,1,1,0,NA,NA,NA,NA,NA,NA,NA,NA,NA,NA,NA,NA,NA,NA,NA,NA,NA,NA,NA,NA,NA,NA,NA,NA
"361","stim/objects/HouseObjects/pitcher3.png",406,56,399,0.9,"stim/13.jpeg",1,3,3,2,"HouseObjects",2,4,"right","right",0.639999866,1,1,1,0,NA,NA,NA,NA,NA,NA,NA,NA,NA,NA,NA,NA,NA,NA,NA,NA,NA,NA,NA,NA,NA,NA,NA,NA
"402","stim/objects/HouseObjects/vacuumcleaner3.png",407,56,400,0.7,"stim/51.jpeg",5,1,2,1,"HouseObjects",2,1,"right","left",0.686999798,0,0,1,0,31,56,1,0.7,2,"stim/51.jpeg",5,1,"stim/51.jpeg",1,"right",4.86199975,3,4,10.05500007,3,5.432999849,31,0,0,NA,0,NA,0
"314","stim/objects/HouseObjects/lintroller3.png",408,56,401,0.9,"stim/13.jpeg",1,3,3,2,"HouseObjects",2,4,"right","right",0.564999819,1,1,1,0,NA,NA,NA,NA,NA,NA,NA,NA,NA,NA,NA,NA,NA,NA,NA,NA,NA,NA,NA,NA,NA,NA,NA,NA
"446","stim/objects/Instruments/keyboard3.png",409,56,402,0.7,"stim/61.jpeg",6,1,2,2,"Instruments",1,1,"left","left",0.613999844,1,1,1,0,NA,NA,NA,NA,NA,NA,NA,NA,NA,NA,NA,NA,NA,NA,NA,NA,NA,NA,NA,NA,NA,NA,NA,NA
"371","stim/objects/HouseObjects/pitcher3.png",410,56,403,0.9,"stim/12.jpeg",1,2,3,2,"HouseObjects",2,2,"right","right",0.612999916,1,1,1,0,NA,NA,NA,NA,NA,NA,NA,NA,NA,NA,NA,NA,NA,NA,NA,NA,NA,NA,NA,NA,NA,NA,NA,NA
"346","stim/objects/HouseObjects/pan3.png",411,56,404,0.9,"stim/14.jpeg",1,4,3,2,"HouseObjects",2,3,"right","right",0.697999954,1,1,1,0,NA,NA,NA,NA,NA,NA,NA,NA,NA,NA,NA,NA,NA,NA,NA,NA,NA,NA,NA,NA,NA,NA,NA,NA
"563","stim/objects/Instruments/tuba3.png",412,56,405,0.3,"stim/52.jpeg",5,2,2,1,"Instruments",1,4,"left","right",0.672999859,0,0,1,0,11,56,1,0.3,1,"stim/52.jpeg",5,2,"stim/52.jpeg",4,"left",2.677000046,3,3,14.61699986,3,7.73300004,11,1,0,0,0,0,0
"327","stim/objects/HouseObjects/match3.png",413,56,406,0.9,"stim/12.jpeg",1,2,3,2,"HouseObjects",2,2,"right","right",0.789999962,1,1,1,0,NA,NA,NA,NA,NA,NA,NA,NA,NA,NA,NA,NA,NA,NA,NA,NA,NA,NA,NA,NA,NA,NA,NA,NA
"486","stim/objects/Instruments/metronome3.png",414,56,407,0.9,"stim/24.jpeg",2,4,3,2,"Instruments",1,3,"left","left",0.558000088,1,1,1,0,NA,NA,NA,NA,NA,NA,NA,NA,NA,NA,NA,NA,NA,NA,NA,NA,NA,NA,NA,NA,NA,NA,NA,NA
"282","stim/objects/HouseObjects/iron4.png",415,56,408,0.3,"stim/61.jpeg",6,1,2,1,"HouseObjects",2,1,"right","right",0.570999861,1,1,1,0,124,56,1,0.3,2,"stim/61.jpeg",6,1,"stim/61.jpeg",1,"left",1.439999819,4,2,5.088999987,2,1.911000013,124,1,0,0,0,0,0
"387","stim/objects/HouseObjects/saw4.png",416,56,409,0.1,"stim/23.jpeg",2,3,3,1,"HouseObjects",2,2,"right","left",0.546000004,0,0,1,0,164,56,1,0.1,2,"stim/23.jpeg",2,3,"stim/23.jpeg",2,"left",1.02699995,3,1,2.47300005,2,2.105999947,164,1,0,0,1,1,0
"478","stim/objects/Instruments/metronome3.png",417,56,410,0.9,"stim/22.jpeg",2,2,3,2,"Instruments",1,4,"left","left",0.667999983,1,1,1,0,NA,NA,NA,NA,NA,NA,NA,NA,NA,NA,NA,NA,NA,NA,NA,NA,NA,NA,NA,NA,NA,NA,NA,NA
"285","stim/objects/HouseObjects/ironingboard3.png",418,56,411,0.7,"stim/52.jpeg",5,2,2,2,"HouseObjects",2,3,"right","right",0.552999973,1,1,1,0,NA,NA,NA,NA,NA,NA,NA,NA,NA,NA,NA,NA,NA,NA,NA,NA,NA,NA,NA,NA,NA,NA,NA,NA
"548","stim/objects/Instruments/record4.png",419,56,412,0.1,"stim/14.jpeg",1,4,3,1,"Instruments",1,3,"left","right",0.519999981,0,0,1,0,9,56,1,0.1,1,"stim/14.jpeg",1,4,"stim/14.jpeg",3,"left",3.170000076,2,4,4.254999876,4,4.502000093,9,1,1,1,0,0,0
"431","stim/objects/Instruments/clarinet3.png",420,56,413,0.5,"stim/43.jpeg",4,3,1,2,"Instruments",1,2,"left","left",0.458999872,1,1,1,0,NA,NA,NA,NA,NA,NA,NA,NA,NA,NA,NA,NA,NA,NA,NA,NA,NA,NA,NA,NA,NA,NA,NA,NA
"279","stim/objects/HouseObjects/iron3.png",421,56,414,0.7,"stim/53.jpeg",5,3,2,2,"HouseObjects",2,3,"right","right",0.49000001,1,1,1,0,NA,NA,NA,NA,NA,NA,NA,NA,NA,NA,NA,NA,NA,NA,NA,NA,NA,NA,NA,NA,NA,NA,NA,NA
"411","stim/objects/Instruments/acousticguitar4.png",422,56,415,0.3,"stim/53.jpeg",5,3,2,1,"Instruments",1,3,"left","right",0.414999962,0,0,1,0,123,56,1,0.3,1,"stim/53.jpeg",5,3,"stim/53.jpeg",3,"left",1.316999912,2,3,6.820999861,2,1.76699996,123,1,1,1,0,0,0
"355","stim/objects/HouseObjects/pan3.png",423,56,416,0.9,"stim/13.jpeg",1,3,3,2,"HouseObjects",2,3,"right","left",0.710000038,0,0,1,0,NA,NA,NA,NA,NA,NA,NA,NA,NA,NA,NA,NA,NA,NA,NA,NA,NA,NA,NA,NA,NA,NA,NA,NA
"459","stim/objects/Instruments/marimba3.png",424,56,417,0.9,"stim/22.jpeg",2,2,3,2,"Instruments",1,3,"left","right",0.687999964,0,0,1,0,NA,NA,NA,NA,NA,NA,NA,NA,NA,NA,NA,NA,NA,NA,NA,NA,NA,NA,NA,NA,NA,NA,NA,NA
"517","stim/objects/Instruments/musicstand3.png",425,56,418,0.9,"stim/21.jpeg",2,1,3,2,"Instruments",1,3,"left","left",0.690999985,1,1,1,0,NA,NA,NA,NA,NA,NA,NA,NA,NA,NA,NA,NA,NA,NA,NA,NA,NA,NA,NA,NA,NA,NA,NA,NA
"511","stim/objects/Instruments/musicstand3.png",426,56,419,0.9,"stim/23.jpeg",2,3,3,2,"Instruments",1,4,"left","left",0.452000141,1,1,1,0,NA,NA,NA,NA,NA,NA,NA,NA,NA,NA,NA,NA,NA,NA,NA,NA,NA,NA,NA,NA,NA,NA,NA,NA
"512","stim/objects/Instruments/musicstand3.png",427,56,420,0.9,"stim/23.jpeg",2,3,3,2,"Instruments",1,3,"left","left",0.402999878,1,1,1,0,NA,NA,NA,NA,NA,NA,NA,NA,NA,NA,NA,NA,NA,NA,NA,NA,NA,NA,NA,NA,NA,NA,NA,NA
"290","stim/objects/HouseObjects/key4.png",428,56,421,0.3,"stim/63.jpeg",6,3,2,1,"HouseObjects",2,1,"right","right",0.608999968,1,1,1,0,89,56,1,0.3,2,"stim/63.jpeg",6,3,"stim/63.jpeg",1,"right",0.911999941,3,2,3.865999937,2,3.702000141,89,0,0,NA,0,NA,0
"315","stim/objects/HouseObjects/lintroller3.png",429,56,422,0.9,"stim/11.jpeg",1,1,3,2,"HouseObjects",2,1,"right","right",0.655999899,1,1,1,0,NA,NA,NA,NA,NA,NA,NA,NA,NA,NA,NA,NA,NA,NA,NA,NA,NA,NA,NA,NA,NA,NA,NA,NA
"547","stim/objects/Instruments/record3.png",430,56,423,0.5,"stim/31.jpeg",3,1,1,1,"Instruments",1,4,"left","right",0.65199995,0,0,1,0,181,56,1,0.5,1,"stim/31.jpeg",3,1,"stim/31.jpeg",4,"right",1.80099988,2,2,2.840999842,2,2.184000015,181,0,0,NA,0,NA,0
"426","stim/objects/Instruments/cello4.png",431,56,424,0.7,"stim/61.jpeg",6,1,2,1,"Instruments",1,4,"left","right",0.661999941,0,0,1,0,191,56,1,0.7,1,"stim/61.jpeg",6,1,"stim/61.jpeg",4,"left",1.01699996,4,1,5.101000071,2,1.20600009,191,1,1,1,0,0,0
"372","stim/objects/HouseObjects/pitcher3.png",432,56,425,0.9,"stim/14.jpeg",1,4,3,2,"HouseObjects",2,1,"right","right",0.536000013,1,1,1,0,NA,NA,NA,NA,NA,NA,NA,NA,NA,NA,NA,NA,NA,NA,NA,NA,NA,NA,NA,NA,NA,NA,NA,NA
"318","stim/objects/HouseObjects/lintroller3.png",433,56,426,0.9,"stim/14.jpeg",1,4,3,2,"HouseObjects",2,1,"right","right",0.489999771,1,1,1,0,NA,NA,NA,NA,NA,NA,NA,NA,NA,NA,NA,NA,NA,NA,NA,NA,NA,NA,NA,NA,NA,NA,NA,NA
"561","stim/objects/Instruments/trumpet3.png",434,56,427,0.3,"stim/51.jpeg",5,1,2,1,"Instruments",1,2,"left","left",0.55099988,1,1,1,0,87,56,1,0.3,1,"stim/51.jpeg",5,1,"stim/51.jpeg",2,"right",1.152999878,3,1,3.573999882,3,5.769999743,87,0,1,NA,0,NA,0
"348","stim/objects/HouseObjects/pan3.png",435,56,428,0.9,"stim/14.jpeg",1,4,3,2,"HouseObjects",2,4,"right","right",0.631999969,1,1,1,0,NA,NA,NA,NA,NA,NA,NA,NA,NA,NA,NA,NA,NA,NA,NA,NA,NA,NA,NA,NA,NA,NA,NA,NA
"412","stim/objects/Instruments/balalaika3.png",436,56,429,0.5,"stim/34.jpeg",3,4,1,2,"Instruments",1,4,"left","right",0.485999823,0,0,1,0,NA,NA,NA,NA,NA,NA,NA,NA,NA,NA,NA,NA,NA,NA,NA,NA,NA,NA,NA,NA,NA,NA,NA,NA
"479","stim/objects/Instruments/metronome3.png",437,56,430,0.9,"stim/24.jpeg",2,4,3,2,"Instruments",1,1,"left","right",0.049999952,0,0,1,0,NA,NA,NA,NA,NA,NA,NA,NA,NA,NA,NA,NA,NA,NA,NA,NA,NA,NA,NA,NA,NA,NA,NA,NA
"304","stim/objects/HouseObjects/knife3.png",438,56,431,0.9,"stim/11.jpeg",1,1,3,2,"HouseObjects",2,3,"right","right",0.590999842,1,1,1,0,NA,NA,NA,NA,NA,NA,NA,NA,NA,NA,NA,NA,NA,NA,NA,NA,NA,NA,NA,NA,NA,NA,NA,NA
"438","stim/objects/Instruments/cymbal3.png",439,56,432,0.7,"stim/63.jpeg",6,3,2,2,"Instruments",1,1,"left","right",0.53399992,0,0,1,0,NA,NA,NA,NA,NA,NA,NA,NA,NA,NA,NA,NA,NA,NA,NA,NA,NA,NA,NA,NA,NA,NA,NA,NA
"536","stim/objects/Instruments/oboe3.png",440,56,433,0.9,"stim/24.jpeg",2,4,3,2,"Instruments",1,1,"left","left",0.608999968,1,1,1,0,NA,NA,NA,NA,NA,NA,NA,NA,NA,NA,NA,NA,NA,NA,NA,NA,NA,NA,NA,NA,NA,NA,NA,NA
"428","stim/objects/Instruments/chime3.png",441,56,434,0.5,"stim/42.jpeg",4,2,1,2,"Instruments",1,4,"left","right",0.639999866,0,0,1,0,NA,NA,NA,NA,NA,NA,NA,NA,NA,NA,NA,NA,NA,NA,NA,NA,NA,NA,NA,NA,NA,NA,NA,NA
"260","stim/objects/HouseObjects/bottle3.png",442,56,435,0.5,"stim/44.jpeg",4,4,1,2,"HouseObjects",2,2,"right","left",0.590000153,0,0,1,0,NA,NA,NA,NA,NA,NA,NA,NA,NA,NA,NA,NA,NA,NA,NA,NA,NA,NA,NA,NA,NA,NA,NA,NA
"485","stim/objects/Instruments/metronome3.png",443,56,436,0.9,"stim/23.jpeg",2,3,3,2,"Instruments",1,2,"left","left",0.552000046,1,1,1,0,NA,NA,NA,NA,NA,NA,NA,NA,NA,NA,NA,NA,NA,NA,NA,NA,NA,NA,NA,NA,NA,NA,NA,NA
"377","stim/objects/HouseObjects/recyclingbin4.png",444,56,437,0.9,"stim/14.jpeg",1,4,3,1,"HouseObjects",2,3,"right","right",0.735000134,1,1,1,0,112,56,1,0.9,2,"stim/14.jpeg",1,4,"stim/14.jpeg",3,"left",1.954999924,3,3,4.079999924,3,3.846999884,112,1,0,0,1,1,0
"447","stim/objects/Instruments/keyboard4.png",445,56,438,0.7,"stim/63.jpeg",6,3,2,1,"Instruments",1,2,"left","left",0.680000067,1,1,1,0,71,56,1,0.7,1,"stim/63.jpeg",6,3,"stim/63.jpeg",2,"left",2.380000114,4,1,3.496999979,2,3.644999743,71,1,0,0,1,1,0
"424","stim/objects/Instruments/cello3.png",446,56,439,0.5,"stim/44.jpeg",4,4,1,2,"Instruments",1,3,"left","left",0.67599988,1,1,1,0,NA,NA,NA,NA,NA,NA,NA,NA,NA,NA,NA,NA,NA,NA,NA,NA,NA,NA,NA,NA,NA,NA,NA,NA
"434","stim/objects/Instruments/cornet3.png",447,56,440,0.5,"stim/44.jpeg",4,4,1,2,"Instruments",1,4,"left","right",0.691999912,0,0,1,0,NA,NA,NA,NA,NA,NA,NA,NA,NA,NA,NA,NA,NA,NA,NA,NA,NA,NA,NA,NA,NA,NA,NA,NA
"389","stim/objects/HouseObjects/scale4.png",448,56,441,0.1,"stim/24.jpeg",2,4,3,1,"HouseObjects",2,2,"right","left",0.519999743,0,0,1,0,172,56,1,0.1,2,"stim/24.jpeg",2,4,"stim/24.jpeg",2,"left",1.017999887,3,4,4.564999819,1,1.790999889,172,1,1,1,0,0,0
"414","stim/objects/Instruments/balalaika4.png",449,56,442,0.3,"stim/54.jpeg",5,4,2,1,"Instruments",1,4,"left","right",0.61199975,0,0,1,0,63,56,1,0.3,1,"stim/54.jpeg",5,4,"stim/54.jpeg",4,"left",0.990999937,3,2,6.447999954,1,2.493999958,63,1,0,0,0,0,0
"503","stim/objects/Instruments/musicsheet3.png",450,56,443,0.9,"stim/22.jpeg",2,2,3,2,"Instruments",1,3,"left","left",0.503999949,1,1,1,0,NA,NA,NA,NA,NA,NA,NA,NA,NA,NA,NA,NA,NA,NA,NA,NA,NA,NA,NA,NA,NA,NA,NA,NA
"452","stim/objects/Instruments/maraca3.png",451,56,444,0.7,"stim/63.jpeg",6,3,2,2,"Instruments",1,3,"left","left",0.569999933,1,1,1,0,NA,NA,NA,NA,NA,NA,NA,NA,NA,NA,NA,NA,NA,NA,NA,NA,NA,NA,NA,NA,NA,NA,NA,NA
"390","stim/objects/HouseObjects/sponge3.png",452,56,445,0.5,"stim/42.jpeg",4,2,1,1,"HouseObjects",2,2,"right","left",0.552999973,0,0,1,0,170,56,1,0.5,2,"stim/42.jpeg",4,2,"stim/42.jpeg",2,"left",1.199999809,4,3,3.22300005,2,2.384000063,170,1,0,0,1,1,0
"546","stim/objects/Instruments/record_player4.png",453,56,446,0.1,"stim/11.jpeg",1,1,3,1,"Instruments",1,1,"left","right",0.615999937,0,0,1,0,153,56,1,0.1,1,"stim/11.jpeg",1,1,"stim/11.jpeg",1,"left",1.717999935,2,2,3.621999979,3,1.26699996,153,1,0,0,0,0,0
"462","stim/objects/Instruments/marimba3.png",454,56,447,0.9,"stim/21.jpeg",2,1,3,2,"Instruments",1,2,"left","left",0.506999969,1,1,1,0,NA,NA,NA,NA,NA,NA,NA,NA,NA,NA,NA,NA,NA,NA,NA,NA,NA,NA,NA,NA,NA,NA,NA,NA
"316","stim/objects/HouseObjects/lintroller3.png",455,56,448,0.9,"stim/14.jpeg",1,4,3,2,"HouseObjects",2,2,"right","left",0.68900013,0,0,1,0,NA,NA,NA,NA,NA,NA,NA,NA,NA,NA,NA,NA,NA,NA,NA,NA,NA,NA,NA,NA,NA,NA,NA,NA
"463","stim/objects/Instruments/marimba3.png",456,56,449,0.9,"stim/24.jpeg",2,4,3,2,"Instruments",1,1,"left","left",0.678999901,1,1,1,0,NA,NA,NA,NA,NA,NA,NA,NA,NA,NA,NA,NA,NA,NA,NA,NA,NA,NA,NA,NA,NA,NA,NA,NA
"538","stim/objects/Instruments/oboe3.png",457,56,450,0.9,"stim/23.jpeg",2,3,3,2,"Instruments",1,3,"left","left",0.637999773,1,1,1,0,NA,NA,NA,NA,NA,NA,NA,NA,NA,NA,NA,NA,NA,NA,NA,NA,NA,NA,NA,NA,NA,NA,NA,NA
"242","stim/objects/HouseObjects/ashtray3.png",458,56,451,0.5,"stim/31.jpeg",3,1,1,2,"HouseObjects",2,4,"right","right",0.621999979,1,1,1,0,NA,NA,NA,NA,NA,NA,NA,NA,NA,NA,NA,NA,NA,NA,NA,NA,NA,NA,NA,NA,NA,NA,NA,NA
"502","stim/objects/Instruments/musicsheet3.png",459,56,452,0.9,"stim/24.jpeg",2,4,3,2,"Instruments",1,2,"left","left",0.549000025,1,1,1,0,NA,NA,NA,NA,NA,NA,NA,NA,NA,NA,NA,NA,NA,NA,NA,NA,NA,NA,NA,NA,NA,NA,NA,NA
"306","stim/objects/HouseObjects/knife3.png",460,56,453,0.9,"stim/14.jpeg",1,4,3,2,"HouseObjects",2,2,"right","",NA,0,0,1,0,NA,NA,NA,NA,NA,NA,NA,NA,NA,NA,NA,NA,NA,NA,NA,NA,NA,NA,NA,NA,NA,NA,NA,NA
"469","stim/objects/Instruments/marimba3.png",461,56,454,0.9,"stim/21.jpeg",2,1,3,2,"Instruments",1,2,"left","left",0.529000044,1,1,1,0,NA,NA,NA,NA,NA,NA,NA,NA,NA,NA,NA,NA,NA,NA,NA,NA,NA,NA,NA,NA,NA,NA,NA,NA
"410","stim/objects/Instruments/acousticguitar3.png",462,56,455,0.5,"stim/32.jpeg",3,2,1,2,"Instruments",1,2,"left","left",0.569000006,1,1,1,0,NA,NA,NA,NA,NA,NA,NA,NA,NA,NA,NA,NA,NA,NA,NA,NA,NA,NA,NA,NA,NA,NA,NA,NA
"559","stim/objects/Instruments/trombone3.png",463,56,456,0.5,"stim/41.jpeg",4,1,1,1,"Instruments",1,3,"left","right",0.63499999,0,0,1,0,32,56,1,0.5,2,"stim/41.jpeg",4,1,"stim/41.jpeg",3,"left",1.439999819,4,1,7.57799983,2,14.18199992,32,1,1,1,0,0,0
"450","stim/objects/Instruments/laud3.png",464,56,457,0.7,"stim/62.jpeg",6,2,2,2,"Instruments",1,3,"left","left",0.660999775,1,1,1,0,NA,NA,NA,NA,NA,NA,NA,NA,NA,NA,NA,NA,NA,NA,NA,NA,NA,NA,NA,NA,NA,NA,NA,NA
"449","stim/objects/Instruments/laud3.png",465,56,458,0.7,"stim/61.jpeg",6,1,2,2,"Instruments",1,3,"left","right",0.60800004,0,0,1,0,NA,NA,NA,NA,NA,NA,NA,NA,NA,NA,NA,NA,NA,NA,NA,NA,NA,NA,NA,NA,NA,NA,NA,NA
"533","stim/objects/Instruments/oboe3.png",466,56,459,0.9,"stim/23.jpeg",2,3,3,2,"Instruments",1,1,"left","left",0.521999836,1,1,1,0,NA,NA,NA,NA,NA,NA,NA,NA,NA,NA,NA,NA,NA,NA,NA,NA,NA,NA,NA,NA,NA,NA,NA,NA
