"","participant","trialN","trial_cond","scn_file","scn_cat","scn_inst","scn_condition","fillers","obj_cat","obj_cat_num","obj_file","quadrant","corr_ans","key_resp_trial.keys","key_resp_trial.rt","trial_acc","trial_acc_manual","group"
"248",56,241,0.9,"stim/22.jpeg",2,2,3,2,"Instruments",1,"stim/objects/Instruments/marimba3.png",4,"left","",NA,0,0,1
"249",56,242,0.5,"stim/43.jpeg",4,3,1,2,"HouseObjects",2,"stim/objects/HouseObjects/clock3.png",1,"right","right",0.563999891,1,1,1
"250",56,243,0.9,"stim/13.jpeg",1,3,3,2,"HouseObjects",2,"stim/objects/HouseObjects/lintroller3.png",2,"right","right",0.608999968,1,1,1
"251",56,244,0.9,"stim/22.jpeg",2,2,3,2,"Instruments",1,"stim/objects/Instruments/oboe3.png",4,"left","right",0.601000071,0,0,1
"252",56,245,0.5,"stim/34.jpeg",3,4,1,1,"Instruments",1,"stim/objects/Instruments/pipepiano3.png",2,"left","right",0.549000025,0,0,1
"253",56,246,0.9,"stim/22.jpeg",2,2,3,2,"Instruments",1,"stim/objects/Instruments/oboe3.png",4,"left","left",0.635999918,1,1,1
"254",56,247,0.1,"stim/12.jpeg",1,2,3,1,"Instruments",1,"stim/objects/Instruments/metronome4.png",4,"left","right",0.610999823,0,0,1
"255",56,248,0.9,"stim/24.jpeg",2,4,3,2,"Instruments",1,"stim/objects/Instruments/musicsheet3.png",1,"left","left",0.622999907,1,1,1
"256",56,249,0.9,"stim/23.jpeg",2,3,3,2,"Instruments",1,"stim/objects/Instruments/metronome3.png",4,"left","left",0.55099988,1,1,1
"257",56,250,0.9,"stim/12.jpeg",1,2,3,2,"HouseObjects",2,"stim/objects/HouseObjects/pitcher3.png",1,"right","right",0.699999809,1,1,1
"258",56,251,0.3,"stim/62.jpeg",6,2,2,1,"HouseObjects",2,"stim/objects/HouseObjects/blender4.png",1,"right","left",0.613999844,0,0,1
"259",56,252,0.1,"stim/24.jpeg",2,4,3,1,"HouseObjects",2,"stim/objects/HouseObjects/thermometer4.png",1,"right","left",0.565000057,0,0,1
"260",56,253,0.9,"stim/24.jpeg",2,4,3,2,"Instruments",1,"stim/objects/Instruments/musicstand3.png",3,"left","left",0.536999941,1,1,1
"261",56,254,0.1,"stim/13.jpeg",1,3,3,1,"Instruments",1,"stim/objects/Instruments/musicsheet4.png",1,"left","right",0.53399992,0,0,1
"262",56,255,0.7,"stim/52.jpeg",5,2,2,1,"HouseObjects",2,"stim/objects/HouseObjects/wateringcan3.png",4,"right","",NA,0,0,1
"263",56,256,0.9,"stim/11.jpeg",1,1,3,1,"HouseObjects",2,"stim/objects/HouseObjects/match4.png",2,"right","right",0.666999817,1,1,1
"264",56,257,0.5,"stim/42.jpeg",4,2,1,2,"HouseObjects",2,"stim/objects/HouseObjects/blender3.png",1,"right","left",0.614000082,0,0,1
"265",56,258,0.7,"stim/63.jpeg",6,3,2,2,"Instruments",1,"stim/objects/Instruments/keyboard3.png",2,"left","left",0.498999834,1,1,1
"266",56,259,0.7,"stim/53.jpeg",5,3,2,1,"HouseObjects",2,"stim/objects/HouseObjects/thread3.png",1,"right","right",0.552000046,1,1,1
"267",56,260,0.9,"stim/11.jpeg",1,1,3,2,"HouseObjects",2,"stim/objects/HouseObjects/lintroller3.png",2,"right","right",0.621999979,1,1,1
"268",56,261,0.9,"stim/23.jpeg",2,3,3,1,"Instruments",1,"stim/objects/Instruments/timbal4.png",1,"left","left",0.717999935,1,1,1
"269",56,262,0.9,"stim/13.jpeg",1,3,3,2,"HouseObjects",2,"stim/objects/HouseObjects/pan3.png",1,"right","right",0.606999874,1,1,1
"270",56,263,0.5,"stim/41.jpeg",4,1,1,2,"Instruments",1,"stim/objects/Instruments/chime3.png",2,"left","left",0.552000046,1,1,1
"271",56,264,0.1,"stim/24.jpeg",2,4,3,1,"HouseObjects",2,"stim/objects/HouseObjects/wateringcan4.png",4,"right","left",0.618999958,0,0,1
"272",56,265,0.9,"stim/14.jpeg",1,4,3,2,"HouseObjects",2,"stim/objects/HouseObjects/pan3.png",3,"right","right",0.621999979,1,1,1
"273",56,266,0.7,"stim/64.jpeg",6,4,2,2,"Instruments",1,"stim/objects/Instruments/keyboard3.png",2,"left","left",0.586999893,1,1,1
"274",56,267,0.9,"stim/23.jpeg",2,3,3,2,"Instruments",1,"stim/objects/Instruments/musicsheet3.png",1,"left","left",0.582999706,1,1,1
"275",56,268,0.9,"stim/23.jpeg",2,3,3,1,"Instruments",1,"stim/objects/Instruments/tuba4.png",3,"left","left",0.484999895,1,1,1
"276",56,269,0.9,"stim/11.jpeg",1,1,3,2,"HouseObjects",2,"stim/objects/HouseObjects/knife3.png",4,"right","right",0.597999811,1,1,1
"277",56,270,0.9,"stim/22.jpeg",2,2,3,2,"Instruments",1,"stim/objects/Instruments/oboe3.png",1,"left","left",0.582999945,1,1,1
"278",56,271,0.5,"stim/34.jpeg",3,4,1,1,"HouseObjects",2,"stim/objects/HouseObjects/rubbergloves3.png",3,"right","right",0.572999716,1,1,1
"279",56,272,0.1,"stim/22.jpeg",2,2,3,1,"HouseObjects",2,"stim/objects/HouseObjects/spraybottle4.png",1,"right","left",0.534999847,0,0,1
"280",56,273,0.9,"stim/22.jpeg",2,2,3,2,"Instruments",1,"stim/objects/Instruments/marimba3.png",2,"left","left",0.460999966,1,1,1
"281",56,274,0.9,"stim/13.jpeg",1,3,3,2,"HouseObjects",2,"stim/objects/HouseObjects/pan3.png",3,"right","left",0.609999895,0,0,1
"282",56,275,0.9,"stim/21.jpeg",2,1,3,2,"Instruments",1,"stim/objects/Instruments/metronome3.png",2,"left","left",0.532000065,1,1,1
"283",56,276,0.9,"stim/21.jpeg",2,1,3,2,"Instruments",1,"stim/objects/Instruments/musicsheet3.png",3,"left","left",0.608999968,1,1,1
"284",56,277,0.9,"stim/11.jpeg",1,1,3,2,"HouseObjects",2,"stim/objects/HouseObjects/pitcher3.png",2,"right","right",0.530999899,1,1,1
"285",56,278,0.5,"stim/32.jpeg",3,2,1,1,"HouseObjects",2,"stim/objects/HouseObjects/recyclingbin3.png",3,"right","left",0.684999943,0,0,1
"286",56,279,0.9,"stim/24.jpeg",2,4,3,2,"Instruments",1,"stim/objects/Instruments/musicstand3.png",3,"left","left",0.691999912,1,1,1
"287",56,280,0.7,"stim/51.jpeg",5,1,2,2,"HouseObjects",2,"stim/objects/HouseObjects/key3.png",3,"right","right",0.571999788,1,1,1
"288",56,281,0.9,"stim/23.jpeg",2,3,3,2,"Instruments",1,"stim/objects/Instruments/marimba3.png",2,"left","left",0.549000025,1,1,1
"289",56,282,0.9,"stim/13.jpeg",1,3,3,2,"HouseObjects",2,"stim/objects/HouseObjects/knife3.png",4,"right","right",0.59499979,1,1,1
"290",56,283,0.5,"stim/32.jpeg",3,2,1,1,"HouseObjects",2,"stim/objects/HouseObjects/safetypin3.png",3,"right","left",0.638000011,0,0,1
"291",56,284,0.1,"stim/12.jpeg",1,2,3,1,"Instruments",1,"stim/objects/Instruments/panflute4.png",3,"left","left",0.707999945,1,1,1
"292",56,285,0.5,"stim/44.jpeg",4,4,1,1,"HouseObjects",2,"stim/objects/HouseObjects/teapot3.png",3,"right","right",0.532999992,1,1,1
"293",56,286,0.5,"stim/32.jpeg",3,2,1,2,"Instruments",1,"stim/objects/Instruments/bassdrum3.png",1,"left","right",0.585000038,0,0,1
"294",56,287,0.9,"stim/22.jpeg",2,2,3,2,"Instruments",1,"stim/objects/Instruments/metronome3.png",1,"left","left",0.570999861,1,1,1
"295",56,288,0.9,"stim/23.jpeg",2,3,3,2,"Instruments",1,"stim/objects/Instruments/oboe3.png",3,"left","left",0.583999872,1,1,1
"296",56,289,0.3,"stim/62.jpeg",6,2,2,1,"HouseObjects",2,"stim/objects/HouseObjects/clock4.png",2,"right","left",0.582999945,0,0,1
"297",56,290,0.9,"stim/11.jpeg",1,1,3,2,"HouseObjects",2,"stim/objects/HouseObjects/pitcher3.png",4,"right","right",0.684999704,1,1,1
"298",56,291,0.5,"stim/43.jpeg",4,3,1,2,"HouseObjects",2,"stim/objects/HouseObjects/bottle3.png",4,"right","right",0.549999952,1,1,1
"299",56,292,0.9,"stim/13.jpeg",1,3,3,2,"HouseObjects",2,"stim/objects/HouseObjects/match3.png",4,"right","right",0.657999992,1,1,1
"300",56,293,0.9,"stim/11.jpeg",1,1,3,2,"HouseObjects",2,"stim/objects/HouseObjects/lintroller3.png",3,"right","left",0.600999832,0,0,1
"301",56,294,0.9,"stim/14.jpeg",1,4,3,2,"HouseObjects",2,"stim/objects/HouseObjects/pitcher3.png",1,"right","right",0.576999903,1,1,1
"302",56,295,0.9,"stim/21.jpeg",2,1,3,2,"Instruments",1,"stim/objects/Instruments/musicstand3.png",3,"left","left",0.579999924,1,1,1
"303",56,296,0.9,"stim/14.jpeg",1,4,3,1,"HouseObjects",2,"stim/objects/HouseObjects/safetypin4.png",1,"right","right",0.535999775,1,1,1
"304",56,297,0.9,"stim/12.jpeg",1,2,3,2,"HouseObjects",2,"stim/objects/HouseObjects/knife3.png",1,"right","right",0.440000057,1,1,1
"305",56,298,0.1,"stim/11.jpeg",1,1,3,1,"Instruments",1,"stim/objects/Instruments/oboe4.png",4,"left","right",0.600999832,0,0,1
"306",56,299,0.3,"stim/64.jpeg",6,4,2,1,"HouseObjects",2,"stim/objects/HouseObjects/broom4.png",4,"right","left",0.618000031,0,0,1
"307",56,300,0.7,"stim/54.jpeg",5,4,2,2,"HouseObjects",2,"stim/objects/HouseObjects/key3.png",2,"right","right",0.53399992,1,1,1
"308",56,301,0.5,"stim/42.jpeg",4,2,1,2,"HouseObjects",2,"stim/objects/HouseObjects/bucket3.png",1,"right","right",0.661000013,1,1,1
"309",56,302,0.5,"stim/41.jpeg",4,1,1,1,"HouseObjects",2,"stim/objects/HouseObjects/scale3.png",1,"right","right",0.58100009,1,1,1
"310",56,303,0.7,"stim/53.jpeg",5,3,2,1,"HouseObjects",2,"stim/objects/HouseObjects/ashtray4.png",3,"right","left",0.602999926,0,0,1
"311",56,304,0.7,"stim/53.jpeg",5,3,2,2,"HouseObjects",2,"stim/objects/HouseObjects/key3.png",2,"right","right",0.510999918,1,1,1
"312",56,305,0.9,"stim/24.jpeg",2,4,3,2,"Instruments",1,"stim/objects/Instruments/marimba3.png",4,"left","left",0.714999914,1,1,1
"313",56,306,0.9,"stim/24.jpeg",2,4,3,2,"Instruments",1,"stim/objects/Instruments/oboe3.png",4,"left","left",0.414999962,1,1,1
"314",56,307,0.9,"stim/24.jpeg",2,4,3,1,"Instruments",1,"stim/objects/Instruments/violin4.png",3,"left","left",0.516000032,1,1,1
"315",56,308,0.5,"stim/42.jpeg",4,2,1,2,"HouseObjects",2,"stim/objects/HouseObjects/clock3.png",4,"right","right",0.515999794,1,1,1
"316",56,309,0.9,"stim/13.jpeg",1,3,3,1,"HouseObjects",2,"stim/objects/HouseObjects/knife4.png",2,"right","left",0.636999846,0,0,1
"317",56,310,0.5,"stim/43.jpeg",4,3,1,2,"Instruments",1,"stim/objects/Instruments/bassguitar3.png",4,"left","right",0.670000076,0,0,1
"318",56,311,0.9,"stim/11.jpeg",1,1,3,2,"HouseObjects",2,"stim/objects/HouseObjects/match3.png",1,"right","right",0.568000078,1,1,1
"319",56,312,0.5,"stim/41.jpeg",4,1,1,2,"HouseObjects",2,"stim/objects/HouseObjects/bucket3.png",2,"right","right",0.559999943,1,1,1
"320",56,313,0.9,"stim/11.jpeg",1,1,3,2,"HouseObjects",2,"stim/objects/HouseObjects/pitcher3.png",1,"right","right",0.659999847,1,1,1
"321",56,314,0.7,"stim/52.jpeg",5,2,2,1,"HouseObjects",2,"stim/objects/HouseObjects/thermometer3.png",2,"right","left",0.51699996,0,0,1
"322",56,315,0.9,"stim/21.jpeg",2,1,3,2,"Instruments",1,"stim/objects/Instruments/oboe3.png",1,"left","left",0.623999834,1,1,1
"323",56,316,0.9,"stim/11.jpeg",1,1,3,2,"HouseObjects",2,"stim/objects/HouseObjects/pan3.png",2,"right","right",0.638999939,1,1,1
"324",56,317,0.5,"stim/34.jpeg",3,4,1,2,"HouseObjects",2,"stim/objects/HouseObjects/basket3.png",1,"right","right",0.736000061,1,1,1
"325",56,318,0.5,"stim/32.jpeg",3,2,1,2,"HouseObjects",2,"stim/objects/HouseObjects/ballofstring3.png",3,"right","left",0.769000053,0,0,1
"326",56,319,0.9,"stim/23.jpeg",2,3,3,2,"Instruments",1,"stim/objects/Instruments/metronome3.png",3,"left","left",0.52699995,1,1,1
"327",56,320,0.3,"stim/51.jpeg",5,1,2,1,"Instruments",1,"stim/objects/Instruments/banjo4.png",3,"left","right",0.871999979,0,0,1
"328",56,321,0.9,"stim/13.jpeg",1,3,3,2,"HouseObjects",2,"stim/objects/HouseObjects/pitcher3.png",2,"right","right",0.644999743,1,1,1
"329",56,322,0.5,"stim/31.jpeg",3,1,1,2,"HouseObjects",2,"stim/objects/HouseObjects/ballofstring3.png",3,"right","left",0.592000008,0,0,1
"330",56,323,0.9,"stim/24.jpeg",2,4,3,2,"Instruments",1,"stim/objects/Instruments/musicstand3.png",2,"left","left",0.568000078,1,1,1
"331",56,324,0.5,"stim/41.jpeg",4,1,1,2,"HouseObjects",2,"stim/objects/HouseObjects/broom3.png",4,"right","right",0.523999929,1,1,1
"332",56,325,0.9,"stim/11.jpeg",1,1,3,2,"HouseObjects",2,"stim/objects/HouseObjects/match3.png",2,"right","left",0.654999971,0,0,1
"333",56,326,0.3,"stim/64.jpeg",6,4,2,1,"HouseObjects",2,"stim/objects/HouseObjects/clothespin4.png",1,"right","left",0.601000071,0,0,1
"334",56,327,0.9,"stim/23.jpeg",2,3,3,2,"Instruments",1,"stim/objects/Instruments/oboe3.png",2,"left","left",0.56799984,1,1,1
"335",56,328,0.5,"stim/44.jpeg",4,4,1,1,"HouseObjects",2,"stim/objects/HouseObjects/saw3.png",2,"right","right",0.587000132,1,1,1
"336",56,329,0.9,"stim/22.jpeg",2,2,3,2,"Instruments",1,"stim/objects/Instruments/marimba3.png",1,"left","left",0.630000114,1,1,1
"337",56,330,0.9,"stim/13.jpeg",1,3,3,2,"HouseObjects",2,"stim/objects/HouseObjects/match3.png",4,"right","right",0.56799984,1,1,1
"338",56,331,0.9,"stim/22.jpeg",2,2,3,2,"Instruments",1,"stim/objects/Instruments/oboe3.png",2,"left","left",0.579999924,1,1,1
"339",56,332,0.9,"stim/21.jpeg",2,1,3,2,"Instruments",1,"stim/objects/Instruments/musicsheet3.png",3,"left","left",0.573999882,1,1,1
"340",56,333,0.5,"stim/42.jpeg",4,2,1,2,"Instruments",1,"stim/objects/Instruments/clarinet3.png",2,"left","right",0.684000015,0,0,1
"341",56,334,0.9,"stim/13.jpeg",1,3,3,2,"HouseObjects",2,"stim/objects/HouseObjects/knife3.png",1,"right","right",0.588000059,1,1,1
"342",56,335,0.9,"stim/12.jpeg",1,2,3,2,"HouseObjects",2,"stim/objects/HouseObjects/lintroller3.png",3,"right","left",0.69900012,0,0,1
"343",56,336,0.9,"stim/13.jpeg",1,3,3,2,"HouseObjects",2,"stim/objects/HouseObjects/pitcher3.png",3,"right","right",0.51699996,1,1,1
"344",56,337,0.9,"stim/12.jpeg",1,2,3,2,"HouseObjects",2,"stim/objects/HouseObjects/pan3.png",4,"right","right",0.619999886,1,1,1
"345",56,338,0.3,"stim/63.jpeg",6,3,2,1,"HouseObjects",2,"stim/objects/HouseObjects/clothesdryingrack4.png",3,"right","left",0.68900013,0,0,1
"346",56,339,0.7,"stim/64.jpeg",6,4,2,1,"Instruments",1,"stim/objects/Instruments/laud4.png",2,"left","left",0.700999975,1,1,1
"347",56,340,0.9,"stim/13.jpeg",1,3,3,2,"HouseObjects",2,"stim/objects/HouseObjects/pitcher3.png",4,"right","right",0.555999994,1,1,1
"348",56,341,0.7,"stim/61.jpeg",6,1,2,2,"Instruments",1,"stim/objects/Instruments/cymbal3.png",4,"left","left",0.563999891,1,1,1
"349",56,342,0.9,"stim/12.jpeg",1,2,3,2,"HouseObjects",2,"stim/objects/HouseObjects/match3.png",1,"right","right",0.575000048,1,1,1
"350",56,343,0.3,"stim/52.jpeg",5,2,2,1,"Instruments",1,"stim/objects/Instruments/bassdrum4.png",2,"left","left",0.608999968,1,1,1
"351",56,344,0.9,"stim/23.jpeg",2,3,3,2,"Instruments",1,"stim/objects/Instruments/marimba3.png",3,"left","left",0.621999979,1,1,1
"352",56,345,0.5,"stim/33.jpeg",3,3,1,2,"Instruments",1,"stim/objects/Instruments/acousticguitar3.png",1,"left","right",0.493999958,0,0,1
"353",56,346,0.1,"stim/21.jpeg",2,1,3,1,"HouseObjects",2,"stim/objects/HouseObjects/thread4.png",3,"right","left",0.523000002,0,0,1
"354",56,347,0.9,"stim/22.jpeg",2,2,3,1,"Instruments",1,"stim/objects/Instruments/tambourine4.png",2,"left","left",0.484999895,1,1,1
"355",56,348,0.7,"stim/64.jpeg",6,4,2,2,"Instruments",1,"stim/objects/Instruments/doublebass3.png",3,"left","right",0.619999886,0,0,1
"356",56,349,0.9,"stim/22.jpeg",2,2,3,2,"Instruments",1,"stim/objects/Instruments/musicstand3.png",4,"left","left",0.65899992,1,1,1
"357",56,350,0.9,"stim/23.jpeg",2,3,3,2,"Instruments",1,"stim/objects/Instruments/musicstand3.png",4,"left","left",0.555999994,1,1,1
"358",56,351,0.5,"stim/31.jpeg",3,1,1,1,"HouseObjects",2,"stim/objects/HouseObjects/rug3.png",4,"right","right",0.621999979,1,1,1
"359",56,352,0.9,"stim/23.jpeg",2,3,3,2,"Instruments",1,"stim/objects/Instruments/musicsheet3.png",4,"left","left",0.343999863,1,1,1
"360",56,353,0.9,"stim/12.jpeg",1,2,3,2,"HouseObjects",2,"stim/objects/HouseObjects/match3.png",2,"right","left",0.661000013,0,0,1
"361",56,354,0.7,"stim/64.jpeg",6,4,2,1,"Instruments",1,"stim/objects/Instruments/cornet4.png",1,"left","left",0.618000031,1,1,1
"362",56,355,0.9,"stim/14.jpeg",1,4,3,2,"HouseObjects",2,"stim/objects/HouseObjects/match3.png",3,"right","right",0.777999878,1,1,1
"363",56,356,0.9,"stim/12.jpeg",1,2,3,2,"HouseObjects",2,"stim/objects/HouseObjects/pan3.png",1,"right","right",0.682999849,1,1,1
"364",56,357,0.5,"stim/33.jpeg",3,3,1,1,"Instruments",1,"stim/objects/Instruments/saxophone3.png",3,"left","right",0.583999872,0,0,1
"365",56,358,0.9,"stim/12.jpeg",1,2,3,1,"HouseObjects",2,"stim/objects/HouseObjects/pan4.png",4,"right","right",0.568999767,1,1,1
"366",56,359,0.7,"stim/54.jpeg",5,4,2,1,"HouseObjects",2,"stim/objects/HouseObjects/towel3.png",2,"right","left",0.749000072,0,0,1
"367",56,360,0.9,"stim/12.jpeg",1,2,3,2,"HouseObjects",2,"stim/objects/HouseObjects/lintroller3.png",4,"right","right",0.519999743,1,1,1
"368",56,361,0.5,"stim/42.jpeg",4,2,1,1,"Instruments",1,"stim/objects/Instruments/tambourine3.png",3,"left","left",0.618999958,1,1,1
"369",56,362,0.9,"stim/11.jpeg",1,1,3,2,"HouseObjects",2,"stim/objects/HouseObjects/knife3.png",3,"right","right",0.597999811,1,1,1
"370",56,363,0.9,"stim/24.jpeg",2,4,3,2,"Instruments",1,"stim/objects/Instruments/musicsheet3.png",2,"left","left",0.552999735,1,1,1
"371",56,364,0.9,"stim/14.jpeg",1,4,3,2,"HouseObjects",2,"stim/objects/HouseObjects/match3.png",3,"right","right",0.588999748,1,1,1
"372",56,365,0.9,"stim/21.jpeg",2,1,3,2,"Instruments",1,"stim/objects/Instruments/musicsheet3.png",4,"left","left",0.635999918,1,1,1
"373",56,366,0.9,"stim/11.jpeg",1,1,3,2,"HouseObjects",2,"stim/objects/HouseObjects/match3.png",1,"right","right",0.710000038,1,1,1
"374",56,367,0.5,"stim/31.jpeg",3,1,1,2,"Instruments",1,"stim/objects/Instruments/bassdrum3.png",3,"left","right",0.65199995,0,0,1
"375",56,368,0.9,"stim/13.jpeg",1,3,3,2,"HouseObjects",2,"stim/objects/HouseObjects/match3.png",2,"right","right",0.649999857,1,1,1
"376",56,369,0.9,"stim/12.jpeg",1,2,3,2,"HouseObjects",2,"stim/objects/HouseObjects/knife3.png",3,"right","right",0.697999954,1,1,1
"377",56,370,0.9,"stim/12.jpeg",1,2,3,2,"HouseObjects",2,"stim/objects/HouseObjects/knife3.png",1,"right","right",0.700000048,1,1,1
"378",56,371,0.9,"stim/21.jpeg",2,1,3,2,"Instruments",1,"stim/objects/Instruments/metronome3.png",4,"left","left",0.674000025,1,1,1
"379",56,372,0.5,"stim/34.jpeg",3,4,1,2,"HouseObjects",2,"stim/objects/HouseObjects/ashtray3.png",2,"right","left",0.737999916,0,0,1
"380",56,373,0.9,"stim/11.jpeg",1,1,3,2,"HouseObjects",2,"stim/objects/HouseObjects/pan3.png",1,"right","right",0.588999748,1,1,1
"381",56,374,0.1,"stim/21.jpeg",2,1,3,1,"HouseObjects",2,"stim/objects/HouseObjects/sponge4.png",3,"right","left",0.535999775,0,0,1
"382",56,375,0.9,"stim/21.jpeg",2,1,3,2,"Instruments",1,"stim/objects/Instruments/musicstand3.png",2,"left","left",0.659999847,1,1,1
"383",56,376,0.5,"stim/32.jpeg",3,2,1,2,"Instruments",1,"stim/objects/Instruments/accordion3.png",1,"left","left",0.605000019,1,1,1
"384",56,377,0.9,"stim/21.jpeg",2,1,3,2,"Instruments",1,"stim/objects/Instruments/musicsheet3.png",4,"left","left",0.66899991,1,1,1
"385",56,378,0.9,"stim/21.jpeg",2,1,3,1,"Instruments",1,"stim/objects/Instruments/vuvuzela4.png",2,"left","left",0.553999901,1,1,1
"386",56,379,0.5,"stim/33.jpeg",3,3,1,1,"Instruments",1,"stim/objects/Instruments/panflute3.png",2,"left","left",0.649999857,1,1,1
"387",56,380,0.9,"stim/24.jpeg",2,4,3,2,"Instruments",1,"stim/objects/Instruments/metronome3.png",1,"left","left",0.663000107,1,1,1
"388",56,381,0.9,"stim/22.jpeg",2,2,3,2,"Instruments",1,"stim/objects/Instruments/musicsheet3.png",4,"left","left",0.881999969,1,1,1
"389",56,382,0.9,"stim/22.jpeg",2,2,3,1,"Instruments",1,"stim/objects/Instruments/xylophone4.png",4,"left","left",0.487999916,1,1,1
"390",56,383,0.1,"stim/12.jpeg",1,2,3,1,"Instruments",1,"stim/objects/Instruments/saxophone4.png",4,"left","right",0.708999872,0,0,1
"391",56,384,0.7,"stim/64.jpeg",6,4,2,2,"Instruments",1,"stim/objects/Instruments/laud3.png",3,"left","left",0.652999878,1,1,1
"392",56,385,0.9,"stim/12.jpeg",1,2,3,2,"HouseObjects",2,"stim/objects/HouseObjects/lintroller3.png",1,"right","right",0.561000109,1,1,1
"393",56,386,0.9,"stim/14.jpeg",1,4,3,2,"HouseObjects",2,"stim/objects/HouseObjects/knife3.png",4,"right","right",0.633000135,1,1,1
"394",56,387,0.9,"stim/21.jpeg",2,1,3,2,"Instruments",1,"stim/objects/Instruments/marimba3.png",3,"left","left",0.622999907,1,1,1
"395",56,388,0.9,"stim/21.jpeg",2,1,3,2,"Instruments",1,"stim/objects/Instruments/metronome3.png",3,"left","left",0.553999901,1,1,1
"396",56,389,0.9,"stim/13.jpeg",1,3,3,1,"HouseObjects",2,"stim/objects/HouseObjects/rug4.png",2,"right","right",0.664999962,1,1,1
"397",56,390,0.9,"stim/13.jpeg",1,3,3,2,"HouseObjects",2,"stim/objects/HouseObjects/knife3.png",2,"right","right",0.423000097,1,1,1
"398",56,391,0.9,"stim/12.jpeg",1,2,3,2,"HouseObjects",2,"stim/objects/HouseObjects/pitcher3.png",2,"right","right",0.584000111,1,1,1
"399",56,392,0.5,"stim/44.jpeg",4,4,1,2,"HouseObjects",2,"stim/objects/HouseObjects/broom3.png",4,"right","right",0.640999794,1,1,1
"400",56,393,0.7,"stim/61.jpeg",6,1,2,1,"Instruments",1,"stim/objects/Instruments/maraca4.png",4,"left","left",0.656000137,1,1,1
"401",56,394,0.9,"stim/14.jpeg",1,4,3,2,"HouseObjects",2,"stim/objects/HouseObjects/knife3.png",1,"right","right",0.65199995,1,1,1
"402",56,395,0.5,"stim/43.jpeg",4,3,1,2,"Instruments",1,"stim/objects/Instruments/cornet3.png",3,"left","left",0.667999983,1,1,1
"403",56,396,0.7,"stim/62.jpeg",6,2,2,1,"Instruments",1,"stim/objects/Instruments/doublebass4.png",3,"left","right",0.635999918,0,0,1
"404",56,397,0.5,"stim/44.jpeg",4,4,1,1,"Instruments",1,"stim/objects/Instruments/triangle3.png",1,"left","right",0.557999849,0,0,1
"405",56,398,0.7,"stim/52.jpeg",5,2,2,2,"HouseObjects",2,"stim/objects/HouseObjects/iron3.png",4,"right","right",0.65199995,1,1,1
"406",56,399,0.9,"stim/13.jpeg",1,3,3,2,"HouseObjects",2,"stim/objects/HouseObjects/pitcher3.png",4,"right","right",0.639999866,1,1,1
"407",56,400,0.7,"stim/51.jpeg",5,1,2,1,"HouseObjects",2,"stim/objects/HouseObjects/vacuumcleaner3.png",1,"right","left",0.686999798,0,0,1
"408",56,401,0.9,"stim/13.jpeg",1,3,3,2,"HouseObjects",2,"stim/objects/HouseObjects/lintroller3.png",4,"right","right",0.564999819,1,1,1
"409",56,402,0.7,"stim/61.jpeg",6,1,2,2,"Instruments",1,"stim/objects/Instruments/keyboard3.png",1,"left","left",0.613999844,1,1,1
"410",56,403,0.9,"stim/12.jpeg",1,2,3,2,"HouseObjects",2,"stim/objects/HouseObjects/pitcher3.png",2,"right","right",0.612999916,1,1,1
"411",56,404,0.9,"stim/14.jpeg",1,4,3,2,"HouseObjects",2,"stim/objects/HouseObjects/pan3.png",3,"right","right",0.697999954,1,1,1
"412",56,405,0.3,"stim/52.jpeg",5,2,2,1,"Instruments",1,"stim/objects/Instruments/tuba3.png",4,"left","right",0.672999859,0,0,1
"413",56,406,0.9,"stim/12.jpeg",1,2,3,2,"HouseObjects",2,"stim/objects/HouseObjects/match3.png",2,"right","right",0.789999962,1,1,1
"414",56,407,0.9,"stim/24.jpeg",2,4,3,2,"Instruments",1,"stim/objects/Instruments/metronome3.png",3,"left","left",0.558000088,1,1,1
"415",56,408,0.3,"stim/61.jpeg",6,1,2,1,"HouseObjects",2,"stim/objects/HouseObjects/iron4.png",1,"right","right",0.570999861,1,1,1
"416",56,409,0.1,"stim/23.jpeg",2,3,3,1,"HouseObjects",2,"stim/objects/HouseObjects/saw4.png",2,"right","left",0.546000004,0,0,1
"417",56,410,0.9,"stim/22.jpeg",2,2,3,2,"Instruments",1,"stim/objects/Instruments/metronome3.png",4,"left","left",0.667999983,1,1,1
"418",56,411,0.7,"stim/52.jpeg",5,2,2,2,"HouseObjects",2,"stim/objects/HouseObjects/ironingboard3.png",3,"right","right",0.552999973,1,1,1
"419",56,412,0.1,"stim/14.jpeg",1,4,3,1,"Instruments",1,"stim/objects/Instruments/record4.png",3,"left","right",0.519999981,0,0,1
"420",56,413,0.5,"stim/43.jpeg",4,3,1,2,"Instruments",1,"stim/objects/Instruments/clarinet3.png",2,"left","left",0.458999872,1,1,1
"421",56,414,0.7,"stim/53.jpeg",5,3,2,2,"HouseObjects",2,"stim/objects/HouseObjects/iron3.png",3,"right","right",0.49000001,1,1,1
"422",56,415,0.3,"stim/53.jpeg",5,3,2,1,"Instruments",1,"stim/objects/Instruments/acousticguitar4.png",3,"left","right",0.414999962,0,0,1
"423",56,416,0.9,"stim/13.jpeg",1,3,3,2,"HouseObjects",2,"stim/objects/HouseObjects/pan3.png",3,"right","left",0.710000038,0,0,1
"424",56,417,0.9,"stim/22.jpeg",2,2,3,2,"Instruments",1,"stim/objects/Instruments/marimba3.png",3,"left","right",0.687999964,0,0,1
"425",56,418,0.9,"stim/21.jpeg",2,1,3,2,"Instruments",1,"stim/objects/Instruments/musicstand3.png",3,"left","left",0.690999985,1,1,1
"426",56,419,0.9,"stim/23.jpeg",2,3,3,2,"Instruments",1,"stim/objects/Instruments/musicstand3.png",4,"left","left",0.452000141,1,1,1
"427",56,420,0.9,"stim/23.jpeg",2,3,3,2,"Instruments",1,"stim/objects/Instruments/musicstand3.png",3,"left","left",0.402999878,1,1,1
"428",56,421,0.3,"stim/63.jpeg",6,3,2,1,"HouseObjects",2,"stim/objects/HouseObjects/key4.png",1,"right","right",0.608999968,1,1,1
"429",56,422,0.9,"stim/11.jpeg",1,1,3,2,"HouseObjects",2,"stim/objects/HouseObjects/lintroller3.png",1,"right","right",0.655999899,1,1,1
"430",56,423,0.5,"stim/31.jpeg",3,1,1,1,"Instruments",1,"stim/objects/Instruments/record3.png",4,"left","right",0.65199995,0,0,1
"431",56,424,0.7,"stim/61.jpeg",6,1,2,1,"Instruments",1,"stim/objects/Instruments/cello4.png",4,"left","right",0.661999941,0,0,1
"432",56,425,0.9,"stim/14.jpeg",1,4,3,2,"HouseObjects",2,"stim/objects/HouseObjects/pitcher3.png",1,"right","right",0.536000013,1,1,1
"433",56,426,0.9,"stim/14.jpeg",1,4,3,2,"HouseObjects",2,"stim/objects/HouseObjects/lintroller3.png",1,"right","right",0.489999771,1,1,1
"434",56,427,0.3,"stim/51.jpeg",5,1,2,1,"Instruments",1,"stim/objects/Instruments/trumpet3.png",2,"left","left",0.55099988,1,1,1
"435",56,428,0.9,"stim/14.jpeg",1,4,3,2,"HouseObjects",2,"stim/objects/HouseObjects/pan3.png",4,"right","right",0.631999969,1,1,1
"436",56,429,0.5,"stim/34.jpeg",3,4,1,2,"Instruments",1,"stim/objects/Instruments/balalaika3.png",4,"left","right",0.485999823,0,0,1
"437",56,430,0.9,"stim/24.jpeg",2,4,3,2,"Instruments",1,"stim/objects/Instruments/metronome3.png",1,"left","right",0.049999952,0,0,1
"438",56,431,0.9,"stim/11.jpeg",1,1,3,2,"HouseObjects",2,"stim/objects/HouseObjects/knife3.png",3,"right","right",0.590999842,1,1,1
"439",56,432,0.7,"stim/63.jpeg",6,3,2,2,"Instruments",1,"stim/objects/Instruments/cymbal3.png",1,"left","right",0.53399992,0,0,1
"440",56,433,0.9,"stim/24.jpeg",2,4,3,2,"Instruments",1,"stim/objects/Instruments/oboe3.png",1,"left","left",0.608999968,1,1,1
"441",56,434,0.5,"stim/42.jpeg",4,2,1,2,"Instruments",1,"stim/objects/Instruments/chime3.png",4,"left","right",0.639999866,0,0,1
"442",56,435,0.5,"stim/44.jpeg",4,4,1,2,"HouseObjects",2,"stim/objects/HouseObjects/bottle3.png",2,"right","left",0.590000153,0,0,1
"443",56,436,0.9,"stim/23.jpeg",2,3,3,2,"Instruments",1,"stim/objects/Instruments/metronome3.png",2,"left","left",0.552000046,1,1,1
"444",56,437,0.9,"stim/14.jpeg",1,4,3,1,"HouseObjects",2,"stim/objects/HouseObjects/recyclingbin4.png",3,"right","right",0.735000134,1,1,1
"445",56,438,0.7,"stim/63.jpeg",6,3,2,1,"Instruments",1,"stim/objects/Instruments/keyboard4.png",2,"left","left",0.680000067,1,1,1
"446",56,439,0.5,"stim/44.jpeg",4,4,1,2,"Instruments",1,"stim/objects/Instruments/cello3.png",3,"left","left",0.67599988,1,1,1
"447",56,440,0.5,"stim/44.jpeg",4,4,1,2,"Instruments",1,"stim/objects/Instruments/cornet3.png",4,"left","right",0.691999912,0,0,1
"448",56,441,0.1,"stim/24.jpeg",2,4,3,1,"HouseObjects",2,"stim/objects/HouseObjects/scale4.png",2,"right","left",0.519999743,0,0,1
"449",56,442,0.3,"stim/54.jpeg",5,4,2,1,"Instruments",1,"stim/objects/Instruments/balalaika4.png",4,"left","right",0.61199975,0,0,1
"450",56,443,0.9,"stim/22.jpeg",2,2,3,2,"Instruments",1,"stim/objects/Instruments/musicsheet3.png",3,"left","left",0.503999949,1,1,1
"451",56,444,0.7,"stim/63.jpeg",6,3,2,2,"Instruments",1,"stim/objects/Instruments/maraca3.png",3,"left","left",0.569999933,1,1,1
"452",56,445,0.5,"stim/42.jpeg",4,2,1,1,"HouseObjects",2,"stim/objects/HouseObjects/sponge3.png",2,"right","left",0.552999973,0,0,1
"453",56,446,0.1,"stim/11.jpeg",1,1,3,1,"Instruments",1,"stim/objects/Instruments/record_player4.png",1,"left","right",0.615999937,0,0,1
"454",56,447,0.9,"stim/21.jpeg",2,1,3,2,"Instruments",1,"stim/objects/Instruments/marimba3.png",2,"left","left",0.506999969,1,1,1
"455",56,448,0.9,"stim/14.jpeg",1,4,3,2,"HouseObjects",2,"stim/objects/HouseObjects/lintroller3.png",2,"right","left",0.68900013,0,0,1
"456",56,449,0.9,"stim/24.jpeg",2,4,3,2,"Instruments",1,"stim/objects/Instruments/marimba3.png",1,"left","left",0.678999901,1,1,1
"457",56,450,0.9,"stim/23.jpeg",2,3,3,2,"Instruments",1,"stim/objects/Instruments/oboe3.png",3,"left","left",0.637999773,1,1,1
"458",56,451,0.5,"stim/31.jpeg",3,1,1,2,"HouseObjects",2,"stim/objects/HouseObjects/ashtray3.png",4,"right","right",0.621999979,1,1,1
"459",56,452,0.9,"stim/24.jpeg",2,4,3,2,"Instruments",1,"stim/objects/Instruments/musicsheet3.png",2,"left","left",0.549000025,1,1,1
"460",56,453,0.9,"stim/14.jpeg",1,4,3,2,"HouseObjects",2,"stim/objects/HouseObjects/knife3.png",2,"right","",NA,0,0,1
"461",56,454,0.9,"stim/21.jpeg",2,1,3,2,"Instruments",1,"stim/objects/Instruments/marimba3.png",2,"left","left",0.529000044,1,1,1
"462",56,455,0.5,"stim/32.jpeg",3,2,1,2,"Instruments",1,"stim/objects/Instruments/acousticguitar3.png",2,"left","left",0.569000006,1,1,1
"463",56,456,0.5,"stim/41.jpeg",4,1,1,1,"Instruments",1,"stim/objects/Instruments/trombone3.png",3,"left","right",0.63499999,0,0,1
"464",56,457,0.7,"stim/62.jpeg",6,2,2,2,"Instruments",1,"stim/objects/Instruments/laud3.png",3,"left","left",0.660999775,1,1,1
"465",56,458,0.7,"stim/61.jpeg",6,1,2,2,"Instruments",1,"stim/objects/Instruments/laud3.png",3,"left","right",0.60800004,0,0,1
"466",56,459,0.9,"stim/23.jpeg",2,3,3,2,"Instruments",1,"stim/objects/Instruments/oboe3.png",1,"left","left",0.521999836,1,1,1
"467",56,460,0.7,"stim/61.jpeg",6,1,2,1,"Instruments",1,"stim/objects/Instruments/cymbal4.png",1,"left","left",0.606999874,1,1,1
"468",56,461,0.9,"stim/12.jpeg",1,2,3,2,"HouseObjects",2,"stim/objects/HouseObjects/match3.png",3,"right","right",0.812999964,1,1,1
"469",56,462,0.7,"stim/54.jpeg",5,4,2,2,"HouseObjects",2,"stim/objects/HouseObjects/clothespin3.png",4,"right","left",0.565999985,0,0,1
"470",56,463,0.5,"stim/32.jpeg",3,2,1,1,"Instruments",1,"stim/objects/Instruments/record_player3.png",1,"left","right",0.553999901,0,0,1
"471",56,464,0.7,"stim/51.jpeg",5,1,2,2,"HouseObjects",2,"stim/objects/HouseObjects/clothesdryingrack3.png",2,"right","left",0.578999758,0,0,1
"472",56,465,0.9,"stim/23.jpeg",2,3,3,2,"Instruments",1,"stim/objects/Instruments/marimba3.png",1,"left","left",0.565000057,1,1,1
"473",56,466,0.7,"stim/53.jpeg",5,3,2,1,"HouseObjects",2,"stim/objects/HouseObjects/bleachbottle4.png",1,"right","right",0.777999878,1,1,1
"474",56,467,0.9,"stim/12.jpeg",1,2,3,2,"HouseObjects",2,"stim/objects/HouseObjects/pitcher3.png",4,"right","right",0.834000111,1,1,1
"475",56,468,0.9,"stim/22.jpeg",2,2,3,2,"Instruments",1,"stim/objects/Instruments/metronome3.png",3,"left","left",0.565000057,1,1,1
"476",56,469,0.5,"stim/33.jpeg",3,3,1,2,"HouseObjects",2,"stim/objects/HouseObjects/barbecuelighter3.png",1,"right","right",0.59800005,1,1,1
"477",56,470,0.9,"stim/24.jpeg",2,4,3,2,"Instruments",1,"stim/objects/Instruments/musicsheet3.png",2,"left","left",0.491999865,1,1,1
"478",56,471,0.9,"stim/23.jpeg",2,3,3,2,"Instruments",1,"stim/objects/Instruments/musicsheet3.png",1,"left","left",0.522999763,1,1,1
"479",56,472,0.5,"stim/44.jpeg",4,4,1,2,"Instruments",1,"stim/objects/Instruments/bassguitar3.png",2,"left","left",0.503999949,1,1,1
"480",56,473,0.3,"stim/62.jpeg",6,2,2,1,"HouseObjects",2,"stim/objects/HouseObjects/ironingboard4.png",1,"right","right",0.437999964,1,1,1
"481",56,474,0.9,"stim/13.jpeg",1,3,3,1,"HouseObjects",2,"stim/objects/HouseObjects/pitcher4.png",3,"right","right",0.794999838,1,1,1
"482",56,475,0.9,"stim/21.jpeg",2,1,3,2,"Instruments",1,"stim/objects/Instruments/oboe3.png",1,"left","left",0.593999863,1,1,1
"483",56,476,0.5,"stim/33.jpeg",3,3,1,2,"HouseObjects",2,"stim/objects/HouseObjects/basket3.png",4,"right","left",0.549999952,0,0,1
"484",56,477,0.9,"stim/22.jpeg",2,2,3,2,"Instruments",1,"stim/objects/Instruments/musicstand3.png",1,"left","left",0.517999887,1,1,1
"485",56,478,0.9,"stim/24.jpeg",2,4,3,2,"Instruments",1,"stim/objects/Instruments/marimba3.png",4,"left","left",0.499999762,1,1,1
"486",56,479,0.9,"stim/14.jpeg",1,4,3,2,"HouseObjects",2,"stim/objects/HouseObjects/pitcher3.png",2,"right","left",0.40199995,0,0,1
"487",56,480,0.5,"stim/34.jpeg",3,4,1,2,"Instruments",1,"stim/objects/Instruments/banjo3.png",3,"left","right",0.609999895,0,0,1
"488",56,481,0.5,"stim/43.jpeg",4,3,1,2,"HouseObjects",2,"stim/objects/HouseObjects/blender3.png",2,"right","left",0.519000053,0,0,1
"489",56,482,0.7,"stim/64.jpeg",6,4,2,1,"Instruments",1,"stim/objects/Instruments/bassguitar4.png",1,"left","left",0.558999777,1,1,1
"490",56,483,0.3,"stim/51.jpeg",5,1,2,1,"Instruments",1,"stim/objects/Instruments/xylophone3.png",1,"left","right",0.649999857,0,0,1
"491",56,484,0.9,"stim/22.jpeg",2,2,3,2,"Instruments",1,"stim/objects/Instruments/metronome3.png",1,"left","left",0.542000055,1,1,1
"492",56,485,0.7,"stim/54.jpeg",5,4,2,2,"HouseObjects",2,"stim/objects/HouseObjects/clothesdryingrack3.png",1,"right","right",0.61500001,1,1,1
"493",56,486,0.9,"stim/24.jpeg",2,4,3,2,"Instruments",1,"stim/objects/Instruments/oboe3.png",4,"left","left",0.627000093,1,1,1
"494",56,487,0.7,"stim/62.jpeg",6,2,2,2,"Instruments",1,"stim/objects/Instruments/cymbal3.png",4,"left","left",0.520999908,1,1,1
"495",56,488,0.9,"stim/24.jpeg",2,4,3,2,"Instruments",1,"stim/objects/Instruments/oboe3.png",1,"left","left",0.565999985,1,1,1
"496",56,489,0.9,"stim/14.jpeg",1,4,3,2,"HouseObjects",2,"stim/objects/HouseObjects/match3.png",2,"right","right",0.41899991,1,1,1
"497",56,490,0.9,"stim/14.jpeg",1,4,3,2,"HouseObjects",2,"stim/objects/HouseObjects/pan3.png",3,"right","right",0.60800004,1,1,1
"498",56,491,0.7,"stim/51.jpeg",5,1,2,2,"HouseObjects",2,"stim/objects/HouseObjects/iron3.png",3,"right","left",0.599999905,0,0,1
"499",56,492,0.1,"stim/11.jpeg",1,1,3,1,"Instruments",1,"stim/objects/Instruments/marimba4.png",4,"left","right",0.65199995,0,0,1
"500",56,493,0.9,"stim/11.jpeg",1,1,3,2,"HouseObjects",2,"stim/objects/HouseObjects/pan3.png",4,"right","right",0.453000069,1,1,1
"501",56,494,0.9,"stim/11.jpeg",1,1,3,2,"HouseObjects",2,"stim/objects/HouseObjects/pan3.png",2,"right","right",0.688999891,1,1,1
"502",56,495,0.7,"stim/54.jpeg",5,4,2,1,"HouseObjects",2,"stim/objects/HouseObjects/ballofstring4.png",3,"right","left",0.549999952,0,0,1
"503",56,496,0.9,"stim/21.jpeg",2,1,3,2,"Instruments",1,"stim/objects/Instruments/metronome3.png",1,"left","left",0.569999933,1,1,1
"504",56,497,0.7,"stim/54.jpeg",5,4,2,2,"HouseObjects",2,"stim/objects/HouseObjects/ironingboard3.png",4,"right","left",0.481999874,0,0,1
"505",56,498,0.5,"stim/31.jpeg",3,1,1,2,"Instruments",1,"stim/objects/Instruments/banjo3.png",1,"left","left",0.379999876,1,1,1
"506",56,499,0.9,"stim/12.jpeg",1,2,3,1,"HouseObjects",2,"stim/objects/HouseObjects/rubbergloves4.png",2,"right","right",0.611000061,1,1,1
"507",56,500,0.7,"stim/62.jpeg",6,2,2,1,"Instruments",1,"stim/objects/Instruments/chime4.png",4,"left","left",0.588999987,1,1,1
"508",56,501,0.9,"stim/21.jpeg",2,1,3,2,"Instruments",1,"stim/objects/Instruments/oboe3.png",2,"left","left",0.522999763,1,1,1
"509",56,502,0.1,"stim/13.jpeg",1,3,3,1,"Instruments",1,"stim/objects/Instruments/pipepiano4.png",3,"left","right",0.493999958,0,0,1
"510",56,503,0.5,"stim/31.jpeg",3,1,1,2,"Instruments",1,"stim/objects/Instruments/accordion3.png",1,"left","right",0.608999729,0,0,1
"511",56,504,0.9,"stim/13.jpeg",1,3,3,2,"HouseObjects",2,"stim/objects/HouseObjects/knife3.png",1,"right","right",0.684999943,1,1,1
"512",56,505,0.9,"stim/23.jpeg",2,3,3,2,"Instruments",1,"stim/objects/Instruments/musicsheet3.png",1,"left","left",0.587999821,1,1,1
"513",56,506,0.7,"stim/53.jpeg",5,3,2,2,"HouseObjects",2,"stim/objects/HouseObjects/clothesdryingrack3.png",3,"right","right",0.596999884,1,1,1
"514",56,507,0.9,"stim/14.jpeg",1,4,3,2,"HouseObjects",2,"stim/objects/HouseObjects/pitcher3.png",4,"right","right",0.819999933,1,1,1
"515",56,508,0.9,"stim/14.jpeg",1,4,3,2,"HouseObjects",2,"stim/objects/HouseObjects/lintroller3.png",2,"right","right",0.464999914,1,1,1
"516",56,509,0.3,"stim/54.jpeg",5,4,2,1,"Instruments",1,"stim/objects/Instruments/vuvuzela3.png",4,"left","left",0.66899991,1,1,1
"517",56,510,0.9,"stim/21.jpeg",2,1,3,1,"Instruments",1,"stim/objects/Instruments/speaker4.png",2,"left","left",0.576999903,1,1,1
"518",56,511,0.1,"stim/23.jpeg",2,3,3,1,"HouseObjects",2,"stim/objects/HouseObjects/teapot4.png",2,"right","left",0.536000013,0,0,1
"519",56,512,0.7,"stim/63.jpeg",6,3,2,1,"Instruments",1,"stim/objects/Instruments/clarinet4.png",4,"left","left",0.635999918,1,1,1
"520",56,513,0.9,"stim/21.jpeg",2,1,3,2,"Instruments",1,"stim/objects/Instruments/marimba3.png",3,"left","left",0.583999872,1,1,1
"521",56,514,0.9,"stim/23.jpeg",2,3,3,2,"Instruments",1,"stim/objects/Instruments/metronome3.png",4,"left","left",0.506999731,1,1,1
"522",56,515,0.7,"stim/62.jpeg",6,2,2,2,"Instruments",1,"stim/objects/Instruments/doublebass3.png",3,"left","right",0.517999887,0,0,1
"523",56,516,0.7,"stim/61.jpeg",6,1,2,2,"Instruments",1,"stim/objects/Instruments/maraca3.png",4,"left","left",0.605999947,1,1,1
"524",56,517,0.3,"stim/63.jpeg",6,3,2,1,"HouseObjects",2,"stim/objects/HouseObjects/bottle4.png",2,"right","left",0.474999905,0,0,1
"525",56,518,0.7,"stim/53.jpeg",5,3,2,2,"HouseObjects",2,"stim/objects/HouseObjects/ironingboard3.png",2,"right","right",0.769999981,1,1,1
"526",56,519,0.5,"stim/43.jpeg",4,3,1,1,"Instruments",1,"stim/objects/Instruments/timbal3.png",1,"left","right",0.70299983,0,0,1
"527",56,520,0.9,"stim/14.jpeg",1,4,3,1,"HouseObjects",2,"stim/objects/HouseObjects/lintroller4.png",4,"right","right",0.539000034,1,1,1
"528",56,521,0.9,"stim/11.jpeg",1,1,3,2,"HouseObjects",2,"stim/objects/HouseObjects/knife3.png",4,"right","right",0.512000084,1,1,1
"529",56,522,0.9,"stim/21.jpeg",2,1,3,1,"Instruments",1,"stim/objects/Instruments/trombone4.png",2,"left","left",0.583999872,1,1,1
"530",56,523,0.7,"stim/52.jpeg",5,2,2,2,"HouseObjects",2,"stim/objects/HouseObjects/clothespin3.png",1,"right","right",0.49000001,1,1,1
"531",56,524,0.9,"stim/11.jpeg",1,1,3,2,"HouseObjects",2,"stim/objects/HouseObjects/lintroller3.png",4,"right","right",0.511000156,1,1,1
"532",56,525,0.5,"stim/33.jpeg",3,3,1,1,"HouseObjects",2,"stim/objects/HouseObjects/remote3.png",2,"right","right",0.46999979,1,1,1
"533",56,526,0.7,"stim/51.jpeg",5,1,2,2,"HouseObjects",2,"stim/objects/HouseObjects/clothespin3.png",2,"right","left",0.572000027,0,0,1
"534",56,527,0.9,"stim/14.jpeg",1,4,3,2,"HouseObjects",2,"stim/objects/HouseObjects/knife3.png",3,"right","right",0.667000055,1,1,1
"535",56,528,0.9,"stim/12.jpeg",1,2,3,2,"HouseObjects",2,"stim/objects/HouseObjects/lintroller3.png",1,"right","right",0.549999952,1,1,1
"536",56,529,0.9,"stim/11.jpeg",1,1,3,1,"HouseObjects",2,"stim/objects/HouseObjects/remote4.png",1,"right","right",0.498999834,1,1,1
"537",56,530,0.3,"stim/53.jpeg",5,3,2,1,"Instruments",1,"stim/objects/Instruments/violin3.png",2,"left","right",0.537999868,0,0,1
"538",56,531,0.9,"stim/12.jpeg",1,2,3,2,"HouseObjects",2,"stim/objects/HouseObjects/pan3.png",3,"right","right",0.519999981,1,1,1
"539",56,532,0.3,"stim/61.jpeg",6,1,2,1,"HouseObjects",2,"stim/objects/HouseObjects/bucket4.png",3,"right","left",0.599999905,0,0,1
"540",56,533,0.9,"stim/14.jpeg",1,4,3,2,"HouseObjects",2,"stim/objects/HouseObjects/lintroller3.png",1,"right","right",0.557999849,1,1,1
"541",56,534,0.5,"stim/32.jpeg",3,2,1,2,"HouseObjects",2,"stim/objects/HouseObjects/barbecuelighter3.png",3,"right","right",0.579999924,1,1,1
"542",56,535,0.1,"stim/22.jpeg",2,2,3,1,"HouseObjects",2,"stim/objects/HouseObjects/towel4.png",2,"right","left",0.568000078,0,0,1
"543",56,536,0.5,"stim/41.jpeg",4,1,1,2,"Instruments",1,"stim/objects/Instruments/cello3.png",4,"left","right",0.252999783,0,0,1
"544",56,537,0.9,"stim/13.jpeg",1,3,3,2,"HouseObjects",2,"stim/objects/HouseObjects/lintroller3.png",3,"right","left",0.627999783,0,0,1
"545",56,538,0.9,"stim/22.jpeg",2,2,3,2,"Instruments",1,"stim/objects/Instruments/musicstand3.png",1,"left","left",0.707999945,1,1,1
"546",56,539,0.9,"stim/23.jpeg",2,3,3,2,"Instruments",1,"stim/objects/Instruments/musicstand3.png",1,"left","left",0.524999857,1,1,1
"547",56,540,0.9,"stim/22.jpeg",2,2,3,1,"Instruments",1,"stim/objects/Instruments/trumpet4.png",4,"left","left",0.621999979,1,1,1
"548",56,541,0.9,"stim/21.jpeg",2,1,3,2,"Instruments",1,"stim/objects/Instruments/musicstand3.png",2,"left","left",0.371999979,1,1,1
"549",56,542,0.9,"stim/22.jpeg",2,2,3,2,"Instruments",1,"stim/objects/Instruments/musicsheet3.png",4,"left","left",0.350000143,1,1,1
"550",56,543,0.9,"stim/22.jpeg",2,2,3,2,"Instruments",1,"stim/objects/Instruments/musicsheet3.png",2,"left","left",0.286000013,1,1,1
"551",56,544,0.9,"stim/13.jpeg",1,3,3,2,"HouseObjects",2,"stim/objects/HouseObjects/pan3.png",4,"right","right",0.421000004,1,1,1
"552",56,545,0.9,"stim/21.jpeg",2,1,3,2,"Instruments",1,"stim/objects/Instruments/oboe3.png",4,"left","left",0.608999968,1,1,1
"553",56,546,0.7,"stim/62.jpeg",6,2,2,2,"Instruments",1,"stim/objects/Instruments/maraca3.png",1,"left","right",0.520999908,0,0,1
"554",56,547,0.7,"stim/63.jpeg",6,3,2,2,"Instruments",1,"stim/objects/Instruments/doublebass3.png",2,"left","right",0.618000031,0,0,1
"555",56,548,0.9,"stim/23.jpeg",2,3,3,2,"Instruments",1,"stim/objects/Instruments/marimba3.png",4,"left","left",0.486999989,1,1,1
"556",56,549,0.9,"stim/22.jpeg",2,2,3,2,"Instruments",1,"stim/objects/Instruments/musicstand3.png",3,"left","left",0.578000069,1,1,1
"557",56,550,0.9,"stim/24.jpeg",2,4,3,2,"Instruments",1,"stim/objects/Instruments/musicstand3.png",3,"left","left",0.503999949,1,1,1
"558",56,551,0.3,"stim/52.jpeg",5,2,2,1,"Instruments",1,"stim/objects/Instruments/accordion4.png",1,"left","right",0.527999878,0,0,1
"559",56,552,0.9,"stim/13.jpeg",1,3,3,2,"HouseObjects",2,"stim/objects/HouseObjects/match3.png",4,"right","right",0.660000086,1,1,1
"560",56,553,0.9,"stim/12.jpeg",1,2,3,2,"HouseObjects",2,"stim/objects/HouseObjects/pan3.png",1,"right","right",0.491999865,1,1,1
"561",56,554,0.5,"stim/31.jpeg",3,1,1,2,"HouseObjects",2,"stim/objects/HouseObjects/bleachbottle3.png",4,"right","right",0.523000002,1,1,1
"562",56,555,0.5,"stim/33.jpeg",3,3,1,2,"Instruments",1,"stim/objects/Instruments/balalaika3.png",2,"left","left",0.450000048,1,1,1
"563",56,556,0.9,"stim/14.jpeg",1,4,3,2,"HouseObjects",2,"stim/objects/HouseObjects/match3.png",2,"right","right",0.751999855,1,1,1
"564",56,557,0.5,"stim/41.jpeg",4,1,1,1,"Instruments",1,"stim/objects/Instruments/speaker3.png",4,"left","right",0.559000015,0,0,1
"565",56,558,0.1,"stim/23.jpeg",2,3,3,1,"HouseObjects",2,"stim/objects/HouseObjects/vacuumcleaner4.png",4,"right","left",0.532999754,0,0,1
"566",56,559,0.7,"stim/51.jpeg",5,1,2,1,"HouseObjects",2,"stim/objects/HouseObjects/barbecuelighter4.png",4,"right","left",0.655999899,0,0,1
"567",56,560,0.5,"stim/34.jpeg",3,4,1,2,"HouseObjects",2,"stim/objects/HouseObjects/bleachbottle3.png",3,"right","right",0.536999941,1,1,1
"568",56,561,0.7,"stim/52.jpeg",5,2,2,1,"HouseObjects",2,"stim/objects/HouseObjects/basket4.png",2,"right","right",0.493999958,1,1,1
"569",56,562,0.9,"stim/24.jpeg",2,4,3,2,"Instruments",1,"stim/objects/Instruments/marimba3.png",4,"left","left",0.547999859,1,1,1
"570",56,563,0.9,"stim/12.jpeg",1,2,3,2,"HouseObjects",2,"stim/objects/HouseObjects/knife3.png",2,"right","right",0.546000004,1,1,1
"571",56,564,0.9,"stim/11.jpeg",1,1,3,2,"HouseObjects",2,"stim/objects/HouseObjects/pitcher3.png",2,"right","right",0.501999855,1,1,1
"572",56,565,0.9,"stim/13.jpeg",1,3,3,2,"HouseObjects",2,"stim/objects/HouseObjects/lintroller3.png",4,"right","right",0.536000013,1,1,1
"573",56,566,0.9,"stim/11.jpeg",1,1,3,2,"HouseObjects",2,"stim/objects/HouseObjects/match3.png",3,"right","right",0.601999998,1,1,1
"574",56,567,0.9,"stim/24.jpeg",2,4,3,2,"Instruments",1,"stim/objects/Instruments/metronome3.png",1,"left","right",0.552999735,0,0,1
"575",56,568,0.5,"stim/43.jpeg",4,3,1,1,"HouseObjects",2,"stim/objects/HouseObjects/spraybottle3.png",1,"right","right",0.565999985,1,1,1
"576",56,569,0.9,"stim/24.jpeg",2,4,3,1,"Instruments",1,"stim/objects/Instruments/triangle4.png",3,"left","left",0.529000044,1,1,1
"577",56,570,0.1,"stim/14.jpeg",1,4,3,1,"Instruments",1,"stim/objects/Instruments/musicstand4.png",2,"left","left",0.471999884,1,1,1
