"","obj_file","X.x","participant.x","trialN.x","trial_cond","scn_file.x","scn_cat","scn_inst","scn_condition","fillers","obj_cat","obj_cat_num","quadrant","corr_ans","key_resp_trial.keys","key_resp_trial.rt","trial_acc","trial_acc_manual","group.x","practice","X.y","participant.y","OvsN","PE_level","object_cat","scn_file.y","corr_scn_cat","corr_scn_inst","scn_file.1","corr_loc","key_resp_id.keys","key_resp_id.rt","key_resp_conf.keys","key_resp_assoc.keys","key_resp_assoc.rt","key_resp_loc.keys","key_resp_loc.rt","trialN.y","id_acc","assoc.acc","cond_assoc","loc.acc","cond_loc","group.y"
"109","stim/objects/HouseObjects/wateringcan.png",1,74,1,0.3,"stim/54.jpeg",5,4,2,NA,"HouseObjects",1,2,"left","",NA,0,0,0,1,NA,NA,NA,NA,NA,NA,NA,NA,NA,NA,NA,NA,NA,NA,NA,NA,NA,NA,NA,NA,NA,NA,NA,NA
"30","stim/objects/HouseObjects/saw2.png",2,74,2,0.7,"stim/63.jpeg",6,3,2,NA,"HouseObjects",1,4,"left","right",0.528999805,0,0,0,1,NA,NA,NA,NA,NA,NA,NA,NA,NA,NA,NA,NA,NA,NA,NA,NA,NA,NA,NA,NA,NA,NA,NA,NA
"153","stim/objects/Instruments/timbal.png",3,74,3,0.5,"stim/41.jpeg",4,1,1,NA,"Instruments",2,2,"right","left",0.539000034,0,0,0,1,NA,NA,NA,NA,NA,NA,NA,NA,NA,NA,NA,NA,NA,NA,NA,NA,NA,NA,NA,NA,NA,NA,NA,NA
"233","stim/objects/Instruments/xylophone.png",4,74,4,0.7,"stim/54.jpeg",5,4,2,NA,"Instruments",2,1,"right","right",0.670999765,1,1,0,1,NA,NA,NA,NA,NA,NA,NA,NA,NA,NA,NA,NA,NA,NA,NA,NA,NA,NA,NA,NA,NA,NA,NA,NA
"6","stim/objects/HouseObjects/rug2.png",5,74,5,0.7,"stim/61.jpeg",6,1,2,NA,"HouseObjects",1,3,"left","right",0.655999899,0,0,0,1,NA,NA,NA,NA,NA,NA,NA,NA,NA,NA,NA,NA,NA,NA,NA,NA,NA,NA,NA,NA,NA,NA,NA,NA
"126","stim/objects/Instruments/record_player2.png",6,74,6,0.3,"stim/61.jpeg",6,1,2,NA,"Instruments",2,1,"right","left",0.583999872,0,0,0,1,NA,NA,NA,NA,NA,NA,NA,NA,NA,NA,NA,NA,NA,NA,NA,NA,NA,NA,NA,NA,NA,NA,NA,NA
"112","stim/objects/HouseObjects/wateringcan2.png",7,74,7,0.9,"stim/24.jpeg",2,4,3,NA,"HouseObjects",1,2,"left","left",0.57799983,1,1,0,1,NA,NA,NA,NA,NA,NA,NA,NA,NA,NA,NA,NA,NA,NA,NA,NA,NA,NA,NA,NA,NA,NA,NA,NA
"100","stim/objects/HouseObjects/vacuumcleaner2.png",8,74,8,0.9,"stim/23.jpeg",2,3,3,NA,"HouseObjects",1,2,"left","left",0.849999666,1,1,0,1,NA,NA,NA,NA,NA,NA,NA,NA,NA,NA,NA,NA,NA,NA,NA,NA,NA,NA,NA,NA,NA,NA,NA,NA
"150","stim/objects/Instruments/tambourine2.png",9,74,9,0.3,"stim/64.jpeg",6,4,2,NA,"Instruments",2,1,"right","",NA,0,0,0,1,NA,NA,NA,NA,NA,NA,NA,NA,NA,NA,NA,NA,NA,NA,NA,NA,NA,NA,NA,NA,NA,NA,NA,NA
"1","stim/objects/HouseObjects/rug.png",10,74,10,0.5,"stim/31.jpeg",3,1,1,NA,"HouseObjects",1,3,"left","left",0.511999846,1,1,0,1,NA,NA,NA,NA,NA,NA,NA,NA,NA,NA,NA,NA,NA,NA,NA,NA,NA,NA,NA,NA,NA,NA,NA,NA
"76","stim/objects/HouseObjects/thread2.png",11,74,11,0.9,"stim/21.jpeg",2,1,3,NA,"HouseObjects",1,4,"left","right",0.546999931,0,0,0,1,NA,NA,NA,NA,NA,NA,NA,NA,NA,NA,NA,NA,NA,NA,NA,NA,NA,NA,NA,NA,NA,NA,NA,NA
"172","stim/objects/Instruments/triangle2.png",12,74,12,0.9,"stim/12.jpeg",1,2,3,NA,"Instruments",2,3,"right","left",0.596999645,0,0,0,1,NA,NA,NA,NA,NA,NA,NA,NA,NA,NA,NA,NA,NA,NA,NA,NA,NA,NA,NA,NA,NA,NA,NA,NA
"18","stim/objects/HouseObjects/safetypin2.png",13,74,13,0.7,"stim/62.jpeg",6,2,2,NA,"HouseObjects",1,1,"left","left",0.799999714,1,1,0,1,NA,NA,NA,NA,NA,NA,NA,NA,NA,NA,NA,NA,NA,NA,NA,NA,NA,NA,NA,NA,NA,NA,NA,NA
"142","stim/objects/Instruments/speaker2.png",14,74,14,0.3,"stim/63.jpeg",6,3,2,NA,"Instruments",2,4,"right","left",0.780999899,0,0,0,1,NA,NA,NA,NA,NA,NA,NA,NA,NA,NA,NA,NA,NA,NA,NA,NA,NA,NA,NA,NA,NA,NA,NA,NA
"209","stim/objects/Instruments/tuba.png",15,74,15,0.7,"stim/51.jpeg",5,1,2,NA,"Instruments",2,1,"right","right",0.66899991,1,1,0,1,NA,NA,NA,NA,NA,NA,NA,NA,NA,NA,NA,NA,NA,NA,NA,NA,NA,NA,NA,NA,NA,NA,NA,NA
"210","stim/objects/Instruments/tuba.png",16,74,16,0.7,"stim/51.jpeg",5,1,2,NA,"Instruments",2,1,"right","right",0.51699996,1,1,0,1,NA,NA,NA,NA,NA,NA,NA,NA,NA,NA,NA,NA,NA,NA,NA,NA,NA,NA,NA,NA,NA,NA,NA,NA
"127","stim/objects/Instruments/record_player2.png",17,74,17,0.3,"stim/61.jpeg",6,1,2,NA,"Instruments",2,3,"right","left",0.57799983,0,0,0,1,NA,NA,NA,NA,NA,NA,NA,NA,NA,NA,NA,NA,NA,NA,NA,NA,NA,NA,NA,NA,NA,NA,NA,NA
"77","stim/objects/HouseObjects/thread2.png",18,74,18,0.9,"stim/21.jpeg",2,1,3,NA,"HouseObjects",1,1,"left","left",0.773000002,1,1,0,1,NA,NA,NA,NA,NA,NA,NA,NA,NA,NA,NA,NA,NA,NA,NA,NA,NA,NA,NA,NA,NA,NA,NA,NA
"200","stim/objects/Instruments/trumpet2.png",19,74,19,0.9,"stim/14.jpeg",1,4,3,NA,"Instruments",2,3,"right","left",0.544999838,0,0,0,1,NA,NA,NA,NA,NA,NA,NA,NA,NA,NA,NA,NA,NA,NA,NA,NA,NA,NA,NA,NA,NA,NA,NA,NA
"137","stim/objects/Instruments/speaker.png",20,74,20,0.5,"stim/33.jpeg",3,3,1,NA,"Instruments",2,3,"right","",NA,0,0,0,1,NA,NA,NA,NA,NA,NA,NA,NA,NA,NA,NA,NA,NA,NA,NA,NA,NA,NA,NA,NA,NA,NA,NA,NA
"217","stim/objects/Instruments/violin.png",21,74,21,0.7,"stim/52.jpeg",5,2,2,NA,"Instruments",2,2,"right","right",0.589999914,1,1,0,1,NA,NA,NA,NA,NA,NA,NA,NA,NA,NA,NA,NA,NA,NA,NA,NA,NA,NA,NA,NA,NA,NA,NA,NA
"55","stim/objects/HouseObjects/spraybottle.png",22,74,22,0.5,"stim/42.jpeg",4,2,1,NA,"HouseObjects",1,2,"left","left",0.64599967,1,1,0,1,NA,NA,NA,NA,NA,NA,NA,NA,NA,NA,NA,NA,NA,NA,NA,NA,NA,NA,NA,NA,NA,NA,NA,NA
"78","stim/objects/HouseObjects/thread2.png",23,74,23,0.9,"stim/21.jpeg",2,1,3,NA,"HouseObjects",1,1,"left","left",0.737999916,1,1,0,1,NA,NA,NA,NA,NA,NA,NA,NA,NA,NA,NA,NA,NA,NA,NA,NA,NA,NA,NA,NA,NA,NA,NA,NA
"19","stim/objects/HouseObjects/safetypin2.png",24,74,24,0.7,"stim/62.jpeg",6,2,2,NA,"HouseObjects",1,1,"left","left",0.657999992,1,1,0,1,NA,NA,NA,NA,NA,NA,NA,NA,NA,NA,NA,NA,NA,NA,NA,NA,NA,NA,NA,NA,NA,NA,NA,NA
"31","stim/objects/HouseObjects/saw2.png",25,74,25,0.7,"stim/63.jpeg",6,3,2,NA,"HouseObjects",1,3,"left","left",0.824999809,1,1,0,1,NA,NA,NA,NA,NA,NA,NA,NA,NA,NA,NA,NA,NA,NA,NA,NA,NA,NA,NA,NA,NA,NA,NA,NA
"25","stim/objects/HouseObjects/saw.png",26,74,26,0.5,"stim/33.jpeg",3,3,1,NA,"HouseObjects",1,3,"left","left",0.741999865,1,1,0,1,NA,NA,NA,NA,NA,NA,NA,NA,NA,NA,NA,NA,NA,NA,NA,NA,NA,NA,NA,NA,NA,NA,NA,NA
"79","stim/objects/HouseObjects/thread2.png",27,74,27,0.9,"stim/21.jpeg",2,1,3,NA,"HouseObjects",1,4,"left","left",0.707999945,1,1,0,1,NA,NA,NA,NA,NA,NA,NA,NA,NA,NA,NA,NA,NA,NA,NA,NA,NA,NA,NA,NA,NA,NA,NA,NA
"138","stim/objects/Instruments/speaker.png",28,74,28,0.5,"stim/33.jpeg",3,3,1,NA,"Instruments",2,1,"right","right",0.859999895,1,1,0,1,NA,NA,NA,NA,NA,NA,NA,NA,NA,NA,NA,NA,NA,NA,NA,NA,NA,NA,NA,NA,NA,NA,NA,NA
"80","stim/objects/HouseObjects/thread2.png",29,74,29,0.9,"stim/21.jpeg",2,1,3,NA,"HouseObjects",1,2,"left","left",0.621999741,1,1,0,1,NA,NA,NA,NA,NA,NA,NA,NA,NA,NA,NA,NA,NA,NA,NA,NA,NA,NA,NA,NA,NA,NA,NA,NA
"110","stim/objects/HouseObjects/wateringcan.png",30,74,30,0.3,"stim/54.jpeg",5,4,2,NA,"HouseObjects",1,3,"left","right",0.740999937,0,0,0,1,NA,NA,NA,NA,NA,NA,NA,NA,NA,NA,NA,NA,NA,NA,NA,NA,NA,NA,NA,NA,NA,NA,NA,NA
"97","stim/objects/HouseObjects/vacuumcleaner.png",31,74,31,0.3,"stim/53.jpeg",5,3,2,NA,"HouseObjects",1,4,"left","left",0.658999681,1,1,0,1,NA,NA,NA,NA,NA,NA,NA,NA,NA,NA,NA,NA,NA,NA,NA,NA,NA,NA,NA,NA,NA,NA,NA,NA
"56","stim/objects/HouseObjects/spraybottle.png",32,74,32,0.5,"stim/42.jpeg",4,2,1,NA,"HouseObjects",1,4,"left","right",0.787999868,0,0,0,1,NA,NA,NA,NA,NA,NA,NA,NA,NA,NA,NA,NA,NA,NA,NA,NA,NA,NA,NA,NA,NA,NA,NA,NA
"201","stim/objects/Instruments/trumpet2.png",33,74,33,0.9,"stim/14.jpeg",1,4,3,NA,"Instruments",2,3,"right","right",0.816999912,1,1,0,1,NA,NA,NA,NA,NA,NA,NA,NA,NA,NA,NA,NA,NA,NA,NA,NA,NA,NA,NA,NA,NA,NA,NA,NA
"57","stim/objects/HouseObjects/spraybottle.png",34,74,34,0.5,"stim/42.jpeg",4,2,1,NA,"HouseObjects",1,4,"left","left",0.603999853,1,1,0,1,NA,NA,NA,NA,NA,NA,NA,NA,NA,NA,NA,NA,NA,NA,NA,NA,NA,NA,NA,NA,NA,NA,NA,NA
"61","stim/objects/HouseObjects/teapot.png",35,74,35,0.5,"stim/43.jpeg",4,3,1,NA,"HouseObjects",1,4,"left","left",0.636999846,1,1,0,1,NA,NA,NA,NA,NA,NA,NA,NA,NA,NA,NA,NA,NA,NA,NA,NA,NA,NA,NA,NA,NA,NA,NA,NA
"7","stim/objects/HouseObjects/rug2.png",36,74,36,0.7,"stim/61.jpeg",6,1,2,NA,"HouseObjects",1,1,"left","left",0.778999805,1,1,0,1,NA,NA,NA,NA,NA,NA,NA,NA,NA,NA,NA,NA,NA,NA,NA,NA,NA,NA,NA,NA,NA,NA,NA,NA
"13","stim/objects/HouseObjects/safetypin.png",37,74,37,0.5,"stim/32.jpeg",3,2,1,NA,"HouseObjects",1,4,"left","right",0.711999893,0,0,0,1,NA,NA,NA,NA,NA,NA,NA,NA,NA,NA,NA,NA,NA,NA,NA,NA,NA,NA,NA,NA,NA,NA,NA,NA
"8","stim/objects/HouseObjects/rug2.png",38,74,38,0.7,"stim/61.jpeg",6,1,2,NA,"HouseObjects",1,3,"left","left",0.673999786,1,1,0,1,NA,NA,NA,NA,NA,NA,NA,NA,NA,NA,NA,NA,NA,NA,NA,NA,NA,NA,NA,NA,NA,NA,NA,NA
"202","stim/objects/Instruments/trumpet2.png",39,74,39,0.9,"stim/14.jpeg",1,4,3,NA,"Instruments",2,1,"right","left",0.676999807,0,0,0,1,NA,NA,NA,NA,NA,NA,NA,NA,NA,NA,NA,NA,NA,NA,NA,NA,NA,NA,NA,NA,NA,NA,NA,NA
"234","stim/objects/Instruments/xylophone.png",40,74,40,0.7,"stim/54.jpeg",5,4,2,NA,"Instruments",2,1,"right","right",0.625999928,1,1,0,1,NA,NA,NA,NA,NA,NA,NA,NA,NA,NA,NA,NA,NA,NA,NA,NA,NA,NA,NA,NA,NA,NA,NA,NA
"143","stim/objects/Instruments/speaker2.png",41,74,41,0.3,"stim/63.jpeg",6,3,2,NA,"Instruments",2,3,"right","",NA,0,0,0,1,NA,NA,NA,NA,NA,NA,NA,NA,NA,NA,NA,NA,NA,NA,NA,NA,NA,NA,NA,NA,NA,NA,NA,NA
"195","stim/objects/Instruments/trumpet.png",42,74,42,0.5,"stim/44.jpeg",4,4,1,NA,"Instruments",2,1,"right","left",0.612999916,0,0,0,1,NA,NA,NA,NA,NA,NA,NA,NA,NA,NA,NA,NA,NA,NA,NA,NA,NA,NA,NA,NA,NA,NA,NA,NA
"88","stim/objects/HouseObjects/towel2.png",43,74,43,0.9,"stim/22.jpeg",2,2,3,NA,"HouseObjects",1,2,"left","left",0.642999887,1,1,0,1,NA,NA,NA,NA,NA,NA,NA,NA,NA,NA,NA,NA,NA,NA,NA,NA,NA,NA,NA,NA,NA,NA,NA,NA
"121","stim/objects/Instruments/record_player.png",44,74,44,0.5,"stim/31.jpeg",3,1,1,NA,"Instruments",2,2,"right","right",0.616999865,1,1,0,1,NA,NA,NA,NA,NA,NA,NA,NA,NA,NA,NA,NA,NA,NA,NA,NA,NA,NA,NA,NA,NA,NA,NA,NA
"73","stim/objects/HouseObjects/thread.png",45,74,45,0.3,"stim/51.jpeg",5,1,2,NA,"HouseObjects",1,2,"left","right",0.733999968,0,0,0,1,NA,NA,NA,NA,NA,NA,NA,NA,NA,NA,NA,NA,NA,NA,NA,NA,NA,NA,NA,NA,NA,NA,NA,NA
"67","stim/objects/HouseObjects/thermometer.png",46,74,46,0.5,"stim/44.jpeg",4,4,1,NA,"HouseObjects",1,1,"left","left",0.879999876,1,1,0,1,NA,NA,NA,NA,NA,NA,NA,NA,NA,NA,NA,NA,NA,NA,NA,NA,NA,NA,NA,NA,NA,NA,NA,NA
"151","stim/objects/Instruments/tambourine2.png",47,74,47,0.3,"stim/64.jpeg",6,4,2,NA,"Instruments",2,4,"right","left",0.649999857,0,0,0,1,NA,NA,NA,NA,NA,NA,NA,NA,NA,NA,NA,NA,NA,NA,NA,NA,NA,NA,NA,NA,NA,NA,NA,NA
"14","stim/objects/HouseObjects/safetypin.png",48,74,48,0.5,"stim/32.jpeg",3,2,1,NA,"HouseObjects",1,4,"left","right",0.467000008,0,0,0,1,NA,NA,NA,NA,NA,NA,NA,NA,NA,NA,NA,NA,NA,NA,NA,NA,NA,NA,NA,NA,NA,NA,NA,NA
"225","stim/objects/Instruments/vuvuzela.png",49,74,49,0.7,"stim/53.jpeg",5,3,2,NA,"Instruments",2,4,"right","left",0.404999733,0,0,0,1,NA,NA,NA,NA,NA,NA,NA,NA,NA,NA,NA,NA,NA,NA,NA,NA,NA,NA,NA,NA,NA,NA,NA,NA
"196","stim/objects/Instruments/trumpet.png",50,74,50,0.5,"stim/44.jpeg",4,4,1,NA,"Instruments",2,3,"right","right",0.632999897,1,1,0,1,NA,NA,NA,NA,NA,NA,NA,NA,NA,NA,NA,NA,NA,NA,NA,NA,NA,NA,NA,NA,NA,NA,NA,NA
"9","stim/objects/HouseObjects/rug2.png",51,74,51,0.7,"stim/61.jpeg",6,1,2,NA,"HouseObjects",1,2,"left","left",0.455999851,1,1,0,1,NA,NA,NA,NA,NA,NA,NA,NA,NA,NA,NA,NA,NA,NA,NA,NA,NA,NA,NA,NA,NA,NA,NA,NA
"60","stim/objects/HouseObjects/spraybottle2.png",52,74,52,0.1,"stim/12.jpeg",1,2,3,NA,"HouseObjects",1,3,"left","right",0.539999723,0,0,0,1,NA,NA,NA,NA,NA,NA,NA,NA,NA,NA,NA,NA,NA,NA,NA,NA,NA,NA,NA,NA,NA,NA,NA,NA
"145","stim/objects/Instruments/tambourine.png",53,74,53,0.5,"stim/34.jpeg",3,4,1,NA,"Instruments",2,2,"right","left",0.484999895,0,0,0,1,NA,NA,NA,NA,NA,NA,NA,NA,NA,NA,NA,NA,NA,NA,NA,NA,NA,NA,NA,NA,NA,NA,NA,NA
"101","stim/objects/HouseObjects/vacuumcleaner2.png",54,74,54,0.9,"stim/23.jpeg",2,3,3,NA,"HouseObjects",1,4,"left","right",0.509999752,0,0,0,1,NA,NA,NA,NA,NA,NA,NA,NA,NA,NA,NA,NA,NA,NA,NA,NA,NA,NA,NA,NA,NA,NA,NA,NA
"89","stim/objects/HouseObjects/towel2.png",55,74,55,0.9,"stim/22.jpeg",2,2,3,NA,"HouseObjects",1,1,"left","left",0.712999821,1,1,0,1,NA,NA,NA,NA,NA,NA,NA,NA,NA,NA,NA,NA,NA,NA,NA,NA,NA,NA,NA,NA,NA,NA,NA,NA
"197","stim/objects/Instruments/trumpet.png",56,74,56,0.5,"stim/44.jpeg",4,4,1,NA,"Instruments",2,3,"right","left",0.441999912,0,0,0,1,NA,NA,NA,NA,NA,NA,NA,NA,NA,NA,NA,NA,NA,NA,NA,NA,NA,NA,NA,NA,NA,NA,NA,NA
"158","stim/objects/Instruments/timbal2.png",57,74,57,0.9,"stim/11.jpeg",1,1,3,NA,"Instruments",2,1,"right","left",0.483999729,0,0,0,1,NA,NA,NA,NA,NA,NA,NA,NA,NA,NA,NA,NA,NA,NA,NA,NA,NA,NA,NA,NA,NA,NA,NA,NA
"26","stim/objects/HouseObjects/saw.png",58,74,58,0.5,"stim/33.jpeg",3,3,1,NA,"HouseObjects",1,1,"left","right",0.734999895,0,0,0,1,NA,NA,NA,NA,NA,NA,NA,NA,NA,NA,NA,NA,NA,NA,NA,NA,NA,NA,NA,NA,NA,NA,NA,NA
"152","stim/objects/Instruments/tambourine2.png",59,74,59,0.3,"stim/64.jpeg",6,4,2,NA,"Instruments",2,3,"right","left",0.678999901,0,0,0,1,NA,NA,NA,NA,NA,NA,NA,NA,NA,NA,NA,NA,NA,NA,NA,NA,NA,NA,NA,NA,NA,NA,NA,NA
"27","stim/objects/HouseObjects/saw.png",60,74,60,0.5,"stim/33.jpeg",3,3,1,NA,"HouseObjects",1,3,"left","right",0.554999828,0,0,0,1,NA,NA,NA,NA,NA,NA,NA,NA,NA,NA,NA,NA,NA,NA,NA,NA,NA,NA,NA,NA,NA,NA,NA,NA
"74","stim/objects/HouseObjects/thread.png",61,74,61,0.3,"stim/51.jpeg",5,1,2,NA,"HouseObjects",1,1,"left","left",0.79399991,1,1,0,1,NA,NA,NA,NA,NA,NA,NA,NA,NA,NA,NA,NA,NA,NA,NA,NA,NA,NA,NA,NA,NA,NA,NA,NA
"81","stim/objects/HouseObjects/thread2.png",62,74,62,0.9,"stim/21.jpeg",2,1,3,NA,"HouseObjects",1,4,"left","left",0.598999739,1,1,0,1,NA,NA,NA,NA,NA,NA,NA,NA,NA,NA,NA,NA,NA,NA,NA,NA,NA,NA,NA,NA,NA,NA,NA,NA
"235","stim/objects/Instruments/xylophone.png",63,74,63,0.7,"stim/54.jpeg",5,4,2,NA,"Instruments",2,2,"right","right",0.644999743,1,1,0,1,NA,NA,NA,NA,NA,NA,NA,NA,NA,NA,NA,NA,NA,NA,NA,NA,NA,NA,NA,NA,NA,NA,NA,NA
"82","stim/objects/HouseObjects/thread2.png",64,74,64,0.9,"stim/21.jpeg",2,1,3,NA,"HouseObjects",1,4,"left","left",0.67599988,1,1,0,1,NA,NA,NA,NA,NA,NA,NA,NA,NA,NA,NA,NA,NA,NA,NA,NA,NA,NA,NA,NA,NA,NA,NA,NA
"2","stim/objects/HouseObjects/rug.png",65,74,65,0.5,"stim/31.jpeg",3,1,1,NA,"HouseObjects",1,2,"left","right",0.743000031,0,0,0,1,NA,NA,NA,NA,NA,NA,NA,NA,NA,NA,NA,NA,NA,NA,NA,NA,NA,NA,NA,NA,NA,NA,NA,NA
"159","stim/objects/Instruments/timbal2.png",66,74,66,0.9,"stim/11.jpeg",1,1,3,NA,"Instruments",2,1,"right","",NA,0,0,0,1,NA,NA,NA,NA,NA,NA,NA,NA,NA,NA,NA,NA,NA,NA,NA,NA,NA,NA,NA,NA,NA,NA,NA,NA
"37","stim/objects/HouseObjects/scale.png",67,74,67,0.5,"stim/34.jpeg",3,4,1,NA,"HouseObjects",1,3,"left","right",0.579999924,0,0,0,1,NA,NA,NA,NA,NA,NA,NA,NA,NA,NA,NA,NA,NA,NA,NA,NA,NA,NA,NA,NA,NA,NA,NA,NA
"186","stim/objects/Instruments/trombone2.png",68,74,68,0.9,"stim/13.jpeg",1,3,3,NA,"Instruments",2,2,"right","left",0.55099988,0,0,0,1,NA,NA,NA,NA,NA,NA,NA,NA,NA,NA,NA,NA,NA,NA,NA,NA,NA,NA,NA,NA,NA,NA,NA,NA
"113","stim/objects/HouseObjects/wateringcan2.png",69,74,69,0.9,"stim/24.jpeg",2,4,3,NA,"HouseObjects",1,2,"left","left",0.642999887,1,1,0,1,NA,NA,NA,NA,NA,NA,NA,NA,NA,NA,NA,NA,NA,NA,NA,NA,NA,NA,NA,NA,NA,NA,NA,NA
"154","stim/objects/Instruments/timbal.png",70,74,70,0.5,"stim/41.jpeg",4,1,1,NA,"Instruments",2,4,"right","right",0.686999798,1,1,0,1,NA,NA,NA,NA,NA,NA,NA,NA,NA,NA,NA,NA,NA,NA,NA,NA,NA,NA,NA,NA,NA,NA,NA,NA
"167","stim/objects/Instruments/triangle.png",71,74,71,0.5,"stim/42.jpeg",4,2,1,NA,"Instruments",2,1,"right","left",0.620999813,0,0,0,1,NA,NA,NA,NA,NA,NA,NA,NA,NA,NA,NA,NA,NA,NA,NA,NA,NA,NA,NA,NA,NA,NA,NA,NA
"49","stim/objects/HouseObjects/sponge.png",72,74,72,0.5,"stim/41.jpeg",4,1,1,NA,"HouseObjects",1,2,"left","right",0.743999958,0,0,0,1,NA,NA,NA,NA,NA,NA,NA,NA,NA,NA,NA,NA,NA,NA,NA,NA,NA,NA,NA,NA,NA,NA,NA,NA
"226","stim/objects/Instruments/vuvuzela.png",73,74,73,0.7,"stim/53.jpeg",5,3,2,NA,"Instruments",2,1,"right","left",0.797999859,0,0,0,1,NA,NA,NA,NA,NA,NA,NA,NA,NA,NA,NA,NA,NA,NA,NA,NA,NA,NA,NA,NA,NA,NA,NA,NA
"20","stim/objects/HouseObjects/safetypin2.png",74,74,74,0.7,"stim/62.jpeg",6,2,2,NA,"HouseObjects",1,2,"left","left",0.703999758,1,1,0,1,NA,NA,NA,NA,NA,NA,NA,NA,NA,NA,NA,NA,NA,NA,NA,NA,NA,NA,NA,NA,NA,NA,NA,NA
"128","stim/objects/Instruments/record_player2.png",75,74,75,0.3,"stim/61.jpeg",6,1,2,NA,"Instruments",2,1,"right","",NA,0,0,0,1,NA,NA,NA,NA,NA,NA,NA,NA,NA,NA,NA,NA,NA,NA,NA,NA,NA,NA,NA,NA,NA,NA,NA,NA
"187","stim/objects/Instruments/trombone2.png",76,74,76,0.9,"stim/13.jpeg",1,3,3,NA,"Instruments",2,3,"right","left",0.404999971,0,0,0,1,NA,NA,NA,NA,NA,NA,NA,NA,NA,NA,NA,NA,NA,NA,NA,NA,NA,NA,NA,NA,NA,NA,NA,NA
"211","stim/objects/Instruments/tuba.png",77,74,77,0.7,"stim/51.jpeg",5,1,2,NA,"Instruments",2,2,"right","right",0.389999866,1,1,0,1,NA,NA,NA,NA,NA,NA,NA,NA,NA,NA,NA,NA,NA,NA,NA,NA,NA,NA,NA,NA,NA,NA,NA,NA
"15","stim/objects/HouseObjects/safetypin.png",78,74,78,0.5,"stim/32.jpeg",3,2,1,NA,"HouseObjects",1,1,"left","right",0.724999666,0,0,0,1,NA,NA,NA,NA,NA,NA,NA,NA,NA,NA,NA,NA,NA,NA,NA,NA,NA,NA,NA,NA,NA,NA,NA,NA
"155","stim/objects/Instruments/timbal.png",79,74,79,0.5,"stim/41.jpeg",4,1,1,NA,"Instruments",2,1,"right","",NA,0,0,0,1,NA,NA,NA,NA,NA,NA,NA,NA,NA,NA,NA,NA,NA,NA,NA,NA,NA,NA,NA,NA,NA,NA,NA,NA
"168","stim/objects/Instruments/triangle.png",80,74,80,0.5,"stim/42.jpeg",4,2,1,NA,"Instruments",2,3,"right","left",0.750999689,0,0,0,1,NA,NA,NA,NA,NA,NA,NA,NA,NA,NA,NA,NA,NA,NA,NA,NA,NA,NA,NA,NA,NA,NA,NA,NA
"139","stim/objects/Instruments/speaker.png",81,74,81,0.5,"stim/33.jpeg",3,3,1,NA,"Instruments",2,1,"right","right",0.625999689,1,1,0,1,NA,NA,NA,NA,NA,NA,NA,NA,NA,NA,NA,NA,NA,NA,NA,NA,NA,NA,NA,NA,NA,NA,NA,NA
"85","stim/objects/HouseObjects/towel.png",82,74,82,0.3,"stim/52.jpeg",5,2,2,NA,"HouseObjects",1,4,"left","right",0.843999863,0,0,0,1,NA,NA,NA,NA,NA,NA,NA,NA,NA,NA,NA,NA,NA,NA,NA,NA,NA,NA,NA,NA,NA,NA,NA,NA
"156","stim/objects/Instruments/timbal.png",83,74,83,0.5,"stim/41.jpeg",4,1,1,NA,"Instruments",2,2,"right","",NA,0,0,0,1,NA,NA,NA,NA,NA,NA,NA,NA,NA,NA,NA,NA,NA,NA,NA,NA,NA,NA,NA,NA,NA,NA,NA,NA
"169","stim/objects/Instruments/triangle.png",84,74,84,0.5,"stim/42.jpeg",4,2,1,NA,"Instruments",2,1,"right","",NA,0,0,0,1,NA,NA,NA,NA,NA,NA,NA,NA,NA,NA,NA,NA,NA,NA,NA,NA,NA,NA,NA,NA,NA,NA,NA,NA
"140","stim/objects/Instruments/speaker.png",85,74,85,0.5,"stim/33.jpeg",3,3,1,NA,"Instruments",2,2,"right","left",0.443999767,0,0,0,1,NA,NA,NA,NA,NA,NA,NA,NA,NA,NA,NA,NA,NA,NA,NA,NA,NA,NA,NA,NA,NA,NA,NA,NA
"129","stim/objects/Instruments/saxophone.png",86,74,86,0.5,"stim/32.jpeg",3,2,1,NA,"Instruments",2,1,"right","right",0.423999786,1,1,0,1,NA,NA,NA,NA,NA,NA,NA,NA,NA,NA,NA,NA,NA,NA,NA,NA,NA,NA,NA,NA,NA,NA,NA,NA
"111","stim/objects/HouseObjects/wateringcan.png",87,74,87,0.3,"stim/54.jpeg",5,4,2,NA,"HouseObjects",1,2,"left","right",0.441999912,0,0,0,1,NA,NA,NA,NA,NA,NA,NA,NA,NA,NA,NA,NA,NA,NA,NA,NA,NA,NA,NA,NA,NA,NA,NA,NA
"16","stim/objects/HouseObjects/safetypin.png",88,74,88,0.5,"stim/32.jpeg",3,2,1,NA,"HouseObjects",1,3,"left","left",0.468999863,1,1,0,1,NA,NA,NA,NA,NA,NA,NA,NA,NA,NA,NA,NA,NA,NA,NA,NA,NA,NA,NA,NA,NA,NA,NA,NA
"90","stim/objects/HouseObjects/towel2.png",89,74,89,0.9,"stim/22.jpeg",2,2,3,NA,"HouseObjects",1,3,"left","left",0.622999907,1,1,0,1,NA,NA,NA,NA,NA,NA,NA,NA,NA,NA,NA,NA,NA,NA,NA,NA,NA,NA,NA,NA,NA,NA,NA,NA
"146","stim/objects/Instruments/tambourine.png",90,74,90,0.5,"stim/34.jpeg",3,4,1,NA,"Instruments",2,4,"right","right",0.55099988,1,1,0,1,NA,NA,NA,NA,NA,NA,NA,NA,NA,NA,NA,NA,NA,NA,NA,NA,NA,NA,NA,NA,NA,NA,NA,NA
"10","stim/objects/HouseObjects/rug2.png",91,74,91,0.7,"stim/61.jpeg",6,1,2,NA,"HouseObjects",1,3,"left","left",0.516999722,1,1,0,1,NA,NA,NA,NA,NA,NA,NA,NA,NA,NA,NA,NA,NA,NA,NA,NA,NA,NA,NA,NA,NA,NA,NA,NA
"122","stim/objects/Instruments/record_player.png",92,74,92,0.5,"stim/31.jpeg",3,1,1,NA,"Instruments",2,4,"right","left",0.528999805,0,0,0,1,NA,NA,NA,NA,NA,NA,NA,NA,NA,NA,NA,NA,NA,NA,NA,NA,NA,NA,NA,NA,NA,NA,NA,NA
"42","stim/objects/HouseObjects/scale2.png",93,74,93,0.7,"stim/64.jpeg",6,4,2,NA,"HouseObjects",1,2,"left","left",0.485999823,1,1,0,1,NA,NA,NA,NA,NA,NA,NA,NA,NA,NA,NA,NA,NA,NA,NA,NA,NA,NA,NA,NA,NA,NA,NA,NA
"11","stim/objects/HouseObjects/rug2.png",94,74,94,0.7,"stim/61.jpeg",6,1,2,NA,"HouseObjects",1,1,"left","left",0.488999844,1,1,0,1,NA,NA,NA,NA,NA,NA,NA,NA,NA,NA,NA,NA,NA,NA,NA,NA,NA,NA,NA,NA,NA,NA,NA,NA
"232","stim/objects/Instruments/vuvuzela2.png",95,74,95,0.1,"stim/23.jpeg",2,3,3,NA,"Instruments",2,2,"right","left",0.647999763,0,0,0,1,NA,NA,NA,NA,NA,NA,NA,NA,NA,NA,NA,NA,NA,NA,NA,NA,NA,NA,NA,NA,NA,NA,NA,NA
"66","stim/objects/HouseObjects/teapot2.png",96,74,96,0.1,"stim/13.jpeg",1,3,3,NA,"HouseObjects",1,1,"left","right",0.622999907,0,0,0,1,NA,NA,NA,NA,NA,NA,NA,NA,NA,NA,NA,NA,NA,NA,NA,NA,NA,NA,NA,NA,NA,NA,NA,NA
"43","stim/objects/HouseObjects/scale2.png",97,74,97,0.7,"stim/64.jpeg",6,4,2,NA,"HouseObjects",1,4,"left","right",0.807999849,0,0,0,1,NA,NA,NA,NA,NA,NA,NA,NA,NA,NA,NA,NA,NA,NA,NA,NA,NA,NA,NA,NA,NA,NA,NA,NA
"98","stim/objects/HouseObjects/vacuumcleaner.png",98,74,98,0.3,"stim/53.jpeg",5,3,2,NA,"HouseObjects",1,3,"left","left",0.507999897,1,1,0,1,NA,NA,NA,NA,NA,NA,NA,NA,NA,NA,NA,NA,NA,NA,NA,NA,NA,NA,NA,NA,NA,NA,NA,NA
"130","stim/objects/Instruments/saxophone.png",99,74,99,0.5,"stim/32.jpeg",3,2,1,NA,"Instruments",2,3,"right","left",0.54799962,0,0,0,1,NA,NA,NA,NA,NA,NA,NA,NA,NA,NA,NA,NA,NA,NA,NA,NA,NA,NA,NA,NA,NA,NA,NA,NA
"28","stim/objects/HouseObjects/saw.png",100,74,100,0.5,"stim/33.jpeg",3,3,1,NA,"HouseObjects",1,1,"left","right",0.838999748,0,0,0,1,NA,NA,NA,NA,NA,NA,NA,NA,NA,NA,NA,NA,NA,NA,NA,NA,NA,NA,NA,NA,NA,NA,NA,NA
"216","stim/objects/Instruments/tuba2.png",101,74,101,0.1,"stim/21.jpeg",2,1,3,NA,"Instruments",2,1,"right","left",0.437999725,0,0,0,1,NA,NA,NA,NA,NA,NA,NA,NA,NA,NA,NA,NA,NA,NA,NA,NA,NA,NA,NA,NA,NA,NA,NA,NA
"44","stim/objects/HouseObjects/scale2.png",102,74,102,0.7,"stim/64.jpeg",6,4,2,NA,"HouseObjects",1,2,"left","left",0.588999987,1,1,0,1,NA,NA,NA,NA,NA,NA,NA,NA,NA,NA,NA,NA,NA,NA,NA,NA,NA,NA,NA,NA,NA,NA,NA,NA
"218","stim/objects/Instruments/violin.png",103,74,103,0.7,"stim/52.jpeg",5,2,2,NA,"Instruments",2,3,"right","left",0.536999941,0,0,0,1,NA,NA,NA,NA,NA,NA,NA,NA,NA,NA,NA,NA,NA,NA,NA,NA,NA,NA,NA,NA,NA,NA,NA,NA
"240","stim/objects/Instruments/xylophone2.png",104,74,104,0.1,"stim/24.jpeg",2,4,3,NA,"Instruments",2,3,"right","right",0.662999868,1,1,0,1,NA,NA,NA,NA,NA,NA,NA,NA,NA,NA,NA,NA,NA,NA,NA,NA,NA,NA,NA,NA,NA,NA,NA,NA
"160","stim/objects/Instruments/timbal2.png",105,74,105,0.9,"stim/11.jpeg",1,1,3,NA,"Instruments",2,1,"right","left",0.794999838,0,0,0,1,NA,NA,NA,NA,NA,NA,NA,NA,NA,NA,NA,NA,NA,NA,NA,NA,NA,NA,NA,NA,NA,NA,NA,NA
"236","stim/objects/Instruments/xylophone.png",106,74,106,0.7,"stim/54.jpeg",5,4,2,NA,"Instruments",2,3,"right","left",0.691999674,0,0,0,1,NA,NA,NA,NA,NA,NA,NA,NA,NA,NA,NA,NA,NA,NA,NA,NA,NA,NA,NA,NA,NA,NA,NA,NA
"147","stim/objects/Instruments/tambourine.png",107,74,107,0.5,"stim/34.jpeg",3,4,1,NA,"Instruments",2,1,"right","right",0.730999947,1,1,0,1,NA,NA,NA,NA,NA,NA,NA,NA,NA,NA,NA,NA,NA,NA,NA,NA,NA,NA,NA,NA,NA,NA,NA,NA
"237","stim/objects/Instruments/xylophone.png",108,74,108,0.7,"stim/54.jpeg",5,4,2,NA,"Instruments",2,4,"right","left",0.843999863,0,0,0,1,NA,NA,NA,NA,NA,NA,NA,NA,NA,NA,NA,NA,NA,NA,NA,NA,NA,NA,NA,NA,NA,NA,NA,NA
"91","stim/objects/HouseObjects/towel2.png",109,74,109,0.9,"stim/22.jpeg",2,2,3,NA,"HouseObjects",1,3,"left","",NA,0,0,0,1,NA,NA,NA,NA,NA,NA,NA,NA,NA,NA,NA,NA,NA,NA,NA,NA,NA,NA,NA,NA,NA,NA,NA,NA
"131","stim/objects/Instruments/saxophone.png",110,74,110,0.5,"stim/32.jpeg",3,2,1,NA,"Instruments",2,4,"right","left",0.437999964,0,0,0,1,NA,NA,NA,NA,NA,NA,NA,NA,NA,NA,NA,NA,NA,NA,NA,NA,NA,NA,NA,NA,NA,NA,NA,NA
"45","stim/objects/HouseObjects/scale2.png",111,74,111,0.7,"stim/64.jpeg",6,4,2,NA,"HouseObjects",1,3,"left","left",0.576999903,1,1,0,1,NA,NA,NA,NA,NA,NA,NA,NA,NA,NA,NA,NA,NA,NA,NA,NA,NA,NA,NA,NA,NA,NA,NA,NA
"114","stim/objects/HouseObjects/wateringcan2.png",112,74,112,0.9,"stim/24.jpeg",2,4,3,NA,"HouseObjects",1,3,"left","left",0.657000065,1,1,0,1,NA,NA,NA,NA,NA,NA,NA,NA,NA,NA,NA,NA,NA,NA,NA,NA,NA,NA,NA,NA,NA,NA,NA,NA
"115","stim/objects/HouseObjects/wateringcan2.png",113,74,113,0.9,"stim/24.jpeg",2,4,3,NA,"HouseObjects",1,1,"left","left",0.586999893,1,1,0,1,NA,NA,NA,NA,NA,NA,NA,NA,NA,NA,NA,NA,NA,NA,NA,NA,NA,NA,NA,NA,NA,NA,NA,NA
"54","stim/objects/HouseObjects/sponge2.png",114,74,114,0.1,"stim/11.jpeg",1,1,3,NA,"HouseObjects",1,2,"left","right",0.869999886,0,0,0,1,NA,NA,NA,NA,NA,NA,NA,NA,NA,NA,NA,NA,NA,NA,NA,NA,NA,NA,NA,NA,NA,NA,NA,NA
"227","stim/objects/Instruments/vuvuzela.png",115,74,115,0.7,"stim/53.jpeg",5,3,2,NA,"Instruments",2,4,"right","right",0.725999832,1,1,0,1,NA,NA,NA,NA,NA,NA,NA,NA,NA,NA,NA,NA,NA,NA,NA,NA,NA,NA,NA,NA,NA,NA,NA,NA
"58","stim/objects/HouseObjects/spraybottle.png",116,74,116,0.5,"stim/42.jpeg",4,2,1,NA,"HouseObjects",1,4,"left","left",0.444999933,1,1,0,1,NA,NA,NA,NA,NA,NA,NA,NA,NA,NA,NA,NA,NA,NA,NA,NA,NA,NA,NA,NA,NA,NA,NA,NA
"161","stim/objects/Instruments/timbal2.png",117,74,117,0.9,"stim/11.jpeg",1,1,3,NA,"Instruments",2,1,"right","",NA,0,0,0,1,NA,NA,NA,NA,NA,NA,NA,NA,NA,NA,NA,NA,NA,NA,NA,NA,NA,NA,NA,NA,NA,NA,NA,NA
"102","stim/objects/HouseObjects/vacuumcleaner2.png",118,74,118,0.9,"stim/23.jpeg",2,3,3,NA,"HouseObjects",1,3,"left","left",0.620999813,1,1,0,1,NA,NA,NA,NA,NA,NA,NA,NA,NA,NA,NA,NA,NA,NA,NA,NA,NA,NA,NA,NA,NA,NA,NA,NA
"212","stim/objects/Instruments/tuba.png",119,74,119,0.7,"stim/51.jpeg",5,1,2,NA,"Instruments",2,2,"right","right",0.456999779,1,1,0,1,NA,NA,NA,NA,NA,NA,NA,NA,NA,NA,NA,NA,NA,NA,NA,NA,NA,NA,NA,NA,NA,NA,NA,NA
"188","stim/objects/Instruments/trombone2.png",120,74,120,0.9,"stim/13.jpeg",1,3,3,NA,"Instruments",2,4,"right","left",0.679999828,0,0,0,1,NA,NA,NA,NA,NA,NA,NA,NA,NA,NA,NA,NA,NA,NA,NA,NA,NA,NA,NA,NA,NA,NA,NA,NA
"189","stim/objects/Instruments/trombone2.png",121,74,121,0.9,"stim/13.jpeg",1,3,3,NA,"Instruments",2,3,"right","left",0.43599987,0,0,0,1,NA,NA,NA,NA,NA,NA,NA,NA,NA,NA,NA,NA,NA,NA,NA,NA,NA,NA,NA,NA,NA,NA,NA,NA
"162","stim/objects/Instruments/timbal2.png",122,74,122,0.9,"stim/11.jpeg",1,1,3,NA,"Instruments",2,2,"right","right",0.788999796,1,1,0,1,NA,NA,NA,NA,NA,NA,NA,NA,NA,NA,NA,NA,NA,NA,NA,NA,NA,NA,NA,NA,NA,NA,NA,NA
"92","stim/objects/HouseObjects/towel2.png",123,74,123,0.9,"stim/22.jpeg",2,2,3,NA,"HouseObjects",1,4,"left","left",0.523999929,1,1,0,1,NA,NA,NA,NA,NA,NA,NA,NA,NA,NA,NA,NA,NA,NA,NA,NA,NA,NA,NA,NA,NA,NA,NA,NA
"99","stim/objects/HouseObjects/vacuumcleaner.png",124,74,124,0.3,"stim/53.jpeg",5,3,2,NA,"HouseObjects",1,3,"left","right",0.63499999,0,0,0,1,NA,NA,NA,NA,NA,NA,NA,NA,NA,NA,NA,NA,NA,NA,NA,NA,NA,NA,NA,NA,NA,NA,NA,NA
"32","stim/objects/HouseObjects/saw2.png",125,74,125,0.7,"stim/63.jpeg",6,3,2,NA,"HouseObjects",1,3,"left","left",0.740999937,1,1,0,1,NA,NA,NA,NA,NA,NA,NA,NA,NA,NA,NA,NA,NA,NA,NA,NA,NA,NA,NA,NA,NA,NA,NA,NA
"132","stim/objects/Instruments/saxophone.png",126,74,126,0.5,"stim/32.jpeg",3,2,1,NA,"Instruments",2,1,"right","right",0.782000065,1,1,0,1,NA,NA,NA,NA,NA,NA,NA,NA,NA,NA,NA,NA,NA,NA,NA,NA,NA,NA,NA,NA,NA,NA,NA,NA
"163","stim/objects/Instruments/timbal2.png",127,74,127,0.9,"stim/11.jpeg",1,1,3,NA,"Instruments",2,2,"right","left",0.64199996,0,0,0,1,NA,NA,NA,NA,NA,NA,NA,NA,NA,NA,NA,NA,NA,NA,NA,NA,NA,NA,NA,NA,NA,NA,NA,NA
"103","stim/objects/HouseObjects/vacuumcleaner2.png",128,74,128,0.9,"stim/23.jpeg",2,3,3,NA,"HouseObjects",1,3,"left","left",0.59499979,1,1,0,1,NA,NA,NA,NA,NA,NA,NA,NA,NA,NA,NA,NA,NA,NA,NA,NA,NA,NA,NA,NA,NA,NA,NA,NA
"219","stim/objects/Instruments/violin.png",129,74,129,0.7,"stim/52.jpeg",5,2,2,NA,"Instruments",2,3,"right","right",0.602999687,1,1,0,1,NA,NA,NA,NA,NA,NA,NA,NA,NA,NA,NA,NA,NA,NA,NA,NA,NA,NA,NA,NA,NA,NA,NA,NA
"93","stim/objects/HouseObjects/towel2.png",130,74,130,0.9,"stim/22.jpeg",2,2,3,NA,"HouseObjects",1,2,"left","left",0.605999947,1,1,0,1,NA,NA,NA,NA,NA,NA,NA,NA,NA,NA,NA,NA,NA,NA,NA,NA,NA,NA,NA,NA,NA,NA,NA,NA
"198","stim/objects/Instruments/trumpet.png",131,74,131,0.5,"stim/44.jpeg",4,4,1,NA,"Instruments",2,4,"right","right",0.829999924,1,1,0,1,NA,NA,NA,NA,NA,NA,NA,NA,NA,NA,NA,NA,NA,NA,NA,NA,NA,NA,NA,NA,NA,NA,NA,NA
"38","stim/objects/HouseObjects/scale.png",132,74,132,0.5,"stim/34.jpeg",3,4,1,NA,"HouseObjects",1,4,"left","left",0.717999935,1,1,0,1,NA,NA,NA,NA,NA,NA,NA,NA,NA,NA,NA,NA,NA,NA,NA,NA,NA,NA,NA,NA,NA,NA,NA,NA
"83","stim/objects/HouseObjects/thread2.png",133,74,133,0.9,"stim/21.jpeg",2,1,3,NA,"HouseObjects",1,2,"left","left",0.591999769,1,1,0,1,NA,NA,NA,NA,NA,NA,NA,NA,NA,NA,NA,NA,NA,NA,NA,NA,NA,NA,NA,NA,NA,NA,NA,NA
"181","stim/objects/Instruments/trombone.png",134,74,134,0.5,"stim/43.jpeg",4,3,1,NA,"Instruments",2,3,"right","right",0.744999647,1,1,0,1,NA,NA,NA,NA,NA,NA,NA,NA,NA,NA,NA,NA,NA,NA,NA,NA,NA,NA,NA,NA,NA,NA,NA,NA
"173","stim/objects/Instruments/triangle2.png",135,74,135,0.9,"stim/12.jpeg",1,2,3,NA,"Instruments",2,1,"right","left",0.792999744,0,0,0,1,NA,NA,NA,NA,NA,NA,NA,NA,NA,NA,NA,NA,NA,NA,NA,NA,NA,NA,NA,NA,NA,NA,NA,NA
"116","stim/objects/HouseObjects/wateringcan2.png",136,74,136,0.9,"stim/24.jpeg",2,4,3,NA,"HouseObjects",1,4,"left","left",0.705999851,1,1,0,1,NA,NA,NA,NA,NA,NA,NA,NA,NA,NA,NA,NA,NA,NA,NA,NA,NA,NA,NA,NA,NA,NA,NA,NA
"203","stim/objects/Instruments/trumpet2.png",137,74,137,0.9,"stim/14.jpeg",1,4,3,NA,"Instruments",2,3,"right","right",0.891000032,1,1,0,1,NA,NA,NA,NA,NA,NA,NA,NA,NA,NA,NA,NA,NA,NA,NA,NA,NA,NA,NA,NA,NA,NA,NA,NA
"133","stim/objects/Instruments/saxophone.png",138,74,138,0.5,"stim/32.jpeg",3,2,1,NA,"Instruments",2,1,"right","right",0.895999908,1,1,0,1,NA,NA,NA,NA,NA,NA,NA,NA,NA,NA,NA,NA,NA,NA,NA,NA,NA,NA,NA,NA,NA,NA,NA,NA
"3","stim/objects/HouseObjects/rug.png",139,74,139,0.5,"stim/31.jpeg",3,1,1,NA,"HouseObjects",1,3,"left","left",0.458999872,1,1,0,1,NA,NA,NA,NA,NA,NA,NA,NA,NA,NA,NA,NA,NA,NA,NA,NA,NA,NA,NA,NA,NA,NA,NA,NA
"50","stim/objects/HouseObjects/sponge.png",140,74,140,0.5,"stim/41.jpeg",4,1,1,NA,"HouseObjects",1,3,"left","right",0.730999708,0,0,0,1,NA,NA,NA,NA,NA,NA,NA,NA,NA,NA,NA,NA,NA,NA,NA,NA,NA,NA,NA,NA,NA,NA,NA,NA
"59","stim/objects/HouseObjects/spraybottle.png",141,74,141,0.5,"stim/42.jpeg",4,2,1,NA,"HouseObjects",1,4,"left","left",0.613999844,1,1,0,1,NA,NA,NA,NA,NA,NA,NA,NA,NA,NA,NA,NA,NA,NA,NA,NA,NA,NA,NA,NA,NA,NA,NA,NA
"204","stim/objects/Instruments/trumpet2.png",142,74,142,0.9,"stim/14.jpeg",1,4,3,NA,"Instruments",2,1,"right","right",0.587999821,1,1,0,1,NA,NA,NA,NA,NA,NA,NA,NA,NA,NA,NA,NA,NA,NA,NA,NA,NA,NA,NA,NA,NA,NA,NA,NA
"117","stim/objects/HouseObjects/wateringcan2.png",143,74,143,0.9,"stim/24.jpeg",2,4,3,NA,"HouseObjects",1,1,"left","left",0.574999809,1,1,0,1,NA,NA,NA,NA,NA,NA,NA,NA,NA,NA,NA,NA,NA,NA,NA,NA,NA,NA,NA,NA,NA,NA,NA,NA
"104","stim/objects/HouseObjects/vacuumcleaner2.png",144,74,144,0.9,"stim/23.jpeg",2,3,3,NA,"HouseObjects",1,1,"left","left",0.575999975,1,1,0,1,NA,NA,NA,NA,NA,NA,NA,NA,NA,NA,NA,NA,NA,NA,NA,NA,NA,NA,NA,NA,NA,NA,NA,NA
"141","stim/objects/Instruments/speaker.png",145,74,145,0.5,"stim/33.jpeg",3,3,1,NA,"Instruments",2,3,"right","right",0.724999905,1,1,0,1,NA,NA,NA,NA,NA,NA,NA,NA,NA,NA,NA,NA,NA,NA,NA,NA,NA,NA,NA,NA,NA,NA,NA,NA
"220","stim/objects/Instruments/violin.png",146,74,146,0.7,"stim/52.jpeg",5,2,2,NA,"Instruments",2,4,"right","right",0.697999954,1,1,0,1,NA,NA,NA,NA,NA,NA,NA,NA,NA,NA,NA,NA,NA,NA,NA,NA,NA,NA,NA,NA,NA,NA,NA,NA
"94","stim/objects/HouseObjects/towel2.png",147,74,147,0.9,"stim/22.jpeg",2,2,3,NA,"HouseObjects",1,2,"left","left",0.627999783,1,1,0,1,NA,NA,NA,NA,NA,NA,NA,NA,NA,NA,NA,NA,NA,NA,NA,NA,NA,NA,NA,NA,NA,NA,NA,NA
"118","stim/objects/HouseObjects/wateringcan2.png",148,74,148,0.9,"stim/24.jpeg",2,4,3,NA,"HouseObjects",1,3,"left","left",0.615999937,1,1,0,1,NA,NA,NA,NA,NA,NA,NA,NA,NA,NA,NA,NA,NA,NA,NA,NA,NA,NA,NA,NA,NA,NA,NA,NA
"17","stim/objects/HouseObjects/safetypin.png",149,74,149,0.5,"stim/32.jpeg",3,2,1,NA,"HouseObjects",1,3,"left","right",0.876999855,0,0,0,1,NA,NA,NA,NA,NA,NA,NA,NA,NA,NA,NA,NA,NA,NA,NA,NA,NA,NA,NA,NA,NA,NA,NA,NA
"46","stim/objects/HouseObjects/scale2.png",150,74,150,0.7,"stim/64.jpeg",6,4,2,NA,"HouseObjects",1,4,"left","left",0.65599966,1,1,0,1,NA,NA,NA,NA,NA,NA,NA,NA,NA,NA,NA,NA,NA,NA,NA,NA,NA,NA,NA,NA,NA,NA,NA,NA
"72","stim/objects/HouseObjects/thermometer2.png",151,74,151,0.1,"stim/14.jpeg",1,4,3,NA,"HouseObjects",1,3,"left","left",0.592999935,1,1,0,1,NA,NA,NA,NA,NA,NA,NA,NA,NA,NA,NA,NA,NA,NA,NA,NA,NA,NA,NA,NA,NA,NA,NA,NA
"170","stim/objects/Instruments/triangle.png",152,74,152,0.5,"stim/42.jpeg",4,2,1,NA,"Instruments",2,2,"right","right",0.67599988,1,1,0,1,NA,NA,NA,NA,NA,NA,NA,NA,NA,NA,NA,NA,NA,NA,NA,NA,NA,NA,NA,NA,NA,NA,NA,NA
"86","stim/objects/HouseObjects/towel.png",153,74,153,0.3,"stim/52.jpeg",5,2,2,NA,"HouseObjects",1,2,"left","right",0.705999851,0,0,0,1,NA,NA,NA,NA,NA,NA,NA,NA,NA,NA,NA,NA,NA,NA,NA,NA,NA,NA,NA,NA,NA,NA,NA,NA
"157","stim/objects/Instruments/timbal.png",154,74,154,0.5,"stim/41.jpeg",4,1,1,NA,"Instruments",2,2,"right","",NA,0,0,0,1,NA,NA,NA,NA,NA,NA,NA,NA,NA,NA,NA,NA,NA,NA,NA,NA,NA,NA,NA,NA,NA,NA,NA,NA
"105","stim/objects/HouseObjects/vacuumcleaner2.png",155,74,155,0.9,"stim/23.jpeg",2,3,3,NA,"HouseObjects",1,4,"left","left",0.542999983,1,1,0,1,NA,NA,NA,NA,NA,NA,NA,NA,NA,NA,NA,NA,NA,NA,NA,NA,NA,NA,NA,NA,NA,NA,NA,NA
"164","stim/objects/Instruments/timbal2.png",156,74,156,0.9,"stim/11.jpeg",1,1,3,NA,"Instruments",2,4,"right","right",0.640999794,1,1,0,1,NA,NA,NA,NA,NA,NA,NA,NA,NA,NA,NA,NA,NA,NA,NA,NA,NA,NA,NA,NA,NA,NA,NA,NA
"21","stim/objects/HouseObjects/safetypin2.png",157,74,157,0.7,"stim/62.jpeg",6,2,2,NA,"HouseObjects",1,4,"left","left",0.626999855,1,1,0,1,NA,NA,NA,NA,NA,NA,NA,NA,NA,NA,NA,NA,NA,NA,NA,NA,NA,NA,NA,NA,NA,NA,NA,NA
"68","stim/objects/HouseObjects/thermometer.png",158,74,158,0.5,"stim/44.jpeg",4,4,1,NA,"HouseObjects",1,2,"left","right",0.792999744,0,0,0,1,NA,NA,NA,NA,NA,NA,NA,NA,NA,NA,NA,NA,NA,NA,NA,NA,NA,NA,NA,NA,NA,NA,NA,NA
"22","stim/objects/HouseObjects/safetypin2.png",159,74,159,0.7,"stim/62.jpeg",6,2,2,NA,"HouseObjects",1,3,"left","left",0.542999744,1,1,0,1,NA,NA,NA,NA,NA,NA,NA,NA,NA,NA,NA,NA,NA,NA,NA,NA,NA,NA,NA,NA,NA,NA,NA,NA
"119","stim/objects/HouseObjects/wateringcan2.png",160,74,160,0.9,"stim/24.jpeg",2,4,3,NA,"HouseObjects",1,4,"left","left",0.556999922,1,1,0,1,NA,NA,NA,NA,NA,NA,NA,NA,NA,NA,NA,NA,NA,NA,NA,NA,NA,NA,NA,NA,NA,NA,NA,NA
"238","stim/objects/Instruments/xylophone.png",161,74,161,0.7,"stim/54.jpeg",5,4,2,NA,"Instruments",2,1,"right","left",0.747999668,0,0,0,1,NA,NA,NA,NA,NA,NA,NA,NA,NA,NA,NA,NA,NA,NA,NA,NA,NA,NA,NA,NA,NA,NA,NA,NA
"69","stim/objects/HouseObjects/thermometer.png",162,74,162,0.5,"stim/44.jpeg",4,4,1,NA,"HouseObjects",1,2,"left","right",0.715999842,0,0,0,1,NA,NA,NA,NA,NA,NA,NA,NA,NA,NA,NA,NA,NA,NA,NA,NA,NA,NA,NA,NA,NA,NA,NA,NA
"174","stim/objects/Instruments/triangle2.png",163,74,163,0.9,"stim/12.jpeg",1,2,3,NA,"Instruments",2,1,"right","left",0.710999727,0,0,0,1,NA,NA,NA,NA,NA,NA,NA,NA,NA,NA,NA,NA,NA,NA,NA,NA,NA,NA,NA,NA,NA,NA,NA,NA
"239","stim/objects/Instruments/xylophone.png",164,74,164,0.7,"stim/54.jpeg",5,4,2,NA,"Instruments",2,1,"right","left",0.892999887,0,0,0,1,NA,NA,NA,NA,NA,NA,NA,NA,NA,NA,NA,NA,NA,NA,NA,NA,NA,NA,NA,NA,NA,NA,NA,NA
"75","stim/objects/HouseObjects/thread.png",165,74,165,0.3,"stim/51.jpeg",5,1,2,NA,"HouseObjects",1,4,"left","",NA,0,0,0,1,NA,NA,NA,NA,NA,NA,NA,NA,NA,NA,NA,NA,NA,NA,NA,NA,NA,NA,NA,NA,NA,NA,NA,NA
"182","stim/objects/Instruments/trombone.png",166,74,166,0.5,"stim/43.jpeg",4,3,1,NA,"Instruments",2,4,"right","left",0.476999998,0,0,0,1,NA,NA,NA,NA,NA,NA,NA,NA,NA,NA,NA,NA,NA,NA,NA,NA,NA,NA,NA,NA,NA,NA,NA,NA
"228","stim/objects/Instruments/vuvuzela.png",167,74,167,0.7,"stim/53.jpeg",5,3,2,NA,"Instruments",2,1,"right","right",0.684999943,1,1,0,1,NA,NA,NA,NA,NA,NA,NA,NA,NA,NA,NA,NA,NA,NA,NA,NA,NA,NA,NA,NA,NA,NA,NA,NA
"213","stim/objects/Instruments/tuba.png",168,74,168,0.7,"stim/51.jpeg",5,1,2,NA,"Instruments",2,3,"right","right",0.660999775,1,1,0,1,NA,NA,NA,NA,NA,NA,NA,NA,NA,NA,NA,NA,NA,NA,NA,NA,NA,NA,NA,NA,NA,NA,NA,NA
"95","stim/objects/HouseObjects/towel2.png",169,74,169,0.9,"stim/22.jpeg",2,2,3,NA,"HouseObjects",1,4,"left","left",0.547999859,1,1,0,1,NA,NA,NA,NA,NA,NA,NA,NA,NA,NA,NA,NA,NA,NA,NA,NA,NA,NA,NA,NA,NA,NA,NA,NA
"23","stim/objects/HouseObjects/safetypin2.png",170,74,170,0.7,"stim/62.jpeg",6,2,2,NA,"HouseObjects",1,3,"left","left",0.701999903,1,1,0,1,NA,NA,NA,NA,NA,NA,NA,NA,NA,NA,NA,NA,NA,NA,NA,NA,NA,NA,NA,NA,NA,NA,NA,NA
"221","stim/objects/Instruments/violin.png",171,74,171,0.7,"stim/52.jpeg",5,2,2,NA,"Instruments",2,4,"right","left",0.723999739,0,0,0,1,NA,NA,NA,NA,NA,NA,NA,NA,NA,NA,NA,NA,NA,NA,NA,NA,NA,NA,NA,NA,NA,NA,NA,NA
"134","stim/objects/Instruments/saxophone2.png",172,74,172,0.3,"stim/62.jpeg",6,2,2,NA,"Instruments",2,4,"right","left",0.576999903,0,0,0,1,NA,NA,NA,NA,NA,NA,NA,NA,NA,NA,NA,NA,NA,NA,NA,NA,NA,NA,NA,NA,NA,NA,NA,NA
"175","stim/objects/Instruments/triangle2.png",173,74,173,0.9,"stim/12.jpeg",1,2,3,NA,"Instruments",2,3,"right","right",0.707999945,1,1,0,1,NA,NA,NA,NA,NA,NA,NA,NA,NA,NA,NA,NA,NA,NA,NA,NA,NA,NA,NA,NA,NA,NA,NA,NA
"214","stim/objects/Instruments/tuba.png",174,74,174,0.7,"stim/51.jpeg",5,1,2,NA,"Instruments",2,1,"right","",NA,0,0,0,1,NA,NA,NA,NA,NA,NA,NA,NA,NA,NA,NA,NA,NA,NA,NA,NA,NA,NA,NA,NA,NA,NA,NA,NA
"47","stim/objects/HouseObjects/scale2.png",175,74,175,0.7,"stim/64.jpeg",6,4,2,NA,"HouseObjects",1,4,"left","left",0.690999746,1,1,0,1,NA,NA,NA,NA,NA,NA,NA,NA,NA,NA,NA,NA,NA,NA,NA,NA,NA,NA,NA,NA,NA,NA,NA,NA
"176","stim/objects/Instruments/triangle2.png",176,74,176,0.9,"stim/12.jpeg",1,2,3,NA,"Instruments",2,3,"right","left",0.571999788,0,0,0,1,NA,NA,NA,NA,NA,NA,NA,NA,NA,NA,NA,NA,NA,NA,NA,NA,NA,NA,NA,NA,NA,NA,NA,NA
"205","stim/objects/Instruments/trumpet2.png",177,74,177,0.9,"stim/14.jpeg",1,4,3,NA,"Instruments",2,3,"right","right",0.56099987,1,1,0,1,NA,NA,NA,NA,NA,NA,NA,NA,NA,NA,NA,NA,NA,NA,NA,NA,NA,NA,NA,NA,NA,NA,NA,NA
"190","stim/objects/Instruments/trombone2.png",178,74,178,0.9,"stim/13.jpeg",1,3,3,NA,"Instruments",2,2,"right","left",0.546999931,0,0,0,1,NA,NA,NA,NA,NA,NA,NA,NA,NA,NA,NA,NA,NA,NA,NA,NA,NA,NA,NA,NA,NA,NA,NA,NA
"51","stim/objects/HouseObjects/sponge.png",179,74,179,0.5,"stim/41.jpeg",4,1,1,NA,"HouseObjects",1,4,"left","right",0.691999674,0,0,0,1,NA,NA,NA,NA,NA,NA,NA,NA,NA,NA,NA,NA,NA,NA,NA,NA,NA,NA,NA,NA,NA,NA,NA,NA
"229","stim/objects/Instruments/vuvuzela.png",180,74,180,0.7,"stim/53.jpeg",5,3,2,NA,"Instruments",2,2,"right","left",0.480999947,0,0,0,1,NA,NA,NA,NA,NA,NA,NA,NA,NA,NA,NA,NA,NA,NA,NA,NA,NA,NA,NA,NA,NA,NA,NA,NA
"33","stim/objects/HouseObjects/saw2.png",181,74,181,0.7,"stim/63.jpeg",6,3,2,NA,"HouseObjects",1,3,"left","right",0.308999777,0,0,0,1,NA,NA,NA,NA,NA,NA,NA,NA,NA,NA,NA,NA,NA,NA,NA,NA,NA,NA,NA,NA,NA,NA,NA,NA
"70","stim/objects/HouseObjects/thermometer.png",182,74,182,0.5,"stim/44.jpeg",4,4,1,NA,"HouseObjects",1,3,"left","right",0.517999887,0,0,0,1,NA,NA,NA,NA,NA,NA,NA,NA,NA,NA,NA,NA,NA,NA,NA,NA,NA,NA,NA,NA,NA,NA,NA,NA
"24","stim/objects/HouseObjects/safetypin2.png",183,74,183,0.7,"stim/62.jpeg",6,2,2,NA,"HouseObjects",1,2,"left","left",0.681999922,1,1,0,1,NA,NA,NA,NA,NA,NA,NA,NA,NA,NA,NA,NA,NA,NA,NA,NA,NA,NA,NA,NA,NA,NA,NA,NA
"123","stim/objects/Instruments/record_player.png",184,74,184,0.5,"stim/31.jpeg",3,1,1,NA,"Instruments",2,1,"right","",NA,0,0,0,1,NA,NA,NA,NA,NA,NA,NA,NA,NA,NA,NA,NA,NA,NA,NA,NA,NA,NA,NA,NA,NA,NA,NA,NA
"34","stim/objects/HouseObjects/saw2.png",185,74,185,0.7,"stim/63.jpeg",6,3,2,NA,"HouseObjects",1,2,"left","left",0.610999823,1,1,0,1,NA,NA,NA,NA,NA,NA,NA,NA,NA,NA,NA,NA,NA,NA,NA,NA,NA,NA,NA,NA,NA,NA,NA,NA
"224","stim/objects/Instruments/violin2.png",186,74,186,0.1,"stim/22.jpeg",2,2,3,NA,"Instruments",2,4,"right","left",0.590999842,0,0,0,1,NA,NA,NA,NA,NA,NA,NA,NA,NA,NA,NA,NA,NA,NA,NA,NA,NA,NA,NA,NA,NA,NA,NA,NA
"206","stim/objects/Instruments/trumpet2.png",187,74,187,0.9,"stim/14.jpeg",1,4,3,NA,"Instruments",2,2,"right","left",0.596999884,0,0,0,1,NA,NA,NA,NA,NA,NA,NA,NA,NA,NA,NA,NA,NA,NA,NA,NA,NA,NA,NA,NA,NA,NA,NA,NA
"39","stim/objects/HouseObjects/scale.png",188,74,188,0.5,"stim/34.jpeg",3,4,1,NA,"HouseObjects",1,2,"left","right",0.618999958,0,0,0,1,NA,NA,NA,NA,NA,NA,NA,NA,NA,NA,NA,NA,NA,NA,NA,NA,NA,NA,NA,NA,NA,NA,NA,NA
"191","stim/objects/Instruments/trombone2.png",189,74,189,0.9,"stim/13.jpeg",1,3,3,NA,"Instruments",2,2,"right","left",0.479999781,0,0,0,1,NA,NA,NA,NA,NA,NA,NA,NA,NA,NA,NA,NA,NA,NA,NA,NA,NA,NA,NA,NA,NA,NA,NA,NA
"148","stim/objects/Instruments/tambourine.png",190,74,190,0.5,"stim/34.jpeg",3,4,1,NA,"Instruments",2,1,"right","left",0.523999929,0,0,0,1,NA,NA,NA,NA,NA,NA,NA,NA,NA,NA,NA,NA,NA,NA,NA,NA,NA,NA,NA,NA,NA,NA,NA,NA
"87","stim/objects/HouseObjects/towel.png",191,74,191,0.3,"stim/52.jpeg",5,2,2,NA,"HouseObjects",1,1,"left","right",0.745999813,0,0,0,1,NA,NA,NA,NA,NA,NA,NA,NA,NA,NA,NA,NA,NA,NA,NA,NA,NA,NA,NA,NA,NA,NA,NA,NA
"96","stim/objects/HouseObjects/towel2.png",192,74,192,0.9,"stim/22.jpeg",2,2,3,NA,"HouseObjects",1,3,"left","left",0.576999903,1,1,0,1,NA,NA,NA,NA,NA,NA,NA,NA,NA,NA,NA,NA,NA,NA,NA,NA,NA,NA,NA,NA,NA,NA,NA,NA
"40","stim/objects/HouseObjects/scale.png",193,74,193,0.5,"stim/34.jpeg",3,4,1,NA,"HouseObjects",1,2,"left","left",0.61199975,1,1,0,1,NA,NA,NA,NA,NA,NA,NA,NA,NA,NA,NA,NA,NA,NA,NA,NA,NA,NA,NA,NA,NA,NA,NA,NA
"177","stim/objects/Instruments/triangle2.png",194,74,194,0.9,"stim/12.jpeg",1,2,3,NA,"Instruments",2,1,"right","left",0.404999733,0,0,0,1,NA,NA,NA,NA,NA,NA,NA,NA,NA,NA,NA,NA,NA,NA,NA,NA,NA,NA,NA,NA,NA,NA,NA,NA
"35","stim/objects/HouseObjects/saw2.png",195,74,195,0.7,"stim/63.jpeg",6,3,2,NA,"HouseObjects",1,4,"left","left",0.578000069,1,1,0,1,NA,NA,NA,NA,NA,NA,NA,NA,NA,NA,NA,NA,NA,NA,NA,NA,NA,NA,NA,NA,NA,NA,NA,NA
"144","stim/objects/Instruments/speaker2.png",196,74,196,0.3,"stim/63.jpeg",6,3,2,NA,"Instruments",2,1,"right","left",0.527999878,0,0,0,1,NA,NA,NA,NA,NA,NA,NA,NA,NA,NA,NA,NA,NA,NA,NA,NA,NA,NA,NA,NA,NA,NA,NA,NA
"199","stim/objects/Instruments/trumpet.png",197,74,197,0.5,"stim/44.jpeg",4,4,1,NA,"Instruments",2,2,"right","left",0.49399972,0,0,0,1,NA,NA,NA,NA,NA,NA,NA,NA,NA,NA,NA,NA,NA,NA,NA,NA,NA,NA,NA,NA,NA,NA,NA,NA
"183","stim/objects/Instruments/trombone.png",198,74,198,0.5,"stim/43.jpeg",4,3,1,NA,"Instruments",2,4,"right","left",0.521999836,0,0,0,1,NA,NA,NA,NA,NA,NA,NA,NA,NA,NA,NA,NA,NA,NA,NA,NA,NA,NA,NA,NA,NA,NA,NA,NA
"52","stim/objects/HouseObjects/sponge.png",199,74,199,0.5,"stim/41.jpeg",4,1,1,NA,"HouseObjects",1,3,"left","right",0.422999859,0,0,0,1,NA,NA,NA,NA,NA,NA,NA,NA,NA,NA,NA,NA,NA,NA,NA,NA,NA,NA,NA,NA,NA,NA,NA,NA
"71","stim/objects/HouseObjects/thermometer.png",200,74,200,0.5,"stim/44.jpeg",4,4,1,NA,"HouseObjects",1,3,"left","right",0.806999683,0,0,0,1,NA,NA,NA,NA,NA,NA,NA,NA,NA,NA,NA,NA,NA,NA,NA,NA,NA,NA,NA,NA,NA,NA,NA,NA
"48","stim/objects/HouseObjects/scale2.png",201,74,201,0.7,"stim/64.jpeg",6,4,2,NA,"HouseObjects",1,4,"left","left",0.572999716,1,1,0,1,NA,NA,NA,NA,NA,NA,NA,NA,NA,NA,NA,NA,NA,NA,NA,NA,NA,NA,NA,NA,NA,NA,NA,NA
"171","stim/objects/Instruments/triangle.png",202,74,202,0.5,"stim/42.jpeg",4,2,1,NA,"Instruments",2,2,"right","right",0.621999741,1,1,0,1,NA,NA,NA,NA,NA,NA,NA,NA,NA,NA,NA,NA,NA,NA,NA,NA,NA,NA,NA,NA,NA,NA,NA,NA
"178","stim/objects/Instruments/triangle2.png",203,74,203,0.9,"stim/12.jpeg",1,2,3,NA,"Instruments",2,4,"right","left",0.638999939,0,0,0,1,NA,NA,NA,NA,NA,NA,NA,NA,NA,NA,NA,NA,NA,NA,NA,NA,NA,NA,NA,NA,NA,NA,NA,NA
"62","stim/objects/HouseObjects/teapot.png",204,74,204,0.5,"stim/43.jpeg",4,3,1,NA,"HouseObjects",1,2,"left","right",0.591999769,0,0,0,1,NA,NA,NA,NA,NA,NA,NA,NA,NA,NA,NA,NA,NA,NA,NA,NA,NA,NA,NA,NA,NA,NA,NA,NA
"184","stim/objects/Instruments/trombone.png",205,74,205,0.5,"stim/43.jpeg",4,3,1,NA,"Instruments",2,4,"right","right",0.404999733,1,1,0,1,NA,NA,NA,NA,NA,NA,NA,NA,NA,NA,NA,NA,NA,NA,NA,NA,NA,NA,NA,NA,NA,NA,NA,NA
"106","stim/objects/HouseObjects/vacuumcleaner2.png",206,74,206,0.9,"stim/23.jpeg",2,3,3,NA,"HouseObjects",1,4,"left","left",0.556999922,1,1,0,1,NA,NA,NA,NA,NA,NA,NA,NA,NA,NA,NA,NA,NA,NA,NA,NA,NA,NA,NA,NA,NA,NA,NA,NA
"29","stim/objects/HouseObjects/saw.png",207,74,207,0.5,"stim/33.jpeg",3,3,1,NA,"HouseObjects",1,2,"left","left",0.489999771,1,1,0,1,NA,NA,NA,NA,NA,NA,NA,NA,NA,NA,NA,NA,NA,NA,NA,NA,NA,NA,NA,NA,NA,NA,NA,NA
"179","stim/objects/Instruments/triangle2.png",208,74,208,0.9,"stim/12.jpeg",1,2,3,NA,"Instruments",2,1,"right","right",0.776000023,1,1,0,1,NA,NA,NA,NA,NA,NA,NA,NA,NA,NA,NA,NA,NA,NA,NA,NA,NA,NA,NA,NA,NA,NA,NA,NA
"222","stim/objects/Instruments/violin.png",209,74,209,0.7,"stim/52.jpeg",5,2,2,NA,"Instruments",2,2,"right","right",0.688999653,1,1,0,1,NA,NA,NA,NA,NA,NA,NA,NA,NA,NA,NA,NA,NA,NA,NA,NA,NA,NA,NA,NA,NA,NA,NA,NA
"41","stim/objects/HouseObjects/scale.png",210,74,210,0.5,"stim/34.jpeg",3,4,1,NA,"HouseObjects",1,3,"left","left",0.552999735,1,1,0,1,NA,NA,NA,NA,NA,NA,NA,NA,NA,NA,NA,NA,NA,NA,NA,NA,NA,NA,NA,NA,NA,NA,NA,NA
"4","stim/objects/HouseObjects/rug.png",211,74,211,0.5,"stim/31.jpeg",3,1,1,NA,"HouseObjects",1,1,"left","right",0.67599988,0,0,0,1,NA,NA,NA,NA,NA,NA,NA,NA,NA,NA,NA,NA,NA,NA,NA,NA,NA,NA,NA,NA,NA,NA,NA,NA
"135","stim/objects/Instruments/saxophone2.png",212,74,212,0.3,"stim/62.jpeg",6,2,2,NA,"Instruments",2,3,"right","left",0.704999685,0,0,0,1,NA,NA,NA,NA,NA,NA,NA,NA,NA,NA,NA,NA,NA,NA,NA,NA,NA,NA,NA,NA,NA,NA,NA,NA
"192","stim/objects/Instruments/trombone2.png",213,74,213,0.9,"stim/13.jpeg",1,3,3,NA,"Instruments",2,3,"right","left",0.640999794,0,0,0,1,NA,NA,NA,NA,NA,NA,NA,NA,NA,NA,NA,NA,NA,NA,NA,NA,NA,NA,NA,NA,NA,NA,NA,NA
"180","stim/objects/Instruments/triangle2.png",214,74,214,0.9,"stim/12.jpeg",1,2,3,NA,"Instruments",2,2,"right","right",0.575999737,1,1,0,1,NA,NA,NA,NA,NA,NA,NA,NA,NA,NA,NA,NA,NA,NA,NA,NA,NA,NA,NA,NA,NA,NA,NA,NA
"230","stim/objects/Instruments/vuvuzela.png",215,74,215,0.7,"stim/53.jpeg",5,3,2,NA,"Instruments",2,1,"right","",NA,0,0,0,1,NA,NA,NA,NA,NA,NA,NA,NA,NA,NA,NA,NA,NA,NA,NA,NA,NA,NA,NA,NA,NA,NA,NA,NA
"165","stim/objects/Instruments/timbal2.png",216,74,216,0.9,"stim/11.jpeg",1,1,3,NA,"Instruments",2,1,"right","right",0.457999706,1,1,0,1,NA,NA,NA,NA,NA,NA,NA,NA,NA,NA,NA,NA,NA,NA,NA,NA,NA,NA,NA,NA,NA,NA,NA,NA
"63","stim/objects/HouseObjects/teapot.png",217,74,217,0.5,"stim/43.jpeg",4,3,1,NA,"HouseObjects",1,4,"left","left",0.521999836,1,1,0,1,NA,NA,NA,NA,NA,NA,NA,NA,NA,NA,NA,NA,NA,NA,NA,NA,NA,NA,NA,NA,NA,NA,NA,NA
"53","stim/objects/HouseObjects/sponge.png",218,74,218,0.5,"stim/41.jpeg",4,1,1,NA,"HouseObjects",1,4,"left","left",0.554999828,1,1,0,1,NA,NA,NA,NA,NA,NA,NA,NA,NA,NA,NA,NA,NA,NA,NA,NA,NA,NA,NA,NA,NA,NA,NA,NA
"207","stim/objects/Instruments/trumpet2.png",219,74,219,0.9,"stim/14.jpeg",1,4,3,NA,"Instruments",2,2,"right","right",0.65899992,1,1,0,1,NA,NA,NA,NA,NA,NA,NA,NA,NA,NA,NA,NA,NA,NA,NA,NA,NA,NA,NA,NA,NA,NA,NA,NA
"84","stim/objects/HouseObjects/thread2.png",220,74,220,0.9,"stim/21.jpeg",2,1,3,NA,"HouseObjects",1,2,"left","left",0.625999928,1,1,0,1,NA,NA,NA,NA,NA,NA,NA,NA,NA,NA,NA,NA,NA,NA,NA,NA,NA,NA,NA,NA,NA,NA,NA,NA
"5","stim/objects/HouseObjects/rug.png",221,74,221,0.5,"stim/31.jpeg",3,1,1,NA,"HouseObjects",1,2,"left","left",0.522999763,1,1,0,1,NA,NA,NA,NA,NA,NA,NA,NA,NA,NA,NA,NA,NA,NA,NA,NA,NA,NA,NA,NA,NA,NA,NA,NA
"215","stim/objects/Instruments/tuba.png",222,74,222,0.7,"stim/51.jpeg",5,1,2,NA,"Instruments",2,2,"right","right",0.622999907,1,1,0,1,NA,NA,NA,NA,NA,NA,NA,NA,NA,NA,NA,NA,NA,NA,NA,NA,NA,NA,NA,NA,NA,NA,NA,NA
"149","stim/objects/Instruments/tambourine.png",223,74,223,0.5,"stim/34.jpeg",3,4,1,NA,"Instruments",2,1,"right","left",0.676999807,0,0,0,1,NA,NA,NA,NA,NA,NA,NA,NA,NA,NA,NA,NA,NA,NA,NA,NA,NA,NA,NA,NA,NA,NA,NA,NA
"36","stim/objects/HouseObjects/saw2.png",224,74,224,0.7,"stim/63.jpeg",6,3,2,NA,"HouseObjects",1,4,"left","left",0.555999994,1,1,0,1,NA,NA,NA,NA,NA,NA,NA,NA,NA,NA,NA,NA,NA,NA,NA,NA,NA,NA,NA,NA,NA,NA,NA,NA
"124","stim/objects/Instruments/record_player.png",225,74,225,0.5,"stim/31.jpeg",3,1,1,NA,"Instruments",2,1,"right","right",0.606999636,1,1,0,1,NA,NA,NA,NA,NA,NA,NA,NA,NA,NA,NA,NA,NA,NA,NA,NA,NA,NA,NA,NA,NA,NA,NA,NA
"12","stim/objects/HouseObjects/rug2.png",226,74,226,0.7,"stim/61.jpeg",6,1,2,NA,"HouseObjects",1,2,"left","left",0.507999897,1,1,0,1,NA,NA,NA,NA,NA,NA,NA,NA,NA,NA,NA,NA,NA,NA,NA,NA,NA,NA,NA,NA,NA,NA,NA,NA
"208","stim/objects/Instruments/trumpet2.png",227,74,227,0.9,"stim/14.jpeg",1,4,3,NA,"Instruments",2,4,"right","right",0.675999641,1,1,0,1,NA,NA,NA,NA,NA,NA,NA,NA,NA,NA,NA,NA,NA,NA,NA,NA,NA,NA,NA,NA,NA,NA,NA,NA
"64","stim/objects/HouseObjects/teapot.png",228,74,228,0.5,"stim/43.jpeg",4,3,1,NA,"HouseObjects",1,2,"left","left",0.46999979,1,1,0,1,NA,NA,NA,NA,NA,NA,NA,NA,NA,NA,NA,NA,NA,NA,NA,NA,NA,NA,NA,NA,NA,NA,NA,NA
"223","stim/objects/Instruments/violin.png",229,74,229,0.7,"stim/52.jpeg",5,2,2,NA,"Instruments",2,2,"right","right",0.697999954,1,1,0,1,NA,NA,NA,NA,NA,NA,NA,NA,NA,NA,NA,NA,NA,NA,NA,NA,NA,NA,NA,NA,NA,NA,NA,NA
"107","stim/objects/HouseObjects/vacuumcleaner2.png",230,74,230,0.9,"stim/23.jpeg",2,3,3,NA,"HouseObjects",1,1,"left","left",0.549999952,1,1,0,1,NA,NA,NA,NA,NA,NA,NA,NA,NA,NA,NA,NA,NA,NA,NA,NA,NA,NA,NA,NA,NA,NA,NA,NA
"120","stim/objects/HouseObjects/wateringcan2.png",231,74,231,0.9,"stim/24.jpeg",2,4,3,NA,"HouseObjects",1,4,"left","left",0.526000023,1,1,0,1,NA,NA,NA,NA,NA,NA,NA,NA,NA,NA,NA,NA,NA,NA,NA,NA,NA,NA,NA,NA,NA,NA,NA,NA
"166","stim/objects/Instruments/timbal2.png",232,74,232,0.9,"stim/11.jpeg",1,1,3,NA,"Instruments",2,4,"right","left",0.558999777,0,0,0,1,NA,NA,NA,NA,NA,NA,NA,NA,NA,NA,NA,NA,NA,NA,NA,NA,NA,NA,NA,NA,NA,NA,NA,NA
"193","stim/objects/Instruments/trombone2.png",233,74,233,0.9,"stim/13.jpeg",1,3,3,NA,"Instruments",2,4,"right","left",0.494999886,0,0,0,1,NA,NA,NA,NA,NA,NA,NA,NA,NA,NA,NA,NA,NA,NA,NA,NA,NA,NA,NA,NA,NA,NA,NA,NA
"136","stim/objects/Instruments/saxophone2.png",234,74,234,0.3,"stim/62.jpeg",6,2,2,NA,"Instruments",2,4,"right","left",0.631999969,0,0,0,1,NA,NA,NA,NA,NA,NA,NA,NA,NA,NA,NA,NA,NA,NA,NA,NA,NA,NA,NA,NA,NA,NA,NA,NA
"185","stim/objects/Instruments/trombone.png",235,74,235,0.5,"stim/43.jpeg",4,3,1,NA,"Instruments",2,3,"right","left",0.562000036,0,0,0,1,NA,NA,NA,NA,NA,NA,NA,NA,NA,NA,NA,NA,NA,NA,NA,NA,NA,NA,NA,NA,NA,NA,NA,NA
"108","stim/objects/HouseObjects/vacuumcleaner2.png",236,74,236,0.9,"stim/23.jpeg",2,3,3,NA,"HouseObjects",1,4,"left","left",0.544999838,1,1,0,1,NA,NA,NA,NA,NA,NA,NA,NA,NA,NA,NA,NA,NA,NA,NA,NA,NA,NA,NA,NA,NA,NA,NA,NA
"194","stim/objects/Instruments/trombone2.png",237,74,237,0.9,"stim/13.jpeg",1,3,3,NA,"Instruments",2,2,"right","right",0.558999777,1,1,0,1,NA,NA,NA,NA,NA,NA,NA,NA,NA,NA,NA,NA,NA,NA,NA,NA,NA,NA,NA,NA,NA,NA,NA,NA
"125","stim/objects/Instruments/record_player.png",238,74,238,0.5,"stim/31.jpeg",3,1,1,NA,"Instruments",2,1,"right","right",0.639999866,1,1,0,1,NA,NA,NA,NA,NA,NA,NA,NA,NA,NA,NA,NA,NA,NA,NA,NA,NA,NA,NA,NA,NA,NA,NA,NA
"65","stim/objects/HouseObjects/teapot.png",239,74,239,0.5,"stim/43.jpeg",4,3,1,NA,"HouseObjects",1,4,"left","left",0.77699995,1,1,0,1,NA,NA,NA,NA,NA,NA,NA,NA,NA,NA,NA,NA,NA,NA,NA,NA,NA,NA,NA,NA,NA,NA,NA,NA
"231","stim/objects/Instruments/vuvuzela.png",240,74,240,0.7,"stim/53.jpeg",5,3,2,NA,"Instruments",2,2,"right","right",0.537999868,1,1,0,1,NA,NA,NA,NA,NA,NA,NA,NA,NA,NA,NA,NA,NA,NA,NA,NA,NA,NA,NA,NA,NA,NA,NA,NA
"290","stim/objects/HouseObjects/dishsoap2.png",248,74,241,0.7,"stim/61.jpeg",6,1,2,1,"HouseObjects",1,1,"left","right",0.715999842,0,0,1,0,146,74,1,0.7,1,"stim/61.jpeg",6,1,"stim/61.jpeg",1,"right",2.20299983,3,2,0.42599988,3,0.381000042,146,0,0,NA,0,NA,0
"247","stim/objects/HouseObjects/barbecuelighter.png",249,74,242,0.5,"stim/34.jpeg",3,4,1,2,"HouseObjects",1,1,"left","right",0.900999784,0,0,1,0,NA,NA,NA,NA,NA,NA,NA,NA,NA,NA,NA,NA,NA,NA,NA,NA,NA,NA,NA,NA,NA,NA,NA,NA
"507","stim/objects/Instruments/gong.png",250,74,243,0.9,"stim/12.jpeg",1,2,3,2,"Instruments",2,1,"right","left",0.390999794,0,0,1,0,NA,NA,NA,NA,NA,NA,NA,NA,NA,NA,NA,NA,NA,NA,NA,NA,NA,NA,NA,NA,NA,NA,NA,NA
"291","stim/objects/HouseObjects/doormat.png",251,74,244,0.9,"stim/21.jpeg",2,1,3,2,"HouseObjects",1,3,"left","left",0.644999981,1,1,1,0,NA,NA,NA,NA,NA,NA,NA,NA,NA,NA,NA,NA,NA,NA,NA,NA,NA,NA,NA,NA,NA,NA,NA,NA
"342","stim/objects/HouseObjects/garbagebin.png",252,74,245,0.9,"stim/22.jpeg",2,2,3,2,"HouseObjects",1,1,"left","left",0.426999807,1,1,1,0,NA,NA,NA,NA,NA,NA,NA,NA,NA,NA,NA,NA,NA,NA,NA,NA,NA,NA,NA,NA,NA,NA,NA,NA
"456","stim/objects/Instruments/flute.png",253,74,246,0.9,"stim/14.jpeg",1,4,3,2,"Instruments",2,4,"right","right",0.497999907,1,1,1,0,NA,NA,NA,NA,NA,NA,NA,NA,NA,NA,NA,NA,NA,NA,NA,NA,NA,NA,NA,NA,NA,NA,NA,NA
"457","stim/objects/Instruments/flute.png",254,74,247,0.9,"stim/11.jpeg",1,1,3,2,"Instruments",2,4,"right","right",0.450999737,1,1,1,0,NA,NA,NA,NA,NA,NA,NA,NA,NA,NA,NA,NA,NA,NA,NA,NA,NA,NA,NA,NA,NA,NA,NA,NA
"541","stim/objects/Instruments/guitarcase.png",255,74,248,0.5,"stim/32.jpeg",3,2,1,1,"Instruments",2,2,"right","left",0.600999832,0,0,1,0,104,74,1,0.5,1,"stim/32.jpeg",3,2,"stim/32.jpeg",2,"right",0.984999895,2,4,3.403999805,1,1.411999941,104,0,0,NA,0,NA,0
"490","stim/objects/Instruments/frenchhorn.png",256,74,249,0.9,"stim/11.jpeg",1,1,3,2,"Instruments",2,2,"right","left",0.45299983,0,0,1,0,NA,NA,NA,NA,NA,NA,NA,NA,NA,NA,NA,NA,NA,NA,NA,NA,NA,NA,NA,NA,NA,NA,NA,NA
"564","stim/objects/Instruments/oboe2.png",257,74,250,0.1,"stim/21.jpeg",2,1,3,1,"Instruments",2,4,"right","right",0.399999857,1,1,1,0,6,74,1,0.1,2,"stim/21.jpeg",2,1,"stim/21.jpeg",4,"left",1.674999952,4,4,3.157999992,2,1.576999903,6,1,0,0,0,0,0
"343","stim/objects/HouseObjects/garbagebin.png",258,74,251,0.9,"stim/24.jpeg",2,4,3,2,"HouseObjects",1,1,"left","left",0.596999645,1,1,1,0,NA,NA,NA,NA,NA,NA,NA,NA,NA,NA,NA,NA,NA,NA,NA,NA,NA,NA,NA,NA,NA,NA,NA,NA
"458","stim/objects/Instruments/flute.png",259,74,252,0.9,"stim/13.jpeg",1,3,3,2,"Instruments",2,4,"right","",NA,0,0,1,0,NA,NA,NA,NA,NA,NA,NA,NA,NA,NA,NA,NA,NA,NA,NA,NA,NA,NA,NA,NA,NA,NA,NA,NA
"436","stim/objects/Instruments/cymbal.png",260,74,253,0.7,"stim/51.jpeg",5,1,2,2,"Instruments",2,3,"right","left",0.521999836,0,0,1,0,NA,NA,NA,NA,NA,NA,NA,NA,NA,NA,NA,NA,NA,NA,NA,NA,NA,NA,NA,NA,NA,NA,NA,NA
"459","stim/objects/Instruments/flute.png",261,74,254,0.9,"stim/12.jpeg",1,2,3,2,"Instruments",2,4,"right","right",0.278999805,1,1,1,0,NA,NA,NA,NA,NA,NA,NA,NA,NA,NA,NA,NA,NA,NA,NA,NA,NA,NA,NA,NA,NA,NA,NA,NA
"344","stim/objects/HouseObjects/garbagebin.png",262,74,255,0.9,"stim/24.jpeg",2,4,3,2,"HouseObjects",1,3,"left","left",0.509999752,1,1,1,0,NA,NA,NA,NA,NA,NA,NA,NA,NA,NA,NA,NA,NA,NA,NA,NA,NA,NA,NA,NA,NA,NA,NA,NA
"262","stim/objects/HouseObjects/broom.png",263,74,256,0.5,"stim/42.jpeg",4,2,1,2,"HouseObjects",1,1,"left","left",0.521999836,1,1,1,0,NA,NA,NA,NA,NA,NA,NA,NA,NA,NA,NA,NA,NA,NA,NA,NA,NA,NA,NA,NA,NA,NA,NA,NA
"358","stim/objects/HouseObjects/garbagebin2.png",264,74,257,0.1,"stim/14.jpeg",1,4,3,1,"HouseObjects",1,3,"left","left",0.4599998,1,1,1,0,109,74,1,0.1,1,"stim/14.jpeg",1,4,"stim/14.jpeg",3,"right",0.917000055,3,1,2.690000057,2,1.075000048,109,0,0,NA,0,NA,0
"473","stim/objects/Instruments/flutetrans.png",265,74,258,0.9,"stim/13.jpeg",1,3,3,2,"Instruments",2,3,"right","right",0.440999746,1,1,1,0,NA,NA,NA,NA,NA,NA,NA,NA,NA,NA,NA,NA,NA,NA,NA,NA,NA,NA,NA,NA,NA,NA,NA,NA
"293","stim/objects/HouseObjects/doormat.png",266,74,259,0.9,"stim/24.jpeg",2,4,3,2,"HouseObjects",1,3,"left","left",0.523999691,1,1,1,0,NA,NA,NA,NA,NA,NA,NA,NA,NA,NA,NA,NA,NA,NA,NA,NA,NA,NA,NA,NA,NA,NA,NA,NA
"474","stim/objects/Instruments/flutetrans.png",267,74,260,0.9,"stim/11.jpeg",1,1,3,2,"Instruments",2,2,"right","right",0.521999836,1,1,1,0,NA,NA,NA,NA,NA,NA,NA,NA,NA,NA,NA,NA,NA,NA,NA,NA,NA,NA,NA,NA,NA,NA,NA,NA
"308","stim/objects/HouseObjects/dustpan.png",268,74,261,0.9,"stim/22.jpeg",2,2,3,2,"HouseObjects",1,1,"left","left",0.559999943,1,1,1,0,NA,NA,NA,NA,NA,NA,NA,NA,NA,NA,NA,NA,NA,NA,NA,NA,NA,NA,NA,NA,NA,NA,NA,NA
"526","stim/objects/Instruments/grandpiano.png",269,74,262,0.9,"stim/14.jpeg",1,4,3,2,"Instruments",2,4,"right","right",0.490999937,1,1,1,0,NA,NA,NA,NA,NA,NA,NA,NA,NA,NA,NA,NA,NA,NA,NA,NA,NA,NA,NA,NA,NA,NA,NA,NA
"294","stim/objects/HouseObjects/doormat.png",270,74,263,0.9,"stim/21.jpeg",2,1,3,2,"HouseObjects",1,3,"left","left",0.487999916,1,1,1,0,NA,NA,NA,NA,NA,NA,NA,NA,NA,NA,NA,NA,NA,NA,NA,NA,NA,NA,NA,NA,NA,NA,NA,NA
"283","stim/objects/HouseObjects/cushion.png",271,74,264,0.7,"stim/64.jpeg",6,4,2,2,"HouseObjects",1,3,"left","left",0.508999825,1,1,1,0,NA,NA,NA,NA,NA,NA,NA,NA,NA,NA,NA,NA,NA,NA,NA,NA,NA,NA,NA,NA,NA,NA,NA,NA
"432","stim/objects/Instruments/clarinet2.png",272,74,265,0.3,"stim/61.jpeg",6,1,2,1,"Instruments",2,3,"right","left",0.654999733,0,0,1,0,22,74,1,0.3,2,"stim/61.jpeg",6,1,"stim/61.jpeg",3,"right",0.917999744,4,3,4.349999905,3,1.04399991,22,0,0,NA,1,NA,0
"412","stim/objects/Instruments/balalaika.png",273,74,266,0.5,"stim/33.jpeg",3,3,1,2,"Instruments",2,4,"right","right",0.440999985,1,1,1,0,NA,NA,NA,NA,NA,NA,NA,NA,NA,NA,NA,NA,NA,NA,NA,NA,NA,NA,NA,NA,NA,NA,NA,NA
"555","stim/objects/Instruments/marimba.png",274,74,267,0.5,"stim/42.jpeg",4,2,1,1,"Instruments",2,4,"right","left",0.573999882,0,0,1,0,39,74,1,0.5,2,"stim/42.jpeg",4,2,"stim/42.jpeg",4,"left",1.08100009,4,4,0.788999796,4,0.466999769,39,1,0,0,1,1,0
"275","stim/objects/HouseObjects/clothespin.png",275,74,268,0.7,"stim/63.jpeg",6,3,2,2,"HouseObjects",1,2,"left","right",0.794999838,0,0,1,0,NA,NA,NA,NA,NA,NA,NA,NA,NA,NA,NA,NA,NA,NA,NA,NA,NA,NA,NA,NA,NA,NA,NA,NA
"411","stim/objects/Instruments/acousticguitar2.png",276,74,269,0.7,"stim/54.jpeg",5,4,2,1,"Instruments",2,1,"right","left",0.496999741,0,0,1,0,141,74,1,0.7,2,"stim/54.jpeg",5,4,"stim/54.jpeg",1,"right",0.632999897,3,2,0.756999969,2,0.420000076,141,0,0,NA,0,NA,0
"259","stim/objects/HouseObjects/bottle.png",277,74,270,0.5,"stim/41.jpeg",4,1,1,2,"HouseObjects",1,2,"left","right",0.444000006,0,0,1,0,NA,NA,NA,NA,NA,NA,NA,NA,NA,NA,NA,NA,NA,NA,NA,NA,NA,NA,NA,NA,NA,NA,NA,NA
"400","stim/objects/HouseObjects/recyclingbin.png",278,74,271,0.3,"stim/53.jpeg",5,3,2,1,"HouseObjects",1,1,"left","left",0.388999701,1,1,1,0,178,74,1,0.3,1,"stim/53.jpeg",5,3,"stim/53.jpeg",1,"right",1.0849998,2,3,0.531999826,2,0.362999916,178,0,1,NA,0,NA,0
"429","stim/objects/Instruments/chime2.png",279,74,272,0.3,"stim/64.jpeg",6,4,2,1,"Instruments",2,1,"right","left",0.434999704,0,0,1,0,172,74,1,0.3,2,"stim/64.jpeg",6,4,"stim/64.jpeg",1,"right",1.385999918,4,3,0.586999893,4,0.227999926,172,0,0,NA,0,NA,0
"492","stim/objects/Instruments/frenchhorn.png",280,74,273,0.9,"stim/13.jpeg",1,3,3,2,"Instruments",2,1,"right","left",0.483999968,0,0,1,0,NA,NA,NA,NA,NA,NA,NA,NA,NA,NA,NA,NA,NA,NA,NA,NA,NA,NA,NA,NA,NA,NA,NA,NA
"295","stim/objects/HouseObjects/doormat.png",281,74,274,0.9,"stim/22.jpeg",2,2,3,2,"HouseObjects",1,4,"left","right",0.448999882,0,0,1,0,NA,NA,NA,NA,NA,NA,NA,NA,NA,NA,NA,NA,NA,NA,NA,NA,NA,NA,NA,NA,NA,NA,NA,NA
"553","stim/objects/Instruments/maraca.png",282,74,275,0.5,"stim/41.jpeg",4,1,1,1,"Instruments",2,3,"right","left",0.635999918,0,0,1,0,174,74,1,0.5,2,"stim/41.jpeg",4,1,"stim/41.jpeg",3,"left",1.323999882,4,2,2.090999842,4,1.79399991,174,1,0,0,0,0,0
"265","stim/objects/HouseObjects/bucket.png",283,74,276,0.5,"stim/43.jpeg",4,3,1,2,"HouseObjects",1,3,"left","right",0.506999731,0,0,1,0,NA,NA,NA,NA,NA,NA,NA,NA,NA,NA,NA,NA,NA,NA,NA,NA,NA,NA,NA,NA,NA,NA,NA,NA
"544","stim/objects/Instruments/harmonica2.png",284,74,277,0.9,"stim/11.jpeg",1,1,3,1,"Instruments",2,3,"right","left",0.437999964,0,0,1,0,150,74,1,0.9,2,"stim/11.jpeg",1,1,"stim/11.jpeg",3,"right",0.599999905,2,1,0.428999901,2,0.294999838,150,0,1,NA,0,NA,0
"562","stim/objects/Instruments/musicstand2.png",285,74,278,0.1,"stim/24.jpeg",2,4,3,1,"Instruments",2,3,"right","left",0.64199996,0,0,1,0,129,74,1,0.1,2,"stim/24.jpeg",2,4,"stim/24.jpeg",3,"right",1.80099988,3,2,0.355999947,3,0.309999943,129,0,0,NA,1,NA,0
"508","stim/objects/Instruments/gong.png",286,74,279,0.9,"stim/13.jpeg",1,3,3,2,"Instruments",2,3,"right","right",0.593999863,1,1,1,0,NA,NA,NA,NA,NA,NA,NA,NA,NA,NA,NA,NA,NA,NA,NA,NA,NA,NA,NA,NA,NA,NA,NA,NA
"386","stim/objects/HouseObjects/ironingboard.png",287,74,280,0.5,"stim/41.jpeg",4,1,1,1,"HouseObjects",1,3,"left","left",0.42599988,1,1,1,0,63,74,1,0.5,2,"stim/41.jpeg",4,1,"stim/41.jpeg",3,"right",0.772000074,3,1,1.006999969,2,0.548999786,63,0,1,NA,0,NA,0
"296","stim/objects/HouseObjects/doormat.png",288,74,281,0.9,"stim/24.jpeg",2,4,3,2,"HouseObjects",1,4,"left","left",0.610999823,1,1,1,0,NA,NA,NA,NA,NA,NA,NA,NA,NA,NA,NA,NA,NA,NA,NA,NA,NA,NA,NA,NA,NA,NA,NA,NA
"427","stim/objects/Instruments/chime.png",289,74,282,0.5,"stim/41.jpeg",4,1,1,2,"Instruments",2,2,"right","left",0.644000053,0,0,1,0,NA,NA,NA,NA,NA,NA,NA,NA,NA,NA,NA,NA,NA,NA,NA,NA,NA,NA,NA,NA,NA,NA,NA,NA
"346","stim/objects/HouseObjects/garbagebin.png",290,74,283,0.9,"stim/23.jpeg",2,3,3,2,"HouseObjects",1,3,"left","left",0.743999958,1,1,1,0,NA,NA,NA,NA,NA,NA,NA,NA,NA,NA,NA,NA,NA,NA,NA,NA,NA,NA,NA,NA,NA,NA,NA,NA
"509","stim/objects/Instruments/gong.png",291,74,284,0.9,"stim/13.jpeg",1,3,3,2,"Instruments",2,4,"right","right",0.502999783,1,1,1,0,NA,NA,NA,NA,NA,NA,NA,NA,NA,NA,NA,NA,NA,NA,NA,NA,NA,NA,NA,NA,NA,NA,NA,NA
"325","stim/objects/HouseObjects/flyswatter.png",292,74,285,0.9,"stim/22.jpeg",2,2,3,2,"HouseObjects",1,2,"left","left",0.530999899,1,1,1,0,NA,NA,NA,NA,NA,NA,NA,NA,NA,NA,NA,NA,NA,NA,NA,NA,NA,NA,NA,NA,NA,NA,NA,NA
"444","stim/objects/Instruments/drums.png",293,74,286,0.7,"stim/53.jpeg",5,3,2,2,"Instruments",2,2,"right","right",0.398000002,1,1,1,0,NA,NA,NA,NA,NA,NA,NA,NA,NA,NA,NA,NA,NA,NA,NA,NA,NA,NA,NA,NA,NA,NA,NA,NA
"494","stim/objects/Instruments/frenchhorn.png",294,74,287,0.9,"stim/12.jpeg",1,2,3,2,"Instruments",2,3,"right","left",0.427000046,0,0,1,0,NA,NA,NA,NA,NA,NA,NA,NA,NA,NA,NA,NA,NA,NA,NA,NA,NA,NA,NA,NA,NA,NA,NA,NA
"524","stim/objects/Instruments/grandpiano.png",295,74,288,0.9,"stim/12.jpeg",1,2,3,2,"Instruments",2,4,"right","right",0.483999729,1,1,1,0,NA,NA,NA,NA,NA,NA,NA,NA,NA,NA,NA,NA,NA,NA,NA,NA,NA,NA,NA,NA,NA,NA,NA,NA
"326","stim/objects/HouseObjects/flyswatter.png",296,74,289,0.9,"stim/22.jpeg",2,2,3,2,"HouseObjects",1,3,"left","left",0.456999779,1,1,1,0,NA,NA,NA,NA,NA,NA,NA,NA,NA,NA,NA,NA,NA,NA,NA,NA,NA,NA,NA,NA,NA,NA,NA,NA
"383","stim/objects/HouseObjects/handvacuum2.png",297,74,290,0.1,"stim/11.jpeg",1,1,3,1,"HouseObjects",1,2,"left","right",0.640999794,0,0,1,0,155,74,1,0.1,1,"stim/11.jpeg",1,1,"stim/11.jpeg",2,"right",4.146999836,2,3,0.259000063,2,0.336999893,155,0,0,NA,1,NA,0
"423","stim/objects/Instruments/bassguitar2.png",298,74,291,0.3,"stim/62.jpeg",6,2,2,1,"Instruments",2,3,"right","left",0.667999983,0,0,1,0,84,74,1,0.3,2,"stim/62.jpeg",6,2,"stim/62.jpeg",3,"right",0.648999929,3,1,2.568000078,2,1.842999935,84,0,0,NA,0,NA,0
"495","stim/objects/Instruments/frenchhorn.png",299,74,292,0.9,"stim/13.jpeg",1,3,3,2,"Instruments",2,1,"right","left",0.847999811,0,0,1,0,NA,NA,NA,NA,NA,NA,NA,NA,NA,NA,NA,NA,NA,NA,NA,NA,NA,NA,NA,NA,NA,NA,NA,NA
"552","stim/objects/Instruments/laud2.png",300,74,293,0.1,"stim/23.jpeg",2,3,3,1,"Instruments",2,4,"right","right",0.706999779,1,1,1,0,192,74,1,0.1,2,"stim/23.jpeg",2,3,"stim/23.jpeg",4,"right",0.444999933,4,3,0.174999952,4,0.17599988,192,0,1,NA,1,NA,0
"328","stim/objects/HouseObjects/flyswatter.png",301,74,294,0.9,"stim/24.jpeg",2,4,3,2,"HouseObjects",1,3,"left","left",0.575999975,1,1,1,0,NA,NA,NA,NA,NA,NA,NA,NA,NA,NA,NA,NA,NA,NA,NA,NA,NA,NA,NA,NA,NA,NA,NA,NA
"527","stim/objects/Instruments/grandpiano.png",302,74,295,0.9,"stim/13.jpeg",1,3,3,2,"Instruments",2,4,"right","right",0.505999804,1,1,1,0,NA,NA,NA,NA,NA,NA,NA,NA,NA,NA,NA,NA,NA,NA,NA,NA,NA,NA,NA,NA,NA,NA,NA,NA
"506","stim/objects/Instruments/frenchhorn2.png",303,74,296,0.9,"stim/11.jpeg",1,1,3,1,"Instruments",2,1,"right","left",0.393999815,0,0,1,0,99,74,1,0.9,2,"stim/11.jpeg",1,1,"stim/11.jpeg",1,"right",1.178999901,2,1,1.68599987,3,1.59499979,99,0,1,NA,0,NA,0
"292","stim/objects/HouseObjects/doormat.png",304,74,297,0.9,"stim/24.jpeg",2,4,3,2,"HouseObjects",1,2,"left","right",0.644999981,0,0,1,0,NA,NA,NA,NA,NA,NA,NA,NA,NA,NA,NA,NA,NA,NA,NA,NA,NA,NA,NA,NA,NA,NA,NA,NA
"382","stim/objects/HouseObjects/handvacuum.png",305,74,298,0.5,"stim/32.jpeg",3,2,1,1,"HouseObjects",1,2,"left","left",0.507999897,1,1,1,0,113,74,1,0.5,1,"stim/32.jpeg",3,2,"stim/32.jpeg",2,"right",0.495999813,2,1,0.595999956,2,0.45600009,113,0,0,NA,1,NA,0
"529","stim/objects/Instruments/grandpiano.png",306,74,299,0.9,"stim/11.jpeg",1,1,3,2,"Instruments",2,3,"right","left",0.630999804,0,0,1,0,NA,NA,NA,NA,NA,NA,NA,NA,NA,NA,NA,NA,NA,NA,NA,NA,NA,NA,NA,NA,NA,NA,NA,NA
"440","stim/objects/Instruments/doublebass.png",307,74,300,0.7,"stim/54.jpeg",5,4,2,2,"Instruments",2,2,"right","right",0.761999846,1,1,1,0,NA,NA,NA,NA,NA,NA,NA,NA,NA,NA,NA,NA,NA,NA,NA,NA,NA,NA,NA,NA,NA,NA,NA,NA
"263","stim/objects/HouseObjects/broom.png",308,74,301,0.5,"stim/41.jpeg",4,1,1,2,"HouseObjects",1,4,"left","left",0.65899992,1,1,1,0,NA,NA,NA,NA,NA,NA,NA,NA,NA,NA,NA,NA,NA,NA,NA,NA,NA,NA,NA,NA,NA,NA,NA,NA
"297","stim/objects/HouseObjects/doormat.png",309,74,302,0.9,"stim/23.jpeg",2,3,3,2,"HouseObjects",1,4,"left","left",0.851999998,1,1,1,0,NA,NA,NA,NA,NA,NA,NA,NA,NA,NA,NA,NA,NA,NA,NA,NA,NA,NA,NA,NA,NA,NA,NA,NA
"347","stim/objects/HouseObjects/garbagebin.png",310,74,303,0.9,"stim/22.jpeg",2,2,3,2,"HouseObjects",1,1,"left","left",0.454999685,1,1,1,0,NA,NA,NA,NA,NA,NA,NA,NA,NA,NA,NA,NA,NA,NA,NA,NA,NA,NA,NA,NA,NA,NA,NA,NA
"561","stim/objects/Instruments/musicstand.png",311,74,304,0.7,"stim/52.jpeg",5,2,2,1,"Instruments",2,2,"right","right",0.69299984,1,1,1,0,49,74,1,0.7,2,"stim/52.jpeg",5,2,"stim/52.jpeg",2,"right",0.691999912,2,1,0.57400012,1,0.426000118,49,0,0,NA,0,NA,0
"491","stim/objects/Instruments/frenchhorn.png",312,74,305,0.9,"stim/13.jpeg",1,3,3,2,"Instruments",2,1,"right","left",0.461999893,0,0,1,0,NA,NA,NA,NA,NA,NA,NA,NA,NA,NA,NA,NA,NA,NA,NA,NA,NA,NA,NA,NA,NA,NA,NA,NA
"477","stim/objects/Instruments/flutetrans.png",313,74,306,0.9,"stim/14.jpeg",1,4,3,2,"Instruments",2,3,"right","left",0.721999645,0,0,1,0,NA,NA,NA,NA,NA,NA,NA,NA,NA,NA,NA,NA,NA,NA,NA,NA,NA,NA,NA,NA,NA,NA,NA,NA
"461","stim/objects/Instruments/flute.png",314,74,307,0.9,"stim/12.jpeg",1,2,3,2,"Instruments",2,2,"right","right",0.672999859,1,1,1,0,NA,NA,NA,NA,NA,NA,NA,NA,NA,NA,NA,NA,NA,NA,NA,NA,NA,NA,NA,NA,NA,NA,NA,NA
"496","stim/objects/Instruments/frenchhorn.png",315,74,308,0.9,"stim/12.jpeg",1,2,3,2,"Instruments",2,2,"right","right",0.439999819,1,1,1,0,NA,NA,NA,NA,NA,NA,NA,NA,NA,NA,NA,NA,NA,NA,NA,NA,NA,NA,NA,NA,NA,NA,NA,NA
"255","stim/objects/HouseObjects/bleachbottle2.png",316,74,309,0.3,"stim/52.jpeg",5,2,2,1,"HouseObjects",1,4,"left","",NA,0,0,1,0,162,74,1,0.3,1,"stim/52.jpeg",5,2,"stim/52.jpeg",4,"right",1.089999914,3,4,0.691999912,3,0.345999956,162,0,0,NA,0,NA,0
"287","stim/objects/HouseObjects/dishsoap.png",317,74,310,0.7,"stim/62.jpeg",6,2,2,2,"HouseObjects",1,1,"left","left",0.480999947,1,1,1,0,NA,NA,NA,NA,NA,NA,NA,NA,NA,NA,NA,NA,NA,NA,NA,NA,NA,NA,NA,NA,NA,NA,NA,NA
"284","stim/objects/HouseObjects/cushion.png",318,74,311,0.7,"stim/61.jpeg",6,1,2,2,"HouseObjects",1,4,"left","left",0.612999916,1,1,1,0,NA,NA,NA,NA,NA,NA,NA,NA,NA,NA,NA,NA,NA,NA,NA,NA,NA,NA,NA,NA,NA,NA,NA,NA
"266","stim/objects/HouseObjects/bucket.png",319,74,312,0.5,"stim/42.jpeg",4,2,1,2,"HouseObjects",1,4,"left","left",0.592000008,1,1,1,0,NA,NA,NA,NA,NA,NA,NA,NA,NA,NA,NA,NA,NA,NA,NA,NA,NA,NA,NA,NA,NA,NA,NA,NA
"447","stim/objects/Instruments/drums2.png",320,74,313,0.3,"stim/61.jpeg",6,1,2,1,"Instruments",2,3,"right","left",0.546999693,0,0,1,0,139,74,1,0.3,2,"stim/61.jpeg",6,1,"stim/61.jpeg",3,"right",0.711999893,4,4,0.190999746,4,0.149999857,139,0,0,NA,0,NA,0
"558","stim/objects/Instruments/metronome2.png",321,74,314,0.1,"stim/22.jpeg",2,2,3,1,"Instruments",2,3,"right","left",0.790999651,0,0,1,0,197,74,1,0.1,2,"stim/22.jpeg",2,2,"stim/22.jpeg",3,"right",0.710999966,3,4,0.22699976,3,0.258999825,197,0,0,NA,1,NA,0
"439","stim/objects/Instruments/cymbal2.png",322,74,315,0.3,"stim/63.jpeg",6,3,2,1,"Instruments",2,3,"right","left",0.725999832,0,0,1,0,25,74,1,0.3,2,"stim/63.jpeg",6,3,"stim/63.jpeg",3,"right",5.109999895,3,3,1.05099988,3,0.504999876,25,0,1,NA,1,NA,0
"361","stim/objects/HouseObjects/glass.png",323,74,316,0.9,"stim/21.jpeg",2,1,3,2,"HouseObjects",1,1,"left","left",0.859999895,1,1,1,0,NA,NA,NA,NA,NA,NA,NA,NA,NA,NA,NA,NA,NA,NA,NA,NA,NA,NA,NA,NA,NA,NA,NA,NA
"424","stim/objects/Instruments/cello.png",324,74,317,0.5,"stim/44.jpeg",4,4,1,2,"Instruments",2,4,"right","left",0.54399991,0,0,1,0,NA,NA,NA,NA,NA,NA,NA,NA,NA,NA,NA,NA,NA,NA,NA,NA,NA,NA,NA,NA,NA,NA,NA,NA
"362","stim/objects/HouseObjects/glass.png",325,74,318,0.9,"stim/24.jpeg",2,4,3,2,"HouseObjects",1,4,"left","left",0.661999941,1,1,1,0,NA,NA,NA,NA,NA,NA,NA,NA,NA,NA,NA,NA,NA,NA,NA,NA,NA,NA,NA,NA,NA,NA,NA,NA
"378","stim/objects/HouseObjects/hairdryer.png",326,74,319,0.5,"stim/34.jpeg",3,4,1,1,"HouseObjects",1,3,"left","left",0.549999714,1,1,1,0,37,74,1,0.5,1,"stim/34.jpeg",3,4,"stim/34.jpeg",3,"right",1.292000055,2,1,1.235999823,1,0.772000074,37,0,0,NA,0,NA,0
"433","stim/objects/Instruments/cornet.png",327,74,320,0.5,"stim/42.jpeg",4,2,1,2,"Instruments",2,3,"right","left",0.431999683,0,0,1,0,NA,NA,NA,NA,NA,NA,NA,NA,NA,NA,NA,NA,NA,NA,NA,NA,NA,NA,NA,NA,NA,NA,NA,NA
"313","stim/objects/HouseObjects/dustpan.png",328,74,321,0.9,"stim/22.jpeg",2,2,3,2,"HouseObjects",1,3,"left","left",0.576999903,1,1,1,0,NA,NA,NA,NA,NA,NA,NA,NA,NA,NA,NA,NA,NA,NA,NA,NA,NA,NA,NA,NA,NA,NA,NA,NA
"298","stim/objects/HouseObjects/doormat.png",329,74,322,0.9,"stim/24.jpeg",2,4,3,2,"HouseObjects",1,2,"left","left",0.612999916,1,1,1,0,NA,NA,NA,NA,NA,NA,NA,NA,NA,NA,NA,NA,NA,NA,NA,NA,NA,NA,NA,NA,NA,NA,NA,NA
"252","stim/objects/HouseObjects/basket2.png",330,74,323,0.3,"stim/51.jpeg",5,1,2,1,"HouseObjects",1,3,"left","right",0.65199995,0,0,1,0,140,74,1,0.3,1,"stim/51.jpeg",5,1,"stim/51.jpeg",3,"right",0.683999777,4,4,0.288999796,4,0.212999821,140,0,0,NA,0,NA,0
"394","stim/objects/HouseObjects/match.png",331,74,324,0.5,"stim/41.jpeg",4,1,1,1,"HouseObjects",1,1,"left","right",0.530999899,0,0,1,0,66,74,1,0.5,2,"stim/41.jpeg",4,1,"stim/41.jpeg",1,"left",1.984999895,3,2,1.723999977,2,1.144999981,66,1,0,0,0,0,0
"348","stim/objects/HouseObjects/garbagebin.png",332,74,325,0.9,"stim/23.jpeg",2,3,3,2,"HouseObjects",1,2,"left","left",0.40899992,1,1,1,0,NA,NA,NA,NA,NA,NA,NA,NA,NA,NA,NA,NA,NA,NA,NA,NA,NA,NA,NA,NA,NA,NA,NA,NA
"568","stim/objects/Instruments/pipepiano2.png",333,74,326,0.1,"stim/23.jpeg",2,3,3,1,"Instruments",2,3,"right","left",0.422999859,0,0,1,0,83,74,1,0.1,2,"stim/23.jpeg",2,3,"stim/23.jpeg",3,"left",1.856999874,3,2,2.707999945,2,1.10800004,83,1,0,0,0,0,0
"349","stim/objects/HouseObjects/garbagebin.png",334,74,327,0.9,"stim/21.jpeg",2,1,3,2,"HouseObjects",1,3,"left","left",0.485999823,1,1,1,0,NA,NA,NA,NA,NA,NA,NA,NA,NA,NA,NA,NA,NA,NA,NA,NA,NA,NA,NA,NA,NA,NA,NA,NA
"453","stim/objects/Instruments/electricguitar.png",335,74,328,0.7,"stim/54.jpeg",5,4,2,2,"Instruments",2,1,"right","left",0.57799983,0,0,1,0,NA,NA,NA,NA,NA,NA,NA,NA,NA,NA,NA,NA,NA,NA,NA,NA,NA,NA,NA,NA,NA,NA,NA,NA
"545","stim/objects/Instruments/harp.png",336,74,329,0.5,"stim/34.jpeg",3,4,1,1,"Instruments",2,2,"right","right",0.602999926,1,1,1,0,186,74,1,0.5,1,"stim/34.jpeg",3,4,"stim/34.jpeg",2,"right",1.007999897,3,4,0.587999821,3,0.269999981,186,0,1,NA,0,NA,0
"404","stim/objects/HouseObjects/rubbergloves.png",337,74,330,0.3,"stim/51.jpeg",5,1,2,1,"HouseObjects",1,1,"left","left",0.748999834,1,1,1,0,96,74,1,0.3,1,"stim/51.jpeg",5,1,"stim/51.jpeg",1,"right",1.025000095,2,4,1.428999901,3,2.414000034,96,0,0,NA,0,NA,0
"350","stim/objects/HouseObjects/garbagebin.png",338,74,331,0.9,"stim/21.jpeg",2,1,3,2,"HouseObjects",1,1,"left","left",0.504999876,1,1,1,0,NA,NA,NA,NA,NA,NA,NA,NA,NA,NA,NA,NA,NA,NA,NA,NA,NA,NA,NA,NA,NA,NA,NA,NA
"270","stim/objects/HouseObjects/clock2.png",339,74,332,0.7,"stim/64.jpeg",6,4,2,1,"HouseObjects",1,1,"left","left",0.466999769,1,1,1,0,51,74,1,0.7,1,"stim/64.jpeg",6,4,"stim/64.jpeg",1,"right",0.91899991,1,1,0.911000013,3,0.975999832,51,0,0,NA,0,NA,0
"327","stim/objects/HouseObjects/flyswatter.png",340,74,333,0.9,"stim/21.jpeg",2,1,3,2,"HouseObjects",1,3,"left","left",0.503000021,1,1,1,0,NA,NA,NA,NA,NA,NA,NA,NA,NA,NA,NA,NA,NA,NA,NA,NA,NA,NA,NA,NA,NA,NA,NA,NA
"550","stim/objects/Instruments/keyboard2.png",341,74,334,0.9,"stim/14.jpeg",1,4,3,1,"Instruments",2,2,"right","left",0.581999779,0,0,1,0,163,74,1,0.9,2,"stim/14.jpeg",1,4,"stim/14.jpeg",2,"right",0.974999905,4,3,0.214999914,4,0.156999826,163,0,0,NA,0,NA,0
"531","stim/objects/Instruments/grandpiano.png",342,74,335,0.9,"stim/14.jpeg",1,4,3,2,"Instruments",2,2,"right","right",0.501999855,1,1,1,0,NA,NA,NA,NA,NA,NA,NA,NA,NA,NA,NA,NA,NA,NA,NA,NA,NA,NA,NA,NA,NA,NA,NA,NA
"360","stim/objects/HouseObjects/glass.png",343,74,336,0.9,"stim/21.jpeg",2,1,3,2,"HouseObjects",1,1,"left","left",0.609999657,1,1,1,0,NA,NA,NA,NA,NA,NA,NA,NA,NA,NA,NA,NA,NA,NA,NA,NA,NA,NA,NA,NA,NA,NA,NA,NA
"475","stim/objects/Instruments/flutetrans.png",344,74,337,0.9,"stim/12.jpeg",1,2,3,2,"Instruments",2,1,"right","left",0.57799983,0,0,1,0,NA,NA,NA,NA,NA,NA,NA,NA,NA,NA,NA,NA,NA,NA,NA,NA,NA,NA,NA,NA,NA,NA,NA,NA
"565","stim/objects/Instruments/panflute.png",345,74,338,0.7,"stim/54.jpeg",5,4,2,1,"Instruments",2,4,"right","right",0.648000002,1,1,1,0,38,74,1,0.7,2,"stim/54.jpeg",5,4,"stim/54.jpeg",4,"left",1.503999949,2,3,1.721999884,1,0.770999908,38,1,0,0,0,0,0
"330","stim/objects/HouseObjects/flyswatter.png",346,74,339,0.9,"stim/23.jpeg",2,3,3,2,"HouseObjects",1,4,"left","left",0.629999876,1,1,1,0,NA,NA,NA,NA,NA,NA,NA,NA,NA,NA,NA,NA,NA,NA,NA,NA,NA,NA,NA,NA,NA,NA,NA,NA
"513","stim/objects/Instruments/gong.png",347,74,340,0.9,"stim/12.jpeg",1,2,3,2,"Instruments",2,2,"right","left",0.531999826,0,0,1,0,NA,NA,NA,NA,NA,NA,NA,NA,NA,NA,NA,NA,NA,NA,NA,NA,NA,NA,NA,NA,NA,NA,NA,NA
"514","stim/objects/Instruments/gong.png",348,74,341,0.9,"stim/11.jpeg",1,1,3,2,"Instruments",2,3,"right","right",0.680999994,1,1,1,0,NA,NA,NA,NA,NA,NA,NA,NA,NA,NA,NA,NA,NA,NA,NA,NA,NA,NA,NA,NA,NA,NA,NA,NA
"549","stim/objects/Instruments/keyboard.png",349,74,342,0.5,"stim/32.jpeg",3,2,1,1,"Instruments",2,2,"right","right",0.540999889,1,1,1,0,133,74,1,0.5,1,"stim/32.jpeg",3,2,"stim/32.jpeg",2,"right",0.711999893,4,2,1.207999945,3,0.463999987,133,0,1,NA,0,NA,0
"515","stim/objects/Instruments/gong.png",350,74,343,0.9,"stim/14.jpeg",1,4,3,2,"Instruments",2,3,"right","left",0.514999866,0,0,1,0,NA,NA,NA,NA,NA,NA,NA,NA,NA,NA,NA,NA,NA,NA,NA,NA,NA,NA,NA,NA,NA,NA,NA,NA
"302","stim/objects/HouseObjects/doormat.png",351,74,344,0.9,"stim/23.jpeg",2,3,3,2,"HouseObjects",1,2,"left","left",0.698999882,1,1,1,0,NA,NA,NA,NA,NA,NA,NA,NA,NA,NA,NA,NA,NA,NA,NA,NA,NA,NA,NA,NA,NA,NA,NA,NA
"476","stim/objects/Instruments/flutetrans.png",352,74,345,0.9,"stim/12.jpeg",1,2,3,2,"Instruments",2,4,"right","right",0.714999914,1,1,1,0,NA,NA,NA,NA,NA,NA,NA,NA,NA,NA,NA,NA,NA,NA,NA,NA,NA,NA,NA,NA,NA,NA,NA,NA
"499","stim/objects/Instruments/frenchhorn.png",353,74,346,0.9,"stim/11.jpeg",1,1,3,2,"Instruments",2,1,"right","left",0.440999746,0,0,1,0,NA,NA,NA,NA,NA,NA,NA,NA,NA,NA,NA,NA,NA,NA,NA,NA,NA,NA,NA,NA,NA,NA,NA,NA
"403","stim/objects/HouseObjects/remote2.png",354,74,347,0.9,"stim/21.jpeg",2,1,3,1,"HouseObjects",1,2,"left","left",0.680999756,1,1,1,0,85,74,1,0.9,1,"stim/21.jpeg",2,1,"stim/21.jpeg",2,"right",0.753999949,3,3,0.727999926,4,1.586999893,85,0,0,NA,0,NA,0
"462","stim/objects/Instruments/flute.png",355,74,348,0.9,"stim/14.jpeg",1,4,3,2,"Instruments",2,4,"right","right",0.433999777,1,1,1,0,NA,NA,NA,NA,NA,NA,NA,NA,NA,NA,NA,NA,NA,NA,NA,NA,NA,NA,NA,NA,NA,NA,NA,NA
"331","stim/objects/HouseObjects/flyswatter.png",356,74,349,0.9,"stim/23.jpeg",2,3,3,2,"HouseObjects",1,1,"left","left",0.45299983,1,1,1,0,NA,NA,NA,NA,NA,NA,NA,NA,NA,NA,NA,NA,NA,NA,NA,NA,NA,NA,NA,NA,NA,NA,NA,NA
"363","stim/objects/HouseObjects/glass.png",357,74,350,0.9,"stim/24.jpeg",2,4,3,2,"HouseObjects",1,4,"left","left",0.581999779,1,1,1,0,NA,NA,NA,NA,NA,NA,NA,NA,NA,NA,NA,NA,NA,NA,NA,NA,NA,NA,NA,NA,NA,NA,NA,NA
"332","stim/objects/HouseObjects/flyswatter.png",358,74,351,0.9,"stim/23.jpeg",2,3,3,2,"HouseObjects",1,1,"left","left",0.697999954,1,1,1,0,NA,NA,NA,NA,NA,NA,NA,NA,NA,NA,NA,NA,NA,NA,NA,NA,NA,NA,NA,NA,NA,NA,NA,NA
"501","stim/objects/Instruments/frenchhorn.png",359,74,352,0.9,"stim/14.jpeg",1,4,3,2,"Instruments",2,4,"right","right",0.674000025,1,1,1,0,NA,NA,NA,NA,NA,NA,NA,NA,NA,NA,NA,NA,NA,NA,NA,NA,NA,NA,NA,NA,NA,NA,NA,NA
"449","stim/objects/Instruments/electricdrumset.png",360,74,353,0.7,"stim/52.jpeg",5,2,2,2,"Instruments",2,3,"right","right",0.686999798,1,1,1,0,NA,NA,NA,NA,NA,NA,NA,NA,NA,NA,NA,NA,NA,NA,NA,NA,NA,NA,NA,NA,NA,NA,NA,NA
"279","stim/objects/HouseObjects/coffee.png",361,74,354,0.7,"stim/64.jpeg",6,4,2,2,"HouseObjects",1,2,"left","left",0.59800005,1,1,1,0,NA,NA,NA,NA,NA,NA,NA,NA,NA,NA,NA,NA,NA,NA,NA,NA,NA,NA,NA,NA,NA,NA,NA,NA
"463","stim/objects/Instruments/flute.png",362,74,355,0.9,"stim/12.jpeg",1,2,3,2,"Instruments",2,2,"right","left",0.607999802,0,0,1,0,NA,NA,NA,NA,NA,NA,NA,NA,NA,NA,NA,NA,NA,NA,NA,NA,NA,NA,NA,NA,NA,NA,NA,NA
"351","stim/objects/HouseObjects/garbagebin.png",363,74,356,0.9,"stim/21.jpeg",2,1,3,2,"HouseObjects",1,3,"left","left",0.563999891,1,1,1,0,NA,NA,NA,NA,NA,NA,NA,NA,NA,NA,NA,NA,NA,NA,NA,NA,NA,NA,NA,NA,NA,NA,NA,NA
"441","stim/objects/Instruments/doublebass.png",364,74,357,0.7,"stim/51.jpeg",5,1,2,2,"Instruments",2,4,"right","right",0.54399991,1,1,1,0,NA,NA,NA,NA,NA,NA,NA,NA,NA,NA,NA,NA,NA,NA,NA,NA,NA,NA,NA,NA,NA,NA,NA,NA
"352","stim/objects/HouseObjects/garbagebin.png",365,74,358,0.9,"stim/23.jpeg",2,3,3,2,"HouseObjects",1,3,"left","left",0.656999826,1,1,1,0,NA,NA,NA,NA,NA,NA,NA,NA,NA,NA,NA,NA,NA,NA,NA,NA,NA,NA,NA,NA,NA,NA,NA,NA
"384","stim/objects/HouseObjects/iron.png",366,74,359,0.5,"stim/33.jpeg",3,3,1,1,"HouseObjects",1,2,"left","right",0.663999796,0,0,1,0,190,74,1,0.5,1,"stim/33.jpeg",3,3,"stim/33.jpeg",2,"right",0.690000057,2,3,0.204999924,4,0.140000105,190,0,1,NA,0,NA,0
"418","stim/objects/Instruments/bassdrum.png",367,74,360,0.5,"stim/31.jpeg",3,1,1,2,"Instruments",2,1,"right","left",0.5849998,0,0,1,0,NA,NA,NA,NA,NA,NA,NA,NA,NA,NA,NA,NA,NA,NA,NA,NA,NA,NA,NA,NA,NA,NA,NA,NA
"532","stim/objects/Instruments/grandpiano.png",368,74,361,0.9,"stim/12.jpeg",1,2,3,2,"Instruments",2,2,"right","right",0.641999722,1,1,1,0,NA,NA,NA,NA,NA,NA,NA,NA,NA,NA,NA,NA,NA,NA,NA,NA,NA,NA,NA,NA,NA,NA,NA,NA
"452","stim/objects/Instruments/electricguitar.png",369,74,362,0.7,"stim/51.jpeg",5,1,2,2,"Instruments",2,1,"right","left",0.789999962,0,0,1,0,NA,NA,NA,NA,NA,NA,NA,NA,NA,NA,NA,NA,NA,NA,NA,NA,NA,NA,NA,NA,NA,NA,NA,NA
"556","stim/objects/Instruments/marimba2.png",370,74,363,0.1,"stim/21.jpeg",2,1,3,1,"Instruments",2,2,"right","right",0.644000053,1,1,1,0,43,74,1,0.1,2,"stim/21.jpeg",2,1,"stim/21.jpeg",2,"right",1.037999868,2,2,0.589999914,4,1.434999943,43,0,0,NA,0,NA,0
"533","stim/objects/Instruments/grandpiano.png",371,74,364,0.9,"stim/12.jpeg",1,2,3,2,"Instruments",2,3,"right","left",0.462999821,0,0,1,0,NA,NA,NA,NA,NA,NA,NA,NA,NA,NA,NA,NA,NA,NA,NA,NA,NA,NA,NA,NA,NA,NA,NA,NA
"414","stim/objects/Instruments/balalaika2.png",372,74,365,0.7,"stim/51.jpeg",5,1,2,1,"Instruments",2,3,"right","left",0.61199975,0,0,1,0,147,74,1,0.7,2,"stim/51.jpeg",5,1,"stim/51.jpeg",3,"right",0.654000044,4,2,0.501999855,3,0.221999884,147,0,0,NA,1,NA,0
"481","stim/objects/Instruments/flutetrans.png",373,74,366,0.9,"stim/14.jpeg",1,4,3,2,"Instruments",2,4,"right","right",0.466999769,1,1,1,0,NA,NA,NA,NA,NA,NA,NA,NA,NA,NA,NA,NA,NA,NA,NA,NA,NA,NA,NA,NA,NA,NA,NA,NA
"430","stim/objects/Instruments/clarinet.png",374,74,367,0.5,"stim/42.jpeg",4,2,1,2,"Instruments",2,2,"right","right",0.730000019,1,1,1,0,NA,NA,NA,NA,NA,NA,NA,NA,NA,NA,NA,NA,NA,NA,NA,NA,NA,NA,NA,NA,NA,NA,NA,NA
"300","stim/objects/HouseObjects/doormat.png",375,74,368,0.9,"stim/23.jpeg",2,3,3,2,"HouseObjects",1,1,"left","right",0.554999828,0,0,1,0,NA,NA,NA,NA,NA,NA,NA,NA,NA,NA,NA,NA,NA,NA,NA,NA,NA,NA,NA,NA,NA,NA,NA,NA
"392","stim/objects/HouseObjects/lintroller.png",376,74,369,0.5,"stim/44.jpeg",4,4,1,1,"HouseObjects",1,1,"left","left",0.513000011,1,1,1,0,159,74,1,0.5,2,"stim/44.jpeg",4,4,"stim/44.jpeg",1,"right",0.674999952,4,2,2.825999975,4,1.926999807,159,0,0,NA,0,NA,0
"269","stim/objects/HouseObjects/clock.png",377,74,370,0.5,"stim/44.jpeg",4,4,1,2,"HouseObjects",1,1,"left","left",0.604999781,1,1,1,0,NA,NA,NA,NA,NA,NA,NA,NA,NA,NA,NA,NA,NA,NA,NA,NA,NA,NA,NA,NA,NA,NA,NA,NA
"525","stim/objects/Instruments/grandpiano.png",378,74,371,0.9,"stim/13.jpeg",1,3,3,2,"Instruments",2,2,"right","left",0.748999834,0,0,1,0,NA,NA,NA,NA,NA,NA,NA,NA,NA,NA,NA,NA,NA,NA,NA,NA,NA,NA,NA,NA,NA,NA,NA,NA
"365","stim/objects/HouseObjects/glass.png",379,74,372,0.9,"stim/23.jpeg",2,3,3,2,"HouseObjects",1,1,"left","left",0.509000063,1,1,1,0,NA,NA,NA,NA,NA,NA,NA,NA,NA,NA,NA,NA,NA,NA,NA,NA,NA,NA,NA,NA,NA,NA,NA,NA
"498","stim/objects/Instruments/frenchhorn.png",380,74,373,0.9,"stim/12.jpeg",1,2,3,2,"Instruments",2,2,"right","right",0.514999866,1,1,1,0,NA,NA,NA,NA,NA,NA,NA,NA,NA,NA,NA,NA,NA,NA,NA,NA,NA,NA,NA,NA,NA,NA,NA,NA
"479","stim/objects/Instruments/flutetrans.png",381,74,374,0.9,"stim/13.jpeg",1,3,3,2,"Instruments",2,2,"right","left",0.556999922,0,0,1,0,NA,NA,NA,NA,NA,NA,NA,NA,NA,NA,NA,NA,NA,NA,NA,NA,NA,NA,NA,NA,NA,NA,NA,NA
"502","stim/objects/Instruments/frenchhorn.png",382,74,375,0.9,"stim/11.jpeg",1,1,3,2,"Instruments",2,3,"right","left",0.590999842,0,0,1,0,NA,NA,NA,NA,NA,NA,NA,NA,NA,NA,NA,NA,NA,NA,NA,NA,NA,NA,NA,NA,NA,NA,NA,NA
"301","stim/objects/HouseObjects/doormat.png",383,74,376,0.9,"stim/22.jpeg",2,2,3,2,"HouseObjects",1,1,"left","left",0.458999872,1,1,1,0,NA,NA,NA,NA,NA,NA,NA,NA,NA,NA,NA,NA,NA,NA,NA,NA,NA,NA,NA,NA,NA,NA,NA,NA
"256","stim/objects/HouseObjects/blender.png",384,74,377,0.5,"stim/44.jpeg",4,4,1,2,"HouseObjects",1,2,"left","right",0.690999746,0,0,1,0,NA,NA,NA,NA,NA,NA,NA,NA,NA,NA,NA,NA,NA,NA,NA,NA,NA,NA,NA,NA,NA,NA,NA,NA
"274","stim/objects/HouseObjects/clothesdryingrack2.png",385,74,378,0.7,"stim/61.jpeg",6,1,2,1,"HouseObjects",1,4,"left","left",0.606999874,1,1,1,0,130,74,1,0.7,1,"stim/61.jpeg",6,1,"stim/61.jpeg",4,"left",1.40899992,4,1,1.771999836,2,1.195999861,130,1,1,1,0,0,0
"369","stim/objects/HouseObjects/glass.png",386,74,379,0.9,"stim/21.jpeg",2,1,3,2,"HouseObjects",1,1,"left","left",0.612999916,1,1,1,0,NA,NA,NA,NA,NA,NA,NA,NA,NA,NA,NA,NA,NA,NA,NA,NA,NA,NA,NA,NA,NA,NA,NA,NA
"445","stim/objects/Instruments/drums.png",387,74,380,0.7,"stim/52.jpeg",5,2,2,2,"Instruments",2,1,"right","left",0.516999722,0,0,1,0,NA,NA,NA,NA,NA,NA,NA,NA,NA,NA,NA,NA,NA,NA,NA,NA,NA,NA,NA,NA,NA,NA,NA,NA
"419","stim/objects/Instruments/bassdrum.png",388,74,381,0.5,"stim/34.jpeg",3,4,1,2,"Instruments",2,3,"right","left",0.482999802,0,0,1,0,NA,NA,NA,NA,NA,NA,NA,NA,NA,NA,NA,NA,NA,NA,NA,NA,NA,NA,NA,NA,NA,NA,NA,NA
"315","stim/objects/HouseObjects/dustpan.png",389,74,382,0.9,"stim/21.jpeg",2,1,3,2,"HouseObjects",1,3,"left","left",0.682999849,1,1,1,0,NA,NA,NA,NA,NA,NA,NA,NA,NA,NA,NA,NA,NA,NA,NA,NA,NA,NA,NA,NA,NA,NA,NA,NA
"316","stim/objects/HouseObjects/dustpan.png",390,74,383,0.9,"stim/22.jpeg",2,2,3,2,"HouseObjects",1,1,"left","left",0.480999947,1,1,1,0,NA,NA,NA,NA,NA,NA,NA,NA,NA,NA,NA,NA,NA,NA,NA,NA,NA,NA,NA,NA,NA,NA,NA,NA
"534","stim/objects/Instruments/grandpiano.png",391,74,384,0.9,"stim/11.jpeg",1,1,3,2,"Instruments",2,1,"right","",NA,0,0,1,0,NA,NA,NA,NA,NA,NA,NA,NA,NA,NA,NA,NA,NA,NA,NA,NA,NA,NA,NA,NA,NA,NA,NA,NA
"409","stim/objects/Instruments/acousticguitar.png",392,74,385,0.5,"stim/31.jpeg",3,1,1,2,"Instruments",2,4,"right","left",0.523999691,0,0,1,0,NA,NA,NA,NA,NA,NA,NA,NA,NA,NA,NA,NA,NA,NA,NA,NA,NA,NA,NA,NA,NA,NA,NA,NA
"278","stim/objects/HouseObjects/clothespin2.png",393,74,386,0.7,"stim/62.jpeg",6,2,2,1,"HouseObjects",1,4,"left","right",0.355999708,0,0,1,0,181,74,1,0.7,1,"stim/62.jpeg",6,2,"stim/62.jpeg",4,"right",1.046999931,3,2,0.424999952,3,0.187999725,181,0,1,NA,0,NA,0
"370","stim/objects/HouseObjects/glass.png",394,74,387,0.9,"stim/22.jpeg",2,2,3,2,"HouseObjects",1,3,"left","left",0.14599967,1,1,1,0,NA,NA,NA,NA,NA,NA,NA,NA,NA,NA,NA,NA,NA,NA,NA,NA,NA,NA,NA,NA,NA,NA,NA,NA
"359","stim/objects/HouseObjects/glass.png",395,74,388,0.9,"stim/23.jpeg",2,3,3,2,"HouseObjects",1,1,"left","right",0.342999697,0,0,1,0,NA,NA,NA,NA,NA,NA,NA,NA,NA,NA,NA,NA,NA,NA,NA,NA,NA,NA,NA,NA,NA,NA,NA,NA
"570","stim/objects/Instruments/record2.png",396,74,389,0.1,"stim/24.jpeg",2,4,3,1,"Instruments",2,3,"right","left",0.413999796,0,0,1,0,26,74,1,0.1,2,"stim/24.jpeg",2,4,"stim/24.jpeg",3,"right",1.409999847,4,4,0.785999775,4,1.019999981,26,0,1,NA,0,NA,0
"489","stim/objects/Instruments/flutetrans2.png",397,74,390,0.9,"stim/14.jpeg",1,4,3,1,"Instruments",2,4,"right","right",0.3349998,1,1,1,0,87,74,1,0.9,2,"stim/14.jpeg",1,4,"stim/14.jpeg",4,"left",1.051999807,3,3,2.61500001,2,1.606999874,87,1,0,0,0,0,0
"317","stim/objects/HouseObjects/dustpan.png",398,74,391,0.9,"stim/24.jpeg",2,4,3,2,"HouseObjects",1,4,"left","left",0.477999926,1,1,1,0,NA,NA,NA,NA,NA,NA,NA,NA,NA,NA,NA,NA,NA,NA,NA,NA,NA,NA,NA,NA,NA,NA,NA,NA
"379","stim/objects/HouseObjects/hairdryer2.png",399,74,392,0.1,"stim/13.jpeg",1,3,3,1,"HouseObjects",1,4,"left","left",0.531999826,1,1,1,0,123,74,1,0.1,1,"stim/13.jpeg",1,3,"stim/13.jpeg",4,"right",1.458999872,3,1,0.395999908,2,0.325000048,123,0,0,NA,0,NA,0
"309","stim/objects/HouseObjects/dustpan.png",400,74,393,0.9,"stim/24.jpeg",2,4,3,2,"HouseObjects",1,1,"left","left",0.629999876,1,1,1,0,NA,NA,NA,NA,NA,NA,NA,NA,NA,NA,NA,NA,NA,NA,NA,NA,NA,NA,NA,NA,NA,NA,NA,NA
"437","stim/objects/Instruments/cymbal.png",401,74,394,0.7,"stim/53.jpeg",5,3,2,2,"Instruments",2,4,"right","left",0.421999693,0,0,1,0,NA,NA,NA,NA,NA,NA,NA,NA,NA,NA,NA,NA,NA,NA,NA,NA,NA,NA,NA,NA,NA,NA,NA,NA
"559","stim/objects/Instruments/musicsheet.png",402,74,395,0.5,"stim/44.jpeg",4,4,1,1,"Instruments",2,2,"right","right",0.760999918,1,1,1,0,180,74,1,0.5,2,"stim/44.jpeg",4,4,"stim/44.jpeg",2,"right",0.722000122,4,4,0.493999958,4,0.334000111,180,0,1,NA,0,NA,0
"542","stim/objects/Instruments/guitarcase2.png",403,74,396,0.9,"stim/14.jpeg",1,4,3,1,"Instruments",2,4,"right","left",0.760999918,0,0,1,0,166,74,1,0.9,2,"stim/14.jpeg",1,4,"stim/14.jpeg",4,"right",1.046999931,2,3,0.4599998,4,0.223999977,166,0,0,NA,1,NA,0
"557","stim/objects/Instruments/metronome.png",404,74,397,0.5,"stim/43.jpeg",4,3,1,1,"Instruments",2,3,"right","left",0.395999908,0,0,1,0,78,74,1,0.5,2,"stim/43.jpeg",4,3,"stim/43.jpeg",3,"left",2.564999819,3,2,1.584000111,3,1.723999739,78,1,0,0,1,1,0
"253","stim/objects/HouseObjects/bleachbottle.png",405,74,398,0.5,"stim/31.jpeg",3,1,1,2,"HouseObjects",1,3,"left","left",0.494999647,1,1,1,0,NA,NA,NA,NA,NA,NA,NA,NA,NA,NA,NA,NA,NA,NA,NA,NA,NA,NA,NA,NA,NA,NA,NA,NA
"397","stim/objects/HouseObjects/pan2.png",406,74,399,0.9,"stim/22.jpeg",2,2,3,1,"HouseObjects",1,3,"left","left",0.388999939,1,1,1,0,30,74,1,0.9,1,"stim/22.jpeg",2,2,"stim/22.jpeg",3,"left",0.428999901,4,4,1.167000055,4,0.463000059,30,1,0,0,0,0,0
"406","stim/objects/Instruments/accordion.png",407,74,400,0.5,"stim/31.jpeg",3,1,1,2,"Instruments",2,4,"right","left",0.477999926,0,0,1,0,NA,NA,NA,NA,NA,NA,NA,NA,NA,NA,NA,NA,NA,NA,NA,NA,NA,NA,NA,NA,NA,NA,NA,NA
"311","stim/objects/HouseObjects/dustpan.png",408,74,401,0.9,"stim/21.jpeg",2,1,3,2,"HouseObjects",1,2,"left","left",0.534999847,1,1,1,0,NA,NA,NA,NA,NA,NA,NA,NA,NA,NA,NA,NA,NA,NA,NA,NA,NA,NA,NA,NA,NA,NA,NA,NA
"324","stim/objects/HouseObjects/dustpan2.png",409,74,402,0.1,"stim/12.jpeg",1,2,3,1,"HouseObjects",1,2,"left","left",0.549000025,1,1,1,0,41,74,1,0.1,1,"stim/12.jpeg",1,2,"stim/12.jpeg",2,"right",1.985000134,2,2,0.926999807,1,1.69299984,41,0,1,NA,0,NA,0
"268","stim/objects/HouseObjects/clock.png",410,74,403,0.5,"stim/43.jpeg",4,3,1,2,"HouseObjects",1,1,"left","right",0.605999947,0,0,1,0,NA,NA,NA,NA,NA,NA,NA,NA,NA,NA,NA,NA,NA,NA,NA,NA,NA,NA,NA,NA,NA,NA,NA,NA
"535","stim/objects/Instruments/grandpiano.png",411,74,404,0.9,"stim/12.jpeg",1,2,3,2,"Instruments",2,2,"right","left",0.523999929,0,0,1,0,NA,NA,NA,NA,NA,NA,NA,NA,NA,NA,NA,NA,NA,NA,NA,NA,NA,NA,NA,NA,NA,NA,NA,NA
"258","stim/objects/HouseObjects/blender2.png",412,74,405,0.7,"stim/64.jpeg",6,4,2,1,"HouseObjects",1,2,"left","right",0.470000029,0,0,1,0,188,74,1,0.7,1,"stim/64.jpeg",6,4,"stim/64.jpeg",2,"right",1.999000072,4,3,0.22699976,2,0.298000097,188,0,0,NA,1,NA,0
"371","stim/objects/HouseObjects/glass.png",413,74,406,0.9,"stim/21.jpeg",2,1,3,2,"HouseObjects",1,4,"left","",NA,0,0,1,0,NA,NA,NA,NA,NA,NA,NA,NA,NA,NA,NA,NA,NA,NA,NA,NA,NA,NA,NA,NA,NA,NA,NA,NA
"468","stim/objects/Instruments/flute.png",414,74,407,0.9,"stim/13.jpeg",1,3,3,2,"Instruments",2,2,"right","right",0.653999805,1,1,1,0,NA,NA,NA,NA,NA,NA,NA,NA,NA,NA,NA,NA,NA,NA,NA,NA,NA,NA,NA,NA,NA,NA,NA,NA
"354","stim/objects/HouseObjects/garbagebin.png",415,74,408,0.9,"stim/24.jpeg",2,4,3,2,"HouseObjects",1,1,"left","left",0.343999863,1,1,1,0,NA,NA,NA,NA,NA,NA,NA,NA,NA,NA,NA,NA,NA,NA,NA,NA,NA,NA,NA,NA,NA,NA,NA,NA
"286","stim/objects/HouseObjects/cushion2.png",416,74,409,0.7,"stim/64.jpeg",6,4,2,1,"HouseObjects",1,3,"left","left",0.504999876,1,1,1,0,58,74,1,0.7,1,"stim/64.jpeg",6,4,"stim/64.jpeg",3,"right",0.857999802,1,1,0.494999886,4,2.585000038,58,0,0,NA,0,NA,0
"391","stim/objects/HouseObjects/knife2.png",417,74,410,0.9,"stim/23.jpeg",2,3,3,1,"HouseObjects",1,3,"left","left",0.406999826,1,1,1,0,161,74,1,0.9,1,"stim/23.jpeg",2,3,"stim/23.jpeg",3,"right",0.766000032,3,4,0.495000124,3,0.234999895,161,0,0,NA,1,NA,0
"243","stim/objects/HouseObjects/ashtray2.png",418,74,411,0.3,"stim/52.jpeg",5,2,2,1,"HouseObjects",1,3,"left","left",0.648999929,1,1,1,0,5,74,1,0.3,1,"stim/52.jpeg",5,2,"stim/52.jpeg",3,"left",2.56400013,4,3,3.565999985,1,2.737999916,5,1,0,0,0,0,0
"460","stim/objects/Instruments/flute.png",419,74,412,0.9,"stim/14.jpeg",1,4,3,2,"Instruments",2,2,"right","left",0.424999952,0,0,1,0,NA,NA,NA,NA,NA,NA,NA,NA,NA,NA,NA,NA,NA,NA,NA,NA,NA,NA,NA,NA,NA,NA,NA,NA
"396","stim/objects/HouseObjects/pan.png",420,74,413,0.3,"stim/51.jpeg",5,1,2,1,"HouseObjects",1,4,"left","right",0.308999777,0,0,1,0,195,74,1,0.3,1,"stim/51.jpeg",5,1,"stim/51.jpeg",4,"right",3.225999832,3,1,0.327000141,3,0.376999855,195,0,1,NA,0,NA,0
"389","stim/objects/HouseObjects/key2.png",421,74,414,0.9,"stim/22.jpeg",2,2,3,1,"HouseObjects",1,3,"left","left",0.565000057,1,1,1,0,81,74,1,0.9,1,"stim/22.jpeg",2,2,"stim/22.jpeg",3,"right",1.072000027,3,3,1.68599987,2,1.194999933,81,0,0,NA,0,NA,0
"335","stim/objects/HouseObjects/flyswatter.png",422,74,415,0.9,"stim/21.jpeg",2,1,3,2,"HouseObjects",1,1,"left","left",0.436999798,1,1,1,0,NA,NA,NA,NA,NA,NA,NA,NA,NA,NA,NA,NA,NA,NA,NA,NA,NA,NA,NA,NA,NA,NA,NA,NA
"260","stim/objects/HouseObjects/bottle.png",423,74,416,0.5,"stim/44.jpeg",4,4,1,2,"HouseObjects",1,2,"left","right",0.511999846,0,0,1,0,NA,NA,NA,NA,NA,NA,NA,NA,NA,NA,NA,NA,NA,NA,NA,NA,NA,NA,NA,NA,NA,NA,NA,NA
"546","stim/objects/Instruments/harp2.png",424,74,417,0.9,"stim/12.jpeg",1,2,3,1,"Instruments",2,2,"right","left",0.41899991,0,0,1,0,132,74,1,0.9,2,"stim/12.jpeg",1,2,"stim/12.jpeg",2,"right",0.728999853,3,3,0.340999842,3,0.401000023,132,0,0,NA,0,NA,0
"267","stim/objects/HouseObjects/bucket2.png",425,74,418,0.7,"stim/63.jpeg",6,3,2,1,"HouseObjects",1,4,"left","left",0.739999771,1,1,1,0,46,74,1,0.7,1,"stim/63.jpeg",6,3,"stim/63.jpeg",4,"right",1.549000025,2,4,1.888000011,2,2.484999895,46,0,0,NA,0,NA,0
"528","stim/objects/Instruments/grandpiano.png",426,74,419,0.9,"stim/11.jpeg",1,1,3,2,"Instruments",2,3,"right","left",0.745999813,0,0,1,0,NA,NA,NA,NA,NA,NA,NA,NA,NA,NA,NA,NA,NA,NA,NA,NA,NA,NA,NA,NA,NA,NA,NA,NA
"446","stim/objects/Instruments/drums.png",427,74,420,0.7,"stim/51.jpeg",5,1,2,2,"Instruments",2,2,"right","",NA,0,0,1,0,NA,NA,NA,NA,NA,NA,NA,NA,NA,NA,NA,NA,NA,NA,NA,NA,NA,NA,NA,NA,NA,NA,NA,NA
"372","stim/objects/HouseObjects/glass.png",428,74,421,0.9,"stim/24.jpeg",2,4,3,2,"HouseObjects",1,1,"left","right",0.237999916,0,0,1,0,NA,NA,NA,NA,NA,NA,NA,NA,NA,NA,NA,NA,NA,NA,NA,NA,NA,NA,NA,NA,NA,NA,NA,NA
"408","stim/objects/Instruments/accordion2.png",429,74,422,0.7,"stim/53.jpeg",5,3,2,1,"Instruments",2,4,"right","left",0.470000029,0,0,1,0,3,74,1,0.7,2,"stim/53.jpeg",5,3,"stim/53.jpeg",4,"left",1.996000051,2,4,2.142999887,2,2.148999929,3,1,0,0,0,0,0
"469","stim/objects/Instruments/flute.png",430,74,423,0.9,"stim/13.jpeg",1,3,3,2,"Instruments",2,2,"right","left",0.329999924,0,0,1,0,NA,NA,NA,NA,NA,NA,NA,NA,NA,NA,NA,NA,NA,NA,NA,NA,NA,NA,NA,NA,NA,NA,NA,NA
"388","stim/objects/HouseObjects/key.png",431,74,424,0.5,"stim/42.jpeg",4,2,1,1,"HouseObjects",1,4,"left","right",0.509999752,0,0,1,0,88,74,1,0.5,2,"stim/42.jpeg",4,2,"stim/42.jpeg",4,"right",0.737999916,2,1,1.30099988,4,2.177999973,88,0,0,NA,1,NA,0
"426","stim/objects/Instruments/cello2.png",432,74,425,0.3,"stim/63.jpeg",6,3,2,1,"Instruments",2,4,"right","left",0.580999851,0,0,1,0,86,74,1,0.3,2,"stim/63.jpeg",6,3,"stim/63.jpeg",4,"left",1.440999985,3,1,2.824999809,3,1.917999983,86,1,0,0,0,0,0
"482","stim/objects/Instruments/flutetrans.png",433,74,426,0.9,"stim/11.jpeg",1,1,3,2,"Instruments",2,3,"right","left",0.551999807,0,0,1,0,NA,NA,NA,NA,NA,NA,NA,NA,NA,NA,NA,NA,NA,NA,NA,NA,NA,NA,NA,NA,NA,NA,NA,NA
"395","stim/objects/HouseObjects/match2.png",434,74,427,0.9,"stim/21.jpeg",2,1,3,1,"HouseObjects",1,2,"left","right",0.588999987,0,0,1,0,165,74,1,0.9,1,"stim/21.jpeg",2,1,"stim/21.jpeg",2,"right",0.517999887,1,2,1.841999769,3,1.64199996,165,0,0,NA,0,NA,0
"377","stim/objects/HouseObjects/glassmop2.png",435,74,428,0.1,"stim/12.jpeg",1,2,3,1,"HouseObjects",1,3,"left","left",0.392999649,1,1,1,0,184,74,1,0.1,1,"stim/12.jpeg",1,2,"stim/12.jpeg",3,"right",1.125,4,2,0.646999836,3,0.276000023,184,0,1,NA,1,NA,0
"338","stim/objects/HouseObjects/flyswatter.png",436,74,429,0.9,"stim/24.jpeg",2,4,3,2,"HouseObjects",1,4,"left","left",0.57799983,1,1,1,0,NA,NA,NA,NA,NA,NA,NA,NA,NA,NA,NA,NA,NA,NA,NA,NA,NA,NA,NA,NA,NA,NA,NA,NA
"329","stim/objects/HouseObjects/flyswatter.png",437,74,430,0.9,"stim/23.jpeg",2,3,3,2,"HouseObjects",1,3,"left","left",0.809999704,1,1,1,0,NA,NA,NA,NA,NA,NA,NA,NA,NA,NA,NA,NA,NA,NA,NA,NA,NA,NA,NA,NA,NA,NA,NA,NA
"442","stim/objects/Instruments/doublebass.png",438,74,431,0.7,"stim/52.jpeg",5,2,2,2,"Instruments",2,2,"right","left",0.475999832,0,0,1,0,NA,NA,NA,NA,NA,NA,NA,NA,NA,NA,NA,NA,NA,NA,NA,NA,NA,NA,NA,NA,NA,NA,NA,NA
"566","stim/objects/Instruments/panflute2.png",439,74,432,0.1,"stim/22.jpeg",2,2,3,1,"Instruments",2,1,"right","left",0.541999817,0,0,1,0,134,74,1,0.1,2,"stim/22.jpeg",2,2,"stim/22.jpeg",1,"right",0.986999989,4,2,0.268000126,3,0.243999958,134,0,1,NA,0,NA,0
"373","stim/objects/HouseObjects/glass.png",440,74,433,0.9,"stim/22.jpeg",2,2,3,2,"HouseObjects",1,3,"left","left",0.663999796,1,1,1,0,NA,NA,NA,NA,NA,NA,NA,NA,NA,NA,NA,NA,NA,NA,NA,NA,NA,NA,NA,NA,NA,NA,NA,NA
"478","stim/objects/Instruments/flutetrans.png",441,74,434,0.9,"stim/14.jpeg",1,4,3,2,"Instruments",2,4,"right","right",0.408999681,1,1,1,0,NA,NA,NA,NA,NA,NA,NA,NA,NA,NA,NA,NA,NA,NA,NA,NA,NA,NA,NA,NA,NA,NA,NA,NA
"451","stim/objects/Instruments/electricdrumset2.png",442,74,435,0.3,"stim/62.jpeg",6,2,2,1,"Instruments",2,4,"right","left",0.564999819,0,0,1,0,32,74,1,0.3,2,"stim/62.jpeg",6,2,"stim/62.jpeg",4,"right",1.523999929,2,1,0.681999922,1,0.555000067,32,0,0,NA,0,NA,0
"285","stim/objects/HouseObjects/cushion.png",443,74,436,0.7,"stim/62.jpeg",6,2,2,2,"HouseObjects",1,3,"left","right",0.505999804,0,0,1,0,NA,NA,NA,NA,NA,NA,NA,NA,NA,NA,NA,NA,NA,NA,NA,NA,NA,NA,NA,NA,NA,NA,NA,NA
"355","stim/objects/HouseObjects/garbagebin.png",444,74,437,0.9,"stim/22.jpeg",2,2,3,2,"HouseObjects",1,2,"left","left",0.473999977,1,1,1,0,NA,NA,NA,NA,NA,NA,NA,NA,NA,NA,NA,NA,NA,NA,NA,NA,NA,NA,NA,NA,NA,NA,NA,NA
"438","stim/objects/Instruments/cymbal.png",445,74,438,0.7,"stim/54.jpeg",5,4,2,2,"Instruments",2,3,"right","left",0.491999865,0,0,1,0,NA,NA,NA,NA,NA,NA,NA,NA,NA,NA,NA,NA,NA,NA,NA,NA,NA,NA,NA,NA,NA,NA,NA,NA
"503","stim/objects/Instruments/frenchhorn.png",446,74,439,0.9,"stim/14.jpeg",1,4,3,2,"Instruments",2,1,"right","right",0.252999783,1,1,1,0,NA,NA,NA,NA,NA,NA,NA,NA,NA,NA,NA,NA,NA,NA,NA,NA,NA,NA,NA,NA,NA,NA,NA,NA
"510","stim/objects/Instruments/gong.png",447,74,440,0.9,"stim/11.jpeg",1,1,3,2,"Instruments",2,1,"right","left",0.555999756,0,0,1,0,NA,NA,NA,NA,NA,NA,NA,NA,NA,NA,NA,NA,NA,NA,NA,NA,NA,NA,NA,NA,NA,NA,NA,NA
"245","stim/objects/HouseObjects/ballofstring.png",448,74,441,0.5,"stim/32.jpeg",3,2,1,2,"HouseObjects",1,3,"left","right",0.343999863,0,0,1,0,NA,NA,NA,NA,NA,NA,NA,NA,NA,NA,NA,NA,NA,NA,NA,NA,NA,NA,NA,NA,NA,NA,NA,NA
"519","stim/objects/Instruments/gong.png",449,74,442,0.9,"stim/12.jpeg",1,2,3,2,"Instruments",2,2,"right","left",0.427999973,0,0,1,0,NA,NA,NA,NA,NA,NA,NA,NA,NA,NA,NA,NA,NA,NA,NA,NA,NA,NA,NA,NA,NA,NA,NA,NA
"467","stim/objects/Instruments/flute.png",450,74,443,0.9,"stim/12.jpeg",1,2,3,2,"Instruments",2,2,"right","right",0.419999838,1,1,1,0,NA,NA,NA,NA,NA,NA,NA,NA,NA,NA,NA,NA,NA,NA,NA,NA,NA,NA,NA,NA,NA,NA,NA,NA
"511","stim/objects/Instruments/gong.png",451,74,444,0.9,"stim/13.jpeg",1,3,3,2,"Instruments",2,2,"right","right",0.507999897,1,1,1,0,NA,NA,NA,NA,NA,NA,NA,NA,NA,NA,NA,NA,NA,NA,NA,NA,NA,NA,NA,NA,NA,NA,NA,NA
"299","stim/objects/HouseObjects/doormat.png",452,74,445,0.9,"stim/22.jpeg",2,2,3,2,"HouseObjects",1,2,"left","left",0.61199975,1,1,1,0,NA,NA,NA,NA,NA,NA,NA,NA,NA,NA,NA,NA,NA,NA,NA,NA,NA,NA,NA,NA,NA,NA,NA,NA
"505","stim/objects/Instruments/frenchhorn.png",453,74,446,0.9,"stim/13.jpeg",1,3,3,2,"Instruments",2,2,"right","right",0.508999825,1,1,1,0,NA,NA,NA,NA,NA,NA,NA,NA,NA,NA,NA,NA,NA,NA,NA,NA,NA,NA,NA,NA,NA,NA,NA,NA
"512","stim/objects/Instruments/gong.png",454,74,447,0.9,"stim/14.jpeg",1,4,3,2,"Instruments",2,4,"right","left",0.656999826,0,0,1,0,NA,NA,NA,NA,NA,NA,NA,NA,NA,NA,NA,NA,NA,NA,NA,NA,NA,NA,NA,NA,NA,NA,NA,NA
"516","stim/objects/Instruments/gong.png",455,74,448,0.9,"stim/11.jpeg",1,1,3,2,"Instruments",2,4,"right","left",0.542000055,0,0,1,0,NA,NA,NA,NA,NA,NA,NA,NA,NA,NA,NA,NA,NA,NA,NA,NA,NA,NA,NA,NA,NA,NA,NA,NA
"248","stim/objects/HouseObjects/barbecuelighter.png",456,74,449,0.5,"stim/33.jpeg",3,3,1,2,"HouseObjects",1,2,"left","right",0.555999756,0,0,1,0,NA,NA,NA,NA,NA,NA,NA,NA,NA,NA,NA,NA,NA,NA,NA,NA,NA,NA,NA,NA,NA,NA,NA,NA
"540","stim/objects/Instruments/grandpiano2.png",457,74,450,0.9,"stim/13.jpeg",1,3,3,1,"Instruments",2,1,"right","left",0.370999813,0,0,1,0,105,74,1,0.9,2,"stim/13.jpeg",1,3,"stim/13.jpeg",1,"right",0.769000053,2,1,0.977999926,1,0.554999828,105,0,0,NA,1,NA,0
"314","stim/objects/HouseObjects/dustpan.png",458,74,451,0.9,"stim/23.jpeg",2,3,3,2,"HouseObjects",1,1,"left","left",0.616999865,1,1,1,0,NA,NA,NA,NA,NA,NA,NA,NA,NA,NA,NA,NA,NA,NA,NA,NA,NA,NA,NA,NA,NA,NA,NA,NA
"517","stim/objects/Instruments/gong.png",459,74,452,0.9,"stim/14.jpeg",1,4,3,2,"Instruments",2,4,"right","right",0.60199976,1,1,1,0,NA,NA,NA,NA,NA,NA,NA,NA,NA,NA,NA,NA,NA,NA,NA,NA,NA,NA,NA,NA,NA,NA,NA,NA
"530","stim/objects/Instruments/grandpiano.png",460,74,453,0.9,"stim/13.jpeg",1,3,3,2,"Instruments",2,1,"right","left",0.65299964,0,0,1,0,NA,NA,NA,NA,NA,NA,NA,NA,NA,NA,NA,NA,NA,NA,NA,NA,NA,NA,NA,NA,NA,NA,NA,NA
"366","stim/objects/HouseObjects/glass.png",461,74,454,0.9,"stim/22.jpeg",2,2,3,2,"HouseObjects",1,4,"left","left",0.455999851,1,1,1,0,NA,NA,NA,NA,NA,NA,NA,NA,NA,NA,NA,NA,NA,NA,NA,NA,NA,NA,NA,NA,NA,NA,NA,NA
"417","stim/objects/Instruments/banjo2.png",462,74,455,0.7,"stim/52.jpeg",5,2,2,1,"Instruments",2,1,"right","right",0.491999865,1,1,1,0,121,74,1,0.7,2,"stim/52.jpeg",5,2,"stim/52.jpeg",1,"right",0.661999941,3,4,1.078999996,2,0.514999866,121,0,0,NA,0,NA,0
"431","stim/objects/Instruments/clarinet.png",463,74,456,0.5,"stim/41.jpeg",4,1,1,2,"Instruments",2,4,"right","left",0.493000031,0,0,1,0,NA,NA,NA,NA,NA,NA,NA,NA,NA,NA,NA,NA,NA,NA,NA,NA,NA,NA,NA,NA,NA,NA,NA,NA
"367","stim/objects/HouseObjects/glass.png",464,74,457,0.9,"stim/24.jpeg",2,4,3,2,"HouseObjects",1,1,"left","right",0.792999983,0,0,1,0,NA,NA,NA,NA,NA,NA,NA,NA,NA,NA,NA,NA,NA,NA,NA,NA,NA,NA,NA,NA,NA,NA,NA,NA
"543","stim/objects/Instruments/harmonica.png",465,74,458,0.5,"stim/33.jpeg",3,3,1,1,"Instruments",2,3,"right","left",0.306999683,0,0,1,0,72,74,1,0.5,1,"stim/33.jpeg",3,3,"stim/33.jpeg",3,"right",0.697999954,3,2,1.026000023,1,0.522000074,72,0,0,NA,0,NA,0
"276","stim/objects/HouseObjects/clothespin.png",466,74,459,0.7,"stim/64.jpeg",6,4,2,2,"HouseObjects",1,3,"left","left",0.403999805,1,1,1,0,NA,NA,NA,NA,NA,NA,NA,NA,NA,NA,NA,NA,NA,NA,NA,NA,NA,NA,NA,NA,NA,NA,NA,NA
"538","stim/objects/Instruments/grandpiano.png",467,74,460,0.9,"stim/14.jpeg",1,4,3,2,"Instruments",2,2,"right","left",0.587999821,0,0,1,0,NA,NA,NA,NA,NA,NA,NA,NA,NA,NA,NA,NA,NA,NA,NA,NA,NA,NA,NA,NA,NA,NA,NA,NA
"376","stim/objects/HouseObjects/glassmop.png",468,74,461,0.5,"stim/33.jpeg",3,3,1,1,"HouseObjects",1,1,"left","right",0.536999941,0,0,1,0,9,74,1,0.5,1,"stim/33.jpeg",3,3,"stim/33.jpeg",1,"right",1.059999943,3,4,5.111999989,4,1.065999985,9,0,0,NA,0,NA,0
