"","obj_file","X.x","participant.x","trialN.x","trial_cond","scn_file.x","scn_cat","scn_inst","scn_condition","fillers","obj_cat","obj_cat_num","quadrant","corr_ans","key_resp_trial.keys","key_resp_trial.rt","trial_acc","trial_acc_manual","group.x","practice","X.y","participant.y","OvsN","PE_level","object_cat","scn_file.y","corr_scn_cat","corr_scn_inst","scn_file.1","corr_loc","key_resp_id.keys","key_resp_id.rt","key_resp_conf.keys","key_resp_assoc.keys","key_resp_assoc.rt","key_resp_loc.keys","key_resp_loc.rt","trialN.y","id_acc","assoc.acc","cond_assoc","loc.acc","cond_loc","group.y"
"232","stim/objects/Instruments/tuba2.png",1,13,1,0.9,"stim/64.jpeg",6,4,3,NA,"Instruments",1,3,"left","",NA,0,0,1,1,NA,NA,NA,NA,NA,NA,NA,NA,NA,NA,NA,NA,NA,NA,NA,NA,NA,NA,NA,NA,NA,NA,NA,NA
"80","stim/objects/HouseObjects/sponge2.png",2,13,2,0.9,"stim/54.jpeg",5,4,3,NA,"HouseObjects",2,1,"right","right",0.854000092,1,1,1,1,NA,NA,NA,NA,NA,NA,NA,NA,NA,NA,NA,NA,NA,NA,NA,NA,NA,NA,NA,NA,NA,NA,NA,NA
"66","stim/objects/HouseObjects/scale2.png",3,13,3,0.9,"stim/53.jpeg",5,3,3,NA,"HouseObjects",2,2,"right","right",0.867000103,1,1,1,1,NA,NA,NA,NA,NA,NA,NA,NA,NA,NA,NA,NA,NA,NA,NA,NA,NA,NA,NA,NA,NA,NA,NA,NA
"97","stim/objects/HouseObjects/teapot.png",4,13,4,0.7,"stim/32.jpeg",3,2,2,NA,"HouseObjects",2,3,"right","",NA,0,0,1,1,NA,NA,NA,NA,NA,NA,NA,NA,NA,NA,NA,NA,NA,NA,NA,NA,NA,NA,NA,NA,NA,NA,NA,NA
"1","stim/objects/HouseObjects/recyclingbin.png",5,13,5,0.5,"stim/11.jpeg",1,1,1,NA,"HouseObjects",2,2,"right","left",0.805999994,0,0,1,1,NA,NA,NA,NA,NA,NA,NA,NA,NA,NA,NA,NA,NA,NA,NA,NA,NA,NA,NA,NA,NA,NA,NA,NA
"47","stim/objects/HouseObjects/saw.png",6,13,6,0.5,"stim/22.jpeg",2,2,1,NA,"HouseObjects",2,1,"right","right",0.798999786,1,1,1,1,NA,NA,NA,NA,NA,NA,NA,NA,NA,NA,NA,NA,NA,NA,NA,NA,NA,NA,NA,NA,NA,NA,NA,NA
"52","stim/objects/HouseObjects/saw2.png",7,13,7,0.9,"stim/52.jpeg",5,2,3,NA,"HouseObjects",2,4,"right","right",0.642000198,1,1,1,1,NA,NA,NA,NA,NA,NA,NA,NA,NA,NA,NA,NA,NA,NA,NA,NA,NA,NA,NA,NA,NA,NA,NA,NA
"75","stim/objects/HouseObjects/sponge.png",8,13,8,0.5,"stim/24.jpeg",2,4,1,NA,"HouseObjects",2,1,"right","left",0.711999893,0,0,1,1,NA,NA,NA,NA,NA,NA,NA,NA,NA,NA,NA,NA,NA,NA,NA,NA,NA,NA,NA,NA,NA,NA,NA,NA
"150","stim/objects/Instruments/record_player2.png",9,13,9,0.7,"stim/44.jpeg",4,4,2,NA,"Instruments",1,1,"left","left",0.868000031,1,1,1,1,NA,NA,NA,NA,NA,NA,NA,NA,NA,NA,NA,NA,NA,NA,NA,NA,NA,NA,NA,NA,NA,NA,NA,NA
"233","stim/objects/Instruments/tuba2.png",10,13,10,0.9,"stim/64.jpeg",6,4,3,NA,"Instruments",1,2,"left","left",0.667999983,1,1,1,1,NA,NA,NA,NA,NA,NA,NA,NA,NA,NA,NA,NA,NA,NA,NA,NA,NA,NA,NA,NA,NA,NA,NA,NA
"81","stim/objects/HouseObjects/sponge2.png",11,13,11,0.9,"stim/54.jpeg",5,4,3,NA,"HouseObjects",2,1,"right","right",0.5400002,1,1,1,1,NA,NA,NA,NA,NA,NA,NA,NA,NA,NA,NA,NA,NA,NA,NA,NA,NA,NA,NA,NA,NA,NA,NA,NA
"217","stim/objects/Instruments/trumpet.png",12,13,12,0.3,"stim/33.jpeg",3,3,2,NA,"Instruments",1,1,"left","right",0.782999992,0,0,1,1,NA,NA,NA,NA,NA,NA,NA,NA,NA,NA,NA,NA,NA,NA,NA,NA,NA,NA,NA,NA,NA,NA,NA,NA
"113","stim/objects/HouseObjects/thread.png",13,13,13,0.7,"stim/34.jpeg",3,4,2,NA,"HouseObjects",2,4,"right","",NA,0,0,1,1,NA,NA,NA,NA,NA,NA,NA,NA,NA,NA,NA,NA,NA,NA,NA,NA,NA,NA,NA,NA,NA,NA,NA,NA
"157","stim/objects/Instruments/record.png",14,13,14,0.5,"stim/13.jpeg",1,3,1,NA,"Instruments",1,3,"left","left",0.868000031,1,1,1,1,NA,NA,NA,NA,NA,NA,NA,NA,NA,NA,NA,NA,NA,NA,NA,NA,NA,NA,NA,NA,NA,NA,NA,NA
"145","stim/objects/Instruments/record_player.png",15,13,15,0.5,"stim/14.jpeg",1,4,1,NA,"Instruments",1,1,"left","right",0.867000103,0,0,1,1,NA,NA,NA,NA,NA,NA,NA,NA,NA,NA,NA,NA,NA,NA,NA,NA,NA,NA,NA,NA,NA,NA,NA,NA
"120","stim/objects/HouseObjects/thread2.png",16,13,16,0.1,"stim/64.jpeg",6,4,3,NA,"HouseObjects",2,4,"right","left",0.568000078,0,0,1,1,NA,NA,NA,NA,NA,NA,NA,NA,NA,NA,NA,NA,NA,NA,NA,NA,NA,NA,NA,NA,NA,NA,NA,NA
"53","stim/objects/HouseObjects/saw2.png",17,13,17,0.9,"stim/52.jpeg",5,2,3,NA,"HouseObjects",2,1,"right","right",0.687000036,1,1,1,1,NA,NA,NA,NA,NA,NA,NA,NA,NA,NA,NA,NA,NA,NA,NA,NA,NA,NA,NA,NA,NA,NA,NA,NA
"2","stim/objects/HouseObjects/recyclingbin.png",18,13,18,0.5,"stim/11.jpeg",1,1,1,NA,"HouseObjects",2,2,"right","",NA,0,0,1,1,NA,NA,NA,NA,NA,NA,NA,NA,NA,NA,NA,NA,NA,NA,NA,NA,NA,NA,NA,NA,NA,NA,NA,NA
"138","stim/objects/Instruments/pipepiano2.png",19,13,19,0.7,"stim/42.jpeg",4,2,2,NA,"Instruments",1,3,"left","right",0.786999941,0,0,1,1,NA,NA,NA,NA,NA,NA,NA,NA,NA,NA,NA,NA,NA,NA,NA,NA,NA,NA,NA,NA,NA,NA,NA,NA
"67","stim/objects/HouseObjects/scale2.png",20,13,20,0.9,"stim/53.jpeg",5,3,3,NA,"HouseObjects",2,3,"right","right",0.772000074,1,1,1,1,NA,NA,NA,NA,NA,NA,NA,NA,NA,NA,NA,NA,NA,NA,NA,NA,NA,NA,NA,NA,NA,NA,NA,NA
"14","stim/objects/HouseObjects/remote2.png",21,13,21,0.3,"stim/42.jpeg",4,2,2,NA,"HouseObjects",2,2,"right","left",0.832000017,0,0,1,1,NA,NA,NA,NA,NA,NA,NA,NA,NA,NA,NA,NA,NA,NA,NA,NA,NA,NA,NA,NA,NA,NA,NA,NA
"121","stim/objects/Instruments/panflute.png",22,13,22,0.5,"stim/11.jpeg",1,1,1,NA,"Instruments",1,1,"left","",NA,0,0,1,1,NA,NA,NA,NA,NA,NA,NA,NA,NA,NA,NA,NA,NA,NA,NA,NA,NA,NA,NA,NA,NA,NA,NA,NA
"196","stim/objects/Instruments/triangle2.png",23,13,23,0.9,"stim/61.jpeg",6,1,3,NA,"Instruments",1,3,"left","left",0.815999985,1,1,1,1,NA,NA,NA,NA,NA,NA,NA,NA,NA,NA,NA,NA,NA,NA,NA,NA,NA,NA,NA,NA,NA,NA,NA,NA
"33","stim/objects/HouseObjects/safetypin.png",24,13,24,0.5,"stim/21.jpeg",2,1,1,NA,"HouseObjects",2,3,"right","left",0.822000027,0,0,1,1,NA,NA,NA,NA,NA,NA,NA,NA,NA,NA,NA,NA,NA,NA,NA,NA,NA,NA,NA,NA,NA,NA,NA,NA
"174","stim/objects/Instruments/saxophone2.png",25,13,25,0.1,"stim/51.jpeg",5,1,3,NA,"Instruments",1,4,"left","right",0.698999882,0,0,1,1,NA,NA,NA,NA,NA,NA,NA,NA,NA,NA,NA,NA,NA,NA,NA,NA,NA,NA,NA,NA,NA,NA,NA,NA
"151","stim/objects/Instruments/record_player2.png",26,13,26,0.7,"stim/44.jpeg",4,4,2,NA,"Instruments",1,2,"left","right",0.907999992,0,0,1,1,NA,NA,NA,NA,NA,NA,NA,NA,NA,NA,NA,NA,NA,NA,NA,NA,NA,NA,NA,NA,NA,NA,NA,NA
"218","stim/objects/Instruments/trumpet.png",27,13,27,0.3,"stim/33.jpeg",3,3,2,NA,"Instruments",1,3,"left","",NA,0,0,1,1,NA,NA,NA,NA,NA,NA,NA,NA,NA,NA,NA,NA,NA,NA,NA,NA,NA,NA,NA,NA,NA,NA,NA,NA
"219","stim/objects/Instruments/trumpet.png",28,13,28,0.3,"stim/33.jpeg",3,3,2,NA,"Instruments",1,4,"left","right",0.838999987,0,0,1,1,NA,NA,NA,NA,NA,NA,NA,NA,NA,NA,NA,NA,NA,NA,NA,NA,NA,NA,NA,NA,NA,NA,NA,NA
"22","stim/objects/HouseObjects/rubbergloves2.png",29,13,29,0.3,"stim/43.jpeg",4,3,2,NA,"HouseObjects",2,4,"right","",NA,0,0,1,1,NA,NA,NA,NA,NA,NA,NA,NA,NA,NA,NA,NA,NA,NA,NA,NA,NA,NA,NA,NA,NA,NA,NA,NA
"169","stim/objects/Instruments/saxophone.png",30,13,30,0.5,"stim/21.jpeg",2,1,1,NA,"Instruments",1,3,"left","left",0.717999935,1,1,1,1,NA,NA,NA,NA,NA,NA,NA,NA,NA,NA,NA,NA,NA,NA,NA,NA,NA,NA,NA,NA,NA,NA,NA,NA
"146","stim/objects/Instruments/record_player.png",31,13,31,0.5,"stim/14.jpeg",1,4,1,NA,"Instruments",1,4,"left","right",0.592000008,0,0,1,1,NA,NA,NA,NA,NA,NA,NA,NA,NA,NA,NA,NA,NA,NA,NA,NA,NA,NA,NA,NA,NA,NA,NA,NA
"158","stim/objects/Instruments/record.png",32,13,32,0.5,"stim/13.jpeg",1,3,1,NA,"Instruments",1,2,"left","right",0.688999891,0,0,1,1,NA,NA,NA,NA,NA,NA,NA,NA,NA,NA,NA,NA,NA,NA,NA,NA,NA,NA,NA,NA,NA,NA,NA,NA
"234","stim/objects/Instruments/tuba2.png",33,13,33,0.9,"stim/64.jpeg",6,4,3,NA,"Instruments",1,3,"left","left",0.474999905,1,1,1,1,NA,NA,NA,NA,NA,NA,NA,NA,NA,NA,NA,NA,NA,NA,NA,NA,NA,NA,NA,NA,NA,NA,NA,NA
"30","stim/objects/HouseObjects/rug2.png",34,13,34,0.3,"stim/44.jpeg",4,4,2,NA,"HouseObjects",2,1,"right","left",0.631999969,0,0,1,1,NA,NA,NA,NA,NA,NA,NA,NA,NA,NA,NA,NA,NA,NA,NA,NA,NA,NA,NA,NA,NA,NA,NA,NA
"114","stim/objects/HouseObjects/thread.png",35,13,35,0.7,"stim/34.jpeg",3,4,2,NA,"HouseObjects",2,3,"right","right",0.705000162,1,1,1,1,NA,NA,NA,NA,NA,NA,NA,NA,NA,NA,NA,NA,NA,NA,NA,NA,NA,NA,NA,NA,NA,NA,NA,NA
"34","stim/objects/HouseObjects/safetypin.png",36,13,36,0.5,"stim/21.jpeg",2,1,1,NA,"HouseObjects",2,4,"right","left",0.730000019,0,0,1,1,NA,NA,NA,NA,NA,NA,NA,NA,NA,NA,NA,NA,NA,NA,NA,NA,NA,NA,NA,NA,NA,NA,NA,NA
"17","stim/objects/HouseObjects/rubbergloves.png",37,13,37,0.5,"stim/13.jpeg",1,3,1,NA,"HouseObjects",2,4,"right","right",0.888000011,1,1,1,1,NA,NA,NA,NA,NA,NA,NA,NA,NA,NA,NA,NA,NA,NA,NA,NA,NA,NA,NA,NA,NA,NA,NA,NA
"3","stim/objects/HouseObjects/recyclingbin.png",38,13,38,0.5,"stim/11.jpeg",1,1,1,NA,"HouseObjects",2,2,"right","left",0.838999987,0,0,1,1,NA,NA,NA,NA,NA,NA,NA,NA,NA,NA,NA,NA,NA,NA,NA,NA,NA,NA,NA,NA,NA,NA,NA,NA
"54","stim/objects/HouseObjects/saw2.png",39,13,39,0.9,"stim/52.jpeg",5,2,3,NA,"HouseObjects",2,3,"right","right",0.682999849,1,1,1,1,NA,NA,NA,NA,NA,NA,NA,NA,NA,NA,NA,NA,NA,NA,NA,NA,NA,NA,NA,NA,NA,NA,NA,NA
"61","stim/objects/HouseObjects/scale.png",40,13,40,0.5,"stim/23.jpeg",2,3,1,NA,"HouseObjects",2,3,"right","left",0.65899992,0,0,1,1,NA,NA,NA,NA,NA,NA,NA,NA,NA,NA,NA,NA,NA,NA,NA,NA,NA,NA,NA,NA,NA,NA,NA,NA
"162","stim/objects/Instruments/record2.png",41,13,41,0.7,"stim/43.jpeg",4,3,2,NA,"Instruments",1,3,"left","left",0.669000149,1,1,1,1,NA,NA,NA,NA,NA,NA,NA,NA,NA,NA,NA,NA,NA,NA,NA,NA,NA,NA,NA,NA,NA,NA,NA,NA
"62","stim/objects/HouseObjects/scale.png",42,13,42,0.5,"stim/23.jpeg",2,3,1,NA,"HouseObjects",2,2,"right","right",0.724999905,1,1,1,1,NA,NA,NA,NA,NA,NA,NA,NA,NA,NA,NA,NA,NA,NA,NA,NA,NA,NA,NA,NA,NA,NA,NA,NA
"205","stim/objects/Instruments/trombone.png",43,13,43,0.3,"stim/32.jpeg",3,2,2,NA,"Instruments",1,2,"left","right",0.634000063,0,0,1,1,NA,NA,NA,NA,NA,NA,NA,NA,NA,NA,NA,NA,NA,NA,NA,NA,NA,NA,NA,NA,NA,NA,NA,NA
"152","stim/objects/Instruments/record_player2.png",44,13,44,0.7,"stim/44.jpeg",4,4,2,NA,"Instruments",1,3,"left","left",0.630999804,1,1,1,1,NA,NA,NA,NA,NA,NA,NA,NA,NA,NA,NA,NA,NA,NA,NA,NA,NA,NA,NA,NA,NA,NA,NA,NA
"115","stim/objects/HouseObjects/thread.png",45,13,45,0.7,"stim/34.jpeg",3,4,2,NA,"HouseObjects",2,3,"right","right",0.694000006,1,1,1,1,NA,NA,NA,NA,NA,NA,NA,NA,NA,NA,NA,NA,NA,NA,NA,NA,NA,NA,NA,NA,NA,NA,NA,NA
"187","stim/objects/Instruments/timbal.png",46,13,46,0.5,"stim/24.jpeg",2,4,1,NA,"Instruments",1,1,"left","right",0.81099987,0,0,1,1,NA,NA,NA,NA,NA,NA,NA,NA,NA,NA,NA,NA,NA,NA,NA,NA,NA,NA,NA,NA,NA,NA,NA,NA
"139","stim/objects/Instruments/pipepiano2.png",47,13,47,0.7,"stim/42.jpeg",4,2,2,NA,"Instruments",1,2,"left","left",0.891000032,1,1,1,1,NA,NA,NA,NA,NA,NA,NA,NA,NA,NA,NA,NA,NA,NA,NA,NA,NA,NA,NA,NA,NA,NA,NA,NA
"18","stim/objects/HouseObjects/rubbergloves.png",48,13,48,0.5,"stim/13.jpeg",1,3,1,NA,"HouseObjects",2,2,"right","right",0.74000001,1,1,1,1,NA,NA,NA,NA,NA,NA,NA,NA,NA,NA,NA,NA,NA,NA,NA,NA,NA,NA,NA,NA,NA,NA,NA,NA
"82","stim/objects/HouseObjects/sponge2.png",49,13,49,0.9,"stim/54.jpeg",5,4,3,NA,"HouseObjects",2,4,"right","right",0.625999928,1,1,1,1,NA,NA,NA,NA,NA,NA,NA,NA,NA,NA,NA,NA,NA,NA,NA,NA,NA,NA,NA,NA,NA,NA,NA,NA
"23","stim/objects/HouseObjects/rubbergloves2.png",50,13,50,0.3,"stim/43.jpeg",4,3,2,NA,"HouseObjects",2,4,"right","left",0.74000001,0,0,1,1,NA,NA,NA,NA,NA,NA,NA,NA,NA,NA,NA,NA,NA,NA,NA,NA,NA,NA,NA,NA,NA,NA,NA,NA
"112","stim/objects/HouseObjects/thermometer2.png",51,13,51,0.1,"stim/63.jpeg",6,3,3,NA,"HouseObjects",2,4,"right","left",0.582999945,0,0,1,1,NA,NA,NA,NA,NA,NA,NA,NA,NA,NA,NA,NA,NA,NA,NA,NA,NA,NA,NA,NA,NA,NA,NA,NA
"35","stim/objects/HouseObjects/safetypin.png",52,13,52,0.5,"stim/21.jpeg",2,1,1,NA,"HouseObjects",2,3,"right","left",0.870000124,0,0,1,1,NA,NA,NA,NA,NA,NA,NA,NA,NA,NA,NA,NA,NA,NA,NA,NA,NA,NA,NA,NA,NA,NA,NA,NA
"105","stim/objects/HouseObjects/thermometer.png",53,13,53,0.7,"stim/33.jpeg",3,3,2,NA,"HouseObjects",2,4,"right","",NA,0,0,1,1,NA,NA,NA,NA,NA,NA,NA,NA,NA,NA,NA,NA,NA,NA,NA,NA,NA,NA,NA,NA,NA,NA,NA,NA
"104","stim/objects/HouseObjects/teapot2.png",54,13,54,0.1,"stim/62.jpeg",6,2,3,NA,"HouseObjects",2,1,"right","left",0.565999985,0,0,1,1,NA,NA,NA,NA,NA,NA,NA,NA,NA,NA,NA,NA,NA,NA,NA,NA,NA,NA,NA,NA,NA,NA,NA,NA
"31","stim/objects/HouseObjects/rug2.png",55,13,55,0.3,"stim/44.jpeg",4,4,2,NA,"HouseObjects",2,4,"right","left",0.871000051,0,0,1,1,NA,NA,NA,NA,NA,NA,NA,NA,NA,NA,NA,NA,NA,NA,NA,NA,NA,NA,NA,NA,NA,NA,NA,NA
"197","stim/objects/Instruments/triangle2.png",56,13,56,0.9,"stim/61.jpeg",6,1,3,NA,"Instruments",1,4,"left","left",0.59100008,1,1,1,1,NA,NA,NA,NA,NA,NA,NA,NA,NA,NA,NA,NA,NA,NA,NA,NA,NA,NA,NA,NA,NA,NA,NA,NA
"106","stim/objects/HouseObjects/thermometer.png",57,13,57,0.7,"stim/33.jpeg",3,3,2,NA,"HouseObjects",2,1,"right","right",0.638999939,1,1,1,1,NA,NA,NA,NA,NA,NA,NA,NA,NA,NA,NA,NA,NA,NA,NA,NA,NA,NA,NA,NA,NA,NA,NA,NA
"25","stim/objects/HouseObjects/rug.png",58,13,58,0.5,"stim/14.jpeg",1,4,1,NA,"HouseObjects",2,1,"right","right",0.60800004,1,1,1,1,NA,NA,NA,NA,NA,NA,NA,NA,NA,NA,NA,NA,NA,NA,NA,NA,NA,NA,NA,NA,NA,NA,NA,NA
"83","stim/objects/HouseObjects/sponge2.png",59,13,59,0.9,"stim/54.jpeg",5,4,3,NA,"HouseObjects",2,4,"right","right",0.605000019,1,1,1,1,NA,NA,NA,NA,NA,NA,NA,NA,NA,NA,NA,NA,NA,NA,NA,NA,NA,NA,NA,NA,NA,NA,NA,NA
"98","stim/objects/HouseObjects/teapot.png",60,13,60,0.7,"stim/32.jpeg",3,2,2,NA,"HouseObjects",2,4,"right","right",0.606000185,1,1,1,1,NA,NA,NA,NA,NA,NA,NA,NA,NA,NA,NA,NA,NA,NA,NA,NA,NA,NA,NA,NA,NA,NA,NA,NA
"140","stim/objects/Instruments/pipepiano2.png",61,13,61,0.7,"stim/42.jpeg",4,2,2,NA,"Instruments",1,1,"left","left",0.538000107,1,1,1,1,NA,NA,NA,NA,NA,NA,NA,NA,NA,NA,NA,NA,NA,NA,NA,NA,NA,NA,NA,NA,NA,NA,NA,NA
"229","stim/objects/Instruments/tuba.png",62,13,62,0.3,"stim/34.jpeg",3,4,2,NA,"Instruments",1,2,"left","right",0.569999933,0,0,1,1,NA,NA,NA,NA,NA,NA,NA,NA,NA,NA,NA,NA,NA,NA,NA,NA,NA,NA,NA,NA,NA,NA,NA,NA
"15","stim/objects/HouseObjects/remote2.png",63,13,63,0.3,"stim/42.jpeg",4,2,2,NA,"HouseObjects",2,2,"right","left",0.684000015,0,0,1,1,NA,NA,NA,NA,NA,NA,NA,NA,NA,NA,NA,NA,NA,NA,NA,NA,NA,NA,NA,NA,NA,NA,NA,NA
"193","stim/objects/Instruments/triangle.png",64,13,64,0.3,"stim/31.jpeg",3,1,2,NA,"Instruments",1,3,"left","right",0.847999811,0,0,1,1,NA,NA,NA,NA,NA,NA,NA,NA,NA,NA,NA,NA,NA,NA,NA,NA,NA,NA,NA,NA,NA,NA,NA,NA
"26","stim/objects/HouseObjects/rug.png",65,13,65,0.5,"stim/14.jpeg",1,4,1,NA,"HouseObjects",2,1,"right","left",0.83100009,0,0,1,1,NA,NA,NA,NA,NA,NA,NA,NA,NA,NA,NA,NA,NA,NA,NA,NA,NA,NA,NA,NA,NA,NA,NA,NA
"99","stim/objects/HouseObjects/teapot.png",66,13,66,0.7,"stim/32.jpeg",3,2,2,NA,"HouseObjects",2,4,"right","",NA,0,0,1,1,NA,NA,NA,NA,NA,NA,NA,NA,NA,NA,NA,NA,NA,NA,NA,NA,NA,NA,NA,NA,NA,NA,NA,NA
"170","stim/objects/Instruments/saxophone.png",67,13,67,0.5,"stim/21.jpeg",2,1,1,NA,"Instruments",1,4,"left","right",0.873000145,0,0,1,1,NA,NA,NA,NA,NA,NA,NA,NA,NA,NA,NA,NA,NA,NA,NA,NA,NA,NA,NA,NA,NA,NA,NA,NA
"133","stim/objects/Instruments/pipepiano.png",68,13,68,0.5,"stim/12.jpeg",1,2,1,NA,"Instruments",1,4,"left","right",0.67599988,0,0,1,1,NA,NA,NA,NA,NA,NA,NA,NA,NA,NA,NA,NA,NA,NA,NA,NA,NA,NA,NA,NA,NA,NA,NA,NA
"208","stim/objects/Instruments/trombone2.png",69,13,69,0.9,"stim/62.jpeg",6,2,3,NA,"Instruments",1,4,"left","left",0.598999977,1,1,1,1,NA,NA,NA,NA,NA,NA,NA,NA,NA,NA,NA,NA,NA,NA,NA,NA,NA,NA,NA,NA,NA,NA,NA,NA
"175","stim/objects/Instruments/speaker.png",70,13,70,0.5,"stim/22.jpeg",2,2,1,NA,"Instruments",1,1,"left","left",0.728999853,1,1,1,1,NA,NA,NA,NA,NA,NA,NA,NA,NA,NA,NA,NA,NA,NA,NA,NA,NA,NA,NA,NA,NA,NA,NA,NA
"141","stim/objects/Instruments/pipepiano2.png",71,13,71,0.7,"stim/42.jpeg",4,2,2,NA,"Instruments",1,4,"left","left",0.657000065,1,1,1,1,NA,NA,NA,NA,NA,NA,NA,NA,NA,NA,NA,NA,NA,NA,NA,NA,NA,NA,NA,NA,NA,NA,NA,NA
"76","stim/objects/HouseObjects/sponge.png",72,13,72,0.5,"stim/24.jpeg",2,4,1,NA,"HouseObjects",2,2,"right","left",0.659000158,0,0,1,1,NA,NA,NA,NA,NA,NA,NA,NA,NA,NA,NA,NA,NA,NA,NA,NA,NA,NA,NA,NA,NA,NA,NA,NA
"38","stim/objects/HouseObjects/safetypin2.png",73,13,73,0.9,"stim/51.jpeg",5,1,3,NA,"HouseObjects",2,2,"right","right",0.505000114,1,1,1,1,NA,NA,NA,NA,NA,NA,NA,NA,NA,NA,NA,NA,NA,NA,NA,NA,NA,NA,NA,NA,NA,NA,NA,NA
"32","stim/objects/HouseObjects/rug2.png",74,13,74,0.3,"stim/44.jpeg",4,4,2,NA,"HouseObjects",2,2,"right","left",0.572000027,0,0,1,1,NA,NA,NA,NA,NA,NA,NA,NA,NA,NA,NA,NA,NA,NA,NA,NA,NA,NA,NA,NA,NA,NA,NA,NA
"163","stim/objects/Instruments/record2.png",75,13,75,0.7,"stim/43.jpeg",4,3,2,NA,"Instruments",1,1,"left","right",0.496999979,0,0,1,1,NA,NA,NA,NA,NA,NA,NA,NA,NA,NA,NA,NA,NA,NA,NA,NA,NA,NA,NA,NA,NA,NA,NA,NA
"181","stim/objects/Instruments/tambourine.png",76,13,76,0.5,"stim/23.jpeg",2,3,1,NA,"Instruments",1,3,"left","left",0.750999928,1,1,1,1,NA,NA,NA,NA,NA,NA,NA,NA,NA,NA,NA,NA,NA,NA,NA,NA,NA,NA,NA,NA,NA,NA,NA,NA
"198","stim/objects/Instruments/triangle2.png",77,13,77,0.9,"stim/61.jpeg",6,1,3,NA,"Instruments",1,3,"left","left",0.57400012,1,1,1,1,NA,NA,NA,NA,NA,NA,NA,NA,NA,NA,NA,NA,NA,NA,NA,NA,NA,NA,NA,NA,NA,NA,NA,NA
"142","stim/objects/Instruments/pipepiano2.png",78,13,78,0.7,"stim/42.jpeg",4,2,2,NA,"Instruments",1,3,"left","left",0.751999855,1,1,1,1,NA,NA,NA,NA,NA,NA,NA,NA,NA,NA,NA,NA,NA,NA,NA,NA,NA,NA,NA,NA,NA,NA,NA,NA
"126","stim/objects/Instruments/panflute2.png",79,13,79,0.7,"stim/41.jpeg",4,1,2,NA,"Instruments",1,2,"left","right",0.772000074,0,0,1,1,NA,NA,NA,NA,NA,NA,NA,NA,NA,NA,NA,NA,NA,NA,NA,NA,NA,NA,NA,NA,NA,NA,NA,NA
"199","stim/objects/Instruments/triangle2.png",80,13,80,0.9,"stim/61.jpeg",6,1,3,NA,"Instruments",1,3,"left","left",0.482999802,1,1,1,1,NA,NA,NA,NA,NA,NA,NA,NA,NA,NA,NA,NA,NA,NA,NA,NA,NA,NA,NA,NA,NA,NA,NA,NA
"48","stim/objects/HouseObjects/saw.png",81,13,81,0.5,"stim/22.jpeg",2,2,1,NA,"HouseObjects",2,3,"right","left",0.764000177,0,0,1,1,NA,NA,NA,NA,NA,NA,NA,NA,NA,NA,NA,NA,NA,NA,NA,NA,NA,NA,NA,NA,NA,NA,NA,NA
"230","stim/objects/Instruments/tuba.png",82,13,82,0.3,"stim/34.jpeg",3,4,2,NA,"Instruments",1,3,"left","right",0.691999912,0,0,1,1,NA,NA,NA,NA,NA,NA,NA,NA,NA,NA,NA,NA,NA,NA,NA,NA,NA,NA,NA,NA,NA,NA,NA,NA
"68","stim/objects/HouseObjects/scale2.png",83,13,83,0.9,"stim/53.jpeg",5,3,3,NA,"HouseObjects",2,1,"right","right",0.56799984,1,1,1,1,NA,NA,NA,NA,NA,NA,NA,NA,NA,NA,NA,NA,NA,NA,NA,NA,NA,NA,NA,NA,NA,NA,NA,NA
"19","stim/objects/HouseObjects/rubbergloves.png",84,13,84,0.5,"stim/13.jpeg",1,3,1,NA,"HouseObjects",2,3,"right","right",0.753000021,1,1,1,1,NA,NA,NA,NA,NA,NA,NA,NA,NA,NA,NA,NA,NA,NA,NA,NA,NA,NA,NA,NA,NA,NA,NA,NA
"164","stim/objects/Instruments/record2.png",85,13,85,0.7,"stim/43.jpeg",4,3,2,NA,"Instruments",1,2,"left","left",0.927999973,1,1,1,1,NA,NA,NA,NA,NA,NA,NA,NA,NA,NA,NA,NA,NA,NA,NA,NA,NA,NA,NA,NA,NA,NA,NA,NA
"153","stim/objects/Instruments/record_player2.png",86,13,86,0.7,"stim/44.jpeg",4,4,2,NA,"Instruments",1,4,"left","",NA,0,0,1,1,NA,NA,NA,NA,NA,NA,NA,NA,NA,NA,NA,NA,NA,NA,NA,NA,NA,NA,NA,NA,NA,NA,NA,NA
"9","stim/objects/HouseObjects/remote.png",87,13,87,0.5,"stim/12.jpeg",1,2,1,NA,"HouseObjects",2,2,"right","right",0.710000038,1,1,1,1,NA,NA,NA,NA,NA,NA,NA,NA,NA,NA,NA,NA,NA,NA,NA,NA,NA,NA,NA,NA,NA,NA,NA,NA
"235","stim/objects/Instruments/tuba2.png",88,13,88,0.9,"stim/64.jpeg",6,4,3,NA,"Instruments",1,2,"left","left",0.588000059,1,1,1,1,NA,NA,NA,NA,NA,NA,NA,NA,NA,NA,NA,NA,NA,NA,NA,NA,NA,NA,NA,NA,NA,NA,NA,NA
"159","stim/objects/Instruments/record.png",89,13,89,0.5,"stim/13.jpeg",1,3,1,NA,"Instruments",1,1,"left","left",0.612999916,1,1,1,1,NA,NA,NA,NA,NA,NA,NA,NA,NA,NA,NA,NA,NA,NA,NA,NA,NA,NA,NA,NA,NA,NA,NA,NA
"4","stim/objects/HouseObjects/recyclingbin.png",90,13,90,0.5,"stim/11.jpeg",1,1,1,NA,"HouseObjects",2,3,"right","right",0.655999899,1,1,1,1,NA,NA,NA,NA,NA,NA,NA,NA,NA,NA,NA,NA,NA,NA,NA,NA,NA,NA,NA,NA,NA,NA,NA,NA
"200","stim/objects/Instruments/triangle2.png",91,13,91,0.9,"stim/61.jpeg",6,1,3,NA,"Instruments",1,4,"left","left",0.553999901,1,1,1,1,NA,NA,NA,NA,NA,NA,NA,NA,NA,NA,NA,NA,NA,NA,NA,NA,NA,NA,NA,NA,NA,NA,NA,NA
"147","stim/objects/Instruments/record_player.png",92,13,92,0.5,"stim/14.jpeg",1,4,1,NA,"Instruments",1,4,"left","right",0.787000179,0,0,1,1,NA,NA,NA,NA,NA,NA,NA,NA,NA,NA,NA,NA,NA,NA,NA,NA,NA,NA,NA,NA,NA,NA,NA,NA
"182","stim/objects/Instruments/tambourine.png",93,13,93,0.5,"stim/23.jpeg",2,3,1,NA,"Instruments",1,1,"left","left",0.619999886,1,1,1,1,NA,NA,NA,NA,NA,NA,NA,NA,NA,NA,NA,NA,NA,NA,NA,NA,NA,NA,NA,NA,NA,NA,NA,NA
"236","stim/objects/Instruments/tuba2.png",94,13,94,0.9,"stim/64.jpeg",6,4,3,NA,"Instruments",1,1,"left","left",0.644000053,1,1,1,1,NA,NA,NA,NA,NA,NA,NA,NA,NA,NA,NA,NA,NA,NA,NA,NA,NA,NA,NA,NA,NA,NA,NA,NA
"143","stim/objects/Instruments/pipepiano2.png",95,13,95,0.7,"stim/42.jpeg",4,2,2,NA,"Instruments",1,1,"left","left",0.752999783,1,1,1,1,NA,NA,NA,NA,NA,NA,NA,NA,NA,NA,NA,NA,NA,NA,NA,NA,NA,NA,NA,NA,NA,NA,NA,NA
"209","stim/objects/Instruments/trombone2.png",96,13,96,0.9,"stim/62.jpeg",6,2,3,NA,"Instruments",1,4,"left","left",0.671999931,1,1,1,1,NA,NA,NA,NA,NA,NA,NA,NA,NA,NA,NA,NA,NA,NA,NA,NA,NA,NA,NA,NA,NA,NA,NA,NA
"100","stim/objects/HouseObjects/teapot.png",97,13,97,0.7,"stim/32.jpeg",3,2,2,NA,"HouseObjects",2,1,"right","right",0.639999866,1,1,1,1,NA,NA,NA,NA,NA,NA,NA,NA,NA,NA,NA,NA,NA,NA,NA,NA,NA,NA,NA,NA,NA,NA,NA,NA
"69","stim/objects/HouseObjects/scale2.png",98,13,98,0.9,"stim/53.jpeg",5,3,3,NA,"HouseObjects",2,1,"right","right",0.584000111,1,1,1,1,NA,NA,NA,NA,NA,NA,NA,NA,NA,NA,NA,NA,NA,NA,NA,NA,NA,NA,NA,NA,NA,NA,NA,NA
"183","stim/objects/Instruments/tambourine.png",99,13,99,0.5,"stim/23.jpeg",2,3,1,NA,"Instruments",1,4,"left","left",0.640000105,1,1,1,1,NA,NA,NA,NA,NA,NA,NA,NA,NA,NA,NA,NA,NA,NA,NA,NA,NA,NA,NA,NA,NA,NA,NA,NA
"10","stim/objects/HouseObjects/remote.png",100,13,100,0.5,"stim/12.jpeg",1,2,1,NA,"HouseObjects",2,2,"right","left",0.618999958,0,0,1,1,NA,NA,NA,NA,NA,NA,NA,NA,NA,NA,NA,NA,NA,NA,NA,NA,NA,NA,NA,NA,NA,NA,NA,NA
"220","stim/objects/Instruments/trumpet2.png",101,13,101,0.9,"stim/63.jpeg",6,3,3,NA,"Instruments",1,3,"left","left",0.738999844,1,1,1,1,NA,NA,NA,NA,NA,NA,NA,NA,NA,NA,NA,NA,NA,NA,NA,NA,NA,NA,NA,NA,NA,NA,NA,NA
"221","stim/objects/Instruments/trumpet2.png",102,13,102,0.9,"stim/63.jpeg",6,3,3,NA,"Instruments",1,4,"left","left",0.805000067,1,1,1,1,NA,NA,NA,NA,NA,NA,NA,NA,NA,NA,NA,NA,NA,NA,NA,NA,NA,NA,NA,NA,NA,NA,NA,NA
"89","stim/objects/HouseObjects/spraybottle.png",103,13,103,0.7,"stim/31.jpeg",3,1,2,NA,"HouseObjects",2,4,"right","right",0.875,1,1,1,1,NA,NA,NA,NA,NA,NA,NA,NA,NA,NA,NA,NA,NA,NA,NA,NA,NA,NA,NA,NA,NA,NA,NA,NA
"184","stim/objects/Instruments/tambourine.png",104,13,104,0.5,"stim/23.jpeg",2,3,1,NA,"Instruments",1,4,"left","",NA,0,0,1,1,NA,NA,NA,NA,NA,NA,NA,NA,NA,NA,NA,NA,NA,NA,NA,NA,NA,NA,NA,NA,NA,NA,NA,NA
"6","stim/objects/HouseObjects/recyclingbin2.png",105,13,105,0.3,"stim/41.jpeg",4,1,2,NA,"HouseObjects",2,4,"right","left",0.771999836,0,0,1,1,NA,NA,NA,NA,NA,NA,NA,NA,NA,NA,NA,NA,NA,NA,NA,NA,NA,NA,NA,NA,NA,NA,NA,NA
"11","stim/objects/HouseObjects/remote.png",106,13,106,0.5,"stim/12.jpeg",1,2,1,NA,"HouseObjects",2,3,"right","",NA,0,0,1,1,NA,NA,NA,NA,NA,NA,NA,NA,NA,NA,NA,NA,NA,NA,NA,NA,NA,NA,NA,NA,NA,NA,NA,NA
"210","stim/objects/Instruments/trombone2.png",107,13,107,0.9,"stim/62.jpeg",6,2,3,NA,"Instruments",1,1,"left","left",0.603000164,1,1,1,1,NA,NA,NA,NA,NA,NA,NA,NA,NA,NA,NA,NA,NA,NA,NA,NA,NA,NA,NA,NA,NA,NA,NA,NA
"90","stim/objects/HouseObjects/spraybottle.png",108,13,108,0.7,"stim/31.jpeg",3,1,2,NA,"HouseObjects",2,1,"right","right",0.648999929,1,1,1,1,NA,NA,NA,NA,NA,NA,NA,NA,NA,NA,NA,NA,NA,NA,NA,NA,NA,NA,NA,NA,NA,NA,NA,NA
"91","stim/objects/HouseObjects/spraybottle.png",109,13,109,0.7,"stim/31.jpeg",3,1,2,NA,"HouseObjects",2,2,"right","right",0.726999998,1,1,1,1,NA,NA,NA,NA,NA,NA,NA,NA,NA,NA,NA,NA,NA,NA,NA,NA,NA,NA,NA,NA,NA,NA,NA,NA
"176","stim/objects/Instruments/speaker.png",110,13,110,0.5,"stim/22.jpeg",2,2,1,NA,"Instruments",1,1,"left","left",0.519000053,1,1,1,1,NA,NA,NA,NA,NA,NA,NA,NA,NA,NA,NA,NA,NA,NA,NA,NA,NA,NA,NA,NA,NA,NA,NA,NA
"116","stim/objects/HouseObjects/thread.png",111,13,111,0.7,"stim/34.jpeg",3,4,2,NA,"HouseObjects",2,2,"right","right",0.740999937,1,1,1,1,NA,NA,NA,NA,NA,NA,NA,NA,NA,NA,NA,NA,NA,NA,NA,NA,NA,NA,NA,NA,NA,NA,NA,NA
"39","stim/objects/HouseObjects/safetypin2.png",112,13,112,0.9,"stim/51.jpeg",5,1,3,NA,"HouseObjects",2,1,"right","right",0.694999933,1,1,1,1,NA,NA,NA,NA,NA,NA,NA,NA,NA,NA,NA,NA,NA,NA,NA,NA,NA,NA,NA,NA,NA,NA,NA,NA
"171","stim/objects/Instruments/saxophone.png",113,13,113,0.5,"stim/21.jpeg",2,1,1,NA,"Instruments",1,4,"left","left",0.703999996,1,1,1,1,NA,NA,NA,NA,NA,NA,NA,NA,NA,NA,NA,NA,NA,NA,NA,NA,NA,NA,NA,NA,NA,NA,NA,NA
"134","stim/objects/Instruments/pipepiano.png",114,13,114,0.5,"stim/12.jpeg",1,2,1,NA,"Instruments",1,1,"left","right",0.532000065,0,0,1,1,NA,NA,NA,NA,NA,NA,NA,NA,NA,NA,NA,NA,NA,NA,NA,NA,NA,NA,NA,NA,NA,NA,NA,NA
"222","stim/objects/Instruments/trumpet2.png",115,13,115,0.9,"stim/63.jpeg",6,3,3,NA,"Instruments",1,3,"left","left",0.606999874,1,1,1,1,NA,NA,NA,NA,NA,NA,NA,NA,NA,NA,NA,NA,NA,NA,NA,NA,NA,NA,NA,NA,NA,NA,NA,NA
"122","stim/objects/Instruments/panflute.png",116,13,116,0.5,"stim/11.jpeg",1,1,1,NA,"Instruments",1,2,"left","right",0.691000223,0,0,1,1,NA,NA,NA,NA,NA,NA,NA,NA,NA,NA,NA,NA,NA,NA,NA,NA,NA,NA,NA,NA,NA,NA,NA,NA
"223","stim/objects/Instruments/trumpet2.png",117,13,117,0.9,"stim/63.jpeg",6,3,3,NA,"Instruments",1,1,"left","left",0.573999882,1,1,1,1,NA,NA,NA,NA,NA,NA,NA,NA,NA,NA,NA,NA,NA,NA,NA,NA,NA,NA,NA,NA,NA,NA,NA,NA
"165","stim/objects/Instruments/record2.png",118,13,118,0.7,"stim/43.jpeg",4,3,2,NA,"Instruments",1,1,"left","left",0.501999855,1,1,1,1,NA,NA,NA,NA,NA,NA,NA,NA,NA,NA,NA,NA,NA,NA,NA,NA,NA,NA,NA,NA,NA,NA,NA,NA
"201","stim/objects/Instruments/triangle2.png",119,13,119,0.9,"stim/61.jpeg",6,1,3,NA,"Instruments",1,2,"left","left",0.605999947,1,1,1,1,NA,NA,NA,NA,NA,NA,NA,NA,NA,NA,NA,NA,NA,NA,NA,NA,NA,NA,NA,NA,NA,NA,NA,NA
"70","stim/objects/HouseObjects/scale2.png",120,13,120,0.9,"stim/53.jpeg",5,3,3,NA,"HouseObjects",2,2,"right","right",0.611999989,1,1,1,1,NA,NA,NA,NA,NA,NA,NA,NA,NA,NA,NA,NA,NA,NA,NA,NA,NA,NA,NA,NA,NA,NA,NA,NA
"71","stim/objects/HouseObjects/scale2.png",121,13,121,0.9,"stim/53.jpeg",5,3,3,NA,"HouseObjects",2,2,"right","right",0.619999886,1,1,1,1,NA,NA,NA,NA,NA,NA,NA,NA,NA,NA,NA,NA,NA,NA,NA,NA,NA,NA,NA,NA,NA,NA,NA,NA
"96","stim/objects/HouseObjects/spraybottle2.png",122,13,122,0.1,"stim/61.jpeg",6,1,3,NA,"HouseObjects",2,2,"right","left",0.555999994,0,0,1,1,NA,NA,NA,NA,NA,NA,NA,NA,NA,NA,NA,NA,NA,NA,NA,NA,NA,NA,NA,NA,NA,NA,NA,NA
"20","stim/objects/HouseObjects/rubbergloves.png",123,13,123,0.5,"stim/13.jpeg",1,3,1,NA,"HouseObjects",2,1,"right","right",0.635999918,1,1,1,1,NA,NA,NA,NA,NA,NA,NA,NA,NA,NA,NA,NA,NA,NA,NA,NA,NA,NA,NA,NA,NA,NA,NA,NA
"180","stim/objects/Instruments/speaker2.png",124,13,124,0.1,"stim/52.jpeg",5,2,3,NA,"Instruments",1,3,"left","right",0.559999943,0,0,1,1,NA,NA,NA,NA,NA,NA,NA,NA,NA,NA,NA,NA,NA,NA,NA,NA,NA,NA,NA,NA,NA,NA,NA,NA
"7","stim/objects/HouseObjects/recyclingbin2.png",125,13,125,0.3,"stim/41.jpeg",4,1,2,NA,"HouseObjects",2,4,"right","",NA,0,0,1,1,NA,NA,NA,NA,NA,NA,NA,NA,NA,NA,NA,NA,NA,NA,NA,NA,NA,NA,NA,NA,NA,NA,NA,NA
"172","stim/objects/Instruments/saxophone.png",126,13,126,0.5,"stim/21.jpeg",2,1,1,NA,"Instruments",1,2,"left","left",0.70600009,1,1,1,1,NA,NA,NA,NA,NA,NA,NA,NA,NA,NA,NA,NA,NA,NA,NA,NA,NA,NA,NA,NA,NA,NA,NA,NA
"211","stim/objects/Instruments/trombone2.png",127,13,127,0.9,"stim/62.jpeg",6,2,3,NA,"Instruments",1,1,"left","left",0.538000107,1,1,1,1,NA,NA,NA,NA,NA,NA,NA,NA,NA,NA,NA,NA,NA,NA,NA,NA,NA,NA,NA,NA,NA,NA,NA,NA
"55","stim/objects/HouseObjects/saw2.png",128,13,128,0.9,"stim/52.jpeg",5,2,3,NA,"HouseObjects",2,4,"right","right",0.542999983,1,1,1,1,NA,NA,NA,NA,NA,NA,NA,NA,NA,NA,NA,NA,NA,NA,NA,NA,NA,NA,NA,NA,NA,NA,NA,NA
"154","stim/objects/Instruments/record_player2.png",129,13,129,0.7,"stim/44.jpeg",4,4,2,NA,"Instruments",1,1,"left","left",0.638999939,1,1,1,1,NA,NA,NA,NA,NA,NA,NA,NA,NA,NA,NA,NA,NA,NA,NA,NA,NA,NA,NA,NA,NA,NA,NA,NA
"40","stim/objects/HouseObjects/safetypin2.png",130,13,130,0.9,"stim/51.jpeg",5,1,3,NA,"HouseObjects",2,1,"right","right",0.573999882,1,1,1,1,NA,NA,NA,NA,NA,NA,NA,NA,NA,NA,NA,NA,NA,NA,NA,NA,NA,NA,NA,NA,NA,NA,NA,NA
"101","stim/objects/HouseObjects/teapot.png",131,13,131,0.7,"stim/32.jpeg",3,2,2,NA,"HouseObjects",2,3,"right","left",0.734999895,0,0,1,1,NA,NA,NA,NA,NA,NA,NA,NA,NA,NA,NA,NA,NA,NA,NA,NA,NA,NA,NA,NA,NA,NA,NA,NA
"84","stim/objects/HouseObjects/sponge2.png",132,13,132,0.9,"stim/54.jpeg",5,4,3,NA,"HouseObjects",2,1,"right","right",0.587000132,1,1,1,1,NA,NA,NA,NA,NA,NA,NA,NA,NA,NA,NA,NA,NA,NA,NA,NA,NA,NA,NA,NA,NA,NA,NA,NA
"206","stim/objects/Instruments/trombone.png",133,13,133,0.3,"stim/32.jpeg",3,2,2,NA,"Instruments",1,3,"left","right",0.584000111,0,0,1,1,NA,NA,NA,NA,NA,NA,NA,NA,NA,NA,NA,NA,NA,NA,NA,NA,NA,NA,NA,NA,NA,NA,NA,NA
"224","stim/objects/Instruments/trumpet2.png",134,13,134,0.9,"stim/63.jpeg",6,3,3,NA,"Instruments",1,2,"left","left",0.555000067,1,1,1,1,NA,NA,NA,NA,NA,NA,NA,NA,NA,NA,NA,NA,NA,NA,NA,NA,NA,NA,NA,NA,NA,NA,NA,NA
"77","stim/objects/HouseObjects/sponge.png",135,13,135,0.5,"stim/24.jpeg",2,4,1,NA,"HouseObjects",2,2,"right","right",0.773999929,1,1,1,1,NA,NA,NA,NA,NA,NA,NA,NA,NA,NA,NA,NA,NA,NA,NA,NA,NA,NA,NA,NA,NA,NA,NA,NA
"72","stim/objects/HouseObjects/scale2.png",136,13,136,0.9,"stim/53.jpeg",5,3,3,NA,"HouseObjects",2,2,"right","right",0.642999887,1,1,1,1,NA,NA,NA,NA,NA,NA,NA,NA,NA,NA,NA,NA,NA,NA,NA,NA,NA,NA,NA,NA,NA,NA,NA,NA
"5","stim/objects/HouseObjects/recyclingbin.png",137,13,137,0.5,"stim/11.jpeg",1,1,1,NA,"HouseObjects",2,1,"right","left",0.734999895,0,0,1,1,NA,NA,NA,NA,NA,NA,NA,NA,NA,NA,NA,NA,NA,NA,NA,NA,NA,NA,NA,NA,NA,NA,NA,NA
"56","stim/objects/HouseObjects/saw2.png",138,13,138,0.9,"stim/52.jpeg",5,2,3,NA,"HouseObjects",2,2,"right","right",0.539999962,1,1,1,1,NA,NA,NA,NA,NA,NA,NA,NA,NA,NA,NA,NA,NA,NA,NA,NA,NA,NA,NA,NA,NA,NA,NA,NA
"117","stim/objects/HouseObjects/thread.png",139,13,139,0.7,"stim/34.jpeg",3,4,2,NA,"HouseObjects",2,4,"right","right",0.812000036,1,1,1,1,NA,NA,NA,NA,NA,NA,NA,NA,NA,NA,NA,NA,NA,NA,NA,NA,NA,NA,NA,NA,NA,NA,NA,NA
"85","stim/objects/HouseObjects/sponge2.png",140,13,140,0.9,"stim/54.jpeg",5,4,3,NA,"HouseObjects",2,2,"right","right",0.621999979,1,1,1,1,NA,NA,NA,NA,NA,NA,NA,NA,NA,NA,NA,NA,NA,NA,NA,NA,NA,NA,NA,NA,NA,NA,NA,NA
"127","stim/objects/Instruments/panflute2.png",141,13,141,0.7,"stim/41.jpeg",4,1,2,NA,"Instruments",1,1,"left","left",0.753999949,1,1,1,1,NA,NA,NA,NA,NA,NA,NA,NA,NA,NA,NA,NA,NA,NA,NA,NA,NA,NA,NA,NA,NA,NA,NA,NA
"57","stim/objects/HouseObjects/saw2.png",142,13,142,0.9,"stim/52.jpeg",5,2,3,NA,"HouseObjects",2,2,"right","right",0.536999941,1,1,1,1,NA,NA,NA,NA,NA,NA,NA,NA,NA,NA,NA,NA,NA,NA,NA,NA,NA,NA,NA,NA,NA,NA,NA,NA
"107","stim/objects/HouseObjects/thermometer.png",143,13,143,0.7,"stim/33.jpeg",3,3,2,NA,"HouseObjects",2,4,"right","right",0.588000059,1,1,1,1,NA,NA,NA,NA,NA,NA,NA,NA,NA,NA,NA,NA,NA,NA,NA,NA,NA,NA,NA,NA,NA,NA,NA,NA
"128","stim/objects/Instruments/panflute2.png",144,13,144,0.7,"stim/41.jpeg",4,1,2,NA,"Instruments",1,2,"left","right",0.646999836,0,0,1,1,NA,NA,NA,NA,NA,NA,NA,NA,NA,NA,NA,NA,NA,NA,NA,NA,NA,NA,NA,NA,NA,NA,NA,NA
"155","stim/objects/Instruments/record_player2.png",145,13,145,0.7,"stim/44.jpeg",4,4,2,NA,"Instruments",1,1,"left","left",0.836999893,1,1,1,1,NA,NA,NA,NA,NA,NA,NA,NA,NA,NA,NA,NA,NA,NA,NA,NA,NA,NA,NA,NA,NA,NA,NA,NA
"92","stim/objects/HouseObjects/spraybottle.png",146,13,146,0.7,"stim/31.jpeg",3,1,2,NA,"HouseObjects",2,3,"right","left",0.726000071,0,0,1,1,NA,NA,NA,NA,NA,NA,NA,NA,NA,NA,NA,NA,NA,NA,NA,NA,NA,NA,NA,NA,NA,NA,NA,NA
"108","stim/objects/HouseObjects/thermometer.png",147,13,147,0.7,"stim/33.jpeg",3,3,2,NA,"HouseObjects",2,4,"right","right",0.586999893,1,1,1,1,NA,NA,NA,NA,NA,NA,NA,NA,NA,NA,NA,NA,NA,NA,NA,NA,NA,NA,NA,NA,NA,NA,NA,NA
"63","stim/objects/HouseObjects/scale.png",148,13,148,0.5,"stim/23.jpeg",2,3,1,NA,"HouseObjects",2,1,"right","left",0.820999861,0,0,1,1,NA,NA,NA,NA,NA,NA,NA,NA,NA,NA,NA,NA,NA,NA,NA,NA,NA,NA,NA,NA,NA,NA,NA,NA
"41","stim/objects/HouseObjects/safetypin2.png",149,13,149,0.9,"stim/51.jpeg",5,1,3,NA,"HouseObjects",2,2,"right","right",0.558000088,1,1,1,1,NA,NA,NA,NA,NA,NA,NA,NA,NA,NA,NA,NA,NA,NA,NA,NA,NA,NA,NA,NA,NA,NA,NA,NA
"188","stim/objects/Instruments/timbal.png",150,13,150,0.5,"stim/24.jpeg",2,4,1,NA,"Instruments",1,3,"left","left",0.910000086,1,1,1,1,NA,NA,NA,NA,NA,NA,NA,NA,NA,NA,NA,NA,NA,NA,NA,NA,NA,NA,NA,NA,NA,NA,NA,NA
"86","stim/objects/HouseObjects/sponge2.png",151,13,151,0.9,"stim/54.jpeg",5,4,3,NA,"HouseObjects",2,3,"right","right",0.537999868,1,1,1,1,NA,NA,NA,NA,NA,NA,NA,NA,NA,NA,NA,NA,NA,NA,NA,NA,NA,NA,NA,NA,NA,NA,NA,NA
"148","stim/objects/Instruments/record_player.png",152,13,152,0.5,"stim/14.jpeg",1,4,1,NA,"Instruments",1,3,"left","right",0.59800005,0,0,1,1,NA,NA,NA,NA,NA,NA,NA,NA,NA,NA,NA,NA,NA,NA,NA,NA,NA,NA,NA,NA,NA,NA,NA,NA
"12","stim/objects/HouseObjects/remote.png",153,13,153,0.5,"stim/12.jpeg",1,2,1,NA,"HouseObjects",2,1,"right","right",0.729000092,1,1,1,1,NA,NA,NA,NA,NA,NA,NA,NA,NA,NA,NA,NA,NA,NA,NA,NA,NA,NA,NA,NA,NA,NA,NA,NA
"64","stim/objects/HouseObjects/scale.png",154,13,154,0.5,"stim/23.jpeg",2,3,1,NA,"HouseObjects",2,4,"right","left",0.884000063,0,0,1,1,NA,NA,NA,NA,NA,NA,NA,NA,NA,NA,NA,NA,NA,NA,NA,NA,NA,NA,NA,NA,NA,NA,NA,NA
"135","stim/objects/Instruments/pipepiano.png",155,13,155,0.5,"stim/12.jpeg",1,2,1,NA,"Instruments",1,4,"left","right",0.671000004,0,0,1,1,NA,NA,NA,NA,NA,NA,NA,NA,NA,NA,NA,NA,NA,NA,NA,NA,NA,NA,NA,NA,NA,NA,NA,NA
"87","stim/objects/HouseObjects/sponge2.png",156,13,156,0.9,"stim/54.jpeg",5,4,3,NA,"HouseObjects",2,2,"right","right",0.588000059,1,1,1,1,NA,NA,NA,NA,NA,NA,NA,NA,NA,NA,NA,NA,NA,NA,NA,NA,NA,NA,NA,NA,NA,NA,NA,NA
"42","stim/objects/HouseObjects/safetypin2.png",157,13,157,0.9,"stim/51.jpeg",5,1,3,NA,"HouseObjects",2,4,"right","right",0.597000122,1,1,1,1,NA,NA,NA,NA,NA,NA,NA,NA,NA,NA,NA,NA,NA,NA,NA,NA,NA,NA,NA,NA,NA,NA,NA,NA
"123","stim/objects/Instruments/panflute.png",158,13,158,0.5,"stim/11.jpeg",1,1,1,NA,"Instruments",1,4,"left","",NA,0,0,1,1,NA,NA,NA,NA,NA,NA,NA,NA,NA,NA,NA,NA,NA,NA,NA,NA,NA,NA,NA,NA,NA,NA,NA,NA
"93","stim/objects/HouseObjects/spraybottle.png",159,13,159,0.7,"stim/31.jpeg",3,1,2,NA,"HouseObjects",2,4,"right","right",0.823999882,1,1,1,1,NA,NA,NA,NA,NA,NA,NA,NA,NA,NA,NA,NA,NA,NA,NA,NA,NA,NA,NA,NA,NA,NA,NA,NA
"225","stim/objects/Instruments/trumpet2.png",160,13,160,0.9,"stim/63.jpeg",6,3,3,NA,"Instruments",1,4,"left","left",0.856000185,1,1,1,1,NA,NA,NA,NA,NA,NA,NA,NA,NA,NA,NA,NA,NA,NA,NA,NA,NA,NA,NA,NA,NA,NA,NA,NA
"58","stim/objects/HouseObjects/saw2.png",161,13,161,0.9,"stim/52.jpeg",5,2,3,NA,"HouseObjects",2,3,"right","right",0.645999908,1,1,1,1,NA,NA,NA,NA,NA,NA,NA,NA,NA,NA,NA,NA,NA,NA,NA,NA,NA,NA,NA,NA,NA,NA,NA,NA
"27","stim/objects/HouseObjects/rug.png",162,13,162,0.5,"stim/14.jpeg",1,4,1,NA,"HouseObjects",2,4,"right","right",0.51699996,1,1,1,1,NA,NA,NA,NA,NA,NA,NA,NA,NA,NA,NA,NA,NA,NA,NA,NA,NA,NA,NA,NA,NA,NA,NA,NA
"49","stim/objects/HouseObjects/saw.png",163,13,163,0.5,"stim/22.jpeg",2,2,1,NA,"HouseObjects",2,2,"right","right",0.769000053,1,1,1,1,NA,NA,NA,NA,NA,NA,NA,NA,NA,NA,NA,NA,NA,NA,NA,NA,NA,NA,NA,NA,NA,NA,NA,NA
"109","stim/objects/HouseObjects/thermometer.png",164,13,164,0.7,"stim/33.jpeg",3,3,2,NA,"HouseObjects",2,2,"right","right",0.645999908,1,1,1,1,NA,NA,NA,NA,NA,NA,NA,NA,NA,NA,NA,NA,NA,NA,NA,NA,NA,NA,NA,NA,NA,NA,NA,NA
"129","stim/objects/Instruments/panflute2.png",165,13,165,0.7,"stim/41.jpeg",4,1,2,NA,"Instruments",1,1,"left","left",0.713999987,1,1,1,1,NA,NA,NA,NA,NA,NA,NA,NA,NA,NA,NA,NA,NA,NA,NA,NA,NA,NA,NA,NA,NA,NA,NA,NA
"102","stim/objects/HouseObjects/teapot.png",166,13,166,0.7,"stim/32.jpeg",3,2,2,NA,"HouseObjects",2,1,"right","right",0.828999996,1,1,1,1,NA,NA,NA,NA,NA,NA,NA,NA,NA,NA,NA,NA,NA,NA,NA,NA,NA,NA,NA,NA,NA,NA,NA,NA
"43","stim/objects/HouseObjects/safetypin2.png",167,13,167,0.9,"stim/51.jpeg",5,1,3,NA,"HouseObjects",2,4,"right","right",0.833999872,1,1,1,1,NA,NA,NA,NA,NA,NA,NA,NA,NA,NA,NA,NA,NA,NA,NA,NA,NA,NA,NA,NA,NA,NA,NA,NA
"194","stim/objects/Instruments/triangle.png",168,13,168,0.3,"stim/31.jpeg",3,1,2,NA,"Instruments",1,2,"left","right",0.544000149,0,0,1,1,NA,NA,NA,NA,NA,NA,NA,NA,NA,NA,NA,NA,NA,NA,NA,NA,NA,NA,NA,NA,NA,NA,NA,NA
"212","stim/objects/Instruments/trombone2.png",169,13,169,0.9,"stim/62.jpeg",6,2,3,NA,"Instruments",1,1,"left","left",0.506000042,1,1,1,1,NA,NA,NA,NA,NA,NA,NA,NA,NA,NA,NA,NA,NA,NA,NA,NA,NA,NA,NA,NA,NA,NA,NA,NA
"189","stim/objects/Instruments/timbal.png",170,13,170,0.5,"stim/24.jpeg",2,4,1,NA,"Instruments",1,2,"left","left",0.739000082,1,1,1,1,NA,NA,NA,NA,NA,NA,NA,NA,NA,NA,NA,NA,NA,NA,NA,NA,NA,NA,NA,NA,NA,NA,NA,NA
"237","stim/objects/Instruments/tuba2.png",171,13,171,0.9,"stim/64.jpeg",6,4,3,NA,"Instruments",1,2,"left","left",0.624000072,1,1,1,1,NA,NA,NA,NA,NA,NA,NA,NA,NA,NA,NA,NA,NA,NA,NA,NA,NA,NA,NA,NA,NA,NA,NA,NA
"144","stim/objects/Instruments/pipepiano2.png",172,13,172,0.7,"stim/42.jpeg",4,2,2,NA,"Instruments",1,4,"left","left",0.686000109,1,1,1,1,NA,NA,NA,NA,NA,NA,NA,NA,NA,NA,NA,NA,NA,NA,NA,NA,NA,NA,NA,NA,NA,NA,NA,NA
"44","stim/objects/HouseObjects/safetypin2.png",173,13,173,0.9,"stim/51.jpeg",5,1,3,NA,"HouseObjects",2,3,"right","right",0.626000166,1,1,1,1,NA,NA,NA,NA,NA,NA,NA,NA,NA,NA,NA,NA,NA,NA,NA,NA,NA,NA,NA,NA,NA,NA,NA,NA
"190","stim/objects/Instruments/timbal.png",174,13,174,0.5,"stim/24.jpeg",2,4,1,NA,"Instruments",1,3,"left","left",0.679999828,1,1,1,1,NA,NA,NA,NA,NA,NA,NA,NA,NA,NA,NA,NA,NA,NA,NA,NA,NA,NA,NA,NA,NA,NA,NA,NA
"118","stim/objects/HouseObjects/thread.png",175,13,175,0.7,"stim/34.jpeg",3,4,2,NA,"HouseObjects",2,2,"right","right",0.649999857,1,1,1,1,NA,NA,NA,NA,NA,NA,NA,NA,NA,NA,NA,NA,NA,NA,NA,NA,NA,NA,NA,NA,NA,NA,NA,NA
"130","stim/objects/Instruments/panflute2.png",176,13,176,0.7,"stim/41.jpeg",4,1,2,NA,"Instruments",1,1,"left","left",0.68200016,1,1,1,1,NA,NA,NA,NA,NA,NA,NA,NA,NA,NA,NA,NA,NA,NA,NA,NA,NA,NA,NA,NA,NA,NA,NA,NA
"16","stim/objects/HouseObjects/remote2.png",177,13,177,0.3,"stim/42.jpeg",4,2,2,NA,"HouseObjects",2,3,"right","left",0.660000086,0,0,1,1,NA,NA,NA,NA,NA,NA,NA,NA,NA,NA,NA,NA,NA,NA,NA,NA,NA,NA,NA,NA,NA,NA,NA,NA
"78","stim/objects/HouseObjects/sponge.png",178,13,178,0.5,"stim/24.jpeg",2,4,1,NA,"HouseObjects",2,2,"right","left",0.67200017,0,0,1,1,NA,NA,NA,NA,NA,NA,NA,NA,NA,NA,NA,NA,NA,NA,NA,NA,NA,NA,NA,NA,NA,NA,NA,NA
"186","stim/objects/Instruments/tambourine2.png",179,13,179,0.1,"stim/53.jpeg",5,3,3,NA,"Instruments",1,4,"left","right",0.674999952,0,0,1,1,NA,NA,NA,NA,NA,NA,NA,NA,NA,NA,NA,NA,NA,NA,NA,NA,NA,NA,NA,NA,NA,NA,NA,NA
"124","stim/objects/Instruments/panflute.png",180,13,180,0.5,"stim/11.jpeg",1,1,1,NA,"Instruments",1,1,"left","",NA,0,0,1,1,NA,NA,NA,NA,NA,NA,NA,NA,NA,NA,NA,NA,NA,NA,NA,NA,NA,NA,NA,NA,NA,NA,NA,NA
"238","stim/objects/Instruments/tuba2.png",181,13,181,0.9,"stim/64.jpeg",6,4,3,NA,"Instruments",1,3,"left","left",0.480000019,1,1,1,1,NA,NA,NA,NA,NA,NA,NA,NA,NA,NA,NA,NA,NA,NA,NA,NA,NA,NA,NA,NA,NA,NA,NA,NA
"160","stim/objects/Instruments/record.png",182,13,182,0.5,"stim/13.jpeg",1,3,1,NA,"Instruments",1,1,"left","left",0.703999996,1,1,1,1,NA,NA,NA,NA,NA,NA,NA,NA,NA,NA,NA,NA,NA,NA,NA,NA,NA,NA,NA,NA,NA,NA,NA,NA
"45","stim/objects/HouseObjects/safetypin2.png",183,13,183,0.9,"stim/51.jpeg",5,1,3,NA,"HouseObjects",2,4,"right","right",0.457999945,1,1,1,1,NA,NA,NA,NA,NA,NA,NA,NA,NA,NA,NA,NA,NA,NA,NA,NA,NA,NA,NA,NA,NA,NA,NA,NA
"119","stim/objects/HouseObjects/thread.png",184,13,184,0.7,"stim/34.jpeg",3,4,2,NA,"HouseObjects",2,4,"right","",NA,0,0,1,1,NA,NA,NA,NA,NA,NA,NA,NA,NA,NA,NA,NA,NA,NA,NA,NA,NA,NA,NA,NA,NA,NA,NA,NA
"202","stim/objects/Instruments/triangle2.png",185,13,185,0.9,"stim/61.jpeg",6,1,3,NA,"Instruments",1,4,"left","left",0.638999939,1,1,1,1,NA,NA,NA,NA,NA,NA,NA,NA,NA,NA,NA,NA,NA,NA,NA,NA,NA,NA,NA,NA,NA,NA,NA,NA
"36","stim/objects/HouseObjects/safetypin.png",186,13,186,0.5,"stim/21.jpeg",2,1,1,NA,"HouseObjects",2,4,"right","right",0.720999956,1,1,1,1,NA,NA,NA,NA,NA,NA,NA,NA,NA,NA,NA,NA,NA,NA,NA,NA,NA,NA,NA,NA,NA,NA,NA,NA
"24","stim/objects/HouseObjects/rubbergloves2.png",187,13,187,0.3,"stim/43.jpeg",4,3,2,NA,"HouseObjects",2,3,"right","left",0.618999958,0,0,1,1,NA,NA,NA,NA,NA,NA,NA,NA,NA,NA,NA,NA,NA,NA,NA,NA,NA,NA,NA,NA,NA,NA,NA,NA
"203","stim/objects/Instruments/triangle2.png",188,13,188,0.9,"stim/61.jpeg",6,1,3,NA,"Instruments",1,2,"left","left",0.657000065,1,1,1,1,NA,NA,NA,NA,NA,NA,NA,NA,NA,NA,NA,NA,NA,NA,NA,NA,NA,NA,NA,NA,NA,NA,NA,NA
"191","stim/objects/Instruments/timbal.png",189,13,189,0.5,"stim/24.jpeg",2,4,1,NA,"Instruments",1,4,"left","right",0.556999922,0,0,1,1,NA,NA,NA,NA,NA,NA,NA,NA,NA,NA,NA,NA,NA,NA,NA,NA,NA,NA,NA,NA,NA,NA,NA,NA
"59","stim/objects/HouseObjects/saw2.png",190,13,190,0.9,"stim/52.jpeg",5,2,3,NA,"HouseObjects",2,3,"right","right",0.515000105,1,1,1,1,NA,NA,NA,NA,NA,NA,NA,NA,NA,NA,NA,NA,NA,NA,NA,NA,NA,NA,NA,NA,NA,NA,NA,NA
"213","stim/objects/Instruments/trombone2.png",191,13,191,0.9,"stim/62.jpeg",6,2,3,NA,"Instruments",1,4,"left","left",0.572000027,1,1,1,1,NA,NA,NA,NA,NA,NA,NA,NA,NA,NA,NA,NA,NA,NA,NA,NA,NA,NA,NA,NA,NA,NA,NA,NA
"60","stim/objects/HouseObjects/saw2.png",192,13,192,0.9,"stim/52.jpeg",5,2,3,NA,"HouseObjects",2,2,"right","right",0.606999874,1,1,1,1,NA,NA,NA,NA,NA,NA,NA,NA,NA,NA,NA,NA,NA,NA,NA,NA,NA,NA,NA,NA,NA,NA,NA,NA
"177","stim/objects/Instruments/speaker.png",193,13,193,0.5,"stim/22.jpeg",2,2,1,NA,"Instruments",1,3,"left","left",0.823999882,1,1,1,1,NA,NA,NA,NA,NA,NA,NA,NA,NA,NA,NA,NA,NA,NA,NA,NA,NA,NA,NA,NA,NA,NA,NA,NA
"166","stim/objects/Instruments/record2.png",194,13,194,0.7,"stim/43.jpeg",4,3,2,NA,"Instruments",1,4,"left","left",0.625,1,1,1,1,NA,NA,NA,NA,NA,NA,NA,NA,NA,NA,NA,NA,NA,NA,NA,NA,NA,NA,NA,NA,NA,NA,NA,NA
"161","stim/objects/Instruments/record.png",195,13,195,0.5,"stim/13.jpeg",1,3,1,NA,"Instruments",1,3,"left","left",0.855999947,1,1,1,1,NA,NA,NA,NA,NA,NA,NA,NA,NA,NA,NA,NA,NA,NA,NA,NA,NA,NA,NA,NA,NA,NA,NA,NA
"8","stim/objects/HouseObjects/recyclingbin2.png",196,13,196,0.3,"stim/41.jpeg",4,1,2,NA,"HouseObjects",2,3,"right","left",0.861999989,0,0,1,1,NA,NA,NA,NA,NA,NA,NA,NA,NA,NA,NA,NA,NA,NA,NA,NA,NA,NA,NA,NA,NA,NA,NA,NA
"178","stim/objects/Instruments/speaker.png",197,13,197,0.5,"stim/22.jpeg",2,2,1,NA,"Instruments",1,4,"left","right",0.847999811,0,0,1,1,NA,NA,NA,NA,NA,NA,NA,NA,NA,NA,NA,NA,NA,NA,NA,NA,NA,NA,NA,NA,NA,NA,NA,NA
"94","stim/objects/HouseObjects/spraybottle.png",198,13,198,0.7,"stim/31.jpeg",3,1,2,NA,"HouseObjects",2,3,"right","right",0.854999781,1,1,1,1,NA,NA,NA,NA,NA,NA,NA,NA,NA,NA,NA,NA,NA,NA,NA,NA,NA,NA,NA,NA,NA,NA,NA,NA
"226","stim/objects/Instruments/trumpet2.png",199,13,199,0.9,"stim/63.jpeg",6,3,3,NA,"Instruments",1,2,"left","left",0.587000132,1,1,1,1,NA,NA,NA,NA,NA,NA,NA,NA,NA,NA,NA,NA,NA,NA,NA,NA,NA,NA,NA,NA,NA,NA,NA,NA
"79","stim/objects/HouseObjects/sponge.png",200,13,200,0.5,"stim/24.jpeg",2,4,1,NA,"HouseObjects",2,2,"right","right",0.789000034,1,1,1,1,NA,NA,NA,NA,NA,NA,NA,NA,NA,NA,NA,NA,NA,NA,NA,NA,NA,NA,NA,NA,NA,NA,NA,NA
"103","stim/objects/HouseObjects/teapot.png",201,13,201,0.7,"stim/32.jpeg",3,2,2,NA,"HouseObjects",2,1,"right","right",0.721999884,1,1,1,1,NA,NA,NA,NA,NA,NA,NA,NA,NA,NA,NA,NA,NA,NA,NA,NA,NA,NA,NA,NA,NA,NA,NA,NA
"149","stim/objects/Instruments/record_player.png",202,13,202,0.5,"stim/14.jpeg",1,4,1,NA,"Instruments",1,4,"left","left",0.856999874,1,1,1,1,NA,NA,NA,NA,NA,NA,NA,NA,NA,NA,NA,NA,NA,NA,NA,NA,NA,NA,NA,NA,NA,NA,NA,NA
"95","stim/objects/HouseObjects/spraybottle.png",203,13,203,0.7,"stim/31.jpeg",3,1,2,NA,"HouseObjects",2,2,"right","right",0.72300005,1,1,1,1,NA,NA,NA,NA,NA,NA,NA,NA,NA,NA,NA,NA,NA,NA,NA,NA,NA,NA,NA,NA,NA,NA,NA,NA
"88","stim/objects/HouseObjects/sponge2.png",204,13,204,0.9,"stim/54.jpeg",5,4,3,NA,"HouseObjects",2,3,"right","right",0.670000076,1,1,1,1,NA,NA,NA,NA,NA,NA,NA,NA,NA,NA,NA,NA,NA,NA,NA,NA,NA,NA,NA,NA,NA,NA,NA,NA
"239","stim/objects/Instruments/tuba2.png",205,13,205,0.9,"stim/64.jpeg",6,4,3,NA,"Instruments",1,3,"left","left",0.656000137,1,1,1,1,NA,NA,NA,NA,NA,NA,NA,NA,NA,NA,NA,NA,NA,NA,NA,NA,NA,NA,NA,NA,NA,NA,NA,NA
"50","stim/objects/HouseObjects/saw.png",206,13,206,0.5,"stim/22.jpeg",2,2,1,NA,"HouseObjects",2,1,"right","left",0.808999777,0,0,1,1,NA,NA,NA,NA,NA,NA,NA,NA,NA,NA,NA,NA,NA,NA,NA,NA,NA,NA,NA,NA,NA,NA,NA,NA
"227","stim/objects/Instruments/trumpet2.png",207,13,207,0.9,"stim/63.jpeg",6,3,3,NA,"Instruments",1,3,"left","left",0.629999876,1,1,1,1,NA,NA,NA,NA,NA,NA,NA,NA,NA,NA,NA,NA,NA,NA,NA,NA,NA,NA,NA,NA,NA,NA,NA,NA
"110","stim/objects/HouseObjects/thermometer.png",208,13,208,0.7,"stim/33.jpeg",3,3,2,NA,"HouseObjects",2,2,"right","right",0.677000046,1,1,1,1,NA,NA,NA,NA,NA,NA,NA,NA,NA,NA,NA,NA,NA,NA,NA,NA,NA,NA,NA,NA,NA,NA,NA,NA
"21","stim/objects/HouseObjects/rubbergloves.png",209,13,209,0.5,"stim/13.jpeg",1,3,1,NA,"HouseObjects",2,3,"right","left",0.809000015,0,0,1,1,NA,NA,NA,NA,NA,NA,NA,NA,NA,NA,NA,NA,NA,NA,NA,NA,NA,NA,NA,NA,NA,NA,NA,NA
"136","stim/objects/Instruments/pipepiano.png",210,13,210,0.5,"stim/12.jpeg",1,2,1,NA,"Instruments",1,3,"left","right",0.739000082,0,0,1,1,NA,NA,NA,NA,NA,NA,NA,NA,NA,NA,NA,NA,NA,NA,NA,NA,NA,NA,NA,NA,NA,NA,NA,NA
"173","stim/objects/Instruments/saxophone.png",211,13,211,0.5,"stim/21.jpeg",2,1,1,NA,"Instruments",1,3,"left","",NA,0,0,1,1,NA,NA,NA,NA,NA,NA,NA,NA,NA,NA,NA,NA,NA,NA,NA,NA,NA,NA,NA,NA,NA,NA,NA,NA
"13","stim/objects/HouseObjects/remote.png",212,13,212,0.5,"stim/12.jpeg",1,2,1,NA,"HouseObjects",2,2,"right","right",0.728999853,1,1,1,1,NA,NA,NA,NA,NA,NA,NA,NA,NA,NA,NA,NA,NA,NA,NA,NA,NA,NA,NA,NA,NA,NA,NA,NA
"111","stim/objects/HouseObjects/thermometer.png",213,13,213,0.7,"stim/33.jpeg",3,3,2,NA,"HouseObjects",2,1,"right","right",0.656000137,1,1,1,1,NA,NA,NA,NA,NA,NA,NA,NA,NA,NA,NA,NA,NA,NA,NA,NA,NA,NA,NA,NA,NA,NA,NA,NA
"214","stim/objects/Instruments/trombone2.png",214,13,214,0.9,"stim/62.jpeg",6,2,3,NA,"Instruments",1,1,"left","left",0.568000078,1,1,1,1,NA,NA,NA,NA,NA,NA,NA,NA,NA,NA,NA,NA,NA,NA,NA,NA,NA,NA,NA,NA,NA,NA,NA,NA
"192","stim/objects/Instruments/timbal2.png",215,13,215,0.1,"stim/54.jpeg",5,4,3,NA,"Instruments",1,1,"left","right",0.601999998,0,0,1,1,NA,NA,NA,NA,NA,NA,NA,NA,NA,NA,NA,NA,NA,NA,NA,NA,NA,NA,NA,NA,NA,NA,NA,NA
"125","stim/objects/Instruments/panflute.png",216,13,216,0.5,"stim/11.jpeg",1,1,1,NA,"Instruments",1,2,"left","right",0.619999886,0,0,1,1,NA,NA,NA,NA,NA,NA,NA,NA,NA,NA,NA,NA,NA,NA,NA,NA,NA,NA,NA,NA,NA,NA,NA,NA
"73","stim/objects/HouseObjects/scale2.png",217,13,217,0.9,"stim/53.jpeg",5,3,3,NA,"HouseObjects",2,1,"right","right",0.653000116,1,1,1,1,NA,NA,NA,NA,NA,NA,NA,NA,NA,NA,NA,NA,NA,NA,NA,NA,NA,NA,NA,NA,NA,NA,NA,NA
"185","stim/objects/Instruments/tambourine.png",218,13,218,0.5,"stim/23.jpeg",2,3,1,NA,"Instruments",1,4,"left","left",0.672999859,1,1,1,1,NA,NA,NA,NA,NA,NA,NA,NA,NA,NA,NA,NA,NA,NA,NA,NA,NA,NA,NA,NA,NA,NA,NA,NA
"28","stim/objects/HouseObjects/rug.png",219,13,219,0.5,"stim/14.jpeg",1,4,1,NA,"HouseObjects",2,3,"right","left",0.657000065,0,0,1,1,NA,NA,NA,NA,NA,NA,NA,NA,NA,NA,NA,NA,NA,NA,NA,NA,NA,NA,NA,NA,NA,NA,NA,NA
"240","stim/objects/Instruments/tuba2.png",220,13,220,0.9,"stim/64.jpeg",6,4,3,NA,"Instruments",1,4,"left","left",0.607000113,1,1,1,1,NA,NA,NA,NA,NA,NA,NA,NA,NA,NA,NA,NA,NA,NA,NA,NA,NA,NA,NA,NA,NA,NA,NA,NA
"228","stim/objects/Instruments/trumpet2.png",221,13,221,0.9,"stim/63.jpeg",6,3,3,NA,"Instruments",1,3,"left","left",0.601000071,1,1,1,1,NA,NA,NA,NA,NA,NA,NA,NA,NA,NA,NA,NA,NA,NA,NA,NA,NA,NA,NA,NA,NA,NA,NA,NA
"215","stim/objects/Instruments/trombone2.png",222,13,222,0.9,"stim/62.jpeg",6,2,3,NA,"Instruments",1,1,"left","left",0.493999958,1,1,1,1,NA,NA,NA,NA,NA,NA,NA,NA,NA,NA,NA,NA,NA,NA,NA,NA,NA,NA,NA,NA,NA,NA,NA,NA
"167","stim/objects/Instruments/record2.png",223,13,223,0.7,"stim/43.jpeg",4,3,2,NA,"Instruments",1,1,"left","right",0.68200016,0,0,1,1,NA,NA,NA,NA,NA,NA,NA,NA,NA,NA,NA,NA,NA,NA,NA,NA,NA,NA,NA,NA,NA,NA,NA,NA
"179","stim/objects/Instruments/speaker.png",224,13,224,0.5,"stim/22.jpeg",2,2,1,NA,"Instruments",1,4,"left","right",0.668000221,0,0,1,1,NA,NA,NA,NA,NA,NA,NA,NA,NA,NA,NA,NA,NA,NA,NA,NA,NA,NA,NA,NA,NA,NA,NA,NA
"216","stim/objects/Instruments/trombone2.png",225,13,225,0.9,"stim/62.jpeg",6,2,3,NA,"Instruments",1,1,"left","left",0.595999956,1,1,1,1,NA,NA,NA,NA,NA,NA,NA,NA,NA,NA,NA,NA,NA,NA,NA,NA,NA,NA,NA,NA,NA,NA,NA,NA
"137","stim/objects/Instruments/pipepiano.png",226,13,226,0.5,"stim/12.jpeg",1,2,1,NA,"Instruments",1,2,"left","right",0.575999975,0,0,1,1,NA,NA,NA,NA,NA,NA,NA,NA,NA,NA,NA,NA,NA,NA,NA,NA,NA,NA,NA,NA,NA,NA,NA,NA
"46","stim/objects/HouseObjects/safetypin2.png",227,13,227,0.9,"stim/51.jpeg",5,1,3,NA,"HouseObjects",2,3,"right","right",0.630000114,1,1,1,1,NA,NA,NA,NA,NA,NA,NA,NA,NA,NA,NA,NA,NA,NA,NA,NA,NA,NA,NA,NA,NA,NA,NA,NA
"168","stim/objects/Instruments/record2.png",228,13,228,0.7,"stim/43.jpeg",4,3,2,NA,"Instruments",1,3,"left","left",0.58100009,1,1,1,1,NA,NA,NA,NA,NA,NA,NA,NA,NA,NA,NA,NA,NA,NA,NA,NA,NA,NA,NA,NA,NA,NA,NA,NA
"195","stim/objects/Instruments/triangle.png",229,13,229,0.3,"stim/31.jpeg",3,1,2,NA,"Instruments",1,2,"left","left",0.713999987,1,1,1,1,NA,NA,NA,NA,NA,NA,NA,NA,NA,NA,NA,NA,NA,NA,NA,NA,NA,NA,NA,NA,NA,NA,NA,NA
"74","stim/objects/HouseObjects/scale2.png",230,13,230,0.9,"stim/53.jpeg",5,3,3,NA,"HouseObjects",2,1,"right","right",0.576999903,1,1,1,1,NA,NA,NA,NA,NA,NA,NA,NA,NA,NA,NA,NA,NA,NA,NA,NA,NA,NA,NA,NA,NA,NA,NA,NA
"29","stim/objects/HouseObjects/rug.png",231,13,231,0.5,"stim/14.jpeg",1,4,1,NA,"HouseObjects",2,2,"right","right",0.769000053,1,1,1,1,NA,NA,NA,NA,NA,NA,NA,NA,NA,NA,NA,NA,NA,NA,NA,NA,NA,NA,NA,NA,NA,NA,NA,NA
"37","stim/objects/HouseObjects/safetypin.png",232,13,232,0.5,"stim/21.jpeg",2,1,1,NA,"HouseObjects",2,3,"right","left",0.703000069,0,0,1,1,NA,NA,NA,NA,NA,NA,NA,NA,NA,NA,NA,NA,NA,NA,NA,NA,NA,NA,NA,NA,NA,NA,NA,NA
"231","stim/objects/Instruments/tuba.png",233,13,233,0.3,"stim/34.jpeg",3,4,2,NA,"Instruments",1,3,"left","right",0.707999945,0,0,1,1,NA,NA,NA,NA,NA,NA,NA,NA,NA,NA,NA,NA,NA,NA,NA,NA,NA,NA,NA,NA,NA,NA,NA,NA
"131","stim/objects/Instruments/panflute2.png",234,13,234,0.7,"stim/41.jpeg",4,1,2,NA,"Instruments",1,3,"left","left",0.68599987,1,1,1,1,NA,NA,NA,NA,NA,NA,NA,NA,NA,NA,NA,NA,NA,NA,NA,NA,NA,NA,NA,NA,NA,NA,NA,NA
"156","stim/objects/Instruments/record_player2.png",235,13,235,0.7,"stim/44.jpeg",4,4,2,NA,"Instruments",1,1,"left","left",0.840999842,1,1,1,1,NA,NA,NA,NA,NA,NA,NA,NA,NA,NA,NA,NA,NA,NA,NA,NA,NA,NA,NA,NA,NA,NA,NA,NA
"65","stim/objects/HouseObjects/scale.png",236,13,236,0.5,"stim/23.jpeg",2,3,1,NA,"HouseObjects",2,4,"right","right",0.722000122,1,1,1,1,NA,NA,NA,NA,NA,NA,NA,NA,NA,NA,NA,NA,NA,NA,NA,NA,NA,NA,NA,NA,NA,NA,NA,NA
"51","stim/objects/HouseObjects/saw.png",237,13,237,0.5,"stim/22.jpeg",2,2,1,NA,"HouseObjects",2,1,"right","right",0.598999977,1,1,1,1,NA,NA,NA,NA,NA,NA,NA,NA,NA,NA,NA,NA,NA,NA,NA,NA,NA,NA,NA,NA,NA,NA,NA,NA
"132","stim/objects/Instruments/panflute2.png",238,13,238,0.7,"stim/41.jpeg",4,1,2,NA,"Instruments",1,2,"left","left",0.672999859,1,1,1,1,NA,NA,NA,NA,NA,NA,NA,NA,NA,NA,NA,NA,NA,NA,NA,NA,NA,NA,NA,NA,NA,NA,NA,NA
"204","stim/objects/Instruments/triangle2.png",239,13,239,0.9,"stim/61.jpeg",6,1,3,NA,"Instruments",1,2,"left","left",0.552999973,1,1,1,1,NA,NA,NA,NA,NA,NA,NA,NA,NA,NA,NA,NA,NA,NA,NA,NA,NA,NA,NA,NA,NA,NA,NA,NA
"207","stim/objects/Instruments/trombone.png",240,13,240,0.3,"stim/32.jpeg",3,2,2,NA,"Instruments",1,2,"left","right",0.559000015,0,0,1,1,NA,NA,NA,NA,NA,NA,NA,NA,NA,NA,NA,NA,NA,NA,NA,NA,NA,NA,NA,NA,NA,NA,NA,NA
"417","stim/objects/Instruments/banjo4.png",248,13,241,0.3,"stim/31.jpeg",3,1,2,1,"Instruments",1,3,"left","",NA,0,0,1,0,156,13,1,0.3,1,"stim/31.jpeg",3,1,"stim/31.jpeg",3,"left",1.00999999,4,2,1.244999886,3,1.167999983,156,1,0,0,1,1,1
"359","stim/objects/HouseObjects/glass3.png",249,13,242,0.9,"stim/51.jpeg",5,1,3,2,"HouseObjects",2,1,"right","right",0.827000141,1,1,1,0,NA,NA,NA,NA,NA,NA,NA,NA,NA,NA,NA,NA,NA,NA,NA,NA,NA,NA,NA,NA,NA,NA,NA,NA
"432","stim/objects/Instruments/clarinet4.png",250,13,243,0.7,"stim/43.jpeg",4,3,2,1,"Instruments",1,3,"left","left",0.621999979,1,1,1,0,194,13,1,0.7,1,"stim/43.jpeg",4,3,"stim/43.jpeg",3,"right",0.964999914,1,4,13.9000001,3,1.544999838,194,0,0,NA,1,NA,1
"508","stim/objects/Instruments/gong3.png",251,13,244,0.9,"stim/61.jpeg",6,1,3,2,"Instruments",1,4,"left","left",0.553999901,1,1,1,0,NA,NA,NA,NA,NA,NA,NA,NA,NA,NA,NA,NA,NA,NA,NA,NA,NA,NA,NA,NA,NA,NA,NA,NA
"342","stim/objects/HouseObjects/garbagebin3.png",252,13,245,0.9,"stim/54.jpeg",5,4,3,2,"HouseObjects",2,2,"right","right",0.508999825,1,1,1,0,NA,NA,NA,NA,NA,NA,NA,NA,NA,NA,NA,NA,NA,NA,NA,NA,NA,NA,NA,NA,NA,NA,NA,NA
"456","stim/objects/Instruments/flute3.png",253,13,246,0.9,"stim/64.jpeg",6,4,3,2,"Instruments",1,4,"left","left",0.506999969,1,1,1,0,NA,NA,NA,NA,NA,NA,NA,NA,NA,NA,NA,NA,NA,NA,NA,NA,NA,NA,NA,NA,NA,NA,NA,NA
"392","stim/objects/HouseObjects/lintroller3.png",254,13,247,0.5,"stim/23.jpeg",2,3,1,1,"HouseObjects",2,3,"right","left",0.657999992,0,0,1,0,175,13,1,0.5,2,"stim/23.jpeg",2,3,"stim/23.jpeg",3,"left",19.81699991,4,3,0.874000072,1,1.197999954,175,1,1,1,0,0,1
"566","stim/objects/Instruments/violin4.png",255,13,248,0.9,"stim/64.jpeg",6,4,3,1,"Instruments",1,3,"left","left",0.646000147,1,1,1,0,71,13,1,0.9,1,"stim/64.jpeg",6,4,"stim/64.jpeg",3,"left",0.944000006,4,4,1.340999842,2,1.899000168,71,1,1,1,0,0,1
"360","stim/objects/HouseObjects/glass3.png",256,13,249,0.9,"stim/54.jpeg",5,4,3,2,"HouseObjects",2,1,"right","right",0.593999863,1,1,1,0,NA,NA,NA,NA,NA,NA,NA,NA,NA,NA,NA,NA,NA,NA,NA,NA,NA,NA,NA,NA,NA,NA,NA,NA
"440","stim/objects/Instruments/doublebass3.png",257,13,250,0.7,"stim/44.jpeg",4,4,2,2,"Instruments",1,2,"left","left",0.692000151,1,1,1,0,NA,NA,NA,NA,NA,NA,NA,NA,NA,NA,NA,NA,NA,NA,NA,NA,NA,NA,NA,NA,NA,NA,NA,NA
"559","stim/objects/Instruments/musicsheet3.png",258,13,251,0.5,"stim/21.jpeg",2,1,1,1,"Instruments",1,1,"left","left",0.623000145,1,1,1,0,183,13,1,0.5,2,"stim/21.jpeg",2,1,"stim/21.jpeg",1,"left",1.570999861,4,1,1.194999933,1,1.447999954,183,1,1,1,1,1,1
"568","stim/objects/Instruments/vuvuzela4.png",259,13,252,0.9,"stim/61.jpeg",6,1,3,1,"Instruments",1,4,"left","left",0.629999876,1,1,1,0,116,13,1,0.9,1,"stim/61.jpeg",6,1,"stim/61.jpeg",4,"right",0.895999908,2,2,1.097000122,3,0.741000175,116,0,0,NA,0,NA,1
"548","stim/objects/Instruments/hihat4.png",260,13,253,0.1,"stim/51.jpeg",5,1,3,1,"Instruments",1,2,"left","right",0.787999868,0,0,1,0,29,13,1,0.1,1,"stim/51.jpeg",5,1,"stim/51.jpeg",2,"left",13.94400001,4,3,4.119000196,1,1.652999878,29,1,0,0,0,0,1
"358","stim/objects/HouseObjects/garbagebin4.png",261,13,254,0.9,"stim/52.jpeg",5,2,3,1,"HouseObjects",2,1,"right","right",0.641000032,1,1,1,0,35,13,1,0.9,2,"stim/52.jpeg",5,2,"stim/52.jpeg",1,"right",2.118999958,1,2,4.179000139,2,2.0400002,35,0,1,NA,0,NA,1
"379","stim/objects/HouseObjects/hairdryer4.png",262,13,255,0.9,"stim/51.jpeg",5,1,3,1,"HouseObjects",2,4,"right","right",0.723999977,1,1,1,0,141,13,1,0.9,2,"stim/51.jpeg",5,1,"stim/51.jpeg",4,"right",1.205999851,1,3,0.416999817,4,0.198000193,141,0,0,NA,1,NA,1
"542","stim/objects/Instruments/guitarcase4.png",263,13,256,0.1,"stim/52.jpeg",5,2,3,1,"Instruments",1,2,"left","left",0.729999781,1,1,1,0,47,13,1,0.1,1,"stim/52.jpeg",5,2,"stim/52.jpeg",2,"left",1.171999931,4,2,3.538999796,3,1.507999897,47,1,1,1,0,0,1
"253","stim/objects/HouseObjects/bleachbottle3.png",264,13,257,0.5,"stim/11.jpeg",1,1,1,2,"HouseObjects",2,1,"right","left",0.743999958,0,0,1,0,NA,NA,NA,NA,NA,NA,NA,NA,NA,NA,NA,NA,NA,NA,NA,NA,NA,NA,NA,NA,NA,NA,NA,NA
"361","stim/objects/HouseObjects/glass3.png",265,13,258,0.9,"stim/53.jpeg",5,3,3,2,"HouseObjects",2,2,"right","",NA,0,0,1,0,NA,NA,NA,NA,NA,NA,NA,NA,NA,NA,NA,NA,NA,NA,NA,NA,NA,NA,NA,NA,NA,NA,NA,NA
"343","stim/objects/HouseObjects/garbagebin3.png",266,13,259,0.9,"stim/53.jpeg",5,3,3,2,"HouseObjects",2,3,"right","right",0.618000031,1,1,1,0,NA,NA,NA,NA,NA,NA,NA,NA,NA,NA,NA,NA,NA,NA,NA,NA,NA,NA,NA,NA,NA,NA,NA,NA
"290","stim/objects/HouseObjects/dishsoap4.png",267,13,260,0.3,"stim/43.jpeg",4,3,2,1,"HouseObjects",2,1,"right","left",0.74000001,0,0,1,0,22,13,1,0.3,2,"stim/43.jpeg",4,3,"stim/43.jpeg",1,"right",1.621000051,2,4,22.08599997,2,2.611999989,22,0,0,NA,0,NA,1
"473","stim/objects/Instruments/flutetrans3.png",268,13,261,0.9,"stim/61.jpeg",6,1,3,2,"Instruments",1,1,"left","left",0.555999994,1,1,1,0,NA,NA,NA,NA,NA,NA,NA,NA,NA,NA,NA,NA,NA,NA,NA,NA,NA,NA,NA,NA,NA,NA,NA,NA
"275","stim/objects/HouseObjects/clothespin3.png",269,13,262,0.7,"stim/31.jpeg",3,1,2,2,"HouseObjects",2,1,"right","left",0.512000084,0,0,1,0,NA,NA,NA,NA,NA,NA,NA,NA,NA,NA,NA,NA,NA,NA,NA,NA,NA,NA,NA,NA,NA,NA,NA,NA
"510","stim/objects/Instruments/gong3.png",270,13,263,0.9,"stim/64.jpeg",6,4,3,2,"Instruments",1,2,"left","left",0.607000113,1,1,1,0,NA,NA,NA,NA,NA,NA,NA,NA,NA,NA,NA,NA,NA,NA,NA,NA,NA,NA,NA,NA,NA,NA,NA,NA
"309","stim/objects/HouseObjects/dustpan3.png",271,13,264,0.9,"stim/54.jpeg",5,4,3,2,"HouseObjects",2,3,"right","right",0.611000061,1,1,1,0,NA,NA,NA,NA,NA,NA,NA,NA,NA,NA,NA,NA,NA,NA,NA,NA,NA,NA,NA,NA,NA,NA,NA,NA
"544","stim/objects/Instruments/harmonica4.png",272,13,265,0.1,"stim/53.jpeg",5,3,3,1,"Instruments",1,3,"left","right",0.490999937,0,0,1,0,179,13,1,0.1,1,"stim/53.jpeg",5,3,"stim/53.jpeg",3,"left",0.838999987,4,4,1.924000025,2,1.460000038,179,1,0,0,0,0,1
"554","stim/objects/Instruments/maraca4.png",273,13,266,0.9,"stim/62.jpeg",6,2,3,1,"Instruments",1,4,"left","right",0.521999836,0,0,1,0,189,13,1,0.9,1,"stim/62.jpeg",6,2,"stim/62.jpeg",4,"right",0.875999928,2,2,3.015000105,1,1.282999992,189,0,1,NA,0,NA,1
"541","stim/objects/Instruments/guitarcase3.png",274,13,267,0.5,"stim/13.jpeg",1,3,1,1,"Instruments",1,1,"left","left",0.827000141,1,1,1,0,77,13,1,0.5,1,"stim/13.jpeg",1,3,"stim/13.jpeg",1,"left",1.98300004,4,3,1.30700016,3,0.97300005,77,1,1,1,0,0,1
"378","stim/objects/HouseObjects/hairdryer3.png",275,13,268,0.5,"stim/13.jpeg",1,3,1,1,"HouseObjects",2,1,"right","right",0.876999855,1,1,1,0,81,13,1,0.5,1,"stim/13.jpeg",1,3,"stim/13.jpeg",1,"right",1.046000004,2,2,0.697999954,3,1.980000019,81,0,0,NA,0,NA,1
"545","stim/objects/Instruments/harp3.png",276,13,269,0.5,"stim/11.jpeg",1,1,1,1,"Instruments",1,2,"left","right",0.871999979,0,0,1,0,159,13,1,0.5,1,"stim/11.jpeg",1,1,"stim/11.jpeg",2,"right",12.8039999,4,1,0.052999973,3,9.819999933,159,0,1,NA,0,NA,1
"408","stim/objects/Instruments/accordion4.png",277,13,270,0.3,"stim/32.jpeg",3,2,2,1,"Instruments",1,4,"left","right",0.707000017,0,0,1,0,126,13,1,0.3,1,"stim/32.jpeg",3,2,"stim/32.jpeg",4,"right",1.066999912,1,2,0.768999815,4,0.713999987,126,0,1,NA,1,NA,1
"453","stim/objects/Instruments/electricguitar3.png",278,13,271,0.7,"stim/41.jpeg",4,1,2,2,"Instruments",1,2,"left","right",0.773000002,0,0,1,0,NA,NA,NA,NA,NA,NA,NA,NA,NA,NA,NA,NA,NA,NA,NA,NA,NA,NA,NA,NA,NA,NA,NA,NA
"430","stim/objects/Instruments/clarinet3.png",279,13,272,0.5,"stim/22.jpeg",2,2,1,2,"Instruments",1,1,"left","left",0.839999914,1,1,1,0,NA,NA,NA,NA,NA,NA,NA,NA,NA,NA,NA,NA,NA,NA,NA,NA,NA,NA,NA,NA,NA,NA,NA,NA
"442","stim/objects/Instruments/doublebass3.png",280,13,273,0.7,"stim/42.jpeg",4,2,2,2,"Instruments",1,2,"left","left",0.766000032,1,1,1,0,NA,NA,NA,NA,NA,NA,NA,NA,NA,NA,NA,NA,NA,NA,NA,NA,NA,NA,NA,NA,NA,NA,NA,NA
"491","stim/objects/Instruments/frenchhorn3.png",281,13,274,0.9,"stim/62.jpeg",6,2,3,2,"Instruments",1,2,"left","left",0.61500001,1,1,1,0,NA,NA,NA,NA,NA,NA,NA,NA,NA,NA,NA,NA,NA,NA,NA,NA,NA,NA,NA,NA,NA,NA,NA,NA
"244","stim/objects/HouseObjects/ballofstring3.png",282,13,275,0.5,"stim/12.jpeg",1,2,1,2,"HouseObjects",2,4,"right","right",0.761000156,1,1,1,0,NA,NA,NA,NA,NA,NA,NA,NA,NA,NA,NA,NA,NA,NA,NA,NA,NA,NA,NA,NA,NA,NA,NA,NA
"377","stim/objects/HouseObjects/glassmop4.png",283,13,276,0.9,"stim/54.jpeg",5,4,3,1,"HouseObjects",2,3,"right","right",0.644000053,1,1,1,0,127,13,1,0.9,2,"stim/54.jpeg",5,4,"stim/54.jpeg",3,"left",1.590999842,4,1,1.312000036,3,2.05700016,127,1,0,0,1,1,1
"393","stim/objects/HouseObjects/lintroller4.png",284,13,277,0.1,"stim/62.jpeg",6,2,3,1,"HouseObjects",2,4,"right","left",0.624000072,0,0,1,0,15,13,1,0.1,2,"stim/62.jpeg",6,2,"stim/62.jpeg",4,"left",1.008000135,4,3,5.40899992,4,3.284999847,15,1,0,0,1,1,1
"362","stim/objects/HouseObjects/glass3.png",285,13,278,0.9,"stim/51.jpeg",5,1,3,2,"HouseObjects",2,3,"right","right",0.592999935,1,1,1,0,NA,NA,NA,NA,NA,NA,NA,NA,NA,NA,NA,NA,NA,NA,NA,NA,NA,NA,NA,NA,NA,NA,NA,NA
"526","stim/objects/Instruments/grandpiano3.png",286,13,279,0.9,"stim/61.jpeg",6,1,3,2,"Instruments",1,1,"left","left",0.559000015,1,1,1,0,NA,NA,NA,NA,NA,NA,NA,NA,NA,NA,NA,NA,NA,NA,NA,NA,NA,NA,NA,NA,NA,NA,NA,NA
"492","stim/objects/Instruments/frenchhorn3.png",287,13,280,0.9,"stim/63.jpeg",6,3,3,2,"Instruments",1,2,"left","left",0.593999863,1,1,1,0,NA,NA,NA,NA,NA,NA,NA,NA,NA,NA,NA,NA,NA,NA,NA,NA,NA,NA,NA,NA,NA,NA,NA,NA
"283","stim/objects/HouseObjects/cushion3.png",288,13,281,0.7,"stim/33.jpeg",3,3,2,2,"HouseObjects",2,1,"right","right",0.642999887,1,1,1,0,NA,NA,NA,NA,NA,NA,NA,NA,NA,NA,NA,NA,NA,NA,NA,NA,NA,NA,NA,NA,NA,NA,NA,NA
"451","stim/objects/Instruments/electricdrumset4.png",289,13,282,0.7,"stim/44.jpeg",4,4,2,1,"Instruments",1,3,"left","left",0.720999956,1,1,1,0,59,13,1,0.7,1,"stim/44.jpeg",4,4,"stim/44.jpeg",3,"right",1.235999823,2,4,2.896999836,3,1.385999918,59,0,1,NA,1,NA,1
"429","stim/objects/Instruments/chime4.png",290,13,283,0.7,"stim/42.jpeg",4,2,2,1,"Instruments",1,4,"left","left",0.690000057,1,1,1,0,119,13,1,0.7,1,"stim/42.jpeg",4,2,"stim/42.jpeg",4,"right",2.652999878,1,4,1.000999928,2,0.561000109,119,0,0,NA,0,NA,1
"345","stim/objects/HouseObjects/garbagebin3.png",291,13,284,0.9,"stim/52.jpeg",5,2,3,2,"HouseObjects",2,4,"right","right",0.578000069,1,1,1,0,NA,NA,NA,NA,NA,NA,NA,NA,NA,NA,NA,NA,NA,NA,NA,NA,NA,NA,NA,NA,NA,NA,NA,NA
"325","stim/objects/HouseObjects/flyswatter3.png",292,13,285,0.9,"stim/51.jpeg",5,1,3,2,"HouseObjects",2,3,"right","right",0.592999935,1,1,1,0,NA,NA,NA,NA,NA,NA,NA,NA,NA,NA,NA,NA,NA,NA,NA,NA,NA,NA,NA,NA,NA,NA,NA,NA
"560","stim/objects/Instruments/musicsheet4.png",293,13,286,0.9,"stim/61.jpeg",6,1,3,1,"Instruments",1,1,"left","left",0.55099988,1,1,1,0,96,13,1,0.9,1,"stim/61.jpeg",6,1,"stim/61.jpeg",1,"right",1.199999809,2,2,3.032000065,1,1.100000143,96,0,0,NA,1,NA,1
"509","stim/objects/Instruments/gong3.png",294,13,287,0.9,"stim/64.jpeg",6,4,3,2,"Instruments",1,1,"left","left",0.657000065,1,1,1,0,NA,NA,NA,NA,NA,NA,NA,NA,NA,NA,NA,NA,NA,NA,NA,NA,NA,NA,NA,NA,NA,NA,NA,NA
"493","stim/objects/Instruments/frenchhorn3.png",295,13,288,0.9,"stim/62.jpeg",6,2,3,2,"Instruments",1,2,"left","left",0.582000017,1,1,1,0,NA,NA,NA,NA,NA,NA,NA,NA,NA,NA,NA,NA,NA,NA,NA,NA,NA,NA,NA,NA,NA,NA,NA,NA
"252","stim/objects/HouseObjects/basket4.png",296,13,289,0.7,"stim/32.jpeg",3,2,2,1,"HouseObjects",2,2,"right","right",0.822999954,1,1,1,0,171,13,1,0.7,2,"stim/32.jpeg",3,2,"stim/32.jpeg",2,"right",0.840000153,2,3,1.240999937,4,2.183999777,171,0,0,NA,0,NA,1
"474","stim/objects/Instruments/flutetrans3.png",297,13,290,0.9,"stim/63.jpeg",6,3,3,2,"Instruments",1,1,"left","left",0.801000118,1,1,1,0,NA,NA,NA,NA,NA,NA,NA,NA,NA,NA,NA,NA,NA,NA,NA,NA,NA,NA,NA,NA,NA,NA,NA,NA
"475","stim/objects/Instruments/flutetrans3.png",298,13,291,0.9,"stim/62.jpeg",6,2,3,2,"Instruments",1,3,"left","",NA,0,0,1,0,NA,NA,NA,NA,NA,NA,NA,NA,NA,NA,NA,NA,NA,NA,NA,NA,NA,NA,NA,NA,NA,NA,NA,NA
"282","stim/objects/HouseObjects/coffee4.png",299,13,292,0.3,"stim/41.jpeg",4,1,2,1,"HouseObjects",2,3,"right","left",0.773999929,0,0,1,0,139,13,1,0.3,2,"stim/41.jpeg",4,1,"stim/41.jpeg",3,"right",1.321000099,2,3,1.473999977,1,0.549000025,139,0,0,NA,0,NA,1
"254","stim/objects/HouseObjects/bleachbottle3.png",300,13,293,0.5,"stim/14.jpeg",1,4,1,2,"HouseObjects",2,3,"right","",NA,0,0,1,0,NA,NA,NA,NA,NA,NA,NA,NA,NA,NA,NA,NA,NA,NA,NA,NA,NA,NA,NA,NA,NA,NA,NA,NA
"271","stim/objects/HouseObjects/clothesdryingrack3.png",301,13,294,0.7,"stim/33.jpeg",3,3,2,2,"HouseObjects",2,4,"right","right",0.826999903,1,1,1,0,NA,NA,NA,NA,NA,NA,NA,NA,NA,NA,NA,NA,NA,NA,NA,NA,NA,NA,NA,NA,NA,NA,NA,NA
"444","stim/objects/Instruments/drums3.png",302,13,295,0.7,"stim/44.jpeg",4,4,2,2,"Instruments",1,4,"left","left",0.644000053,1,1,1,0,NA,NA,NA,NA,NA,NA,NA,NA,NA,NA,NA,NA,NA,NA,NA,NA,NA,NA,NA,NA,NA,NA,NA,NA
"297","stim/objects/HouseObjects/doormat3.png",303,13,296,0.9,"stim/52.jpeg",5,2,3,2,"HouseObjects",2,4,"right","right",0.657000065,1,1,1,0,NA,NA,NA,NA,NA,NA,NA,NA,NA,NA,NA,NA,NA,NA,NA,NA,NA,NA,NA,NA,NA,NA,NA,NA
"457","stim/objects/Instruments/flute3.png",304,13,297,0.9,"stim/64.jpeg",6,4,3,2,"Instruments",1,1,"left","left",0.490999937,1,1,1,0,NA,NA,NA,NA,NA,NA,NA,NA,NA,NA,NA,NA,NA,NA,NA,NA,NA,NA,NA,NA,NA,NA,NA,NA
"363","stim/objects/HouseObjects/glass3.png",305,13,298,0.9,"stim/54.jpeg",5,4,3,2,"HouseObjects",2,1,"right","right",0.621999979,1,1,1,0,NA,NA,NA,NA,NA,NA,NA,NA,NA,NA,NA,NA,NA,NA,NA,NA,NA,NA,NA,NA,NA,NA,NA,NA
"326","stim/objects/HouseObjects/flyswatter3.png",306,13,299,0.9,"stim/54.jpeg",5,4,3,2,"HouseObjects",2,3,"right","right",0.656000137,1,1,1,0,NA,NA,NA,NA,NA,NA,NA,NA,NA,NA,NA,NA,NA,NA,NA,NA,NA,NA,NA,NA,NA,NA,NA,NA
"527","stim/objects/Instruments/grandpiano3.png",307,13,300,0.9,"stim/63.jpeg",6,3,3,2,"Instruments",1,3,"left","left",0.543000221,1,1,1,0,NA,NA,NA,NA,NA,NA,NA,NA,NA,NA,NA,NA,NA,NA,NA,NA,NA,NA,NA,NA,NA,NA,NA,NA
"264","stim/objects/HouseObjects/broom4.png",308,13,301,0.3,"stim/44.jpeg",4,4,2,1,"HouseObjects",2,2,"right","left",0.644000053,0,0,1,0,154,13,1,0.3,2,"stim/44.jpeg",4,4,"stim/44.jpeg",2,"right",1.717999935,2,3,0.964999914,4,0.650000095,154,0,0,NA,0,NA,1
"364","stim/objects/HouseObjects/glass3.png",309,13,302,0.9,"stim/53.jpeg",5,3,3,2,"HouseObjects",2,2,"right","right",0.871000051,1,1,1,0,NA,NA,NA,NA,NA,NA,NA,NA,NA,NA,NA,NA,NA,NA,NA,NA,NA,NA,NA,NA,NA,NA,NA,NA
"436","stim/objects/Instruments/cymbal3.png",310,13,303,0.7,"stim/42.jpeg",4,2,2,2,"Instruments",1,4,"left","left",0.594000101,1,1,1,0,NA,NA,NA,NA,NA,NA,NA,NA,NA,NA,NA,NA,NA,NA,NA,NA,NA,NA,NA,NA,NA,NA,NA,NA
"458","stim/objects/Instruments/flute3.png",311,13,304,0.9,"stim/63.jpeg",6,3,3,2,"Instruments",1,1,"left","left",0.588999987,1,1,1,0,NA,NA,NA,NA,NA,NA,NA,NA,NA,NA,NA,NA,NA,NA,NA,NA,NA,NA,NA,NA,NA,NA,NA,NA
"528","stim/objects/Instruments/grandpiano3.png",312,13,305,0.9,"stim/62.jpeg",6,2,3,2,"Instruments",1,2,"left","left",0.674000025,1,1,1,0,NA,NA,NA,NA,NA,NA,NA,NA,NA,NA,NA,NA,NA,NA,NA,NA,NA,NA,NA,NA,NA,NA,NA,NA
"551","stim/objects/Instruments/laud3.png",313,13,306,0.5,"stim/21.jpeg",2,1,1,1,"Instruments",1,1,"left","left",0.663000107,1,1,1,0,73,13,1,0.5,2,"stim/21.jpeg",2,1,"stim/21.jpeg",1,"left",1.434000015,3,1,2.075000048,4,1.236999989,73,1,1,1,0,0,1
"380","stim/objects/HouseObjects/handbrush3.png",314,13,307,0.5,"stim/14.jpeg",1,4,1,1,"HouseObjects",2,2,"right","right",0.463999987,1,1,1,0,137,13,1,0.5,1,"stim/14.jpeg",1,4,"stim/14.jpeg",2,"left",4.018999815,4,4,0.671999931,1,0.620000124,137,1,1,1,0,0,1
"549","stim/objects/Instruments/keyboard3.png",315,13,308,0.5,"stim/13.jpeg",1,3,1,1,"Instruments",1,2,"left","right",0.571000099,0,0,1,0,46,13,1,0.5,1,"stim/13.jpeg",1,3,"stim/13.jpeg",2,"left",2.413000107,4,4,0.746000051,2,1.680000067,46,1,0,0,1,1,1
"477","stim/objects/Instruments/flutetrans3.png",316,13,309,0.9,"stim/64.jpeg",6,4,3,2,"Instruments",1,1,"left","left",0.571000099,1,1,1,0,NA,NA,NA,NA,NA,NA,NA,NA,NA,NA,NA,NA,NA,NA,NA,NA,NA,NA,NA,NA,NA,NA,NA,NA
"313","stim/objects/HouseObjects/dustpan3.png",317,13,310,0.9,"stim/52.jpeg",5,2,3,2,"HouseObjects",2,3,"right","left",0.875,0,0,1,0,NA,NA,NA,NA,NA,NA,NA,NA,NA,NA,NA,NA,NA,NA,NA,NA,NA,NA,NA,NA,NA,NA,NA,NA
"421","stim/objects/Instruments/bassguitar3.png",318,13,311,0.5,"stim/24.jpeg",2,4,1,2,"Instruments",1,2,"left","right",0.851000071,0,0,1,0,NA,NA,NA,NA,NA,NA,NA,NA,NA,NA,NA,NA,NA,NA,NA,NA,NA,NA,NA,NA,NA,NA,NA,NA
"270","stim/objects/HouseObjects/clock4.png",319,13,312,0.3,"stim/42.jpeg",4,2,2,1,"HouseObjects",2,2,"right","left",0.70600009,0,0,1,0,117,13,1,0.3,2,"stim/42.jpeg",4,2,"stim/42.jpeg",2,"right",0.781999826,2,1,0.66899991,4,0.578000069,117,0,0,NA,0,NA,1
"327","stim/objects/HouseObjects/flyswatter3.png",320,13,313,0.9,"stim/51.jpeg",5,1,3,2,"HouseObjects",2,3,"right","right",0.605000019,1,1,1,0,NA,NA,NA,NA,NA,NA,NA,NA,NA,NA,NA,NA,NA,NA,NA,NA,NA,NA,NA,NA,NA,NA,NA,NA
"395","stim/objects/HouseObjects/match4.png",321,13,314,0.1,"stim/63.jpeg",6,3,3,1,"HouseObjects",2,2,"right","left",0.748999834,0,0,1,0,144,13,1,0.1,2,"stim/63.jpeg",6,3,"stim/63.jpeg",2,"right",3.015000105,2,3,0.933999777,1,0.559000015,144,0,1,NA,0,NA,1
"376","stim/objects/HouseObjects/glassmop3.png",322,13,315,0.5,"stim/12.jpeg",1,2,1,1,"HouseObjects",2,4,"right","left",0.801999807,0,0,1,0,56,13,1,0.5,1,"stim/12.jpeg",1,2,"stim/12.jpeg",4,"left",2.813999891,4,4,1.281000137,2,0.84100008,56,1,0,0,0,0,1
"459","stim/objects/Instruments/flute3.png",323,13,316,0.9,"stim/64.jpeg",6,4,3,2,"Instruments",1,3,"left","right",0.92200017,0,0,1,0,NA,NA,NA,NA,NA,NA,NA,NA,NA,NA,NA,NA,NA,NA,NA,NA,NA,NA,NA,NA,NA,NA,NA,NA
"241","stim/objects/HouseObjects/ashtray3.png",324,13,317,0.5,"stim/14.jpeg",1,4,1,2,"HouseObjects",2,1,"right","right",0.608999968,1,1,1,0,NA,NA,NA,NA,NA,NA,NA,NA,NA,NA,NA,NA,NA,NA,NA,NA,NA,NA,NA,NA,NA,NA,NA,NA
"384","stim/objects/HouseObjects/iron3.png",325,13,318,0.5,"stim/12.jpeg",1,2,1,1,"HouseObjects",2,2,"right","right",0.835000038,1,1,1,0,88,13,1,0.5,1,"stim/12.jpeg",1,2,"stim/12.jpeg",2,"left",0.844000101,4,4,1.907999992,3,2.643000126,88,1,0,0,0,0,1
"366","stim/objects/HouseObjects/glass3.png",326,13,319,0.9,"stim/54.jpeg",5,4,3,2,"HouseObjects",2,3,"right","right",0.625,1,1,1,0,NA,NA,NA,NA,NA,NA,NA,NA,NA,NA,NA,NA,NA,NA,NA,NA,NA,NA,NA,NA,NA,NA,NA,NA
"530","stim/objects/Instruments/grandpiano3.png",327,13,320,0.9,"stim/62.jpeg",6,2,3,2,"Instruments",1,3,"left","left",0.536000013,1,1,1,0,NA,NA,NA,NA,NA,NA,NA,NA,NA,NA,NA,NA,NA,NA,NA,NA,NA,NA,NA,NA,NA,NA,NA,NA
"267","stim/objects/HouseObjects/bucket4.png",328,13,321,0.3,"stim/41.jpeg",4,1,2,1,"HouseObjects",2,1,"right","left",0.667000055,0,0,1,0,124,13,1,0.3,2,"stim/41.jpeg",4,1,"stim/41.jpeg",1,"left",1.56400013,3,3,1.52699995,4,1.917999983,124,1,0,0,0,0,1
"295","stim/objects/HouseObjects/doormat3.png",329,13,322,0.9,"stim/51.jpeg",5,1,3,2,"HouseObjects",2,1,"right","right",0.563999891,1,1,1,0,NA,NA,NA,NA,NA,NA,NA,NA,NA,NA,NA,NA,NA,NA,NA,NA,NA,NA,NA,NA,NA,NA,NA,NA
"386","stim/objects/HouseObjects/ironingboard3.png",330,13,323,0.5,"stim/24.jpeg",2,4,1,1,"HouseObjects",2,1,"right","right",0.722999811,1,1,1,0,167,13,1,0.5,2,"stim/24.jpeg",2,4,"stim/24.jpeg",1,"right",1.092000008,1,2,0.951999903,4,1.596000195,167,0,0,NA,0,NA,1
"348","stim/objects/HouseObjects/garbagebin3.png",331,13,324,0.9,"stim/53.jpeg",5,3,3,2,"HouseObjects",2,4,"right","left",0.740999937,0,0,1,0,NA,NA,NA,NA,NA,NA,NA,NA,NA,NA,NA,NA,NA,NA,NA,NA,NA,NA,NA,NA,NA,NA,NA,NA
"367","stim/objects/HouseObjects/glass3.png",332,13,325,0.9,"stim/54.jpeg",5,4,3,2,"HouseObjects",2,2,"right","right",0.553999901,1,1,1,0,NA,NA,NA,NA,NA,NA,NA,NA,NA,NA,NA,NA,NA,NA,NA,NA,NA,NA,NA,NA,NA,NA,NA,NA
"314","stim/objects/HouseObjects/dustpan3.png",333,13,326,0.9,"stim/53.jpeg",5,3,3,2,"HouseObjects",2,4,"right","",NA,0,0,1,0,NA,NA,NA,NA,NA,NA,NA,NA,NA,NA,NA,NA,NA,NA,NA,NA,NA,NA,NA,NA,NA,NA,NA,NA
"276","stim/objects/HouseObjects/clothespin3.png",334,13,327,0.7,"stim/32.jpeg",3,2,2,2,"HouseObjects",2,1,"right","right",0.753000021,1,1,1,0,NA,NA,NA,NA,NA,NA,NA,NA,NA,NA,NA,NA,NA,NA,NA,NA,NA,NA,NA,NA,NA,NA,NA,NA
"489","stim/objects/Instruments/flutetrans4.png",335,13,328,0.1,"stim/52.jpeg",5,2,3,1,"Instruments",1,4,"left","right",0.694000006,0,0,1,0,24,13,1,0.1,1,"stim/52.jpeg",5,2,"stim/52.jpeg",4,"right",1.365999937,2,3,2.264999866,1,1.437999964,24,0,0,NA,0,NA,1
"256","stim/objects/HouseObjects/blender3.png",336,13,329,0.5,"stim/22.jpeg",2,2,1,2,"HouseObjects",2,2,"right","left",0.75,0,0,1,0,NA,NA,NA,NA,NA,NA,NA,NA,NA,NA,NA,NA,NA,NA,NA,NA,NA,NA,NA,NA,NA,NA,NA,NA
"494","stim/objects/Instruments/frenchhorn3.png",337,13,330,0.9,"stim/61.jpeg",6,1,3,2,"Instruments",1,3,"left","left",0.592000008,1,1,1,0,NA,NA,NA,NA,NA,NA,NA,NA,NA,NA,NA,NA,NA,NA,NA,NA,NA,NA,NA,NA,NA,NA,NA,NA
"332","stim/objects/HouseObjects/flyswatter3.png",338,13,331,0.9,"stim/54.jpeg",5,4,3,2,"HouseObjects",2,4,"right","right",0.588999987,1,1,1,0,NA,NA,NA,NA,NA,NA,NA,NA,NA,NA,NA,NA,NA,NA,NA,NA,NA,NA,NA,NA,NA,NA,NA,NA
"454","stim/objects/Instruments/electricguitar3.png",339,13,332,0.7,"stim/43.jpeg",4,3,2,2,"Instruments",1,4,"left","left",0.682999849,1,1,1,0,NA,NA,NA,NA,NA,NA,NA,NA,NA,NA,NA,NA,NA,NA,NA,NA,NA,NA,NA,NA,NA,NA,NA,NA
"274","stim/objects/HouseObjects/clothesdryingrack4.png",340,13,333,0.3,"stim/43.jpeg",4,3,2,1,"HouseObjects",2,2,"right","left",0.838999987,0,0,1,0,94,13,1,0.3,2,"stim/43.jpeg",4,3,"stim/43.jpeg",2,"left",1.351999998,4,4,2.496999979,2,4.163000107,94,1,0,0,1,1,1
"531","stim/objects/Instruments/grandpiano3.png",341,13,334,0.9,"stim/64.jpeg",6,4,3,2,"Instruments",1,1,"left","left",0.572000027,1,1,1,0,NA,NA,NA,NA,NA,NA,NA,NA,NA,NA,NA,NA,NA,NA,NA,NA,NA,NA,NA,NA,NA,NA,NA,NA
"402","stim/objects/HouseObjects/vacuumcleaner3.png",342,13,335,0.7,"stim/31.jpeg",3,1,2,1,"HouseObjects",2,3,"right","right",0.672999859,1,1,1,0,155,13,1,0.7,2,"stim/31.jpeg",3,1,"stim/31.jpeg",3,"left",17.01199985,3,4,1.328999996,2,1.944999933,155,1,0,0,0,0,1
"262","stim/objects/HouseObjects/broom3.png",343,13,336,0.5,"stim/24.jpeg",2,4,1,2,"HouseObjects",2,4,"right","right",0.723999977,1,1,1,0,NA,NA,NA,NA,NA,NA,NA,NA,NA,NA,NA,NA,NA,NA,NA,NA,NA,NA,NA,NA,NA,NA,NA,NA
"298","stim/objects/HouseObjects/doormat3.png",344,13,337,0.9,"stim/54.jpeg",5,4,3,2,"HouseObjects",2,4,"right","right",0.690999985,1,1,1,0,NA,NA,NA,NA,NA,NA,NA,NA,NA,NA,NA,NA,NA,NA,NA,NA,NA,NA,NA,NA,NA,NA,NA,NA
"495","stim/objects/Instruments/frenchhorn3.png",345,13,338,0.9,"stim/64.jpeg",6,4,3,2,"Instruments",1,3,"left","left",0.634000063,1,1,1,0,NA,NA,NA,NA,NA,NA,NA,NA,NA,NA,NA,NA,NA,NA,NA,NA,NA,NA,NA,NA,NA,NA,NA,NA
"280","stim/objects/HouseObjects/coffee3.png",346,13,339,0.7,"stim/31.jpeg",3,1,2,2,"HouseObjects",2,4,"right","left",0.905999899,0,0,1,0,NA,NA,NA,NA,NA,NA,NA,NA,NA,NA,NA,NA,NA,NA,NA,NA,NA,NA,NA,NA,NA,NA,NA,NA
"349","stim/objects/HouseObjects/garbagebin3.png",347,13,340,0.9,"stim/51.jpeg",5,1,3,2,"HouseObjects",2,4,"right","right",0.577000141,1,1,1,0,NA,NA,NA,NA,NA,NA,NA,NA,NA,NA,NA,NA,NA,NA,NA,NA,NA,NA,NA,NA,NA,NA,NA,NA
"411","stim/objects/Instruments/acousticguitar4.png",348,13,341,0.3,"stim/33.jpeg",3,3,2,1,"Instruments",1,3,"left","right",0.640000105,0,0,1,0,72,13,1,0.3,1,"stim/33.jpeg",3,3,"stim/33.jpeg",3,"right",1.758999825,2,1,1.392999887,2,0.944000006,72,0,0,NA,0,NA,1
"460","stim/objects/Instruments/flute3.png",349,13,342,0.9,"stim/61.jpeg",6,1,3,2,"Instruments",1,1,"left","left",0.720999956,1,1,1,0,NA,NA,NA,NA,NA,NA,NA,NA,NA,NA,NA,NA,NA,NA,NA,NA,NA,NA,NA,NA,NA,NA,NA,NA
"437","stim/objects/Instruments/cymbal3.png",350,13,343,0.7,"stim/43.jpeg",4,3,2,2,"Instruments",1,3,"left","left",0.787999868,1,1,1,0,NA,NA,NA,NA,NA,NA,NA,NA,NA,NA,NA,NA,NA,NA,NA,NA,NA,NA,NA,NA,NA,NA,NA,NA
"438","stim/objects/Instruments/cymbal3.png",351,13,344,0.7,"stim/41.jpeg",4,1,2,2,"Instruments",1,3,"left","right",0.912999868,0,0,1,0,NA,NA,NA,NA,NA,NA,NA,NA,NA,NA,NA,NA,NA,NA,NA,NA,NA,NA,NA,NA,NA,NA,NA,NA
"350","stim/objects/HouseObjects/garbagebin3.png",352,13,345,0.9,"stim/54.jpeg",5,4,3,2,"HouseObjects",2,3,"right","right",0.640000105,1,1,1,0,NA,NA,NA,NA,NA,NA,NA,NA,NA,NA,NA,NA,NA,NA,NA,NA,NA,NA,NA,NA,NA,NA,NA,NA
"312","stim/objects/HouseObjects/dustpan3.png",353,13,346,0.9,"stim/53.jpeg",5,3,3,2,"HouseObjects",2,1,"right","right",0.759000063,1,1,1,0,NA,NA,NA,NA,NA,NA,NA,NA,NA,NA,NA,NA,NA,NA,NA,NA,NA,NA,NA,NA,NA,NA,NA,NA
"479","stim/objects/Instruments/flutetrans3.png",354,13,347,0.9,"stim/62.jpeg",6,2,3,2,"Instruments",1,2,"left","left",0.523999929,1,1,1,0,NA,NA,NA,NA,NA,NA,NA,NA,NA,NA,NA,NA,NA,NA,NA,NA,NA,NA,NA,NA,NA,NA,NA,NA
"532","stim/objects/Instruments/grandpiano3.png",355,13,348,0.9,"stim/62.jpeg",6,2,3,2,"Instruments",1,2,"left","left",0.606999874,1,1,1,0,NA,NA,NA,NA,NA,NA,NA,NA,NA,NA,NA,NA,NA,NA,NA,NA,NA,NA,NA,NA,NA,NA,NA,NA
"533","stim/objects/Instruments/grandpiano3.png",356,13,349,0.9,"stim/64.jpeg",6,4,3,2,"Instruments",1,4,"left","left",0.559000015,1,1,1,0,NA,NA,NA,NA,NA,NA,NA,NA,NA,NA,NA,NA,NA,NA,NA,NA,NA,NA,NA,NA,NA,NA,NA,NA
"265","stim/objects/HouseObjects/bucket3.png",357,13,350,0.5,"stim/22.jpeg",2,2,1,2,"HouseObjects",2,3,"right","right",0.787999868,1,1,1,0,NA,NA,NA,NA,NA,NA,NA,NA,NA,NA,NA,NA,NA,NA,NA,NA,NA,NA,NA,NA,NA,NA,NA,NA
"406","stim/objects/Instruments/accordion3.png",358,13,351,0.5,"stim/12.jpeg",1,2,1,2,"Instruments",1,4,"left","left",0.74000001,1,1,1,0,NA,NA,NA,NA,NA,NA,NA,NA,NA,NA,NA,NA,NA,NA,NA,NA,NA,NA,NA,NA,NA,NA,NA,NA
"399","stim/objects/HouseObjects/pitcher4.png",359,13,352,0.1,"stim/61.jpeg",6,1,3,1,"HouseObjects",2,4,"right","left",0.671999931,0,0,1,0,49,13,1,0.1,2,"stim/61.jpeg",6,1,"stim/61.jpeg",4,"right",0.823999882,2,1,1.363000154,3,0.378000021,49,0,1,NA,0,NA,1
"534","stim/objects/Instruments/grandpiano3.png",360,13,353,0.9,"stim/64.jpeg",6,4,3,2,"Instruments",1,3,"left","right",0.568000078,0,0,1,0,NA,NA,NA,NA,NA,NA,NA,NA,NA,NA,NA,NA,NA,NA,NA,NA,NA,NA,NA,NA,NA,NA,NA,NA
"445","stim/objects/Instruments/drums3.png",361,13,354,0.7,"stim/43.jpeg",4,3,2,2,"Instruments",1,3,"left","left",0.763000011,1,1,1,0,NA,NA,NA,NA,NA,NA,NA,NA,NA,NA,NA,NA,NA,NA,NA,NA,NA,NA,NA,NA,NA,NA,NA,NA
"257","stim/objects/HouseObjects/blender3.png",362,13,355,0.5,"stim/23.jpeg",2,3,1,2,"HouseObjects",2,2,"right","left",0.796000004,0,0,1,0,NA,NA,NA,NA,NA,NA,NA,NA,NA,NA,NA,NA,NA,NA,NA,NA,NA,NA,NA,NA,NA,NA,NA,NA
"299","stim/objects/HouseObjects/doormat3.png",363,13,356,0.9,"stim/54.jpeg",5,4,3,2,"HouseObjects",2,2,"right","right",0.838000059,1,1,1,0,NA,NA,NA,NA,NA,NA,NA,NA,NA,NA,NA,NA,NA,NA,NA,NA,NA,NA,NA,NA,NA,NA,NA,NA
"455","stim/objects/Instruments/electricguitar4.png",364,13,357,0.7,"stim/41.jpeg",4,1,2,1,"Instruments",1,3,"left","right",0.907999992,0,0,1,0,146,13,1,0.7,1,"stim/41.jpeg",4,1,"stim/41.jpeg",3,"right",1.328000069,2,1,0.698999882,4,0.559999943,146,0,1,NA,0,NA,1
"565","stim/objects/Instruments/violin3.png",365,13,358,0.3,"stim/33.jpeg",3,3,2,1,"Instruments",1,1,"left","right",0.729000092,0,0,1,0,113,13,1,0.3,1,"stim/33.jpeg",3,3,"stim/33.jpeg",1,"right",6.735000134,1,2,0.651000023,4,0.631000042,113,0,0,NA,0,NA,1
"250","stim/objects/HouseObjects/basket3.png",366,13,359,0.5,"stim/13.jpeg",1,3,1,2,"HouseObjects",2,3,"right","left",0.875999928,0,0,1,0,NA,NA,NA,NA,NA,NA,NA,NA,NA,NA,NA,NA,NA,NA,NA,NA,NA,NA,NA,NA,NA,NA,NA,NA
"558","stim/objects/Instruments/metronome4.png",367,13,360,0.9,"stim/64.jpeg",6,4,3,1,"Instruments",1,2,"left","left",0.671999931,1,1,1,0,158,13,1,0.9,1,"stim/64.jpeg",6,4,"stim/64.jpeg",2,"right",1.371000051,2,4,1.850000143,1,3.713000059,158,0,1,NA,0,NA,1
"447","stim/objects/Instruments/drums4.png",368,13,361,0.7,"stim/43.jpeg",4,3,2,1,"Instruments",1,4,"left","left",0.810000181,1,1,1,0,1,13,1,0.7,1,"stim/43.jpeg",4,3,"stim/43.jpeg",4,"left",2.671999931,3,4,6.001999855,3,2.745999813,1,1,0,0,0,0,1
"291","stim/objects/HouseObjects/doormat3.png",369,13,362,0.9,"stim/52.jpeg",5,2,3,2,"HouseObjects",2,3,"right","right",0.670000076,1,1,1,0,NA,NA,NA,NA,NA,NA,NA,NA,NA,NA,NA,NA,NA,NA,NA,NA,NA,NA,NA,NA,NA,NA,NA,NA
"515","stim/objects/Instruments/gong3.png",370,13,363,0.9,"stim/64.jpeg",6,4,3,2,"Instruments",1,2,"left","left",0.578000069,1,1,1,0,NA,NA,NA,NA,NA,NA,NA,NA,NA,NA,NA,NA,NA,NA,NA,NA,NA,NA,NA,NA,NA,NA,NA,NA
"507","stim/objects/Instruments/gong3.png",371,13,364,0.9,"stim/63.jpeg",6,3,3,2,"Instruments",1,4,"left","left",0.634000063,1,1,1,0,NA,NA,NA,NA,NA,NA,NA,NA,NA,NA,NA,NA,NA,NA,NA,NA,NA,NA,NA,NA,NA,NA,NA,NA
"307","stim/objects/HouseObjects/doormat4.png",372,13,365,0.9,"stim/53.jpeg",5,3,3,1,"HouseObjects",2,1,"right","right",0.894999981,1,1,1,0,157,13,1,0.9,2,"stim/53.jpeg",5,3,"stim/53.jpeg",1,"left",0.859999895,4,2,2.296000004,3,2.589999914,157,1,0,0,0,0,1
"462","stim/objects/Instruments/flute3.png",373,13,366,0.9,"stim/62.jpeg",6,2,3,2,"Instruments",1,3,"left","left",0.761000156,1,1,1,0,NA,NA,NA,NA,NA,NA,NA,NA,NA,NA,NA,NA,NA,NA,NA,NA,NA,NA,NA,NA,NA,NA,NA,NA
"385","stim/objects/HouseObjects/iron4.png",374,13,367,0.9,"stim/54.jpeg",5,4,3,1,"HouseObjects",2,2,"right","",NA,0,0,1,0,195,13,1,0.9,2,"stim/54.jpeg",5,4,"stim/54.jpeg",2,"right",2.680000067,2,1,0.634000063,4,0.475000143,195,0,0,NA,0,NA,1
"423","stim/objects/Instruments/bassguitar4.png",375,13,368,0.7,"stim/44.jpeg",4,4,2,1,"Instruments",1,1,"left","left",0.690000057,1,1,1,0,11,13,1,0.7,1,"stim/44.jpeg",4,4,"stim/44.jpeg",1,"left",1.568000078,4,4,4.176000118,2,2.720999956,11,1,1,1,0,0,1
"308","stim/objects/HouseObjects/dustpan3.png",376,13,369,0.9,"stim/53.jpeg",5,3,3,2,"HouseObjects",2,4,"right","right",0.506000042,1,1,1,0,NA,NA,NA,NA,NA,NA,NA,NA,NA,NA,NA,NA,NA,NA,NA,NA,NA,NA,NA,NA,NA,NA,NA,NA
"247","stim/objects/HouseObjects/barbecuelighter3.png",377,13,370,0.5,"stim/12.jpeg",1,2,1,2,"HouseObjects",2,1,"right","right",0.726000071,1,1,1,0,NA,NA,NA,NA,NA,NA,NA,NA,NA,NA,NA,NA,NA,NA,NA,NA,NA,NA,NA,NA,NA,NA,NA,NA
"268","stim/objects/HouseObjects/clock3.png",378,13,371,0.5,"stim/22.jpeg",2,2,1,2,"HouseObjects",2,2,"right","left",0.805000067,0,0,1,0,NA,NA,NA,NA,NA,NA,NA,NA,NA,NA,NA,NA,NA,NA,NA,NA,NA,NA,NA,NA,NA,NA,NA,NA
"409","stim/objects/Instruments/acousticguitar3.png",379,13,372,0.5,"stim/12.jpeg",1,2,1,2,"Instruments",1,2,"left","left",0.919999838,1,1,1,0,NA,NA,NA,NA,NA,NA,NA,NA,NA,NA,NA,NA,NA,NA,NA,NA,NA,NA,NA,NA,NA,NA,NA,NA
"292","stim/objects/HouseObjects/doormat3.png",380,13,373,0.9,"stim/53.jpeg",5,3,3,2,"HouseObjects",2,2,"right","right",0.623000145,1,1,1,0,NA,NA,NA,NA,NA,NA,NA,NA,NA,NA,NA,NA,NA,NA,NA,NA,NA,NA,NA,NA,NA,NA,NA,NA
"293","stim/objects/HouseObjects/doormat3.png",381,13,374,0.9,"stim/51.jpeg",5,1,3,2,"HouseObjects",2,3,"right","right",0.627999783,1,1,1,0,NA,NA,NA,NA,NA,NA,NA,NA,NA,NA,NA,NA,NA,NA,NA,NA,NA,NA,NA,NA,NA,NA,NA,NA
"441","stim/objects/Instruments/doublebass3.png",382,13,375,0.7,"stim/43.jpeg",4,3,2,2,"Instruments",1,2,"left","left",0.861000061,1,1,1,0,NA,NA,NA,NA,NA,NA,NA,NA,NA,NA,NA,NA,NA,NA,NA,NA,NA,NA,NA,NA,NA,NA,NA,NA
"506","stim/objects/Instruments/frenchhorn4.png",383,13,376,0.1,"stim/53.jpeg",5,3,3,1,"Instruments",1,4,"left","right",0.542000055,0,0,1,0,78,13,1,0.1,1,"stim/53.jpeg",5,3,"stim/53.jpeg",4,"left",1.068000078,4,2,2.06799984,4,1.744999886,78,1,0,0,1,1,1
"294","stim/objects/HouseObjects/doormat3.png",384,13,377,0.9,"stim/51.jpeg",5,1,3,2,"HouseObjects",2,3,"right","right",0.59100008,1,1,1,0,NA,NA,NA,NA,NA,NA,NA,NA,NA,NA,NA,NA,NA,NA,NA,NA,NA,NA,NA,NA,NA,NA,NA,NA
"517","stim/objects/Instruments/gong3.png",385,13,378,0.9,"stim/61.jpeg",6,1,3,2,"Instruments",1,1,"left","",NA,0,0,1,0,NA,NA,NA,NA,NA,NA,NA,NA,NA,NA,NA,NA,NA,NA,NA,NA,NA,NA,NA,NA,NA,NA,NA,NA
"464","stim/objects/Instruments/flute3.png",386,13,379,0.9,"stim/62.jpeg",6,2,3,2,"Instruments",1,3,"left","left",0.654000044,1,1,1,0,NA,NA,NA,NA,NA,NA,NA,NA,NA,NA,NA,NA,NA,NA,NA,NA,NA,NA,NA,NA,NA,NA,NA,NA
"369","stim/objects/HouseObjects/glass3.png",387,13,380,0.9,"stim/52.jpeg",5,2,3,2,"HouseObjects",2,2,"right","right",0.540999889,1,1,1,0,NA,NA,NA,NA,NA,NA,NA,NA,NA,NA,NA,NA,NA,NA,NA,NA,NA,NA,NA,NA,NA,NA,NA,NA
"553","stim/objects/Instruments/maraca3.png",388,13,381,0.5,"stim/22.jpeg",2,2,1,1,"Instruments",1,3,"left","left",0.76699996,1,1,1,0,10,13,1,0.5,2,"stim/22.jpeg",2,2,"stim/22.jpeg",3,"right",2.28000021,3,3,5.157000065,1,5.345000029,10,0,0,NA,0,NA,1
"285","stim/objects/HouseObjects/cushion3.png",389,13,382,0.7,"stim/32.jpeg",3,2,2,2,"HouseObjects",2,1,"right","right",0.592999935,1,1,1,0,NA,NA,NA,NA,NA,NA,NA,NA,NA,NA,NA,NA,NA,NA,NA,NA,NA,NA,NA,NA,NA,NA,NA,NA
"480","stim/objects/Instruments/flutetrans3.png",390,13,383,0.9,"stim/63.jpeg",6,3,3,2,"Instruments",1,1,"left","left",0.553999901,1,1,1,0,NA,NA,NA,NA,NA,NA,NA,NA,NA,NA,NA,NA,NA,NA,NA,NA,NA,NA,NA,NA,NA,NA,NA,NA
"535","stim/objects/Instruments/grandpiano3.png",391,13,384,0.9,"stim/64.jpeg",6,4,3,2,"Instruments",1,3,"left","left",0.84100008,1,1,1,0,NA,NA,NA,NA,NA,NA,NA,NA,NA,NA,NA,NA,NA,NA,NA,NA,NA,NA,NA,NA,NA,NA,NA,NA
"465","stim/objects/Instruments/flute3.png",392,13,385,0.9,"stim/63.jpeg",6,3,3,2,"Instruments",1,2,"left","left",0.545000076,1,1,1,0,NA,NA,NA,NA,NA,NA,NA,NA,NA,NA,NA,NA,NA,NA,NA,NA,NA,NA,NA,NA,NA,NA,NA,NA
"452","stim/objects/Instruments/electricguitar3.png",393,13,386,0.7,"stim/42.jpeg",4,2,2,2,"Instruments",1,1,"left","left",0.631000042,1,1,1,0,NA,NA,NA,NA,NA,NA,NA,NA,NA,NA,NA,NA,NA,NA,NA,NA,NA,NA,NA,NA,NA,NA,NA,NA
"246","stim/objects/HouseObjects/ballofstring4.png",394,13,387,0.7,"stim/34.jpeg",3,4,2,1,"HouseObjects",2,4,"right","right",0.657999992,1,1,1,0,104,13,1,0.7,2,"stim/34.jpeg",3,4,"stim/34.jpeg",4,"right",1.319999933,2,2,0.909999847,4,2.267000198,104,0,0,NA,1,NA,1
"344","stim/objects/HouseObjects/garbagebin3.png",395,13,388,0.9,"stim/52.jpeg",5,2,3,2,"HouseObjects",2,3,"right","right",0.696000099,1,1,1,0,NA,NA,NA,NA,NA,NA,NA,NA,NA,NA,NA,NA,NA,NA,NA,NA,NA,NA,NA,NA,NA,NA,NA,NA
"525","stim/objects/Instruments/grandpiano3.png",396,13,389,0.9,"stim/63.jpeg",6,3,3,2,"Instruments",1,3,"left","left",0.519999981,1,1,1,0,NA,NA,NA,NA,NA,NA,NA,NA,NA,NA,NA,NA,NA,NA,NA,NA,NA,NA,NA,NA,NA,NA,NA,NA
"279","stim/objects/HouseObjects/coffee3.png",397,13,390,0.7,"stim/32.jpeg",3,2,2,2,"HouseObjects",2,2,"right","right",0.553000212,1,1,1,0,NA,NA,NA,NA,NA,NA,NA,NA,NA,NA,NA,NA,NA,NA,NA,NA,NA,NA,NA,NA,NA,NA,NA,NA
"288","stim/objects/HouseObjects/dishsoap3.png",398,13,391,0.7,"stim/33.jpeg",3,3,2,2,"HouseObjects",2,4,"right","left",0.868999958,0,0,1,0,NA,NA,NA,NA,NA,NA,NA,NA,NA,NA,NA,NA,NA,NA,NA,NA,NA,NA,NA,NA,NA,NA,NA,NA
"336","stim/objects/HouseObjects/flyswatter3.png",399,13,392,0.9,"stim/51.jpeg",5,1,3,2,"HouseObjects",2,4,"right","right",0.719000101,1,1,1,0,NA,NA,NA,NA,NA,NA,NA,NA,NA,NA,NA,NA,NA,NA,NA,NA,NA,NA,NA,NA,NA,NA,NA,NA
"482","stim/objects/Instruments/flutetrans3.png",400,13,393,0.9,"stim/63.jpeg",6,3,3,2,"Instruments",1,4,"left","left",0.644999981,1,1,1,0,NA,NA,NA,NA,NA,NA,NA,NA,NA,NA,NA,NA,NA,NA,NA,NA,NA,NA,NA,NA,NA,NA,NA,NA
"555","stim/objects/Instruments/marimba3.png",401,13,394,0.5,"stim/23.jpeg",2,3,1,1,"Instruments",1,2,"left","right",0.688999891,0,0,1,0,192,13,1,0.5,2,"stim/23.jpeg",2,3,"stim/23.jpeg",2,"right",0.914000034,2,1,0.515999794,4,0.503000021,192,0,0,NA,0,NA,1
"352","stim/objects/HouseObjects/garbagebin3.png",402,13,395,0.9,"stim/52.jpeg",5,2,3,2,"HouseObjects",2,1,"right","right",0.589999914,1,1,1,0,NA,NA,NA,NA,NA,NA,NA,NA,NA,NA,NA,NA,NA,NA,NA,NA,NA,NA,NA,NA,NA,NA,NA,NA
"337","stim/objects/HouseObjects/flyswatter3.png",403,13,396,0.9,"stim/51.jpeg",5,1,3,2,"HouseObjects",2,4,"right","right",0.671999931,1,1,1,0,NA,NA,NA,NA,NA,NA,NA,NA,NA,NA,NA,NA,NA,NA,NA,NA,NA,NA,NA,NA,NA,NA,NA,NA
"310","stim/objects/HouseObjects/dustpan3.png",404,13,397,0.9,"stim/51.jpeg",5,1,3,2,"HouseObjects",2,4,"right","right",0.671999931,1,1,1,0,NA,NA,NA,NA,NA,NA,NA,NA,NA,NA,NA,NA,NA,NA,NA,NA,NA,NA,NA,NA,NA,NA,NA,NA
"415","stim/objects/Instruments/banjo3.png",405,13,398,0.5,"stim/11.jpeg",1,1,1,2,"Instruments",1,2,"left","left",0.74000001,1,1,1,0,NA,NA,NA,NA,NA,NA,NA,NA,NA,NA,NA,NA,NA,NA,NA,NA,NA,NA,NA,NA,NA,NA,NA,NA
"353","stim/objects/HouseObjects/garbagebin3.png",406,13,399,0.9,"stim/54.jpeg",5,4,3,2,"HouseObjects",2,3,"right","right",0.862999916,1,1,1,0,NA,NA,NA,NA,NA,NA,NA,NA,NA,NA,NA,NA,NA,NA,NA,NA,NA,NA,NA,NA,NA,NA,NA,NA
"563","stim/objects/Instruments/oboe3.png",407,13,400,0.3,"stim/32.jpeg",3,2,2,1,"Instruments",1,4,"left","right",0.49000001,0,0,1,0,109,13,1,0.3,1,"stim/32.jpeg",3,2,"stim/32.jpeg",4,"right",0.89199996,2,4,1.262999773,1,0.947999954,109,0,0,NA,0,NA,1
"562","stim/objects/Instruments/musicstand4.png",408,13,401,0.9,"stim/62.jpeg",6,2,3,1,"Instruments",1,2,"left","left",0.527999878,1,1,1,0,105,13,1,0.9,1,"stim/62.jpeg",6,2,"stim/62.jpeg",2,"left",7.847000122,4,4,4.121999979,2,1.782999992,105,1,0,0,1,1,1
"424","stim/objects/Instruments/cello3.png",409,13,402,0.5,"stim/21.jpeg",2,1,1,2,"Instruments",1,4,"left","left",0.77699995,1,1,1,0,NA,NA,NA,NA,NA,NA,NA,NA,NA,NA,NA,NA,NA,NA,NA,NA,NA,NA,NA,NA,NA,NA,NA,NA
"398","stim/objects/HouseObjects/pitcher3.png",410,13,403,0.7,"stim/33.jpeg",3,3,2,1,"HouseObjects",2,2,"right","right",0.57400012,1,1,1,0,60,13,1,0.7,2,"stim/33.jpeg",3,3,"stim/33.jpeg",2,"right",11.546,3,3,0.757999897,1,0.776000023,60,0,1,NA,0,NA,1
"296","stim/objects/HouseObjects/doormat3.png",411,13,404,0.9,"stim/52.jpeg",5,2,3,2,"HouseObjects",2,1,"right","right",0.654000044,1,1,1,0,NA,NA,NA,NA,NA,NA,NA,NA,NA,NA,NA,NA,NA,NA,NA,NA,NA,NA,NA,NA,NA,NA,NA,NA
"390","stim/objects/HouseObjects/knife3.png",412,13,405,0.5,"stim/22.jpeg",2,2,1,1,"HouseObjects",2,2,"right","right",0.769999981,1,1,1,0,6,13,1,0.5,2,"stim/22.jpeg",2,2,"stim/22.jpeg",2,"left",2.505000114,4,4,8.729000092,2,3.340000153,6,1,0,0,1,1,1
"498","stim/objects/Instruments/frenchhorn3.png",413,13,406,0.9,"stim/61.jpeg",6,1,3,2,"Instruments",1,1,"left","",NA,0,0,1,0,NA,NA,NA,NA,NA,NA,NA,NA,NA,NA,NA,NA,NA,NA,NA,NA,NA,NA,NA,NA,NA,NA,NA,NA
"311","stim/objects/HouseObjects/dustpan3.png",414,13,407,0.9,"stim/53.jpeg",5,3,3,2,"HouseObjects",2,1,"right","right",0.572000027,1,1,1,0,NA,NA,NA,NA,NA,NA,NA,NA,NA,NA,NA,NA,NA,NA,NA,NA,NA,NA,NA,NA,NA,NA,NA,NA
"368","stim/objects/HouseObjects/glass3.png",415,13,408,0.9,"stim/51.jpeg",5,1,3,2,"HouseObjects",2,4,"right","right",0.641000032,1,1,1,0,NA,NA,NA,NA,NA,NA,NA,NA,NA,NA,NA,NA,NA,NA,NA,NA,NA,NA,NA,NA,NA,NA,NA,NA
"335","stim/objects/HouseObjects/flyswatter3.png",416,13,409,0.9,"stim/52.jpeg",5,2,3,2,"HouseObjects",2,1,"right","right",0.634000063,1,1,1,0,NA,NA,NA,NA,NA,NA,NA,NA,NA,NA,NA,NA,NA,NA,NA,NA,NA,NA,NA,NA,NA,NA,NA,NA
"420","stim/objects/Instruments/bassdrum4.png",417,13,410,0.3,"stim/32.jpeg",3,2,2,1,"Instruments",1,3,"left","left",0.764000177,1,1,1,0,197,13,1,0.3,1,"stim/32.jpeg",3,2,"stim/32.jpeg",3,"right",2.023999929,2,4,2.381999969,3,1.49000001,197,0,0,NA,1,NA,1
"258","stim/objects/HouseObjects/blender4.png",418,13,411,0.3,"stim/42.jpeg",4,2,2,1,"HouseObjects",2,2,"right","left",0.703999996,0,0,1,0,98,13,1,0.3,2,"stim/42.jpeg",4,2,"stim/42.jpeg",2,"right",0.897000074,1,2,2.131999969,3,0.801000118,98,0,1,NA,0,NA,1
"245","stim/objects/HouseObjects/ballofstring3.png",419,13,412,0.5,"stim/11.jpeg",1,1,1,2,"HouseObjects",2,2,"right","right",0.870999813,1,1,1,0,NA,NA,NA,NA,NA,NA,NA,NA,NA,NA,NA,NA,NA,NA,NA,NA,NA,NA,NA,NA,NA,NA,NA,NA
"511","stim/objects/Instruments/gong3.png",420,13,413,0.9,"stim/62.jpeg",6,2,3,2,"Instruments",1,2,"left","left",0.608999968,1,1,1,0,NA,NA,NA,NA,NA,NA,NA,NA,NA,NA,NA,NA,NA,NA,NA,NA,NA,NA,NA,NA,NA,NA,NA,NA
"316","stim/objects/HouseObjects/dustpan3.png",421,13,414,0.9,"stim/52.jpeg",5,2,3,2,"HouseObjects",2,1,"right","right",0.667000055,1,1,1,0,NA,NA,NA,NA,NA,NA,NA,NA,NA,NA,NA,NA,NA,NA,NA,NA,NA,NA,NA,NA,NA,NA,NA,NA
"242","stim/objects/HouseObjects/ashtray3.png",422,13,415,0.5,"stim/11.jpeg",1,1,1,2,"HouseObjects",2,4,"right","right",0.764999866,1,1,1,0,NA,NA,NA,NA,NA,NA,NA,NA,NA,NA,NA,NA,NA,NA,NA,NA,NA,NA,NA,NA,NA,NA,NA,NA
"516","stim/objects/Instruments/gong3.png",423,13,416,0.9,"stim/62.jpeg",6,2,3,2,"Instruments",1,4,"left","",NA,0,0,1,0,NA,NA,NA,NA,NA,NA,NA,NA,NA,NA,NA,NA,NA,NA,NA,NA,NA,NA,NA,NA,NA,NA,NA,NA
"431","stim/objects/Instruments/clarinet3.png",424,13,417,0.5,"stim/23.jpeg",2,3,1,2,"Instruments",1,1,"left","left",0.799999952,1,1,1,0,NA,NA,NA,NA,NA,NA,NA,NA,NA,NA,NA,NA,NA,NA,NA,NA,NA,NA,NA,NA,NA,NA,NA,NA
"518","stim/objects/Instruments/gong3.png",425,13,418,0.9,"stim/61.jpeg",6,1,3,2,"Instruments",1,4,"left","left",0.645999908,1,1,1,0,NA,NA,NA,NA,NA,NA,NA,NA,NA,NA,NA,NA,NA,NA,NA,NA,NA,NA,NA,NA,NA,NA,NA,NA
"519","stim/objects/Instruments/gong3.png",426,13,419,0.9,"stim/63.jpeg",6,3,3,2,"Instruments",1,3,"left","left",0.510999918,1,1,1,0,NA,NA,NA,NA,NA,NA,NA,NA,NA,NA,NA,NA,NA,NA,NA,NA,NA,NA,NA,NA,NA,NA,NA,NA
"469","stim/objects/Instruments/flute3.png",427,13,420,0.9,"stim/62.jpeg",6,2,3,2,"Instruments",1,3,"left","left",0.504000187,1,1,1,0,NA,NA,NA,NA,NA,NA,NA,NA,NA,NA,NA,NA,NA,NA,NA,NA,NA,NA,NA,NA,NA,NA,NA,NA
"370","stim/objects/HouseObjects/glass3.png",428,13,421,0.9,"stim/53.jpeg",5,3,3,2,"HouseObjects",2,2,"right","right",0.749000072,1,1,1,0,NA,NA,NA,NA,NA,NA,NA,NA,NA,NA,NA,NA,NA,NA,NA,NA,NA,NA,NA,NA,NA,NA,NA,NA
"346","stim/objects/HouseObjects/garbagebin3.png",429,13,422,0.9,"stim/53.jpeg",5,3,3,2,"HouseObjects",2,4,"right","right",0.769999981,1,1,1,0,NA,NA,NA,NA,NA,NA,NA,NA,NA,NA,NA,NA,NA,NA,NA,NA,NA,NA,NA,NA,NA,NA,NA,NA
"523","stim/objects/Instruments/gong4.png",430,13,423,0.1,"stim/54.jpeg",5,4,3,1,"Instruments",1,2,"left","right",0.763000011,0,0,1,0,28,13,1,0.1,1,"stim/54.jpeg",5,4,"stim/54.jpeg",2,"right",1.429000139,2,2,1.648999929,3,2.201000214,28,0,0,NA,0,NA,1
"538","stim/objects/Instruments/grandpiano3.png",431,13,424,0.9,"stim/61.jpeg",6,1,3,2,"Instruments",1,4,"left","left",0.722000122,1,1,1,0,NA,NA,NA,NA,NA,NA,NA,NA,NA,NA,NA,NA,NA,NA,NA,NA,NA,NA,NA,NA,NA,NA,NA,NA
"387","stim/objects/HouseObjects/ironingboard4.png",432,13,425,0.1,"stim/63.jpeg",6,3,3,1,"HouseObjects",2,4,"right","left",0.654999971,0,0,1,0,75,13,1,0.1,2,"stim/63.jpeg",6,3,"stim/63.jpeg",4,"right",1.06099987,2,1,0.601999998,4,0.771000147,75,0,0,NA,1,NA,1
"466","stim/objects/Instruments/flute3.png",433,13,426,0.9,"stim/64.jpeg",6,4,3,2,"Instruments",1,4,"left","left",0.576999903,1,1,1,0,NA,NA,NA,NA,NA,NA,NA,NA,NA,NA,NA,NA,NA,NA,NA,NA,NA,NA,NA,NA,NA,NA,NA,NA
"375","stim/objects/HouseObjects/glass4.png",434,13,427,0.9,"stim/53.jpeg",5,3,3,1,"HouseObjects",2,4,"right","right",0.755000114,1,1,1,0,187,13,1,0.9,2,"stim/53.jpeg",5,3,"stim/53.jpeg",4,"left",2.679999828,4,2,1.757999897,3,1.493999958,187,1,0,0,0,0,1
"476","stim/objects/Instruments/flutetrans3.png",435,13,428,0.9,"stim/63.jpeg",6,3,3,2,"Instruments",1,3,"left","left",0.52699995,1,1,1,0,NA,NA,NA,NA,NA,NA,NA,NA,NA,NA,NA,NA,NA,NA,NA,NA,NA,NA,NA,NA,NA,NA,NA,NA
"382","stim/objects/HouseObjects/handvacuum3.png",436,13,429,0.5,"stim/11.jpeg",1,1,1,1,"HouseObjects",2,4,"right","",NA,0,0,1,0,76,13,1,0.5,1,"stim/11.jpeg",1,1,"stim/11.jpeg",4,"left",1.710000038,4,3,1.280999899,2,1.397000074,76,1,0,0,0,0,1
"540","stim/objects/Instruments/grandpiano4.png",437,13,430,0.1,"stim/51.jpeg",5,1,3,1,"Instruments",1,4,"left","",NA,0,0,1,0,190,13,1,0.1,1,"stim/51.jpeg",5,1,"stim/51.jpeg",4,"right",2.97300005,2,3,1.259000063,4,1.667000055,190,0,0,NA,1,NA,1
"394","stim/objects/HouseObjects/match3.png",438,13,431,0.5,"stim/24.jpeg",2,4,1,1,"HouseObjects",2,3,"right","right",0.849999905,1,1,1,0,89,13,1,0.5,2,"stim/24.jpeg",2,4,"stim/24.jpeg",3,"left",1.126000166,4,2,2.195999861,1,2.34499979,89,1,0,0,0,0,1
"303","stim/objects/HouseObjects/doormat3.png",439,13,432,0.9,"stim/54.jpeg",5,4,3,2,"HouseObjects",2,2,"right","right",0.759000063,1,1,1,0,NA,NA,NA,NA,NA,NA,NA,NA,NA,NA,NA,NA,NA,NA,NA,NA,NA,NA,NA,NA,NA,NA,NA,NA
"478","stim/objects/Instruments/flutetrans3.png",440,13,433,0.9,"stim/64.jpeg",6,4,3,2,"Instruments",1,2,"left","left",0.700999975,1,1,1,0,NA,NA,NA,NA,NA,NA,NA,NA,NA,NA,NA,NA,NA,NA,NA,NA,NA,NA,NA,NA,NA,NA,NA,NA
"557","stim/objects/Instruments/metronome3.png",441,13,434,0.5,"stim/24.jpeg",2,4,1,1,"Instruments",1,2,"left","right",0.871000051,0,0,1,0,135,13,1,0.5,2,"stim/24.jpeg",2,4,"stim/24.jpeg",2,"left",0.941999912,4,3,1.043000221,1,1.489000082,135,1,0,0,0,0,1
"529","stim/objects/Instruments/grandpiano3.png",442,13,435,0.9,"stim/61.jpeg",6,1,3,2,"Instruments",1,1,"left","",NA,0,0,1,0,NA,NA,NA,NA,NA,NA,NA,NA,NA,NA,NA,NA,NA,NA,NA,NA,NA,NA,NA,NA,NA,NA,NA,NA
"328","stim/objects/HouseObjects/flyswatter3.png",443,13,436,0.9,"stim/54.jpeg",5,4,3,2,"HouseObjects",2,2,"right","right",0.539999962,1,1,1,0,NA,NA,NA,NA,NA,NA,NA,NA,NA,NA,NA,NA,NA,NA,NA,NA,NA,NA,NA,NA,NA,NA,NA,NA
"422","stim/objects/Instruments/bassguitar3.png",444,13,437,0.5,"stim/23.jpeg",2,3,1,2,"Instruments",1,4,"left","",NA,0,0,1,0,NA,NA,NA,NA,NA,NA,NA,NA,NA,NA,NA,NA,NA,NA,NA,NA,NA,NA,NA,NA,NA,NA,NA,NA
"416","stim/objects/Instruments/banjo3.png",445,13,438,0.5,"stim/14.jpeg",1,4,1,2,"Instruments",1,4,"left","right",0.743999958,0,0,1,0,NA,NA,NA,NA,NA,NA,NA,NA,NA,NA,NA,NA,NA,NA,NA,NA,NA,NA,NA,NA,NA,NA,NA,NA
"365","stim/objects/HouseObjects/glass3.png",446,13,439,0.9,"stim/52.jpeg",5,2,3,2,"HouseObjects",2,4,"right","left",0.869999886,0,0,1,0,NA,NA,NA,NA,NA,NA,NA,NA,NA,NA,NA,NA,NA,NA,NA,NA,NA,NA,NA,NA,NA,NA,NA,NA
"439","stim/objects/Instruments/cymbal4.png",447,13,440,0.7,"stim/41.jpeg",4,1,2,1,"Instruments",1,2,"left","left",0.924000025,1,1,1,0,145,13,1,0.7,1,"stim/41.jpeg",4,1,"stim/41.jpeg",2,"left",2.247999907,4,3,2.601000071,2,1.358999968,145,1,0,0,1,1,1
"419","stim/objects/Instruments/bassdrum3.png",448,13,441,0.5,"stim/12.jpeg",1,2,1,2,"Instruments",1,4,"left","right",0.72300005,0,0,1,0,NA,NA,NA,NA,NA,NA,NA,NA,NA,NA,NA,NA,NA,NA,NA,NA,NA,NA,NA,NA,NA,NA,NA,NA
"347","stim/objects/HouseObjects/garbagebin3.png",449,13,442,0.9,"stim/52.jpeg",5,2,3,2,"HouseObjects",2,2,"right","right",0.674000025,1,1,1,0,NA,NA,NA,NA,NA,NA,NA,NA,NA,NA,NA,NA,NA,NA,NA,NA,NA,NA,NA,NA,NA,NA,NA,NA
"261","stim/objects/HouseObjects/bottle4.png",450,13,443,0.3,"stim/43.jpeg",4,3,2,1,"HouseObjects",2,3,"right","left",0.655999899,0,0,1,0,40,13,1,0.3,2,"stim/43.jpeg",4,3,"stim/43.jpeg",3,"left",2.181999922,4,4,1.964999914,1,2.233999968,40,1,0,0,0,0,1
"243","stim/objects/HouseObjects/ashtray4.png",451,13,444,0.7,"stim/33.jpeg",3,3,2,1,"HouseObjects",2,1,"right","right",0.676000118,1,1,1,0,48,13,1,0.7,2,"stim/33.jpeg",3,3,"stim/33.jpeg",1,"left",1.092000008,4,3,2.431999922,2,1.661999941,48,1,1,1,0,0,1
"446","stim/objects/Instruments/drums3.png",452,13,445,0.7,"stim/41.jpeg",4,1,2,2,"Instruments",1,3,"left","right",0.825000048,0,0,1,0,NA,NA,NA,NA,NA,NA,NA,NA,NA,NA,NA,NA,NA,NA,NA,NA,NA,NA,NA,NA,NA,NA,NA,NA
"521","stim/objects/Instruments/gong3.png",453,13,446,0.9,"stim/64.jpeg",6,4,3,2,"Instruments",1,1,"left","",NA,0,0,1,0,NA,NA,NA,NA,NA,NA,NA,NA,NA,NA,NA,NA,NA,NA,NA,NA,NA,NA,NA,NA,NA,NA,NA,NA
"499","stim/objects/Instruments/frenchhorn3.png",454,13,447,0.9,"stim/64.jpeg",6,4,3,2,"Instruments",1,3,"left","left",0.771000147,1,1,1,0,NA,NA,NA,NA,NA,NA,NA,NA,NA,NA,NA,NA,NA,NA,NA,NA,NA,NA,NA,NA,NA,NA,NA,NA
"381","stim/objects/HouseObjects/handbrush4.png",455,13,448,0.9,"stim/52.jpeg",5,2,3,1,"HouseObjects",2,1,"right","left",0.726000071,0,0,1,0,17,13,1,0.9,2,"stim/52.jpeg",5,2,"stim/52.jpeg",1,"right",1.881000042,2,4,3.013000011,3,2.63499999,17,0,0,NA,0,NA,1
"315","stim/objects/HouseObjects/dustpan3.png",456,13,449,0.9,"stim/51.jpeg",5,1,3,2,"HouseObjects",2,2,"right","right",0.657999992,1,1,1,0,NA,NA,NA,NA,NA,NA,NA,NA,NA,NA,NA,NA,NA,NA,NA,NA,NA,NA,NA,NA,NA,NA,NA,NA
"389","stim/objects/HouseObjects/key4.png",457,13,450,0.1,"stim/64.jpeg",6,4,3,1,"HouseObjects",2,4,"right","right",0.737999916,1,1,1,0,143,13,1,0.1,2,"stim/64.jpeg",6,4,"stim/64.jpeg",4,"right",31.64400005,2,1,0.757999897,4,0.757999897,143,0,0,NA,1,NA,1
"397","stim/objects/HouseObjects/pan4.png",458,13,451,0.1,"stim/64.jpeg",6,4,3,1,"HouseObjects",2,2,"right","",NA,0,0,1,0,161,13,1,0.1,2,"stim/64.jpeg",6,4,"stim/64.jpeg",2,"right",1.460999966,2,4,0.849999905,3,1.075000048,161,0,1,NA,0,NA,1
"485","stim/objects/Instruments/flutetrans3.png",459,13,452,0.9,"stim/62.jpeg",6,2,3,2,"Instruments",1,2,"left","left",0.572000027,1,1,1,0,NA,NA,NA,NA,NA,NA,NA,NA,NA,NA,NA,NA,NA,NA,NA,NA,NA,NA,NA,NA,NA,NA,NA,NA
"471","stim/objects/Instruments/flute3.png",460,13,453,0.9,"stim/63.jpeg",6,3,3,2,"Instruments",1,1,"left","left",0.625,1,1,1,0,NA,NA,NA,NA,NA,NA,NA,NA,NA,NA,NA,NA,NA,NA,NA,NA,NA,NA,NA,NA,NA,NA,NA,NA
"514","stim/objects/Instruments/gong3.png",461,13,454,0.9,"stim/63.jpeg",6,3,3,2,"Instruments",1,4,"left","left",0.620000124,1,1,1,0,NA,NA,NA,NA,NA,NA,NA,NA,NA,NA,NA,NA,NA,NA,NA,NA,NA,NA,NA,NA,NA,NA,NA,NA
"286","stim/objects/HouseObjects/cushion4.png",462,13,455,0.3,"stim/42.jpeg",4,2,2,1,"HouseObjects",2,2,"right","left",0.694000006,0,0,1,0,150,13,1,0.3,2,"stim/42.jpeg",4,2,"stim/42.jpeg",2,"left",0.710000038,4,1,0.474000216,2,0.473999977,150,1,0,0,1,1,1
"249","stim/objects/HouseObjects/barbecuelighter4.png",463,13,456,0.7,"stim/31.jpeg",3,1,2,1,"HouseObjects",2,1,"right","",NA,0,0,1,0,84,13,1,0.7,2,"stim/31.jpeg",3,1,"stim/31.jpeg",1,"right",1.296000004,2,2,0.832999945,1,0.986999989,84,0,0,NA,1,NA,1
"391","stim/objects/HouseObjects/knife4.png",464,13,457,0.1,"stim/61.jpeg",6,1,3,1,"HouseObjects",2,3,"right","left",0.50999999,0,0,1,0,69,13,1,0.1,2,"stim/61.jpeg",6,1,"stim/61.jpeg",3,"left",2.992000103,3,1,1.579999924,3,1.970999956,69,1,1,1,1,1,1
"339","stim/objects/HouseObjects/flyswatter3.png",465,13,458,0.9,"stim/53.jpeg",5,3,3,2,"HouseObjects",2,3,"right","right",0.605000019,1,1,1,0,NA,NA,NA,NA,NA,NA,NA,NA,NA,NA,NA,NA,NA,NA,NA,NA,NA,NA,NA,NA,NA,NA,NA,NA
"400","stim/objects/HouseObjects/towel3.png",466,13,459,0.7,"stim/34.jpeg",3,4,2,1,"HouseObjects",2,2,"right","right",0.654999971,1,1,1,0,44,13,1,0.7,2,"stim/34.jpeg",3,4,"stim/34.jpeg",2,"left",1.359999895,4,1,2.246999979,3,1.571000099,44,1,0,0,0,0,1
