"","participant","trial_index","trial_cond","scn_file","scn_cat","scn_inst","scn_condition","fillers","obj_cat","obj_cat_num","obj_file","quadrant","corr_ans","key_resp_trial.keys","key_resp_trial.rt","trial_acc","trial_acc_manual","group"
"1",13,1,0.9,"stim/64.jpeg",6,4,3,NA,"Instruments",1,"stim/objects/Instruments/tuba2.png",3,"left","",NA,0,0,1
"2",13,2,0.9,"stim/54.jpeg",5,4,3,NA,"HouseObjects",2,"stim/objects/HouseObjects/sponge2.png",1,"right","right",0.854000092,1,1,1
"3",13,3,0.9,"stim/53.jpeg",5,3,3,NA,"HouseObjects",2,"stim/objects/HouseObjects/scale2.png",2,"right","right",0.867000103,1,1,1
"4",13,4,0.7,"stim/32.jpeg",3,2,2,NA,"HouseObjects",2,"stim/objects/HouseObjects/teapot.png",3,"right","",NA,0,0,1
"5",13,5,0.5,"stim/11.jpeg",1,1,1,NA,"HouseObjects",2,"stim/objects/HouseObjects/recyclingbin.png",2,"right","left",0.805999994,0,0,1
"6",13,6,0.5,"stim/22.jpeg",2,2,1,NA,"HouseObjects",2,"stim/objects/HouseObjects/saw.png",1,"right","right",0.798999786,1,1,1
"7",13,7,0.9,"stim/52.jpeg",5,2,3,NA,"HouseObjects",2,"stim/objects/HouseObjects/saw2.png",4,"right","right",0.642000198,1,1,1
"8",13,8,0.5,"stim/24.jpeg",2,4,1,NA,"HouseObjects",2,"stim/objects/HouseObjects/sponge.png",1,"right","left",0.711999893,0,0,1
"9",13,9,0.7,"stim/44.jpeg",4,4,2,NA,"Instruments",1,"stim/objects/Instruments/record_player2.png",1,"left","left",0.868000031,1,1,1
"10",13,10,0.9,"stim/64.jpeg",6,4,3,NA,"Instruments",1,"stim/objects/Instruments/tuba2.png",2,"left","left",0.667999983,1,1,1
"11",13,11,0.9,"stim/54.jpeg",5,4,3,NA,"HouseObjects",2,"stim/objects/HouseObjects/sponge2.png",1,"right","right",0.5400002,1,1,1
"12",13,12,0.3,"stim/33.jpeg",3,3,2,NA,"Instruments",1,"stim/objects/Instruments/trumpet.png",1,"left","right",0.782999992,0,0,1
"13",13,13,0.7,"stim/34.jpeg",3,4,2,NA,"HouseObjects",2,"stim/objects/HouseObjects/thread.png",4,"right","",NA,0,0,1
"14",13,14,0.5,"stim/13.jpeg",1,3,1,NA,"Instruments",1,"stim/objects/Instruments/record.png",3,"left","left",0.868000031,1,1,1
"15",13,15,0.5,"stim/14.jpeg",1,4,1,NA,"Instruments",1,"stim/objects/Instruments/record_player.png",1,"left","right",0.867000103,0,0,1
"16",13,16,0.1,"stim/64.jpeg",6,4,3,NA,"HouseObjects",2,"stim/objects/HouseObjects/thread2.png",4,"right","left",0.568000078,0,0,1
"17",13,17,0.9,"stim/52.jpeg",5,2,3,NA,"HouseObjects",2,"stim/objects/HouseObjects/saw2.png",1,"right","right",0.687000036,1,1,1
"18",13,18,0.5,"stim/11.jpeg",1,1,1,NA,"HouseObjects",2,"stim/objects/HouseObjects/recyclingbin.png",2,"right","",NA,0,0,1
"19",13,19,0.7,"stim/42.jpeg",4,2,2,NA,"Instruments",1,"stim/objects/Instruments/pipepiano2.png",3,"left","right",0.786999941,0,0,1
"20",13,20,0.9,"stim/53.jpeg",5,3,3,NA,"HouseObjects",2,"stim/objects/HouseObjects/scale2.png",3,"right","right",0.772000074,1,1,1
"21",13,21,0.3,"stim/42.jpeg",4,2,2,NA,"HouseObjects",2,"stim/objects/HouseObjects/remote2.png",2,"right","left",0.832000017,0,0,1
"22",13,22,0.5,"stim/11.jpeg",1,1,1,NA,"Instruments",1,"stim/objects/Instruments/panflute.png",1,"left","",NA,0,0,1
"23",13,23,0.9,"stim/61.jpeg",6,1,3,NA,"Instruments",1,"stim/objects/Instruments/triangle2.png",3,"left","left",0.815999985,1,1,1
"24",13,24,0.5,"stim/21.jpeg",2,1,1,NA,"HouseObjects",2,"stim/objects/HouseObjects/safetypin.png",3,"right","left",0.822000027,0,0,1
"25",13,25,0.1,"stim/51.jpeg",5,1,3,NA,"Instruments",1,"stim/objects/Instruments/saxophone2.png",4,"left","right",0.698999882,0,0,1
"26",13,26,0.7,"stim/44.jpeg",4,4,2,NA,"Instruments",1,"stim/objects/Instruments/record_player2.png",2,"left","right",0.907999992,0,0,1
"27",13,27,0.3,"stim/33.jpeg",3,3,2,NA,"Instruments",1,"stim/objects/Instruments/trumpet.png",3,"left","",NA,0,0,1
"28",13,28,0.3,"stim/33.jpeg",3,3,2,NA,"Instruments",1,"stim/objects/Instruments/trumpet.png",4,"left","right",0.838999987,0,0,1
"29",13,29,0.3,"stim/43.jpeg",4,3,2,NA,"HouseObjects",2,"stim/objects/HouseObjects/rubbergloves2.png",4,"right","",NA,0,0,1
"30",13,30,0.5,"stim/21.jpeg",2,1,1,NA,"Instruments",1,"stim/objects/Instruments/saxophone.png",3,"left","left",0.717999935,1,1,1
"31",13,31,0.5,"stim/14.jpeg",1,4,1,NA,"Instruments",1,"stim/objects/Instruments/record_player.png",4,"left","right",0.592000008,0,0,1
"32",13,32,0.5,"stim/13.jpeg",1,3,1,NA,"Instruments",1,"stim/objects/Instruments/record.png",2,"left","right",0.688999891,0,0,1
"33",13,33,0.9,"stim/64.jpeg",6,4,3,NA,"Instruments",1,"stim/objects/Instruments/tuba2.png",3,"left","left",0.474999905,1,1,1
"34",13,34,0.3,"stim/44.jpeg",4,4,2,NA,"HouseObjects",2,"stim/objects/HouseObjects/rug2.png",1,"right","left",0.631999969,0,0,1
"35",13,35,0.7,"stim/34.jpeg",3,4,2,NA,"HouseObjects",2,"stim/objects/HouseObjects/thread.png",3,"right","right",0.705000162,1,1,1
"36",13,36,0.5,"stim/21.jpeg",2,1,1,NA,"HouseObjects",2,"stim/objects/HouseObjects/safetypin.png",4,"right","left",0.730000019,0,0,1
"37",13,37,0.5,"stim/13.jpeg",1,3,1,NA,"HouseObjects",2,"stim/objects/HouseObjects/rubbergloves.png",4,"right","right",0.888000011,1,1,1
"38",13,38,0.5,"stim/11.jpeg",1,1,1,NA,"HouseObjects",2,"stim/objects/HouseObjects/recyclingbin.png",2,"right","left",0.838999987,0,0,1
"39",13,39,0.9,"stim/52.jpeg",5,2,3,NA,"HouseObjects",2,"stim/objects/HouseObjects/saw2.png",3,"right","right",0.682999849,1,1,1
"40",13,40,0.5,"stim/23.jpeg",2,3,1,NA,"HouseObjects",2,"stim/objects/HouseObjects/scale.png",3,"right","left",0.65899992,0,0,1
"41",13,41,0.7,"stim/43.jpeg",4,3,2,NA,"Instruments",1,"stim/objects/Instruments/record2.png",3,"left","left",0.669000149,1,1,1
"42",13,42,0.5,"stim/23.jpeg",2,3,1,NA,"HouseObjects",2,"stim/objects/HouseObjects/scale.png",2,"right","right",0.724999905,1,1,1
"43",13,43,0.3,"stim/32.jpeg",3,2,2,NA,"Instruments",1,"stim/objects/Instruments/trombone.png",2,"left","right",0.634000063,0,0,1
"44",13,44,0.7,"stim/44.jpeg",4,4,2,NA,"Instruments",1,"stim/objects/Instruments/record_player2.png",3,"left","left",0.630999804,1,1,1
"45",13,45,0.7,"stim/34.jpeg",3,4,2,NA,"HouseObjects",2,"stim/objects/HouseObjects/thread.png",3,"right","right",0.694000006,1,1,1
"46",13,46,0.5,"stim/24.jpeg",2,4,1,NA,"Instruments",1,"stim/objects/Instruments/timbal.png",1,"left","right",0.81099987,0,0,1
"47",13,47,0.7,"stim/42.jpeg",4,2,2,NA,"Instruments",1,"stim/objects/Instruments/pipepiano2.png",2,"left","left",0.891000032,1,1,1
"48",13,48,0.5,"stim/13.jpeg",1,3,1,NA,"HouseObjects",2,"stim/objects/HouseObjects/rubbergloves.png",2,"right","right",0.74000001,1,1,1
"49",13,49,0.9,"stim/54.jpeg",5,4,3,NA,"HouseObjects",2,"stim/objects/HouseObjects/sponge2.png",4,"right","right",0.625999928,1,1,1
"50",13,50,0.3,"stim/43.jpeg",4,3,2,NA,"HouseObjects",2,"stim/objects/HouseObjects/rubbergloves2.png",4,"right","left",0.74000001,0,0,1
"51",13,51,0.1,"stim/63.jpeg",6,3,3,NA,"HouseObjects",2,"stim/objects/HouseObjects/thermometer2.png",4,"right","left",0.582999945,0,0,1
"52",13,52,0.5,"stim/21.jpeg",2,1,1,NA,"HouseObjects",2,"stim/objects/HouseObjects/safetypin.png",3,"right","left",0.870000124,0,0,1
"53",13,53,0.7,"stim/33.jpeg",3,3,2,NA,"HouseObjects",2,"stim/objects/HouseObjects/thermometer.png",4,"right","",NA,0,0,1
"54",13,54,0.1,"stim/62.jpeg",6,2,3,NA,"HouseObjects",2,"stim/objects/HouseObjects/teapot2.png",1,"right","left",0.565999985,0,0,1
"55",13,55,0.3,"stim/44.jpeg",4,4,2,NA,"HouseObjects",2,"stim/objects/HouseObjects/rug2.png",4,"right","left",0.871000051,0,0,1
"56",13,56,0.9,"stim/61.jpeg",6,1,3,NA,"Instruments",1,"stim/objects/Instruments/triangle2.png",4,"left","left",0.59100008,1,1,1
"57",13,57,0.7,"stim/33.jpeg",3,3,2,NA,"HouseObjects",2,"stim/objects/HouseObjects/thermometer.png",1,"right","right",0.638999939,1,1,1
"58",13,58,0.5,"stim/14.jpeg",1,4,1,NA,"HouseObjects",2,"stim/objects/HouseObjects/rug.png",1,"right","right",0.60800004,1,1,1
"59",13,59,0.9,"stim/54.jpeg",5,4,3,NA,"HouseObjects",2,"stim/objects/HouseObjects/sponge2.png",4,"right","right",0.605000019,1,1,1
"60",13,60,0.7,"stim/32.jpeg",3,2,2,NA,"HouseObjects",2,"stim/objects/HouseObjects/teapot.png",4,"right","right",0.606000185,1,1,1
"61",13,61,0.7,"stim/42.jpeg",4,2,2,NA,"Instruments",1,"stim/objects/Instruments/pipepiano2.png",1,"left","left",0.538000107,1,1,1
"62",13,62,0.3,"stim/34.jpeg",3,4,2,NA,"Instruments",1,"stim/objects/Instruments/tuba.png",2,"left","right",0.569999933,0,0,1
"63",13,63,0.3,"stim/42.jpeg",4,2,2,NA,"HouseObjects",2,"stim/objects/HouseObjects/remote2.png",2,"right","left",0.684000015,0,0,1
"64",13,64,0.3,"stim/31.jpeg",3,1,2,NA,"Instruments",1,"stim/objects/Instruments/triangle.png",3,"left","right",0.847999811,0,0,1
"65",13,65,0.5,"stim/14.jpeg",1,4,1,NA,"HouseObjects",2,"stim/objects/HouseObjects/rug.png",1,"right","left",0.83100009,0,0,1
"66",13,66,0.7,"stim/32.jpeg",3,2,2,NA,"HouseObjects",2,"stim/objects/HouseObjects/teapot.png",4,"right","",NA,0,0,1
"67",13,67,0.5,"stim/21.jpeg",2,1,1,NA,"Instruments",1,"stim/objects/Instruments/saxophone.png",4,"left","right",0.873000145,0,0,1
"68",13,68,0.5,"stim/12.jpeg",1,2,1,NA,"Instruments",1,"stim/objects/Instruments/pipepiano.png",4,"left","right",0.67599988,0,0,1
"69",13,69,0.9,"stim/62.jpeg",6,2,3,NA,"Instruments",1,"stim/objects/Instruments/trombone2.png",4,"left","left",0.598999977,1,1,1
"70",13,70,0.5,"stim/22.jpeg",2,2,1,NA,"Instruments",1,"stim/objects/Instruments/speaker.png",1,"left","left",0.728999853,1,1,1
"71",13,71,0.7,"stim/42.jpeg",4,2,2,NA,"Instruments",1,"stim/objects/Instruments/pipepiano2.png",4,"left","left",0.657000065,1,1,1
"72",13,72,0.5,"stim/24.jpeg",2,4,1,NA,"HouseObjects",2,"stim/objects/HouseObjects/sponge.png",2,"right","left",0.659000158,0,0,1
"73",13,73,0.9,"stim/51.jpeg",5,1,3,NA,"HouseObjects",2,"stim/objects/HouseObjects/safetypin2.png",2,"right","right",0.505000114,1,1,1
"74",13,74,0.3,"stim/44.jpeg",4,4,2,NA,"HouseObjects",2,"stim/objects/HouseObjects/rug2.png",2,"right","left",0.572000027,0,0,1
"75",13,75,0.7,"stim/43.jpeg",4,3,2,NA,"Instruments",1,"stim/objects/Instruments/record2.png",1,"left","right",0.496999979,0,0,1
"76",13,76,0.5,"stim/23.jpeg",2,3,1,NA,"Instruments",1,"stim/objects/Instruments/tambourine.png",3,"left","left",0.750999928,1,1,1
"77",13,77,0.9,"stim/61.jpeg",6,1,3,NA,"Instruments",1,"stim/objects/Instruments/triangle2.png",3,"left","left",0.57400012,1,1,1
"78",13,78,0.7,"stim/42.jpeg",4,2,2,NA,"Instruments",1,"stim/objects/Instruments/pipepiano2.png",3,"left","left",0.751999855,1,1,1
"79",13,79,0.7,"stim/41.jpeg",4,1,2,NA,"Instruments",1,"stim/objects/Instruments/panflute2.png",2,"left","right",0.772000074,0,0,1
"80",13,80,0.9,"stim/61.jpeg",6,1,3,NA,"Instruments",1,"stim/objects/Instruments/triangle2.png",3,"left","left",0.482999802,1,1,1
"81",13,81,0.5,"stim/22.jpeg",2,2,1,NA,"HouseObjects",2,"stim/objects/HouseObjects/saw.png",3,"right","left",0.764000177,0,0,1
"82",13,82,0.3,"stim/34.jpeg",3,4,2,NA,"Instruments",1,"stim/objects/Instruments/tuba.png",3,"left","right",0.691999912,0,0,1
"83",13,83,0.9,"stim/53.jpeg",5,3,3,NA,"HouseObjects",2,"stim/objects/HouseObjects/scale2.png",1,"right","right",0.56799984,1,1,1
"84",13,84,0.5,"stim/13.jpeg",1,3,1,NA,"HouseObjects",2,"stim/objects/HouseObjects/rubbergloves.png",3,"right","right",0.753000021,1,1,1
"85",13,85,0.7,"stim/43.jpeg",4,3,2,NA,"Instruments",1,"stim/objects/Instruments/record2.png",2,"left","left",0.927999973,1,1,1
"86",13,86,0.7,"stim/44.jpeg",4,4,2,NA,"Instruments",1,"stim/objects/Instruments/record_player2.png",4,"left","",NA,0,0,1
"87",13,87,0.5,"stim/12.jpeg",1,2,1,NA,"HouseObjects",2,"stim/objects/HouseObjects/remote.png",2,"right","right",0.710000038,1,1,1
"88",13,88,0.9,"stim/64.jpeg",6,4,3,NA,"Instruments",1,"stim/objects/Instruments/tuba2.png",2,"left","left",0.588000059,1,1,1
"89",13,89,0.5,"stim/13.jpeg",1,3,1,NA,"Instruments",1,"stim/objects/Instruments/record.png",1,"left","left",0.612999916,1,1,1
"90",13,90,0.5,"stim/11.jpeg",1,1,1,NA,"HouseObjects",2,"stim/objects/HouseObjects/recyclingbin.png",3,"right","right",0.655999899,1,1,1
"91",13,91,0.9,"stim/61.jpeg",6,1,3,NA,"Instruments",1,"stim/objects/Instruments/triangle2.png",4,"left","left",0.553999901,1,1,1
"92",13,92,0.5,"stim/14.jpeg",1,4,1,NA,"Instruments",1,"stim/objects/Instruments/record_player.png",4,"left","right",0.787000179,0,0,1
"93",13,93,0.5,"stim/23.jpeg",2,3,1,NA,"Instruments",1,"stim/objects/Instruments/tambourine.png",1,"left","left",0.619999886,1,1,1
"94",13,94,0.9,"stim/64.jpeg",6,4,3,NA,"Instruments",1,"stim/objects/Instruments/tuba2.png",1,"left","left",0.644000053,1,1,1
"95",13,95,0.7,"stim/42.jpeg",4,2,2,NA,"Instruments",1,"stim/objects/Instruments/pipepiano2.png",1,"left","left",0.752999783,1,1,1
"96",13,96,0.9,"stim/62.jpeg",6,2,3,NA,"Instruments",1,"stim/objects/Instruments/trombone2.png",4,"left","left",0.671999931,1,1,1
"97",13,97,0.7,"stim/32.jpeg",3,2,2,NA,"HouseObjects",2,"stim/objects/HouseObjects/teapot.png",1,"right","right",0.639999866,1,1,1
"98",13,98,0.9,"stim/53.jpeg",5,3,3,NA,"HouseObjects",2,"stim/objects/HouseObjects/scale2.png",1,"right","right",0.584000111,1,1,1
"99",13,99,0.5,"stim/23.jpeg",2,3,1,NA,"Instruments",1,"stim/objects/Instruments/tambourine.png",4,"left","left",0.640000105,1,1,1
"100",13,100,0.5,"stim/12.jpeg",1,2,1,NA,"HouseObjects",2,"stim/objects/HouseObjects/remote.png",2,"right","left",0.618999958,0,0,1
"101",13,101,0.9,"stim/63.jpeg",6,3,3,NA,"Instruments",1,"stim/objects/Instruments/trumpet2.png",3,"left","left",0.738999844,1,1,1
"102",13,102,0.9,"stim/63.jpeg",6,3,3,NA,"Instruments",1,"stim/objects/Instruments/trumpet2.png",4,"left","left",0.805000067,1,1,1
"103",13,103,0.7,"stim/31.jpeg",3,1,2,NA,"HouseObjects",2,"stim/objects/HouseObjects/spraybottle.png",4,"right","right",0.875,1,1,1
"104",13,104,0.5,"stim/23.jpeg",2,3,1,NA,"Instruments",1,"stim/objects/Instruments/tambourine.png",4,"left","",NA,0,0,1
"105",13,105,0.3,"stim/41.jpeg",4,1,2,NA,"HouseObjects",2,"stim/objects/HouseObjects/recyclingbin2.png",4,"right","left",0.771999836,0,0,1
"106",13,106,0.5,"stim/12.jpeg",1,2,1,NA,"HouseObjects",2,"stim/objects/HouseObjects/remote.png",3,"right","",NA,0,0,1
"107",13,107,0.9,"stim/62.jpeg",6,2,3,NA,"Instruments",1,"stim/objects/Instruments/trombone2.png",1,"left","left",0.603000164,1,1,1
"108",13,108,0.7,"stim/31.jpeg",3,1,2,NA,"HouseObjects",2,"stim/objects/HouseObjects/spraybottle.png",1,"right","right",0.648999929,1,1,1
"109",13,109,0.7,"stim/31.jpeg",3,1,2,NA,"HouseObjects",2,"stim/objects/HouseObjects/spraybottle.png",2,"right","right",0.726999998,1,1,1
"110",13,110,0.5,"stim/22.jpeg",2,2,1,NA,"Instruments",1,"stim/objects/Instruments/speaker.png",1,"left","left",0.519000053,1,1,1
"111",13,111,0.7,"stim/34.jpeg",3,4,2,NA,"HouseObjects",2,"stim/objects/HouseObjects/thread.png",2,"right","right",0.740999937,1,1,1
"112",13,112,0.9,"stim/51.jpeg",5,1,3,NA,"HouseObjects",2,"stim/objects/HouseObjects/safetypin2.png",1,"right","right",0.694999933,1,1,1
"113",13,113,0.5,"stim/21.jpeg",2,1,1,NA,"Instruments",1,"stim/objects/Instruments/saxophone.png",4,"left","left",0.703999996,1,1,1
"114",13,114,0.5,"stim/12.jpeg",1,2,1,NA,"Instruments",1,"stim/objects/Instruments/pipepiano.png",1,"left","right",0.532000065,0,0,1
"115",13,115,0.9,"stim/63.jpeg",6,3,3,NA,"Instruments",1,"stim/objects/Instruments/trumpet2.png",3,"left","left",0.606999874,1,1,1
"116",13,116,0.5,"stim/11.jpeg",1,1,1,NA,"Instruments",1,"stim/objects/Instruments/panflute.png",2,"left","right",0.691000223,0,0,1
"117",13,117,0.9,"stim/63.jpeg",6,3,3,NA,"Instruments",1,"stim/objects/Instruments/trumpet2.png",1,"left","left",0.573999882,1,1,1
"118",13,118,0.7,"stim/43.jpeg",4,3,2,NA,"Instruments",1,"stim/objects/Instruments/record2.png",1,"left","left",0.501999855,1,1,1
"119",13,119,0.9,"stim/61.jpeg",6,1,3,NA,"Instruments",1,"stim/objects/Instruments/triangle2.png",2,"left","left",0.605999947,1,1,1
"120",13,120,0.9,"stim/53.jpeg",5,3,3,NA,"HouseObjects",2,"stim/objects/HouseObjects/scale2.png",2,"right","right",0.611999989,1,1,1
"121",13,121,0.9,"stim/53.jpeg",5,3,3,NA,"HouseObjects",2,"stim/objects/HouseObjects/scale2.png",2,"right","right",0.619999886,1,1,1
"122",13,122,0.1,"stim/61.jpeg",6,1,3,NA,"HouseObjects",2,"stim/objects/HouseObjects/spraybottle2.png",2,"right","left",0.555999994,0,0,1
"123",13,123,0.5,"stim/13.jpeg",1,3,1,NA,"HouseObjects",2,"stim/objects/HouseObjects/rubbergloves.png",1,"right","right",0.635999918,1,1,1
"124",13,124,0.1,"stim/52.jpeg",5,2,3,NA,"Instruments",1,"stim/objects/Instruments/speaker2.png",3,"left","right",0.559999943,0,0,1
"125",13,125,0.3,"stim/41.jpeg",4,1,2,NA,"HouseObjects",2,"stim/objects/HouseObjects/recyclingbin2.png",4,"right","",NA,0,0,1
"126",13,126,0.5,"stim/21.jpeg",2,1,1,NA,"Instruments",1,"stim/objects/Instruments/saxophone.png",2,"left","left",0.70600009,1,1,1
"127",13,127,0.9,"stim/62.jpeg",6,2,3,NA,"Instruments",1,"stim/objects/Instruments/trombone2.png",1,"left","left",0.538000107,1,1,1
"128",13,128,0.9,"stim/52.jpeg",5,2,3,NA,"HouseObjects",2,"stim/objects/HouseObjects/saw2.png",4,"right","right",0.542999983,1,1,1
"129",13,129,0.7,"stim/44.jpeg",4,4,2,NA,"Instruments",1,"stim/objects/Instruments/record_player2.png",1,"left","left",0.638999939,1,1,1
"130",13,130,0.9,"stim/51.jpeg",5,1,3,NA,"HouseObjects",2,"stim/objects/HouseObjects/safetypin2.png",1,"right","right",0.573999882,1,1,1
"131",13,131,0.7,"stim/32.jpeg",3,2,2,NA,"HouseObjects",2,"stim/objects/HouseObjects/teapot.png",3,"right","left",0.734999895,0,0,1
"132",13,132,0.9,"stim/54.jpeg",5,4,3,NA,"HouseObjects",2,"stim/objects/HouseObjects/sponge2.png",1,"right","right",0.587000132,1,1,1
"133",13,133,0.3,"stim/32.jpeg",3,2,2,NA,"Instruments",1,"stim/objects/Instruments/trombone.png",3,"left","right",0.584000111,0,0,1
"134",13,134,0.9,"stim/63.jpeg",6,3,3,NA,"Instruments",1,"stim/objects/Instruments/trumpet2.png",2,"left","left",0.555000067,1,1,1
"135",13,135,0.5,"stim/24.jpeg",2,4,1,NA,"HouseObjects",2,"stim/objects/HouseObjects/sponge.png",2,"right","right",0.773999929,1,1,1
"136",13,136,0.9,"stim/53.jpeg",5,3,3,NA,"HouseObjects",2,"stim/objects/HouseObjects/scale2.png",2,"right","right",0.642999887,1,1,1
"137",13,137,0.5,"stim/11.jpeg",1,1,1,NA,"HouseObjects",2,"stim/objects/HouseObjects/recyclingbin.png",1,"right","left",0.734999895,0,0,1
"138",13,138,0.9,"stim/52.jpeg",5,2,3,NA,"HouseObjects",2,"stim/objects/HouseObjects/saw2.png",2,"right","right",0.539999962,1,1,1
"139",13,139,0.7,"stim/34.jpeg",3,4,2,NA,"HouseObjects",2,"stim/objects/HouseObjects/thread.png",4,"right","right",0.812000036,1,1,1
"140",13,140,0.9,"stim/54.jpeg",5,4,3,NA,"HouseObjects",2,"stim/objects/HouseObjects/sponge2.png",2,"right","right",0.621999979,1,1,1
"141",13,141,0.7,"stim/41.jpeg",4,1,2,NA,"Instruments",1,"stim/objects/Instruments/panflute2.png",1,"left","left",0.753999949,1,1,1
"142",13,142,0.9,"stim/52.jpeg",5,2,3,NA,"HouseObjects",2,"stim/objects/HouseObjects/saw2.png",2,"right","right",0.536999941,1,1,1
"143",13,143,0.7,"stim/33.jpeg",3,3,2,NA,"HouseObjects",2,"stim/objects/HouseObjects/thermometer.png",4,"right","right",0.588000059,1,1,1
"144",13,144,0.7,"stim/41.jpeg",4,1,2,NA,"Instruments",1,"stim/objects/Instruments/panflute2.png",2,"left","right",0.646999836,0,0,1
"145",13,145,0.7,"stim/44.jpeg",4,4,2,NA,"Instruments",1,"stim/objects/Instruments/record_player2.png",1,"left","left",0.836999893,1,1,1
"146",13,146,0.7,"stim/31.jpeg",3,1,2,NA,"HouseObjects",2,"stim/objects/HouseObjects/spraybottle.png",3,"right","left",0.726000071,0,0,1
"147",13,147,0.7,"stim/33.jpeg",3,3,2,NA,"HouseObjects",2,"stim/objects/HouseObjects/thermometer.png",4,"right","right",0.586999893,1,1,1
"148",13,148,0.5,"stim/23.jpeg",2,3,1,NA,"HouseObjects",2,"stim/objects/HouseObjects/scale.png",1,"right","left",0.820999861,0,0,1
"149",13,149,0.9,"stim/51.jpeg",5,1,3,NA,"HouseObjects",2,"stim/objects/HouseObjects/safetypin2.png",2,"right","right",0.558000088,1,1,1
"150",13,150,0.5,"stim/24.jpeg",2,4,1,NA,"Instruments",1,"stim/objects/Instruments/timbal.png",3,"left","left",0.910000086,1,1,1
"151",13,151,0.9,"stim/54.jpeg",5,4,3,NA,"HouseObjects",2,"stim/objects/HouseObjects/sponge2.png",3,"right","right",0.537999868,1,1,1
"152",13,152,0.5,"stim/14.jpeg",1,4,1,NA,"Instruments",1,"stim/objects/Instruments/record_player.png",3,"left","right",0.59800005,0,0,1
"153",13,153,0.5,"stim/12.jpeg",1,2,1,NA,"HouseObjects",2,"stim/objects/HouseObjects/remote.png",1,"right","right",0.729000092,1,1,1
"154",13,154,0.5,"stim/23.jpeg",2,3,1,NA,"HouseObjects",2,"stim/objects/HouseObjects/scale.png",4,"right","left",0.884000063,0,0,1
"155",13,155,0.5,"stim/12.jpeg",1,2,1,NA,"Instruments",1,"stim/objects/Instruments/pipepiano.png",4,"left","right",0.671000004,0,0,1
"156",13,156,0.9,"stim/54.jpeg",5,4,3,NA,"HouseObjects",2,"stim/objects/HouseObjects/sponge2.png",2,"right","right",0.588000059,1,1,1
"157",13,157,0.9,"stim/51.jpeg",5,1,3,NA,"HouseObjects",2,"stim/objects/HouseObjects/safetypin2.png",4,"right","right",0.597000122,1,1,1
"158",13,158,0.5,"stim/11.jpeg",1,1,1,NA,"Instruments",1,"stim/objects/Instruments/panflute.png",4,"left","",NA,0,0,1
"159",13,159,0.7,"stim/31.jpeg",3,1,2,NA,"HouseObjects",2,"stim/objects/HouseObjects/spraybottle.png",4,"right","right",0.823999882,1,1,1
"160",13,160,0.9,"stim/63.jpeg",6,3,3,NA,"Instruments",1,"stim/objects/Instruments/trumpet2.png",4,"left","left",0.856000185,1,1,1
"161",13,161,0.9,"stim/52.jpeg",5,2,3,NA,"HouseObjects",2,"stim/objects/HouseObjects/saw2.png",3,"right","right",0.645999908,1,1,1
"162",13,162,0.5,"stim/14.jpeg",1,4,1,NA,"HouseObjects",2,"stim/objects/HouseObjects/rug.png",4,"right","right",0.51699996,1,1,1
"163",13,163,0.5,"stim/22.jpeg",2,2,1,NA,"HouseObjects",2,"stim/objects/HouseObjects/saw.png",2,"right","right",0.769000053,1,1,1
"164",13,164,0.7,"stim/33.jpeg",3,3,2,NA,"HouseObjects",2,"stim/objects/HouseObjects/thermometer.png",2,"right","right",0.645999908,1,1,1
"165",13,165,0.7,"stim/41.jpeg",4,1,2,NA,"Instruments",1,"stim/objects/Instruments/panflute2.png",1,"left","left",0.713999987,1,1,1
"166",13,166,0.7,"stim/32.jpeg",3,2,2,NA,"HouseObjects",2,"stim/objects/HouseObjects/teapot.png",1,"right","right",0.828999996,1,1,1
"167",13,167,0.9,"stim/51.jpeg",5,1,3,NA,"HouseObjects",2,"stim/objects/HouseObjects/safetypin2.png",4,"right","right",0.833999872,1,1,1
"168",13,168,0.3,"stim/31.jpeg",3,1,2,NA,"Instruments",1,"stim/objects/Instruments/triangle.png",2,"left","right",0.544000149,0,0,1
"169",13,169,0.9,"stim/62.jpeg",6,2,3,NA,"Instruments",1,"stim/objects/Instruments/trombone2.png",1,"left","left",0.506000042,1,1,1
"170",13,170,0.5,"stim/24.jpeg",2,4,1,NA,"Instruments",1,"stim/objects/Instruments/timbal.png",2,"left","left",0.739000082,1,1,1
"171",13,171,0.9,"stim/64.jpeg",6,4,3,NA,"Instruments",1,"stim/objects/Instruments/tuba2.png",2,"left","left",0.624000072,1,1,1
"172",13,172,0.7,"stim/42.jpeg",4,2,2,NA,"Instruments",1,"stim/objects/Instruments/pipepiano2.png",4,"left","left",0.686000109,1,1,1
"173",13,173,0.9,"stim/51.jpeg",5,1,3,NA,"HouseObjects",2,"stim/objects/HouseObjects/safetypin2.png",3,"right","right",0.626000166,1,1,1
"174",13,174,0.5,"stim/24.jpeg",2,4,1,NA,"Instruments",1,"stim/objects/Instruments/timbal.png",3,"left","left",0.679999828,1,1,1
"175",13,175,0.7,"stim/34.jpeg",3,4,2,NA,"HouseObjects",2,"stim/objects/HouseObjects/thread.png",2,"right","right",0.649999857,1,1,1
"176",13,176,0.7,"stim/41.jpeg",4,1,2,NA,"Instruments",1,"stim/objects/Instruments/panflute2.png",1,"left","left",0.68200016,1,1,1
"177",13,177,0.3,"stim/42.jpeg",4,2,2,NA,"HouseObjects",2,"stim/objects/HouseObjects/remote2.png",3,"right","left",0.660000086,0,0,1
"178",13,178,0.5,"stim/24.jpeg",2,4,1,NA,"HouseObjects",2,"stim/objects/HouseObjects/sponge.png",2,"right","left",0.67200017,0,0,1
"179",13,179,0.1,"stim/53.jpeg",5,3,3,NA,"Instruments",1,"stim/objects/Instruments/tambourine2.png",4,"left","right",0.674999952,0,0,1
"180",13,180,0.5,"stim/11.jpeg",1,1,1,NA,"Instruments",1,"stim/objects/Instruments/panflute.png",1,"left","",NA,0,0,1
"181",13,181,0.9,"stim/64.jpeg",6,4,3,NA,"Instruments",1,"stim/objects/Instruments/tuba2.png",3,"left","left",0.480000019,1,1,1
"182",13,182,0.5,"stim/13.jpeg",1,3,1,NA,"Instruments",1,"stim/objects/Instruments/record.png",1,"left","left",0.703999996,1,1,1
"183",13,183,0.9,"stim/51.jpeg",5,1,3,NA,"HouseObjects",2,"stim/objects/HouseObjects/safetypin2.png",4,"right","right",0.457999945,1,1,1
"184",13,184,0.7,"stim/34.jpeg",3,4,2,NA,"HouseObjects",2,"stim/objects/HouseObjects/thread.png",4,"right","",NA,0,0,1
"185",13,185,0.9,"stim/61.jpeg",6,1,3,NA,"Instruments",1,"stim/objects/Instruments/triangle2.png",4,"left","left",0.638999939,1,1,1
"186",13,186,0.5,"stim/21.jpeg",2,1,1,NA,"HouseObjects",2,"stim/objects/HouseObjects/safetypin.png",4,"right","right",0.720999956,1,1,1
"187",13,187,0.3,"stim/43.jpeg",4,3,2,NA,"HouseObjects",2,"stim/objects/HouseObjects/rubbergloves2.png",3,"right","left",0.618999958,0,0,1
"188",13,188,0.9,"stim/61.jpeg",6,1,3,NA,"Instruments",1,"stim/objects/Instruments/triangle2.png",2,"left","left",0.657000065,1,1,1
"189",13,189,0.5,"stim/24.jpeg",2,4,1,NA,"Instruments",1,"stim/objects/Instruments/timbal.png",4,"left","right",0.556999922,0,0,1
"190",13,190,0.9,"stim/52.jpeg",5,2,3,NA,"HouseObjects",2,"stim/objects/HouseObjects/saw2.png",3,"right","right",0.515000105,1,1,1
"191",13,191,0.9,"stim/62.jpeg",6,2,3,NA,"Instruments",1,"stim/objects/Instruments/trombone2.png",4,"left","left",0.572000027,1,1,1
"192",13,192,0.9,"stim/52.jpeg",5,2,3,NA,"HouseObjects",2,"stim/objects/HouseObjects/saw2.png",2,"right","right",0.606999874,1,1,1
"193",13,193,0.5,"stim/22.jpeg",2,2,1,NA,"Instruments",1,"stim/objects/Instruments/speaker.png",3,"left","left",0.823999882,1,1,1
"194",13,194,0.7,"stim/43.jpeg",4,3,2,NA,"Instruments",1,"stim/objects/Instruments/record2.png",4,"left","left",0.625,1,1,1
"195",13,195,0.5,"stim/13.jpeg",1,3,1,NA,"Instruments",1,"stim/objects/Instruments/record.png",3,"left","left",0.855999947,1,1,1
"196",13,196,0.3,"stim/41.jpeg",4,1,2,NA,"HouseObjects",2,"stim/objects/HouseObjects/recyclingbin2.png",3,"right","left",0.861999989,0,0,1
"197",13,197,0.5,"stim/22.jpeg",2,2,1,NA,"Instruments",1,"stim/objects/Instruments/speaker.png",4,"left","right",0.847999811,0,0,1
"198",13,198,0.7,"stim/31.jpeg",3,1,2,NA,"HouseObjects",2,"stim/objects/HouseObjects/spraybottle.png",3,"right","right",0.854999781,1,1,1
"199",13,199,0.9,"stim/63.jpeg",6,3,3,NA,"Instruments",1,"stim/objects/Instruments/trumpet2.png",2,"left","left",0.587000132,1,1,1
"200",13,200,0.5,"stim/24.jpeg",2,4,1,NA,"HouseObjects",2,"stim/objects/HouseObjects/sponge.png",2,"right","right",0.789000034,1,1,1
"201",13,201,0.7,"stim/32.jpeg",3,2,2,NA,"HouseObjects",2,"stim/objects/HouseObjects/teapot.png",1,"right","right",0.721999884,1,1,1
"202",13,202,0.5,"stim/14.jpeg",1,4,1,NA,"Instruments",1,"stim/objects/Instruments/record_player.png",4,"left","left",0.856999874,1,1,1
"203",13,203,0.7,"stim/31.jpeg",3,1,2,NA,"HouseObjects",2,"stim/objects/HouseObjects/spraybottle.png",2,"right","right",0.72300005,1,1,1
"204",13,204,0.9,"stim/54.jpeg",5,4,3,NA,"HouseObjects",2,"stim/objects/HouseObjects/sponge2.png",3,"right","right",0.670000076,1,1,1
"205",13,205,0.9,"stim/64.jpeg",6,4,3,NA,"Instruments",1,"stim/objects/Instruments/tuba2.png",3,"left","left",0.656000137,1,1,1
"206",13,206,0.5,"stim/22.jpeg",2,2,1,NA,"HouseObjects",2,"stim/objects/HouseObjects/saw.png",1,"right","left",0.808999777,0,0,1
"207",13,207,0.9,"stim/63.jpeg",6,3,3,NA,"Instruments",1,"stim/objects/Instruments/trumpet2.png",3,"left","left",0.629999876,1,1,1
"208",13,208,0.7,"stim/33.jpeg",3,3,2,NA,"HouseObjects",2,"stim/objects/HouseObjects/thermometer.png",2,"right","right",0.677000046,1,1,1
"209",13,209,0.5,"stim/13.jpeg",1,3,1,NA,"HouseObjects",2,"stim/objects/HouseObjects/rubbergloves.png",3,"right","left",0.809000015,0,0,1
"210",13,210,0.5,"stim/12.jpeg",1,2,1,NA,"Instruments",1,"stim/objects/Instruments/pipepiano.png",3,"left","right",0.739000082,0,0,1
"211",13,211,0.5,"stim/21.jpeg",2,1,1,NA,"Instruments",1,"stim/objects/Instruments/saxophone.png",3,"left","",NA,0,0,1
"212",13,212,0.5,"stim/12.jpeg",1,2,1,NA,"HouseObjects",2,"stim/objects/HouseObjects/remote.png",2,"right","right",0.728999853,1,1,1
"213",13,213,0.7,"stim/33.jpeg",3,3,2,NA,"HouseObjects",2,"stim/objects/HouseObjects/thermometer.png",1,"right","right",0.656000137,1,1,1
"214",13,214,0.9,"stim/62.jpeg",6,2,3,NA,"Instruments",1,"stim/objects/Instruments/trombone2.png",1,"left","left",0.568000078,1,1,1
"215",13,215,0.1,"stim/54.jpeg",5,4,3,NA,"Instruments",1,"stim/objects/Instruments/timbal2.png",1,"left","right",0.601999998,0,0,1
"216",13,216,0.5,"stim/11.jpeg",1,1,1,NA,"Instruments",1,"stim/objects/Instruments/panflute.png",2,"left","right",0.619999886,0,0,1
"217",13,217,0.9,"stim/53.jpeg",5,3,3,NA,"HouseObjects",2,"stim/objects/HouseObjects/scale2.png",1,"right","right",0.653000116,1,1,1
"218",13,218,0.5,"stim/23.jpeg",2,3,1,NA,"Instruments",1,"stim/objects/Instruments/tambourine.png",4,"left","left",0.672999859,1,1,1
"219",13,219,0.5,"stim/14.jpeg",1,4,1,NA,"HouseObjects",2,"stim/objects/HouseObjects/rug.png",3,"right","left",0.657000065,0,0,1
"220",13,220,0.9,"stim/64.jpeg",6,4,3,NA,"Instruments",1,"stim/objects/Instruments/tuba2.png",4,"left","left",0.607000113,1,1,1
"221",13,221,0.9,"stim/63.jpeg",6,3,3,NA,"Instruments",1,"stim/objects/Instruments/trumpet2.png",3,"left","left",0.601000071,1,1,1
"222",13,222,0.9,"stim/62.jpeg",6,2,3,NA,"Instruments",1,"stim/objects/Instruments/trombone2.png",1,"left","left",0.493999958,1,1,1
"223",13,223,0.7,"stim/43.jpeg",4,3,2,NA,"Instruments",1,"stim/objects/Instruments/record2.png",1,"left","right",0.68200016,0,0,1
"224",13,224,0.5,"stim/22.jpeg",2,2,1,NA,"Instruments",1,"stim/objects/Instruments/speaker.png",4,"left","right",0.668000221,0,0,1
"225",13,225,0.9,"stim/62.jpeg",6,2,3,NA,"Instruments",1,"stim/objects/Instruments/trombone2.png",1,"left","left",0.595999956,1,1,1
"226",13,226,0.5,"stim/12.jpeg",1,2,1,NA,"Instruments",1,"stim/objects/Instruments/pipepiano.png",2,"left","right",0.575999975,0,0,1
"227",13,227,0.9,"stim/51.jpeg",5,1,3,NA,"HouseObjects",2,"stim/objects/HouseObjects/safetypin2.png",3,"right","right",0.630000114,1,1,1
"228",13,228,0.7,"stim/43.jpeg",4,3,2,NA,"Instruments",1,"stim/objects/Instruments/record2.png",3,"left","left",0.58100009,1,1,1
"229",13,229,0.3,"stim/31.jpeg",3,1,2,NA,"Instruments",1,"stim/objects/Instruments/triangle.png",2,"left","left",0.713999987,1,1,1
"230",13,230,0.9,"stim/53.jpeg",5,3,3,NA,"HouseObjects",2,"stim/objects/HouseObjects/scale2.png",1,"right","right",0.576999903,1,1,1
"231",13,231,0.5,"stim/14.jpeg",1,4,1,NA,"HouseObjects",2,"stim/objects/HouseObjects/rug.png",2,"right","right",0.769000053,1,1,1
"232",13,232,0.5,"stim/21.jpeg",2,1,1,NA,"HouseObjects",2,"stim/objects/HouseObjects/safetypin.png",3,"right","left",0.703000069,0,0,1
"233",13,233,0.3,"stim/34.jpeg",3,4,2,NA,"Instruments",1,"stim/objects/Instruments/tuba.png",3,"left","right",0.707999945,0,0,1
"234",13,234,0.7,"stim/41.jpeg",4,1,2,NA,"Instruments",1,"stim/objects/Instruments/panflute2.png",3,"left","left",0.68599987,1,1,1
"235",13,235,0.7,"stim/44.jpeg",4,4,2,NA,"Instruments",1,"stim/objects/Instruments/record_player2.png",1,"left","left",0.840999842,1,1,1
"236",13,236,0.5,"stim/23.jpeg",2,3,1,NA,"HouseObjects",2,"stim/objects/HouseObjects/scale.png",4,"right","right",0.722000122,1,1,1
"237",13,237,0.5,"stim/22.jpeg",2,2,1,NA,"HouseObjects",2,"stim/objects/HouseObjects/saw.png",1,"right","right",0.598999977,1,1,1
"238",13,238,0.7,"stim/41.jpeg",4,1,2,NA,"Instruments",1,"stim/objects/Instruments/panflute2.png",2,"left","left",0.672999859,1,1,1
"239",13,239,0.9,"stim/61.jpeg",6,1,3,NA,"Instruments",1,"stim/objects/Instruments/triangle2.png",2,"left","left",0.552999973,1,1,1
"240",13,240,0.3,"stim/32.jpeg",3,2,2,NA,"Instruments",1,"stim/objects/Instruments/trombone.png",2,"left","right",0.559000015,0,0,1
