"","participant","OvsN","PE_level","object_cat","obj_file","scn_file","corr_scn_cat","corr_scn_inst","scn_file.1","corr_loc","key_resp_id.keys","key_resp_id.rt","key_resp_conf.keys","key_resp_assoc.keys","key_resp_assoc.rt","key_resp_loc.keys","key_resp_loc.rt","trialN","id_acc","assoc.acc","cond_assoc","loc.acc","cond_loc","group"
"1",19,2,0,1,"stim/objects/HouseObjects/coffee4.png","",0,0,"",0,"right",0.956999779,NA,NA,NA,NA,NA,1,1,NA,NA,NA,NA,1
"2",19,1,0.7,1,"stim/objects/HouseObjects/broom2.png","stim/62.jpeg",6,2,"stim/62.jpeg",2,"left",0.76099968,3,1,4.434000015,2,4.147999763,2,1,0,0,1,1,1
"3",19,1,0.9,1,"stim/objects/HouseObjects/lintroller2.png","stim/24.jpeg",2,4,"stim/24.jpeg",4,"left",2.096999884,3,4,2.739000082,4,1.582999706,3,1,1,1,1,1,1
"4",19,2,0,1,"stim/objects/HouseObjects/recyclingbin3.png","",0,0,"",0,"right",1.030999899,NA,NA,NA,NA,NA,4,1,NA,NA,NA,NA,1
"5",19,1,0.1,2,"stim/objects/Instruments/musicstand2.png","stim/24.jpeg",2,4,"stim/24.jpeg",3,"left",1.267999649,4,3,3.190999746,2,1.75999999,5,1,0,0,0,0,1
"6",19,2,0,2,"stim/objects/Instruments/cornet3.png","",0,0,"",0,"left",1.46999979,NA,NA,NA,NA,NA,6,0,NA,NA,NA,NA,1
"7",19,1,0.1,2,"stim/objects/Instruments/metronome2.png","stim/22.jpeg",2,2,"stim/22.jpeg",3,"left",1.368999958,4,3,2.980999947,3,1.624999762,7,1,0,0,1,1,1
"8",19,2,0,1,"stim/objects/HouseObjects/glass3.png","",0,0,"",0,"right",1.261999846,NA,NA,NA,NA,NA,8,1,NA,NA,NA,NA,1
"9",19,2,0,2,"stim/objects/Instruments/clarinet3.png","",0,0,"",0,"left",1.241999865,NA,NA,NA,NA,NA,9,0,NA,NA,NA,NA,1
"10",19,1,0.9,1,"stim/objects/HouseObjects/match2.png","stim/21.jpeg",2,1,"stim/21.jpeg",2,"left",1.213999748,2,2,1.889999866,1,1.592999935,10,1,0,0,0,0,1
"11",19,1,0.1,1,"stim/objects/HouseObjects/dustpan2.png","stim/12.jpeg",1,2,"stim/12.jpeg",2,"left",1.03399992,3,3,2.639999866,3,3.130999804,11,1,0,0,0,0,1
"12",19,1,0.3,1,"stim/objects/HouseObjects/recyclingbin.png","stim/53.jpeg",5,3,"stim/53.jpeg",1,"left",0.906999826,4,1,3.353999853,1,0.875999689,12,1,0,0,1,1,1
"13",19,2,0,2,"stim/objects/Instruments/chime4.png","",0,0,"",0,"right",0.944999695,NA,NA,NA,NA,NA,13,1,NA,NA,NA,NA,1
"14",19,1,0.9,2,"stim/objects/Instruments/harp2.png","stim/12.jpeg",1,2,"stim/12.jpeg",2,"left",0.858999729,3,2,2.890999794,2,1.218999863,14,1,1,1,1,1,1
"15",19,1,0.5,1,"stim/objects/Instruments/guitarcase.png","stim/32.jpeg",3,2,"stim/32.jpeg",2,"left",1.566999912,4,2,4.564999819,1,1.24000001,15,1,1,1,0,0,1
"16",19,2,0,2,"stim/objects/Instruments/flute3.png","",0,0,"",0,"right",1.36199975,NA,NA,NA,NA,NA,16,1,NA,NA,NA,NA,1
"17",19,2,0,1,"stim/objects/HouseObjects/basket4.png","",0,0,"",0,"right",0.856999874,NA,NA,NA,NA,NA,17,1,NA,NA,NA,NA,1
"18",19,2,0,1,"stim/objects/HouseObjects/ashtray4.png","",0,0,"",0,"left",1.348999739,NA,NA,NA,NA,NA,18,0,NA,NA,NA,NA,1
"19",19,1,0.1,1,"stim/objects/HouseObjects/hairdryer2.png","stim/13.jpeg",1,3,"stim/13.jpeg",4,"left",1.672999859,2,2,4.023999929,3,2.693000078,19,1,0,0,0,0,1
"20",19,2,0,2,"stim/objects/Instruments/cymbal4.png","",0,0,"",0,"left",1.038999796,NA,NA,NA,NA,NA,20,0,NA,NA,NA,NA,1
"21",19,1,0.7,2,"stim/objects/Instruments/acousticguitar2.png","stim/54.jpeg",5,4,"stim/54.jpeg",1,"left",0.807999849,4,4,4.875999928,1,0.602999926,21,1,1,1,1,1,1
"22",19,2,0,2,"stim/objects/Instruments/doublebass4.png","",0,0,"",0,"left",1.575999975,NA,NA,NA,NA,NA,22,0,NA,NA,NA,NA,1
"23",19,1,0.9,2,"stim/objects/Instruments/flutetrans2.png","stim/14.jpeg",1,4,"stim/14.jpeg",4,"left",0.940999746,3,4,3.674000025,1,1.779999971,23,1,1,1,0,0,1
"24",19,1,0.9,2,"stim/objects/Instruments/frenchhorn2.png","stim/11.jpeg",1,1,"stim/11.jpeg",1,"left",1.078999758,2,1,3.677999735,4,1.447000027,24,1,1,1,0,0,1
"25",19,2,0,2,"stim/objects/Instruments/banjo4.png","",0,0,"",0,"left",1.176999807,NA,NA,NA,NA,NA,25,0,NA,NA,NA,NA,1
"26",19,1,0.3,1,"stim/objects/HouseObjects/basket2.png","stim/51.jpeg",5,1,"stim/51.jpeg",3,"right",1.438999891,2,3,5.187999964,2,3.150999784,26,0,0,NA,0,NA,1
"27",19,2,0,2,"stim/objects/Instruments/electricdrumset4.png","",0,0,"",0,"right",1.585000038,NA,NA,NA,NA,NA,27,1,NA,NA,NA,NA,1
"28",19,2,0,2,"stim/objects/Instruments/cornet4.png","",0,0,"",0,"right",1.039000034,NA,NA,NA,NA,NA,28,1,NA,NA,NA,NA,1
"29",19,1,0.7,1,"stim/objects/HouseObjects/dishsoap2.png","stim/61.jpeg",6,1,"stim/61.jpeg",1,"left",0.888999939,4,3,4.511999846,1,0.712999821,29,1,0,0,1,1,1
"30",19,1,0.1,2,"stim/objects/Instruments/marimba2.png","stim/21.jpeg",2,1,"stim/21.jpeg",2,"right",1.159999847,2,1,2.47699976,2,1.015999794,30,0,1,NA,1,NA,1
"31",19,2,0,1,"stim/objects/HouseObjects/ironingboard3.png","",0,0,"",0,"right",0.8349998,NA,NA,NA,NA,NA,31,1,NA,NA,NA,NA,1
"32",19,2,0,1,"stim/objects/HouseObjects/iron3.png","",0,0,"",0,"left",0.957000017,NA,NA,NA,NA,NA,32,0,NA,NA,NA,NA,1
"33",19,1,0.7,1,"stim/objects/HouseObjects/cushion2.png","stim/64.jpeg",6,4,"stim/64.jpeg",3,"right",1.193999767,3,4,2.473999977,4,1.677999735,33,0,1,NA,0,NA,1
"34",19,2,0,1,"stim/objects/HouseObjects/pan3.png","",0,0,"",0,"left",0.92599988,NA,NA,NA,NA,NA,34,0,NA,NA,NA,NA,1
"35",19,1,0.3,2,"stim/objects/Instruments/electricdrumset2.png","stim/62.jpeg",6,2,"stim/62.jpeg",4,"left",1.930999756,2,3,2.753999949,2,1.25,35,1,0,0,0,0,1
"36",19,2,0,2,"stim/objects/Instruments/bassdrum4.png","",0,0,"",0,"right",0.839999676,NA,NA,NA,NA,NA,36,1,NA,NA,NA,NA,1
"37",19,2,0,1,"stim/objects/HouseObjects/broom4.png","",0,0,"",0,"left",0.796999931,NA,NA,NA,NA,NA,37,0,NA,NA,NA,NA,1
"38",19,1,0.3,2,"stim/objects/Instruments/electricguitar2.png","stim/63.jpeg",6,3,"stim/63.jpeg",1,"left",1.114999771,3,1,2.911000013,2,1.302999735,38,1,0,0,0,0,1
"39",19,2,0,2,"stim/objects/Instruments/frenchhorn3.png","",0,0,"",0,"left",1.216999769,NA,NA,NA,NA,NA,39,0,NA,NA,NA,NA,1
"40",19,2,0,2,"stim/objects/Instruments/accordion3.png","",0,0,"",0,"left",0.922999859,NA,NA,NA,NA,NA,40,0,NA,NA,NA,NA,1
"41",19,1,0.9,2,"stim/objects/Instruments/gong2.png","stim/12.jpeg",1,2,"stim/12.jpeg",2,"right",1.432999849,3,3,2.39199996,2,0.792999983,41,0,0,NA,1,NA,1
"42",19,1,0.7,1,"stim/objects/HouseObjects/clothespin2.png","stim/62.jpeg",6,2,"stim/62.jpeg",4,"left",0.891000032,4,4,4.180999756,1,3.588000059,42,1,0,0,0,0,1
"43",19,1,0.3,1,"stim/objects/HouseObjects/pan.png","stim/51.jpeg",5,1,"stim/51.jpeg",4,"left",0.902999878,3,4,3.048999786,4,3.746000051,43,1,0,0,1,1,1
"44",19,2,0,1,"stim/objects/HouseObjects/dishsoap3.png","",0,0,"",0,"right",1.155999899,NA,NA,NA,NA,NA,44,1,NA,NA,NA,NA,1
"45",19,1,0.5,2,"stim/objects/Instruments/marimba.png","stim/42.jpeg",4,2,"stim/42.jpeg",4,"left",0.904999733,4,3,5.831999779,1,1.491999865,45,1,0,0,0,0,1
"46",19,2,0,1,"stim/objects/HouseObjects/clock3.png","",0,0,"",0,"right",0.957999945,NA,NA,NA,NA,NA,46,1,NA,NA,NA,NA,1
"47",19,1,0.9,1,"stim/objects/HouseObjects/remote2.png","stim/21.jpeg",2,1,"stim/21.jpeg",2,"left",1.009999752,4,3,2.713999748,4,3.215999842,47,1,0,0,0,0,1
"48",19,2,0,1,"stim/objects/HouseObjects/basket3.png","",0,0,"",0,"right",0.813999891,NA,NA,NA,NA,NA,48,1,NA,NA,NA,NA,1
"49",19,1,0.3,2,"stim/objects/Instruments/bassguitar2.png","stim/62.jpeg",6,2,"stim/62.jpeg",3,"left",0.829999685,3,4,3.089999914,1,1.693999767,49,1,0,0,0,0,1
"50",19,1,0.5,2,"stim/objects/HouseObjects/lintroller.png","stim/44.jpeg",4,4,"stim/44.jpeg",1,"left",1.172999859,3,3,1.770999908,2,1.150999784,50,1,0,0,0,0,1
"51",19,2,0,1,"stim/objects/HouseObjects/bottle4.png","",0,0,"",0,"right",0.81799984,NA,NA,NA,NA,NA,51,1,NA,NA,NA,NA,1
"52",19,2,0,1,"stim/objects/HouseObjects/ballofstring3.png","",0,0,"",0,"right",1.02699995,NA,NA,NA,NA,NA,52,1,NA,NA,NA,NA,1
"53",19,2,0,2,"stim/objects/Instruments/marimba3.png","",0,0,"",0,"right",0.860999823,NA,NA,NA,NA,NA,53,1,NA,NA,NA,NA,1
"54",19,1,0.9,2,"stim/objects/Instruments/flute2.png","stim/13.jpeg",1,3,"stim/13.jpeg",3,"left",1.343999863,3,2,2.529999971,2,1.773999929,54,1,0,0,0,0,1
"55",19,2,0,1,"stim/objects/HouseObjects/bucket4.png","",0,0,"",0,"right",1.348999739,NA,NA,NA,NA,NA,55,1,NA,NA,NA,NA,1
"56",19,1,0.1,2,"stim/objects/Instruments/panflute2.png","stim/22.jpeg",2,2,"stim/22.jpeg",1,"left",0.815999746,4,1,2.184999943,4,1.653999805,56,1,0,0,0,0,1
"57",19,2,0,2,"stim/objects/Instruments/electricguitar3.png","",0,0,"",0,"right",0.761999846,NA,NA,NA,NA,NA,57,1,NA,NA,NA,NA,1
"58",19,1,0.7,2,"stim/objects/Instruments/balalaika2.png","stim/51.jpeg",5,1,"stim/51.jpeg",3,"left",1.274999857,3,3,4.051999807,1,1.29399991,58,1,0,0,0,0,1
"59",19,2,0,2,"stim/objects/Instruments/flutetrans3.png","",0,0,"",0,"right",0.828999996,NA,NA,NA,NA,NA,59,1,NA,NA,NA,NA,1
"60",19,2,0,2,"stim/objects/Instruments/record3.png","",0,0,"",0,"left",0.933999777,NA,NA,NA,NA,NA,60,0,NA,NA,NA,NA,1
"61",19,2,0,2,"stim/objects/Instruments/cello4.png","",0,0,"",0,"right",0.916999817,NA,NA,NA,NA,NA,61,1,NA,NA,NA,NA,1
"62",19,1,0.7,1,"stim/objects/HouseObjects/bottle2.png","stim/61.jpeg",6,1,"stim/61.jpeg",4,"left",0.780999899,4,4,1.972999811,2,2.465999842,62,1,0,0,0,0,1
"63",19,2,0,2,"stim/objects/Instruments/acousticguitar3.png","",0,0,"",0,"right",0.736999989,NA,NA,NA,NA,NA,63,1,NA,NA,NA,NA,1
"64",19,1,0.1,1,"stim/objects/HouseObjects/doormat2.png","stim/11.jpeg",1,1,"stim/11.jpeg",4,"right",0.747999907,2,4,2.309999943,1,2.51699996,64,0,0,NA,0,NA,1
"65",19,1,0.5,2,"stim/objects/HouseObjects/match.png","stim/41.jpeg",4,1,"stim/41.jpeg",1,"right",1.88599968,2,3,1.678999901,2,2.125,65,0,0,NA,0,NA,1
"66",19,2,0,1,"stim/objects/HouseObjects/lintroller3.png","",0,0,"",0,"right",0.870999813,NA,NA,NA,NA,NA,66,1,NA,NA,NA,NA,1
"67",19,2,0,1,"stim/objects/HouseObjects/bleachbottle4.png","",0,0,"",0,"right",0.638999939,NA,NA,NA,NA,NA,67,1,NA,NA,NA,NA,1
"68",19,2,0,2,"stim/objects/Instruments/chime3.png","",0,0,"",0,"right",0.649999857,NA,NA,NA,NA,NA,68,1,NA,NA,NA,NA,1
"69",19,2,0,1,"stim/objects/HouseObjects/glassmop3.png","",0,0,"",0,"right",1.054999828,NA,NA,NA,NA,NA,69,1,NA,NA,NA,NA,1
"70",19,2,0,2,"stim/objects/Instruments/drums4.png","",0,0,"",0,"right",0.787999868,NA,NA,NA,NA,NA,70,1,NA,NA,NA,NA,1
"71",19,2,0,2,"stim/objects/Instruments/musicsheet3.png","",0,0,"",0,"right",1.203999996,NA,NA,NA,NA,NA,71,1,NA,NA,NA,NA,1
"72",19,2,0,2,"stim/objects/Instruments/pipepiano3.png","",0,0,"",0,"left",2.115999937,NA,NA,NA,NA,NA,72,0,NA,NA,NA,NA,1
"73",19,2,0,1,"stim/objects/HouseObjects/match3.png","",0,0,"",0,"right",0.974999666,NA,NA,NA,NA,NA,73,1,NA,NA,NA,NA,1
"74",19,2,0,1,"stim/objects/HouseObjects/clothespin4.png","",0,0,"",0,"right",0.796999931,NA,NA,NA,NA,NA,74,1,NA,NA,NA,NA,1
"75",19,2,0,1,"stim/objects/HouseObjects/garbagebin3.png","",0,0,"",0,"right",0.730999708,NA,NA,NA,NA,NA,75,1,NA,NA,NA,NA,1
"76",19,1,0.1,1,"stim/objects/HouseObjects/handbrush2.png","stim/14.jpeg",1,4,"stim/14.jpeg",2,"right",1.162999868,3,3,3.078999758,2,0.870999813,76,0,0,NA,1,NA,1
"77",19,1,0.3,2,"stim/objects/Instruments/cornet2.png","stim/62.jpeg",6,2,"stim/62.jpeg",2,"left",1.199999809,4,3,4.949999809,2,1.52699995,77,1,0,0,1,1,1
"78",19,2,0,1,"stim/objects/HouseObjects/clothespin3.png","",0,0,"",0,"right",0.76099968,NA,NA,NA,NA,NA,78,1,NA,NA,NA,NA,1
"79",19,2,0,1,"stim/objects/HouseObjects/coffee3.png","",0,0,"",0,"right",0.663999796,NA,NA,NA,NA,NA,79,1,NA,NA,NA,NA,1
"80",19,2,0,2,"stim/objects/Instruments/electricguitar4.png","",0,0,"",0,"right",0.635999918,NA,NA,NA,NA,NA,80,1,NA,NA,NA,NA,1
"81",19,2,0,1,"stim/objects/HouseObjects/barbecuelighter3.png","",0,0,"",0,"left",1.282999754,NA,NA,NA,NA,NA,81,0,NA,NA,NA,NA,1
"82",19,2,0,2,"stim/objects/Instruments/metronome3.png","",0,0,"",0,"right",1.774999857,NA,NA,NA,NA,NA,82,1,NA,NA,NA,NA,1
"83",19,2,0,1,"stim/objects/HouseObjects/clock4.png","",0,0,"",0,"right",0.760999918,NA,NA,NA,NA,NA,83,1,NA,NA,NA,NA,1
"84",19,1,0.5,1,"stim/objects/HouseObjects/handbrush.png","stim/31.jpeg",3,1,"stim/31.jpeg",4,"right",0.540999889,2,1,4.362999916,2,1.210000038,84,0,1,NA,0,NA,1
"85",19,2,0,2,"stim/objects/Instruments/balalaika4.png","",0,0,"",0,"right",1.036999941,NA,NA,NA,NA,NA,85,1,NA,NA,NA,NA,1
"86",19,2,0,1,"stim/objects/HouseObjects/flyswatter3.png","",0,0,"",0,"right",0.828999758,NA,NA,NA,NA,NA,86,1,NA,NA,NA,NA,1
"87",19,2,0,1,"stim/objects/HouseObjects/clothesdryingrack4.png","",0,0,"",0,"right",0.572999716,NA,NA,NA,NA,NA,87,1,NA,NA,NA,NA,1
"88",19,1,0.5,2,"stim/objects/Instruments/metronome.png","stim/43.jpeg",4,3,"stim/43.jpeg",3,"left",0.949999809,4,3,3.412999868,3,2.766999722,88,1,1,1,1,1,1
"89",19,2,0,1,"stim/objects/HouseObjects/bleachbottle3.png","",0,0,"",0,"right",1.376999855,NA,NA,NA,NA,NA,89,1,NA,NA,NA,NA,1
"90",19,1,0.7,2,"stim/objects/Instruments/accordion2.png","stim/53.jpeg",5,3,"stim/53.jpeg",4,"right",0.963999748,2,4,2.297999859,2,3.034999847,90,0,0,NA,0,NA,1
"91",19,2,0,2,"stim/objects/Instruments/doublebass3.png","",0,0,"",0,"left",1.177999735,NA,NA,NA,NA,NA,91,0,NA,NA,NA,NA,1
"92",19,2,0,1,"stim/objects/HouseObjects/rubbergloves3.png","",0,0,"",0,"right",0.713999748,NA,NA,NA,NA,NA,92,1,NA,NA,NA,NA,1
"93",19,1,0.7,1,"stim/objects/HouseObjects/clothesdryingrack2.png","stim/61.jpeg",6,1,"stim/61.jpeg",4,"right",1.402999878,2,4,1.755999804,4,1.857999802,93,0,0,NA,1,NA,1
"94",19,1,0.9,2,"stim/objects/Instruments/keyboard2.png","stim/14.jpeg",1,4,"stim/14.jpeg",2,"right",1.386999846,1,1,1.801999807,3,2.328999996,94,0,0,NA,0,NA,1
"95",19,1,0.5,2,"stim/objects/Instruments/maraca.png","stim/41.jpeg",4,1,"stim/41.jpeg",3,"left",1.125999928,4,1,2.118999958,3,1.753000021,95,1,1,1,1,1,1
"96",19,2,0,2,"stim/objects/Instruments/maraca3.png","",0,0,"",0,"right",1.184999704,NA,NA,NA,NA,NA,96,1,NA,NA,NA,NA,1
"97",19,1,0.5,2,"stim/objects/Instruments/laud.png","stim/44.jpeg",4,4,"stim/44.jpeg",1,"left",0.912999868,3,3,5.251999855,1,1.945999861,97,1,0,0,1,1,1
"98",19,1,0.5,1,"stim/objects/HouseObjects/hairdryer.png","stim/34.jpeg",3,4,"stim/34.jpeg",3,"left",0.980999947,3,1,2.600999832,3,1.322000027,98,1,0,0,1,1,1
"99",19,1,0.5,1,"stim/objects/HouseObjects/handvacuum.png","stim/32.jpeg",3,2,"stim/32.jpeg",2,"right",1.462999821,2,4,3.939999819,2,2.464999676,99,0,0,NA,1,NA,1
"100",19,1,0.3,1,"stim/objects/HouseObjects/pitcher.png","stim/52.jpeg",5,2,"stim/52.jpeg",2,"right",0.789999723,2,1,2.255999804,2,2.759999752,100,0,0,NA,1,NA,1
"101",19,1,0.1,1,"stim/objects/HouseObjects/handvacuum2.png","stim/11.jpeg",1,1,"stim/11.jpeg",2,"right",0.888999939,1,4,2.106999874,1,1.136999846,101,0,0,NA,0,NA,1
"102",19,1,0.1,1,"stim/objects/HouseObjects/glass2.png","stim/11.jpeg",1,1,"stim/11.jpeg",4,"left",1.074999809,3,3,1.776000023,4,2.574999809,102,1,0,0,1,1,1
"103",19,2,0,2,"stim/objects/Instruments/electricdrumset3.png","",0,0,"",0,"right",0.763000011,NA,NA,NA,NA,NA,103,1,NA,NA,NA,NA,1
"104",19,2,0,2,"stim/objects/Instruments/bassguitar3.png","",0,0,"",0,"left",1.011999846,NA,NA,NA,NA,NA,104,0,NA,NA,NA,NA,1
"105",19,1,0.7,1,"stim/objects/HouseObjects/coffee2.png","stim/63.jpeg",6,3,"stim/63.jpeg",1,"right",0.91899991,1,4,1.921000004,4,1.301999807,105,0,0,NA,0,NA,1
"106",19,2,0,2,"stim/objects/Instruments/harp3.png","",0,0,"",0,"right",0.953999996,NA,NA,NA,NA,NA,106,1,NA,NA,NA,NA,1
"107",19,2,0,2,"stim/objects/Instruments/balalaika3.png","",0,0,"",0,"left",0.753999949,NA,NA,NA,NA,NA,107,0,NA,NA,NA,NA,1
"108",19,1,0.3,2,"stim/objects/Instruments/chime2.png","stim/64.jpeg",6,4,"stim/64.jpeg",1,"left",1.247999907,4,1,2.458999872,2,1.776000023,108,1,0,0,0,0,1
"109",19,1,0.9,2,"stim/objects/Instruments/grandpiano2.png","stim/13.jpeg",1,3,"stim/13.jpeg",1,"right",0.81099987,1,2,2.180000067,3,2.761999846,109,0,0,NA,0,NA,1
"110",19,1,0.3,1,"stim/objects/HouseObjects/ballofstring2.png","stim/53.jpeg",5,3,"stim/53.jpeg",3,"right",0.784999847,2,1,1.542999744,1,1.064999819,110,0,0,NA,0,NA,1
"111",19,1,0.1,2,"stim/objects/Instruments/record2.png","stim/24.jpeg",2,4,"stim/24.jpeg",3,"left",0.833999872,4,1,2.240999699,4,1.906999826,111,1,0,0,0,0,1
"112",19,2,0,2,"stim/objects/Instruments/banjo3.png","",0,0,"",0,"right",0.871999979,NA,NA,NA,NA,NA,112,1,NA,NA,NA,NA,1
"113",19,2,0,1,"stim/objects/HouseObjects/blender3.png","",0,0,"",0,"right",0.878999949,NA,NA,NA,NA,NA,113,1,NA,NA,NA,NA,1
"114",19,1,0.5,2,"stim/objects/HouseObjects/ironingboard.png","stim/41.jpeg",4,1,"stim/41.jpeg",3,"left",0.818999767,3,3,2.05099988,3,3.114999771,114,1,0,0,1,1,1
"115",19,2,0,1,"stim/objects/HouseObjects/bottle3.png","",0,0,"",0,"right",0.63599968,NA,NA,NA,NA,NA,115,1,NA,NA,NA,NA,1
"116",19,1,0.3,1,"stim/objects/HouseObjects/rubbergloves.png","stim/51.jpeg",5,1,"stim/51.jpeg",1,"right",0.911999702,2,4,1.757999897,3,2.386999846,116,0,0,NA,0,NA,1
"117",19,2,0,1,"stim/objects/HouseObjects/handvacuum3.png","",0,0,"",0,"right",1.43599987,NA,NA,NA,NA,NA,117,1,NA,NA,NA,NA,1
"118",19,2,0,2,"stim/objects/Instruments/oboe3.png","",0,0,"",0,"right",1.11199975,NA,NA,NA,NA,NA,118,1,NA,NA,NA,NA,1
"119",19,2,0,1,"stim/objects/HouseObjects/knife3.png","",0,0,"",0,"right",0.71600008,NA,NA,NA,NA,NA,119,1,NA,NA,NA,NA,1
"120",19,2,0,2,"stim/objects/Instruments/acousticguitar4.png","",0,0,"",0,"right",0.678999901,NA,NA,NA,NA,NA,120,1,NA,NA,NA,NA,1
"121",19,1,0.3,1,"stim/objects/HouseObjects/barbecuelighter2.png","stim/54.jpeg",5,4,"stim/54.jpeg",1,"left",1.037999868,4,1,1.772999763,3,1.901999712,121,1,0,0,0,0,1
"122",19,1,0.9,1,"stim/objects/HouseObjects/recyclingbin2.png","stim/24.jpeg",2,4,"stim/24.jpeg",1,"right",1.85199976,2,3,3.123999834,4,2.244999886,122,0,0,NA,0,NA,1
"123",19,1,0.1,1,"stim/objects/HouseObjects/glassmop2.png","stim/12.jpeg",1,2,"stim/12.jpeg",3,"left",0.941999912,4,1,3.25,1,1.694000006,123,1,0,0,0,0,1
"124",19,1,0.7,2,"stim/objects/Instruments/bassdrum2.png","stim/53.jpeg",5,3,"stim/53.jpeg",2,"right",0.69299984,2,1,4.757999897,2,1.335999966,124,0,0,NA,1,NA,1
"125",19,2,0,1,"stim/objects/HouseObjects/barbecuelighter4.png","",0,0,"",0,"right",0.895999908,NA,NA,NA,NA,NA,125,1,NA,NA,NA,NA,1
"126",19,1,0.7,1,"stim/objects/HouseObjects/blender2.png","stim/64.jpeg",6,4,"stim/64.jpeg",2,"right",0.67299962,2,3,3.573999882,3,1.462999821,126,0,0,NA,0,NA,1
"127",19,1,0.5,1,"stim/objects/Instruments/harmonica.png","stim/33.jpeg",3,3,"stim/33.jpeg",3,"right",0.681999683,1,4,2.308999777,1,1.183999777,127,0,0,NA,0,NA,1
"128",19,2,0,2,"stim/objects/Instruments/grandpiano3.png","",0,0,"",0,"left",0.961999893,NA,NA,NA,NA,NA,128,0,NA,NA,NA,NA,1
"129",19,1,0.1,2,"stim/objects/Instruments/pipepiano2.png","stim/23.jpeg",2,3,"stim/23.jpeg",3,"right",1.027999878,2,2,1.875999928,2,1.823999882,129,0,0,NA,0,NA,1
"130",19,2,0,1,"stim/objects/HouseObjects/bucket3.png","",0,0,"",0,"right",0.681999922,NA,NA,NA,NA,NA,130,1,NA,NA,NA,NA,1
"131",19,2,0,1,"stim/objects/HouseObjects/handbrush3.png","",0,0,"",0,"left",0.720000029,NA,NA,NA,NA,NA,131,0,NA,NA,NA,NA,1
"132",19,2,0,1,"stim/objects/HouseObjects/doormat3.png","",0,0,"",0,"right",0.746999979,NA,NA,NA,NA,NA,132,1,NA,NA,NA,NA,1
"133",19,1,0.1,1,"stim/objects/HouseObjects/iron2.png","stim/12.jpeg",1,2,"stim/12.jpeg",4,"left",4.428999901,3,3,2.60199976,4,1.763999701,133,1,0,0,1,1,1
"134",19,1,0.7,2,"stim/objects/Instruments/panflute.png","stim/54.jpeg",5,4,"stim/54.jpeg",4,"right",0.78399992,3,3,0.963999987,2,1.325999975,134,0,0,NA,0,NA,1
"135",19,2,0,1,"stim/objects/HouseObjects/ballofstring4.png","",0,0,"",0,"right",1.665999889,NA,NA,NA,NA,NA,135,1,NA,NA,NA,NA,1
"136",19,2,0,1,"stim/objects/HouseObjects/remote3.png","",0,0,"",0,"right",0.700999737,NA,NA,NA,NA,NA,136,1,NA,NA,NA,NA,1
"137",19,1,0.7,2,"stim/objects/Instruments/banjo2.png","stim/52.jpeg",5,2,"stim/52.jpeg",1,"left",0.977999687,3,4,1.288999796,4,1.514999866,137,1,0,0,0,0,1
"138",19,1,0.9,1,"stim/objects/HouseObjects/knife2.png","stim/23.jpeg",2,3,"stim/23.jpeg",3,"right",0.613999844,2,1,1.47699976,1,1.345999718,138,0,0,NA,0,NA,1
"139",19,2,0,2,"stim/objects/Instruments/accordion4.png","",0,0,"",0,"right",0.561999798,NA,NA,NA,NA,NA,139,1,NA,NA,NA,NA,1
"140",19,1,0.5,2,"stim/objects/HouseObjects/knife.png","stim/43.jpeg",4,3,"stim/43.jpeg",1,"right",0.546000004,1,3,2.14199996,2,2.995999813,140,0,1,NA,0,NA,1
"141",19,1,0.3,2,"stim/objects/Instruments/clarinet2.png","stim/61.jpeg",6,1,"stim/61.jpeg",3,"left",1.162999868,4,1,3.250999928,1,1.32799983,141,1,1,1,0,0,1
"142",19,2,0,2,"stim/objects/Instruments/harmonica3.png","",0,0,"",0,"right",1.240999937,NA,NA,NA,NA,NA,142,1,NA,NA,NA,NA,1
"143",19,1,0.5,1,"stim/objects/Instruments/keyboard.png","stim/32.jpeg",3,2,"stim/32.jpeg",2,"right",0.767999649,2,3,1.859999895,3,1.511999846,143,0,0,NA,0,NA,1
"144",19,1,0.5,2,"stim/objects/HouseObjects/key.png","stim/42.jpeg",4,2,"stim/42.jpeg",4,"left",1.036000013,2,3,1.580999851,3,1.628000021,144,1,0,0,0,0,1
"145",19,2,0,2,"stim/objects/Instruments/musicstand3.png","",0,0,"",0,"right",0.759999752,NA,NA,NA,NA,NA,145,1,NA,NA,NA,NA,1
"146",19,2,0,2,"stim/objects/Instruments/clarinet4.png","",0,0,"",0,"left",0.966999769,NA,NA,NA,NA,NA,146,0,NA,NA,NA,NA,1
"147",19,2,0,2,"stim/objects/Instruments/cymbal3.png","",0,0,"",0,"right",2.313999891,NA,NA,NA,NA,NA,147,1,NA,NA,NA,NA,1
"148",19,2,0,2,"stim/objects/Instruments/keyboard3.png","",0,0,"",0,"right",0.797999859,NA,NA,NA,NA,NA,148,1,NA,NA,NA,NA,1
"149",19,2,0,2,"stim/objects/Instruments/cello3.png","",0,0,"",0,"left",0.717000008,NA,NA,NA,NA,NA,149,0,NA,NA,NA,NA,1
"150",19,1,0.5,1,"stim/objects/HouseObjects/glassmop.png","stim/33.jpeg",3,3,"stim/33.jpeg",1,"right",2.428999901,2,3,1.343999863,2,1.149999857,150,0,1,NA,0,NA,1
"151",19,2,0,2,"stim/objects/Instruments/laud3.png","",0,0,"",0,"right",0.824999809,NA,NA,NA,NA,NA,151,1,NA,NA,NA,NA,1
"152",19,2,0,1,"stim/objects/HouseObjects/clothesdryingrack3.png","",0,0,"",0,"right",0.727999687,NA,NA,NA,NA,NA,152,1,NA,NA,NA,NA,1
"153",19,1,0.3,2,"stim/objects/Instruments/doublebass2.png","stim/64.jpeg",6,4,"stim/64.jpeg",2,"right",1.098999977,3,3,1.309999943,1,1.4599998,153,0,0,NA,0,NA,1
"154",19,1,0.1,1,"stim/objects/HouseObjects/flyswatter2.png","stim/13.jpeg",1,3,"stim/13.jpeg",3,"right",0.716999769,2,3,1.627999783,4,1.573999643,154,0,1,NA,0,NA,1
"155",19,1,0.7,2,"stim/objects/Instruments/record.png","stim/52.jpeg",5,2,"stim/52.jpeg",3,"left",0.853999853,3,2,1.249999762,1,2.734999895,155,1,1,1,0,0,1
"156",19,2,0,1,"stim/objects/HouseObjects/blender4.png","",0,0,"",0,"left",0.985999823,NA,NA,NA,NA,NA,156,0,NA,NA,NA,NA,1
"157",19,2,0,1,"stim/objects/HouseObjects/pitcher3.png","",0,0,"",0,"right",0.765999794,NA,NA,NA,NA,NA,157,1,NA,NA,NA,NA,1
"158",19,1,0.7,1,"stim/objects/HouseObjects/clock2.png","stim/64.jpeg",6,4,"stim/64.jpeg",1,"left",0.917999744,3,4,1.994999886,4,1.194999933,158,1,1,1,0,0,1
"159",19,1,0.1,1,"stim/objects/HouseObjects/garbagebin2.png","stim/14.jpeg",1,4,"stim/14.jpeg",3,"right",0.921999693,2,1,1.958999872,4,1.362999916,159,0,0,NA,0,NA,1
"160",19,2,0,1,"stim/objects/HouseObjects/hairdryer3.png","",0,0,"",0,"right",0.689999819,NA,NA,NA,NA,NA,160,1,NA,NA,NA,NA,1
"161",19,2,0,1,"stim/objects/HouseObjects/broom3.png","",0,0,"",0,"right",0.699999809,NA,NA,NA,NA,NA,161,1,NA,NA,NA,NA,1
"162",19,1,0.9,2,"stim/objects/Instruments/guitarcase2.png","stim/14.jpeg",1,4,"stim/14.jpeg",4,"left",1.4599998,3,1,1.476999998,2,0.947000027,162,1,0,0,0,0,1
"163",19,1,0.9,1,"stim/objects/HouseObjects/pan2.png","stim/22.jpeg",2,2,"stim/22.jpeg",3,"left",1.233999968,3,2,2.924999952,2,0.991999865,163,1,1,1,0,0,1
"164",19,2,0,2,"stim/objects/Instruments/gong3.png","",0,0,"",0,"left",1.581999779,NA,NA,NA,NA,NA,164,0,NA,NA,NA,NA,1
"165",19,2,0,1,"stim/objects/HouseObjects/ashtray3.png","",0,0,"",0,"left",0.860999823,NA,NA,NA,NA,NA,165,0,NA,NA,NA,NA,1
"166",19,2,0,1,"stim/objects/HouseObjects/key3.png","",0,0,"",0,"right",0.878999949,NA,NA,NA,NA,NA,166,1,NA,NA,NA,NA,1
"167",19,1,0.5,2,"stim/objects/Instruments/musicsheet.png","stim/44.jpeg",4,4,"stim/44.jpeg",2,"left",0.90899992,3,2,2.078999758,2,2.857999802,167,1,0,0,1,1,1
"168",19,2,0,2,"stim/objects/Instruments/bassguitar4.png","",0,0,"",0,"right",0.663999796,NA,NA,NA,NA,NA,168,1,NA,NA,NA,NA,1
"169",19,1,0.3,1,"stim/objects/HouseObjects/remote.png","stim/54.jpeg",5,4,"stim/54.jpeg",3,"right",0.552999735,1,1,1.553999901,3,1.979999781,169,0,0,NA,1,NA,1
"170",19,2,0,2,"stim/objects/Instruments/bassdrum3.png","",0,0,"",0,"right",0.652999878,NA,NA,NA,NA,NA,170,1,NA,NA,NA,NA,1
"171",19,1,0.1,2,"stim/objects/Instruments/oboe2.png","stim/21.jpeg",2,1,"stim/21.jpeg",4,"right",1.002999783,2,4,2.57799983,1,0.877999783,171,0,0,NA,0,NA,1
"172",19,1,0.9,1,"stim/objects/HouseObjects/rubbergloves2.png","stim/22.jpeg",2,2,"stim/22.jpeg",4,"right",0.635999918,2,1,1.333999872,3,2.471999884,172,0,0,NA,0,NA,1
"173",19,2,0,2,"stim/objects/Instruments/hihat3.png","",0,0,"",0,"right",1.153999805,NA,NA,NA,NA,NA,173,1,NA,NA,NA,NA,1
"174",19,1,0.3,2,"stim/objects/Instruments/cello2.png","stim/63.jpeg",6,3,"stim/63.jpeg",4,"left",0.852999926,4,1,2.15899992,3,1.815999746,174,1,0,0,0,0,1
"175",19,1,0.7,2,"stim/objects/Instruments/pipepiano.png","stim/51.jpeg",5,1,"stim/51.jpeg",4,"left",1.178999901,3,3,1.372999907,2,1.399999857,175,1,0,0,0,0,1
"176",19,1,0.1,2,"stim/objects/Instruments/maraca2.png","stim/24.jpeg",2,4,"stim/24.jpeg",4,"left",1.270999908,2,2,1.431999922,4,2.649999619,176,1,0,0,1,1,1
"177",19,1,0.7,1,"stim/objects/HouseObjects/bucket2.png","stim/63.jpeg",6,3,"stim/63.jpeg",4,"left",0.889999866,3,4,1.691999912,1,1.462999821,177,1,0,0,0,0,1
"178",19,1,0.9,1,"stim/objects/HouseObjects/ironingboard2.png","stim/21.jpeg",2,1,"stim/21.jpeg",4,"left",0.830999851,3,4,1.570999861,2,0.996999741,178,1,0,0,0,0,1
"179",19,1,0.1,2,"stim/objects/Instruments/musicsheet2.png","stim/23.jpeg",2,3,"stim/23.jpeg",4,"left",1.240999937,3,3,2.392999887,2,1.645999908,179,1,1,1,0,0,1
"180",19,1,0.1,2,"stim/objects/Instruments/laud2.png","stim/23.jpeg",2,3,"stim/23.jpeg",4,"right",0.757999897,2,3,1.876999855,1,1.174999952,180,0,1,NA,0,NA,1
"181",19,2,0,1,"stim/objects/HouseObjects/dustpan3.png","",0,0,"",0,"right",0.720999718,NA,NA,NA,NA,NA,181,1,NA,NA,NA,NA,1
"182",19,1,0.9,2,"stim/objects/Instruments/hihat2.png","stim/13.jpeg",1,3,"stim/13.jpeg",3,"right",0.662999868,2,2,1.597999811,3,2.100999832,182,0,0,NA,1,NA,1
"183",19,1,0.7,2,"stim/objects/Instruments/musicstand.png","stim/52.jpeg",5,2,"stim/52.jpeg",2,"right",1.363999844,2,1,0.950000048,4,1.166999817,183,0,0,NA,0,NA,1
"184",19,2,0,2,"stim/objects/Instruments/guitarcase3.png","",0,0,"",0,"right",0.772999763,NA,NA,NA,NA,NA,184,1,NA,NA,NA,NA,1
"185",19,1,0.5,1,"stim/objects/Instruments/harp.png","stim/34.jpeg",3,4,"stim/34.jpeg",2,"left",0.712999821,3,4,1.621999741,2,2.5,185,1,1,1,1,1,1
"186",19,1,0.3,2,"stim/objects/Instruments/drums2.png","stim/61.jpeg",6,1,"stim/61.jpeg",3,"right",0.733999729,1,1,1.495999813,1,1.623999834,186,0,1,NA,0,NA,1
"187",19,2,0,1,"stim/objects/HouseObjects/cushion3.png","",0,0,"",0,"right",0.906999826,NA,NA,NA,NA,NA,187,1,NA,NA,NA,NA,1
"188",19,1,0.3,1,"stim/objects/HouseObjects/ashtray2.png","stim/52.jpeg",5,2,"stim/52.jpeg",3,"right",0.92599988,2,3,1.500999928,1,1.507999897,188,0,0,NA,0,NA,1
"189",19,2,0,2,"stim/objects/Instruments/panflute3.png","",0,0,"",0,"right",0.839999676,NA,NA,NA,NA,NA,189,1,NA,NA,NA,NA,1
"190",19,1,0.9,1,"stim/objects/HouseObjects/pitcher2.png","stim/23.jpeg",2,3,"stim/23.jpeg",2,"left",0.895999908,3,1,1.7099998,4,0.893999815,190,1,0,0,0,0,1
"191",19,1,0.3,1,"stim/objects/HouseObjects/bleachbottle2.png","stim/52.jpeg",5,2,"stim/52.jpeg",4,"left",1.826999903,4,2,2.232999802,2,0.929999828,191,1,1,1,0,0,1
"192",19,2,0,1,"stim/objects/HouseObjects/cushion4.png","",0,0,"",0,"right",0.849999666,NA,NA,NA,NA,NA,192,1,NA,NA,NA,NA,1
"193",19,2,0,1,"stim/objects/HouseObjects/dishsoap4.png","",0,0,"",0,"right",0.743999958,NA,NA,NA,NA,NA,193,1,NA,NA,NA,NA,1
"194",19,1,0.7,2,"stim/objects/Instruments/oboe.png","stim/53.jpeg",5,3,"stim/53.jpeg",1,"right",0.700999975,2,3,1.373999834,2,0.989999771,194,0,1,NA,0,NA,1
"195",19,1,0.5,1,"stim/objects/HouseObjects/iron.png","stim/33.jpeg",3,3,"stim/33.jpeg",2,"right",0.783999681,2,2,2.263999701,4,0.923999786,195,0,0,NA,0,NA,1
"196",19,1,0.9,1,"stim/objects/HouseObjects/key2.png","stim/22.jpeg",2,2,"stim/22.jpeg",3,"right",0.816999674,2,3,2.431999922,3,1.45299983,196,0,0,NA,1,NA,1
"197",19,1,0.9,2,"stim/objects/Instruments/harmonica2.png","stim/11.jpeg",1,1,"stim/11.jpeg",3,"left",1.764999866,3,1,1.4599998,1,0.730999708,197,1,1,1,0,0,1
"198",19,2,0,2,"stim/objects/Instruments/drums3.png","",0,0,"",0,"left",1.264999866,NA,NA,NA,NA,NA,198,0,NA,NA,NA,NA,1
"199",19,1,0.5,1,"stim/objects/Instruments/hihat.png","stim/31.jpeg",3,1,"stim/31.jpeg",4,"right",1.340999842,2,3,1.186999798,4,1.054999828,199,0,0,NA,1,NA,1
"200",19,1,0.3,2,"stim/objects/Instruments/cymbal2.png","stim/63.jpeg",6,3,"stim/63.jpeg",3,"left",1.173999786,3,4,1.633999825,3,2.005999804,200,1,0,0,1,1,1
