"","obj_file","X.x","participant.x","trialN.x","trial_cond","scn_file.x","scn_cat","scn_inst","scn_condition","fillers","obj_cat","obj_cat_num","quadrant","corr_ans","key_resp_trial.keys","key_resp_trial.rt","trial_acc","trial_acc_manual","group.x","practice","X.y","participant.y","OvsN","PE_level","object_cat","scn_file.y","corr_scn_cat","corr_scn_inst","scn_file.1","corr_loc","key_resp_id.keys","key_resp_id.rt","key_resp_conf.keys","key_resp_assoc.keys","key_resp_assoc.rt","key_resp_loc.keys","key_resp_loc.rt","trialN.y","id_acc","assoc.acc","cond_assoc","loc.acc","cond_loc","group.y"
"200","stim/objects/Instruments/trumpet2.png",1,19,1,0.9,"stim/14.jpeg",1,4,3,NA,"Instruments",2,2,"right","",NA,0,0,1,1,NA,NA,NA,NA,NA,NA,NA,NA,NA,NA,NA,NA,NA,NA,NA,NA,NA,NA,NA,NA,NA,NA,NA,NA
"186","stim/objects/Instruments/trombone2.png",2,19,2,0.9,"stim/13.jpeg",1,3,3,NA,"Instruments",2,2,"right","",NA,0,0,1,1,NA,NA,NA,NA,NA,NA,NA,NA,NA,NA,NA,NA,NA,NA,NA,NA,NA,NA,NA,NA,NA,NA,NA,NA
"209","stim/objects/Instruments/tuba.png",3,19,3,0.7,"stim/51.jpeg",5,1,2,NA,"Instruments",2,1,"right","",NA,0,0,1,1,NA,NA,NA,NA,NA,NA,NA,NA,NA,NA,NA,NA,NA,NA,NA,NA,NA,NA,NA,NA,NA,NA,NA,NA
"129","stim/objects/Instruments/saxophone.png",4,19,4,0.5,"stim/32.jpeg",3,2,1,NA,"Instruments",2,3,"right","",NA,0,0,1,1,NA,NA,NA,NA,NA,NA,NA,NA,NA,NA,NA,NA,NA,NA,NA,NA,NA,NA,NA,NA,NA,NA,NA,NA
"112","stim/objects/HouseObjects/wateringcan2.png",5,19,5,0.9,"stim/24.jpeg",2,4,3,NA,"HouseObjects",1,4,"left","",NA,0,0,1,1,NA,NA,NA,NA,NA,NA,NA,NA,NA,NA,NA,NA,NA,NA,NA,NA,NA,NA,NA,NA,NA,NA,NA,NA
"153","stim/objects/Instruments/timbal.png",6,19,6,0.5,"stim/41.jpeg",4,1,1,NA,"Instruments",2,2,"right","",NA,0,0,1,1,NA,NA,NA,NA,NA,NA,NA,NA,NA,NA,NA,NA,NA,NA,NA,NA,NA,NA,NA,NA,NA,NA,NA,NA
"216","stim/objects/Instruments/tuba2.png",7,19,7,0.1,"stim/21.jpeg",2,1,3,NA,"Instruments",2,1,"right","",NA,0,0,1,1,NA,NA,NA,NA,NA,NA,NA,NA,NA,NA,NA,NA,NA,NA,NA,NA,NA,NA,NA,NA,NA,NA,NA,NA
"130","stim/objects/Instruments/saxophone.png",8,19,8,0.5,"stim/32.jpeg",3,2,1,NA,"Instruments",2,1,"right","",NA,0,0,1,1,NA,NA,NA,NA,NA,NA,NA,NA,NA,NA,NA,NA,NA,NA,NA,NA,NA,NA,NA,NA,NA,NA,NA,NA
"76","stim/objects/HouseObjects/thread2.png",9,19,9,0.9,"stim/21.jpeg",2,1,3,NA,"HouseObjects",1,2,"left","",NA,0,0,1,1,NA,NA,NA,NA,NA,NA,NA,NA,NA,NA,NA,NA,NA,NA,NA,NA,NA,NA,NA,NA,NA,NA,NA,NA
"77","stim/objects/HouseObjects/thread2.png",10,19,10,0.9,"stim/21.jpeg",2,1,3,NA,"HouseObjects",1,4,"left","",NA,0,0,1,1,NA,NA,NA,NA,NA,NA,NA,NA,NA,NA,NA,NA,NA,NA,NA,NA,NA,NA,NA,NA,NA,NA,NA,NA
"187","stim/objects/Instruments/trombone2.png",11,19,11,0.9,"stim/13.jpeg",1,3,3,NA,"Instruments",2,3,"right","",NA,0,0,1,1,NA,NA,NA,NA,NA,NA,NA,NA,NA,NA,NA,NA,NA,NA,NA,NA,NA,NA,NA,NA,NA,NA,NA,NA
"217","stim/objects/Instruments/violin.png",12,19,12,0.7,"stim/52.jpeg",5,2,2,NA,"Instruments",2,4,"right","",NA,0,0,1,1,NA,NA,NA,NA,NA,NA,NA,NA,NA,NA,NA,NA,NA,NA,NA,NA,NA,NA,NA,NA,NA,NA,NA,NA
"97","stim/objects/HouseObjects/vacuumcleaner.png",13,19,13,0.3,"stim/53.jpeg",5,3,2,NA,"HouseObjects",1,3,"left","",NA,0,0,1,1,NA,NA,NA,NA,NA,NA,NA,NA,NA,NA,NA,NA,NA,NA,NA,NA,NA,NA,NA,NA,NA,NA,NA,NA
"188","stim/objects/Instruments/trombone2.png",14,19,14,0.9,"stim/13.jpeg",1,3,3,NA,"Instruments",2,4,"right","",NA,0,0,1,1,NA,NA,NA,NA,NA,NA,NA,NA,NA,NA,NA,NA,NA,NA,NA,NA,NA,NA,NA,NA,NA,NA,NA,NA
"134","stim/objects/Instruments/saxophone2.png",15,19,15,0.3,"stim/62.jpeg",6,2,2,NA,"Instruments",2,3,"right","",NA,0,0,1,1,NA,NA,NA,NA,NA,NA,NA,NA,NA,NA,NA,NA,NA,NA,NA,NA,NA,NA,NA,NA,NA,NA,NA,NA
"78","stim/objects/HouseObjects/thread2.png",16,19,16,0.9,"stim/21.jpeg",2,1,3,NA,"HouseObjects",1,1,"left","right",0.328000069,0,0,1,1,NA,NA,NA,NA,NA,NA,NA,NA,NA,NA,NA,NA,NA,NA,NA,NA,NA,NA,NA,NA,NA,NA,NA,NA
"49","stim/objects/HouseObjects/sponge.png",17,19,17,0.5,"stim/41.jpeg",4,1,1,NA,"HouseObjects",1,3,"left","",NA,0,0,1,1,NA,NA,NA,NA,NA,NA,NA,NA,NA,NA,NA,NA,NA,NA,NA,NA,NA,NA,NA,NA,NA,NA,NA,NA
"181","stim/objects/Instruments/trombone.png",18,19,18,0.5,"stim/43.jpeg",4,3,1,NA,"Instruments",2,4,"right","right",0.441000223,1,1,1,1,NA,NA,NA,NA,NA,NA,NA,NA,NA,NA,NA,NA,NA,NA,NA,NA,NA,NA,NA,NA,NA,NA,NA,NA
"88","stim/objects/HouseObjects/towel2.png",19,19,19,0.9,"stim/22.jpeg",2,2,3,NA,"HouseObjects",1,2,"left","",NA,0,0,1,1,NA,NA,NA,NA,NA,NA,NA,NA,NA,NA,NA,NA,NA,NA,NA,NA,NA,NA,NA,NA,NA,NA,NA,NA
"30","stim/objects/HouseObjects/saw2.png",20,19,20,0.7,"stim/63.jpeg",6,3,2,NA,"HouseObjects",1,4,"left","",NA,0,0,1,1,NA,NA,NA,NA,NA,NA,NA,NA,NA,NA,NA,NA,NA,NA,NA,NA,NA,NA,NA,NA,NA,NA,NA,NA
"126","stim/objects/Instruments/record_player2.png",21,19,21,0.3,"stim/61.jpeg",6,1,2,NA,"Instruments",2,3,"right","",NA,0,0,1,1,NA,NA,NA,NA,NA,NA,NA,NA,NA,NA,NA,NA,NA,NA,NA,NA,NA,NA,NA,NA,NA,NA,NA,NA
"61","stim/objects/HouseObjects/teapot.png",22,19,22,0.5,"stim/43.jpeg",4,3,1,NA,"HouseObjects",1,4,"left","",NA,0,0,1,1,NA,NA,NA,NA,NA,NA,NA,NA,NA,NA,NA,NA,NA,NA,NA,NA,NA,NA,NA,NA,NA,NA,NA,NA
"89","stim/objects/HouseObjects/towel2.png",23,19,23,0.9,"stim/22.jpeg",2,2,3,NA,"HouseObjects",1,4,"left","",NA,0,0,1,1,NA,NA,NA,NA,NA,NA,NA,NA,NA,NA,NA,NA,NA,NA,NA,NA,NA,NA,NA,NA,NA,NA,NA,NA
"201","stim/objects/Instruments/trumpet2.png",24,19,24,0.9,"stim/14.jpeg",1,4,3,NA,"Instruments",2,3,"right","left",0.601000071,0,0,1,1,NA,NA,NA,NA,NA,NA,NA,NA,NA,NA,NA,NA,NA,NA,NA,NA,NA,NA,NA,NA,NA,NA,NA,NA
"135","stim/objects/Instruments/saxophone2.png",25,19,25,0.3,"stim/62.jpeg",6,2,2,NA,"Instruments",2,4,"right","left",0.552999973,0,0,1,1,NA,NA,NA,NA,NA,NA,NA,NA,NA,NA,NA,NA,NA,NA,NA,NA,NA,NA,NA,NA,NA,NA,NA,NA
"13","stim/objects/HouseObjects/safetypin.png",26,19,26,0.5,"stim/32.jpeg",3,2,1,NA,"HouseObjects",1,3,"left","left",0.661999941,1,1,1,1,NA,NA,NA,NA,NA,NA,NA,NA,NA,NA,NA,NA,NA,NA,NA,NA,NA,NA,NA,NA,NA,NA,NA,NA
"210","stim/objects/Instruments/tuba.png",27,19,27,0.7,"stim/51.jpeg",5,1,2,NA,"Instruments",2,2,"right","left",0.577000141,0,0,1,1,NA,NA,NA,NA,NA,NA,NA,NA,NA,NA,NA,NA,NA,NA,NA,NA,NA,NA,NA,NA,NA,NA,NA,NA
"67","stim/objects/HouseObjects/thermometer.png",28,19,28,0.5,"stim/44.jpeg",4,4,1,NA,"HouseObjects",1,3,"left","left",0.661000013,1,1,1,1,NA,NA,NA,NA,NA,NA,NA,NA,NA,NA,NA,NA,NA,NA,NA,NA,NA,NA,NA,NA,NA,NA,NA,NA
"232","stim/objects/Instruments/vuvuzela2.png",29,19,29,0.1,"stim/23.jpeg",2,3,3,NA,"Instruments",2,2,"right","left",0.529999971,0,0,1,1,NA,NA,NA,NA,NA,NA,NA,NA,NA,NA,NA,NA,NA,NA,NA,NA,NA,NA,NA,NA,NA,NA,NA,NA
"150","stim/objects/Instruments/tambourine2.png",30,19,30,0.3,"stim/64.jpeg",6,4,2,NA,"Instruments",2,4,"right","left",0.57400012,0,0,1,1,NA,NA,NA,NA,NA,NA,NA,NA,NA,NA,NA,NA,NA,NA,NA,NA,NA,NA,NA,NA,NA,NA,NA,NA
"55","stim/objects/HouseObjects/spraybottle.png",31,19,31,0.5,"stim/42.jpeg",4,2,1,NA,"HouseObjects",1,4,"left","left",0.760000229,1,1,1,1,NA,NA,NA,NA,NA,NA,NA,NA,NA,NA,NA,NA,NA,NA,NA,NA,NA,NA,NA,NA,NA,NA,NA,NA
"137","stim/objects/Instruments/speaker.png",32,19,32,0.5,"stim/33.jpeg",3,3,1,NA,"Instruments",2,3,"right","left",0.681000233,0,0,1,1,NA,NA,NA,NA,NA,NA,NA,NA,NA,NA,NA,NA,NA,NA,NA,NA,NA,NA,NA,NA,NA,NA,NA,NA
"189","stim/objects/Instruments/trombone2.png",33,19,33,0.9,"stim/13.jpeg",1,3,3,NA,"Instruments",2,3,"right","right",0.736000299,1,1,1,1,NA,NA,NA,NA,NA,NA,NA,NA,NA,NA,NA,NA,NA,NA,NA,NA,NA,NA,NA,NA,NA,NA,NA,NA
"31","stim/objects/HouseObjects/saw2.png",34,19,34,0.7,"stim/63.jpeg",6,3,2,NA,"HouseObjects",1,2,"left","left",0.684000254,1,1,1,1,NA,NA,NA,NA,NA,NA,NA,NA,NA,NA,NA,NA,NA,NA,NA,NA,NA,NA,NA,NA,NA,NA,NA,NA
"100","stim/objects/HouseObjects/vacuumcleaner2.png",35,19,35,0.9,"stim/23.jpeg",2,3,3,NA,"HouseObjects",1,3,"left","left",0.525000095,1,1,1,1,NA,NA,NA,NA,NA,NA,NA,NA,NA,NA,NA,NA,NA,NA,NA,NA,NA,NA,NA,NA,NA,NA,NA,NA
"68","stim/objects/HouseObjects/thermometer.png",36,19,36,0.5,"stim/44.jpeg",4,4,1,NA,"HouseObjects",1,2,"left","left",0.670000076,1,1,1,1,NA,NA,NA,NA,NA,NA,NA,NA,NA,NA,NA,NA,NA,NA,NA,NA,NA,NA,NA,NA,NA,NA,NA,NA
"98","stim/objects/HouseObjects/vacuumcleaner.png",37,19,37,0.3,"stim/53.jpeg",5,3,2,NA,"HouseObjects",1,3,"left","right",0.566000223,0,0,1,1,NA,NA,NA,NA,NA,NA,NA,NA,NA,NA,NA,NA,NA,NA,NA,NA,NA,NA,NA,NA,NA,NA,NA,NA
"25","stim/objects/HouseObjects/saw.png",38,19,38,0.5,"stim/33.jpeg",3,3,1,NA,"HouseObjects",1,2,"left","left",0.620000124,1,1,1,1,NA,NA,NA,NA,NA,NA,NA,NA,NA,NA,NA,NA,NA,NA,NA,NA,NA,NA,NA,NA,NA,NA,NA,NA
"73","stim/objects/HouseObjects/thread.png",39,19,39,0.3,"stim/51.jpeg",5,1,2,NA,"HouseObjects",1,1,"left","right",0.69900012,0,0,1,1,NA,NA,NA,NA,NA,NA,NA,NA,NA,NA,NA,NA,NA,NA,NA,NA,NA,NA,NA,NA,NA,NA,NA,NA
"37","stim/objects/HouseObjects/scale.png",40,19,40,0.5,"stim/34.jpeg",3,4,1,NA,"HouseObjects",1,2,"left","left",0.625,1,1,1,1,NA,NA,NA,NA,NA,NA,NA,NA,NA,NA,NA,NA,NA,NA,NA,NA,NA,NA,NA,NA,NA,NA,NA,NA
"167","stim/objects/Instruments/triangle.png",41,19,41,0.5,"stim/42.jpeg",4,2,1,NA,"Instruments",2,2,"right","left",0.687000036,0,0,1,1,NA,NA,NA,NA,NA,NA,NA,NA,NA,NA,NA,NA,NA,NA,NA,NA,NA,NA,NA,NA,NA,NA,NA,NA
"195","stim/objects/Instruments/trumpet.png",42,19,42,0.5,"stim/44.jpeg",4,4,1,NA,"Instruments",2,3,"right","left",0.647000313,0,0,1,1,NA,NA,NA,NA,NA,NA,NA,NA,NA,NA,NA,NA,NA,NA,NA,NA,NA,NA,NA,NA,NA,NA,NA,NA
"225","stim/objects/Instruments/vuvuzela.png",43,19,43,0.7,"stim/53.jpeg",5,3,2,NA,"Instruments",2,1,"right","right",0.691000223,1,1,1,1,NA,NA,NA,NA,NA,NA,NA,NA,NA,NA,NA,NA,NA,NA,NA,NA,NA,NA,NA,NA,NA,NA,NA,NA
"6","stim/objects/HouseObjects/rug2.png",44,19,44,0.7,"stim/61.jpeg",6,1,2,NA,"HouseObjects",1,2,"left","left",0.705000162,1,1,1,1,NA,NA,NA,NA,NA,NA,NA,NA,NA,NA,NA,NA,NA,NA,NA,NA,NA,NA,NA,NA,NA,NA,NA,NA
"56","stim/objects/HouseObjects/spraybottle.png",45,19,45,0.5,"stim/42.jpeg",4,2,1,NA,"HouseObjects",1,4,"left","right",0.730000257,0,0,1,1,NA,NA,NA,NA,NA,NA,NA,NA,NA,NA,NA,NA,NA,NA,NA,NA,NA,NA,NA,NA,NA,NA,NA,NA
"226","stim/objects/Instruments/vuvuzela.png",46,19,46,0.7,"stim/53.jpeg",5,3,2,NA,"Instruments",2,1,"right","right",0.79700017,1,1,1,1,NA,NA,NA,NA,NA,NA,NA,NA,NA,NA,NA,NA,NA,NA,NA,NA,NA,NA,NA,NA,NA,NA,NA,NA
"121","stim/objects/Instruments/record_player.png",47,19,47,0.5,"stim/31.jpeg",3,1,1,NA,"Instruments",2,1,"right","left",0.690000057,0,0,1,1,NA,NA,NA,NA,NA,NA,NA,NA,NA,NA,NA,NA,NA,NA,NA,NA,NA,NA,NA,NA,NA,NA,NA,NA
"211","stim/objects/Instruments/tuba.png",48,19,48,0.7,"stim/51.jpeg",5,1,2,NA,"Instruments",2,1,"right","right",0.81400013,1,1,1,1,NA,NA,NA,NA,NA,NA,NA,NA,NA,NA,NA,NA,NA,NA,NA,NA,NA,NA,NA,NA,NA,NA,NA,NA
"101","stim/objects/HouseObjects/vacuumcleaner2.png",49,19,49,0.9,"stim/23.jpeg",2,3,3,NA,"HouseObjects",1,3,"left","left",0.529000044,1,1,1,1,NA,NA,NA,NA,NA,NA,NA,NA,NA,NA,NA,NA,NA,NA,NA,NA,NA,NA,NA,NA,NA,NA,NA,NA
"66","stim/objects/HouseObjects/teapot2.png",50,19,50,0.1,"stim/13.jpeg",1,3,3,NA,"HouseObjects",1,1,"left","right",0.65500021,0,0,1,1,NA,NA,NA,NA,NA,NA,NA,NA,NA,NA,NA,NA,NA,NA,NA,NA,NA,NA,NA,NA,NA,NA,NA,NA
"172","stim/objects/Instruments/triangle2.png",51,19,51,0.9,"stim/12.jpeg",1,2,3,NA,"Instruments",2,3,"right","right",0.588000059,1,1,1,1,NA,NA,NA,NA,NA,NA,NA,NA,NA,NA,NA,NA,NA,NA,NA,NA,NA,NA,NA,NA,NA,NA,NA,NA
"227","stim/objects/Instruments/vuvuzela.png",52,19,52,0.7,"stim/53.jpeg",5,3,2,NA,"Instruments",2,1,"right","right",0.584000111,1,1,1,1,NA,NA,NA,NA,NA,NA,NA,NA,NA,NA,NA,NA,NA,NA,NA,NA,NA,NA,NA,NA,NA,NA,NA,NA
"50","stim/objects/HouseObjects/sponge.png",53,19,53,0.5,"stim/41.jpeg",4,1,1,NA,"HouseObjects",1,4,"left","",NA,0,0,1,1,NA,NA,NA,NA,NA,NA,NA,NA,NA,NA,NA,NA,NA,NA,NA,NA,NA,NA,NA,NA,NA,NA,NA,NA
"151","stim/objects/Instruments/tambourine2.png",54,19,54,0.3,"stim/64.jpeg",6,4,2,NA,"Instruments",2,3,"right","left",0.528000116,0,0,1,1,NA,NA,NA,NA,NA,NA,NA,NA,NA,NA,NA,NA,NA,NA,NA,NA,NA,NA,NA,NA,NA,NA,NA,NA
"74","stim/objects/HouseObjects/thread.png",55,19,55,0.3,"stim/51.jpeg",5,1,2,NA,"HouseObjects",1,2,"left","right",0.496000051,0,0,1,1,NA,NA,NA,NA,NA,NA,NA,NA,NA,NA,NA,NA,NA,NA,NA,NA,NA,NA,NA,NA,NA,NA,NA,NA
"233","stim/objects/Instruments/xylophone.png",56,19,56,0.7,"stim/54.jpeg",5,4,2,NA,"Instruments",2,1,"right","right",0.575999975,1,1,1,1,NA,NA,NA,NA,NA,NA,NA,NA,NA,NA,NA,NA,NA,NA,NA,NA,NA,NA,NA,NA,NA,NA,NA,NA
"122","stim/objects/Instruments/record_player.png",57,19,57,0.5,"stim/31.jpeg",3,1,1,NA,"Instruments",2,4,"right","left",0.49000001,0,0,1,1,NA,NA,NA,NA,NA,NA,NA,NA,NA,NA,NA,NA,NA,NA,NA,NA,NA,NA,NA,NA,NA,NA,NA,NA
"102","stim/objects/HouseObjects/vacuumcleaner2.png",58,19,58,0.9,"stim/23.jpeg",2,3,3,NA,"HouseObjects",1,4,"left","left",0.470999956,1,1,1,1,NA,NA,NA,NA,NA,NA,NA,NA,NA,NA,NA,NA,NA,NA,NA,NA,NA,NA,NA,NA,NA,NA,NA,NA
"127","stim/objects/Instruments/record_player2.png",59,19,59,0.3,"stim/61.jpeg",6,1,2,NA,"Instruments",2,1,"right","left",0.683000088,0,0,1,1,NA,NA,NA,NA,NA,NA,NA,NA,NA,NA,NA,NA,NA,NA,NA,NA,NA,NA,NA,NA,NA,NA,NA,NA
"90","stim/objects/HouseObjects/towel2.png",60,19,60,0.9,"stim/22.jpeg",2,2,3,NA,"HouseObjects",1,1,"left","left",0.496000051,1,1,1,1,NA,NA,NA,NA,NA,NA,NA,NA,NA,NA,NA,NA,NA,NA,NA,NA,NA,NA,NA,NA,NA,NA,NA,NA
"182","stim/objects/Instruments/trombone.png",61,19,61,0.5,"stim/43.jpeg",4,3,1,NA,"Instruments",2,3,"right","left",0.785000086,0,0,1,1,NA,NA,NA,NA,NA,NA,NA,NA,NA,NA,NA,NA,NA,NA,NA,NA,NA,NA,NA,NA,NA,NA,NA,NA
"79","stim/objects/HouseObjects/thread2.png",62,19,62,0.9,"stim/21.jpeg",2,1,3,NA,"HouseObjects",1,4,"left","left",0.539000034,1,1,1,1,NA,NA,NA,NA,NA,NA,NA,NA,NA,NA,NA,NA,NA,NA,NA,NA,NA,NA,NA,NA,NA,NA,NA,NA
"228","stim/objects/Instruments/vuvuzela.png",63,19,63,0.7,"stim/53.jpeg",5,3,2,NA,"Instruments",2,2,"right","right",0.525000095,1,1,1,1,NA,NA,NA,NA,NA,NA,NA,NA,NA,NA,NA,NA,NA,NA,NA,NA,NA,NA,NA,NA,NA,NA,NA,NA
"154","stim/objects/Instruments/timbal.png",64,19,64,0.5,"stim/41.jpeg",4,1,1,NA,"Instruments",2,1,"right","",NA,0,0,1,1,NA,NA,NA,NA,NA,NA,NA,NA,NA,NA,NA,NA,NA,NA,NA,NA,NA,NA,NA,NA,NA,NA,NA,NA
"109","stim/objects/HouseObjects/wateringcan.png",65,19,65,0.3,"stim/54.jpeg",5,4,2,NA,"HouseObjects",1,3,"left","right",0.565000057,0,0,1,1,NA,NA,NA,NA,NA,NA,NA,NA,NA,NA,NA,NA,NA,NA,NA,NA,NA,NA,NA,NA,NA,NA,NA,NA
"138","stim/objects/Instruments/speaker.png",66,19,66,0.5,"stim/33.jpeg",3,3,1,NA,"Instruments",2,1,"right","left",0.442000151,0,0,1,1,NA,NA,NA,NA,NA,NA,NA,NA,NA,NA,NA,NA,NA,NA,NA,NA,NA,NA,NA,NA,NA,NA,NA,NA
"139","stim/objects/Instruments/speaker.png",67,19,67,0.5,"stim/33.jpeg",3,3,1,NA,"Instruments",2,1,"right","",NA,0,0,1,1,NA,NA,NA,NA,NA,NA,NA,NA,NA,NA,NA,NA,NA,NA,NA,NA,NA,NA,NA,NA,NA,NA,NA,NA
"131","stim/objects/Instruments/saxophone.png",68,19,68,0.5,"stim/32.jpeg",3,2,1,NA,"Instruments",2,4,"right","left",0.666000128,0,0,1,1,NA,NA,NA,NA,NA,NA,NA,NA,NA,NA,NA,NA,NA,NA,NA,NA,NA,NA,NA,NA,NA,NA,NA,NA
"202","stim/objects/Instruments/trumpet2.png",69,19,69,0.9,"stim/14.jpeg",1,4,3,NA,"Instruments",2,3,"right","right",0.57400012,1,1,1,1,NA,NA,NA,NA,NA,NA,NA,NA,NA,NA,NA,NA,NA,NA,NA,NA,NA,NA,NA,NA,NA,NA,NA,NA
"62","stim/objects/HouseObjects/teapot.png",70,19,70,0.5,"stim/43.jpeg",4,3,1,NA,"HouseObjects",1,2,"left","right",0.676000118,0,0,1,1,NA,NA,NA,NA,NA,NA,NA,NA,NA,NA,NA,NA,NA,NA,NA,NA,NA,NA,NA,NA,NA,NA,NA,NA
"60","stim/objects/HouseObjects/spraybottle2.png",71,19,71,0.1,"stim/12.jpeg",1,2,3,NA,"HouseObjects",1,3,"left","right",0.545000076,0,0,1,1,NA,NA,NA,NA,NA,NA,NA,NA,NA,NA,NA,NA,NA,NA,NA,NA,NA,NA,NA,NA,NA,NA,NA,NA
"173","stim/objects/Instruments/triangle2.png",72,19,72,0.9,"stim/12.jpeg",1,2,3,NA,"Instruments",2,3,"right","right",0.516000271,1,1,1,1,NA,NA,NA,NA,NA,NA,NA,NA,NA,NA,NA,NA,NA,NA,NA,NA,NA,NA,NA,NA,NA,NA,NA,NA
"42","stim/objects/HouseObjects/scale2.png",73,19,73,0.7,"stim/64.jpeg",6,4,2,NA,"HouseObjects",1,2,"left","right",0.770999908,0,0,1,1,NA,NA,NA,NA,NA,NA,NA,NA,NA,NA,NA,NA,NA,NA,NA,NA,NA,NA,NA,NA,NA,NA,NA,NA
"224","stim/objects/Instruments/violin2.png",74,19,74,0.1,"stim/22.jpeg",2,2,3,NA,"Instruments",2,4,"right","left",0.522000313,0,0,1,1,NA,NA,NA,NA,NA,NA,NA,NA,NA,NA,NA,NA,NA,NA,NA,NA,NA,NA,NA,NA,NA,NA,NA,NA
"103","stim/objects/HouseObjects/vacuumcleaner2.png",75,19,75,0.9,"stim/23.jpeg",2,3,3,NA,"HouseObjects",1,2,"left","left",0.592000008,1,1,1,1,NA,NA,NA,NA,NA,NA,NA,NA,NA,NA,NA,NA,NA,NA,NA,NA,NA,NA,NA,NA,NA,NA,NA,NA
"14","stim/objects/HouseObjects/safetypin.png",76,19,76,0.5,"stim/32.jpeg",3,2,1,NA,"HouseObjects",1,1,"left","left",0.625999928,1,1,1,1,NA,NA,NA,NA,NA,NA,NA,NA,NA,NA,NA,NA,NA,NA,NA,NA,NA,NA,NA,NA,NA,NA,NA,NA
"63","stim/objects/HouseObjects/teapot.png",77,19,77,0.5,"stim/43.jpeg",4,3,1,NA,"HouseObjects",1,2,"left","left",0.828000069,1,1,1,1,NA,NA,NA,NA,NA,NA,NA,NA,NA,NA,NA,NA,NA,NA,NA,NA,NA,NA,NA,NA,NA,NA,NA,NA
"32","stim/objects/HouseObjects/saw2.png",78,19,78,0.7,"stim/63.jpeg",6,3,2,NA,"HouseObjects",1,3,"left","left",0.766000271,1,1,1,1,NA,NA,NA,NA,NA,NA,NA,NA,NA,NA,NA,NA,NA,NA,NA,NA,NA,NA,NA,NA,NA,NA,NA,NA
"196","stim/objects/Instruments/trumpet.png",79,19,79,0.5,"stim/44.jpeg",4,4,1,NA,"Instruments",2,4,"right","right",0.726000309,1,1,1,1,NA,NA,NA,NA,NA,NA,NA,NA,NA,NA,NA,NA,NA,NA,NA,NA,NA,NA,NA,NA,NA,NA,NA,NA
"1","stim/objects/HouseObjects/rug.png",80,19,80,0.5,"stim/31.jpeg",3,1,1,NA,"HouseObjects",1,1,"left","left",0.641000032,1,1,1,1,NA,NA,NA,NA,NA,NA,NA,NA,NA,NA,NA,NA,NA,NA,NA,NA,NA,NA,NA,NA,NA,NA,NA,NA
"2","stim/objects/HouseObjects/rug.png",81,19,81,0.5,"stim/31.jpeg",3,1,1,NA,"HouseObjects",1,3,"left","left",0.584000111,1,1,1,1,NA,NA,NA,NA,NA,NA,NA,NA,NA,NA,NA,NA,NA,NA,NA,NA,NA,NA,NA,NA,NA,NA,NA,NA
"91","stim/objects/HouseObjects/towel2.png",82,19,82,0.9,"stim/22.jpeg",2,2,3,NA,"HouseObjects",1,2,"left","left",0.509000063,1,1,1,1,NA,NA,NA,NA,NA,NA,NA,NA,NA,NA,NA,NA,NA,NA,NA,NA,NA,NA,NA,NA,NA,NA,NA,NA
"18","stim/objects/HouseObjects/safetypin2.png",83,19,83,0.7,"stim/62.jpeg",6,2,2,NA,"HouseObjects",1,2,"left","left",0.552000046,1,1,1,1,NA,NA,NA,NA,NA,NA,NA,NA,NA,NA,NA,NA,NA,NA,NA,NA,NA,NA,NA,NA,NA,NA,NA,NA
"64","stim/objects/HouseObjects/teapot.png",84,19,84,0.5,"stim/43.jpeg",4,3,1,NA,"HouseObjects",1,4,"left","right",0.805999994,0,0,1,1,NA,NA,NA,NA,NA,NA,NA,NA,NA,NA,NA,NA,NA,NA,NA,NA,NA,NA,NA,NA,NA,NA,NA,NA
"54","stim/objects/HouseObjects/sponge2.png",85,19,85,0.1,"stim/11.jpeg",1,1,3,NA,"HouseObjects",1,2,"left","right",0.420000076,0,0,1,1,NA,NA,NA,NA,NA,NA,NA,NA,NA,NA,NA,NA,NA,NA,NA,NA,NA,NA,NA,NA,NA,NA,NA,NA
"113","stim/objects/HouseObjects/wateringcan2.png",86,19,86,0.9,"stim/24.jpeg",2,4,3,NA,"HouseObjects",1,4,"left","left",0.510000229,1,1,1,1,NA,NA,NA,NA,NA,NA,NA,NA,NA,NA,NA,NA,NA,NA,NA,NA,NA,NA,NA,NA,NA,NA,NA,NA
"203","stim/objects/Instruments/trumpet2.png",87,19,87,0.9,"stim/14.jpeg",1,4,3,NA,"Instruments",2,4,"right","right",0.525000095,1,1,1,1,NA,NA,NA,NA,NA,NA,NA,NA,NA,NA,NA,NA,NA,NA,NA,NA,NA,NA,NA,NA,NA,NA,NA,NA
"114","stim/objects/HouseObjects/wateringcan2.png",88,19,88,0.9,"stim/24.jpeg",2,4,3,NA,"HouseObjects",1,1,"left","left",0.467000008,1,1,1,1,NA,NA,NA,NA,NA,NA,NA,NA,NA,NA,NA,NA,NA,NA,NA,NA,NA,NA,NA,NA,NA,NA,NA,NA
"19","stim/objects/HouseObjects/safetypin2.png",89,19,89,0.7,"stim/62.jpeg",6,2,2,NA,"HouseObjects",1,1,"left","left",0.505000114,1,1,1,1,NA,NA,NA,NA,NA,NA,NA,NA,NA,NA,NA,NA,NA,NA,NA,NA,NA,NA,NA,NA,NA,NA,NA,NA
"197","stim/objects/Instruments/trumpet.png",90,19,90,0.5,"stim/44.jpeg",4,4,1,NA,"Instruments",2,3,"right","left",0.702000141,0,0,1,1,NA,NA,NA,NA,NA,NA,NA,NA,NA,NA,NA,NA,NA,NA,NA,NA,NA,NA,NA,NA,NA,NA,NA,NA
"33","stim/objects/HouseObjects/saw2.png",91,19,91,0.7,"stim/63.jpeg",6,3,2,NA,"HouseObjects",1,4,"left","left",0.578999996,1,1,1,1,NA,NA,NA,NA,NA,NA,NA,NA,NA,NA,NA,NA,NA,NA,NA,NA,NA,NA,NA,NA,NA,NA,NA,NA
"158","stim/objects/Instruments/timbal2.png",92,19,92,0.9,"stim/11.jpeg",1,1,3,NA,"Instruments",2,1,"right","right",0.622999907,1,1,1,1,NA,NA,NA,NA,NA,NA,NA,NA,NA,NA,NA,NA,NA,NA,NA,NA,NA,NA,NA,NA,NA,NA,NA,NA
"218","stim/objects/Instruments/violin.png",93,19,93,0.7,"stim/52.jpeg",5,2,2,NA,"Instruments",2,3,"right","right",0.704000235,1,1,1,1,NA,NA,NA,NA,NA,NA,NA,NA,NA,NA,NA,NA,NA,NA,NA,NA,NA,NA,NA,NA,NA,NA,NA,NA
"38","stim/objects/HouseObjects/scale.png",94,19,94,0.5,"stim/34.jpeg",3,4,1,NA,"HouseObjects",1,2,"left","left",0.825000286,1,1,1,1,NA,NA,NA,NA,NA,NA,NA,NA,NA,NA,NA,NA,NA,NA,NA,NA,NA,NA,NA,NA,NA,NA,NA,NA
"104","stim/objects/HouseObjects/vacuumcleaner2.png",95,19,95,0.9,"stim/23.jpeg",2,3,3,NA,"HouseObjects",1,4,"left","left",0.535000086,1,1,1,1,NA,NA,NA,NA,NA,NA,NA,NA,NA,NA,NA,NA,NA,NA,NA,NA,NA,NA,NA,NA,NA,NA,NA,NA
"234","stim/objects/Instruments/xylophone.png",96,19,96,0.7,"stim/54.jpeg",5,4,2,NA,"Instruments",2,3,"right","",NA,0,0,1,1,NA,NA,NA,NA,NA,NA,NA,NA,NA,NA,NA,NA,NA,NA,NA,NA,NA,NA,NA,NA,NA,NA,NA,NA
"145","stim/objects/Instruments/tambourine.png",97,19,97,0.5,"stim/34.jpeg",3,4,1,NA,"Instruments",2,2,"right","left",0.453000069,0,0,1,1,NA,NA,NA,NA,NA,NA,NA,NA,NA,NA,NA,NA,NA,NA,NA,NA,NA,NA,NA,NA,NA,NA,NA,NA
"39","stim/objects/HouseObjects/scale.png",98,19,98,0.5,"stim/34.jpeg",3,4,1,NA,"HouseObjects",1,3,"left","right",0.508000135,0,0,1,1,NA,NA,NA,NA,NA,NA,NA,NA,NA,NA,NA,NA,NA,NA,NA,NA,NA,NA,NA,NA,NA,NA,NA,NA
"204","stim/objects/Instruments/trumpet2.png",99,19,99,0.9,"stim/14.jpeg",1,4,3,NA,"Instruments",2,1,"right","right",0.535000086,1,1,1,1,NA,NA,NA,NA,NA,NA,NA,NA,NA,NA,NA,NA,NA,NA,NA,NA,NA,NA,NA,NA,NA,NA,NA,NA
"159","stim/objects/Instruments/timbal2.png",100,19,100,0.9,"stim/11.jpeg",1,1,3,NA,"Instruments",2,1,"right","right",0.539000034,1,1,1,1,NA,NA,NA,NA,NA,NA,NA,NA,NA,NA,NA,NA,NA,NA,NA,NA,NA,NA,NA,NA,NA,NA,NA,NA
"190","stim/objects/Instruments/trombone2.png",101,19,101,0.9,"stim/13.jpeg",1,3,3,NA,"Instruments",2,2,"right","right",0.611000061,1,1,1,1,NA,NA,NA,NA,NA,NA,NA,NA,NA,NA,NA,NA,NA,NA,NA,NA,NA,NA,NA,NA,NA,NA,NA,NA
"3","stim/objects/HouseObjects/rug.png",102,19,102,0.5,"stim/31.jpeg",3,1,1,NA,"HouseObjects",1,3,"left","right",0.522000074,0,0,1,1,NA,NA,NA,NA,NA,NA,NA,NA,NA,NA,NA,NA,NA,NA,NA,NA,NA,NA,NA,NA,NA,NA,NA,NA
"51","stim/objects/HouseObjects/sponge.png",103,19,103,0.5,"stim/41.jpeg",4,1,1,NA,"HouseObjects",1,3,"left","left",0.640000105,1,1,1,1,NA,NA,NA,NA,NA,NA,NA,NA,NA,NA,NA,NA,NA,NA,NA,NA,NA,NA,NA,NA,NA,NA,NA,NA
"115","stim/objects/HouseObjects/wateringcan2.png",104,19,104,0.9,"stim/24.jpeg",2,4,3,NA,"HouseObjects",1,2,"left","left",0.460000038,1,1,1,1,NA,NA,NA,NA,NA,NA,NA,NA,NA,NA,NA,NA,NA,NA,NA,NA,NA,NA,NA,NA,NA,NA,NA,NA
"212","stim/objects/Instruments/tuba.png",105,19,105,0.7,"stim/51.jpeg",5,1,2,NA,"Instruments",2,3,"right","right",0.549999952,1,1,1,1,NA,NA,NA,NA,NA,NA,NA,NA,NA,NA,NA,NA,NA,NA,NA,NA,NA,NA,NA,NA,NA,NA,NA,NA
"142","stim/objects/Instruments/speaker2.png",106,19,106,0.3,"stim/63.jpeg",6,3,2,NA,"Instruments",2,4,"right","left",0.551000118,0,0,1,1,NA,NA,NA,NA,NA,NA,NA,NA,NA,NA,NA,NA,NA,NA,NA,NA,NA,NA,NA,NA,NA,NA,NA,NA
"235","stim/objects/Instruments/xylophone.png",107,19,107,0.7,"stim/54.jpeg",5,4,2,NA,"Instruments",2,4,"right","right",0.602999926,1,1,1,1,NA,NA,NA,NA,NA,NA,NA,NA,NA,NA,NA,NA,NA,NA,NA,NA,NA,NA,NA,NA,NA,NA,NA,NA
"236","stim/objects/Instruments/xylophone.png",108,19,108,0.7,"stim/54.jpeg",5,4,2,NA,"Instruments",2,1,"right","right",0.496000051,1,1,1,1,NA,NA,NA,NA,NA,NA,NA,NA,NA,NA,NA,NA,NA,NA,NA,NA,NA,NA,NA,NA,NA,NA,NA,NA
"123","stim/objects/Instruments/record_player.png",109,19,109,0.5,"stim/31.jpeg",3,1,1,NA,"Instruments",2,2,"right","left",0.551000118,0,0,1,1,NA,NA,NA,NA,NA,NA,NA,NA,NA,NA,NA,NA,NA,NA,NA,NA,NA,NA,NA,NA,NA,NA,NA,NA
"20","stim/objects/HouseObjects/safetypin2.png",110,19,110,0.7,"stim/62.jpeg",6,2,2,NA,"HouseObjects",1,4,"left","left",0.520000219,1,1,1,1,NA,NA,NA,NA,NA,NA,NA,NA,NA,NA,NA,NA,NA,NA,NA,NA,NA,NA,NA,NA,NA,NA,NA,NA
"85","stim/objects/HouseObjects/towel.png",111,19,111,0.3,"stim/52.jpeg",5,2,2,NA,"HouseObjects",1,4,"left","right",0.589999914,0,0,1,1,NA,NA,NA,NA,NA,NA,NA,NA,NA,NA,NA,NA,NA,NA,NA,NA,NA,NA,NA,NA,NA,NA,NA,NA
"43","stim/objects/HouseObjects/scale2.png",112,19,112,0.7,"stim/64.jpeg",6,4,2,NA,"HouseObjects",1,3,"left","left",0.639000177,1,1,1,1,NA,NA,NA,NA,NA,NA,NA,NA,NA,NA,NA,NA,NA,NA,NA,NA,NA,NA,NA,NA,NA,NA,NA,NA
"146","stim/objects/Instruments/tambourine.png",113,19,113,0.5,"stim/34.jpeg",3,4,1,NA,"Instruments",2,1,"right","left",0.731000185,0,0,1,1,NA,NA,NA,NA,NA,NA,NA,NA,NA,NA,NA,NA,NA,NA,NA,NA,NA,NA,NA,NA,NA,NA,NA,NA
"174","stim/objects/Instruments/triangle2.png",114,19,114,0.9,"stim/12.jpeg",1,2,3,NA,"Instruments",2,1,"right","right",0.542000055,1,1,1,1,NA,NA,NA,NA,NA,NA,NA,NA,NA,NA,NA,NA,NA,NA,NA,NA,NA,NA,NA,NA,NA,NA,NA,NA
"26","stim/objects/HouseObjects/saw.png",115,19,115,0.5,"stim/33.jpeg",3,3,1,NA,"HouseObjects",1,3,"left","left",0.60800004,1,1,1,1,NA,NA,NA,NA,NA,NA,NA,NA,NA,NA,NA,NA,NA,NA,NA,NA,NA,NA,NA,NA,NA,NA,NA,NA
"21","stim/objects/HouseObjects/safetypin2.png",116,19,116,0.7,"stim/62.jpeg",6,2,2,NA,"HouseObjects",1,1,"left","left",0.49000001,1,1,1,1,NA,NA,NA,NA,NA,NA,NA,NA,NA,NA,NA,NA,NA,NA,NA,NA,NA,NA,NA,NA,NA,NA,NA,NA
"57","stim/objects/HouseObjects/spraybottle.png",117,19,117,0.5,"stim/42.jpeg",4,2,1,NA,"HouseObjects",1,4,"left","right",0.585000038,0,0,1,1,NA,NA,NA,NA,NA,NA,NA,NA,NA,NA,NA,NA,NA,NA,NA,NA,NA,NA,NA,NA,NA,NA,NA,NA
"44","stim/objects/HouseObjects/scale2.png",118,19,118,0.7,"stim/64.jpeg",6,4,2,NA,"HouseObjects",1,4,"left","left",0.503000021,1,1,1,1,NA,NA,NA,NA,NA,NA,NA,NA,NA,NA,NA,NA,NA,NA,NA,NA,NA,NA,NA,NA,NA,NA,NA,NA
"92","stim/objects/HouseObjects/towel2.png",119,19,119,0.9,"stim/22.jpeg",2,2,3,NA,"HouseObjects",1,3,"left","left",0.490000248,1,1,1,1,NA,NA,NA,NA,NA,NA,NA,NA,NA,NA,NA,NA,NA,NA,NA,NA,NA,NA,NA,NA,NA,NA,NA,NA
"128","stim/objects/Instruments/record_player2.png",120,19,120,0.3,"stim/61.jpeg",6,1,2,NA,"Instruments",2,1,"right","left",0.560000181,0,0,1,1,NA,NA,NA,NA,NA,NA,NA,NA,NA,NA,NA,NA,NA,NA,NA,NA,NA,NA,NA,NA,NA,NA,NA,NA
"40","stim/objects/HouseObjects/scale.png",121,19,121,0.5,"stim/34.jpeg",3,4,1,NA,"HouseObjects",1,4,"left","right",0.611000061,0,0,1,1,NA,NA,NA,NA,NA,NA,NA,NA,NA,NA,NA,NA,NA,NA,NA,NA,NA,NA,NA,NA,NA,NA,NA,NA
"205","stim/objects/Instruments/trumpet2.png",122,19,122,0.9,"stim/14.jpeg",1,4,3,NA,"Instruments",2,1,"right","right",0.505000114,1,1,1,1,NA,NA,NA,NA,NA,NA,NA,NA,NA,NA,NA,NA,NA,NA,NA,NA,NA,NA,NA,NA,NA,NA,NA,NA
"213","stim/objects/Instruments/tuba.png",123,19,123,0.7,"stim/51.jpeg",5,1,2,NA,"Instruments",2,2,"right","right",0.567000151,1,1,1,1,NA,NA,NA,NA,NA,NA,NA,NA,NA,NA,NA,NA,NA,NA,NA,NA,NA,NA,NA,NA,NA,NA,NA,NA
"110","stim/objects/HouseObjects/wateringcan.png",124,19,124,0.3,"stim/54.jpeg",5,4,2,NA,"HouseObjects",1,2,"left","right",0.543000221,0,0,1,1,NA,NA,NA,NA,NA,NA,NA,NA,NA,NA,NA,NA,NA,NA,NA,NA,NA,NA,NA,NA,NA,NA,NA,NA
"15","stim/objects/HouseObjects/safetypin.png",125,19,125,0.5,"stim/32.jpeg",3,2,1,NA,"HouseObjects",1,4,"left","left",0.593000174,1,1,1,1,NA,NA,NA,NA,NA,NA,NA,NA,NA,NA,NA,NA,NA,NA,NA,NA,NA,NA,NA,NA,NA,NA,NA,NA
"191","stim/objects/Instruments/trombone2.png",126,19,126,0.9,"stim/13.jpeg",1,3,3,NA,"Instruments",2,2,"right","right",0.502000093,1,1,1,1,NA,NA,NA,NA,NA,NA,NA,NA,NA,NA,NA,NA,NA,NA,NA,NA,NA,NA,NA,NA,NA,NA,NA,NA
"52","stim/objects/HouseObjects/sponge.png",127,19,127,0.5,"stim/41.jpeg",4,1,1,NA,"HouseObjects",1,4,"left","left",0.627000093,1,1,1,1,NA,NA,NA,NA,NA,NA,NA,NA,NA,NA,NA,NA,NA,NA,NA,NA,NA,NA,NA,NA,NA,NA,NA,NA
"72","stim/objects/HouseObjects/thermometer2.png",128,19,128,0.1,"stim/14.jpeg",1,4,3,NA,"HouseObjects",1,3,"left","right",0.488000154,0,0,1,1,NA,NA,NA,NA,NA,NA,NA,NA,NA,NA,NA,NA,NA,NA,NA,NA,NA,NA,NA,NA,NA,NA,NA,NA
"116","stim/objects/HouseObjects/wateringcan2.png",129,19,129,0.9,"stim/24.jpeg",2,4,3,NA,"HouseObjects",1,2,"left","left",0.5,1,1,1,1,NA,NA,NA,NA,NA,NA,NA,NA,NA,NA,NA,NA,NA,NA,NA,NA,NA,NA,NA,NA,NA,NA,NA,NA
"136","stim/objects/Instruments/saxophone2.png",130,19,130,0.3,"stim/62.jpeg",6,2,2,NA,"Instruments",2,4,"right","left",0.493000031,0,0,1,1,NA,NA,NA,NA,NA,NA,NA,NA,NA,NA,NA,NA,NA,NA,NA,NA,NA,NA,NA,NA,NA,NA,NA,NA
"219","stim/objects/Instruments/violin.png",131,19,131,0.7,"stim/52.jpeg",5,2,2,NA,"Instruments",2,2,"right","right",0.622000217,1,1,1,1,NA,NA,NA,NA,NA,NA,NA,NA,NA,NA,NA,NA,NA,NA,NA,NA,NA,NA,NA,NA,NA,NA,NA,NA
"69","stim/objects/HouseObjects/thermometer.png",132,19,132,0.5,"stim/44.jpeg",4,4,1,NA,"HouseObjects",1,3,"left","left",0.657000065,1,1,1,1,NA,NA,NA,NA,NA,NA,NA,NA,NA,NA,NA,NA,NA,NA,NA,NA,NA,NA,NA,NA,NA,NA,NA,NA
"192","stim/objects/Instruments/trombone2.png",133,19,133,0.9,"stim/13.jpeg",1,3,3,NA,"Instruments",2,3,"right","right",0.56400013,1,1,1,1,NA,NA,NA,NA,NA,NA,NA,NA,NA,NA,NA,NA,NA,NA,NA,NA,NA,NA,NA,NA,NA,NA,NA,NA
"175","stim/objects/Instruments/triangle2.png",134,19,134,0.9,"stim/12.jpeg",1,2,3,NA,"Instruments",2,4,"right","right",0.5400002,1,1,1,1,NA,NA,NA,NA,NA,NA,NA,NA,NA,NA,NA,NA,NA,NA,NA,NA,NA,NA,NA,NA,NA,NA,NA,NA
"45","stim/objects/HouseObjects/scale2.png",135,19,135,0.7,"stim/64.jpeg",6,4,2,NA,"HouseObjects",1,2,"left","left",0.493999958,1,1,1,1,NA,NA,NA,NA,NA,NA,NA,NA,NA,NA,NA,NA,NA,NA,NA,NA,NA,NA,NA,NA,NA,NA,NA,NA
"93","stim/objects/HouseObjects/towel2.png",136,19,136,0.9,"stim/22.jpeg",2,2,3,NA,"HouseObjects",1,4,"left","left",0.390000105,1,1,1,1,NA,NA,NA,NA,NA,NA,NA,NA,NA,NA,NA,NA,NA,NA,NA,NA,NA,NA,NA,NA,NA,NA,NA,NA
"4","stim/objects/HouseObjects/rug.png",137,19,137,0.5,"stim/31.jpeg",3,1,1,NA,"HouseObjects",1,2,"left","right",0.480000019,0,0,1,1,NA,NA,NA,NA,NA,NA,NA,NA,NA,NA,NA,NA,NA,NA,NA,NA,NA,NA,NA,NA,NA,NA,NA,NA
"27","stim/objects/HouseObjects/saw.png",138,19,138,0.5,"stim/33.jpeg",3,3,1,NA,"HouseObjects",1,1,"left","left",0.767000198,1,1,1,1,NA,NA,NA,NA,NA,NA,NA,NA,NA,NA,NA,NA,NA,NA,NA,NA,NA,NA,NA,NA,NA,NA,NA,NA
"34","stim/objects/HouseObjects/saw2.png",139,19,139,0.7,"stim/63.jpeg",6,3,2,NA,"HouseObjects",1,4,"left","",NA,0,0,1,1,NA,NA,NA,NA,NA,NA,NA,NA,NA,NA,NA,NA,NA,NA,NA,NA,NA,NA,NA,NA,NA,NA,NA,NA
"117","stim/objects/HouseObjects/wateringcan2.png",140,19,140,0.9,"stim/24.jpeg",2,4,3,NA,"HouseObjects",1,3,"left","left",0.47300005,1,1,1,1,NA,NA,NA,NA,NA,NA,NA,NA,NA,NA,NA,NA,NA,NA,NA,NA,NA,NA,NA,NA,NA,NA,NA,NA
"86","stim/objects/HouseObjects/towel.png",141,19,141,0.3,"stim/52.jpeg",5,2,2,NA,"HouseObjects",1,2,"left","right",0.528000116,0,0,1,1,NA,NA,NA,NA,NA,NA,NA,NA,NA,NA,NA,NA,NA,NA,NA,NA,NA,NA,NA,NA,NA,NA,NA,NA
"176","stim/objects/Instruments/triangle2.png",142,19,142,0.9,"stim/12.jpeg",1,2,3,NA,"Instruments",2,2,"right","right",0.480999947,1,1,1,1,NA,NA,NA,NA,NA,NA,NA,NA,NA,NA,NA,NA,NA,NA,NA,NA,NA,NA,NA,NA,NA,NA,NA,NA
"177","stim/objects/Instruments/triangle2.png",143,19,143,0.9,"stim/12.jpeg",1,2,3,NA,"Instruments",2,3,"right","right",0.548000097,1,1,1,1,NA,NA,NA,NA,NA,NA,NA,NA,NA,NA,NA,NA,NA,NA,NA,NA,NA,NA,NA,NA,NA,NA,NA,NA
"160","stim/objects/Instruments/timbal2.png",144,19,144,0.9,"stim/11.jpeg",1,1,3,NA,"Instruments",2,1,"right","right",0.546999931,1,1,1,1,NA,NA,NA,NA,NA,NA,NA,NA,NA,NA,NA,NA,NA,NA,NA,NA,NA,NA,NA,NA,NA,NA,NA,NA
"161","stim/objects/Instruments/timbal2.png",145,19,145,0.9,"stim/11.jpeg",1,1,3,NA,"Instruments",2,2,"right","right",0.398000002,1,1,1,1,NA,NA,NA,NA,NA,NA,NA,NA,NA,NA,NA,NA,NA,NA,NA,NA,NA,NA,NA,NA,NA,NA,NA,NA
"143","stim/objects/Instruments/speaker2.png",146,19,146,0.3,"stim/63.jpeg",6,3,2,NA,"Instruments",2,3,"right","left",0.507000208,0,0,1,1,NA,NA,NA,NA,NA,NA,NA,NA,NA,NA,NA,NA,NA,NA,NA,NA,NA,NA,NA,NA,NA,NA,NA,NA
"214","stim/objects/Instruments/tuba.png",147,19,147,0.7,"stim/51.jpeg",5,1,2,NA,"Instruments",2,1,"right","right",0.500000238,1,1,1,1,NA,NA,NA,NA,NA,NA,NA,NA,NA,NA,NA,NA,NA,NA,NA,NA,NA,NA,NA,NA,NA,NA,NA,NA
"132","stim/objects/Instruments/saxophone.png",148,19,148,0.5,"stim/32.jpeg",3,2,1,NA,"Instruments",2,1,"right","left",0.592000008,0,0,1,1,NA,NA,NA,NA,NA,NA,NA,NA,NA,NA,NA,NA,NA,NA,NA,NA,NA,NA,NA,NA,NA,NA,NA,NA
"70","stim/objects/HouseObjects/thermometer.png",149,19,149,0.5,"stim/44.jpeg",4,4,1,NA,"HouseObjects",1,2,"left","left",0.622000217,1,1,1,1,NA,NA,NA,NA,NA,NA,NA,NA,NA,NA,NA,NA,NA,NA,NA,NA,NA,NA,NA,NA,NA,NA,NA,NA
"22","stim/objects/HouseObjects/safetypin2.png",150,19,150,0.7,"stim/62.jpeg",6,2,2,NA,"HouseObjects",1,3,"left","left",0.495000124,1,1,1,1,NA,NA,NA,NA,NA,NA,NA,NA,NA,NA,NA,NA,NA,NA,NA,NA,NA,NA,NA,NA,NA,NA,NA,NA
"193","stim/objects/Instruments/trombone2.png",151,19,151,0.9,"stim/13.jpeg",1,3,3,NA,"Instruments",2,2,"right","right",0.684000015,1,1,1,1,NA,NA,NA,NA,NA,NA,NA,NA,NA,NA,NA,NA,NA,NA,NA,NA,NA,NA,NA,NA,NA,NA,NA,NA
"155","stim/objects/Instruments/timbal.png",152,19,152,0.5,"stim/41.jpeg",4,1,1,NA,"Instruments",2,2,"right","left",0.493999958,0,0,1,1,NA,NA,NA,NA,NA,NA,NA,NA,NA,NA,NA,NA,NA,NA,NA,NA,NA,NA,NA,NA,NA,NA,NA,NA
"140","stim/objects/Instruments/speaker.png",153,19,153,0.5,"stim/33.jpeg",3,3,1,NA,"Instruments",2,2,"right","left",0.561000109,0,0,1,1,NA,NA,NA,NA,NA,NA,NA,NA,NA,NA,NA,NA,NA,NA,NA,NA,NA,NA,NA,NA,NA,NA,NA,NA
"46","stim/objects/HouseObjects/scale2.png",154,19,154,0.7,"stim/64.jpeg",6,4,2,NA,"HouseObjects",1,4,"left","left",0.486000061,1,1,1,1,NA,NA,NA,NA,NA,NA,NA,NA,NA,NA,NA,NA,NA,NA,NA,NA,NA,NA,NA,NA,NA,NA,NA,NA
"124","stim/objects/Instruments/record_player.png",155,19,155,0.5,"stim/31.jpeg",3,1,1,NA,"Instruments",2,1,"right","right",0.417999983,1,1,1,1,NA,NA,NA,NA,NA,NA,NA,NA,NA,NA,NA,NA,NA,NA,NA,NA,NA,NA,NA,NA,NA,NA,NA,NA
"80","stim/objects/HouseObjects/thread2.png",156,19,156,0.9,"stim/21.jpeg",2,1,3,NA,"HouseObjects",1,4,"left","left",0.461000204,1,1,1,1,NA,NA,NA,NA,NA,NA,NA,NA,NA,NA,NA,NA,NA,NA,NA,NA,NA,NA,NA,NA,NA,NA,NA,NA
"81","stim/objects/HouseObjects/thread2.png",157,19,157,0.9,"stim/21.jpeg",2,1,3,NA,"HouseObjects",1,4,"left","left",0.4150002,1,1,1,1,NA,NA,NA,NA,NA,NA,NA,NA,NA,NA,NA,NA,NA,NA,NA,NA,NA,NA,NA,NA,NA,NA,NA,NA
"162","stim/objects/Instruments/timbal2.png",158,19,158,0.9,"stim/11.jpeg",1,1,3,NA,"Instruments",2,1,"right","right",0.434000015,1,1,1,1,NA,NA,NA,NA,NA,NA,NA,NA,NA,NA,NA,NA,NA,NA,NA,NA,NA,NA,NA,NA,NA,NA,NA,NA
"220","stim/objects/Instruments/violin.png",159,19,159,0.7,"stim/52.jpeg",5,2,2,NA,"Instruments",2,3,"right","right",0.444000244,1,1,1,1,NA,NA,NA,NA,NA,NA,NA,NA,NA,NA,NA,NA,NA,NA,NA,NA,NA,NA,NA,NA,NA,NA,NA,NA
"7","stim/objects/HouseObjects/rug2.png",160,19,160,0.7,"stim/61.jpeg",6,1,2,NA,"HouseObjects",1,1,"left","left",0.522000074,1,1,1,1,NA,NA,NA,NA,NA,NA,NA,NA,NA,NA,NA,NA,NA,NA,NA,NA,NA,NA,NA,NA,NA,NA,NA,NA
"198","stim/objects/Instruments/trumpet.png",161,19,161,0.5,"stim/44.jpeg",4,4,1,NA,"Instruments",2,1,"right","left",0.595000029,0,0,1,1,NA,NA,NA,NA,NA,NA,NA,NA,NA,NA,NA,NA,NA,NA,NA,NA,NA,NA,NA,NA,NA,NA,NA,NA
"118","stim/objects/HouseObjects/wateringcan2.png",162,19,162,0.9,"stim/24.jpeg",2,4,3,NA,"HouseObjects",1,4,"left","left",0.543000221,1,1,1,1,NA,NA,NA,NA,NA,NA,NA,NA,NA,NA,NA,NA,NA,NA,NA,NA,NA,NA,NA,NA,NA,NA,NA,NA
"237","stim/objects/Instruments/xylophone.png",163,19,163,0.7,"stim/54.jpeg",5,4,2,NA,"Instruments",2,2,"right","right",0.478000164,1,1,1,1,NA,NA,NA,NA,NA,NA,NA,NA,NA,NA,NA,NA,NA,NA,NA,NA,NA,NA,NA,NA,NA,NA,NA,NA
"183","stim/objects/Instruments/trombone.png",164,19,164,0.5,"stim/43.jpeg",4,3,1,NA,"Instruments",2,3,"right","left",0.605000019,0,0,1,1,NA,NA,NA,NA,NA,NA,NA,NA,NA,NA,NA,NA,NA,NA,NA,NA,NA,NA,NA,NA,NA,NA,NA,NA
"221","stim/objects/Instruments/violin.png",165,19,165,0.7,"stim/52.jpeg",5,2,2,NA,"Instruments",2,4,"right","right",0.580000162,1,1,1,1,NA,NA,NA,NA,NA,NA,NA,NA,NA,NA,NA,NA,NA,NA,NA,NA,NA,NA,NA,NA,NA,NA,NA,NA
"215","stim/objects/Instruments/tuba.png",166,19,166,0.7,"stim/51.jpeg",5,1,2,NA,"Instruments",2,2,"right","right",0.526000261,1,1,1,1,NA,NA,NA,NA,NA,NA,NA,NA,NA,NA,NA,NA,NA,NA,NA,NA,NA,NA,NA,NA,NA,NA,NA,NA
"35","stim/objects/HouseObjects/saw2.png",167,19,167,0.7,"stim/63.jpeg",6,3,2,NA,"HouseObjects",1,3,"left","left",0.546000004,1,1,1,1,NA,NA,NA,NA,NA,NA,NA,NA,NA,NA,NA,NA,NA,NA,NA,NA,NA,NA,NA,NA,NA,NA,NA,NA
"178","stim/objects/Instruments/triangle2.png",168,19,168,0.9,"stim/12.jpeg",1,2,3,NA,"Instruments",2,1,"right","right",0.503000021,1,1,1,1,NA,NA,NA,NA,NA,NA,NA,NA,NA,NA,NA,NA,NA,NA,NA,NA,NA,NA,NA,NA,NA,NA,NA,NA
"8","stim/objects/HouseObjects/rug2.png",169,19,169,0.7,"stim/61.jpeg",6,1,2,NA,"HouseObjects",1,3,"left","left",0.521000147,1,1,1,1,NA,NA,NA,NA,NA,NA,NA,NA,NA,NA,NA,NA,NA,NA,NA,NA,NA,NA,NA,NA,NA,NA,NA,NA
"41","stim/objects/HouseObjects/scale.png",170,19,170,0.5,"stim/34.jpeg",3,4,1,NA,"HouseObjects",1,3,"left","right",0.596000195,0,0,1,1,NA,NA,NA,NA,NA,NA,NA,NA,NA,NA,NA,NA,NA,NA,NA,NA,NA,NA,NA,NA,NA,NA,NA,NA
"229","stim/objects/Instruments/vuvuzela.png",171,19,171,0.7,"stim/53.jpeg",5,3,2,NA,"Instruments",2,4,"right","right",0.585000038,1,1,1,1,NA,NA,NA,NA,NA,NA,NA,NA,NA,NA,NA,NA,NA,NA,NA,NA,NA,NA,NA,NA,NA,NA,NA,NA
"58","stim/objects/HouseObjects/spraybottle.png",172,19,172,0.5,"stim/42.jpeg",4,2,1,NA,"HouseObjects",1,4,"left","left",0.618000031,1,1,1,1,NA,NA,NA,NA,NA,NA,NA,NA,NA,NA,NA,NA,NA,NA,NA,NA,NA,NA,NA,NA,NA,NA,NA,NA
"133","stim/objects/Instruments/saxophone.png",173,19,173,0.5,"stim/32.jpeg",3,2,1,NA,"Instruments",2,1,"right","left",0.602000237,0,0,1,1,NA,NA,NA,NA,NA,NA,NA,NA,NA,NA,NA,NA,NA,NA,NA,NA,NA,NA,NA,NA,NA,NA,NA,NA
"163","stim/objects/Instruments/timbal2.png",174,19,174,0.9,"stim/11.jpeg",1,1,3,NA,"Instruments",2,2,"right","right",0.475000143,1,1,1,1,NA,NA,NA,NA,NA,NA,NA,NA,NA,NA,NA,NA,NA,NA,NA,NA,NA,NA,NA,NA,NA,NA,NA,NA
"9","stim/objects/HouseObjects/rug2.png",175,19,175,0.7,"stim/61.jpeg",6,1,2,NA,"HouseObjects",1,1,"left","left",0.50999999,1,1,1,1,NA,NA,NA,NA,NA,NA,NA,NA,NA,NA,NA,NA,NA,NA,NA,NA,NA,NA,NA,NA,NA,NA,NA,NA
"99","stim/objects/HouseObjects/vacuumcleaner.png",176,19,176,0.3,"stim/53.jpeg",5,3,2,NA,"HouseObjects",1,4,"left","right",0.499000072,0,0,1,1,NA,NA,NA,NA,NA,NA,NA,NA,NA,NA,NA,NA,NA,NA,NA,NA,NA,NA,NA,NA,NA,NA,NA,NA
"94","stim/objects/HouseObjects/towel2.png",177,19,177,0.9,"stim/22.jpeg",2,2,3,NA,"HouseObjects",1,2,"left","left",0.50999999,1,1,1,1,NA,NA,NA,NA,NA,NA,NA,NA,NA,NA,NA,NA,NA,NA,NA,NA,NA,NA,NA,NA,NA,NA,NA,NA
"82","stim/objects/HouseObjects/thread2.png",178,19,178,0.9,"stim/21.jpeg",2,1,3,NA,"HouseObjects",1,1,"left","left",0.447000265,1,1,1,1,NA,NA,NA,NA,NA,NA,NA,NA,NA,NA,NA,NA,NA,NA,NA,NA,NA,NA,NA,NA,NA,NA,NA,NA
"83","stim/objects/HouseObjects/thread2.png",179,19,179,0.9,"stim/21.jpeg",2,1,3,NA,"HouseObjects",1,2,"left","left",0.481000185,1,1,1,1,NA,NA,NA,NA,NA,NA,NA,NA,NA,NA,NA,NA,NA,NA,NA,NA,NA,NA,NA,NA,NA,NA,NA,NA
"75","stim/objects/HouseObjects/thread.png",180,19,180,0.3,"stim/51.jpeg",5,1,2,NA,"HouseObjects",1,4,"left","right",0.471000195,0,0,1,1,NA,NA,NA,NA,NA,NA,NA,NA,NA,NA,NA,NA,NA,NA,NA,NA,NA,NA,NA,NA,NA,NA,NA,NA
"105","stim/objects/HouseObjects/vacuumcleaner2.png",181,19,181,0.9,"stim/23.jpeg",2,3,3,NA,"HouseObjects",1,1,"left","left",0.427999973,1,1,1,1,NA,NA,NA,NA,NA,NA,NA,NA,NA,NA,NA,NA,NA,NA,NA,NA,NA,NA,NA,NA,NA,NA,NA,NA
"28","stim/objects/HouseObjects/saw.png",182,19,182,0.5,"stim/33.jpeg",3,3,1,NA,"HouseObjects",1,3,"left","right",0.512000084,0,0,1,1,NA,NA,NA,NA,NA,NA,NA,NA,NA,NA,NA,NA,NA,NA,NA,NA,NA,NA,NA,NA,NA,NA,NA,NA
"152","stim/objects/Instruments/tambourine2.png",183,19,183,0.3,"stim/64.jpeg",6,4,2,NA,"Instruments",2,1,"right","left",0.509000063,0,0,1,1,NA,NA,NA,NA,NA,NA,NA,NA,NA,NA,NA,NA,NA,NA,NA,NA,NA,NA,NA,NA,NA,NA,NA,NA
"222","stim/objects/Instruments/violin.png",184,19,184,0.7,"stim/52.jpeg",5,2,2,NA,"Instruments",2,2,"right","right",0.5,1,1,1,1,NA,NA,NA,NA,NA,NA,NA,NA,NA,NA,NA,NA,NA,NA,NA,NA,NA,NA,NA,NA,NA,NA,NA,NA
"238","stim/objects/Instruments/xylophone.png",185,19,185,0.7,"stim/54.jpeg",5,4,2,NA,"Instruments",2,1,"right","right",0.549999952,1,1,1,1,NA,NA,NA,NA,NA,NA,NA,NA,NA,NA,NA,NA,NA,NA,NA,NA,NA,NA,NA,NA,NA,NA,NA,NA
"5","stim/objects/HouseObjects/rug.png",186,19,186,0.5,"stim/31.jpeg",3,1,1,NA,"HouseObjects",1,2,"left","right",0.626000166,0,0,1,1,NA,NA,NA,NA,NA,NA,NA,NA,NA,NA,NA,NA,NA,NA,NA,NA,NA,NA,NA,NA,NA,NA,NA,NA
"16","stim/objects/HouseObjects/safetypin.png",187,19,187,0.5,"stim/32.jpeg",3,2,1,NA,"HouseObjects",1,3,"left","left",0.631000042,1,1,1,1,NA,NA,NA,NA,NA,NA,NA,NA,NA,NA,NA,NA,NA,NA,NA,NA,NA,NA,NA,NA,NA,NA,NA,NA
"119","stim/objects/HouseObjects/wateringcan2.png",188,19,188,0.9,"stim/24.jpeg",2,4,3,NA,"HouseObjects",1,3,"left","left",0.467000008,1,1,1,1,NA,NA,NA,NA,NA,NA,NA,NA,NA,NA,NA,NA,NA,NA,NA,NA,NA,NA,NA,NA,NA,NA,NA,NA
"230","stim/objects/Instruments/vuvuzela.png",189,19,189,0.7,"stim/53.jpeg",5,3,2,NA,"Instruments",2,4,"right","right",0.592999935,1,1,1,1,NA,NA,NA,NA,NA,NA,NA,NA,NA,NA,NA,NA,NA,NA,NA,NA,NA,NA,NA,NA,NA,NA,NA,NA
"184","stim/objects/Instruments/trombone.png",190,19,190,0.5,"stim/43.jpeg",4,3,1,NA,"Instruments",2,4,"right","left",0.593000174,0,0,1,1,NA,NA,NA,NA,NA,NA,NA,NA,NA,NA,NA,NA,NA,NA,NA,NA,NA,NA,NA,NA,NA,NA,NA,NA
"23","stim/objects/HouseObjects/safetypin2.png",191,19,191,0.7,"stim/62.jpeg",6,2,2,NA,"HouseObjects",1,3,"left","left",0.505000114,1,1,1,1,NA,NA,NA,NA,NA,NA,NA,NA,NA,NA,NA,NA,NA,NA,NA,NA,NA,NA,NA,NA,NA,NA,NA,NA
"156","stim/objects/Instruments/timbal.png",192,19,192,0.5,"stim/41.jpeg",4,1,1,NA,"Instruments",2,2,"right","left",0.599999905,0,0,1,1,NA,NA,NA,NA,NA,NA,NA,NA,NA,NA,NA,NA,NA,NA,NA,NA,NA,NA,NA,NA,NA,NA,NA,NA
"164","stim/objects/Instruments/timbal2.png",193,19,193,0.9,"stim/11.jpeg",1,1,3,NA,"Instruments",2,4,"right","right",0.467999935,1,1,1,1,NA,NA,NA,NA,NA,NA,NA,NA,NA,NA,NA,NA,NA,NA,NA,NA,NA,NA,NA,NA,NA,NA,NA,NA
"168","stim/objects/Instruments/triangle.png",194,19,194,0.5,"stim/42.jpeg",4,2,1,NA,"Instruments",2,3,"right","left",0.625,0,0,1,1,NA,NA,NA,NA,NA,NA,NA,NA,NA,NA,NA,NA,NA,NA,NA,NA,NA,NA,NA,NA,NA,NA,NA,NA
"231","stim/objects/Instruments/vuvuzela.png",195,19,195,0.7,"stim/53.jpeg",5,3,2,NA,"Instruments",2,2,"right","right",0.572000265,1,1,1,1,NA,NA,NA,NA,NA,NA,NA,NA,NA,NA,NA,NA,NA,NA,NA,NA,NA,NA,NA,NA,NA,NA,NA,NA
"10","stim/objects/HouseObjects/rug2.png",196,19,196,0.7,"stim/61.jpeg",6,1,2,NA,"HouseObjects",1,3,"left","left",0.500999928,1,1,1,1,NA,NA,NA,NA,NA,NA,NA,NA,NA,NA,NA,NA,NA,NA,NA,NA,NA,NA,NA,NA,NA,NA,NA,NA
"185","stim/objects/Instruments/trombone.png",197,19,197,0.5,"stim/43.jpeg",4,3,1,NA,"Instruments",2,4,"right","left",0.55700016,0,0,1,1,NA,NA,NA,NA,NA,NA,NA,NA,NA,NA,NA,NA,NA,NA,NA,NA,NA,NA,NA,NA,NA,NA,NA,NA
"11","stim/objects/HouseObjects/rug2.png",198,19,198,0.7,"stim/61.jpeg",6,1,2,NA,"HouseObjects",1,3,"left","left",0.495000124,1,1,1,1,NA,NA,NA,NA,NA,NA,NA,NA,NA,NA,NA,NA,NA,NA,NA,NA,NA,NA,NA,NA,NA,NA,NA,NA
"106","stim/objects/HouseObjects/vacuumcleaner2.png",199,19,199,0.9,"stim/23.jpeg",2,3,3,NA,"HouseObjects",1,4,"left","left",0.485000134,1,1,1,1,NA,NA,NA,NA,NA,NA,NA,NA,NA,NA,NA,NA,NA,NA,NA,NA,NA,NA,NA,NA,NA,NA,NA,NA
"169","stim/objects/Instruments/triangle.png",200,19,200,0.5,"stim/42.jpeg",4,2,1,NA,"Instruments",2,1,"right","left",0.630000114,0,0,1,1,NA,NA,NA,NA,NA,NA,NA,NA,NA,NA,NA,NA,NA,NA,NA,NA,NA,NA,NA,NA,NA,NA,NA,NA
"165","stim/objects/Instruments/timbal2.png",201,19,201,0.9,"stim/11.jpeg",1,1,3,NA,"Instruments",2,4,"right","right",0.493000031,1,1,1,1,NA,NA,NA,NA,NA,NA,NA,NA,NA,NA,NA,NA,NA,NA,NA,NA,NA,NA,NA,NA,NA,NA,NA,NA
"223","stim/objects/Instruments/violin.png",202,19,202,0.7,"stim/52.jpeg",5,2,2,NA,"Instruments",2,2,"right","right",0.579000235,1,1,1,1,NA,NA,NA,NA,NA,NA,NA,NA,NA,NA,NA,NA,NA,NA,NA,NA,NA,NA,NA,NA,NA,NA,NA,NA
"199","stim/objects/Instruments/trumpet.png",203,19,203,0.5,"stim/44.jpeg",4,4,1,NA,"Instruments",2,2,"right","right",0.618000031,1,1,1,1,NA,NA,NA,NA,NA,NA,NA,NA,NA,NA,NA,NA,NA,NA,NA,NA,NA,NA,NA,NA,NA,NA,NA,NA
"125","stim/objects/Instruments/record_player.png",204,19,204,0.5,"stim/31.jpeg",3,1,1,NA,"Instruments",2,1,"right","left",0.610000134,0,0,1,1,NA,NA,NA,NA,NA,NA,NA,NA,NA,NA,NA,NA,NA,NA,NA,NA,NA,NA,NA,NA,NA,NA,NA,NA
"194","stim/objects/Instruments/trombone2.png",205,19,205,0.9,"stim/13.jpeg",1,3,3,NA,"Instruments",2,4,"right","right",0.523000002,1,1,1,1,NA,NA,NA,NA,NA,NA,NA,NA,NA,NA,NA,NA,NA,NA,NA,NA,NA,NA,NA,NA,NA,NA,NA,NA
"107","stim/objects/HouseObjects/vacuumcleaner2.png",206,19,206,0.9,"stim/23.jpeg",2,3,3,NA,"HouseObjects",1,1,"left","left",0.469000101,1,1,1,1,NA,NA,NA,NA,NA,NA,NA,NA,NA,NA,NA,NA,NA,NA,NA,NA,NA,NA,NA,NA,NA,NA,NA,NA
"53","stim/objects/HouseObjects/sponge.png",207,19,207,0.5,"stim/41.jpeg",4,1,1,NA,"HouseObjects",1,2,"left","left",0.60800004,1,1,1,1,NA,NA,NA,NA,NA,NA,NA,NA,NA,NA,NA,NA,NA,NA,NA,NA,NA,NA,NA,NA,NA,NA,NA,NA
"95","stim/objects/HouseObjects/towel2.png",208,19,208,0.9,"stim/22.jpeg",2,2,3,NA,"HouseObjects",1,3,"left","left",0.497000217,1,1,1,1,NA,NA,NA,NA,NA,NA,NA,NA,NA,NA,NA,NA,NA,NA,NA,NA,NA,NA,NA,NA,NA,NA,NA,NA
"206","stim/objects/Instruments/trumpet2.png",209,19,209,0.9,"stim/14.jpeg",1,4,3,NA,"Instruments",2,2,"right","right",0.526000023,1,1,1,1,NA,NA,NA,NA,NA,NA,NA,NA,NA,NA,NA,NA,NA,NA,NA,NA,NA,NA,NA,NA,NA,NA,NA,NA
"141","stim/objects/Instruments/speaker.png",210,19,210,0.5,"stim/33.jpeg",3,3,1,NA,"Instruments",2,3,"right","left",0.654999971,0,0,1,1,NA,NA,NA,NA,NA,NA,NA,NA,NA,NA,NA,NA,NA,NA,NA,NA,NA,NA,NA,NA,NA,NA,NA,NA
"87","stim/objects/HouseObjects/towel.png",211,19,211,0.3,"stim/52.jpeg",5,2,2,NA,"HouseObjects",1,1,"left","right",0.488000154,0,0,1,1,NA,NA,NA,NA,NA,NA,NA,NA,NA,NA,NA,NA,NA,NA,NA,NA,NA,NA,NA,NA,NA,NA,NA,NA
"47","stim/objects/HouseObjects/scale2.png",212,19,212,0.7,"stim/64.jpeg",6,4,2,NA,"HouseObjects",1,4,"left","left",0.552000046,1,1,1,1,NA,NA,NA,NA,NA,NA,NA,NA,NA,NA,NA,NA,NA,NA,NA,NA,NA,NA,NA,NA,NA,NA,NA,NA
"179","stim/objects/Instruments/triangle2.png",213,19,213,0.9,"stim/12.jpeg",1,2,3,NA,"Instruments",2,1,"right","right",0.519000053,1,1,1,1,NA,NA,NA,NA,NA,NA,NA,NA,NA,NA,NA,NA,NA,NA,NA,NA,NA,NA,NA,NA,NA,NA,NA,NA
"144","stim/objects/Instruments/speaker2.png",214,19,214,0.3,"stim/63.jpeg",6,3,2,NA,"Instruments",2,1,"right","left",0.617000103,0,0,1,1,NA,NA,NA,NA,NA,NA,NA,NA,NA,NA,NA,NA,NA,NA,NA,NA,NA,NA,NA,NA,NA,NA,NA,NA
"108","stim/objects/HouseObjects/vacuumcleaner2.png",215,19,215,0.9,"stim/23.jpeg",2,3,3,NA,"HouseObjects",1,4,"left","left",0.545000076,1,1,1,1,NA,NA,NA,NA,NA,NA,NA,NA,NA,NA,NA,NA,NA,NA,NA,NA,NA,NA,NA,NA,NA,NA,NA,NA
"180","stim/objects/Instruments/triangle2.png",216,19,216,0.9,"stim/12.jpeg",1,2,3,NA,"Instruments",2,1,"right","right",0.582000017,1,1,1,1,NA,NA,NA,NA,NA,NA,NA,NA,NA,NA,NA,NA,NA,NA,NA,NA,NA,NA,NA,NA,NA,NA,NA,NA
"12","stim/objects/HouseObjects/rug2.png",217,19,217,0.7,"stim/61.jpeg",6,1,2,NA,"HouseObjects",1,2,"left","left",0.445000172,1,1,1,1,NA,NA,NA,NA,NA,NA,NA,NA,NA,NA,NA,NA,NA,NA,NA,NA,NA,NA,NA,NA,NA,NA,NA,NA
"166","stim/objects/Instruments/timbal2.png",218,19,218,0.9,"stim/11.jpeg",1,1,3,NA,"Instruments",2,1,"right","right",0.498000145,1,1,1,1,NA,NA,NA,NA,NA,NA,NA,NA,NA,NA,NA,NA,NA,NA,NA,NA,NA,NA,NA,NA,NA,NA,NA,NA
"207","stim/objects/Instruments/trumpet2.png",219,19,219,0.9,"stim/14.jpeg",1,4,3,NA,"Instruments",2,3,"right","right",0.529000044,1,1,1,1,NA,NA,NA,NA,NA,NA,NA,NA,NA,NA,NA,NA,NA,NA,NA,NA,NA,NA,NA,NA,NA,NA,NA,NA
"36","stim/objects/HouseObjects/saw2.png",220,19,220,0.7,"stim/63.jpeg",6,3,2,NA,"HouseObjects",1,3,"left","left",0.521000147,1,1,1,1,NA,NA,NA,NA,NA,NA,NA,NA,NA,NA,NA,NA,NA,NA,NA,NA,NA,NA,NA,NA,NA,NA,NA,NA
"29","stim/objects/HouseObjects/saw.png",221,19,221,0.5,"stim/33.jpeg",3,3,1,NA,"HouseObjects",1,1,"left","left",0.748000145,1,1,1,1,NA,NA,NA,NA,NA,NA,NA,NA,NA,NA,NA,NA,NA,NA,NA,NA,NA,NA,NA,NA,NA,NA,NA,NA
"240","stim/objects/Instruments/xylophone2.png",222,19,222,0.1,"stim/24.jpeg",2,4,3,NA,"Instruments",2,3,"right","left",0.534000158,0,0,1,1,NA,NA,NA,NA,NA,NA,NA,NA,NA,NA,NA,NA,NA,NA,NA,NA,NA,NA,NA,NA,NA,NA,NA,NA
"71","stim/objects/HouseObjects/thermometer.png",223,19,223,0.5,"stim/44.jpeg",4,4,1,NA,"HouseObjects",1,1,"left","left",0.690000296,1,1,1,1,NA,NA,NA,NA,NA,NA,NA,NA,NA,NA,NA,NA,NA,NA,NA,NA,NA,NA,NA,NA,NA,NA,NA,NA
"147","stim/objects/Instruments/tambourine.png",224,19,224,0.5,"stim/34.jpeg",3,4,1,NA,"Instruments",2,1,"right","right",0.581000328,1,1,1,1,NA,NA,NA,NA,NA,NA,NA,NA,NA,NA,NA,NA,NA,NA,NA,NA,NA,NA,NA,NA,NA,NA,NA,NA
"148","stim/objects/Instruments/tambourine.png",225,19,225,0.5,"stim/34.jpeg",3,4,1,NA,"Instruments",2,4,"right","right",0.490000248,1,1,1,1,NA,NA,NA,NA,NA,NA,NA,NA,NA,NA,NA,NA,NA,NA,NA,NA,NA,NA,NA,NA,NA,NA,NA,NA
"149","stim/objects/Instruments/tambourine.png",226,19,226,0.5,"stim/34.jpeg",3,4,1,NA,"Instruments",2,1,"right","right",0.5,1,1,1,1,NA,NA,NA,NA,NA,NA,NA,NA,NA,NA,NA,NA,NA,NA,NA,NA,NA,NA,NA,NA,NA,NA,NA,NA
"111","stim/objects/HouseObjects/wateringcan.png",227,19,227,0.3,"stim/54.jpeg",5,4,2,NA,"HouseObjects",1,2,"left","right",0.570000172,0,0,1,1,NA,NA,NA,NA,NA,NA,NA,NA,NA,NA,NA,NA,NA,NA,NA,NA,NA,NA,NA,NA,NA,NA,NA,NA
"170","stim/objects/Instruments/triangle.png",228,19,228,0.5,"stim/42.jpeg",4,2,1,NA,"Instruments",2,1,"right","right",0.75,1,1,1,1,NA,NA,NA,NA,NA,NA,NA,NA,NA,NA,NA,NA,NA,NA,NA,NA,NA,NA,NA,NA,NA,NA,NA,NA
"120","stim/objects/HouseObjects/wateringcan2.png",229,19,229,0.9,"stim/24.jpeg",2,4,3,NA,"HouseObjects",1,1,"left","left",0.450000048,1,1,1,1,NA,NA,NA,NA,NA,NA,NA,NA,NA,NA,NA,NA,NA,NA,NA,NA,NA,NA,NA,NA,NA,NA,NA,NA
"48","stim/objects/HouseObjects/scale2.png",230,19,230,0.7,"stim/64.jpeg",6,4,2,NA,"HouseObjects",1,4,"left","left",0.579000235,1,1,1,1,NA,NA,NA,NA,NA,NA,NA,NA,NA,NA,NA,NA,NA,NA,NA,NA,NA,NA,NA,NA,NA,NA,NA,NA
"17","stim/objects/HouseObjects/safetypin.png",231,19,231,0.5,"stim/32.jpeg",3,2,1,NA,"HouseObjects",1,4,"left","right",0.436000109,0,0,1,1,NA,NA,NA,NA,NA,NA,NA,NA,NA,NA,NA,NA,NA,NA,NA,NA,NA,NA,NA,NA,NA,NA,NA,NA
"239","stim/objects/Instruments/xylophone.png",232,19,232,0.7,"stim/54.jpeg",5,4,2,NA,"Instruments",2,1,"right","right",0.531000137,1,1,1,1,NA,NA,NA,NA,NA,NA,NA,NA,NA,NA,NA,NA,NA,NA,NA,NA,NA,NA,NA,NA,NA,NA,NA,NA
"84","stim/objects/HouseObjects/thread2.png",233,19,233,0.9,"stim/21.jpeg",2,1,3,NA,"HouseObjects",1,2,"left","left",0.447999954,1,1,1,1,NA,NA,NA,NA,NA,NA,NA,NA,NA,NA,NA,NA,NA,NA,NA,NA,NA,NA,NA,NA,NA,NA,NA,NA
"208","stim/objects/Instruments/trumpet2.png",234,19,234,0.9,"stim/14.jpeg",1,4,3,NA,"Instruments",2,3,"right","right",0.549999952,1,1,1,1,NA,NA,NA,NA,NA,NA,NA,NA,NA,NA,NA,NA,NA,NA,NA,NA,NA,NA,NA,NA,NA,NA,NA,NA
"65","stim/objects/HouseObjects/teapot.png",235,19,235,0.5,"stim/43.jpeg",4,3,1,NA,"HouseObjects",1,4,"left","left",0.659000158,1,1,1,1,NA,NA,NA,NA,NA,NA,NA,NA,NA,NA,NA,NA,NA,NA,NA,NA,NA,NA,NA,NA,NA,NA,NA,NA
"96","stim/objects/HouseObjects/towel2.png",236,19,236,0.9,"stim/22.jpeg",2,2,3,NA,"HouseObjects",1,3,"left","left",0.538000107,1,1,1,1,NA,NA,NA,NA,NA,NA,NA,NA,NA,NA,NA,NA,NA,NA,NA,NA,NA,NA,NA,NA,NA,NA,NA,NA
"171","stim/objects/Instruments/triangle.png",237,19,237,0.5,"stim/42.jpeg",4,2,1,NA,"Instruments",2,2,"right","left",0.59100008,0,0,1,1,NA,NA,NA,NA,NA,NA,NA,NA,NA,NA,NA,NA,NA,NA,NA,NA,NA,NA,NA,NA,NA,NA,NA,NA
"59","stim/objects/HouseObjects/spraybottle.png",238,19,238,0.5,"stim/42.jpeg",4,2,1,NA,"HouseObjects",1,2,"left","right",0.723999977,0,0,1,1,NA,NA,NA,NA,NA,NA,NA,NA,NA,NA,NA,NA,NA,NA,NA,NA,NA,NA,NA,NA,NA,NA,NA,NA
"157","stim/objects/Instruments/timbal.png",239,19,239,0.5,"stim/41.jpeg",4,1,1,NA,"Instruments",2,4,"right","left",0.569000006,0,0,1,1,NA,NA,NA,NA,NA,NA,NA,NA,NA,NA,NA,NA,NA,NA,NA,NA,NA,NA,NA,NA,NA,NA,NA,NA
"24","stim/objects/HouseObjects/safetypin2.png",240,19,240,0.7,"stim/62.jpeg",6,2,2,NA,"HouseObjects",1,2,"left","left",0.494000196,1,1,1,1,NA,NA,NA,NA,NA,NA,NA,NA,NA,NA,NA,NA,NA,NA,NA,NA,NA,NA,NA,NA,NA,NA,NA,NA
"279","stim/objects/HouseObjects/coffee.png",248,19,241,0.7,"stim/61.jpeg",6,1,2,2,"HouseObjects",1,1,"left","left",0.779000282,1,1,1,0,NA,NA,NA,NA,NA,NA,NA,NA,NA,NA,NA,NA,NA,NA,NA,NA,NA,NA,NA,NA,NA,NA,NA,NA
"524","stim/objects/Instruments/grandpiano.png",249,19,242,0.9,"stim/13.jpeg",1,3,3,2,"Instruments",2,4,"right","right",0.503999949,1,1,1,0,NA,NA,NA,NA,NA,NA,NA,NA,NA,NA,NA,NA,NA,NA,NA,NA,NA,NA,NA,NA,NA,NA,NA,NA
"544","stim/objects/Instruments/harmonica2.png",250,19,243,0.9,"stim/11.jpeg",1,1,3,1,"Instruments",2,3,"right","right",0.541000128,1,1,1,0,197,19,1,0.9,2,"stim/11.jpeg",1,1,"stim/11.jpeg",3,"left",1.764999866,3,1,1.4599998,1,0.730999708,197,1,1,1,0,0,1
"409","stim/objects/Instruments/acousticguitar.png",251,19,244,0.5,"stim/31.jpeg",3,1,1,2,"Instruments",2,4,"right","left",0.721000195,0,0,1,0,NA,NA,NA,NA,NA,NA,NA,NA,NA,NA,NA,NA,NA,NA,NA,NA,NA,NA,NA,NA,NA,NA,NA,NA
"427","stim/objects/Instruments/chime.png",252,19,245,0.5,"stim/44.jpeg",4,4,1,2,"Instruments",2,1,"right","right",0.638000011,1,1,1,0,NA,NA,NA,NA,NA,NA,NA,NA,NA,NA,NA,NA,NA,NA,NA,NA,NA,NA,NA,NA,NA,NA,NA,NA
"456","stim/objects/Instruments/flute.png",253,19,246,0.9,"stim/13.jpeg",1,3,3,2,"Instruments",2,4,"right","right",0.536000013,1,1,1,0,NA,NA,NA,NA,NA,NA,NA,NA,NA,NA,NA,NA,NA,NA,NA,NA,NA,NA,NA,NA,NA,NA,NA,NA
"342","stim/objects/HouseObjects/garbagebin.png",254,19,247,0.9,"stim/22.jpeg",2,2,3,2,"HouseObjects",1,1,"left","left",0.478000164,1,1,1,0,NA,NA,NA,NA,NA,NA,NA,NA,NA,NA,NA,NA,NA,NA,NA,NA,NA,NA,NA,NA,NA,NA,NA,NA
"270","stim/objects/HouseObjects/clock2.png",255,19,248,0.7,"stim/64.jpeg",6,4,2,1,"HouseObjects",1,1,"left","left",0.605000257,1,1,1,0,158,19,1,0.7,1,"stim/64.jpeg",6,4,"stim/64.jpeg",1,"left",0.917999744,3,4,1.994999886,4,1.194999933,158,1,1,1,0,0,1
"448","stim/objects/Instruments/electricdrumset.png",256,19,249,0.7,"stim/53.jpeg",5,3,2,2,"Instruments",2,2,"right","right",0.526000261,1,1,1,0,NA,NA,NA,NA,NA,NA,NA,NA,NA,NA,NA,NA,NA,NA,NA,NA,NA,NA,NA,NA,NA,NA,NA,NA
"525","stim/objects/Instruments/grandpiano.png",257,19,250,0.9,"stim/12.jpeg",1,2,3,2,"Instruments",2,3,"right","right",0.50600028,1,1,1,0,NA,NA,NA,NA,NA,NA,NA,NA,NA,NA,NA,NA,NA,NA,NA,NA,NA,NA,NA,NA,NA,NA,NA,NA
"343","stim/objects/HouseObjects/garbagebin.png",258,19,251,0.9,"stim/24.jpeg",2,4,3,2,"HouseObjects",1,3,"left","left",0.45600009,1,1,1,0,NA,NA,NA,NA,NA,NA,NA,NA,NA,NA,NA,NA,NA,NA,NA,NA,NA,NA,NA,NA,NA,NA,NA,NA
"325","stim/objects/HouseObjects/flyswatter.png",259,19,252,0.9,"stim/24.jpeg",2,4,3,2,"HouseObjects",1,4,"left","left",0.476999998,1,1,1,0,NA,NA,NA,NA,NA,NA,NA,NA,NA,NA,NA,NA,NA,NA,NA,NA,NA,NA,NA,NA,NA,NA,NA,NA
"526","stim/objects/Instruments/grandpiano.png",260,19,253,0.9,"stim/11.jpeg",1,1,3,2,"Instruments",2,3,"right","right",0.512000084,1,1,1,0,NA,NA,NA,NA,NA,NA,NA,NA,NA,NA,NA,NA,NA,NA,NA,NA,NA,NA,NA,NA,NA,NA,NA,NA
"473","stim/objects/Instruments/flutetrans.png",261,19,254,0.9,"stim/13.jpeg",1,3,3,2,"Instruments",2,4,"right","right",0.489000082,1,1,1,0,NA,NA,NA,NA,NA,NA,NA,NA,NA,NA,NA,NA,NA,NA,NA,NA,NA,NA,NA,NA,NA,NA,NA,NA
"474","stim/objects/Instruments/flutetrans.png",262,19,255,0.9,"stim/11.jpeg",1,1,3,2,"Instruments",2,3,"right","right",0.49600029,1,1,1,0,NA,NA,NA,NA,NA,NA,NA,NA,NA,NA,NA,NA,NA,NA,NA,NA,NA,NA,NA,NA,NA,NA,NA,NA
"326","stim/objects/HouseObjects/flyswatter.png",263,19,256,0.9,"stim/24.jpeg",2,4,3,2,"HouseObjects",1,3,"left","left",0.512000084,1,1,1,0,NA,NA,NA,NA,NA,NA,NA,NA,NA,NA,NA,NA,NA,NA,NA,NA,NA,NA,NA,NA,NA,NA,NA,NA
"451","stim/objects/Instruments/electricdrumset2.png",264,19,257,0.3,"stim/62.jpeg",6,2,2,1,"Instruments",2,4,"right","left",0.552000046,0,0,1,0,35,19,1,0.3,2,"stim/62.jpeg",6,2,"stim/62.jpeg",4,"left",1.930999756,2,3,2.753999949,2,1.25,35,1,0,0,0,0,1
"475","stim/objects/Instruments/flutetrans.png",265,19,258,0.9,"stim/14.jpeg",1,4,3,2,"Instruments",2,4,"right","right",0.487000227,1,1,1,0,NA,NA,NA,NA,NA,NA,NA,NA,NA,NA,NA,NA,NA,NA,NA,NA,NA,NA,NA,NA,NA,NA,NA,NA
"457","stim/objects/Instruments/flute.png",266,19,259,0.9,"stim/11.jpeg",1,1,3,2,"Instruments",2,4,"right","right",0.481000185,1,1,1,0,NA,NA,NA,NA,NA,NA,NA,NA,NA,NA,NA,NA,NA,NA,NA,NA,NA,NA,NA,NA,NA,NA,NA,NA
"287","stim/objects/HouseObjects/dishsoap.png",267,19,260,0.7,"stim/61.jpeg",6,1,2,2,"HouseObjects",1,3,"left","left",0.630000114,1,1,1,0,NA,NA,NA,NA,NA,NA,NA,NA,NA,NA,NA,NA,NA,NA,NA,NA,NA,NA,NA,NA,NA,NA,NA,NA
"443","stim/objects/Instruments/doublebass2.png",268,19,261,0.3,"stim/64.jpeg",6,4,2,1,"Instruments",2,2,"right","left",0.592999935,0,0,1,0,153,19,1,0.3,2,"stim/64.jpeg",6,4,"stim/64.jpeg",2,"right",1.098999977,3,3,1.309999943,1,1.4599998,153,0,0,NA,0,NA,1
"269","stim/objects/HouseObjects/clock.png",269,19,262,0.5,"stim/43.jpeg",4,3,1,2,"HouseObjects",1,1,"left","left",0.615999937,1,1,1,0,NA,NA,NA,NA,NA,NA,NA,NA,NA,NA,NA,NA,NA,NA,NA,NA,NA,NA,NA,NA,NA,NA,NA,NA
"327","stim/objects/HouseObjects/flyswatter.png",270,19,263,0.9,"stim/21.jpeg",2,1,3,2,"HouseObjects",1,3,"left","left",0.450999975,1,1,1,0,NA,NA,NA,NA,NA,NA,NA,NA,NA,NA,NA,NA,NA,NA,NA,NA,NA,NA,NA,NA,NA,NA,NA,NA
"387","stim/objects/HouseObjects/ironingboard2.png",271,19,264,0.9,"stim/21.jpeg",2,1,3,1,"HouseObjects",1,4,"left","left",0.479000092,1,1,1,0,178,19,1,0.9,1,"stim/21.jpeg",2,1,"stim/21.jpeg",4,"left",0.830999851,3,4,1.570999861,2,0.996999741,178,1,0,0,0,0,1
"328","stim/objects/HouseObjects/flyswatter.png",272,19,265,0.9,"stim/22.jpeg",2,2,3,2,"HouseObjects",1,1,"left","left",0.43900013,1,1,1,0,NA,NA,NA,NA,NA,NA,NA,NA,NA,NA,NA,NA,NA,NA,NA,NA,NA,NA,NA,NA,NA,NA,NA,NA
"508","stim/objects/Instruments/gong.png",273,19,266,0.9,"stim/13.jpeg",1,3,3,2,"Instruments",2,2,"right","right",0.497000217,1,1,1,0,NA,NA,NA,NA,NA,NA,NA,NA,NA,NA,NA,NA,NA,NA,NA,NA,NA,NA,NA,NA,NA,NA,NA,NA
"383","stim/objects/HouseObjects/handvacuum2.png",274,19,267,0.1,"stim/11.jpeg",1,1,3,1,"HouseObjects",1,2,"left","right",0.493000031,0,0,1,0,101,19,1,0.1,1,"stim/11.jpeg",1,1,"stim/11.jpeg",2,"right",0.888999939,1,4,2.106999874,1,1.136999846,101,0,0,NA,0,NA,1
"360","stim/objects/HouseObjects/glass.png",275,19,268,0.9,"stim/22.jpeg",2,2,3,2,"HouseObjects",1,2,"left","left",0.55700016,1,1,1,0,NA,NA,NA,NA,NA,NA,NA,NA,NA,NA,NA,NA,NA,NA,NA,NA,NA,NA,NA,NA,NA,NA,NA,NA
"418","stim/objects/Instruments/bassdrum.png",276,19,269,0.5,"stim/31.jpeg",3,1,1,2,"Instruments",2,1,"right","left",0.5400002,0,0,1,0,NA,NA,NA,NA,NA,NA,NA,NA,NA,NA,NA,NA,NA,NA,NA,NA,NA,NA,NA,NA,NA,NA,NA,NA
"344","stim/objects/HouseObjects/garbagebin.png",277,19,270,0.9,"stim/23.jpeg",2,3,3,2,"HouseObjects",1,2,"left","left",0.485000134,1,1,1,0,NA,NA,NA,NA,NA,NA,NA,NA,NA,NA,NA,NA,NA,NA,NA,NA,NA,NA,NA,NA,NA,NA,NA,NA
"541","stim/objects/Instruments/guitarcase.png",278,19,271,0.5,"stim/32.jpeg",3,2,1,1,"Instruments",2,2,"right","right",0.509000063,1,1,1,0,15,19,1,0.5,1,"stim/32.jpeg",3,2,"stim/32.jpeg",2,"left",1.566999912,4,2,4.564999819,1,1.24000001,15,1,1,1,0,0,1
"490","stim/objects/Instruments/frenchhorn.png",279,19,272,0.9,"stim/14.jpeg",1,4,3,2,"Instruments",2,4,"right","right",0.54700017,1,1,1,0,NA,NA,NA,NA,NA,NA,NA,NA,NA,NA,NA,NA,NA,NA,NA,NA,NA,NA,NA,NA,NA,NA,NA,NA
"558","stim/objects/Instruments/metronome2.png",280,19,273,0.1,"stim/22.jpeg",2,2,3,1,"Instruments",2,3,"right","left",0.46600008,0,0,1,0,7,19,1,0.1,2,"stim/22.jpeg",2,2,"stim/22.jpeg",3,"left",1.368999958,4,3,2.980999947,3,1.624999762,7,1,0,0,1,1,1
"412","stim/objects/Instruments/balalaika.png",281,19,274,0.5,"stim/33.jpeg",3,3,1,2,"Instruments",2,4,"right","right",0.582000017,1,1,1,0,NA,NA,NA,NA,NA,NA,NA,NA,NA,NA,NA,NA,NA,NA,NA,NA,NA,NA,NA,NA,NA,NA,NA,NA
"477","stim/objects/Instruments/flutetrans.png",282,19,275,0.9,"stim/12.jpeg",1,2,3,2,"Instruments",2,4,"right","right",0.47300005,1,1,1,0,NA,NA,NA,NA,NA,NA,NA,NA,NA,NA,NA,NA,NA,NA,NA,NA,NA,NA,NA,NA,NA,NA,NA,NA
"308","stim/objects/HouseObjects/dustpan.png",283,19,276,0.9,"stim/21.jpeg",2,1,3,2,"HouseObjects",1,3,"left","left",0.582999945,1,1,1,0,NA,NA,NA,NA,NA,NA,NA,NA,NA,NA,NA,NA,NA,NA,NA,NA,NA,NA,NA,NA,NA,NA,NA,NA
"292","stim/objects/HouseObjects/doormat.png",284,19,277,0.9,"stim/24.jpeg",2,4,3,2,"HouseObjects",1,4,"left","left",0.529000282,1,1,1,0,NA,NA,NA,NA,NA,NA,NA,NA,NA,NA,NA,NA,NA,NA,NA,NA,NA,NA,NA,NA,NA,NA,NA,NA
"509","stim/objects/Instruments/gong.png",285,19,278,0.9,"stim/12.jpeg",1,2,3,2,"Instruments",2,2,"right","right",0.472000122,1,1,1,0,NA,NA,NA,NA,NA,NA,NA,NA,NA,NA,NA,NA,NA,NA,NA,NA,NA,NA,NA,NA,NA,NA,NA,NA
"492","stim/objects/Instruments/frenchhorn.png",286,19,279,0.9,"stim/13.jpeg",1,3,3,2,"Instruments",2,1,"right","right",0.568000078,1,1,1,0,NA,NA,NA,NA,NA,NA,NA,NA,NA,NA,NA,NA,NA,NA,NA,NA,NA,NA,NA,NA,NA,NA,NA,NA
"429","stim/objects/Instruments/chime2.png",287,19,280,0.3,"stim/64.jpeg",6,4,2,1,"Instruments",2,1,"right","left",0.583999872,0,0,1,0,108,19,1,0.3,2,"stim/64.jpeg",6,4,"stim/64.jpeg",1,"left",1.247999907,4,1,2.458999872,2,1.776000023,108,1,0,0,0,0,1
"345","stim/objects/HouseObjects/garbagebin.png",288,19,281,0.9,"stim/23.jpeg",2,3,3,2,"HouseObjects",1,3,"left","left",0.48300004,1,1,1,0,NA,NA,NA,NA,NA,NA,NA,NA,NA,NA,NA,NA,NA,NA,NA,NA,NA,NA,NA,NA,NA,NA,NA,NA
"293","stim/objects/HouseObjects/doormat.png",289,19,282,0.9,"stim/23.jpeg",2,3,3,2,"HouseObjects",1,2,"left","left",0.467000008,1,1,1,0,NA,NA,NA,NA,NA,NA,NA,NA,NA,NA,NA,NA,NA,NA,NA,NA,NA,NA,NA,NA,NA,NA,NA,NA
"546","stim/objects/Instruments/harp2.png",290,19,283,0.9,"stim/12.jpeg",1,2,3,1,"Instruments",2,2,"right","right",0.434000254,1,1,1,0,14,19,1,0.9,2,"stim/12.jpeg",1,2,"stim/12.jpeg",2,"left",0.858999729,3,2,2.890999794,2,1.218999863,14,1,1,1,1,1,1
"548","stim/objects/Instruments/hihat2.png",291,19,284,0.9,"stim/13.jpeg",1,3,3,1,"Instruments",2,3,"right","right",0.538000107,1,1,1,0,182,19,1,0.9,2,"stim/13.jpeg",1,3,"stim/13.jpeg",3,"right",0.662999868,2,2,1.597999811,3,2.100999832,182,0,0,NA,1,NA,1
"250","stim/objects/HouseObjects/basket.png",292,19,285,0.5,"stim/31.jpeg",3,1,1,2,"HouseObjects",1,3,"left","right",0.481000185,0,0,1,0,NA,NA,NA,NA,NA,NA,NA,NA,NA,NA,NA,NA,NA,NA,NA,NA,NA,NA,NA,NA,NA,NA,NA,NA
"361","stim/objects/HouseObjects/glass.png",293,19,286,0.9,"stim/22.jpeg",2,2,3,2,"HouseObjects",1,3,"left","left",0.52699995,1,1,1,0,NA,NA,NA,NA,NA,NA,NA,NA,NA,NA,NA,NA,NA,NA,NA,NA,NA,NA,NA,NA,NA,NA,NA,NA
"264","stim/objects/HouseObjects/broom2.png",294,19,287,0.7,"stim/62.jpeg",6,2,2,1,"HouseObjects",1,2,"left","left",0.561000109,1,1,1,0,2,19,1,0.7,1,"stim/62.jpeg",6,2,"stim/62.jpeg",2,"left",0.76099968,3,1,4.434000015,2,4.147999763,2,1,0,0,1,1,1
"275","stim/objects/HouseObjects/clothespin.png",295,19,288,0.7,"stim/62.jpeg",6,2,2,2,"HouseObjects",1,2,"left","left",0.486000061,1,1,1,0,NA,NA,NA,NA,NA,NA,NA,NA,NA,NA,NA,NA,NA,NA,NA,NA,NA,NA,NA,NA,NA,NA,NA,NA
"390","stim/objects/HouseObjects/knife.png",296,19,289,0.5,"stim/43.jpeg",4,3,1,1,"HouseObjects",1,1,"left","left",0.632999897,1,1,1,0,140,19,1,0.5,2,"stim/43.jpeg",4,3,"stim/43.jpeg",1,"right",0.546000004,1,3,2.14199996,2,2.995999813,140,0,1,NA,0,NA,1
"274","stim/objects/HouseObjects/clothesdryingrack2.png",297,19,290,0.7,"stim/61.jpeg",6,1,2,1,"HouseObjects",1,4,"left","left",0.61500001,1,1,1,0,93,19,1,0.7,1,"stim/61.jpeg",6,1,"stim/61.jpeg",4,"right",1.402999878,2,4,1.755999804,4,1.857999802,93,0,0,NA,1,NA,1
"309","stim/objects/HouseObjects/dustpan.png",298,19,291,0.9,"stim/24.jpeg",2,4,3,2,"HouseObjects",1,2,"left","left",0.506999969,1,1,1,0,NA,NA,NA,NA,NA,NA,NA,NA,NA,NA,NA,NA,NA,NA,NA,NA,NA,NA,NA,NA,NA,NA,NA,NA
"362","stim/objects/HouseObjects/glass.png",299,19,292,0.9,"stim/21.jpeg",2,1,3,2,"HouseObjects",1,4,"left","left",0.516000271,1,1,1,0,NA,NA,NA,NA,NA,NA,NA,NA,NA,NA,NA,NA,NA,NA,NA,NA,NA,NA,NA,NA,NA,NA,NA,NA
"329","stim/objects/HouseObjects/flyswatter.png",300,19,293,0.9,"stim/21.jpeg",2,1,3,2,"HouseObjects",1,1,"left","left",0.480000019,1,1,1,0,NA,NA,NA,NA,NA,NA,NA,NA,NA,NA,NA,NA,NA,NA,NA,NA,NA,NA,NA,NA,NA,NA,NA,NA
"363","stim/objects/HouseObjects/glass.png",301,19,294,0.9,"stim/22.jpeg",2,2,3,2,"HouseObjects",1,4,"left","left",0.430000067,1,1,1,0,NA,NA,NA,NA,NA,NA,NA,NA,NA,NA,NA,NA,NA,NA,NA,NA,NA,NA,NA,NA,NA,NA,NA,NA
"364","stim/objects/HouseObjects/glass.png",302,19,295,0.9,"stim/23.jpeg",2,3,3,2,"HouseObjects",1,1,"left","left",0.460999966,1,1,1,0,NA,NA,NA,NA,NA,NA,NA,NA,NA,NA,NA,NA,NA,NA,NA,NA,NA,NA,NA,NA,NA,NA,NA,NA
"396","stim/objects/HouseObjects/pan.png",303,19,296,0.3,"stim/51.jpeg",5,1,2,1,"HouseObjects",1,4,"left","right",0.478000164,0,0,1,0,43,19,1,0.3,1,"stim/51.jpeg",5,1,"stim/51.jpeg",4,"left",0.902999878,3,4,3.048999786,4,3.746000051,43,1,0,0,1,1,1
"288","stim/objects/HouseObjects/dishsoap.png",304,19,297,0.7,"stim/63.jpeg",6,3,2,2,"HouseObjects",1,4,"left","left",0.54700017,1,1,1,0,NA,NA,NA,NA,NA,NA,NA,NA,NA,NA,NA,NA,NA,NA,NA,NA,NA,NA,NA,NA,NA,NA,NA,NA
"432","stim/objects/Instruments/clarinet2.png",305,19,298,0.3,"stim/61.jpeg",6,1,2,1,"Instruments",2,3,"right","left",0.472000122,0,0,1,0,141,19,1,0.3,2,"stim/61.jpeg",6,1,"stim/61.jpeg",3,"left",1.162999868,4,1,3.250999928,1,1.32799983,141,1,1,1,0,0,1
"444","stim/objects/Instruments/drums.png",306,19,299,0.7,"stim/53.jpeg",5,3,2,2,"Instruments",2,2,"right","right",0.538000107,1,1,1,0,NA,NA,NA,NA,NA,NA,NA,NA,NA,NA,NA,NA,NA,NA,NA,NA,NA,NA,NA,NA,NA,NA,NA,NA
"276","stim/objects/HouseObjects/clothespin.png",307,19,300,0.7,"stim/64.jpeg",6,4,2,2,"HouseObjects",1,3,"left","left",0.683000088,1,1,1,0,NA,NA,NA,NA,NA,NA,NA,NA,NA,NA,NA,NA,NA,NA,NA,NA,NA,NA,NA,NA,NA,NA,NA,NA
"330","stim/objects/HouseObjects/flyswatter.png",308,19,301,0.9,"stim/24.jpeg",2,4,3,2,"HouseObjects",1,1,"left","left",0.442000151,1,1,1,0,NA,NA,NA,NA,NA,NA,NA,NA,NA,NA,NA,NA,NA,NA,NA,NA,NA,NA,NA,NA,NA,NA,NA,NA
"542","stim/objects/Instruments/guitarcase2.png",309,19,302,0.9,"stim/14.jpeg",1,4,3,1,"Instruments",2,4,"right","right",0.521000147,1,1,1,0,162,19,1,0.9,2,"stim/14.jpeg",1,4,"stim/14.jpeg",4,"left",1.4599998,3,1,1.476999998,2,0.947000027,162,1,0,0,0,0,1
"449","stim/objects/Instruments/electricdrumset.png",310,19,303,0.7,"stim/52.jpeg",5,2,2,2,"Instruments",2,3,"right","right",0.592000246,1,1,1,0,NA,NA,NA,NA,NA,NA,NA,NA,NA,NA,NA,NA,NA,NA,NA,NA,NA,NA,NA,NA,NA,NA,NA,NA
"511","stim/objects/Instruments/gong.png",311,19,304,0.9,"stim/14.jpeg",1,4,3,2,"Instruments",2,4,"right","right",0.448000193,1,1,1,0,NA,NA,NA,NA,NA,NA,NA,NA,NA,NA,NA,NA,NA,NA,NA,NA,NA,NA,NA,NA,NA,NA,NA,NA
"512","stim/objects/Instruments/gong.png",312,19,305,0.9,"stim/13.jpeg",1,3,3,2,"Instruments",2,2,"right","right",0.604000092,1,1,1,0,NA,NA,NA,NA,NA,NA,NA,NA,NA,NA,NA,NA,NA,NA,NA,NA,NA,NA,NA,NA,NA,NA,NA,NA
"241","stim/objects/HouseObjects/ashtray.png",313,19,306,0.5,"stim/32.jpeg",3,2,1,2,"HouseObjects",1,2,"left","left",0.644999981,1,1,1,0,NA,NA,NA,NA,NA,NA,NA,NA,NA,NA,NA,NA,NA,NA,NA,NA,NA,NA,NA,NA,NA,NA,NA,NA
"244","stim/objects/HouseObjects/ballofstring.png",314,19,307,0.5,"stim/32.jpeg",3,2,1,2,"HouseObjects",1,3,"left","left",0.47300005,1,1,1,0,NA,NA,NA,NA,NA,NA,NA,NA,NA,NA,NA,NA,NA,NA,NA,NA,NA,NA,NA,NA,NA,NA,NA,NA
"346","stim/objects/HouseObjects/garbagebin.png",315,19,308,0.9,"stim/21.jpeg",2,1,3,2,"HouseObjects",1,3,"left","left",0.545000076,1,1,1,0,NA,NA,NA,NA,NA,NA,NA,NA,NA,NA,NA,NA,NA,NA,NA,NA,NA,NA,NA,NA,NA,NA,NA,NA
"494","stim/objects/Instruments/frenchhorn.png",316,19,309,0.9,"stim/13.jpeg",1,3,3,2,"Instruments",2,1,"right","right",0.444000244,1,1,1,0,NA,NA,NA,NA,NA,NA,NA,NA,NA,NA,NA,NA,NA,NA,NA,NA,NA,NA,NA,NA,NA,NA,NA,NA
"441","stim/objects/Instruments/doublebass.png",317,19,310,0.7,"stim/54.jpeg",5,4,2,2,"Instruments",2,2,"right","right",0.49000001,1,1,1,0,NA,NA,NA,NA,NA,NA,NA,NA,NA,NA,NA,NA,NA,NA,NA,NA,NA,NA,NA,NA,NA,NA,NA,NA
"347","stim/objects/HouseObjects/garbagebin.png",318,19,311,0.9,"stim/22.jpeg",2,2,3,2,"HouseObjects",1,1,"left","left",0.486000061,1,1,1,0,NA,NA,NA,NA,NA,NA,NA,NA,NA,NA,NA,NA,NA,NA,NA,NA,NA,NA,NA,NA,NA,NA,NA,NA
"294","stim/objects/HouseObjects/doormat.png",319,19,312,0.9,"stim/21.jpeg",2,1,3,2,"HouseObjects",1,3,"left","left",0.498000145,1,1,1,0,NA,NA,NA,NA,NA,NA,NA,NA,NA,NA,NA,NA,NA,NA,NA,NA,NA,NA,NA,NA,NA,NA,NA,NA
"428","stim/objects/Instruments/chime.png",320,19,313,0.5,"stim/41.jpeg",4,1,1,2,"Instruments",2,2,"right","left",0.593000174,0,0,1,0,NA,NA,NA,NA,NA,NA,NA,NA,NA,NA,NA,NA,NA,NA,NA,NA,NA,NA,NA,NA,NA,NA,NA,NA
"513","stim/objects/Instruments/gong.png",321,19,314,0.9,"stim/11.jpeg",1,1,3,2,"Instruments",2,3,"right","right",0.450000286,1,1,1,0,NA,NA,NA,NA,NA,NA,NA,NA,NA,NA,NA,NA,NA,NA,NA,NA,NA,NA,NA,NA,NA,NA,NA,NA
"380","stim/objects/HouseObjects/handbrush.png",322,19,315,0.5,"stim/31.jpeg",3,1,1,1,"HouseObjects",1,4,"left","right",0.453999996,0,0,1,0,84,19,1,0.5,1,"stim/31.jpeg",3,1,"stim/31.jpeg",4,"right",0.540999889,2,1,4.362999916,2,1.210000038,84,0,1,NA,0,NA,1
"348","stim/objects/HouseObjects/garbagebin.png",323,19,316,0.9,"stim/23.jpeg",2,3,3,2,"HouseObjects",1,3,"left","left",0.463000298,1,1,1,0,NA,NA,NA,NA,NA,NA,NA,NA,NA,NA,NA,NA,NA,NA,NA,NA,NA,NA,NA,NA,NA,NA,NA,NA
"331","stim/objects/HouseObjects/flyswatter.png",324,19,317,0.9,"stim/21.jpeg",2,1,3,2,"HouseObjects",1,1,"left","left",0.447000027,1,1,1,0,NA,NA,NA,NA,NA,NA,NA,NA,NA,NA,NA,NA,NA,NA,NA,NA,NA,NA,NA,NA,NA,NA,NA,NA
"514","stim/objects/Instruments/gong.png",325,19,318,0.9,"stim/14.jpeg",1,4,3,2,"Instruments",2,1,"right","right",0.664000034,1,1,1,0,NA,NA,NA,NA,NA,NA,NA,NA,NA,NA,NA,NA,NA,NA,NA,NA,NA,NA,NA,NA,NA,NA,NA,NA
"295","stim/objects/HouseObjects/doormat.png",326,19,319,0.9,"stim/23.jpeg",2,3,3,2,"HouseObjects",1,1,"left","left",0.511000156,1,1,1,0,NA,NA,NA,NA,NA,NA,NA,NA,NA,NA,NA,NA,NA,NA,NA,NA,NA,NA,NA,NA,NA,NA,NA,NA
"349","stim/objects/HouseObjects/garbagebin.png",327,19,320,0.9,"stim/21.jpeg",2,1,3,2,"HouseObjects",1,3,"left","left",0.414000273,1,1,1,0,NA,NA,NA,NA,NA,NA,NA,NA,NA,NA,NA,NA,NA,NA,NA,NA,NA,NA,NA,NA,NA,NA,NA,NA
"310","stim/objects/HouseObjects/dustpan.png",328,19,321,0.9,"stim/21.jpeg",2,1,3,2,"HouseObjects",1,3,"left","left",0.435000181,1,1,1,0,NA,NA,NA,NA,NA,NA,NA,NA,NA,NA,NA,NA,NA,NA,NA,NA,NA,NA,NA,NA,NA,NA,NA,NA
"296","stim/objects/HouseObjects/doormat.png",329,19,322,0.9,"stim/24.jpeg",2,4,3,2,"HouseObjects",1,2,"left","left",0.473999977,1,1,1,0,NA,NA,NA,NA,NA,NA,NA,NA,NA,NA,NA,NA,NA,NA,NA,NA,NA,NA,NA,NA,NA,NA,NA,NA
"459","stim/objects/Instruments/flute.png",330,19,323,0.9,"stim/12.jpeg",1,2,3,2,"Instruments",2,2,"right","right",0.428000212,1,1,1,0,NA,NA,NA,NA,NA,NA,NA,NA,NA,NA,NA,NA,NA,NA,NA,NA,NA,NA,NA,NA,NA,NA,NA,NA
"460","stim/objects/Instruments/flute.png",331,19,324,0.9,"stim/13.jpeg",1,3,3,2,"Instruments",2,3,"right","right",0.528000116,1,1,1,0,NA,NA,NA,NA,NA,NA,NA,NA,NA,NA,NA,NA,NA,NA,NA,NA,NA,NA,NA,NA,NA,NA,NA,NA
"403","stim/objects/HouseObjects/remote2.png",332,19,325,0.9,"stim/21.jpeg",2,1,3,1,"HouseObjects",1,2,"left","left",0.502000093,1,1,1,0,47,19,1,0.9,1,"stim/21.jpeg",2,1,"stim/21.jpeg",2,"left",1.009999752,4,3,2.713999748,4,3.215999842,47,1,0,0,0,0,1
"265","stim/objects/HouseObjects/bucket.png",333,19,326,0.5,"stim/43.jpeg",4,3,1,2,"HouseObjects",1,3,"left","left",0.675000191,1,1,1,0,NA,NA,NA,NA,NA,NA,NA,NA,NA,NA,NA,NA,NA,NA,NA,NA,NA,NA,NA,NA,NA,NA,NA,NA
"391","stim/objects/HouseObjects/knife2.png",334,19,327,0.9,"stim/23.jpeg",2,3,3,1,"HouseObjects",1,3,"left","left",0.467000008,1,1,1,0,138,19,1,0.9,1,"stim/23.jpeg",2,3,"stim/23.jpeg",3,"right",0.613999844,2,1,1.47699976,1,1.345999718,138,0,0,NA,0,NA,1
"246","stim/objects/HouseObjects/ballofstring2.png",335,19,328,0.3,"stim/53.jpeg",5,3,2,1,"HouseObjects",1,3,"left","right",0.567000151,0,0,1,0,110,19,1,0.3,1,"stim/53.jpeg",5,3,"stim/53.jpeg",3,"right",0.784999847,2,1,1.542999744,1,1.064999819,110,0,0,NA,0,NA,1
"283","stim/objects/HouseObjects/cushion.png",336,19,329,0.7,"stim/61.jpeg",6,1,2,2,"HouseObjects",1,4,"left","right",0.683000088,0,0,1,0,NA,NA,NA,NA,NA,NA,NA,NA,NA,NA,NA,NA,NA,NA,NA,NA,NA,NA,NA,NA,NA,NA,NA,NA
"365","stim/objects/HouseObjects/glass.png",337,19,330,0.9,"stim/21.jpeg",2,1,3,2,"HouseObjects",1,1,"left","left",0.527999878,1,1,1,0,NA,NA,NA,NA,NA,NA,NA,NA,NA,NA,NA,NA,NA,NA,NA,NA,NA,NA,NA,NA,NA,NA,NA,NA
"478","stim/objects/Instruments/flutetrans.png",338,19,331,0.9,"stim/11.jpeg",1,1,3,2,"Instruments",2,2,"right","right",0.496000051,1,1,1,0,NA,NA,NA,NA,NA,NA,NA,NA,NA,NA,NA,NA,NA,NA,NA,NA,NA,NA,NA,NA,NA,NA,NA,NA
"350","stim/objects/HouseObjects/garbagebin.png",339,19,332,0.9,"stim/23.jpeg",2,3,3,2,"HouseObjects",1,1,"left","left",0.516000032,1,1,1,0,NA,NA,NA,NA,NA,NA,NA,NA,NA,NA,NA,NA,NA,NA,NA,NA,NA,NA,NA,NA,NA,NA,NA,NA
"400","stim/objects/HouseObjects/recyclingbin.png",340,19,333,0.3,"stim/53.jpeg",5,3,2,1,"HouseObjects",1,1,"left","right",0.546999931,0,0,1,0,12,19,1,0.3,1,"stim/53.jpeg",5,3,"stim/53.jpeg",1,"left",0.906999826,4,1,3.353999853,1,0.875999689,12,1,0,0,1,1,1
"545","stim/objects/Instruments/harp.png",341,19,334,0.5,"stim/34.jpeg",3,4,1,1,"Instruments",2,2,"right","left",0.464000225,0,0,1,0,185,19,1,0.5,1,"stim/34.jpeg",3,4,"stim/34.jpeg",2,"left",0.712999821,3,4,1.621999741,2,2.5,185,1,1,1,1,1,1
"311","stim/objects/HouseObjects/dustpan.png",342,19,335,0.9,"stim/23.jpeg",2,3,3,2,"HouseObjects",1,1,"left","left",0.434000254,1,1,1,0,NA,NA,NA,NA,NA,NA,NA,NA,NA,NA,NA,NA,NA,NA,NA,NA,NA,NA,NA,NA,NA,NA,NA,NA
"393","stim/objects/HouseObjects/lintroller2.png",343,19,336,0.9,"stim/24.jpeg",2,4,3,1,"HouseObjects",1,4,"left","left",0.485000134,1,1,1,0,3,19,1,0.9,1,"stim/24.jpeg",2,4,"stim/24.jpeg",4,"left",2.096999884,3,4,2.739000082,4,1.582999706,3,1,1,1,1,1,1
"405","stim/objects/HouseObjects/rubbergloves2.png",344,19,337,0.9,"stim/22.jpeg",2,2,3,1,"HouseObjects",1,4,"left","left",0.478000164,1,1,1,0,172,19,1,0.9,1,"stim/22.jpeg",2,2,"stim/22.jpeg",4,"right",0.635999918,2,1,1.333999872,3,2.471999884,172,0,0,NA,0,NA,1
"529","stim/objects/Instruments/grandpiano.png",345,19,338,0.9,"stim/13.jpeg",1,3,3,2,"Instruments",2,1,"right","right",0.731000185,1,1,1,0,NA,NA,NA,NA,NA,NA,NA,NA,NA,NA,NA,NA,NA,NA,NA,NA,NA,NA,NA,NA,NA,NA,NA,NA
"563","stim/objects/Instruments/oboe.png",346,19,339,0.7,"stim/53.jpeg",5,3,2,1,"Instruments",2,1,"right","right",0.472000122,1,1,1,0,194,19,1,0.7,2,"stim/53.jpeg",5,3,"stim/53.jpeg",1,"right",0.700999975,2,3,1.373999834,2,0.989999771,194,0,1,NA,0,NA,1
"282","stim/objects/HouseObjects/coffee2.png",347,19,340,0.7,"stim/63.jpeg",6,3,2,1,"HouseObjects",1,1,"left","left",0.802999973,1,1,1,0,105,19,1,0.7,1,"stim/63.jpeg",6,3,"stim/63.jpeg",1,"right",0.91899991,1,4,1.921000004,4,1.301999807,105,0,0,NA,0,NA,1
"416","stim/objects/Instruments/banjo.png",348,19,341,0.5,"stim/33.jpeg",3,3,1,2,"Instruments",2,2,"right","right",0.667000055,1,1,1,0,NA,NA,NA,NA,NA,NA,NA,NA,NA,NA,NA,NA,NA,NA,NA,NA,NA,NA,NA,NA,NA,NA,NA,NA
"298","stim/objects/HouseObjects/doormat.png",349,19,342,0.9,"stim/22.jpeg",2,2,3,2,"HouseObjects",1,2,"left","left",0.438999891,1,1,1,0,NA,NA,NA,NA,NA,NA,NA,NA,NA,NA,NA,NA,NA,NA,NA,NA,NA,NA,NA,NA,NA,NA,NA,NA
"421","stim/objects/Instruments/bassguitar.png",350,19,343,0.5,"stim/42.jpeg",4,2,1,2,"Instruments",2,4,"right","right",0.447000027,1,1,1,0,NA,NA,NA,NA,NA,NA,NA,NA,NA,NA,NA,NA,NA,NA,NA,NA,NA,NA,NA,NA,NA,NA,NA,NA
"540","stim/objects/Instruments/grandpiano2.png",351,19,344,0.9,"stim/13.jpeg",1,3,3,1,"Instruments",2,1,"right","right",0.538000107,1,1,1,0,109,19,1,0.9,2,"stim/13.jpeg",1,3,"stim/13.jpeg",1,"right",0.81099987,1,2,2.180000067,3,2.761999846,109,0,0,NA,0,NA,1
"464","stim/objects/Instruments/flute.png",352,19,345,0.9,"stim/11.jpeg",1,1,3,2,"Instruments",2,1,"right","right",0.50999999,1,1,1,0,NA,NA,NA,NA,NA,NA,NA,NA,NA,NA,NA,NA,NA,NA,NA,NA,NA,NA,NA,NA,NA,NA,NA,NA
"332","stim/objects/HouseObjects/flyswatter.png",353,19,346,0.9,"stim/22.jpeg",2,2,3,2,"HouseObjects",1,2,"left","left",0.447000265,1,1,1,0,NA,NA,NA,NA,NA,NA,NA,NA,NA,NA,NA,NA,NA,NA,NA,NA,NA,NA,NA,NA,NA,NA,NA,NA
"312","stim/objects/HouseObjects/dustpan.png",354,19,347,0.9,"stim/22.jpeg",2,2,3,2,"HouseObjects",1,3,"left","left",0.440000057,1,1,1,0,NA,NA,NA,NA,NA,NA,NA,NA,NA,NA,NA,NA,NA,NA,NA,NA,NA,NA,NA,NA,NA,NA,NA,NA
"453","stim/objects/Instruments/electricguitar.png",355,19,348,0.7,"stim/53.jpeg",5,3,2,2,"Instruments",2,4,"right","right",0.552000046,1,1,1,0,NA,NA,NA,NA,NA,NA,NA,NA,NA,NA,NA,NA,NA,NA,NA,NA,NA,NA,NA,NA,NA,NA,NA,NA
"472","stim/objects/Instruments/flute2.png",356,19,349,0.9,"stim/13.jpeg",1,3,3,1,"Instruments",2,3,"right","right",0.521000147,1,1,1,0,54,19,1,0.9,2,"stim/13.jpeg",1,3,"stim/13.jpeg",3,"left",1.343999863,3,2,2.529999971,2,1.773999929,54,1,0,0,0,0,1
"377","stim/objects/HouseObjects/glassmop2.png",357,19,350,0.1,"stim/12.jpeg",1,2,3,1,"HouseObjects",1,3,"left","right",0.534000158,0,0,1,0,123,19,1,0.1,1,"stim/12.jpeg",1,2,"stim/12.jpeg",3,"left",0.941999912,4,1,3.25,1,1.694000006,123,1,0,0,0,0,1
"559","stim/objects/Instruments/musicsheet.png",358,19,351,0.5,"stim/44.jpeg",4,4,1,1,"Instruments",2,2,"right","left",0.630000114,0,0,1,0,167,19,1,0.5,2,"stim/44.jpeg",4,4,"stim/44.jpeg",2,"left",0.90899992,3,2,2.078999758,2,2.857999802,167,1,0,0,1,1,1
"430","stim/objects/Instruments/clarinet.png",359,19,352,0.5,"stim/42.jpeg",4,2,1,2,"Instruments",2,2,"right","right",0.597000122,1,1,1,0,NA,NA,NA,NA,NA,NA,NA,NA,NA,NA,NA,NA,NA,NA,NA,NA,NA,NA,NA,NA,NA,NA,NA,NA
"498","stim/objects/Instruments/frenchhorn.png",360,19,353,0.9,"stim/14.jpeg",1,4,3,2,"Instruments",2,1,"right","left",0.50600028,0,0,1,0,NA,NA,NA,NA,NA,NA,NA,NA,NA,NA,NA,NA,NA,NA,NA,NA,NA,NA,NA,NA,NA,NA,NA,NA
"324","stim/objects/HouseObjects/dustpan2.png",361,19,354,0.1,"stim/12.jpeg",1,2,3,1,"HouseObjects",1,2,"left","right",0.452000141,0,0,1,0,11,19,1,0.1,1,"stim/12.jpeg",1,2,"stim/12.jpeg",2,"left",1.03399992,3,3,2.639999866,3,3.130999804,11,1,0,0,0,0,1
"358","stim/objects/HouseObjects/garbagebin2.png",362,19,355,0.1,"stim/14.jpeg",1,4,3,1,"HouseObjects",1,3,"left","right",0.562000275,0,0,1,0,159,19,1,0.1,1,"stim/14.jpeg",1,4,"stim/14.jpeg",3,"right",0.921999693,2,1,1.958999872,4,1.362999916,159,0,0,NA,0,NA,1
"433","stim/objects/Instruments/cornet.png",363,19,356,0.5,"stim/43.jpeg",4,3,1,2,"Instruments",2,4,"right","right",0.585000038,1,1,1,0,NA,NA,NA,NA,NA,NA,NA,NA,NA,NA,NA,NA,NA,NA,NA,NA,NA,NA,NA,NA,NA,NA,NA,NA
"454","stim/objects/Instruments/electricguitar.png",364,19,357,0.7,"stim/51.jpeg",5,1,2,2,"Instruments",2,1,"right","right",0.625,1,1,1,0,NA,NA,NA,NA,NA,NA,NA,NA,NA,NA,NA,NA,NA,NA,NA,NA,NA,NA,NA,NA,NA,NA,NA,NA
"399","stim/objects/HouseObjects/pitcher2.png",365,19,358,0.9,"stim/23.jpeg",2,3,3,1,"HouseObjects",1,2,"left","left",0.531000137,1,1,1,0,190,19,1,0.9,1,"stim/23.jpeg",2,3,"stim/23.jpeg",2,"left",0.895999908,3,1,1.7099998,4,0.893999815,190,1,0,0,0,0,1
"465","stim/objects/Instruments/flute.png",366,19,359,0.9,"stim/14.jpeg",1,4,3,2,"Instruments",2,4,"right","right",0.541000128,1,1,1,0,NA,NA,NA,NA,NA,NA,NA,NA,NA,NA,NA,NA,NA,NA,NA,NA,NA,NA,NA,NA,NA,NA,NA,NA
"284","stim/objects/HouseObjects/cushion.png",367,19,360,0.7,"stim/62.jpeg",6,2,2,2,"HouseObjects",1,3,"left","left",0.50999999,1,1,1,0,NA,NA,NA,NA,NA,NA,NA,NA,NA,NA,NA,NA,NA,NA,NA,NA,NA,NA,NA,NA,NA,NA,NA,NA
"423","stim/objects/Instruments/bassguitar2.png",368,19,361,0.3,"stim/62.jpeg",6,2,2,1,"Instruments",2,3,"right","left",0.51300025,0,0,1,0,49,19,1,0.3,2,"stim/62.jpeg",6,2,"stim/62.jpeg",3,"left",0.829999685,3,4,3.089999914,1,1.693999767,49,1,0,0,0,0,1
"252","stim/objects/HouseObjects/basket2.png",369,19,362,0.3,"stim/51.jpeg",5,1,2,1,"HouseObjects",1,3,"left","right",0.496999979,0,0,1,0,26,19,1,0.3,1,"stim/51.jpeg",5,1,"stim/51.jpeg",3,"right",1.438999891,2,3,5.187999964,2,3.150999784,26,0,0,NA,0,NA,1
"407","stim/objects/Instruments/accordion.png",370,19,363,0.5,"stim/34.jpeg",3,4,1,2,"Instruments",2,1,"right","right",0.495000124,1,1,1,0,NA,NA,NA,NA,NA,NA,NA,NA,NA,NA,NA,NA,NA,NA,NA,NA,NA,NA,NA,NA,NA,NA,NA,NA
"256","stim/objects/HouseObjects/blender.png",371,19,364,0.5,"stim/43.jpeg",4,3,1,2,"HouseObjects",1,3,"left","right",0.541000128,0,0,1,0,NA,NA,NA,NA,NA,NA,NA,NA,NA,NA,NA,NA,NA,NA,NA,NA,NA,NA,NA,NA,NA,NA,NA,NA
"262","stim/objects/HouseObjects/broom.png",372,19,365,0.5,"stim/41.jpeg",4,1,1,2,"HouseObjects",1,4,"left","right",0.528000116,0,0,1,0,NA,NA,NA,NA,NA,NA,NA,NA,NA,NA,NA,NA,NA,NA,NA,NA,NA,NA,NA,NA,NA,NA,NA,NA
"567","stim/objects/Instruments/pipepiano.png",373,19,366,0.7,"stim/51.jpeg",5,1,2,1,"Instruments",2,4,"right","right",0.458000183,1,1,1,0,175,19,1,0.7,2,"stim/51.jpeg",5,1,"stim/51.jpeg",4,"left",1.178999901,3,3,1.372999907,2,1.399999857,175,1,0,0,0,0,1
"300","stim/objects/HouseObjects/doormat.png",374,19,367,0.9,"stim/22.jpeg",2,2,3,2,"HouseObjects",1,1,"left","left",0.529000044,1,1,1,0,NA,NA,NA,NA,NA,NA,NA,NA,NA,NA,NA,NA,NA,NA,NA,NA,NA,NA,NA,NA,NA,NA,NA,NA
"455","stim/objects/Instruments/electricguitar2.png",375,19,368,0.3,"stim/63.jpeg",6,3,2,1,"Instruments",2,1,"right","left",0.576000214,0,0,1,0,38,19,1,0.3,2,"stim/63.jpeg",6,3,"stim/63.jpeg",1,"left",1.114999771,3,1,2.911000013,2,1.302999735,38,1,0,0,0,0,1
"359","stim/objects/HouseObjects/glass.png",376,19,369,0.9,"stim/24.jpeg",2,4,3,2,"HouseObjects",1,1,"left","left",0.507000208,1,1,1,0,NA,NA,NA,NA,NA,NA,NA,NA,NA,NA,NA,NA,NA,NA,NA,NA,NA,NA,NA,NA,NA,NA,NA,NA
"422","stim/objects/Instruments/bassguitar.png",377,19,370,0.5,"stim/43.jpeg",4,3,1,2,"Instruments",2,4,"right","right",0.468000174,1,1,1,0,NA,NA,NA,NA,NA,NA,NA,NA,NA,NA,NA,NA,NA,NA,NA,NA,NA,NA,NA,NA,NA,NA,NA,NA
"532","stim/objects/Instruments/grandpiano.png",378,19,371,0.9,"stim/12.jpeg",1,2,3,2,"Instruments",2,2,"right","right",0.512000084,1,1,1,0,NA,NA,NA,NA,NA,NA,NA,NA,NA,NA,NA,NA,NA,NA,NA,NA,NA,NA,NA,NA,NA,NA,NA,NA
"286","stim/objects/HouseObjects/cushion2.png",379,19,372,0.7,"stim/64.jpeg",6,4,2,1,"HouseObjects",1,3,"left","left",0.611999989,1,1,1,0,33,19,1,0.7,1,"stim/64.jpeg",6,4,"stim/64.jpeg",3,"right",1.193999767,3,4,2.473999977,4,1.677999735,33,0,1,NA,0,NA,1
"533","stim/objects/Instruments/grandpiano.png",380,19,373,0.9,"stim/12.jpeg",1,2,3,2,"Instruments",2,4,"right","right",0.476999998,1,1,1,0,NA,NA,NA,NA,NA,NA,NA,NA,NA,NA,NA,NA,NA,NA,NA,NA,NA,NA,NA,NA,NA,NA,NA,NA
"554","stim/objects/Instruments/maraca2.png",381,19,374,0.1,"stim/24.jpeg",2,4,3,1,"Instruments",2,4,"right","left",0.475000143,0,0,1,0,176,19,1,0.1,2,"stim/24.jpeg",2,4,"stim/24.jpeg",4,"left",1.270999908,2,2,1.431999922,4,2.649999619,176,1,0,0,1,1,1
"499","stim/objects/Instruments/frenchhorn.png",382,19,375,0.9,"stim/11.jpeg",1,1,3,2,"Instruments",2,2,"right","right",0.457000017,1,1,1,0,NA,NA,NA,NA,NA,NA,NA,NA,NA,NA,NA,NA,NA,NA,NA,NA,NA,NA,NA,NA,NA,NA,NA,NA
"379","stim/objects/HouseObjects/hairdryer2.png",383,19,376,0.1,"stim/13.jpeg",1,3,3,1,"HouseObjects",1,4,"left","right",0.411999941,0,0,1,0,19,19,1,0.1,1,"stim/13.jpeg",1,3,"stim/13.jpeg",4,"left",1.672999859,2,2,4.023999929,3,2.693000078,19,1,0,0,0,0,1
"516","stim/objects/Instruments/gong.png",384,19,377,0.9,"stim/11.jpeg",1,1,3,2,"Instruments",2,1,"right","right",0.490999937,1,1,1,0,NA,NA,NA,NA,NA,NA,NA,NA,NA,NA,NA,NA,NA,NA,NA,NA,NA,NA,NA,NA,NA,NA,NA,NA
"268","stim/objects/HouseObjects/clock.png",385,19,378,0.5,"stim/44.jpeg",4,4,1,2,"HouseObjects",1,1,"left","right",0.494999886,0,0,1,0,NA,NA,NA,NA,NA,NA,NA,NA,NA,NA,NA,NA,NA,NA,NA,NA,NA,NA,NA,NA,NA,NA,NA,NA
"424","stim/objects/Instruments/cello.png",386,19,379,0.5,"stim/43.jpeg",4,3,1,2,"Instruments",2,2,"right","right",0.54700017,1,1,1,0,NA,NA,NA,NA,NA,NA,NA,NA,NA,NA,NA,NA,NA,NA,NA,NA,NA,NA,NA,NA,NA,NA,NA,NA
"385","stim/objects/HouseObjects/iron2.png",387,19,380,0.1,"stim/12.jpeg",1,2,3,1,"HouseObjects",1,4,"left","right",0.482000113,0,0,1,0,133,19,1,0.1,1,"stim/12.jpeg",1,2,"stim/12.jpeg",4,"left",4.428999901,3,3,2.60199976,4,1.763999701,133,1,0,0,1,1,1
"552","stim/objects/Instruments/laud2.png",388,19,381,0.1,"stim/23.jpeg",2,3,3,1,"Instruments",2,4,"right","left",0.531000137,0,0,1,0,180,19,1,0.1,2,"stim/23.jpeg",2,3,"stim/23.jpeg",4,"right",0.757999897,2,3,1.876999855,1,1.174999952,180,0,1,NA,0,NA,1
"389","stim/objects/HouseObjects/key2.png",389,19,382,0.9,"stim/22.jpeg",2,2,3,1,"HouseObjects",1,3,"left","left",0.473999977,1,1,1,0,196,19,1,0.9,1,"stim/22.jpeg",2,2,"stim/22.jpeg",3,"right",0.816999674,2,3,2.431999922,3,1.45299983,196,0,0,NA,1,NA,1
"481","stim/objects/Instruments/flutetrans.png",390,19,383,0.9,"stim/12.jpeg",1,2,3,2,"Instruments",2,1,"right","right",0.490000248,1,1,1,0,NA,NA,NA,NA,NA,NA,NA,NA,NA,NA,NA,NA,NA,NA,NA,NA,NA,NA,NA,NA,NA,NA,NA,NA
"467","stim/objects/Instruments/flute.png",391,19,384,0.9,"stim/12.jpeg",1,2,3,2,"Instruments",2,2,"right","right",0.428999901,1,1,1,0,NA,NA,NA,NA,NA,NA,NA,NA,NA,NA,NA,NA,NA,NA,NA,NA,NA,NA,NA,NA,NA,NA,NA,NA
"507","stim/objects/Instruments/gong.png",392,19,385,0.9,"stim/13.jpeg",1,3,3,2,"Instruments",2,4,"right","right",0.463000059,1,1,1,0,NA,NA,NA,NA,NA,NA,NA,NA,NA,NA,NA,NA,NA,NA,NA,NA,NA,NA,NA,NA,NA,NA,NA,NA
"355","stim/objects/HouseObjects/garbagebin.png",393,19,386,0.9,"stim/22.jpeg",2,2,3,2,"HouseObjects",1,2,"left","left",0.696000099,1,1,1,0,NA,NA,NA,NA,NA,NA,NA,NA,NA,NA,NA,NA,NA,NA,NA,NA,NA,NA,NA,NA,NA,NA,NA,NA
"259","stim/objects/HouseObjects/bottle.png",394,19,387,0.5,"stim/44.jpeg",4,4,1,2,"HouseObjects",1,2,"left","right",0.629000187,0,0,1,0,NA,NA,NA,NA,NA,NA,NA,NA,NA,NA,NA,NA,NA,NA,NA,NA,NA,NA,NA,NA,NA,NA,NA,NA
"386","stim/objects/HouseObjects/ironingboard.png",395,19,388,0.5,"stim/41.jpeg",4,1,1,1,"HouseObjects",1,3,"left","left",0.777000189,1,1,1,0,114,19,1,0.5,2,"stim/41.jpeg",4,1,"stim/41.jpeg",3,"left",0.818999767,3,3,2.05099988,3,3.114999771,114,1,0,0,1,1,1
"299","stim/objects/HouseObjects/doormat.png",396,19,389,0.9,"stim/22.jpeg",2,2,3,2,"HouseObjects",1,2,"left","left",0.511000156,1,1,1,0,NA,NA,NA,NA,NA,NA,NA,NA,NA,NA,NA,NA,NA,NA,NA,NA,NA,NA,NA,NA,NA,NA,NA,NA
"517","stim/objects/Instruments/gong.png",397,19,390,0.9,"stim/12.jpeg",1,2,3,2,"Instruments",2,4,"right","right",0.493000031,1,1,1,0,NA,NA,NA,NA,NA,NA,NA,NA,NA,NA,NA,NA,NA,NA,NA,NA,NA,NA,NA,NA,NA,NA,NA,NA
"333","stim/objects/HouseObjects/flyswatter.png",398,19,391,0.9,"stim/23.jpeg",2,3,3,2,"HouseObjects",1,4,"left","left",0.679000139,1,1,1,0,NA,NA,NA,NA,NA,NA,NA,NA,NA,NA,NA,NA,NA,NA,NA,NA,NA,NA,NA,NA,NA,NA,NA,NA
"291","stim/objects/HouseObjects/doormat.png",399,19,392,0.9,"stim/21.jpeg",2,1,3,2,"HouseObjects",1,2,"left","left",0.516000032,1,1,1,0,NA,NA,NA,NA,NA,NA,NA,NA,NA,NA,NA,NA,NA,NA,NA,NA,NA,NA,NA,NA,NA,NA,NA,NA
"468","stim/objects/Instruments/flute.png",400,19,393,0.9,"stim/14.jpeg",1,4,3,2,"Instruments",2,4,"right","right",0.505000114,1,1,1,0,NA,NA,NA,NA,NA,NA,NA,NA,NA,NA,NA,NA,NA,NA,NA,NA,NA,NA,NA,NA,NA,NA,NA,NA
"491","stim/objects/Instruments/frenchhorn.png",401,19,394,0.9,"stim/14.jpeg",1,4,3,2,"Instruments",2,1,"right","right",0.496999979,1,1,1,0,NA,NA,NA,NA,NA,NA,NA,NA,NA,NA,NA,NA,NA,NA,NA,NA,NA,NA,NA,NA,NA,NA,NA,NA
"266","stim/objects/HouseObjects/bucket.png",402,19,395,0.5,"stim/42.jpeg",4,2,1,2,"HouseObjects",1,4,"left","left",0.69900012,1,1,1,0,NA,NA,NA,NA,NA,NA,NA,NA,NA,NA,NA,NA,NA,NA,NA,NA,NA,NA,NA,NA,NA,NA,NA,NA
"378","stim/objects/HouseObjects/hairdryer.png",403,19,396,0.5,"stim/34.jpeg",3,4,1,1,"HouseObjects",1,3,"left","right",0.697999954,0,0,1,0,98,19,1,0.5,1,"stim/34.jpeg",3,4,"stim/34.jpeg",3,"left",0.980999947,3,1,2.600999832,3,1.322000027,98,1,0,0,1,1,1
"253","stim/objects/HouseObjects/bleachbottle.png",404,19,397,0.5,"stim/32.jpeg",3,2,1,2,"HouseObjects",1,3,"left","right",0.414000034,0,0,1,0,NA,NA,NA,NA,NA,NA,NA,NA,NA,NA,NA,NA,NA,NA,NA,NA,NA,NA,NA,NA,NA,NA,NA,NA
"394","stim/objects/HouseObjects/match.png",405,19,398,0.5,"stim/41.jpeg",4,1,1,1,"HouseObjects",1,1,"left","left",0.589000225,1,1,1,0,65,19,1,0.5,2,"stim/41.jpeg",4,1,"stim/41.jpeg",1,"right",1.88599968,2,3,1.678999901,2,2.125,65,0,0,NA,0,NA,1
"410","stim/objects/Instruments/acousticguitar.png",406,19,399,0.5,"stim/32.jpeg",3,2,1,2,"Instruments",2,3,"right","right",0.585999966,1,1,1,0,NA,NA,NA,NA,NA,NA,NA,NA,NA,NA,NA,NA,NA,NA,NA,NA,NA,NA,NA,NA,NA,NA,NA,NA
"368","stim/objects/HouseObjects/glass.png",407,19,400,0.9,"stim/23.jpeg",2,3,3,2,"HouseObjects",1,3,"left","left",0.475000143,1,1,1,0,NA,NA,NA,NA,NA,NA,NA,NA,NA,NA,NA,NA,NA,NA,NA,NA,NA,NA,NA,NA,NA,NA,NA,NA
"527","stim/objects/Instruments/grandpiano.png",408,19,401,0.9,"stim/11.jpeg",1,1,3,2,"Instruments",2,3,"right","right",0.515000105,1,1,1,0,NA,NA,NA,NA,NA,NA,NA,NA,NA,NA,NA,NA,NA,NA,NA,NA,NA,NA,NA,NA,NA,NA,NA,NA
"431","stim/objects/Instruments/clarinet.png",409,19,402,0.5,"stim/41.jpeg",4,1,1,2,"Instruments",2,4,"right","right",0.434000015,1,1,1,0,NA,NA,NA,NA,NA,NA,NA,NA,NA,NA,NA,NA,NA,NA,NA,NA,NA,NA,NA,NA,NA,NA,NA,NA
"450","stim/objects/Instruments/electricdrumset.png",410,19,403,0.7,"stim/54.jpeg",5,4,2,2,"Instruments",2,1,"right","right",0.563000202,1,1,1,0,NA,NA,NA,NA,NA,NA,NA,NA,NA,NA,NA,NA,NA,NA,NA,NA,NA,NA,NA,NA,NA,NA,NA,NA
"452","stim/objects/Instruments/electricguitar.png",411,19,404,0.7,"stim/54.jpeg",5,4,2,2,"Instruments",2,1,"right","right",0.690000057,1,1,1,0,NA,NA,NA,NA,NA,NA,NA,NA,NA,NA,NA,NA,NA,NA,NA,NA,NA,NA,NA,NA,NA,NA,NA,NA
"493","stim/objects/Instruments/frenchhorn.png",412,19,405,0.9,"stim/12.jpeg",1,2,3,2,"Instruments",2,2,"right","right",0.499000072,1,1,1,0,NA,NA,NA,NA,NA,NA,NA,NA,NA,NA,NA,NA,NA,NA,NA,NA,NA,NA,NA,NA,NA,NA,NA,NA
"392","stim/objects/HouseObjects/lintroller.png",413,19,406,0.5,"stim/44.jpeg",4,4,1,1,"HouseObjects",1,1,"left","right",0.77699995,0,0,1,0,50,19,1,0.5,2,"stim/44.jpeg",4,4,"stim/44.jpeg",1,"left",1.172999859,3,3,1.770999908,2,1.150999784,50,1,0,0,0,0,1
"278","stim/objects/HouseObjects/clothespin2.png",414,19,407,0.7,"stim/62.jpeg",6,2,2,1,"HouseObjects",1,4,"left","left",0.514000177,1,1,1,0,42,19,1,0.7,1,"stim/62.jpeg",6,2,"stim/62.jpeg",4,"left",0.891000032,4,4,4.180999756,1,3.588000059,42,1,0,0,0,0,1
"458","stim/objects/Instruments/flute.png",415,19,408,0.9,"stim/13.jpeg",1,3,3,2,"Instruments",2,2,"right","right",0.546000242,1,1,1,0,NA,NA,NA,NA,NA,NA,NA,NA,NA,NA,NA,NA,NA,NA,NA,NA,NA,NA,NA,NA,NA,NA,NA,NA
"436","stim/objects/Instruments/cymbal.png",416,19,409,0.7,"stim/51.jpeg",5,1,2,2,"Instruments",2,3,"right","right",0.511000156,1,1,1,0,NA,NA,NA,NA,NA,NA,NA,NA,NA,NA,NA,NA,NA,NA,NA,NA,NA,NA,NA,NA,NA,NA,NA,NA
"528","stim/objects/Instruments/grandpiano.png",417,19,410,0.9,"stim/14.jpeg",1,4,3,2,"Instruments",2,4,"right","right",0.479000092,1,1,1,0,NA,NA,NA,NA,NA,NA,NA,NA,NA,NA,NA,NA,NA,NA,NA,NA,NA,NA,NA,NA,NA,NA,NA,NA
"510","stim/objects/Instruments/gong.png",418,19,411,0.9,"stim/12.jpeg",1,2,3,2,"Instruments",2,2,"right","right",0.49000001,1,1,1,0,NA,NA,NA,NA,NA,NA,NA,NA,NA,NA,NA,NA,NA,NA,NA,NA,NA,NA,NA,NA,NA,NA,NA,NA
"466","stim/objects/Instruments/flute.png",419,19,412,0.9,"stim/12.jpeg",1,2,3,2,"Instruments",2,4,"right","right",0.414000034,1,1,1,0,NA,NA,NA,NA,NA,NA,NA,NA,NA,NA,NA,NA,NA,NA,NA,NA,NA,NA,NA,NA,NA,NA,NA,NA
"549","stim/objects/Instruments/keyboard.png",420,19,413,0.5,"stim/32.jpeg",3,2,1,1,"Instruments",2,2,"right","right",0.580000162,1,1,1,0,143,19,1,0.5,1,"stim/32.jpeg",3,2,"stim/32.jpeg",2,"right",0.767999649,2,3,1.859999895,3,1.511999846,143,0,0,NA,0,NA,1
"315","stim/objects/HouseObjects/dustpan.png",421,19,414,0.9,"stim/22.jpeg",2,2,3,2,"HouseObjects",1,1,"left","right",0.402000189,0,0,1,0,NA,NA,NA,NA,NA,NA,NA,NA,NA,NA,NA,NA,NA,NA,NA,NA,NA,NA,NA,NA,NA,NA,NA,NA
"565","stim/objects/Instruments/panflute.png",422,19,415,0.7,"stim/54.jpeg",5,4,2,1,"Instruments",2,4,"right","right",0.410000086,1,1,1,0,134,19,1,0.7,2,"stim/54.jpeg",5,4,"stim/54.jpeg",4,"right",0.78399992,3,3,0.963999987,2,1.325999975,134,0,0,NA,0,NA,1
"426","stim/objects/Instruments/cello2.png",423,19,416,0.3,"stim/63.jpeg",6,3,2,1,"Instruments",2,4,"right","left",0.722000122,0,0,1,0,174,19,1,0.3,2,"stim/63.jpeg",6,3,"stim/63.jpeg",4,"left",0.852999926,4,1,2.15899992,3,1.815999746,174,1,0,0,0,0,1
"566","stim/objects/Instruments/panflute2.png",424,19,417,0.1,"stim/22.jpeg",2,2,3,1,"Instruments",2,1,"right","left",0.40899992,0,0,1,0,56,19,1,0.1,2,"stim/22.jpeg",2,2,"stim/22.jpeg",1,"left",0.815999746,4,1,2.184999943,4,1.653999805,56,1,0,0,0,0,1
"420","stim/objects/Instruments/bassdrum2.png",425,19,418,0.7,"stim/53.jpeg",5,3,2,1,"Instruments",2,2,"right","right",0.541000128,1,1,1,0,124,19,1,0.7,2,"stim/53.jpeg",5,3,"stim/53.jpeg",2,"right",0.69299984,2,1,4.757999897,2,1.335999966,124,0,0,NA,1,NA,1
"382","stim/objects/HouseObjects/handvacuum.png",426,19,419,0.5,"stim/32.jpeg",3,2,1,1,"HouseObjects",1,2,"left","left",0.49000001,1,1,1,0,99,19,1,0.5,1,"stim/32.jpeg",3,2,"stim/32.jpeg",2,"right",1.462999821,2,4,3.939999819,2,2.464999676,99,0,0,NA,1,NA,1
"381","stim/objects/HouseObjects/handbrush2.png",427,19,420,0.1,"stim/14.jpeg",1,4,3,1,"HouseObjects",1,2,"left","right",0.433000088,0,0,1,0,76,19,1,0.1,1,"stim/14.jpeg",1,4,"stim/14.jpeg",2,"right",1.162999868,3,3,3.078999758,2,0.870999813,76,0,0,NA,1,NA,1
"506","stim/objects/Instruments/frenchhorn2.png",428,19,421,0.9,"stim/11.jpeg",1,1,3,1,"Instruments",2,1,"right","right",0.61500001,1,1,1,0,24,19,1,0.9,2,"stim/11.jpeg",1,1,"stim/11.jpeg",1,"left",1.078999758,2,1,3.677999735,4,1.447000027,24,1,1,1,0,0,1
"334","stim/objects/HouseObjects/flyswatter.png",429,19,422,0.9,"stim/23.jpeg",2,3,3,2,"HouseObjects",1,1,"left","left",0.539000034,1,1,1,0,NA,NA,NA,NA,NA,NA,NA,NA,NA,NA,NA,NA,NA,NA,NA,NA,NA,NA,NA,NA,NA,NA,NA,NA
"440","stim/objects/Instruments/doublebass.png",430,19,423,0.7,"stim/52.jpeg",5,2,2,2,"Instruments",2,2,"right","right",0.510000229,1,1,1,0,NA,NA,NA,NA,NA,NA,NA,NA,NA,NA,NA,NA,NA,NA,NA,NA,NA,NA,NA,NA,NA,NA,NA,NA
"370","stim/objects/HouseObjects/glass.png",431,19,424,0.9,"stim/22.jpeg",2,2,3,2,"HouseObjects",1,3,"left","left",0.465000153,1,1,1,0,NA,NA,NA,NA,NA,NA,NA,NA,NA,NA,NA,NA,NA,NA,NA,NA,NA,NA,NA,NA,NA,NA,NA,NA
"317","stim/objects/HouseObjects/dustpan.png",432,19,425,0.9,"stim/24.jpeg",2,4,3,2,"HouseObjects",1,1,"left","left",0.765000105,1,1,1,0,NA,NA,NA,NA,NA,NA,NA,NA,NA,NA,NA,NA,NA,NA,NA,NA,NA,NA,NA,NA,NA,NA,NA,NA
"318","stim/objects/HouseObjects/dustpan.png",433,19,426,0.9,"stim/22.jpeg",2,2,3,2,"HouseObjects",1,1,"left","left",0.413000107,1,1,1,0,NA,NA,NA,NA,NA,NA,NA,NA,NA,NA,NA,NA,NA,NA,NA,NA,NA,NA,NA,NA,NA,NA,NA,NA
"397","stim/objects/HouseObjects/pan2.png",434,19,427,0.9,"stim/22.jpeg",2,2,3,1,"HouseObjects",1,3,"left","left",0.435000181,1,1,1,0,163,19,1,0.9,1,"stim/22.jpeg",2,2,"stim/22.jpeg",3,"left",1.233999968,3,2,2.924999952,2,0.991999865,163,1,1,1,0,0,1
"401","stim/objects/HouseObjects/recyclingbin2.png",435,19,428,0.9,"stim/24.jpeg",2,4,3,1,"HouseObjects",1,1,"left","left",0.525000095,1,1,1,0,122,19,1,0.9,1,"stim/24.jpeg",2,4,"stim/24.jpeg",1,"right",1.85199976,2,3,3.123999834,4,2.244999886,122,0,0,NA,0,NA,1
"543","stim/objects/Instruments/harmonica.png",436,19,429,0.5,"stim/33.jpeg",3,3,1,1,"Instruments",2,3,"right","right",0.583000183,1,1,1,0,127,19,1,0.5,1,"stim/33.jpeg",3,3,"stim/33.jpeg",3,"right",0.681999683,1,4,2.308999777,1,1.183999777,127,0,0,NA,0,NA,1
"425","stim/objects/Instruments/cello.png",437,19,430,0.5,"stim/44.jpeg",4,4,1,2,"Instruments",2,4,"right","left",0.760000229,0,0,1,0,NA,NA,NA,NA,NA,NA,NA,NA,NA,NA,NA,NA,NA,NA,NA,NA,NA,NA,NA,NA,NA,NA,NA,NA
"301","stim/objects/HouseObjects/doormat.png",438,19,431,0.9,"stim/24.jpeg",2,4,3,2,"HouseObjects",1,2,"left","left",0.440000057,1,1,1,0,NA,NA,NA,NA,NA,NA,NA,NA,NA,NA,NA,NA,NA,NA,NA,NA,NA,NA,NA,NA,NA,NA,NA,NA
"500","stim/objects/Instruments/frenchhorn.png",439,19,432,0.9,"stim/13.jpeg",1,3,3,2,"Instruments",2,2,"right","right",0.480000019,1,1,1,0,NA,NA,NA,NA,NA,NA,NA,NA,NA,NA,NA,NA,NA,NA,NA,NA,NA,NA,NA,NA,NA,NA,NA,NA
"337","stim/objects/HouseObjects/flyswatter.png",440,19,433,0.9,"stim/22.jpeg",2,2,3,2,"HouseObjects",1,3,"left","left",0.508000135,1,1,1,0,NA,NA,NA,NA,NA,NA,NA,NA,NA,NA,NA,NA,NA,NA,NA,NA,NA,NA,NA,NA,NA,NA,NA,NA
"313","stim/objects/HouseObjects/dustpan.png",441,19,434,0.9,"stim/22.jpeg",2,2,3,2,"HouseObjects",1,1,"left","left",0.452000141,1,1,1,0,NA,NA,NA,NA,NA,NA,NA,NA,NA,NA,NA,NA,NA,NA,NA,NA,NA,NA,NA,NA,NA,NA,NA,NA
"482","stim/objects/Instruments/flutetrans.png",442,19,435,0.9,"stim/13.jpeg",1,3,3,2,"Instruments",2,2,"right","right",0.493000031,1,1,1,0,NA,NA,NA,NA,NA,NA,NA,NA,NA,NA,NA,NA,NA,NA,NA,NA,NA,NA,NA,NA,NA,NA,NA,NA
"495","stim/objects/Instruments/frenchhorn.png",443,19,436,0.9,"stim/12.jpeg",1,2,3,2,"Instruments",2,3,"right","right",0.506000042,1,1,1,0,NA,NA,NA,NA,NA,NA,NA,NA,NA,NA,NA,NA,NA,NA,NA,NA,NA,NA,NA,NA,NA,NA,NA,NA
"272","stim/objects/HouseObjects/clothesdryingrack.png",444,19,437,0.7,"stim/61.jpeg",6,1,2,2,"HouseObjects",1,2,"left","left",0.586999893,1,1,1,0,NA,NA,NA,NA,NA,NA,NA,NA,NA,NA,NA,NA,NA,NA,NA,NA,NA,NA,NA,NA,NA,NA,NA,NA
"488","stim/objects/Instruments/flutetrans.png",445,19,438,0.9,"stim/12.jpeg",1,2,3,2,"Instruments",2,1,"right","right",0.501000166,1,1,1,0,NA,NA,NA,NA,NA,NA,NA,NA,NA,NA,NA,NA,NA,NA,NA,NA,NA,NA,NA,NA,NA,NA,NA,NA
"538","stim/objects/Instruments/grandpiano.png",446,19,439,0.9,"stim/14.jpeg",1,4,3,2,"Instruments",2,2,"right","right",0.425000191,1,1,1,0,NA,NA,NA,NA,NA,NA,NA,NA,NA,NA,NA,NA,NA,NA,NA,NA,NA,NA,NA,NA,NA,NA,NA,NA
"445","stim/objects/Instruments/drums.png",447,19,440,0.7,"stim/51.jpeg",5,1,2,2,"Instruments",2,2,"right","right",0.513000011,1,1,1,0,NA,NA,NA,NA,NA,NA,NA,NA,NA,NA,NA,NA,NA,NA,NA,NA,NA,NA,NA,NA,NA,NA,NA,NA
"487","stim/objects/Instruments/flutetrans.png",448,19,441,0.9,"stim/11.jpeg",1,1,3,2,"Instruments",2,2,"right","right",0.53000021,1,1,1,0,NA,NA,NA,NA,NA,NA,NA,NA,NA,NA,NA,NA,NA,NA,NA,NA,NA,NA,NA,NA,NA,NA,NA,NA
"569","stim/objects/Instruments/record.png",449,19,442,0.7,"stim/52.jpeg",5,2,2,1,"Instruments",2,3,"right","right",0.777000189,1,1,1,0,155,19,1,0.7,2,"stim/52.jpeg",5,2,"stim/52.jpeg",3,"left",0.853999853,3,2,1.249999762,1,2.734999895,155,1,1,1,0,0,1
"570","stim/objects/Instruments/record2.png",450,19,443,0.1,"stim/24.jpeg",2,4,3,1,"Instruments",2,3,"right","left",0.54700017,0,0,1,0,111,19,1,0.1,2,"stim/24.jpeg",2,4,"stim/24.jpeg",3,"left",0.833999872,4,1,2.240999699,4,1.906999826,111,1,0,0,0,0,1
"321","stim/objects/HouseObjects/dustpan.png",451,19,444,0.9,"stim/24.jpeg",2,4,3,2,"HouseObjects",1,4,"left","left",0.459000111,1,1,1,0,NA,NA,NA,NA,NA,NA,NA,NA,NA,NA,NA,NA,NA,NA,NA,NA,NA,NA,NA,NA,NA,NA,NA,NA
"519","stim/objects/Instruments/gong.png",452,19,445,0.9,"stim/11.jpeg",1,1,3,2,"Instruments",2,4,"right","right",0.410000086,1,1,1,0,NA,NA,NA,NA,NA,NA,NA,NA,NA,NA,NA,NA,NA,NA,NA,NA,NA,NA,NA,NA,NA,NA,NA,NA
"461","stim/objects/Instruments/flute.png",453,19,446,0.9,"stim/13.jpeg",1,3,3,2,"Instruments",2,2,"right","right",0.498000145,1,1,1,0,NA,NA,NA,NA,NA,NA,NA,NA,NA,NA,NA,NA,NA,NA,NA,NA,NA,NA,NA,NA,NA,NA,NA,NA
"404","stim/objects/HouseObjects/rubbergloves.png",454,19,447,0.3,"stim/51.jpeg",5,1,2,1,"HouseObjects",1,1,"left","right",0.445000172,0,0,1,0,116,19,1,0.3,1,"stim/51.jpeg",5,1,"stim/51.jpeg",1,"right",0.911999702,2,4,1.757999897,3,2.386999846,116,0,0,NA,0,NA,1
"515","stim/objects/Instruments/gong.png",455,19,448,0.9,"stim/12.jpeg",1,2,3,2,"Instruments",2,1,"right","right",0.450000048,1,1,1,0,NA,NA,NA,NA,NA,NA,NA,NA,NA,NA,NA,NA,NA,NA,NA,NA,NA,NA,NA,NA,NA,NA,NA,NA
"496","stim/objects/Instruments/frenchhorn.png",456,19,449,0.9,"stim/14.jpeg",1,4,3,2,"Instruments",2,1,"right","right",0.46600008,1,1,1,0,NA,NA,NA,NA,NA,NA,NA,NA,NA,NA,NA,NA,NA,NA,NA,NA,NA,NA,NA,NA,NA,NA,NA,NA
"402","stim/objects/HouseObjects/remote.png",457,19,450,0.3,"stim/54.jpeg",5,4,2,1,"HouseObjects",1,3,"left","right",0.409000158,0,0,1,0,169,19,1,0.3,1,"stim/54.jpeg",5,4,"stim/54.jpeg",3,"right",0.552999735,1,1,1.553999901,3,1.979999781,169,0,0,NA,1,NA,1
"302","stim/objects/HouseObjects/doormat.png",458,19,451,0.9,"stim/24.jpeg",2,4,3,2,"HouseObjects",1,3,"left","left",0.488000154,1,1,1,0,NA,NA,NA,NA,NA,NA,NA,NA,NA,NA,NA,NA,NA,NA,NA,NA,NA,NA,NA,NA,NA,NA,NA,NA
"255","stim/objects/HouseObjects/bleachbottle2.png",459,19,452,0.3,"stim/52.jpeg",5,2,2,1,"HouseObjects",1,4,"left","right",0.522000074,0,0,1,0,191,19,1,0.3,1,"stim/52.jpeg",5,2,"stim/52.jpeg",4,"left",1.826999903,4,2,2.232999802,2,0.929999828,191,1,1,1,0,0,1
"442","stim/objects/Instruments/doublebass.png",460,19,453,0.7,"stim/51.jpeg",5,1,2,2,"Instruments",2,4,"right","right",0.446000099,1,1,1,0,NA,NA,NA,NA,NA,NA,NA,NA,NA,NA,NA,NA,NA,NA,NA,NA,NA,NA,NA,NA,NA,NA,NA,NA
"462","stim/objects/Instruments/flute.png",461,19,454,0.9,"stim/14.jpeg",1,4,3,2,"Instruments",2,2,"right","right",0.539000034,1,1,1,0,NA,NA,NA,NA,NA,NA,NA,NA,NA,NA,NA,NA,NA,NA,NA,NA,NA,NA,NA,NA,NA,NA,NA,NA
"258","stim/objects/HouseObjects/blender2.png",462,19,455,0.7,"stim/64.jpeg",6,4,2,1,"HouseObjects",1,2,"left","left",0.407000065,1,1,1,0,126,19,1,0.7,1,"stim/64.jpeg",6,4,"stim/64.jpeg",2,"right",0.67299962,2,3,3.573999882,3,1.462999821,126,0,0,NA,0,NA,1
"366","stim/objects/HouseObjects/glass.png",463,19,456,0.9,"stim/21.jpeg",2,1,3,2,"HouseObjects",1,1,"left","left",0.535000086,1,1,1,0,NA,NA,NA,NA,NA,NA,NA,NA,NA,NA,NA,NA,NA,NA,NA,NA,NA,NA,NA,NA,NA,NA,NA,NA
"463","stim/objects/Instruments/flute.png",464,19,457,0.9,"stim/11.jpeg",1,1,3,2,"Instruments",2,1,"right","right",0.562000036,1,1,1,0,NA,NA,NA,NA,NA,NA,NA,NA,NA,NA,NA,NA,NA,NA,NA,NA,NA,NA,NA,NA,NA,NA,NA,NA
"497","stim/objects/Instruments/frenchhorn.png",465,19,458,0.9,"stim/13.jpeg",1,3,3,2,"Instruments",2,1,"right","right",0.414000034,1,1,1,0,NA,NA,NA,NA,NA,NA,NA,NA,NA,NA,NA,NA,NA,NA,NA,NA,NA,NA,NA,NA,NA,NA,NA,NA
"470","stim/objects/Instruments/flute.png",466,19,459,0.9,"stim/11.jpeg",1,1,3,2,"Instruments",2,2,"right","right",0.49600029,1,1,1,0,NA,NA,NA,NA,NA,NA,NA,NA,NA,NA,NA,NA,NA,NA,NA,NA,NA,NA,NA,NA,NA,NA,NA,NA
"297","stim/objects/HouseObjects/doormat.png",467,19,460,0.9,"stim/23.jpeg",2,3,3,2,"HouseObjects",1,4,"left","left",0.470000029,1,1,1,0,NA,NA,NA,NA,NA,NA,NA,NA,NA,NA,NA,NA,NA,NA,NA,NA,NA,NA,NA,NA,NA,NA,NA,NA
"415","stim/objects/Instruments/banjo.png",468,19,461,0.5,"stim/34.jpeg",3,4,1,2,"Instruments",2,3,"right","right",0.583999872,1,1,1,0,NA,NA,NA,NA,NA,NA,NA,NA,NA,NA,NA,NA,NA,NA,NA,NA,NA,NA,NA,NA,NA,NA,NA,NA
"535","stim/objects/Instruments/grandpiano.png",469,19,462,0.9,"stim/13.jpeg",1,3,3,2,"Instruments",2,2,"right","right",0.49000001,1,1,1,0,NA,NA,NA,NA,NA,NA,NA,NA,NA,NA,NA,NA,NA,NA,NA,NA,NA,NA,NA,NA,NA,NA,NA,NA
