"","participant","trialN","trial_cond","scn_file","scn_cat","scn_inst","scn_condition","fillers","obj_cat","obj_cat_num","obj_file","quadrant","corr_ans","key_resp_trial.keys","key_resp_trial.rt","trial_acc","trial_acc_manual","group"
"248",19,241,0.7,"stim/61.jpeg",6,1,2,2,"HouseObjects",1,"stim/objects/HouseObjects/coffee.png",1,"left","left",0.779000282,1,1,1
"249",19,242,0.9,"stim/13.jpeg",1,3,3,2,"Instruments",2,"stim/objects/Instruments/grandpiano.png",4,"right","right",0.503999949,1,1,1
"250",19,243,0.9,"stim/11.jpeg",1,1,3,1,"Instruments",2,"stim/objects/Instruments/harmonica2.png",3,"right","right",0.541000128,1,1,1
"251",19,244,0.5,"stim/31.jpeg",3,1,1,2,"Instruments",2,"stim/objects/Instruments/acousticguitar.png",4,"right","left",0.721000195,0,0,1
"252",19,245,0.5,"stim/44.jpeg",4,4,1,2,"Instruments",2,"stim/objects/Instruments/chime.png",1,"right","right",0.638000011,1,1,1
"253",19,246,0.9,"stim/13.jpeg",1,3,3,2,"Instruments",2,"stim/objects/Instruments/flute.png",4,"right","right",0.536000013,1,1,1
"254",19,247,0.9,"stim/22.jpeg",2,2,3,2,"HouseObjects",1,"stim/objects/HouseObjects/garbagebin.png",1,"left","left",0.478000164,1,1,1
"255",19,248,0.7,"stim/64.jpeg",6,4,2,1,"HouseObjects",1,"stim/objects/HouseObjects/clock2.png",1,"left","left",0.605000257,1,1,1
"256",19,249,0.7,"stim/53.jpeg",5,3,2,2,"Instruments",2,"stim/objects/Instruments/electricdrumset.png",2,"right","right",0.526000261,1,1,1
"257",19,250,0.9,"stim/12.jpeg",1,2,3,2,"Instruments",2,"stim/objects/Instruments/grandpiano.png",3,"right","right",0.50600028,1,1,1
"258",19,251,0.9,"stim/24.jpeg",2,4,3,2,"HouseObjects",1,"stim/objects/HouseObjects/garbagebin.png",3,"left","left",0.45600009,1,1,1
"259",19,252,0.9,"stim/24.jpeg",2,4,3,2,"HouseObjects",1,"stim/objects/HouseObjects/flyswatter.png",4,"left","left",0.476999998,1,1,1
"260",19,253,0.9,"stim/11.jpeg",1,1,3,2,"Instruments",2,"stim/objects/Instruments/grandpiano.png",3,"right","right",0.512000084,1,1,1
"261",19,254,0.9,"stim/13.jpeg",1,3,3,2,"Instruments",2,"stim/objects/Instruments/flutetrans.png",4,"right","right",0.489000082,1,1,1
"262",19,255,0.9,"stim/11.jpeg",1,1,3,2,"Instruments",2,"stim/objects/Instruments/flutetrans.png",3,"right","right",0.49600029,1,1,1
"263",19,256,0.9,"stim/24.jpeg",2,4,3,2,"HouseObjects",1,"stim/objects/HouseObjects/flyswatter.png",3,"left","left",0.512000084,1,1,1
"264",19,257,0.3,"stim/62.jpeg",6,2,2,1,"Instruments",2,"stim/objects/Instruments/electricdrumset2.png",4,"right","left",0.552000046,0,0,1
"265",19,258,0.9,"stim/14.jpeg",1,4,3,2,"Instruments",2,"stim/objects/Instruments/flutetrans.png",4,"right","right",0.487000227,1,1,1
"266",19,259,0.9,"stim/11.jpeg",1,1,3,2,"Instruments",2,"stim/objects/Instruments/flute.png",4,"right","right",0.481000185,1,1,1
"267",19,260,0.7,"stim/61.jpeg",6,1,2,2,"HouseObjects",1,"stim/objects/HouseObjects/dishsoap.png",3,"left","left",0.630000114,1,1,1
"268",19,261,0.3,"stim/64.jpeg",6,4,2,1,"Instruments",2,"stim/objects/Instruments/doublebass2.png",2,"right","left",0.592999935,0,0,1
"269",19,262,0.5,"stim/43.jpeg",4,3,1,2,"HouseObjects",1,"stim/objects/HouseObjects/clock.png",1,"left","left",0.615999937,1,1,1
"270",19,263,0.9,"stim/21.jpeg",2,1,3,2,"HouseObjects",1,"stim/objects/HouseObjects/flyswatter.png",3,"left","left",0.450999975,1,1,1
"271",19,264,0.9,"stim/21.jpeg",2,1,3,1,"HouseObjects",1,"stim/objects/HouseObjects/ironingboard2.png",4,"left","left",0.479000092,1,1,1
"272",19,265,0.9,"stim/22.jpeg",2,2,3,2,"HouseObjects",1,"stim/objects/HouseObjects/flyswatter.png",1,"left","left",0.43900013,1,1,1
"273",19,266,0.9,"stim/13.jpeg",1,3,3,2,"Instruments",2,"stim/objects/Instruments/gong.png",2,"right","right",0.497000217,1,1,1
"274",19,267,0.1,"stim/11.jpeg",1,1,3,1,"HouseObjects",1,"stim/objects/HouseObjects/handvacuum2.png",2,"left","right",0.493000031,0,0,1
"275",19,268,0.9,"stim/22.jpeg",2,2,3,2,"HouseObjects",1,"stim/objects/HouseObjects/glass.png",2,"left","left",0.55700016,1,1,1
"276",19,269,0.5,"stim/31.jpeg",3,1,1,2,"Instruments",2,"stim/objects/Instruments/bassdrum.png",1,"right","left",0.5400002,0,0,1
"277",19,270,0.9,"stim/23.jpeg",2,3,3,2,"HouseObjects",1,"stim/objects/HouseObjects/garbagebin.png",2,"left","left",0.485000134,1,1,1
"278",19,271,0.5,"stim/32.jpeg",3,2,1,1,"Instruments",2,"stim/objects/Instruments/guitarcase.png",2,"right","right",0.509000063,1,1,1
"279",19,272,0.9,"stim/14.jpeg",1,4,3,2,"Instruments",2,"stim/objects/Instruments/frenchhorn.png",4,"right","right",0.54700017,1,1,1
"280",19,273,0.1,"stim/22.jpeg",2,2,3,1,"Instruments",2,"stim/objects/Instruments/metronome2.png",3,"right","left",0.46600008,0,0,1
"281",19,274,0.5,"stim/33.jpeg",3,3,1,2,"Instruments",2,"stim/objects/Instruments/balalaika.png",4,"right","right",0.582000017,1,1,1
"282",19,275,0.9,"stim/12.jpeg",1,2,3,2,"Instruments",2,"stim/objects/Instruments/flutetrans.png",4,"right","right",0.47300005,1,1,1
"283",19,276,0.9,"stim/21.jpeg",2,1,3,2,"HouseObjects",1,"stim/objects/HouseObjects/dustpan.png",3,"left","left",0.582999945,1,1,1
"284",19,277,0.9,"stim/24.jpeg",2,4,3,2,"HouseObjects",1,"stim/objects/HouseObjects/doormat.png",4,"left","left",0.529000282,1,1,1
"285",19,278,0.9,"stim/12.jpeg",1,2,3,2,"Instruments",2,"stim/objects/Instruments/gong.png",2,"right","right",0.472000122,1,1,1
"286",19,279,0.9,"stim/13.jpeg",1,3,3,2,"Instruments",2,"stim/objects/Instruments/frenchhorn.png",1,"right","right",0.568000078,1,1,1
"287",19,280,0.3,"stim/64.jpeg",6,4,2,1,"Instruments",2,"stim/objects/Instruments/chime2.png",1,"right","left",0.583999872,0,0,1
"288",19,281,0.9,"stim/23.jpeg",2,3,3,2,"HouseObjects",1,"stim/objects/HouseObjects/garbagebin.png",3,"left","left",0.48300004,1,1,1
"289",19,282,0.9,"stim/23.jpeg",2,3,3,2,"HouseObjects",1,"stim/objects/HouseObjects/doormat.png",2,"left","left",0.467000008,1,1,1
"290",19,283,0.9,"stim/12.jpeg",1,2,3,1,"Instruments",2,"stim/objects/Instruments/harp2.png",2,"right","right",0.434000254,1,1,1
"291",19,284,0.9,"stim/13.jpeg",1,3,3,1,"Instruments",2,"stim/objects/Instruments/hihat2.png",3,"right","right",0.538000107,1,1,1
"292",19,285,0.5,"stim/31.jpeg",3,1,1,2,"HouseObjects",1,"stim/objects/HouseObjects/basket.png",3,"left","right",0.481000185,0,0,1
"293",19,286,0.9,"stim/22.jpeg",2,2,3,2,"HouseObjects",1,"stim/objects/HouseObjects/glass.png",3,"left","left",0.52699995,1,1,1
"294",19,287,0.7,"stim/62.jpeg",6,2,2,1,"HouseObjects",1,"stim/objects/HouseObjects/broom2.png",2,"left","left",0.561000109,1,1,1
"295",19,288,0.7,"stim/62.jpeg",6,2,2,2,"HouseObjects",1,"stim/objects/HouseObjects/clothespin.png",2,"left","left",0.486000061,1,1,1
"296",19,289,0.5,"stim/43.jpeg",4,3,1,1,"HouseObjects",1,"stim/objects/HouseObjects/knife.png",1,"left","left",0.632999897,1,1,1
"297",19,290,0.7,"stim/61.jpeg",6,1,2,1,"HouseObjects",1,"stim/objects/HouseObjects/clothesdryingrack2.png",4,"left","left",0.61500001,1,1,1
"298",19,291,0.9,"stim/24.jpeg",2,4,3,2,"HouseObjects",1,"stim/objects/HouseObjects/dustpan.png",2,"left","left",0.506999969,1,1,1
"299",19,292,0.9,"stim/21.jpeg",2,1,3,2,"HouseObjects",1,"stim/objects/HouseObjects/glass.png",4,"left","left",0.516000271,1,1,1
"300",19,293,0.9,"stim/21.jpeg",2,1,3,2,"HouseObjects",1,"stim/objects/HouseObjects/flyswatter.png",1,"left","left",0.480000019,1,1,1
"301",19,294,0.9,"stim/22.jpeg",2,2,3,2,"HouseObjects",1,"stim/objects/HouseObjects/glass.png",4,"left","left",0.430000067,1,1,1
"302",19,295,0.9,"stim/23.jpeg",2,3,3,2,"HouseObjects",1,"stim/objects/HouseObjects/glass.png",1,"left","left",0.460999966,1,1,1
"303",19,296,0.3,"stim/51.jpeg",5,1,2,1,"HouseObjects",1,"stim/objects/HouseObjects/pan.png",4,"left","right",0.478000164,0,0,1
"304",19,297,0.7,"stim/63.jpeg",6,3,2,2,"HouseObjects",1,"stim/objects/HouseObjects/dishsoap.png",4,"left","left",0.54700017,1,1,1
"305",19,298,0.3,"stim/61.jpeg",6,1,2,1,"Instruments",2,"stim/objects/Instruments/clarinet2.png",3,"right","left",0.472000122,0,0,1
"306",19,299,0.7,"stim/53.jpeg",5,3,2,2,"Instruments",2,"stim/objects/Instruments/drums.png",2,"right","right",0.538000107,1,1,1
"307",19,300,0.7,"stim/64.jpeg",6,4,2,2,"HouseObjects",1,"stim/objects/HouseObjects/clothespin.png",3,"left","left",0.683000088,1,1,1
"308",19,301,0.9,"stim/24.jpeg",2,4,3,2,"HouseObjects",1,"stim/objects/HouseObjects/flyswatter.png",1,"left","left",0.442000151,1,1,1
"309",19,302,0.9,"stim/14.jpeg",1,4,3,1,"Instruments",2,"stim/objects/Instruments/guitarcase2.png",4,"right","right",0.521000147,1,1,1
"310",19,303,0.7,"stim/52.jpeg",5,2,2,2,"Instruments",2,"stim/objects/Instruments/electricdrumset.png",3,"right","right",0.592000246,1,1,1
"311",19,304,0.9,"stim/14.jpeg",1,4,3,2,"Instruments",2,"stim/objects/Instruments/gong.png",4,"right","right",0.448000193,1,1,1
"312",19,305,0.9,"stim/13.jpeg",1,3,3,2,"Instruments",2,"stim/objects/Instruments/gong.png",2,"right","right",0.604000092,1,1,1
"313",19,306,0.5,"stim/32.jpeg",3,2,1,2,"HouseObjects",1,"stim/objects/HouseObjects/ashtray.png",2,"left","left",0.644999981,1,1,1
"314",19,307,0.5,"stim/32.jpeg",3,2,1,2,"HouseObjects",1,"stim/objects/HouseObjects/ballofstring.png",3,"left","left",0.47300005,1,1,1
"315",19,308,0.9,"stim/21.jpeg",2,1,3,2,"HouseObjects",1,"stim/objects/HouseObjects/garbagebin.png",3,"left","left",0.545000076,1,1,1
"316",19,309,0.9,"stim/13.jpeg",1,3,3,2,"Instruments",2,"stim/objects/Instruments/frenchhorn.png",1,"right","right",0.444000244,1,1,1
"317",19,310,0.7,"stim/54.jpeg",5,4,2,2,"Instruments",2,"stim/objects/Instruments/doublebass.png",2,"right","right",0.49000001,1,1,1
"318",19,311,0.9,"stim/22.jpeg",2,2,3,2,"HouseObjects",1,"stim/objects/HouseObjects/garbagebin.png",1,"left","left",0.486000061,1,1,1
"319",19,312,0.9,"stim/21.jpeg",2,1,3,2,"HouseObjects",1,"stim/objects/HouseObjects/doormat.png",3,"left","left",0.498000145,1,1,1
"320",19,313,0.5,"stim/41.jpeg",4,1,1,2,"Instruments",2,"stim/objects/Instruments/chime.png",2,"right","left",0.593000174,0,0,1
"321",19,314,0.9,"stim/11.jpeg",1,1,3,2,"Instruments",2,"stim/objects/Instruments/gong.png",3,"right","right",0.450000286,1,1,1
"322",19,315,0.5,"stim/31.jpeg",3,1,1,1,"HouseObjects",1,"stim/objects/HouseObjects/handbrush.png",4,"left","right",0.453999996,0,0,1
"323",19,316,0.9,"stim/23.jpeg",2,3,3,2,"HouseObjects",1,"stim/objects/HouseObjects/garbagebin.png",3,"left","left",0.463000298,1,1,1
"324",19,317,0.9,"stim/21.jpeg",2,1,3,2,"HouseObjects",1,"stim/objects/HouseObjects/flyswatter.png",1,"left","left",0.447000027,1,1,1
"325",19,318,0.9,"stim/14.jpeg",1,4,3,2,"Instruments",2,"stim/objects/Instruments/gong.png",1,"right","right",0.664000034,1,1,1
"326",19,319,0.9,"stim/23.jpeg",2,3,3,2,"HouseObjects",1,"stim/objects/HouseObjects/doormat.png",1,"left","left",0.511000156,1,1,1
"327",19,320,0.9,"stim/21.jpeg",2,1,3,2,"HouseObjects",1,"stim/objects/HouseObjects/garbagebin.png",3,"left","left",0.414000273,1,1,1
"328",19,321,0.9,"stim/21.jpeg",2,1,3,2,"HouseObjects",1,"stim/objects/HouseObjects/dustpan.png",3,"left","left",0.435000181,1,1,1
"329",19,322,0.9,"stim/24.jpeg",2,4,3,2,"HouseObjects",1,"stim/objects/HouseObjects/doormat.png",2,"left","left",0.473999977,1,1,1
"330",19,323,0.9,"stim/12.jpeg",1,2,3,2,"Instruments",2,"stim/objects/Instruments/flute.png",2,"right","right",0.428000212,1,1,1
"331",19,324,0.9,"stim/13.jpeg",1,3,3,2,"Instruments",2,"stim/objects/Instruments/flute.png",3,"right","right",0.528000116,1,1,1
"332",19,325,0.9,"stim/21.jpeg",2,1,3,1,"HouseObjects",1,"stim/objects/HouseObjects/remote2.png",2,"left","left",0.502000093,1,1,1
"333",19,326,0.5,"stim/43.jpeg",4,3,1,2,"HouseObjects",1,"stim/objects/HouseObjects/bucket.png",3,"left","left",0.675000191,1,1,1
"334",19,327,0.9,"stim/23.jpeg",2,3,3,1,"HouseObjects",1,"stim/objects/HouseObjects/knife2.png",3,"left","left",0.467000008,1,1,1
"335",19,328,0.3,"stim/53.jpeg",5,3,2,1,"HouseObjects",1,"stim/objects/HouseObjects/ballofstring2.png",3,"left","right",0.567000151,0,0,1
"336",19,329,0.7,"stim/61.jpeg",6,1,2,2,"HouseObjects",1,"stim/objects/HouseObjects/cushion.png",4,"left","right",0.683000088,0,0,1
"337",19,330,0.9,"stim/21.jpeg",2,1,3,2,"HouseObjects",1,"stim/objects/HouseObjects/glass.png",1,"left","left",0.527999878,1,1,1
"338",19,331,0.9,"stim/11.jpeg",1,1,3,2,"Instruments",2,"stim/objects/Instruments/flutetrans.png",2,"right","right",0.496000051,1,1,1
"339",19,332,0.9,"stim/23.jpeg",2,3,3,2,"HouseObjects",1,"stim/objects/HouseObjects/garbagebin.png",1,"left","left",0.516000032,1,1,1
"340",19,333,0.3,"stim/53.jpeg",5,3,2,1,"HouseObjects",1,"stim/objects/HouseObjects/recyclingbin.png",1,"left","right",0.546999931,0,0,1
"341",19,334,0.5,"stim/34.jpeg",3,4,1,1,"Instruments",2,"stim/objects/Instruments/harp.png",2,"right","left",0.464000225,0,0,1
"342",19,335,0.9,"stim/23.jpeg",2,3,3,2,"HouseObjects",1,"stim/objects/HouseObjects/dustpan.png",1,"left","left",0.434000254,1,1,1
"343",19,336,0.9,"stim/24.jpeg",2,4,3,1,"HouseObjects",1,"stim/objects/HouseObjects/lintroller2.png",4,"left","left",0.485000134,1,1,1
"344",19,337,0.9,"stim/22.jpeg",2,2,3,1,"HouseObjects",1,"stim/objects/HouseObjects/rubbergloves2.png",4,"left","left",0.478000164,1,1,1
"345",19,338,0.9,"stim/13.jpeg",1,3,3,2,"Instruments",2,"stim/objects/Instruments/grandpiano.png",1,"right","right",0.731000185,1,1,1
"346",19,339,0.7,"stim/53.jpeg",5,3,2,1,"Instruments",2,"stim/objects/Instruments/oboe.png",1,"right","right",0.472000122,1,1,1
"347",19,340,0.7,"stim/63.jpeg",6,3,2,1,"HouseObjects",1,"stim/objects/HouseObjects/coffee2.png",1,"left","left",0.802999973,1,1,1
"348",19,341,0.5,"stim/33.jpeg",3,3,1,2,"Instruments",2,"stim/objects/Instruments/banjo.png",2,"right","right",0.667000055,1,1,1
"349",19,342,0.9,"stim/22.jpeg",2,2,3,2,"HouseObjects",1,"stim/objects/HouseObjects/doormat.png",2,"left","left",0.438999891,1,1,1
"350",19,343,0.5,"stim/42.jpeg",4,2,1,2,"Instruments",2,"stim/objects/Instruments/bassguitar.png",4,"right","right",0.447000027,1,1,1
"351",19,344,0.9,"stim/13.jpeg",1,3,3,1,"Instruments",2,"stim/objects/Instruments/grandpiano2.png",1,"right","right",0.538000107,1,1,1
"352",19,345,0.9,"stim/11.jpeg",1,1,3,2,"Instruments",2,"stim/objects/Instruments/flute.png",1,"right","right",0.50999999,1,1,1
"353",19,346,0.9,"stim/22.jpeg",2,2,3,2,"HouseObjects",1,"stim/objects/HouseObjects/flyswatter.png",2,"left","left",0.447000265,1,1,1
"354",19,347,0.9,"stim/22.jpeg",2,2,3,2,"HouseObjects",1,"stim/objects/HouseObjects/dustpan.png",3,"left","left",0.440000057,1,1,1
"355",19,348,0.7,"stim/53.jpeg",5,3,2,2,"Instruments",2,"stim/objects/Instruments/electricguitar.png",4,"right","right",0.552000046,1,1,1
"356",19,349,0.9,"stim/13.jpeg",1,3,3,1,"Instruments",2,"stim/objects/Instruments/flute2.png",3,"right","right",0.521000147,1,1,1
"357",19,350,0.1,"stim/12.jpeg",1,2,3,1,"HouseObjects",1,"stim/objects/HouseObjects/glassmop2.png",3,"left","right",0.534000158,0,0,1
"358",19,351,0.5,"stim/44.jpeg",4,4,1,1,"Instruments",2,"stim/objects/Instruments/musicsheet.png",2,"right","left",0.630000114,0,0,1
"359",19,352,0.5,"stim/42.jpeg",4,2,1,2,"Instruments",2,"stim/objects/Instruments/clarinet.png",2,"right","right",0.597000122,1,1,1
"360",19,353,0.9,"stim/14.jpeg",1,4,3,2,"Instruments",2,"stim/objects/Instruments/frenchhorn.png",1,"right","left",0.50600028,0,0,1
"361",19,354,0.1,"stim/12.jpeg",1,2,3,1,"HouseObjects",1,"stim/objects/HouseObjects/dustpan2.png",2,"left","right",0.452000141,0,0,1
"362",19,355,0.1,"stim/14.jpeg",1,4,3,1,"HouseObjects",1,"stim/objects/HouseObjects/garbagebin2.png",3,"left","right",0.562000275,0,0,1
"363",19,356,0.5,"stim/43.jpeg",4,3,1,2,"Instruments",2,"stim/objects/Instruments/cornet.png",4,"right","right",0.585000038,1,1,1
"364",19,357,0.7,"stim/51.jpeg",5,1,2,2,"Instruments",2,"stim/objects/Instruments/electricguitar.png",1,"right","right",0.625,1,1,1
"365",19,358,0.9,"stim/23.jpeg",2,3,3,1,"HouseObjects",1,"stim/objects/HouseObjects/pitcher2.png",2,"left","left",0.531000137,1,1,1
"366",19,359,0.9,"stim/14.jpeg",1,4,3,2,"Instruments",2,"stim/objects/Instruments/flute.png",4,"right","right",0.541000128,1,1,1
"367",19,360,0.7,"stim/62.jpeg",6,2,2,2,"HouseObjects",1,"stim/objects/HouseObjects/cushion.png",3,"left","left",0.50999999,1,1,1
"368",19,361,0.3,"stim/62.jpeg",6,2,2,1,"Instruments",2,"stim/objects/Instruments/bassguitar2.png",3,"right","left",0.51300025,0,0,1
"369",19,362,0.3,"stim/51.jpeg",5,1,2,1,"HouseObjects",1,"stim/objects/HouseObjects/basket2.png",3,"left","right",0.496999979,0,0,1
"370",19,363,0.5,"stim/34.jpeg",3,4,1,2,"Instruments",2,"stim/objects/Instruments/accordion.png",1,"right","right",0.495000124,1,1,1
"371",19,364,0.5,"stim/43.jpeg",4,3,1,2,"HouseObjects",1,"stim/objects/HouseObjects/blender.png",3,"left","right",0.541000128,0,0,1
"372",19,365,0.5,"stim/41.jpeg",4,1,1,2,"HouseObjects",1,"stim/objects/HouseObjects/broom.png",4,"left","right",0.528000116,0,0,1
"373",19,366,0.7,"stim/51.jpeg",5,1,2,1,"Instruments",2,"stim/objects/Instruments/pipepiano.png",4,"right","right",0.458000183,1,1,1
"374",19,367,0.9,"stim/22.jpeg",2,2,3,2,"HouseObjects",1,"stim/objects/HouseObjects/doormat.png",1,"left","left",0.529000044,1,1,1
"375",19,368,0.3,"stim/63.jpeg",6,3,2,1,"Instruments",2,"stim/objects/Instruments/electricguitar2.png",1,"right","left",0.576000214,0,0,1
"376",19,369,0.9,"stim/24.jpeg",2,4,3,2,"HouseObjects",1,"stim/objects/HouseObjects/glass.png",1,"left","left",0.507000208,1,1,1
"377",19,370,0.5,"stim/43.jpeg",4,3,1,2,"Instruments",2,"stim/objects/Instruments/bassguitar.png",4,"right","right",0.468000174,1,1,1
"378",19,371,0.9,"stim/12.jpeg",1,2,3,2,"Instruments",2,"stim/objects/Instruments/grandpiano.png",2,"right","right",0.512000084,1,1,1
"379",19,372,0.7,"stim/64.jpeg",6,4,2,1,"HouseObjects",1,"stim/objects/HouseObjects/cushion2.png",3,"left","left",0.611999989,1,1,1
"380",19,373,0.9,"stim/12.jpeg",1,2,3,2,"Instruments",2,"stim/objects/Instruments/grandpiano.png",4,"right","right",0.476999998,1,1,1
"381",19,374,0.1,"stim/24.jpeg",2,4,3,1,"Instruments",2,"stim/objects/Instruments/maraca2.png",4,"right","left",0.475000143,0,0,1
"382",19,375,0.9,"stim/11.jpeg",1,1,3,2,"Instruments",2,"stim/objects/Instruments/frenchhorn.png",2,"right","right",0.457000017,1,1,1
"383",19,376,0.1,"stim/13.jpeg",1,3,3,1,"HouseObjects",1,"stim/objects/HouseObjects/hairdryer2.png",4,"left","right",0.411999941,0,0,1
"384",19,377,0.9,"stim/11.jpeg",1,1,3,2,"Instruments",2,"stim/objects/Instruments/gong.png",1,"right","right",0.490999937,1,1,1
"385",19,378,0.5,"stim/44.jpeg",4,4,1,2,"HouseObjects",1,"stim/objects/HouseObjects/clock.png",1,"left","right",0.494999886,0,0,1
"386",19,379,0.5,"stim/43.jpeg",4,3,1,2,"Instruments",2,"stim/objects/Instruments/cello.png",2,"right","right",0.54700017,1,1,1
"387",19,380,0.1,"stim/12.jpeg",1,2,3,1,"HouseObjects",1,"stim/objects/HouseObjects/iron2.png",4,"left","right",0.482000113,0,0,1
"388",19,381,0.1,"stim/23.jpeg",2,3,3,1,"Instruments",2,"stim/objects/Instruments/laud2.png",4,"right","left",0.531000137,0,0,1
"389",19,382,0.9,"stim/22.jpeg",2,2,3,1,"HouseObjects",1,"stim/objects/HouseObjects/key2.png",3,"left","left",0.473999977,1,1,1
"390",19,383,0.9,"stim/12.jpeg",1,2,3,2,"Instruments",2,"stim/objects/Instruments/flutetrans.png",1,"right","right",0.490000248,1,1,1
"391",19,384,0.9,"stim/12.jpeg",1,2,3,2,"Instruments",2,"stim/objects/Instruments/flute.png",2,"right","right",0.428999901,1,1,1
"392",19,385,0.9,"stim/13.jpeg",1,3,3,2,"Instruments",2,"stim/objects/Instruments/gong.png",4,"right","right",0.463000059,1,1,1
"393",19,386,0.9,"stim/22.jpeg",2,2,3,2,"HouseObjects",1,"stim/objects/HouseObjects/garbagebin.png",2,"left","left",0.696000099,1,1,1
"394",19,387,0.5,"stim/44.jpeg",4,4,1,2,"HouseObjects",1,"stim/objects/HouseObjects/bottle.png",2,"left","right",0.629000187,0,0,1
"395",19,388,0.5,"stim/41.jpeg",4,1,1,1,"HouseObjects",1,"stim/objects/HouseObjects/ironingboard.png",3,"left","left",0.777000189,1,1,1
"396",19,389,0.9,"stim/22.jpeg",2,2,3,2,"HouseObjects",1,"stim/objects/HouseObjects/doormat.png",2,"left","left",0.511000156,1,1,1
"397",19,390,0.9,"stim/12.jpeg",1,2,3,2,"Instruments",2,"stim/objects/Instruments/gong.png",4,"right","right",0.493000031,1,1,1
"398",19,391,0.9,"stim/23.jpeg",2,3,3,2,"HouseObjects",1,"stim/objects/HouseObjects/flyswatter.png",4,"left","left",0.679000139,1,1,1
"399",19,392,0.9,"stim/21.jpeg",2,1,3,2,"HouseObjects",1,"stim/objects/HouseObjects/doormat.png",2,"left","left",0.516000032,1,1,1
"400",19,393,0.9,"stim/14.jpeg",1,4,3,2,"Instruments",2,"stim/objects/Instruments/flute.png",4,"right","right",0.505000114,1,1,1
"401",19,394,0.9,"stim/14.jpeg",1,4,3,2,"Instruments",2,"stim/objects/Instruments/frenchhorn.png",1,"right","right",0.496999979,1,1,1
"402",19,395,0.5,"stim/42.jpeg",4,2,1,2,"HouseObjects",1,"stim/objects/HouseObjects/bucket.png",4,"left","left",0.69900012,1,1,1
"403",19,396,0.5,"stim/34.jpeg",3,4,1,1,"HouseObjects",1,"stim/objects/HouseObjects/hairdryer.png",3,"left","right",0.697999954,0,0,1
"404",19,397,0.5,"stim/32.jpeg",3,2,1,2,"HouseObjects",1,"stim/objects/HouseObjects/bleachbottle.png",3,"left","right",0.414000034,0,0,1
"405",19,398,0.5,"stim/41.jpeg",4,1,1,1,"HouseObjects",1,"stim/objects/HouseObjects/match.png",1,"left","left",0.589000225,1,1,1
"406",19,399,0.5,"stim/32.jpeg",3,2,1,2,"Instruments",2,"stim/objects/Instruments/acousticguitar.png",3,"right","right",0.585999966,1,1,1
"407",19,400,0.9,"stim/23.jpeg",2,3,3,2,"HouseObjects",1,"stim/objects/HouseObjects/glass.png",3,"left","left",0.475000143,1,1,1
"408",19,401,0.9,"stim/11.jpeg",1,1,3,2,"Instruments",2,"stim/objects/Instruments/grandpiano.png",3,"right","right",0.515000105,1,1,1
"409",19,402,0.5,"stim/41.jpeg",4,1,1,2,"Instruments",2,"stim/objects/Instruments/clarinet.png",4,"right","right",0.434000015,1,1,1
"410",19,403,0.7,"stim/54.jpeg",5,4,2,2,"Instruments",2,"stim/objects/Instruments/electricdrumset.png",1,"right","right",0.563000202,1,1,1
"411",19,404,0.7,"stim/54.jpeg",5,4,2,2,"Instruments",2,"stim/objects/Instruments/electricguitar.png",1,"right","right",0.690000057,1,1,1
"412",19,405,0.9,"stim/12.jpeg",1,2,3,2,"Instruments",2,"stim/objects/Instruments/frenchhorn.png",2,"right","right",0.499000072,1,1,1
"413",19,406,0.5,"stim/44.jpeg",4,4,1,1,"HouseObjects",1,"stim/objects/HouseObjects/lintroller.png",1,"left","right",0.77699995,0,0,1
"414",19,407,0.7,"stim/62.jpeg",6,2,2,1,"HouseObjects",1,"stim/objects/HouseObjects/clothespin2.png",4,"left","left",0.514000177,1,1,1
"415",19,408,0.9,"stim/13.jpeg",1,3,3,2,"Instruments",2,"stim/objects/Instruments/flute.png",2,"right","right",0.546000242,1,1,1
"416",19,409,0.7,"stim/51.jpeg",5,1,2,2,"Instruments",2,"stim/objects/Instruments/cymbal.png",3,"right","right",0.511000156,1,1,1
"417",19,410,0.9,"stim/14.jpeg",1,4,3,2,"Instruments",2,"stim/objects/Instruments/grandpiano.png",4,"right","right",0.479000092,1,1,1
"418",19,411,0.9,"stim/12.jpeg",1,2,3,2,"Instruments",2,"stim/objects/Instruments/gong.png",2,"right","right",0.49000001,1,1,1
"419",19,412,0.9,"stim/12.jpeg",1,2,3,2,"Instruments",2,"stim/objects/Instruments/flute.png",4,"right","right",0.414000034,1,1,1
"420",19,413,0.5,"stim/32.jpeg",3,2,1,1,"Instruments",2,"stim/objects/Instruments/keyboard.png",2,"right","right",0.580000162,1,1,1
"421",19,414,0.9,"stim/22.jpeg",2,2,3,2,"HouseObjects",1,"stim/objects/HouseObjects/dustpan.png",1,"left","right",0.402000189,0,0,1
"422",19,415,0.7,"stim/54.jpeg",5,4,2,1,"Instruments",2,"stim/objects/Instruments/panflute.png",4,"right","right",0.410000086,1,1,1
"423",19,416,0.3,"stim/63.jpeg",6,3,2,1,"Instruments",2,"stim/objects/Instruments/cello2.png",4,"right","left",0.722000122,0,0,1
"424",19,417,0.1,"stim/22.jpeg",2,2,3,1,"Instruments",2,"stim/objects/Instruments/panflute2.png",1,"right","left",0.40899992,0,0,1
"425",19,418,0.7,"stim/53.jpeg",5,3,2,1,"Instruments",2,"stim/objects/Instruments/bassdrum2.png",2,"right","right",0.541000128,1,1,1
"426",19,419,0.5,"stim/32.jpeg",3,2,1,1,"HouseObjects",1,"stim/objects/HouseObjects/handvacuum.png",2,"left","left",0.49000001,1,1,1
"427",19,420,0.1,"stim/14.jpeg",1,4,3,1,"HouseObjects",1,"stim/objects/HouseObjects/handbrush2.png",2,"left","right",0.433000088,0,0,1
"428",19,421,0.9,"stim/11.jpeg",1,1,3,1,"Instruments",2,"stim/objects/Instruments/frenchhorn2.png",1,"right","right",0.61500001,1,1,1
"429",19,422,0.9,"stim/23.jpeg",2,3,3,2,"HouseObjects",1,"stim/objects/HouseObjects/flyswatter.png",1,"left","left",0.539000034,1,1,1
"430",19,423,0.7,"stim/52.jpeg",5,2,2,2,"Instruments",2,"stim/objects/Instruments/doublebass.png",2,"right","right",0.510000229,1,1,1
"431",19,424,0.9,"stim/22.jpeg",2,2,3,2,"HouseObjects",1,"stim/objects/HouseObjects/glass.png",3,"left","left",0.465000153,1,1,1
"432",19,425,0.9,"stim/24.jpeg",2,4,3,2,"HouseObjects",1,"stim/objects/HouseObjects/dustpan.png",1,"left","left",0.765000105,1,1,1
"433",19,426,0.9,"stim/22.jpeg",2,2,3,2,"HouseObjects",1,"stim/objects/HouseObjects/dustpan.png",1,"left","left",0.413000107,1,1,1
"434",19,427,0.9,"stim/22.jpeg",2,2,3,1,"HouseObjects",1,"stim/objects/HouseObjects/pan2.png",3,"left","left",0.435000181,1,1,1
"435",19,428,0.9,"stim/24.jpeg",2,4,3,1,"HouseObjects",1,"stim/objects/HouseObjects/recyclingbin2.png",1,"left","left",0.525000095,1,1,1
"436",19,429,0.5,"stim/33.jpeg",3,3,1,1,"Instruments",2,"stim/objects/Instruments/harmonica.png",3,"right","right",0.583000183,1,1,1
"437",19,430,0.5,"stim/44.jpeg",4,4,1,2,"Instruments",2,"stim/objects/Instruments/cello.png",4,"right","left",0.760000229,0,0,1
"438",19,431,0.9,"stim/24.jpeg",2,4,3,2,"HouseObjects",1,"stim/objects/HouseObjects/doormat.png",2,"left","left",0.440000057,1,1,1
"439",19,432,0.9,"stim/13.jpeg",1,3,3,2,"Instruments",2,"stim/objects/Instruments/frenchhorn.png",2,"right","right",0.480000019,1,1,1
"440",19,433,0.9,"stim/22.jpeg",2,2,3,2,"HouseObjects",1,"stim/objects/HouseObjects/flyswatter.png",3,"left","left",0.508000135,1,1,1
"441",19,434,0.9,"stim/22.jpeg",2,2,3,2,"HouseObjects",1,"stim/objects/HouseObjects/dustpan.png",1,"left","left",0.452000141,1,1,1
"442",19,435,0.9,"stim/13.jpeg",1,3,3,2,"Instruments",2,"stim/objects/Instruments/flutetrans.png",2,"right","right",0.493000031,1,1,1
"443",19,436,0.9,"stim/12.jpeg",1,2,3,2,"Instruments",2,"stim/objects/Instruments/frenchhorn.png",3,"right","right",0.506000042,1,1,1
"444",19,437,0.7,"stim/61.jpeg",6,1,2,2,"HouseObjects",1,"stim/objects/HouseObjects/clothesdryingrack.png",2,"left","left",0.586999893,1,1,1
"445",19,438,0.9,"stim/12.jpeg",1,2,3,2,"Instruments",2,"stim/objects/Instruments/flutetrans.png",1,"right","right",0.501000166,1,1,1
"446",19,439,0.9,"stim/14.jpeg",1,4,3,2,"Instruments",2,"stim/objects/Instruments/grandpiano.png",2,"right","right",0.425000191,1,1,1
"447",19,440,0.7,"stim/51.jpeg",5,1,2,2,"Instruments",2,"stim/objects/Instruments/drums.png",2,"right","right",0.513000011,1,1,1
"448",19,441,0.9,"stim/11.jpeg",1,1,3,2,"Instruments",2,"stim/objects/Instruments/flutetrans.png",2,"right","right",0.53000021,1,1,1
"449",19,442,0.7,"stim/52.jpeg",5,2,2,1,"Instruments",2,"stim/objects/Instruments/record.png",3,"right","right",0.777000189,1,1,1
"450",19,443,0.1,"stim/24.jpeg",2,4,3,1,"Instruments",2,"stim/objects/Instruments/record2.png",3,"right","left",0.54700017,0,0,1
"451",19,444,0.9,"stim/24.jpeg",2,4,3,2,"HouseObjects",1,"stim/objects/HouseObjects/dustpan.png",4,"left","left",0.459000111,1,1,1
"452",19,445,0.9,"stim/11.jpeg",1,1,3,2,"Instruments",2,"stim/objects/Instruments/gong.png",4,"right","right",0.410000086,1,1,1
"453",19,446,0.9,"stim/13.jpeg",1,3,3,2,"Instruments",2,"stim/objects/Instruments/flute.png",2,"right","right",0.498000145,1,1,1
"454",19,447,0.3,"stim/51.jpeg",5,1,2,1,"HouseObjects",1,"stim/objects/HouseObjects/rubbergloves.png",1,"left","right",0.445000172,0,0,1
"455",19,448,0.9,"stim/12.jpeg",1,2,3,2,"Instruments",2,"stim/objects/Instruments/gong.png",1,"right","right",0.450000048,1,1,1
"456",19,449,0.9,"stim/14.jpeg",1,4,3,2,"Instruments",2,"stim/objects/Instruments/frenchhorn.png",1,"right","right",0.46600008,1,1,1
"457",19,450,0.3,"stim/54.jpeg",5,4,2,1,"HouseObjects",1,"stim/objects/HouseObjects/remote.png",3,"left","right",0.409000158,0,0,1
"458",19,451,0.9,"stim/24.jpeg",2,4,3,2,"HouseObjects",1,"stim/objects/HouseObjects/doormat.png",3,"left","left",0.488000154,1,1,1
"459",19,452,0.3,"stim/52.jpeg",5,2,2,1,"HouseObjects",1,"stim/objects/HouseObjects/bleachbottle2.png",4,"left","right",0.522000074,0,0,1
"460",19,453,0.7,"stim/51.jpeg",5,1,2,2,"Instruments",2,"stim/objects/Instruments/doublebass.png",4,"right","right",0.446000099,1,1,1
"461",19,454,0.9,"stim/14.jpeg",1,4,3,2,"Instruments",2,"stim/objects/Instruments/flute.png",2,"right","right",0.539000034,1,1,1
"462",19,455,0.7,"stim/64.jpeg",6,4,2,1,"HouseObjects",1,"stim/objects/HouseObjects/blender2.png",2,"left","left",0.407000065,1,1,1
"463",19,456,0.9,"stim/21.jpeg",2,1,3,2,"HouseObjects",1,"stim/objects/HouseObjects/glass.png",1,"left","left",0.535000086,1,1,1
"464",19,457,0.9,"stim/11.jpeg",1,1,3,2,"Instruments",2,"stim/objects/Instruments/flute.png",1,"right","right",0.562000036,1,1,1
"465",19,458,0.9,"stim/13.jpeg",1,3,3,2,"Instruments",2,"stim/objects/Instruments/frenchhorn.png",1,"right","right",0.414000034,1,1,1
"466",19,459,0.9,"stim/11.jpeg",1,1,3,2,"Instruments",2,"stim/objects/Instruments/flute.png",2,"right","right",0.49600029,1,1,1
"467",19,460,0.9,"stim/23.jpeg",2,3,3,2,"HouseObjects",1,"stim/objects/HouseObjects/doormat.png",4,"left","left",0.470000029,1,1,1
"468",19,461,0.5,"stim/34.jpeg",3,4,1,2,"Instruments",2,"stim/objects/Instruments/banjo.png",3,"right","right",0.583999872,1,1,1
"469",19,462,0.9,"stim/13.jpeg",1,3,3,2,"Instruments",2,"stim/objects/Instruments/grandpiano.png",2,"right","right",0.49000001,1,1,1
"470",19,463,0.3,"stim/52.jpeg",5,2,2,1,"HouseObjects",1,"stim/objects/HouseObjects/pitcher.png",2,"left","right",0.503000021,0,0,1
"471",19,464,0.9,"stim/21.jpeg",2,1,3,2,"HouseObjects",1,"stim/objects/HouseObjects/doormat.png",2,"left","left",0.508000135,1,1,1
"472",19,465,0.9,"stim/14.jpeg",1,4,3,2,"Instruments",2,"stim/objects/Instruments/grandpiano.png",2,"right","right",0.462000132,1,1,1
"473",19,466,0.9,"stim/13.jpeg",1,3,3,2,"Instruments",2,"stim/objects/Instruments/gong.png",3,"right","right",0.74000001,1,1,1
"474",19,467,0.9,"stim/11.jpeg",1,1,3,2,"Instruments",2,"stim/objects/Instruments/frenchhorn.png",3,"right","right",0.559000015,1,1,1
"475",19,468,0.9,"stim/14.jpeg",1,4,3,2,"Instruments",2,"stim/objects/Instruments/grandpiano.png",4,"right","right",0.570000172,1,1,1
"476",19,469,0.1,"stim/13.jpeg",1,3,3,1,"HouseObjects",1,"stim/objects/HouseObjects/flyswatter2.png",3,"left","right",0.442000151,0,0,1
"477",19,470,0.1,"stim/21.jpeg",2,1,3,1,"Instruments",2,"stim/objects/Instruments/marimba2.png",2,"right","left",0.507000208,0,0,1
"478",19,471,0.9,"stim/24.jpeg",2,4,3,2,"HouseObjects",1,"stim/objects/HouseObjects/garbagebin.png",1,"left","left",0.441000223,1,1,1
"479",19,472,0.7,"stim/61.jpeg",6,1,2,1,"HouseObjects",1,"stim/objects/HouseObjects/dishsoap2.png",1,"left","left",0.58100009,1,1,1
"480",19,473,0.7,"stim/61.jpeg",6,1,2,1,"HouseObjects",1,"stim/objects/HouseObjects/bottle2.png",4,"left","left",0.525000095,1,1,1
"481",19,474,0.7,"stim/63.jpeg",6,3,2,2,"HouseObjects",1,"stim/objects/HouseObjects/clothespin.png",2,"left","left",0.552999973,1,1,1
"482",19,475,0.5,"stim/41.jpeg",4,1,1,1,"Instruments",2,"stim/objects/Instruments/maraca.png",3,"right","left",0.57400012,0,0,1
"483",19,476,0.1,"stim/23.jpeg",2,3,3,1,"Instruments",2,"stim/objects/Instruments/pipepiano2.png",3,"right","left",0.48300004,0,0,1
"484",19,477,0.9,"stim/21.jpeg",2,1,3,2,"HouseObjects",1,"stim/objects/HouseObjects/doormat.png",3,"left","left",0.424000263,1,1,1
"485",19,478,0.5,"stim/42.jpeg",4,2,1,1,"HouseObjects",1,"stim/objects/HouseObjects/key.png",4,"left","left",0.595999956,1,1,1
"486",19,479,0.9,"stim/14.jpeg",1,4,3,2,"Instruments",2,"stim/objects/Instruments/flutetrans.png",3,"right","right",0.545000076,1,1,1
"487",19,480,0.9,"stim/14.jpeg",1,4,3,2,"Instruments",2,"stim/objects/Instruments/gong.png",4,"right","right",0.489000082,1,1,1
"488",19,481,0.9,"stim/14.jpeg",1,4,3,1,"Instruments",2,"stim/objects/Instruments/flutetrans2.png",4,"right","right",0.447000265,1,1,1
"489",19,482,0.9,"stim/21.jpeg",2,1,3,2,"HouseObjects",1,"stim/objects/HouseObjects/dustpan.png",4,"left","left",0.508000135,1,1,1
"490",19,483,0.7,"stim/53.jpeg",5,3,2,1,"Instruments",2,"stim/objects/Instruments/accordion2.png",4,"right","right",0.571000099,1,1,1
"491",19,484,0.9,"stim/23.jpeg",2,3,3,2,"HouseObjects",1,"stim/objects/HouseObjects/glass.png",4,"left","left",0.515000105,1,1,1
"492",19,485,0.9,"stim/24.jpeg",2,4,3,2,"HouseObjects",1,"stim/objects/HouseObjects/garbagebin.png",3,"left","left",0.589000225,1,1,1
"493",19,486,0.9,"stim/11.jpeg",1,1,3,2,"Instruments",2,"stim/objects/Instruments/gong.png",2,"right","right",0.537000179,1,1,1
"494",19,487,0.9,"stim/13.jpeg",1,3,3,2,"Instruments",2,"stim/objects/Instruments/grandpiano.png",4,"right","right",0.416000128,1,1,1
"495",19,488,0.3,"stim/52.jpeg",5,2,2,1,"HouseObjects",1,"stim/objects/HouseObjects/ashtray2.png",3,"left","right",0.701999903,0,0,1
"496",19,489,0.9,"stim/12.jpeg",1,2,3,2,"Instruments",2,"stim/objects/Instruments/flutetrans.png",3,"right","right",0.539000034,1,1,1
"497",19,490,0.7,"stim/54.jpeg",5,4,2,1,"Instruments",2,"stim/objects/Instruments/acousticguitar2.png",1,"right","right",0.566000223,1,1,1
"498",19,491,0.7,"stim/62.jpeg",6,2,2,2,"HouseObjects",1,"stim/objects/HouseObjects/dishsoap.png",1,"left","left",0.549000025,1,1,1
"499",19,492,0.5,"stim/42.jpeg",4,2,1,2,"HouseObjects",1,"stim/objects/HouseObjects/broom.png",1,"left","left",0.789000034,1,1,1
"500",19,493,0.7,"stim/51.jpeg",5,1,2,1,"Instruments",2,"stim/objects/Instruments/balalaika2.png",3,"right","right",0.578000069,1,1,1
"501",19,494,0.9,"stim/14.jpeg",1,4,3,2,"Instruments",2,"stim/objects/Instruments/flutetrans.png",1,"right","right",0.5,1,1,1
"502",19,495,0.5,"stim/33.jpeg",3,3,1,2,"HouseObjects",1,"stim/objects/HouseObjects/ballofstring.png",1,"left","right",0.531000137,0,0,1
"503",19,496,0.9,"stim/14.jpeg",1,4,3,2,"Instruments",2,"stim/objects/Instruments/flutetrans.png",4,"right","right",0.577000141,1,1,1
"504",19,497,0.5,"stim/42.jpeg",4,2,1,1,"Instruments",2,"stim/objects/Instruments/marimba.png",4,"right","left",0.575000286,0,0,1
"505",19,498,0.9,"stim/14.jpeg",1,4,3,2,"Instruments",2,"stim/objects/Instruments/flute.png",4,"right","right",0.512000084,1,1,1
"506",19,499,0.9,"stim/24.jpeg",2,4,3,2,"HouseObjects",1,"stim/objects/HouseObjects/glass.png",1,"left","left",0.792000055,1,1,1
"507",19,500,0.1,"stim/23.jpeg",2,3,3,1,"Instruments",2,"stim/objects/Instruments/musicsheet2.png",4,"right","left",0.465000153,0,0,1
"508",19,501,0.3,"stim/62.jpeg",6,2,2,1,"Instruments",2,"stim/objects/Instruments/cornet2.png",2,"right","left",0.472000122,0,0,1
"509",19,502,0.9,"stim/21.jpeg",2,1,3,2,"HouseObjects",1,"stim/objects/HouseObjects/garbagebin.png",1,"left","left",0.55700016,1,1,1
"510",19,503,0.9,"stim/13.jpeg",1,3,3,2,"Instruments",2,"stim/objects/Instruments/flutetrans.png",3,"right","right",0.538000107,1,1,1
"511",19,504,0.9,"stim/24.jpeg",2,4,3,2,"HouseObjects",1,"stim/objects/HouseObjects/flyswatter.png",4,"left","left",0.472000122,1,1,1
"512",19,505,0.9,"stim/12.jpeg",1,2,3,2,"Instruments",2,"stim/objects/Instruments/frenchhorn.png",1,"right","right",0.423000097,1,1,1
"513",19,506,0.9,"stim/12.jpeg",1,2,3,2,"Instruments",2,"stim/objects/Instruments/grandpiano.png",2,"right","right",0.438000202,1,1,1
"514",19,507,0.9,"stim/11.jpeg",1,1,3,2,"Instruments",2,"stim/objects/Instruments/grandpiano.png",1,"right","right",0.480000019,1,1,1
"515",19,508,0.9,"stim/12.jpeg",1,2,3,2,"Instruments",2,"stim/objects/Instruments/flute.png",2,"right","right",0.549000025,1,1,1
"516",19,509,0.5,"stim/33.jpeg",3,3,1,2,"HouseObjects",1,"stim/objects/HouseObjects/barbecuelighter.png",2,"left","right",0.468000174,0,0,1
"517",19,510,0.9,"stim/21.jpeg",2,1,3,2,"HouseObjects",1,"stim/objects/HouseObjects/glass.png",1,"left","left",0.548000097,1,1,1
"518",19,511,0.5,"stim/34.jpeg",3,4,1,2,"HouseObjects",1,"stim/objects/HouseObjects/basket.png",4,"left","right",0.5,0,0,1
"519",19,512,0.9,"stim/23.jpeg",2,3,3,2,"HouseObjects",1,"stim/objects/HouseObjects/flyswatter.png",3,"left","left",0.567000151,1,1,1
"520",19,513,0.5,"stim/33.jpeg",3,3,1,1,"HouseObjects",1,"stim/objects/HouseObjects/iron.png",2,"left","",NA,0,0,1
"521",19,514,0.9,"stim/23.jpeg",2,3,3,2,"HouseObjects",1,"stim/objects/HouseObjects/glass.png",1,"left","left",0.45600009,1,1,1
"522",19,515,0.3,"stim/61.jpeg",6,1,2,1,"Instruments",2,"stim/objects/Instruments/drums2.png",3,"right","left",0.464000225,0,0,1
"523",19,516,0.9,"stim/23.jpeg",2,3,3,2,"HouseObjects",1,"stim/objects/HouseObjects/flyswatter.png",1,"left","left",0.451000214,1,1,1
"524",19,517,0.5,"stim/34.jpeg",3,4,1,2,"HouseObjects",1,"stim/objects/HouseObjects/barbecuelighter.png",1,"left","right",0.413000107,0,0,1
"525",19,518,0.1,"stim/24.jpeg",2,4,3,1,"Instruments",2,"stim/objects/Instruments/musicstand2.png",3,"right","left",0.467000008,0,0,1
"526",19,519,0.9,"stim/21.jpeg",2,1,3,2,"HouseObjects",1,"stim/objects/HouseObjects/flyswatter.png",3,"left","left",0.417999983,1,1,1
"527",19,520,0.9,"stim/24.jpeg",2,4,3,2,"HouseObjects",1,"stim/objects/HouseObjects/glass.png",4,"left","left",0.545000076,1,1,1
"528",19,521,0.5,"stim/41.jpeg",4,1,1,2,"HouseObjects",1,"stim/objects/HouseObjects/bottle.png",2,"left","left",0.563999891,1,1,1
"529",19,522,0.5,"stim/44.jpeg",4,4,1,2,"HouseObjects",1,"stim/objects/HouseObjects/blender.png",2,"left","right",0.477999926,0,0,1
"530",19,523,0.7,"stim/63.jpeg",6,3,2,2,"HouseObjects",1,"stim/objects/HouseObjects/coffee.png",1,"left","left",0.499000072,1,1,1
"531",19,524,0.9,"stim/22.jpeg",2,2,3,2,"HouseObjects",1,"stim/objects/HouseObjects/doormat.png",4,"left","left",0.433000088,1,1,1
"532",19,525,0.9,"stim/22.jpeg",2,2,3,2,"HouseObjects",1,"stim/objects/HouseObjects/flyswatter.png",1,"left","left",0.436000109,1,1,1
"533",19,526,0.9,"stim/11.jpeg",1,1,3,2,"Instruments",2,"stim/objects/Instruments/flutetrans.png",3,"right","right",0.637000322,1,1,1
"534",19,527,0.9,"stim/11.jpeg",1,1,3,2,"Instruments",2,"stim/objects/Instruments/frenchhorn.png",4,"right","right",0.442000151,1,1,1
"535",19,528,0.9,"stim/24.jpeg",2,4,3,2,"HouseObjects",1,"stim/objects/HouseObjects/glass.png",4,"left","left",0.548000097,1,1,1
"536",19,529,0.9,"stim/14.jpeg",1,4,3,1,"Instruments",2,"stim/objects/Instruments/keyboard2.png",2,"right","right",0.525000095,1,1,1
"537",19,530,0.7,"stim/52.jpeg",5,2,2,2,"Instruments",2,"stim/objects/Instruments/drums.png",1,"right","right",0.531000137,1,1,1
"538",19,531,0.7,"stim/62.jpeg",6,2,2,2,"HouseObjects",1,"stim/objects/HouseObjects/clothesdryingrack.png",4,"left","left",0.524000168,1,1,1
"539",19,532,0.7,"stim/52.jpeg",5,2,2,1,"Instruments",2,"stim/objects/Instruments/banjo2.png",1,"right","right",0.539000273,1,1,1
"540",19,533,0.5,"stim/34.jpeg",3,4,1,2,"Instruments",2,"stim/objects/Instruments/bassdrum.png",3,"right","right",0.489000082,1,1,1
"541",19,534,0.9,"stim/23.jpeg",2,3,3,2,"HouseObjects",1,"stim/objects/HouseObjects/doormat.png",3,"left","left",0.375,1,1,1
"542",19,535,0.3,"stim/63.jpeg",6,3,2,1,"Instruments",2,"stim/objects/Instruments/cymbal2.png",3,"right","left",0.529000044,0,0,1
"543",19,536,0.9,"stim/13.jpeg",1,3,3,2,"Instruments",2,"stim/objects/Instruments/flutetrans.png",2,"right","right",0.562000036,1,1,1
"544",19,537,0.5,"stim/43.jpeg",4,3,1,1,"Instruments",2,"stim/objects/Instruments/metronome.png",3,"right","left",0.605999947,0,0,1
"545",19,538,0.5,"stim/31.jpeg",3,1,1,2,"Instruments",2,"stim/objects/Instruments/accordion.png",4,"right","right",0.642000198,1,1,1
"546",19,539,0.3,"stim/54.jpeg",5,4,2,1,"HouseObjects",1,"stim/objects/HouseObjects/barbecuelighter2.png",1,"left","right",0.479000092,0,0,1
"547",19,540,0.7,"stim/64.jpeg",6,4,2,2,"HouseObjects",1,"stim/objects/HouseObjects/coffee.png",2,"left","left",0.549000025,1,1,1
"548",19,541,0.9,"stim/24.jpeg",2,4,3,2,"HouseObjects",1,"stim/objects/HouseObjects/garbagebin.png",1,"left","left",0.647000313,1,1,1
"549",19,542,0.9,"stim/11.jpeg",1,1,3,2,"Instruments",2,"stim/objects/Instruments/grandpiano.png",3,"right","right",0.452000141,1,1,1
"550",19,543,0.9,"stim/11.jpeg",1,1,3,2,"Instruments",2,"stim/objects/Instruments/frenchhorn.png",1,"right","right",0.39199996,1,1,1
"551",19,544,0.9,"stim/21.jpeg",2,1,3,2,"HouseObjects",1,"stim/objects/HouseObjects/garbagebin.png",3,"left","left",0.434000015,1,1,1
"552",19,545,0.7,"stim/63.jpeg",6,3,2,2,"HouseObjects",1,"stim/objects/HouseObjects/clothesdryingrack.png",2,"left","left",0.510000229,1,1,1
"553",19,546,0.5,"stim/44.jpeg",4,4,1,1,"Instruments",2,"stim/objects/Instruments/laud.png",1,"right","left",0.748000145,0,0,1
"554",19,547,0.7,"stim/63.jpeg",6,3,2,1,"HouseObjects",1,"stim/objects/HouseObjects/bucket2.png",4,"left","left",0.450000048,1,1,1
"555",19,548,0.5,"stim/42.jpeg",4,2,1,2,"Instruments",2,"stim/objects/Instruments/cornet.png",3,"right","left",0.594000101,0,0,1
"556",19,549,0.9,"stim/24.jpeg",2,4,3,2,"HouseObjects",1,"stim/objects/HouseObjects/dustpan.png",1,"left","left",0.503000021,1,1,1
"557",19,550,0.5,"stim/31.jpeg",3,1,1,1,"Instruments",2,"stim/objects/Instruments/hihat.png",4,"right","right",0.459000111,1,1,1
"558",19,551,0.7,"stim/64.jpeg",6,4,2,2,"HouseObjects",1,"stim/objects/HouseObjects/cushion.png",3,"left","left",0.480000019,1,1,1
"559",19,552,0.9,"stim/22.jpeg",2,2,3,2,"HouseObjects",1,"stim/objects/HouseObjects/garbagebin.png",2,"left","left",0.617000103,1,1,1
"560",19,553,0.9,"stim/12.jpeg",1,2,3,1,"Instruments",2,"stim/objects/Instruments/gong2.png",2,"right","right",0.548000097,1,1,1
"561",19,554,0.9,"stim/14.jpeg",1,4,3,2,"Instruments",2,"stim/objects/Instruments/gong.png",3,"right","right",0.712000132,1,1,1
"562",19,555,0.1,"stim/11.jpeg",1,1,3,1,"HouseObjects",1,"stim/objects/HouseObjects/glass2.png",4,"left","right",0.458000183,0,0,1
"563",19,556,0.7,"stim/54.jpeg",5,4,2,2,"Instruments",2,"stim/objects/Instruments/cymbal.png",3,"right","left",0.488000154,0,0,1
"564",19,557,0.9,"stim/23.jpeg",2,3,3,2,"HouseObjects",1,"stim/objects/HouseObjects/dustpan.png",4,"left","left",0.410000086,1,1,1
"565",19,558,0.9,"stim/23.jpeg",2,3,3,2,"HouseObjects",1,"stim/objects/HouseObjects/dustpan.png",4,"left","left",0.393000126,1,1,1
"566",19,559,0.9,"stim/23.jpeg",2,3,3,2,"HouseObjects",1,"stim/objects/HouseObjects/dustpan.png",4,"left","left",0.40500021,1,1,1
"567",19,560,0.7,"stim/52.jpeg",5,2,2,1,"Instruments",2,"stim/objects/Instruments/musicstand.png",2,"right","right",0.499000072,1,1,1
"568",19,561,0.5,"stim/33.jpeg",3,3,1,1,"HouseObjects",1,"stim/objects/HouseObjects/glassmop.png",1,"left","right",0.476000071,0,0,1
"569",19,562,0.9,"stim/21.jpeg",2,1,3,1,"HouseObjects",1,"stim/objects/HouseObjects/match2.png",2,"left","left",0.470000267,1,1,1
"570",19,563,0.5,"stim/31.jpeg",3,1,1,2,"HouseObjects",1,"stim/objects/HouseObjects/ashtray.png",1,"left","left",0.719000101,1,1,1
"571",19,564,0.5,"stim/31.jpeg",3,1,1,2,"HouseObjects",1,"stim/objects/HouseObjects/bleachbottle.png",3,"left","left",0.611999989,1,1,1
"572",19,565,0.9,"stim/12.jpeg",1,2,3,2,"Instruments",2,"stim/objects/Instruments/frenchhorn.png",2,"right","right",0.43200016,1,1,1
"573",19,566,0.1,"stim/21.jpeg",2,1,3,1,"Instruments",2,"stim/objects/Instruments/oboe2.png",4,"right","left",0.509000063,0,0,1
"574",19,567,0.9,"stim/21.jpeg",2,1,3,2,"HouseObjects",1,"stim/objects/HouseObjects/dustpan.png",2,"left","left",0.460000038,1,1,1
"575",19,568,0.5,"stim/32.jpeg",3,2,1,2,"Instruments",2,"stim/objects/Instruments/balalaika.png",1,"right","left",0.549000025,0,0,1
"576",19,569,0.7,"stim/53.jpeg",5,3,2,2,"Instruments",2,"stim/objects/Instruments/cymbal.png",4,"right","right",0.495000124,1,1,1
"577",19,570,0.1,"stim/11.jpeg",1,1,3,1,"HouseObjects",1,"stim/objects/HouseObjects/doormat2.png",4,"left","right",0.447999954,0,0,1
