"","obj_file","X.x","participant.x","trialN.x","trial_cond","scn_file.x","scn_cat","scn_inst","scn_condition","fillers","obj_cat","obj_cat_num","quadrant","corr_ans","key_resp_trial.keys","key_resp_trial.rt","trial_acc","trial_acc_manual","group.x","practice","X.y","participant.y","OvsN","PE_level","object_cat","scn_file.y","corr_scn_cat","corr_scn_inst","scn_file.1","corr_loc","key_resp_id.keys","key_resp_id.rt","key_resp_conf.keys","key_resp_assoc.keys","key_resp_assoc.rt","key_resp_loc.keys","key_resp_loc.rt","trialN.y","id_acc","assoc.acc","cond_assoc","loc.acc","cond_loc","group.y"
"47","stim/objects/HouseObjects/saw.png",1,3,1,0.5,"stim/22.jpeg",2,2,1,NA,"HouseObjects",2,3,"right","left",0.557999849,0,0,1,1,NA,NA,NA,NA,NA,NA,NA,NA,NA,NA,NA,NA,NA,NA,NA,NA,NA,NA,NA,NA,NA,NA,NA,NA
"175","stim/objects/Instruments/speaker.png",2,3,2,0.5,"stim/22.jpeg",2,2,1,NA,"Instruments",1,1,"left","left",0.701999903,1,1,1,1,NA,NA,NA,NA,NA,NA,NA,NA,NA,NA,NA,NA,NA,NA,NA,NA,NA,NA,NA,NA,NA,NA,NA,NA
"112","stim/objects/HouseObjects/thermometer2.png",3,3,3,0.1,"stim/63.jpeg",6,3,3,NA,"HouseObjects",2,4,"right","left",0.686999798,0,0,1,1,NA,NA,NA,NA,NA,NA,NA,NA,NA,NA,NA,NA,NA,NA,NA,NA,NA,NA,NA,NA,NA,NA,NA,NA
"97","stim/objects/HouseObjects/teapot.png",4,3,4,0.7,"stim/32.jpeg",3,2,2,NA,"HouseObjects",2,4,"right","right",0.782999754,1,1,1,1,NA,NA,NA,NA,NA,NA,NA,NA,NA,NA,NA,NA,NA,NA,NA,NA,NA,NA,NA,NA,NA,NA,NA,NA
"162","stim/objects/Instruments/record2.png",5,3,5,0.7,"stim/43.jpeg",4,3,2,NA,"Instruments",1,1,"left","left",0.689999819,1,1,1,1,NA,NA,NA,NA,NA,NA,NA,NA,NA,NA,NA,NA,NA,NA,NA,NA,NA,NA,NA,NA,NA,NA,NA,NA
"30","stim/objects/HouseObjects/rug2.png",6,3,6,0.3,"stim/44.jpeg",4,4,2,NA,"HouseObjects",2,1,"right","",NA,0,0,1,1,NA,NA,NA,NA,NA,NA,NA,NA,NA,NA,NA,NA,NA,NA,NA,NA,NA,NA,NA,NA,NA,NA,NA,NA
"48","stim/objects/HouseObjects/saw.png",7,3,7,0.5,"stim/22.jpeg",2,2,1,NA,"HouseObjects",2,1,"right","",NA,0,0,1,1,NA,NA,NA,NA,NA,NA,NA,NA,NA,NA,NA,NA,NA,NA,NA,NA,NA,NA,NA,NA,NA,NA,NA,NA
"38","stim/objects/HouseObjects/safetypin2.png",8,3,8,0.9,"stim/51.jpeg",5,1,3,NA,"HouseObjects",2,4,"right","left",0.670999765,0,0,1,1,NA,NA,NA,NA,NA,NA,NA,NA,NA,NA,NA,NA,NA,NA,NA,NA,NA,NA,NA,NA,NA,NA,NA,NA
"217","stim/objects/Instruments/trumpet.png",9,3,9,0.3,"stim/33.jpeg",3,3,2,NA,"Instruments",1,1,"left","right",0.808999777,0,0,1,1,NA,NA,NA,NA,NA,NA,NA,NA,NA,NA,NA,NA,NA,NA,NA,NA,NA,NA,NA,NA,NA,NA,NA,NA
"138","stim/objects/Instruments/pipepiano2.png",10,3,10,0.7,"stim/42.jpeg",4,2,2,NA,"Instruments",1,4,"left","left",0.663999796,1,1,1,1,NA,NA,NA,NA,NA,NA,NA,NA,NA,NA,NA,NA,NA,NA,NA,NA,NA,NA,NA,NA,NA,NA,NA,NA
"33","stim/objects/HouseObjects/safetypin.png",11,3,11,0.5,"stim/21.jpeg",2,1,1,NA,"HouseObjects",2,4,"right","right",0.839999914,1,1,1,1,NA,NA,NA,NA,NA,NA,NA,NA,NA,NA,NA,NA,NA,NA,NA,NA,NA,NA,NA,NA,NA,NA,NA,NA
"121","stim/objects/Instruments/panflute.png",12,3,12,0.5,"stim/11.jpeg",1,1,1,NA,"Instruments",1,4,"left","right",0.762999773,0,0,1,1,NA,NA,NA,NA,NA,NA,NA,NA,NA,NA,NA,NA,NA,NA,NA,NA,NA,NA,NA,NA,NA,NA,NA,NA
"52","stim/objects/HouseObjects/saw2.png",13,3,13,0.9,"stim/52.jpeg",5,2,3,NA,"HouseObjects",2,2,"right","right",0.606999874,1,1,1,1,NA,NA,NA,NA,NA,NA,NA,NA,NA,NA,NA,NA,NA,NA,NA,NA,NA,NA,NA,NA,NA,NA,NA,NA
"163","stim/objects/Instruments/record2.png",14,3,14,0.7,"stim/43.jpeg",4,3,2,NA,"Instruments",1,1,"left","left",0.803999662,1,1,1,1,NA,NA,NA,NA,NA,NA,NA,NA,NA,NA,NA,NA,NA,NA,NA,NA,NA,NA,NA,NA,NA,NA,NA,NA
"180","stim/objects/Instruments/speaker2.png",15,3,15,0.1,"stim/52.jpeg",5,2,3,NA,"Instruments",1,3,"left","right",0.647999763,0,0,1,1,NA,NA,NA,NA,NA,NA,NA,NA,NA,NA,NA,NA,NA,NA,NA,NA,NA,NA,NA,NA,NA,NA,NA,NA
"196","stim/objects/Instruments/triangle2.png",16,3,16,0.9,"stim/61.jpeg",6,1,3,NA,"Instruments",1,2,"left","left",0.686999798,1,1,1,1,NA,NA,NA,NA,NA,NA,NA,NA,NA,NA,NA,NA,NA,NA,NA,NA,NA,NA,NA,NA,NA,NA,NA,NA
"145","stim/objects/Instruments/record_player.png",17,3,17,0.5,"stim/14.jpeg",1,4,1,NA,"Instruments",1,4,"left","right",0.774999857,0,0,1,1,NA,NA,NA,NA,NA,NA,NA,NA,NA,NA,NA,NA,NA,NA,NA,NA,NA,NA,NA,NA,NA,NA,NA,NA
"232","stim/objects/Instruments/tuba2.png",18,3,18,0.9,"stim/64.jpeg",6,4,3,NA,"Instruments",1,3,"left","left",0.545999765,1,1,1,1,NA,NA,NA,NA,NA,NA,NA,NA,NA,NA,NA,NA,NA,NA,NA,NA,NA,NA,NA,NA,NA,NA,NA,NA
"22","stim/objects/HouseObjects/rubbergloves2.png",19,3,19,0.3,"stim/43.jpeg",4,3,2,NA,"HouseObjects",2,4,"right","left",0.687999725,0,0,1,1,NA,NA,NA,NA,NA,NA,NA,NA,NA,NA,NA,NA,NA,NA,NA,NA,NA,NA,NA,NA,NA,NA,NA,NA
"39","stim/objects/HouseObjects/safetypin2.png",20,3,20,0.9,"stim/51.jpeg",5,1,3,NA,"HouseObjects",2,1,"right","right",0.690999985,1,1,1,1,NA,NA,NA,NA,NA,NA,NA,NA,NA,NA,NA,NA,NA,NA,NA,NA,NA,NA,NA,NA,NA,NA,NA,NA
"139","stim/objects/Instruments/pipepiano2.png",21,3,21,0.7,"stim/42.jpeg",4,2,2,NA,"Instruments",1,4,"left","left",0.802999973,1,1,1,1,NA,NA,NA,NA,NA,NA,NA,NA,NA,NA,NA,NA,NA,NA,NA,NA,NA,NA,NA,NA,NA,NA,NA,NA
"187","stim/objects/Instruments/timbal.png",22,3,22,0.5,"stim/24.jpeg",2,4,1,NA,"Instruments",1,3,"left","",NA,0,0,1,1,NA,NA,NA,NA,NA,NA,NA,NA,NA,NA,NA,NA,NA,NA,NA,NA,NA,NA,NA,NA,NA,NA,NA,NA
"53","stim/objects/HouseObjects/saw2.png",23,3,23,0.9,"stim/52.jpeg",5,2,3,NA,"HouseObjects",2,1,"right","",NA,0,0,1,1,NA,NA,NA,NA,NA,NA,NA,NA,NA,NA,NA,NA,NA,NA,NA,NA,NA,NA,NA,NA,NA,NA,NA,NA
"25","stim/objects/HouseObjects/rug.png",24,3,24,0.5,"stim/14.jpeg",1,4,1,NA,"HouseObjects",2,3,"right","left",0.750999928,0,0,1,1,NA,NA,NA,NA,NA,NA,NA,NA,NA,NA,NA,NA,NA,NA,NA,NA,NA,NA,NA,NA,NA,NA,NA,NA
"205","stim/objects/Instruments/trombone.png",25,3,25,0.3,"stim/32.jpeg",3,2,2,NA,"Instruments",1,2,"left","right",0.460999727,0,0,1,1,NA,NA,NA,NA,NA,NA,NA,NA,NA,NA,NA,NA,NA,NA,NA,NA,NA,NA,NA,NA,NA,NA,NA,NA
"66","stim/objects/HouseObjects/scale2.png",26,3,26,0.9,"stim/53.jpeg",5,3,3,NA,"HouseObjects",2,1,"right","left",0.635999918,0,0,1,1,NA,NA,NA,NA,NA,NA,NA,NA,NA,NA,NA,NA,NA,NA,NA,NA,NA,NA,NA,NA,NA,NA,NA,NA
"208","stim/objects/Instruments/trombone2.png",27,3,27,0.9,"stim/62.jpeg",6,2,3,NA,"Instruments",1,1,"left","left",0.551999807,1,1,1,1,NA,NA,NA,NA,NA,NA,NA,NA,NA,NA,NA,NA,NA,NA,NA,NA,NA,NA,NA,NA,NA,NA,NA,NA
"40","stim/objects/HouseObjects/safetypin2.png",28,3,28,0.9,"stim/51.jpeg",5,1,3,NA,"HouseObjects",2,1,"right","right",0.61199975,1,1,1,1,NA,NA,NA,NA,NA,NA,NA,NA,NA,NA,NA,NA,NA,NA,NA,NA,NA,NA,NA,NA,NA,NA,NA,NA
"126","stim/objects/Instruments/panflute2.png",29,3,29,0.7,"stim/41.jpeg",4,1,2,NA,"Instruments",1,1,"left","right",0.689999819,0,0,1,1,NA,NA,NA,NA,NA,NA,NA,NA,NA,NA,NA,NA,NA,NA,NA,NA,NA,NA,NA,NA,NA,NA,NA,NA
"197","stim/objects/Instruments/triangle2.png",30,3,30,0.9,"stim/61.jpeg",6,1,3,NA,"Instruments",1,2,"left","left",0.59499979,1,1,1,1,NA,NA,NA,NA,NA,NA,NA,NA,NA,NA,NA,NA,NA,NA,NA,NA,NA,NA,NA,NA,NA,NA,NA,NA
"80","stim/objects/HouseObjects/sponge2.png",31,3,31,0.9,"stim/54.jpeg",5,4,3,NA,"HouseObjects",2,1,"right","",NA,0,0,1,1,NA,NA,NA,NA,NA,NA,NA,NA,NA,NA,NA,NA,NA,NA,NA,NA,NA,NA,NA,NA,NA,NA,NA,NA
"229","stim/objects/Instruments/tuba.png",32,3,32,0.3,"stim/34.jpeg",3,4,2,NA,"Instruments",1,2,"left","right",0.721999884,0,0,1,1,NA,NA,NA,NA,NA,NA,NA,NA,NA,NA,NA,NA,NA,NA,NA,NA,NA,NA,NA,NA,NA,NA,NA,NA
"193","stim/objects/Instruments/triangle.png",33,3,33,0.3,"stim/31.jpeg",3,1,2,NA,"Instruments",1,3,"left","right",0.648000002,0,0,1,1,NA,NA,NA,NA,NA,NA,NA,NA,NA,NA,NA,NA,NA,NA,NA,NA,NA,NA,NA,NA,NA,NA,NA,NA
"209","stim/objects/Instruments/trombone2.png",34,3,34,0.9,"stim/62.jpeg",6,2,3,NA,"Instruments",1,1,"left","left",0.546999693,1,1,1,1,NA,NA,NA,NA,NA,NA,NA,NA,NA,NA,NA,NA,NA,NA,NA,NA,NA,NA,NA,NA,NA,NA,NA,NA
"169","stim/objects/Instruments/saxophone.png",35,3,35,0.5,"stim/21.jpeg",2,1,1,NA,"Instruments",1,4,"left","right",0.598999977,0,0,1,1,NA,NA,NA,NA,NA,NA,NA,NA,NA,NA,NA,NA,NA,NA,NA,NA,NA,NA,NA,NA,NA,NA,NA,NA
"127","stim/objects/Instruments/panflute2.png",36,3,36,0.7,"stim/41.jpeg",4,1,2,NA,"Instruments",1,1,"left","left",0.570999861,1,1,1,1,NA,NA,NA,NA,NA,NA,NA,NA,NA,NA,NA,NA,NA,NA,NA,NA,NA,NA,NA,NA,NA,NA,NA,NA
"164","stim/objects/Instruments/record2.png",37,3,37,0.7,"stim/43.jpeg",4,3,2,NA,"Instruments",1,1,"left","left",0.679999828,1,1,1,1,NA,NA,NA,NA,NA,NA,NA,NA,NA,NA,NA,NA,NA,NA,NA,NA,NA,NA,NA,NA,NA,NA,NA,NA
"67","stim/objects/HouseObjects/scale2.png",38,3,38,0.9,"stim/53.jpeg",5,3,3,NA,"HouseObjects",2,2,"right","right",0.606999874,1,1,1,1,NA,NA,NA,NA,NA,NA,NA,NA,NA,NA,NA,NA,NA,NA,NA,NA,NA,NA,NA,NA,NA,NA,NA,NA
"1","stim/objects/HouseObjects/recyclingbin.png",39,3,39,0.5,"stim/11.jpeg",1,1,1,NA,"HouseObjects",2,1,"right","right",0.572999716,1,1,1,1,NA,NA,NA,NA,NA,NA,NA,NA,NA,NA,NA,NA,NA,NA,NA,NA,NA,NA,NA,NA,NA,NA,NA,NA
"61","stim/objects/HouseObjects/scale.png",40,3,40,0.5,"stim/23.jpeg",2,3,1,NA,"HouseObjects",2,1,"right","left",0.901999712,0,0,1,1,NA,NA,NA,NA,NA,NA,NA,NA,NA,NA,NA,NA,NA,NA,NA,NA,NA,NA,NA,NA,NA,NA,NA,NA
"233","stim/objects/Instruments/tuba2.png",41,3,41,0.9,"stim/64.jpeg",6,4,3,NA,"Instruments",1,3,"left","left",0.631999731,1,1,1,1,NA,NA,NA,NA,NA,NA,NA,NA,NA,NA,NA,NA,NA,NA,NA,NA,NA,NA,NA,NA,NA,NA,NA,NA
"9","stim/objects/HouseObjects/remote.png",42,3,42,0.5,"stim/12.jpeg",1,2,1,NA,"HouseObjects",2,2,"right","right",0.665999889,1,1,1,1,NA,NA,NA,NA,NA,NA,NA,NA,NA,NA,NA,NA,NA,NA,NA,NA,NA,NA,NA,NA,NA,NA,NA,NA
"10","stim/objects/HouseObjects/remote.png",43,3,43,0.5,"stim/12.jpeg",1,2,1,NA,"HouseObjects",2,3,"right","right",0.695999861,1,1,1,1,NA,NA,NA,NA,NA,NA,NA,NA,NA,NA,NA,NA,NA,NA,NA,NA,NA,NA,NA,NA,NA,NA,NA,NA
"2","stim/objects/HouseObjects/recyclingbin.png",44,3,44,0.5,"stim/11.jpeg",1,1,1,NA,"HouseObjects",2,2,"right","",NA,0,0,1,1,NA,NA,NA,NA,NA,NA,NA,NA,NA,NA,NA,NA,NA,NA,NA,NA,NA,NA,NA,NA,NA,NA,NA,NA
"75","stim/objects/HouseObjects/sponge.png",45,3,45,0.5,"stim/24.jpeg",2,4,1,NA,"HouseObjects",2,2,"right","right",0.569000006,1,1,1,1,NA,NA,NA,NA,NA,NA,NA,NA,NA,NA,NA,NA,NA,NA,NA,NA,NA,NA,NA,NA,NA,NA,NA,NA
"146","stim/objects/Instruments/record_player.png",46,3,46,0.5,"stim/14.jpeg",1,4,1,NA,"Instruments",1,1,"left","right",0.782999754,0,0,1,1,NA,NA,NA,NA,NA,NA,NA,NA,NA,NA,NA,NA,NA,NA,NA,NA,NA,NA,NA,NA,NA,NA,NA,NA
"157","stim/objects/Instruments/record.png",47,3,47,0.5,"stim/13.jpeg",1,3,1,NA,"Instruments",1,2,"left","left",0.710999966,1,1,1,1,NA,NA,NA,NA,NA,NA,NA,NA,NA,NA,NA,NA,NA,NA,NA,NA,NA,NA,NA,NA,NA,NA,NA,NA
"113","stim/objects/HouseObjects/thread.png",48,3,48,0.7,"stim/34.jpeg",3,4,2,NA,"HouseObjects",2,2,"right","right",0.77099967,1,1,1,1,NA,NA,NA,NA,NA,NA,NA,NA,NA,NA,NA,NA,NA,NA,NA,NA,NA,NA,NA,NA,NA,NA,NA,NA
"41","stim/objects/HouseObjects/safetypin2.png",49,3,49,0.9,"stim/51.jpeg",5,1,3,NA,"HouseObjects",2,2,"right","right",0.599999666,1,1,1,1,NA,NA,NA,NA,NA,NA,NA,NA,NA,NA,NA,NA,NA,NA,NA,NA,NA,NA,NA,NA,NA,NA,NA,NA
"3","stim/objects/HouseObjects/recyclingbin.png",50,3,50,0.5,"stim/11.jpeg",1,1,1,NA,"HouseObjects",2,2,"right","right",0.493999958,1,1,1,1,NA,NA,NA,NA,NA,NA,NA,NA,NA,NA,NA,NA,NA,NA,NA,NA,NA,NA,NA,NA,NA,NA,NA,NA
"220","stim/objects/Instruments/trumpet2.png",51,3,51,0.9,"stim/63.jpeg",6,3,3,NA,"Instruments",1,3,"left","left",0.540999889,1,1,1,1,NA,NA,NA,NA,NA,NA,NA,NA,NA,NA,NA,NA,NA,NA,NA,NA,NA,NA,NA,NA,NA,NA,NA,NA
"49","stim/objects/HouseObjects/saw.png",52,3,52,0.5,"stim/22.jpeg",2,2,1,NA,"HouseObjects",2,1,"right","right",0.44299984,1,1,1,1,NA,NA,NA,NA,NA,NA,NA,NA,NA,NA,NA,NA,NA,NA,NA,NA,NA,NA,NA,NA,NA,NA,NA,NA
"188","stim/objects/Instruments/timbal.png",53,3,53,0.5,"stim/24.jpeg",2,4,1,NA,"Instruments",1,4,"left","left",0.707999706,1,1,1,1,NA,NA,NA,NA,NA,NA,NA,NA,NA,NA,NA,NA,NA,NA,NA,NA,NA,NA,NA,NA,NA,NA,NA,NA
"14","stim/objects/HouseObjects/remote2.png",54,3,54,0.3,"stim/42.jpeg",4,2,2,NA,"HouseObjects",2,2,"right","left",0.698999882,0,0,1,1,NA,NA,NA,NA,NA,NA,NA,NA,NA,NA,NA,NA,NA,NA,NA,NA,NA,NA,NA,NA,NA,NA,NA,NA
"147","stim/objects/Instruments/record_player.png",55,3,55,0.5,"stim/14.jpeg",1,4,1,NA,"Instruments",1,4,"left","left",0.718999863,1,1,1,1,NA,NA,NA,NA,NA,NA,NA,NA,NA,NA,NA,NA,NA,NA,NA,NA,NA,NA,NA,NA,NA,NA,NA,NA
"98","stim/objects/HouseObjects/teapot.png",56,3,56,0.7,"stim/32.jpeg",3,2,2,NA,"HouseObjects",2,3,"right","right",0.615999937,1,1,1,1,NA,NA,NA,NA,NA,NA,NA,NA,NA,NA,NA,NA,NA,NA,NA,NA,NA,NA,NA,NA,NA,NA,NA,NA
"150","stim/objects/Instruments/record_player2.png",57,3,57,0.7,"stim/44.jpeg",4,4,2,NA,"Instruments",1,1,"left","left",0.638999701,1,1,1,1,NA,NA,NA,NA,NA,NA,NA,NA,NA,NA,NA,NA,NA,NA,NA,NA,NA,NA,NA,NA,NA,NA,NA,NA
"76","stim/objects/HouseObjects/sponge.png",58,3,58,0.5,"stim/24.jpeg",2,4,1,NA,"HouseObjects",2,2,"right","left",0.467000008,0,0,1,1,NA,NA,NA,NA,NA,NA,NA,NA,NA,NA,NA,NA,NA,NA,NA,NA,NA,NA,NA,NA,NA,NA,NA,NA
"42","stim/objects/HouseObjects/safetypin2.png",59,3,59,0.9,"stim/51.jpeg",5,1,3,NA,"HouseObjects",2,2,"right","right",0.639999866,1,1,1,1,NA,NA,NA,NA,NA,NA,NA,NA,NA,NA,NA,NA,NA,NA,NA,NA,NA,NA,NA,NA,NA,NA,NA,NA
"165","stim/objects/Instruments/record2.png",60,3,60,0.7,"stim/43.jpeg",4,3,2,NA,"Instruments",1,4,"left","right",0.621999979,0,0,1,1,NA,NA,NA,NA,NA,NA,NA,NA,NA,NA,NA,NA,NA,NA,NA,NA,NA,NA,NA,NA,NA,NA,NA,NA
"151","stim/objects/Instruments/record_player2.png",61,3,61,0.7,"stim/44.jpeg",4,4,2,NA,"Instruments",1,3,"left","",NA,0,0,1,1,NA,NA,NA,NA,NA,NA,NA,NA,NA,NA,NA,NA,NA,NA,NA,NA,NA,NA,NA,NA,NA,NA,NA,NA
"128","stim/objects/Instruments/panflute2.png",62,3,62,0.7,"stim/41.jpeg",4,1,2,NA,"Instruments",1,3,"left","left",0.487999916,1,1,1,1,NA,NA,NA,NA,NA,NA,NA,NA,NA,NA,NA,NA,NA,NA,NA,NA,NA,NA,NA,NA,NA,NA,NA,NA
"105","stim/objects/HouseObjects/thermometer.png",63,3,63,0.7,"stim/33.jpeg",3,3,2,NA,"HouseObjects",2,4,"right","right",0.57799983,1,1,1,1,NA,NA,NA,NA,NA,NA,NA,NA,NA,NA,NA,NA,NA,NA,NA,NA,NA,NA,NA,NA,NA,NA,NA,NA
"158","stim/objects/Instruments/record.png",64,3,64,0.5,"stim/13.jpeg",1,3,1,NA,"Instruments",1,3,"left","right",0.805999756,0,0,1,1,NA,NA,NA,NA,NA,NA,NA,NA,NA,NA,NA,NA,NA,NA,NA,NA,NA,NA,NA,NA,NA,NA,NA,NA
"122","stim/objects/Instruments/panflute.png",65,3,65,0.5,"stim/11.jpeg",1,1,1,NA,"Instruments",1,1,"left","left",0.481999874,1,1,1,1,NA,NA,NA,NA,NA,NA,NA,NA,NA,NA,NA,NA,NA,NA,NA,NA,NA,NA,NA,NA,NA,NA,NA,NA
"198","stim/objects/Instruments/triangle2.png",66,3,66,0.9,"stim/61.jpeg",6,1,3,NA,"Instruments",1,4,"left","left",0.677999735,1,1,1,1,NA,NA,NA,NA,NA,NA,NA,NA,NA,NA,NA,NA,NA,NA,NA,NA,NA,NA,NA,NA,NA,NA,NA,NA
"54","stim/objects/HouseObjects/saw2.png",67,3,67,0.9,"stim/52.jpeg",5,2,3,NA,"HouseObjects",2,4,"right","right",0.712999821,1,1,1,1,NA,NA,NA,NA,NA,NA,NA,NA,NA,NA,NA,NA,NA,NA,NA,NA,NA,NA,NA,NA,NA,NA,NA,NA
"230","stim/objects/Instruments/tuba.png",68,3,68,0.3,"stim/34.jpeg",3,4,2,NA,"Instruments",1,3,"left","right",0.803999901,0,0,1,1,NA,NA,NA,NA,NA,NA,NA,NA,NA,NA,NA,NA,NA,NA,NA,NA,NA,NA,NA,NA,NA,NA,NA,NA
"96","stim/objects/HouseObjects/spraybottle2.png",69,3,69,0.1,"stim/61.jpeg",6,1,3,NA,"HouseObjects",2,2,"right","left",0.659999847,0,0,1,1,NA,NA,NA,NA,NA,NA,NA,NA,NA,NA,NA,NA,NA,NA,NA,NA,NA,NA,NA,NA,NA,NA,NA,NA
"199","stim/objects/Instruments/triangle2.png",70,3,70,0.9,"stim/61.jpeg",6,1,3,NA,"Instruments",1,3,"left","left",0.422999859,1,1,1,1,NA,NA,NA,NA,NA,NA,NA,NA,NA,NA,NA,NA,NA,NA,NA,NA,NA,NA,NA,NA,NA,NA,NA,NA
"106","stim/objects/HouseObjects/thermometer.png",71,3,71,0.7,"stim/33.jpeg",3,3,2,NA,"HouseObjects",2,2,"right","right",0.611999989,1,1,1,1,NA,NA,NA,NA,NA,NA,NA,NA,NA,NA,NA,NA,NA,NA,NA,NA,NA,NA,NA,NA,NA,NA,NA,NA
"221","stim/objects/Instruments/trumpet2.png",72,3,72,0.9,"stim/63.jpeg",6,3,3,NA,"Instruments",1,4,"left","left",0.576999664,1,1,1,1,NA,NA,NA,NA,NA,NA,NA,NA,NA,NA,NA,NA,NA,NA,NA,NA,NA,NA,NA,NA,NA,NA,NA,NA
"55","stim/objects/HouseObjects/saw2.png",73,3,73,0.9,"stim/52.jpeg",5,2,3,NA,"HouseObjects",2,2,"right","right",0.644999743,1,1,1,1,NA,NA,NA,NA,NA,NA,NA,NA,NA,NA,NA,NA,NA,NA,NA,NA,NA,NA,NA,NA,NA,NA,NA,NA
"77","stim/objects/HouseObjects/sponge.png",74,3,74,0.5,"stim/24.jpeg",2,4,1,NA,"HouseObjects",2,2,"right","left",0.679999828,0,0,1,1,NA,NA,NA,NA,NA,NA,NA,NA,NA,NA,NA,NA,NA,NA,NA,NA,NA,NA,NA,NA,NA,NA,NA,NA
"129","stim/objects/Instruments/panflute2.png",75,3,75,0.7,"stim/41.jpeg",4,1,2,NA,"Instruments",1,2,"left","right",0.576999903,0,0,1,1,NA,NA,NA,NA,NA,NA,NA,NA,NA,NA,NA,NA,NA,NA,NA,NA,NA,NA,NA,NA,NA,NA,NA,NA
"222","stim/objects/Instruments/trumpet2.png",76,3,76,0.9,"stim/63.jpeg",6,3,3,NA,"Instruments",1,2,"left","left",0.56799984,1,1,1,1,NA,NA,NA,NA,NA,NA,NA,NA,NA,NA,NA,NA,NA,NA,NA,NA,NA,NA,NA,NA,NA,NA,NA,NA
"81","stim/objects/HouseObjects/sponge2.png",77,3,77,0.9,"stim/54.jpeg",5,4,3,NA,"HouseObjects",2,1,"right","right",0.678999901,1,1,1,1,NA,NA,NA,NA,NA,NA,NA,NA,NA,NA,NA,NA,NA,NA,NA,NA,NA,NA,NA,NA,NA,NA,NA,NA
"234","stim/objects/Instruments/tuba2.png",78,3,78,0.9,"stim/64.jpeg",6,4,3,NA,"Instruments",1,2,"left","left",0.654999971,1,1,1,1,NA,NA,NA,NA,NA,NA,NA,NA,NA,NA,NA,NA,NA,NA,NA,NA,NA,NA,NA,NA,NA,NA,NA,NA
"140","stim/objects/Instruments/pipepiano2.png",79,3,79,0.7,"stim/42.jpeg",4,2,2,NA,"Instruments",1,1,"left","left",0.590999842,1,1,1,1,NA,NA,NA,NA,NA,NA,NA,NA,NA,NA,NA,NA,NA,NA,NA,NA,NA,NA,NA,NA,NA,NA,NA,NA
"62","stim/objects/HouseObjects/scale.png",80,3,80,0.5,"stim/23.jpeg",2,3,1,NA,"HouseObjects",2,4,"right","right",0.860999823,1,1,1,1,NA,NA,NA,NA,NA,NA,NA,NA,NA,NA,NA,NA,NA,NA,NA,NA,NA,NA,NA,NA,NA,NA,NA,NA
"43","stim/objects/HouseObjects/safetypin2.png",81,3,81,0.9,"stim/51.jpeg",5,1,3,NA,"HouseObjects",2,4,"right","right",0.609999895,1,1,1,1,NA,NA,NA,NA,NA,NA,NA,NA,NA,NA,NA,NA,NA,NA,NA,NA,NA,NA,NA,NA,NA,NA,NA,NA
"223","stim/objects/Instruments/trumpet2.png",82,3,82,0.9,"stim/63.jpeg",6,3,3,NA,"Instruments",1,2,"left","left",0.615999699,1,1,1,1,NA,NA,NA,NA,NA,NA,NA,NA,NA,NA,NA,NA,NA,NA,NA,NA,NA,NA,NA,NA,NA,NA,NA,NA
"17","stim/objects/HouseObjects/rubbergloves.png",83,3,83,0.5,"stim/13.jpeg",1,3,1,NA,"HouseObjects",2,2,"right","",NA,0,0,1,1,NA,NA,NA,NA,NA,NA,NA,NA,NA,NA,NA,NA,NA,NA,NA,NA,NA,NA,NA,NA,NA,NA,NA,NA
"82","stim/objects/HouseObjects/sponge2.png",84,3,84,0.9,"stim/54.jpeg",5,4,3,NA,"HouseObjects",2,2,"right","right",0.603999853,1,1,1,1,NA,NA,NA,NA,NA,NA,NA,NA,NA,NA,NA,NA,NA,NA,NA,NA,NA,NA,NA,NA,NA,NA,NA,NA
"107","stim/objects/HouseObjects/thermometer.png",85,3,85,0.7,"stim/33.jpeg",3,3,2,NA,"HouseObjects",2,1,"right","right",0.679999828,1,1,1,1,NA,NA,NA,NA,NA,NA,NA,NA,NA,NA,NA,NA,NA,NA,NA,NA,NA,NA,NA,NA,NA,NA,NA,NA
"170","stim/objects/Instruments/saxophone.png",86,3,86,0.5,"stim/21.jpeg",2,1,1,NA,"Instruments",1,4,"left","left",0.773999691,1,1,1,1,NA,NA,NA,NA,NA,NA,NA,NA,NA,NA,NA,NA,NA,NA,NA,NA,NA,NA,NA,NA,NA,NA,NA,NA
"68","stim/objects/HouseObjects/scale2.png",87,3,87,0.9,"stim/53.jpeg",5,3,3,NA,"HouseObjects",2,1,"right","right",0.523000002,1,1,1,1,NA,NA,NA,NA,NA,NA,NA,NA,NA,NA,NA,NA,NA,NA,NA,NA,NA,NA,NA,NA,NA,NA,NA,NA
"123","stim/objects/Instruments/panflute.png",88,3,88,0.5,"stim/11.jpeg",1,1,1,NA,"Instruments",1,2,"left","right",0.669999838,0,0,1,1,NA,NA,NA,NA,NA,NA,NA,NA,NA,NA,NA,NA,NA,NA,NA,NA,NA,NA,NA,NA,NA,NA,NA,NA
"200","stim/objects/Instruments/triangle2.png",89,3,89,0.9,"stim/61.jpeg",6,1,3,NA,"Instruments",1,2,"left","left",0.622999907,1,1,1,1,NA,NA,NA,NA,NA,NA,NA,NA,NA,NA,NA,NA,NA,NA,NA,NA,NA,NA,NA,NA,NA,NA,NA,NA
"176","stim/objects/Instruments/speaker.png",90,3,90,0.5,"stim/22.jpeg",2,2,1,NA,"Instruments",1,4,"left","right",0.697000027,0,0,1,1,NA,NA,NA,NA,NA,NA,NA,NA,NA,NA,NA,NA,NA,NA,NA,NA,NA,NA,NA,NA,NA,NA,NA,NA
"69","stim/objects/HouseObjects/scale2.png",91,3,91,0.9,"stim/53.jpeg",5,3,3,NA,"HouseObjects",2,2,"right","right",0.614999771,1,1,1,1,NA,NA,NA,NA,NA,NA,NA,NA,NA,NA,NA,NA,NA,NA,NA,NA,NA,NA,NA,NA,NA,NA,NA,NA
"89","stim/objects/HouseObjects/spraybottle.png",92,3,92,0.7,"stim/31.jpeg",3,1,2,NA,"HouseObjects",2,1,"right","right",0.693000078,1,1,1,1,NA,NA,NA,NA,NA,NA,NA,NA,NA,NA,NA,NA,NA,NA,NA,NA,NA,NA,NA,NA,NA,NA,NA,NA
"63","stim/objects/HouseObjects/scale.png",93,3,93,0.5,"stim/23.jpeg",2,3,1,NA,"HouseObjects",2,4,"right","",NA,0,0,1,1,NA,NA,NA,NA,NA,NA,NA,NA,NA,NA,NA,NA,NA,NA,NA,NA,NA,NA,NA,NA,NA,NA,NA,NA
"83","stim/objects/HouseObjects/sponge2.png",94,3,94,0.9,"stim/54.jpeg",5,4,3,NA,"HouseObjects",2,1,"right","left",0.580999851,0,0,1,1,NA,NA,NA,NA,NA,NA,NA,NA,NA,NA,NA,NA,NA,NA,NA,NA,NA,NA,NA,NA,NA,NA,NA,NA
"15","stim/objects/HouseObjects/remote2.png",95,3,95,0.3,"stim/42.jpeg",4,2,2,NA,"HouseObjects",2,2,"right","left",0.624999762,0,0,1,1,NA,NA,NA,NA,NA,NA,NA,NA,NA,NA,NA,NA,NA,NA,NA,NA,NA,NA,NA,NA,NA,NA,NA,NA
"152","stim/objects/Instruments/record_player2.png",96,3,96,0.7,"stim/44.jpeg",4,4,2,NA,"Instruments",1,2,"left","",NA,0,0,1,1,NA,NA,NA,NA,NA,NA,NA,NA,NA,NA,NA,NA,NA,NA,NA,NA,NA,NA,NA,NA,NA,NA,NA,NA
"206","stim/objects/Instruments/trombone.png",97,3,97,0.3,"stim/32.jpeg",3,2,2,NA,"Instruments",1,3,"left","left",0.441999674,1,1,1,1,NA,NA,NA,NA,NA,NA,NA,NA,NA,NA,NA,NA,NA,NA,NA,NA,NA,NA,NA,NA,NA,NA,NA,NA
"231","stim/objects/Instruments/tuba.png",98,3,98,0.3,"stim/34.jpeg",3,4,2,NA,"Instruments",1,3,"left","left",0.52699995,1,1,1,1,NA,NA,NA,NA,NA,NA,NA,NA,NA,NA,NA,NA,NA,NA,NA,NA,NA,NA,NA,NA,NA,NA,NA,NA
"99","stim/objects/HouseObjects/teapot.png",99,3,99,0.7,"stim/32.jpeg",3,2,2,NA,"HouseObjects",2,4,"right","right",0.564999819,1,1,1,1,NA,NA,NA,NA,NA,NA,NA,NA,NA,NA,NA,NA,NA,NA,NA,NA,NA,NA,NA,NA,NA,NA,NA,NA
"44","stim/objects/HouseObjects/safetypin2.png",100,3,100,0.9,"stim/51.jpeg",5,1,3,NA,"HouseObjects",2,3,"right","right",0.616999865,1,1,1,1,NA,NA,NA,NA,NA,NA,NA,NA,NA,NA,NA,NA,NA,NA,NA,NA,NA,NA,NA,NA,NA,NA,NA,NA
"56","stim/objects/HouseObjects/saw2.png",101,3,101,0.9,"stim/52.jpeg",5,2,3,NA,"HouseObjects",2,3,"right","right",0.588999987,1,1,1,1,NA,NA,NA,NA,NA,NA,NA,NA,NA,NA,NA,NA,NA,NA,NA,NA,NA,NA,NA,NA,NA,NA,NA,NA
"153","stim/objects/Instruments/record_player2.png",102,3,102,0.7,"stim/44.jpeg",4,4,2,NA,"Instruments",1,4,"left","left",0.840999842,1,1,1,1,NA,NA,NA,NA,NA,NA,NA,NA,NA,NA,NA,NA,NA,NA,NA,NA,NA,NA,NA,NA,NA,NA,NA,NA
"78","stim/objects/HouseObjects/sponge.png",103,3,103,0.5,"stim/24.jpeg",2,4,1,NA,"HouseObjects",2,2,"right","right",0.657999992,1,1,1,1,NA,NA,NA,NA,NA,NA,NA,NA,NA,NA,NA,NA,NA,NA,NA,NA,NA,NA,NA,NA,NA,NA,NA,NA
"108","stim/objects/HouseObjects/thermometer.png",104,3,104,0.7,"stim/33.jpeg",3,3,2,NA,"HouseObjects",2,1,"right","left",0.631999731,0,0,1,1,NA,NA,NA,NA,NA,NA,NA,NA,NA,NA,NA,NA,NA,NA,NA,NA,NA,NA,NA,NA,NA,NA,NA,NA
"201","stim/objects/Instruments/triangle2.png",105,3,105,0.9,"stim/61.jpeg",6,1,3,NA,"Instruments",1,3,"left","left",0.701999903,1,1,1,1,NA,NA,NA,NA,NA,NA,NA,NA,NA,NA,NA,NA,NA,NA,NA,NA,NA,NA,NA,NA,NA,NA,NA,NA
"34","stim/objects/HouseObjects/safetypin.png",106,3,106,0.5,"stim/21.jpeg",2,1,1,NA,"HouseObjects",2,3,"right","right",0.740999699,1,1,1,1,NA,NA,NA,NA,NA,NA,NA,NA,NA,NA,NA,NA,NA,NA,NA,NA,NA,NA,NA,NA,NA,NA,NA,NA
"18","stim/objects/HouseObjects/rubbergloves.png",107,3,107,0.5,"stim/13.jpeg",1,3,1,NA,"HouseObjects",2,3,"right","right",0.713000059,1,1,1,1,NA,NA,NA,NA,NA,NA,NA,NA,NA,NA,NA,NA,NA,NA,NA,NA,NA,NA,NA,NA,NA,NA,NA,NA
"133","stim/objects/Instruments/pipepiano.png",108,3,108,0.5,"stim/12.jpeg",1,2,1,NA,"Instruments",1,3,"left","left",0.565999746,1,1,1,1,NA,NA,NA,NA,NA,NA,NA,NA,NA,NA,NA,NA,NA,NA,NA,NA,NA,NA,NA,NA,NA,NA,NA,NA
"84","stim/objects/HouseObjects/sponge2.png",109,3,109,0.9,"stim/54.jpeg",5,4,3,NA,"HouseObjects",2,4,"right","right",0.606999874,1,1,1,1,NA,NA,NA,NA,NA,NA,NA,NA,NA,NA,NA,NA,NA,NA,NA,NA,NA,NA,NA,NA,NA,NA,NA,NA
"177","stim/objects/Instruments/speaker.png",110,3,110,0.5,"stim/22.jpeg",2,2,1,NA,"Instruments",1,3,"left","right",0.318999767,0,0,1,1,NA,NA,NA,NA,NA,NA,NA,NA,NA,NA,NA,NA,NA,NA,NA,NA,NA,NA,NA,NA,NA,NA,NA,NA
"171","stim/objects/Instruments/saxophone.png",111,3,111,0.5,"stim/21.jpeg",2,1,1,NA,"Instruments",1,3,"left","left",0.544999838,1,1,1,1,NA,NA,NA,NA,NA,NA,NA,NA,NA,NA,NA,NA,NA,NA,NA,NA,NA,NA,NA,NA,NA,NA,NA,NA
"109","stim/objects/HouseObjects/thermometer.png",112,3,112,0.7,"stim/33.jpeg",3,3,2,NA,"HouseObjects",2,4,"right","right",0.608999968,1,1,1,1,NA,NA,NA,NA,NA,NA,NA,NA,NA,NA,NA,NA,NA,NA,NA,NA,NA,NA,NA,NA,NA,NA,NA,NA
"57","stim/objects/HouseObjects/saw2.png",113,3,113,0.9,"stim/52.jpeg",5,2,3,NA,"HouseObjects",2,3,"right","left",0.690999746,0,0,1,1,NA,NA,NA,NA,NA,NA,NA,NA,NA,NA,NA,NA,NA,NA,NA,NA,NA,NA,NA,NA,NA,NA,NA,NA
"166","stim/objects/Instruments/record2.png",114,3,114,0.7,"stim/43.jpeg",4,3,2,NA,"Instruments",1,3,"left","right",0.673999786,0,0,1,1,NA,NA,NA,NA,NA,NA,NA,NA,NA,NA,NA,NA,NA,NA,NA,NA,NA,NA,NA,NA,NA,NA,NA,NA
"194","stim/objects/Instruments/triangle.png",115,3,115,0.3,"stim/31.jpeg",3,1,2,NA,"Instruments",1,2,"left","right",0.691999912,0,0,1,1,NA,NA,NA,NA,NA,NA,NA,NA,NA,NA,NA,NA,NA,NA,NA,NA,NA,NA,NA,NA,NA,NA,NA,NA
"130","stim/objects/Instruments/panflute2.png",116,3,116,0.7,"stim/41.jpeg",4,1,2,NA,"Instruments",1,2,"left","right",0.550999641,0,0,1,1,NA,NA,NA,NA,NA,NA,NA,NA,NA,NA,NA,NA,NA,NA,NA,NA,NA,NA,NA,NA,NA,NA,NA,NA
"100","stim/objects/HouseObjects/teapot.png",117,3,117,0.7,"stim/32.jpeg",3,2,2,NA,"HouseObjects",2,1,"right","right",0.388999939,1,1,1,1,NA,NA,NA,NA,NA,NA,NA,NA,NA,NA,NA,NA,NA,NA,NA,NA,NA,NA,NA,NA,NA,NA,NA,NA
"35","stim/objects/HouseObjects/safetypin.png",118,3,118,0.5,"stim/21.jpeg",2,1,1,NA,"HouseObjects",2,3,"right","right",0.636999846,1,1,1,1,NA,NA,NA,NA,NA,NA,NA,NA,NA,NA,NA,NA,NA,NA,NA,NA,NA,NA,NA,NA,NA,NA,NA,NA
"85","stim/objects/HouseObjects/sponge2.png",119,3,119,0.9,"stim/54.jpeg",5,4,3,NA,"HouseObjects",2,4,"right","right",0.722999811,1,1,1,1,NA,NA,NA,NA,NA,NA,NA,NA,NA,NA,NA,NA,NA,NA,NA,NA,NA,NA,NA,NA,NA,NA,NA,NA
"11","stim/objects/HouseObjects/remote.png",120,3,120,0.5,"stim/12.jpeg",1,2,1,NA,"HouseObjects",2,2,"right","",NA,0,0,1,1,NA,NA,NA,NA,NA,NA,NA,NA,NA,NA,NA,NA,NA,NA,NA,NA,NA,NA,NA,NA,NA,NA,NA,NA
"235","stim/objects/Instruments/tuba2.png",121,3,121,0.9,"stim/64.jpeg",6,4,3,NA,"Instruments",1,2,"left","left",0.625999689,1,1,1,1,NA,NA,NA,NA,NA,NA,NA,NA,NA,NA,NA,NA,NA,NA,NA,NA,NA,NA,NA,NA,NA,NA,NA,NA
"110","stim/objects/HouseObjects/thermometer.png",122,3,122,0.7,"stim/33.jpeg",3,3,2,NA,"HouseObjects",2,4,"right","left",0.346999884,0,0,1,1,NA,NA,NA,NA,NA,NA,NA,NA,NA,NA,NA,NA,NA,NA,NA,NA,NA,NA,NA,NA,NA,NA,NA,NA
"154","stim/objects/Instruments/record_player2.png",123,3,123,0.7,"stim/44.jpeg",4,4,2,NA,"Instruments",1,1,"left","right",0.353999853,0,0,1,1,NA,NA,NA,NA,NA,NA,NA,NA,NA,NA,NA,NA,NA,NA,NA,NA,NA,NA,NA,NA,NA,NA,NA,NA
"4","stim/objects/HouseObjects/recyclingbin.png",124,3,124,0.5,"stim/11.jpeg",1,1,1,NA,"HouseObjects",2,3,"right","left",0.600999832,0,0,1,1,NA,NA,NA,NA,NA,NA,NA,NA,NA,NA,NA,NA,NA,NA,NA,NA,NA,NA,NA,NA,NA,NA,NA,NA
"104","stim/objects/HouseObjects/teapot2.png",125,3,125,0.1,"stim/62.jpeg",6,2,3,NA,"HouseObjects",2,1,"right","left",0.602999926,0,0,1,1,NA,NA,NA,NA,NA,NA,NA,NA,NA,NA,NA,NA,NA,NA,NA,NA,NA,NA,NA,NA,NA,NA,NA,NA
"202","stim/objects/Instruments/triangle2.png",126,3,126,0.9,"stim/61.jpeg",6,1,3,NA,"Instruments",1,4,"left","left",0.454999924,1,1,1,1,NA,NA,NA,NA,NA,NA,NA,NA,NA,NA,NA,NA,NA,NA,NA,NA,NA,NA,NA,NA,NA,NA,NA,NA
"159","stim/objects/Instruments/record.png",127,3,127,0.5,"stim/13.jpeg",1,3,1,NA,"Instruments",1,1,"left","right",0.640999794,0,0,1,1,NA,NA,NA,NA,NA,NA,NA,NA,NA,NA,NA,NA,NA,NA,NA,NA,NA,NA,NA,NA,NA,NA,NA,NA
"160","stim/objects/Instruments/record.png",128,3,128,0.5,"stim/13.jpeg",1,3,1,NA,"Instruments",1,1,"left","left",0.529999971,1,1,1,1,NA,NA,NA,NA,NA,NA,NA,NA,NA,NA,NA,NA,NA,NA,NA,NA,NA,NA,NA,NA,NA,NA,NA,NA
"181","stim/objects/Instruments/tambourine.png",129,3,129,0.5,"stim/23.jpeg",2,3,1,NA,"Instruments",1,4,"left","",NA,0,0,1,1,NA,NA,NA,NA,NA,NA,NA,NA,NA,NA,NA,NA,NA,NA,NA,NA,NA,NA,NA,NA,NA,NA,NA,NA
"124","stim/objects/Instruments/panflute.png",130,3,130,0.5,"stim/11.jpeg",1,1,1,NA,"Instruments",1,2,"left","left",0.688999891,1,1,1,1,NA,NA,NA,NA,NA,NA,NA,NA,NA,NA,NA,NA,NA,NA,NA,NA,NA,NA,NA,NA,NA,NA,NA,NA
"90","stim/objects/HouseObjects/spraybottle.png",131,3,131,0.7,"stim/31.jpeg",3,1,2,NA,"HouseObjects",2,4,"right","right",0.857999802,1,1,1,1,NA,NA,NA,NA,NA,NA,NA,NA,NA,NA,NA,NA,NA,NA,NA,NA,NA,NA,NA,NA,NA,NA,NA,NA
"114","stim/objects/HouseObjects/thread.png",132,3,132,0.7,"stim/34.jpeg",3,4,2,NA,"HouseObjects",2,3,"right","right",0.65599966,1,1,1,1,NA,NA,NA,NA,NA,NA,NA,NA,NA,NA,NA,NA,NA,NA,NA,NA,NA,NA,NA,NA,NA,NA,NA,NA
"101","stim/objects/HouseObjects/teapot.png",133,3,133,0.7,"stim/32.jpeg",3,2,2,NA,"HouseObjects",2,3,"right","right",0.690000057,1,1,1,1,NA,NA,NA,NA,NA,NA,NA,NA,NA,NA,NA,NA,NA,NA,NA,NA,NA,NA,NA,NA,NA,NA,NA,NA
"218","stim/objects/Instruments/trumpet.png",134,3,134,0.3,"stim/33.jpeg",3,3,2,NA,"Instruments",1,3,"left","right",0.555999994,0,0,1,1,NA,NA,NA,NA,NA,NA,NA,NA,NA,NA,NA,NA,NA,NA,NA,NA,NA,NA,NA,NA,NA,NA,NA,NA
"207","stim/objects/Instruments/trombone.png",135,3,135,0.3,"stim/32.jpeg",3,2,2,NA,"Instruments",1,2,"left","right",0.557999849,0,0,1,1,NA,NA,NA,NA,NA,NA,NA,NA,NA,NA,NA,NA,NA,NA,NA,NA,NA,NA,NA,NA,NA,NA,NA,NA
"131","stim/objects/Instruments/panflute2.png",136,3,136,0.7,"stim/41.jpeg",4,1,2,NA,"Instruments",1,2,"left","left",0.732999802,1,1,1,1,NA,NA,NA,NA,NA,NA,NA,NA,NA,NA,NA,NA,NA,NA,NA,NA,NA,NA,NA,NA,NA,NA,NA,NA
"134","stim/objects/Instruments/pipepiano.png",137,3,137,0.5,"stim/12.jpeg",1,2,1,NA,"Instruments",1,4,"left","left",0.664999962,1,1,1,1,NA,NA,NA,NA,NA,NA,NA,NA,NA,NA,NA,NA,NA,NA,NA,NA,NA,NA,NA,NA,NA,NA,NA,NA
"224","stim/objects/Instruments/trumpet2.png",138,3,138,0.9,"stim/63.jpeg",6,3,3,NA,"Instruments",1,3,"left","left",0.546999931,1,1,1,1,NA,NA,NA,NA,NA,NA,NA,NA,NA,NA,NA,NA,NA,NA,NA,NA,NA,NA,NA,NA,NA,NA,NA,NA
"155","stim/objects/Instruments/record_player2.png",139,3,139,0.7,"stim/44.jpeg",4,4,2,NA,"Instruments",1,1,"left","left",0.72699976,1,1,1,1,NA,NA,NA,NA,NA,NA,NA,NA,NA,NA,NA,NA,NA,NA,NA,NA,NA,NA,NA,NA,NA,NA,NA,NA
"70","stim/objects/HouseObjects/scale2.png",140,3,140,0.9,"stim/53.jpeg",5,3,3,NA,"HouseObjects",2,2,"right","right",0.678999901,1,1,1,1,NA,NA,NA,NA,NA,NA,NA,NA,NA,NA,NA,NA,NA,NA,NA,NA,NA,NA,NA,NA,NA,NA,NA,NA
"115","stim/objects/HouseObjects/thread.png",141,3,141,0.7,"stim/34.jpeg",3,4,2,NA,"HouseObjects",2,4,"right","right",0.734999895,1,1,1,1,NA,NA,NA,NA,NA,NA,NA,NA,NA,NA,NA,NA,NA,NA,NA,NA,NA,NA,NA,NA,NA,NA,NA,NA
"182","stim/objects/Instruments/tambourine.png",142,3,142,0.5,"stim/23.jpeg",2,3,1,NA,"Instruments",1,4,"left","",NA,0,0,1,1,NA,NA,NA,NA,NA,NA,NA,NA,NA,NA,NA,NA,NA,NA,NA,NA,NA,NA,NA,NA,NA,NA,NA,NA
"19","stim/objects/HouseObjects/rubbergloves.png",143,3,143,0.5,"stim/13.jpeg",1,3,1,NA,"HouseObjects",2,4,"right","right",0.89199996,1,1,1,1,NA,NA,NA,NA,NA,NA,NA,NA,NA,NA,NA,NA,NA,NA,NA,NA,NA,NA,NA,NA,NA,NA,NA,NA
"91","stim/objects/HouseObjects/spraybottle.png",144,3,144,0.7,"stim/31.jpeg",3,1,2,NA,"HouseObjects",2,3,"right","right",0.65299964,1,1,1,1,NA,NA,NA,NA,NA,NA,NA,NA,NA,NA,NA,NA,NA,NA,NA,NA,NA,NA,NA,NA,NA,NA,NA,NA
"174","stim/objects/Instruments/saxophone2.png",145,3,145,0.1,"stim/51.jpeg",5,1,3,NA,"Instruments",1,4,"left","right",0.528999805,0,0,1,1,NA,NA,NA,NA,NA,NA,NA,NA,NA,NA,NA,NA,NA,NA,NA,NA,NA,NA,NA,NA,NA,NA,NA,NA
"102","stim/objects/HouseObjects/teapot.png",146,3,146,0.7,"stim/32.jpeg",3,2,2,NA,"HouseObjects",2,1,"right","right",0.661999941,1,1,1,1,NA,NA,NA,NA,NA,NA,NA,NA,NA,NA,NA,NA,NA,NA,NA,NA,NA,NA,NA,NA,NA,NA,NA,NA
"50","stim/objects/HouseObjects/saw.png",147,3,147,0.5,"stim/22.jpeg",2,2,1,NA,"HouseObjects",2,1,"right","left",0.642999887,0,0,1,1,NA,NA,NA,NA,NA,NA,NA,NA,NA,NA,NA,NA,NA,NA,NA,NA,NA,NA,NA,NA,NA,NA,NA,NA
"58","stim/objects/HouseObjects/saw2.png",148,3,148,0.9,"stim/52.jpeg",5,2,3,NA,"HouseObjects",2,3,"right","right",0.819000006,1,1,1,1,NA,NA,NA,NA,NA,NA,NA,NA,NA,NA,NA,NA,NA,NA,NA,NA,NA,NA,NA,NA,NA,NA,NA,NA
"148","stim/objects/Instruments/record_player.png",149,3,149,0.5,"stim/14.jpeg",1,4,1,NA,"Instruments",1,3,"left","left",0.791999817,1,1,1,1,NA,NA,NA,NA,NA,NA,NA,NA,NA,NA,NA,NA,NA,NA,NA,NA,NA,NA,NA,NA,NA,NA,NA,NA
"183","stim/objects/Instruments/tambourine.png",150,3,150,0.5,"stim/23.jpeg",2,3,1,NA,"Instruments",1,1,"left","left",0.847999811,1,1,1,1,NA,NA,NA,NA,NA,NA,NA,NA,NA,NA,NA,NA,NA,NA,NA,NA,NA,NA,NA,NA,NA,NA,NA,NA
"219","stim/objects/Instruments/trumpet.png",151,3,151,0.3,"stim/33.jpeg",3,3,2,NA,"Instruments",1,4,"left","right",0.569999933,0,0,1,1,NA,NA,NA,NA,NA,NA,NA,NA,NA,NA,NA,NA,NA,NA,NA,NA,NA,NA,NA,NA,NA,NA,NA,NA
"210","stim/objects/Instruments/trombone2.png",152,3,152,0.9,"stim/62.jpeg",6,2,3,NA,"Instruments",1,4,"left","left",0.585999966,1,1,1,1,NA,NA,NA,NA,NA,NA,NA,NA,NA,NA,NA,NA,NA,NA,NA,NA,NA,NA,NA,NA,NA,NA,NA,NA
"26","stim/objects/HouseObjects/rug.png",153,3,153,0.5,"stim/14.jpeg",1,4,1,NA,"HouseObjects",2,2,"right","left",0.604999781,0,0,1,1,NA,NA,NA,NA,NA,NA,NA,NA,NA,NA,NA,NA,NA,NA,NA,NA,NA,NA,NA,NA,NA,NA,NA,NA
"23","stim/objects/HouseObjects/rubbergloves2.png",154,3,154,0.3,"stim/43.jpeg",4,3,2,NA,"HouseObjects",2,3,"right","right",0.321999788,1,1,1,1,NA,NA,NA,NA,NA,NA,NA,NA,NA,NA,NA,NA,NA,NA,NA,NA,NA,NA,NA,NA,NA,NA,NA,NA
"92","stim/objects/HouseObjects/spraybottle.png",155,3,155,0.7,"stim/31.jpeg",3,1,2,NA,"HouseObjects",2,2,"right","right",0.559000015,1,1,1,1,NA,NA,NA,NA,NA,NA,NA,NA,NA,NA,NA,NA,NA,NA,NA,NA,NA,NA,NA,NA,NA,NA,NA,NA
"189","stim/objects/Instruments/timbal.png",156,3,156,0.5,"stim/24.jpeg",2,4,1,NA,"Instruments",1,1,"left","left",0.487999916,1,1,1,1,NA,NA,NA,NA,NA,NA,NA,NA,NA,NA,NA,NA,NA,NA,NA,NA,NA,NA,NA,NA,NA,NA,NA,NA
"86","stim/objects/HouseObjects/sponge2.png",157,3,157,0.9,"stim/54.jpeg",5,4,3,NA,"HouseObjects",2,3,"right","right",0.723999977,1,1,1,1,NA,NA,NA,NA,NA,NA,NA,NA,NA,NA,NA,NA,NA,NA,NA,NA,NA,NA,NA,NA,NA,NA,NA,NA
"211","stim/objects/Instruments/trombone2.png",158,3,158,0.9,"stim/62.jpeg",6,2,3,NA,"Instruments",1,1,"left","left",0.786999702,1,1,1,1,NA,NA,NA,NA,NA,NA,NA,NA,NA,NA,NA,NA,NA,NA,NA,NA,NA,NA,NA,NA,NA,NA,NA,NA
"212","stim/objects/Instruments/trombone2.png",159,3,159,0.9,"stim/62.jpeg",6,2,3,NA,"Instruments",1,1,"left","left",0.47699976,1,1,1,1,NA,NA,NA,NA,NA,NA,NA,NA,NA,NA,NA,NA,NA,NA,NA,NA,NA,NA,NA,NA,NA,NA,NA,NA
"116","stim/objects/HouseObjects/thread.png",160,3,160,0.7,"stim/34.jpeg",3,4,2,NA,"HouseObjects",2,4,"right","right",0.780999899,1,1,1,1,NA,NA,NA,NA,NA,NA,NA,NA,NA,NA,NA,NA,NA,NA,NA,NA,NA,NA,NA,NA,NA,NA,NA,NA
"172","stim/objects/Instruments/saxophone.png",161,3,161,0.5,"stim/21.jpeg",2,1,1,NA,"Instruments",1,3,"left","left",0.565999746,1,1,1,1,NA,NA,NA,NA,NA,NA,NA,NA,NA,NA,NA,NA,NA,NA,NA,NA,NA,NA,NA,NA,NA,NA,NA,NA
"203","stim/objects/Instruments/triangle2.png",162,3,162,0.9,"stim/61.jpeg",6,1,3,NA,"Instruments",1,3,"left","left",0.563999653,1,1,1,1,NA,NA,NA,NA,NA,NA,NA,NA,NA,NA,NA,NA,NA,NA,NA,NA,NA,NA,NA,NA,NA,NA,NA,NA
"71","stim/objects/HouseObjects/scale2.png",163,3,163,0.9,"stim/53.jpeg",5,3,3,NA,"HouseObjects",2,1,"right","right",0.661999941,1,1,1,1,NA,NA,NA,NA,NA,NA,NA,NA,NA,NA,NA,NA,NA,NA,NA,NA,NA,NA,NA,NA,NA,NA,NA,NA
"93","stim/objects/HouseObjects/spraybottle.png",164,3,164,0.7,"stim/31.jpeg",3,1,2,NA,"HouseObjects",2,3,"right","left",0.613999844,0,0,1,1,NA,NA,NA,NA,NA,NA,NA,NA,NA,NA,NA,NA,NA,NA,NA,NA,NA,NA,NA,NA,NA,NA,NA,NA
"6","stim/objects/HouseObjects/recyclingbin2.png",165,3,165,0.3,"stim/41.jpeg",4,1,2,NA,"HouseObjects",2,4,"right","right",0.457999706,1,1,1,1,NA,NA,NA,NA,NA,NA,NA,NA,NA,NA,NA,NA,NA,NA,NA,NA,NA,NA,NA,NA,NA,NA,NA,NA
"213","stim/objects/Instruments/trombone2.png",166,3,166,0.9,"stim/62.jpeg",6,2,3,NA,"Instruments",1,1,"left","left",0.554999828,1,1,1,1,NA,NA,NA,NA,NA,NA,NA,NA,NA,NA,NA,NA,NA,NA,NA,NA,NA,NA,NA,NA,NA,NA,NA,NA
"236","stim/objects/Instruments/tuba2.png",167,3,167,0.9,"stim/64.jpeg",6,4,3,NA,"Instruments",1,1,"left","left",0.565999746,1,1,1,1,NA,NA,NA,NA,NA,NA,NA,NA,NA,NA,NA,NA,NA,NA,NA,NA,NA,NA,NA,NA,NA,NA,NA,NA
"117","stim/objects/HouseObjects/thread.png",168,3,168,0.7,"stim/34.jpeg",3,4,2,NA,"HouseObjects",2,3,"right","left",0.651999712,0,0,1,1,NA,NA,NA,NA,NA,NA,NA,NA,NA,NA,NA,NA,NA,NA,NA,NA,NA,NA,NA,NA,NA,NA,NA,NA
"51","stim/objects/HouseObjects/saw.png",169,3,169,0.5,"stim/22.jpeg",2,2,1,NA,"HouseObjects",2,2,"right","right",0.494999886,1,1,1,1,NA,NA,NA,NA,NA,NA,NA,NA,NA,NA,NA,NA,NA,NA,NA,NA,NA,NA,NA,NA,NA,NA,NA,NA
"12","stim/objects/HouseObjects/remote.png",170,3,170,0.5,"stim/12.jpeg",1,2,1,NA,"HouseObjects",2,1,"right","left",0.620999813,0,0,1,1,NA,NA,NA,NA,NA,NA,NA,NA,NA,NA,NA,NA,NA,NA,NA,NA,NA,NA,NA,NA,NA,NA,NA,NA
"178","stim/objects/Instruments/speaker.png",171,3,171,0.5,"stim/22.jpeg",2,2,1,NA,"Instruments",1,1,"left","left",0.653999805,1,1,1,1,NA,NA,NA,NA,NA,NA,NA,NA,NA,NA,NA,NA,NA,NA,NA,NA,NA,NA,NA,NA,NA,NA,NA,NA
"184","stim/objects/Instruments/tambourine.png",172,3,172,0.5,"stim/23.jpeg",2,3,1,NA,"Instruments",1,3,"left","left",0.60199976,1,1,1,1,NA,NA,NA,NA,NA,NA,NA,NA,NA,NA,NA,NA,NA,NA,NA,NA,NA,NA,NA,NA,NA,NA,NA,NA
"135","stim/objects/Instruments/pipepiano.png",173,3,173,0.5,"stim/12.jpeg",1,2,1,NA,"Instruments",1,2,"left","right",0.657999992,0,0,1,1,NA,NA,NA,NA,NA,NA,NA,NA,NA,NA,NA,NA,NA,NA,NA,NA,NA,NA,NA,NA,NA,NA,NA,NA
"167","stim/objects/Instruments/record2.png",174,3,174,0.7,"stim/43.jpeg",4,3,2,NA,"Instruments",1,3,"left","left",0.669999838,1,1,1,1,NA,NA,NA,NA,NA,NA,NA,NA,NA,NA,NA,NA,NA,NA,NA,NA,NA,NA,NA,NA,NA,NA,NA,NA
"161","stim/objects/Instruments/record.png",175,3,175,0.5,"stim/13.jpeg",1,3,1,NA,"Instruments",1,3,"left","left",0.874999762,1,1,1,1,NA,NA,NA,NA,NA,NA,NA,NA,NA,NA,NA,NA,NA,NA,NA,NA,NA,NA,NA,NA,NA,NA,NA,NA
"132","stim/objects/Instruments/panflute2.png",176,3,176,0.7,"stim/41.jpeg",4,1,2,NA,"Instruments",1,1,"left","left",0.880999804,1,1,1,1,NA,NA,NA,NA,NA,NA,NA,NA,NA,NA,NA,NA,NA,NA,NA,NA,NA,NA,NA,NA,NA,NA,NA,NA
"125","stim/objects/Instruments/panflute.png",177,3,177,0.5,"stim/11.jpeg",1,1,1,NA,"Instruments",1,1,"left","right",0.726999998,0,0,1,1,NA,NA,NA,NA,NA,NA,NA,NA,NA,NA,NA,NA,NA,NA,NA,NA,NA,NA,NA,NA,NA,NA,NA,NA
"190","stim/objects/Instruments/timbal.png",178,3,178,0.5,"stim/24.jpeg",2,4,1,NA,"Instruments",1,2,"left","left",0.582999945,1,1,1,1,NA,NA,NA,NA,NA,NA,NA,NA,NA,NA,NA,NA,NA,NA,NA,NA,NA,NA,NA,NA,NA,NA,NA,NA
"27","stim/objects/HouseObjects/rug.png",179,3,179,0.5,"stim/14.jpeg",1,4,1,NA,"HouseObjects",2,4,"right","left",0.688999891,0,0,1,1,NA,NA,NA,NA,NA,NA,NA,NA,NA,NA,NA,NA,NA,NA,NA,NA,NA,NA,NA,NA,NA,NA,NA,NA
"237","stim/objects/Instruments/tuba2.png",180,3,180,0.9,"stim/64.jpeg",6,4,3,NA,"Instruments",1,2,"left","left",0.618000031,1,1,1,1,NA,NA,NA,NA,NA,NA,NA,NA,NA,NA,NA,NA,NA,NA,NA,NA,NA,NA,NA,NA,NA,NA,NA,NA
"45","stim/objects/HouseObjects/safetypin2.png",181,3,181,0.9,"stim/51.jpeg",5,1,3,NA,"HouseObjects",2,3,"right","",NA,0,0,1,1,NA,NA,NA,NA,NA,NA,NA,NA,NA,NA,NA,NA,NA,NA,NA,NA,NA,NA,NA,NA,NA,NA,NA,NA
"120","stim/objects/HouseObjects/thread2.png",182,3,182,0.1,"stim/64.jpeg",6,4,3,NA,"HouseObjects",2,4,"right","left",0.536999941,0,0,1,1,NA,NA,NA,NA,NA,NA,NA,NA,NA,NA,NA,NA,NA,NA,NA,NA,NA,NA,NA,NA,NA,NA,NA,NA
"214","stim/objects/Instruments/trombone2.png",183,3,183,0.9,"stim/62.jpeg",6,2,3,NA,"Instruments",1,4,"left","left",0.564999819,1,1,1,1,NA,NA,NA,NA,NA,NA,NA,NA,NA,NA,NA,NA,NA,NA,NA,NA,NA,NA,NA,NA,NA,NA,NA,NA
"185","stim/objects/Instruments/tambourine.png",184,3,184,0.5,"stim/23.jpeg",2,3,1,NA,"Instruments",1,4,"left","left",0.593999863,1,1,1,1,NA,NA,NA,NA,NA,NA,NA,NA,NA,NA,NA,NA,NA,NA,NA,NA,NA,NA,NA,NA,NA,NA,NA,NA
"141","stim/objects/Instruments/pipepiano2.png",185,3,185,0.7,"stim/42.jpeg",4,2,2,NA,"Instruments",1,3,"left","left",0.629999876,1,1,1,1,NA,NA,NA,NA,NA,NA,NA,NA,NA,NA,NA,NA,NA,NA,NA,NA,NA,NA,NA,NA,NA,NA,NA,NA
"195","stim/objects/Instruments/triangle.png",186,3,186,0.3,"stim/31.jpeg",3,1,2,NA,"Instruments",1,2,"left","right",0.597999811,0,0,1,1,NA,NA,NA,NA,NA,NA,NA,NA,NA,NA,NA,NA,NA,NA,NA,NA,NA,NA,NA,NA,NA,NA,NA,NA
"156","stim/objects/Instruments/record_player2.png",187,3,187,0.7,"stim/44.jpeg",4,4,2,NA,"Instruments",1,1,"left","left",0.40199995,1,1,1,1,NA,NA,NA,NA,NA,NA,NA,NA,NA,NA,NA,NA,NA,NA,NA,NA,NA,NA,NA,NA,NA,NA,NA,NA
"59","stim/objects/HouseObjects/saw2.png",188,3,188,0.9,"stim/52.jpeg",5,2,3,NA,"HouseObjects",2,4,"right","left",0.533999681,0,0,1,1,NA,NA,NA,NA,NA,NA,NA,NA,NA,NA,NA,NA,NA,NA,NA,NA,NA,NA,NA,NA,NA,NA,NA,NA
"87","stim/objects/HouseObjects/sponge2.png",189,3,189,0.9,"stim/54.jpeg",5,4,3,NA,"HouseObjects",2,2,"right","right",0.477999926,1,1,1,1,NA,NA,NA,NA,NA,NA,NA,NA,NA,NA,NA,NA,NA,NA,NA,NA,NA,NA,NA,NA,NA,NA,NA,NA
"103","stim/objects/HouseObjects/teapot.png",190,3,190,0.7,"stim/32.jpeg",3,2,2,NA,"HouseObjects",2,1,"right","right",0.763999701,1,1,1,1,NA,NA,NA,NA,NA,NA,NA,NA,NA,NA,NA,NA,NA,NA,NA,NA,NA,NA,NA,NA,NA,NA,NA,NA
"16","stim/objects/HouseObjects/remote2.png",191,3,191,0.3,"stim/42.jpeg",4,2,2,NA,"HouseObjects",2,3,"right","left",0.591999769,0,0,1,1,NA,NA,NA,NA,NA,NA,NA,NA,NA,NA,NA,NA,NA,NA,NA,NA,NA,NA,NA,NA,NA,NA,NA,NA
"36","stim/objects/HouseObjects/safetypin.png",192,3,192,0.5,"stim/21.jpeg",2,1,1,NA,"HouseObjects",2,4,"right","left",0.68599987,0,0,1,1,NA,NA,NA,NA,NA,NA,NA,NA,NA,NA,NA,NA,NA,NA,NA,NA,NA,NA,NA,NA,NA,NA,NA,NA
"142","stim/objects/Instruments/pipepiano2.png",193,3,193,0.7,"stim/42.jpeg",4,2,2,NA,"Instruments",1,1,"left","left",0.573999882,1,1,1,1,NA,NA,NA,NA,NA,NA,NA,NA,NA,NA,NA,NA,NA,NA,NA,NA,NA,NA,NA,NA,NA,NA,NA,NA
"204","stim/objects/Instruments/triangle2.png",194,3,194,0.9,"stim/61.jpeg",6,1,3,NA,"Instruments",1,4,"left","left",0.618000031,1,1,1,1,NA,NA,NA,NA,NA,NA,NA,NA,NA,NA,NA,NA,NA,NA,NA,NA,NA,NA,NA,NA,NA,NA,NA,NA
"31","stim/objects/HouseObjects/rug2.png",195,3,195,0.3,"stim/44.jpeg",4,4,2,NA,"HouseObjects",2,4,"right","right",0.762999773,1,1,1,1,NA,NA,NA,NA,NA,NA,NA,NA,NA,NA,NA,NA,NA,NA,NA,NA,NA,NA,NA,NA,NA,NA,NA,NA
"173","stim/objects/Instruments/saxophone.png",196,3,196,0.5,"stim/21.jpeg",2,1,1,NA,"Instruments",1,2,"left","left",0.650999784,1,1,1,1,NA,NA,NA,NA,NA,NA,NA,NA,NA,NA,NA,NA,NA,NA,NA,NA,NA,NA,NA,NA,NA,NA,NA,NA
"64","stim/objects/HouseObjects/scale.png",197,3,197,0.5,"stim/23.jpeg",2,3,1,NA,"HouseObjects",2,2,"right","left",0.55099988,0,0,1,1,NA,NA,NA,NA,NA,NA,NA,NA,NA,NA,NA,NA,NA,NA,NA,NA,NA,NA,NA,NA,NA,NA,NA,NA
"225","stim/objects/Instruments/trumpet2.png",198,3,198,0.9,"stim/63.jpeg",6,3,3,NA,"Instruments",1,3,"left","left",0.615999937,1,1,1,1,NA,NA,NA,NA,NA,NA,NA,NA,NA,NA,NA,NA,NA,NA,NA,NA,NA,NA,NA,NA,NA,NA,NA,NA
"143","stim/objects/Instruments/pipepiano2.png",199,3,199,0.7,"stim/42.jpeg",4,2,2,NA,"Instruments",1,2,"left","left",0.539999962,1,1,1,1,NA,NA,NA,NA,NA,NA,NA,NA,NA,NA,NA,NA,NA,NA,NA,NA,NA,NA,NA,NA,NA,NA,NA,NA
"72","stim/objects/HouseObjects/scale2.png",200,3,200,0.9,"stim/53.jpeg",5,3,3,NA,"HouseObjects",2,2,"right","left",0.383999825,0,0,1,1,NA,NA,NA,NA,NA,NA,NA,NA,NA,NA,NA,NA,NA,NA,NA,NA,NA,NA,NA,NA,NA,NA,NA,NA
"136","stim/objects/Instruments/pipepiano.png",201,3,201,0.5,"stim/12.jpeg",1,2,1,NA,"Instruments",1,1,"left","right",0.661000013,0,0,1,1,NA,NA,NA,NA,NA,NA,NA,NA,NA,NA,NA,NA,NA,NA,NA,NA,NA,NA,NA,NA,NA,NA,NA,NA
"20","stim/objects/HouseObjects/rubbergloves.png",202,3,202,0.5,"stim/13.jpeg",1,3,1,NA,"HouseObjects",2,3,"right","right",0.690999746,1,1,1,1,NA,NA,NA,NA,NA,NA,NA,NA,NA,NA,NA,NA,NA,NA,NA,NA,NA,NA,NA,NA,NA,NA,NA,NA
"13","stim/objects/HouseObjects/remote.png",203,3,203,0.5,"stim/12.jpeg",1,2,1,NA,"HouseObjects",2,2,"right","right",0.71999979,1,1,1,1,NA,NA,NA,NA,NA,NA,NA,NA,NA,NA,NA,NA,NA,NA,NA,NA,NA,NA,NA,NA,NA,NA,NA,NA
"215","stim/objects/Instruments/trombone2.png",204,3,204,0.9,"stim/62.jpeg",6,2,3,NA,"Instruments",1,1,"left","left",0.538999796,1,1,1,1,NA,NA,NA,NA,NA,NA,NA,NA,NA,NA,NA,NA,NA,NA,NA,NA,NA,NA,NA,NA,NA,NA,NA,NA
"79","stim/objects/HouseObjects/sponge.png",205,3,205,0.5,"stim/24.jpeg",2,4,1,NA,"HouseObjects",2,1,"right","left",0.694999933,0,0,1,1,NA,NA,NA,NA,NA,NA,NA,NA,NA,NA,NA,NA,NA,NA,NA,NA,NA,NA,NA,NA,NA,NA,NA,NA
"192","stim/objects/Instruments/timbal2.png",206,3,206,0.1,"stim/54.jpeg",5,4,3,NA,"Instruments",1,1,"left","right",0.69299984,0,0,1,1,NA,NA,NA,NA,NA,NA,NA,NA,NA,NA,NA,NA,NA,NA,NA,NA,NA,NA,NA,NA,NA,NA,NA,NA
"238","stim/objects/Instruments/tuba2.png",207,3,207,0.9,"stim/64.jpeg",6,4,3,NA,"Instruments",1,4,"left","right",0.537999868,0,0,1,1,NA,NA,NA,NA,NA,NA,NA,NA,NA,NA,NA,NA,NA,NA,NA,NA,NA,NA,NA,NA,NA,NA,NA,NA
"168","stim/objects/Instruments/record2.png",208,3,208,0.7,"stim/43.jpeg",4,3,2,NA,"Instruments",1,2,"left","right",0.720999956,0,0,1,1,NA,NA,NA,NA,NA,NA,NA,NA,NA,NA,NA,NA,NA,NA,NA,NA,NA,NA,NA,NA,NA,NA,NA,NA
"7","stim/objects/HouseObjects/recyclingbin2.png",209,3,209,0.3,"stim/41.jpeg",4,1,2,NA,"HouseObjects",2,3,"right","",NA,0,0,1,1,NA,NA,NA,NA,NA,NA,NA,NA,NA,NA,NA,NA,NA,NA,NA,NA,NA,NA,NA,NA,NA,NA,NA,NA
"24","stim/objects/HouseObjects/rubbergloves2.png",210,3,210,0.3,"stim/43.jpeg",4,3,2,NA,"HouseObjects",2,4,"right","right",0.666999817,1,1,1,1,NA,NA,NA,NA,NA,NA,NA,NA,NA,NA,NA,NA,NA,NA,NA,NA,NA,NA,NA,NA,NA,NA,NA,NA
"8","stim/objects/HouseObjects/recyclingbin2.png",211,3,211,0.3,"stim/41.jpeg",4,1,2,NA,"HouseObjects",2,4,"right","right",0.592999935,1,1,1,1,NA,NA,NA,NA,NA,NA,NA,NA,NA,NA,NA,NA,NA,NA,NA,NA,NA,NA,NA,NA,NA,NA,NA,NA
"186","stim/objects/Instruments/tambourine2.png",212,3,212,0.1,"stim/53.jpeg",5,3,3,NA,"Instruments",1,4,"left","right",0.786999941,0,0,1,1,NA,NA,NA,NA,NA,NA,NA,NA,NA,NA,NA,NA,NA,NA,NA,NA,NA,NA,NA,NA,NA,NA,NA,NA
"226","stim/objects/Instruments/trumpet2.png",213,3,213,0.9,"stim/63.jpeg",6,3,3,NA,"Instruments",1,1,"left","left",0.546999693,1,1,1,1,NA,NA,NA,NA,NA,NA,NA,NA,NA,NA,NA,NA,NA,NA,NA,NA,NA,NA,NA,NA,NA,NA,NA,NA
"37","stim/objects/HouseObjects/safetypin.png",214,3,214,0.5,"stim/21.jpeg",2,1,1,NA,"HouseObjects",2,3,"right","",NA,0,0,1,1,NA,NA,NA,NA,NA,NA,NA,NA,NA,NA,NA,NA,NA,NA,NA,NA,NA,NA,NA,NA,NA,NA,NA,NA
"111","stim/objects/HouseObjects/thermometer.png",215,3,215,0.7,"stim/33.jpeg",3,3,2,NA,"HouseObjects",2,2,"right","right",0.554999828,1,1,1,1,NA,NA,NA,NA,NA,NA,NA,NA,NA,NA,NA,NA,NA,NA,NA,NA,NA,NA,NA,NA,NA,NA,NA,NA
"94","stim/objects/HouseObjects/spraybottle.png",216,3,216,0.7,"stim/31.jpeg",3,1,2,NA,"HouseObjects",2,2,"right","right",0.523999929,1,1,1,1,NA,NA,NA,NA,NA,NA,NA,NA,NA,NA,NA,NA,NA,NA,NA,NA,NA,NA,NA,NA,NA,NA,NA,NA
"239","stim/objects/Instruments/tuba2.png",217,3,217,0.9,"stim/64.jpeg",6,4,3,NA,"Instruments",1,3,"left","left",0.574999809,1,1,1,1,NA,NA,NA,NA,NA,NA,NA,NA,NA,NA,NA,NA,NA,NA,NA,NA,NA,NA,NA,NA,NA,NA,NA,NA
"227","stim/objects/Instruments/trumpet2.png",218,3,218,0.9,"stim/63.jpeg",6,3,3,NA,"Instruments",1,3,"left","left",0.591999769,1,1,1,1,NA,NA,NA,NA,NA,NA,NA,NA,NA,NA,NA,NA,NA,NA,NA,NA,NA,NA,NA,NA,NA,NA,NA,NA
"21","stim/objects/HouseObjects/rubbergloves.png",219,3,219,0.5,"stim/13.jpeg",1,3,1,NA,"HouseObjects",2,1,"right","right",0.59499979,1,1,1,1,NA,NA,NA,NA,NA,NA,NA,NA,NA,NA,NA,NA,NA,NA,NA,NA,NA,NA,NA,NA,NA,NA,NA,NA
"46","stim/objects/HouseObjects/safetypin2.png",220,3,220,0.9,"stim/51.jpeg",5,1,3,NA,"HouseObjects",2,4,"right","right",0.561999798,1,1,1,1,NA,NA,NA,NA,NA,NA,NA,NA,NA,NA,NA,NA,NA,NA,NA,NA,NA,NA,NA,NA,NA,NA,NA,NA
"144","stim/objects/Instruments/pipepiano2.png",221,3,221,0.7,"stim/42.jpeg",4,2,2,NA,"Instruments",1,3,"left","left",0.645999908,1,1,1,1,NA,NA,NA,NA,NA,NA,NA,NA,NA,NA,NA,NA,NA,NA,NA,NA,NA,NA,NA,NA,NA,NA,NA,NA
"216","stim/objects/Instruments/trombone2.png",222,3,222,0.9,"stim/62.jpeg",6,2,3,NA,"Instruments",1,4,"left","left",0.55099988,1,1,1,1,NA,NA,NA,NA,NA,NA,NA,NA,NA,NA,NA,NA,NA,NA,NA,NA,NA,NA,NA,NA,NA,NA,NA,NA
"240","stim/objects/Instruments/tuba2.png",223,3,223,0.9,"stim/64.jpeg",6,4,3,NA,"Instruments",1,3,"left","left",0.432999849,1,1,1,1,NA,NA,NA,NA,NA,NA,NA,NA,NA,NA,NA,NA,NA,NA,NA,NA,NA,NA,NA,NA,NA,NA,NA,NA
"118","stim/objects/HouseObjects/thread.png",224,3,224,0.7,"stim/34.jpeg",3,4,2,NA,"HouseObjects",2,4,"right","right",0.670999765,1,1,1,1,NA,NA,NA,NA,NA,NA,NA,NA,NA,NA,NA,NA,NA,NA,NA,NA,NA,NA,NA,NA,NA,NA,NA,NA
"137","stim/objects/Instruments/pipepiano.png",225,3,225,0.5,"stim/12.jpeg",1,2,1,NA,"Instruments",1,4,"left","right",0.604999781,0,0,1,1,NA,NA,NA,NA,NA,NA,NA,NA,NA,NA,NA,NA,NA,NA,NA,NA,NA,NA,NA,NA,NA,NA,NA,NA
"88","stim/objects/HouseObjects/sponge2.png",226,3,226,0.9,"stim/54.jpeg",5,4,3,NA,"HouseObjects",2,3,"right","right",0.623999834,1,1,1,1,NA,NA,NA,NA,NA,NA,NA,NA,NA,NA,NA,NA,NA,NA,NA,NA,NA,NA,NA,NA,NA,NA,NA,NA
"28","stim/objects/HouseObjects/rug.png",227,3,227,0.5,"stim/14.jpeg",1,4,1,NA,"HouseObjects",2,1,"right","right",0.815999746,1,1,1,1,NA,NA,NA,NA,NA,NA,NA,NA,NA,NA,NA,NA,NA,NA,NA,NA,NA,NA,NA,NA,NA,NA,NA,NA
"73","stim/objects/HouseObjects/scale2.png",228,3,228,0.9,"stim/53.jpeg",5,3,3,NA,"HouseObjects",2,3,"right","right",0.687999964,1,1,1,1,NA,NA,NA,NA,NA,NA,NA,NA,NA,NA,NA,NA,NA,NA,NA,NA,NA,NA,NA,NA,NA,NA,NA,NA
"95","stim/objects/HouseObjects/spraybottle.png",229,3,229,0.7,"stim/31.jpeg",3,1,2,NA,"HouseObjects",2,4,"right","right",0.493000031,1,1,1,1,NA,NA,NA,NA,NA,NA,NA,NA,NA,NA,NA,NA,NA,NA,NA,NA,NA,NA,NA,NA,NA,NA,NA,NA
"191","stim/objects/Instruments/timbal.png",230,3,230,0.5,"stim/24.jpeg",2,4,1,NA,"Instruments",1,3,"left","right",0.629999876,0,0,1,1,NA,NA,NA,NA,NA,NA,NA,NA,NA,NA,NA,NA,NA,NA,NA,NA,NA,NA,NA,NA,NA,NA,NA,NA
"60","stim/objects/HouseObjects/saw2.png",231,3,231,0.9,"stim/52.jpeg",5,2,3,NA,"HouseObjects",2,2,"right","right",0.616999865,1,1,1,1,NA,NA,NA,NA,NA,NA,NA,NA,NA,NA,NA,NA,NA,NA,NA,NA,NA,NA,NA,NA,NA,NA,NA,NA
"29","stim/objects/HouseObjects/rug.png",232,3,232,0.5,"stim/14.jpeg",1,4,1,NA,"HouseObjects",2,1,"right","right",0.528999805,1,1,1,1,NA,NA,NA,NA,NA,NA,NA,NA,NA,NA,NA,NA,NA,NA,NA,NA,NA,NA,NA,NA,NA,NA,NA,NA
"179","stim/objects/Instruments/speaker.png",233,3,233,0.5,"stim/22.jpeg",2,2,1,NA,"Instruments",1,4,"left","left",0.81799984,1,1,1,1,NA,NA,NA,NA,NA,NA,NA,NA,NA,NA,NA,NA,NA,NA,NA,NA,NA,NA,NA,NA,NA,NA,NA,NA
"228","stim/objects/Instruments/trumpet2.png",234,3,234,0.9,"stim/63.jpeg",6,3,3,NA,"Instruments",1,4,"left","left",0.60800004,1,1,1,1,NA,NA,NA,NA,NA,NA,NA,NA,NA,NA,NA,NA,NA,NA,NA,NA,NA,NA,NA,NA,NA,NA,NA,NA
"32","stim/objects/HouseObjects/rug2.png",235,3,235,0.3,"stim/44.jpeg",4,4,2,NA,"HouseObjects",2,2,"right","left",0.509999752,0,0,1,1,NA,NA,NA,NA,NA,NA,NA,NA,NA,NA,NA,NA,NA,NA,NA,NA,NA,NA,NA,NA,NA,NA,NA,NA
"65","stim/objects/HouseObjects/scale.png",236,3,236,0.5,"stim/23.jpeg",2,3,1,NA,"HouseObjects",2,3,"right","left",0.654999971,0,0,1,1,NA,NA,NA,NA,NA,NA,NA,NA,NA,NA,NA,NA,NA,NA,NA,NA,NA,NA,NA,NA,NA,NA,NA,NA
"119","stim/objects/HouseObjects/thread.png",237,3,237,0.7,"stim/34.jpeg",3,4,2,NA,"HouseObjects",2,2,"right","right",0.630999804,1,1,1,1,NA,NA,NA,NA,NA,NA,NA,NA,NA,NA,NA,NA,NA,NA,NA,NA,NA,NA,NA,NA,NA,NA,NA,NA
"149","stim/objects/Instruments/record_player.png",238,3,238,0.5,"stim/14.jpeg",1,4,1,NA,"Instruments",1,4,"left","right",0.720999956,0,0,1,1,NA,NA,NA,NA,NA,NA,NA,NA,NA,NA,NA,NA,NA,NA,NA,NA,NA,NA,NA,NA,NA,NA,NA,NA
"74","stim/objects/HouseObjects/scale2.png",239,3,239,0.9,"stim/53.jpeg",5,3,3,NA,"HouseObjects",2,1,"right","right",0.552999735,1,1,1,1,NA,NA,NA,NA,NA,NA,NA,NA,NA,NA,NA,NA,NA,NA,NA,NA,NA,NA,NA,NA,NA,NA,NA,NA
"5","stim/objects/HouseObjects/recyclingbin.png",240,3,240,0.5,"stim/11.jpeg",1,1,1,NA,"HouseObjects",2,2,"right","right",0.579999924,1,1,1,1,NA,NA,NA,NA,NA,NA,NA,NA,NA,NA,NA,NA,NA,NA,NA,NA,NA,NA,NA,NA,NA,NA,NA,NA
"452","stim/objects/Instruments/electricguitar3.png",248,3,241,0.7,"stim/41.jpeg",4,1,2,2,"Instruments",1,2,"left","right",0.625999689,0,0,1,0,NA,NA,NA,NA,NA,NA,NA,NA,NA,NA,NA,NA,NA,NA,NA,NA,NA,NA,NA,NA,NA,NA,NA,NA
"243","stim/objects/HouseObjects/ashtray4.png",249,3,242,0.7,"stim/33.jpeg",3,3,2,1,"HouseObjects",2,1,"right","right",0.736999989,1,1,1,0,38,3,1,0.7,2,"stim/33.jpeg",3,3,"stim/33.jpeg",1,"left",0.878000021,3,4,1.294999838,3,1.748999834,38,1,0,0,0,0,1
"421","stim/objects/Instruments/bassguitar3.png",250,3,243,0.5,"stim/24.jpeg",2,4,1,2,"Instruments",1,2,"left","left",0.715999842,1,1,1,0,NA,NA,NA,NA,NA,NA,NA,NA,NA,NA,NA,NA,NA,NA,NA,NA,NA,NA,NA,NA,NA,NA,NA,NA
"411","stim/objects/Instruments/acousticguitar4.png",251,3,244,0.3,"stim/33.jpeg",3,3,2,1,"Instruments",1,3,"left","right",0.61500001,0,0,1,0,100,3,1,0.3,1,"stim/33.jpeg",3,3,"stim/33.jpeg",3,"left",0.812999964,3,2,0.99399972,2,0.93599987,100,1,0,0,0,0,1
"429","stim/objects/Instruments/chime4.png",252,3,245,0.7,"stim/42.jpeg",4,2,2,1,"Instruments",1,4,"left","left",0.618999958,1,1,1,0,113,3,1,0.7,1,"stim/42.jpeg",4,2,"stim/42.jpeg",4,"left",0.761999846,3,4,0.926999807,3,1.747999668,113,1,0,0,0,0,1
"283","stim/objects/HouseObjects/cushion3.png",253,3,246,0.7,"stim/33.jpeg",3,3,2,2,"HouseObjects",2,1,"right","",NA,0,0,1,0,NA,NA,NA,NA,NA,NA,NA,NA,NA,NA,NA,NA,NA,NA,NA,NA,NA,NA,NA,NA,NA,NA,NA,NA
"541","stim/objects/Instruments/guitarcase3.png",254,3,247,0.5,"stim/13.jpeg",1,3,1,1,"Instruments",1,1,"left","left",0.646999836,1,1,1,0,61,3,1,0.5,1,"stim/13.jpeg",1,3,"stim/13.jpeg",1,"left",0.91899991,3,4,4.949999809,4,1.128000021,61,1,0,0,0,0,1
"524","stim/objects/Instruments/grandpiano3.png",255,3,248,0.9,"stim/63.jpeg",6,3,3,2,"Instruments",1,3,"left","left",0.549999714,1,1,1,0,NA,NA,NA,NA,NA,NA,NA,NA,NA,NA,NA,NA,NA,NA,NA,NA,NA,NA,NA,NA,NA,NA,NA,NA
"308","stim/objects/HouseObjects/dustpan3.png",256,3,249,0.9,"stim/52.jpeg",5,2,3,2,"HouseObjects",2,3,"right","right",0.661999702,1,1,1,0,NA,NA,NA,NA,NA,NA,NA,NA,NA,NA,NA,NA,NA,NA,NA,NA,NA,NA,NA,NA,NA,NA,NA,NA
"543","stim/objects/Instruments/harmonica3.png",257,3,250,0.5,"stim/14.jpeg",1,4,1,1,"Instruments",1,3,"left","left",0.508999825,1,1,1,0,14,3,1,0.5,1,"stim/14.jpeg",1,4,"stim/14.jpeg",3,"left",0.876999855,4,1,4.097999811,3,1.270999908,14,1,0,0,1,1,1
"359","stim/objects/HouseObjects/glass3.png",258,3,251,0.9,"stim/51.jpeg",5,1,3,2,"HouseObjects",2,1,"right","right",0.565999746,1,1,1,0,NA,NA,NA,NA,NA,NA,NA,NA,NA,NA,NA,NA,NA,NA,NA,NA,NA,NA,NA,NA,NA,NA,NA,NA
"427","stim/objects/Instruments/chime3.png",259,3,252,0.5,"stim/21.jpeg",2,1,1,2,"Instruments",1,2,"left","left",0.671000004,1,1,1,0,NA,NA,NA,NA,NA,NA,NA,NA,NA,NA,NA,NA,NA,NA,NA,NA,NA,NA,NA,NA,NA,NA,NA,NA
"473","stim/objects/Instruments/flutetrans3.png",260,3,253,0.9,"stim/61.jpeg",6,1,3,2,"Instruments",1,1,"left","left",0.597999811,1,1,1,0,NA,NA,NA,NA,NA,NA,NA,NA,NA,NA,NA,NA,NA,NA,NA,NA,NA,NA,NA,NA,NA,NA,NA,NA
"455","stim/objects/Instruments/electricguitar4.png",261,3,254,0.7,"stim/41.jpeg",4,1,2,1,"Instruments",1,3,"left","left",0.701999903,1,1,1,0,166,3,1,0.7,1,"stim/41.jpeg",4,1,"stim/41.jpeg",3,"left",0.816999912,4,3,0.812999725,4,1.254999876,166,1,0,0,0,0,1
"394","stim/objects/HouseObjects/match3.png",262,3,255,0.5,"stim/24.jpeg",2,4,1,1,"HouseObjects",2,3,"right","",NA,0,0,1,0,54,3,1,0.5,2,"stim/24.jpeg",2,4,"stim/24.jpeg",3,"right",2.204999924,2,1,2.541999817,1,1.040999889,54,0,0,NA,0,NA,1
"525","stim/objects/Instruments/grandpiano3.png",263,3,256,0.9,"stim/64.jpeg",6,4,3,2,"Instruments",1,1,"left","left",0.559999943,1,1,1,0,NA,NA,NA,NA,NA,NA,NA,NA,NA,NA,NA,NA,NA,NA,NA,NA,NA,NA,NA,NA,NA,NA,NA,NA
"400","stim/objects/HouseObjects/towel3.png",264,3,257,0.7,"stim/34.jpeg",3,4,2,1,"HouseObjects",2,2,"right","right",0.537999868,1,1,1,0,58,3,1,0.7,2,"stim/34.jpeg",3,4,"stim/34.jpeg",2,"left",5.889999866,4,3,2.370999813,4,1.781999826,58,1,0,0,0,0,1
"444","stim/objects/Instruments/drums3.png",265,3,258,0.7,"stim/44.jpeg",4,4,2,2,"Instruments",1,4,"left","left",0.55099988,1,1,1,0,NA,NA,NA,NA,NA,NA,NA,NA,NA,NA,NA,NA,NA,NA,NA,NA,NA,NA,NA,NA,NA,NA,NA,NA
"342","stim/objects/HouseObjects/garbagebin3.png",266,3,259,0.9,"stim/53.jpeg",5,3,3,2,"HouseObjects",2,3,"right","left",0.484999895,0,0,1,0,NA,NA,NA,NA,NA,NA,NA,NA,NA,NA,NA,NA,NA,NA,NA,NA,NA,NA,NA,NA,NA,NA,NA,NA
"309","stim/objects/HouseObjects/dustpan3.png",267,3,260,0.9,"stim/52.jpeg",5,2,3,2,"HouseObjects",2,1,"right","right",0.532999992,1,1,1,0,NA,NA,NA,NA,NA,NA,NA,NA,NA,NA,NA,NA,NA,NA,NA,NA,NA,NA,NA,NA,NA,NA,NA,NA
"435","stim/objects/Instruments/cornet4.png",268,3,261,0.7,"stim/44.jpeg",4,4,2,1,"Instruments",1,4,"left","left",0.677999735,1,1,1,0,114,3,1,0.7,1,"stim/44.jpeg",4,4,"stim/44.jpeg",4,"left",0.813999891,4,1,2.625,1,0.803999901,114,1,0,0,0,0,1
"552","stim/objects/Instruments/laud4.png",269,3,262,0.9,"stim/61.jpeg",6,1,3,1,"Instruments",1,2,"left","left",0.704999685,1,1,1,0,158,3,1,0.9,1,"stim/61.jpeg",6,1,"stim/61.jpeg",2,"right",2.360999823,4,2,0.804999828,3,1.233999729,158,0,0,NA,0,NA,1
"287","stim/objects/HouseObjects/dishsoap3.png",270,3,263,0.7,"stim/34.jpeg",3,4,2,2,"HouseObjects",2,4,"right","",NA,0,0,1,0,NA,NA,NA,NA,NA,NA,NA,NA,NA,NA,NA,NA,NA,NA,NA,NA,NA,NA,NA,NA,NA,NA,NA,NA
"428","stim/objects/Instruments/chime3.png",271,3,264,0.5,"stim/22.jpeg",2,2,1,2,"Instruments",1,1,"left","right",0.282999992,0,0,1,0,NA,NA,NA,NA,NA,NA,NA,NA,NA,NA,NA,NA,NA,NA,NA,NA,NA,NA,NA,NA,NA,NA,NA,NA
"527","stim/objects/Instruments/grandpiano3.png",272,3,265,0.9,"stim/64.jpeg",6,4,3,2,"Instruments",1,3,"left","left",0.661000013,1,1,1,0,NA,NA,NA,NA,NA,NA,NA,NA,NA,NA,NA,NA,NA,NA,NA,NA,NA,NA,NA,NA,NA,NA,NA,NA
"325","stim/objects/HouseObjects/flyswatter3.png",273,3,266,0.9,"stim/52.jpeg",5,2,3,2,"HouseObjects",2,1,"right","right",0.563999891,1,1,1,0,NA,NA,NA,NA,NA,NA,NA,NA,NA,NA,NA,NA,NA,NA,NA,NA,NA,NA,NA,NA,NA,NA,NA,NA
"276","stim/objects/HouseObjects/clothespin3.png",274,3,267,0.7,"stim/32.jpeg",3,2,2,2,"HouseObjects",2,1,"right","right",0.710999966,1,1,1,0,NA,NA,NA,NA,NA,NA,NA,NA,NA,NA,NA,NA,NA,NA,NA,NA,NA,NA,NA,NA,NA,NA,NA,NA
"385","stim/objects/HouseObjects/iron4.png",275,3,268,0.9,"stim/54.jpeg",5,4,3,1,"HouseObjects",2,2,"right","right",0.786999702,1,1,1,0,152,3,1,0.9,2,"stim/54.jpeg",5,4,"stim/54.jpeg",2,"left",0.947999954,2,4,0.754999876,4,0.898999929,152,1,1,1,0,0,1
"559","stim/objects/Instruments/musicsheet3.png",276,3,269,0.5,"stim/21.jpeg",2,1,1,1,"Instruments",1,1,"left","left",0.643999815,1,1,1,0,6,3,1,0.5,2,"stim/21.jpeg",2,1,"stim/21.jpeg",1,"left",0.889999866,4,3,5.875999928,1,2.146999836,6,1,0,0,1,1,1
"250","stim/objects/HouseObjects/basket3.png",277,3,270,0.5,"stim/14.jpeg",1,4,1,2,"HouseObjects",2,1,"right","right",0.56099987,1,1,1,0,NA,NA,NA,NA,NA,NA,NA,NA,NA,NA,NA,NA,NA,NA,NA,NA,NA,NA,NA,NA,NA,NA,NA,NA
"326","stim/objects/HouseObjects/flyswatter3.png",278,3,271,0.9,"stim/52.jpeg",5,2,3,2,"HouseObjects",2,1,"right","right",0.664000034,1,1,1,0,NA,NA,NA,NA,NA,NA,NA,NA,NA,NA,NA,NA,NA,NA,NA,NA,NA,NA,NA,NA,NA,NA,NA,NA
"528","stim/objects/Instruments/grandpiano3.png",279,3,272,0.9,"stim/61.jpeg",6,1,3,2,"Instruments",1,1,"left","left",0.556999922,1,1,1,0,NA,NA,NA,NA,NA,NA,NA,NA,NA,NA,NA,NA,NA,NA,NA,NA,NA,NA,NA,NA,NA,NA,NA,NA
"491","stim/objects/Instruments/frenchhorn3.png",280,3,273,0.9,"stim/64.jpeg",6,4,3,2,"Instruments",1,3,"left","left",0.595999718,1,1,1,0,NA,NA,NA,NA,NA,NA,NA,NA,NA,NA,NA,NA,NA,NA,NA,NA,NA,NA,NA,NA,NA,NA,NA,NA
"291","stim/objects/HouseObjects/doormat3.png",281,3,274,0.9,"stim/52.jpeg",5,2,3,2,"HouseObjects",2,2,"right","right",0.571999788,1,1,1,0,NA,NA,NA,NA,NA,NA,NA,NA,NA,NA,NA,NA,NA,NA,NA,NA,NA,NA,NA,NA,NA,NA,NA,NA
"565","stim/objects/Instruments/violin3.png",282,3,275,0.3,"stim/33.jpeg",3,3,2,1,"Instruments",1,1,"left","right",0.633999825,0,0,1,0,26,3,1,0.3,1,"stim/33.jpeg",3,3,"stim/33.jpeg",1,"left",2.191999912,4,2,1.75,2,1.121999741,26,1,0,0,0,0,1
"454","stim/objects/Instruments/electricguitar3.png",283,3,276,0.7,"stim/42.jpeg",4,2,2,2,"Instruments",1,1,"left","left",0.662999868,1,1,1,0,NA,NA,NA,NA,NA,NA,NA,NA,NA,NA,NA,NA,NA,NA,NA,NA,NA,NA,NA,NA,NA,NA,NA,NA
"420","stim/objects/Instruments/bassdrum4.png",284,3,277,0.3,"stim/32.jpeg",3,2,2,1,"Instruments",1,3,"left","right",0.691999674,0,0,1,0,154,3,1,0.3,1,"stim/32.jpeg",3,2,"stim/32.jpeg",3,"left",1.229999781,4,2,3.227999926,3,0.980999947,154,1,1,1,1,1,1
"457","stim/objects/Instruments/flute3.png",285,3,278,0.9,"stim/61.jpeg",6,1,3,2,"Instruments",1,2,"left","left",0.630999804,1,1,1,0,NA,NA,NA,NA,NA,NA,NA,NA,NA,NA,NA,NA,NA,NA,NA,NA,NA,NA,NA,NA,NA,NA,NA,NA
"544","stim/objects/Instruments/harmonica4.png",286,3,279,0.1,"stim/53.jpeg",5,3,3,1,"Instruments",1,3,"left","left",0.510999918,1,1,1,0,118,3,1,0.1,1,"stim/53.jpeg",5,3,"stim/53.jpeg",3,"left",1.862999916,4,2,1.196999788,2,1.267999887,118,1,0,0,0,0,1
"280","stim/objects/HouseObjects/coffee3.png",287,3,280,0.7,"stim/31.jpeg",3,1,2,2,"HouseObjects",2,4,"right","right",0.65899992,1,1,1,0,NA,NA,NA,NA,NA,NA,NA,NA,NA,NA,NA,NA,NA,NA,NA,NA,NA,NA,NA,NA,NA,NA,NA,NA
"433","stim/objects/Instruments/cornet3.png",288,3,281,0.5,"stim/23.jpeg",2,3,1,2,"Instruments",1,3,"left","right",0.716999769,0,0,1,0,NA,NA,NA,NA,NA,NA,NA,NA,NA,NA,NA,NA,NA,NA,NA,NA,NA,NA,NA,NA,NA,NA,NA,NA
"476","stim/objects/Instruments/flutetrans3.png",289,3,282,0.9,"stim/63.jpeg",6,3,3,2,"Instruments",1,1,"left","left",0.622999907,1,1,1,0,NA,NA,NA,NA,NA,NA,NA,NA,NA,NA,NA,NA,NA,NA,NA,NA,NA,NA,NA,NA,NA,NA,NA,NA
"361","stim/objects/HouseObjects/glass3.png",290,3,283,0.9,"stim/51.jpeg",5,1,3,2,"HouseObjects",2,3,"right","right",0.717999697,1,1,1,0,NA,NA,NA,NA,NA,NA,NA,NA,NA,NA,NA,NA,NA,NA,NA,NA,NA,NA,NA,NA,NA,NA,NA,NA
"271","stim/objects/HouseObjects/clothesdryingrack3.png",291,3,284,0.7,"stim/31.jpeg",3,1,2,2,"HouseObjects",2,1,"right","right",0.799999714,1,1,1,0,NA,NA,NA,NA,NA,NA,NA,NA,NA,NA,NA,NA,NA,NA,NA,NA,NA,NA,NA,NA,NA,NA,NA,NA
"327","stim/objects/HouseObjects/flyswatter3.png",292,3,285,0.9,"stim/53.jpeg",5,3,3,2,"HouseObjects",2,3,"right","right",0.622999668,1,1,1,0,NA,NA,NA,NA,NA,NA,NA,NA,NA,NA,NA,NA,NA,NA,NA,NA,NA,NA,NA,NA,NA,NA,NA,NA
"288","stim/objects/HouseObjects/dishsoap3.png",293,3,286,0.7,"stim/33.jpeg",3,3,2,2,"HouseObjects",2,4,"right","right",0.785999775,1,1,1,0,NA,NA,NA,NA,NA,NA,NA,NA,NA,NA,NA,NA,NA,NA,NA,NA,NA,NA,NA,NA,NA,NA,NA,NA
"456","stim/objects/Instruments/flute3.png",294,3,287,0.9,"stim/61.jpeg",6,1,3,2,"Instruments",1,1,"left","left",0.579999924,1,1,1,0,NA,NA,NA,NA,NA,NA,NA,NA,NA,NA,NA,NA,NA,NA,NA,NA,NA,NA,NA,NA,NA,NA,NA,NA
"343","stim/objects/HouseObjects/garbagebin3.png",295,3,288,0.9,"stim/53.jpeg",5,3,3,2,"HouseObjects",2,4,"right","right",0.61199975,1,1,1,0,NA,NA,NA,NA,NA,NA,NA,NA,NA,NA,NA,NA,NA,NA,NA,NA,NA,NA,NA,NA,NA,NA,NA,NA
"458","stim/objects/Instruments/flute3.png",296,3,289,0.9,"stim/64.jpeg",6,4,3,2,"Instruments",1,3,"left","left",0.572999954,1,1,1,0,NA,NA,NA,NA,NA,NA,NA,NA,NA,NA,NA,NA,NA,NA,NA,NA,NA,NA,NA,NA,NA,NA,NA,NA
"507","stim/objects/Instruments/gong3.png",297,3,290,0.9,"stim/64.jpeg",6,4,3,2,"Instruments",1,2,"left","left",0.477999926,1,1,1,0,NA,NA,NA,NA,NA,NA,NA,NA,NA,NA,NA,NA,NA,NA,NA,NA,NA,NA,NA,NA,NA,NA,NA,NA
"492","stim/objects/Instruments/frenchhorn3.png",298,3,291,0.9,"stim/63.jpeg",6,3,3,2,"Instruments",1,2,"left","left",0.483999729,1,1,1,0,NA,NA,NA,NA,NA,NA,NA,NA,NA,NA,NA,NA,NA,NA,NA,NA,NA,NA,NA,NA,NA,NA,NA,NA
"477","stim/objects/Instruments/flutetrans3.png",299,3,292,0.9,"stim/63.jpeg",6,3,3,2,"Instruments",1,3,"left","left",0.421999693,1,1,1,0,NA,NA,NA,NA,NA,NA,NA,NA,NA,NA,NA,NA,NA,NA,NA,NA,NA,NA,NA,NA,NA,NA,NA,NA
"247","stim/objects/HouseObjects/barbecuelighter3.png",300,3,293,0.5,"stim/12.jpeg",1,2,1,2,"HouseObjects",2,1,"right","left",0.563999653,0,0,1,0,NA,NA,NA,NA,NA,NA,NA,NA,NA,NA,NA,NA,NA,NA,NA,NA,NA,NA,NA,NA,NA,NA,NA,NA
"344","stim/objects/HouseObjects/garbagebin3.png",301,3,294,0.9,"stim/51.jpeg",5,1,3,2,"HouseObjects",2,1,"right","right",0.628999949,1,1,1,0,NA,NA,NA,NA,NA,NA,NA,NA,NA,NA,NA,NA,NA,NA,NA,NA,NA,NA,NA,NA,NA,NA,NA,NA
"493","stim/objects/Instruments/frenchhorn3.png",302,3,295,0.9,"stim/64.jpeg",6,4,3,2,"Instruments",1,3,"left","left",0.603999853,1,1,1,0,NA,NA,NA,NA,NA,NA,NA,NA,NA,NA,NA,NA,NA,NA,NA,NA,NA,NA,NA,NA,NA,NA,NA,NA
"556","stim/objects/Instruments/marimba4.png",303,3,296,0.9,"stim/63.jpeg",6,3,3,1,"Instruments",1,3,"left","left",0.642999887,1,1,1,0,53,3,1,0.9,1,"stim/63.jpeg",6,3,"stim/63.jpeg",3,"right",1.422999859,2,2,2.833999872,3,0.824999809,53,0,0,NA,1,NA,1
"401","stim/objects/HouseObjects/towel4.png",304,3,297,0.1,"stim/62.jpeg",6,2,3,1,"HouseObjects",2,2,"right","left",0.605999708,0,0,1,0,179,3,1,0.1,2,"stim/62.jpeg",6,2,"stim/62.jpeg",2,"right",1.914999723,2,2,0.92599988,3,0.855999708,179,0,1,NA,0,NA,1
"439","stim/objects/Instruments/cymbal4.png",305,3,298,0.7,"stim/41.jpeg",4,1,2,1,"Instruments",1,2,"left","left",0.80099988,1,1,1,0,108,3,1,0.7,1,"stim/41.jpeg",4,1,"stim/41.jpeg",2,"left",0.852999926,4,4,0.513999939,1,1.397999763,108,1,0,0,0,0,1
"282","stim/objects/HouseObjects/coffee4.png",306,3,299,0.3,"stim/41.jpeg",4,1,2,1,"HouseObjects",2,3,"right","left",0.559999704,0,0,1,0,29,3,1,0.3,2,"stim/41.jpeg",4,1,"stim/41.jpeg",3,"right",1.633999825,2,4,2.322999954,4,1.133999825,29,0,0,NA,0,NA,1
"495","stim/objects/Instruments/frenchhorn3.png",307,3,300,0.9,"stim/63.jpeg",6,3,3,2,"Instruments",1,1,"left","left",0.650999784,1,1,1,0,NA,NA,NA,NA,NA,NA,NA,NA,NA,NA,NA,NA,NA,NA,NA,NA,NA,NA,NA,NA,NA,NA,NA,NA
"386","stim/objects/HouseObjects/ironingboard3.png",308,3,301,0.5,"stim/24.jpeg",2,4,1,1,"HouseObjects",2,1,"right","right",0.652999878,1,1,1,0,116,3,1,0.5,2,"stim/24.jpeg",2,4,"stim/24.jpeg",1,"left",0.823999882,3,2,0.759999752,2,0.664999962,116,1,0,0,0,0,1
"345","stim/objects/HouseObjects/garbagebin3.png",309,3,302,0.9,"stim/51.jpeg",5,1,3,2,"HouseObjects",2,1,"right","right",0.592000008,1,1,1,0,NA,NA,NA,NA,NA,NA,NA,NA,NA,NA,NA,NA,NA,NA,NA,NA,NA,NA,NA,NA,NA,NA,NA,NA
"324","stim/objects/HouseObjects/dustpan4.png",310,3,303,0.9,"stim/54.jpeg",5,4,3,1,"HouseObjects",2,2,"right","",NA,0,0,1,0,76,3,1,0.9,2,"stim/54.jpeg",5,4,"stim/54.jpeg",2,"left",1.162999868,2,2,2.71999979,2,0.960999727,76,1,0,0,1,1,1
"461","stim/objects/Instruments/flute3.png",311,3,304,0.9,"stim/61.jpeg",6,1,3,2,"Instruments",1,1,"left","left",0.025999784,1,1,1,0,NA,NA,NA,NA,NA,NA,NA,NA,NA,NA,NA,NA,NA,NA,NA,NA,NA,NA,NA,NA,NA,NA,NA,NA
"424","stim/objects/Instruments/cello3.png",312,3,305,0.5,"stim/21.jpeg",2,1,1,2,"Instruments",1,4,"left","left",0.760999918,1,1,1,0,NA,NA,NA,NA,NA,NA,NA,NA,NA,NA,NA,NA,NA,NA,NA,NA,NA,NA,NA,NA,NA,NA,NA,NA
"363","stim/objects/HouseObjects/glass3.png",313,3,306,0.9,"stim/52.jpeg",5,2,3,2,"HouseObjects",2,2,"right","right",0.618999958,1,1,1,0,NA,NA,NA,NA,NA,NA,NA,NA,NA,NA,NA,NA,NA,NA,NA,NA,NA,NA,NA,NA,NA,NA,NA,NA
"412","stim/objects/Instruments/balalaika3.png",314,3,307,0.5,"stim/14.jpeg",1,4,1,2,"Instruments",1,1,"left","left",0.62899971,1,1,1,0,NA,NA,NA,NA,NA,NA,NA,NA,NA,NA,NA,NA,NA,NA,NA,NA,NA,NA,NA,NA,NA,NA,NA,NA
"311","stim/objects/HouseObjects/dustpan3.png",315,3,308,0.9,"stim/53.jpeg",5,3,3,2,"HouseObjects",2,4,"right","right",0.66899991,1,1,1,0,NA,NA,NA,NA,NA,NA,NA,NA,NA,NA,NA,NA,NA,NA,NA,NA,NA,NA,NA,NA,NA,NA,NA,NA
"496","stim/objects/Instruments/frenchhorn3.png",316,3,309,0.9,"stim/62.jpeg",6,2,3,2,"Instruments",1,4,"left","left",0.615999699,1,1,1,0,NA,NA,NA,NA,NA,NA,NA,NA,NA,NA,NA,NA,NA,NA,NA,NA,NA,NA,NA,NA,NA,NA,NA,NA
"241","stim/objects/HouseObjects/ashtray3.png",317,3,310,0.5,"stim/11.jpeg",1,1,1,2,"HouseObjects",2,4,"right","right",0.56799984,1,1,1,0,NA,NA,NA,NA,NA,NA,NA,NA,NA,NA,NA,NA,NA,NA,NA,NA,NA,NA,NA,NA,NA,NA,NA,NA
"293","stim/objects/HouseObjects/doormat3.png",318,3,311,0.9,"stim/51.jpeg",5,1,3,2,"HouseObjects",2,1,"right","left",0.458999872,0,0,1,0,NA,NA,NA,NA,NA,NA,NA,NA,NA,NA,NA,NA,NA,NA,NA,NA,NA,NA,NA,NA,NA,NA,NA,NA
"472","stim/objects/Instruments/flute4.png",319,3,312,0.1,"stim/51.jpeg",5,1,3,1,"Instruments",1,3,"left","right",0.572999716,0,0,1,0,66,3,1,0.1,1,"stim/51.jpeg",5,1,"stim/51.jpeg",3,"left",0.882999897,3,1,1.614999771,1,0.919999838,66,1,1,1,0,0,1
"408","stim/objects/Instruments/accordion4.png",320,3,313,0.3,"stim/32.jpeg",3,2,2,1,"Instruments",1,4,"left","right",0.629999876,0,0,1,0,105,3,1,0.3,1,"stim/32.jpeg",3,2,"stim/32.jpeg",4,"right",2.266999722,3,3,0.949999809,3,0.239999771,105,0,0,NA,0,NA,1
"442","stim/objects/Instruments/doublebass3.png",321,3,314,0.7,"stim/43.jpeg",4,3,2,2,"Instruments",1,2,"left","right",0.68599987,0,0,1,0,NA,NA,NA,NA,NA,NA,NA,NA,NA,NA,NA,NA,NA,NA,NA,NA,NA,NA,NA,NA,NA,NA,NA,NA
"284","stim/objects/HouseObjects/cushion3.png",322,3,315,0.7,"stim/32.jpeg",3,2,2,2,"HouseObjects",2,1,"right","right",0.647999763,1,1,1,0,NA,NA,NA,NA,NA,NA,NA,NA,NA,NA,NA,NA,NA,NA,NA,NA,NA,NA,NA,NA,NA,NA,NA,NA
"403","stim/objects/HouseObjects/vacuumcleaner4.png",323,3,316,0.1,"stim/63.jpeg",6,3,3,1,"HouseObjects",2,4,"right","left",0.582999945,0,0,1,0,192,3,1,0.1,2,"stim/63.jpeg",6,3,"stim/63.jpeg",4,"left",1.449999809,3,3,1.707999706,4,0.8349998,192,1,1,1,1,1,1
"554","stim/objects/Instruments/maraca4.png",324,3,317,0.9,"stim/62.jpeg",6,2,3,1,"Instruments",1,4,"left","left",0.556999922,1,1,1,0,7,3,1,0.9,1,"stim/62.jpeg",6,2,"stim/62.jpeg",4,"left",5.246000051,4,2,3.912999868,1,1.613999844,7,1,1,1,0,0,1
"312","stim/objects/HouseObjects/dustpan3.png",325,3,318,0.9,"stim/54.jpeg",5,4,3,2,"HouseObjects",2,1,"right","right",0.630999804,1,1,1,0,NA,NA,NA,NA,NA,NA,NA,NA,NA,NA,NA,NA,NA,NA,NA,NA,NA,NA,NA,NA,NA,NA,NA,NA
"341","stim/objects/HouseObjects/flyswatter4.png",326,3,319,0.9,"stim/51.jpeg",5,1,3,1,"HouseObjects",2,1,"right","right",0.468999863,1,1,1,0,91,3,1,0.9,2,"stim/51.jpeg",5,1,"stim/51.jpeg",1,"left",0.966999769,3,4,3.261999846,4,1.047999859,91,1,0,0,0,0,1
"346","stim/objects/HouseObjects/garbagebin3.png",327,3,320,0.9,"stim/52.jpeg",5,2,3,2,"HouseObjects",2,3,"right","left",0.56799984,0,0,1,0,NA,NA,NA,NA,NA,NA,NA,NA,NA,NA,NA,NA,NA,NA,NA,NA,NA,NA,NA,NA,NA,NA,NA,NA
"436","stim/objects/Instruments/cymbal3.png",328,3,321,0.7,"stim/43.jpeg",4,3,2,2,"Instruments",1,3,"left","right",0.731999874,0,0,1,0,NA,NA,NA,NA,NA,NA,NA,NA,NA,NA,NA,NA,NA,NA,NA,NA,NA,NA,NA,NA,NA,NA,NA,NA
"376","stim/objects/HouseObjects/glassmop3.png",329,3,322,0.5,"stim/12.jpeg",1,2,1,1,"HouseObjects",2,4,"right","right",0.36500001,1,1,1,0,140,3,1,0.5,1,"stim/12.jpeg",1,2,"stim/12.jpeg",4,"left",0.999999762,3,4,0.561999798,4,0.473999977,140,1,0,0,1,1,1
"249","stim/objects/HouseObjects/barbecuelighter4.png",330,3,323,0.7,"stim/31.jpeg",3,1,2,1,"HouseObjects",2,1,"right","right",0.644000053,1,1,1,0,150,3,1,0.7,2,"stim/31.jpeg",3,1,"stim/31.jpeg",1,"left",1.048999786,4,4,2.115999699,1,0.715999842,150,1,0,0,1,1,1
"540","stim/objects/Instruments/grandpiano4.png",331,3,324,0.1,"stim/51.jpeg",5,1,3,1,"Instruments",1,4,"left","right",0.619999886,0,0,1,0,144,3,1,0.1,1,"stim/51.jpeg",5,1,"stim/51.jpeg",4,"left",1.04399991,4,3,0.699999809,3,0.436999798,144,1,0,0,0,0,1
"313","stim/objects/HouseObjects/dustpan3.png",332,3,325,0.9,"stim/51.jpeg",5,1,3,2,"HouseObjects",2,2,"right","right",0.455999851,1,1,1,0,NA,NA,NA,NA,NA,NA,NA,NA,NA,NA,NA,NA,NA,NA,NA,NA,NA,NA,NA,NA,NA,NA,NA,NA
"462","stim/objects/Instruments/flute3.png",333,3,326,0.9,"stim/61.jpeg",6,1,3,2,"Instruments",1,1,"left","left",0.54799962,1,1,1,0,NA,NA,NA,NA,NA,NA,NA,NA,NA,NA,NA,NA,NA,NA,NA,NA,NA,NA,NA,NA,NA,NA,NA,NA
"251","stim/objects/HouseObjects/basket3.png",334,3,327,0.5,"stim/13.jpeg",1,3,1,2,"HouseObjects",2,3,"right","right",0.59499979,1,1,1,0,NA,NA,NA,NA,NA,NA,NA,NA,NA,NA,NA,NA,NA,NA,NA,NA,NA,NA,NA,NA,NA,NA,NA,NA
"509","stim/objects/Instruments/gong3.png",335,3,328,0.9,"stim/62.jpeg",6,2,3,2,"Instruments",1,2,"left","left",0.618000031,1,1,1,0,NA,NA,NA,NA,NA,NA,NA,NA,NA,NA,NA,NA,NA,NA,NA,NA,NA,NA,NA,NA,NA,NA,NA,NA
"531","stim/objects/Instruments/grandpiano3.png",336,3,329,0.9,"stim/64.jpeg",6,4,3,2,"Instruments",1,4,"left","left",0.60199976,1,1,1,0,NA,NA,NA,NA,NA,NA,NA,NA,NA,NA,NA,NA,NA,NA,NA,NA,NA,NA,NA,NA,NA,NA,NA,NA
"459","stim/objects/Instruments/flute3.png",337,3,330,0.9,"stim/64.jpeg",6,4,3,2,"Instruments",1,1,"left","left",0.568999767,1,1,1,0,NA,NA,NA,NA,NA,NA,NA,NA,NA,NA,NA,NA,NA,NA,NA,NA,NA,NA,NA,NA,NA,NA,NA,NA
"510","stim/objects/Instruments/gong3.png",338,3,331,0.9,"stim/62.jpeg",6,2,3,2,"Instruments",1,2,"left","left",0.592999935,1,1,1,0,NA,NA,NA,NA,NA,NA,NA,NA,NA,NA,NA,NA,NA,NA,NA,NA,NA,NA,NA,NA,NA,NA,NA,NA
"561","stim/objects/Instruments/musicstand3.png",339,3,332,0.3,"stim/31.jpeg",3,1,2,1,"Instruments",1,2,"left","left",0.451999903,1,1,1,0,117,3,1,0.3,1,"stim/31.jpeg",3,1,"stim/31.jpeg",2,"left",1.287999868,4,4,1.087999821,1,0.727999926,117,1,0,0,0,0,1
"532","stim/objects/Instruments/grandpiano3.png",340,3,333,0.9,"stim/61.jpeg",6,1,3,2,"Instruments",1,1,"left","left",0.638999701,1,1,1,0,NA,NA,NA,NA,NA,NA,NA,NA,NA,NA,NA,NA,NA,NA,NA,NA,NA,NA,NA,NA,NA,NA,NA,NA
"562","stim/objects/Instruments/musicstand4.png",341,3,334,0.9,"stim/62.jpeg",6,2,3,1,"Instruments",1,2,"left","left",0.586999893,1,1,1,0,111,3,1,0.9,1,"stim/62.jpeg",6,2,"stim/62.jpeg",2,"right",1.072999954,3,3,2.107999802,4,1.411999941,111,0,0,NA,0,NA,1
"330","stim/objects/HouseObjects/flyswatter3.png",342,3,335,0.9,"stim/51.jpeg",5,1,3,2,"HouseObjects",2,3,"right","right",0.853999853,1,1,1,0,NA,NA,NA,NA,NA,NA,NA,NA,NA,NA,NA,NA,NA,NA,NA,NA,NA,NA,NA,NA,NA,NA,NA,NA
"347","stim/objects/HouseObjects/garbagebin3.png",343,3,336,0.9,"stim/54.jpeg",5,4,3,2,"HouseObjects",2,3,"right","right",0.565999746,1,1,1,0,NA,NA,NA,NA,NA,NA,NA,NA,NA,NA,NA,NA,NA,NA,NA,NA,NA,NA,NA,NA,NA,NA,NA,NA
"558","stim/objects/Instruments/metronome4.png",344,3,337,0.9,"stim/64.jpeg",6,4,3,1,"Instruments",1,2,"left","left",0.651999712,1,1,1,0,115,3,1,0.9,1,"stim/64.jpeg",6,4,"stim/64.jpeg",2,"left",2.297999859,3,3,0.737999916,4,0.899999857,115,1,0,0,0,0,1
"262","stim/objects/HouseObjects/broom3.png",345,3,338,0.5,"stim/21.jpeg",2,1,1,2,"HouseObjects",2,3,"right","right",0.622999907,1,1,1,0,NA,NA,NA,NA,NA,NA,NA,NA,NA,NA,NA,NA,NA,NA,NA,NA,NA,NA,NA,NA,NA,NA,NA,NA
"553","stim/objects/Instruments/maraca3.png",346,3,339,0.5,"stim/22.jpeg",2,2,1,1,"Instruments",1,3,"left","left",0.779999733,1,1,1,0,125,3,1,0.5,2,"stim/22.jpeg",2,2,"stim/22.jpeg",3,"left",1.294999838,4,3,3.928999662,4,1.559999943,125,1,0,0,0,0,1
"349","stim/objects/HouseObjects/garbagebin3.png",347,3,340,0.9,"stim/54.jpeg",5,4,3,2,"HouseObjects",2,3,"right","right",0.671999931,1,1,1,0,NA,NA,NA,NA,NA,NA,NA,NA,NA,NA,NA,NA,NA,NA,NA,NA,NA,NA,NA,NA,NA,NA,NA,NA
"564","stim/objects/Instruments/oboe4.png",348,3,341,0.9,"stim/63.jpeg",6,3,3,1,"Instruments",1,1,"left","left",0.607999802,1,1,1,0,129,3,1,0.9,1,"stim/63.jpeg",6,3,"stim/63.jpeg",1,"left",0.712999821,2,2,0.791999817,4,0.720000029,129,1,0,0,0,0,1
"463","stim/objects/Instruments/flute3.png",349,3,342,0.9,"stim/62.jpeg",6,2,3,2,"Instruments",1,3,"left","left",0.610999823,1,1,1,0,NA,NA,NA,NA,NA,NA,NA,NA,NA,NA,NA,NA,NA,NA,NA,NA,NA,NA,NA,NA,NA,NA,NA,NA
"395","stim/objects/HouseObjects/match4.png",350,3,343,0.1,"stim/63.jpeg",6,3,3,1,"HouseObjects",2,2,"right","left",0.569999933,0,0,1,0,12,3,1,0.1,2,"stim/63.jpeg",6,3,"stim/63.jpeg",2,"right",1.213999748,3,4,1.697999954,4,0.63499999,12,0,0,NA,0,NA,1
"511","stim/objects/Instruments/gong3.png",351,3,344,0.9,"stim/63.jpeg",6,3,3,2,"Instruments",1,4,"left","left",0.569999695,1,1,1,0,NA,NA,NA,NA,NA,NA,NA,NA,NA,NA,NA,NA,NA,NA,NA,NA,NA,NA,NA,NA,NA,NA,NA,NA
"569","stim/objects/Instruments/xylophone3.png",352,3,345,0.3,"stim/31.jpeg",3,1,2,1,"Instruments",1,3,"left","",NA,0,0,1,0,189,3,1,0.3,1,"stim/31.jpeg",3,1,"stim/31.jpeg",3,"left",1.012999773,3,3,0.457999706,4,0.580999851,189,1,0,0,0,0,1
"382","stim/objects/HouseObjects/handvacuum3.png",353,3,346,0.5,"stim/11.jpeg",1,1,1,1,"HouseObjects",2,4,"right","right",0.585999966,1,1,1,0,107,3,1,0.5,1,"stim/11.jpeg",1,1,"stim/11.jpeg",4,"right",1.725999832,2,2,0.65199995,2,0.278999805,107,0,0,NA,0,NA,1
"295","stim/objects/HouseObjects/doormat3.png",354,3,347,0.9,"stim/53.jpeg",5,3,3,2,"HouseObjects",2,3,"right","right",0.627999783,1,1,1,0,NA,NA,NA,NA,NA,NA,NA,NA,NA,NA,NA,NA,NA,NA,NA,NA,NA,NA,NA,NA,NA,NA,NA,NA
"350","stim/objects/HouseObjects/garbagebin3.png",355,3,348,0.9,"stim/52.jpeg",5,2,3,2,"HouseObjects",2,2,"right","right",0.552999735,1,1,1,0,NA,NA,NA,NA,NA,NA,NA,NA,NA,NA,NA,NA,NA,NA,NA,NA,NA,NA,NA,NA,NA,NA,NA,NA
"405","stim/objects/HouseObjects/wateringcan4.png",356,3,349,0.1,"stim/64.jpeg",6,4,3,1,"HouseObjects",2,2,"right","left",0.659999847,0,0,1,0,145,3,1,0.1,2,"stim/64.jpeg",6,4,"stim/64.jpeg",2,"left",0.813999891,3,2,0.955999851,4,1.883999825,145,1,0,0,0,0,1
"419","stim/objects/Instruments/bassdrum3.png",357,3,350,0.5,"stim/11.jpeg",1,1,1,2,"Instruments",1,3,"left","right",0.554999828,0,0,1,0,NA,NA,NA,NA,NA,NA,NA,NA,NA,NA,NA,NA,NA,NA,NA,NA,NA,NA,NA,NA,NA,NA,NA,NA
"497","stim/objects/Instruments/frenchhorn3.png",358,3,351,0.9,"stim/64.jpeg",6,4,3,2,"Instruments",1,3,"left","left",0.542999983,1,1,1,0,NA,NA,NA,NA,NA,NA,NA,NA,NA,NA,NA,NA,NA,NA,NA,NA,NA,NA,NA,NA,NA,NA,NA,NA
"570","stim/objects/Instruments/xylophone4.png",359,3,352,0.9,"stim/62.jpeg",6,2,3,1,"Instruments",1,4,"left","left",0.608999968,1,1,1,0,21,3,1,0.9,1,"stim/62.jpeg",6,2,"stim/62.jpeg",4,"left",1.777999878,2,3,2.049000025,2,3.057999849,21,1,0,0,0,0,1
"366","stim/objects/HouseObjects/glass3.png",360,3,353,0.9,"stim/51.jpeg",5,1,3,2,"HouseObjects",2,4,"right","right",0.563999891,1,1,1,0,NA,NA,NA,NA,NA,NA,NA,NA,NA,NA,NA,NA,NA,NA,NA,NA,NA,NA,NA,NA,NA,NA,NA,NA
"351","stim/objects/HouseObjects/garbagebin3.png",361,3,354,0.9,"stim/53.jpeg",5,3,3,2,"HouseObjects",2,4,"right","right",0.570999861,1,1,1,0,NA,NA,NA,NA,NA,NA,NA,NA,NA,NA,NA,NA,NA,NA,NA,NA,NA,NA,NA,NA,NA,NA,NA,NA
"449","stim/objects/Instruments/electricdrumset3.png",362,3,355,0.7,"stim/44.jpeg",4,4,2,2,"Instruments",1,1,"left","left",0.571999788,1,1,1,0,NA,NA,NA,NA,NA,NA,NA,NA,NA,NA,NA,NA,NA,NA,NA,NA,NA,NA,NA,NA,NA,NA,NA,NA
"296","stim/objects/HouseObjects/doormat3.png",363,3,356,0.9,"stim/53.jpeg",5,3,3,2,"HouseObjects",2,2,"right","right",0.700999975,1,1,1,0,NA,NA,NA,NA,NA,NA,NA,NA,NA,NA,NA,NA,NA,NA,NA,NA,NA,NA,NA,NA,NA,NA,NA,NA
"566","stim/objects/Instruments/violin4.png",364,3,357,0.9,"stim/64.jpeg",6,4,3,1,"Instruments",1,3,"left","left",0.486999989,1,1,1,0,139,3,1,0.9,1,"stim/64.jpeg",6,4,"stim/64.jpeg",3,"left",1.051999807,3,1,1.370999813,1,1.328999758,139,1,0,0,0,0,1
"315","stim/objects/HouseObjects/dustpan3.png",365,3,358,0.9,"stim/51.jpeg",5,1,3,2,"HouseObjects",2,4,"right","left",0.643999815,0,0,1,0,NA,NA,NA,NA,NA,NA,NA,NA,NA,NA,NA,NA,NA,NA,NA,NA,NA,NA,NA,NA,NA,NA,NA,NA
"358","stim/objects/HouseObjects/garbagebin4.png",366,3,359,0.9,"stim/52.jpeg",5,2,3,1,"HouseObjects",2,1,"right","right",0.534999847,1,1,1,0,141,3,1,0.9,2,"stim/52.jpeg",5,2,"stim/52.jpeg",1,"right",1.017999887,3,3,0.64599967,3,0.839999914,141,0,0,NA,0,NA,1
"464","stim/objects/Instruments/flute3.png",367,3,360,0.9,"stim/64.jpeg",6,4,3,2,"Instruments",1,4,"left","right",0.638000011,0,0,1,0,NA,NA,NA,NA,NA,NA,NA,NA,NA,NA,NA,NA,NA,NA,NA,NA,NA,NA,NA,NA,NA,NA,NA,NA
"445","stim/objects/Instruments/drums3.png",368,3,361,0.7,"stim/41.jpeg",4,1,2,2,"Instruments",1,3,"left","",NA,0,0,1,0,NA,NA,NA,NA,NA,NA,NA,NA,NA,NA,NA,NA,NA,NA,NA,NA,NA,NA,NA,NA,NA,NA,NA,NA
"265","stim/objects/HouseObjects/bucket3.png",369,3,362,0.5,"stim/22.jpeg",2,2,1,2,"HouseObjects",2,3,"right","right",0.706999779,1,1,1,0,NA,NA,NA,NA,NA,NA,NA,NA,NA,NA,NA,NA,NA,NA,NA,NA,NA,NA,NA,NA,NA,NA,NA,NA
"440","stim/objects/Instruments/doublebass3.png",370,3,363,0.7,"stim/42.jpeg",4,2,2,2,"Instruments",1,2,"left","left",0.551999807,1,1,1,0,NA,NA,NA,NA,NA,NA,NA,NA,NA,NA,NA,NA,NA,NA,NA,NA,NA,NA,NA,NA,NA,NA,NA,NA
"431","stim/objects/Instruments/clarinet3.png",371,3,364,0.5,"stim/23.jpeg",2,3,1,2,"Instruments",1,1,"left","right",0.643999815,0,0,1,0,NA,NA,NA,NA,NA,NA,NA,NA,NA,NA,NA,NA,NA,NA,NA,NA,NA,NA,NA,NA,NA,NA,NA,NA
"489","stim/objects/Instruments/flutetrans4.png",372,3,365,0.1,"stim/52.jpeg",5,2,3,1,"Instruments",1,4,"left","left",0.638000011,1,1,1,0,47,3,1,0.1,1,"stim/52.jpeg",5,2,"stim/52.jpeg",4,"left",0.699999809,4,3,1.04799962,4,1.180000067,47,1,0,0,1,1,1
"259","stim/objects/HouseObjects/bottle3.png",373,3,366,0.5,"stim/23.jpeg",2,3,1,2,"HouseObjects",2,3,"right","left",0.646999836,0,0,1,0,NA,NA,NA,NA,NA,NA,NA,NA,NA,NA,NA,NA,NA,NA,NA,NA,NA,NA,NA,NA,NA,NA,NA,NA
"563","stim/objects/Instruments/oboe3.png",374,3,367,0.3,"stim/32.jpeg",3,2,2,1,"Instruments",1,4,"left","right",0.745999813,0,0,1,0,49,3,1,0.3,1,"stim/32.jpeg",3,2,"stim/32.jpeg",4,"left",0.703000069,1,2,1.31799984,3,2.119999886,49,1,1,1,0,0,1
"568","stim/objects/Instruments/vuvuzela4.png",375,3,368,0.9,"stim/61.jpeg",6,1,3,1,"Instruments",1,4,"left","right",0.569000006,0,0,1,0,102,3,1,0.9,1,"stim/61.jpeg",6,1,"stim/61.jpeg",4,"left",0.929999828,3,3,0.91899991,3,0.529999971,102,1,0,0,0,0,1
"252","stim/objects/HouseObjects/basket4.png",376,3,369,0.7,"stim/32.jpeg",3,2,2,1,"HouseObjects",2,2,"right","",NA,0,0,1,0,155,3,1,0.7,2,"stim/32.jpeg",3,2,"stim/32.jpeg",2,"right",1.198999882,2,4,0.695999861,4,0.557999849,155,0,0,NA,0,NA,1
"365","stim/objects/HouseObjects/glass3.png",377,3,370,0.9,"stim/53.jpeg",5,3,3,2,"HouseObjects",2,3,"right","right",0.409999847,1,1,1,0,NA,NA,NA,NA,NA,NA,NA,NA,NA,NA,NA,NA,NA,NA,NA,NA,NA,NA,NA,NA,NA,NA,NA,NA
"548","stim/objects/Instruments/hihat4.png",378,3,371,0.1,"stim/51.jpeg",5,1,3,1,"Instruments",1,2,"left","right",0.564999819,0,0,1,0,24,3,1,0.1,1,"stim/51.jpeg",5,1,"stim/51.jpeg",2,"left",3.930999994,3,4,1.988999844,4,1.86899972,24,1,0,0,0,0,1
"268","stim/objects/HouseObjects/clock3.png",379,3,372,0.5,"stim/23.jpeg",2,3,1,2,"HouseObjects",2,4,"right","right",0.606999874,1,1,1,0,NA,NA,NA,NA,NA,NA,NA,NA,NA,NA,NA,NA,NA,NA,NA,NA,NA,NA,NA,NA,NA,NA,NA,NA
"379","stim/objects/HouseObjects/hairdryer4.png",380,3,373,0.9,"stim/51.jpeg",5,1,3,1,"HouseObjects",2,4,"right","right",0.546000004,1,1,1,0,8,3,1,0.9,2,"stim/51.jpeg",5,1,"stim/51.jpeg",4,"left",2.002999783,3,1,3.325000048,1,1.633999825,8,1,1,1,0,0,1
"331","stim/objects/HouseObjects/flyswatter3.png",381,3,374,0.9,"stim/54.jpeg",5,4,3,2,"HouseObjects",2,2,"right","right",0.600999832,1,1,1,0,NA,NA,NA,NA,NA,NA,NA,NA,NA,NA,NA,NA,NA,NA,NA,NA,NA,NA,NA,NA,NA,NA,NA,NA
"279","stim/objects/HouseObjects/coffee3.png",382,3,375,0.7,"stim/32.jpeg",3,2,2,2,"HouseObjects",2,2,"right","right",0.608999729,1,1,1,0,NA,NA,NA,NA,NA,NA,NA,NA,NA,NA,NA,NA,NA,NA,NA,NA,NA,NA,NA,NA,NA,NA,NA,NA
"275","stim/objects/HouseObjects/clothespin3.png",383,3,376,0.7,"stim/34.jpeg",3,4,2,2,"HouseObjects",2,4,"right","right",0.458999872,1,1,1,0,NA,NA,NA,NA,NA,NA,NA,NA,NA,NA,NA,NA,NA,NA,NA,NA,NA,NA,NA,NA,NA,NA,NA,NA
"277","stim/objects/HouseObjects/clothespin3.png",384,3,377,0.7,"stim/31.jpeg",3,1,2,2,"HouseObjects",2,1,"right","left",0.555999756,0,0,1,0,NA,NA,NA,NA,NA,NA,NA,NA,NA,NA,NA,NA,NA,NA,NA,NA,NA,NA,NA,NA,NA,NA,NA,NA
"360","stim/objects/HouseObjects/glass3.png",385,3,378,0.9,"stim/54.jpeg",5,4,3,2,"HouseObjects",2,1,"right","right",0.631999969,1,1,1,0,NA,NA,NA,NA,NA,NA,NA,NA,NA,NA,NA,NA,NA,NA,NA,NA,NA,NA,NA,NA,NA,NA,NA,NA
"480","stim/objects/Instruments/flutetrans3.png",386,3,379,0.9,"stim/61.jpeg",6,1,3,2,"Instruments",1,3,"left","left",0.700999975,1,1,1,0,NA,NA,NA,NA,NA,NA,NA,NA,NA,NA,NA,NA,NA,NA,NA,NA,NA,NA,NA,NA,NA,NA,NA,NA
"466","stim/objects/Instruments/flute3.png",387,3,380,0.9,"stim/63.jpeg",6,3,3,2,"Instruments",1,1,"left","left",0.632999897,1,1,1,0,NA,NA,NA,NA,NA,NA,NA,NA,NA,NA,NA,NA,NA,NA,NA,NA,NA,NA,NA,NA,NA,NA,NA,NA
"551","stim/objects/Instruments/laud3.png",388,3,381,0.5,"stim/21.jpeg",2,1,1,1,"Instruments",1,1,"left","",NA,0,0,1,0,106,3,1,0.5,2,"stim/21.jpeg",2,1,"stim/21.jpeg",1,"left",0.885999918,3,3,1.032999992,3,0.965999842,106,1,0,0,0,0,1
"526","stim/objects/Instruments/grandpiano3.png",389,3,382,0.9,"stim/62.jpeg",6,2,3,2,"Instruments",1,2,"left","left",0.589999914,1,1,1,0,NA,NA,NA,NA,NA,NA,NA,NA,NA,NA,NA,NA,NA,NA,NA,NA,NA,NA,NA,NA,NA,NA,NA,NA
"474","stim/objects/Instruments/flutetrans3.png",390,3,383,0.9,"stim/64.jpeg",6,4,3,2,"Instruments",1,2,"left","left",0.466999769,1,1,1,0,NA,NA,NA,NA,NA,NA,NA,NA,NA,NA,NA,NA,NA,NA,NA,NA,NA,NA,NA,NA,NA,NA,NA,NA
"274","stim/objects/HouseObjects/clothesdryingrack4.png",391,3,384,0.3,"stim/43.jpeg",4,3,2,1,"HouseObjects",2,2,"right","left",0.506999731,0,0,1,0,82,3,1,0.3,2,"stim/43.jpeg",4,3,"stim/43.jpeg",2,"right",0.904999733,3,3,0.837999821,3,0.52699995,82,0,1,NA,0,NA,1
"273","stim/objects/HouseObjects/clothesdryingrack3.png",392,3,385,0.7,"stim/34.jpeg",3,4,2,2,"HouseObjects",2,3,"right","left",0.580999851,0,0,1,0,NA,NA,NA,NA,NA,NA,NA,NA,NA,NA,NA,NA,NA,NA,NA,NA,NA,NA,NA,NA,NA,NA,NA,NA
"467","stim/objects/Instruments/flute3.png",393,3,386,0.9,"stim/62.jpeg",6,2,3,2,"Instruments",1,3,"left","left",0.566999674,1,1,1,0,NA,NA,NA,NA,NA,NA,NA,NA,NA,NA,NA,NA,NA,NA,NA,NA,NA,NA,NA,NA,NA,NA,NA,NA
"370","stim/objects/HouseObjects/glass3.png",394,3,387,0.9,"stim/53.jpeg",5,3,3,2,"HouseObjects",2,2,"right","right",0.495999813,1,1,1,0,NA,NA,NA,NA,NA,NA,NA,NA,NA,NA,NA,NA,NA,NA,NA,NA,NA,NA,NA,NA,NA,NA,NA,NA
"317","stim/objects/HouseObjects/dustpan3.png",395,3,388,0.9,"stim/52.jpeg",5,2,3,2,"HouseObjects",2,4,"right","right",0.665999889,1,1,1,0,NA,NA,NA,NA,NA,NA,NA,NA,NA,NA,NA,NA,NA,NA,NA,NA,NA,NA,NA,NA,NA,NA,NA,NA
"475","stim/objects/Instruments/flutetrans3.png",396,3,389,0.9,"stim/64.jpeg",6,4,3,2,"Instruments",1,1,"left","left",0.714999914,1,1,1,0,NA,NA,NA,NA,NA,NA,NA,NA,NA,NA,NA,NA,NA,NA,NA,NA,NA,NA,NA,NA,NA,NA,NA,NA
"453","stim/objects/Instruments/electricguitar3.png",397,3,390,0.7,"stim/43.jpeg",4,3,2,2,"Instruments",1,4,"left","right",0.531999826,0,0,1,0,NA,NA,NA,NA,NA,NA,NA,NA,NA,NA,NA,NA,NA,NA,NA,NA,NA,NA,NA,NA,NA,NA,NA,NA
"393","stim/objects/HouseObjects/lintroller4.png",398,3,391,0.1,"stim/62.jpeg",6,2,3,1,"HouseObjects",2,4,"right","left",0.545999765,0,0,1,0,19,3,1,0.1,2,"stim/62.jpeg",6,2,"stim/62.jpeg",4,"right",1.53099966,4,2,4.00999999,4,1.739999771,19,0,1,NA,1,NA,1
"549","stim/objects/Instruments/keyboard3.png",399,3,392,0.5,"stim/13.jpeg",1,3,1,1,"Instruments",1,2,"left","right",0.689999819,0,0,1,0,80,3,1,0.5,1,"stim/13.jpeg",1,3,"stim/13.jpeg",2,"left",1.777999878,4,2,3.461999655,4,2.213999748,80,1,0,0,0,0,1
"318","stim/objects/HouseObjects/dustpan3.png",400,3,393,0.9,"stim/53.jpeg",5,3,3,2,"HouseObjects",2,1,"right","right",0.617999792,1,1,1,0,NA,NA,NA,NA,NA,NA,NA,NA,NA,NA,NA,NA,NA,NA,NA,NA,NA,NA,NA,NA,NA,NA,NA,NA
"380","stim/objects/HouseObjects/handbrush3.png",401,3,394,0.5,"stim/14.jpeg",1,4,1,1,"HouseObjects",2,2,"right","right",0.698999882,1,1,1,0,198,3,1,0.5,1,"stim/14.jpeg",1,4,"stim/14.jpeg",2,"right",1.531999826,2,2,0.797999859,2,0.275999784,198,0,0,NA,1,NA,1
"255","stim/objects/HouseObjects/bleachbottle4.png",402,3,395,0.7,"stim/33.jpeg",3,3,2,1,"HouseObjects",2,2,"right","right",0.68599987,1,1,1,0,99,3,1,0.7,2,"stim/33.jpeg",3,3,"stim/33.jpeg",2,"right",0.941999912,4,2,0.71999979,2,0.619999886,99,0,0,NA,1,NA,1
"310","stim/objects/HouseObjects/dustpan3.png",403,3,396,0.9,"stim/52.jpeg",5,2,3,2,"HouseObjects",2,4,"right","right",0.743999958,1,1,1,0,NA,NA,NA,NA,NA,NA,NA,NA,NA,NA,NA,NA,NA,NA,NA,NA,NA,NA,NA,NA,NA,NA,NA,NA
"369","stim/objects/HouseObjects/glass3.png",404,3,397,0.9,"stim/53.jpeg",5,3,3,2,"HouseObjects",2,2,"right","right",0.531999826,1,1,1,0,NA,NA,NA,NA,NA,NA,NA,NA,NA,NA,NA,NA,NA,NA,NA,NA,NA,NA,NA,NA,NA,NA,NA,NA
"253","stim/objects/HouseObjects/bleachbottle3.png",405,3,398,0.5,"stim/14.jpeg",1,4,1,2,"HouseObjects",2,3,"right","right",0.652999878,1,1,1,0,NA,NA,NA,NA,NA,NA,NA,NA,NA,NA,NA,NA,NA,NA,NA,NA,NA,NA,NA,NA,NA,NA,NA,NA
"498","stim/objects/Instruments/frenchhorn3.png",406,3,399,0.9,"stim/61.jpeg",6,1,3,2,"Instruments",1,3,"left","right",0.649999857,0,0,1,0,NA,NA,NA,NA,NA,NA,NA,NA,NA,NA,NA,NA,NA,NA,NA,NA,NA,NA,NA,NA,NA,NA,NA,NA
"384","stim/objects/HouseObjects/iron3.png",407,3,400,0.5,"stim/12.jpeg",1,2,1,1,"HouseObjects",2,2,"right","right",0.538999796,1,1,1,0,180,3,1,0.5,1,"stim/12.jpeg",1,2,"stim/12.jpeg",2,"left",2.670999765,1,3,1.11500001,3,0.546999931,180,1,0,0,0,0,1
"242","stim/objects/HouseObjects/ashtray3.png",408,3,401,0.5,"stim/14.jpeg",1,4,1,2,"HouseObjects",2,1,"right","right",0.256000042,1,1,1,0,NA,NA,NA,NA,NA,NA,NA,NA,NA,NA,NA,NA,NA,NA,NA,NA,NA,NA,NA,NA,NA,NA,NA,NA
"545","stim/objects/Instruments/harp3.png",409,3,402,0.5,"stim/11.jpeg",1,1,1,1,"Instruments",1,2,"left","right",0.638000011,0,0,1,0,185,3,1,0.5,1,"stim/11.jpeg",1,1,"stim/11.jpeg",2,"left",0.812999964,3,4,0.733999729,4,0.581999779,185,1,0,0,0,0,1
"248","stim/objects/HouseObjects/barbecuelighter3.png",410,3,403,0.5,"stim/13.jpeg",1,3,1,2,"HouseObjects",2,3,"right","right",0.67599988,1,1,1,0,NA,NA,NA,NA,NA,NA,NA,NA,NA,NA,NA,NA,NA,NA,NA,NA,NA,NA,NA,NA,NA,NA,NA,NA
"514","stim/objects/Instruments/gong3.png",411,3,404,0.9,"stim/62.jpeg",6,2,3,2,"Instruments",1,1,"left","left",0.585999966,1,1,1,0,NA,NA,NA,NA,NA,NA,NA,NA,NA,NA,NA,NA,NA,NA,NA,NA,NA,NA,NA,NA,NA,NA,NA,NA
"258","stim/objects/HouseObjects/blender4.png",412,3,405,0.3,"stim/42.jpeg",4,2,2,1,"HouseObjects",2,2,"right","left",0.648999929,0,0,1,0,34,3,1,0.3,2,"stim/42.jpeg",4,2,"stim/42.jpeg",2,"right",2.246999741,2,3,1.64599967,3,0.801999807,34,0,0,NA,0,NA,1
"353","stim/objects/HouseObjects/garbagebin3.png",413,3,406,0.9,"stim/51.jpeg",5,1,3,2,"HouseObjects",2,4,"right","right",0.645999908,1,1,1,0,NA,NA,NA,NA,NA,NA,NA,NA,NA,NA,NA,NA,NA,NA,NA,NA,NA,NA,NA,NA,NA,NA,NA,NA
"465","stim/objects/Instruments/flute3.png",414,3,407,0.9,"stim/62.jpeg",6,2,3,2,"Instruments",1,1,"left","left",0.61899972,1,1,1,0,NA,NA,NA,NA,NA,NA,NA,NA,NA,NA,NA,NA,NA,NA,NA,NA,NA,NA,NA,NA,NA,NA,NA,NA
"534","stim/objects/Instruments/grandpiano3.png",415,3,408,0.9,"stim/63.jpeg",6,3,3,2,"Instruments",1,3,"left","left",0.562000036,1,1,1,0,NA,NA,NA,NA,NA,NA,NA,NA,NA,NA,NA,NA,NA,NA,NA,NA,NA,NA,NA,NA,NA,NA,NA,NA
"432","stim/objects/Instruments/clarinet4.png",416,3,409,0.7,"stim/43.jpeg",4,3,2,1,"Instruments",1,3,"left","left",0.700999975,1,1,1,0,104,3,1,0.7,1,"stim/43.jpeg",4,3,"stim/43.jpeg",3,"left",1.195999861,3,4,1.102999687,2,1.342000008,104,1,0,0,0,0,1
"368","stim/objects/HouseObjects/glass3.png",417,3,410,0.9,"stim/52.jpeg",5,2,3,2,"HouseObjects",2,1,"right","right",0.660999775,1,1,1,0,NA,NA,NA,NA,NA,NA,NA,NA,NA,NA,NA,NA,NA,NA,NA,NA,NA,NA,NA,NA,NA,NA,NA,NA
"535","stim/objects/Instruments/grandpiano3.png",418,3,411,0.9,"stim/63.jpeg",6,3,3,2,"Instruments",1,1,"left","left",0.66899991,1,1,1,0,NA,NA,NA,NA,NA,NA,NA,NA,NA,NA,NA,NA,NA,NA,NA,NA,NA,NA,NA,NA,NA,NA,NA,NA
"354","stim/objects/HouseObjects/garbagebin3.png",419,3,412,0.9,"stim/52.jpeg",5,2,3,2,"HouseObjects",2,4,"right","right",0.623999834,1,1,1,0,NA,NA,NA,NA,NA,NA,NA,NA,NA,NA,NA,NA,NA,NA,NA,NA,NA,NA,NA,NA,NA,NA,NA,NA
"278","stim/objects/HouseObjects/clothespin4.png",420,3,413,0.3,"stim/44.jpeg",4,4,2,1,"HouseObjects",2,4,"right","right",0.782999754,1,1,1,0,181,3,1,0.3,2,"stim/44.jpeg",4,4,"stim/44.jpeg",4,"right",3.061999798,2,3,0.710999966,3,0.654000044,181,0,0,NA,0,NA,1
"391","stim/objects/HouseObjects/knife4.png",421,3,414,0.1,"stim/61.jpeg",6,1,3,1,"HouseObjects",2,3,"right","",NA,0,0,1,0,95,3,1,0.1,2,"stim/61.jpeg",6,1,"stim/61.jpeg",3,"right",1.654999971,3,3,1.110999823,3,0.400999784,95,0,0,NA,1,NA,1
"320","stim/objects/HouseObjects/dustpan3.png",422,3,415,0.9,"stim/54.jpeg",5,4,3,2,"HouseObjects",2,1,"right","right",0.763000011,1,1,1,0,NA,NA,NA,NA,NA,NA,NA,NA,NA,NA,NA,NA,NA,NA,NA,NA,NA,NA,NA,NA,NA,NA,NA,NA
"335","stim/objects/HouseObjects/flyswatter3.png",423,3,416,0.9,"stim/52.jpeg",5,2,3,2,"HouseObjects",2,1,"right","right",0.682999849,1,1,1,0,NA,NA,NA,NA,NA,NA,NA,NA,NA,NA,NA,NA,NA,NA,NA,NA,NA,NA,NA,NA,NA,NA,NA,NA
"460","stim/objects/Instruments/flute3.png",424,3,417,0.9,"stim/64.jpeg",6,4,3,2,"Instruments",1,4,"left","left",0.664000034,1,1,1,0,NA,NA,NA,NA,NA,NA,NA,NA,NA,NA,NA,NA,NA,NA,NA,NA,NA,NA,NA,NA,NA,NA,NA,NA
"362","stim/objects/HouseObjects/glass3.png",425,3,418,0.9,"stim/54.jpeg",5,4,3,2,"HouseObjects",2,2,"right","right",0.68599987,1,1,1,0,NA,NA,NA,NA,NA,NA,NA,NA,NA,NA,NA,NA,NA,NA,NA,NA,NA,NA,NA,NA,NA,NA,NA,NA
"406","stim/objects/Instruments/accordion3.png",426,3,419,0.5,"stim/12.jpeg",1,2,1,2,"Instruments",1,4,"left","right",0.790999651,0,0,1,0,NA,NA,NA,NA,NA,NA,NA,NA,NA,NA,NA,NA,NA,NA,NA,NA,NA,NA,NA,NA,NA,NA,NA,NA
"494","stim/objects/Instruments/frenchhorn3.png",427,3,420,0.9,"stim/64.jpeg",6,4,3,2,"Instruments",1,1,"left","right",0.537999868,0,0,1,0,NA,NA,NA,NA,NA,NA,NA,NA,NA,NA,NA,NA,NA,NA,NA,NA,NA,NA,NA,NA,NA,NA,NA,NA
"352","stim/objects/HouseObjects/garbagebin3.png",428,3,421,0.9,"stim/54.jpeg",5,4,3,2,"HouseObjects",2,3,"right","right",0.751999855,1,1,1,0,NA,NA,NA,NA,NA,NA,NA,NA,NA,NA,NA,NA,NA,NA,NA,NA,NA,NA,NA,NA,NA,NA,NA,NA
"387","stim/objects/HouseObjects/ironingboard4.png",429,3,422,0.1,"stim/63.jpeg",6,3,3,1,"HouseObjects",2,4,"right","left",0.621999741,0,0,1,0,136,3,1,0.1,2,"stim/63.jpeg",6,3,"stim/63.jpeg",4,"right",0.898999929,3,3,5.122999907,2,1.672999859,136,0,1,NA,0,NA,1
"397","stim/objects/HouseObjects/pan4.png",430,3,423,0.1,"stim/64.jpeg",6,4,3,1,"HouseObjects",2,2,"right","left",0.626999855,0,0,1,0,98,3,1,0.1,2,"stim/64.jpeg",6,4,"stim/64.jpeg",2,"left",1.091999769,2,3,2.280999899,3,0.782999992,98,1,0,0,0,0,1
"447","stim/objects/Instruments/drums4.png",431,3,424,0.7,"stim/43.jpeg",4,3,2,1,"Instruments",1,4,"left","left",0.761999846,1,1,1,0,183,3,1,0.7,1,"stim/43.jpeg",4,3,"stim/43.jpeg",4,"left",0.867999792,3,2,1.289000034,3,1.640999794,183,1,0,0,0,0,1
"281","stim/objects/HouseObjects/coffee3.png",432,3,425,0.7,"stim/33.jpeg",3,3,2,2,"HouseObjects",2,1,"right","right",0.697999954,1,1,1,0,NA,NA,NA,NA,NA,NA,NA,NA,NA,NA,NA,NA,NA,NA,NA,NA,NA,NA,NA,NA,NA,NA,NA,NA
"484","stim/objects/Instruments/flutetrans3.png",433,3,426,0.9,"stim/62.jpeg",6,2,3,2,"Instruments",1,2,"left","left",0.547999859,1,1,1,0,NA,NA,NA,NA,NA,NA,NA,NA,NA,NA,NA,NA,NA,NA,NA,NA,NA,NA,NA,NA,NA,NA,NA,NA
"485","stim/objects/Instruments/flutetrans3.png",434,3,427,0.9,"stim/63.jpeg",6,3,3,2,"Instruments",1,1,"left","left",0.483999729,1,1,1,0,NA,NA,NA,NA,NA,NA,NA,NA,NA,NA,NA,NA,NA,NA,NA,NA,NA,NA,NA,NA,NA,NA,NA,NA
"245","stim/objects/HouseObjects/ballofstring3.png",435,3,428,0.5,"stim/11.jpeg",1,1,1,2,"HouseObjects",2,2,"right","right",0.627999783,1,1,1,0,NA,NA,NA,NA,NA,NA,NA,NA,NA,NA,NA,NA,NA,NA,NA,NA,NA,NA,NA,NA,NA,NA,NA,NA
"377","stim/objects/HouseObjects/glassmop4.png",436,3,429,0.9,"stim/54.jpeg",5,4,3,1,"HouseObjects",2,3,"right","right",0.860999823,1,1,1,0,178,3,1,0.9,2,"stim/54.jpeg",5,4,"stim/54.jpeg",3,"left",1.061999798,4,4,1.832999945,3,0.818999767,178,1,1,1,1,1,1
"333","stim/objects/HouseObjects/flyswatter3.png",437,3,430,0.9,"stim/51.jpeg",5,1,3,2,"HouseObjects",2,4,"right","right",0.605999947,1,1,1,0,NA,NA,NA,NA,NA,NA,NA,NA,NA,NA,NA,NA,NA,NA,NA,NA,NA,NA,NA,NA,NA,NA,NA,NA
"355","stim/objects/HouseObjects/garbagebin3.png",438,3,431,0.9,"stim/54.jpeg",5,4,3,2,"HouseObjects",2,2,"right","right",0.561999798,1,1,1,0,NA,NA,NA,NA,NA,NA,NA,NA,NA,NA,NA,NA,NA,NA,NA,NA,NA,NA,NA,NA,NA,NA,NA,NA
"518","stim/objects/Instruments/gong3.png",439,3,432,0.9,"stim/64.jpeg",6,4,3,2,"Instruments",1,2,"left","left",0.641000032,1,1,1,0,NA,NA,NA,NA,NA,NA,NA,NA,NA,NA,NA,NA,NA,NA,NA,NA,NA,NA,NA,NA,NA,NA,NA,NA
"392","stim/objects/HouseObjects/lintroller3.png",440,3,433,0.5,"stim/23.jpeg",2,3,1,1,"HouseObjects",2,3,"right","left",0.829999685,0,0,1,0,89,3,1,0.5,2,"stim/23.jpeg",2,3,"stim/23.jpeg",3,"right",1.156999826,2,2,1.424999952,1,0.480000019,89,0,0,NA,0,NA,1
"529","stim/objects/Instruments/grandpiano3.png",441,3,434,0.9,"stim/64.jpeg",6,4,3,2,"Instruments",1,3,"left","left",0.609999895,1,1,1,0,NA,NA,NA,NA,NA,NA,NA,NA,NA,NA,NA,NA,NA,NA,NA,NA,NA,NA,NA,NA,NA,NA,NA,NA
"417","stim/objects/Instruments/banjo4.png",442,3,435,0.3,"stim/31.jpeg",3,1,2,1,"Instruments",1,3,"left","left",0.59499979,1,1,1,0,90,3,1,0.3,1,"stim/31.jpeg",3,1,"stim/31.jpeg",3,"left",0.80099988,3,4,0.944999933,3,0.894999743,90,1,0,0,1,1,1
"336","stim/objects/HouseObjects/flyswatter3.png",443,3,436,0.9,"stim/51.jpeg",5,1,3,2,"HouseObjects",2,3,"right","right",0.614999771,1,1,1,0,NA,NA,NA,NA,NA,NA,NA,NA,NA,NA,NA,NA,NA,NA,NA,NA,NA,NA,NA,NA,NA,NA,NA,NA
"448","stim/objects/Instruments/electricdrumset3.png",444,3,437,0.7,"stim/41.jpeg",4,1,2,2,"Instruments",1,1,"left","left",0.69299984,1,1,1,0,NA,NA,NA,NA,NA,NA,NA,NA,NA,NA,NA,NA,NA,NA,NA,NA,NA,NA,NA,NA,NA,NA,NA,NA
"364","stim/objects/HouseObjects/glass3.png",445,3,438,0.9,"stim/52.jpeg",5,2,3,2,"HouseObjects",2,4,"right","left",0.555999756,0,0,1,0,NA,NA,NA,NA,NA,NA,NA,NA,NA,NA,NA,NA,NA,NA,NA,NA,NA,NA,NA,NA,NA,NA,NA,NA
"513","stim/objects/Instruments/gong3.png",446,3,439,0.9,"stim/61.jpeg",6,1,3,2,"Instruments",1,1,"left","left",0.669999838,1,1,1,0,NA,NA,NA,NA,NA,NA,NA,NA,NA,NA,NA,NA,NA,NA,NA,NA,NA,NA,NA,NA,NA,NA,NA,NA
"267","stim/objects/HouseObjects/bucket4.png",447,3,440,0.3,"stim/41.jpeg",4,1,2,1,"HouseObjects",2,1,"right","left",0.804999828,0,0,1,0,60,3,1,0.3,2,"stim/41.jpeg",4,1,"stim/41.jpeg",1,"left",1.063999891,2,3,1.127999783,3,0.854999781,60,1,0,0,0,0,1
"375","stim/objects/HouseObjects/glass4.png",448,3,441,0.9,"stim/53.jpeg",5,3,3,1,"HouseObjects",2,4,"right","right",0.690999746,1,1,1,0,52,3,1,0.9,2,"stim/53.jpeg",5,3,"stim/53.jpeg",4,"right",1.0849998,2,3,1.562000036,3,1.021999836,52,0,1,NA,0,NA,1
"372","stim/objects/HouseObjects/glass3.png",449,3,442,0.9,"stim/52.jpeg",5,2,3,2,"HouseObjects",2,2,"right","right",0.583999872,1,1,1,0,NA,NA,NA,NA,NA,NA,NA,NA,NA,NA,NA,NA,NA,NA,NA,NA,NA,NA,NA,NA,NA,NA,NA,NA
"272","stim/objects/HouseObjects/clothesdryingrack3.png",450,3,443,0.7,"stim/33.jpeg",3,3,2,2,"HouseObjects",2,4,"right","right",0.627999783,1,1,1,0,NA,NA,NA,NA,NA,NA,NA,NA,NA,NA,NA,NA,NA,NA,NA,NA,NA,NA,NA,NA,NA,NA,NA,NA
"290","stim/objects/HouseObjects/dishsoap4.png",451,3,444,0.3,"stim/43.jpeg",4,3,2,1,"HouseObjects",2,1,"right","right",0.782999992,1,1,1,0,170,3,1,0.3,2,"stim/43.jpeg",4,3,"stim/43.jpeg",1,"left",0.797999859,1,3,3.279999733,3,0.894999981,170,1,1,1,0,0,1
"294","stim/objects/HouseObjects/doormat3.png",452,3,445,0.9,"stim/51.jpeg",5,1,3,2,"HouseObjects",2,3,"right","right",0.532999992,1,1,1,0,NA,NA,NA,NA,NA,NA,NA,NA,NA,NA,NA,NA,NA,NA,NA,NA,NA,NA,NA,NA,NA,NA,NA,NA
"322","stim/objects/HouseObjects/dustpan3.png",453,3,446,0.9,"stim/51.jpeg",5,1,3,2,"HouseObjects",2,2,"right","right",0.61199975,1,1,1,0,NA,NA,NA,NA,NA,NA,NA,NA,NA,NA,NA,NA,NA,NA,NA,NA,NA,NA,NA,NA,NA,NA,NA,NA
"398","stim/objects/HouseObjects/pitcher3.png",454,3,447,0.7,"stim/33.jpeg",3,3,2,1,"HouseObjects",2,2,"right","right",0.553999901,1,1,1,0,56,3,1,0.7,2,"stim/33.jpeg",3,3,"stim/33.jpeg",2,"right",1.976999998,2,3,0.838999748,4,0.914000034,56,0,1,NA,0,NA,1
"319","stim/objects/HouseObjects/dustpan3.png",455,3,448,0.9,"stim/53.jpeg",5,3,3,2,"HouseObjects",2,1,"right","right",0.804999828,1,1,1,0,NA,NA,NA,NA,NA,NA,NA,NA,NA,NA,NA,NA,NA,NA,NA,NA,NA,NA,NA,NA,NA,NA,NA,NA
"500","stim/objects/Instruments/frenchhorn3.png",456,3,449,0.9,"stim/61.jpeg",6,1,3,2,"Instruments",1,4,"left","right",0.634999752,0,0,1,0,NA,NA,NA,NA,NA,NA,NA,NA,NA,NA,NA,NA,NA,NA,NA,NA,NA,NA,NA,NA,NA,NA,NA,NA
"537","stim/objects/Instruments/grandpiano3.png",457,3,450,0.9,"stim/62.jpeg",6,2,3,2,"Instruments",1,3,"left","left",0.59499979,1,1,1,0,NA,NA,NA,NA,NA,NA,NA,NA,NA,NA,NA,NA,NA,NA,NA,NA,NA,NA,NA,NA,NA,NA,NA,NA
"450","stim/objects/Instruments/electricdrumset3.png",458,3,451,0.7,"stim/42.jpeg",4,2,2,2,"Instruments",1,3,"left","left",0.613999844,1,1,1,0,NA,NA,NA,NA,NA,NA,NA,NA,NA,NA,NA,NA,NA,NA,NA,NA,NA,NA,NA,NA,NA,NA,NA,NA
"504","stim/objects/Instruments/frenchhorn3.png",459,3,452,0.9,"stim/62.jpeg",6,2,3,2,"Instruments",1,4,"left","left",0.585999966,1,1,1,0,NA,NA,NA,NA,NA,NA,NA,NA,NA,NA,NA,NA,NA,NA,NA,NA,NA,NA,NA,NA,NA,NA,NA,NA
"413","stim/objects/Instruments/balalaika3.png",460,3,453,0.5,"stim/13.jpeg",1,3,1,2,"Instruments",1,1,"left","left",0.570999861,1,1,1,0,NA,NA,NA,NA,NA,NA,NA,NA,NA,NA,NA,NA,NA,NA,NA,NA,NA,NA,NA,NA,NA,NA,NA,NA
"305","stim/objects/HouseObjects/doormat3.png",461,3,454,0.9,"stim/52.jpeg",5,2,3,2,"HouseObjects",2,4,"right","right",0.580999851,1,1,1,0,NA,NA,NA,NA,NA,NA,NA,NA,NA,NA,NA,NA,NA,NA,NA,NA,NA,NA,NA,NA,NA,NA,NA,NA
"533","stim/objects/Instruments/grandpiano3.png",462,3,455,0.9,"stim/61.jpeg",6,1,3,2,"Instruments",1,4,"left","left",0.625,1,1,1,0,NA,NA,NA,NA,NA,NA,NA,NA,NA,NA,NA,NA,NA,NA,NA,NA,NA,NA,NA,NA,NA,NA,NA,NA
"270","stim/objects/HouseObjects/clock4.png",463,3,456,0.3,"stim/42.jpeg",4,2,2,1,"HouseObjects",2,2,"right","left",0.655999899,0,0,1,0,188,3,1,0.3,2,"stim/42.jpeg",4,2,"stim/42.jpeg",2,"left",1.705999851,3,4,0.561999798,3,1.278999805,188,1,0,0,0,0,1
"499","stim/objects/Instruments/frenchhorn3.png",464,3,457,0.9,"stim/61.jpeg",6,1,3,2,"Instruments",1,1,"left","left",0.582999945,1,1,1,0,NA,NA,NA,NA,NA,NA,NA,NA,NA,NA,NA,NA,NA,NA,NA,NA,NA,NA,NA,NA,NA,NA,NA,NA
"423","stim/objects/Instruments/bassguitar4.png",465,3,458,0.7,"stim/44.jpeg",4,4,2,1,"Instruments",1,1,"left","left",0.859999895,1,1,1,0,153,3,1,0.7,1,"stim/44.jpeg",4,4,"stim/44.jpeg",1,"left",0.76699996,3,3,1.245999813,4,0.713999748,153,1,0,0,0,0,1
"487","stim/objects/Instruments/flutetrans3.png",466,3,459,0.9,"stim/61.jpeg",6,1,3,2,"Instruments",1,2,"left","right",0.586999893,0,0,1,0,NA,NA,NA,NA,NA,NA,NA,NA,NA,NA,NA,NA,NA,NA,NA,NA,NA,NA,NA,NA,NA,NA,NA,NA
"348","stim/objects/HouseObjects/garbagebin3.png",467,3,460,0.9,"stim/52.jpeg",5,2,3,2,"HouseObjects",2,1,"right","right",0.770999908,1,1,1,0,NA,NA,NA,NA,NA,NA,NA,NA,NA,NA,NA,NA,NA,NA,NA,NA,NA,NA,NA,NA,NA,NA,NA,NA
"422","stim/objects/Instruments/bassguitar3.png",468,3,461,0.5,"stim/23.jpeg",2,3,1,2,"Instruments",1,4,"left","left",0.814999819,1,1,1,0,NA,NA,NA,NA,NA,NA,NA,NA,NA,NA,NA,NA,NA,NA,NA,NA,NA,NA,NA,NA,NA,NA,NA,NA
"292","stim/objects/HouseObjects/doormat3.png",469,3,462,0.9,"stim/52.jpeg",5,2,3,2,"HouseObjects",2,3,"right","right",0.659999847,1,1,1,0,NA,NA,NA,NA,NA,NA,NA,NA,NA,NA,NA,NA,NA,NA,NA,NA,NA,NA,NA,NA,NA,NA,NA,NA
