"","participant","trial_index","trial_cond","scn_file","scn_cat","scn_inst","scn_condition","fillers","obj_cat","obj_cat_num","obj_file","quadrant","corr_ans","key_resp_trial.keys","key_resp_trial.rt","trial_acc","trial_acc_manual","group"
"1",3,1,0.5,"stim/22.jpeg",2,2,1,NA,"HouseObjects",2,"stim/objects/HouseObjects/saw.png",3,"right","left",0.557999849,0,0,1
"2",3,2,0.5,"stim/22.jpeg",2,2,1,NA,"Instruments",1,"stim/objects/Instruments/speaker.png",1,"left","left",0.701999903,1,1,1
"3",3,3,0.1,"stim/63.jpeg",6,3,3,NA,"HouseObjects",2,"stim/objects/HouseObjects/thermometer2.png",4,"right","left",0.686999798,0,0,1
"4",3,4,0.7,"stim/32.jpeg",3,2,2,NA,"HouseObjects",2,"stim/objects/HouseObjects/teapot.png",4,"right","right",0.782999754,1,1,1
"5",3,5,0.7,"stim/43.jpeg",4,3,2,NA,"Instruments",1,"stim/objects/Instruments/record2.png",1,"left","left",0.689999819,1,1,1
"6",3,6,0.3,"stim/44.jpeg",4,4,2,NA,"HouseObjects",2,"stim/objects/HouseObjects/rug2.png",1,"right","",NA,0,0,1
"7",3,7,0.5,"stim/22.jpeg",2,2,1,NA,"HouseObjects",2,"stim/objects/HouseObjects/saw.png",1,"right","",NA,0,0,1
"8",3,8,0.9,"stim/51.jpeg",5,1,3,NA,"HouseObjects",2,"stim/objects/HouseObjects/safetypin2.png",4,"right","left",0.670999765,0,0,1
"9",3,9,0.3,"stim/33.jpeg",3,3,2,NA,"Instruments",1,"stim/objects/Instruments/trumpet.png",1,"left","right",0.808999777,0,0,1
"10",3,10,0.7,"stim/42.jpeg",4,2,2,NA,"Instruments",1,"stim/objects/Instruments/pipepiano2.png",4,"left","left",0.663999796,1,1,1
"11",3,11,0.5,"stim/21.jpeg",2,1,1,NA,"HouseObjects",2,"stim/objects/HouseObjects/safetypin.png",4,"right","right",0.839999914,1,1,1
"12",3,12,0.5,"stim/11.jpeg",1,1,1,NA,"Instruments",1,"stim/objects/Instruments/panflute.png",4,"left","right",0.762999773,0,0,1
"13",3,13,0.9,"stim/52.jpeg",5,2,3,NA,"HouseObjects",2,"stim/objects/HouseObjects/saw2.png",2,"right","right",0.606999874,1,1,1
"14",3,14,0.7,"stim/43.jpeg",4,3,2,NA,"Instruments",1,"stim/objects/Instruments/record2.png",1,"left","left",0.803999662,1,1,1
"15",3,15,0.1,"stim/52.jpeg",5,2,3,NA,"Instruments",1,"stim/objects/Instruments/speaker2.png",3,"left","right",0.647999763,0,0,1
"16",3,16,0.9,"stim/61.jpeg",6,1,3,NA,"Instruments",1,"stim/objects/Instruments/triangle2.png",2,"left","left",0.686999798,1,1,1
"17",3,17,0.5,"stim/14.jpeg",1,4,1,NA,"Instruments",1,"stim/objects/Instruments/record_player.png",4,"left","right",0.774999857,0,0,1
"18",3,18,0.9,"stim/64.jpeg",6,4,3,NA,"Instruments",1,"stim/objects/Instruments/tuba2.png",3,"left","left",0.545999765,1,1,1
"19",3,19,0.3,"stim/43.jpeg",4,3,2,NA,"HouseObjects",2,"stim/objects/HouseObjects/rubbergloves2.png",4,"right","left",0.687999725,0,0,1
"20",3,20,0.9,"stim/51.jpeg",5,1,3,NA,"HouseObjects",2,"stim/objects/HouseObjects/safetypin2.png",1,"right","right",0.690999985,1,1,1
"21",3,21,0.7,"stim/42.jpeg",4,2,2,NA,"Instruments",1,"stim/objects/Instruments/pipepiano2.png",4,"left","left",0.802999973,1,1,1
"22",3,22,0.5,"stim/24.jpeg",2,4,1,NA,"Instruments",1,"stim/objects/Instruments/timbal.png",3,"left","",NA,0,0,1
"23",3,23,0.9,"stim/52.jpeg",5,2,3,NA,"HouseObjects",2,"stim/objects/HouseObjects/saw2.png",1,"right","",NA,0,0,1
"24",3,24,0.5,"stim/14.jpeg",1,4,1,NA,"HouseObjects",2,"stim/objects/HouseObjects/rug.png",3,"right","left",0.750999928,0,0,1
"25",3,25,0.3,"stim/32.jpeg",3,2,2,NA,"Instruments",1,"stim/objects/Instruments/trombone.png",2,"left","right",0.460999727,0,0,1
"26",3,26,0.9,"stim/53.jpeg",5,3,3,NA,"HouseObjects",2,"stim/objects/HouseObjects/scale2.png",1,"right","left",0.635999918,0,0,1
"27",3,27,0.9,"stim/62.jpeg",6,2,3,NA,"Instruments",1,"stim/objects/Instruments/trombone2.png",1,"left","left",0.551999807,1,1,1
"28",3,28,0.9,"stim/51.jpeg",5,1,3,NA,"HouseObjects",2,"stim/objects/HouseObjects/safetypin2.png",1,"right","right",0.61199975,1,1,1
"29",3,29,0.7,"stim/41.jpeg",4,1,2,NA,"Instruments",1,"stim/objects/Instruments/panflute2.png",1,"left","right",0.689999819,0,0,1
"30",3,30,0.9,"stim/61.jpeg",6,1,3,NA,"Instruments",1,"stim/objects/Instruments/triangle2.png",2,"left","left",0.59499979,1,1,1
"31",3,31,0.9,"stim/54.jpeg",5,4,3,NA,"HouseObjects",2,"stim/objects/HouseObjects/sponge2.png",1,"right","",NA,0,0,1
"32",3,32,0.3,"stim/34.jpeg",3,4,2,NA,"Instruments",1,"stim/objects/Instruments/tuba.png",2,"left","right",0.721999884,0,0,1
"33",3,33,0.3,"stim/31.jpeg",3,1,2,NA,"Instruments",1,"stim/objects/Instruments/triangle.png",3,"left","right",0.648000002,0,0,1
"34",3,34,0.9,"stim/62.jpeg",6,2,3,NA,"Instruments",1,"stim/objects/Instruments/trombone2.png",1,"left","left",0.546999693,1,1,1
"35",3,35,0.5,"stim/21.jpeg",2,1,1,NA,"Instruments",1,"stim/objects/Instruments/saxophone.png",4,"left","right",0.598999977,0,0,1
"36",3,36,0.7,"stim/41.jpeg",4,1,2,NA,"Instruments",1,"stim/objects/Instruments/panflute2.png",1,"left","left",0.570999861,1,1,1
"37",3,37,0.7,"stim/43.jpeg",4,3,2,NA,"Instruments",1,"stim/objects/Instruments/record2.png",1,"left","left",0.679999828,1,1,1
"38",3,38,0.9,"stim/53.jpeg",5,3,3,NA,"HouseObjects",2,"stim/objects/HouseObjects/scale2.png",2,"right","right",0.606999874,1,1,1
"39",3,39,0.5,"stim/11.jpeg",1,1,1,NA,"HouseObjects",2,"stim/objects/HouseObjects/recyclingbin.png",1,"right","right",0.572999716,1,1,1
"40",3,40,0.5,"stim/23.jpeg",2,3,1,NA,"HouseObjects",2,"stim/objects/HouseObjects/scale.png",1,"right","left",0.901999712,0,0,1
"41",3,41,0.9,"stim/64.jpeg",6,4,3,NA,"Instruments",1,"stim/objects/Instruments/tuba2.png",3,"left","left",0.631999731,1,1,1
"42",3,42,0.5,"stim/12.jpeg",1,2,1,NA,"HouseObjects",2,"stim/objects/HouseObjects/remote.png",2,"right","right",0.665999889,1,1,1
"43",3,43,0.5,"stim/12.jpeg",1,2,1,NA,"HouseObjects",2,"stim/objects/HouseObjects/remote.png",3,"right","right",0.695999861,1,1,1
"44",3,44,0.5,"stim/11.jpeg",1,1,1,NA,"HouseObjects",2,"stim/objects/HouseObjects/recyclingbin.png",2,"right","",NA,0,0,1
"45",3,45,0.5,"stim/24.jpeg",2,4,1,NA,"HouseObjects",2,"stim/objects/HouseObjects/sponge.png",2,"right","right",0.569000006,1,1,1
"46",3,46,0.5,"stim/14.jpeg",1,4,1,NA,"Instruments",1,"stim/objects/Instruments/record_player.png",1,"left","right",0.782999754,0,0,1
"47",3,47,0.5,"stim/13.jpeg",1,3,1,NA,"Instruments",1,"stim/objects/Instruments/record.png",2,"left","left",0.710999966,1,1,1
"48",3,48,0.7,"stim/34.jpeg",3,4,2,NA,"HouseObjects",2,"stim/objects/HouseObjects/thread.png",2,"right","right",0.77099967,1,1,1
"49",3,49,0.9,"stim/51.jpeg",5,1,3,NA,"HouseObjects",2,"stim/objects/HouseObjects/safetypin2.png",2,"right","right",0.599999666,1,1,1
"50",3,50,0.5,"stim/11.jpeg",1,1,1,NA,"HouseObjects",2,"stim/objects/HouseObjects/recyclingbin.png",2,"right","right",0.493999958,1,1,1
"51",3,51,0.9,"stim/63.jpeg",6,3,3,NA,"Instruments",1,"stim/objects/Instruments/trumpet2.png",3,"left","left",0.540999889,1,1,1
"52",3,52,0.5,"stim/22.jpeg",2,2,1,NA,"HouseObjects",2,"stim/objects/HouseObjects/saw.png",1,"right","right",0.44299984,1,1,1
"53",3,53,0.5,"stim/24.jpeg",2,4,1,NA,"Instruments",1,"stim/objects/Instruments/timbal.png",4,"left","left",0.707999706,1,1,1
"54",3,54,0.3,"stim/42.jpeg",4,2,2,NA,"HouseObjects",2,"stim/objects/HouseObjects/remote2.png",2,"right","left",0.698999882,0,0,1
"55",3,55,0.5,"stim/14.jpeg",1,4,1,NA,"Instruments",1,"stim/objects/Instruments/record_player.png",4,"left","left",0.718999863,1,1,1
"56",3,56,0.7,"stim/32.jpeg",3,2,2,NA,"HouseObjects",2,"stim/objects/HouseObjects/teapot.png",3,"right","right",0.615999937,1,1,1
"57",3,57,0.7,"stim/44.jpeg",4,4,2,NA,"Instruments",1,"stim/objects/Instruments/record_player2.png",1,"left","left",0.638999701,1,1,1
"58",3,58,0.5,"stim/24.jpeg",2,4,1,NA,"HouseObjects",2,"stim/objects/HouseObjects/sponge.png",2,"right","left",0.467000008,0,0,1
"59",3,59,0.9,"stim/51.jpeg",5,1,3,NA,"HouseObjects",2,"stim/objects/HouseObjects/safetypin2.png",2,"right","right",0.639999866,1,1,1
"60",3,60,0.7,"stim/43.jpeg",4,3,2,NA,"Instruments",1,"stim/objects/Instruments/record2.png",4,"left","right",0.621999979,0,0,1
"61",3,61,0.7,"stim/44.jpeg",4,4,2,NA,"Instruments",1,"stim/objects/Instruments/record_player2.png",3,"left","",NA,0,0,1
"62",3,62,0.7,"stim/41.jpeg",4,1,2,NA,"Instruments",1,"stim/objects/Instruments/panflute2.png",3,"left","left",0.487999916,1,1,1
"63",3,63,0.7,"stim/33.jpeg",3,3,2,NA,"HouseObjects",2,"stim/objects/HouseObjects/thermometer.png",4,"right","right",0.57799983,1,1,1
"64",3,64,0.5,"stim/13.jpeg",1,3,1,NA,"Instruments",1,"stim/objects/Instruments/record.png",3,"left","right",0.805999756,0,0,1
"65",3,65,0.5,"stim/11.jpeg",1,1,1,NA,"Instruments",1,"stim/objects/Instruments/panflute.png",1,"left","left",0.481999874,1,1,1
"66",3,66,0.9,"stim/61.jpeg",6,1,3,NA,"Instruments",1,"stim/objects/Instruments/triangle2.png",4,"left","left",0.677999735,1,1,1
"67",3,67,0.9,"stim/52.jpeg",5,2,3,NA,"HouseObjects",2,"stim/objects/HouseObjects/saw2.png",4,"right","right",0.712999821,1,1,1
"68",3,68,0.3,"stim/34.jpeg",3,4,2,NA,"Instruments",1,"stim/objects/Instruments/tuba.png",3,"left","right",0.803999901,0,0,1
"69",3,69,0.1,"stim/61.jpeg",6,1,3,NA,"HouseObjects",2,"stim/objects/HouseObjects/spraybottle2.png",2,"right","left",0.659999847,0,0,1
"70",3,70,0.9,"stim/61.jpeg",6,1,3,NA,"Instruments",1,"stim/objects/Instruments/triangle2.png",3,"left","left",0.422999859,1,1,1
"71",3,71,0.7,"stim/33.jpeg",3,3,2,NA,"HouseObjects",2,"stim/objects/HouseObjects/thermometer.png",2,"right","right",0.611999989,1,1,1
"72",3,72,0.9,"stim/63.jpeg",6,3,3,NA,"Instruments",1,"stim/objects/Instruments/trumpet2.png",4,"left","left",0.576999664,1,1,1
"73",3,73,0.9,"stim/52.jpeg",5,2,3,NA,"HouseObjects",2,"stim/objects/HouseObjects/saw2.png",2,"right","right",0.644999743,1,1,1
"74",3,74,0.5,"stim/24.jpeg",2,4,1,NA,"HouseObjects",2,"stim/objects/HouseObjects/sponge.png",2,"right","left",0.679999828,0,0,1
"75",3,75,0.7,"stim/41.jpeg",4,1,2,NA,"Instruments",1,"stim/objects/Instruments/panflute2.png",2,"left","right",0.576999903,0,0,1
"76",3,76,0.9,"stim/63.jpeg",6,3,3,NA,"Instruments",1,"stim/objects/Instruments/trumpet2.png",2,"left","left",0.56799984,1,1,1
"77",3,77,0.9,"stim/54.jpeg",5,4,3,NA,"HouseObjects",2,"stim/objects/HouseObjects/sponge2.png",1,"right","right",0.678999901,1,1,1
"78",3,78,0.9,"stim/64.jpeg",6,4,3,NA,"Instruments",1,"stim/objects/Instruments/tuba2.png",2,"left","left",0.654999971,1,1,1
"79",3,79,0.7,"stim/42.jpeg",4,2,2,NA,"Instruments",1,"stim/objects/Instruments/pipepiano2.png",1,"left","left",0.590999842,1,1,1
"80",3,80,0.5,"stim/23.jpeg",2,3,1,NA,"HouseObjects",2,"stim/objects/HouseObjects/scale.png",4,"right","right",0.860999823,1,1,1
"81",3,81,0.9,"stim/51.jpeg",5,1,3,NA,"HouseObjects",2,"stim/objects/HouseObjects/safetypin2.png",4,"right","right",0.609999895,1,1,1
"82",3,82,0.9,"stim/63.jpeg",6,3,3,NA,"Instruments",1,"stim/objects/Instruments/trumpet2.png",2,"left","left",0.615999699,1,1,1
"83",3,83,0.5,"stim/13.jpeg",1,3,1,NA,"HouseObjects",2,"stim/objects/HouseObjects/rubbergloves.png",2,"right","",NA,0,0,1
"84",3,84,0.9,"stim/54.jpeg",5,4,3,NA,"HouseObjects",2,"stim/objects/HouseObjects/sponge2.png",2,"right","right",0.603999853,1,1,1
"85",3,85,0.7,"stim/33.jpeg",3,3,2,NA,"HouseObjects",2,"stim/objects/HouseObjects/thermometer.png",1,"right","right",0.679999828,1,1,1
"86",3,86,0.5,"stim/21.jpeg",2,1,1,NA,"Instruments",1,"stim/objects/Instruments/saxophone.png",4,"left","left",0.773999691,1,1,1
"87",3,87,0.9,"stim/53.jpeg",5,3,3,NA,"HouseObjects",2,"stim/objects/HouseObjects/scale2.png",1,"right","right",0.523000002,1,1,1
"88",3,88,0.5,"stim/11.jpeg",1,1,1,NA,"Instruments",1,"stim/objects/Instruments/panflute.png",2,"left","right",0.669999838,0,0,1
"89",3,89,0.9,"stim/61.jpeg",6,1,3,NA,"Instruments",1,"stim/objects/Instruments/triangle2.png",2,"left","left",0.622999907,1,1,1
"90",3,90,0.5,"stim/22.jpeg",2,2,1,NA,"Instruments",1,"stim/objects/Instruments/speaker.png",4,"left","right",0.697000027,0,0,1
"91",3,91,0.9,"stim/53.jpeg",5,3,3,NA,"HouseObjects",2,"stim/objects/HouseObjects/scale2.png",2,"right","right",0.614999771,1,1,1
"92",3,92,0.7,"stim/31.jpeg",3,1,2,NA,"HouseObjects",2,"stim/objects/HouseObjects/spraybottle.png",1,"right","right",0.693000078,1,1,1
"93",3,93,0.5,"stim/23.jpeg",2,3,1,NA,"HouseObjects",2,"stim/objects/HouseObjects/scale.png",4,"right","",NA,0,0,1
"94",3,94,0.9,"stim/54.jpeg",5,4,3,NA,"HouseObjects",2,"stim/objects/HouseObjects/sponge2.png",1,"right","left",0.580999851,0,0,1
"95",3,95,0.3,"stim/42.jpeg",4,2,2,NA,"HouseObjects",2,"stim/objects/HouseObjects/remote2.png",2,"right","left",0.624999762,0,0,1
"96",3,96,0.7,"stim/44.jpeg",4,4,2,NA,"Instruments",1,"stim/objects/Instruments/record_player2.png",2,"left","",NA,0,0,1
"97",3,97,0.3,"stim/32.jpeg",3,2,2,NA,"Instruments",1,"stim/objects/Instruments/trombone.png",3,"left","left",0.441999674,1,1,1
"98",3,98,0.3,"stim/34.jpeg",3,4,2,NA,"Instruments",1,"stim/objects/Instruments/tuba.png",3,"left","left",0.52699995,1,1,1
"99",3,99,0.7,"stim/32.jpeg",3,2,2,NA,"HouseObjects",2,"stim/objects/HouseObjects/teapot.png",4,"right","right",0.564999819,1,1,1
"100",3,100,0.9,"stim/51.jpeg",5,1,3,NA,"HouseObjects",2,"stim/objects/HouseObjects/safetypin2.png",3,"right","right",0.616999865,1,1,1
"101",3,101,0.9,"stim/52.jpeg",5,2,3,NA,"HouseObjects",2,"stim/objects/HouseObjects/saw2.png",3,"right","right",0.588999987,1,1,1
"102",3,102,0.7,"stim/44.jpeg",4,4,2,NA,"Instruments",1,"stim/objects/Instruments/record_player2.png",4,"left","left",0.840999842,1,1,1
"103",3,103,0.5,"stim/24.jpeg",2,4,1,NA,"HouseObjects",2,"stim/objects/HouseObjects/sponge.png",2,"right","right",0.657999992,1,1,1
"104",3,104,0.7,"stim/33.jpeg",3,3,2,NA,"HouseObjects",2,"stim/objects/HouseObjects/thermometer.png",1,"right","left",0.631999731,0,0,1
"105",3,105,0.9,"stim/61.jpeg",6,1,3,NA,"Instruments",1,"stim/objects/Instruments/triangle2.png",3,"left","left",0.701999903,1,1,1
"106",3,106,0.5,"stim/21.jpeg",2,1,1,NA,"HouseObjects",2,"stim/objects/HouseObjects/safetypin.png",3,"right","right",0.740999699,1,1,1
"107",3,107,0.5,"stim/13.jpeg",1,3,1,NA,"HouseObjects",2,"stim/objects/HouseObjects/rubbergloves.png",3,"right","right",0.713000059,1,1,1
"108",3,108,0.5,"stim/12.jpeg",1,2,1,NA,"Instruments",1,"stim/objects/Instruments/pipepiano.png",3,"left","left",0.565999746,1,1,1
"109",3,109,0.9,"stim/54.jpeg",5,4,3,NA,"HouseObjects",2,"stim/objects/HouseObjects/sponge2.png",4,"right","right",0.606999874,1,1,1
"110",3,110,0.5,"stim/22.jpeg",2,2,1,NA,"Instruments",1,"stim/objects/Instruments/speaker.png",3,"left","right",0.318999767,0,0,1
"111",3,111,0.5,"stim/21.jpeg",2,1,1,NA,"Instruments",1,"stim/objects/Instruments/saxophone.png",3,"left","left",0.544999838,1,1,1
"112",3,112,0.7,"stim/33.jpeg",3,3,2,NA,"HouseObjects",2,"stim/objects/HouseObjects/thermometer.png",4,"right","right",0.608999968,1,1,1
"113",3,113,0.9,"stim/52.jpeg",5,2,3,NA,"HouseObjects",2,"stim/objects/HouseObjects/saw2.png",3,"right","left",0.690999746,0,0,1
"114",3,114,0.7,"stim/43.jpeg",4,3,2,NA,"Instruments",1,"stim/objects/Instruments/record2.png",3,"left","right",0.673999786,0,0,1
"115",3,115,0.3,"stim/31.jpeg",3,1,2,NA,"Instruments",1,"stim/objects/Instruments/triangle.png",2,"left","right",0.691999912,0,0,1
"116",3,116,0.7,"stim/41.jpeg",4,1,2,NA,"Instruments",1,"stim/objects/Instruments/panflute2.png",2,"left","right",0.550999641,0,0,1
"117",3,117,0.7,"stim/32.jpeg",3,2,2,NA,"HouseObjects",2,"stim/objects/HouseObjects/teapot.png",1,"right","right",0.388999939,1,1,1
"118",3,118,0.5,"stim/21.jpeg",2,1,1,NA,"HouseObjects",2,"stim/objects/HouseObjects/safetypin.png",3,"right","right",0.636999846,1,1,1
"119",3,119,0.9,"stim/54.jpeg",5,4,3,NA,"HouseObjects",2,"stim/objects/HouseObjects/sponge2.png",4,"right","right",0.722999811,1,1,1
"120",3,120,0.5,"stim/12.jpeg",1,2,1,NA,"HouseObjects",2,"stim/objects/HouseObjects/remote.png",2,"right","",NA,0,0,1
"121",3,121,0.9,"stim/64.jpeg",6,4,3,NA,"Instruments",1,"stim/objects/Instruments/tuba2.png",2,"left","left",0.625999689,1,1,1
"122",3,122,0.7,"stim/33.jpeg",3,3,2,NA,"HouseObjects",2,"stim/objects/HouseObjects/thermometer.png",4,"right","left",0.346999884,0,0,1
"123",3,123,0.7,"stim/44.jpeg",4,4,2,NA,"Instruments",1,"stim/objects/Instruments/record_player2.png",1,"left","right",0.353999853,0,0,1
"124",3,124,0.5,"stim/11.jpeg",1,1,1,NA,"HouseObjects",2,"stim/objects/HouseObjects/recyclingbin.png",3,"right","left",0.600999832,0,0,1
"125",3,125,0.1,"stim/62.jpeg",6,2,3,NA,"HouseObjects",2,"stim/objects/HouseObjects/teapot2.png",1,"right","left",0.602999926,0,0,1
"126",3,126,0.9,"stim/61.jpeg",6,1,3,NA,"Instruments",1,"stim/objects/Instruments/triangle2.png",4,"left","left",0.454999924,1,1,1
"127",3,127,0.5,"stim/13.jpeg",1,3,1,NA,"Instruments",1,"stim/objects/Instruments/record.png",1,"left","right",0.640999794,0,0,1
"128",3,128,0.5,"stim/13.jpeg",1,3,1,NA,"Instruments",1,"stim/objects/Instruments/record.png",1,"left","left",0.529999971,1,1,1
"129",3,129,0.5,"stim/23.jpeg",2,3,1,NA,"Instruments",1,"stim/objects/Instruments/tambourine.png",4,"left","",NA,0,0,1
"130",3,130,0.5,"stim/11.jpeg",1,1,1,NA,"Instruments",1,"stim/objects/Instruments/panflute.png",2,"left","left",0.688999891,1,1,1
"131",3,131,0.7,"stim/31.jpeg",3,1,2,NA,"HouseObjects",2,"stim/objects/HouseObjects/spraybottle.png",4,"right","right",0.857999802,1,1,1
"132",3,132,0.7,"stim/34.jpeg",3,4,2,NA,"HouseObjects",2,"stim/objects/HouseObjects/thread.png",3,"right","right",0.65599966,1,1,1
"133",3,133,0.7,"stim/32.jpeg",3,2,2,NA,"HouseObjects",2,"stim/objects/HouseObjects/teapot.png",3,"right","right",0.690000057,1,1,1
"134",3,134,0.3,"stim/33.jpeg",3,3,2,NA,"Instruments",1,"stim/objects/Instruments/trumpet.png",3,"left","right",0.555999994,0,0,1
"135",3,135,0.3,"stim/32.jpeg",3,2,2,NA,"Instruments",1,"stim/objects/Instruments/trombone.png",2,"left","right",0.557999849,0,0,1
"136",3,136,0.7,"stim/41.jpeg",4,1,2,NA,"Instruments",1,"stim/objects/Instruments/panflute2.png",2,"left","left",0.732999802,1,1,1
"137",3,137,0.5,"stim/12.jpeg",1,2,1,NA,"Instruments",1,"stim/objects/Instruments/pipepiano.png",4,"left","left",0.664999962,1,1,1
"138",3,138,0.9,"stim/63.jpeg",6,3,3,NA,"Instruments",1,"stim/objects/Instruments/trumpet2.png",3,"left","left",0.546999931,1,1,1
"139",3,139,0.7,"stim/44.jpeg",4,4,2,NA,"Instruments",1,"stim/objects/Instruments/record_player2.png",1,"left","left",0.72699976,1,1,1
"140",3,140,0.9,"stim/53.jpeg",5,3,3,NA,"HouseObjects",2,"stim/objects/HouseObjects/scale2.png",2,"right","right",0.678999901,1,1,1
"141",3,141,0.7,"stim/34.jpeg",3,4,2,NA,"HouseObjects",2,"stim/objects/HouseObjects/thread.png",4,"right","right",0.734999895,1,1,1
"142",3,142,0.5,"stim/23.jpeg",2,3,1,NA,"Instruments",1,"stim/objects/Instruments/tambourine.png",4,"left","",NA,0,0,1
"143",3,143,0.5,"stim/13.jpeg",1,3,1,NA,"HouseObjects",2,"stim/objects/HouseObjects/rubbergloves.png",4,"right","right",0.89199996,1,1,1
"144",3,144,0.7,"stim/31.jpeg",3,1,2,NA,"HouseObjects",2,"stim/objects/HouseObjects/spraybottle.png",3,"right","right",0.65299964,1,1,1
"145",3,145,0.1,"stim/51.jpeg",5,1,3,NA,"Instruments",1,"stim/objects/Instruments/saxophone2.png",4,"left","right",0.528999805,0,0,1
"146",3,146,0.7,"stim/32.jpeg",3,2,2,NA,"HouseObjects",2,"stim/objects/HouseObjects/teapot.png",1,"right","right",0.661999941,1,1,1
"147",3,147,0.5,"stim/22.jpeg",2,2,1,NA,"HouseObjects",2,"stim/objects/HouseObjects/saw.png",1,"right","left",0.642999887,0,0,1
"148",3,148,0.9,"stim/52.jpeg",5,2,3,NA,"HouseObjects",2,"stim/objects/HouseObjects/saw2.png",3,"right","right",0.819000006,1,1,1
"149",3,149,0.5,"stim/14.jpeg",1,4,1,NA,"Instruments",1,"stim/objects/Instruments/record_player.png",3,"left","left",0.791999817,1,1,1
"150",3,150,0.5,"stim/23.jpeg",2,3,1,NA,"Instruments",1,"stim/objects/Instruments/tambourine.png",1,"left","left",0.847999811,1,1,1
"151",3,151,0.3,"stim/33.jpeg",3,3,2,NA,"Instruments",1,"stim/objects/Instruments/trumpet.png",4,"left","right",0.569999933,0,0,1
"152",3,152,0.9,"stim/62.jpeg",6,2,3,NA,"Instruments",1,"stim/objects/Instruments/trombone2.png",4,"left","left",0.585999966,1,1,1
"153",3,153,0.5,"stim/14.jpeg",1,4,1,NA,"HouseObjects",2,"stim/objects/HouseObjects/rug.png",2,"right","left",0.604999781,0,0,1
"154",3,154,0.3,"stim/43.jpeg",4,3,2,NA,"HouseObjects",2,"stim/objects/HouseObjects/rubbergloves2.png",3,"right","right",0.321999788,1,1,1
"155",3,155,0.7,"stim/31.jpeg",3,1,2,NA,"HouseObjects",2,"stim/objects/HouseObjects/spraybottle.png",2,"right","right",0.559000015,1,1,1
"156",3,156,0.5,"stim/24.jpeg",2,4,1,NA,"Instruments",1,"stim/objects/Instruments/timbal.png",1,"left","left",0.487999916,1,1,1
"157",3,157,0.9,"stim/54.jpeg",5,4,3,NA,"HouseObjects",2,"stim/objects/HouseObjects/sponge2.png",3,"right","right",0.723999977,1,1,1
"158",3,158,0.9,"stim/62.jpeg",6,2,3,NA,"Instruments",1,"stim/objects/Instruments/trombone2.png",1,"left","left",0.786999702,1,1,1
"159",3,159,0.9,"stim/62.jpeg",6,2,3,NA,"Instruments",1,"stim/objects/Instruments/trombone2.png",1,"left","left",0.47699976,1,1,1
"160",3,160,0.7,"stim/34.jpeg",3,4,2,NA,"HouseObjects",2,"stim/objects/HouseObjects/thread.png",4,"right","right",0.780999899,1,1,1
"161",3,161,0.5,"stim/21.jpeg",2,1,1,NA,"Instruments",1,"stim/objects/Instruments/saxophone.png",3,"left","left",0.565999746,1,1,1
"162",3,162,0.9,"stim/61.jpeg",6,1,3,NA,"Instruments",1,"stim/objects/Instruments/triangle2.png",3,"left","left",0.563999653,1,1,1
"163",3,163,0.9,"stim/53.jpeg",5,3,3,NA,"HouseObjects",2,"stim/objects/HouseObjects/scale2.png",1,"right","right",0.661999941,1,1,1
"164",3,164,0.7,"stim/31.jpeg",3,1,2,NA,"HouseObjects",2,"stim/objects/HouseObjects/spraybottle.png",3,"right","left",0.613999844,0,0,1
"165",3,165,0.3,"stim/41.jpeg",4,1,2,NA,"HouseObjects",2,"stim/objects/HouseObjects/recyclingbin2.png",4,"right","right",0.457999706,1,1,1
"166",3,166,0.9,"stim/62.jpeg",6,2,3,NA,"Instruments",1,"stim/objects/Instruments/trombone2.png",1,"left","left",0.554999828,1,1,1
"167",3,167,0.9,"stim/64.jpeg",6,4,3,NA,"Instruments",1,"stim/objects/Instruments/tuba2.png",1,"left","left",0.565999746,1,1,1
"168",3,168,0.7,"stim/34.jpeg",3,4,2,NA,"HouseObjects",2,"stim/objects/HouseObjects/thread.png",3,"right","left",0.651999712,0,0,1
"169",3,169,0.5,"stim/22.jpeg",2,2,1,NA,"HouseObjects",2,"stim/objects/HouseObjects/saw.png",2,"right","right",0.494999886,1,1,1
"170",3,170,0.5,"stim/12.jpeg",1,2,1,NA,"HouseObjects",2,"stim/objects/HouseObjects/remote.png",1,"right","left",0.620999813,0,0,1
"171",3,171,0.5,"stim/22.jpeg",2,2,1,NA,"Instruments",1,"stim/objects/Instruments/speaker.png",1,"left","left",0.653999805,1,1,1
"172",3,172,0.5,"stim/23.jpeg",2,3,1,NA,"Instruments",1,"stim/objects/Instruments/tambourine.png",3,"left","left",0.60199976,1,1,1
"173",3,173,0.5,"stim/12.jpeg",1,2,1,NA,"Instruments",1,"stim/objects/Instruments/pipepiano.png",2,"left","right",0.657999992,0,0,1
"174",3,174,0.7,"stim/43.jpeg",4,3,2,NA,"Instruments",1,"stim/objects/Instruments/record2.png",3,"left","left",0.669999838,1,1,1
"175",3,175,0.5,"stim/13.jpeg",1,3,1,NA,"Instruments",1,"stim/objects/Instruments/record.png",3,"left","left",0.874999762,1,1,1
"176",3,176,0.7,"stim/41.jpeg",4,1,2,NA,"Instruments",1,"stim/objects/Instruments/panflute2.png",1,"left","left",0.880999804,1,1,1
"177",3,177,0.5,"stim/11.jpeg",1,1,1,NA,"Instruments",1,"stim/objects/Instruments/panflute.png",1,"left","right",0.726999998,0,0,1
"178",3,178,0.5,"stim/24.jpeg",2,4,1,NA,"Instruments",1,"stim/objects/Instruments/timbal.png",2,"left","left",0.582999945,1,1,1
"179",3,179,0.5,"stim/14.jpeg",1,4,1,NA,"HouseObjects",2,"stim/objects/HouseObjects/rug.png",4,"right","left",0.688999891,0,0,1
"180",3,180,0.9,"stim/64.jpeg",6,4,3,NA,"Instruments",1,"stim/objects/Instruments/tuba2.png",2,"left","left",0.618000031,1,1,1
"181",3,181,0.9,"stim/51.jpeg",5,1,3,NA,"HouseObjects",2,"stim/objects/HouseObjects/safetypin2.png",3,"right","",NA,0,0,1
"182",3,182,0.1,"stim/64.jpeg",6,4,3,NA,"HouseObjects",2,"stim/objects/HouseObjects/thread2.png",4,"right","left",0.536999941,0,0,1
"183",3,183,0.9,"stim/62.jpeg",6,2,3,NA,"Instruments",1,"stim/objects/Instruments/trombone2.png",4,"left","left",0.564999819,1,1,1
"184",3,184,0.5,"stim/23.jpeg",2,3,1,NA,"Instruments",1,"stim/objects/Instruments/tambourine.png",4,"left","left",0.593999863,1,1,1
"185",3,185,0.7,"stim/42.jpeg",4,2,2,NA,"Instruments",1,"stim/objects/Instruments/pipepiano2.png",3,"left","left",0.629999876,1,1,1
"186",3,186,0.3,"stim/31.jpeg",3,1,2,NA,"Instruments",1,"stim/objects/Instruments/triangle.png",2,"left","right",0.597999811,0,0,1
"187",3,187,0.7,"stim/44.jpeg",4,4,2,NA,"Instruments",1,"stim/objects/Instruments/record_player2.png",1,"left","left",0.40199995,1,1,1
"188",3,188,0.9,"stim/52.jpeg",5,2,3,NA,"HouseObjects",2,"stim/objects/HouseObjects/saw2.png",4,"right","left",0.533999681,0,0,1
"189",3,189,0.9,"stim/54.jpeg",5,4,3,NA,"HouseObjects",2,"stim/objects/HouseObjects/sponge2.png",2,"right","right",0.477999926,1,1,1
"190",3,190,0.7,"stim/32.jpeg",3,2,2,NA,"HouseObjects",2,"stim/objects/HouseObjects/teapot.png",1,"right","right",0.763999701,1,1,1
"191",3,191,0.3,"stim/42.jpeg",4,2,2,NA,"HouseObjects",2,"stim/objects/HouseObjects/remote2.png",3,"right","left",0.591999769,0,0,1
"192",3,192,0.5,"stim/21.jpeg",2,1,1,NA,"HouseObjects",2,"stim/objects/HouseObjects/safetypin.png",4,"right","left",0.68599987,0,0,1
"193",3,193,0.7,"stim/42.jpeg",4,2,2,NA,"Instruments",1,"stim/objects/Instruments/pipepiano2.png",1,"left","left",0.573999882,1,1,1
"194",3,194,0.9,"stim/61.jpeg",6,1,3,NA,"Instruments",1,"stim/objects/Instruments/triangle2.png",4,"left","left",0.618000031,1,1,1
"195",3,195,0.3,"stim/44.jpeg",4,4,2,NA,"HouseObjects",2,"stim/objects/HouseObjects/rug2.png",4,"right","right",0.762999773,1,1,1
"196",3,196,0.5,"stim/21.jpeg",2,1,1,NA,"Instruments",1,"stim/objects/Instruments/saxophone.png",2,"left","left",0.650999784,1,1,1
"197",3,197,0.5,"stim/23.jpeg",2,3,1,NA,"HouseObjects",2,"stim/objects/HouseObjects/scale.png",2,"right","left",0.55099988,0,0,1
"198",3,198,0.9,"stim/63.jpeg",6,3,3,NA,"Instruments",1,"stim/objects/Instruments/trumpet2.png",3,"left","left",0.615999937,1,1,1
"199",3,199,0.7,"stim/42.jpeg",4,2,2,NA,"Instruments",1,"stim/objects/Instruments/pipepiano2.png",2,"left","left",0.539999962,1,1,1
"200",3,200,0.9,"stim/53.jpeg",5,3,3,NA,"HouseObjects",2,"stim/objects/HouseObjects/scale2.png",2,"right","left",0.383999825,0,0,1
"201",3,201,0.5,"stim/12.jpeg",1,2,1,NA,"Instruments",1,"stim/objects/Instruments/pipepiano.png",1,"left","right",0.661000013,0,0,1
"202",3,202,0.5,"stim/13.jpeg",1,3,1,NA,"HouseObjects",2,"stim/objects/HouseObjects/rubbergloves.png",3,"right","right",0.690999746,1,1,1
"203",3,203,0.5,"stim/12.jpeg",1,2,1,NA,"HouseObjects",2,"stim/objects/HouseObjects/remote.png",2,"right","right",0.71999979,1,1,1
"204",3,204,0.9,"stim/62.jpeg",6,2,3,NA,"Instruments",1,"stim/objects/Instruments/trombone2.png",1,"left","left",0.538999796,1,1,1
"205",3,205,0.5,"stim/24.jpeg",2,4,1,NA,"HouseObjects",2,"stim/objects/HouseObjects/sponge.png",1,"right","left",0.694999933,0,0,1
"206",3,206,0.1,"stim/54.jpeg",5,4,3,NA,"Instruments",1,"stim/objects/Instruments/timbal2.png",1,"left","right",0.69299984,0,0,1
"207",3,207,0.9,"stim/64.jpeg",6,4,3,NA,"Instruments",1,"stim/objects/Instruments/tuba2.png",4,"left","right",0.537999868,0,0,1
"208",3,208,0.7,"stim/43.jpeg",4,3,2,NA,"Instruments",1,"stim/objects/Instruments/record2.png",2,"left","right",0.720999956,0,0,1
"209",3,209,0.3,"stim/41.jpeg",4,1,2,NA,"HouseObjects",2,"stim/objects/HouseObjects/recyclingbin2.png",3,"right","",NA,0,0,1
"210",3,210,0.3,"stim/43.jpeg",4,3,2,NA,"HouseObjects",2,"stim/objects/HouseObjects/rubbergloves2.png",4,"right","right",0.666999817,1,1,1
"211",3,211,0.3,"stim/41.jpeg",4,1,2,NA,"HouseObjects",2,"stim/objects/HouseObjects/recyclingbin2.png",4,"right","right",0.592999935,1,1,1
"212",3,212,0.1,"stim/53.jpeg",5,3,3,NA,"Instruments",1,"stim/objects/Instruments/tambourine2.png",4,"left","right",0.786999941,0,0,1
"213",3,213,0.9,"stim/63.jpeg",6,3,3,NA,"Instruments",1,"stim/objects/Instruments/trumpet2.png",1,"left","left",0.546999693,1,1,1
"214",3,214,0.5,"stim/21.jpeg",2,1,1,NA,"HouseObjects",2,"stim/objects/HouseObjects/safetypin.png",3,"right","",NA,0,0,1
"215",3,215,0.7,"stim/33.jpeg",3,3,2,NA,"HouseObjects",2,"stim/objects/HouseObjects/thermometer.png",2,"right","right",0.554999828,1,1,1
"216",3,216,0.7,"stim/31.jpeg",3,1,2,NA,"HouseObjects",2,"stim/objects/HouseObjects/spraybottle.png",2,"right","right",0.523999929,1,1,1
"217",3,217,0.9,"stim/64.jpeg",6,4,3,NA,"Instruments",1,"stim/objects/Instruments/tuba2.png",3,"left","left",0.574999809,1,1,1
"218",3,218,0.9,"stim/63.jpeg",6,3,3,NA,"Instruments",1,"stim/objects/Instruments/trumpet2.png",3,"left","left",0.591999769,1,1,1
"219",3,219,0.5,"stim/13.jpeg",1,3,1,NA,"HouseObjects",2,"stim/objects/HouseObjects/rubbergloves.png",1,"right","right",0.59499979,1,1,1
"220",3,220,0.9,"stim/51.jpeg",5,1,3,NA,"HouseObjects",2,"stim/objects/HouseObjects/safetypin2.png",4,"right","right",0.561999798,1,1,1
"221",3,221,0.7,"stim/42.jpeg",4,2,2,NA,"Instruments",1,"stim/objects/Instruments/pipepiano2.png",3,"left","left",0.645999908,1,1,1
"222",3,222,0.9,"stim/62.jpeg",6,2,3,NA,"Instruments",1,"stim/objects/Instruments/trombone2.png",4,"left","left",0.55099988,1,1,1
"223",3,223,0.9,"stim/64.jpeg",6,4,3,NA,"Instruments",1,"stim/objects/Instruments/tuba2.png",3,"left","left",0.432999849,1,1,1
"224",3,224,0.7,"stim/34.jpeg",3,4,2,NA,"HouseObjects",2,"stim/objects/HouseObjects/thread.png",4,"right","right",0.670999765,1,1,1
"225",3,225,0.5,"stim/12.jpeg",1,2,1,NA,"Instruments",1,"stim/objects/Instruments/pipepiano.png",4,"left","right",0.604999781,0,0,1
"226",3,226,0.9,"stim/54.jpeg",5,4,3,NA,"HouseObjects",2,"stim/objects/HouseObjects/sponge2.png",3,"right","right",0.623999834,1,1,1
"227",3,227,0.5,"stim/14.jpeg",1,4,1,NA,"HouseObjects",2,"stim/objects/HouseObjects/rug.png",1,"right","right",0.815999746,1,1,1
"228",3,228,0.9,"stim/53.jpeg",5,3,3,NA,"HouseObjects",2,"stim/objects/HouseObjects/scale2.png",3,"right","right",0.687999964,1,1,1
"229",3,229,0.7,"stim/31.jpeg",3,1,2,NA,"HouseObjects",2,"stim/objects/HouseObjects/spraybottle.png",4,"right","right",0.493000031,1,1,1
"230",3,230,0.5,"stim/24.jpeg",2,4,1,NA,"Instruments",1,"stim/objects/Instruments/timbal.png",3,"left","right",0.629999876,0,0,1
"231",3,231,0.9,"stim/52.jpeg",5,2,3,NA,"HouseObjects",2,"stim/objects/HouseObjects/saw2.png",2,"right","right",0.616999865,1,1,1
"232",3,232,0.5,"stim/14.jpeg",1,4,1,NA,"HouseObjects",2,"stim/objects/HouseObjects/rug.png",1,"right","right",0.528999805,1,1,1
"233",3,233,0.5,"stim/22.jpeg",2,2,1,NA,"Instruments",1,"stim/objects/Instruments/speaker.png",4,"left","left",0.81799984,1,1,1
"234",3,234,0.9,"stim/63.jpeg",6,3,3,NA,"Instruments",1,"stim/objects/Instruments/trumpet2.png",4,"left","left",0.60800004,1,1,1
"235",3,235,0.3,"stim/44.jpeg",4,4,2,NA,"HouseObjects",2,"stim/objects/HouseObjects/rug2.png",2,"right","left",0.509999752,0,0,1
"236",3,236,0.5,"stim/23.jpeg",2,3,1,NA,"HouseObjects",2,"stim/objects/HouseObjects/scale.png",3,"right","left",0.654999971,0,0,1
"237",3,237,0.7,"stim/34.jpeg",3,4,2,NA,"HouseObjects",2,"stim/objects/HouseObjects/thread.png",2,"right","right",0.630999804,1,1,1
"238",3,238,0.5,"stim/14.jpeg",1,4,1,NA,"Instruments",1,"stim/objects/Instruments/record_player.png",4,"left","right",0.720999956,0,0,1
"239",3,239,0.9,"stim/53.jpeg",5,3,3,NA,"HouseObjects",2,"stim/objects/HouseObjects/scale2.png",1,"right","right",0.552999735,1,1,1
"240",3,240,0.5,"stim/11.jpeg",1,1,1,NA,"HouseObjects",2,"stim/objects/HouseObjects/recyclingbin.png",2,"right","right",0.579999924,1,1,1
