"","participant","trialN","trial_cond","scn_file","scn_cat","scn_inst","scn_condition","fillers","obj_cat","obj_cat_num","obj_file","quadrant","corr_ans","key_resp_trial.keys","key_resp_trial.rt","trial_acc","trial_acc_manual","group"
"248",39,241,0.9,"stim/11.jpeg",1,1,3,2,"Instruments",2,"stim/objects/Instruments/flutetrans.png",2,"right","",NA,0,0,1
"249",39,242,0.9,"stim/22.jpeg",2,2,3,2,"HouseObjects",1,"stim/objects/HouseObjects/garbagebin.png",2,"left","left",0.602999926,1,1,1
"250",39,243,0.9,"stim/13.jpeg",1,3,3,2,"Instruments",2,"stim/objects/Instruments/gong.png",3,"right","right",0.72300005,1,1,1
"251",39,244,0.5,"stim/43.jpeg",4,3,1,1,"HouseObjects",1,"stim/objects/HouseObjects/knife.png",1,"left","left",0.619000196,1,1,1
"252",39,245,0.9,"stim/13.jpeg",1,3,3,1,"Instruments",2,"stim/objects/Instruments/hihat2.png",3,"right","right",0.637000084,1,1,1
"253",39,246,0.1,"stim/24.jpeg",2,4,3,1,"Instruments",2,"stim/objects/Instruments/musicstand2.png",3,"right","left",0.583999872,0,0,1
"254",39,247,0.7,"stim/61.jpeg",6,1,2,2,"HouseObjects",1,"stim/objects/HouseObjects/coffee.png",1,"left","left",0.835999966,1,1,1
"255",39,248,0.9,"stim/22.jpeg",2,2,3,2,"HouseObjects",1,"stim/objects/HouseObjects/dustpan.png",1,"left","left",0.88499999,1,1,1
"256",39,249,0.9,"stim/22.jpeg",2,2,3,2,"HouseObjects",1,"stim/objects/HouseObjects/doormat.png",2,"left","left",0.50999999,1,1,1
"257",39,250,0.9,"stim/23.jpeg",2,3,3,2,"HouseObjects",1,"stim/objects/HouseObjects/flyswatter.png",1,"left","left",0.687000036,1,1,1
"258",39,251,0.9,"stim/21.jpeg",2,1,3,2,"HouseObjects",1,"stim/objects/HouseObjects/glass.png",1,"left","left",0.621000051,1,1,1
"259",39,252,0.7,"stim/61.jpeg",6,1,2,2,"HouseObjects",1,"stim/objects/HouseObjects/dishsoap.png",3,"left","left",0.735000134,1,1,1
"260",39,253,0.9,"stim/14.jpeg",1,4,3,2,"Instruments",2,"stim/objects/Instruments/frenchhorn.png",4,"right","right",0.920000076,1,1,1
"261",39,254,0.9,"stim/21.jpeg",2,1,3,1,"HouseObjects",1,"stim/objects/HouseObjects/ironingboard2.png",4,"left","right",0.559000015,0,0,1
"262",39,255,0.5,"stim/42.jpeg",4,2,1,2,"HouseObjects",1,"stim/objects/HouseObjects/broom.png",1,"left","left",0.605999947,1,1,1
"263",39,256,0.9,"stim/11.jpeg",1,1,3,2,"Instruments",2,"stim/objects/Instruments/frenchhorn.png",3,"right","right",0.850999832,1,1,1
"264",39,257,0.9,"stim/12.jpeg",1,2,3,2,"Instruments",2,"stim/objects/Instruments/flutetrans.png",1,"right","right",0.637000084,1,1,1
"265",39,258,0.5,"stim/44.jpeg",4,4,1,1,"HouseObjects",1,"stim/objects/HouseObjects/lintroller.png",1,"left","left",0.532999992,1,1,1
"266",39,259,0.7,"stim/62.jpeg",6,2,2,2,"HouseObjects",1,"stim/objects/HouseObjects/clothespin.png",2,"left","right",0.586999893,0,0,1
"267",39,260,0.5,"stim/31.jpeg",3,1,1,2,"Instruments",2,"stim/objects/Instruments/bassdrum.png",1,"right","left",0.690999985,0,0,1
"268",39,261,0.9,"stim/13.jpeg",1,3,3,2,"Instruments",2,"stim/objects/Instruments/frenchhorn.png",1,"right","right",0.776000023,1,1,1
"269",39,262,0.1,"stim/22.jpeg",2,2,3,1,"Instruments",2,"stim/objects/Instruments/panflute2.png",1,"right","left",0.586999893,0,0,1
"270",39,263,0.9,"stim/24.jpeg",2,4,3,2,"HouseObjects",1,"stim/objects/HouseObjects/glass.png",4,"left","left",0.588999987,1,1,1
"271",39,264,0.9,"stim/21.jpeg",2,1,3,1,"HouseObjects",1,"stim/objects/HouseObjects/remote2.png",2,"left","left",0.532999992,1,1,1
"272",39,265,0.5,"stim/42.jpeg",4,2,1,2,"Instruments",2,"stim/objects/Instruments/cornet.png",3,"right","right",0.605000019,1,1,1
"273",39,266,0.5,"stim/31.jpeg",3,1,1,1,"HouseObjects",1,"stim/objects/HouseObjects/handbrush.png",4,"left","left",0.657999992,1,1,1
"274",39,267,0.9,"stim/24.jpeg",2,4,3,2,"HouseObjects",1,"stim/objects/HouseObjects/flyswatter.png",4,"left","left",0.606999874,1,1,1
"275",39,268,0.9,"stim/12.jpeg",1,2,3,1,"Instruments",2,"stim/objects/Instruments/gong2.png",2,"right","right",0.623999834,1,1,1
"276",39,269,0.9,"stim/22.jpeg",2,2,3,2,"HouseObjects",1,"stim/objects/HouseObjects/dustpan.png",3,"left","left",0.48300004,1,1,1
"277",39,270,0.5,"stim/34.jpeg",3,4,1,2,"HouseObjects",1,"stim/objects/HouseObjects/basket.png",4,"left","right",0.700000048,0,0,1
"278",39,271,0.9,"stim/14.jpeg",1,4,3,2,"Instruments",2,"stim/objects/Instruments/frenchhorn.png",1,"right","right",0.600999832,1,1,1
"279",39,272,0.1,"stim/11.jpeg",1,1,3,1,"HouseObjects",1,"stim/objects/HouseObjects/glass2.png",4,"left","right",0.805000067,0,0,1
"280",39,273,0.9,"stim/13.jpeg",1,3,3,2,"Instruments",2,"stim/objects/Instruments/grandpiano.png",1,"right","right",0.585000038,1,1,1
"281",39,274,0.9,"stim/13.jpeg",1,3,3,2,"Instruments",2,"stim/objects/Instruments/frenchhorn.png",1,"right","right",0.486000061,1,1,1
"282",39,275,0.9,"stim/24.jpeg",2,4,3,2,"HouseObjects",1,"stim/objects/HouseObjects/glass.png",1,"left","left",0.601999998,1,1,1
"283",39,276,0.9,"stim/22.jpeg",2,2,3,2,"HouseObjects",1,"stim/objects/HouseObjects/flyswatter.png",1,"left","left",0.570999861,1,1,1
"284",39,277,0.5,"stim/43.jpeg",4,3,1,2,"HouseObjects",1,"stim/objects/HouseObjects/blender.png",3,"left","left",0.602999926,1,1,1
"285",39,278,0.9,"stim/11.jpeg",1,1,3,1,"Instruments",2,"stim/objects/Instruments/frenchhorn2.png",1,"right","right",0.571999788,1,1,1
"286",39,279,0.7,"stim/51.jpeg",5,1,2,1,"Instruments",2,"stim/objects/Instruments/pipepiano.png",4,"right","left",0.601999998,0,0,1
"287",39,280,0.9,"stim/21.jpeg",2,1,3,2,"HouseObjects",1,"stim/objects/HouseObjects/doormat.png",3,"left","left",0.804999828,1,1,1
"288",39,281,0.9,"stim/23.jpeg",2,3,3,2,"HouseObjects",1,"stim/objects/HouseObjects/dustpan.png",4,"left","left",0.53399992,1,1,1
"289",39,282,0.9,"stim/21.jpeg",2,1,3,2,"HouseObjects",1,"stim/objects/HouseObjects/dustpan.png",2,"left","left",0.493999958,1,1,1
"290",39,283,0.3,"stim/52.jpeg",5,2,2,1,"HouseObjects",1,"stim/objects/HouseObjects/pitcher.png",2,"left","left",0.634000063,1,1,1
"291",39,284,0.9,"stim/11.jpeg",1,1,3,2,"Instruments",2,"stim/objects/Instruments/frenchhorn.png",1,"right","right",0.570999861,1,1,1
"292",39,285,0.9,"stim/24.jpeg",2,4,3,2,"HouseObjects",1,"stim/objects/HouseObjects/flyswatter.png",4,"left","right",0.604000092,0,0,1
"293",39,286,0.9,"stim/23.jpeg",2,3,3,2,"HouseObjects",1,"stim/objects/HouseObjects/doormat.png",4,"left","left",0.534999847,1,1,1
"294",39,287,0.5,"stim/32.jpeg",3,2,1,2,"HouseObjects",1,"stim/objects/HouseObjects/ashtray.png",2,"left","left",0.549000025,1,1,1
"295",39,288,0.9,"stim/12.jpeg",1,2,3,2,"Instruments",2,"stim/objects/Instruments/flutetrans.png",1,"right","right",0.465999842,1,1,1
"296",39,289,0.5,"stim/41.jpeg",4,1,1,2,"HouseObjects",1,"stim/objects/HouseObjects/bottle.png",2,"left","left",0.523999929,1,1,1
"297",39,290,0.9,"stim/23.jpeg",2,3,3,2,"HouseObjects",1,"stim/objects/HouseObjects/doormat.png",3,"left","left",0.652999878,1,1,1
"298",39,291,0.3,"stim/54.jpeg",5,4,2,1,"HouseObjects",1,"stim/objects/HouseObjects/barbecuelighter2.png",1,"left","right",0.549999952,0,0,1
"299",39,292,0.9,"stim/12.jpeg",1,2,3,2,"Instruments",2,"stim/objects/Instruments/frenchhorn.png",1,"right","right",0.555999994,1,1,1
"300",39,293,0.9,"stim/14.jpeg",1,4,3,2,"Instruments",2,"stim/objects/Instruments/gong.png",1,"right","right",0.652999878,1,1,1
"301",39,294,0.7,"stim/52.jpeg",5,2,2,1,"Instruments",2,"stim/objects/Instruments/banjo2.png",1,"right","left",0.573000193,0,0,1
"302",39,295,0.7,"stim/62.jpeg",6,2,2,1,"HouseObjects",1,"stim/objects/HouseObjects/clothespin2.png",4,"left","left",0.773999929,1,1,1
"303",39,296,0.1,"stim/11.jpeg",1,1,3,1,"HouseObjects",1,"stim/objects/HouseObjects/handvacuum2.png",2,"left","right",0.789000034,0,0,1
"304",39,297,0.1,"stim/22.jpeg",2,2,3,1,"Instruments",2,"stim/objects/Instruments/metronome2.png",3,"right","left",0.539999962,0,0,1
"305",39,298,0.9,"stim/21.jpeg",2,1,3,2,"HouseObjects",1,"stim/objects/HouseObjects/flyswatter.png",3,"left","right",0.710000038,0,0,1
"306",39,299,0.5,"stim/41.jpeg",4,1,1,2,"Instruments",2,"stim/objects/Instruments/chime.png",2,"right","left",0.503999949,0,0,1
"307",39,300,0.5,"stim/42.jpeg",4,2,1,1,"Instruments",2,"stim/objects/Instruments/marimba.png",4,"right","left",0.607999802,0,0,1
"308",39,301,0.9,"stim/11.jpeg",1,1,3,2,"Instruments",2,"stim/objects/Instruments/flutetrans.png",2,"right","right",0.538000107,1,1,1
"309",39,302,0.3,"stim/54.jpeg",5,4,2,1,"HouseObjects",1,"stim/objects/HouseObjects/remote.png",3,"left","left",0.523999929,1,1,1
"310",39,303,0.9,"stim/22.jpeg",2,2,3,2,"HouseObjects",1,"stim/objects/HouseObjects/garbagebin.png",1,"left","left",0.554000139,1,1,1
"311",39,304,0.9,"stim/13.jpeg",1,3,3,1,"Instruments",2,"stim/objects/Instruments/grandpiano2.png",1,"right","right",0.586000204,1,1,1
"312",39,305,0.7,"stim/51.jpeg",5,1,2,2,"Instruments",2,"stim/objects/Instruments/electricguitar.png",1,"right","left",0.536000013,0,0,1
"313",39,306,0.5,"stim/34.jpeg",3,4,1,2,"HouseObjects",1,"stim/objects/HouseObjects/barbecuelighter.png",1,"left","left",0.575000048,1,1,1
"314",39,307,0.9,"stim/21.jpeg",2,1,3,2,"HouseObjects",1,"stim/objects/HouseObjects/dustpan.png",3,"left","left",0.585000038,1,1,1
"315",39,308,0.5,"stim/31.jpeg",3,1,1,2,"HouseObjects",1,"stim/objects/HouseObjects/ashtray.png",1,"left","left",0.70299983,1,1,1
"316",39,309,0.9,"stim/12.jpeg",1,2,3,2,"Instruments",2,"stim/objects/Instruments/flute.png",2,"right","right",0.537999868,1,1,1
"317",39,310,0.9,"stim/14.jpeg",1,4,3,2,"Instruments",2,"stim/objects/Instruments/grandpiano.png",4,"right","right",0.555999994,1,1,1
"318",39,311,0.7,"stim/53.jpeg",5,3,2,1,"Instruments",2,"stim/objects/Instruments/accordion2.png",4,"right","left",0.588000059,0,0,1
"319",39,312,0.9,"stim/14.jpeg",1,4,3,2,"Instruments",2,"stim/objects/Instruments/flute.png",2,"right","right",0.588999987,1,1,1
"320",39,313,0.7,"stim/63.jpeg",6,3,2,2,"HouseObjects",1,"stim/objects/HouseObjects/clothespin.png",2,"left","left",0.554999828,1,1,1
"321",39,314,0.9,"stim/11.jpeg",1,1,3,2,"Instruments",2,"stim/objects/Instruments/gong.png",2,"right","right",0.628000021,1,1,1
"322",39,315,0.9,"stim/13.jpeg",1,3,3,2,"Instruments",2,"stim/objects/Instruments/frenchhorn.png",2,"right","right",0.519999981,1,1,1
"323",39,316,0.9,"stim/11.jpeg",1,1,3,2,"Instruments",2,"stim/objects/Instruments/grandpiano.png",3,"right","right",0.570999861,1,1,1
"324",39,317,0.9,"stim/14.jpeg",1,4,3,2,"Instruments",2,"stim/objects/Instruments/flutetrans.png",3,"right","right",0.50999999,1,1,1
"325",39,318,0.7,"stim/54.jpeg",5,4,2,2,"Instruments",2,"stim/objects/Instruments/electricguitar.png",1,"right","right",0.555000067,1,1,1
"326",39,319,0.3,"stim/61.jpeg",6,1,2,1,"Instruments",2,"stim/objects/Instruments/drums2.png",3,"right","left",0.700999975,0,0,1
"327",39,320,0.9,"stim/24.jpeg",2,4,3,1,"HouseObjects",1,"stim/objects/HouseObjects/recyclingbin2.png",1,"left","left",0.535000086,1,1,1
"328",39,321,0.9,"stim/23.jpeg",2,3,3,2,"HouseObjects",1,"stim/objects/HouseObjects/flyswatter.png",3,"left","left",0.572000027,1,1,1
"329",39,322,0.9,"stim/21.jpeg",2,1,3,2,"HouseObjects",1,"stim/objects/HouseObjects/glass.png",1,"left","left",0.588000059,1,1,1
"330",39,323,0.9,"stim/24.jpeg",2,4,3,2,"HouseObjects",1,"stim/objects/HouseObjects/flyswatter.png",3,"left","left",0.555999994,1,1,1
"331",39,324,0.9,"stim/12.jpeg",1,2,3,2,"Instruments",2,"stim/objects/Instruments/frenchhorn.png",2,"right","right",0.661999941,1,1,1
"332",39,325,0.3,"stim/51.jpeg",5,1,2,1,"HouseObjects",1,"stim/objects/HouseObjects/pan.png",4,"left","left",0.618000031,1,1,1
"333",39,326,0.5,"stim/44.jpeg",4,4,1,2,"Instruments",2,"stim/objects/Instruments/cello.png",4,"right","left",0.588000059,0,0,1
"334",39,327,0.5,"stim/32.jpeg",3,2,1,1,"Instruments",2,"stim/objects/Instruments/keyboard.png",2,"right","right",0.50999999,1,1,1
"335",39,328,0.9,"stim/24.jpeg",2,4,3,2,"HouseObjects",1,"stim/objects/HouseObjects/garbagebin.png",1,"left","left",0.523000002,1,1,1
"336",39,329,0.9,"stim/14.jpeg",1,4,3,2,"Instruments",2,"stim/objects/Instruments/gong.png",4,"right","right",0.66899991,1,1,1
"337",39,330,0.7,"stim/51.jpeg",5,1,2,2,"Instruments",2,"stim/objects/Instruments/doublebass.png",4,"right","left",0.521000147,0,0,1
"338",39,331,0.9,"stim/14.jpeg",1,4,3,2,"Instruments",2,"stim/objects/Instruments/gong.png",3,"right","right",0.654000044,1,1,1
"339",39,332,0.7,"stim/64.jpeg",6,4,2,2,"HouseObjects",1,"stim/objects/HouseObjects/clothespin.png",3,"left","left",0.655999899,1,1,1
"340",39,333,0.9,"stim/24.jpeg",2,4,3,2,"HouseObjects",1,"stim/objects/HouseObjects/flyswatter.png",1,"left","left",0.537999868,1,1,1
"341",39,334,0.9,"stim/24.jpeg",2,4,3,2,"HouseObjects",1,"stim/objects/HouseObjects/garbagebin.png",3,"left","left",0.599999905,1,1,1
"342",39,335,0.5,"stim/41.jpeg",4,1,1,2,"HouseObjects",1,"stim/objects/HouseObjects/broom.png",4,"left","left",0.718999863,1,1,1
"343",39,336,0.5,"stim/42.jpeg",4,2,1,1,"HouseObjects",1,"stim/objects/HouseObjects/key.png",4,"left","left",0.517999887,1,1,1
"344",39,337,0.5,"stim/33.jpeg",3,3,1,1,"Instruments",2,"stim/objects/Instruments/harmonica.png",3,"right","left",0.51699996,0,0,1
"345",39,338,0.5,"stim/32.jpeg",3,2,1,2,"Instruments",2,"stim/objects/Instruments/acousticguitar.png",3,"right","left",0.455000162,0,0,1
"346",39,339,0.9,"stim/14.jpeg",1,4,3,2,"Instruments",2,"stim/objects/Instruments/flute.png",4,"right","right",0.674999952,1,1,1
"347",39,340,0.9,"stim/13.jpeg",1,3,3,2,"Instruments",2,"stim/objects/Instruments/frenchhorn.png",1,"right","right",0.61500001,1,1,1
"348",39,341,0.9,"stim/23.jpeg",2,3,3,2,"HouseObjects",1,"stim/objects/HouseObjects/doormat.png",2,"left","left",0.546999931,1,1,1
"349",39,342,0.9,"stim/11.jpeg",1,1,3,2,"Instruments",2,"stim/objects/Instruments/frenchhorn.png",2,"right","right",0.585000038,1,1,1
"350",39,343,0.9,"stim/22.jpeg",2,2,3,2,"HouseObjects",1,"stim/objects/HouseObjects/doormat.png",4,"left","left",0.525000095,1,1,1
"351",39,344,0.5,"stim/44.jpeg",4,4,1,2,"Instruments",2,"stim/objects/Instruments/chime.png",1,"right","right",0.819000006,1,1,1
"352",39,345,0.7,"stim/62.jpeg",6,2,2,2,"HouseObjects",1,"stim/objects/HouseObjects/cushion.png",3,"left","left",0.519000053,1,1,1
"353",39,346,0.9,"stim/12.jpeg",1,2,3,2,"Instruments",2,"stim/objects/Instruments/grandpiano.png",2,"right","right",0.567000151,1,1,1
"354",39,347,0.9,"stim/23.jpeg",2,3,3,2,"HouseObjects",1,"stim/objects/HouseObjects/glass.png",1,"left","left",0.510999918,1,1,1
"355",39,348,0.9,"stim/23.jpeg",2,3,3,2,"HouseObjects",1,"stim/objects/HouseObjects/glass.png",4,"left","left",0.751000166,1,1,1
"356",39,349,0.1,"stim/12.jpeg",1,2,3,1,"HouseObjects",1,"stim/objects/HouseObjects/iron2.png",4,"left","right",0.486999989,0,0,1
"357",39,350,0.9,"stim/22.jpeg",2,2,3,2,"HouseObjects",1,"stim/objects/HouseObjects/doormat.png",1,"left","left",0.588000059,1,1,1
"358",39,351,0.5,"stim/43.jpeg",4,3,1,2,"Instruments",2,"stim/objects/Instruments/bassguitar.png",4,"right","left",0.652999878,0,0,1
"359",39,352,0.9,"stim/23.jpeg",2,3,3,2,"HouseObjects",1,"stim/objects/HouseObjects/garbagebin.png",2,"left","left",0.556999922,1,1,1
"360",39,353,0.3,"stim/63.jpeg",6,3,2,1,"Instruments",2,"stim/objects/Instruments/cymbal2.png",3,"right","right",0.789999962,1,1,1
"361",39,354,0.5,"stim/42.jpeg",4,2,1,2,"HouseObjects",1,"stim/objects/HouseObjects/bucket.png",4,"left","left",0.536000013,1,1,1
"362",39,355,0.3,"stim/51.jpeg",5,1,2,1,"HouseObjects",1,"stim/objects/HouseObjects/basket2.png",3,"left","left",0.619000196,1,1,1
"363",39,356,0.7,"stim/62.jpeg",6,2,2,2,"HouseObjects",1,"stim/objects/HouseObjects/clothesdryingrack.png",4,"left","left",0.601999998,1,1,1
"364",39,357,0.9,"stim/24.jpeg",2,4,3,2,"HouseObjects",1,"stim/objects/HouseObjects/glass.png",1,"left","left",0.628999949,1,1,1
"365",39,358,0.9,"stim/23.jpeg",2,3,3,2,"HouseObjects",1,"stim/objects/HouseObjects/doormat.png",1,"left","left",0.724999905,1,1,1
"366",39,359,0.9,"stim/14.jpeg",1,4,3,2,"Instruments",2,"stim/objects/Instruments/flutetrans.png",4,"right","right",0.773000002,1,1,1
"367",39,360,0.9,"stim/22.jpeg",2,2,3,2,"HouseObjects",1,"stim/objects/HouseObjects/glass.png",4,"left","left",0.618000031,1,1,1
"368",39,361,0.9,"stim/24.jpeg",2,4,3,2,"HouseObjects",1,"stim/objects/HouseObjects/garbagebin.png",1,"left","left",0.549999952,1,1,1
"369",39,362,0.9,"stim/21.jpeg",2,1,3,2,"HouseObjects",1,"stim/objects/HouseObjects/dustpan.png",4,"left","left",0.475000143,1,1,1
"370",39,363,0.5,"stim/43.jpeg",4,3,1,2,"Instruments",2,"stim/objects/Instruments/cello.png",2,"right","left",0.572999954,0,0,1
"371",39,364,0.9,"stim/12.jpeg",1,2,3,2,"Instruments",2,"stim/objects/Instruments/grandpiano.png",2,"right","right",0.578999996,1,1,1
"372",39,365,0.3,"stim/51.jpeg",5,1,2,1,"HouseObjects",1,"stim/objects/HouseObjects/rubbergloves.png",1,"left","left",0.471999884,1,1,1
"373",39,366,0.9,"stim/22.jpeg",2,2,3,2,"HouseObjects",1,"stim/objects/HouseObjects/flyswatter.png",2,"left","left",0.517999887,1,1,1
"374",39,367,0.9,"stim/12.jpeg",1,2,3,2,"Instruments",2,"stim/objects/Instruments/gong.png",2,"right","right",0.693000078,1,1,1
"375",39,368,0.9,"stim/21.jpeg",2,1,3,2,"HouseObjects",1,"stim/objects/HouseObjects/doormat.png",2,"left","left",0.773000002,1,1,1
"376",39,369,0.9,"stim/13.jpeg",1,3,3,2,"Instruments",2,"stim/objects/Instruments/grandpiano.png",2,"right","right",0.588000059,1,1,1
"377",39,370,0.9,"stim/24.jpeg",2,4,3,2,"HouseObjects",1,"stim/objects/HouseObjects/doormat.png",2,"left","left",0.502000093,1,1,1
"378",39,371,0.3,"stim/53.jpeg",5,3,2,1,"HouseObjects",1,"stim/objects/HouseObjects/recyclingbin.png",1,"left","right",0.535000086,0,0,1
"379",39,372,0.9,"stim/21.jpeg",2,1,3,2,"HouseObjects",1,"stim/objects/HouseObjects/doormat.png",3,"left","left",0.573000193,1,1,1
"380",39,373,0.9,"stim/11.jpeg",1,1,3,2,"Instruments",2,"stim/objects/Instruments/gong.png",1,"right","right",0.718999863,1,1,1
"381",39,374,0.9,"stim/23.jpeg",2,3,3,2,"HouseObjects",1,"stim/objects/HouseObjects/dustpan.png",1,"left","left",0.587000132,1,1,1
"382",39,375,0.9,"stim/13.jpeg",1,3,3,2,"Instruments",2,"stim/objects/Instruments/flutetrans.png",2,"right","right",0.669999838,1,1,1
"383",39,376,0.5,"stim/33.jpeg",3,3,1,2,"Instruments",2,"stim/objects/Instruments/balalaika.png",4,"right","left",0.690999985,0,0,1
"384",39,377,0.5,"stim/42.jpeg",4,2,1,2,"Instruments",2,"stim/objects/Instruments/bassguitar.png",4,"right","left",0.602999926,0,0,1
"385",39,378,0.9,"stim/21.jpeg",2,1,3,2,"HouseObjects",1,"stim/objects/HouseObjects/doormat.png",2,"left","left",0.618000031,1,1,1
"386",39,379,0.9,"stim/23.jpeg",2,3,3,2,"HouseObjects",1,"stim/objects/HouseObjects/flyswatter.png",1,"left","left",0.537999868,1,1,1
"387",39,380,0.9,"stim/21.jpeg",2,1,3,2,"HouseObjects",1,"stim/objects/HouseObjects/garbagebin.png",3,"left","left",0.519000053,1,1,1
"388",39,381,0.9,"stim/12.jpeg",1,2,3,2,"Instruments",2,"stim/objects/Instruments/flute.png",4,"right","right",0.556999922,1,1,1
"389",39,382,0.5,"stim/31.jpeg",3,1,1,2,"HouseObjects",1,"stim/objects/HouseObjects/basket.png",3,"left","left",0.71999979,1,1,1
"390",39,383,0.5,"stim/31.jpeg",3,1,1,2,"Instruments",2,"stim/objects/Instruments/accordion.png",4,"right","left",0.486999989,0,0,1
"391",39,384,0.9,"stim/24.jpeg",2,4,3,2,"HouseObjects",1,"stim/objects/HouseObjects/dustpan.png",2,"left","left",0.520999908,1,1,1
"392",39,385,0.9,"stim/13.jpeg",1,3,3,2,"Instruments",2,"stim/objects/Instruments/flutetrans.png",2,"right","right",0.753000021,1,1,1
"393",39,386,0.9,"stim/11.jpeg",1,1,3,2,"Instruments",2,"stim/objects/Instruments/flute.png",1,"right","right",0.602999926,1,1,1
"394",39,387,0.5,"stim/31.jpeg",3,1,1,1,"Instruments",2,"stim/objects/Instruments/hihat.png",4,"right","left",0.59800005,0,0,1
"395",39,388,0.3,"stim/53.jpeg",5,3,2,1,"HouseObjects",1,"stim/objects/HouseObjects/ballofstring2.png",3,"left","left",0.868000031,1,1,1
"396",39,389,0.3,"stim/63.jpeg",6,3,2,1,"Instruments",2,"stim/objects/Instruments/cello2.png",4,"right","left",0.852999926,0,0,1
"397",39,390,0.7,"stim/54.jpeg",5,4,2,2,"Instruments",2,"stim/objects/Instruments/electricdrumset.png",1,"right","left",0.65899992,0,0,1
"398",39,391,0.7,"stim/61.jpeg",6,1,2,2,"HouseObjects",1,"stim/objects/HouseObjects/clothesdryingrack.png",2,"left","left",0.786000013,1,1,1
"399",39,392,0.9,"stim/12.jpeg",1,2,3,2,"Instruments",2,"stim/objects/Instruments/gong.png",2,"right","right",0.549999952,1,1,1
"400",39,393,0.5,"stim/32.jpeg",3,2,1,2,"Instruments",2,"stim/objects/Instruments/balalaika.png",1,"right","left",0.519999981,0,0,1
"401",39,394,0.9,"stim/12.jpeg",1,2,3,2,"Instruments",2,"stim/objects/Instruments/grandpiano.png",3,"right","right",0.683000088,1,1,1
"402",39,395,0.5,"stim/41.jpeg",4,1,1,1,"HouseObjects",1,"stim/objects/HouseObjects/match.png",1,"left","left",0.489000082,1,1,1
"403",39,396,0.7,"stim/61.jpeg",6,1,2,2,"HouseObjects",1,"stim/objects/HouseObjects/cushion.png",4,"left","left",0.785000086,1,1,1
"404",39,397,0.1,"stim/12.jpeg",1,2,3,1,"HouseObjects",1,"stim/objects/HouseObjects/dustpan2.png",2,"left","right",0.8349998,0,0,1
"405",39,398,0.9,"stim/14.jpeg",1,4,3,2,"Instruments",2,"stim/objects/Instruments/flutetrans.png",4,"right","right",0.867000103,1,1,1
"406",39,399,0.5,"stim/34.jpeg",3,4,1,1,"Instruments",2,"stim/objects/Instruments/harp.png",2,"right","left",0.513999939,0,0,1
"407",39,400,0.9,"stim/22.jpeg",2,2,3,2,"HouseObjects",1,"stim/objects/HouseObjects/glass.png",3,"left","left",0.617000103,1,1,1
"408",39,401,0.9,"stim/14.jpeg",1,4,3,2,"Instruments",2,"stim/objects/Instruments/frenchhorn.png",1,"right","right",0.733999968,1,1,1
"409",39,402,0.7,"stim/53.jpeg",5,3,2,2,"Instruments",2,"stim/objects/Instruments/electricguitar.png",4,"right","left",0.618999958,0,0,1
"410",39,403,0.5,"stim/33.jpeg",3,3,1,1,"HouseObjects",1,"stim/objects/HouseObjects/glassmop.png",1,"left","left",0.5849998,1,1,1
"411",39,404,0.3,"stim/62.jpeg",6,2,2,1,"Instruments",2,"stim/objects/Instruments/electricdrumset2.png",4,"right","right",0.697000027,1,1,1
"412",39,405,0.1,"stim/23.jpeg",2,3,3,1,"Instruments",2,"stim/objects/Instruments/musicsheet2.png",4,"right","left",0.542999983,0,0,1
"413",39,406,0.5,"stim/34.jpeg",3,4,1,1,"HouseObjects",1,"stim/objects/HouseObjects/hairdryer.png",3,"left","left",0.733999968,1,1,1
"414",39,407,0.9,"stim/13.jpeg",1,3,3,2,"Instruments",2,"stim/objects/Instruments/grandpiano.png",4,"right","right",0.694999933,1,1,1
"415",39,408,0.9,"stim/14.jpeg",1,4,3,1,"Instruments",2,"stim/objects/Instruments/flutetrans2.png",4,"right","right",0.539000034,1,1,1
"416",39,409,0.9,"stim/23.jpeg",2,3,3,2,"HouseObjects",1,"stim/objects/HouseObjects/flyswatter.png",4,"left","left",0.502000093,1,1,1
"417",39,410,0.9,"stim/12.jpeg",1,2,3,2,"Instruments",2,"stim/objects/Instruments/frenchhorn.png",3,"right","right",0.486999989,1,1,1
"418",39,411,0.9,"stim/12.jpeg",1,2,3,2,"Instruments",2,"stim/objects/Instruments/gong.png",1,"right","right",0.484999895,1,1,1
"419",39,412,0.3,"stim/62.jpeg",6,2,2,1,"Instruments",2,"stim/objects/Instruments/bassguitar2.png",3,"right","left",0.521000147,0,0,1
"420",39,413,0.9,"stim/12.jpeg",1,2,3,2,"Instruments",2,"stim/objects/Instruments/frenchhorn.png",2,"right","right",0.507000208,1,1,1
"421",39,414,0.9,"stim/21.jpeg",2,1,3,1,"HouseObjects",1,"stim/objects/HouseObjects/match2.png",2,"left","left",0.687000036,1,1,1
"422",39,415,0.9,"stim/21.jpeg",2,1,3,2,"HouseObjects",1,"stim/objects/HouseObjects/flyswatter.png",3,"left","right",0.535000086,0,0,1
"423",39,416,0.9,"stim/24.jpeg",2,4,3,2,"HouseObjects",1,"stim/objects/HouseObjects/dustpan.png",4,"left","left",0.526000023,1,1,1
"424",39,417,0.3,"stim/64.jpeg",6,4,2,1,"Instruments",2,"stim/objects/Instruments/chime2.png",1,"right","right",0.552999973,1,1,1
"425",39,418,0.9,"stim/12.jpeg",1,2,3,2,"Instruments",2,"stim/objects/Instruments/flutetrans.png",4,"right","left",0.467999935,0,0,1
"426",39,419,0.9,"stim/12.jpeg",1,2,3,2,"Instruments",2,"stim/objects/Instruments/flutetrans.png",3,"right","right",0.722000122,1,1,1
"427",39,420,0.5,"stim/44.jpeg",4,4,1,2,"HouseObjects",1,"stim/objects/HouseObjects/clock.png",1,"left","left",0.510999918,1,1,1
"428",39,421,0.9,"stim/21.jpeg",2,1,3,2,"HouseObjects",1,"stim/objects/HouseObjects/garbagebin.png",1,"left","",NA,0,0,1
"429",39,422,0.9,"stim/21.jpeg",2,1,3,2,"HouseObjects",1,"stim/objects/HouseObjects/flyswatter.png",1,"left","left",0.663000107,1,1,1
"430",39,423,0.1,"stim/13.jpeg",1,3,3,1,"HouseObjects",1,"stim/objects/HouseObjects/hairdryer2.png",4,"left","right",0.532000065,0,0,1
"431",39,424,0.9,"stim/24.jpeg",2,4,3,2,"HouseObjects",1,"stim/objects/HouseObjects/glass.png",4,"left","left",0.695000172,1,1,1
"432",39,425,0.5,"stim/43.jpeg",4,3,1,2,"Instruments",2,"stim/objects/Instruments/cornet.png",4,"right","left",0.669999838,0,0,1
"433",39,426,0.9,"stim/13.jpeg",1,3,3,2,"Instruments",2,"stim/objects/Instruments/gong.png",2,"right","right",0.707999945,1,1,1
"434",39,427,0.7,"stim/53.jpeg",5,3,2,2,"Instruments",2,"stim/objects/Instruments/drums.png",2,"right","left",0.625999928,0,0,1
"435",39,428,0.7,"stim/52.jpeg",5,2,2,2,"Instruments",2,"stim/objects/Instruments/doublebass.png",2,"right","left",0.522000074,0,0,1
"436",39,429,0.7,"stim/61.jpeg",6,1,2,1,"HouseObjects",1,"stim/objects/HouseObjects/clothesdryingrack2.png",4,"left","left",0.729000092,1,1,1
"437",39,430,0.9,"stim/11.jpeg",1,1,3,2,"Instruments",2,"stim/objects/Instruments/grandpiano.png",3,"right","right",0.751999855,1,1,1
"438",39,431,0.5,"stim/41.jpeg",4,1,1,2,"Instruments",2,"stim/objects/Instruments/clarinet.png",4,"right","left",0.602999926,0,0,1
"439",39,432,0.5,"stim/33.jpeg",3,3,1,2,"Instruments",2,"stim/objects/Instruments/banjo.png",2,"right","left",0.56799984,0,0,1
"440",39,433,0.7,"stim/63.jpeg",6,3,2,1,"HouseObjects",1,"stim/objects/HouseObjects/coffee2.png",1,"left","left",0.664000034,1,1,1
"441",39,434,0.7,"stim/53.jpeg",5,3,2,1,"Instruments",2,"stim/objects/Instruments/bassdrum2.png",2,"right","left",0.599999905,0,0,1
"442",39,435,0.9,"stim/12.jpeg",1,2,3,2,"Instruments",2,"stim/objects/Instruments/grandpiano.png",4,"right","right",0.694999933,1,1,1
"443",39,436,0.9,"stim/22.jpeg",2,2,3,2,"HouseObjects",1,"stim/objects/HouseObjects/glass.png",3,"left","left",0.534999847,1,1,1
"444",39,437,0.5,"stim/34.jpeg",3,4,1,2,"Instruments",2,"stim/objects/Instruments/accordion.png",1,"right","left",0.684999943,0,0,1
"445",39,438,0.1,"stim/24.jpeg",2,4,3,1,"Instruments",2,"stim/objects/Instruments/record2.png",3,"right","left",0.517000198,0,0,1
"446",39,439,0.7,"stim/63.jpeg",6,3,2,1,"HouseObjects",1,"stim/objects/HouseObjects/bucket2.png",4,"left","left",0.652999878,1,1,1
"447",39,440,0.9,"stim/24.jpeg",2,4,3,2,"HouseObjects",1,"stim/objects/HouseObjects/garbagebin.png",3,"left","left",0.637000084,1,1,1
"448",39,441,0.9,"stim/14.jpeg",1,4,3,2,"Instruments",2,"stim/objects/Instruments/grandpiano.png",2,"right","right",0.669999838,1,1,1
"449",39,442,0.9,"stim/14.jpeg",1,4,3,1,"Instruments",2,"stim/objects/Instruments/guitarcase2.png",4,"right","right",0.601999998,1,1,1
"450",39,443,0.1,"stim/24.jpeg",2,4,3,1,"Instruments",2,"stim/objects/Instruments/maraca2.png",4,"right","left",0.55099988,0,0,1
"451",39,444,0.9,"stim/11.jpeg",1,1,3,2,"Instruments",2,"stim/objects/Instruments/gong.png",4,"right","right",0.491999865,1,1,1
"452",39,445,0.9,"stim/21.jpeg",2,1,3,2,"HouseObjects",1,"stim/objects/HouseObjects/glass.png",1,"left","left",0.444000006,1,1,1
"453",39,446,0.9,"stim/13.jpeg",1,3,3,2,"Instruments",2,"stim/objects/Instruments/gong.png",2,"right","right",0.643000126,1,1,1
"454",39,447,0.9,"stim/11.jpeg",1,1,3,2,"Instruments",2,"stim/objects/Instruments/flute.png",1,"right","right",0.542999983,1,1,1
"455",39,448,0.5,"stim/41.jpeg",4,1,1,1,"Instruments",2,"stim/objects/Instruments/maraca.png",3,"right","left",0.473999977,0,0,1
"456",39,449,0.1,"stim/23.jpeg",2,3,3,1,"Instruments",2,"stim/objects/Instruments/pipepiano2.png",3,"right","left",0.516000032,0,0,1
"457",39,450,0.9,"stim/22.jpeg",2,2,3,2,"HouseObjects",1,"stim/objects/HouseObjects/garbagebin.png",1,"left","left",0.81099987,1,1,1
"458",39,451,0.9,"stim/11.jpeg",1,1,3,2,"Instruments",2,"stim/objects/Instruments/flute.png",2,"right","right",0.878000021,1,1,1
"459",39,452,0.9,"stim/22.jpeg",2,2,3,2,"HouseObjects",1,"stim/objects/HouseObjects/dustpan.png",1,"left","left",0.564999819,1,1,1
"460",39,453,0.7,"stim/53.jpeg",5,3,2,2,"Instruments",2,"stim/objects/Instruments/electricdrumset.png",2,"right","left",0.555000067,0,0,1
"461",39,454,0.5,"stim/41.jpeg",4,1,1,1,"HouseObjects",1,"stim/objects/HouseObjects/ironingboard.png",3,"left","left",0.437999964,1,1,1
"462",39,455,0.9,"stim/24.jpeg",2,4,3,2,"HouseObjects",1,"stim/objects/HouseObjects/doormat.png",3,"left","left",0.661999941,1,1,1
"463",39,456,0.9,"stim/13.jpeg",1,3,3,2,"Instruments",2,"stim/objects/Instruments/flute.png",2,"right","right",0.624000072,1,1,1
"464",39,457,0.7,"stim/54.jpeg",5,4,2,2,"Instruments",2,"stim/objects/Instruments/cymbal.png",3,"right","left",0.588999987,0,0,1
"465",39,458,0.7,"stim/64.jpeg",6,4,2,1,"HouseObjects",1,"stim/objects/HouseObjects/blender2.png",2,"left","left",0.779999971,1,1,1
"466",39,459,0.9,"stim/23.jpeg",2,3,3,1,"HouseObjects",1,"stim/objects/HouseObjects/pitcher2.png",2,"left","left",0.539999962,1,1,1
"467",39,460,0.7,"stim/54.jpeg",5,4,2,1,"Instruments",2,"stim/objects/Instruments/panflute.png",4,"right","left",0.618999958,0,0,1
"468",39,461,0.9,"stim/24.jpeg",2,4,3,2,"HouseObjects",1,"stim/objects/HouseObjects/dustpan.png",1,"left","left",0.55099988,1,1,1
"469",39,462,0.9,"stim/24.jpeg",2,4,3,2,"HouseObjects",1,"stim/objects/HouseObjects/dustpan.png",1,"left","left",0.472000122,1,1,1
"470",39,463,0.7,"stim/64.jpeg",6,4,2,2,"HouseObjects",1,"stim/objects/HouseObjects/coffee.png",2,"left","left",0.68599987,1,1,1
"471",39,464,0.7,"stim/62.jpeg",6,2,2,2,"HouseObjects",1,"stim/objects/HouseObjects/dishsoap.png",1,"left","left",0.507999897,1,1,1
"472",39,465,0.9,"stim/13.jpeg",1,3,3,2,"Instruments",2,"stim/objects/Instruments/flute.png",2,"right","right",0.670000076,1,1,1
"473",39,466,0.1,"stim/13.jpeg",1,3,3,1,"HouseObjects",1,"stim/objects/HouseObjects/flyswatter2.png",3,"left","right",0.549999952,0,0,1
"474",39,467,0.5,"stim/32.jpeg",3,2,1,2,"HouseObjects",1,"stim/objects/HouseObjects/bleachbottle.png",3,"left","left",0.585999966,1,1,1
"475",39,468,0.7,"stim/54.jpeg",5,4,2,1,"Instruments",2,"stim/objects/Instruments/acousticguitar2.png",1,"right","left",0.548000097,0,0,1
"476",39,469,0.9,"stim/13.jpeg",1,3,3,2,"Instruments",2,"stim/objects/Instruments/grandpiano.png",4,"right","right",0.605000019,1,1,1
"477",39,470,0.5,"stim/42.jpeg",4,2,1,2,"Instruments",2,"stim/objects/Instruments/clarinet.png",2,"right","left",0.500999928,0,0,1
"478",39,471,0.5,"stim/44.jpeg",4,4,1,2,"HouseObjects",1,"stim/objects/HouseObjects/blender.png",2,"left","left",0.480000019,1,1,1
"479",39,472,0.1,"stim/14.jpeg",1,4,3,1,"HouseObjects",1,"stim/objects/HouseObjects/garbagebin2.png",3,"left","left",0.605000019,1,1,1
"480",39,473,0.9,"stim/14.jpeg",1,4,3,1,"Instruments",2,"stim/objects/Instruments/keyboard2.png",2,"right","left",0.469000101,0,0,1
"481",39,474,0.5,"stim/33.jpeg",3,3,1,2,"HouseObjects",1,"stim/objects/HouseObjects/barbecuelighter.png",2,"left","left",0.539000034,1,1,1
"482",39,475,0.9,"stim/14.jpeg",1,4,3,2,"Instruments",2,"stim/objects/Instruments/flutetrans.png",1,"right","right",0.597999811,1,1,1
"483",39,476,0.7,"stim/52.jpeg",5,2,2,2,"Instruments",2,"stim/objects/Instruments/drums.png",1,"right","left",0.546999931,0,0,1
"484",39,477,0.9,"stim/22.jpeg",2,2,3,1,"HouseObjects",1,"stim/objects/HouseObjects/pan2.png",3,"left","left",0.647000074,1,1,1
"485",39,478,0.9,"stim/22.jpeg",2,2,3,2,"HouseObjects",1,"stim/objects/HouseObjects/flyswatter.png",1,"left","left",0.639999866,1,1,1
"486",39,479,0.3,"stim/52.jpeg",5,2,2,1,"HouseObjects",1,"stim/objects/HouseObjects/bleachbottle2.png",4,"left","left",0.562000036,1,1,1
"487",39,480,0.9,"stim/22.jpeg",2,2,3,2,"HouseObjects",1,"stim/objects/HouseObjects/dustpan.png",1,"left","left",0.519999981,1,1,1
"488",39,481,0.1,"stim/12.jpeg",1,2,3,1,"HouseObjects",1,"stim/objects/HouseObjects/glassmop2.png",3,"left","right",0.701999903,0,0,1
"489",39,482,0.9,"stim/23.jpeg",2,3,3,2,"HouseObjects",1,"stim/objects/HouseObjects/garbagebin.png",3,"left","left",0.568000078,1,1,1
"490",39,483,0.9,"stim/23.jpeg",2,3,3,2,"HouseObjects",1,"stim/objects/HouseObjects/dustpan.png",4,"left","left",0.520999908,1,1,1
"491",39,484,0.7,"stim/51.jpeg",5,1,2,1,"Instruments",2,"stim/objects/Instruments/balalaika2.png",3,"right","left",0.496000051,0,0,1
"492",39,485,0.9,"stim/13.jpeg",1,3,3,1,"Instruments",2,"stim/objects/Instruments/flute2.png",3,"right","right",0.763000011,1,1,1
"493",39,486,0.7,"stim/61.jpeg",6,1,2,1,"HouseObjects",1,"stim/objects/HouseObjects/bottle2.png",4,"left","left",0.736999989,1,1,1
"494",39,487,0.9,"stim/22.jpeg",2,2,3,1,"HouseObjects",1,"stim/objects/HouseObjects/key2.png",3,"left","left",0.700999975,1,1,1
"495",39,488,0.9,"stim/22.jpeg",2,2,3,2,"HouseObjects",1,"stim/objects/HouseObjects/doormat.png",2,"left","left",0.545000076,1,1,1
"496",39,489,0.9,"stim/11.jpeg",1,1,3,2,"Instruments",2,"stim/objects/Instruments/frenchhorn.png",4,"right","right",0.724999905,1,1,1
"497",39,490,0.1,"stim/21.jpeg",2,1,3,1,"Instruments",2,"stim/objects/Instruments/oboe2.png",4,"right","right",0.856000185,1,1,1
"498",39,491,0.7,"stim/52.jpeg",5,2,2,2,"Instruments",2,"stim/objects/Instruments/electricdrumset.png",3,"right","left",0.444000006,0,0,1
"499",39,492,0.9,"stim/23.jpeg",2,3,3,2,"HouseObjects",1,"stim/objects/HouseObjects/glass.png",1,"left","left",0.622999907,1,1,1
"500",39,493,0.9,"stim/21.jpeg",2,1,3,2,"HouseObjects",1,"stim/objects/HouseObjects/dustpan.png",3,"left","left",0.496999979,1,1,1
"501",39,494,0.5,"stim/34.jpeg",3,4,1,2,"Instruments",2,"stim/objects/Instruments/banjo.png",3,"right","left",0.648000002,0,0,1
"502",39,495,0.3,"stim/52.jpeg",5,2,2,1,"HouseObjects",1,"stim/objects/HouseObjects/ashtray2.png",3,"left","",NA,0,0,1
"503",39,496,0.9,"stim/11.jpeg",1,1,3,2,"Instruments",2,"stim/objects/Instruments/gong.png",3,"right","right",0.720999956,1,1,1
"504",39,497,0.7,"stim/53.jpeg",5,3,2,1,"Instruments",2,"stim/objects/Instruments/oboe.png",1,"right","left",0.501000166,0,0,1
"505",39,498,0.9,"stim/12.jpeg",1,2,3,2,"Instruments",2,"stim/objects/Instruments/flute.png",2,"right","right",0.596999884,1,1,1
"506",39,499,0.5,"stim/31.jpeg",3,1,1,2,"HouseObjects",1,"stim/objects/HouseObjects/bleachbottle.png",3,"left","left",0.887000084,1,1,1
"507",39,500,0.7,"stim/64.jpeg",6,4,2,1,"HouseObjects",1,"stim/objects/HouseObjects/clock2.png",1,"left","left",0.677000046,1,1,1
"508",39,501,0.1,"stim/14.jpeg",1,4,3,1,"HouseObjects",1,"stim/objects/HouseObjects/handbrush2.png",2,"left","right",0.603999853,0,0,1
"509",39,502,0.9,"stim/14.jpeg",1,4,3,2,"Instruments",2,"stim/objects/Instruments/grandpiano.png",4,"right","right",0.713000059,1,1,1
"510",39,503,0.5,"stim/44.jpeg",4,4,1,2,"HouseObjects",1,"stim/objects/HouseObjects/bottle.png",2,"left","left",0.592000008,1,1,1
"511",39,504,0.7,"stim/52.jpeg",5,2,2,1,"Instruments",2,"stim/objects/Instruments/record.png",3,"right","left",0.496999979,0,0,1
"512",39,505,0.3,"stim/61.jpeg",6,1,2,1,"Instruments",2,"stim/objects/Instruments/clarinet2.png",3,"right","left",0.655999899,0,0,1
"513",39,506,0.9,"stim/23.jpeg",2,3,3,1,"HouseObjects",1,"stim/objects/HouseObjects/knife2.png",3,"left","left",0.558000088,1,1,1
"514",39,507,0.9,"stim/14.jpeg",1,4,3,2,"Instruments",2,"stim/objects/Instruments/grandpiano.png",2,"right","right",0.536999941,1,1,1
"515",39,508,0.9,"stim/14.jpeg",1,4,3,2,"Instruments",2,"stim/objects/Instruments/flute.png",4,"right","right",0.57400012,1,1,1
"516",39,509,0.9,"stim/13.jpeg",1,3,3,2,"Instruments",2,"stim/objects/Instruments/flute.png",4,"right","right",0.572000027,1,1,1
"517",39,510,0.9,"stim/23.jpeg",2,3,3,2,"HouseObjects",1,"stim/objects/HouseObjects/garbagebin.png",3,"left","left",0.498000145,1,1,1
"518",39,511,0.9,"stim/11.jpeg",1,1,3,2,"Instruments",2,"stim/objects/Instruments/grandpiano.png",1,"right","right",0.563000202,1,1,1
"519",39,512,0.9,"stim/24.jpeg",2,4,3,1,"HouseObjects",1,"stim/objects/HouseObjects/lintroller2.png",4,"left","left",0.540999889,1,1,1
"520",39,513,0.7,"stim/54.jpeg",5,4,2,2,"Instruments",2,"stim/objects/Instruments/doublebass.png",2,"right","left",0.59100008,0,0,1
"521",39,514,0.9,"stim/13.jpeg",1,3,3,2,"Instruments",2,"stim/objects/Instruments/gong.png",4,"right","right",0.690000057,1,1,1
"522",39,515,0.9,"stim/14.jpeg",1,4,3,2,"Instruments",2,"stim/objects/Instruments/flute.png",4,"right","",NA,0,0,1
"523",39,516,0.5,"stim/33.jpeg",3,3,1,2,"HouseObjects",1,"stim/objects/HouseObjects/ballofstring.png",1,"left","left",0.552000046,1,1,1
"524",39,517,0.9,"stim/22.jpeg",2,2,3,1,"HouseObjects",1,"stim/objects/HouseObjects/rubbergloves2.png",4,"left","left",0.578999996,1,1,1
"525",39,518,0.9,"stim/11.jpeg",1,1,3,2,"Instruments",2,"stim/objects/Instruments/flutetrans.png",3,"right","right",0.608999968,1,1,1
"526",39,519,0.9,"stim/24.jpeg",2,4,3,2,"HouseObjects",1,"stim/objects/HouseObjects/doormat.png",4,"left","left",0.532999992,1,1,1
"527",39,520,0.5,"stim/33.jpeg",3,3,1,1,"HouseObjects",1,"stim/objects/HouseObjects/iron.png",2,"left","left",0.609999895,1,1,1
"528",39,521,0.5,"stim/34.jpeg",3,4,1,2,"Instruments",2,"stim/objects/Instruments/bassdrum.png",3,"right","right",0.729000092,1,1,1
"529",39,522,0.9,"stim/12.jpeg",1,2,3,2,"Instruments",2,"stim/objects/Instruments/gong.png",4,"right","right",0.627000093,1,1,1
"530",39,523,0.7,"stim/62.jpeg",6,2,2,1,"HouseObjects",1,"stim/objects/HouseObjects/broom2.png",2,"left","left",0.542999983,1,1,1
"531",39,524,0.9,"stim/12.jpeg",1,2,3,1,"Instruments",2,"stim/objects/Instruments/harp2.png",2,"right","right",0.542999983,1,1,1
"532",39,525,0.5,"stim/43.jpeg",4,3,1,2,"HouseObjects",1,"stim/objects/HouseObjects/bucket.png",3,"left","left",0.529000044,1,1,1
"533",39,526,0.5,"stim/44.jpeg",4,4,1,1,"Instruments",2,"stim/objects/Instruments/musicsheet.png",2,"right","left",0.488000154,0,0,1
"534",39,527,0.1,"stim/23.jpeg",2,3,3,1,"Instruments",2,"stim/objects/Instruments/laud2.png",4,"right","left",0.595999956,0,0,1
"535",39,528,0.9,"stim/22.jpeg",2,2,3,2,"HouseObjects",1,"stim/objects/HouseObjects/flyswatter.png",3,"left","left",0.562000036,1,1,1
"536",39,529,0.7,"stim/51.jpeg",5,1,2,2,"Instruments",2,"stim/objects/Instruments/drums.png",2,"right","left",0.59800005,0,0,1
"537",39,530,0.9,"stim/21.jpeg",2,1,3,2,"HouseObjects",1,"stim/objects/HouseObjects/garbagebin.png",3,"left","left",0.606000185,1,1,1
"538",39,531,0.9,"stim/14.jpeg",1,4,3,2,"Instruments",2,"stim/objects/Instruments/gong.png",4,"right","right",0.696000099,1,1,1
"539",39,532,0.1,"stim/11.jpeg",1,1,3,1,"HouseObjects",1,"stim/objects/HouseObjects/doormat2.png",4,"left","right",0.825999975,0,0,1
"540",39,533,0.9,"stim/21.jpeg",2,1,3,2,"HouseObjects",1,"stim/objects/HouseObjects/glass.png",4,"left","left",0.552999973,1,1,1
"541",39,534,0.7,"stim/63.jpeg",6,3,2,2,"HouseObjects",1,"stim/objects/HouseObjects/clothesdryingrack.png",2,"left","left",0.667999983,1,1,1
"542",39,535,0.7,"stim/64.jpeg",6,4,2,2,"HouseObjects",1,"stim/objects/HouseObjects/cushion.png",3,"left","left",0.662000179,1,1,1
"543",39,536,0.3,"stim/64.jpeg",6,4,2,1,"Instruments",2,"stim/objects/Instruments/doublebass2.png",2,"right","left",0.648999929,0,0,1
"544",39,537,0.7,"stim/63.jpeg",6,3,2,2,"HouseObjects",1,"stim/objects/HouseObjects/dishsoap.png",4,"left","right",0.589999914,0,0,1
"545",39,538,0.9,"stim/11.jpeg",1,1,3,2,"Instruments",2,"stim/objects/Instruments/flute.png",4,"right","left",0.529000044,0,0,1
"546",39,539,0.9,"stim/13.jpeg",1,3,3,2,"Instruments",2,"stim/objects/Instruments/flutetrans.png",3,"right","right",0.700000048,1,1,1
"547",39,540,0.1,"stim/21.jpeg",2,1,3,1,"Instruments",2,"stim/objects/Instruments/marimba2.png",2,"right","left",0.555000067,0,0,1
"548",39,541,0.7,"stim/52.jpeg",5,2,2,1,"Instruments",2,"stim/objects/Instruments/musicstand.png",2,"right","left",0.555999994,0,0,1
"549",39,542,0.9,"stim/23.jpeg",2,3,3,2,"HouseObjects",1,"stim/objects/HouseObjects/garbagebin.png",1,"left","",NA,0,0,1
"550",39,543,0.5,"stim/43.jpeg",4,3,1,2,"HouseObjects",1,"stim/objects/HouseObjects/clock.png",1,"left","left",0.479000092,1,1,1
"551",39,544,0.9,"stim/12.jpeg",1,2,3,2,"Instruments",2,"stim/objects/Instruments/flute.png",2,"right","right",0.569000006,1,1,1
"552",39,545,0.3,"stim/62.jpeg",6,2,2,1,"Instruments",2,"stim/objects/Instruments/cornet2.png",2,"right","left",0.528000116,0,0,1
"553",39,546,0.5,"stim/32.jpeg",3,2,1,1,"Instruments",2,"stim/objects/Instruments/guitarcase.png",2,"right","left",0.572999954,0,0,1
"554",39,547,0.5,"stim/44.jpeg",4,4,1,1,"Instruments",2,"stim/objects/Instruments/laud.png",1,"right","left",0.782999992,0,0,1
"555",39,548,0.9,"stim/11.jpeg",1,1,3,1,"Instruments",2,"stim/objects/Instruments/harmonica2.png",3,"right","right",0.643000126,1,1,1
"556",39,549,0.5,"stim/32.jpeg",3,2,1,2,"HouseObjects",1,"stim/objects/HouseObjects/ballofstring.png",3,"left","left",0.606000185,1,1,1
"557",39,550,0.7,"stim/63.jpeg",6,3,2,2,"HouseObjects",1,"stim/objects/HouseObjects/coffee.png",1,"left","left",0.539000034,1,1,1
"558",39,551,0.9,"stim/22.jpeg",2,2,3,2,"HouseObjects",1,"stim/objects/HouseObjects/glass.png",2,"left","right",0.460999966,0,0,1
"559",39,552,0.9,"stim/21.jpeg",2,1,3,2,"HouseObjects",1,"stim/objects/HouseObjects/garbagebin.png",3,"left","left",0.526000023,1,1,1
"560",39,553,0.9,"stim/11.jpeg",1,1,3,2,"Instruments",2,"stim/objects/Instruments/flutetrans.png",3,"right","right",0.611000061,1,1,1
"561",39,554,0.3,"stim/63.jpeg",6,3,2,1,"Instruments",2,"stim/objects/Instruments/electricguitar2.png",1,"right","left",0.553999901,0,0,1
"562",39,555,0.5,"stim/32.jpeg",3,2,1,1,"HouseObjects",1,"stim/objects/HouseObjects/handvacuum.png",2,"left","left",0.458999872,1,1,1
"563",39,556,0.7,"stim/61.jpeg",6,1,2,1,"HouseObjects",1,"stim/objects/HouseObjects/dishsoap2.png",1,"left","left",0.68599987,1,1,1
"564",39,557,0.5,"stim/31.jpeg",3,1,1,2,"Instruments",2,"stim/objects/Instruments/acousticguitar.png",4,"right","left",0.611999989,0,0,1
"565",39,558,0.9,"stim/13.jpeg",1,3,3,2,"Instruments",2,"stim/objects/Instruments/flutetrans.png",4,"right","right",0.626000166,1,1,1
"566",39,559,0.5,"stim/43.jpeg",4,3,1,1,"Instruments",2,"stim/objects/Instruments/metronome.png",3,"right","left",0.507999897,0,0,1
"567",39,560,0.7,"stim/53.jpeg",5,3,2,2,"Instruments",2,"stim/objects/Instruments/cymbal.png",4,"right","left",0.728999853,0,0,1
"568",39,561,0.7,"stim/51.jpeg",5,1,2,2,"Instruments",2,"stim/objects/Instruments/cymbal.png",3,"right","left",0.619999886,0,0,1
"569",39,562,0.9,"stim/24.jpeg",2,4,3,2,"HouseObjects",1,"stim/objects/HouseObjects/doormat.png",2,"left","left",0.605000019,1,1,1
"570",39,563,0.9,"stim/22.jpeg",2,2,3,2,"HouseObjects",1,"stim/objects/HouseObjects/garbagebin.png",2,"left","left",0.463000059,1,1,1
"571",39,564,0.9,"stim/21.jpeg",2,1,3,2,"HouseObjects",1,"stim/objects/HouseObjects/flyswatter.png",1,"left","left",0.546999931,1,1,1
"572",39,565,0.9,"stim/23.jpeg",2,3,3,2,"HouseObjects",1,"stim/objects/HouseObjects/glass.png",3,"left","left",0.555999994,1,1,1
"573",39,566,0.9,"stim/13.jpeg",1,3,3,2,"Instruments",2,"stim/objects/Instruments/flute.png",3,"right","right",0.731000185,1,1,1
"574",39,567,0.9,"stim/23.jpeg",2,3,3,2,"HouseObjects",1,"stim/objects/HouseObjects/dustpan.png",4,"left","left",0.601999998,1,1,1
"575",39,568,0.9,"stim/14.jpeg",1,4,3,2,"Instruments",2,"stim/objects/Instruments/frenchhorn.png",1,"right","right",0.738000154,1,1,1
"576",39,569,0.9,"stim/11.jpeg",1,1,3,2,"Instruments",2,"stim/objects/Instruments/grandpiano.png",3,"right","right",0.60800004,1,1,1
"577",39,570,0.7,"stim/64.jpeg",6,4,2,1,"HouseObjects",1,"stim/objects/HouseObjects/cushion2.png",3,"left","left",0.686000109,1,1,1
