"","obj_file","X.x","participant.x","trialN.x","trial_cond","scn_file.x","scn_cat","scn_inst","scn_condition","fillers","obj_cat","obj_cat_num","quadrant","corr_ans","key_resp_trial.keys","key_resp_trial.rt","trial_acc","trial_acc_manual","group.x","practice","X.y","participant.y","OvsN","PE_level","object_cat","scn_file.y","corr_scn_cat","corr_scn_inst","scn_file.1","corr_loc","key_resp_id.keys","key_resp_id.rt","key_resp_conf.keys","key_resp_assoc.keys","key_resp_assoc.rt","key_resp_loc.keys","key_resp_loc.rt","trialN.y","id_acc","assoc.acc","cond_assoc","loc.acc","cond_loc","group.y"
"200","stim/objects/Instruments/trumpet2.png",1,39,1,0.9,"stim/14.jpeg",1,4,3,NA,"Instruments",2,2,"right","",NA,0,0,1,1,NA,NA,NA,NA,NA,NA,NA,NA,NA,NA,NA,NA,NA,NA,NA,NA,NA,NA,NA,NA,NA,NA,NA,NA
"112","stim/objects/HouseObjects/wateringcan2.png",2,39,2,0.9,"stim/24.jpeg",2,4,3,NA,"HouseObjects",1,4,"left","left",0.654999971,1,1,1,1,NA,NA,NA,NA,NA,NA,NA,NA,NA,NA,NA,NA,NA,NA,NA,NA,NA,NA,NA,NA,NA,NA,NA,NA
"158","stim/objects/Instruments/timbal2.png",3,39,3,0.9,"stim/11.jpeg",1,1,3,NA,"Instruments",2,1,"right","right",0.633000135,1,1,1,1,NA,NA,NA,NA,NA,NA,NA,NA,NA,NA,NA,NA,NA,NA,NA,NA,NA,NA,NA,NA,NA,NA,NA,NA
"18","stim/objects/HouseObjects/safetypin2.png",4,39,4,0.7,"stim/62.jpeg",6,2,2,NA,"HouseObjects",1,3,"left","left",0.866999865,1,1,1,1,NA,NA,NA,NA,NA,NA,NA,NA,NA,NA,NA,NA,NA,NA,NA,NA,NA,NA,NA,NA,NA,NA,NA,NA
"76","stim/objects/HouseObjects/thread2.png",5,39,5,0.9,"stim/21.jpeg",2,1,3,NA,"HouseObjects",1,2,"left","left",0.893000126,1,1,1,1,NA,NA,NA,NA,NA,NA,NA,NA,NA,NA,NA,NA,NA,NA,NA,NA,NA,NA,NA,NA,NA,NA,NA,NA
"172","stim/objects/Instruments/triangle2.png",6,39,6,0.9,"stim/12.jpeg",1,2,3,NA,"Instruments",2,1,"right","right",0.578999996,1,1,1,1,NA,NA,NA,NA,NA,NA,NA,NA,NA,NA,NA,NA,NA,NA,NA,NA,NA,NA,NA,NA,NA,NA,NA,NA
"55","stim/objects/HouseObjects/spraybottle.png",7,39,7,0.5,"stim/42.jpeg",4,2,1,NA,"HouseObjects",1,4,"left","left",0.640000105,1,1,1,1,NA,NA,NA,NA,NA,NA,NA,NA,NA,NA,NA,NA,NA,NA,NA,NA,NA,NA,NA,NA,NA,NA,NA,NA
"186","stim/objects/Instruments/trombone2.png",8,39,8,0.9,"stim/13.jpeg",1,3,3,NA,"Instruments",2,2,"right","right",0.645999908,1,1,1,1,NA,NA,NA,NA,NA,NA,NA,NA,NA,NA,NA,NA,NA,NA,NA,NA,NA,NA,NA,NA,NA,NA,NA,NA
"42","stim/objects/HouseObjects/scale2.png",9,39,9,0.7,"stim/64.jpeg",6,4,2,NA,"HouseObjects",1,2,"left","left",0.673000097,1,1,1,1,NA,NA,NA,NA,NA,NA,NA,NA,NA,NA,NA,NA,NA,NA,NA,NA,NA,NA,NA,NA,NA,NA,NA,NA
"181","stim/objects/Instruments/trombone.png",10,39,10,0.5,"stim/43.jpeg",4,3,1,NA,"Instruments",2,3,"right","right",0.602999926,1,1,1,1,NA,NA,NA,NA,NA,NA,NA,NA,NA,NA,NA,NA,NA,NA,NA,NA,NA,NA,NA,NA,NA,NA,NA,NA
"233","stim/objects/Instruments/xylophone.png",11,39,11,0.7,"stim/54.jpeg",5,4,2,NA,"Instruments",2,4,"right","",NA,0,0,1,1,NA,NA,NA,NA,NA,NA,NA,NA,NA,NA,NA,NA,NA,NA,NA,NA,NA,NA,NA,NA,NA,NA,NA,NA
"56","stim/objects/HouseObjects/spraybottle.png",12,39,12,0.5,"stim/42.jpeg",4,2,1,NA,"HouseObjects",1,4,"left","left",0.779000044,1,1,1,1,NA,NA,NA,NA,NA,NA,NA,NA,NA,NA,NA,NA,NA,NA,NA,NA,NA,NA,NA,NA,NA,NA,NA,NA
"13","stim/objects/HouseObjects/safetypin.png",13,39,13,0.5,"stim/32.jpeg",3,2,1,NA,"HouseObjects",1,4,"left","left",0.72300005,1,1,1,1,NA,NA,NA,NA,NA,NA,NA,NA,NA,NA,NA,NA,NA,NA,NA,NA,NA,NA,NA,NA,NA,NA,NA,NA
"159","stim/objects/Instruments/timbal2.png",14,39,14,0.9,"stim/11.jpeg",1,1,3,NA,"Instruments",2,1,"right","right",0.541000128,1,1,1,1,NA,NA,NA,NA,NA,NA,NA,NA,NA,NA,NA,NA,NA,NA,NA,NA,NA,NA,NA,NA,NA,NA,NA,NA
"37","stim/objects/HouseObjects/scale.png",15,39,15,0.5,"stim/34.jpeg",3,4,1,NA,"HouseObjects",1,3,"left","left",0.90500021,1,1,1,1,NA,NA,NA,NA,NA,NA,NA,NA,NA,NA,NA,NA,NA,NA,NA,NA,NA,NA,NA,NA,NA,NA,NA,NA
"100","stim/objects/HouseObjects/vacuumcleaner2.png",16,39,16,0.9,"stim/23.jpeg",2,3,3,NA,"HouseObjects",1,4,"left","left",0.621000051,1,1,1,1,NA,NA,NA,NA,NA,NA,NA,NA,NA,NA,NA,NA,NA,NA,NA,NA,NA,NA,NA,NA,NA,NA,NA,NA
"225","stim/objects/Instruments/vuvuzela.png",17,39,17,0.7,"stim/53.jpeg",5,3,2,NA,"Instruments",2,1,"right","right",0.606999874,1,1,1,1,NA,NA,NA,NA,NA,NA,NA,NA,NA,NA,NA,NA,NA,NA,NA,NA,NA,NA,NA,NA,NA,NA,NA,NA
"137","stim/objects/Instruments/speaker.png",18,39,18,0.5,"stim/33.jpeg",3,3,1,NA,"Instruments",2,3,"right","left",0.769000053,0,0,1,1,NA,NA,NA,NA,NA,NA,NA,NA,NA,NA,NA,NA,NA,NA,NA,NA,NA,NA,NA,NA,NA,NA,NA,NA
"145","stim/objects/Instruments/tambourine.png",19,39,19,0.5,"stim/34.jpeg",3,4,1,NA,"Instruments",2,1,"right","right",0.719000101,1,1,1,1,NA,NA,NA,NA,NA,NA,NA,NA,NA,NA,NA,NA,NA,NA,NA,NA,NA,NA,NA,NA,NA,NA,NA,NA
"60","stim/objects/HouseObjects/spraybottle2.png",20,39,20,0.1,"stim/12.jpeg",1,2,3,NA,"HouseObjects",1,3,"left","right",0.64199996,0,0,1,1,NA,NA,NA,NA,NA,NA,NA,NA,NA,NA,NA,NA,NA,NA,NA,NA,NA,NA,NA,NA,NA,NA,NA,NA
"1","stim/objects/HouseObjects/rug.png",21,39,21,0.5,"stim/31.jpeg",3,1,1,NA,"HouseObjects",1,3,"left","right",0.620999813,0,0,1,1,NA,NA,NA,NA,NA,NA,NA,NA,NA,NA,NA,NA,NA,NA,NA,NA,NA,NA,NA,NA,NA,NA,NA,NA
"88","stim/objects/HouseObjects/towel2.png",22,39,22,0.9,"stim/22.jpeg",2,2,3,NA,"HouseObjects",1,3,"left","left",0.470999956,1,1,1,1,NA,NA,NA,NA,NA,NA,NA,NA,NA,NA,NA,NA,NA,NA,NA,NA,NA,NA,NA,NA,NA,NA,NA,NA
"187","stim/objects/Instruments/trombone2.png",23,39,23,0.9,"stim/13.jpeg",1,3,3,NA,"Instruments",2,4,"right","right",0.842999935,1,1,1,1,NA,NA,NA,NA,NA,NA,NA,NA,NA,NA,NA,NA,NA,NA,NA,NA,NA,NA,NA,NA,NA,NA,NA,NA
"173","stim/objects/Instruments/triangle2.png",24,39,24,0.9,"stim/12.jpeg",1,2,3,NA,"Instruments",2,2,"right","right",0.708999872,1,1,1,1,NA,NA,NA,NA,NA,NA,NA,NA,NA,NA,NA,NA,NA,NA,NA,NA,NA,NA,NA,NA,NA,NA,NA,NA
"188","stim/objects/Instruments/trombone2.png",25,39,25,0.9,"stim/13.jpeg",1,3,3,NA,"Instruments",2,2,"right","right",0.74000001,1,1,1,1,NA,NA,NA,NA,NA,NA,NA,NA,NA,NA,NA,NA,NA,NA,NA,NA,NA,NA,NA,NA,NA,NA,NA,NA
"6","stim/objects/HouseObjects/rug2.png",26,39,26,0.7,"stim/61.jpeg",6,1,2,NA,"HouseObjects",1,3,"left","left",0.703000069,1,1,1,1,NA,NA,NA,NA,NA,NA,NA,NA,NA,NA,NA,NA,NA,NA,NA,NA,NA,NA,NA,NA,NA,NA,NA,NA
"129","stim/objects/Instruments/saxophone.png",27,39,27,0.5,"stim/32.jpeg",3,2,1,NA,"Instruments",2,1,"right","right",0.514999866,1,1,1,1,NA,NA,NA,NA,NA,NA,NA,NA,NA,NA,NA,NA,NA,NA,NA,NA,NA,NA,NA,NA,NA,NA,NA,NA
"30","stim/objects/HouseObjects/saw2.png",28,39,28,0.7,"stim/63.jpeg",6,3,2,NA,"HouseObjects",1,4,"left","left",0.570000172,1,1,1,1,NA,NA,NA,NA,NA,NA,NA,NA,NA,NA,NA,NA,NA,NA,NA,NA,NA,NA,NA,NA,NA,NA,NA,NA
"14","stim/objects/HouseObjects/safetypin.png",29,39,29,0.5,"stim/32.jpeg",3,2,1,NA,"HouseObjects",1,3,"left","right",0.519000053,0,0,1,1,NA,NA,NA,NA,NA,NA,NA,NA,NA,NA,NA,NA,NA,NA,NA,NA,NA,NA,NA,NA,NA,NA,NA,NA
"174","stim/objects/Instruments/triangle2.png",30,39,30,0.9,"stim/12.jpeg",1,2,3,NA,"Instruments",2,3,"right","right",0.598999977,1,1,1,1,NA,NA,NA,NA,NA,NA,NA,NA,NA,NA,NA,NA,NA,NA,NA,NA,NA,NA,NA,NA,NA,NA,NA,NA
"31","stim/objects/HouseObjects/saw2.png",31,39,31,0.7,"stim/63.jpeg",6,3,2,NA,"HouseObjects",1,4,"left","left",0.636999846,1,1,1,1,NA,NA,NA,NA,NA,NA,NA,NA,NA,NA,NA,NA,NA,NA,NA,NA,NA,NA,NA,NA,NA,NA,NA,NA
"77","stim/objects/HouseObjects/thread2.png",32,39,32,0.9,"stim/21.jpeg",2,1,3,NA,"HouseObjects",1,4,"left","right",0.816000223,0,0,1,1,NA,NA,NA,NA,NA,NA,NA,NA,NA,NA,NA,NA,NA,NA,NA,NA,NA,NA,NA,NA,NA,NA,NA,NA
"121","stim/objects/Instruments/record_player.png",33,39,33,0.5,"stim/31.jpeg",3,1,1,NA,"Instruments",2,1,"right","left",0.754999876,0,0,1,1,NA,NA,NA,NA,NA,NA,NA,NA,NA,NA,NA,NA,NA,NA,NA,NA,NA,NA,NA,NA,NA,NA,NA,NA
"160","stim/objects/Instruments/timbal2.png",34,39,34,0.9,"stim/11.jpeg",1,1,3,NA,"Instruments",2,1,"right","right",0.717999935,1,1,1,1,NA,NA,NA,NA,NA,NA,NA,NA,NA,NA,NA,NA,NA,NA,NA,NA,NA,NA,NA,NA,NA,NA,NA,NA
"150","stim/objects/Instruments/tambourine2.png",35,39,35,0.3,"stim/64.jpeg",6,4,2,NA,"Instruments",2,4,"right","left",0.733999968,0,0,1,1,NA,NA,NA,NA,NA,NA,NA,NA,NA,NA,NA,NA,NA,NA,NA,NA,NA,NA,NA,NA,NA,NA,NA,NA
"161","stim/objects/Instruments/timbal2.png",36,39,36,0.9,"stim/11.jpeg",1,1,3,NA,"Instruments",2,4,"right","right",0.74000001,1,1,1,1,NA,NA,NA,NA,NA,NA,NA,NA,NA,NA,NA,NA,NA,NA,NA,NA,NA,NA,NA,NA,NA,NA,NA,NA
"49","stim/objects/HouseObjects/sponge.png",37,39,37,0.5,"stim/41.jpeg",4,1,1,NA,"HouseObjects",1,4,"left","right",0.638000011,0,0,1,1,NA,NA,NA,NA,NA,NA,NA,NA,NA,NA,NA,NA,NA,NA,NA,NA,NA,NA,NA,NA,NA,NA,NA,NA
"57","stim/objects/HouseObjects/spraybottle.png",38,39,38,0.5,"stim/42.jpeg",4,2,1,NA,"HouseObjects",1,4,"left","left",0.687999964,1,1,1,1,NA,NA,NA,NA,NA,NA,NA,NA,NA,NA,NA,NA,NA,NA,NA,NA,NA,NA,NA,NA,NA,NA,NA,NA
"126","stim/objects/Instruments/record_player2.png",39,39,39,0.3,"stim/61.jpeg",6,1,2,NA,"Instruments",2,1,"right","left",0.917999983,0,0,1,1,NA,NA,NA,NA,NA,NA,NA,NA,NA,NA,NA,NA,NA,NA,NA,NA,NA,NA,NA,NA,NA,NA,NA,NA
"201","stim/objects/Instruments/trumpet2.png",40,39,40,0.9,"stim/14.jpeg",1,4,3,NA,"Instruments",2,3,"right","right",0.648000002,1,1,1,1,NA,NA,NA,NA,NA,NA,NA,NA,NA,NA,NA,NA,NA,NA,NA,NA,NA,NA,NA,NA,NA,NA,NA,NA
"85","stim/objects/HouseObjects/towel.png",41,39,41,0.3,"stim/52.jpeg",5,2,2,NA,"HouseObjects",1,2,"left","",NA,0,0,1,1,NA,NA,NA,NA,NA,NA,NA,NA,NA,NA,NA,NA,NA,NA,NA,NA,NA,NA,NA,NA,NA,NA,NA,NA
"72","stim/objects/HouseObjects/thermometer2.png",42,39,42,0.1,"stim/14.jpeg",1,4,3,NA,"HouseObjects",1,3,"left","",NA,0,0,1,1,NA,NA,NA,NA,NA,NA,NA,NA,NA,NA,NA,NA,NA,NA,NA,NA,NA,NA,NA,NA,NA,NA,NA,NA
"151","stim/objects/Instruments/tambourine2.png",43,39,43,0.3,"stim/64.jpeg",6,4,2,NA,"Instruments",2,3,"right","",NA,0,0,1,1,NA,NA,NA,NA,NA,NA,NA,NA,NA,NA,NA,NA,NA,NA,NA,NA,NA,NA,NA,NA,NA,NA,NA,NA
"189","stim/objects/Instruments/trombone2.png",44,39,44,0.9,"stim/13.jpeg",1,3,3,NA,"Instruments",2,3,"right","left",0.659000158,0,0,1,1,NA,NA,NA,NA,NA,NA,NA,NA,NA,NA,NA,NA,NA,NA,NA,NA,NA,NA,NA,NA,NA,NA,NA,NA
"89","stim/objects/HouseObjects/towel2.png",45,39,45,0.9,"stim/22.jpeg",2,2,3,NA,"HouseObjects",1,2,"left","right",0.641000032,0,0,1,1,NA,NA,NA,NA,NA,NA,NA,NA,NA,NA,NA,NA,NA,NA,NA,NA,NA,NA,NA,NA,NA,NA,NA,NA
"134","stim/objects/Instruments/saxophone2.png",46,39,46,0.3,"stim/62.jpeg",6,2,2,NA,"Instruments",2,3,"right","left",0.483999968,0,0,1,1,NA,NA,NA,NA,NA,NA,NA,NA,NA,NA,NA,NA,NA,NA,NA,NA,NA,NA,NA,NA,NA,NA,NA,NA
"78","stim/objects/HouseObjects/thread2.png",47,39,47,0.9,"stim/21.jpeg",2,1,3,NA,"HouseObjects",1,2,"left","right",0.529000044,0,0,1,1,NA,NA,NA,NA,NA,NA,NA,NA,NA,NA,NA,NA,NA,NA,NA,NA,NA,NA,NA,NA,NA,NA,NA,NA
"109","stim/objects/HouseObjects/wateringcan.png",48,39,48,0.3,"stim/54.jpeg",5,4,2,NA,"HouseObjects",1,2,"left","right",0.79399991,0,0,1,1,NA,NA,NA,NA,NA,NA,NA,NA,NA,NA,NA,NA,NA,NA,NA,NA,NA,NA,NA,NA,NA,NA,NA,NA
"217","stim/objects/Instruments/violin.png",49,39,49,0.7,"stim/52.jpeg",5,2,2,NA,"Instruments",2,2,"right","right",0.734999895,1,1,1,1,NA,NA,NA,NA,NA,NA,NA,NA,NA,NA,NA,NA,NA,NA,NA,NA,NA,NA,NA,NA,NA,NA,NA,NA
"138","stim/objects/Instruments/speaker.png",50,39,50,0.5,"stim/33.jpeg",3,3,1,NA,"Instruments",2,1,"right","right",0.619999886,1,1,1,1,NA,NA,NA,NA,NA,NA,NA,NA,NA,NA,NA,NA,NA,NA,NA,NA,NA,NA,NA,NA,NA,NA,NA,NA
"67","stim/objects/HouseObjects/thermometer.png",51,39,51,0.5,"stim/44.jpeg",4,4,1,NA,"HouseObjects",1,2,"left","left",0.614000082,1,1,1,1,NA,NA,NA,NA,NA,NA,NA,NA,NA,NA,NA,NA,NA,NA,NA,NA,NA,NA,NA,NA,NA,NA,NA,NA
"234","stim/objects/Instruments/xylophone.png",52,39,52,0.7,"stim/54.jpeg",5,4,2,NA,"Instruments",2,1,"right","right",0.736000061,1,1,1,1,NA,NA,NA,NA,NA,NA,NA,NA,NA,NA,NA,NA,NA,NA,NA,NA,NA,NA,NA,NA,NA,NA,NA,NA
"202","stim/objects/Instruments/trumpet2.png",53,39,53,0.9,"stim/14.jpeg",1,4,3,NA,"Instruments",2,3,"right","left",0.578999996,0,0,1,1,NA,NA,NA,NA,NA,NA,NA,NA,NA,NA,NA,NA,NA,NA,NA,NA,NA,NA,NA,NA,NA,NA,NA,NA
"38","stim/objects/HouseObjects/scale.png",54,39,54,0.5,"stim/34.jpeg",3,4,1,NA,"HouseObjects",1,4,"left","right",0.377000093,0,0,1,1,NA,NA,NA,NA,NA,NA,NA,NA,NA,NA,NA,NA,NA,NA,NA,NA,NA,NA,NA,NA,NA,NA,NA,NA
"2","stim/objects/HouseObjects/rug.png",55,39,55,0.5,"stim/31.jpeg",3,1,1,NA,"HouseObjects",1,1,"left","right",0.674000025,0,0,1,1,NA,NA,NA,NA,NA,NA,NA,NA,NA,NA,NA,NA,NA,NA,NA,NA,NA,NA,NA,NA,NA,NA,NA,NA
"79","stim/objects/HouseObjects/thread2.png",56,39,56,0.9,"stim/21.jpeg",2,1,3,NA,"HouseObjects",1,4,"left","right",0.575999975,0,0,1,1,NA,NA,NA,NA,NA,NA,NA,NA,NA,NA,NA,NA,NA,NA,NA,NA,NA,NA,NA,NA,NA,NA,NA,NA
"195","stim/objects/Instruments/trumpet.png",57,39,57,0.5,"stim/44.jpeg",4,4,1,NA,"Instruments",2,3,"right","left",0.498000145,0,0,1,1,NA,NA,NA,NA,NA,NA,NA,NA,NA,NA,NA,NA,NA,NA,NA,NA,NA,NA,NA,NA,NA,NA,NA,NA
"130","stim/objects/Instruments/saxophone.png",58,39,58,0.5,"stim/32.jpeg",3,2,1,NA,"Instruments",2,1,"right","left",0.654999971,0,0,1,1,NA,NA,NA,NA,NA,NA,NA,NA,NA,NA,NA,NA,NA,NA,NA,NA,NA,NA,NA,NA,NA,NA,NA,NA
"15","stim/objects/HouseObjects/safetypin.png",59,39,59,0.5,"stim/32.jpeg",3,2,1,NA,"HouseObjects",1,3,"left","right",0.708000183,0,0,1,1,NA,NA,NA,NA,NA,NA,NA,NA,NA,NA,NA,NA,NA,NA,NA,NA,NA,NA,NA,NA,NA,NA,NA,NA
"101","stim/objects/HouseObjects/vacuumcleaner2.png",60,39,60,0.9,"stim/23.jpeg",2,3,3,NA,"HouseObjects",1,1,"left","",NA,0,0,1,1,NA,NA,NA,NA,NA,NA,NA,NA,NA,NA,NA,NA,NA,NA,NA,NA,NA,NA,NA,NA,NA,NA,NA,NA
"97","stim/objects/HouseObjects/vacuumcleaner.png",61,39,61,0.3,"stim/53.jpeg",5,3,2,NA,"HouseObjects",1,3,"left","",NA,0,0,1,1,NA,NA,NA,NA,NA,NA,NA,NA,NA,NA,NA,NA,NA,NA,NA,NA,NA,NA,NA,NA,NA,NA,NA,NA
"196","stim/objects/Instruments/trumpet.png",62,39,62,0.5,"stim/44.jpeg",4,4,1,NA,"Instruments",2,2,"right","left",0.736999989,0,0,1,1,NA,NA,NA,NA,NA,NA,NA,NA,NA,NA,NA,NA,NA,NA,NA,NA,NA,NA,NA,NA,NA,NA,NA,NA
"32","stim/objects/HouseObjects/saw2.png",63,39,63,0.7,"stim/63.jpeg",6,3,2,NA,"HouseObjects",1,2,"left","right",0.77699995,0,0,1,1,NA,NA,NA,NA,NA,NA,NA,NA,NA,NA,NA,NA,NA,NA,NA,NA,NA,NA,NA,NA,NA,NA,NA,NA
"90","stim/objects/HouseObjects/towel2.png",64,39,64,0.9,"stim/22.jpeg",2,2,3,NA,"HouseObjects",1,3,"left","left",0.705999851,1,1,1,1,NA,NA,NA,NA,NA,NA,NA,NA,NA,NA,NA,NA,NA,NA,NA,NA,NA,NA,NA,NA,NA,NA,NA,NA
"50","stim/objects/HouseObjects/sponge.png",65,39,65,0.5,"stim/41.jpeg",4,1,1,NA,"HouseObjects",1,2,"left","right",0.559000015,0,0,1,1,NA,NA,NA,NA,NA,NA,NA,NA,NA,NA,NA,NA,NA,NA,NA,NA,NA,NA,NA,NA,NA,NA,NA,NA
"209","stim/objects/Instruments/tuba.png",66,39,66,0.7,"stim/51.jpeg",5,1,2,NA,"Instruments",2,2,"right","right",0.718999863,1,1,1,1,NA,NA,NA,NA,NA,NA,NA,NA,NA,NA,NA,NA,NA,NA,NA,NA,NA,NA,NA,NA,NA,NA,NA,NA
"113","stim/objects/HouseObjects/wateringcan2.png",67,39,67,0.9,"stim/24.jpeg",2,4,3,NA,"HouseObjects",1,1,"left","left",0.621000051,1,1,1,1,NA,NA,NA,NA,NA,NA,NA,NA,NA,NA,NA,NA,NA,NA,NA,NA,NA,NA,NA,NA,NA,NA,NA,NA
"68","stim/objects/HouseObjects/thermometer.png",68,39,68,0.5,"stim/44.jpeg",4,4,1,NA,"HouseObjects",1,1,"left","right",0.755000114,0,0,1,1,NA,NA,NA,NA,NA,NA,NA,NA,NA,NA,NA,NA,NA,NA,NA,NA,NA,NA,NA,NA,NA,NA,NA,NA
"122","stim/objects/Instruments/record_player.png",69,39,69,0.5,"stim/31.jpeg",3,1,1,NA,"Instruments",2,1,"right","left",0.722999811,0,0,1,1,NA,NA,NA,NA,NA,NA,NA,NA,NA,NA,NA,NA,NA,NA,NA,NA,NA,NA,NA,NA,NA,NA,NA,NA
"142","stim/objects/Instruments/speaker2.png",70,39,70,0.3,"stim/63.jpeg",6,3,2,NA,"Instruments",2,4,"right","left",0.553999901,0,0,1,1,NA,NA,NA,NA,NA,NA,NA,NA,NA,NA,NA,NA,NA,NA,NA,NA,NA,NA,NA,NA,NA,NA,NA,NA
"167","stim/objects/Instruments/triangle.png",71,39,71,0.5,"stim/42.jpeg",4,2,1,NA,"Instruments",2,2,"right","right",0.503000021,1,1,1,1,NA,NA,NA,NA,NA,NA,NA,NA,NA,NA,NA,NA,NA,NA,NA,NA,NA,NA,NA,NA,NA,NA,NA,NA
"98","stim/objects/HouseObjects/vacuumcleaner.png",72,39,72,0.3,"stim/53.jpeg",5,3,2,NA,"HouseObjects",1,3,"left","right",0.604000092,0,0,1,1,NA,NA,NA,NA,NA,NA,NA,NA,NA,NA,NA,NA,NA,NA,NA,NA,NA,NA,NA,NA,NA,NA,NA,NA
"197","stim/objects/Instruments/trumpet.png",73,39,73,0.5,"stim/44.jpeg",4,4,1,NA,"Instruments",2,4,"right","right",0.769000053,1,1,1,1,NA,NA,NA,NA,NA,NA,NA,NA,NA,NA,NA,NA,NA,NA,NA,NA,NA,NA,NA,NA,NA,NA,NA,NA
"61","stim/objects/HouseObjects/teapot.png",74,39,74,0.5,"stim/43.jpeg",4,3,1,NA,"HouseObjects",1,2,"left","left",0.766000032,1,1,1,1,NA,NA,NA,NA,NA,NA,NA,NA,NA,NA,NA,NA,NA,NA,NA,NA,NA,NA,NA,NA,NA,NA,NA,NA
"146","stim/objects/Instruments/tambourine.png",75,39,75,0.5,"stim/34.jpeg",3,4,1,NA,"Instruments",2,2,"right","left",0.407999992,0,0,1,1,NA,NA,NA,NA,NA,NA,NA,NA,NA,NA,NA,NA,NA,NA,NA,NA,NA,NA,NA,NA,NA,NA,NA,NA
"203","stim/objects/Instruments/trumpet2.png",76,39,76,0.9,"stim/14.jpeg",1,4,3,NA,"Instruments",2,2,"right","right",0.701000214,1,1,1,1,NA,NA,NA,NA,NA,NA,NA,NA,NA,NA,NA,NA,NA,NA,NA,NA,NA,NA,NA,NA,NA,NA,NA,NA
"182","stim/objects/Instruments/trombone.png",77,39,77,0.5,"stim/43.jpeg",4,3,1,NA,"Instruments",2,4,"right","left",0.637000084,0,0,1,1,NA,NA,NA,NA,NA,NA,NA,NA,NA,NA,NA,NA,NA,NA,NA,NA,NA,NA,NA,NA,NA,NA,NA,NA
"190","stim/objects/Instruments/trombone2.png",78,39,78,0.9,"stim/13.jpeg",1,3,3,NA,"Instruments",2,3,"right","right",0.57400012,1,1,1,1,NA,NA,NA,NA,NA,NA,NA,NA,NA,NA,NA,NA,NA,NA,NA,NA,NA,NA,NA,NA,NA,NA,NA,NA
"91","stim/objects/HouseObjects/towel2.png",79,39,79,0.9,"stim/22.jpeg",2,2,3,NA,"HouseObjects",1,1,"left","left",0.657000065,1,1,1,1,NA,NA,NA,NA,NA,NA,NA,NA,NA,NA,NA,NA,NA,NA,NA,NA,NA,NA,NA,NA,NA,NA,NA,NA
"19","stim/objects/HouseObjects/safetypin2.png",80,39,80,0.7,"stim/62.jpeg",6,2,2,NA,"HouseObjects",1,2,"left","right",0.674999952,0,0,1,1,NA,NA,NA,NA,NA,NA,NA,NA,NA,NA,NA,NA,NA,NA,NA,NA,NA,NA,NA,NA,NA,NA,NA,NA
"218","stim/objects/Instruments/violin.png",81,39,81,0.7,"stim/52.jpeg",5,2,2,NA,"Instruments",2,3,"right","right",0.635999918,1,1,1,1,NA,NA,NA,NA,NA,NA,NA,NA,NA,NA,NA,NA,NA,NA,NA,NA,NA,NA,NA,NA,NA,NA,NA,NA
"33","stim/objects/HouseObjects/saw2.png",82,39,82,0.7,"stim/63.jpeg",6,3,2,NA,"HouseObjects",1,3,"left","left",0.703999996,1,1,1,1,NA,NA,NA,NA,NA,NA,NA,NA,NA,NA,NA,NA,NA,NA,NA,NA,NA,NA,NA,NA,NA,NA,NA,NA
"191","stim/objects/Instruments/trombone2.png",83,39,83,0.9,"stim/13.jpeg",1,3,3,NA,"Instruments",2,3,"right","right",0.637000084,1,1,1,1,NA,NA,NA,NA,NA,NA,NA,NA,NA,NA,NA,NA,NA,NA,NA,NA,NA,NA,NA,NA,NA,NA,NA,NA
"210","stim/objects/Instruments/tuba.png",84,39,84,0.7,"stim/51.jpeg",5,1,2,NA,"Instruments",2,1,"right","right",0.769000053,1,1,1,1,NA,NA,NA,NA,NA,NA,NA,NA,NA,NA,NA,NA,NA,NA,NA,NA,NA,NA,NA,NA,NA,NA,NA,NA
"92","stim/objects/HouseObjects/towel2.png",85,39,85,0.9,"stim/22.jpeg",2,2,3,NA,"HouseObjects",1,2,"left","left",0.586999893,1,1,1,1,NA,NA,NA,NA,NA,NA,NA,NA,NA,NA,NA,NA,NA,NA,NA,NA,NA,NA,NA,NA,NA,NA,NA,NA
"123","stim/objects/Instruments/record_player.png",86,39,86,0.5,"stim/31.jpeg",3,1,1,NA,"Instruments",2,2,"right","left",0.633000135,0,0,1,1,NA,NA,NA,NA,NA,NA,NA,NA,NA,NA,NA,NA,NA,NA,NA,NA,NA,NA,NA,NA,NA,NA,NA,NA
"131","stim/objects/Instruments/saxophone.png",87,39,87,0.5,"stim/32.jpeg",3,2,1,NA,"Instruments",2,4,"right","right",0.518000126,1,1,1,1,NA,NA,NA,NA,NA,NA,NA,NA,NA,NA,NA,NA,NA,NA,NA,NA,NA,NA,NA,NA,NA,NA,NA,NA
"198","stim/objects/Instruments/trumpet.png",88,39,88,0.5,"stim/44.jpeg",4,4,1,NA,"Instruments",2,1,"right","left",0.57400012,0,0,1,1,NA,NA,NA,NA,NA,NA,NA,NA,NA,NA,NA,NA,NA,NA,NA,NA,NA,NA,NA,NA,NA,NA,NA,NA
"114","stim/objects/HouseObjects/wateringcan2.png",89,39,89,0.9,"stim/24.jpeg",2,4,3,NA,"HouseObjects",1,4,"left","left",0.636999846,1,1,1,1,NA,NA,NA,NA,NA,NA,NA,NA,NA,NA,NA,NA,NA,NA,NA,NA,NA,NA,NA,NA,NA,NA,NA,NA
"226","stim/objects/Instruments/vuvuzela.png",90,39,90,0.7,"stim/53.jpeg",5,3,2,NA,"Instruments",2,1,"right","right",0.524999857,1,1,1,1,NA,NA,NA,NA,NA,NA,NA,NA,NA,NA,NA,NA,NA,NA,NA,NA,NA,NA,NA,NA,NA,NA,NA,NA
"43","stim/objects/HouseObjects/scale2.png",91,39,91,0.7,"stim/64.jpeg",6,4,2,NA,"HouseObjects",1,4,"left","left",0.604000092,1,1,1,1,NA,NA,NA,NA,NA,NA,NA,NA,NA,NA,NA,NA,NA,NA,NA,NA,NA,NA,NA,NA,NA,NA,NA,NA
"51","stim/objects/HouseObjects/sponge.png",92,39,92,0.5,"stim/41.jpeg",4,1,1,NA,"HouseObjects",1,3,"left","right",0.773000002,0,0,1,1,NA,NA,NA,NA,NA,NA,NA,NA,NA,NA,NA,NA,NA,NA,NA,NA,NA,NA,NA,NA,NA,NA,NA,NA
"20","stim/objects/HouseObjects/safetypin2.png",93,39,93,0.7,"stim/62.jpeg",6,2,2,NA,"HouseObjects",1,2,"left","left",0.545000076,1,1,1,1,NA,NA,NA,NA,NA,NA,NA,NA,NA,NA,NA,NA,NA,NA,NA,NA,NA,NA,NA,NA,NA,NA,NA,NA
"7","stim/objects/HouseObjects/rug2.png",94,39,94,0.7,"stim/61.jpeg",6,1,2,NA,"HouseObjects",1,1,"left","left",0.588000059,1,1,1,1,NA,NA,NA,NA,NA,NA,NA,NA,NA,NA,NA,NA,NA,NA,NA,NA,NA,NA,NA,NA,NA,NA,NA,NA
"162","stim/objects/Instruments/timbal2.png",95,39,95,0.9,"stim/11.jpeg",1,1,3,NA,"Instruments",2,4,"right","left",0.575999975,0,0,1,1,NA,NA,NA,NA,NA,NA,NA,NA,NA,NA,NA,NA,NA,NA,NA,NA,NA,NA,NA,NA,NA,NA,NA,NA
"127","stim/objects/Instruments/record_player2.png",96,39,96,0.3,"stim/61.jpeg",6,1,2,NA,"Instruments",2,1,"right","left",0.792999983,0,0,1,1,NA,NA,NA,NA,NA,NA,NA,NA,NA,NA,NA,NA,NA,NA,NA,NA,NA,NA,NA,NA,NA,NA,NA,NA
"153","stim/objects/Instruments/timbal.png",97,39,97,0.5,"stim/41.jpeg",4,1,1,NA,"Instruments",2,2,"right","left",0.569999933,0,0,1,1,NA,NA,NA,NA,NA,NA,NA,NA,NA,NA,NA,NA,NA,NA,NA,NA,NA,NA,NA,NA,NA,NA,NA,NA
"192","stim/objects/Instruments/trombone2.png",98,39,98,0.9,"stim/13.jpeg",1,3,3,NA,"Instruments",2,4,"right","right",0.718999863,1,1,1,1,NA,NA,NA,NA,NA,NA,NA,NA,NA,NA,NA,NA,NA,NA,NA,NA,NA,NA,NA,NA,NA,NA,NA,NA
"227","stim/objects/Instruments/vuvuzela.png",99,39,99,0.7,"stim/53.jpeg",5,3,2,NA,"Instruments",2,2,"right","left",0.621999979,0,0,1,1,NA,NA,NA,NA,NA,NA,NA,NA,NA,NA,NA,NA,NA,NA,NA,NA,NA,NA,NA,NA,NA,NA,NA,NA
"154","stim/objects/Instruments/timbal.png",100,39,100,0.5,"stim/41.jpeg",4,1,1,NA,"Instruments",2,2,"right","left",0.672999859,0,0,1,1,NA,NA,NA,NA,NA,NA,NA,NA,NA,NA,NA,NA,NA,NA,NA,NA,NA,NA,NA,NA,NA,NA,NA,NA
"128","stim/objects/Instruments/record_player2.png",101,39,101,0.3,"stim/61.jpeg",6,1,2,NA,"Instruments",2,3,"right","right",0.894999981,1,1,1,1,NA,NA,NA,NA,NA,NA,NA,NA,NA,NA,NA,NA,NA,NA,NA,NA,NA,NA,NA,NA,NA,NA,NA,NA
"183","stim/objects/Instruments/trombone.png",102,39,102,0.5,"stim/43.jpeg",4,3,1,NA,"Instruments",2,4,"right","left",0.771000147,0,0,1,1,NA,NA,NA,NA,NA,NA,NA,NA,NA,NA,NA,NA,NA,NA,NA,NA,NA,NA,NA,NA,NA,NA,NA,NA
"39","stim/objects/HouseObjects/scale.png",103,39,103,0.5,"stim/34.jpeg",3,4,1,NA,"HouseObjects",1,2,"left","right",0.635999918,0,0,1,1,NA,NA,NA,NA,NA,NA,NA,NA,NA,NA,NA,NA,NA,NA,NA,NA,NA,NA,NA,NA,NA,NA,NA,NA
"204","stim/objects/Instruments/trumpet2.png",104,39,104,0.9,"stim/14.jpeg",1,4,3,NA,"Instruments",2,4,"right","right",0.703999996,1,1,1,1,NA,NA,NA,NA,NA,NA,NA,NA,NA,NA,NA,NA,NA,NA,NA,NA,NA,NA,NA,NA,NA,NA,NA,NA
"62","stim/objects/HouseObjects/teapot.png",105,39,105,0.5,"stim/43.jpeg",4,3,1,NA,"HouseObjects",1,4,"left","left",0.638000011,1,1,1,1,NA,NA,NA,NA,NA,NA,NA,NA,NA,NA,NA,NA,NA,NA,NA,NA,NA,NA,NA,NA,NA,NA,NA,NA
"80","stim/objects/HouseObjects/thread2.png",106,39,106,0.9,"stim/21.jpeg",2,1,3,NA,"HouseObjects",1,1,"left","left",0.806999922,1,1,1,1,NA,NA,NA,NA,NA,NA,NA,NA,NA,NA,NA,NA,NA,NA,NA,NA,NA,NA,NA,NA,NA,NA,NA,NA
"232","stim/objects/Instruments/vuvuzela2.png",107,39,107,0.1,"stim/23.jpeg",2,3,3,NA,"Instruments",2,2,"right","left",0.619999886,0,0,1,1,NA,NA,NA,NA,NA,NA,NA,NA,NA,NA,NA,NA,NA,NA,NA,NA,NA,NA,NA,NA,NA,NA,NA,NA
"216","stim/objects/Instruments/tuba2.png",108,39,108,0.1,"stim/21.jpeg",2,1,3,NA,"Instruments",2,1,"right","left",0.722999811,0,0,1,1,NA,NA,NA,NA,NA,NA,NA,NA,NA,NA,NA,NA,NA,NA,NA,NA,NA,NA,NA,NA,NA,NA,NA,NA
"219","stim/objects/Instruments/violin.png",109,39,109,0.7,"stim/52.jpeg",5,2,2,NA,"Instruments",2,2,"right","left",0.622999907,0,0,1,1,NA,NA,NA,NA,NA,NA,NA,NA,NA,NA,NA,NA,NA,NA,NA,NA,NA,NA,NA,NA,NA,NA,NA,NA
"235","stim/objects/Instruments/xylophone.png",110,39,110,0.7,"stim/54.jpeg",5,4,2,NA,"Instruments",2,1,"right","right",0.673999786,1,1,1,1,NA,NA,NA,NA,NA,NA,NA,NA,NA,NA,NA,NA,NA,NA,NA,NA,NA,NA,NA,NA,NA,NA,NA,NA
"8","stim/objects/HouseObjects/rug2.png",111,39,111,0.7,"stim/61.jpeg",6,1,2,NA,"HouseObjects",1,3,"left","left",0.680999994,1,1,1,1,NA,NA,NA,NA,NA,NA,NA,NA,NA,NA,NA,NA,NA,NA,NA,NA,NA,NA,NA,NA,NA,NA,NA,NA
"220","stim/objects/Instruments/violin.png",112,39,112,0.7,"stim/52.jpeg",5,2,2,NA,"Instruments",2,3,"right","right",0.654999971,1,1,1,1,NA,NA,NA,NA,NA,NA,NA,NA,NA,NA,NA,NA,NA,NA,NA,NA,NA,NA,NA,NA,NA,NA,NA,NA
"240","stim/objects/Instruments/xylophone2.png",113,39,113,0.1,"stim/24.jpeg",2,4,3,NA,"Instruments",2,3,"right","left",0.677999973,0,0,1,1,NA,NA,NA,NA,NA,NA,NA,NA,NA,NA,NA,NA,NA,NA,NA,NA,NA,NA,NA,NA,NA,NA,NA,NA
"58","stim/objects/HouseObjects/spraybottle.png",114,39,114,0.5,"stim/42.jpeg",4,2,1,NA,"HouseObjects",1,2,"left","left",0.736999989,1,1,1,1,NA,NA,NA,NA,NA,NA,NA,NA,NA,NA,NA,NA,NA,NA,NA,NA,NA,NA,NA,NA,NA,NA,NA,NA
"16","stim/objects/HouseObjects/safetypin.png",115,39,115,0.5,"stim/32.jpeg",3,2,1,NA,"HouseObjects",1,1,"left","right",0.506999969,0,0,1,1,NA,NA,NA,NA,NA,NA,NA,NA,NA,NA,NA,NA,NA,NA,NA,NA,NA,NA,NA,NA,NA,NA,NA,NA
"21","stim/objects/HouseObjects/safetypin2.png",116,39,116,0.7,"stim/62.jpeg",6,2,2,NA,"HouseObjects",1,4,"left","left",0.518000126,1,1,1,1,NA,NA,NA,NA,NA,NA,NA,NA,NA,NA,NA,NA,NA,NA,NA,NA,NA,NA,NA,NA,NA,NA,NA,NA
"81","stim/objects/HouseObjects/thread2.png",117,39,117,0.9,"stim/21.jpeg",2,1,3,NA,"HouseObjects",1,2,"left","left",0.657000065,1,1,1,1,NA,NA,NA,NA,NA,NA,NA,NA,NA,NA,NA,NA,NA,NA,NA,NA,NA,NA,NA,NA,NA,NA,NA,NA
"93","stim/objects/HouseObjects/towel2.png",118,39,118,0.9,"stim/22.jpeg",2,2,3,NA,"HouseObjects",1,2,"left","",NA,0,0,1,1,NA,NA,NA,NA,NA,NA,NA,NA,NA,NA,NA,NA,NA,NA,NA,NA,NA,NA,NA,NA,NA,NA,NA,NA
"66","stim/objects/HouseObjects/teapot2.png",119,39,119,0.1,"stim/13.jpeg",1,3,3,NA,"HouseObjects",1,1,"left","right",0.639999866,0,0,1,1,NA,NA,NA,NA,NA,NA,NA,NA,NA,NA,NA,NA,NA,NA,NA,NA,NA,NA,NA,NA,NA,NA,NA,NA
"175","stim/objects/Instruments/triangle2.png",120,39,120,0.9,"stim/12.jpeg",1,2,3,NA,"Instruments",2,4,"right","left",0.54700017,0,0,1,1,NA,NA,NA,NA,NA,NA,NA,NA,NA,NA,NA,NA,NA,NA,NA,NA,NA,NA,NA,NA,NA,NA,NA,NA
"139","stim/objects/Instruments/speaker.png",121,39,121,0.5,"stim/33.jpeg",3,3,1,NA,"Instruments",2,1,"right","right",0.689999819,1,1,1,1,NA,NA,NA,NA,NA,NA,NA,NA,NA,NA,NA,NA,NA,NA,NA,NA,NA,NA,NA,NA,NA,NA,NA,NA
"3","stim/objects/HouseObjects/rug.png",122,39,122,0.5,"stim/31.jpeg",3,1,1,NA,"HouseObjects",1,2,"left","right",0.551000118,0,0,1,1,NA,NA,NA,NA,NA,NA,NA,NA,NA,NA,NA,NA,NA,NA,NA,NA,NA,NA,NA,NA,NA,NA,NA,NA
"176","stim/objects/Instruments/triangle2.png",123,39,123,0.9,"stim/12.jpeg",1,2,3,NA,"Instruments",2,1,"right","right",0.608999968,1,1,1,1,NA,NA,NA,NA,NA,NA,NA,NA,NA,NA,NA,NA,NA,NA,NA,NA,NA,NA,NA,NA,NA,NA,NA,NA
"228","stim/objects/Instruments/vuvuzela.png",124,39,124,0.7,"stim/53.jpeg",5,3,2,NA,"Instruments",2,2,"right","left",0.674000025,0,0,1,1,NA,NA,NA,NA,NA,NA,NA,NA,NA,NA,NA,NA,NA,NA,NA,NA,NA,NA,NA,NA,NA,NA,NA,NA
"221","stim/objects/Instruments/violin.png",125,39,125,0.7,"stim/52.jpeg",5,2,2,NA,"Instruments",2,4,"right","right",0.636000156,1,1,1,1,NA,NA,NA,NA,NA,NA,NA,NA,NA,NA,NA,NA,NA,NA,NA,NA,NA,NA,NA,NA,NA,NA,NA,NA
"177","stim/objects/Instruments/triangle2.png",126,39,126,0.9,"stim/12.jpeg",1,2,3,NA,"Instruments",2,1,"right","right",0.593999863,1,1,1,1,NA,NA,NA,NA,NA,NA,NA,NA,NA,NA,NA,NA,NA,NA,NA,NA,NA,NA,NA,NA,NA,NA,NA,NA
"199","stim/objects/Instruments/trumpet.png",127,39,127,0.5,"stim/44.jpeg",4,4,1,NA,"Instruments",2,3,"right","left",0.654000044,0,0,1,1,NA,NA,NA,NA,NA,NA,NA,NA,NA,NA,NA,NA,NA,NA,NA,NA,NA,NA,NA,NA,NA,NA,NA,NA
"222","stim/objects/Instruments/violin.png",128,39,128,0.7,"stim/52.jpeg",5,2,2,NA,"Instruments",2,2,"right","right",0.555000067,1,1,1,1,NA,NA,NA,NA,NA,NA,NA,NA,NA,NA,NA,NA,NA,NA,NA,NA,NA,NA,NA,NA,NA,NA,NA,NA
"63","stim/objects/HouseObjects/teapot.png",129,39,129,0.5,"stim/43.jpeg",4,3,1,NA,"HouseObjects",1,4,"left","left",0.623999834,1,1,1,1,NA,NA,NA,NA,NA,NA,NA,NA,NA,NA,NA,NA,NA,NA,NA,NA,NA,NA,NA,NA,NA,NA,NA,NA
"64","stim/objects/HouseObjects/teapot.png",130,39,130,0.5,"stim/43.jpeg",4,3,1,NA,"HouseObjects",1,4,"left","left",0.592999935,1,1,1,1,NA,NA,NA,NA,NA,NA,NA,NA,NA,NA,NA,NA,NA,NA,NA,NA,NA,NA,NA,NA,NA,NA,NA,NA
"140","stim/objects/Instruments/speaker.png",131,39,131,0.5,"stim/33.jpeg",3,3,1,NA,"Instruments",2,2,"right","right",0.585000038,1,1,1,1,NA,NA,NA,NA,NA,NA,NA,NA,NA,NA,NA,NA,NA,NA,NA,NA,NA,NA,NA,NA,NA,NA,NA,NA
"147","stim/objects/Instruments/tambourine.png",132,39,132,0.5,"stim/34.jpeg",3,4,1,NA,"Instruments",2,1,"right","left",0.635999918,0,0,1,1,NA,NA,NA,NA,NA,NA,NA,NA,NA,NA,NA,NA,NA,NA,NA,NA,NA,NA,NA,NA,NA,NA,NA,NA
"223","stim/objects/Instruments/violin.png",133,39,133,0.7,"stim/52.jpeg",5,2,2,NA,"Instruments",2,4,"right","right",0.523999929,1,1,1,1,NA,NA,NA,NA,NA,NA,NA,NA,NA,NA,NA,NA,NA,NA,NA,NA,NA,NA,NA,NA,NA,NA,NA,NA
"73","stim/objects/HouseObjects/thread.png",134,39,134,0.3,"stim/51.jpeg",5,1,2,NA,"HouseObjects",1,4,"left","left",0.611999989,1,1,1,1,NA,NA,NA,NA,NA,NA,NA,NA,NA,NA,NA,NA,NA,NA,NA,NA,NA,NA,NA,NA,NA,NA,NA,NA
"34","stim/objects/HouseObjects/saw2.png",135,39,135,0.7,"stim/63.jpeg",6,3,2,NA,"HouseObjects",1,4,"left","right",0.618999958,0,0,1,1,NA,NA,NA,NA,NA,NA,NA,NA,NA,NA,NA,NA,NA,NA,NA,NA,NA,NA,NA,NA,NA,NA,NA,NA
"102","stim/objects/HouseObjects/vacuumcleaner2.png",136,39,136,0.9,"stim/23.jpeg",2,3,3,NA,"HouseObjects",1,1,"left","left",0.638000011,1,1,1,1,NA,NA,NA,NA,NA,NA,NA,NA,NA,NA,NA,NA,NA,NA,NA,NA,NA,NA,NA,NA,NA,NA,NA,NA
"103","stim/objects/HouseObjects/vacuumcleaner2.png",137,39,137,0.9,"stim/23.jpeg",2,3,3,NA,"HouseObjects",1,4,"left","left",0.592000008,1,1,1,1,NA,NA,NA,NA,NA,NA,NA,NA,NA,NA,NA,NA,NA,NA,NA,NA,NA,NA,NA,NA,NA,NA,NA,NA
"25","stim/objects/HouseObjects/saw.png",138,39,138,0.5,"stim/33.jpeg",3,3,1,NA,"HouseObjects",1,1,"left","right",0.495000124,0,0,1,1,NA,NA,NA,NA,NA,NA,NA,NA,NA,NA,NA,NA,NA,NA,NA,NA,NA,NA,NA,NA,NA,NA,NA,NA
"94","stim/objects/HouseObjects/towel2.png",139,39,139,0.9,"stim/22.jpeg",2,2,3,NA,"HouseObjects",1,4,"left","left",0.534000158,1,1,1,1,NA,NA,NA,NA,NA,NA,NA,NA,NA,NA,NA,NA,NA,NA,NA,NA,NA,NA,NA,NA,NA,NA,NA,NA
"82","stim/objects/HouseObjects/thread2.png",140,39,140,0.9,"stim/21.jpeg",2,1,3,NA,"HouseObjects",1,1,"left","left",0.490999937,1,1,1,1,NA,NA,NA,NA,NA,NA,NA,NA,NA,NA,NA,NA,NA,NA,NA,NA,NA,NA,NA,NA,NA,NA,NA,NA
"44","stim/objects/HouseObjects/scale2.png",141,39,141,0.7,"stim/64.jpeg",6,4,2,NA,"HouseObjects",1,4,"left","left",0.556999922,1,1,1,1,NA,NA,NA,NA,NA,NA,NA,NA,NA,NA,NA,NA,NA,NA,NA,NA,NA,NA,NA,NA,NA,NA,NA,NA
"54","stim/objects/HouseObjects/sponge2.png",142,39,142,0.1,"stim/11.jpeg",1,1,3,NA,"HouseObjects",1,2,"left","right",0.852999926,0,0,1,1,NA,NA,NA,NA,NA,NA,NA,NA,NA,NA,NA,NA,NA,NA,NA,NA,NA,NA,NA,NA,NA,NA,NA,NA
"168","stim/objects/Instruments/triangle.png",143,39,143,0.5,"stim/42.jpeg",4,2,1,NA,"Instruments",2,3,"right","right",0.694000006,1,1,1,1,NA,NA,NA,NA,NA,NA,NA,NA,NA,NA,NA,NA,NA,NA,NA,NA,NA,NA,NA,NA,NA,NA,NA,NA
"115","stim/objects/HouseObjects/wateringcan2.png",144,39,144,0.9,"stim/24.jpeg",2,4,3,NA,"HouseObjects",1,3,"left","left",0.59100008,1,1,1,1,NA,NA,NA,NA,NA,NA,NA,NA,NA,NA,NA,NA,NA,NA,NA,NA,NA,NA,NA,NA,NA,NA,NA,NA
"205","stim/objects/Instruments/trumpet2.png",145,39,145,0.9,"stim/14.jpeg",1,4,3,NA,"Instruments",2,3,"right","right",0.641000032,1,1,1,1,NA,NA,NA,NA,NA,NA,NA,NA,NA,NA,NA,NA,NA,NA,NA,NA,NA,NA,NA,NA,NA,NA,NA,NA
"116","stim/objects/HouseObjects/wateringcan2.png",146,39,146,0.9,"stim/24.jpeg",2,4,3,NA,"HouseObjects",1,1,"left","left",0.654999971,1,1,1,1,NA,NA,NA,NA,NA,NA,NA,NA,NA,NA,NA,NA,NA,NA,NA,NA,NA,NA,NA,NA,NA,NA,NA,NA
"74","stim/objects/HouseObjects/thread.png",147,39,147,0.3,"stim/51.jpeg",5,1,2,NA,"HouseObjects",1,2,"left","right",0.621000051,0,0,1,1,NA,NA,NA,NA,NA,NA,NA,NA,NA,NA,NA,NA,NA,NA,NA,NA,NA,NA,NA,NA,NA,NA,NA,NA
"40","stim/objects/HouseObjects/scale.png",148,39,148,0.5,"stim/34.jpeg",3,4,1,NA,"HouseObjects",1,2,"left","left",0.559000015,1,1,1,1,NA,NA,NA,NA,NA,NA,NA,NA,NA,NA,NA,NA,NA,NA,NA,NA,NA,NA,NA,NA,NA,NA,NA,NA
"211","stim/objects/Instruments/tuba.png",149,39,149,0.7,"stim/51.jpeg",5,1,2,NA,"Instruments",2,2,"right","right",0.59100008,1,1,1,1,NA,NA,NA,NA,NA,NA,NA,NA,NA,NA,NA,NA,NA,NA,NA,NA,NA,NA,NA,NA,NA,NA,NA,NA
"236","stim/objects/Instruments/xylophone.png",150,39,150,0.7,"stim/54.jpeg",5,4,2,NA,"Instruments",2,3,"right","right",0.755000114,1,1,1,1,NA,NA,NA,NA,NA,NA,NA,NA,NA,NA,NA,NA,NA,NA,NA,NA,NA,NA,NA,NA,NA,NA,NA,NA
"9","stim/objects/HouseObjects/rug2.png",151,39,151,0.7,"stim/61.jpeg",6,1,2,NA,"HouseObjects",1,2,"left","left",0.767999887,1,1,1,1,NA,NA,NA,NA,NA,NA,NA,NA,NA,NA,NA,NA,NA,NA,NA,NA,NA,NA,NA,NA,NA,NA,NA,NA
"117","stim/objects/HouseObjects/wateringcan2.png",152,39,152,0.9,"stim/24.jpeg",2,4,3,NA,"HouseObjects",1,3,"left","right",0.604000092,0,0,1,1,NA,NA,NA,NA,NA,NA,NA,NA,NA,NA,NA,NA,NA,NA,NA,NA,NA,NA,NA,NA,NA,NA,NA,NA
"65","stim/objects/HouseObjects/teapot.png",153,39,153,0.5,"stim/43.jpeg",4,3,1,NA,"HouseObjects",1,2,"left","left",0.634000063,1,1,1,1,NA,NA,NA,NA,NA,NA,NA,NA,NA,NA,NA,NA,NA,NA,NA,NA,NA,NA,NA,NA,NA,NA,NA,NA
"83","stim/objects/HouseObjects/thread2.png",154,39,154,0.9,"stim/21.jpeg",2,1,3,NA,"HouseObjects",1,4,"left","right",0.650000095,0,0,1,1,NA,NA,NA,NA,NA,NA,NA,NA,NA,NA,NA,NA,NA,NA,NA,NA,NA,NA,NA,NA,NA,NA,NA,NA
"193","stim/objects/Instruments/trombone2.png",155,39,155,0.9,"stim/13.jpeg",1,3,3,NA,"Instruments",2,2,"right","right",0.677999973,1,1,1,1,NA,NA,NA,NA,NA,NA,NA,NA,NA,NA,NA,NA,NA,NA,NA,NA,NA,NA,NA,NA,NA,NA,NA,NA
"206","stim/objects/Instruments/trumpet2.png",156,39,156,0.9,"stim/14.jpeg",1,4,3,NA,"Instruments",2,3,"right","right",0.538000107,1,1,1,1,NA,NA,NA,NA,NA,NA,NA,NA,NA,NA,NA,NA,NA,NA,NA,NA,NA,NA,NA,NA,NA,NA,NA,NA
"237","stim/objects/Instruments/xylophone.png",157,39,157,0.7,"stim/54.jpeg",5,4,2,NA,"Instruments",2,2,"right","left",0.671000004,0,0,1,1,NA,NA,NA,NA,NA,NA,NA,NA,NA,NA,NA,NA,NA,NA,NA,NA,NA,NA,NA,NA,NA,NA,NA,NA
"152","stim/objects/Instruments/tambourine2.png",158,39,158,0.3,"stim/64.jpeg",6,4,2,NA,"Instruments",2,1,"right","left",0.687999964,0,0,1,1,NA,NA,NA,NA,NA,NA,NA,NA,NA,NA,NA,NA,NA,NA,NA,NA,NA,NA,NA,NA,NA,NA,NA,NA
"104","stim/objects/HouseObjects/vacuumcleaner2.png",159,39,159,0.9,"stim/23.jpeg",2,3,3,NA,"HouseObjects",1,3,"left","right",0.657000065,0,0,1,1,NA,NA,NA,NA,NA,NA,NA,NA,NA,NA,NA,NA,NA,NA,NA,NA,NA,NA,NA,NA,NA,NA,NA,NA
"143","stim/objects/Instruments/speaker2.png",160,39,160,0.3,"stim/63.jpeg",6,3,2,NA,"Instruments",2,1,"right","right",0.64199996,1,1,1,1,NA,NA,NA,NA,NA,NA,NA,NA,NA,NA,NA,NA,NA,NA,NA,NA,NA,NA,NA,NA,NA,NA,NA,NA
"238","stim/objects/Instruments/xylophone.png",161,39,161,0.7,"stim/54.jpeg",5,4,2,NA,"Instruments",2,1,"right","left",0.74000001,0,0,1,1,NA,NA,NA,NA,NA,NA,NA,NA,NA,NA,NA,NA,NA,NA,NA,NA,NA,NA,NA,NA,NA,NA,NA,NA
"52","stim/objects/HouseObjects/sponge.png",162,39,162,0.5,"stim/41.jpeg",4,1,1,NA,"HouseObjects",1,4,"left","left",0.667999983,1,1,1,1,NA,NA,NA,NA,NA,NA,NA,NA,NA,NA,NA,NA,NA,NA,NA,NA,NA,NA,NA,NA,NA,NA,NA,NA
"22","stim/objects/HouseObjects/safetypin2.png",163,39,163,0.7,"stim/62.jpeg",6,2,2,NA,"HouseObjects",1,1,"left","right",0.536999941,0,0,1,1,NA,NA,NA,NA,NA,NA,NA,NA,NA,NA,NA,NA,NA,NA,NA,NA,NA,NA,NA,NA,NA,NA,NA,NA
"23","stim/objects/HouseObjects/safetypin2.png",164,39,164,0.7,"stim/62.jpeg",6,2,2,NA,"HouseObjects",1,3,"left","left",0.551000118,1,1,1,1,NA,NA,NA,NA,NA,NA,NA,NA,NA,NA,NA,NA,NA,NA,NA,NA,NA,NA,NA,NA,NA,NA,NA,NA
"95","stim/objects/HouseObjects/towel2.png",165,39,165,0.9,"stim/22.jpeg",2,2,3,NA,"HouseObjects",1,4,"left","left",0.600999832,1,1,1,1,NA,NA,NA,NA,NA,NA,NA,NA,NA,NA,NA,NA,NA,NA,NA,NA,NA,NA,NA,NA,NA,NA,NA,NA
"59","stim/objects/HouseObjects/spraybottle.png",166,39,166,0.5,"stim/42.jpeg",4,2,1,NA,"HouseObjects",1,4,"left","right",0.804000139,0,0,1,1,NA,NA,NA,NA,NA,NA,NA,NA,NA,NA,NA,NA,NA,NA,NA,NA,NA,NA,NA,NA,NA,NA,NA,NA
"105","stim/objects/HouseObjects/vacuumcleaner2.png",167,39,167,0.9,"stim/23.jpeg",2,3,3,NA,"HouseObjects",1,4,"left","left",0.551000118,1,1,1,1,NA,NA,NA,NA,NA,NA,NA,NA,NA,NA,NA,NA,NA,NA,NA,NA,NA,NA,NA,NA,NA,NA,NA,NA
"178","stim/objects/Instruments/triangle2.png",168,39,168,0.9,"stim/12.jpeg",1,2,3,NA,"Instruments",2,1,"right","right",0.684999943,1,1,1,1,NA,NA,NA,NA,NA,NA,NA,NA,NA,NA,NA,NA,NA,NA,NA,NA,NA,NA,NA,NA,NA,NA,NA,NA
"184","stim/objects/Instruments/trombone.png",169,39,169,0.5,"stim/43.jpeg",4,3,1,NA,"Instruments",2,4,"right","left",0.575000048,0,0,1,1,NA,NA,NA,NA,NA,NA,NA,NA,NA,NA,NA,NA,NA,NA,NA,NA,NA,NA,NA,NA,NA,NA,NA,NA
"99","stim/objects/HouseObjects/vacuumcleaner.png",170,39,170,0.3,"stim/53.jpeg",5,3,2,NA,"HouseObjects",1,4,"left","right",0.667999983,0,0,1,1,NA,NA,NA,NA,NA,NA,NA,NA,NA,NA,NA,NA,NA,NA,NA,NA,NA,NA,NA,NA,NA,NA,NA,NA
"106","stim/objects/HouseObjects/vacuumcleaner2.png",171,39,171,0.9,"stim/23.jpeg",2,3,3,NA,"HouseObjects",1,3,"left","left",0.622999907,1,1,1,1,NA,NA,NA,NA,NA,NA,NA,NA,NA,NA,NA,NA,NA,NA,NA,NA,NA,NA,NA,NA,NA,NA,NA,NA
"163","stim/objects/Instruments/timbal2.png",172,39,172,0.9,"stim/11.jpeg",1,1,3,NA,"Instruments",2,2,"right","right",0.60800004,1,1,1,1,NA,NA,NA,NA,NA,NA,NA,NA,NA,NA,NA,NA,NA,NA,NA,NA,NA,NA,NA,NA,NA,NA,NA,NA
"155","stim/objects/Instruments/timbal.png",173,39,173,0.5,"stim/41.jpeg",4,1,1,NA,"Instruments",2,2,"right","left",0.569999933,0,0,1,1,NA,NA,NA,NA,NA,NA,NA,NA,NA,NA,NA,NA,NA,NA,NA,NA,NA,NA,NA,NA,NA,NA,NA,NA
"124","stim/objects/Instruments/record_player.png",174,39,174,0.5,"stim/31.jpeg",3,1,1,NA,"Instruments",2,4,"right","left",0.689999819,0,0,1,1,NA,NA,NA,NA,NA,NA,NA,NA,NA,NA,NA,NA,NA,NA,NA,NA,NA,NA,NA,NA,NA,NA,NA,NA
"84","stim/objects/HouseObjects/thread2.png",175,39,175,0.9,"stim/21.jpeg",2,1,3,NA,"HouseObjects",1,4,"left","left",0.728000164,1,1,1,1,NA,NA,NA,NA,NA,NA,NA,NA,NA,NA,NA,NA,NA,NA,NA,NA,NA,NA,NA,NA,NA,NA,NA,NA
"194","stim/objects/Instruments/trombone2.png",176,39,176,0.9,"stim/13.jpeg",1,3,3,NA,"Instruments",2,2,"right","right",0.569000006,1,1,1,1,NA,NA,NA,NA,NA,NA,NA,NA,NA,NA,NA,NA,NA,NA,NA,NA,NA,NA,NA,NA,NA,NA,NA,NA
"86","stim/objects/HouseObjects/towel.png",177,39,177,0.3,"stim/52.jpeg",5,2,2,NA,"HouseObjects",1,4,"left","left",0.424000025,1,1,1,1,NA,NA,NA,NA,NA,NA,NA,NA,NA,NA,NA,NA,NA,NA,NA,NA,NA,NA,NA,NA,NA,NA,NA,NA
"207","stim/objects/Instruments/trumpet2.png",178,39,178,0.9,"stim/14.jpeg",1,4,3,NA,"Instruments",2,1,"right","right",0.674000025,1,1,1,1,NA,NA,NA,NA,NA,NA,NA,NA,NA,NA,NA,NA,NA,NA,NA,NA,NA,NA,NA,NA,NA,NA,NA,NA
"132","stim/objects/Instruments/saxophone.png",179,39,179,0.5,"stim/32.jpeg",3,2,1,NA,"Instruments",2,3,"right","left",0.502000093,0,0,1,1,NA,NA,NA,NA,NA,NA,NA,NA,NA,NA,NA,NA,NA,NA,NA,NA,NA,NA,NA,NA,NA,NA,NA,NA
"148","stim/objects/Instruments/tambourine.png",180,39,180,0.5,"stim/34.jpeg",3,4,1,NA,"Instruments",2,4,"right","right",0.558000088,1,1,1,1,NA,NA,NA,NA,NA,NA,NA,NA,NA,NA,NA,NA,NA,NA,NA,NA,NA,NA,NA,NA,NA,NA,NA,NA
"26","stim/objects/HouseObjects/saw.png",181,39,181,0.5,"stim/33.jpeg",3,3,1,NA,"HouseObjects",1,3,"left","left",0.573999882,1,1,1,1,NA,NA,NA,NA,NA,NA,NA,NA,NA,NA,NA,NA,NA,NA,NA,NA,NA,NA,NA,NA,NA,NA,NA,NA
"27","stim/objects/HouseObjects/saw.png",182,39,182,0.5,"stim/33.jpeg",3,3,1,NA,"HouseObjects",1,1,"left","left",0.688000202,1,1,1,1,NA,NA,NA,NA,NA,NA,NA,NA,NA,NA,NA,NA,NA,NA,NA,NA,NA,NA,NA,NA,NA,NA,NA,NA
"169","stim/objects/Instruments/triangle.png",183,39,183,0.5,"stim/42.jpeg",4,2,1,NA,"Instruments",2,1,"right","right",0.637000084,1,1,1,1,NA,NA,NA,NA,NA,NA,NA,NA,NA,NA,NA,NA,NA,NA,NA,NA,NA,NA,NA,NA,NA,NA,NA,NA
"45","stim/objects/HouseObjects/scale2.png",184,39,184,0.7,"stim/64.jpeg",6,4,2,NA,"HouseObjects",1,2,"left","left",0.601000071,1,1,1,1,NA,NA,NA,NA,NA,NA,NA,NA,NA,NA,NA,NA,NA,NA,NA,NA,NA,NA,NA,NA,NA,NA,NA,NA
"46","stim/objects/HouseObjects/scale2.png",185,39,185,0.7,"stim/64.jpeg",6,4,2,NA,"HouseObjects",1,4,"left","left",0.472000122,1,1,1,1,NA,NA,NA,NA,NA,NA,NA,NA,NA,NA,NA,NA,NA,NA,NA,NA,NA,NA,NA,NA,NA,NA,NA,NA
"212","stim/objects/Instruments/tuba.png",186,39,186,0.7,"stim/51.jpeg",5,1,2,NA,"Instruments",2,1,"right","right",0.65899992,1,1,1,1,NA,NA,NA,NA,NA,NA,NA,NA,NA,NA,NA,NA,NA,NA,NA,NA,NA,NA,NA,NA,NA,NA,NA,NA
"4","stim/objects/HouseObjects/rug.png",187,39,187,0.5,"stim/31.jpeg",3,1,1,NA,"HouseObjects",1,3,"left","left",0.702000141,1,1,1,1,NA,NA,NA,NA,NA,NA,NA,NA,NA,NA,NA,NA,NA,NA,NA,NA,NA,NA,NA,NA,NA,NA,NA,NA
"141","stim/objects/Instruments/speaker.png",188,39,188,0.5,"stim/33.jpeg",3,3,1,NA,"Instruments",2,3,"right","right",0.802000046,1,1,1,1,NA,NA,NA,NA,NA,NA,NA,NA,NA,NA,NA,NA,NA,NA,NA,NA,NA,NA,NA,NA,NA,NA,NA,NA
"17","stim/objects/HouseObjects/safetypin.png",189,39,189,0.5,"stim/32.jpeg",3,2,1,NA,"HouseObjects",1,4,"left","left",0.657999992,1,1,1,1,NA,NA,NA,NA,NA,NA,NA,NA,NA,NA,NA,NA,NA,NA,NA,NA,NA,NA,NA,NA,NA,NA,NA,NA
"10","stim/objects/HouseObjects/rug2.png",190,39,190,0.7,"stim/61.jpeg",6,1,2,NA,"HouseObjects",1,2,"left","left",0.69299984,1,1,1,1,NA,NA,NA,NA,NA,NA,NA,NA,NA,NA,NA,NA,NA,NA,NA,NA,NA,NA,NA,NA,NA,NA,NA,NA
"5","stim/objects/HouseObjects/rug.png",191,39,191,0.5,"stim/31.jpeg",3,1,1,NA,"HouseObjects",1,2,"left","left",0.671999931,1,1,1,1,NA,NA,NA,NA,NA,NA,NA,NA,NA,NA,NA,NA,NA,NA,NA,NA,NA,NA,NA,NA,NA,NA,NA,NA
"170","stim/objects/Instruments/triangle.png",192,39,192,0.5,"stim/42.jpeg",4,2,1,NA,"Instruments",2,2,"right","right",0.610000134,1,1,1,1,NA,NA,NA,NA,NA,NA,NA,NA,NA,NA,NA,NA,NA,NA,NA,NA,NA,NA,NA,NA,NA,NA,NA,NA
"135","stim/objects/Instruments/saxophone2.png",193,39,193,0.3,"stim/62.jpeg",6,2,2,NA,"Instruments",2,4,"right","left",0.637000084,0,0,1,1,NA,NA,NA,NA,NA,NA,NA,NA,NA,NA,NA,NA,NA,NA,NA,NA,NA,NA,NA,NA,NA,NA,NA,NA
"35","stim/objects/HouseObjects/saw2.png",194,39,194,0.7,"stim/63.jpeg",6,3,2,NA,"HouseObjects",1,3,"left","right",0.817000151,0,0,1,1,NA,NA,NA,NA,NA,NA,NA,NA,NA,NA,NA,NA,NA,NA,NA,NA,NA,NA,NA,NA,NA,NA,NA,NA
"47","stim/objects/HouseObjects/scale2.png",195,39,195,0.7,"stim/64.jpeg",6,4,2,NA,"HouseObjects",1,4,"left","left",0.521000147,1,1,1,1,NA,NA,NA,NA,NA,NA,NA,NA,NA,NA,NA,NA,NA,NA,NA,NA,NA,NA,NA,NA,NA,NA,NA,NA
"213","stim/objects/Instruments/tuba.png",196,39,196,0.7,"stim/51.jpeg",5,1,2,NA,"Instruments",2,3,"right","right",0.720000029,1,1,1,1,NA,NA,NA,NA,NA,NA,NA,NA,NA,NA,NA,NA,NA,NA,NA,NA,NA,NA,NA,NA,NA,NA,NA,NA
"75","stim/objects/HouseObjects/thread.png",197,39,197,0.3,"stim/51.jpeg",5,1,2,NA,"HouseObjects",1,1,"left","right",0.622999907,0,0,1,1,NA,NA,NA,NA,NA,NA,NA,NA,NA,NA,NA,NA,NA,NA,NA,NA,NA,NA,NA,NA,NA,NA,NA,NA
"53","stim/objects/HouseObjects/sponge.png",198,39,198,0.5,"stim/41.jpeg",4,1,1,NA,"HouseObjects",1,3,"left","left",0.636999846,1,1,1,1,NA,NA,NA,NA,NA,NA,NA,NA,NA,NA,NA,NA,NA,NA,NA,NA,NA,NA,NA,NA,NA,NA,NA,NA
"179","stim/objects/Instruments/triangle2.png",199,39,199,0.9,"stim/12.jpeg",1,2,3,NA,"Instruments",2,3,"right","right",0.670000076,1,1,1,1,NA,NA,NA,NA,NA,NA,NA,NA,NA,NA,NA,NA,NA,NA,NA,NA,NA,NA,NA,NA,NA,NA,NA,NA
"110","stim/objects/HouseObjects/wateringcan.png",200,39,200,0.3,"stim/54.jpeg",5,4,2,NA,"HouseObjects",1,2,"left","left",0.65199995,1,1,1,1,NA,NA,NA,NA,NA,NA,NA,NA,NA,NA,NA,NA,NA,NA,NA,NA,NA,NA,NA,NA,NA,NA,NA,NA
"111","stim/objects/HouseObjects/wateringcan.png",201,39,201,0.3,"stim/54.jpeg",5,4,2,NA,"HouseObjects",1,3,"left","left",0.509000063,1,1,1,1,NA,NA,NA,NA,NA,NA,NA,NA,NA,NA,NA,NA,NA,NA,NA,NA,NA,NA,NA,NA,NA,NA,NA,NA
"133","stim/objects/Instruments/saxophone.png",202,39,202,0.5,"stim/32.jpeg",3,2,1,NA,"Instruments",2,1,"right","right",0.592000008,1,1,1,1,NA,NA,NA,NA,NA,NA,NA,NA,NA,NA,NA,NA,NA,NA,NA,NA,NA,NA,NA,NA,NA,NA,NA,NA
"185","stim/objects/Instruments/trombone.png",203,39,203,0.5,"stim/43.jpeg",4,3,1,NA,"Instruments",2,3,"right","left",0.566999912,0,0,1,1,NA,NA,NA,NA,NA,NA,NA,NA,NA,NA,NA,NA,NA,NA,NA,NA,NA,NA,NA,NA,NA,NA,NA,NA
"69","stim/objects/HouseObjects/thermometer.png",204,39,204,0.5,"stim/44.jpeg",4,4,1,NA,"HouseObjects",1,3,"left","right",0.654999971,0,0,1,1,NA,NA,NA,NA,NA,NA,NA,NA,NA,NA,NA,NA,NA,NA,NA,NA,NA,NA,NA,NA,NA,NA,NA,NA
"11","stim/objects/HouseObjects/rug2.png",205,39,205,0.7,"stim/61.jpeg",6,1,2,NA,"HouseObjects",1,3,"left","left",0.8349998,1,1,1,1,NA,NA,NA,NA,NA,NA,NA,NA,NA,NA,NA,NA,NA,NA,NA,NA,NA,NA,NA,NA,NA,NA,NA,NA
"12","stim/objects/HouseObjects/rug2.png",206,39,206,0.7,"stim/61.jpeg",6,1,2,NA,"HouseObjects",1,1,"left","left",0.652999878,1,1,1,1,NA,NA,NA,NA,NA,NA,NA,NA,NA,NA,NA,NA,NA,NA,NA,NA,NA,NA,NA,NA,NA,NA,NA,NA
"229","stim/objects/Instruments/vuvuzela.png",207,39,207,0.7,"stim/53.jpeg",5,3,2,NA,"Instruments",2,1,"right","right",0.470999956,1,1,1,1,NA,NA,NA,NA,NA,NA,NA,NA,NA,NA,NA,NA,NA,NA,NA,NA,NA,NA,NA,NA,NA,NA,NA,NA
"156","stim/objects/Instruments/timbal.png",208,39,208,0.5,"stim/41.jpeg",4,1,1,NA,"Instruments",2,1,"right","left",0.673000097,0,0,1,1,NA,NA,NA,NA,NA,NA,NA,NA,NA,NA,NA,NA,NA,NA,NA,NA,NA,NA,NA,NA,NA,NA,NA,NA
"164","stim/objects/Instruments/timbal2.png",209,39,209,0.9,"stim/11.jpeg",1,1,3,NA,"Instruments",2,1,"right","right",0.585999966,1,1,1,1,NA,NA,NA,NA,NA,NA,NA,NA,NA,NA,NA,NA,NA,NA,NA,NA,NA,NA,NA,NA,NA,NA,NA,NA
"239","stim/objects/Instruments/xylophone.png",210,39,210,0.7,"stim/54.jpeg",5,4,2,NA,"Instruments",2,1,"right","right",0.521999836,1,1,1,1,NA,NA,NA,NA,NA,NA,NA,NA,NA,NA,NA,NA,NA,NA,NA,NA,NA,NA,NA,NA,NA,NA,NA,NA
"70","stim/objects/HouseObjects/thermometer.png",211,39,211,0.5,"stim/44.jpeg",4,4,1,NA,"HouseObjects",1,2,"left","left",0.484999895,1,1,1,1,NA,NA,NA,NA,NA,NA,NA,NA,NA,NA,NA,NA,NA,NA,NA,NA,NA,NA,NA,NA,NA,NA,NA,NA
"125","stim/objects/Instruments/record_player.png",212,39,212,0.5,"stim/31.jpeg",3,1,1,NA,"Instruments",2,1,"right","right",0.605000019,1,1,1,1,NA,NA,NA,NA,NA,NA,NA,NA,NA,NA,NA,NA,NA,NA,NA,NA,NA,NA,NA,NA,NA,NA,NA,NA
"180","stim/objects/Instruments/triangle2.png",213,39,213,0.9,"stim/12.jpeg",1,2,3,NA,"Instruments",2,3,"right","right",0.616999865,1,1,1,1,NA,NA,NA,NA,NA,NA,NA,NA,NA,NA,NA,NA,NA,NA,NA,NA,NA,NA,NA,NA,NA,NA,NA,NA
"87","stim/objects/HouseObjects/towel.png",214,39,214,0.3,"stim/52.jpeg",5,2,2,NA,"HouseObjects",1,1,"left","left",0.735999823,1,1,1,1,NA,NA,NA,NA,NA,NA,NA,NA,NA,NA,NA,NA,NA,NA,NA,NA,NA,NA,NA,NA,NA,NA,NA,NA
"136","stim/objects/Instruments/saxophone2.png",215,39,215,0.3,"stim/62.jpeg",6,2,2,NA,"Instruments",2,4,"right","left",0.872999907,0,0,1,1,NA,NA,NA,NA,NA,NA,NA,NA,NA,NA,NA,NA,NA,NA,NA,NA,NA,NA,NA,NA,NA,NA,NA,NA
"96","stim/objects/HouseObjects/towel2.png",216,39,216,0.9,"stim/22.jpeg",2,2,3,NA,"HouseObjects",1,3,"left","left",0.634000063,1,1,1,1,NA,NA,NA,NA,NA,NA,NA,NA,NA,NA,NA,NA,NA,NA,NA,NA,NA,NA,NA,NA,NA,NA,NA,NA
"208","stim/objects/Instruments/trumpet2.png",217,39,217,0.9,"stim/14.jpeg",1,4,3,NA,"Instruments",2,1,"right","right",0.635999918,1,1,1,1,NA,NA,NA,NA,NA,NA,NA,NA,NA,NA,NA,NA,NA,NA,NA,NA,NA,NA,NA,NA,NA,NA,NA,NA
"214","stim/objects/Instruments/tuba.png",218,39,218,0.7,"stim/51.jpeg",5,1,2,NA,"Instruments",2,2,"right","right",0.569999933,1,1,1,1,NA,NA,NA,NA,NA,NA,NA,NA,NA,NA,NA,NA,NA,NA,NA,NA,NA,NA,NA,NA,NA,NA,NA,NA
"24","stim/objects/HouseObjects/safetypin2.png",219,39,219,0.7,"stim/62.jpeg",6,2,2,NA,"HouseObjects",1,1,"left","left",0.753999949,1,1,1,1,NA,NA,NA,NA,NA,NA,NA,NA,NA,NA,NA,NA,NA,NA,NA,NA,NA,NA,NA,NA,NA,NA,NA,NA
"149","stim/objects/Instruments/tambourine.png",220,39,220,0.5,"stim/34.jpeg",3,4,1,NA,"Instruments",2,1,"right","right",0.618999958,1,1,1,1,NA,NA,NA,NA,NA,NA,NA,NA,NA,NA,NA,NA,NA,NA,NA,NA,NA,NA,NA,NA,NA,NA,NA,NA
"230","stim/objects/Instruments/vuvuzela.png",221,39,221,0.7,"stim/53.jpeg",5,3,2,NA,"Instruments",2,4,"right","left",0.559000015,0,0,1,1,NA,NA,NA,NA,NA,NA,NA,NA,NA,NA,NA,NA,NA,NA,NA,NA,NA,NA,NA,NA,NA,NA,NA,NA
"171","stim/objects/Instruments/triangle.png",222,39,222,0.5,"stim/42.jpeg",4,2,1,NA,"Instruments",2,1,"right","right",0.55700016,1,1,1,1,NA,NA,NA,NA,NA,NA,NA,NA,NA,NA,NA,NA,NA,NA,NA,NA,NA,NA,NA,NA,NA,NA,NA,NA
"231","stim/objects/Instruments/vuvuzela.png",223,39,223,0.7,"stim/53.jpeg",5,3,2,NA,"Instruments",2,4,"right","left",0.435000181,0,0,1,1,NA,NA,NA,NA,NA,NA,NA,NA,NA,NA,NA,NA,NA,NA,NA,NA,NA,NA,NA,NA,NA,NA,NA,NA
"41","stim/objects/HouseObjects/scale.png",224,39,224,0.5,"stim/34.jpeg",3,4,1,NA,"HouseObjects",1,3,"left","right",0.773000002,0,0,1,1,NA,NA,NA,NA,NA,NA,NA,NA,NA,NA,NA,NA,NA,NA,NA,NA,NA,NA,NA,NA,NA,NA,NA,NA
"28","stim/objects/HouseObjects/saw.png",225,39,225,0.5,"stim/33.jpeg",3,3,1,NA,"HouseObjects",1,3,"left","left",0.602999926,1,1,1,1,NA,NA,NA,NA,NA,NA,NA,NA,NA,NA,NA,NA,NA,NA,NA,NA,NA,NA,NA,NA,NA,NA,NA,NA
"118","stim/objects/HouseObjects/wateringcan2.png",226,39,226,0.9,"stim/24.jpeg",2,4,3,NA,"HouseObjects",1,2,"left","left",0.767999887,1,1,1,1,NA,NA,NA,NA,NA,NA,NA,NA,NA,NA,NA,NA,NA,NA,NA,NA,NA,NA,NA,NA,NA,NA,NA,NA
"157","stim/objects/Instruments/timbal.png",227,39,227,0.5,"stim/41.jpeg",4,1,1,NA,"Instruments",2,4,"right","right",0.661999941,1,1,1,1,NA,NA,NA,NA,NA,NA,NA,NA,NA,NA,NA,NA,NA,NA,NA,NA,NA,NA,NA,NA,NA,NA,NA,NA
"165","stim/objects/Instruments/timbal2.png",228,39,228,0.9,"stim/11.jpeg",1,1,3,NA,"Instruments",2,2,"right","right",0.697000027,1,1,1,1,NA,NA,NA,NA,NA,NA,NA,NA,NA,NA,NA,NA,NA,NA,NA,NA,NA,NA,NA,NA,NA,NA,NA,NA
"107","stim/objects/HouseObjects/vacuumcleaner2.png",229,39,229,0.9,"stim/23.jpeg",2,3,3,NA,"HouseObjects",1,4,"left","left",0.639000177,1,1,1,1,NA,NA,NA,NA,NA,NA,NA,NA,NA,NA,NA,NA,NA,NA,NA,NA,NA,NA,NA,NA,NA,NA,NA,NA
"71","stim/objects/HouseObjects/thermometer.png",230,39,230,0.5,"stim/44.jpeg",4,4,1,NA,"HouseObjects",1,3,"left","left",0.805000067,1,1,1,1,NA,NA,NA,NA,NA,NA,NA,NA,NA,NA,NA,NA,NA,NA,NA,NA,NA,NA,NA,NA,NA,NA,NA,NA
"144","stim/objects/Instruments/speaker2.png",231,39,231,0.3,"stim/63.jpeg",6,3,2,NA,"Instruments",2,3,"right","left",0.56799984,0,0,1,1,NA,NA,NA,NA,NA,NA,NA,NA,NA,NA,NA,NA,NA,NA,NA,NA,NA,NA,NA,NA,NA,NA,NA,NA
"215","stim/objects/Instruments/tuba.png",232,39,232,0.7,"stim/51.jpeg",5,1,2,NA,"Instruments",2,1,"right","right",0.601000071,1,1,1,1,NA,NA,NA,NA,NA,NA,NA,NA,NA,NA,NA,NA,NA,NA,NA,NA,NA,NA,NA,NA,NA,NA,NA,NA
"29","stim/objects/HouseObjects/saw.png",233,39,233,0.5,"stim/33.jpeg",3,3,1,NA,"HouseObjects",1,2,"left","left",0.4599998,1,1,1,1,NA,NA,NA,NA,NA,NA,NA,NA,NA,NA,NA,NA,NA,NA,NA,NA,NA,NA,NA,NA,NA,NA,NA,NA
"36","stim/objects/HouseObjects/saw2.png",234,39,234,0.7,"stim/63.jpeg",6,3,2,NA,"HouseObjects",1,3,"left","left",0.519999981,1,1,1,1,NA,NA,NA,NA,NA,NA,NA,NA,NA,NA,NA,NA,NA,NA,NA,NA,NA,NA,NA,NA,NA,NA,NA,NA
"119","stim/objects/HouseObjects/wateringcan2.png",235,39,235,0.9,"stim/24.jpeg",2,4,3,NA,"HouseObjects",1,2,"left","left",0.586999893,1,1,1,1,NA,NA,NA,NA,NA,NA,NA,NA,NA,NA,NA,NA,NA,NA,NA,NA,NA,NA,NA,NA,NA,NA,NA,NA
"108","stim/objects/HouseObjects/vacuumcleaner2.png",236,39,236,0.9,"stim/23.jpeg",2,3,3,NA,"HouseObjects",1,2,"left","left",0.576999903,1,1,1,1,NA,NA,NA,NA,NA,NA,NA,NA,NA,NA,NA,NA,NA,NA,NA,NA,NA,NA,NA,NA,NA,NA,NA,NA
"224","stim/objects/Instruments/violin2.png",237,39,237,0.1,"stim/22.jpeg",2,2,3,NA,"Instruments",2,4,"right","left",0.575999975,0,0,1,1,NA,NA,NA,NA,NA,NA,NA,NA,NA,NA,NA,NA,NA,NA,NA,NA,NA,NA,NA,NA,NA,NA,NA,NA
"48","stim/objects/HouseObjects/scale2.png",238,39,238,0.7,"stim/64.jpeg",6,4,2,NA,"HouseObjects",1,3,"left","left",0.503000021,1,1,1,1,NA,NA,NA,NA,NA,NA,NA,NA,NA,NA,NA,NA,NA,NA,NA,NA,NA,NA,NA,NA,NA,NA,NA,NA
"166","stim/objects/Instruments/timbal2.png",239,39,239,0.9,"stim/11.jpeg",1,1,3,NA,"Instruments",2,1,"right","right",0.582999945,1,1,1,1,NA,NA,NA,NA,NA,NA,NA,NA,NA,NA,NA,NA,NA,NA,NA,NA,NA,NA,NA,NA,NA,NA,NA,NA
"120","stim/objects/HouseObjects/wateringcan2.png",240,39,240,0.9,"stim/24.jpeg",2,4,3,NA,"HouseObjects",1,4,"left","left",0.601999998,1,1,1,1,NA,NA,NA,NA,NA,NA,NA,NA,NA,NA,NA,NA,NA,NA,NA,NA,NA,NA,NA,NA,NA,NA,NA,NA
"473","stim/objects/Instruments/flutetrans.png",248,39,241,0.9,"stim/11.jpeg",1,1,3,2,"Instruments",2,2,"right","",NA,0,0,1,0,NA,NA,NA,NA,NA,NA,NA,NA,NA,NA,NA,NA,NA,NA,NA,NA,NA,NA,NA,NA,NA,NA,NA,NA
"342","stim/objects/HouseObjects/garbagebin.png",249,39,242,0.9,"stim/22.jpeg",2,2,3,2,"HouseObjects",1,2,"left","left",0.602999926,1,1,1,0,NA,NA,NA,NA,NA,NA,NA,NA,NA,NA,NA,NA,NA,NA,NA,NA,NA,NA,NA,NA,NA,NA,NA,NA
"507","stim/objects/Instruments/gong.png",250,39,243,0.9,"stim/13.jpeg",1,3,3,2,"Instruments",2,3,"right","right",0.72300005,1,1,1,0,NA,NA,NA,NA,NA,NA,NA,NA,NA,NA,NA,NA,NA,NA,NA,NA,NA,NA,NA,NA,NA,NA,NA,NA
"390","stim/objects/HouseObjects/knife.png",251,39,244,0.5,"stim/43.jpeg",4,3,1,1,"HouseObjects",1,1,"left","left",0.619000196,1,1,1,0,14,39,1,0.5,2,"stim/43.jpeg",4,3,"stim/43.jpeg",1,"right",1.21600008,2,2,1.516000032,2,2.769000053,14,0,0,NA,0,NA,1
"548","stim/objects/Instruments/hihat2.png",252,39,245,0.9,"stim/13.jpeg",1,3,3,1,"Instruments",2,3,"right","right",0.637000084,1,1,1,0,194,39,1,0.9,2,"stim/13.jpeg",1,3,"stim/13.jpeg",3,"left",1.261000156,2,4,0.791999817,3,1.592999935,194,1,0,0,1,1,1
"562","stim/objects/Instruments/musicstand2.png",253,39,246,0.1,"stim/24.jpeg",2,4,3,1,"Instruments",2,3,"right","left",0.583999872,0,0,1,0,174,39,1,0.1,2,"stim/24.jpeg",2,4,"stim/24.jpeg",3,"right",0.664000034,3,4,1.314999819,3,1.876999855,174,0,1,NA,1,NA,1
"279","stim/objects/HouseObjects/coffee.png",254,39,247,0.7,"stim/61.jpeg",6,1,2,2,"HouseObjects",1,1,"left","left",0.835999966,1,1,1,0,NA,NA,NA,NA,NA,NA,NA,NA,NA,NA,NA,NA,NA,NA,NA,NA,NA,NA,NA,NA,NA,NA,NA,NA
"308","stim/objects/HouseObjects/dustpan.png",255,39,248,0.9,"stim/22.jpeg",2,2,3,2,"HouseObjects",1,1,"left","left",0.88499999,1,1,1,0,NA,NA,NA,NA,NA,NA,NA,NA,NA,NA,NA,NA,NA,NA,NA,NA,NA,NA,NA,NA,NA,NA,NA,NA
"291","stim/objects/HouseObjects/doormat.png",256,39,249,0.9,"stim/22.jpeg",2,2,3,2,"HouseObjects",1,2,"left","left",0.50999999,1,1,1,0,NA,NA,NA,NA,NA,NA,NA,NA,NA,NA,NA,NA,NA,NA,NA,NA,NA,NA,NA,NA,NA,NA,NA,NA
"326","stim/objects/HouseObjects/flyswatter.png",257,39,250,0.9,"stim/23.jpeg",2,3,3,2,"HouseObjects",1,1,"left","left",0.687000036,1,1,1,0,NA,NA,NA,NA,NA,NA,NA,NA,NA,NA,NA,NA,NA,NA,NA,NA,NA,NA,NA,NA,NA,NA,NA,NA
"359","stim/objects/HouseObjects/glass.png",258,39,251,0.9,"stim/21.jpeg",2,1,3,2,"HouseObjects",1,1,"left","left",0.621000051,1,1,1,0,NA,NA,NA,NA,NA,NA,NA,NA,NA,NA,NA,NA,NA,NA,NA,NA,NA,NA,NA,NA,NA,NA,NA,NA
"287","stim/objects/HouseObjects/dishsoap.png",259,39,252,0.7,"stim/61.jpeg",6,1,2,2,"HouseObjects",1,3,"left","left",0.735000134,1,1,1,0,NA,NA,NA,NA,NA,NA,NA,NA,NA,NA,NA,NA,NA,NA,NA,NA,NA,NA,NA,NA,NA,NA,NA,NA
"491","stim/objects/Instruments/frenchhorn.png",260,39,253,0.9,"stim/14.jpeg",1,4,3,2,"Instruments",2,4,"right","right",0.920000076,1,1,1,0,NA,NA,NA,NA,NA,NA,NA,NA,NA,NA,NA,NA,NA,NA,NA,NA,NA,NA,NA,NA,NA,NA,NA,NA
"387","stim/objects/HouseObjects/ironingboard2.png",261,39,254,0.9,"stim/21.jpeg",2,1,3,1,"HouseObjects",1,4,"left","right",0.559000015,0,0,1,0,13,39,1,0.9,1,"stim/21.jpeg",2,1,"stim/21.jpeg",4,"left",1.262000084,4,1,1.730000019,4,1.35800004,13,1,1,1,1,1,1
"262","stim/objects/HouseObjects/broom.png",262,39,255,0.5,"stim/42.jpeg",4,2,1,2,"HouseObjects",1,1,"left","left",0.605999947,1,1,1,0,NA,NA,NA,NA,NA,NA,NA,NA,NA,NA,NA,NA,NA,NA,NA,NA,NA,NA,NA,NA,NA,NA,NA,NA
"492","stim/objects/Instruments/frenchhorn.png",263,39,256,0.9,"stim/11.jpeg",1,1,3,2,"Instruments",2,3,"right","right",0.850999832,1,1,1,0,NA,NA,NA,NA,NA,NA,NA,NA,NA,NA,NA,NA,NA,NA,NA,NA,NA,NA,NA,NA,NA,NA,NA,NA
"475","stim/objects/Instruments/flutetrans.png",264,39,257,0.9,"stim/12.jpeg",1,2,3,2,"Instruments",2,1,"right","right",0.637000084,1,1,1,0,NA,NA,NA,NA,NA,NA,NA,NA,NA,NA,NA,NA,NA,NA,NA,NA,NA,NA,NA,NA,NA,NA,NA,NA
"392","stim/objects/HouseObjects/lintroller.png",265,39,258,0.5,"stim/44.jpeg",4,4,1,1,"HouseObjects",1,1,"left","left",0.532999992,1,1,1,0,116,39,1,0.5,2,"stim/44.jpeg",4,4,"stim/44.jpeg",1,"right",0.959000111,4,1,0.894000053,2,1.316999912,116,0,0,NA,0,NA,1
"275","stim/objects/HouseObjects/clothespin.png",266,39,259,0.7,"stim/62.jpeg",6,2,2,2,"HouseObjects",1,2,"left","right",0.586999893,0,0,1,0,NA,NA,NA,NA,NA,NA,NA,NA,NA,NA,NA,NA,NA,NA,NA,NA,NA,NA,NA,NA,NA,NA,NA,NA
"418","stim/objects/Instruments/bassdrum.png",267,39,260,0.5,"stim/31.jpeg",3,1,1,2,"Instruments",2,1,"right","left",0.690999985,0,0,1,0,NA,NA,NA,NA,NA,NA,NA,NA,NA,NA,NA,NA,NA,NA,NA,NA,NA,NA,NA,NA,NA,NA,NA,NA
"493","stim/objects/Instruments/frenchhorn.png",268,39,261,0.9,"stim/13.jpeg",1,3,3,2,"Instruments",2,1,"right","right",0.776000023,1,1,1,0,NA,NA,NA,NA,NA,NA,NA,NA,NA,NA,NA,NA,NA,NA,NA,NA,NA,NA,NA,NA,NA,NA,NA,NA
"566","stim/objects/Instruments/panflute2.png",269,39,262,0.1,"stim/22.jpeg",2,2,3,1,"Instruments",2,1,"right","left",0.586999893,0,0,1,0,1,39,1,0.1,2,"stim/22.jpeg",2,2,"stim/22.jpeg",1,"right",2.735000134,3,1,4.460999966,2,5.227999926,1,0,0,NA,0,NA,1
"360","stim/objects/HouseObjects/glass.png",270,39,263,0.9,"stim/24.jpeg",2,4,3,2,"HouseObjects",1,4,"left","left",0.588999987,1,1,1,0,NA,NA,NA,NA,NA,NA,NA,NA,NA,NA,NA,NA,NA,NA,NA,NA,NA,NA,NA,NA,NA,NA,NA,NA
"403","stim/objects/HouseObjects/remote2.png",271,39,264,0.9,"stim/21.jpeg",2,1,3,1,"HouseObjects",1,2,"left","left",0.532999992,1,1,1,0,168,39,1,0.9,1,"stim/21.jpeg",2,1,"stim/21.jpeg",2,"right",0.989000082,3,4,1.042000055,1,0.743999958,168,0,0,NA,0,NA,1
"433","stim/objects/Instruments/cornet.png",272,39,265,0.5,"stim/42.jpeg",4,2,1,2,"Instruments",2,3,"right","right",0.605000019,1,1,1,0,NA,NA,NA,NA,NA,NA,NA,NA,NA,NA,NA,NA,NA,NA,NA,NA,NA,NA,NA,NA,NA,NA,NA,NA
"380","stim/objects/HouseObjects/handbrush.png",273,39,266,0.5,"stim/31.jpeg",3,1,1,1,"HouseObjects",1,4,"left","left",0.657999992,1,1,1,0,94,39,1,0.5,1,"stim/31.jpeg",3,1,"stim/31.jpeg",4,"right",0.878999949,2,1,1.164000034,1,0.605000019,94,0,1,NA,0,NA,1
"328","stim/objects/HouseObjects/flyswatter.png",274,39,267,0.9,"stim/24.jpeg",2,4,3,2,"HouseObjects",1,4,"left","left",0.606999874,1,1,1,0,NA,NA,NA,NA,NA,NA,NA,NA,NA,NA,NA,NA,NA,NA,NA,NA,NA,NA,NA,NA,NA,NA,NA,NA
"523","stim/objects/Instruments/gong2.png",275,39,268,0.9,"stim/12.jpeg",1,2,3,1,"Instruments",2,2,"right","right",0.623999834,1,1,1,0,77,39,1,0.9,2,"stim/12.jpeg",1,2,"stim/12.jpeg",2,"right",1.440000057,1,1,0.801000118,3,1.042999983,77,0,0,NA,0,NA,1
"309","stim/objects/HouseObjects/dustpan.png",276,39,269,0.9,"stim/22.jpeg",2,2,3,2,"HouseObjects",1,3,"left","left",0.48300004,1,1,1,0,NA,NA,NA,NA,NA,NA,NA,NA,NA,NA,NA,NA,NA,NA,NA,NA,NA,NA,NA,NA,NA,NA,NA,NA
"250","stim/objects/HouseObjects/basket.png",277,39,270,0.5,"stim/34.jpeg",3,4,1,2,"HouseObjects",1,4,"left","right",0.700000048,0,0,1,0,NA,NA,NA,NA,NA,NA,NA,NA,NA,NA,NA,NA,NA,NA,NA,NA,NA,NA,NA,NA,NA,NA,NA,NA
"494","stim/objects/Instruments/frenchhorn.png",278,39,271,0.9,"stim/14.jpeg",1,4,3,2,"Instruments",2,1,"right","right",0.600999832,1,1,1,0,NA,NA,NA,NA,NA,NA,NA,NA,NA,NA,NA,NA,NA,NA,NA,NA,NA,NA,NA,NA,NA,NA,NA,NA
"375","stim/objects/HouseObjects/glass2.png",279,39,272,0.1,"stim/11.jpeg",1,1,3,1,"HouseObjects",1,4,"left","right",0.805000067,0,0,1,0,195,39,1,0.1,1,"stim/11.jpeg",1,1,"stim/11.jpeg",4,"right",0.88499999,3,1,0.760999918,1,0.850999832,195,0,1,NA,0,NA,1
"524","stim/objects/Instruments/grandpiano.png",280,39,273,0.9,"stim/13.jpeg",1,3,3,2,"Instruments",2,1,"right","right",0.585000038,1,1,1,0,NA,NA,NA,NA,NA,NA,NA,NA,NA,NA,NA,NA,NA,NA,NA,NA,NA,NA,NA,NA,NA,NA,NA,NA
"495","stim/objects/Instruments/frenchhorn.png",281,39,274,0.9,"stim/13.jpeg",1,3,3,2,"Instruments",2,1,"right","right",0.486000061,1,1,1,0,NA,NA,NA,NA,NA,NA,NA,NA,NA,NA,NA,NA,NA,NA,NA,NA,NA,NA,NA,NA,NA,NA,NA,NA
"361","stim/objects/HouseObjects/glass.png",282,39,275,0.9,"stim/24.jpeg",2,4,3,2,"HouseObjects",1,1,"left","left",0.601999998,1,1,1,0,NA,NA,NA,NA,NA,NA,NA,NA,NA,NA,NA,NA,NA,NA,NA,NA,NA,NA,NA,NA,NA,NA,NA,NA
"329","stim/objects/HouseObjects/flyswatter.png",283,39,276,0.9,"stim/22.jpeg",2,2,3,2,"HouseObjects",1,1,"left","left",0.570999861,1,1,1,0,NA,NA,NA,NA,NA,NA,NA,NA,NA,NA,NA,NA,NA,NA,NA,NA,NA,NA,NA,NA,NA,NA,NA,NA
"256","stim/objects/HouseObjects/blender.png",284,39,277,0.5,"stim/43.jpeg",4,3,1,2,"HouseObjects",1,3,"left","left",0.602999926,1,1,1,0,NA,NA,NA,NA,NA,NA,NA,NA,NA,NA,NA,NA,NA,NA,NA,NA,NA,NA,NA,NA,NA,NA,NA,NA
"506","stim/objects/Instruments/frenchhorn2.png",285,39,278,0.9,"stim/11.jpeg",1,1,3,1,"Instruments",2,1,"right","right",0.571999788,1,1,1,0,156,39,1,0.9,2,"stim/11.jpeg",1,1,"stim/11.jpeg",1,"right",0.825999975,3,4,1.108999968,1,0.708999872,156,0,0,NA,1,NA,1
"567","stim/objects/Instruments/pipepiano.png",286,39,279,0.7,"stim/51.jpeg",5,1,2,1,"Instruments",2,4,"right","left",0.601999998,0,0,1,0,98,39,1,0.7,2,"stim/51.jpeg",5,1,"stim/51.jpeg",4,"right",1.041000128,2,1,1.59800005,3,1.779000044,98,0,1,NA,0,NA,1
"292","stim/objects/HouseObjects/doormat.png",287,39,280,0.9,"stim/21.jpeg",2,1,3,2,"HouseObjects",1,3,"left","left",0.804999828,1,1,1,0,NA,NA,NA,NA,NA,NA,NA,NA,NA,NA,NA,NA,NA,NA,NA,NA,NA,NA,NA,NA,NA,NA,NA,NA
"310","stim/objects/HouseObjects/dustpan.png",288,39,281,0.9,"stim/23.jpeg",2,3,3,2,"HouseObjects",1,4,"left","left",0.53399992,1,1,1,0,NA,NA,NA,NA,NA,NA,NA,NA,NA,NA,NA,NA,NA,NA,NA,NA,NA,NA,NA,NA,NA,NA,NA,NA
"311","stim/objects/HouseObjects/dustpan.png",289,39,282,0.9,"stim/21.jpeg",2,1,3,2,"HouseObjects",1,2,"left","left",0.493999958,1,1,1,0,NA,NA,NA,NA,NA,NA,NA,NA,NA,NA,NA,NA,NA,NA,NA,NA,NA,NA,NA,NA,NA,NA,NA,NA
"398","stim/objects/HouseObjects/pitcher.png",290,39,283,0.3,"stim/52.jpeg",5,2,2,1,"HouseObjects",1,2,"left","left",0.634000063,1,1,1,0,128,39,1,0.3,1,"stim/52.jpeg",5,2,"stim/52.jpeg",2,"right",1.27699995,2,3,0.879999876,2,1.744999886,128,0,0,NA,1,NA,1
"490","stim/objects/Instruments/frenchhorn.png",291,39,284,0.9,"stim/11.jpeg",1,1,3,2,"Instruments",2,1,"right","right",0.570999861,1,1,1,0,NA,NA,NA,NA,NA,NA,NA,NA,NA,NA,NA,NA,NA,NA,NA,NA,NA,NA,NA,NA,NA,NA,NA,NA
"330","stim/objects/HouseObjects/flyswatter.png",292,39,285,0.9,"stim/24.jpeg",2,4,3,2,"HouseObjects",1,4,"left","right",0.604000092,0,0,1,0,NA,NA,NA,NA,NA,NA,NA,NA,NA,NA,NA,NA,NA,NA,NA,NA,NA,NA,NA,NA,NA,NA,NA,NA
"293","stim/objects/HouseObjects/doormat.png",293,39,286,0.9,"stim/23.jpeg",2,3,3,2,"HouseObjects",1,4,"left","left",0.534999847,1,1,1,0,NA,NA,NA,NA,NA,NA,NA,NA,NA,NA,NA,NA,NA,NA,NA,NA,NA,NA,NA,NA,NA,NA,NA,NA
"241","stim/objects/HouseObjects/ashtray.png",294,39,287,0.5,"stim/32.jpeg",3,2,1,2,"HouseObjects",1,2,"left","left",0.549000025,1,1,1,0,NA,NA,NA,NA,NA,NA,NA,NA,NA,NA,NA,NA,NA,NA,NA,NA,NA,NA,NA,NA,NA,NA,NA,NA
"477","stim/objects/Instruments/flutetrans.png",295,39,288,0.9,"stim/12.jpeg",1,2,3,2,"Instruments",2,1,"right","right",0.465999842,1,1,1,0,NA,NA,NA,NA,NA,NA,NA,NA,NA,NA,NA,NA,NA,NA,NA,NA,NA,NA,NA,NA,NA,NA,NA,NA
"259","stim/objects/HouseObjects/bottle.png",296,39,289,0.5,"stim/41.jpeg",4,1,1,2,"HouseObjects",1,2,"left","left",0.523999929,1,1,1,0,NA,NA,NA,NA,NA,NA,NA,NA,NA,NA,NA,NA,NA,NA,NA,NA,NA,NA,NA,NA,NA,NA,NA,NA
"294","stim/objects/HouseObjects/doormat.png",297,39,290,0.9,"stim/23.jpeg",2,3,3,2,"HouseObjects",1,3,"left","left",0.652999878,1,1,1,0,NA,NA,NA,NA,NA,NA,NA,NA,NA,NA,NA,NA,NA,NA,NA,NA,NA,NA,NA,NA,NA,NA,NA,NA
"249","stim/objects/HouseObjects/barbecuelighter2.png",298,39,291,0.3,"stim/54.jpeg",5,4,2,1,"HouseObjects",1,1,"left","right",0.549999952,0,0,1,0,110,39,1,0.3,1,"stim/54.jpeg",5,4,"stim/54.jpeg",1,"right",0.911000013,3,3,1.727999926,4,1.596999884,110,0,0,NA,0,NA,1
"497","stim/objects/Instruments/frenchhorn.png",299,39,292,0.9,"stim/12.jpeg",1,2,3,2,"Instruments",2,1,"right","right",0.555999994,1,1,1,0,NA,NA,NA,NA,NA,NA,NA,NA,NA,NA,NA,NA,NA,NA,NA,NA,NA,NA,NA,NA,NA,NA,NA,NA
"509","stim/objects/Instruments/gong.png",300,39,293,0.9,"stim/14.jpeg",1,4,3,2,"Instruments",2,1,"right","right",0.652999878,1,1,1,0,NA,NA,NA,NA,NA,NA,NA,NA,NA,NA,NA,NA,NA,NA,NA,NA,NA,NA,NA,NA,NA,NA,NA,NA
"417","stim/objects/Instruments/banjo2.png",301,39,294,0.7,"stim/52.jpeg",5,2,2,1,"Instruments",2,1,"right","left",0.573000193,0,0,1,0,54,39,1,0.7,2,"stim/52.jpeg",5,2,"stim/52.jpeg",1,"left",1.351000071,2,3,1.644999981,4,1.243999958,54,1,0,0,0,0,1
"278","stim/objects/HouseObjects/clothespin2.png",302,39,295,0.7,"stim/62.jpeg",6,2,2,1,"HouseObjects",1,4,"left","left",0.773999929,1,1,1,0,28,39,1,0.7,1,"stim/62.jpeg",6,2,"stim/62.jpeg",4,"right",0.962999821,1,2,1.69900012,4,1.444000006,28,0,1,NA,1,NA,1
"383","stim/objects/HouseObjects/handvacuum2.png",303,39,296,0.1,"stim/11.jpeg",1,1,3,1,"HouseObjects",1,2,"left","right",0.789000034,0,0,1,0,180,39,1,0.1,1,"stim/11.jpeg",1,1,"stim/11.jpeg",2,"right",1.144999981,3,1,1.044000149,4,1.00999999,180,0,1,NA,0,NA,1
"558","stim/objects/Instruments/metronome2.png",304,39,297,0.1,"stim/22.jpeg",2,2,3,1,"Instruments",2,3,"right","left",0.539999962,0,0,1,0,60,39,1,0.1,2,"stim/22.jpeg",2,2,"stim/22.jpeg",3,"right",0.768000126,3,4,0.845000029,3,2.463000059,60,0,0,NA,1,NA,1
"332","stim/objects/HouseObjects/flyswatter.png",305,39,298,0.9,"stim/21.jpeg",2,1,3,2,"HouseObjects",1,3,"left","right",0.710000038,0,0,1,0,NA,NA,NA,NA,NA,NA,NA,NA,NA,NA,NA,NA,NA,NA,NA,NA,NA,NA,NA,NA,NA,NA,NA,NA
"427","stim/objects/Instruments/chime.png",306,39,299,0.5,"stim/41.jpeg",4,1,1,2,"Instruments",2,2,"right","left",0.503999949,0,0,1,0,NA,NA,NA,NA,NA,NA,NA,NA,NA,NA,NA,NA,NA,NA,NA,NA,NA,NA,NA,NA,NA,NA,NA,NA
"555","stim/objects/Instruments/marimba.png",307,39,300,0.5,"stim/42.jpeg",4,2,1,1,"Instruments",2,4,"right","left",0.607999802,0,0,1,0,137,39,1,0.5,2,"stim/42.jpeg",4,2,"stim/42.jpeg",4,"right",1.961999893,2,2,0.924999952,3,0.771999836,137,0,1,NA,0,NA,1
"479","stim/objects/Instruments/flutetrans.png",308,39,301,0.9,"stim/11.jpeg",1,1,3,2,"Instruments",2,2,"right","right",0.538000107,1,1,1,0,NA,NA,NA,NA,NA,NA,NA,NA,NA,NA,NA,NA,NA,NA,NA,NA,NA,NA,NA,NA,NA,NA,NA,NA
"402","stim/objects/HouseObjects/remote.png",309,39,302,0.3,"stim/54.jpeg",5,4,2,1,"HouseObjects",1,3,"left","left",0.523999929,1,1,1,0,100,39,1,0.3,1,"stim/54.jpeg",5,4,"stim/54.jpeg",3,"right",0.606000185,3,2,0.835000038,1,1.153000116,100,0,0,NA,0,NA,1
"345","stim/objects/HouseObjects/garbagebin.png",310,39,303,0.9,"stim/22.jpeg",2,2,3,2,"HouseObjects",1,1,"left","left",0.554000139,1,1,1,0,NA,NA,NA,NA,NA,NA,NA,NA,NA,NA,NA,NA,NA,NA,NA,NA,NA,NA,NA,NA,NA,NA,NA,NA
"540","stim/objects/Instruments/grandpiano2.png",311,39,304,0.9,"stim/13.jpeg",1,3,3,1,"Instruments",2,1,"right","right",0.586000204,1,1,1,0,150,39,1,0.9,2,"stim/13.jpeg",1,3,"stim/13.jpeg",1,"left",1.328999996,3,1,2.909999847,1,0.710999966,150,1,0,0,1,1,1
"453","stim/objects/Instruments/electricguitar.png",312,39,305,0.7,"stim/51.jpeg",5,1,2,2,"Instruments",2,1,"right","left",0.536000013,0,0,1,0,NA,NA,NA,NA,NA,NA,NA,NA,NA,NA,NA,NA,NA,NA,NA,NA,NA,NA,NA,NA,NA,NA,NA,NA
"247","stim/objects/HouseObjects/barbecuelighter.png",313,39,306,0.5,"stim/34.jpeg",3,4,1,2,"HouseObjects",1,1,"left","left",0.575000048,1,1,1,0,NA,NA,NA,NA,NA,NA,NA,NA,NA,NA,NA,NA,NA,NA,NA,NA,NA,NA,NA,NA,NA,NA,NA,NA
"313","stim/objects/HouseObjects/dustpan.png",314,39,307,0.9,"stim/21.jpeg",2,1,3,2,"HouseObjects",1,3,"left","left",0.585000038,1,1,1,0,NA,NA,NA,NA,NA,NA,NA,NA,NA,NA,NA,NA,NA,NA,NA,NA,NA,NA,NA,NA,NA,NA,NA,NA
"242","stim/objects/HouseObjects/ashtray.png",315,39,308,0.5,"stim/31.jpeg",3,1,1,2,"HouseObjects",1,1,"left","left",0.70299983,1,1,1,0,NA,NA,NA,NA,NA,NA,NA,NA,NA,NA,NA,NA,NA,NA,NA,NA,NA,NA,NA,NA,NA,NA,NA,NA
"459","stim/objects/Instruments/flute.png",316,39,309,0.9,"stim/12.jpeg",1,2,3,2,"Instruments",2,2,"right","right",0.537999868,1,1,1,0,NA,NA,NA,NA,NA,NA,NA,NA,NA,NA,NA,NA,NA,NA,NA,NA,NA,NA,NA,NA,NA,NA,NA,NA
"525","stim/objects/Instruments/grandpiano.png",317,39,310,0.9,"stim/14.jpeg",1,4,3,2,"Instruments",2,4,"right","right",0.555999994,1,1,1,0,NA,NA,NA,NA,NA,NA,NA,NA,NA,NA,NA,NA,NA,NA,NA,NA,NA,NA,NA,NA,NA,NA,NA,NA
"408","stim/objects/Instruments/accordion2.png",318,39,311,0.7,"stim/53.jpeg",5,3,2,1,"Instruments",2,4,"right","left",0.588000059,0,0,1,0,29,39,1,0.7,2,"stim/53.jpeg",5,3,"stim/53.jpeg",4,"right",0.980000019,4,1,1.252000093,3,1.79399991,29,0,0,NA,0,NA,1
"460","stim/objects/Instruments/flute.png",319,39,312,0.9,"stim/14.jpeg",1,4,3,2,"Instruments",2,2,"right","right",0.588999987,1,1,1,0,NA,NA,NA,NA,NA,NA,NA,NA,NA,NA,NA,NA,NA,NA,NA,NA,NA,NA,NA,NA,NA,NA,NA,NA
"276","stim/objects/HouseObjects/clothespin.png",320,39,313,0.7,"stim/63.jpeg",6,3,2,2,"HouseObjects",1,2,"left","left",0.554999828,1,1,1,0,NA,NA,NA,NA,NA,NA,NA,NA,NA,NA,NA,NA,NA,NA,NA,NA,NA,NA,NA,NA,NA,NA,NA,NA
"510","stim/objects/Instruments/gong.png",321,39,314,0.9,"stim/11.jpeg",1,1,3,2,"Instruments",2,2,"right","right",0.628000021,1,1,1,0,NA,NA,NA,NA,NA,NA,NA,NA,NA,NA,NA,NA,NA,NA,NA,NA,NA,NA,NA,NA,NA,NA,NA,NA
"498","stim/objects/Instruments/frenchhorn.png",322,39,315,0.9,"stim/13.jpeg",1,3,3,2,"Instruments",2,2,"right","right",0.519999981,1,1,1,0,NA,NA,NA,NA,NA,NA,NA,NA,NA,NA,NA,NA,NA,NA,NA,NA,NA,NA,NA,NA,NA,NA,NA,NA
"526","stim/objects/Instruments/grandpiano.png",323,39,316,0.9,"stim/11.jpeg",1,1,3,2,"Instruments",2,3,"right","right",0.570999861,1,1,1,0,NA,NA,NA,NA,NA,NA,NA,NA,NA,NA,NA,NA,NA,NA,NA,NA,NA,NA,NA,NA,NA,NA,NA,NA
"480","stim/objects/Instruments/flutetrans.png",324,39,317,0.9,"stim/14.jpeg",1,4,3,2,"Instruments",2,3,"right","right",0.50999999,1,1,1,0,NA,NA,NA,NA,NA,NA,NA,NA,NA,NA,NA,NA,NA,NA,NA,NA,NA,NA,NA,NA,NA,NA,NA,NA
"452","stim/objects/Instruments/electricguitar.png",325,39,318,0.7,"stim/54.jpeg",5,4,2,2,"Instruments",2,1,"right","right",0.555000067,1,1,1,0,NA,NA,NA,NA,NA,NA,NA,NA,NA,NA,NA,NA,NA,NA,NA,NA,NA,NA,NA,NA,NA,NA,NA,NA
"447","stim/objects/Instruments/drums2.png",326,39,319,0.3,"stim/61.jpeg",6,1,2,1,"Instruments",2,3,"right","left",0.700999975,0,0,1,0,142,39,1,0.3,2,"stim/61.jpeg",6,1,"stim/61.jpeg",3,"right",1.785000086,2,1,0.667000055,4,1.276000023,142,0,1,NA,0,NA,1
"401","stim/objects/HouseObjects/recyclingbin2.png",327,39,320,0.9,"stim/24.jpeg",2,4,3,1,"HouseObjects",1,1,"left","left",0.535000086,1,1,1,0,108,39,1,0.9,1,"stim/24.jpeg",2,4,"stim/24.jpeg",1,"right",0.730999947,4,1,0.946000099,1,0.592999935,108,0,0,NA,1,NA,1
"333","stim/objects/HouseObjects/flyswatter.png",328,39,321,0.9,"stim/23.jpeg",2,3,3,2,"HouseObjects",1,3,"left","left",0.572000027,1,1,1,0,NA,NA,NA,NA,NA,NA,NA,NA,NA,NA,NA,NA,NA,NA,NA,NA,NA,NA,NA,NA,NA,NA,NA,NA
"364","stim/objects/HouseObjects/glass.png",329,39,322,0.9,"stim/21.jpeg",2,1,3,2,"HouseObjects",1,1,"left","left",0.588000059,1,1,1,0,NA,NA,NA,NA,NA,NA,NA,NA,NA,NA,NA,NA,NA,NA,NA,NA,NA,NA,NA,NA,NA,NA,NA,NA
"334","stim/objects/HouseObjects/flyswatter.png",330,39,323,0.9,"stim/24.jpeg",2,4,3,2,"HouseObjects",1,3,"left","left",0.555999994,1,1,1,0,NA,NA,NA,NA,NA,NA,NA,NA,NA,NA,NA,NA,NA,NA,NA,NA,NA,NA,NA,NA,NA,NA,NA,NA
"496","stim/objects/Instruments/frenchhorn.png",331,39,324,0.9,"stim/12.jpeg",1,2,3,2,"Instruments",2,2,"right","right",0.661999941,1,1,1,0,NA,NA,NA,NA,NA,NA,NA,NA,NA,NA,NA,NA,NA,NA,NA,NA,NA,NA,NA,NA,NA,NA,NA,NA
"396","stim/objects/HouseObjects/pan.png",332,39,325,0.3,"stim/51.jpeg",5,1,2,1,"HouseObjects",1,4,"left","left",0.618000031,1,1,1,0,93,39,1,0.3,1,"stim/51.jpeg",5,1,"stim/51.jpeg",4,"right",0.710000038,2,3,1.184000015,3,1.35800004,93,0,0,NA,0,NA,1
"424","stim/objects/Instruments/cello.png",333,39,326,0.5,"stim/44.jpeg",4,4,1,2,"Instruments",2,4,"right","left",0.588000059,0,0,1,0,NA,NA,NA,NA,NA,NA,NA,NA,NA,NA,NA,NA,NA,NA,NA,NA,NA,NA,NA,NA,NA,NA,NA,NA
"549","stim/objects/Instruments/keyboard.png",334,39,327,0.5,"stim/32.jpeg",3,2,1,1,"Instruments",2,2,"right","right",0.50999999,1,1,1,0,159,39,1,0.5,1,"stim/32.jpeg",3,2,"stim/32.jpeg",2,"left",0.944000006,2,1,0.778000116,3,1.118000031,159,1,0,0,0,0,1
"347","stim/objects/HouseObjects/garbagebin.png",335,39,328,0.9,"stim/24.jpeg",2,4,3,2,"HouseObjects",1,1,"left","left",0.523000002,1,1,1,0,NA,NA,NA,NA,NA,NA,NA,NA,NA,NA,NA,NA,NA,NA,NA,NA,NA,NA,NA,NA,NA,NA,NA,NA
"512","stim/objects/Instruments/gong.png",336,39,329,0.9,"stim/14.jpeg",1,4,3,2,"Instruments",2,4,"right","right",0.66899991,1,1,1,0,NA,NA,NA,NA,NA,NA,NA,NA,NA,NA,NA,NA,NA,NA,NA,NA,NA,NA,NA,NA,NA,NA,NA,NA
"440","stim/objects/Instruments/doublebass.png",337,39,330,0.7,"stim/51.jpeg",5,1,2,2,"Instruments",2,4,"right","left",0.521000147,0,0,1,0,NA,NA,NA,NA,NA,NA,NA,NA,NA,NA,NA,NA,NA,NA,NA,NA,NA,NA,NA,NA,NA,NA,NA,NA
"513","stim/objects/Instruments/gong.png",338,39,331,0.9,"stim/14.jpeg",1,4,3,2,"Instruments",2,3,"right","right",0.654000044,1,1,1,0,NA,NA,NA,NA,NA,NA,NA,NA,NA,NA,NA,NA,NA,NA,NA,NA,NA,NA,NA,NA,NA,NA,NA,NA
"277","stim/objects/HouseObjects/clothespin.png",339,39,332,0.7,"stim/64.jpeg",6,4,2,2,"HouseObjects",1,3,"left","left",0.655999899,1,1,1,0,NA,NA,NA,NA,NA,NA,NA,NA,NA,NA,NA,NA,NA,NA,NA,NA,NA,NA,NA,NA,NA,NA,NA,NA
"335","stim/objects/HouseObjects/flyswatter.png",340,39,333,0.9,"stim/24.jpeg",2,4,3,2,"HouseObjects",1,1,"left","left",0.537999868,1,1,1,0,NA,NA,NA,NA,NA,NA,NA,NA,NA,NA,NA,NA,NA,NA,NA,NA,NA,NA,NA,NA,NA,NA,NA,NA
"348","stim/objects/HouseObjects/garbagebin.png",341,39,334,0.9,"stim/24.jpeg",2,4,3,2,"HouseObjects",1,3,"left","left",0.599999905,1,1,1,0,NA,NA,NA,NA,NA,NA,NA,NA,NA,NA,NA,NA,NA,NA,NA,NA,NA,NA,NA,NA,NA,NA,NA,NA
"263","stim/objects/HouseObjects/broom.png",342,39,335,0.5,"stim/41.jpeg",4,1,1,2,"HouseObjects",1,4,"left","left",0.718999863,1,1,1,0,NA,NA,NA,NA,NA,NA,NA,NA,NA,NA,NA,NA,NA,NA,NA,NA,NA,NA,NA,NA,NA,NA,NA,NA
"388","stim/objects/HouseObjects/key.png",343,39,336,0.5,"stim/42.jpeg",4,2,1,1,"HouseObjects",1,4,"left","left",0.517999887,1,1,1,0,96,39,1,0.5,2,"stim/42.jpeg",4,2,"stim/42.jpeg",4,"right",0.690999985,3,4,0.723999977,2,1.774999857,96,0,0,NA,0,NA,1
"543","stim/objects/Instruments/harmonica.png",344,39,337,0.5,"stim/33.jpeg",3,3,1,1,"Instruments",2,3,"right","left",0.51699996,0,0,1,0,48,39,1,0.5,1,"stim/33.jpeg",3,3,"stim/33.jpeg",3,"right",0.51699996,4,4,1.266000032,1,0.536000013,48,0,0,NA,0,NA,1
"409","stim/objects/Instruments/acousticguitar.png",345,39,338,0.5,"stim/32.jpeg",3,2,1,2,"Instruments",2,3,"right","left",0.455000162,0,0,1,0,NA,NA,NA,NA,NA,NA,NA,NA,NA,NA,NA,NA,NA,NA,NA,NA,NA,NA,NA,NA,NA,NA,NA,NA
"461","stim/objects/Instruments/flute.png",346,39,339,0.9,"stim/14.jpeg",1,4,3,2,"Instruments",2,4,"right","right",0.674999952,1,1,1,0,NA,NA,NA,NA,NA,NA,NA,NA,NA,NA,NA,NA,NA,NA,NA,NA,NA,NA,NA,NA,NA,NA,NA,NA
"499","stim/objects/Instruments/frenchhorn.png",347,39,340,0.9,"stim/13.jpeg",1,3,3,2,"Instruments",2,1,"right","right",0.61500001,1,1,1,0,NA,NA,NA,NA,NA,NA,NA,NA,NA,NA,NA,NA,NA,NA,NA,NA,NA,NA,NA,NA,NA,NA,NA,NA
"296","stim/objects/HouseObjects/doormat.png",348,39,341,0.9,"stim/23.jpeg",2,3,3,2,"HouseObjects",1,2,"left","left",0.546999931,1,1,1,0,NA,NA,NA,NA,NA,NA,NA,NA,NA,NA,NA,NA,NA,NA,NA,NA,NA,NA,NA,NA,NA,NA,NA,NA
"500","stim/objects/Instruments/frenchhorn.png",349,39,342,0.9,"stim/11.jpeg",1,1,3,2,"Instruments",2,2,"right","right",0.585000038,1,1,1,0,NA,NA,NA,NA,NA,NA,NA,NA,NA,NA,NA,NA,NA,NA,NA,NA,NA,NA,NA,NA,NA,NA,NA,NA
"297","stim/objects/HouseObjects/doormat.png",350,39,343,0.9,"stim/22.jpeg",2,2,3,2,"HouseObjects",1,4,"left","left",0.525000095,1,1,1,0,NA,NA,NA,NA,NA,NA,NA,NA,NA,NA,NA,NA,NA,NA,NA,NA,NA,NA,NA,NA,NA,NA,NA,NA
"428","stim/objects/Instruments/chime.png",351,39,344,0.5,"stim/44.jpeg",4,4,1,2,"Instruments",2,1,"right","right",0.819000006,1,1,1,0,NA,NA,NA,NA,NA,NA,NA,NA,NA,NA,NA,NA,NA,NA,NA,NA,NA,NA,NA,NA,NA,NA,NA,NA
"283","stim/objects/HouseObjects/cushion.png",352,39,345,0.7,"stim/62.jpeg",6,2,2,2,"HouseObjects",1,3,"left","left",0.519000053,1,1,1,0,NA,NA,NA,NA,NA,NA,NA,NA,NA,NA,NA,NA,NA,NA,NA,NA,NA,NA,NA,NA,NA,NA,NA,NA
"530","stim/objects/Instruments/grandpiano.png",353,39,346,0.9,"stim/12.jpeg",1,2,3,2,"Instruments",2,2,"right","right",0.567000151,1,1,1,0,NA,NA,NA,NA,NA,NA,NA,NA,NA,NA,NA,NA,NA,NA,NA,NA,NA,NA,NA,NA,NA,NA,NA,NA
"365","stim/objects/HouseObjects/glass.png",354,39,347,0.9,"stim/23.jpeg",2,3,3,2,"HouseObjects",1,1,"left","left",0.510999918,1,1,1,0,NA,NA,NA,NA,NA,NA,NA,NA,NA,NA,NA,NA,NA,NA,NA,NA,NA,NA,NA,NA,NA,NA,NA,NA
"366","stim/objects/HouseObjects/glass.png",355,39,348,0.9,"stim/23.jpeg",2,3,3,2,"HouseObjects",1,4,"left","left",0.751000166,1,1,1,0,NA,NA,NA,NA,NA,NA,NA,NA,NA,NA,NA,NA,NA,NA,NA,NA,NA,NA,NA,NA,NA,NA,NA,NA
"385","stim/objects/HouseObjects/iron2.png",356,39,349,0.1,"stim/12.jpeg",1,2,3,1,"HouseObjects",1,4,"left","right",0.486999989,0,0,1,0,78,39,1,0.1,1,"stim/12.jpeg",1,2,"stim/12.jpeg",4,"right",0.842000008,2,3,1.60800004,2,1.527999878,78,0,0,NA,0,NA,1
"298","stim/objects/HouseObjects/doormat.png",357,39,350,0.9,"stim/22.jpeg",2,2,3,2,"HouseObjects",1,1,"left","left",0.588000059,1,1,1,0,NA,NA,NA,NA,NA,NA,NA,NA,NA,NA,NA,NA,NA,NA,NA,NA,NA,NA,NA,NA,NA,NA,NA,NA
"422","stim/objects/Instruments/bassguitar.png",358,39,351,0.5,"stim/43.jpeg",4,3,1,2,"Instruments",2,4,"right","left",0.652999878,0,0,1,0,NA,NA,NA,NA,NA,NA,NA,NA,NA,NA,NA,NA,NA,NA,NA,NA,NA,NA,NA,NA,NA,NA,NA,NA
"349","stim/objects/HouseObjects/garbagebin.png",359,39,352,0.9,"stim/23.jpeg",2,3,3,2,"HouseObjects",1,2,"left","left",0.556999922,1,1,1,0,NA,NA,NA,NA,NA,NA,NA,NA,NA,NA,NA,NA,NA,NA,NA,NA,NA,NA,NA,NA,NA,NA,NA,NA
"439","stim/objects/Instruments/cymbal2.png",360,39,353,0.3,"stim/63.jpeg",6,3,2,1,"Instruments",2,3,"right","right",0.789999962,1,1,1,0,49,39,1,0.3,2,"stim/63.jpeg",6,3,"stim/63.jpeg",3,"right",0.90899992,3,1,0.976999998,2,1.225000143,49,0,0,NA,0,NA,1
"266","stim/objects/HouseObjects/bucket.png",361,39,354,0.5,"stim/42.jpeg",4,2,1,2,"HouseObjects",1,4,"left","left",0.536000013,1,1,1,0,NA,NA,NA,NA,NA,NA,NA,NA,NA,NA,NA,NA,NA,NA,NA,NA,NA,NA,NA,NA,NA,NA,NA,NA
"252","stim/objects/HouseObjects/basket2.png",362,39,355,0.3,"stim/51.jpeg",5,1,2,1,"HouseObjects",1,3,"left","left",0.619000196,1,1,1,0,65,39,1,0.3,1,"stim/51.jpeg",5,1,"stim/51.jpeg",3,"right",0.978000164,2,3,1.076999903,3,1.420000076,65,0,0,NA,1,NA,1
"271","stim/objects/HouseObjects/clothesdryingrack.png",363,39,356,0.7,"stim/62.jpeg",6,2,2,2,"HouseObjects",1,4,"left","left",0.601999998,1,1,1,0,NA,NA,NA,NA,NA,NA,NA,NA,NA,NA,NA,NA,NA,NA,NA,NA,NA,NA,NA,NA,NA,NA,NA,NA
"367","stim/objects/HouseObjects/glass.png",364,39,357,0.9,"stim/24.jpeg",2,4,3,2,"HouseObjects",1,1,"left","left",0.628999949,1,1,1,0,NA,NA,NA,NA,NA,NA,NA,NA,NA,NA,NA,NA,NA,NA,NA,NA,NA,NA,NA,NA,NA,NA,NA,NA
"295","stim/objects/HouseObjects/doormat.png",365,39,358,0.9,"stim/23.jpeg",2,3,3,2,"HouseObjects",1,1,"left","left",0.724999905,1,1,1,0,NA,NA,NA,NA,NA,NA,NA,NA,NA,NA,NA,NA,NA,NA,NA,NA,NA,NA,NA,NA,NA,NA,NA,NA
"482","stim/objects/Instruments/flutetrans.png",366,39,359,0.9,"stim/14.jpeg",1,4,3,2,"Instruments",2,4,"right","right",0.773000002,1,1,1,0,NA,NA,NA,NA,NA,NA,NA,NA,NA,NA,NA,NA,NA,NA,NA,NA,NA,NA,NA,NA,NA,NA,NA,NA
"368","stim/objects/HouseObjects/glass.png",367,39,360,0.9,"stim/22.jpeg",2,2,3,2,"HouseObjects",1,4,"left","left",0.618000031,1,1,1,0,NA,NA,NA,NA,NA,NA,NA,NA,NA,NA,NA,NA,NA,NA,NA,NA,NA,NA,NA,NA,NA,NA,NA,NA
"350","stim/objects/HouseObjects/garbagebin.png",368,39,361,0.9,"stim/24.jpeg",2,4,3,2,"HouseObjects",1,1,"left","left",0.549999952,1,1,1,0,NA,NA,NA,NA,NA,NA,NA,NA,NA,NA,NA,NA,NA,NA,NA,NA,NA,NA,NA,NA,NA,NA,NA,NA
"314","stim/objects/HouseObjects/dustpan.png",369,39,362,0.9,"stim/21.jpeg",2,1,3,2,"HouseObjects",1,4,"left","left",0.475000143,1,1,1,0,NA,NA,NA,NA,NA,NA,NA,NA,NA,NA,NA,NA,NA,NA,NA,NA,NA,NA,NA,NA,NA,NA,NA,NA
"425","stim/objects/Instruments/cello.png",370,39,363,0.5,"stim/43.jpeg",4,3,1,2,"Instruments",2,2,"right","left",0.572999954,0,0,1,0,NA,NA,NA,NA,NA,NA,NA,NA,NA,NA,NA,NA,NA,NA,NA,NA,NA,NA,NA,NA,NA,NA,NA,NA
"528","stim/objects/Instruments/grandpiano.png",371,39,364,0.9,"stim/12.jpeg",1,2,3,2,"Instruments",2,2,"right","right",0.578999996,1,1,1,0,NA,NA,NA,NA,NA,NA,NA,NA,NA,NA,NA,NA,NA,NA,NA,NA,NA,NA,NA,NA,NA,NA,NA,NA
"404","stim/objects/HouseObjects/rubbergloves.png",372,39,365,0.3,"stim/51.jpeg",5,1,2,1,"HouseObjects",1,1,"left","left",0.471999884,1,1,1,0,193,39,1,0.3,1,"stim/51.jpeg",5,1,"stim/51.jpeg",1,"right",0.944000006,4,1,1.40899992,1,0.52699995,193,0,1,NA,1,NA,1
"325","stim/objects/HouseObjects/flyswatter.png",373,39,366,0.9,"stim/22.jpeg",2,2,3,2,"HouseObjects",1,2,"left","left",0.517999887,1,1,1,0,NA,NA,NA,NA,NA,NA,NA,NA,NA,NA,NA,NA,NA,NA,NA,NA,NA,NA,NA,NA,NA,NA,NA,NA
"508","stim/objects/Instruments/gong.png",374,39,367,0.9,"stim/12.jpeg",1,2,3,2,"Instruments",2,2,"right","right",0.693000078,1,1,1,0,NA,NA,NA,NA,NA,NA,NA,NA,NA,NA,NA,NA,NA,NA,NA,NA,NA,NA,NA,NA,NA,NA,NA,NA
"300","stim/objects/HouseObjects/doormat.png",375,39,368,0.9,"stim/21.jpeg",2,1,3,2,"HouseObjects",1,2,"left","left",0.773000002,1,1,1,0,NA,NA,NA,NA,NA,NA,NA,NA,NA,NA,NA,NA,NA,NA,NA,NA,NA,NA,NA,NA,NA,NA,NA,NA
"531","stim/objects/Instruments/grandpiano.png",376,39,369,0.9,"stim/13.jpeg",1,3,3,2,"Instruments",2,2,"right","right",0.588000059,1,1,1,0,NA,NA,NA,NA,NA,NA,NA,NA,NA,NA,NA,NA,NA,NA,NA,NA,NA,NA,NA,NA,NA,NA,NA,NA
"301","stim/objects/HouseObjects/doormat.png",377,39,370,0.9,"stim/24.jpeg",2,4,3,2,"HouseObjects",1,2,"left","left",0.502000093,1,1,1,0,NA,NA,NA,NA,NA,NA,NA,NA,NA,NA,NA,NA,NA,NA,NA,NA,NA,NA,NA,NA,NA,NA,NA,NA
"400","stim/objects/HouseObjects/recyclingbin.png",378,39,371,0.3,"stim/53.jpeg",5,3,2,1,"HouseObjects",1,1,"left","right",0.535000086,0,0,1,0,121,39,1,0.3,1,"stim/53.jpeg",5,3,"stim/53.jpeg",1,"right",0.789999962,1,1,1.125,4,0.643000126,121,0,0,NA,0,NA,1
"302","stim/objects/HouseObjects/doormat.png",379,39,372,0.9,"stim/21.jpeg",2,1,3,2,"HouseObjects",1,3,"left","left",0.573000193,1,1,1,0,NA,NA,NA,NA,NA,NA,NA,NA,NA,NA,NA,NA,NA,NA,NA,NA,NA,NA,NA,NA,NA,NA,NA,NA
"515","stim/objects/Instruments/gong.png",380,39,373,0.9,"stim/11.jpeg",1,1,3,2,"Instruments",2,1,"right","right",0.718999863,1,1,1,0,NA,NA,NA,NA,NA,NA,NA,NA,NA,NA,NA,NA,NA,NA,NA,NA,NA,NA,NA,NA,NA,NA,NA,NA
"316","stim/objects/HouseObjects/dustpan.png",381,39,374,0.9,"stim/23.jpeg",2,3,3,2,"HouseObjects",1,1,"left","left",0.587000132,1,1,1,0,NA,NA,NA,NA,NA,NA,NA,NA,NA,NA,NA,NA,NA,NA,NA,NA,NA,NA,NA,NA,NA,NA,NA,NA
"474","stim/objects/Instruments/flutetrans.png",382,39,375,0.9,"stim/13.jpeg",1,3,3,2,"Instruments",2,2,"right","right",0.669999838,1,1,1,0,NA,NA,NA,NA,NA,NA,NA,NA,NA,NA,NA,NA,NA,NA,NA,NA,NA,NA,NA,NA,NA,NA,NA,NA
"413","stim/objects/Instruments/balalaika.png",383,39,376,0.5,"stim/33.jpeg",3,3,1,2,"Instruments",2,4,"right","left",0.690999985,0,0,1,0,NA,NA,NA,NA,NA,NA,NA,NA,NA,NA,NA,NA,NA,NA,NA,NA,NA,NA,NA,NA,NA,NA,NA,NA
"421","stim/objects/Instruments/bassguitar.png",384,39,377,0.5,"stim/42.jpeg",4,2,1,2,"Instruments",2,4,"right","left",0.602999926,0,0,1,0,NA,NA,NA,NA,NA,NA,NA,NA,NA,NA,NA,NA,NA,NA,NA,NA,NA,NA,NA,NA,NA,NA,NA,NA
"303","stim/objects/HouseObjects/doormat.png",385,39,378,0.9,"stim/21.jpeg",2,1,3,2,"HouseObjects",1,2,"left","left",0.618000031,1,1,1,0,NA,NA,NA,NA,NA,NA,NA,NA,NA,NA,NA,NA,NA,NA,NA,NA,NA,NA,NA,NA,NA,NA,NA,NA
"327","stim/objects/HouseObjects/flyswatter.png",386,39,379,0.9,"stim/23.jpeg",2,3,3,2,"HouseObjects",1,1,"left","left",0.537999868,1,1,1,0,NA,NA,NA,NA,NA,NA,NA,NA,NA,NA,NA,NA,NA,NA,NA,NA,NA,NA,NA,NA,NA,NA,NA,NA
"351","stim/objects/HouseObjects/garbagebin.png",387,39,380,0.9,"stim/21.jpeg",2,1,3,2,"HouseObjects",1,3,"left","left",0.519000053,1,1,1,0,NA,NA,NA,NA,NA,NA,NA,NA,NA,NA,NA,NA,NA,NA,NA,NA,NA,NA,NA,NA,NA,NA,NA,NA
"462","stim/objects/Instruments/flute.png",388,39,381,0.9,"stim/12.jpeg",1,2,3,2,"Instruments",2,4,"right","right",0.556999922,1,1,1,0,NA,NA,NA,NA,NA,NA,NA,NA,NA,NA,NA,NA,NA,NA,NA,NA,NA,NA,NA,NA,NA,NA,NA,NA
"251","stim/objects/HouseObjects/basket.png",389,39,382,0.5,"stim/31.jpeg",3,1,1,2,"HouseObjects",1,3,"left","left",0.71999979,1,1,1,0,NA,NA,NA,NA,NA,NA,NA,NA,NA,NA,NA,NA,NA,NA,NA,NA,NA,NA,NA,NA,NA,NA,NA,NA
"406","stim/objects/Instruments/accordion.png",390,39,383,0.5,"stim/31.jpeg",3,1,1,2,"Instruments",2,4,"right","left",0.486999989,0,0,1,0,NA,NA,NA,NA,NA,NA,NA,NA,NA,NA,NA,NA,NA,NA,NA,NA,NA,NA,NA,NA,NA,NA,NA,NA
"317","stim/objects/HouseObjects/dustpan.png",391,39,384,0.9,"stim/24.jpeg",2,4,3,2,"HouseObjects",1,2,"left","left",0.520999908,1,1,1,0,NA,NA,NA,NA,NA,NA,NA,NA,NA,NA,NA,NA,NA,NA,NA,NA,NA,NA,NA,NA,NA,NA,NA,NA
"476","stim/objects/Instruments/flutetrans.png",392,39,385,0.9,"stim/13.jpeg",1,3,3,2,"Instruments",2,2,"right","right",0.753000021,1,1,1,0,NA,NA,NA,NA,NA,NA,NA,NA,NA,NA,NA,NA,NA,NA,NA,NA,NA,NA,NA,NA,NA,NA,NA,NA
"464","stim/objects/Instruments/flute.png",393,39,386,0.9,"stim/11.jpeg",1,1,3,2,"Instruments",2,1,"right","right",0.602999926,1,1,1,0,NA,NA,NA,NA,NA,NA,NA,NA,NA,NA,NA,NA,NA,NA,NA,NA,NA,NA,NA,NA,NA,NA,NA,NA
"547","stim/objects/Instruments/hihat.png",394,39,387,0.5,"stim/31.jpeg",3,1,1,1,"Instruments",2,4,"right","left",0.59800005,0,0,1,0,178,39,1,0.5,1,"stim/31.jpeg",3,1,"stim/31.jpeg",4,"right",0.774000168,2,2,1.144000053,3,0.907999992,178,0,0,NA,0,NA,1
"246","stim/objects/HouseObjects/ballofstring2.png",395,39,388,0.3,"stim/53.jpeg",5,3,2,1,"HouseObjects",1,3,"left","left",0.868000031,1,1,1,0,19,39,1,0.3,1,"stim/53.jpeg",5,3,"stim/53.jpeg",3,"left",1.039999962,4,2,2.899000168,1,1.246999979,19,1,0,0,0,0,1
"426","stim/objects/Instruments/cello2.png",396,39,389,0.3,"stim/63.jpeg",6,3,2,1,"Instruments",2,4,"right","left",0.852999926,0,0,1,0,67,39,1,0.3,2,"stim/63.jpeg",6,3,"stim/63.jpeg",4,"right",1.657999992,1,1,0.794000149,3,1.312999964,67,0,0,NA,0,NA,1
"448","stim/objects/Instruments/electricdrumset.png",397,39,390,0.7,"stim/54.jpeg",5,4,2,2,"Instruments",2,1,"right","left",0.65899992,0,0,1,0,NA,NA,NA,NA,NA,NA,NA,NA,NA,NA,NA,NA,NA,NA,NA,NA,NA,NA,NA,NA,NA,NA,NA,NA
"272","stim/objects/HouseObjects/clothesdryingrack.png",398,39,391,0.7,"stim/61.jpeg",6,1,2,2,"HouseObjects",1,2,"left","left",0.786000013,1,1,1,0,NA,NA,NA,NA,NA,NA,NA,NA,NA,NA,NA,NA,NA,NA,NA,NA,NA,NA,NA,NA,NA,NA,NA,NA
"517","stim/objects/Instruments/gong.png",399,39,392,0.9,"stim/12.jpeg",1,2,3,2,"Instruments",2,2,"right","right",0.549999952,1,1,1,0,NA,NA,NA,NA,NA,NA,NA,NA,NA,NA,NA,NA,NA,NA,NA,NA,NA,NA,NA,NA,NA,NA,NA,NA
"412","stim/objects/Instruments/balalaika.png",400,39,393,0.5,"stim/32.jpeg",3,2,1,2,"Instruments",2,1,"right","left",0.519999981,0,0,1,0,NA,NA,NA,NA,NA,NA,NA,NA,NA,NA,NA,NA,NA,NA,NA,NA,NA,NA,NA,NA,NA,NA,NA,NA
"532","stim/objects/Instruments/grandpiano.png",401,39,394,0.9,"stim/12.jpeg",1,2,3,2,"Instruments",2,3,"right","right",0.683000088,1,1,1,0,NA,NA,NA,NA,NA,NA,NA,NA,NA,NA,NA,NA,NA,NA,NA,NA,NA,NA,NA,NA,NA,NA,NA,NA
"394","stim/objects/HouseObjects/match.png",402,39,395,0.5,"stim/41.jpeg",4,1,1,1,"HouseObjects",1,1,"left","left",0.489000082,1,1,1,0,34,39,1,0.5,2,"stim/41.jpeg",4,1,"stim/41.jpeg",1,"left",0.960000038,4,1,1.609999895,1,1.123000145,34,1,1,1,1,1,1
"284","stim/objects/HouseObjects/cushion.png",403,39,396,0.7,"stim/61.jpeg",6,1,2,2,"HouseObjects",1,4,"left","left",0.785000086,1,1,1,0,NA,NA,NA,NA,NA,NA,NA,NA,NA,NA,NA,NA,NA,NA,NA,NA,NA,NA,NA,NA,NA,NA,NA,NA
"324","stim/objects/HouseObjects/dustpan2.png",404,39,397,0.1,"stim/12.jpeg",1,2,3,1,"HouseObjects",1,2,"left","right",0.8349998,0,0,1,0,171,39,1,0.1,1,"stim/12.jpeg",1,2,"stim/12.jpeg",2,"right",0.75999999,3,4,1.250999928,1,0.511000156,171,0,0,NA,0,NA,1
"481","stim/objects/Instruments/flutetrans.png",405,39,398,0.9,"stim/14.jpeg",1,4,3,2,"Instruments",2,4,"right","right",0.867000103,1,1,1,0,NA,NA,NA,NA,NA,NA,NA,NA,NA,NA,NA,NA,NA,NA,NA,NA,NA,NA,NA,NA,NA,NA,NA,NA
"545","stim/objects/Instruments/harp.png",406,39,399,0.5,"stim/34.jpeg",3,4,1,1,"Instruments",2,2,"right","left",0.513999939,0,0,1,0,80,39,1,0.5,1,"stim/34.jpeg",3,4,"stim/34.jpeg",2,"left",0.85800004,3,1,1.600000143,3,1.406000137,80,1,0,0,0,0,1
"362","stim/objects/HouseObjects/glass.png",407,39,400,0.9,"stim/22.jpeg",2,2,3,2,"HouseObjects",1,3,"left","left",0.617000103,1,1,1,0,NA,NA,NA,NA,NA,NA,NA,NA,NA,NA,NA,NA,NA,NA,NA,NA,NA,NA,NA,NA,NA,NA,NA,NA
"501","stim/objects/Instruments/frenchhorn.png",408,39,401,0.9,"stim/14.jpeg",1,4,3,2,"Instruments",2,1,"right","right",0.733999968,1,1,1,0,NA,NA,NA,NA,NA,NA,NA,NA,NA,NA,NA,NA,NA,NA,NA,NA,NA,NA,NA,NA,NA,NA,NA,NA
"454","stim/objects/Instruments/electricguitar.png",409,39,402,0.7,"stim/53.jpeg",5,3,2,2,"Instruments",2,4,"right","left",0.618999958,0,0,1,0,NA,NA,NA,NA,NA,NA,NA,NA,NA,NA,NA,NA,NA,NA,NA,NA,NA,NA,NA,NA,NA,NA,NA,NA
"376","stim/objects/HouseObjects/glassmop.png",410,39,403,0.5,"stim/33.jpeg",3,3,1,1,"HouseObjects",1,1,"left","left",0.5849998,1,1,1,0,135,39,1,0.5,1,"stim/33.jpeg",3,3,"stim/33.jpeg",1,"right",1.269000053,3,2,1.07799983,3,1.082999945,135,0,0,NA,0,NA,1
"451","stim/objects/Instruments/electricdrumset2.png",411,39,404,0.3,"stim/62.jpeg",6,2,2,1,"Instruments",2,4,"right","right",0.697000027,1,1,1,0,6,39,1,0.3,2,"stim/62.jpeg",6,2,"stim/62.jpeg",4,"left",1.750999928,4,2,3.015000105,4,1.381999969,6,1,1,1,1,1,1
"560","stim/objects/Instruments/musicsheet2.png",412,39,405,0.1,"stim/23.jpeg",2,3,3,1,"Instruments",2,4,"right","left",0.542999983,0,0,1,0,36,39,1,0.1,2,"stim/23.jpeg",2,3,"stim/23.jpeg",4,"right",1.246999979,4,1,1.02699995,1,0.856000185,36,0,0,NA,0,NA,1
"378","stim/objects/HouseObjects/hairdryer.png",413,39,406,0.5,"stim/34.jpeg",3,4,1,1,"HouseObjects",1,3,"left","left",0.733999968,1,1,1,0,191,39,1,0.5,1,"stim/34.jpeg",3,4,"stim/34.jpeg",3,"right",0.963999987,1,3,2.260999918,3,1.608999968,191,0,0,NA,1,NA,1
"534","stim/objects/Instruments/grandpiano.png",414,39,407,0.9,"stim/13.jpeg",1,3,3,2,"Instruments",2,4,"right","right",0.694999933,1,1,1,0,NA,NA,NA,NA,NA,NA,NA,NA,NA,NA,NA,NA,NA,NA,NA,NA,NA,NA,NA,NA,NA,NA,NA,NA
"489","stim/objects/Instruments/flutetrans2.png",415,39,408,0.9,"stim/14.jpeg",1,4,3,1,"Instruments",2,4,"right","right",0.539000034,1,1,1,0,82,39,1,0.9,2,"stim/14.jpeg",1,4,"stim/14.jpeg",4,"left",2.008999825,4,4,2.63499999,4,1.092000008,82,1,1,1,1,1,1
"338","stim/objects/HouseObjects/flyswatter.png",416,39,409,0.9,"stim/23.jpeg",2,3,3,2,"HouseObjects",1,4,"left","left",0.502000093,1,1,1,0,NA,NA,NA,NA,NA,NA,NA,NA,NA,NA,NA,NA,NA,NA,NA,NA,NA,NA,NA,NA,NA,NA,NA,NA
"502","stim/objects/Instruments/frenchhorn.png",417,39,410,0.9,"stim/12.jpeg",1,2,3,2,"Instruments",2,3,"right","right",0.486999989,1,1,1,0,NA,NA,NA,NA,NA,NA,NA,NA,NA,NA,NA,NA,NA,NA,NA,NA,NA,NA,NA,NA,NA,NA,NA,NA
"519","stim/objects/Instruments/gong.png",418,39,411,0.9,"stim/12.jpeg",1,2,3,2,"Instruments",2,1,"right","right",0.484999895,1,1,1,0,NA,NA,NA,NA,NA,NA,NA,NA,NA,NA,NA,NA,NA,NA,NA,NA,NA,NA,NA,NA,NA,NA,NA,NA
"423","stim/objects/Instruments/bassguitar2.png",419,39,412,0.3,"stim/62.jpeg",6,2,2,1,"Instruments",2,3,"right","left",0.521000147,0,0,1,0,181,39,1,0.3,2,"stim/62.jpeg",6,2,"stim/62.jpeg",3,"right",1.292999983,3,2,1.277000189,2,0.709000111,181,0,1,NA,0,NA,1
"503","stim/objects/Instruments/frenchhorn.png",420,39,413,0.9,"stim/12.jpeg",1,2,3,2,"Instruments",2,2,"right","right",0.507000208,1,1,1,0,NA,NA,NA,NA,NA,NA,NA,NA,NA,NA,NA,NA,NA,NA,NA,NA,NA,NA,NA,NA,NA,NA,NA,NA
"395","stim/objects/HouseObjects/match2.png",421,39,414,0.9,"stim/21.jpeg",2,1,3,1,"HouseObjects",1,2,"left","left",0.687000036,1,1,1,0,53,39,1,0.9,1,"stim/21.jpeg",2,1,"stim/21.jpeg",2,"right",0.78399992,4,4,0.976999998,3,1.50999999,53,0,0,NA,0,NA,1
"331","stim/objects/HouseObjects/flyswatter.png",422,39,415,0.9,"stim/21.jpeg",2,1,3,2,"HouseObjects",1,3,"left","right",0.535000086,0,0,1,0,NA,NA,NA,NA,NA,NA,NA,NA,NA,NA,NA,NA,NA,NA,NA,NA,NA,NA,NA,NA,NA,NA,NA,NA
"312","stim/objects/HouseObjects/dustpan.png",423,39,416,0.9,"stim/24.jpeg",2,4,3,2,"HouseObjects",1,4,"left","left",0.526000023,1,1,1,0,NA,NA,NA,NA,NA,NA,NA,NA,NA,NA,NA,NA,NA,NA,NA,NA,NA,NA,NA,NA,NA,NA,NA,NA
"429","stim/objects/Instruments/chime2.png",424,39,417,0.3,"stim/64.jpeg",6,4,2,1,"Instruments",2,1,"right","right",0.552999973,1,1,1,0,86,39,1,0.3,2,"stim/64.jpeg",6,4,"stim/64.jpeg",1,"left",1.90199995,4,1,1.81400013,1,1.252000093,86,1,0,0,1,1,1
"478","stim/objects/Instruments/flutetrans.png",425,39,418,0.9,"stim/12.jpeg",1,2,3,2,"Instruments",2,4,"right","left",0.467999935,0,0,1,0,NA,NA,NA,NA,NA,NA,NA,NA,NA,NA,NA,NA,NA,NA,NA,NA,NA,NA,NA,NA,NA,NA,NA,NA
"483","stim/objects/Instruments/flutetrans.png",426,39,419,0.9,"stim/12.jpeg",1,2,3,2,"Instruments",2,3,"right","right",0.722000122,1,1,1,0,NA,NA,NA,NA,NA,NA,NA,NA,NA,NA,NA,NA,NA,NA,NA,NA,NA,NA,NA,NA,NA,NA,NA,NA
"268","stim/objects/HouseObjects/clock.png",427,39,420,0.5,"stim/44.jpeg",4,4,1,2,"HouseObjects",1,1,"left","left",0.510999918,1,1,1,0,NA,NA,NA,NA,NA,NA,NA,NA,NA,NA,NA,NA,NA,NA,NA,NA,NA,NA,NA,NA,NA,NA,NA,NA
"344","stim/objects/HouseObjects/garbagebin.png",428,39,421,0.9,"stim/21.jpeg",2,1,3,2,"HouseObjects",1,1,"left","",NA,0,0,1,0,NA,NA,NA,NA,NA,NA,NA,NA,NA,NA,NA,NA,NA,NA,NA,NA,NA,NA,NA,NA,NA,NA,NA,NA
"339","stim/objects/HouseObjects/flyswatter.png",429,39,422,0.9,"stim/21.jpeg",2,1,3,2,"HouseObjects",1,1,"left","left",0.663000107,1,1,1,0,NA,NA,NA,NA,NA,NA,NA,NA,NA,NA,NA,NA,NA,NA,NA,NA,NA,NA,NA,NA,NA,NA,NA,NA
"379","stim/objects/HouseObjects/hairdryer2.png",430,39,423,0.1,"stim/13.jpeg",1,3,3,1,"HouseObjects",1,4,"left","right",0.532000065,0,0,1,0,46,39,1,0.1,1,"stim/13.jpeg",1,3,"stim/13.jpeg",4,"left",1.263000011,3,3,1.414999962,2,2.806999922,46,1,1,1,0,0,1
"372","stim/objects/HouseObjects/glass.png",431,39,424,0.9,"stim/24.jpeg",2,4,3,2,"HouseObjects",1,4,"left","left",0.695000172,1,1,1,0,NA,NA,NA,NA,NA,NA,NA,NA,NA,NA,NA,NA,NA,NA,NA,NA,NA,NA,NA,NA,NA,NA,NA,NA
"434","stim/objects/Instruments/cornet.png",432,39,425,0.5,"stim/43.jpeg",4,3,1,2,"Instruments",2,4,"right","left",0.669999838,0,0,1,0,NA,NA,NA,NA,NA,NA,NA,NA,NA,NA,NA,NA,NA,NA,NA,NA,NA,NA,NA,NA,NA,NA,NA,NA
"520","stim/objects/Instruments/gong.png",433,39,426,0.9,"stim/13.jpeg",1,3,3,2,"Instruments",2,2,"right","right",0.707999945,1,1,1,0,NA,NA,NA,NA,NA,NA,NA,NA,NA,NA,NA,NA,NA,NA,NA,NA,NA,NA,NA,NA,NA,NA,NA,NA
"445","stim/objects/Instruments/drums.png",434,39,427,0.7,"stim/53.jpeg",5,3,2,2,"Instruments",2,2,"right","left",0.625999928,0,0,1,0,NA,NA,NA,NA,NA,NA,NA,NA,NA,NA,NA,NA,NA,NA,NA,NA,NA,NA,NA,NA,NA,NA,NA,NA
"441","stim/objects/Instruments/doublebass.png",435,39,428,0.7,"stim/52.jpeg",5,2,2,2,"Instruments",2,2,"right","left",0.522000074,0,0,1,0,NA,NA,NA,NA,NA,NA,NA,NA,NA,NA,NA,NA,NA,NA,NA,NA,NA,NA,NA,NA,NA,NA,NA,NA
"274","stim/objects/HouseObjects/clothesdryingrack2.png",436,39,429,0.7,"stim/61.jpeg",6,1,2,1,"HouseObjects",1,4,"left","left",0.729000092,1,1,1,0,169,39,1,0.7,1,"stim/61.jpeg",6,1,"stim/61.jpeg",4,"left",1.396000147,3,2,1.302000046,3,1.378000021,169,1,0,0,0,0,1
"533","stim/objects/Instruments/grandpiano.png",437,39,430,0.9,"stim/11.jpeg",1,1,3,2,"Instruments",2,3,"right","right",0.751999855,1,1,1,0,NA,NA,NA,NA,NA,NA,NA,NA,NA,NA,NA,NA,NA,NA,NA,NA,NA,NA,NA,NA,NA,NA,NA,NA
"431","stim/objects/Instruments/clarinet.png",438,39,431,0.5,"stim/41.jpeg",4,1,1,2,"Instruments",2,4,"right","left",0.602999926,0,0,1,0,NA,NA,NA,NA,NA,NA,NA,NA,NA,NA,NA,NA,NA,NA,NA,NA,NA,NA,NA,NA,NA,NA,NA,NA
"415","stim/objects/Instruments/banjo.png",439,39,432,0.5,"stim/33.jpeg",3,3,1,2,"Instruments",2,2,"right","left",0.56799984,0,0,1,0,NA,NA,NA,NA,NA,NA,NA,NA,NA,NA,NA,NA,NA,NA,NA,NA,NA,NA,NA,NA,NA,NA,NA,NA
"282","stim/objects/HouseObjects/coffee2.png",440,39,433,0.7,"stim/63.jpeg",6,3,2,1,"HouseObjects",1,1,"left","left",0.664000034,1,1,1,0,117,39,1,0.7,1,"stim/63.jpeg",6,3,"stim/63.jpeg",1,"right",1.241999865,3,2,1.292000055,3,1.28399992,117,0,0,NA,0,NA,1
"420","stim/objects/Instruments/bassdrum2.png",441,39,434,0.7,"stim/53.jpeg",5,3,2,1,"Instruments",2,2,"right","left",0.599999905,0,0,1,0,5,39,1,0.7,2,"stim/53.jpeg",5,3,"stim/53.jpeg",2,"right",1.644999981,2,4,1.816999912,1,2.352999926,5,0,0,NA,0,NA,1
"536","stim/objects/Instruments/grandpiano.png",442,39,435,0.9,"stim/12.jpeg",1,2,3,2,"Instruments",2,4,"right","right",0.694999933,1,1,1,0,NA,NA,NA,NA,NA,NA,NA,NA,NA,NA,NA,NA,NA,NA,NA,NA,NA,NA,NA,NA,NA,NA,NA,NA
"373","stim/objects/HouseObjects/glass.png",443,39,436,0.9,"stim/22.jpeg",2,2,3,2,"HouseObjects",1,3,"left","left",0.534999847,1,1,1,0,NA,NA,NA,NA,NA,NA,NA,NA,NA,NA,NA,NA,NA,NA,NA,NA,NA,NA,NA,NA,NA,NA,NA,NA
"407","stim/objects/Instruments/accordion.png",444,39,437,0.5,"stim/34.jpeg",3,4,1,2,"Instruments",2,1,"right","left",0.684999943,0,0,1,0,NA,NA,NA,NA,NA,NA,NA,NA,NA,NA,NA,NA,NA,NA,NA,NA,NA,NA,NA,NA,NA,NA,NA,NA
"570","stim/objects/Instruments/record2.png",445,39,438,0.1,"stim/24.jpeg",2,4,3,1,"Instruments",2,3,"right","left",0.517000198,0,0,1,0,11,39,1,0.1,2,"stim/24.jpeg",2,4,"stim/24.jpeg",3,"right",1.190999985,4,4,1.538000107,3,3.723999977,11,0,1,NA,1,NA,1
"267","stim/objects/HouseObjects/bucket2.png",446,39,439,0.7,"stim/63.jpeg",6,3,2,1,"HouseObjects",1,4,"left","left",0.652999878,1,1,1,0,184,39,1,0.7,1,"stim/63.jpeg",6,3,"stim/63.jpeg",4,"right",1.093999863,3,3,1.059999943,4,1.078000069,184,0,1,NA,1,NA,1
"346","stim/objects/HouseObjects/garbagebin.png",447,39,440,0.9,"stim/24.jpeg",2,4,3,2,"HouseObjects",1,3,"left","left",0.637000084,1,1,1,0,NA,NA,NA,NA,NA,NA,NA,NA,NA,NA,NA,NA,NA,NA,NA,NA,NA,NA,NA,NA,NA,NA,NA,NA
"527","stim/objects/Instruments/grandpiano.png",448,39,441,0.9,"stim/14.jpeg",1,4,3,2,"Instruments",2,2,"right","right",0.669999838,1,1,1,0,NA,NA,NA,NA,NA,NA,NA,NA,NA,NA,NA,NA,NA,NA,NA,NA,NA,NA,NA,NA,NA,NA,NA,NA
"542","stim/objects/Instruments/guitarcase2.png",449,39,442,0.9,"stim/14.jpeg",1,4,3,1,"Instruments",2,4,"right","right",0.601999998,1,1,1,0,172,39,1,0.9,2,"stim/14.jpeg",1,4,"stim/14.jpeg",4,"right",1.269000053,3,1,1.082000017,1,0.662000179,172,0,0,NA,0,NA,1
"554","stim/objects/Instruments/maraca2.png",450,39,443,0.1,"stim/24.jpeg",2,4,3,1,"Instruments",2,4,"right","left",0.55099988,0,0,1,0,119,39,1,0.1,2,"stim/24.jpeg",2,4,"stim/24.jpeg",4,"right",0.976000071,3,3,1.17599988,2,1.728000164,119,0,0,NA,0,NA,1
"514","stim/objects/Instruments/gong.png",451,39,444,0.9,"stim/11.jpeg",1,1,3,2,"Instruments",2,4,"right","right",0.491999865,1,1,1,0,NA,NA,NA,NA,NA,NA,NA,NA,NA,NA,NA,NA,NA,NA,NA,NA,NA,NA,NA,NA,NA,NA,NA,NA
"369","stim/objects/HouseObjects/glass.png",452,39,445,0.9,"stim/21.jpeg",2,1,3,2,"HouseObjects",1,1,"left","left",0.444000006,1,1,1,0,NA,NA,NA,NA,NA,NA,NA,NA,NA,NA,NA,NA,NA,NA,NA,NA,NA,NA,NA,NA,NA,NA,NA,NA
"511","stim/objects/Instruments/gong.png",453,39,446,0.9,"stim/13.jpeg",1,3,3,2,"Instruments",2,2,"right","right",0.643000126,1,1,1,0,NA,NA,NA,NA,NA,NA,NA,NA,NA,NA,NA,NA,NA,NA,NA,NA,NA,NA,NA,NA,NA,NA,NA,NA
"468","stim/objects/Instruments/flute.png",454,39,447,0.9,"stim/11.jpeg",1,1,3,2,"Instruments",2,1,"right","right",0.542999983,1,1,1,0,NA,NA,NA,NA,NA,NA,NA,NA,NA,NA,NA,NA,NA,NA,NA,NA,NA,NA,NA,NA,NA,NA,NA,NA
"553","stim/objects/Instruments/maraca.png",455,39,448,0.5,"stim/41.jpeg",4,1,1,1,"Instruments",2,3,"right","left",0.473999977,0,0,1,0,106,39,1,0.5,2,"stim/41.jpeg",4,1,"stim/41.jpeg",3,"right",0.392000198,4,4,0.84100008,1,0.817000151,106,0,0,NA,0,NA,1
"568","stim/objects/Instruments/pipepiano2.png",456,39,449,0.1,"stim/23.jpeg",2,3,3,1,"Instruments",2,3,"right","left",0.516000032,0,0,1,0,97,39,1,0.1,2,"stim/23.jpeg",2,3,"stim/23.jpeg",3,"right",1.121000051,1,1,0.651000023,2,1.33100009,97,0,0,NA,0,NA,1
"355","stim/objects/HouseObjects/garbagebin.png",457,39,450,0.9,"stim/22.jpeg",2,2,3,2,"HouseObjects",1,1,"left","left",0.81099987,1,1,1,0,NA,NA,NA,NA,NA,NA,NA,NA,NA,NA,NA,NA,NA,NA,NA,NA,NA,NA,NA,NA,NA,NA,NA,NA
"469","stim/objects/Instruments/flute.png",458,39,451,0.9,"stim/11.jpeg",1,1,3,2,"Instruments",2,2,"right","right",0.878000021,1,1,1,0,NA,NA,NA,NA,NA,NA,NA,NA,NA,NA,NA,NA,NA,NA,NA,NA,NA,NA,NA,NA,NA,NA,NA,NA
"318","stim/objects/HouseObjects/dustpan.png",459,39,452,0.9,"stim/22.jpeg",2,2,3,2,"HouseObjects",1,1,"left","left",0.564999819,1,1,1,0,NA,NA,NA,NA,NA,NA,NA,NA,NA,NA,NA,NA,NA,NA,NA,NA,NA,NA,NA,NA,NA,NA,NA,NA
"450","stim/objects/Instruments/electricdrumset.png",460,39,453,0.7,"stim/53.jpeg",5,3,2,2,"Instruments",2,2,"right","left",0.555000067,0,0,1,0,NA,NA,NA,NA,NA,NA,NA,NA,NA,NA,NA,NA,NA,NA,NA,NA,NA,NA,NA,NA,NA,NA,NA,NA
"386","stim/objects/HouseObjects/ironingboard.png",461,39,454,0.5,"stim/41.jpeg",4,1,1,1,"HouseObjects",1,3,"left","left",0.437999964,1,1,1,0,8,39,1,0.5,2,"stim/41.jpeg",4,1,"stim/41.jpeg",3,"right",1.131999969,3,2,1.480000019,4,3.046000004,8,0,0,NA,0,NA,1
"304","stim/objects/HouseObjects/doormat.png",462,39,455,0.9,"stim/24.jpeg",2,4,3,2,"HouseObjects",1,3,"left","left",0.661999941,1,1,1,0,NA,NA,NA,NA,NA,NA,NA,NA,NA,NA,NA,NA,NA,NA,NA,NA,NA,NA,NA,NA,NA,NA,NA,NA
"467","stim/objects/Instruments/flute.png",463,39,456,0.9,"stim/13.jpeg",1,3,3,2,"Instruments",2,2,"right","right",0.624000072,1,1,1,0,NA,NA,NA,NA,NA,NA,NA,NA,NA,NA,NA,NA,NA,NA,NA,NA,NA,NA,NA,NA,NA,NA,NA,NA
"436","stim/objects/Instruments/cymbal.png",464,39,457,0.7,"stim/54.jpeg",5,4,2,2,"Instruments",2,3,"right","left",0.588999987,0,0,1,0,NA,NA,NA,NA,NA,NA,NA,NA,NA,NA,NA,NA,NA,NA,NA,NA,NA,NA,NA,NA,NA,NA,NA,NA
"258","stim/objects/HouseObjects/blender2.png",465,39,458,0.7,"stim/64.jpeg",6,4,2,1,"HouseObjects",1,2,"left","left",0.779999971,1,1,1,0,3,39,1,0.7,1,"stim/64.jpeg",6,4,"stim/64.jpeg",2,"left",2.425000191,4,1,2.885000229,2,2.928999901,3,1,0,0,1,1,1
"399","stim/objects/HouseObjects/pitcher2.png",466,39,459,0.9,"stim/23.jpeg",2,3,3,1,"HouseObjects",1,2,"left","left",0.539999962,1,1,1,0,64,39,1,0.9,1,"stim/23.jpeg",2,3,"stim/23.jpeg",2,"right",0.996999979,4,2,1.242000103,3,1.10800004,64,0,0,NA,0,NA,1
"565","stim/objects/Instruments/panflute.png",467,39,460,0.7,"stim/54.jpeg",5,4,2,1,"Instruments",2,4,"right","left",0.618999958,0,0,1,0,187,39,1,0.7,2,"stim/54.jpeg",5,4,"stim/54.jpeg",4,"left",1.157000065,4,1,1.52699995,4,2.147000074,187,1,0,0,1,1,1
"320","stim/objects/HouseObjects/dustpan.png",468,39,461,0.9,"stim/24.jpeg",2,4,3,2,"HouseObjects",1,1,"left","left",0.55099988,1,1,1,0,NA,NA,NA,NA,NA,NA,NA,NA,NA,NA,NA,NA,NA,NA,NA,NA,NA,NA,NA,NA,NA,NA,NA,NA
