"","participant","trial_index","trial_cond","scn_file","scn_cat","scn_inst","scn_condition","fillers","obj_cat","obj_cat_num","obj_file","quadrant","corr_ans","key_resp_trial.keys","key_resp_trial.rt","trial_acc","trial_acc_manual","group"
"1",32,1,0.3,"stim/21.jpeg",2,1,2,NA,"Instruments",2,"stim/objects/Instruments/keyboard2.png",4,"right","",NA,0,0,1
"2",32,2,0.5,"stim/51.jpeg",5,1,1,NA,"HouseObjects",1,"stim/objects/HouseObjects/iron.png",1,"left","left",0.546999931,1,1,1
"3",32,3,0.3,"stim/14.jpeg",1,4,2,NA,"HouseObjects",1,"stim/objects/HouseObjects/rug.png",2,"left","left",0.529000044,1,1,1
"4",32,4,0.3,"stim/23.jpeg",2,3,2,NA,"Instruments",2,"stim/objects/Instruments/maraca2.png",2,"right","right",0.438999891,1,1,1
"5",32,5,0.9,"stim/32.jpeg",3,2,3,NA,"Instruments",2,"stim/objects/Instruments/musicsheet2.png",4,"right","right",0.628999949,1,1,1
"6",32,6,0.9,"stim/33.jpeg",3,3,3,NA,"Instruments",2,"stim/objects/Instruments/musicstand2.png",2,"right","left",0.638000011,0,0,1
"7",32,7,0.9,"stim/32.jpeg",3,2,3,NA,"Instruments",2,"stim/objects/Instruments/musicsheet2.png",4,"right","right",0.47300005,1,1,1
"8",32,8,0.9,"stim/33.jpeg",3,3,3,NA,"Instruments",2,"stim/objects/Instruments/musicstand2.png",4,"right","right",0.502999783,1,1,1
"9",32,9,0.5,"stim/54.jpeg",5,4,1,NA,"HouseObjects",1,"stim/objects/HouseObjects/knife.png",1,"left","left",0.613999844,1,1,1
"10",32,10,0.7,"stim/11.jpeg",1,1,2,NA,"Instruments",2,"stim/objects/Instruments/panflute.png",1,"right","left",0.625,0,0,1
"11",32,11,0.9,"stim/42.jpeg",4,2,3,NA,"HouseObjects",1,"stim/objects/HouseObjects/remote2.png",1,"left","left",0.676999807,1,1,1
"12",32,12,0.5,"stim/53.jpeg",5,3,1,NA,"Instruments",2,"stim/objects/Instruments/maraca.png",2,"right","left",0.792999983,0,0,1
"13",32,13,0.7,"stim/13.jpeg",1,3,2,NA,"Instruments",2,"stim/objects/Instruments/record.png",4,"right","",NA,0,0,1
"14",32,14,0.5,"stim/63.jpeg",6,3,1,NA,"Instruments",2,"stim/objects/Instruments/musicstand.png",4,"right","right",0.928999901,1,1,1
"15",32,15,0.3,"stim/14.jpeg",1,4,2,NA,"HouseObjects",1,"stim/objects/HouseObjects/rug.png",3,"left","left",0.542000055,1,1,1
"16",32,16,0.9,"stim/33.jpeg",3,3,3,NA,"Instruments",2,"stim/objects/Instruments/musicstand2.png",2,"right","right",0.44900012,1,1,1
"17",32,17,0.5,"stim/52.jpeg",5,2,1,NA,"HouseObjects",1,"stim/objects/HouseObjects/ironingboard.png",3,"left","left",0.59800005,1,1,1
"18",32,18,0.5,"stim/52.jpeg",5,2,1,NA,"HouseObjects",1,"stim/objects/HouseObjects/ironingboard.png",1,"left","left",0.624000072,1,1,1
"19",32,19,0.5,"stim/52.jpeg",5,2,1,NA,"HouseObjects",1,"stim/objects/HouseObjects/ironingboard.png",2,"left","left",0.470000029,1,1,1
"20",32,20,0.5,"stim/53.jpeg",5,3,1,NA,"Instruments",2,"stim/objects/Instruments/maraca.png",2,"right","left",0.638999939,0,0,1
"21",32,21,0.5,"stim/62.jpeg",6,2,1,NA,"HouseObjects",1,"stim/objects/HouseObjects/match.png",3,"left","left",0.736000061,1,1,1
"22",32,22,0.5,"stim/63.jpeg",6,3,1,NA,"HouseObjects",1,"stim/objects/HouseObjects/pan.png",4,"left","right",0.529999971,0,0,1
"23",32,23,0.9,"stim/32.jpeg",3,2,3,NA,"Instruments",2,"stim/objects/Instruments/musicsheet2.png",4,"right","right",0.617999792,1,1,1
"24",32,24,0.5,"stim/62.jpeg",6,2,1,NA,"HouseObjects",1,"stim/objects/HouseObjects/match.png",3,"left","",NA,0,0,1
"25",32,25,0.5,"stim/63.jpeg",6,3,1,NA,"HouseObjects",1,"stim/objects/HouseObjects/pan.png",3,"left","right",0.896000147,0,0,1
"26",32,26,0.9,"stim/41.jpeg",4,1,3,NA,"HouseObjects",1,"stim/objects/HouseObjects/recyclingbin2.png",1,"left","left",0.551000118,1,1,1
"27",32,27,0.5,"stim/62.jpeg",6,2,1,NA,"Instruments",2,"stim/objects/Instruments/musicsheet.png",1,"right","left",0.638999939,0,0,1
"28",32,28,0.7,"stim/12.jpeg",1,2,2,NA,"Instruments",2,"stim/objects/Instruments/pipepiano.png",1,"right","left",0.63499999,0,0,1
"29",32,29,0.5,"stim/53.jpeg",5,3,1,NA,"Instruments",2,"stim/objects/Instruments/maraca.png",4,"right","left",0.607000113,0,0,1
"30",32,30,0.5,"stim/52.jpeg",5,2,1,NA,"HouseObjects",1,"stim/objects/HouseObjects/ironingboard.png",2,"left","left",0.56099987,1,1,1
"31",32,31,0.7,"stim/14.jpeg",1,4,2,NA,"Instruments",2,"stim/objects/Instruments/record_player.png",1,"right","right",0.52699995,1,1,1
"32",32,32,0.9,"stim/32.jpeg",3,2,3,NA,"Instruments",2,"stim/objects/Instruments/musicsheet2.png",4,"right","right",0.505000114,1,1,1
"33",32,33,0.5,"stim/51.jpeg",5,1,1,NA,"HouseObjects",1,"stim/objects/HouseObjects/iron.png",2,"left","",NA,0,0,1
"34",32,34,0.5,"stim/63.jpeg",6,3,1,NA,"HouseObjects",1,"stim/objects/HouseObjects/pan.png",1,"left","left",0.649999857,1,1,1
"35",32,35,0.5,"stim/53.jpeg",5,3,1,NA,"HouseObjects",1,"stim/objects/HouseObjects/key.png",2,"left","left",0.552000046,1,1,1
"36",32,36,0.9,"stim/33.jpeg",3,3,3,NA,"Instruments",2,"stim/objects/Instruments/musicstand2.png",1,"right","right",0.470000029,1,1,1
"37",32,37,0.5,"stim/53.jpeg",5,3,1,NA,"HouseObjects",1,"stim/objects/HouseObjects/key.png",4,"left","left",0.825000048,1,1,1
"38",32,38,0.5,"stim/54.jpeg",5,4,1,NA,"Instruments",2,"stim/objects/Instruments/marimba.png",2,"right","left",0.661000013,0,0,1
"39",32,39,0.7,"stim/22.jpeg",2,2,2,NA,"HouseObjects",1,"stim/objects/HouseObjects/ironingboard2.png",3,"left","left",0.65899992,1,1,1
"40",32,40,0.5,"stim/61.jpeg",6,1,1,NA,"Instruments",2,"stim/objects/Instruments/metronome.png",3,"right","right",0.682999849,1,1,1
"41",32,41,0.3,"stim/12.jpeg",1,2,2,NA,"HouseObjects",1,"stim/objects/HouseObjects/remote.png",2,"left","right",0.753000021,0,0,1
"42",32,42,0.7,"stim/11.jpeg",1,1,2,NA,"Instruments",2,"stim/objects/Instruments/panflute.png",1,"right","left",0.589999914,0,0,1
"43",32,43,0.7,"stim/23.jpeg",2,3,2,NA,"HouseObjects",1,"stim/objects/HouseObjects/key2.png",2,"left","left",0.611000061,1,1,1
"44",32,44,0.1,"stim/41.jpeg",4,1,3,NA,"Instruments",2,"stim/objects/Instruments/panflute2.png",1,"right","left",0.651000023,0,0,1
"45",32,45,0.5,"stim/63.jpeg",6,3,1,NA,"Instruments",2,"stim/objects/Instruments/musicstand.png",3,"right","",NA,0,0,1
"46",32,46,0.7,"stim/24.jpeg",2,4,2,NA,"HouseObjects",1,"stim/objects/HouseObjects/knife2.png",4,"left","left",0.595999956,1,1,1
"47",32,47,0.5,"stim/51.jpeg",5,1,1,NA,"Instruments",2,"stim/objects/Instruments/keyboard.png",1,"right","left",0.592000008,0,0,1
"48",32,48,0.9,"stim/44.jpeg",4,4,3,NA,"HouseObjects",1,"stim/objects/HouseObjects/rug2.png",4,"left","left",0.678999901,1,1,1
"49",32,49,0.7,"stim/24.jpeg",2,4,2,NA,"HouseObjects",1,"stim/objects/HouseObjects/knife2.png",3,"left","left",0.540999889,1,1,1
"50",32,50,0.9,"stim/41.jpeg",4,1,3,NA,"HouseObjects",1,"stim/objects/HouseObjects/recyclingbin2.png",3,"left","left",0.552999973,1,1,1
"51",32,51,0.7,"stim/23.jpeg",2,3,2,NA,"HouseObjects",1,"stim/objects/HouseObjects/key2.png",1,"left","left",0.453999996,1,1,1
"52",32,52,0.5,"stim/54.jpeg",5,4,1,NA,"Instruments",2,"stim/objects/Instruments/marimba.png",3,"right","left",0.585000038,0,0,1
"53",32,53,0.5,"stim/64.jpeg",6,4,1,NA,"Instruments",2,"stim/objects/Instruments/oboe.png",1,"right","right",0.848999977,1,1,1
"54",32,54,0.3,"stim/24.jpeg",2,4,2,NA,"Instruments",2,"stim/objects/Instruments/marimba2.png",2,"right","left",0.541999817,0,0,1
"55",32,55,0.5,"stim/54.jpeg",5,4,1,NA,"Instruments",2,"stim/objects/Instruments/marimba.png",4,"right","left",0.614000082,0,0,1
"56",32,56,0.5,"stim/64.jpeg",6,4,1,NA,"HouseObjects",1,"stim/objects/HouseObjects/pitcher.png",3,"left","right",0.549000025,0,0,1
"57",32,57,0.7,"stim/22.jpeg",2,2,2,NA,"HouseObjects",1,"stim/objects/HouseObjects/ironingboard2.png",1,"left","left",0.479000092,1,1,1
"58",32,58,0.3,"stim/11.jpeg",1,1,2,NA,"HouseObjects",1,"stim/objects/HouseObjects/recyclingbin.png",2,"left","left",0.596999884,1,1,1
"59",32,59,0.7,"stim/11.jpeg",1,1,2,NA,"Instruments",2,"stim/objects/Instruments/panflute.png",2,"right","left",0.639000177,0,0,1
"60",32,60,0.7,"stim/14.jpeg",1,4,2,NA,"Instruments",2,"stim/objects/Instruments/record_player.png",3,"right","left",0.683000088,0,0,1
"61",32,61,0.5,"stim/51.jpeg",5,1,1,NA,"Instruments",2,"stim/objects/Instruments/keyboard.png",1,"right","",NA,0,0,1
"62",32,62,0.9,"stim/31.jpeg",3,1,3,NA,"Instruments",2,"stim/objects/Instruments/metronome2.png",3,"right","right",0.549999952,1,1,1
"63",32,63,0.5,"stim/61.jpeg",6,1,1,NA,"HouseObjects",1,"stim/objects/HouseObjects/lintroller.png",2,"left","right",0.44900012,0,0,1
"64",32,64,0.7,"stim/22.jpeg",2,2,2,NA,"HouseObjects",1,"stim/objects/HouseObjects/ironingboard2.png",3,"left","left",0.528999805,1,1,1
"65",32,65,0.7,"stim/24.jpeg",2,4,2,NA,"HouseObjects",1,"stim/objects/HouseObjects/knife2.png",4,"left","left",0.368999958,1,1,1
"66",32,66,0.3,"stim/23.jpeg",2,3,2,NA,"Instruments",2,"stim/objects/Instruments/maraca2.png",1,"right","left",0.421000004,0,0,1
"67",32,67,0.5,"stim/62.jpeg",6,2,1,NA,"Instruments",2,"stim/objects/Instruments/musicsheet.png",4,"right","left",0.732000113,0,0,1
"68",32,68,0.7,"stim/11.jpeg",1,1,2,NA,"Instruments",2,"stim/objects/Instruments/panflute.png",3,"right","right",0.945999861,1,1,1
"69",32,69,0.9,"stim/41.jpeg",4,1,3,NA,"HouseObjects",1,"stim/objects/HouseObjects/recyclingbin2.png",1,"left","left",0.570999861,1,1,1
"70",32,70,0.9,"stim/34.jpeg",3,4,3,NA,"Instruments",2,"stim/objects/Instruments/oboe2.png",2,"right","right",0.538000107,1,1,1
"71",32,71,0.5,"stim/64.jpeg",6,4,1,NA,"HouseObjects",1,"stim/objects/HouseObjects/pitcher.png",3,"left","right",0.620999813,0,0,1
"72",32,72,0.7,"stim/14.jpeg",1,4,2,NA,"Instruments",2,"stim/objects/Instruments/record_player.png",4,"right","left",0.763000011,0,0,1
"73",32,73,0.5,"stim/53.jpeg",5,3,1,NA,"HouseObjects",1,"stim/objects/HouseObjects/key.png",4,"left","left",0.568000078,1,1,1
"74",32,74,0.7,"stim/14.jpeg",1,4,2,NA,"Instruments",2,"stim/objects/Instruments/record_player.png",3,"right","right",0.756000042,1,1,1
"75",32,75,0.1,"stim/33.jpeg",3,3,3,NA,"HouseObjects",1,"stim/objects/HouseObjects/pan2.png",4,"left","right",0.457999945,0,0,1
"76",32,76,0.5,"stim/51.jpeg",5,1,1,NA,"HouseObjects",1,"stim/objects/HouseObjects/iron.png",3,"left","right",0.744999886,0,0,1
"77",32,77,0.7,"stim/21.jpeg",2,1,2,NA,"HouseObjects",1,"stim/objects/HouseObjects/iron2.png",1,"left","left",0.566999912,1,1,1
"78",32,78,0.5,"stim/61.jpeg",6,1,1,NA,"Instruments",2,"stim/objects/Instruments/metronome.png",2,"right","right",0.492000103,1,1,1
"79",32,79,0.9,"stim/31.jpeg",3,1,3,NA,"Instruments",2,"stim/objects/Instruments/metronome2.png",2,"right","right",0.483999968,1,1,1
"80",32,80,0.7,"stim/24.jpeg",2,4,2,NA,"HouseObjects",1,"stim/objects/HouseObjects/knife2.png",3,"left","left",0.417999983,1,1,1
"81",32,81,0.9,"stim/43.jpeg",4,3,3,NA,"HouseObjects",1,"stim/objects/HouseObjects/rubbergloves2.png",2,"left","left",0.545000076,1,1,1
"82",32,82,0.9,"stim/42.jpeg",4,2,3,NA,"HouseObjects",1,"stim/objects/HouseObjects/remote2.png",3,"left","left",0.57799983,1,1,1
"83",32,83,0.9,"stim/34.jpeg",3,4,3,NA,"Instruments",2,"stim/objects/Instruments/oboe2.png",1,"right","right",0.513999939,1,1,1
"84",32,84,0.5,"stim/54.jpeg",5,4,1,NA,"Instruments",2,"stim/objects/Instruments/marimba.png",3,"right","left",0.901000023,0,0,1
"85",32,85,0.7,"stim/12.jpeg",1,2,2,NA,"Instruments",2,"stim/objects/Instruments/pipepiano.png",2,"right","right",0.779999971,1,1,1
"86",32,86,0.9,"stim/44.jpeg",4,4,3,NA,"HouseObjects",1,"stim/objects/HouseObjects/rug2.png",1,"left","left",0.58100009,1,1,1
"87",32,87,0.5,"stim/61.jpeg",6,1,1,NA,"HouseObjects",1,"stim/objects/HouseObjects/lintroller.png",1,"left","right",0.567000151,0,0,1
"88",32,88,0.5,"stim/61.jpeg",6,1,1,NA,"Instruments",2,"stim/objects/Instruments/metronome.png",3,"right","right",0.51699996,1,1,1
"89",32,89,0.9,"stim/42.jpeg",4,2,3,NA,"HouseObjects",1,"stim/objects/HouseObjects/remote2.png",3,"left","left",0.478999853,1,1,1
"90",32,90,0.1,"stim/42.jpeg",4,2,3,NA,"Instruments",2,"stim/objects/Instruments/pipepiano2.png",3,"right","left",0.417000055,0,0,1
"91",32,91,0.9,"stim/31.jpeg",3,1,3,NA,"Instruments",2,"stim/objects/Instruments/metronome2.png",1,"right","right",0.50999999,1,1,1
"92",32,92,0.7,"stim/13.jpeg",1,3,2,NA,"Instruments",2,"stim/objects/Instruments/record.png",2,"right","right",0.753999949,1,1,1
"93",32,93,0.7,"stim/24.jpeg",2,4,2,NA,"HouseObjects",1,"stim/objects/HouseObjects/knife2.png",2,"left","left",0.514999866,1,1,1
"94",32,94,0.3,"stim/13.jpeg",1,3,2,NA,"HouseObjects",1,"stim/objects/HouseObjects/rubbergloves.png",4,"left","right",0.688999891,0,0,1
"95",32,95,0.9,"stim/44.jpeg",4,4,3,NA,"HouseObjects",1,"stim/objects/HouseObjects/rug2.png",2,"left","left",0.496999979,1,1,1
"96",32,96,0.3,"stim/21.jpeg",2,1,2,NA,"Instruments",2,"stim/objects/Instruments/keyboard2.png",2,"right","left",0.555999994,0,0,1
"97",32,97,0.9,"stim/42.jpeg",4,2,3,NA,"HouseObjects",1,"stim/objects/HouseObjects/remote2.png",1,"left","left",0.569000006,1,1,1
"98",32,98,0.3,"stim/24.jpeg",2,4,2,NA,"Instruments",2,"stim/objects/Instruments/marimba2.png",3,"right","left",0.46600008,0,0,1
"99",32,99,0.5,"stim/64.jpeg",6,4,1,NA,"Instruments",2,"stim/objects/Instruments/oboe.png",3,"right","right",0.50999999,1,1,1
"100",32,100,0.7,"stim/11.jpeg",1,1,2,NA,"Instruments",2,"stim/objects/Instruments/panflute.png",3,"right","",NA,0,0,1
"101",32,101,0.9,"stim/32.jpeg",3,2,3,NA,"Instruments",2,"stim/objects/Instruments/musicsheet2.png",1,"right","right",0.532999992,1,1,1
"102",32,102,0.9,"stim/41.jpeg",4,1,3,NA,"HouseObjects",1,"stim/objects/HouseObjects/recyclingbin2.png",1,"left","left",0.498000145,1,1,1
"103",32,103,0.9,"stim/34.jpeg",3,4,3,NA,"Instruments",2,"stim/objects/Instruments/oboe2.png",4,"right","right",0.551000118,1,1,1
"104",32,104,0.5,"stim/64.jpeg",6,4,1,NA,"HouseObjects",1,"stim/objects/HouseObjects/pitcher.png",4,"left","right",0.43599987,0,0,1
"105",32,105,0.5,"stim/64.jpeg",6,4,1,NA,"HouseObjects",1,"stim/objects/HouseObjects/pitcher.png",1,"left","left",0.657999992,1,1,1
"106",32,106,0.7,"stim/23.jpeg",2,3,2,NA,"HouseObjects",1,"stim/objects/HouseObjects/key2.png",1,"left","left",0.520999908,1,1,1
"107",32,107,0.9,"stim/33.jpeg",3,3,3,NA,"Instruments",2,"stim/objects/Instruments/musicstand2.png",2,"right","right",0.450000048,1,1,1
"108",32,108,0.7,"stim/14.jpeg",1,4,2,NA,"Instruments",2,"stim/objects/Instruments/record_player.png",2,"right","right",0.453000069,1,1,1
"109",32,109,0.9,"stim/42.jpeg",4,2,3,NA,"HouseObjects",1,"stim/objects/HouseObjects/remote2.png",4,"left","left",0.857999802,1,1,1
"110",32,110,0.5,"stim/52.jpeg",5,2,1,NA,"Instruments",2,"stim/objects/Instruments/laud.png",3,"right","left",0.579999924,0,0,1
"111",32,111,0.5,"stim/64.jpeg",6,4,1,NA,"HouseObjects",1,"stim/objects/HouseObjects/pitcher.png",4,"left","left",0.773999929,1,1,1
"112",32,112,0.7,"stim/13.jpeg",1,3,2,NA,"Instruments",2,"stim/objects/Instruments/record.png",4,"right","right",0.693000078,1,1,1
"113",32,113,0.5,"stim/51.jpeg",5,1,1,NA,"Instruments",2,"stim/objects/Instruments/keyboard.png",4,"right","right",0.805999994,1,1,1
"114",32,114,0.3,"stim/22.jpeg",2,2,2,NA,"Instruments",2,"stim/objects/Instruments/laud2.png",4,"right","left",0.551999807,0,0,1
"115",32,115,0.7,"stim/23.jpeg",2,3,2,NA,"HouseObjects",1,"stim/objects/HouseObjects/key2.png",3,"left","left",0.471999884,1,1,1
"116",32,116,0.9,"stim/31.jpeg",3,1,3,NA,"Instruments",2,"stim/objects/Instruments/metronome2.png",1,"right","right",0.703000069,1,1,1
"117",32,117,0.3,"stim/13.jpeg",1,3,2,NA,"HouseObjects",1,"stim/objects/HouseObjects/rubbergloves.png",4,"left","left",0.907999992,1,1,1
"118",32,118,0.3,"stim/12.jpeg",1,2,2,NA,"HouseObjects",1,"stim/objects/HouseObjects/remote.png",2,"left","right",0.704999924,0,0,1
"119",32,119,0.9,"stim/42.jpeg",4,2,3,NA,"HouseObjects",1,"stim/objects/HouseObjects/remote2.png",3,"left","left",0.578000069,1,1,1
"120",32,120,0.5,"stim/52.jpeg",5,2,1,NA,"Instruments",2,"stim/objects/Instruments/laud.png",2,"right","left",0.532999992,0,0,1
"121",32,121,0.9,"stim/33.jpeg",3,3,3,NA,"Instruments",2,"stim/objects/Instruments/musicstand2.png",2,"right","right",0.514999866,1,1,1
"122",32,122,0.5,"stim/64.jpeg",6,4,1,NA,"Instruments",2,"stim/objects/Instruments/oboe.png",2,"right","right",0.604999781,1,1,1
"123",32,123,0.7,"stim/22.jpeg",2,2,2,NA,"HouseObjects",1,"stim/objects/HouseObjects/ironingboard2.png",3,"left","left",0.487999916,1,1,1
"124",32,124,0.7,"stim/11.jpeg",1,1,2,NA,"Instruments",2,"stim/objects/Instruments/panflute.png",3,"right","left",0.546999931,0,0,1
"125",32,125,0.9,"stim/42.jpeg",4,2,3,NA,"HouseObjects",1,"stim/objects/HouseObjects/remote2.png",1,"left","left",0.500999928,1,1,1
"126",32,126,0.3,"stim/11.jpeg",1,1,2,NA,"HouseObjects",1,"stim/objects/HouseObjects/recyclingbin.png",1,"left","left",0.679999828,1,1,1
"127",32,127,0.5,"stim/61.jpeg",6,1,1,NA,"HouseObjects",1,"stim/objects/HouseObjects/lintroller.png",4,"left","",NA,0,0,1
"128",32,128,0.3,"stim/12.jpeg",1,2,2,NA,"HouseObjects",1,"stim/objects/HouseObjects/remote.png",1,"left","right",0.750999928,0,0,1
"129",32,129,0.5,"stim/62.jpeg",6,2,1,NA,"HouseObjects",1,"stim/objects/HouseObjects/match.png",1,"left","left",0.624000072,1,1,1
"130",32,130,0.9,"stim/41.jpeg",4,1,3,NA,"HouseObjects",1,"stim/objects/HouseObjects/recyclingbin2.png",1,"left","left",0.416999817,1,1,1
"131",32,131,0.9,"stim/34.jpeg",3,4,3,NA,"Instruments",2,"stim/objects/Instruments/oboe2.png",3,"right","right",0.761999846,1,1,1
"132",32,132,0.7,"stim/23.jpeg",2,3,2,NA,"HouseObjects",1,"stim/objects/HouseObjects/key2.png",4,"left","right",0.644999981,0,0,1
"133",32,133,0.7,"stim/12.jpeg",1,2,2,NA,"Instruments",2,"stim/objects/Instruments/pipepiano.png",1,"right","right",0.771000147,1,1,1
"134",32,134,0.9,"stim/44.jpeg",4,4,3,NA,"HouseObjects",1,"stim/objects/HouseObjects/rug2.png",4,"left","left",0.534000158,1,1,1
"135",32,135,0.5,"stim/54.jpeg",5,4,1,NA,"Instruments",2,"stim/objects/Instruments/marimba.png",2,"right","left",0.567000151,0,0,1
"136",32,136,0.5,"stim/63.jpeg",6,3,1,NA,"Instruments",2,"stim/objects/Instruments/musicstand.png",1,"right","right",0.580999851,1,1,1
"137",32,137,0.5,"stim/64.jpeg",6,4,1,NA,"Instruments",2,"stim/objects/Instruments/oboe.png",3,"right","left",0.842999935,0,0,1
"138",32,138,0.9,"stim/43.jpeg",4,3,3,NA,"HouseObjects",1,"stim/objects/HouseObjects/rubbergloves2.png",1,"left","left",0.450000048,1,1,1
"139",32,139,0.9,"stim/31.jpeg",3,1,3,NA,"Instruments",2,"stim/objects/Instruments/metronome2.png",3,"right","right",0.575999975,1,1,1
"140",32,140,0.5,"stim/51.jpeg",5,1,1,NA,"HouseObjects",1,"stim/objects/HouseObjects/iron.png",1,"left","left",0.567000151,1,1,1
"141",32,141,0.9,"stim/41.jpeg",4,1,3,NA,"HouseObjects",1,"stim/objects/HouseObjects/recyclingbin2.png",1,"left","left",0.564999819,1,1,1
"142",32,142,0.5,"stim/53.jpeg",5,3,1,NA,"Instruments",2,"stim/objects/Instruments/maraca.png",3,"right","right",0.786000013,1,1,1
"143",32,143,0.7,"stim/21.jpeg",2,1,2,NA,"HouseObjects",1,"stim/objects/HouseObjects/iron2.png",1,"left","left",0.544999838,1,1,1
"144",32,144,0.5,"stim/52.jpeg",5,2,1,NA,"Instruments",2,"stim/objects/Instruments/laud.png",4,"right","right",0.513999939,1,1,1
"145",32,145,0.9,"stim/44.jpeg",4,4,3,NA,"HouseObjects",1,"stim/objects/HouseObjects/rug2.png",2,"left","left",0.475999832,1,1,1
"146",32,146,0.7,"stim/21.jpeg",2,1,2,NA,"HouseObjects",1,"stim/objects/HouseObjects/iron2.png",1,"left","left",0.48300004,1,1,1
"147",32,147,0.7,"stim/22.jpeg",2,2,2,NA,"HouseObjects",1,"stim/objects/HouseObjects/ironingboard2.png",4,"left","left",0.50999999,1,1,1
"148",32,148,0.7,"stim/24.jpeg",2,4,2,NA,"HouseObjects",1,"stim/objects/HouseObjects/knife2.png",2,"left","right",0.515999794,0,0,1
"149",32,149,0.9,"stim/43.jpeg",4,3,3,NA,"HouseObjects",1,"stim/objects/HouseObjects/rubbergloves2.png",3,"left","left",0.417999983,1,1,1
"150",32,150,0.9,"stim/42.jpeg",4,2,3,NA,"HouseObjects",1,"stim/objects/HouseObjects/remote2.png",2,"left","left",0.528000116,1,1,1
"151",32,151,0.5,"stim/63.jpeg",6,3,1,NA,"Instruments",2,"stim/objects/Instruments/musicstand.png",2,"right","right",0.616999865,1,1,1
"152",32,152,0.9,"stim/34.jpeg",3,4,3,NA,"Instruments",2,"stim/objects/Instruments/oboe2.png",3,"right","right",0.544000149,1,1,1
"153",32,153,0.5,"stim/64.jpeg",6,4,1,NA,"Instruments",2,"stim/objects/Instruments/oboe.png",3,"right","left",0.811000109,0,0,1
"154",32,154,0.3,"stim/22.jpeg",2,2,2,NA,"Instruments",2,"stim/objects/Instruments/laud2.png",3,"right","left",0.552999973,0,0,1
"155",32,155,0.3,"stim/11.jpeg",1,1,2,NA,"HouseObjects",1,"stim/objects/HouseObjects/recyclingbin.png",4,"left","left",0.736000061,1,1,1
"156",32,156,0.5,"stim/61.jpeg",6,1,1,NA,"HouseObjects",1,"stim/objects/HouseObjects/lintroller.png",4,"left","right",0.750999928,0,0,1
"157",32,157,0.9,"stim/32.jpeg",3,2,3,NA,"Instruments",2,"stim/objects/Instruments/musicsheet2.png",4,"right","right",0.580000162,1,1,1
"158",32,158,0.5,"stim/54.jpeg",5,4,1,NA,"HouseObjects",1,"stim/objects/HouseObjects/knife.png",4,"left","right",0.938999891,0,0,1
"159",32,159,0.5,"stim/54.jpeg",5,4,1,NA,"HouseObjects",1,"stim/objects/HouseObjects/knife.png",3,"left","left",0.518999815,1,1,1
"160",32,160,0.7,"stim/24.jpeg",2,4,2,NA,"HouseObjects",1,"stim/objects/HouseObjects/knife2.png",4,"left","left",0.476000071,1,1,1
"161",32,161,0.1,"stim/32.jpeg",3,2,3,NA,"HouseObjects",1,"stim/objects/HouseObjects/match2.png",4,"left","right",0.555999994,0,0,1
"162",32,162,0.5,"stim/61.jpeg",6,1,1,NA,"Instruments",2,"stim/objects/Instruments/metronome.png",2,"right","right",0.625999928,1,1,1
"163",32,163,0.5,"stim/62.jpeg",6,2,1,NA,"HouseObjects",1,"stim/objects/HouseObjects/match.png",1,"left","left",0.726000071,1,1,1
"164",32,164,0.1,"stim/31.jpeg",3,1,3,NA,"HouseObjects",1,"stim/objects/HouseObjects/lintroller2.png",4,"left","right",0.50999999,0,0,1
"165",32,165,0.9,"stim/31.jpeg",3,1,3,NA,"Instruments",2,"stim/objects/Instruments/metronome2.png",1,"right","right",0.521000147,1,1,1
"166",32,166,0.9,"stim/31.jpeg",3,1,3,NA,"Instruments",2,"stim/objects/Instruments/metronome2.png",2,"right","right",0.388999939,1,1,1
"167",32,167,0.7,"stim/21.jpeg",2,1,2,NA,"HouseObjects",1,"stim/objects/HouseObjects/iron2.png",1,"left","left",0.592000008,1,1,1
"168",32,168,0.3,"stim/13.jpeg",1,3,2,NA,"HouseObjects",1,"stim/objects/HouseObjects/rubbergloves.png",1,"left","left",0.677999973,1,1,1
"169",32,169,0.7,"stim/12.jpeg",1,2,2,NA,"Instruments",2,"stim/objects/Instruments/pipepiano.png",2,"right","left",0.667000055,0,0,1
"170",32,170,0.9,"stim/43.jpeg",4,3,3,NA,"HouseObjects",1,"stim/objects/HouseObjects/rubbergloves2.png",2,"left","left",0.58100009,1,1,1
"171",32,171,0.9,"stim/42.jpeg",4,2,3,NA,"HouseObjects",1,"stim/objects/HouseObjects/remote2.png",2,"left","left",0.527999878,1,1,1
"172",32,172,0.5,"stim/54.jpeg",5,4,1,NA,"HouseObjects",1,"stim/objects/HouseObjects/knife.png",4,"left","left",0.556999922,1,1,1
"173",32,173,0.5,"stim/52.jpeg",5,2,1,NA,"Instruments",2,"stim/objects/Instruments/laud.png",2,"right","left",0.45600009,0,0,1
"174",32,174,0.9,"stim/34.jpeg",3,4,3,NA,"Instruments",2,"stim/objects/Instruments/oboe2.png",1,"right","right",0.64199996,1,1,1
"175",32,175,0.9,"stim/33.jpeg",3,3,3,NA,"Instruments",2,"stim/objects/Instruments/musicstand2.png",3,"right","right",0.544000149,1,1,1
"176",32,176,0.7,"stim/13.jpeg",1,3,2,NA,"Instruments",2,"stim/objects/Instruments/record.png",1,"right","left",0.638999939,0,0,1
"177",32,177,0.5,"stim/51.jpeg",5,1,1,NA,"Instruments",2,"stim/objects/Instruments/keyboard.png",4,"right","right",0.747999907,1,1,1
"178",32,178,0.9,"stim/43.jpeg",4,3,3,NA,"HouseObjects",1,"stim/objects/HouseObjects/rubbergloves2.png",4,"left","left",0.601999998,1,1,1
"179",32,179,0.3,"stim/21.jpeg",2,1,2,NA,"Instruments",2,"stim/objects/Instruments/keyboard2.png",4,"right","left",0.552000046,0,0,1
"180",32,180,0.3,"stim/24.jpeg",2,4,2,NA,"Instruments",2,"stim/objects/Instruments/marimba2.png",2,"right","left",0.43599987,0,0,1
"181",32,181,0.9,"stim/31.jpeg",3,1,3,NA,"Instruments",2,"stim/objects/Instruments/metronome2.png",4,"right","right",0.547999859,1,1,1
"182",32,182,0.7,"stim/23.jpeg",2,3,2,NA,"HouseObjects",1,"stim/objects/HouseObjects/key2.png",2,"left","left",0.611999989,1,1,1
"183",32,183,0.9,"stim/32.jpeg",3,2,3,NA,"Instruments",2,"stim/objects/Instruments/musicsheet2.png",3,"right","right",0.671000004,1,1,1
"184",32,184,0.5,"stim/53.jpeg",5,3,1,NA,"HouseObjects",1,"stim/objects/HouseObjects/key.png",1,"left","left",0.477999926,1,1,1
"185",32,185,0.5,"stim/52.jpeg",5,2,1,NA,"Instruments",2,"stim/objects/Instruments/laud.png",4,"right","left",0.57400012,0,0,1
"186",32,186,0.5,"stim/62.jpeg",6,2,1,NA,"Instruments",2,"stim/objects/Instruments/musicsheet.png",2,"right","right",0.585999966,1,1,1
"187",32,187,0.5,"stim/62.jpeg",6,2,1,NA,"HouseObjects",1,"stim/objects/HouseObjects/match.png",4,"left","right",0.38499999,0,0,1
"188",32,188,0.7,"stim/11.jpeg",1,1,2,NA,"Instruments",2,"stim/objects/Instruments/panflute.png",2,"right","left",0.598999977,0,0,1
"189",32,189,0.5,"stim/51.jpeg",5,1,1,NA,"Instruments",2,"stim/objects/Instruments/keyboard.png",4,"right","left",0.577000141,0,0,1
"190",32,190,0.9,"stim/33.jpeg",3,3,3,NA,"Instruments",2,"stim/objects/Instruments/musicstand2.png",2,"right","right",0.567000151,1,1,1
"191",32,191,0.9,"stim/31.jpeg",3,1,3,NA,"Instruments",2,"stim/objects/Instruments/metronome2.png",3,"right","right",0.407999992,1,1,1
"192",32,192,0.9,"stim/41.jpeg",4,1,3,NA,"HouseObjects",1,"stim/objects/HouseObjects/recyclingbin2.png",2,"left","left",0.644000053,1,1,1
"193",32,193,0.9,"stim/34.jpeg",3,4,3,NA,"Instruments",2,"stim/objects/Instruments/oboe2.png",2,"right","right",0.585000038,1,1,1
"194",32,194,0.7,"stim/21.jpeg",2,1,2,NA,"HouseObjects",1,"stim/objects/HouseObjects/iron2.png",2,"left","left",0.521000147,1,1,1
"195",32,195,0.5,"stim/62.jpeg",6,2,1,NA,"Instruments",2,"stim/objects/Instruments/musicsheet.png",2,"right","right",0.699999809,1,1,1
"196",32,196,0.9,"stim/43.jpeg",4,3,3,NA,"HouseObjects",1,"stim/objects/HouseObjects/rubbergloves2.png",1,"left","left",0.538999796,1,1,1
"197",32,197,0.9,"stim/44.jpeg",4,4,3,NA,"HouseObjects",1,"stim/objects/HouseObjects/rug2.png",2,"left","left",0.587000132,1,1,1
"198",32,198,0.5,"stim/62.jpeg",6,2,1,NA,"Instruments",2,"stim/objects/Instruments/musicsheet.png",1,"right","left",0.75999999,0,0,1
"199",32,199,0.7,"stim/14.jpeg",1,4,2,NA,"Instruments",2,"stim/objects/Instruments/record_player.png",4,"right","right",0.914000034,1,1,1
"200",32,200,0.9,"stim/43.jpeg",4,3,3,NA,"HouseObjects",1,"stim/objects/HouseObjects/rubbergloves2.png",4,"left","left",0.555999994,1,1,1
"201",32,201,0.9,"stim/34.jpeg",3,4,3,NA,"Instruments",2,"stim/objects/Instruments/oboe2.png",4,"right","right",0.498000145,1,1,1
"202",32,202,0.7,"stim/13.jpeg",1,3,2,NA,"Instruments",2,"stim/objects/Instruments/record.png",4,"right","left",0.559999943,0,0,1
"203",32,203,0.9,"stim/32.jpeg",3,2,3,NA,"Instruments",2,"stim/objects/Instruments/musicsheet2.png",3,"right","right",0.455000162,1,1,1
"204",32,204,0.7,"stim/12.jpeg",1,2,2,NA,"Instruments",2,"stim/objects/Instruments/pipepiano.png",1,"right","left",0.600999832,0,0,1
"205",32,205,0.7,"stim/21.jpeg",2,1,2,NA,"HouseObjects",1,"stim/objects/HouseObjects/iron2.png",2,"left","left",0.546000004,1,1,1
"206",32,206,0.9,"stim/44.jpeg",4,4,3,NA,"HouseObjects",1,"stim/objects/HouseObjects/rug2.png",4,"left","left",0.561000109,1,1,1
"207",32,207,0.5,"stim/63.jpeg",6,3,1,NA,"HouseObjects",1,"stim/objects/HouseObjects/pan.png",1,"left","right",0.63499999,0,0,1
"208",32,208,0.7,"stim/13.jpeg",1,3,2,NA,"Instruments",2,"stim/objects/Instruments/record.png",1,"right","left",0.544999838,0,0,1
"209",32,209,0.3,"stim/14.jpeg",1,4,2,NA,"HouseObjects",1,"stim/objects/HouseObjects/rug.png",4,"left","left",0.659999847,1,1,1
"210",32,210,0.9,"stim/44.jpeg",4,4,3,NA,"HouseObjects",1,"stim/objects/HouseObjects/rug2.png",4,"left","left",0.55099988,1,1,1
"211",32,211,0.1,"stim/44.jpeg",4,4,3,NA,"Instruments",2,"stim/objects/Instruments/record_player2.png",3,"right","left",0.755000114,0,0,1
"212",32,212,0.5,"stim/52.jpeg",5,2,1,NA,"HouseObjects",1,"stim/objects/HouseObjects/ironingboard.png",2,"left","left",0.654000044,1,1,1
"213",32,213,0.9,"stim/34.jpeg",3,4,3,NA,"Instruments",2,"stim/objects/Instruments/oboe2.png",2,"right","right",0.674999952,1,1,1
"214",32,214,0.5,"stim/61.jpeg",6,1,1,NA,"HouseObjects",1,"stim/objects/HouseObjects/lintroller.png",2,"left","right",0.752000093,0,0,1
"215",32,215,0.9,"stim/44.jpeg",4,4,3,NA,"HouseObjects",1,"stim/objects/HouseObjects/rug2.png",2,"left","left",0.517000198,1,1,1
"216",32,216,0.3,"stim/22.jpeg",2,2,2,NA,"Instruments",2,"stim/objects/Instruments/laud2.png",4,"right","left",0.539000034,0,0,1
"217",32,217,0.7,"stim/22.jpeg",2,2,2,NA,"HouseObjects",1,"stim/objects/HouseObjects/ironingboard2.png",4,"left","left",0.655999899,1,1,1
"218",32,218,0.7,"stim/12.jpeg",1,2,2,NA,"Instruments",2,"stim/objects/Instruments/pipepiano.png",3,"right","left",0.625,0,0,1
"219",32,219,0.7,"stim/13.jpeg",1,3,2,NA,"Instruments",2,"stim/objects/Instruments/record.png",4,"right","left",0.667000055,0,0,1
"220",32,220,0.5,"stim/51.jpeg",5,1,1,NA,"HouseObjects",1,"stim/objects/HouseObjects/iron.png",1,"left","right",0.592999935,0,0,1
"221",32,221,0.7,"stim/22.jpeg",2,2,2,NA,"HouseObjects",1,"stim/objects/HouseObjects/ironingboard2.png",3,"left","left",0.697999954,1,1,1
"222",32,222,0.1,"stim/43.jpeg",4,3,3,NA,"Instruments",2,"stim/objects/Instruments/record2.png",3,"right","left",0.634000063,0,0,1
"223",32,223,0.5,"stim/53.jpeg",5,3,1,NA,"HouseObjects",1,"stim/objects/HouseObjects/key.png",3,"left","left",0.88499999,1,1,1
"224",32,224,0.5,"stim/53.jpeg",5,3,1,NA,"Instruments",2,"stim/objects/Instruments/maraca.png",3,"right","left",0.501999855,0,0,1
"225",32,225,0.5,"stim/63.jpeg",6,3,1,NA,"Instruments",2,"stim/objects/Instruments/musicstand.png",1,"right","left",0.775000095,0,0,1
"226",32,226,0.7,"stim/21.jpeg",2,1,2,NA,"HouseObjects",1,"stim/objects/HouseObjects/iron2.png",3,"left","left",0.534000158,1,1,1
"227",32,227,0.9,"stim/43.jpeg",4,3,3,NA,"HouseObjects",1,"stim/objects/HouseObjects/rubbergloves2.png",2,"left","left",0.535000086,1,1,1
"228",32,228,0.9,"stim/41.jpeg",4,1,3,NA,"HouseObjects",1,"stim/objects/HouseObjects/recyclingbin2.png",3,"left","left",0.539000034,1,1,1
"229",32,229,0.9,"stim/33.jpeg",3,3,3,NA,"Instruments",2,"stim/objects/Instruments/musicstand2.png",1,"right","right",0.56099987,1,1,1
"230",32,230,0.9,"stim/43.jpeg",4,3,3,NA,"HouseObjects",1,"stim/objects/HouseObjects/rubbergloves2.png",3,"left","left",0.631999969,1,1,1
"231",32,231,0.3,"stim/23.jpeg",2,3,2,NA,"Instruments",2,"stim/objects/Instruments/maraca2.png",1,"right","left",0.523000002,0,0,1
"232",32,232,0.9,"stim/32.jpeg",3,2,3,NA,"Instruments",2,"stim/objects/Instruments/musicsheet2.png",4,"right","right",0.578999996,1,1,1
"233",32,233,0.5,"stim/61.jpeg",6,1,1,NA,"Instruments",2,"stim/objects/Instruments/metronome.png",1,"right","right",0.635999918,1,1,1
"234",32,234,0.5,"stim/63.jpeg",6,3,1,NA,"HouseObjects",1,"stim/objects/HouseObjects/pan.png",4,"left","right",0.461000204,0,0,1
"235",32,235,0.5,"stim/54.jpeg",5,4,1,NA,"HouseObjects",1,"stim/objects/HouseObjects/knife.png",2,"left","left",0.539000034,1,1,1
"236",32,236,0.7,"stim/23.jpeg",2,3,2,NA,"HouseObjects",1,"stim/objects/HouseObjects/key2.png",3,"left","left",0.468999863,1,1,1
"237",32,237,0.7,"stim/12.jpeg",1,2,2,NA,"Instruments",2,"stim/objects/Instruments/pipepiano.png",3,"right","left",0.83100009,0,0,1
"238",32,238,0.9,"stim/41.jpeg",4,1,3,NA,"HouseObjects",1,"stim/objects/HouseObjects/recyclingbin2.png",3,"left","left",0.5400002,1,1,1
"239",32,239,0.1,"stim/34.jpeg",3,4,3,NA,"HouseObjects",1,"stim/objects/HouseObjects/pitcher2.png",3,"left","right",0.654000044,0,0,1
"240",32,240,0.7,"stim/14.jpeg",1,4,2,NA,"Instruments",2,"stim/objects/Instruments/record_player.png",3,"right","left",0.53000021,0,0,1
