"","obj_file","X.x","participant.x","trialN.x","trial_cond","scn_file.x","scn_cat","scn_inst","scn_condition","fillers","obj_cat","obj_cat_num","quadrant","corr_ans","key_resp_trial.keys","key_resp_trial.rt","trial_acc","trial_acc_manual","group.x","practice","X.y","participant.y","OvsN","PE_level","object_cat","scn_file.y","corr_scn_cat","corr_scn_inst","scn_file.1","corr_loc","key_resp_id.keys","key_resp_id.rt","key_resp_conf.keys","key_resp_assoc.keys","key_resp_assoc.rt","key_resp_loc.keys","key_resp_loc.rt","trialN.y","id_acc","assoc.acc","cond_assoc","loc.acc","cond_loc","group.y"
"126","stim/objects/Instruments/keyboard2.png",1,32,1,0.3,"stim/21.jpeg",2,1,2,NA,"Instruments",2,4,"right","",NA,0,0,1,1,NA,NA,NA,NA,NA,NA,NA,NA,NA,NA,NA,NA,NA,NA,NA,NA,NA,NA,NA,NA,NA,NA,NA,NA
"1","stim/objects/HouseObjects/iron.png",2,32,2,0.5,"stim/51.jpeg",5,1,1,NA,"HouseObjects",1,1,"left","left",0.546999931,1,1,1,1,NA,NA,NA,NA,NA,NA,NA,NA,NA,NA,NA,NA,NA,NA,NA,NA,NA,NA,NA,NA,NA,NA,NA,NA
"109","stim/objects/HouseObjects/rug.png",3,32,3,0.3,"stim/14.jpeg",1,4,2,NA,"HouseObjects",1,2,"left","left",0.529000044,1,1,1,1,NA,NA,NA,NA,NA,NA,NA,NA,NA,NA,NA,NA,NA,NA,NA,NA,NA,NA,NA,NA,NA,NA,NA,NA
"142","stim/objects/Instruments/maraca2.png",4,32,4,0.3,"stim/23.jpeg",2,3,2,NA,"Instruments",2,2,"right","right",0.438999891,1,1,1,1,NA,NA,NA,NA,NA,NA,NA,NA,NA,NA,NA,NA,NA,NA,NA,NA,NA,NA,NA,NA,NA,NA,NA,NA
"172","stim/objects/Instruments/musicsheet2.png",5,32,5,0.9,"stim/32.jpeg",3,2,3,NA,"Instruments",2,4,"right","right",0.628999949,1,1,1,1,NA,NA,NA,NA,NA,NA,NA,NA,NA,NA,NA,NA,NA,NA,NA,NA,NA,NA,NA,NA,NA,NA,NA,NA
"186","stim/objects/Instruments/musicstand2.png",6,32,6,0.9,"stim/33.jpeg",3,3,3,NA,"Instruments",2,2,"right","left",0.638000011,0,0,1,1,NA,NA,NA,NA,NA,NA,NA,NA,NA,NA,NA,NA,NA,NA,NA,NA,NA,NA,NA,NA,NA,NA,NA,NA
"173","stim/objects/Instruments/musicsheet2.png",7,32,7,0.9,"stim/32.jpeg",3,2,3,NA,"Instruments",2,4,"right","right",0.47300005,1,1,1,1,NA,NA,NA,NA,NA,NA,NA,NA,NA,NA,NA,NA,NA,NA,NA,NA,NA,NA,NA,NA,NA,NA,NA,NA
"187","stim/objects/Instruments/musicstand2.png",8,32,8,0.9,"stim/33.jpeg",3,3,3,NA,"Instruments",2,4,"right","right",0.502999783,1,1,1,1,NA,NA,NA,NA,NA,NA,NA,NA,NA,NA,NA,NA,NA,NA,NA,NA,NA,NA,NA,NA,NA,NA,NA,NA
"37","stim/objects/HouseObjects/knife.png",9,32,9,0.5,"stim/54.jpeg",5,4,1,NA,"HouseObjects",1,1,"left","left",0.613999844,1,1,1,1,NA,NA,NA,NA,NA,NA,NA,NA,NA,NA,NA,NA,NA,NA,NA,NA,NA,NA,NA,NA,NA,NA,NA,NA
"209","stim/objects/Instruments/panflute.png",10,32,10,0.7,"stim/11.jpeg",1,1,2,NA,"Instruments",2,1,"right","left",0.625,0,0,1,1,NA,NA,NA,NA,NA,NA,NA,NA,NA,NA,NA,NA,NA,NA,NA,NA,NA,NA,NA,NA,NA,NA,NA,NA
"88","stim/objects/HouseObjects/remote2.png",11,32,11,0.9,"stim/42.jpeg",4,2,3,NA,"HouseObjects",1,1,"left","left",0.676999807,1,1,1,1,NA,NA,NA,NA,NA,NA,NA,NA,NA,NA,NA,NA,NA,NA,NA,NA,NA,NA,NA,NA,NA,NA,NA,NA
"137","stim/objects/Instruments/maraca.png",12,32,12,0.5,"stim/53.jpeg",5,3,1,NA,"Instruments",2,2,"right","left",0.792999983,0,0,1,1,NA,NA,NA,NA,NA,NA,NA,NA,NA,NA,NA,NA,NA,NA,NA,NA,NA,NA,NA,NA,NA,NA,NA,NA
"233","stim/objects/Instruments/record.png",13,32,13,0.7,"stim/13.jpeg",1,3,2,NA,"Instruments",2,4,"right","",NA,0,0,1,1,NA,NA,NA,NA,NA,NA,NA,NA,NA,NA,NA,NA,NA,NA,NA,NA,NA,NA,NA,NA,NA,NA,NA,NA
"181","stim/objects/Instruments/musicstand.png",14,32,14,0.5,"stim/63.jpeg",6,3,1,NA,"Instruments",2,4,"right","right",0.928999901,1,1,1,1,NA,NA,NA,NA,NA,NA,NA,NA,NA,NA,NA,NA,NA,NA,NA,NA,NA,NA,NA,NA,NA,NA,NA,NA
"110","stim/objects/HouseObjects/rug.png",15,32,15,0.3,"stim/14.jpeg",1,4,2,NA,"HouseObjects",1,3,"left","left",0.542000055,1,1,1,1,NA,NA,NA,NA,NA,NA,NA,NA,NA,NA,NA,NA,NA,NA,NA,NA,NA,NA,NA,NA,NA,NA,NA,NA
"188","stim/objects/Instruments/musicstand2.png",16,32,16,0.9,"stim/33.jpeg",3,3,3,NA,"Instruments",2,2,"right","right",0.44900012,1,1,1,1,NA,NA,NA,NA,NA,NA,NA,NA,NA,NA,NA,NA,NA,NA,NA,NA,NA,NA,NA,NA,NA,NA,NA,NA
"13","stim/objects/HouseObjects/ironingboard.png",17,32,17,0.5,"stim/52.jpeg",5,2,1,NA,"HouseObjects",1,3,"left","left",0.59800005,1,1,1,1,NA,NA,NA,NA,NA,NA,NA,NA,NA,NA,NA,NA,NA,NA,NA,NA,NA,NA,NA,NA,NA,NA,NA,NA
"14","stim/objects/HouseObjects/ironingboard.png",18,32,18,0.5,"stim/52.jpeg",5,2,1,NA,"HouseObjects",1,1,"left","left",0.624000072,1,1,1,1,NA,NA,NA,NA,NA,NA,NA,NA,NA,NA,NA,NA,NA,NA,NA,NA,NA,NA,NA,NA,NA,NA,NA,NA
"15","stim/objects/HouseObjects/ironingboard.png",19,32,19,0.5,"stim/52.jpeg",5,2,1,NA,"HouseObjects",1,2,"left","left",0.470000029,1,1,1,1,NA,NA,NA,NA,NA,NA,NA,NA,NA,NA,NA,NA,NA,NA,NA,NA,NA,NA,NA,NA,NA,NA,NA,NA
"138","stim/objects/Instruments/maraca.png",20,32,20,0.5,"stim/53.jpeg",5,3,1,NA,"Instruments",2,2,"right","left",0.638999939,0,0,1,1,NA,NA,NA,NA,NA,NA,NA,NA,NA,NA,NA,NA,NA,NA,NA,NA,NA,NA,NA,NA,NA,NA,NA,NA
"55","stim/objects/HouseObjects/match.png",21,32,21,0.5,"stim/62.jpeg",6,2,1,NA,"HouseObjects",1,3,"left","left",0.736000061,1,1,1,1,NA,NA,NA,NA,NA,NA,NA,NA,NA,NA,NA,NA,NA,NA,NA,NA,NA,NA,NA,NA,NA,NA,NA,NA
"61","stim/objects/HouseObjects/pan.png",22,32,22,0.5,"stim/63.jpeg",6,3,1,NA,"HouseObjects",1,4,"left","right",0.529999971,0,0,1,1,NA,NA,NA,NA,NA,NA,NA,NA,NA,NA,NA,NA,NA,NA,NA,NA,NA,NA,NA,NA,NA,NA,NA,NA
"174","stim/objects/Instruments/musicsheet2.png",23,32,23,0.9,"stim/32.jpeg",3,2,3,NA,"Instruments",2,4,"right","right",0.617999792,1,1,1,1,NA,NA,NA,NA,NA,NA,NA,NA,NA,NA,NA,NA,NA,NA,NA,NA,NA,NA,NA,NA,NA,NA,NA,NA
"56","stim/objects/HouseObjects/match.png",24,32,24,0.5,"stim/62.jpeg",6,2,1,NA,"HouseObjects",1,3,"left","",NA,0,0,1,1,NA,NA,NA,NA,NA,NA,NA,NA,NA,NA,NA,NA,NA,NA,NA,NA,NA,NA,NA,NA,NA,NA,NA,NA
"62","stim/objects/HouseObjects/pan.png",25,32,25,0.5,"stim/63.jpeg",6,3,1,NA,"HouseObjects",1,3,"left","right",0.896000147,0,0,1,1,NA,NA,NA,NA,NA,NA,NA,NA,NA,NA,NA,NA,NA,NA,NA,NA,NA,NA,NA,NA,NA,NA,NA,NA
"76","stim/objects/HouseObjects/recyclingbin2.png",26,32,26,0.9,"stim/41.jpeg",4,1,3,NA,"HouseObjects",1,1,"left","left",0.551000118,1,1,1,1,NA,NA,NA,NA,NA,NA,NA,NA,NA,NA,NA,NA,NA,NA,NA,NA,NA,NA,NA,NA,NA,NA,NA,NA
"167","stim/objects/Instruments/musicsheet.png",27,32,27,0.5,"stim/62.jpeg",6,2,1,NA,"Instruments",2,1,"right","left",0.638999939,0,0,1,1,NA,NA,NA,NA,NA,NA,NA,NA,NA,NA,NA,NA,NA,NA,NA,NA,NA,NA,NA,NA,NA,NA,NA,NA
"217","stim/objects/Instruments/pipepiano.png",28,32,28,0.7,"stim/12.jpeg",1,2,2,NA,"Instruments",2,1,"right","left",0.63499999,0,0,1,1,NA,NA,NA,NA,NA,NA,NA,NA,NA,NA,NA,NA,NA,NA,NA,NA,NA,NA,NA,NA,NA,NA,NA,NA
"139","stim/objects/Instruments/maraca.png",29,32,29,0.5,"stim/53.jpeg",5,3,1,NA,"Instruments",2,4,"right","left",0.607000113,0,0,1,1,NA,NA,NA,NA,NA,NA,NA,NA,NA,NA,NA,NA,NA,NA,NA,NA,NA,NA,NA,NA,NA,NA,NA,NA
"16","stim/objects/HouseObjects/ironingboard.png",30,32,30,0.5,"stim/52.jpeg",5,2,1,NA,"HouseObjects",1,2,"left","left",0.56099987,1,1,1,1,NA,NA,NA,NA,NA,NA,NA,NA,NA,NA,NA,NA,NA,NA,NA,NA,NA,NA,NA,NA,NA,NA,NA,NA
"225","stim/objects/Instruments/record_player.png",31,32,31,0.7,"stim/14.jpeg",1,4,2,NA,"Instruments",2,1,"right","right",0.52699995,1,1,1,1,NA,NA,NA,NA,NA,NA,NA,NA,NA,NA,NA,NA,NA,NA,NA,NA,NA,NA,NA,NA,NA,NA,NA,NA
"175","stim/objects/Instruments/musicsheet2.png",32,32,32,0.9,"stim/32.jpeg",3,2,3,NA,"Instruments",2,4,"right","right",0.505000114,1,1,1,1,NA,NA,NA,NA,NA,NA,NA,NA,NA,NA,NA,NA,NA,NA,NA,NA,NA,NA,NA,NA,NA,NA,NA,NA
"2","stim/objects/HouseObjects/iron.png",33,32,33,0.5,"stim/51.jpeg",5,1,1,NA,"HouseObjects",1,2,"left","",NA,0,0,1,1,NA,NA,NA,NA,NA,NA,NA,NA,NA,NA,NA,NA,NA,NA,NA,NA,NA,NA,NA,NA,NA,NA,NA,NA
"63","stim/objects/HouseObjects/pan.png",34,32,34,0.5,"stim/63.jpeg",6,3,1,NA,"HouseObjects",1,1,"left","left",0.649999857,1,1,1,1,NA,NA,NA,NA,NA,NA,NA,NA,NA,NA,NA,NA,NA,NA,NA,NA,NA,NA,NA,NA,NA,NA,NA,NA
"25","stim/objects/HouseObjects/key.png",35,32,35,0.5,"stim/53.jpeg",5,3,1,NA,"HouseObjects",1,2,"left","left",0.552000046,1,1,1,1,NA,NA,NA,NA,NA,NA,NA,NA,NA,NA,NA,NA,NA,NA,NA,NA,NA,NA,NA,NA,NA,NA,NA,NA
"189","stim/objects/Instruments/musicstand2.png",36,32,36,0.9,"stim/33.jpeg",3,3,3,NA,"Instruments",2,1,"right","right",0.470000029,1,1,1,1,NA,NA,NA,NA,NA,NA,NA,NA,NA,NA,NA,NA,NA,NA,NA,NA,NA,NA,NA,NA,NA,NA,NA,NA
"26","stim/objects/HouseObjects/key.png",37,32,37,0.5,"stim/53.jpeg",5,3,1,NA,"HouseObjects",1,4,"left","left",0.825000048,1,1,1,1,NA,NA,NA,NA,NA,NA,NA,NA,NA,NA,NA,NA,NA,NA,NA,NA,NA,NA,NA,NA,NA,NA,NA,NA
"145","stim/objects/Instruments/marimba.png",38,32,38,0.5,"stim/54.jpeg",5,4,1,NA,"Instruments",2,2,"right","left",0.661000013,0,0,1,1,NA,NA,NA,NA,NA,NA,NA,NA,NA,NA,NA,NA,NA,NA,NA,NA,NA,NA,NA,NA,NA,NA,NA,NA
"18","stim/objects/HouseObjects/ironingboard2.png",39,32,39,0.7,"stim/22.jpeg",2,2,2,NA,"HouseObjects",1,3,"left","left",0.65899992,1,1,1,1,NA,NA,NA,NA,NA,NA,NA,NA,NA,NA,NA,NA,NA,NA,NA,NA,NA,NA,NA,NA,NA,NA,NA,NA
"153","stim/objects/Instruments/metronome.png",40,32,40,0.5,"stim/61.jpeg",6,1,1,NA,"Instruments",2,3,"right","right",0.682999849,1,1,1,1,NA,NA,NA,NA,NA,NA,NA,NA,NA,NA,NA,NA,NA,NA,NA,NA,NA,NA,NA,NA,NA,NA,NA,NA
"85","stim/objects/HouseObjects/remote.png",41,32,41,0.3,"stim/12.jpeg",1,2,2,NA,"HouseObjects",1,2,"left","right",0.753000021,0,0,1,1,NA,NA,NA,NA,NA,NA,NA,NA,NA,NA,NA,NA,NA,NA,NA,NA,NA,NA,NA,NA,NA,NA,NA,NA
"210","stim/objects/Instruments/panflute.png",42,32,42,0.7,"stim/11.jpeg",1,1,2,NA,"Instruments",2,1,"right","left",0.589999914,0,0,1,1,NA,NA,NA,NA,NA,NA,NA,NA,NA,NA,NA,NA,NA,NA,NA,NA,NA,NA,NA,NA,NA,NA,NA,NA
"30","stim/objects/HouseObjects/key2.png",43,32,43,0.7,"stim/23.jpeg",2,3,2,NA,"HouseObjects",1,2,"left","left",0.611000061,1,1,1,1,NA,NA,NA,NA,NA,NA,NA,NA,NA,NA,NA,NA,NA,NA,NA,NA,NA,NA,NA,NA,NA,NA,NA,NA
"216","stim/objects/Instruments/panflute2.png",44,32,44,0.1,"stim/41.jpeg",4,1,3,NA,"Instruments",2,1,"right","left",0.651000023,0,0,1,1,NA,NA,NA,NA,NA,NA,NA,NA,NA,NA,NA,NA,NA,NA,NA,NA,NA,NA,NA,NA,NA,NA,NA,NA
"182","stim/objects/Instruments/musicstand.png",45,32,45,0.5,"stim/63.jpeg",6,3,1,NA,"Instruments",2,3,"right","",NA,0,0,1,1,NA,NA,NA,NA,NA,NA,NA,NA,NA,NA,NA,NA,NA,NA,NA,NA,NA,NA,NA,NA,NA,NA,NA,NA
"42","stim/objects/HouseObjects/knife2.png",46,32,46,0.7,"stim/24.jpeg",2,4,2,NA,"HouseObjects",1,4,"left","left",0.595999956,1,1,1,1,NA,NA,NA,NA,NA,NA,NA,NA,NA,NA,NA,NA,NA,NA,NA,NA,NA,NA,NA,NA,NA,NA,NA,NA
"121","stim/objects/Instruments/keyboard.png",47,32,47,0.5,"stim/51.jpeg",5,1,1,NA,"Instruments",2,1,"right","left",0.592000008,0,0,1,1,NA,NA,NA,NA,NA,NA,NA,NA,NA,NA,NA,NA,NA,NA,NA,NA,NA,NA,NA,NA,NA,NA,NA,NA
"112","stim/objects/HouseObjects/rug2.png",48,32,48,0.9,"stim/44.jpeg",4,4,3,NA,"HouseObjects",1,4,"left","left",0.678999901,1,1,1,1,NA,NA,NA,NA,NA,NA,NA,NA,NA,NA,NA,NA,NA,NA,NA,NA,NA,NA,NA,NA,NA,NA,NA,NA
"43","stim/objects/HouseObjects/knife2.png",49,32,49,0.7,"stim/24.jpeg",2,4,2,NA,"HouseObjects",1,3,"left","left",0.540999889,1,1,1,1,NA,NA,NA,NA,NA,NA,NA,NA,NA,NA,NA,NA,NA,NA,NA,NA,NA,NA,NA,NA,NA,NA,NA,NA
"77","stim/objects/HouseObjects/recyclingbin2.png",50,32,50,0.9,"stim/41.jpeg",4,1,3,NA,"HouseObjects",1,3,"left","left",0.552999973,1,1,1,1,NA,NA,NA,NA,NA,NA,NA,NA,NA,NA,NA,NA,NA,NA,NA,NA,NA,NA,NA,NA,NA,NA,NA,NA
"31","stim/objects/HouseObjects/key2.png",51,32,51,0.7,"stim/23.jpeg",2,3,2,NA,"HouseObjects",1,1,"left","left",0.453999996,1,1,1,1,NA,NA,NA,NA,NA,NA,NA,NA,NA,NA,NA,NA,NA,NA,NA,NA,NA,NA,NA,NA,NA,NA,NA,NA
"146","stim/objects/Instruments/marimba.png",52,32,52,0.5,"stim/54.jpeg",5,4,1,NA,"Instruments",2,3,"right","left",0.585000038,0,0,1,1,NA,NA,NA,NA,NA,NA,NA,NA,NA,NA,NA,NA,NA,NA,NA,NA,NA,NA,NA,NA,NA,NA,NA,NA
"195","stim/objects/Instruments/oboe.png",53,32,53,0.5,"stim/64.jpeg",6,4,1,NA,"Instruments",2,1,"right","right",0.848999977,1,1,1,1,NA,NA,NA,NA,NA,NA,NA,NA,NA,NA,NA,NA,NA,NA,NA,NA,NA,NA,NA,NA,NA,NA,NA,NA
"150","stim/objects/Instruments/marimba2.png",54,32,54,0.3,"stim/24.jpeg",2,4,2,NA,"Instruments",2,2,"right","left",0.541999817,0,0,1,1,NA,NA,NA,NA,NA,NA,NA,NA,NA,NA,NA,NA,NA,NA,NA,NA,NA,NA,NA,NA,NA,NA,NA,NA
"147","stim/objects/Instruments/marimba.png",55,32,55,0.5,"stim/54.jpeg",5,4,1,NA,"Instruments",2,4,"right","left",0.614000082,0,0,1,1,NA,NA,NA,NA,NA,NA,NA,NA,NA,NA,NA,NA,NA,NA,NA,NA,NA,NA,NA,NA,NA,NA,NA,NA
"67","stim/objects/HouseObjects/pitcher.png",56,32,56,0.5,"stim/64.jpeg",6,4,1,NA,"HouseObjects",1,3,"left","right",0.549000025,0,0,1,1,NA,NA,NA,NA,NA,NA,NA,NA,NA,NA,NA,NA,NA,NA,NA,NA,NA,NA,NA,NA,NA,NA,NA,NA
"19","stim/objects/HouseObjects/ironingboard2.png",57,32,57,0.7,"stim/22.jpeg",2,2,2,NA,"HouseObjects",1,1,"left","left",0.479000092,1,1,1,1,NA,NA,NA,NA,NA,NA,NA,NA,NA,NA,NA,NA,NA,NA,NA,NA,NA,NA,NA,NA,NA,NA,NA,NA
"73","stim/objects/HouseObjects/recyclingbin.png",58,32,58,0.3,"stim/11.jpeg",1,1,2,NA,"HouseObjects",1,2,"left","left",0.596999884,1,1,1,1,NA,NA,NA,NA,NA,NA,NA,NA,NA,NA,NA,NA,NA,NA,NA,NA,NA,NA,NA,NA,NA,NA,NA,NA
"211","stim/objects/Instruments/panflute.png",59,32,59,0.7,"stim/11.jpeg",1,1,2,NA,"Instruments",2,2,"right","left",0.639000177,0,0,1,1,NA,NA,NA,NA,NA,NA,NA,NA,NA,NA,NA,NA,NA,NA,NA,NA,NA,NA,NA,NA,NA,NA,NA,NA
"226","stim/objects/Instruments/record_player.png",60,32,60,0.7,"stim/14.jpeg",1,4,2,NA,"Instruments",2,3,"right","left",0.683000088,0,0,1,1,NA,NA,NA,NA,NA,NA,NA,NA,NA,NA,NA,NA,NA,NA,NA,NA,NA,NA,NA,NA,NA,NA,NA,NA
"122","stim/objects/Instruments/keyboard.png",61,32,61,0.5,"stim/51.jpeg",5,1,1,NA,"Instruments",2,1,"right","",NA,0,0,1,1,NA,NA,NA,NA,NA,NA,NA,NA,NA,NA,NA,NA,NA,NA,NA,NA,NA,NA,NA,NA,NA,NA,NA,NA
"158","stim/objects/Instruments/metronome2.png",62,32,62,0.9,"stim/31.jpeg",3,1,3,NA,"Instruments",2,3,"right","right",0.549999952,1,1,1,1,NA,NA,NA,NA,NA,NA,NA,NA,NA,NA,NA,NA,NA,NA,NA,NA,NA,NA,NA,NA,NA,NA,NA,NA
"49","stim/objects/HouseObjects/lintroller.png",63,32,63,0.5,"stim/61.jpeg",6,1,1,NA,"HouseObjects",1,2,"left","right",0.44900012,0,0,1,1,NA,NA,NA,NA,NA,NA,NA,NA,NA,NA,NA,NA,NA,NA,NA,NA,NA,NA,NA,NA,NA,NA,NA,NA
"20","stim/objects/HouseObjects/ironingboard2.png",64,32,64,0.7,"stim/22.jpeg",2,2,2,NA,"HouseObjects",1,3,"left","left",0.528999805,1,1,1,1,NA,NA,NA,NA,NA,NA,NA,NA,NA,NA,NA,NA,NA,NA,NA,NA,NA,NA,NA,NA,NA,NA,NA,NA
"44","stim/objects/HouseObjects/knife2.png",65,32,65,0.7,"stim/24.jpeg",2,4,2,NA,"HouseObjects",1,4,"left","left",0.368999958,1,1,1,1,NA,NA,NA,NA,NA,NA,NA,NA,NA,NA,NA,NA,NA,NA,NA,NA,NA,NA,NA,NA,NA,NA,NA,NA
"143","stim/objects/Instruments/maraca2.png",66,32,66,0.3,"stim/23.jpeg",2,3,2,NA,"Instruments",2,1,"right","left",0.421000004,0,0,1,1,NA,NA,NA,NA,NA,NA,NA,NA,NA,NA,NA,NA,NA,NA,NA,NA,NA,NA,NA,NA,NA,NA,NA,NA
"168","stim/objects/Instruments/musicsheet.png",67,32,67,0.5,"stim/62.jpeg",6,2,1,NA,"Instruments",2,4,"right","left",0.732000113,0,0,1,1,NA,NA,NA,NA,NA,NA,NA,NA,NA,NA,NA,NA,NA,NA,NA,NA,NA,NA,NA,NA,NA,NA,NA,NA
"212","stim/objects/Instruments/panflute.png",68,32,68,0.7,"stim/11.jpeg",1,1,2,NA,"Instruments",2,3,"right","right",0.945999861,1,1,1,1,NA,NA,NA,NA,NA,NA,NA,NA,NA,NA,NA,NA,NA,NA,NA,NA,NA,NA,NA,NA,NA,NA,NA,NA
"78","stim/objects/HouseObjects/recyclingbin2.png",69,32,69,0.9,"stim/41.jpeg",4,1,3,NA,"HouseObjects",1,1,"left","left",0.570999861,1,1,1,1,NA,NA,NA,NA,NA,NA,NA,NA,NA,NA,NA,NA,NA,NA,NA,NA,NA,NA,NA,NA,NA,NA,NA,NA
"200","stim/objects/Instruments/oboe2.png",70,32,70,0.9,"stim/34.jpeg",3,4,3,NA,"Instruments",2,2,"right","right",0.538000107,1,1,1,1,NA,NA,NA,NA,NA,NA,NA,NA,NA,NA,NA,NA,NA,NA,NA,NA,NA,NA,NA,NA,NA,NA,NA,NA
"68","stim/objects/HouseObjects/pitcher.png",71,32,71,0.5,"stim/64.jpeg",6,4,1,NA,"HouseObjects",1,3,"left","right",0.620999813,0,0,1,1,NA,NA,NA,NA,NA,NA,NA,NA,NA,NA,NA,NA,NA,NA,NA,NA,NA,NA,NA,NA,NA,NA,NA,NA
"227","stim/objects/Instruments/record_player.png",72,32,72,0.7,"stim/14.jpeg",1,4,2,NA,"Instruments",2,4,"right","left",0.763000011,0,0,1,1,NA,NA,NA,NA,NA,NA,NA,NA,NA,NA,NA,NA,NA,NA,NA,NA,NA,NA,NA,NA,NA,NA,NA,NA
"27","stim/objects/HouseObjects/key.png",73,32,73,0.5,"stim/53.jpeg",5,3,1,NA,"HouseObjects",1,4,"left","left",0.568000078,1,1,1,1,NA,NA,NA,NA,NA,NA,NA,NA,NA,NA,NA,NA,NA,NA,NA,NA,NA,NA,NA,NA,NA,NA,NA,NA
"228","stim/objects/Instruments/record_player.png",74,32,74,0.7,"stim/14.jpeg",1,4,2,NA,"Instruments",2,3,"right","right",0.756000042,1,1,1,1,NA,NA,NA,NA,NA,NA,NA,NA,NA,NA,NA,NA,NA,NA,NA,NA,NA,NA,NA,NA,NA,NA,NA,NA
"66","stim/objects/HouseObjects/pan2.png",75,32,75,0.1,"stim/33.jpeg",3,3,3,NA,"HouseObjects",1,4,"left","right",0.457999945,0,0,1,1,NA,NA,NA,NA,NA,NA,NA,NA,NA,NA,NA,NA,NA,NA,NA,NA,NA,NA,NA,NA,NA,NA,NA,NA
"3","stim/objects/HouseObjects/iron.png",76,32,76,0.5,"stim/51.jpeg",5,1,1,NA,"HouseObjects",1,3,"left","right",0.744999886,0,0,1,1,NA,NA,NA,NA,NA,NA,NA,NA,NA,NA,NA,NA,NA,NA,NA,NA,NA,NA,NA,NA,NA,NA,NA,NA
"6","stim/objects/HouseObjects/iron2.png",77,32,77,0.7,"stim/21.jpeg",2,1,2,NA,"HouseObjects",1,1,"left","left",0.566999912,1,1,1,1,NA,NA,NA,NA,NA,NA,NA,NA,NA,NA,NA,NA,NA,NA,NA,NA,NA,NA,NA,NA,NA,NA,NA,NA
"154","stim/objects/Instruments/metronome.png",78,32,78,0.5,"stim/61.jpeg",6,1,1,NA,"Instruments",2,2,"right","right",0.492000103,1,1,1,1,NA,NA,NA,NA,NA,NA,NA,NA,NA,NA,NA,NA,NA,NA,NA,NA,NA,NA,NA,NA,NA,NA,NA,NA
"159","stim/objects/Instruments/metronome2.png",79,32,79,0.9,"stim/31.jpeg",3,1,3,NA,"Instruments",2,2,"right","right",0.483999968,1,1,1,1,NA,NA,NA,NA,NA,NA,NA,NA,NA,NA,NA,NA,NA,NA,NA,NA,NA,NA,NA,NA,NA,NA,NA,NA
"45","stim/objects/HouseObjects/knife2.png",80,32,80,0.7,"stim/24.jpeg",2,4,2,NA,"HouseObjects",1,3,"left","left",0.417999983,1,1,1,1,NA,NA,NA,NA,NA,NA,NA,NA,NA,NA,NA,NA,NA,NA,NA,NA,NA,NA,NA,NA,NA,NA,NA,NA
"100","stim/objects/HouseObjects/rubbergloves2.png",81,32,81,0.9,"stim/43.jpeg",4,3,3,NA,"HouseObjects",1,2,"left","left",0.545000076,1,1,1,1,NA,NA,NA,NA,NA,NA,NA,NA,NA,NA,NA,NA,NA,NA,NA,NA,NA,NA,NA,NA,NA,NA,NA,NA
"89","stim/objects/HouseObjects/remote2.png",82,32,82,0.9,"stim/42.jpeg",4,2,3,NA,"HouseObjects",1,3,"left","left",0.57799983,1,1,1,1,NA,NA,NA,NA,NA,NA,NA,NA,NA,NA,NA,NA,NA,NA,NA,NA,NA,NA,NA,NA,NA,NA,NA,NA
"201","stim/objects/Instruments/oboe2.png",83,32,83,0.9,"stim/34.jpeg",3,4,3,NA,"Instruments",2,1,"right","right",0.513999939,1,1,1,1,NA,NA,NA,NA,NA,NA,NA,NA,NA,NA,NA,NA,NA,NA,NA,NA,NA,NA,NA,NA,NA,NA,NA,NA
"148","stim/objects/Instruments/marimba.png",84,32,84,0.5,"stim/54.jpeg",5,4,1,NA,"Instruments",2,3,"right","left",0.901000023,0,0,1,1,NA,NA,NA,NA,NA,NA,NA,NA,NA,NA,NA,NA,NA,NA,NA,NA,NA,NA,NA,NA,NA,NA,NA,NA
"218","stim/objects/Instruments/pipepiano.png",85,32,85,0.7,"stim/12.jpeg",1,2,2,NA,"Instruments",2,2,"right","right",0.779999971,1,1,1,1,NA,NA,NA,NA,NA,NA,NA,NA,NA,NA,NA,NA,NA,NA,NA,NA,NA,NA,NA,NA,NA,NA,NA,NA
"113","stim/objects/HouseObjects/rug2.png",86,32,86,0.9,"stim/44.jpeg",4,4,3,NA,"HouseObjects",1,1,"left","left",0.58100009,1,1,1,1,NA,NA,NA,NA,NA,NA,NA,NA,NA,NA,NA,NA,NA,NA,NA,NA,NA,NA,NA,NA,NA,NA,NA,NA
"50","stim/objects/HouseObjects/lintroller.png",87,32,87,0.5,"stim/61.jpeg",6,1,1,NA,"HouseObjects",1,1,"left","right",0.567000151,0,0,1,1,NA,NA,NA,NA,NA,NA,NA,NA,NA,NA,NA,NA,NA,NA,NA,NA,NA,NA,NA,NA,NA,NA,NA,NA
"155","stim/objects/Instruments/metronome.png",88,32,88,0.5,"stim/61.jpeg",6,1,1,NA,"Instruments",2,3,"right","right",0.51699996,1,1,1,1,NA,NA,NA,NA,NA,NA,NA,NA,NA,NA,NA,NA,NA,NA,NA,NA,NA,NA,NA,NA,NA,NA,NA,NA
"90","stim/objects/HouseObjects/remote2.png",89,32,89,0.9,"stim/42.jpeg",4,2,3,NA,"HouseObjects",1,3,"left","left",0.478999853,1,1,1,1,NA,NA,NA,NA,NA,NA,NA,NA,NA,NA,NA,NA,NA,NA,NA,NA,NA,NA,NA,NA,NA,NA,NA,NA
"224","stim/objects/Instruments/pipepiano2.png",90,32,90,0.1,"stim/42.jpeg",4,2,3,NA,"Instruments",2,3,"right","left",0.417000055,0,0,1,1,NA,NA,NA,NA,NA,NA,NA,NA,NA,NA,NA,NA,NA,NA,NA,NA,NA,NA,NA,NA,NA,NA,NA,NA
"160","stim/objects/Instruments/metronome2.png",91,32,91,0.9,"stim/31.jpeg",3,1,3,NA,"Instruments",2,1,"right","right",0.50999999,1,1,1,1,NA,NA,NA,NA,NA,NA,NA,NA,NA,NA,NA,NA,NA,NA,NA,NA,NA,NA,NA,NA,NA,NA,NA,NA
"234","stim/objects/Instruments/record.png",92,32,92,0.7,"stim/13.jpeg",1,3,2,NA,"Instruments",2,2,"right","right",0.753999949,1,1,1,1,NA,NA,NA,NA,NA,NA,NA,NA,NA,NA,NA,NA,NA,NA,NA,NA,NA,NA,NA,NA,NA,NA,NA,NA
"46","stim/objects/HouseObjects/knife2.png",93,32,93,0.7,"stim/24.jpeg",2,4,2,NA,"HouseObjects",1,2,"left","left",0.514999866,1,1,1,1,NA,NA,NA,NA,NA,NA,NA,NA,NA,NA,NA,NA,NA,NA,NA,NA,NA,NA,NA,NA,NA,NA,NA,NA
"97","stim/objects/HouseObjects/rubbergloves.png",94,32,94,0.3,"stim/13.jpeg",1,3,2,NA,"HouseObjects",1,4,"left","right",0.688999891,0,0,1,1,NA,NA,NA,NA,NA,NA,NA,NA,NA,NA,NA,NA,NA,NA,NA,NA,NA,NA,NA,NA,NA,NA,NA,NA
"114","stim/objects/HouseObjects/rug2.png",95,32,95,0.9,"stim/44.jpeg",4,4,3,NA,"HouseObjects",1,2,"left","left",0.496999979,1,1,1,1,NA,NA,NA,NA,NA,NA,NA,NA,NA,NA,NA,NA,NA,NA,NA,NA,NA,NA,NA,NA,NA,NA,NA,NA
"127","stim/objects/Instruments/keyboard2.png",96,32,96,0.3,"stim/21.jpeg",2,1,2,NA,"Instruments",2,2,"right","left",0.555999994,0,0,1,1,NA,NA,NA,NA,NA,NA,NA,NA,NA,NA,NA,NA,NA,NA,NA,NA,NA,NA,NA,NA,NA,NA,NA,NA
"91","stim/objects/HouseObjects/remote2.png",97,32,97,0.9,"stim/42.jpeg",4,2,3,NA,"HouseObjects",1,1,"left","left",0.569000006,1,1,1,1,NA,NA,NA,NA,NA,NA,NA,NA,NA,NA,NA,NA,NA,NA,NA,NA,NA,NA,NA,NA,NA,NA,NA,NA
"151","stim/objects/Instruments/marimba2.png",98,32,98,0.3,"stim/24.jpeg",2,4,2,NA,"Instruments",2,3,"right","left",0.46600008,0,0,1,1,NA,NA,NA,NA,NA,NA,NA,NA,NA,NA,NA,NA,NA,NA,NA,NA,NA,NA,NA,NA,NA,NA,NA,NA
"196","stim/objects/Instruments/oboe.png",99,32,99,0.5,"stim/64.jpeg",6,4,1,NA,"Instruments",2,3,"right","right",0.50999999,1,1,1,1,NA,NA,NA,NA,NA,NA,NA,NA,NA,NA,NA,NA,NA,NA,NA,NA,NA,NA,NA,NA,NA,NA,NA,NA
"213","stim/objects/Instruments/panflute.png",100,32,100,0.7,"stim/11.jpeg",1,1,2,NA,"Instruments",2,3,"right","",NA,0,0,1,1,NA,NA,NA,NA,NA,NA,NA,NA,NA,NA,NA,NA,NA,NA,NA,NA,NA,NA,NA,NA,NA,NA,NA,NA
"176","stim/objects/Instruments/musicsheet2.png",101,32,101,0.9,"stim/32.jpeg",3,2,3,NA,"Instruments",2,1,"right","right",0.532999992,1,1,1,1,NA,NA,NA,NA,NA,NA,NA,NA,NA,NA,NA,NA,NA,NA,NA,NA,NA,NA,NA,NA,NA,NA,NA,NA
"79","stim/objects/HouseObjects/recyclingbin2.png",102,32,102,0.9,"stim/41.jpeg",4,1,3,NA,"HouseObjects",1,1,"left","left",0.498000145,1,1,1,1,NA,NA,NA,NA,NA,NA,NA,NA,NA,NA,NA,NA,NA,NA,NA,NA,NA,NA,NA,NA,NA,NA,NA,NA
"202","stim/objects/Instruments/oboe2.png",103,32,103,0.9,"stim/34.jpeg",3,4,3,NA,"Instruments",2,4,"right","right",0.551000118,1,1,1,1,NA,NA,NA,NA,NA,NA,NA,NA,NA,NA,NA,NA,NA,NA,NA,NA,NA,NA,NA,NA,NA,NA,NA,NA
"69","stim/objects/HouseObjects/pitcher.png",104,32,104,0.5,"stim/64.jpeg",6,4,1,NA,"HouseObjects",1,4,"left","right",0.43599987,0,0,1,1,NA,NA,NA,NA,NA,NA,NA,NA,NA,NA,NA,NA,NA,NA,NA,NA,NA,NA,NA,NA,NA,NA,NA,NA
"70","stim/objects/HouseObjects/pitcher.png",105,32,105,0.5,"stim/64.jpeg",6,4,1,NA,"HouseObjects",1,1,"left","left",0.657999992,1,1,1,1,NA,NA,NA,NA,NA,NA,NA,NA,NA,NA,NA,NA,NA,NA,NA,NA,NA,NA,NA,NA,NA,NA,NA,NA
"32","stim/objects/HouseObjects/key2.png",106,32,106,0.7,"stim/23.jpeg",2,3,2,NA,"HouseObjects",1,1,"left","left",0.520999908,1,1,1,1,NA,NA,NA,NA,NA,NA,NA,NA,NA,NA,NA,NA,NA,NA,NA,NA,NA,NA,NA,NA,NA,NA,NA,NA
"190","stim/objects/Instruments/musicstand2.png",107,32,107,0.9,"stim/33.jpeg",3,3,3,NA,"Instruments",2,2,"right","right",0.450000048,1,1,1,1,NA,NA,NA,NA,NA,NA,NA,NA,NA,NA,NA,NA,NA,NA,NA,NA,NA,NA,NA,NA,NA,NA,NA,NA
"229","stim/objects/Instruments/record_player.png",108,32,108,0.7,"stim/14.jpeg",1,4,2,NA,"Instruments",2,2,"right","right",0.453000069,1,1,1,1,NA,NA,NA,NA,NA,NA,NA,NA,NA,NA,NA,NA,NA,NA,NA,NA,NA,NA,NA,NA,NA,NA,NA,NA
"92","stim/objects/HouseObjects/remote2.png",109,32,109,0.9,"stim/42.jpeg",4,2,3,NA,"HouseObjects",1,4,"left","left",0.857999802,1,1,1,1,NA,NA,NA,NA,NA,NA,NA,NA,NA,NA,NA,NA,NA,NA,NA,NA,NA,NA,NA,NA,NA,NA,NA,NA
"129","stim/objects/Instruments/laud.png",110,32,110,0.5,"stim/52.jpeg",5,2,1,NA,"Instruments",2,3,"right","left",0.579999924,0,0,1,1,NA,NA,NA,NA,NA,NA,NA,NA,NA,NA,NA,NA,NA,NA,NA,NA,NA,NA,NA,NA,NA,NA,NA,NA
"71","stim/objects/HouseObjects/pitcher.png",111,32,111,0.5,"stim/64.jpeg",6,4,1,NA,"HouseObjects",1,4,"left","left",0.773999929,1,1,1,1,NA,NA,NA,NA,NA,NA,NA,NA,NA,NA,NA,NA,NA,NA,NA,NA,NA,NA,NA,NA,NA,NA,NA,NA
"235","stim/objects/Instruments/record.png",112,32,112,0.7,"stim/13.jpeg",1,3,2,NA,"Instruments",2,4,"right","right",0.693000078,1,1,1,1,NA,NA,NA,NA,NA,NA,NA,NA,NA,NA,NA,NA,NA,NA,NA,NA,NA,NA,NA,NA,NA,NA,NA,NA
"123","stim/objects/Instruments/keyboard.png",113,32,113,0.5,"stim/51.jpeg",5,1,1,NA,"Instruments",2,4,"right","right",0.805999994,1,1,1,1,NA,NA,NA,NA,NA,NA,NA,NA,NA,NA,NA,NA,NA,NA,NA,NA,NA,NA,NA,NA,NA,NA,NA,NA
"134","stim/objects/Instruments/laud2.png",114,32,114,0.3,"stim/22.jpeg",2,2,2,NA,"Instruments",2,4,"right","left",0.551999807,0,0,1,1,NA,NA,NA,NA,NA,NA,NA,NA,NA,NA,NA,NA,NA,NA,NA,NA,NA,NA,NA,NA,NA,NA,NA,NA
"33","stim/objects/HouseObjects/key2.png",115,32,115,0.7,"stim/23.jpeg",2,3,2,NA,"HouseObjects",1,3,"left","left",0.471999884,1,1,1,1,NA,NA,NA,NA,NA,NA,NA,NA,NA,NA,NA,NA,NA,NA,NA,NA,NA,NA,NA,NA,NA,NA,NA,NA
"161","stim/objects/Instruments/metronome2.png",116,32,116,0.9,"stim/31.jpeg",3,1,3,NA,"Instruments",2,1,"right","right",0.703000069,1,1,1,1,NA,NA,NA,NA,NA,NA,NA,NA,NA,NA,NA,NA,NA,NA,NA,NA,NA,NA,NA,NA,NA,NA,NA,NA
"98","stim/objects/HouseObjects/rubbergloves.png",117,32,117,0.3,"stim/13.jpeg",1,3,2,NA,"HouseObjects",1,4,"left","left",0.907999992,1,1,1,1,NA,NA,NA,NA,NA,NA,NA,NA,NA,NA,NA,NA,NA,NA,NA,NA,NA,NA,NA,NA,NA,NA,NA,NA
"86","stim/objects/HouseObjects/remote.png",118,32,118,0.3,"stim/12.jpeg",1,2,2,NA,"HouseObjects",1,2,"left","right",0.704999924,0,0,1,1,NA,NA,NA,NA,NA,NA,NA,NA,NA,NA,NA,NA,NA,NA,NA,NA,NA,NA,NA,NA,NA,NA,NA,NA
"93","stim/objects/HouseObjects/remote2.png",119,32,119,0.9,"stim/42.jpeg",4,2,3,NA,"HouseObjects",1,3,"left","left",0.578000069,1,1,1,1,NA,NA,NA,NA,NA,NA,NA,NA,NA,NA,NA,NA,NA,NA,NA,NA,NA,NA,NA,NA,NA,NA,NA,NA
"130","stim/objects/Instruments/laud.png",120,32,120,0.5,"stim/52.jpeg",5,2,1,NA,"Instruments",2,2,"right","left",0.532999992,0,0,1,1,NA,NA,NA,NA,NA,NA,NA,NA,NA,NA,NA,NA,NA,NA,NA,NA,NA,NA,NA,NA,NA,NA,NA,NA
"191","stim/objects/Instruments/musicstand2.png",121,32,121,0.9,"stim/33.jpeg",3,3,3,NA,"Instruments",2,2,"right","right",0.514999866,1,1,1,1,NA,NA,NA,NA,NA,NA,NA,NA,NA,NA,NA,NA,NA,NA,NA,NA,NA,NA,NA,NA,NA,NA,NA,NA
"197","stim/objects/Instruments/oboe.png",122,32,122,0.5,"stim/64.jpeg",6,4,1,NA,"Instruments",2,2,"right","right",0.604999781,1,1,1,1,NA,NA,NA,NA,NA,NA,NA,NA,NA,NA,NA,NA,NA,NA,NA,NA,NA,NA,NA,NA,NA,NA,NA,NA
"21","stim/objects/HouseObjects/ironingboard2.png",123,32,123,0.7,"stim/22.jpeg",2,2,2,NA,"HouseObjects",1,3,"left","left",0.487999916,1,1,1,1,NA,NA,NA,NA,NA,NA,NA,NA,NA,NA,NA,NA,NA,NA,NA,NA,NA,NA,NA,NA,NA,NA,NA,NA
"214","stim/objects/Instruments/panflute.png",124,32,124,0.7,"stim/11.jpeg",1,1,2,NA,"Instruments",2,3,"right","left",0.546999931,0,0,1,1,NA,NA,NA,NA,NA,NA,NA,NA,NA,NA,NA,NA,NA,NA,NA,NA,NA,NA,NA,NA,NA,NA,NA,NA
"94","stim/objects/HouseObjects/remote2.png",125,32,125,0.9,"stim/42.jpeg",4,2,3,NA,"HouseObjects",1,1,"left","left",0.500999928,1,1,1,1,NA,NA,NA,NA,NA,NA,NA,NA,NA,NA,NA,NA,NA,NA,NA,NA,NA,NA,NA,NA,NA,NA,NA,NA
"74","stim/objects/HouseObjects/recyclingbin.png",126,32,126,0.3,"stim/11.jpeg",1,1,2,NA,"HouseObjects",1,1,"left","left",0.679999828,1,1,1,1,NA,NA,NA,NA,NA,NA,NA,NA,NA,NA,NA,NA,NA,NA,NA,NA,NA,NA,NA,NA,NA,NA,NA,NA
"51","stim/objects/HouseObjects/lintroller.png",127,32,127,0.5,"stim/61.jpeg",6,1,1,NA,"HouseObjects",1,4,"left","",NA,0,0,1,1,NA,NA,NA,NA,NA,NA,NA,NA,NA,NA,NA,NA,NA,NA,NA,NA,NA,NA,NA,NA,NA,NA,NA,NA
"87","stim/objects/HouseObjects/remote.png",128,32,128,0.3,"stim/12.jpeg",1,2,2,NA,"HouseObjects",1,1,"left","right",0.750999928,0,0,1,1,NA,NA,NA,NA,NA,NA,NA,NA,NA,NA,NA,NA,NA,NA,NA,NA,NA,NA,NA,NA,NA,NA,NA,NA
"57","stim/objects/HouseObjects/match.png",129,32,129,0.5,"stim/62.jpeg",6,2,1,NA,"HouseObjects",1,1,"left","left",0.624000072,1,1,1,1,NA,NA,NA,NA,NA,NA,NA,NA,NA,NA,NA,NA,NA,NA,NA,NA,NA,NA,NA,NA,NA,NA,NA,NA
"80","stim/objects/HouseObjects/recyclingbin2.png",130,32,130,0.9,"stim/41.jpeg",4,1,3,NA,"HouseObjects",1,1,"left","left",0.416999817,1,1,1,1,NA,NA,NA,NA,NA,NA,NA,NA,NA,NA,NA,NA,NA,NA,NA,NA,NA,NA,NA,NA,NA,NA,NA,NA
"203","stim/objects/Instruments/oboe2.png",131,32,131,0.9,"stim/34.jpeg",3,4,3,NA,"Instruments",2,3,"right","right",0.761999846,1,1,1,1,NA,NA,NA,NA,NA,NA,NA,NA,NA,NA,NA,NA,NA,NA,NA,NA,NA,NA,NA,NA,NA,NA,NA,NA
"34","stim/objects/HouseObjects/key2.png",132,32,132,0.7,"stim/23.jpeg",2,3,2,NA,"HouseObjects",1,4,"left","right",0.644999981,0,0,1,1,NA,NA,NA,NA,NA,NA,NA,NA,NA,NA,NA,NA,NA,NA,NA,NA,NA,NA,NA,NA,NA,NA,NA,NA
"219","stim/objects/Instruments/pipepiano.png",133,32,133,0.7,"stim/12.jpeg",1,2,2,NA,"Instruments",2,1,"right","right",0.771000147,1,1,1,1,NA,NA,NA,NA,NA,NA,NA,NA,NA,NA,NA,NA,NA,NA,NA,NA,NA,NA,NA,NA,NA,NA,NA,NA
"115","stim/objects/HouseObjects/rug2.png",134,32,134,0.9,"stim/44.jpeg",4,4,3,NA,"HouseObjects",1,4,"left","left",0.534000158,1,1,1,1,NA,NA,NA,NA,NA,NA,NA,NA,NA,NA,NA,NA,NA,NA,NA,NA,NA,NA,NA,NA,NA,NA,NA,NA
"149","stim/objects/Instruments/marimba.png",135,32,135,0.5,"stim/54.jpeg",5,4,1,NA,"Instruments",2,2,"right","left",0.567000151,0,0,1,1,NA,NA,NA,NA,NA,NA,NA,NA,NA,NA,NA,NA,NA,NA,NA,NA,NA,NA,NA,NA,NA,NA,NA,NA
"183","stim/objects/Instruments/musicstand.png",136,32,136,0.5,"stim/63.jpeg",6,3,1,NA,"Instruments",2,1,"right","right",0.580999851,1,1,1,1,NA,NA,NA,NA,NA,NA,NA,NA,NA,NA,NA,NA,NA,NA,NA,NA,NA,NA,NA,NA,NA,NA,NA,NA
"198","stim/objects/Instruments/oboe.png",137,32,137,0.5,"stim/64.jpeg",6,4,1,NA,"Instruments",2,3,"right","left",0.842999935,0,0,1,1,NA,NA,NA,NA,NA,NA,NA,NA,NA,NA,NA,NA,NA,NA,NA,NA,NA,NA,NA,NA,NA,NA,NA,NA
"101","stim/objects/HouseObjects/rubbergloves2.png",138,32,138,0.9,"stim/43.jpeg",4,3,3,NA,"HouseObjects",1,1,"left","left",0.450000048,1,1,1,1,NA,NA,NA,NA,NA,NA,NA,NA,NA,NA,NA,NA,NA,NA,NA,NA,NA,NA,NA,NA,NA,NA,NA,NA
"162","stim/objects/Instruments/metronome2.png",139,32,139,0.9,"stim/31.jpeg",3,1,3,NA,"Instruments",2,3,"right","right",0.575999975,1,1,1,1,NA,NA,NA,NA,NA,NA,NA,NA,NA,NA,NA,NA,NA,NA,NA,NA,NA,NA,NA,NA,NA,NA,NA,NA
"4","stim/objects/HouseObjects/iron.png",140,32,140,0.5,"stim/51.jpeg",5,1,1,NA,"HouseObjects",1,1,"left","left",0.567000151,1,1,1,1,NA,NA,NA,NA,NA,NA,NA,NA,NA,NA,NA,NA,NA,NA,NA,NA,NA,NA,NA,NA,NA,NA,NA,NA
"81","stim/objects/HouseObjects/recyclingbin2.png",141,32,141,0.9,"stim/41.jpeg",4,1,3,NA,"HouseObjects",1,1,"left","left",0.564999819,1,1,1,1,NA,NA,NA,NA,NA,NA,NA,NA,NA,NA,NA,NA,NA,NA,NA,NA,NA,NA,NA,NA,NA,NA,NA,NA
"140","stim/objects/Instruments/maraca.png",142,32,142,0.5,"stim/53.jpeg",5,3,1,NA,"Instruments",2,3,"right","right",0.786000013,1,1,1,1,NA,NA,NA,NA,NA,NA,NA,NA,NA,NA,NA,NA,NA,NA,NA,NA,NA,NA,NA,NA,NA,NA,NA,NA
"7","stim/objects/HouseObjects/iron2.png",143,32,143,0.7,"stim/21.jpeg",2,1,2,NA,"HouseObjects",1,1,"left","left",0.544999838,1,1,1,1,NA,NA,NA,NA,NA,NA,NA,NA,NA,NA,NA,NA,NA,NA,NA,NA,NA,NA,NA,NA,NA,NA,NA,NA
"131","stim/objects/Instruments/laud.png",144,32,144,0.5,"stim/52.jpeg",5,2,1,NA,"Instruments",2,4,"right","right",0.513999939,1,1,1,1,NA,NA,NA,NA,NA,NA,NA,NA,NA,NA,NA,NA,NA,NA,NA,NA,NA,NA,NA,NA,NA,NA,NA,NA
"116","stim/objects/HouseObjects/rug2.png",145,32,145,0.9,"stim/44.jpeg",4,4,3,NA,"HouseObjects",1,2,"left","left",0.475999832,1,1,1,1,NA,NA,NA,NA,NA,NA,NA,NA,NA,NA,NA,NA,NA,NA,NA,NA,NA,NA,NA,NA,NA,NA,NA,NA
"8","stim/objects/HouseObjects/iron2.png",146,32,146,0.7,"stim/21.jpeg",2,1,2,NA,"HouseObjects",1,1,"left","left",0.48300004,1,1,1,1,NA,NA,NA,NA,NA,NA,NA,NA,NA,NA,NA,NA,NA,NA,NA,NA,NA,NA,NA,NA,NA,NA,NA,NA
"22","stim/objects/HouseObjects/ironingboard2.png",147,32,147,0.7,"stim/22.jpeg",2,2,2,NA,"HouseObjects",1,4,"left","left",0.50999999,1,1,1,1,NA,NA,NA,NA,NA,NA,NA,NA,NA,NA,NA,NA,NA,NA,NA,NA,NA,NA,NA,NA,NA,NA,NA,NA
"47","stim/objects/HouseObjects/knife2.png",148,32,148,0.7,"stim/24.jpeg",2,4,2,NA,"HouseObjects",1,2,"left","right",0.515999794,0,0,1,1,NA,NA,NA,NA,NA,NA,NA,NA,NA,NA,NA,NA,NA,NA,NA,NA,NA,NA,NA,NA,NA,NA,NA,NA
"102","stim/objects/HouseObjects/rubbergloves2.png",149,32,149,0.9,"stim/43.jpeg",4,3,3,NA,"HouseObjects",1,3,"left","left",0.417999983,1,1,1,1,NA,NA,NA,NA,NA,NA,NA,NA,NA,NA,NA,NA,NA,NA,NA,NA,NA,NA,NA,NA,NA,NA,NA,NA
"95","stim/objects/HouseObjects/remote2.png",150,32,150,0.9,"stim/42.jpeg",4,2,3,NA,"HouseObjects",1,2,"left","left",0.528000116,1,1,1,1,NA,NA,NA,NA,NA,NA,NA,NA,NA,NA,NA,NA,NA,NA,NA,NA,NA,NA,NA,NA,NA,NA,NA,NA
"184","stim/objects/Instruments/musicstand.png",151,32,151,0.5,"stim/63.jpeg",6,3,1,NA,"Instruments",2,2,"right","right",0.616999865,1,1,1,1,NA,NA,NA,NA,NA,NA,NA,NA,NA,NA,NA,NA,NA,NA,NA,NA,NA,NA,NA,NA,NA,NA,NA,NA
"204","stim/objects/Instruments/oboe2.png",152,32,152,0.9,"stim/34.jpeg",3,4,3,NA,"Instruments",2,3,"right","right",0.544000149,1,1,1,1,NA,NA,NA,NA,NA,NA,NA,NA,NA,NA,NA,NA,NA,NA,NA,NA,NA,NA,NA,NA,NA,NA,NA,NA
"199","stim/objects/Instruments/oboe.png",153,32,153,0.5,"stim/64.jpeg",6,4,1,NA,"Instruments",2,3,"right","left",0.811000109,0,0,1,1,NA,NA,NA,NA,NA,NA,NA,NA,NA,NA,NA,NA,NA,NA,NA,NA,NA,NA,NA,NA,NA,NA,NA,NA
"135","stim/objects/Instruments/laud2.png",154,32,154,0.3,"stim/22.jpeg",2,2,2,NA,"Instruments",2,3,"right","left",0.552999973,0,0,1,1,NA,NA,NA,NA,NA,NA,NA,NA,NA,NA,NA,NA,NA,NA,NA,NA,NA,NA,NA,NA,NA,NA,NA,NA
"75","stim/objects/HouseObjects/recyclingbin.png",155,32,155,0.3,"stim/11.jpeg",1,1,2,NA,"HouseObjects",1,4,"left","left",0.736000061,1,1,1,1,NA,NA,NA,NA,NA,NA,NA,NA,NA,NA,NA,NA,NA,NA,NA,NA,NA,NA,NA,NA,NA,NA,NA,NA
"52","stim/objects/HouseObjects/lintroller.png",156,32,156,0.5,"stim/61.jpeg",6,1,1,NA,"HouseObjects",1,4,"left","right",0.750999928,0,0,1,1,NA,NA,NA,NA,NA,NA,NA,NA,NA,NA,NA,NA,NA,NA,NA,NA,NA,NA,NA,NA,NA,NA,NA,NA
"177","stim/objects/Instruments/musicsheet2.png",157,32,157,0.9,"stim/32.jpeg",3,2,3,NA,"Instruments",2,4,"right","right",0.580000162,1,1,1,1,NA,NA,NA,NA,NA,NA,NA,NA,NA,NA,NA,NA,NA,NA,NA,NA,NA,NA,NA,NA,NA,NA,NA,NA
"38","stim/objects/HouseObjects/knife.png",158,32,158,0.5,"stim/54.jpeg",5,4,1,NA,"HouseObjects",1,4,"left","right",0.938999891,0,0,1,1,NA,NA,NA,NA,NA,NA,NA,NA,NA,NA,NA,NA,NA,NA,NA,NA,NA,NA,NA,NA,NA,NA,NA,NA
"39","stim/objects/HouseObjects/knife.png",159,32,159,0.5,"stim/54.jpeg",5,4,1,NA,"HouseObjects",1,3,"left","left",0.518999815,1,1,1,1,NA,NA,NA,NA,NA,NA,NA,NA,NA,NA,NA,NA,NA,NA,NA,NA,NA,NA,NA,NA,NA,NA,NA,NA
"48","stim/objects/HouseObjects/knife2.png",160,32,160,0.7,"stim/24.jpeg",2,4,2,NA,"HouseObjects",1,4,"left","left",0.476000071,1,1,1,1,NA,NA,NA,NA,NA,NA,NA,NA,NA,NA,NA,NA,NA,NA,NA,NA,NA,NA,NA,NA,NA,NA,NA,NA
"60","stim/objects/HouseObjects/match2.png",161,32,161,0.1,"stim/32.jpeg",3,2,3,NA,"HouseObjects",1,4,"left","right",0.555999994,0,0,1,1,NA,NA,NA,NA,NA,NA,NA,NA,NA,NA,NA,NA,NA,NA,NA,NA,NA,NA,NA,NA,NA,NA,NA,NA
"156","stim/objects/Instruments/metronome.png",162,32,162,0.5,"stim/61.jpeg",6,1,1,NA,"Instruments",2,2,"right","right",0.625999928,1,1,1,1,NA,NA,NA,NA,NA,NA,NA,NA,NA,NA,NA,NA,NA,NA,NA,NA,NA,NA,NA,NA,NA,NA,NA,NA
"58","stim/objects/HouseObjects/match.png",163,32,163,0.5,"stim/62.jpeg",6,2,1,NA,"HouseObjects",1,1,"left","left",0.726000071,1,1,1,1,NA,NA,NA,NA,NA,NA,NA,NA,NA,NA,NA,NA,NA,NA,NA,NA,NA,NA,NA,NA,NA,NA,NA,NA
"54","stim/objects/HouseObjects/lintroller2.png",164,32,164,0.1,"stim/31.jpeg",3,1,3,NA,"HouseObjects",1,4,"left","right",0.50999999,0,0,1,1,NA,NA,NA,NA,NA,NA,NA,NA,NA,NA,NA,NA,NA,NA,NA,NA,NA,NA,NA,NA,NA,NA,NA,NA
"163","stim/objects/Instruments/metronome2.png",165,32,165,0.9,"stim/31.jpeg",3,1,3,NA,"Instruments",2,1,"right","right",0.521000147,1,1,1,1,NA,NA,NA,NA,NA,NA,NA,NA,NA,NA,NA,NA,NA,NA,NA,NA,NA,NA,NA,NA,NA,NA,NA,NA
"164","stim/objects/Instruments/metronome2.png",166,32,166,0.9,"stim/31.jpeg",3,1,3,NA,"Instruments",2,2,"right","right",0.388999939,1,1,1,1,NA,NA,NA,NA,NA,NA,NA,NA,NA,NA,NA,NA,NA,NA,NA,NA,NA,NA,NA,NA,NA,NA,NA,NA
"9","stim/objects/HouseObjects/iron2.png",167,32,167,0.7,"stim/21.jpeg",2,1,2,NA,"HouseObjects",1,1,"left","left",0.592000008,1,1,1,1,NA,NA,NA,NA,NA,NA,NA,NA,NA,NA,NA,NA,NA,NA,NA,NA,NA,NA,NA,NA,NA,NA,NA,NA
"99","stim/objects/HouseObjects/rubbergloves.png",168,32,168,0.3,"stim/13.jpeg",1,3,2,NA,"HouseObjects",1,1,"left","left",0.677999973,1,1,1,1,NA,NA,NA,NA,NA,NA,NA,NA,NA,NA,NA,NA,NA,NA,NA,NA,NA,NA,NA,NA,NA,NA,NA,NA
"220","stim/objects/Instruments/pipepiano.png",169,32,169,0.7,"stim/12.jpeg",1,2,2,NA,"Instruments",2,2,"right","left",0.667000055,0,0,1,1,NA,NA,NA,NA,NA,NA,NA,NA,NA,NA,NA,NA,NA,NA,NA,NA,NA,NA,NA,NA,NA,NA,NA,NA
"103","stim/objects/HouseObjects/rubbergloves2.png",170,32,170,0.9,"stim/43.jpeg",4,3,3,NA,"HouseObjects",1,2,"left","left",0.58100009,1,1,1,1,NA,NA,NA,NA,NA,NA,NA,NA,NA,NA,NA,NA,NA,NA,NA,NA,NA,NA,NA,NA,NA,NA,NA,NA
"96","stim/objects/HouseObjects/remote2.png",171,32,171,0.9,"stim/42.jpeg",4,2,3,NA,"HouseObjects",1,2,"left","left",0.527999878,1,1,1,1,NA,NA,NA,NA,NA,NA,NA,NA,NA,NA,NA,NA,NA,NA,NA,NA,NA,NA,NA,NA,NA,NA,NA,NA
"40","stim/objects/HouseObjects/knife.png",172,32,172,0.5,"stim/54.jpeg",5,4,1,NA,"HouseObjects",1,4,"left","left",0.556999922,1,1,1,1,NA,NA,NA,NA,NA,NA,NA,NA,NA,NA,NA,NA,NA,NA,NA,NA,NA,NA,NA,NA,NA,NA,NA,NA
"132","stim/objects/Instruments/laud.png",173,32,173,0.5,"stim/52.jpeg",5,2,1,NA,"Instruments",2,2,"right","left",0.45600009,0,0,1,1,NA,NA,NA,NA,NA,NA,NA,NA,NA,NA,NA,NA,NA,NA,NA,NA,NA,NA,NA,NA,NA,NA,NA,NA
"205","stim/objects/Instruments/oboe2.png",174,32,174,0.9,"stim/34.jpeg",3,4,3,NA,"Instruments",2,1,"right","right",0.64199996,1,1,1,1,NA,NA,NA,NA,NA,NA,NA,NA,NA,NA,NA,NA,NA,NA,NA,NA,NA,NA,NA,NA,NA,NA,NA,NA
"192","stim/objects/Instruments/musicstand2.png",175,32,175,0.9,"stim/33.jpeg",3,3,3,NA,"Instruments",2,3,"right","right",0.544000149,1,1,1,1,NA,NA,NA,NA,NA,NA,NA,NA,NA,NA,NA,NA,NA,NA,NA,NA,NA,NA,NA,NA,NA,NA,NA,NA
"236","stim/objects/Instruments/record.png",176,32,176,0.7,"stim/13.jpeg",1,3,2,NA,"Instruments",2,1,"right","left",0.638999939,0,0,1,1,NA,NA,NA,NA,NA,NA,NA,NA,NA,NA,NA,NA,NA,NA,NA,NA,NA,NA,NA,NA,NA,NA,NA,NA
"124","stim/objects/Instruments/keyboard.png",177,32,177,0.5,"stim/51.jpeg",5,1,1,NA,"Instruments",2,4,"right","right",0.747999907,1,1,1,1,NA,NA,NA,NA,NA,NA,NA,NA,NA,NA,NA,NA,NA,NA,NA,NA,NA,NA,NA,NA,NA,NA,NA,NA
"104","stim/objects/HouseObjects/rubbergloves2.png",178,32,178,0.9,"stim/43.jpeg",4,3,3,NA,"HouseObjects",1,4,"left","left",0.601999998,1,1,1,1,NA,NA,NA,NA,NA,NA,NA,NA,NA,NA,NA,NA,NA,NA,NA,NA,NA,NA,NA,NA,NA,NA,NA,NA
"128","stim/objects/Instruments/keyboard2.png",179,32,179,0.3,"stim/21.jpeg",2,1,2,NA,"Instruments",2,4,"right","left",0.552000046,0,0,1,1,NA,NA,NA,NA,NA,NA,NA,NA,NA,NA,NA,NA,NA,NA,NA,NA,NA,NA,NA,NA,NA,NA,NA,NA
"152","stim/objects/Instruments/marimba2.png",180,32,180,0.3,"stim/24.jpeg",2,4,2,NA,"Instruments",2,2,"right","left",0.43599987,0,0,1,1,NA,NA,NA,NA,NA,NA,NA,NA,NA,NA,NA,NA,NA,NA,NA,NA,NA,NA,NA,NA,NA,NA,NA,NA
"165","stim/objects/Instruments/metronome2.png",181,32,181,0.9,"stim/31.jpeg",3,1,3,NA,"Instruments",2,4,"right","right",0.547999859,1,1,1,1,NA,NA,NA,NA,NA,NA,NA,NA,NA,NA,NA,NA,NA,NA,NA,NA,NA,NA,NA,NA,NA,NA,NA,NA
"35","stim/objects/HouseObjects/key2.png",182,32,182,0.7,"stim/23.jpeg",2,3,2,NA,"HouseObjects",1,2,"left","left",0.611999989,1,1,1,1,NA,NA,NA,NA,NA,NA,NA,NA,NA,NA,NA,NA,NA,NA,NA,NA,NA,NA,NA,NA,NA,NA,NA,NA
"178","stim/objects/Instruments/musicsheet2.png",183,32,183,0.9,"stim/32.jpeg",3,2,3,NA,"Instruments",2,3,"right","right",0.671000004,1,1,1,1,NA,NA,NA,NA,NA,NA,NA,NA,NA,NA,NA,NA,NA,NA,NA,NA,NA,NA,NA,NA,NA,NA,NA,NA
"28","stim/objects/HouseObjects/key.png",184,32,184,0.5,"stim/53.jpeg",5,3,1,NA,"HouseObjects",1,1,"left","left",0.477999926,1,1,1,1,NA,NA,NA,NA,NA,NA,NA,NA,NA,NA,NA,NA,NA,NA,NA,NA,NA,NA,NA,NA,NA,NA,NA,NA
"133","stim/objects/Instruments/laud.png",185,32,185,0.5,"stim/52.jpeg",5,2,1,NA,"Instruments",2,4,"right","left",0.57400012,0,0,1,1,NA,NA,NA,NA,NA,NA,NA,NA,NA,NA,NA,NA,NA,NA,NA,NA,NA,NA,NA,NA,NA,NA,NA,NA
"169","stim/objects/Instruments/musicsheet.png",186,32,186,0.5,"stim/62.jpeg",6,2,1,NA,"Instruments",2,2,"right","right",0.585999966,1,1,1,1,NA,NA,NA,NA,NA,NA,NA,NA,NA,NA,NA,NA,NA,NA,NA,NA,NA,NA,NA,NA,NA,NA,NA,NA
"59","stim/objects/HouseObjects/match.png",187,32,187,0.5,"stim/62.jpeg",6,2,1,NA,"HouseObjects",1,4,"left","right",0.38499999,0,0,1,1,NA,NA,NA,NA,NA,NA,NA,NA,NA,NA,NA,NA,NA,NA,NA,NA,NA,NA,NA,NA,NA,NA,NA,NA
"215","stim/objects/Instruments/panflute.png",188,32,188,0.7,"stim/11.jpeg",1,1,2,NA,"Instruments",2,2,"right","left",0.598999977,0,0,1,1,NA,NA,NA,NA,NA,NA,NA,NA,NA,NA,NA,NA,NA,NA,NA,NA,NA,NA,NA,NA,NA,NA,NA,NA
"125","stim/objects/Instruments/keyboard.png",189,32,189,0.5,"stim/51.jpeg",5,1,1,NA,"Instruments",2,4,"right","left",0.577000141,0,0,1,1,NA,NA,NA,NA,NA,NA,NA,NA,NA,NA,NA,NA,NA,NA,NA,NA,NA,NA,NA,NA,NA,NA,NA,NA
"193","stim/objects/Instruments/musicstand2.png",190,32,190,0.9,"stim/33.jpeg",3,3,3,NA,"Instruments",2,2,"right","right",0.567000151,1,1,1,1,NA,NA,NA,NA,NA,NA,NA,NA,NA,NA,NA,NA,NA,NA,NA,NA,NA,NA,NA,NA,NA,NA,NA,NA
"166","stim/objects/Instruments/metronome2.png",191,32,191,0.9,"stim/31.jpeg",3,1,3,NA,"Instruments",2,3,"right","right",0.407999992,1,1,1,1,NA,NA,NA,NA,NA,NA,NA,NA,NA,NA,NA,NA,NA,NA,NA,NA,NA,NA,NA,NA,NA,NA,NA,NA
"82","stim/objects/HouseObjects/recyclingbin2.png",192,32,192,0.9,"stim/41.jpeg",4,1,3,NA,"HouseObjects",1,2,"left","left",0.644000053,1,1,1,1,NA,NA,NA,NA,NA,NA,NA,NA,NA,NA,NA,NA,NA,NA,NA,NA,NA,NA,NA,NA,NA,NA,NA,NA
"206","stim/objects/Instruments/oboe2.png",193,32,193,0.9,"stim/34.jpeg",3,4,3,NA,"Instruments",2,2,"right","right",0.585000038,1,1,1,1,NA,NA,NA,NA,NA,NA,NA,NA,NA,NA,NA,NA,NA,NA,NA,NA,NA,NA,NA,NA,NA,NA,NA,NA
"10","stim/objects/HouseObjects/iron2.png",194,32,194,0.7,"stim/21.jpeg",2,1,2,NA,"HouseObjects",1,2,"left","left",0.521000147,1,1,1,1,NA,NA,NA,NA,NA,NA,NA,NA,NA,NA,NA,NA,NA,NA,NA,NA,NA,NA,NA,NA,NA,NA,NA,NA
"170","stim/objects/Instruments/musicsheet.png",195,32,195,0.5,"stim/62.jpeg",6,2,1,NA,"Instruments",2,2,"right","right",0.699999809,1,1,1,1,NA,NA,NA,NA,NA,NA,NA,NA,NA,NA,NA,NA,NA,NA,NA,NA,NA,NA,NA,NA,NA,NA,NA,NA
"105","stim/objects/HouseObjects/rubbergloves2.png",196,32,196,0.9,"stim/43.jpeg",4,3,3,NA,"HouseObjects",1,1,"left","left",0.538999796,1,1,1,1,NA,NA,NA,NA,NA,NA,NA,NA,NA,NA,NA,NA,NA,NA,NA,NA,NA,NA,NA,NA,NA,NA,NA,NA
"117","stim/objects/HouseObjects/rug2.png",197,32,197,0.9,"stim/44.jpeg",4,4,3,NA,"HouseObjects",1,2,"left","left",0.587000132,1,1,1,1,NA,NA,NA,NA,NA,NA,NA,NA,NA,NA,NA,NA,NA,NA,NA,NA,NA,NA,NA,NA,NA,NA,NA,NA
"171","stim/objects/Instruments/musicsheet.png",198,32,198,0.5,"stim/62.jpeg",6,2,1,NA,"Instruments",2,1,"right","left",0.75999999,0,0,1,1,NA,NA,NA,NA,NA,NA,NA,NA,NA,NA,NA,NA,NA,NA,NA,NA,NA,NA,NA,NA,NA,NA,NA,NA
"230","stim/objects/Instruments/record_player.png",199,32,199,0.7,"stim/14.jpeg",1,4,2,NA,"Instruments",2,4,"right","right",0.914000034,1,1,1,1,NA,NA,NA,NA,NA,NA,NA,NA,NA,NA,NA,NA,NA,NA,NA,NA,NA,NA,NA,NA,NA,NA,NA,NA
"106","stim/objects/HouseObjects/rubbergloves2.png",200,32,200,0.9,"stim/43.jpeg",4,3,3,NA,"HouseObjects",1,4,"left","left",0.555999994,1,1,1,1,NA,NA,NA,NA,NA,NA,NA,NA,NA,NA,NA,NA,NA,NA,NA,NA,NA,NA,NA,NA,NA,NA,NA,NA
"207","stim/objects/Instruments/oboe2.png",201,32,201,0.9,"stim/34.jpeg",3,4,3,NA,"Instruments",2,4,"right","right",0.498000145,1,1,1,1,NA,NA,NA,NA,NA,NA,NA,NA,NA,NA,NA,NA,NA,NA,NA,NA,NA,NA,NA,NA,NA,NA,NA,NA
"237","stim/objects/Instruments/record.png",202,32,202,0.7,"stim/13.jpeg",1,3,2,NA,"Instruments",2,4,"right","left",0.559999943,0,0,1,1,NA,NA,NA,NA,NA,NA,NA,NA,NA,NA,NA,NA,NA,NA,NA,NA,NA,NA,NA,NA,NA,NA,NA,NA
"179","stim/objects/Instruments/musicsheet2.png",203,32,203,0.9,"stim/32.jpeg",3,2,3,NA,"Instruments",2,3,"right","right",0.455000162,1,1,1,1,NA,NA,NA,NA,NA,NA,NA,NA,NA,NA,NA,NA,NA,NA,NA,NA,NA,NA,NA,NA,NA,NA,NA,NA
"221","stim/objects/Instruments/pipepiano.png",204,32,204,0.7,"stim/12.jpeg",1,2,2,NA,"Instruments",2,1,"right","left",0.600999832,0,0,1,1,NA,NA,NA,NA,NA,NA,NA,NA,NA,NA,NA,NA,NA,NA,NA,NA,NA,NA,NA,NA,NA,NA,NA,NA
"11","stim/objects/HouseObjects/iron2.png",205,32,205,0.7,"stim/21.jpeg",2,1,2,NA,"HouseObjects",1,2,"left","left",0.546000004,1,1,1,1,NA,NA,NA,NA,NA,NA,NA,NA,NA,NA,NA,NA,NA,NA,NA,NA,NA,NA,NA,NA,NA,NA,NA,NA
"118","stim/objects/HouseObjects/rug2.png",206,32,206,0.9,"stim/44.jpeg",4,4,3,NA,"HouseObjects",1,4,"left","left",0.561000109,1,1,1,1,NA,NA,NA,NA,NA,NA,NA,NA,NA,NA,NA,NA,NA,NA,NA,NA,NA,NA,NA,NA,NA,NA,NA,NA
"64","stim/objects/HouseObjects/pan.png",207,32,207,0.5,"stim/63.jpeg",6,3,1,NA,"HouseObjects",1,1,"left","right",0.63499999,0,0,1,1,NA,NA,NA,NA,NA,NA,NA,NA,NA,NA,NA,NA,NA,NA,NA,NA,NA,NA,NA,NA,NA,NA,NA,NA
"238","stim/objects/Instruments/record.png",208,32,208,0.7,"stim/13.jpeg",1,3,2,NA,"Instruments",2,1,"right","left",0.544999838,0,0,1,1,NA,NA,NA,NA,NA,NA,NA,NA,NA,NA,NA,NA,NA,NA,NA,NA,NA,NA,NA,NA,NA,NA,NA,NA
"111","stim/objects/HouseObjects/rug.png",209,32,209,0.3,"stim/14.jpeg",1,4,2,NA,"HouseObjects",1,4,"left","left",0.659999847,1,1,1,1,NA,NA,NA,NA,NA,NA,NA,NA,NA,NA,NA,NA,NA,NA,NA,NA,NA,NA,NA,NA,NA,NA,NA,NA
"119","stim/objects/HouseObjects/rug2.png",210,32,210,0.9,"stim/44.jpeg",4,4,3,NA,"HouseObjects",1,4,"left","left",0.55099988,1,1,1,1,NA,NA,NA,NA,NA,NA,NA,NA,NA,NA,NA,NA,NA,NA,NA,NA,NA,NA,NA,NA,NA,NA,NA,NA
"232","stim/objects/Instruments/record_player2.png",211,32,211,0.1,"stim/44.jpeg",4,4,3,NA,"Instruments",2,3,"right","left",0.755000114,0,0,1,1,NA,NA,NA,NA,NA,NA,NA,NA,NA,NA,NA,NA,NA,NA,NA,NA,NA,NA,NA,NA,NA,NA,NA,NA
"17","stim/objects/HouseObjects/ironingboard.png",212,32,212,0.5,"stim/52.jpeg",5,2,1,NA,"HouseObjects",1,2,"left","left",0.654000044,1,1,1,1,NA,NA,NA,NA,NA,NA,NA,NA,NA,NA,NA,NA,NA,NA,NA,NA,NA,NA,NA,NA,NA,NA,NA,NA
"208","stim/objects/Instruments/oboe2.png",213,32,213,0.9,"stim/34.jpeg",3,4,3,NA,"Instruments",2,2,"right","right",0.674999952,1,1,1,1,NA,NA,NA,NA,NA,NA,NA,NA,NA,NA,NA,NA,NA,NA,NA,NA,NA,NA,NA,NA,NA,NA,NA,NA
"53","stim/objects/HouseObjects/lintroller.png",214,32,214,0.5,"stim/61.jpeg",6,1,1,NA,"HouseObjects",1,2,"left","right",0.752000093,0,0,1,1,NA,NA,NA,NA,NA,NA,NA,NA,NA,NA,NA,NA,NA,NA,NA,NA,NA,NA,NA,NA,NA,NA,NA,NA
"120","stim/objects/HouseObjects/rug2.png",215,32,215,0.9,"stim/44.jpeg",4,4,3,NA,"HouseObjects",1,2,"left","left",0.517000198,1,1,1,1,NA,NA,NA,NA,NA,NA,NA,NA,NA,NA,NA,NA,NA,NA,NA,NA,NA,NA,NA,NA,NA,NA,NA,NA
"136","stim/objects/Instruments/laud2.png",216,32,216,0.3,"stim/22.jpeg",2,2,2,NA,"Instruments",2,4,"right","left",0.539000034,0,0,1,1,NA,NA,NA,NA,NA,NA,NA,NA,NA,NA,NA,NA,NA,NA,NA,NA,NA,NA,NA,NA,NA,NA,NA,NA
"23","stim/objects/HouseObjects/ironingboard2.png",217,32,217,0.7,"stim/22.jpeg",2,2,2,NA,"HouseObjects",1,4,"left","left",0.655999899,1,1,1,1,NA,NA,NA,NA,NA,NA,NA,NA,NA,NA,NA,NA,NA,NA,NA,NA,NA,NA,NA,NA,NA,NA,NA,NA
"222","stim/objects/Instruments/pipepiano.png",218,32,218,0.7,"stim/12.jpeg",1,2,2,NA,"Instruments",2,3,"right","left",0.625,0,0,1,1,NA,NA,NA,NA,NA,NA,NA,NA,NA,NA,NA,NA,NA,NA,NA,NA,NA,NA,NA,NA,NA,NA,NA,NA
"239","stim/objects/Instruments/record.png",219,32,219,0.7,"stim/13.jpeg",1,3,2,NA,"Instruments",2,4,"right","left",0.667000055,0,0,1,1,NA,NA,NA,NA,NA,NA,NA,NA,NA,NA,NA,NA,NA,NA,NA,NA,NA,NA,NA,NA,NA,NA,NA,NA
"5","stim/objects/HouseObjects/iron.png",220,32,220,0.5,"stim/51.jpeg",5,1,1,NA,"HouseObjects",1,1,"left","right",0.592999935,0,0,1,1,NA,NA,NA,NA,NA,NA,NA,NA,NA,NA,NA,NA,NA,NA,NA,NA,NA,NA,NA,NA,NA,NA,NA,NA
"24","stim/objects/HouseObjects/ironingboard2.png",221,32,221,0.7,"stim/22.jpeg",2,2,2,NA,"HouseObjects",1,3,"left","left",0.697999954,1,1,1,1,NA,NA,NA,NA,NA,NA,NA,NA,NA,NA,NA,NA,NA,NA,NA,NA,NA,NA,NA,NA,NA,NA,NA,NA
"240","stim/objects/Instruments/record2.png",222,32,222,0.1,"stim/43.jpeg",4,3,3,NA,"Instruments",2,3,"right","left",0.634000063,0,0,1,1,NA,NA,NA,NA,NA,NA,NA,NA,NA,NA,NA,NA,NA,NA,NA,NA,NA,NA,NA,NA,NA,NA,NA,NA
"29","stim/objects/HouseObjects/key.png",223,32,223,0.5,"stim/53.jpeg",5,3,1,NA,"HouseObjects",1,3,"left","left",0.88499999,1,1,1,1,NA,NA,NA,NA,NA,NA,NA,NA,NA,NA,NA,NA,NA,NA,NA,NA,NA,NA,NA,NA,NA,NA,NA,NA
"141","stim/objects/Instruments/maraca.png",224,32,224,0.5,"stim/53.jpeg",5,3,1,NA,"Instruments",2,3,"right","left",0.501999855,0,0,1,1,NA,NA,NA,NA,NA,NA,NA,NA,NA,NA,NA,NA,NA,NA,NA,NA,NA,NA,NA,NA,NA,NA,NA,NA
"185","stim/objects/Instruments/musicstand.png",225,32,225,0.5,"stim/63.jpeg",6,3,1,NA,"Instruments",2,1,"right","left",0.775000095,0,0,1,1,NA,NA,NA,NA,NA,NA,NA,NA,NA,NA,NA,NA,NA,NA,NA,NA,NA,NA,NA,NA,NA,NA,NA,NA
"12","stim/objects/HouseObjects/iron2.png",226,32,226,0.7,"stim/21.jpeg",2,1,2,NA,"HouseObjects",1,3,"left","left",0.534000158,1,1,1,1,NA,NA,NA,NA,NA,NA,NA,NA,NA,NA,NA,NA,NA,NA,NA,NA,NA,NA,NA,NA,NA,NA,NA,NA
"107","stim/objects/HouseObjects/rubbergloves2.png",227,32,227,0.9,"stim/43.jpeg",4,3,3,NA,"HouseObjects",1,2,"left","left",0.535000086,1,1,1,1,NA,NA,NA,NA,NA,NA,NA,NA,NA,NA,NA,NA,NA,NA,NA,NA,NA,NA,NA,NA,NA,NA,NA,NA
"83","stim/objects/HouseObjects/recyclingbin2.png",228,32,228,0.9,"stim/41.jpeg",4,1,3,NA,"HouseObjects",1,3,"left","left",0.539000034,1,1,1,1,NA,NA,NA,NA,NA,NA,NA,NA,NA,NA,NA,NA,NA,NA,NA,NA,NA,NA,NA,NA,NA,NA,NA,NA
"194","stim/objects/Instruments/musicstand2.png",229,32,229,0.9,"stim/33.jpeg",3,3,3,NA,"Instruments",2,1,"right","right",0.56099987,1,1,1,1,NA,NA,NA,NA,NA,NA,NA,NA,NA,NA,NA,NA,NA,NA,NA,NA,NA,NA,NA,NA,NA,NA,NA,NA
"108","stim/objects/HouseObjects/rubbergloves2.png",230,32,230,0.9,"stim/43.jpeg",4,3,3,NA,"HouseObjects",1,3,"left","left",0.631999969,1,1,1,1,NA,NA,NA,NA,NA,NA,NA,NA,NA,NA,NA,NA,NA,NA,NA,NA,NA,NA,NA,NA,NA,NA,NA,NA
"144","stim/objects/Instruments/maraca2.png",231,32,231,0.3,"stim/23.jpeg",2,3,2,NA,"Instruments",2,1,"right","left",0.523000002,0,0,1,1,NA,NA,NA,NA,NA,NA,NA,NA,NA,NA,NA,NA,NA,NA,NA,NA,NA,NA,NA,NA,NA,NA,NA,NA
"180","stim/objects/Instruments/musicsheet2.png",232,32,232,0.9,"stim/32.jpeg",3,2,3,NA,"Instruments",2,4,"right","right",0.578999996,1,1,1,1,NA,NA,NA,NA,NA,NA,NA,NA,NA,NA,NA,NA,NA,NA,NA,NA,NA,NA,NA,NA,NA,NA,NA,NA
"157","stim/objects/Instruments/metronome.png",233,32,233,0.5,"stim/61.jpeg",6,1,1,NA,"Instruments",2,1,"right","right",0.635999918,1,1,1,1,NA,NA,NA,NA,NA,NA,NA,NA,NA,NA,NA,NA,NA,NA,NA,NA,NA,NA,NA,NA,NA,NA,NA,NA
"65","stim/objects/HouseObjects/pan.png",234,32,234,0.5,"stim/63.jpeg",6,3,1,NA,"HouseObjects",1,4,"left","right",0.461000204,0,0,1,1,NA,NA,NA,NA,NA,NA,NA,NA,NA,NA,NA,NA,NA,NA,NA,NA,NA,NA,NA,NA,NA,NA,NA,NA
"41","stim/objects/HouseObjects/knife.png",235,32,235,0.5,"stim/54.jpeg",5,4,1,NA,"HouseObjects",1,2,"left","left",0.539000034,1,1,1,1,NA,NA,NA,NA,NA,NA,NA,NA,NA,NA,NA,NA,NA,NA,NA,NA,NA,NA,NA,NA,NA,NA,NA,NA
"36","stim/objects/HouseObjects/key2.png",236,32,236,0.7,"stim/23.jpeg",2,3,2,NA,"HouseObjects",1,3,"left","left",0.468999863,1,1,1,1,NA,NA,NA,NA,NA,NA,NA,NA,NA,NA,NA,NA,NA,NA,NA,NA,NA,NA,NA,NA,NA,NA,NA,NA
"223","stim/objects/Instruments/pipepiano.png",237,32,237,0.7,"stim/12.jpeg",1,2,2,NA,"Instruments",2,3,"right","left",0.83100009,0,0,1,1,NA,NA,NA,NA,NA,NA,NA,NA,NA,NA,NA,NA,NA,NA,NA,NA,NA,NA,NA,NA,NA,NA,NA,NA
"84","stim/objects/HouseObjects/recyclingbin2.png",238,32,238,0.9,"stim/41.jpeg",4,1,3,NA,"HouseObjects",1,3,"left","left",0.5400002,1,1,1,1,NA,NA,NA,NA,NA,NA,NA,NA,NA,NA,NA,NA,NA,NA,NA,NA,NA,NA,NA,NA,NA,NA,NA,NA
"72","stim/objects/HouseObjects/pitcher2.png",239,32,239,0.1,"stim/34.jpeg",3,4,3,NA,"HouseObjects",1,3,"left","right",0.654000044,0,0,1,1,NA,NA,NA,NA,NA,NA,NA,NA,NA,NA,NA,NA,NA,NA,NA,NA,NA,NA,NA,NA,NA,NA,NA,NA
"231","stim/objects/Instruments/record_player.png",240,32,240,0.7,"stim/14.jpeg",1,4,2,NA,"Instruments",2,3,"right","left",0.53000021,0,0,1,1,NA,NA,NA,NA,NA,NA,NA,NA,NA,NA,NA,NA,NA,NA,NA,NA,NA,NA,NA,NA,NA,NA,NA,NA
"283","stim/objects/HouseObjects/cushion.png",248,32,241,0.7,"stim/21.jpeg",2,1,2,2,"HouseObjects",1,2,"left","",NA,0,0,1,0,NA,NA,NA,NA,NA,NA,NA,NA,NA,NA,NA,NA,NA,NA,NA,NA,NA,NA,NA,NA,NA,NA,NA,NA
"540","stim/objects/Instruments/grandpiano2.png",249,32,242,0.9,"stim/33.jpeg",3,3,3,1,"Instruments",2,2,"right","right",0.570999861,1,1,1,0,58,32,1,0.9,2,"stim/33.jpeg",3,3,"stim/33.jpeg",2,"left",2.588000298,4,1,2.052000046,2,0.802999973,58,1,0,0,1,1,1
"473","stim/objects/Instruments/flutetrans.png",250,32,243,0.9,"stim/34.jpeg",3,4,3,2,"Instruments",2,3,"right","left",0.549999952,0,0,1,0,NA,NA,NA,NA,NA,NA,NA,NA,NA,NA,NA,NA,NA,NA,NA,NA,NA,NA,NA,NA,NA,NA,NA,NA
"284","stim/objects/HouseObjects/cushion.png",251,32,244,0.7,"stim/22.jpeg",2,2,2,2,"HouseObjects",1,3,"left","left",0.772000074,1,1,1,0,NA,NA,NA,NA,NA,NA,NA,NA,NA,NA,NA,NA,NA,NA,NA,NA,NA,NA,NA,NA,NA,NA,NA,NA
"249","stim/objects/HouseObjects/barbecuelighter2.png",252,32,245,0.3,"stim/14.jpeg",1,4,2,1,"HouseObjects",1,3,"left","right",0.748999834,0,0,1,0,82,32,1,0.3,1,"stim/14.jpeg",1,4,"stim/14.jpeg",3,"left",1.589000225,4,1,1.361000061,3,0.71900034,82,1,0,0,1,1,1
"444","stim/objects/Instruments/drums.png",253,32,246,0.7,"stim/12.jpeg",1,2,2,2,"Instruments",2,4,"right","left",0.824999809,0,0,1,0,NA,NA,NA,NA,NA,NA,NA,NA,NA,NA,NA,NA,NA,NA,NA,NA,NA,NA,NA,NA,NA,NA,NA,NA
"343","stim/objects/HouseObjects/garbagebin.png",254,32,247,0.9,"stim/44.jpeg",4,4,3,2,"HouseObjects",1,1,"left","left",0.681999922,1,1,1,0,NA,NA,NA,NA,NA,NA,NA,NA,NA,NA,NA,NA,NA,NA,NA,NA,NA,NA,NA,NA,NA,NA,NA,NA
"490","stim/objects/Instruments/frenchhorn.png",255,32,248,0.9,"stim/31.jpeg",3,1,3,2,"Instruments",2,1,"right","right",0.496000051,1,1,1,0,NA,NA,NA,NA,NA,NA,NA,NA,NA,NA,NA,NA,NA,NA,NA,NA,NA,NA,NA,NA,NA,NA,NA,NA
"380","stim/objects/HouseObjects/handbrush.png",256,32,249,0.5,"stim/51.jpeg",5,1,1,1,"HouseObjects",1,1,"left","right",0.669000149,0,0,1,0,9,32,1,0.5,1,"stim/51.jpeg",5,1,"stim/51.jpeg",1,"left",0.720000029,4,1,2.550000191,1,1.437000036,9,1,1,1,1,1,1
"359","stim/objects/HouseObjects/glass.png",257,32,250,0.9,"stim/44.jpeg",4,4,3,2,"HouseObjects",1,3,"left","left",0.563999891,1,1,1,0,NA,NA,NA,NA,NA,NA,NA,NA,NA,NA,NA,NA,NA,NA,NA,NA,NA,NA,NA,NA,NA,NA,NA,NA
"309","stim/objects/HouseObjects/dustpan.png",258,32,251,0.9,"stim/42.jpeg",4,2,3,2,"HouseObjects",1,3,"left","left",0.614000082,1,1,1,0,NA,NA,NA,NA,NA,NA,NA,NA,NA,NA,NA,NA,NA,NA,NA,NA,NA,NA,NA,NA,NA,NA,NA,NA
"389","stim/objects/HouseObjects/scale2.png",259,32,252,0.9,"stim/42.jpeg",4,2,3,1,"HouseObjects",1,4,"left","left",0.537000179,1,1,1,0,24,32,1,0.9,1,"stim/42.jpeg",4,2,"stim/42.jpeg",4,"left",1.006000042,4,3,1.471000195,4,0.312000275,24,1,0,0,1,1,1
"255","stim/objects/HouseObjects/bleachbottle2.png",260,32,253,0.3,"stim/12.jpeg",1,2,2,1,"HouseObjects",1,4,"left","right",0.637000084,0,0,1,0,88,32,1,0.3,1,"stim/12.jpeg",1,2,"stim/12.jpeg",4,"right",0.571000099,4,4,0.678000212,4,0.1650002,88,0,0,NA,1,NA,1
"344","stim/objects/HouseObjects/garbagebin.png",261,32,254,0.9,"stim/42.jpeg",4,2,3,2,"HouseObjects",1,4,"left","left",0.605000019,1,1,1,0,NA,NA,NA,NA,NA,NA,NA,NA,NA,NA,NA,NA,NA,NA,NA,NA,NA,NA,NA,NA,NA,NA,NA,NA
"474","stim/objects/Instruments/flutetrans.png",262,32,255,0.9,"stim/31.jpeg",3,1,3,2,"Instruments",2,4,"right","right",0.493000031,1,1,1,0,NA,NA,NA,NA,NA,NA,NA,NA,NA,NA,NA,NA,NA,NA,NA,NA,NA,NA,NA,NA,NA,NA,NA,NA
"270","stim/objects/HouseObjects/clock2.png",263,32,256,0.7,"stim/24.jpeg",2,4,2,1,"HouseObjects",1,3,"left","left",0.527999878,1,1,1,0,77,32,1,0.7,1,"stim/24.jpeg",2,4,"stim/24.jpeg",3,"left",0.887000084,4,4,0.45600009,3,2.67200017,77,1,1,1,1,1,1
"491","stim/objects/Instruments/frenchhorn.png",264,32,257,0.9,"stim/33.jpeg",3,3,3,2,"Instruments",2,1,"right","right",0.601999998,1,1,1,0,NA,NA,NA,NA,NA,NA,NA,NA,NA,NA,NA,NA,NA,NA,NA,NA,NA,NA,NA,NA,NA,NA,NA,NA
"391","stim/objects/HouseObjects/sponge2.png",265,32,258,0.9,"stim/43.jpeg",4,3,3,1,"HouseObjects",1,4,"left","left",0.585000038,1,1,1,0,157,32,1,0.9,1,"stim/43.jpeg",4,3,"stim/43.jpeg",4,"right",1.072000027,4,4,0.414999962,4,0.433000088,157,0,0,NA,1,NA,1
"325","stim/objects/HouseObjects/flyswatter.png",266,32,259,0.9,"stim/42.jpeg",4,2,3,2,"HouseObjects",1,2,"left","left",0.822999954,1,1,1,0,NA,NA,NA,NA,NA,NA,NA,NA,NA,NA,NA,NA,NA,NA,NA,NA,NA,NA,NA,NA,NA,NA,NA,NA
"427","stim/objects/Instruments/chime.png",267,32,260,0.5,"stim/61.jpeg",6,1,1,2,"Instruments",2,3,"right","right",0.709000111,1,1,1,0,NA,NA,NA,NA,NA,NA,NA,NA,NA,NA,NA,NA,NA,NA,NA,NA,NA,NA,NA,NA,NA,NA,NA,NA
"492","stim/objects/Instruments/frenchhorn.png",268,32,261,0.9,"stim/32.jpeg",3,2,3,2,"Instruments",2,2,"right","right",0.521000147,1,1,1,0,NA,NA,NA,NA,NA,NA,NA,NA,NA,NA,NA,NA,NA,NA,NA,NA,NA,NA,NA,NA,NA,NA,NA,NA
"493","stim/objects/Instruments/frenchhorn.png",269,32,262,0.9,"stim/32.jpeg",3,2,3,2,"Instruments",2,1,"right","right",0.51699996,1,1,1,0,NA,NA,NA,NA,NA,NA,NA,NA,NA,NA,NA,NA,NA,NA,NA,NA,NA,NA,NA,NA,NA,NA,NA,NA
"292","stim/objects/HouseObjects/doormat.png",270,32,263,0.9,"stim/42.jpeg",4,2,3,2,"HouseObjects",1,1,"left","left",0.578999996,1,1,1,0,NA,NA,NA,NA,NA,NA,NA,NA,NA,NA,NA,NA,NA,NA,NA,NA,NA,NA,NA,NA,NA,NA,NA,NA
"398","stim/objects/HouseObjects/thread.png",271,32,264,0.3,"stim/12.jpeg",1,2,2,1,"HouseObjects",1,3,"left","left",0.475000143,1,1,1,0,155,32,1,0.3,1,"stim/12.jpeg",1,2,"stim/12.jpeg",3,"right",1.18200016,4,4,0.158000231,4,0.376000166,155,0,0,NA,0,NA,1
"550","stim/objects/Instruments/saxophone2.png",272,32,265,0.9,"stim/34.jpeg",3,4,3,1,"Instruments",2,2,"right","right",0.572000027,1,1,1,0,94,32,1,0.9,2,"stim/34.jpeg",3,4,"stim/34.jpeg",2,"right",1.856000185,4,4,0.183000088,4,0.343000174,94,0,1,NA,0,NA,1
"558","stim/objects/Instruments/triangle2.png",273,32,266,0.1,"stim/42.jpeg",4,2,3,1,"Instruments",2,1,"right","left",0.540999889,0,0,1,0,121,32,1,0.1,2,"stim/42.jpeg",4,2,"stim/42.jpeg",1,"left",1.301000118,4,2,5.641000271,2,1.374000072,121,1,1,1,0,0,1
"387","stim/objects/HouseObjects/saw2.png",274,32,267,0.9,"stim/41.jpeg",4,1,3,1,"HouseObjects",1,3,"left","left",0.580999851,1,1,1,0,171,32,1,0.9,1,"stim/41.jpeg",4,1,"stim/41.jpeg",3,"left",1.499000311,3,1,1.776000261,2,0.696000099,171,1,1,1,0,0,1
"376","stim/objects/HouseObjects/glassmop.png",275,32,268,0.5,"stim/53.jpeg",5,3,1,1,"HouseObjects",1,3,"left","left",0.549000025,1,1,1,0,37,32,1,0.5,1,"stim/53.jpeg",5,3,"stim/53.jpeg",3,"right",1.036000252,3,4,1.542000055,4,0.406000137,37,0,0,NA,0,NA,1
"326","stim/objects/HouseObjects/flyswatter.png",276,32,269,0.9,"stim/42.jpeg",4,2,3,2,"HouseObjects",1,3,"left","left",0.495000124,1,1,1,0,NA,NA,NA,NA,NA,NA,NA,NA,NA,NA,NA,NA,NA,NA,NA,NA,NA,NA,NA,NA,NA,NA,NA,NA
"509","stim/objects/Instruments/gong.png",277,32,270,0.9,"stim/32.jpeg",3,2,3,2,"Instruments",2,1,"right","right",0.484000206,1,1,1,0,NA,NA,NA,NA,NA,NA,NA,NA,NA,NA,NA,NA,NA,NA,NA,NA,NA,NA,NA,NA,NA,NA,NA,NA
"451","stim/objects/Instruments/electricdrumset2.png",278,32,271,0.3,"stim/22.jpeg",2,2,2,1,"Instruments",2,2,"right","left",0.41899991,0,0,1,0,115,32,1,0.3,2,"stim/22.jpeg",2,2,"stim/22.jpeg",2,"left",0.778000116,4,3,6.874000072,4,1.177000284,115,1,0,0,0,0,1
"310","stim/objects/HouseObjects/dustpan.png",279,32,272,0.9,"stim/43.jpeg",4,3,3,2,"HouseObjects",1,2,"left","left",0.615999937,1,1,1,0,NA,NA,NA,NA,NA,NA,NA,NA,NA,NA,NA,NA,NA,NA,NA,NA,NA,NA,NA,NA,NA,NA,NA,NA
"243","stim/objects/HouseObjects/ashtray2.png",280,32,273,0.3,"stim/12.jpeg",1,2,2,1,"HouseObjects",1,2,"left","left",0.565000057,1,1,1,0,17,32,1,0.3,1,"stim/12.jpeg",1,2,"stim/12.jpeg",2,"left",1.197000027,4,2,2.065999985,2,0.708000183,17,1,1,1,1,1,1
"262","stim/objects/HouseObjects/broom.png",281,32,274,0.5,"stim/62.jpeg",6,2,1,2,"HouseObjects",1,2,"left","right",0.717999935,0,0,1,0,NA,NA,NA,NA,NA,NA,NA,NA,NA,NA,NA,NA,NA,NA,NA,NA,NA,NA,NA,NA,NA,NA,NA,NA
"272","stim/objects/HouseObjects/clothesdryingrack.png",282,32,275,0.7,"stim/22.jpeg",2,2,2,2,"HouseObjects",1,1,"left","left",0.503000021,1,1,1,0,NA,NA,NA,NA,NA,NA,NA,NA,NA,NA,NA,NA,NA,NA,NA,NA,NA,NA,NA,NA,NA,NA,NA,NA
"420","stim/objects/Instruments/bassdrum2.png",283,32,276,0.7,"stim/13.jpeg",1,3,2,1,"Instruments",2,1,"right","left",0.503999949,0,0,1,0,42,32,1,0.7,2,"stim/13.jpeg",1,3,"stim/13.jpeg",1,"left",0.869000196,4,2,1.65500021,4,0.499000072,42,1,0,0,0,0,1
"447","stim/objects/Instruments/drums2.png",284,32,277,0.3,"stim/21.jpeg",2,1,2,1,"Instruments",2,3,"right","left",0.551999807,0,0,1,0,140,32,1,0.3,2,"stim/21.jpeg",2,1,"stim/21.jpeg",3,"left",3.529000044,4,1,1.480000257,4,0.553000212,140,1,1,1,0,0,1
"294","stim/objects/HouseObjects/doormat.png",285,32,278,0.9,"stim/41.jpeg",4,1,3,2,"HouseObjects",1,4,"left","left",0.460999966,1,1,1,0,NA,NA,NA,NA,NA,NA,NA,NA,NA,NA,NA,NA,NA,NA,NA,NA,NA,NA,NA,NA,NA,NA,NA,NA
"311","stim/objects/HouseObjects/dustpan.png",286,32,279,0.9,"stim/44.jpeg",4,4,3,2,"HouseObjects",1,3,"left","right",0.593999863,0,0,1,0,NA,NA,NA,NA,NA,NA,NA,NA,NA,NA,NA,NA,NA,NA,NA,NA,NA,NA,NA,NA,NA,NA,NA,NA
"430","stim/objects/Instruments/clarinet.png",287,32,280,0.5,"stim/61.jpeg",6,1,1,2,"Instruments",2,4,"right","left",0.58100009,0,0,1,0,NA,NA,NA,NA,NA,NA,NA,NA,NA,NA,NA,NA,NA,NA,NA,NA,NA,NA,NA,NA,NA,NA,NA,NA
"440","stim/objects/Instruments/doublebass.png",288,32,281,0.7,"stim/11.jpeg",1,1,2,2,"Instruments",2,1,"right","right",0.829999924,1,1,1,0,NA,NA,NA,NA,NA,NA,NA,NA,NA,NA,NA,NA,NA,NA,NA,NA,NA,NA,NA,NA,NA,NA,NA,NA
"273","stim/objects/HouseObjects/clothesdryingrack.png",289,32,282,0.7,"stim/23.jpeg",2,3,2,2,"HouseObjects",1,4,"left","right",0.452000141,0,0,1,0,NA,NA,NA,NA,NA,NA,NA,NA,NA,NA,NA,NA,NA,NA,NA,NA,NA,NA,NA,NA,NA,NA,NA,NA
"551","stim/objects/Instruments/speaker.png",290,32,283,0.5,"stim/64.jpeg",6,4,1,1,"Instruments",2,1,"right","right",0.621999979,1,1,1,0,126,32,1,0.5,2,"stim/64.jpeg",6,4,"stim/64.jpeg",1,"left",0.80700016,4,1,2.729000092,1,1.271000147,126,1,0,0,1,1,1
"248","stim/objects/HouseObjects/barbecuelighter.png",291,32,284,0.5,"stim/54.jpeg",5,4,1,2,"HouseObjects",1,2,"left","left",0.488999844,1,1,1,0,NA,NA,NA,NA,NA,NA,NA,NA,NA,NA,NA,NA,NA,NA,NA,NA,NA,NA,NA,NA,NA,NA,NA,NA
"400","stim/objects/HouseObjects/towel.png",292,32,285,0.3,"stim/13.jpeg",1,3,2,1,"HouseObjects",1,1,"left","left",0.61500001,1,1,1,0,109,32,1,0.3,1,"stim/13.jpeg",1,3,"stim/13.jpeg",1,"right",2.054000139,4,4,0.179000139,4,0.412000179,109,0,0,NA,0,NA,1
"433","stim/objects/Instruments/cornet.png",293,32,286,0.5,"stim/63.jpeg",6,3,1,2,"Instruments",2,1,"right","right",0.536999941,1,1,1,0,NA,NA,NA,NA,NA,NA,NA,NA,NA,NA,NA,NA,NA,NA,NA,NA,NA,NA,NA,NA,NA,NA,NA,NA
"525","stim/objects/Instruments/grandpiano.png",294,32,287,0.9,"stim/31.jpeg",3,1,3,2,"Instruments",2,3,"right","right",0.500999928,1,1,1,0,NA,NA,NA,NA,NA,NA,NA,NA,NA,NA,NA,NA,NA,NA,NA,NA,NA,NA,NA,NA,NA,NA,NA,NA
"312","stim/objects/HouseObjects/dustpan.png",295,32,288,0.9,"stim/43.jpeg",4,3,3,2,"HouseObjects",1,2,"left","left",0.643000126,1,1,1,0,NA,NA,NA,NA,NA,NA,NA,NA,NA,NA,NA,NA,NA,NA,NA,NA,NA,NA,NA,NA,NA,NA,NA,NA
"424","stim/objects/Instruments/cello.png",296,32,289,0.5,"stim/64.jpeg",6,4,1,2,"Instruments",2,4,"right","left",0.593000174,0,0,1,0,NA,NA,NA,NA,NA,NA,NA,NA,NA,NA,NA,NA,NA,NA,NA,NA,NA,NA,NA,NA,NA,NA,NA,NA
"329","stim/objects/HouseObjects/flyswatter.png",297,32,290,0.9,"stim/44.jpeg",4,4,3,2,"HouseObjects",1,3,"left","right",0.35800004,0,0,1,0,NA,NA,NA,NA,NA,NA,NA,NA,NA,NA,NA,NA,NA,NA,NA,NA,NA,NA,NA,NA,NA,NA,NA,NA
"346","stim/objects/HouseObjects/garbagebin.png",298,32,291,0.9,"stim/43.jpeg",4,3,3,2,"HouseObjects",1,2,"left","left",0.458999872,1,1,1,0,NA,NA,NA,NA,NA,NA,NA,NA,NA,NA,NA,NA,NA,NA,NA,NA,NA,NA,NA,NA,NA,NA,NA,NA
"526","stim/objects/Instruments/grandpiano.png",299,32,292,0.9,"stim/32.jpeg",3,2,3,2,"Instruments",2,1,"right","right",0.43200016,1,1,1,0,NA,NA,NA,NA,NA,NA,NA,NA,NA,NA,NA,NA,NA,NA,NA,NA,NA,NA,NA,NA,NA,NA,NA,NA
"527","stim/objects/Instruments/grandpiano.png",300,32,293,0.9,"stim/31.jpeg",3,1,3,2,"Instruments",2,2,"right","left",0.490999937,0,0,1,0,NA,NA,NA,NA,NA,NA,NA,NA,NA,NA,NA,NA,NA,NA,NA,NA,NA,NA,NA,NA,NA,NA,NA,NA
"475","stim/objects/Instruments/flutetrans.png",301,32,294,0.9,"stim/32.jpeg",3,2,3,2,"Instruments",2,1,"right","right",0.558000088,1,1,1,0,NA,NA,NA,NA,NA,NA,NA,NA,NA,NA,NA,NA,NA,NA,NA,NA,NA,NA,NA,NA,NA,NA,NA,NA
"392","stim/objects/HouseObjects/spraybottle.png",302,32,295,0.5,"stim/64.jpeg",6,4,1,1,"HouseObjects",1,3,"left","right",0.536999941,0,0,1,0,62,32,1,0.5,2,"stim/64.jpeg",6,4,"stim/64.jpeg",3,"right",0.578000069,4,4,0.197000265,4,0.852000237,62,0,1,NA,0,NA,1
"476","stim/objects/Instruments/flutetrans.png",303,32,296,0.9,"stim/34.jpeg",3,4,3,2,"Instruments",2,4,"right","right",0.510999918,1,1,1,0,NA,NA,NA,NA,NA,NA,NA,NA,NA,NA,NA,NA,NA,NA,NA,NA,NA,NA,NA,NA,NA,NA,NA,NA
"388","stim/objects/HouseObjects/scale.png",304,32,297,0.5,"stim/62.jpeg",6,2,1,1,"HouseObjects",1,2,"left","right",0.72300005,0,0,1,0,165,32,1,0.5,2,"stim/62.jpeg",6,2,"stim/62.jpeg",2,"left",0.824000359,4,2,1.861999989,4,0.936000109,165,1,1,1,0,0,1
"524","stim/objects/Instruments/grandpiano.png",305,32,298,0.9,"stim/33.jpeg",3,3,3,2,"Instruments",2,4,"right","right",0.57400012,1,1,1,0,NA,NA,NA,NA,NA,NA,NA,NA,NA,NA,NA,NA,NA,NA,NA,NA,NA,NA,NA,NA,NA,NA,NA,NA
"268","stim/objects/HouseObjects/clock.png",306,32,299,0.5,"stim/64.jpeg",6,4,1,2,"HouseObjects",1,1,"left","left",0.423000097,1,1,1,0,NA,NA,NA,NA,NA,NA,NA,NA,NA,NA,NA,NA,NA,NA,NA,NA,NA,NA,NA,NA,NA,NA,NA,NA
"458","stim/objects/Instruments/flute.png",307,32,300,0.9,"stim/32.jpeg",3,2,3,2,"Instruments",2,2,"right","right",0.453999996,1,1,1,0,NA,NA,NA,NA,NA,NA,NA,NA,NA,NA,NA,NA,NA,NA,NA,NA,NA,NA,NA,NA,NA,NA,NA,NA
"477","stim/objects/Instruments/flutetrans.png",308,32,301,0.9,"stim/34.jpeg",3,4,3,2,"Instruments",2,3,"right","right",0.664000034,1,1,1,0,NA,NA,NA,NA,NA,NA,NA,NA,NA,NA,NA,NA,NA,NA,NA,NA,NA,NA,NA,NA,NA,NA,NA,NA
"459","stim/objects/Instruments/flute.png",309,32,302,0.9,"stim/31.jpeg",3,1,3,2,"Instruments",2,2,"right","right",0.667999983,1,1,1,0,NA,NA,NA,NA,NA,NA,NA,NA,NA,NA,NA,NA,NA,NA,NA,NA,NA,NA,NA,NA,NA,NA,NA,NA
"401","stim/objects/HouseObjects/towel2.png",310,32,303,0.9,"stim/44.jpeg",4,4,3,1,"HouseObjects",1,3,"left","right",0.440000057,0,0,1,0,116,32,1,0.9,1,"stim/44.jpeg",4,4,"stim/44.jpeg",3,"left",1.325999975,3,2,1.935000181,3,1.00600028,116,1,0,0,1,1,1
"563","stim/objects/Instruments/tuba.png",311,32,304,0.7,"stim/13.jpeg",1,3,2,1,"Instruments",2,3,"right","left",0.753000021,0,0,1,0,172,32,1,0.7,2,"stim/13.jpeg",1,3,"stim/13.jpeg",3,"right",0.77300024,4,4,0.167000055,4,0.212000132,172,0,0,NA,0,NA,1
"409","stim/objects/Instruments/acousticguitar.png",312,32,305,0.5,"stim/52.jpeg",5,2,1,2,"Instruments",2,1,"right","right",0.64199996,1,1,1,0,NA,NA,NA,NA,NA,NA,NA,NA,NA,NA,NA,NA,NA,NA,NA,NA,NA,NA,NA,NA,NA,NA,NA,NA
"460","stim/objects/Instruments/flute.png",313,32,306,0.9,"stim/32.jpeg",3,2,3,2,"Instruments",2,4,"right","right",0.569000006,1,1,1,0,NA,NA,NA,NA,NA,NA,NA,NA,NA,NA,NA,NA,NA,NA,NA,NA,NA,NA,NA,NA,NA,NA,NA,NA
"441","stim/objects/Instruments/doublebass.png",314,32,307,0.7,"stim/12.jpeg",1,2,2,2,"Instruments",2,1,"right","right",0.842999935,1,1,1,0,NA,NA,NA,NA,NA,NA,NA,NA,NA,NA,NA,NA,NA,NA,NA,NA,NA,NA,NA,NA,NA,NA,NA,NA
"269","stim/objects/HouseObjects/clock.png",315,32,308,0.5,"stim/63.jpeg",6,3,1,2,"HouseObjects",1,4,"left","right",0.644999981,0,0,1,0,NA,NA,NA,NA,NA,NA,NA,NA,NA,NA,NA,NA,NA,NA,NA,NA,NA,NA,NA,NA,NA,NA,NA,NA
"330","stim/objects/HouseObjects/flyswatter.png",316,32,309,0.9,"stim/44.jpeg",4,4,3,2,"HouseObjects",1,3,"left","left",0.51699996,1,1,1,0,NA,NA,NA,NA,NA,NA,NA,NA,NA,NA,NA,NA,NA,NA,NA,NA,NA,NA,NA,NA,NA,NA,NA,NA
"295","stim/objects/HouseObjects/doormat.png",317,32,310,0.9,"stim/44.jpeg",4,4,3,2,"HouseObjects",1,2,"left","left",0.501000166,1,1,1,0,NA,NA,NA,NA,NA,NA,NA,NA,NA,NA,NA,NA,NA,NA,NA,NA,NA,NA,NA,NA,NA,NA,NA,NA
"528","stim/objects/Instruments/grandpiano.png",318,32,311,0.9,"stim/34.jpeg",3,4,3,2,"Instruments",2,1,"right","right",0.647000074,1,1,1,0,NA,NA,NA,NA,NA,NA,NA,NA,NA,NA,NA,NA,NA,NA,NA,NA,NA,NA,NA,NA,NA,NA,NA,NA
"556","stim/objects/Instruments/timbal2.png",319,32,312,0.1,"stim/41.jpeg",4,1,3,1,"Instruments",2,1,"right","left",0.607000113,0,0,1,0,152,32,1,0.1,2,"stim/41.jpeg",4,1,"stim/41.jpeg",1,"right",1.396000147,4,4,0.1650002,4,0.387000084,152,0,0,NA,0,NA,1
"274","stim/objects/HouseObjects/clothesdryingrack2.png",320,32,313,0.7,"stim/21.jpeg",2,1,2,1,"HouseObjects",1,3,"left","right",0.70299983,0,0,1,0,55,32,1,0.7,1,"stim/21.jpeg",2,1,"stim/21.jpeg",3,"left",3.171000242,4,1,1.381000042,3,0.899000168,55,1,1,1,1,1,1
"510","stim/objects/Instruments/gong.png",321,32,314,0.9,"stim/32.jpeg",3,2,3,2,"Instruments",2,4,"right","right",0.5849998,1,1,1,0,NA,NA,NA,NA,NA,NA,NA,NA,NA,NA,NA,NA,NA,NA,NA,NA,NA,NA,NA,NA,NA,NA,NA,NA
"442","stim/objects/Instruments/doublebass.png",322,32,315,0.7,"stim/14.jpeg",1,4,2,2,"Instruments",2,4,"right","",NA,0,0,1,0,NA,NA,NA,NA,NA,NA,NA,NA,NA,NA,NA,NA,NA,NA,NA,NA,NA,NA,NA,NA,NA,NA,NA,NA
"472","stim/objects/Instruments/flute2.png",323,32,316,0.9,"stim/33.jpeg",3,3,3,1,"Instruments",2,4,"right","right",0.517999887,1,1,1,0,142,32,1,0.9,2,"stim/33.jpeg",3,3,"stim/33.jpeg",4,"right",0.894000053,2,4,1.146000147,4,0.137000084,142,0,0,NA,1,NA,1
"313","stim/objects/HouseObjects/dustpan.png",324,32,317,0.9,"stim/42.jpeg",4,2,3,2,"HouseObjects",1,1,"left","right",0.407000065,0,0,1,0,NA,NA,NA,NA,NA,NA,NA,NA,NA,NA,NA,NA,NA,NA,NA,NA,NA,NA,NA,NA,NA,NA,NA,NA
"331","stim/objects/HouseObjects/flyswatter.png",325,32,318,0.9,"stim/41.jpeg",4,1,3,2,"HouseObjects",1,1,"left","left",0.621000051,1,1,1,0,NA,NA,NA,NA,NA,NA,NA,NA,NA,NA,NA,NA,NA,NA,NA,NA,NA,NA,NA,NA,NA,NA,NA,NA
"478","stim/objects/Instruments/flutetrans.png",326,32,319,0.9,"stim/31.jpeg",3,1,3,2,"Instruments",2,1,"right","right",0.580999851,1,1,1,0,NA,NA,NA,NA,NA,NA,NA,NA,NA,NA,NA,NA,NA,NA,NA,NA,NA,NA,NA,NA,NA,NA,NA,NA
"314","stim/objects/HouseObjects/dustpan.png",327,32,320,0.9,"stim/41.jpeg",4,1,3,2,"HouseObjects",1,2,"left","left",0.513000011,1,1,1,0,NA,NA,NA,NA,NA,NA,NA,NA,NA,NA,NA,NA,NA,NA,NA,NA,NA,NA,NA,NA,NA,NA,NA,NA
"530","stim/objects/Instruments/grandpiano.png",328,32,321,0.9,"stim/33.jpeg",3,3,3,2,"Instruments",2,3,"right","right",0.437000036,1,1,1,0,NA,NA,NA,NA,NA,NA,NA,NA,NA,NA,NA,NA,NA,NA,NA,NA,NA,NA,NA,NA,NA,NA,NA,NA
"282","stim/objects/HouseObjects/coffee2.png",329,32,322,0.7,"stim/23.jpeg",2,3,2,1,"HouseObjects",1,2,"left","left",0.51699996,1,1,1,0,76,32,1,0.7,1,"stim/23.jpeg",2,3,"stim/23.jpeg",2,"right",0.842000008,4,4,1.13800025,4,0.375000238,76,0,0,NA,0,NA,1
"275","stim/objects/HouseObjects/clothespin.png",330,32,323,0.7,"stim/23.jpeg",2,3,2,2,"HouseObjects",1,2,"left","left",0.441999912,1,1,1,0,NA,NA,NA,NA,NA,NA,NA,NA,NA,NA,NA,NA,NA,NA,NA,NA,NA,NA,NA,NA,NA,NA,NA,NA
"494","stim/objects/Instruments/frenchhorn.png",331,32,324,0.9,"stim/34.jpeg",3,4,3,2,"Instruments",2,1,"right","right",0.546000004,1,1,1,0,NA,NA,NA,NA,NA,NA,NA,NA,NA,NA,NA,NA,NA,NA,NA,NA,NA,NA,NA,NA,NA,NA,NA,NA
"259","stim/objects/HouseObjects/bottle.png",332,32,325,0.5,"stim/61.jpeg",6,1,1,2,"HouseObjects",1,2,"left","right",0.665999889,0,0,1,0,NA,NA,NA,NA,NA,NA,NA,NA,NA,NA,NA,NA,NA,NA,NA,NA,NA,NA,NA,NA,NA,NA,NA,NA
"495","stim/objects/Instruments/frenchhorn.png",333,32,326,0.9,"stim/34.jpeg",3,4,3,2,"Instruments",2,1,"right","right",0.549000025,1,1,1,0,NA,NA,NA,NA,NA,NA,NA,NA,NA,NA,NA,NA,NA,NA,NA,NA,NA,NA,NA,NA,NA,NA,NA,NA
"332","stim/objects/HouseObjects/flyswatter.png",334,32,327,0.9,"stim/41.jpeg",4,1,3,2,"HouseObjects",1,1,"left","left",0.572000027,1,1,1,0,NA,NA,NA,NA,NA,NA,NA,NA,NA,NA,NA,NA,NA,NA,NA,NA,NA,NA,NA,NA,NA,NA,NA,NA
"479","stim/objects/Instruments/flutetrans.png",335,32,328,0.9,"stim/32.jpeg",3,2,3,2,"Instruments",2,1,"right","right",0.634000063,1,1,1,0,NA,NA,NA,NA,NA,NA,NA,NA,NA,NA,NA,NA,NA,NA,NA,NA,NA,NA,NA,NA,NA,NA,NA,NA
"315","stim/objects/HouseObjects/dustpan.png",336,32,329,0.9,"stim/43.jpeg",4,3,3,2,"HouseObjects",1,4,"left","left",0.559000015,1,1,1,0,NA,NA,NA,NA,NA,NA,NA,NA,NA,NA,NA,NA,NA,NA,NA,NA,NA,NA,NA,NA,NA,NA,NA,NA
"531","stim/objects/Instruments/grandpiano.png",337,32,330,0.9,"stim/34.jpeg",3,4,3,2,"Instruments",2,4,"right","right",0.645999908,1,1,1,0,NA,NA,NA,NA,NA,NA,NA,NA,NA,NA,NA,NA,NA,NA,NA,NA,NA,NA,NA,NA,NA,NA,NA,NA
"532","stim/objects/Instruments/grandpiano.png",338,32,331,0.9,"stim/33.jpeg",3,3,3,2,"Instruments",2,2,"right","right",0.470999956,1,1,1,0,NA,NA,NA,NA,NA,NA,NA,NA,NA,NA,NA,NA,NA,NA,NA,NA,NA,NA,NA,NA,NA,NA,NA,NA
"261","stim/objects/HouseObjects/bottle2.png",339,32,332,0.7,"stim/21.jpeg",2,1,2,1,"HouseObjects",1,1,"left","right",0.858999968,0,0,1,0,176,32,1,0.7,1,"stim/21.jpeg",2,1,"stim/21.jpeg",1,"left",1.111000299,3,4,0.821000099,3,1.396000147,176,1,0,0,0,0,1
"267","stim/objects/HouseObjects/bucket2.png",340,32,333,0.7,"stim/23.jpeg",2,3,2,1,"HouseObjects",1,3,"left","left",0.631000042,1,1,1,0,175,32,1,0.7,1,"stim/23.jpeg",2,3,"stim/23.jpeg",3,"left",1.000000238,3,3,1.613000154,3,0.476999998,175,1,1,1,1,1,1
"333","stim/objects/HouseObjects/flyswatter.png",341,32,334,0.9,"stim/43.jpeg",4,3,3,2,"HouseObjects",1,4,"left","left",0.688999891,1,1,1,0,NA,NA,NA,NA,NA,NA,NA,NA,NA,NA,NA,NA,NA,NA,NA,NA,NA,NA,NA,NA,NA,NA,NA,NA
"296","stim/objects/HouseObjects/doormat.png",342,32,335,0.9,"stim/44.jpeg",4,4,3,2,"HouseObjects",1,1,"left","right",0.588000059,0,0,1,0,NA,NA,NA,NA,NA,NA,NA,NA,NA,NA,NA,NA,NA,NA,NA,NA,NA,NA,NA,NA,NA,NA,NA,NA
"362","stim/objects/HouseObjects/glass.png",343,32,336,0.9,"stim/42.jpeg",4,2,3,2,"HouseObjects",1,2,"left","left",0.475000143,1,1,1,0,NA,NA,NA,NA,NA,NA,NA,NA,NA,NA,NA,NA,NA,NA,NA,NA,NA,NA,NA,NA,NA,NA,NA,NA
"297","stim/objects/HouseObjects/doormat.png",344,32,337,0.9,"stim/44.jpeg",4,4,3,2,"HouseObjects",1,4,"left","left",0.536000013,1,1,1,0,NA,NA,NA,NA,NA,NA,NA,NA,NA,NA,NA,NA,NA,NA,NA,NA,NA,NA,NA,NA,NA,NA,NA,NA
"347","stim/objects/HouseObjects/garbagebin.png",345,32,338,0.9,"stim/42.jpeg",4,2,3,2,"HouseObjects",1,1,"left","left",0.622999907,1,1,1,0,NA,NA,NA,NA,NA,NA,NA,NA,NA,NA,NA,NA,NA,NA,NA,NA,NA,NA,NA,NA,NA,NA,NA,NA
"496","stim/objects/Instruments/frenchhorn.png",346,32,339,0.9,"stim/33.jpeg",3,3,3,2,"Instruments",2,1,"right","right",0.532000065,1,1,1,0,NA,NA,NA,NA,NA,NA,NA,NA,NA,NA,NA,NA,NA,NA,NA,NA,NA,NA,NA,NA,NA,NA,NA,NA
"278","stim/objects/HouseObjects/clothespin2.png",347,32,340,0.7,"stim/22.jpeg",2,2,2,1,"HouseObjects",1,3,"left","left",0.549999952,1,1,1,0,161,32,1,0.7,1,"stim/22.jpeg",2,2,"stim/22.jpeg",3,"left",2.22200036,4,1,3.836000204,1,4.35800004,161,1,0,0,0,0,1
"276","stim/objects/HouseObjects/clothespin.png",348,32,341,0.7,"stim/22.jpeg",2,2,2,2,"HouseObjects",1,1,"left","left",0.84800005,1,1,1,0,NA,NA,NA,NA,NA,NA,NA,NA,NA,NA,NA,NA,NA,NA,NA,NA,NA,NA,NA,NA,NA,NA,NA,NA
"405","stim/objects/HouseObjects/wateringcan2.png",349,32,342,0.9,"stim/42.jpeg",4,2,3,1,"HouseObjects",1,4,"left","right",0.648000002,0,0,1,0,41,32,1,0.9,1,"stim/42.jpeg",4,2,"stim/42.jpeg",4,"left",2.161000252,3,3,0.866000175,3,0.613000154,41,1,0,0,0,0,1
"533","stim/objects/Instruments/grandpiano.png",350,32,343,0.9,"stim/31.jpeg",3,1,3,2,"Instruments",2,2,"right","right",0.39199996,1,1,1,0,NA,NA,NA,NA,NA,NA,NA,NA,NA,NA,NA,NA,NA,NA,NA,NA,NA,NA,NA,NA,NA,NA,NA,NA
"395","stim/objects/HouseObjects/teapot2.png",351,32,344,0.9,"stim/41.jpeg",4,1,3,1,"HouseObjects",1,4,"left","left",0.506999969,1,1,1,0,69,32,1,0.9,1,"stim/41.jpeg",4,1,"stim/41.jpeg",4,"right",0.525000334,4,4,0.247000217,4,1.140000105,69,0,0,NA,1,NA,1
"364","stim/objects/HouseObjects/glass.png",352,32,345,0.9,"stim/43.jpeg",4,3,3,2,"HouseObjects",1,1,"left","right",0.498999834,0,0,1,0,NA,NA,NA,NA,NA,NA,NA,NA,NA,NA,NA,NA,NA,NA,NA,NA,NA,NA,NA,NA,NA,NA,NA,NA
"462","stim/objects/Instruments/flute.png",353,32,346,0.9,"stim/33.jpeg",3,3,3,2,"Instruments",2,1,"right","right",0.555999994,1,1,1,0,NA,NA,NA,NA,NA,NA,NA,NA,NA,NA,NA,NA,NA,NA,NA,NA,NA,NA,NA,NA,NA,NA,NA,NA
"569","stim/objects/Instruments/xylophone.png",354,32,347,0.7,"stim/12.jpeg",1,2,2,1,"Instruments",2,3,"right","left",0.54700017,0,0,1,0,189,32,1,0.7,2,"stim/12.jpeg",1,2,"stim/12.jpeg",3,"left",1.724000216,3,2,1.118000269,3,0.691000223,189,1,1,1,1,1,1
"358","stim/objects/HouseObjects/garbagebin2.png",355,32,348,0.1,"stim/34.jpeg",3,4,3,1,"HouseObjects",1,4,"left","right",0.508000135,0,0,1,0,135,32,1,0.1,1,"stim/34.jpeg",3,4,"stim/34.jpeg",4,"left",1.053000212,4,1,1.676000118,4,0.369000196,135,1,0,0,1,1,1
"463","stim/objects/Instruments/flute.png",356,32,349,0.9,"stim/34.jpeg",3,4,3,2,"Instruments",2,1,"right","right",0.544000149,1,1,1,0,NA,NA,NA,NA,NA,NA,NA,NA,NA,NA,NA,NA,NA,NA,NA,NA,NA,NA,NA,NA,NA,NA,NA,NA
"265","stim/objects/HouseObjects/bucket.png",357,32,350,0.5,"stim/62.jpeg",6,2,1,2,"HouseObjects",1,4,"left","right",0.826000214,0,0,1,0,NA,NA,NA,NA,NA,NA,NA,NA,NA,NA,NA,NA,NA,NA,NA,NA,NA,NA,NA,NA,NA,NA,NA,NA
"481","stim/objects/Instruments/flutetrans.png",358,32,351,0.9,"stim/31.jpeg",3,1,3,2,"Instruments",2,3,"right","right",0.537000179,1,1,1,0,NA,NA,NA,NA,NA,NA,NA,NA,NA,NA,NA,NA,NA,NA,NA,NA,NA,NA,NA,NA,NA,NA,NA,NA
"307","stim/objects/HouseObjects/doormat2.png",359,32,352,0.1,"stim/31.jpeg",3,1,3,1,"HouseObjects",1,1,"left","right",0.492000103,0,0,1,0,124,32,1,0.1,1,"stim/31.jpeg",3,1,"stim/31.jpeg",1,"right",3.18200016,3,4,1.147000074,4,0.179000378,124,0,0,NA,0,NA,1
"286","stim/objects/HouseObjects/cushion2.png",360,32,353,0.7,"stim/24.jpeg",2,4,2,1,"HouseObjects",1,4,"left","left",0.764999866,1,1,1,0,1,32,1,0.7,1,"stim/24.jpeg",2,4,"stim/24.jpeg",4,"left",1.950000286,4,4,5.371999979,4,1.789000273,1,1,1,1,1,1,1
"498","stim/objects/Instruments/frenchhorn.png",361,32,354,0.9,"stim/33.jpeg",3,3,3,2,"Instruments",2,4,"right","right",0.500999928,1,1,1,0,NA,NA,NA,NA,NA,NA,NA,NA,NA,NA,NA,NA,NA,NA,NA,NA,NA,NA,NA,NA,NA,NA,NA,NA
"318","stim/objects/HouseObjects/dustpan.png",362,32,355,0.9,"stim/44.jpeg",4,4,3,2,"HouseObjects",1,2,"left","left",0.602999926,1,1,1,0,NA,NA,NA,NA,NA,NA,NA,NA,NA,NA,NA,NA,NA,NA,NA,NA,NA,NA,NA,NA,NA,NA,NA,NA
"244","stim/objects/HouseObjects/ballofstring.png",363,32,356,0.5,"stim/52.jpeg",5,2,1,2,"HouseObjects",1,2,"left","left",0.585000038,1,1,1,0,NA,NA,NA,NA,NA,NA,NA,NA,NA,NA,NA,NA,NA,NA,NA,NA,NA,NA,NA,NA,NA,NA,NA,NA
"482","stim/objects/Instruments/flutetrans.png",364,32,357,0.9,"stim/31.jpeg",3,1,3,2,"Instruments",2,3,"right","left",0.736999989,0,0,1,0,NA,NA,NA,NA,NA,NA,NA,NA,NA,NA,NA,NA,NA,NA,NA,NA,NA,NA,NA,NA,NA,NA,NA,NA
"319","stim/objects/HouseObjects/dustpan.png",365,32,358,0.9,"stim/42.jpeg",4,2,3,2,"HouseObjects",1,4,"left","left",0.671999931,1,1,1,0,NA,NA,NA,NA,NA,NA,NA,NA,NA,NA,NA,NA,NA,NA,NA,NA,NA,NA,NA,NA,NA,NA,NA,NA
"287","stim/objects/HouseObjects/dishsoap.png",366,32,359,0.7,"stim/22.jpeg",2,2,2,2,"HouseObjects",1,2,"left","left",0.643000126,1,1,1,0,NA,NA,NA,NA,NA,NA,NA,NA,NA,NA,NA,NA,NA,NA,NA,NA,NA,NA,NA,NA,NA,NA,NA,NA
"499","stim/objects/Instruments/frenchhorn.png",367,32,360,0.9,"stim/31.jpeg",3,1,3,2,"Instruments",2,2,"right","right",0.633999825,1,1,1,0,NA,NA,NA,NA,NA,NA,NA,NA,NA,NA,NA,NA,NA,NA,NA,NA,NA,NA,NA,NA,NA,NA,NA,NA
"464","stim/objects/Instruments/flute.png",368,32,361,0.9,"stim/34.jpeg",3,4,3,2,"Instruments",2,4,"right","right",0.730999947,1,1,1,0,NA,NA,NA,NA,NA,NA,NA,NA,NA,NA,NA,NA,NA,NA,NA,NA,NA,NA,NA,NA,NA,NA,NA,NA
"557","stim/objects/Instruments/triangle.png",369,32,362,0.5,"stim/63.jpeg",6,3,1,1,"Instruments",2,4,"right","right",0.781999826,1,1,1,0,138,32,1,0.5,2,"stim/63.jpeg",6,3,"stim/63.jpeg",4,"right",4.986999989,4,4,0.192000151,4,0.495000124,138,0,0,NA,1,NA,1
"342","stim/objects/HouseObjects/garbagebin.png",370,32,363,0.9,"stim/44.jpeg",4,4,3,2,"HouseObjects",1,3,"left","left",0.618999958,1,1,1,0,NA,NA,NA,NA,NA,NA,NA,NA,NA,NA,NA,NA,NA,NA,NA,NA,NA,NA,NA,NA,NA,NA,NA,NA
"501","stim/objects/Instruments/frenchhorn.png",371,32,364,0.9,"stim/31.jpeg",3,1,3,2,"Instruments",2,1,"right","right",0.506999969,1,1,1,0,NA,NA,NA,NA,NA,NA,NA,NA,NA,NA,NA,NA,NA,NA,NA,NA,NA,NA,NA,NA,NA,NA,NA,NA
"461","stim/objects/Instruments/flute.png",372,32,365,0.9,"stim/34.jpeg",3,4,3,2,"Instruments",2,2,"right","right",0.524999857,1,1,1,0,NA,NA,NA,NA,NA,NA,NA,NA,NA,NA,NA,NA,NA,NA,NA,NA,NA,NA,NA,NA,NA,NA,NA,NA
"549","stim/objects/Instruments/saxophone.png",373,32,366,0.5,"stim/52.jpeg",5,2,1,1,"Instruments",2,2,"right","left",0.607999802,0,0,1,0,64,32,1,0.5,1,"stim/52.jpeg",5,2,"stim/52.jpeg",2,"right",3.130000114,4,4,0.254000187,4,0.352000237,64,0,0,NA,0,NA,1
"298","stim/objects/HouseObjects/doormat.png",374,32,367,0.9,"stim/42.jpeg",4,2,3,2,"HouseObjects",1,1,"left","left",0.571000099,1,1,1,0,NA,NA,NA,NA,NA,NA,NA,NA,NA,NA,NA,NA,NA,NA,NA,NA,NA,NA,NA,NA,NA,NA,NA,NA
"552","stim/objects/Instruments/speaker2.png",375,32,368,0.1,"stim/43.jpeg",4,3,3,1,"Instruments",2,1,"right","left",0.88499999,0,0,1,0,197,32,1,0.1,2,"stim/43.jpeg",4,3,"stim/43.jpeg",1,"right",0.697999954,4,4,0.1650002,4,0.174000263,197,0,0,NA,0,NA,1
"544","stim/objects/Instruments/harmonica2.png",376,32,369,0.9,"stim/31.jpeg",3,1,3,1,"Instruments",2,1,"right","right",0.578999996,1,1,1,0,27,32,1,0.9,2,"stim/31.jpeg",3,1,"stim/31.jpeg",1,"left",0.942000151,4,2,1.051000118,4,0.473999977,27,1,0,0,0,0,1
"507","stim/objects/Instruments/gong.png",377,32,370,0.9,"stim/33.jpeg",3,3,3,2,"Instruments",2,2,"right","left",0.537999868,0,0,1,0,NA,NA,NA,NA,NA,NA,NA,NA,NA,NA,NA,NA,NA,NA,NA,NA,NA,NA,NA,NA,NA,NA,NA,NA
"449","stim/objects/Instruments/electricdrumset.png",378,32,371,0.7,"stim/12.jpeg",1,2,2,2,"Instruments",2,1,"right","left",0.756999969,0,0,1,0,NA,NA,NA,NA,NA,NA,NA,NA,NA,NA,NA,NA,NA,NA,NA,NA,NA,NA,NA,NA,NA,NA,NA,NA
"348","stim/objects/HouseObjects/garbagebin.png",379,32,372,0.9,"stim/41.jpeg",4,1,3,2,"HouseObjects",1,3,"left","left",0.618000031,1,1,1,0,NA,NA,NA,NA,NA,NA,NA,NA,NA,NA,NA,NA,NA,NA,NA,NA,NA,NA,NA,NA,NA,NA,NA,NA
"443","stim/objects/Instruments/doublebass2.png",380,32,373,0.3,"stim/24.jpeg",2,4,2,1,"Instruments",2,3,"right","left",0.660000086,0,0,1,0,132,32,1,0.3,2,"stim/24.jpeg",2,4,"stim/24.jpeg",3,"right",0.488000154,4,4,0.27300024,4,0.17200017,132,0,1,NA,0,NA,1
"291","stim/objects/HouseObjects/doormat.png",381,32,374,0.9,"stim/44.jpeg",4,4,3,2,"HouseObjects",1,2,"left","left",0.53399992,1,1,1,0,NA,NA,NA,NA,NA,NA,NA,NA,NA,NA,NA,NA,NA,NA,NA,NA,NA,NA,NA,NA,NA,NA,NA,NA
"252","stim/objects/HouseObjects/basket2.png",382,32,375,0.3,"stim/11.jpeg",1,1,2,1,"HouseObjects",1,2,"left","left",0.773999929,1,1,1,0,198,32,1,0.3,1,"stim/11.jpeg",1,1,"stim/11.jpeg",2,"right",0.788000345,4,4,0.181000233,4,0.202000141,198,0,0,NA,0,NA,1
"465","stim/objects/Instruments/flute.png",383,32,376,0.9,"stim/33.jpeg",3,3,3,2,"Instruments",2,1,"right","right",0.694999933,1,1,1,0,NA,NA,NA,NA,NA,NA,NA,NA,NA,NA,NA,NA,NA,NA,NA,NA,NA,NA,NA,NA,NA,NA,NA,NA
"258","stim/objects/HouseObjects/blender2.png",384,32,377,0.7,"stim/24.jpeg",2,4,2,1,"HouseObjects",1,3,"left","left",0.711999893,1,1,1,0,141,32,1,0.7,1,"stim/24.jpeg",2,4,"stim/24.jpeg",3,"left",1.129000187,4,2,1.131000042,4,0.608000278,141,1,0,0,0,0,1
"511","stim/objects/Instruments/gong.png",385,32,378,0.9,"stim/31.jpeg",3,1,3,2,"Instruments",2,3,"right","right",0.599999905,1,1,1,0,NA,NA,NA,NA,NA,NA,NA,NA,NA,NA,NA,NA,NA,NA,NA,NA,NA,NA,NA,NA,NA,NA,NA,NA
"429","stim/objects/Instruments/chime2.png",386,32,379,0.3,"stim/24.jpeg",2,4,2,1,"Instruments",2,1,"right","left",0.463999987,0,0,1,0,36,32,1,0.3,2,"stim/24.jpeg",2,4,"stim/24.jpeg",1,"left",0.804000139,4,1,2.173000097,1,0.334000111,36,1,0,0,1,1,1
"408","stim/objects/Instruments/accordion2.png",387,32,380,0.7,"stim/13.jpeg",1,3,2,1,"Instruments",2,2,"right","left",0.924000025,0,0,1,0,108,32,1,0.7,2,"stim/13.jpeg",1,3,"stim/13.jpeg",2,"right",1.143000364,4,4,0.162000179,4,0.15500021,108,0,0,NA,0,NA,1
"300","stim/objects/HouseObjects/doormat.png",388,32,381,0.9,"stim/43.jpeg",4,3,3,2,"HouseObjects",1,1,"left","left",0.688999891,1,1,1,0,NA,NA,NA,NA,NA,NA,NA,NA,NA,NA,NA,NA,NA,NA,NA,NA,NA,NA,NA,NA,NA,NA,NA,NA
"399","stim/objects/HouseObjects/thread2.png",389,32,382,0.9,"stim/43.jpeg",4,3,3,1,"HouseObjects",1,3,"left","left",0.660000086,1,1,1,0,123,32,1,0.9,1,"stim/43.jpeg",4,3,"stim/43.jpeg",3,"left",1.197000265,4,1,2.006999969,3,0.703999996,123,1,0,0,1,1,1
"366","stim/objects/HouseObjects/glass.png",390,32,383,0.9,"stim/41.jpeg",4,1,3,2,"HouseObjects",1,4,"left","left",0.662999868,1,1,1,0,NA,NA,NA,NA,NA,NA,NA,NA,NA,NA,NA,NA,NA,NA,NA,NA,NA,NA,NA,NA,NA,NA,NA,NA
"497","stim/objects/Instruments/frenchhorn.png",391,32,384,0.9,"stim/34.jpeg",3,4,3,2,"Instruments",2,4,"right","right",0.652999878,1,1,1,0,NA,NA,NA,NA,NA,NA,NA,NA,NA,NA,NA,NA,NA,NA,NA,NA,NA,NA,NA,NA,NA,NA,NA,NA
"247","stim/objects/HouseObjects/barbecuelighter.png",392,32,385,0.5,"stim/53.jpeg",5,3,1,2,"HouseObjects",1,1,"left","left",0.826999903,1,1,1,0,NA,NA,NA,NA,NA,NA,NA,NA,NA,NA,NA,NA,NA,NA,NA,NA,NA,NA,NA,NA,NA,NA,NA,NA
"403","stim/objects/HouseObjects/vacuumcleaner2.png",393,32,386,0.9,"stim/41.jpeg",4,1,3,1,"HouseObjects",1,2,"left","left",0.690999985,1,1,1,0,178,32,1,0.9,1,"stim/41.jpeg",4,1,"stim/41.jpeg",2,"left",0.837000132,4,4,3.140000105,2,0.6650002,178,1,0,0,1,1,1
"341","stim/objects/HouseObjects/flyswatter2.png",394,32,387,0.1,"stim/33.jpeg",3,3,3,1,"HouseObjects",1,3,"left","right",0.736000061,0,0,1,0,192,32,1,0.1,1,"stim/33.jpeg",3,3,"stim/33.jpeg",3,"left",3.56400013,3,2,1.325000286,4,1.28000021,192,1,0,0,0,0,1
"417","stim/objects/Instruments/banjo2.png",395,32,388,0.7,"stim/12.jpeg",1,2,2,1,"Instruments",2,2,"right","",NA,0,0,1,0,71,32,1,0.7,2,"stim/12.jpeg",1,2,"stim/12.jpeg",2,"right",1.395000219,4,4,0.207000256,4,0.390000343,71,0,0,NA,0,NA,1
"457","stim/objects/Instruments/flute.png",396,32,389,0.9,"stim/31.jpeg",3,1,3,2,"Instruments",2,2,"right","right",0.620000124,1,1,1,0,NA,NA,NA,NA,NA,NA,NA,NA,NA,NA,NA,NA,NA,NA,NA,NA,NA,NA,NA,NA,NA,NA,NA,NA
"393","stim/objects/HouseObjects/spraybottle2.png",397,32,390,0.9,"stim/44.jpeg",4,4,3,1,"HouseObjects",1,1,"left","left",0.595000029,1,1,1,0,29,32,1,0.9,1,"stim/44.jpeg",4,4,"stim/44.jpeg",1,"left",1.305000305,4,1,5.268000126,1,0.871999979,29,1,0,0,1,1,1
"334","stim/objects/HouseObjects/flyswatter.png",398,32,391,0.9,"stim/43.jpeg",4,3,3,2,"HouseObjects",1,4,"left","right",0.625999928,0,0,1,0,NA,NA,NA,NA,NA,NA,NA,NA,NA,NA,NA,NA,NA,NA,NA,NA,NA,NA,NA,NA,NA,NA,NA,NA
"327","stim/objects/HouseObjects/flyswatter.png",399,32,392,0.9,"stim/41.jpeg",4,1,3,2,"HouseObjects",1,1,"left","left",0.56400013,1,1,1,0,NA,NA,NA,NA,NA,NA,NA,NA,NA,NA,NA,NA,NA,NA,NA,NA,NA,NA,NA,NA,NA,NA,NA,NA
"431","stim/objects/Instruments/clarinet.png",400,32,393,0.5,"stim/62.jpeg",6,2,1,2,"Instruments",2,2,"right","right",0.723999977,1,1,1,0,NA,NA,NA,NA,NA,NA,NA,NA,NA,NA,NA,NA,NA,NA,NA,NA,NA,NA,NA,NA,NA,NA,NA,NA
"293","stim/objects/HouseObjects/doormat.png",401,32,394,0.9,"stim/43.jpeg",4,3,3,2,"HouseObjects",1,4,"left","left",0.643000126,1,1,1,0,NA,NA,NA,NA,NA,NA,NA,NA,NA,NA,NA,NA,NA,NA,NA,NA,NA,NA,NA,NA,NA,NA,NA,NA
"423","stim/objects/Instruments/bassguitar2.png",402,32,395,0.3,"stim/22.jpeg",2,2,2,1,"Instruments",2,4,"right","right",0.659999847,1,1,1,0,57,32,1,0.3,2,"stim/22.jpeg",2,2,"stim/22.jpeg",4,"right",1.18200016,3,3,0.893000126,4,0.500000238,57,0,0,NA,1,NA,1
"518","stim/objects/Instruments/gong.png",403,32,396,0.9,"stim/33.jpeg",3,3,3,2,"Instruments",2,3,"right","right",0.760999918,1,1,1,0,NA,NA,NA,NA,NA,NA,NA,NA,NA,NA,NA,NA,NA,NA,NA,NA,NA,NA,NA,NA,NA,NA,NA,NA
"324","stim/objects/HouseObjects/dustpan2.png",404,32,397,0.1,"stim/32.jpeg",3,2,3,1,"HouseObjects",1,2,"left","right",0.606999874,0,0,1,0,168,32,1,0.1,1,"stim/32.jpeg",3,2,"stim/32.jpeg",2,"right",0.92200017,4,4,0.184000254,4,0.317000151,168,0,0,NA,0,NA,1
"445","stim/objects/Instruments/drums.png",405,32,398,0.7,"stim/13.jpeg",1,3,2,2,"Instruments",2,2,"right","left",0.928999901,0,0,1,0,NA,NA,NA,NA,NA,NA,NA,NA,NA,NA,NA,NA,NA,NA,NA,NA,NA,NA,NA,NA,NA,NA,NA,NA
"390","stim/objects/HouseObjects/sponge.png",406,32,399,0.5,"stim/63.jpeg",6,3,1,1,"HouseObjects",1,1,"left","right",0.768999815,0,0,1,0,28,32,1,0.5,2,"stim/63.jpeg",6,3,"stim/63.jpeg",1,"right",1.190000296,3,4,1.143000126,4,0.343000174,28,0,0,NA,0,NA,1
"485","stim/objects/Instruments/flutetrans.png",407,32,400,0.9,"stim/32.jpeg",3,2,3,2,"Instruments",2,4,"right","right",0.648000002,1,1,1,0,NA,NA,NA,NA,NA,NA,NA,NA,NA,NA,NA,NA,NA,NA,NA,NA,NA,NA,NA,NA,NA,NA,NA,NA
"336","stim/objects/HouseObjects/flyswatter.png",408,32,401,0.9,"stim/42.jpeg",4,2,3,2,"HouseObjects",1,1,"left","left",0.641000032,1,1,1,0,NA,NA,NA,NA,NA,NA,NA,NA,NA,NA,NA,NA,NA,NA,NA,NA,NA,NA,NA,NA,NA,NA,NA,NA
"302","stim/objects/HouseObjects/doormat.png",409,32,402,0.9,"stim/41.jpeg",4,1,3,2,"HouseObjects",1,2,"left","right",0.585000038,0,0,1,0,NA,NA,NA,NA,NA,NA,NA,NA,NA,NA,NA,NA,NA,NA,NA,NA,NA,NA,NA,NA,NA,NA,NA,NA
"256","stim/objects/HouseObjects/blender.png",410,32,403,0.5,"stim/64.jpeg",6,4,1,2,"HouseObjects",1,1,"left","right",0.650000095,0,0,1,0,NA,NA,NA,NA,NA,NA,NA,NA,NA,NA,NA,NA,NA,NA,NA,NA,NA,NA,NA,NA,NA,NA,NA,NA
"384","stim/objects/HouseObjects/safetypin.png",411,32,404,0.5,"stim/53.jpeg",5,3,1,1,"HouseObjects",1,3,"left","left",0.817000151,1,1,1,0,12,32,1,0.5,1,"stim/53.jpeg",5,3,"stim/53.jpeg",3,"left",0.877000332,4,3,2.70600009,3,0.455000162,12,1,1,1,1,1,1
"512","stim/objects/Instruments/gong.png",412,32,405,0.9,"stim/31.jpeg",3,1,3,2,"Instruments",2,4,"right","right",0.782000065,1,1,1,0,NA,NA,NA,NA,NA,NA,NA,NA,NA,NA,NA,NA,NA,NA,NA,NA,NA,NA,NA,NA,NA,NA,NA,NA
"308","stim/objects/HouseObjects/dustpan.png",413,32,406,0.9,"stim/44.jpeg",4,4,3,2,"HouseObjects",1,3,"left","",NA,0,0,1,0,NA,NA,NA,NA,NA,NA,NA,NA,NA,NA,NA,NA,NA,NA,NA,NA,NA,NA,NA,NA,NA,NA,NA,NA
"303","stim/objects/HouseObjects/doormat.png",414,32,407,0.9,"stim/43.jpeg",4,3,3,2,"HouseObjects",1,3,"left","left",0.549000025,1,1,1,0,NA,NA,NA,NA,NA,NA,NA,NA,NA,NA,NA,NA,NA,NA,NA,NA,NA,NA,NA,NA,NA,NA,NA,NA
"367","stim/objects/HouseObjects/glass.png",415,32,408,0.9,"stim/44.jpeg",4,4,3,2,"HouseObjects",1,4,"left","left",0.5400002,1,1,1,0,NA,NA,NA,NA,NA,NA,NA,NA,NA,NA,NA,NA,NA,NA,NA,NA,NA,NA,NA,NA,NA,NA,NA,NA
"368","stim/objects/HouseObjects/glass.png",416,32,409,0.9,"stim/42.jpeg",4,2,3,2,"HouseObjects",1,3,"left","right",0,0,0,1,0,NA,NA,NA,NA,NA,NA,NA,NA,NA,NA,NA,NA,NA,NA,NA,NA,NA,NA,NA,NA,NA,NA,NA,NA
"369","stim/objects/HouseObjects/glass.png",417,32,410,0.9,"stim/42.jpeg",4,2,3,2,"HouseObjects",1,4,"left","left",0.507999897,1,1,1,0,NA,NA,NA,NA,NA,NA,NA,NA,NA,NA,NA,NA,NA,NA,NA,NA,NA,NA,NA,NA,NA,NA,NA,NA
"519","stim/objects/Instruments/gong.png",418,32,411,0.9,"stim/34.jpeg",3,4,3,2,"Instruments",2,3,"right","right",0.66899991,1,1,1,0,NA,NA,NA,NA,NA,NA,NA,NA,NA,NA,NA,NA,NA,NA,NA,NA,NA,NA,NA,NA,NA,NA,NA,NA
"567","stim/objects/Instruments/vuvuzela.png",419,32,412,0.7,"stim/11.jpeg",1,1,2,1,"Instruments",2,2,"right","left",0.503000021,0,0,1,0,97,32,1,0.7,2,"stim/11.jpeg",1,1,"stim/11.jpeg",2,"left",1.266000271,4,3,1.067000151,4,0.468000174,97,1,0,0,0,0,1
"320","stim/objects/HouseObjects/dustpan.png",420,32,413,0.9,"stim/41.jpeg",4,1,3,2,"HouseObjects",1,2,"left","left",0.498000145,1,1,1,0,NA,NA,NA,NA,NA,NA,NA,NA,NA,NA,NA,NA,NA,NA,NA,NA,NA,NA,NA,NA,NA,NA,NA,NA
"516","stim/objects/Instruments/gong.png",421,32,414,0.9,"stim/31.jpeg",3,1,3,2,"Instruments",2,3,"right","right",0.470000029,1,1,1,0,NA,NA,NA,NA,NA,NA,NA,NA,NA,NA,NA,NA,NA,NA,NA,NA,NA,NA,NA,NA,NA,NA,NA,NA
"428","stim/objects/Instruments/chime.png",422,32,415,0.5,"stim/64.jpeg",6,4,1,2,"Instruments",2,1,"right","right",0.513000011,1,1,1,0,NA,NA,NA,NA,NA,NA,NA,NA,NA,NA,NA,NA,NA,NA,NA,NA,NA,NA,NA,NA,NA,NA,NA,NA
"263","stim/objects/HouseObjects/broom.png",423,32,416,0.5,"stim/61.jpeg",6,1,1,2,"HouseObjects",1,3,"left","right",0.492999792,0,0,1,0,NA,NA,NA,NA,NA,NA,NA,NA,NA,NA,NA,NA,NA,NA,NA,NA,NA,NA,NA,NA,NA,NA,NA,NA
"382","stim/objects/HouseObjects/handvacuum.png",424,32,417,0.5,"stim/52.jpeg",5,2,1,1,"HouseObjects",1,4,"left","left",0.549000025,1,1,1,0,160,32,1,0.5,1,"stim/52.jpeg",5,2,"stim/52.jpeg",4,"left",2.379000187,4,1,1.502000093,3,2.524000168,160,1,0,0,0,0,1
"439","stim/objects/Instruments/cymbal2.png",425,32,418,0.3,"stim/23.jpeg",2,3,2,1,"Instruments",2,4,"right","left",0.509000063,0,0,1,0,146,32,1,0.3,2,"stim/23.jpeg",2,3,"stim/23.jpeg",4,"right",0.848000288,4,4,0.223999977,4,0.38100028,146,0,0,NA,1,NA,1
"377","stim/objects/HouseObjects/glassmop2.png",426,32,419,0.1,"stim/32.jpeg",3,2,3,1,"HouseObjects",1,3,"left","right",0.502000093,0,0,1,0,60,32,1,0.1,1,"stim/32.jpeg",3,2,"stim/32.jpeg",3,"right",0.615000248,4,4,0.39199996,4,0.294000149,60,0,0,NA,0,NA,1
"304","stim/objects/HouseObjects/doormat.png",427,32,420,0.9,"stim/43.jpeg",4,3,3,2,"HouseObjects",1,3,"left","left",0.592999935,1,1,1,0,NA,NA,NA,NA,NA,NA,NA,NA,NA,NA,NA,NA,NA,NA,NA,NA,NA,NA,NA,NA,NA,NA,NA,NA
"553","stim/objects/Instruments/tambourine.png",428,32,421,0.5,"stim/61.jpeg",6,1,1,1,"Instruments",2,2,"right","right",0.601000071,1,1,1,0,75,32,1,0.5,2,"stim/61.jpeg",6,1,"stim/61.jpeg",2,"left",0.900000095,4,3,3.070000172,2,0.624000072,75,1,0,0,1,1,1
"407","stim/objects/Instruments/accordion.png",429,32,422,0.5,"stim/54.jpeg",5,4,1,2,"Instruments",2,4,"right","left",0.546999931,0,0,1,0,NA,NA,NA,NA,NA,NA,NA,NA,NA,NA,NA,NA,NA,NA,NA,NA,NA,NA,NA,NA,NA,NA,NA,NA
"321","stim/objects/HouseObjects/dustpan.png",430,32,423,0.9,"stim/42.jpeg",4,2,3,2,"HouseObjects",1,4,"left","",NA,0,0,1,0,NA,NA,NA,NA,NA,NA,NA,NA,NA,NA,NA,NA,NA,NA,NA,NA,NA,NA,NA,NA,NA,NA,NA,NA
"418","stim/objects/Instruments/bassdrum.png",431,32,424,0.5,"stim/51.jpeg",5,1,1,2,"Instruments",2,3,"right","left",0.506000042,0,0,1,0,NA,NA,NA,NA,NA,NA,NA,NA,NA,NA,NA,NA,NA,NA,NA,NA,NA,NA,NA,NA,NA,NA,NA,NA
"280","stim/objects/HouseObjects/coffee.png",432,32,425,0.7,"stim/24.jpeg",2,4,2,2,"HouseObjects",1,4,"left","left",0.486000061,1,1,1,0,NA,NA,NA,NA,NA,NA,NA,NA,NA,NA,NA,NA,NA,NA,NA,NA,NA,NA,NA,NA,NA,NA,NA,NA
"483","stim/objects/Instruments/flutetrans.png",433,32,426,0.9,"stim/33.jpeg",3,3,3,2,"Instruments",2,3,"right","right",0.613000154,1,1,1,0,NA,NA,NA,NA,NA,NA,NA,NA,NA,NA,NA,NA,NA,NA,NA,NA,NA,NA,NA,NA,NA,NA,NA,NA
"436","stim/objects/Instruments/cymbal.png",434,32,427,0.7,"stim/11.jpeg",1,1,2,2,"Instruments",2,4,"right","left",0.532000065,0,0,1,0,NA,NA,NA,NA,NA,NA,NA,NA,NA,NA,NA,NA,NA,NA,NA,NA,NA,NA,NA,NA,NA,NA,NA,NA
"517","stim/objects/Instruments/gong.png",435,32,428,0.9,"stim/33.jpeg",3,3,3,2,"Instruments",2,3,"right","right",0.5849998,1,1,1,0,NA,NA,NA,NA,NA,NA,NA,NA,NA,NA,NA,NA,NA,NA,NA,NA,NA,NA,NA,NA,NA,NA,NA,NA
"468","stim/objects/Instruments/flute.png",436,32,429,0.9,"stim/33.jpeg",3,3,3,2,"Instruments",2,2,"right","right",0.476999998,1,1,1,0,NA,NA,NA,NA,NA,NA,NA,NA,NA,NA,NA,NA,NA,NA,NA,NA,NA,NA,NA,NA,NA,NA,NA,NA
"250","stim/objects/HouseObjects/basket.png",437,32,430,0.5,"stim/54.jpeg",5,4,1,2,"HouseObjects",1,1,"left","right",0.628999949,0,0,1,0,NA,NA,NA,NA,NA,NA,NA,NA,NA,NA,NA,NA,NA,NA,NA,NA,NA,NA,NA,NA,NA,NA,NA,NA
"288","stim/objects/HouseObjects/dishsoap.png",438,32,431,0.7,"stim/21.jpeg",2,1,2,2,"HouseObjects",1,3,"left","left",0.536000013,1,1,1,0,NA,NA,NA,NA,NA,NA,NA,NA,NA,NA,NA,NA,NA,NA,NA,NA,NA,NA,NA,NA,NA,NA,NA,NA
"350","stim/objects/HouseObjects/garbagebin.png",439,32,432,0.9,"stim/43.jpeg",4,3,3,2,"HouseObjects",1,3,"left","left",0.501999855,1,1,1,0,NA,NA,NA,NA,NA,NA,NA,NA,NA,NA,NA,NA,NA,NA,NA,NA,NA,NA,NA,NA,NA,NA,NA,NA
"396","stim/objects/HouseObjects/thermometer.png",440,32,433,0.3,"stim/11.jpeg",1,1,2,1,"HouseObjects",1,1,"left","left",0.64199996,1,1,1,0,134,32,1,0.3,1,"stim/11.jpeg",1,1,"stim/11.jpeg",1,"left",0.822000265,4,3,0.982000113,3,0.399000168,134,1,0,0,0,0,1
"529","stim/objects/Instruments/grandpiano.png",441,32,434,0.9,"stim/32.jpeg",3,2,3,2,"Instruments",2,3,"right","right",0.5400002,1,1,1,0,NA,NA,NA,NA,NA,NA,NA,NA,NA,NA,NA,NA,NA,NA,NA,NA,NA,NA,NA,NA,NA,NA,NA,NA
"504","stim/objects/Instruments/frenchhorn.png",442,32,435,0.9,"stim/31.jpeg",3,1,3,2,"Instruments",2,2,"right","right",0.480999947,1,1,1,0,NA,NA,NA,NA,NA,NA,NA,NA,NA,NA,NA,NA,NA,NA,NA,NA,NA,NA,NA,NA,NA,NA,NA,NA
"505","stim/objects/Instruments/frenchhorn.png",443,32,436,0.9,"stim/32.jpeg",3,2,3,2,"Instruments",2,4,"right","right",0.49000001,1,1,1,0,NA,NA,NA,NA,NA,NA,NA,NA,NA,NA,NA,NA,NA,NA,NA,NA,NA,NA,NA,NA,NA,NA,NA,NA
"360","stim/objects/HouseObjects/glass.png",444,32,437,0.9,"stim/43.jpeg",4,3,3,2,"HouseObjects",1,3,"left","left",0.454999924,1,1,1,0,NA,NA,NA,NA,NA,NA,NA,NA,NA,NA,NA,NA,NA,NA,NA,NA,NA,NA,NA,NA,NA,NA,NA,NA
"339","stim/objects/HouseObjects/flyswatter.png",445,32,438,0.9,"stim/43.jpeg",4,3,3,2,"HouseObjects",1,1,"left","right",0.541000128,0,0,1,0,NA,NA,NA,NA,NA,NA,NA,NA,NA,NA,NA,NA,NA,NA,NA,NA,NA,NA,NA,NA,NA,NA,NA,NA
"560","stim/objects/Instruments/trombone2.png",446,32,439,0.1,"stim/43.jpeg",4,3,3,1,"Instruments",2,4,"right","left",0.486999989,0,0,1,0,84,32,1,0.1,2,"stim/43.jpeg",4,3,"stim/43.jpeg",4,"right",1.063000202,4,4,1.593000174,4,0.170000315,84,0,0,NA,1,NA,1
"562","stim/objects/Instruments/trumpet2.png",447,32,440,0.1,"stim/44.jpeg",4,4,3,1,"Instruments",2,1,"right","left",0.538999796,0,0,1,0,183,32,1,0.1,2,"stim/44.jpeg",4,4,"stim/44.jpeg",1,"right",1.874000311,4,4,0.344000101,4,0.206000328,183,0,1,NA,0,NA,1
"422","stim/objects/Instruments/bassguitar.png",448,32,441,0.5,"stim/62.jpeg",6,2,1,2,"Instruments",2,4,"right","left",0.588000059,0,0,1,0,NA,NA,NA,NA,NA,NA,NA,NA,NA,NA,NA,NA,NA,NA,NA,NA,NA,NA,NA,NA,NA,NA,NA,NA
"434","stim/objects/Instruments/cornet.png",449,32,442,0.5,"stim/62.jpeg",6,2,1,2,"Instruments",2,2,"right","right",0.736999989,1,1,1,0,NA,NA,NA,NA,NA,NA,NA,NA,NA,NA,NA,NA,NA,NA,NA,NA,NA,NA,NA,NA,NA,NA,NA,NA
"412","stim/objects/Instruments/balalaika.png",450,32,443,0.5,"stim/53.jpeg",5,3,1,2,"Instruments",2,4,"right","left",0.542999983,0,0,1,0,NA,NA,NA,NA,NA,NA,NA,NA,NA,NA,NA,NA,NA,NA,NA,NA,NA,NA,NA,NA,NA,NA,NA,NA
"446","stim/objects/Instruments/drums.png",451,32,444,0.7,"stim/11.jpeg",1,1,2,2,"Instruments",2,4,"right","right",0.620000124,1,1,1,0,NA,NA,NA,NA,NA,NA,NA,NA,NA,NA,NA,NA,NA,NA,NA,NA,NA,NA,NA,NA,NA,NA,NA,NA
"484","stim/objects/Instruments/flutetrans.png",452,32,445,0.9,"stim/32.jpeg",3,2,3,2,"Instruments",2,1,"right","right",0.475999832,1,1,1,0,NA,NA,NA,NA,NA,NA,NA,NA,NA,NA,NA,NA,NA,NA,NA,NA,NA,NA,NA,NA,NA,NA,NA,NA
"411","stim/objects/Instruments/acousticguitar2.png",453,32,446,0.7,"stim/14.jpeg",1,4,2,1,"Instruments",2,4,"right","right",0.596999884,1,1,1,0,137,32,1,0.7,2,"stim/14.jpeg",1,4,"stim/14.jpeg",4,"right",1.751000166,4,4,0.174000025,4,0.332000256,137,0,1,NA,1,NA,1
"416","stim/objects/Instruments/banjo.png",454,32,447,0.5,"stim/53.jpeg",5,3,1,2,"Instruments",2,4,"right","right",0.616999865,1,1,1,0,NA,NA,NA,NA,NA,NA,NA,NA,NA,NA,NA,NA,NA,NA,NA,NA,NA,NA,NA,NA,NA,NA,NA,NA
"487","stim/objects/Instruments/flutetrans.png",455,32,448,0.9,"stim/33.jpeg",3,3,3,2,"Instruments",2,2,"right","right",0.504000187,1,1,1,0,NA,NA,NA,NA,NA,NA,NA,NA,NA,NA,NA,NA,NA,NA,NA,NA,NA,NA,NA,NA,NA,NA,NA,NA
"469","stim/objects/Instruments/flute.png",456,32,449,0.9,"stim/31.jpeg",3,1,3,2,"Instruments",2,4,"right","right",0.43900013,1,1,1,0,NA,NA,NA,NA,NA,NA,NA,NA,NA,NA,NA,NA,NA,NA,NA,NA,NA,NA,NA,NA,NA,NA,NA,NA
"254","stim/objects/HouseObjects/bleachbottle.png",457,32,450,0.5,"stim/52.jpeg",5,2,1,2,"HouseObjects",1,1,"left","right",0.628000021,0,0,1,0,NA,NA,NA,NA,NA,NA,NA,NA,NA,NA,NA,NA,NA,NA,NA,NA,NA,NA,NA,NA,NA,NA,NA,NA
"566","stim/objects/Instruments/violin2.png",458,32,451,0.1,"stim/42.jpeg",4,2,3,1,"Instruments",2,2,"right","left",0.570000172,0,0,1,0,177,32,1,0.1,2,"stim/42.jpeg",4,2,"stim/42.jpeg",2,"right",1.353000164,4,4,0.212000132,4,0.426000118,177,0,0,NA,0,NA,1
"535","stim/objects/Instruments/grandpiano.png",459,32,452,0.9,"stim/34.jpeg",3,4,3,2,"Instruments",2,1,"right","right",0.47300005,1,1,1,0,NA,NA,NA,NA,NA,NA,NA,NA,NA,NA,NA,NA,NA,NA,NA,NA,NA,NA,NA,NA,NA,NA,NA,NA
"554","stim/objects/Instruments/tambourine2.png",460,32,453,0.1,"stim/44.jpeg",4,4,3,1,"Instruments",2,4,"right","left",0.60800004,0,0,1,0,73,32,1,0.1,2,"stim/44.jpeg",4,4,"stim/44.jpeg",4,"left",1.019000053,3,3,0.852000237,3,0.765000343,73,1,0,0,0,0,1
"361","stim/objects/HouseObjects/glass.png",461,32,454,0.9,"stim/41.jpeg",4,1,3,2,"HouseObjects",1,2,"left","left",0.538000107,1,1,1,0,NA,NA,NA,NA,NA,NA,NA,NA,NA,NA,NA,NA,NA,NA,NA,NA,NA,NA,NA,NA,NA,NA,NA,NA
"245","stim/objects/HouseObjects/ballofstring.png",462,32,455,0.5,"stim/53.jpeg",5,3,1,2,"HouseObjects",1,3,"left","right",0.605000019,0,0,1,0,NA,NA,NA,NA,NA,NA,NA,NA,NA,NA,NA,NA,NA,NA,NA,NA,NA,NA,NA,NA,NA,NA,NA,NA
"454","stim/objects/Instruments/electricguitar.png",463,32,456,0.7,"stim/13.jpeg",1,3,2,2,"Instruments",2,2,"right","left",0.522000074,0,0,1,0,NA,NA,NA,NA,NA,NA,NA,NA,NA,NA,NA,NA,NA,NA,NA,NA,NA,NA,NA,NA,NA,NA,NA,NA
"437","stim/objects/Instruments/cymbal.png",464,32,457,0.7,"stim/14.jpeg",1,4,2,2,"Instruments",2,2,"right","right",0.649999857,1,1,1,0,NA,NA,NA,NA,NA,NA,NA,NA,NA,NA,NA,NA,NA,NA,NA,NA,NA,NA,NA,NA,NA,NA,NA,NA
"546","stim/objects/Instruments/harp2.png",465,32,458,0.9,"stim/32.jpeg",3,2,3,1,"Instruments",2,1,"right","right",0.592000008,1,1,1,0,52,32,1,0.9,2,"stim/32.jpeg",3,2,"stim/32.jpeg",1,"left",0.946000099,4,2,1.927999973,3,1.870000124,52,1,1,1,0,0,1
"455","stim/objects/Instruments/electricguitar2.png",466,32,459,0.3,"stim/23.jpeg",2,3,2,1,"Instruments",2,1,"right","left",0.547999859,0,0,1,0,90,32,1,0.3,2,"stim/23.jpeg",2,3,"stim/23.jpeg",1,"right",0.757000208,4,4,0.288000107,4,0.260000229,90,0,0,NA,0,NA,1
"538","stim/objects/Instruments/grandpiano.png",467,32,460,0.9,"stim/32.jpeg",3,2,3,2,"Instruments",2,1,"right","right",0.429000139,1,1,1,0,NA,NA,NA,NA,NA,NA,NA,NA,NA,NA,NA,NA,NA,NA,NA,NA,NA,NA,NA,NA,NA,NA,NA,NA
"363","stim/objects/HouseObjects/glass.png",468,32,461,0.9,"stim/43.jpeg",4,3,3,2,"HouseObjects",1,2,"left","left",0.552999973,1,1,1,0,NA,NA,NA,NA,NA,NA,NA,NA,NA,NA,NA,NA,NA,NA,NA,NA,NA,NA,NA,NA,NA,NA,NA,NA
