"","participant","trial_index","trial_cond","scn_file","scn_cat","scn_inst","scn_condition","fillers","obj_cat","obj_cat_num","obj_file","quadrant","corr_ans","key_resp_trial.keys","key_resp_trial.rt","trial_acc","trial_acc_manual","group"
"1",70,1,0.9,"stim/62.jpeg",6,2,3,NA,"HouseObjects",1,"stim/objects/HouseObjects/clock2.png",3,"left","",NA,0,0,0
"2",70,2,0.7,"stim/44.jpeg",4,4,2,NA,"HouseObjects",1,"stim/objects/HouseObjects/basket2.png",1,"left","left",0.750999928,1,1,0
"3",70,3,0.5,"stim/11.jpeg",1,1,1,NA,"Instruments",2,"stim/objects/Instruments/accordion.png",3,"right","right",0.742000103,1,1,0
"4",70,4,0.7,"stim/41.jpeg",4,1,2,NA,"HouseObjects",1,"stim/objects/HouseObjects/ashtray2.png",4,"left","left",0.661999941,1,1,0
"5",70,5,0.5,"stim/21.jpeg",2,1,1,NA,"HouseObjects",1,"stim/objects/HouseObjects/bleachbottle.png",1,"left","",NA,0,0,0
"6",70,6,0.7,"stim/34.jpeg",3,4,2,NA,"Instruments",2,"stim/objects/Instruments/doublebass.png",1,"right","right",0.57799983,1,1,0
"7",70,7,0.9,"stim/54.jpeg",5,4,3,NA,"Instruments",2,"stim/objects/Instruments/chime2.png",3,"right","left",0.49000001,0,0,0
"8",70,8,0.7,"stim/31.jpeg",3,1,2,NA,"Instruments",2,"stim/objects/Instruments/clarinet.png",1,"right","",NA,0,0,0
"9",70,9,0.9,"stim/63.jpeg",6,3,3,NA,"HouseObjects",1,"stim/objects/HouseObjects/clothesdryingrack2.png",1,"left","left",0.50999999,1,1,0
"10",70,10,0.7,"stim/42.jpeg",4,2,2,NA,"HouseObjects",1,"stim/objects/HouseObjects/ballofstring2.png",2,"left","left",0.503999949,1,1,0
"11",70,11,0.7,"stim/42.jpeg",4,2,2,NA,"HouseObjects",1,"stim/objects/HouseObjects/ballofstring2.png",3,"left","left",0.496999741,1,1,0
"12",70,12,0.9,"stim/51.jpeg",5,1,3,NA,"Instruments",2,"stim/objects/Instruments/bassdrum2.png",1,"right","right",0.481999874,1,1,0
"13",70,13,0.7,"stim/33.jpeg",3,3,2,NA,"Instruments",2,"stim/objects/Instruments/cymbal.png",1,"right","right",0.554000139,1,1,0
"14",70,14,0.9,"stim/62.jpeg",6,2,3,NA,"HouseObjects",1,"stim/objects/HouseObjects/clock2.png",1,"left","left",0.500999928,1,1,0
"15",70,15,0.9,"stim/52.jpeg",5,2,3,NA,"Instruments",2,"stim/objects/Instruments/bassguitar2.png",3,"right","right",0.601999998,1,1,0
"16",70,16,0.5,"stim/23.jpeg",2,3,1,NA,"HouseObjects",1,"stim/objects/HouseObjects/bottle.png",2,"left","right",0.569999933,0,0,0
"17",70,17,0.5,"stim/11.jpeg",1,1,1,NA,"Instruments",2,"stim/objects/Instruments/accordion.png",2,"right","right",0.58100009,1,1,0
"18",70,18,0.9,"stim/61.jpeg",6,1,3,NA,"HouseObjects",1,"stim/objects/HouseObjects/bucket2.png",4,"left","left",0.553999901,1,1,0
"19",70,19,0.7,"stim/34.jpeg",3,4,2,NA,"Instruments",2,"stim/objects/Instruments/doublebass.png",4,"right","right",0.483999968,1,1,0
"20",70,20,0.1,"stim/51.jpeg",5,1,3,NA,"HouseObjects",1,"stim/objects/HouseObjects/bleachbottle2.png",1,"left","right",0.488999844,0,0,0
"21",70,21,0.9,"stim/63.jpeg",6,3,3,NA,"HouseObjects",1,"stim/objects/HouseObjects/clothesdryingrack2.png",3,"left","left",0.525000095,1,1,0
"22",70,22,0.5,"stim/14.jpeg",1,4,1,NA,"HouseObjects",1,"stim/objects/HouseObjects/basket.png",3,"left","right",0.536999941,0,0,0
"23",70,23,0.9,"stim/64.jpeg",6,4,3,NA,"HouseObjects",1,"stim/objects/HouseObjects/clothespin2.png",4,"left","left",0.536000013,1,1,0
"24",70,24,0.5,"stim/24.jpeg",2,4,1,NA,"Instruments",2,"stim/objects/Instruments/chime.png",1,"right","right",0.423000097,1,1,0
"25",70,25,0.5,"stim/11.jpeg",1,1,1,NA,"HouseObjects",1,"stim/objects/HouseObjects/ashtray.png",2,"left","right",0.506000042,0,0,0
"26",70,26,0.9,"stim/62.jpeg",6,2,3,NA,"HouseObjects",1,"stim/objects/HouseObjects/clock2.png",4,"left","left",0.50999999,1,1,0
"27",70,27,0.5,"stim/23.jpeg",2,3,1,NA,"HouseObjects",1,"stim/objects/HouseObjects/bottle.png",1,"left","left",0.646999836,1,1,0
"28",70,28,0.3,"stim/42.jpeg",4,2,2,NA,"Instruments",2,"stim/objects/Instruments/acousticguitar2.png",3,"right","left",0.60199976,0,0,0
"29",70,29,0.7,"stim/34.jpeg",3,4,2,NA,"Instruments",2,"stim/objects/Instruments/doublebass.png",4,"right","right",0.549999952,1,1,0
"30",70,30,0.7,"stim/32.jpeg",3,2,2,NA,"Instruments",2,"stim/objects/Instruments/cornet.png",1,"right","right",0.54399991,1,1,0
"31",70,31,0.9,"stim/64.jpeg",6,4,3,NA,"HouseObjects",1,"stim/objects/HouseObjects/clothespin2.png",1,"left","left",0.473999977,1,1,0
"32",70,32,0.9,"stim/61.jpeg",6,1,3,NA,"HouseObjects",1,"stim/objects/HouseObjects/bucket2.png",2,"left","left",0.45299983,1,1,0
"33",70,33,0.7,"stim/31.jpeg",3,1,2,NA,"Instruments",2,"stim/objects/Instruments/clarinet.png",4,"right","right",0.526000023,1,1,0
"34",70,34,0.5,"stim/14.jpeg",1,4,1,NA,"HouseObjects",1,"stim/objects/HouseObjects/basket.png",2,"left","left",0.654000044,1,1,0
"35",70,35,0.5,"stim/21.jpeg",2,1,1,NA,"Instruments",2,"stim/objects/Instruments/bassdrum.png",4,"right","right",0.476999998,1,1,0
"36",70,36,0.5,"stim/14.jpeg",1,4,1,NA,"HouseObjects",1,"stim/objects/HouseObjects/basket.png",3,"left","left",0.531000137,1,1,0
"37",70,37,0.3,"stim/41.jpeg",4,1,2,NA,"Instruments",2,"stim/objects/Instruments/accordion2.png",2,"right","left",0.564999819,0,0,0
"38",70,38,0.7,"stim/32.jpeg",3,2,2,NA,"Instruments",2,"stim/objects/Instruments/cornet.png",1,"right","right",0.532999992,1,1,0
"39",70,39,0.7,"stim/41.jpeg",4,1,2,NA,"HouseObjects",1,"stim/objects/HouseObjects/ashtray2.png",4,"left","left",0.53399992,1,1,0
"40",70,40,0.7,"stim/31.jpeg",3,1,2,NA,"Instruments",2,"stim/objects/Instruments/clarinet.png",3,"right","right",0.517999887,1,1,0
"41",70,41,0.5,"stim/13.jpeg",1,3,1,NA,"HouseObjects",1,"stim/objects/HouseObjects/barbecuelighter.png",1,"left","left",0.55099988,1,1,0
"42",70,42,0.5,"stim/11.jpeg",1,1,1,NA,"Instruments",2,"stim/objects/Instruments/accordion.png",4,"right","left",0.586999893,0,0,0
"43",70,43,0.3,"stim/43.jpeg",4,3,2,NA,"Instruments",2,"stim/objects/Instruments/balalaika2.png",1,"right","left",0.601999998,0,0,0
"44",70,44,0.9,"stim/53.jpeg",5,3,3,NA,"Instruments",2,"stim/objects/Instruments/cello2.png",3,"right","right",0.503999949,1,1,0
"45",70,45,0.1,"stim/64.jpeg",6,4,3,NA,"Instruments",2,"stim/objects/Instruments/doublebass2.png",3,"right","left",0.486999989,0,0,0
"46",70,46,0.5,"stim/12.jpeg",1,2,1,NA,"HouseObjects",1,"stim/objects/HouseObjects/ballofstring.png",2,"left","left",0.508999825,1,1,0
"47",70,47,0.5,"stim/22.jpeg",2,2,1,NA,"HouseObjects",1,"stim/objects/HouseObjects/blender.png",3,"left","right",0.45299983,0,0,0
"48",70,48,0.3,"stim/43.jpeg",4,3,2,NA,"Instruments",2,"stim/objects/Instruments/balalaika2.png",3,"right","left",0.467999935,0,0,0
"49",70,49,0.7,"stim/43.jpeg",4,3,2,NA,"HouseObjects",1,"stim/objects/HouseObjects/barbecuelighter2.png",2,"left","left",0.623999834,1,1,0
"50",70,50,0.5,"stim/12.jpeg",1,2,1,NA,"Instruments",2,"stim/objects/Instruments/acousticguitar.png",3,"right","left",0.587999821,0,0,0
"51",70,51,0.5,"stim/24.jpeg",2,4,1,NA,"HouseObjects",1,"stim/objects/HouseObjects/broom.png",4,"left","right",0.514999866,0,0,0
"52",70,52,0.9,"stim/52.jpeg",5,2,3,NA,"Instruments",2,"stim/objects/Instruments/bassguitar2.png",1,"right","right",0.546999931,1,1,0
"53",70,53,0.3,"stim/31.jpeg",3,1,2,NA,"HouseObjects",1,"stim/objects/HouseObjects/bucket.png",2,"left","right",0.639999866,0,0,0
"54",70,54,0.5,"stim/13.jpeg",1,3,1,NA,"Instruments",2,"stim/objects/Instruments/balalaika.png",2,"right","left",0.615999937,0,0,0
"55",70,55,0.3,"stim/32.jpeg",3,2,2,NA,"HouseObjects",1,"stim/objects/HouseObjects/clock.png",2,"left","right",0.542999983,0,0,0
"56",70,56,0.9,"stim/63.jpeg",6,3,3,NA,"HouseObjects",1,"stim/objects/HouseObjects/clothesdryingrack2.png",2,"left","left",0.516000032,1,1,0
"57",70,57,0.7,"stim/44.jpeg",4,4,2,NA,"HouseObjects",1,"stim/objects/HouseObjects/basket2.png",3,"left","left",0.546999931,1,1,0
"58",70,58,0.5,"stim/21.jpeg",2,1,1,NA,"Instruments",2,"stim/objects/Instruments/bassdrum.png",2,"right","left",0.705999851,0,0,0
"59",70,59,0.1,"stim/52.jpeg",5,2,3,NA,"HouseObjects",1,"stim/objects/HouseObjects/blender2.png",3,"left","right",0.585999966,0,0,0
"60",70,60,0.9,"stim/51.jpeg",5,1,3,NA,"Instruments",2,"stim/objects/Instruments/bassdrum2.png",3,"right","right",0.575999975,1,1,0
"61",70,61,0.5,"stim/23.jpeg",2,3,1,NA,"Instruments",2,"stim/objects/Instruments/cello.png",4,"right","left",0.696999788,0,0,0
"62",70,62,0.9,"stim/61.jpeg",6,1,3,NA,"HouseObjects",1,"stim/objects/HouseObjects/bucket2.png",2,"left","left",0.519999981,1,1,0
"63",70,63,0.3,"stim/32.jpeg",3,2,2,NA,"HouseObjects",1,"stim/objects/HouseObjects/clock.png",4,"left","right",0.505999804,0,0,0
"64",70,64,0.5,"stim/14.jpeg",1,4,1,NA,"Instruments",2,"stim/objects/Instruments/banjo.png",1,"right","right",0.638000011,1,1,0
"65",70,65,0.7,"stim/41.jpeg",4,1,2,NA,"HouseObjects",1,"stim/objects/HouseObjects/ashtray2.png",2,"left","left",0.564999819,1,1,0
"66",70,66,0.9,"stim/53.jpeg",5,3,3,NA,"Instruments",2,"stim/objects/Instruments/cello2.png",4,"right","right",0.500999928,1,1,0
"67",70,67,0.5,"stim/23.jpeg",2,3,1,NA,"Instruments",2,"stim/objects/Instruments/cello.png",4,"right","left",0.519999981,0,0,0
"68",70,68,0.7,"stim/43.jpeg",4,3,2,NA,"HouseObjects",1,"stim/objects/HouseObjects/barbecuelighter2.png",1,"left","left",0.517999887,1,1,0
"69",70,69,0.5,"stim/24.jpeg",2,4,1,NA,"Instruments",2,"stim/objects/Instruments/chime.png",3,"right","left",0.559000015,0,0,0
"70",70,70,0.7,"stim/32.jpeg",3,2,2,NA,"Instruments",2,"stim/objects/Instruments/cornet.png",4,"right","right",0.522000074,1,1,0
"71",70,71,0.3,"stim/41.jpeg",4,1,2,NA,"Instruments",2,"stim/objects/Instruments/accordion2.png",3,"right","left",0.518999815,0,0,0
"72",70,72,0.9,"stim/63.jpeg",6,3,3,NA,"HouseObjects",1,"stim/objects/HouseObjects/clothesdryingrack2.png",2,"left","left",0.511999846,1,1,0
"73",70,73,0.5,"stim/24.jpeg",2,4,1,NA,"HouseObjects",1,"stim/objects/HouseObjects/broom.png",4,"left","left",0.736999989,1,1,0
"74",70,74,0.7,"stim/43.jpeg",4,3,2,NA,"HouseObjects",1,"stim/objects/HouseObjects/barbecuelighter2.png",4,"left","left",0.495999813,1,1,0
"75",70,75,0.5,"stim/14.jpeg",1,4,1,NA,"Instruments",2,"stim/objects/Instruments/banjo.png",3,"right","left",0.549999952,0,0,0
"76",70,76,0.9,"stim/64.jpeg",6,4,3,NA,"HouseObjects",1,"stim/objects/HouseObjects/clothespin2.png",3,"left","left",0.505999804,1,1,0
"77",70,77,0.5,"stim/24.jpeg",2,4,1,NA,"HouseObjects",1,"stim/objects/HouseObjects/broom.png",4,"left","",NA,0,0,0
"78",70,78,0.5,"stim/22.jpeg",2,2,1,NA,"HouseObjects",1,"stim/objects/HouseObjects/blender.png",4,"left","right",0.506000042,0,0,0
"79",70,79,0.7,"stim/31.jpeg",3,1,2,NA,"Instruments",2,"stim/objects/Instruments/clarinet.png",3,"right","right",0.45299983,1,1,0
"80",70,80,0.9,"stim/61.jpeg",6,1,3,NA,"HouseObjects",1,"stim/objects/HouseObjects/bucket2.png",3,"left","left",0.478999853,1,1,0
"81",70,81,0.7,"stim/34.jpeg",3,4,2,NA,"Instruments",2,"stim/objects/Instruments/doublebass.png",3,"right","right",0.518999815,1,1,0
"82",70,82,0.5,"stim/22.jpeg",2,2,1,NA,"HouseObjects",1,"stim/objects/HouseObjects/blender.png",3,"left","left",0.575000048,1,1,0
"83",70,83,0.9,"stim/52.jpeg",5,2,3,NA,"Instruments",2,"stim/objects/Instruments/bassguitar2.png",3,"right","right",0.472000122,1,1,0
"84",70,84,0.9,"stim/61.jpeg",6,1,3,NA,"HouseObjects",1,"stim/objects/HouseObjects/bucket2.png",2,"left","left",0.50999999,1,1,0
"85",70,85,0.9,"stim/54.jpeg",5,4,3,NA,"Instruments",2,"stim/objects/Instruments/chime2.png",4,"right","right",0.421000004,1,1,0
"86",70,86,0.3,"stim/34.jpeg",3,4,2,NA,"HouseObjects",1,"stim/objects/HouseObjects/clothespin.png",1,"left","right",0.486000061,0,0,0
"87",70,87,0.9,"stim/53.jpeg",5,3,3,NA,"Instruments",2,"stim/objects/Instruments/cello2.png",2,"right","right",0.50999999,1,1,0
"88",70,88,0.5,"stim/23.jpeg",2,3,1,NA,"Instruments",2,"stim/objects/Instruments/cello.png",3,"right","left",0.691999912,0,0,0
"89",70,89,0.7,"stim/33.jpeg",3,3,2,NA,"Instruments",2,"stim/objects/Instruments/cymbal.png",2,"right","right",0.503000021,1,1,0
"90",70,90,0.3,"stim/44.jpeg",4,4,2,NA,"Instruments",2,"stim/objects/Instruments/banjo2.png",4,"right","left",0.514999866,0,0,0
"91",70,91,0.7,"stim/42.jpeg",4,2,2,NA,"HouseObjects",1,"stim/objects/HouseObjects/ballofstring2.png",4,"left","left",0.556999922,1,1,0
"92",70,92,0.7,"stim/44.jpeg",4,4,2,NA,"HouseObjects",1,"stim/objects/HouseObjects/basket2.png",3,"left","left",0.53399992,1,1,0
"93",70,93,0.7,"stim/31.jpeg",3,1,2,NA,"Instruments",2,"stim/objects/Instruments/clarinet.png",4,"right","right",0.438999891,1,1,0
"94",70,94,0.5,"stim/13.jpeg",1,3,1,NA,"Instruments",2,"stim/objects/Instruments/balalaika.png",2,"right","left",0.666000128,0,0,0
"95",70,95,0.5,"stim/12.jpeg",1,2,1,NA,"HouseObjects",1,"stim/objects/HouseObjects/ballofstring.png",1,"left","left",0.645999908,1,1,0
"96",70,96,0.9,"stim/51.jpeg",5,1,3,NA,"Instruments",2,"stim/objects/Instruments/bassdrum2.png",1,"right","right",0.496000051,1,1,0
"97",70,97,0.9,"stim/64.jpeg",6,4,3,NA,"HouseObjects",1,"stim/objects/HouseObjects/clothespin2.png",1,"left","left",0.5,1,1,0
"98",70,98,0.7,"stim/43.jpeg",4,3,2,NA,"HouseObjects",1,"stim/objects/HouseObjects/barbecuelighter2.png",2,"left","left",0.546999931,1,1,0
"99",70,99,0.3,"stim/41.jpeg",4,1,2,NA,"Instruments",2,"stim/objects/Instruments/accordion2.png",1,"right","left",0.585999966,0,0,0
"100",70,100,0.3,"stim/44.jpeg",4,4,2,NA,"Instruments",2,"stim/objects/Instruments/banjo2.png",1,"right","left",0.629999876,0,0,0
"101",70,101,0.9,"stim/62.jpeg",6,2,3,NA,"HouseObjects",1,"stim/objects/HouseObjects/clock2.png",3,"left","left",0.493999958,1,1,0
"102",70,102,0.5,"stim/11.jpeg",1,1,1,NA,"HouseObjects",1,"stim/objects/HouseObjects/ashtray.png",4,"left","right",0.548999786,0,0,0
"103",70,103,0.9,"stim/64.jpeg",6,4,3,NA,"HouseObjects",1,"stim/objects/HouseObjects/clothespin2.png",3,"left","left",0.492000103,1,1,0
"104",70,104,0.9,"stim/54.jpeg",5,4,3,NA,"Instruments",2,"stim/objects/Instruments/chime2.png",2,"right","right",0.471999884,1,1,0
"105",70,105,0.5,"stim/14.jpeg",1,4,1,NA,"Instruments",2,"stim/objects/Instruments/banjo.png",1,"right","left",0.678999901,0,0,0
"106",70,106,0.5,"stim/12.jpeg",1,2,1,NA,"HouseObjects",1,"stim/objects/HouseObjects/ballofstring.png",4,"left","left",0.569999933,1,1,0
"107",70,107,0.3,"stim/31.jpeg",3,1,2,NA,"HouseObjects",1,"stim/objects/HouseObjects/bucket.png",1,"left","right",0.517999887,0,0,0
"108",70,108,0.5,"stim/12.jpeg",1,2,1,NA,"Instruments",2,"stim/objects/Instruments/acousticguitar.png",2,"right","right",0.5,1,1,0
"109",70,109,0.9,"stim/51.jpeg",5,1,3,NA,"Instruments",2,"stim/objects/Instruments/bassdrum2.png",1,"right","right",0.528999805,1,1,0
"110",70,110,0.5,"stim/23.jpeg",2,3,1,NA,"Instruments",2,"stim/objects/Instruments/cello.png",4,"right","left",0.523000002,0,0,0
"111",70,111,0.5,"stim/23.jpeg",2,3,1,NA,"HouseObjects",1,"stim/objects/HouseObjects/bottle.png",1,"left","left",0.610999823,1,1,0
"112",70,112,0.5,"stim/21.jpeg",2,1,1,NA,"HouseObjects",1,"stim/objects/HouseObjects/bleachbottle.png",4,"left","right",0.583999872,0,0,0
"113",70,113,0.7,"stim/43.jpeg",4,3,2,NA,"HouseObjects",1,"stim/objects/HouseObjects/barbecuelighter2.png",2,"left","left",0.491999865,1,1,0
"114",70,114,0.5,"stim/12.jpeg",1,2,1,NA,"Instruments",2,"stim/objects/Instruments/acousticguitar.png",3,"right","left",0.674000025,0,0,0
"115",70,115,0.5,"stim/13.jpeg",1,3,1,NA,"HouseObjects",1,"stim/objects/HouseObjects/barbecuelighter.png",3,"left","left",0.635999918,1,1,0
"116",70,116,0.5,"stim/13.jpeg",1,3,1,NA,"Instruments",2,"stim/objects/Instruments/balalaika.png",4,"right","left",0.575000048,0,0,0
"117",70,117,0.7,"stim/41.jpeg",4,1,2,NA,"HouseObjects",1,"stim/objects/HouseObjects/ashtray2.png",2,"left","left",0.502999783,1,1,0
"118",70,118,0.3,"stim/44.jpeg",4,4,2,NA,"Instruments",2,"stim/objects/Instruments/banjo2.png",3,"right","left",0.483999968,0,0,0
"119",70,119,0.5,"stim/14.jpeg",1,4,1,NA,"Instruments",2,"stim/objects/Instruments/banjo.png",2,"right","left",0.59499979,0,0,0
"120",70,120,0.7,"stim/41.jpeg",4,1,2,NA,"HouseObjects",1,"stim/objects/HouseObjects/ashtray2.png",4,"left","left",0.56799984,1,1,0
"121",70,121,0.5,"stim/23.jpeg",2,3,1,NA,"Instruments",2,"stim/objects/Instruments/cello.png",2,"right","left",0.809000015,0,0,0
"122",70,122,0.7,"stim/44.jpeg",4,4,2,NA,"HouseObjects",1,"stim/objects/HouseObjects/basket2.png",4,"left","left",0.573999882,1,1,0
"123",70,123,0.3,"stim/42.jpeg",4,2,2,NA,"Instruments",2,"stim/objects/Instruments/acousticguitar2.png",4,"right","left",0.566999912,0,0,0
"124",70,124,0.1,"stim/61.jpeg",6,1,3,NA,"Instruments",2,"stim/objects/Instruments/clarinet2.png",4,"right","left",0.484999895,0,0,0
"125",70,125,0.9,"stim/52.jpeg",5,2,3,NA,"Instruments",2,"stim/objects/Instruments/bassguitar2.png",2,"right","right",0.525999784,1,1,0
"126",70,126,0.7,"stim/33.jpeg",3,3,2,NA,"Instruments",2,"stim/objects/Instruments/cymbal.png",3,"right","right",0.529000044,1,1,0
"127",70,127,0.7,"stim/32.jpeg",3,2,2,NA,"Instruments",2,"stim/objects/Instruments/cornet.png",3,"right","right",0.559000015,1,1,0
"128",70,128,0.7,"stim/31.jpeg",3,1,2,NA,"Instruments",2,"stim/objects/Instruments/clarinet.png",1,"right","right",0.488999844,1,1,0
"129",70,129,0.7,"stim/43.jpeg",4,3,2,NA,"HouseObjects",1,"stim/objects/HouseObjects/barbecuelighter2.png",4,"left","left",0.507999897,1,1,0
"130",70,130,0.5,"stim/21.jpeg",2,1,1,NA,"HouseObjects",1,"stim/objects/HouseObjects/bleachbottle.png",1,"left","right",0.539999962,0,0,0
"131",70,131,0.5,"stim/23.jpeg",2,3,1,NA,"HouseObjects",1,"stim/objects/HouseObjects/bottle.png",1,"left","left",0.592999935,1,1,0
"132",70,132,0.7,"stim/34.jpeg",3,4,2,NA,"Instruments",2,"stim/objects/Instruments/doublebass.png",3,"right","right",0.525000095,1,1,0
"133",70,133,0.9,"stim/64.jpeg",6,4,3,NA,"HouseObjects",1,"stim/objects/HouseObjects/clothespin2.png",1,"left","left",0.523000002,1,1,0
"134",70,134,0.9,"stim/62.jpeg",6,2,3,NA,"HouseObjects",1,"stim/objects/HouseObjects/clock2.png",3,"left","left",0.534999847,1,1,0
"135",70,135,0.5,"stim/12.jpeg",1,2,1,NA,"HouseObjects",1,"stim/objects/HouseObjects/ballofstring.png",3,"left","right",0.549999952,0,0,0
"136",70,136,0.9,"stim/54.jpeg",5,4,3,NA,"Instruments",2,"stim/objects/Instruments/chime2.png",1,"right","right",0.468999863,1,1,0
"137",70,137,0.5,"stim/21.jpeg",2,1,1,NA,"Instruments",2,"stim/objects/Instruments/bassdrum.png",1,"right","right",0.712000132,1,1,0
"138",70,138,0.5,"stim/11.jpeg",1,1,1,NA,"Instruments",2,"stim/objects/Instruments/accordion.png",3,"right","right",0.575000048,1,1,0
"139",70,139,0.7,"stim/44.jpeg",4,4,2,NA,"HouseObjects",1,"stim/objects/HouseObjects/basket2.png",2,"left","left",0.542999744,1,1,0
"140",70,140,0.9,"stim/53.jpeg",5,3,3,NA,"Instruments",2,"stim/objects/Instruments/cello2.png",2,"right","right",0.475000143,1,1,0
"141",70,141,0.7,"stim/43.jpeg",4,3,2,NA,"HouseObjects",1,"stim/objects/HouseObjects/barbecuelighter2.png",4,"left","left",0.559999943,1,1,0
"142",70,142,0.7,"stim/32.jpeg",3,2,2,NA,"Instruments",2,"stim/objects/Instruments/cornet.png",2,"right","right",0.476000071,1,1,0
"143",70,143,0.5,"stim/24.jpeg",2,4,1,NA,"Instruments",2,"stim/objects/Instruments/chime.png",4,"right","right",0.43599987,1,1,0
"144",70,144,0.5,"stim/13.jpeg",1,3,1,NA,"Instruments",2,"stim/objects/Instruments/balalaika.png",4,"right","left",0.611999989,0,0,0
"145",70,145,0.9,"stim/63.jpeg",6,3,3,NA,"HouseObjects",1,"stim/objects/HouseObjects/clothesdryingrack2.png",4,"left","left",0.615999937,1,1,0
"146",70,146,0.3,"stim/33.jpeg",3,3,2,NA,"HouseObjects",1,"stim/objects/HouseObjects/clothesdryingrack.png",4,"left","right",0.591999769,0,0,0
"147",70,147,0.5,"stim/14.jpeg",1,4,1,NA,"HouseObjects",1,"stim/objects/HouseObjects/basket.png",4,"left","left",0.7099998,1,1,0
"148",70,148,0.3,"stim/31.jpeg",3,1,2,NA,"HouseObjects",1,"stim/objects/HouseObjects/bucket.png",3,"left","right",0.541000128,0,0,0
"149",70,149,0.7,"stim/32.jpeg",3,2,2,NA,"Instruments",2,"stim/objects/Instruments/cornet.png",1,"right","right",0.505999804,1,1,0
"150",70,150,0.9,"stim/61.jpeg",6,1,3,NA,"HouseObjects",1,"stim/objects/HouseObjects/bucket2.png",1,"left","left",0.495000124,1,1,0
"151",70,151,0.1,"stim/62.jpeg",6,2,3,NA,"Instruments",2,"stim/objects/Instruments/cornet2.png",1,"right","left",0.492000103,0,0,0
"152",70,152,0.3,"stim/34.jpeg",3,4,2,NA,"HouseObjects",1,"stim/objects/HouseObjects/clothespin.png",1,"left","right",0.423999786,0,0,0
"153",70,153,0.1,"stim/54.jpeg",5,4,3,NA,"HouseObjects",1,"stim/objects/HouseObjects/broom2.png",4,"left","right",0.440999746,0,0,0
"154",70,154,0.9,"stim/64.jpeg",6,4,3,NA,"HouseObjects",1,"stim/objects/HouseObjects/clothespin2.png",2,"left","left",0.529000044,1,1,0
"155",70,155,0.9,"stim/54.jpeg",5,4,3,NA,"Instruments",2,"stim/objects/Instruments/chime2.png",2,"right","right",0.453999996,1,1,0
"156",70,156,0.7,"stim/42.jpeg",4,2,2,NA,"HouseObjects",1,"stim/objects/HouseObjects/ballofstring2.png",2,"left","left",0.520999908,1,1,0
"157",70,157,0.9,"stim/62.jpeg",6,2,3,NA,"HouseObjects",1,"stim/objects/HouseObjects/clock2.png",4,"left","left",0.512000084,1,1,0
"158",70,158,0.9,"stim/51.jpeg",5,1,3,NA,"Instruments",2,"stim/objects/Instruments/bassdrum2.png",4,"right","right",0.430000067,1,1,0
"159",70,159,0.9,"stim/51.jpeg",5,1,3,NA,"Instruments",2,"stim/objects/Instruments/bassdrum2.png",2,"right","right",0.487999916,1,1,0
"160",70,160,0.5,"stim/22.jpeg",2,2,1,NA,"Instruments",2,"stim/objects/Instruments/bassguitar.png",1,"right","right",0.545999765,1,1,0
"161",70,161,0.5,"stim/21.jpeg",2,1,1,NA,"Instruments",2,"stim/objects/Instruments/bassdrum.png",2,"right","left",0.761999846,0,0,0
"162",70,162,0.9,"stim/62.jpeg",6,2,3,NA,"HouseObjects",1,"stim/objects/HouseObjects/clock2.png",2,"left","left",0.524999857,1,1,0
"163",70,163,0.5,"stim/11.jpeg",1,1,1,NA,"HouseObjects",1,"stim/objects/HouseObjects/ashtray.png",4,"left","right",0.727999926,0,0,0
"164",70,164,0.3,"stim/32.jpeg",3,2,2,NA,"HouseObjects",1,"stim/objects/HouseObjects/clock.png",3,"left","right",0.50999999,0,0,0
"165",70,165,0.3,"stim/42.jpeg",4,2,2,NA,"Instruments",2,"stim/objects/Instruments/acousticguitar2.png",2,"right","left",0.464999914,0,0,0
"166",70,166,0.5,"stim/14.jpeg",1,4,1,NA,"Instruments",2,"stim/objects/Instruments/banjo.png",3,"right","right",0.465999842,1,1,0
"167",70,167,0.5,"stim/11.jpeg",1,1,1,NA,"HouseObjects",1,"stim/objects/HouseObjects/ashtray.png",2,"left","right",0.553999901,0,0,0
"168",70,168,0.5,"stim/13.jpeg",1,3,1,NA,"Instruments",2,"stim/objects/Instruments/balalaika.png",3,"right","right",0.498999834,1,1,0
"169",70,169,0.7,"stim/33.jpeg",3,3,2,NA,"Instruments",2,"stim/objects/Instruments/cymbal.png",2,"right","right",0.493000031,1,1,0
"170",70,170,0.9,"stim/54.jpeg",5,4,3,NA,"Instruments",2,"stim/objects/Instruments/chime2.png",4,"right","right",0.439999819,1,1,0
"171",70,171,0.5,"stim/24.jpeg",2,4,1,NA,"HouseObjects",1,"stim/objects/HouseObjects/broom.png",2,"left","right",0.52699995,0,0,0
"172",70,172,0.9,"stim/61.jpeg",6,1,3,NA,"HouseObjects",1,"stim/objects/HouseObjects/bucket2.png",3,"left","left",0.474999905,1,1,0
"173",70,173,0.9,"stim/51.jpeg",5,1,3,NA,"Instruments",2,"stim/objects/Instruments/bassdrum2.png",4,"right","right",0.413000107,1,1,0
"174",70,174,0.5,"stim/13.jpeg",1,3,1,NA,"HouseObjects",1,"stim/objects/HouseObjects/barbecuelighter.png",3,"left","left",0.603999853,1,1,0
"175",70,175,0.9,"stim/53.jpeg",5,3,3,NA,"Instruments",2,"stim/objects/Instruments/cello2.png",2,"right","right",0.47300005,1,1,0
"176",70,176,0.9,"stim/63.jpeg",6,3,3,NA,"HouseObjects",1,"stim/objects/HouseObjects/clothesdryingrack2.png",4,"left","left",0.473999977,1,1,0
"177",70,177,0.9,"stim/54.jpeg",5,4,3,NA,"Instruments",2,"stim/objects/Instruments/chime2.png",2,"right","right",0.553999901,1,1,0
"178",70,178,0.7,"stim/44.jpeg",4,4,2,NA,"HouseObjects",1,"stim/objects/HouseObjects/basket2.png",3,"left","left",0.572000027,1,1,0
"179",70,179,0.5,"stim/12.jpeg",1,2,1,NA,"Instruments",2,"stim/objects/Instruments/acousticguitar.png",2,"right","right",0.536000013,1,1,0
"180",70,180,0.5,"stim/23.jpeg",2,3,1,NA,"HouseObjects",1,"stim/objects/HouseObjects/bottle.png",3,"left","right",0.594000101,0,0,0
"181",70,181,0.9,"stim/53.jpeg",5,3,3,NA,"Instruments",2,"stim/objects/Instruments/cello2.png",1,"right","right",0.473999977,1,1,0
"182",70,182,0.9,"stim/54.jpeg",5,4,3,NA,"Instruments",2,"stim/objects/Instruments/chime2.png",4,"right","right",0.575999975,1,1,0
"183",70,183,0.5,"stim/12.jpeg",1,2,1,NA,"HouseObjects",1,"stim/objects/HouseObjects/ballofstring.png",2,"left","right",0.588000059,0,0,0
"184",70,184,0.9,"stim/53.jpeg",5,3,3,NA,"Instruments",2,"stim/objects/Instruments/cello2.png",2,"right","right",0.444000006,1,1,0
"185",70,185,0.5,"stim/22.jpeg",2,2,1,NA,"HouseObjects",1,"stim/objects/HouseObjects/blender.png",2,"left","right",0.409999847,0,0,0
"186",70,186,0.5,"stim/13.jpeg",1,3,1,NA,"HouseObjects",1,"stim/objects/HouseObjects/barbecuelighter.png",1,"left","right",0.421999931,0,0,0
"187",70,187,0.5,"stim/22.jpeg",2,2,1,NA,"Instruments",2,"stim/objects/Instruments/bassguitar.png",2,"right","right",0.417999983,1,1,0
"188",70,188,0.9,"stim/52.jpeg",5,2,3,NA,"Instruments",2,"stim/objects/Instruments/bassguitar2.png",1,"right","right",0.487999916,1,1,0
"189",70,189,0.9,"stim/63.jpeg",6,3,3,NA,"HouseObjects",1,"stim/objects/HouseObjects/clothesdryingrack2.png",4,"left","left",0.50999999,1,1,0
"190",70,190,0.5,"stim/14.jpeg",1,4,1,NA,"HouseObjects",1,"stim/objects/HouseObjects/basket.png",4,"left","right",0.489000082,0,0,0
"191",70,191,0.7,"stim/41.jpeg",4,1,2,NA,"HouseObjects",1,"stim/objects/HouseObjects/ashtray2.png",2,"left","left",0.508999825,1,1,0
"192",70,192,0.5,"stim/22.jpeg",2,2,1,NA,"HouseObjects",1,"stim/objects/HouseObjects/blender.png",2,"left","right",0.51699996,0,0,0
"193",70,193,0.5,"stim/21.jpeg",2,1,1,NA,"HouseObjects",1,"stim/objects/HouseObjects/bleachbottle.png",3,"left","right",0.649999857,0,0,0
"194",70,194,0.9,"stim/52.jpeg",5,2,3,NA,"Instruments",2,"stim/objects/Instruments/bassguitar2.png",3,"right","right",0.486000061,1,1,0
"195",70,195,0.9,"stim/52.jpeg",5,2,3,NA,"Instruments",2,"stim/objects/Instruments/bassguitar2.png",4,"right","right",0.49000001,1,1,0
"196",70,196,0.1,"stim/63.jpeg",6,3,3,NA,"Instruments",2,"stim/objects/Instruments/cymbal2.png",4,"right","left",0.44299984,0,0,0
"197",70,197,0.9,"stim/61.jpeg",6,1,3,NA,"HouseObjects",1,"stim/objects/HouseObjects/bucket2.png",2,"left","left",0.48699975,1,1,0
"198",70,198,0.7,"stim/31.jpeg",3,1,2,NA,"Instruments",2,"stim/objects/Instruments/clarinet.png",1,"right","right",0.535999775,1,1,0
"199",70,199,0.5,"stim/21.jpeg",2,1,1,NA,"HouseObjects",1,"stim/objects/HouseObjects/bleachbottle.png",1,"left","",NA,0,0,0
"200",70,200,0.5,"stim/22.jpeg",2,2,1,NA,"Instruments",2,"stim/objects/Instruments/bassguitar.png",1,"right","right",0.414999962,1,1,0
"201",70,201,0.5,"stim/12.jpeg",1,2,1,NA,"Instruments",2,"stim/objects/Instruments/acousticguitar.png",4,"right","left",0.59100008,0,0,0
"202",70,202,0.9,"stim/53.jpeg",5,3,3,NA,"Instruments",2,"stim/objects/Instruments/cello2.png",1,"right","right",0.454999924,1,1,0
"203",70,203,0.7,"stim/42.jpeg",4,2,2,NA,"HouseObjects",1,"stim/objects/HouseObjects/ballofstring2.png",3,"left","left",0.674999952,1,1,0
"204",70,204,0.9,"stim/62.jpeg",6,2,3,NA,"HouseObjects",1,"stim/objects/HouseObjects/clock2.png",1,"left","left",0.54399991,1,1,0
"205",70,205,0.5,"stim/22.jpeg",2,2,1,NA,"Instruments",2,"stim/objects/Instruments/bassguitar.png",1,"right","right",0.75999999,1,1,0
"206",70,206,0.9,"stim/62.jpeg",6,2,3,NA,"HouseObjects",1,"stim/objects/HouseObjects/clock2.png",4,"left","left",0.530999899,1,1,0
"207",70,207,0.5,"stim/11.jpeg",1,1,1,NA,"HouseObjects",1,"stim/objects/HouseObjects/ashtray.png",2,"left","right",0.53399992,0,0,0
"208",70,208,0.9,"stim/64.jpeg",6,4,3,NA,"HouseObjects",1,"stim/objects/HouseObjects/clothespin2.png",4,"left","left",0.51699996,1,1,0
"209",70,209,0.1,"stim/53.jpeg",5,3,3,NA,"HouseObjects",1,"stim/objects/HouseObjects/bottle2.png",2,"left","right",0.504999876,0,0,0
"210",70,210,0.7,"stim/33.jpeg",3,3,2,NA,"Instruments",2,"stim/objects/Instruments/cymbal.png",3,"right","right",0.510999918,1,1,0
"211",70,211,0.5,"stim/24.jpeg",2,4,1,NA,"Instruments",2,"stim/objects/Instruments/chime.png",1,"right","right",0.506000042,1,1,0
"212",70,212,0.7,"stim/42.jpeg",4,2,2,NA,"HouseObjects",1,"stim/objects/HouseObjects/ballofstring2.png",4,"left","right",0.487999916,0,0,0
"213",70,213,0.9,"stim/51.jpeg",5,1,3,NA,"Instruments",2,"stim/objects/Instruments/bassdrum2.png",1,"right","right",0.398999929,1,1,0
"214",70,214,0.7,"stim/34.jpeg",3,4,2,NA,"Instruments",2,"stim/objects/Instruments/doublebass.png",3,"right","right",0.426999807,1,1,0
"215",70,215,0.7,"stim/33.jpeg",3,3,2,NA,"Instruments",2,"stim/objects/Instruments/cymbal.png",1,"right","right",0.460999966,1,1,0
"216",70,216,0.7,"stim/33.jpeg",3,3,2,NA,"Instruments",2,"stim/objects/Instruments/cymbal.png",1,"right","right",0.367999792,1,1,0
"217",70,217,0.7,"stim/32.jpeg",3,2,2,NA,"Instruments",2,"stim/objects/Instruments/cornet.png",2,"right","right",0.417000055,1,1,0
"218",70,218,0.5,"stim/21.jpeg",2,1,1,NA,"Instruments",2,"stim/objects/Instruments/bassdrum.png",1,"right","right",0.388000011,1,1,0
"219",70,219,0.5,"stim/13.jpeg",1,3,1,NA,"HouseObjects",1,"stim/objects/HouseObjects/barbecuelighter.png",4,"left","right",0.518000126,0,0,0
"220",70,220,0.7,"stim/44.jpeg",4,4,2,NA,"HouseObjects",1,"stim/objects/HouseObjects/basket2.png",1,"left","right",0.494999886,0,0,0
"221",70,221,0.9,"stim/52.jpeg",5,2,3,NA,"Instruments",2,"stim/objects/Instruments/bassguitar2.png",3,"right","right",0.562999964,1,1,0
"222",70,222,0.5,"stim/11.jpeg",1,1,1,NA,"Instruments",2,"stim/objects/Instruments/accordion.png",3,"right","right",0.713999987,1,1,0
"223",70,223,0.3,"stim/43.jpeg",4,3,2,NA,"Instruments",2,"stim/objects/Instruments/balalaika2.png",2,"right","left",0.501999855,0,0,0
"224",70,224,0.5,"stim/24.jpeg",2,4,1,NA,"Instruments",2,"stim/objects/Instruments/chime.png",1,"right","right",0.484999895,1,1,0
"225",70,225,0.7,"stim/42.jpeg",4,2,2,NA,"HouseObjects",1,"stim/objects/HouseObjects/ballofstring2.png",2,"left","left",0.544999838,1,1,0
"226",70,226,0.9,"stim/63.jpeg",6,3,3,NA,"HouseObjects",1,"stim/objects/HouseObjects/clothesdryingrack2.png",2,"left","left",0.43599987,1,1,0
"227",70,227,0.9,"stim/54.jpeg",5,4,3,NA,"Instruments",2,"stim/objects/Instruments/chime2.png",3,"right","right",0.492000103,1,1,0
"228",70,228,0.3,"stim/33.jpeg",3,3,2,NA,"HouseObjects",1,"stim/objects/HouseObjects/clothesdryingrack.png",3,"left","right",0.428999901,0,0,0
"229",70,229,0.9,"stim/64.jpeg",6,4,3,NA,"HouseObjects",1,"stim/objects/HouseObjects/clothespin2.png",3,"left","left",0.47699976,1,1,0
"230",70,230,0.9,"stim/53.jpeg",5,3,3,NA,"Instruments",2,"stim/objects/Instruments/cello2.png",1,"right","right",0.41899991,1,1,0
"231",70,231,0.9,"stim/52.jpeg",5,2,3,NA,"Instruments",2,"stim/objects/Instruments/bassguitar2.png",1,"right","right",0.423000097,1,1,0
"232",70,232,0.7,"stim/41.jpeg",4,1,2,NA,"HouseObjects",1,"stim/objects/HouseObjects/ashtray2.png",2,"left","left",0.54399991,1,1,0
"233",70,233,0.9,"stim/61.jpeg",6,1,3,NA,"HouseObjects",1,"stim/objects/HouseObjects/bucket2.png",2,"left","left",0.450999975,1,1,0
"234",70,234,0.9,"stim/51.jpeg",5,1,3,NA,"Instruments",2,"stim/objects/Instruments/bassdrum2.png",3,"right","right",0.421999931,1,1,0
"235",70,235,0.5,"stim/22.jpeg",2,2,1,NA,"Instruments",2,"stim/objects/Instruments/bassguitar.png",1,"right","right",0.421999931,1,1,0
"236",70,236,0.3,"stim/34.jpeg",3,4,2,NA,"HouseObjects",1,"stim/objects/HouseObjects/clothespin.png",4,"left","right",0.390000105,0,0,0
"237",70,237,0.3,"stim/33.jpeg",3,3,2,NA,"HouseObjects",1,"stim/objects/HouseObjects/clothesdryingrack.png",1,"left","right",0.417999983,0,0,0
"238",70,238,0.5,"stim/24.jpeg",2,4,1,NA,"HouseObjects",1,"stim/objects/HouseObjects/broom.png",3,"left","left",0.805999756,1,1,0
"239",70,239,0.7,"stim/34.jpeg",3,4,2,NA,"Instruments",2,"stim/objects/Instruments/doublebass.png",4,"right","right",0.404999971,1,1,0
"240",70,240,0.9,"stim/63.jpeg",6,3,3,NA,"HouseObjects",1,"stim/objects/HouseObjects/clothesdryingrack2.png",4,"left","left",0.562999725,1,1,0
