"","obj_file","X.x","participant.x","trialN.x","trial_cond","scn_file.x","scn_cat","scn_inst","scn_condition","fillers","obj_cat","obj_cat_num","quadrant","corr_ans","key_resp_trial.keys","key_resp_trial.rt","trial_acc","trial_acc_manual","group.x","practice","X.y","participant.y","OvsN","PE_level","object_cat","scn_file.y","corr_scn_cat","corr_scn_inst","scn_file.1","corr_loc","key_resp_id.keys","key_resp_id.rt","key_resp_conf.keys","key_resp_assoc.keys","key_resp_assoc.rt","key_resp_loc.keys","key_resp_loc.rt","trialN.y","id_acc","assoc.acc","cond_assoc","loc.acc","cond_loc","group.y"
"88","stim/objects/HouseObjects/clock2.png",1,70,1,0.9,"stim/62.jpeg",6,2,3,NA,"HouseObjects",1,3,"left","",NA,0,0,0,1,NA,NA,NA,NA,NA,NA,NA,NA,NA,NA,NA,NA,NA,NA,NA,NA,NA,NA,NA,NA,NA,NA,NA,NA
"42","stim/objects/HouseObjects/basket2.png",2,70,2,0.7,"stim/44.jpeg",4,4,2,NA,"HouseObjects",1,1,"left","left",0.750999928,1,1,0,1,NA,NA,NA,NA,NA,NA,NA,NA,NA,NA,NA,NA,NA,NA,NA,NA,NA,NA,NA,NA,NA,NA,NA,NA
"121","stim/objects/Instruments/accordion.png",3,70,3,0.5,"stim/11.jpeg",1,1,1,NA,"Instruments",2,3,"right","right",0.742000103,1,1,0,1,NA,NA,NA,NA,NA,NA,NA,NA,NA,NA,NA,NA,NA,NA,NA,NA,NA,NA,NA,NA,NA,NA,NA,NA
"6","stim/objects/HouseObjects/ashtray2.png",4,70,4,0.7,"stim/41.jpeg",4,1,2,NA,"HouseObjects",1,4,"left","left",0.661999941,1,1,0,1,NA,NA,NA,NA,NA,NA,NA,NA,NA,NA,NA,NA,NA,NA,NA,NA,NA,NA,NA,NA,NA,NA,NA,NA
"49","stim/objects/HouseObjects/bleachbottle.png",5,70,5,0.5,"stim/21.jpeg",2,1,1,NA,"HouseObjects",1,1,"left","",NA,0,0,0,1,NA,NA,NA,NA,NA,NA,NA,NA,NA,NA,NA,NA,NA,NA,NA,NA,NA,NA,NA,NA,NA,NA,NA,NA
"233","stim/objects/Instruments/doublebass.png",6,70,6,0.7,"stim/34.jpeg",3,4,2,NA,"Instruments",2,1,"right","right",0.57799983,1,1,0,1,NA,NA,NA,NA,NA,NA,NA,NA,NA,NA,NA,NA,NA,NA,NA,NA,NA,NA,NA,NA,NA,NA,NA,NA
"200","stim/objects/Instruments/chime2.png",7,70,7,0.9,"stim/54.jpeg",5,4,3,NA,"Instruments",2,3,"right","left",0.49000001,0,0,0,1,NA,NA,NA,NA,NA,NA,NA,NA,NA,NA,NA,NA,NA,NA,NA,NA,NA,NA,NA,NA,NA,NA,NA,NA
"209","stim/objects/Instruments/clarinet.png",8,70,8,0.7,"stim/31.jpeg",3,1,2,NA,"Instruments",2,1,"right","",NA,0,0,0,1,NA,NA,NA,NA,NA,NA,NA,NA,NA,NA,NA,NA,NA,NA,NA,NA,NA,NA,NA,NA,NA,NA,NA,NA
"100","stim/objects/HouseObjects/clothesdryingrack2.png",9,70,9,0.9,"stim/63.jpeg",6,3,3,NA,"HouseObjects",1,1,"left","left",0.50999999,1,1,0,1,NA,NA,NA,NA,NA,NA,NA,NA,NA,NA,NA,NA,NA,NA,NA,NA,NA,NA,NA,NA,NA,NA,NA,NA
"18","stim/objects/HouseObjects/ballofstring2.png",10,70,10,0.7,"stim/42.jpeg",4,2,2,NA,"HouseObjects",1,2,"left","left",0.503999949,1,1,0,1,NA,NA,NA,NA,NA,NA,NA,NA,NA,NA,NA,NA,NA,NA,NA,NA,NA,NA,NA,NA,NA,NA,NA,NA
"19","stim/objects/HouseObjects/ballofstring2.png",11,70,11,0.7,"stim/42.jpeg",4,2,2,NA,"HouseObjects",1,3,"left","left",0.496999741,1,1,0,1,NA,NA,NA,NA,NA,NA,NA,NA,NA,NA,NA,NA,NA,NA,NA,NA,NA,NA,NA,NA,NA,NA,NA,NA
"158","stim/objects/Instruments/bassdrum2.png",12,70,12,0.9,"stim/51.jpeg",5,1,3,NA,"Instruments",2,1,"right","right",0.481999874,1,1,0,1,NA,NA,NA,NA,NA,NA,NA,NA,NA,NA,NA,NA,NA,NA,NA,NA,NA,NA,NA,NA,NA,NA,NA,NA
"225","stim/objects/Instruments/cymbal.png",13,70,13,0.7,"stim/33.jpeg",3,3,2,NA,"Instruments",2,1,"right","right",0.554000139,1,1,0,1,NA,NA,NA,NA,NA,NA,NA,NA,NA,NA,NA,NA,NA,NA,NA,NA,NA,NA,NA,NA,NA,NA,NA,NA
"89","stim/objects/HouseObjects/clock2.png",14,70,14,0.9,"stim/62.jpeg",6,2,3,NA,"HouseObjects",1,1,"left","left",0.500999928,1,1,0,1,NA,NA,NA,NA,NA,NA,NA,NA,NA,NA,NA,NA,NA,NA,NA,NA,NA,NA,NA,NA,NA,NA,NA,NA
"172","stim/objects/Instruments/bassguitar2.png",15,70,15,0.9,"stim/52.jpeg",5,2,3,NA,"Instruments",2,3,"right","right",0.601999998,1,1,0,1,NA,NA,NA,NA,NA,NA,NA,NA,NA,NA,NA,NA,NA,NA,NA,NA,NA,NA,NA,NA,NA,NA,NA,NA
"61","stim/objects/HouseObjects/bottle.png",16,70,16,0.5,"stim/23.jpeg",2,3,1,NA,"HouseObjects",1,2,"left","right",0.569999933,0,0,0,1,NA,NA,NA,NA,NA,NA,NA,NA,NA,NA,NA,NA,NA,NA,NA,NA,NA,NA,NA,NA,NA,NA,NA,NA
"122","stim/objects/Instruments/accordion.png",17,70,17,0.5,"stim/11.jpeg",1,1,1,NA,"Instruments",2,2,"right","right",0.58100009,1,1,0,1,NA,NA,NA,NA,NA,NA,NA,NA,NA,NA,NA,NA,NA,NA,NA,NA,NA,NA,NA,NA,NA,NA,NA,NA
"76","stim/objects/HouseObjects/bucket2.png",18,70,18,0.9,"stim/61.jpeg",6,1,3,NA,"HouseObjects",1,4,"left","left",0.553999901,1,1,0,1,NA,NA,NA,NA,NA,NA,NA,NA,NA,NA,NA,NA,NA,NA,NA,NA,NA,NA,NA,NA,NA,NA,NA,NA
"234","stim/objects/Instruments/doublebass.png",19,70,19,0.7,"stim/34.jpeg",3,4,2,NA,"Instruments",2,4,"right","right",0.483999968,1,1,0,1,NA,NA,NA,NA,NA,NA,NA,NA,NA,NA,NA,NA,NA,NA,NA,NA,NA,NA,NA,NA,NA,NA,NA,NA
"54","stim/objects/HouseObjects/bleachbottle2.png",20,70,20,0.1,"stim/51.jpeg",5,1,3,NA,"HouseObjects",1,1,"left","right",0.488999844,0,0,0,1,NA,NA,NA,NA,NA,NA,NA,NA,NA,NA,NA,NA,NA,NA,NA,NA,NA,NA,NA,NA,NA,NA,NA,NA
"101","stim/objects/HouseObjects/clothesdryingrack2.png",21,70,21,0.9,"stim/63.jpeg",6,3,3,NA,"HouseObjects",1,3,"left","left",0.525000095,1,1,0,1,NA,NA,NA,NA,NA,NA,NA,NA,NA,NA,NA,NA,NA,NA,NA,NA,NA,NA,NA,NA,NA,NA,NA,NA
"37","stim/objects/HouseObjects/basket.png",22,70,22,0.5,"stim/14.jpeg",1,4,1,NA,"HouseObjects",1,3,"left","right",0.536999941,0,0,0,1,NA,NA,NA,NA,NA,NA,NA,NA,NA,NA,NA,NA,NA,NA,NA,NA,NA,NA,NA,NA,NA,NA,NA,NA
"112","stim/objects/HouseObjects/clothespin2.png",23,70,23,0.9,"stim/64.jpeg",6,4,3,NA,"HouseObjects",1,4,"left","left",0.536000013,1,1,0,1,NA,NA,NA,NA,NA,NA,NA,NA,NA,NA,NA,NA,NA,NA,NA,NA,NA,NA,NA,NA,NA,NA,NA,NA
"195","stim/objects/Instruments/chime.png",24,70,24,0.5,"stim/24.jpeg",2,4,1,NA,"Instruments",2,1,"right","right",0.423000097,1,1,0,1,NA,NA,NA,NA,NA,NA,NA,NA,NA,NA,NA,NA,NA,NA,NA,NA,NA,NA,NA,NA,NA,NA,NA,NA
"1","stim/objects/HouseObjects/ashtray.png",25,70,25,0.5,"stim/11.jpeg",1,1,1,NA,"HouseObjects",1,2,"left","right",0.506000042,0,0,0,1,NA,NA,NA,NA,NA,NA,NA,NA,NA,NA,NA,NA,NA,NA,NA,NA,NA,NA,NA,NA,NA,NA,NA,NA
"90","stim/objects/HouseObjects/clock2.png",26,70,26,0.9,"stim/62.jpeg",6,2,3,NA,"HouseObjects",1,4,"left","left",0.50999999,1,1,0,1,NA,NA,NA,NA,NA,NA,NA,NA,NA,NA,NA,NA,NA,NA,NA,NA,NA,NA,NA,NA,NA,NA,NA,NA
"62","stim/objects/HouseObjects/bottle.png",27,70,27,0.5,"stim/23.jpeg",2,3,1,NA,"HouseObjects",1,1,"left","left",0.646999836,1,1,0,1,NA,NA,NA,NA,NA,NA,NA,NA,NA,NA,NA,NA,NA,NA,NA,NA,NA,NA,NA,NA,NA,NA,NA,NA
"134","stim/objects/Instruments/acousticguitar2.png",28,70,28,0.3,"stim/42.jpeg",4,2,2,NA,"Instruments",2,3,"right","left",0.60199976,0,0,0,1,NA,NA,NA,NA,NA,NA,NA,NA,NA,NA,NA,NA,NA,NA,NA,NA,NA,NA,NA,NA,NA,NA,NA,NA
"235","stim/objects/Instruments/doublebass.png",29,70,29,0.7,"stim/34.jpeg",3,4,2,NA,"Instruments",2,4,"right","right",0.549999952,1,1,0,1,NA,NA,NA,NA,NA,NA,NA,NA,NA,NA,NA,NA,NA,NA,NA,NA,NA,NA,NA,NA,NA,NA,NA,NA
"217","stim/objects/Instruments/cornet.png",30,70,30,0.7,"stim/32.jpeg",3,2,2,NA,"Instruments",2,1,"right","right",0.54399991,1,1,0,1,NA,NA,NA,NA,NA,NA,NA,NA,NA,NA,NA,NA,NA,NA,NA,NA,NA,NA,NA,NA,NA,NA,NA,NA
"113","stim/objects/HouseObjects/clothespin2.png",31,70,31,0.9,"stim/64.jpeg",6,4,3,NA,"HouseObjects",1,1,"left","left",0.473999977,1,1,0,1,NA,NA,NA,NA,NA,NA,NA,NA,NA,NA,NA,NA,NA,NA,NA,NA,NA,NA,NA,NA,NA,NA,NA,NA
"77","stim/objects/HouseObjects/bucket2.png",32,70,32,0.9,"stim/61.jpeg",6,1,3,NA,"HouseObjects",1,2,"left","left",0.45299983,1,1,0,1,NA,NA,NA,NA,NA,NA,NA,NA,NA,NA,NA,NA,NA,NA,NA,NA,NA,NA,NA,NA,NA,NA,NA,NA
"210","stim/objects/Instruments/clarinet.png",33,70,33,0.7,"stim/31.jpeg",3,1,2,NA,"Instruments",2,4,"right","right",0.526000023,1,1,0,1,NA,NA,NA,NA,NA,NA,NA,NA,NA,NA,NA,NA,NA,NA,NA,NA,NA,NA,NA,NA,NA,NA,NA,NA
"38","stim/objects/HouseObjects/basket.png",34,70,34,0.5,"stim/14.jpeg",1,4,1,NA,"HouseObjects",1,2,"left","left",0.654000044,1,1,0,1,NA,NA,NA,NA,NA,NA,NA,NA,NA,NA,NA,NA,NA,NA,NA,NA,NA,NA,NA,NA,NA,NA,NA,NA
"153","stim/objects/Instruments/bassdrum.png",35,70,35,0.5,"stim/21.jpeg",2,1,1,NA,"Instruments",2,4,"right","right",0.476999998,1,1,0,1,NA,NA,NA,NA,NA,NA,NA,NA,NA,NA,NA,NA,NA,NA,NA,NA,NA,NA,NA,NA,NA,NA,NA,NA
"39","stim/objects/HouseObjects/basket.png",36,70,36,0.5,"stim/14.jpeg",1,4,1,NA,"HouseObjects",1,3,"left","left",0.531000137,1,1,0,1,NA,NA,NA,NA,NA,NA,NA,NA,NA,NA,NA,NA,NA,NA,NA,NA,NA,NA,NA,NA,NA,NA,NA,NA
"126","stim/objects/Instruments/accordion2.png",37,70,37,0.3,"stim/41.jpeg",4,1,2,NA,"Instruments",2,2,"right","left",0.564999819,0,0,0,1,NA,NA,NA,NA,NA,NA,NA,NA,NA,NA,NA,NA,NA,NA,NA,NA,NA,NA,NA,NA,NA,NA,NA,NA
"218","stim/objects/Instruments/cornet.png",38,70,38,0.7,"stim/32.jpeg",3,2,2,NA,"Instruments",2,1,"right","right",0.532999992,1,1,0,1,NA,NA,NA,NA,NA,NA,NA,NA,NA,NA,NA,NA,NA,NA,NA,NA,NA,NA,NA,NA,NA,NA,NA,NA
"7","stim/objects/HouseObjects/ashtray2.png",39,70,39,0.7,"stim/41.jpeg",4,1,2,NA,"HouseObjects",1,4,"left","left",0.53399992,1,1,0,1,NA,NA,NA,NA,NA,NA,NA,NA,NA,NA,NA,NA,NA,NA,NA,NA,NA,NA,NA,NA,NA,NA,NA,NA
"211","stim/objects/Instruments/clarinet.png",40,70,40,0.7,"stim/31.jpeg",3,1,2,NA,"Instruments",2,3,"right","right",0.517999887,1,1,0,1,NA,NA,NA,NA,NA,NA,NA,NA,NA,NA,NA,NA,NA,NA,NA,NA,NA,NA,NA,NA,NA,NA,NA,NA
"25","stim/objects/HouseObjects/barbecuelighter.png",41,70,41,0.5,"stim/13.jpeg",1,3,1,NA,"HouseObjects",1,1,"left","left",0.55099988,1,1,0,1,NA,NA,NA,NA,NA,NA,NA,NA,NA,NA,NA,NA,NA,NA,NA,NA,NA,NA,NA,NA,NA,NA,NA,NA
"123","stim/objects/Instruments/accordion.png",42,70,42,0.5,"stim/11.jpeg",1,1,1,NA,"Instruments",2,4,"right","left",0.586999893,0,0,0,1,NA,NA,NA,NA,NA,NA,NA,NA,NA,NA,NA,NA,NA,NA,NA,NA,NA,NA,NA,NA,NA,NA,NA,NA
"142","stim/objects/Instruments/balalaika2.png",43,70,43,0.3,"stim/43.jpeg",4,3,2,NA,"Instruments",2,1,"right","left",0.601999998,0,0,0,1,NA,NA,NA,NA,NA,NA,NA,NA,NA,NA,NA,NA,NA,NA,NA,NA,NA,NA,NA,NA,NA,NA,NA,NA
"186","stim/objects/Instruments/cello2.png",44,70,44,0.9,"stim/53.jpeg",5,3,3,NA,"Instruments",2,3,"right","right",0.503999949,1,1,0,1,NA,NA,NA,NA,NA,NA,NA,NA,NA,NA,NA,NA,NA,NA,NA,NA,NA,NA,NA,NA,NA,NA,NA,NA
"240","stim/objects/Instruments/doublebass2.png",45,70,45,0.1,"stim/64.jpeg",6,4,3,NA,"Instruments",2,3,"right","left",0.486999989,0,0,0,1,NA,NA,NA,NA,NA,NA,NA,NA,NA,NA,NA,NA,NA,NA,NA,NA,NA,NA,NA,NA,NA,NA,NA,NA
"13","stim/objects/HouseObjects/ballofstring.png",46,70,46,0.5,"stim/12.jpeg",1,2,1,NA,"HouseObjects",1,2,"left","left",0.508999825,1,1,0,1,NA,NA,NA,NA,NA,NA,NA,NA,NA,NA,NA,NA,NA,NA,NA,NA,NA,NA,NA,NA,NA,NA,NA,NA
"55","stim/objects/HouseObjects/blender.png",47,70,47,0.5,"stim/22.jpeg",2,2,1,NA,"HouseObjects",1,3,"left","right",0.45299983,0,0,0,1,NA,NA,NA,NA,NA,NA,NA,NA,NA,NA,NA,NA,NA,NA,NA,NA,NA,NA,NA,NA,NA,NA,NA,NA
"143","stim/objects/Instruments/balalaika2.png",48,70,48,0.3,"stim/43.jpeg",4,3,2,NA,"Instruments",2,3,"right","left",0.467999935,0,0,0,1,NA,NA,NA,NA,NA,NA,NA,NA,NA,NA,NA,NA,NA,NA,NA,NA,NA,NA,NA,NA,NA,NA,NA,NA
"30","stim/objects/HouseObjects/barbecuelighter2.png",49,70,49,0.7,"stim/43.jpeg",4,3,2,NA,"HouseObjects",1,2,"left","left",0.623999834,1,1,0,1,NA,NA,NA,NA,NA,NA,NA,NA,NA,NA,NA,NA,NA,NA,NA,NA,NA,NA,NA,NA,NA,NA,NA,NA
"129","stim/objects/Instruments/acousticguitar.png",50,70,50,0.5,"stim/12.jpeg",1,2,1,NA,"Instruments",2,3,"right","left",0.587999821,0,0,0,1,NA,NA,NA,NA,NA,NA,NA,NA,NA,NA,NA,NA,NA,NA,NA,NA,NA,NA,NA,NA,NA,NA,NA,NA
"67","stim/objects/HouseObjects/broom.png",51,70,51,0.5,"stim/24.jpeg",2,4,1,NA,"HouseObjects",1,4,"left","right",0.514999866,0,0,0,1,NA,NA,NA,NA,NA,NA,NA,NA,NA,NA,NA,NA,NA,NA,NA,NA,NA,NA,NA,NA,NA,NA,NA,NA
"173","stim/objects/Instruments/bassguitar2.png",52,70,52,0.9,"stim/52.jpeg",5,2,3,NA,"Instruments",2,1,"right","right",0.546999931,1,1,0,1,NA,NA,NA,NA,NA,NA,NA,NA,NA,NA,NA,NA,NA,NA,NA,NA,NA,NA,NA,NA,NA,NA,NA,NA
"73","stim/objects/HouseObjects/bucket.png",53,70,53,0.3,"stim/31.jpeg",3,1,2,NA,"HouseObjects",1,2,"left","right",0.639999866,0,0,0,1,NA,NA,NA,NA,NA,NA,NA,NA,NA,NA,NA,NA,NA,NA,NA,NA,NA,NA,NA,NA,NA,NA,NA,NA
"137","stim/objects/Instruments/balalaika.png",54,70,54,0.5,"stim/13.jpeg",1,3,1,NA,"Instruments",2,2,"right","left",0.615999937,0,0,0,1,NA,NA,NA,NA,NA,NA,NA,NA,NA,NA,NA,NA,NA,NA,NA,NA,NA,NA,NA,NA,NA,NA,NA,NA
"85","stim/objects/HouseObjects/clock.png",55,70,55,0.3,"stim/32.jpeg",3,2,2,NA,"HouseObjects",1,2,"left","right",0.542999983,0,0,0,1,NA,NA,NA,NA,NA,NA,NA,NA,NA,NA,NA,NA,NA,NA,NA,NA,NA,NA,NA,NA,NA,NA,NA,NA
"102","stim/objects/HouseObjects/clothesdryingrack2.png",56,70,56,0.9,"stim/63.jpeg",6,3,3,NA,"HouseObjects",1,2,"left","left",0.516000032,1,1,0,1,NA,NA,NA,NA,NA,NA,NA,NA,NA,NA,NA,NA,NA,NA,NA,NA,NA,NA,NA,NA,NA,NA,NA,NA
"43","stim/objects/HouseObjects/basket2.png",57,70,57,0.7,"stim/44.jpeg",4,4,2,NA,"HouseObjects",1,3,"left","left",0.546999931,1,1,0,1,NA,NA,NA,NA,NA,NA,NA,NA,NA,NA,NA,NA,NA,NA,NA,NA,NA,NA,NA,NA,NA,NA,NA,NA
"154","stim/objects/Instruments/bassdrum.png",58,70,58,0.5,"stim/21.jpeg",2,1,1,NA,"Instruments",2,2,"right","left",0.705999851,0,0,0,1,NA,NA,NA,NA,NA,NA,NA,NA,NA,NA,NA,NA,NA,NA,NA,NA,NA,NA,NA,NA,NA,NA,NA,NA
"60","stim/objects/HouseObjects/blender2.png",59,70,59,0.1,"stim/52.jpeg",5,2,3,NA,"HouseObjects",1,3,"left","right",0.585999966,0,0,0,1,NA,NA,NA,NA,NA,NA,NA,NA,NA,NA,NA,NA,NA,NA,NA,NA,NA,NA,NA,NA,NA,NA,NA,NA
"159","stim/objects/Instruments/bassdrum2.png",60,70,60,0.9,"stim/51.jpeg",5,1,3,NA,"Instruments",2,3,"right","right",0.575999975,1,1,0,1,NA,NA,NA,NA,NA,NA,NA,NA,NA,NA,NA,NA,NA,NA,NA,NA,NA,NA,NA,NA,NA,NA,NA,NA
"181","stim/objects/Instruments/cello.png",61,70,61,0.5,"stim/23.jpeg",2,3,1,NA,"Instruments",2,4,"right","left",0.696999788,0,0,0,1,NA,NA,NA,NA,NA,NA,NA,NA,NA,NA,NA,NA,NA,NA,NA,NA,NA,NA,NA,NA,NA,NA,NA,NA
"78","stim/objects/HouseObjects/bucket2.png",62,70,62,0.9,"stim/61.jpeg",6,1,3,NA,"HouseObjects",1,2,"left","left",0.519999981,1,1,0,1,NA,NA,NA,NA,NA,NA,NA,NA,NA,NA,NA,NA,NA,NA,NA,NA,NA,NA,NA,NA,NA,NA,NA,NA
"86","stim/objects/HouseObjects/clock.png",63,70,63,0.3,"stim/32.jpeg",3,2,2,NA,"HouseObjects",1,4,"left","right",0.505999804,0,0,0,1,NA,NA,NA,NA,NA,NA,NA,NA,NA,NA,NA,NA,NA,NA,NA,NA,NA,NA,NA,NA,NA,NA,NA,NA
"145","stim/objects/Instruments/banjo.png",64,70,64,0.5,"stim/14.jpeg",1,4,1,NA,"Instruments",2,1,"right","right",0.638000011,1,1,0,1,NA,NA,NA,NA,NA,NA,NA,NA,NA,NA,NA,NA,NA,NA,NA,NA,NA,NA,NA,NA,NA,NA,NA,NA
"8","stim/objects/HouseObjects/ashtray2.png",65,70,65,0.7,"stim/41.jpeg",4,1,2,NA,"HouseObjects",1,2,"left","left",0.564999819,1,1,0,1,NA,NA,NA,NA,NA,NA,NA,NA,NA,NA,NA,NA,NA,NA,NA,NA,NA,NA,NA,NA,NA,NA,NA,NA
"187","stim/objects/Instruments/cello2.png",66,70,66,0.9,"stim/53.jpeg",5,3,3,NA,"Instruments",2,4,"right","right",0.500999928,1,1,0,1,NA,NA,NA,NA,NA,NA,NA,NA,NA,NA,NA,NA,NA,NA,NA,NA,NA,NA,NA,NA,NA,NA,NA,NA
"182","stim/objects/Instruments/cello.png",67,70,67,0.5,"stim/23.jpeg",2,3,1,NA,"Instruments",2,4,"right","left",0.519999981,0,0,0,1,NA,NA,NA,NA,NA,NA,NA,NA,NA,NA,NA,NA,NA,NA,NA,NA,NA,NA,NA,NA,NA,NA,NA,NA
"31","stim/objects/HouseObjects/barbecuelighter2.png",68,70,68,0.7,"stim/43.jpeg",4,3,2,NA,"HouseObjects",1,1,"left","left",0.517999887,1,1,0,1,NA,NA,NA,NA,NA,NA,NA,NA,NA,NA,NA,NA,NA,NA,NA,NA,NA,NA,NA,NA,NA,NA,NA,NA
"196","stim/objects/Instruments/chime.png",69,70,69,0.5,"stim/24.jpeg",2,4,1,NA,"Instruments",2,3,"right","left",0.559000015,0,0,0,1,NA,NA,NA,NA,NA,NA,NA,NA,NA,NA,NA,NA,NA,NA,NA,NA,NA,NA,NA,NA,NA,NA,NA,NA
"219","stim/objects/Instruments/cornet.png",70,70,70,0.7,"stim/32.jpeg",3,2,2,NA,"Instruments",2,4,"right","right",0.522000074,1,1,0,1,NA,NA,NA,NA,NA,NA,NA,NA,NA,NA,NA,NA,NA,NA,NA,NA,NA,NA,NA,NA,NA,NA,NA,NA
"127","stim/objects/Instruments/accordion2.png",71,70,71,0.3,"stim/41.jpeg",4,1,2,NA,"Instruments",2,3,"right","left",0.518999815,0,0,0,1,NA,NA,NA,NA,NA,NA,NA,NA,NA,NA,NA,NA,NA,NA,NA,NA,NA,NA,NA,NA,NA,NA,NA,NA
"103","stim/objects/HouseObjects/clothesdryingrack2.png",72,70,72,0.9,"stim/63.jpeg",6,3,3,NA,"HouseObjects",1,2,"left","left",0.511999846,1,1,0,1,NA,NA,NA,NA,NA,NA,NA,NA,NA,NA,NA,NA,NA,NA,NA,NA,NA,NA,NA,NA,NA,NA,NA,NA
"68","stim/objects/HouseObjects/broom.png",73,70,73,0.5,"stim/24.jpeg",2,4,1,NA,"HouseObjects",1,4,"left","left",0.736999989,1,1,0,1,NA,NA,NA,NA,NA,NA,NA,NA,NA,NA,NA,NA,NA,NA,NA,NA,NA,NA,NA,NA,NA,NA,NA,NA
"32","stim/objects/HouseObjects/barbecuelighter2.png",74,70,74,0.7,"stim/43.jpeg",4,3,2,NA,"HouseObjects",1,4,"left","left",0.495999813,1,1,0,1,NA,NA,NA,NA,NA,NA,NA,NA,NA,NA,NA,NA,NA,NA,NA,NA,NA,NA,NA,NA,NA,NA,NA,NA
"146","stim/objects/Instruments/banjo.png",75,70,75,0.5,"stim/14.jpeg",1,4,1,NA,"Instruments",2,3,"right","left",0.549999952,0,0,0,1,NA,NA,NA,NA,NA,NA,NA,NA,NA,NA,NA,NA,NA,NA,NA,NA,NA,NA,NA,NA,NA,NA,NA,NA
"114","stim/objects/HouseObjects/clothespin2.png",76,70,76,0.9,"stim/64.jpeg",6,4,3,NA,"HouseObjects",1,3,"left","left",0.505999804,1,1,0,1,NA,NA,NA,NA,NA,NA,NA,NA,NA,NA,NA,NA,NA,NA,NA,NA,NA,NA,NA,NA,NA,NA,NA,NA
"69","stim/objects/HouseObjects/broom.png",77,70,77,0.5,"stim/24.jpeg",2,4,1,NA,"HouseObjects",1,4,"left","",NA,0,0,0,1,NA,NA,NA,NA,NA,NA,NA,NA,NA,NA,NA,NA,NA,NA,NA,NA,NA,NA,NA,NA,NA,NA,NA,NA
"56","stim/objects/HouseObjects/blender.png",78,70,78,0.5,"stim/22.jpeg",2,2,1,NA,"HouseObjects",1,4,"left","right",0.506000042,0,0,0,1,NA,NA,NA,NA,NA,NA,NA,NA,NA,NA,NA,NA,NA,NA,NA,NA,NA,NA,NA,NA,NA,NA,NA,NA
"212","stim/objects/Instruments/clarinet.png",79,70,79,0.7,"stim/31.jpeg",3,1,2,NA,"Instruments",2,3,"right","right",0.45299983,1,1,0,1,NA,NA,NA,NA,NA,NA,NA,NA,NA,NA,NA,NA,NA,NA,NA,NA,NA,NA,NA,NA,NA,NA,NA,NA
"79","stim/objects/HouseObjects/bucket2.png",80,70,80,0.9,"stim/61.jpeg",6,1,3,NA,"HouseObjects",1,3,"left","left",0.478999853,1,1,0,1,NA,NA,NA,NA,NA,NA,NA,NA,NA,NA,NA,NA,NA,NA,NA,NA,NA,NA,NA,NA,NA,NA,NA,NA
"236","stim/objects/Instruments/doublebass.png",81,70,81,0.7,"stim/34.jpeg",3,4,2,NA,"Instruments",2,3,"right","right",0.518999815,1,1,0,1,NA,NA,NA,NA,NA,NA,NA,NA,NA,NA,NA,NA,NA,NA,NA,NA,NA,NA,NA,NA,NA,NA,NA,NA
"57","stim/objects/HouseObjects/blender.png",82,70,82,0.5,"stim/22.jpeg",2,2,1,NA,"HouseObjects",1,3,"left","left",0.575000048,1,1,0,1,NA,NA,NA,NA,NA,NA,NA,NA,NA,NA,NA,NA,NA,NA,NA,NA,NA,NA,NA,NA,NA,NA,NA,NA
"174","stim/objects/Instruments/bassguitar2.png",83,70,83,0.9,"stim/52.jpeg",5,2,3,NA,"Instruments",2,3,"right","right",0.472000122,1,1,0,1,NA,NA,NA,NA,NA,NA,NA,NA,NA,NA,NA,NA,NA,NA,NA,NA,NA,NA,NA,NA,NA,NA,NA,NA
"80","stim/objects/HouseObjects/bucket2.png",84,70,84,0.9,"stim/61.jpeg",6,1,3,NA,"HouseObjects",1,2,"left","left",0.50999999,1,1,0,1,NA,NA,NA,NA,NA,NA,NA,NA,NA,NA,NA,NA,NA,NA,NA,NA,NA,NA,NA,NA,NA,NA,NA,NA
"201","stim/objects/Instruments/chime2.png",85,70,85,0.9,"stim/54.jpeg",5,4,3,NA,"Instruments",2,4,"right","right",0.421000004,1,1,0,1,NA,NA,NA,NA,NA,NA,NA,NA,NA,NA,NA,NA,NA,NA,NA,NA,NA,NA,NA,NA,NA,NA,NA,NA
"109","stim/objects/HouseObjects/clothespin.png",86,70,86,0.3,"stim/34.jpeg",3,4,2,NA,"HouseObjects",1,1,"left","right",0.486000061,0,0,0,1,NA,NA,NA,NA,NA,NA,NA,NA,NA,NA,NA,NA,NA,NA,NA,NA,NA,NA,NA,NA,NA,NA,NA,NA
"188","stim/objects/Instruments/cello2.png",87,70,87,0.9,"stim/53.jpeg",5,3,3,NA,"Instruments",2,2,"right","right",0.50999999,1,1,0,1,NA,NA,NA,NA,NA,NA,NA,NA,NA,NA,NA,NA,NA,NA,NA,NA,NA,NA,NA,NA,NA,NA,NA,NA
"183","stim/objects/Instruments/cello.png",88,70,88,0.5,"stim/23.jpeg",2,3,1,NA,"Instruments",2,3,"right","left",0.691999912,0,0,0,1,NA,NA,NA,NA,NA,NA,NA,NA,NA,NA,NA,NA,NA,NA,NA,NA,NA,NA,NA,NA,NA,NA,NA,NA
"226","stim/objects/Instruments/cymbal.png",89,70,89,0.7,"stim/33.jpeg",3,3,2,NA,"Instruments",2,2,"right","right",0.503000021,1,1,0,1,NA,NA,NA,NA,NA,NA,NA,NA,NA,NA,NA,NA,NA,NA,NA,NA,NA,NA,NA,NA,NA,NA,NA,NA
"150","stim/objects/Instruments/banjo2.png",90,70,90,0.3,"stim/44.jpeg",4,4,2,NA,"Instruments",2,4,"right","left",0.514999866,0,0,0,1,NA,NA,NA,NA,NA,NA,NA,NA,NA,NA,NA,NA,NA,NA,NA,NA,NA,NA,NA,NA,NA,NA,NA,NA
"20","stim/objects/HouseObjects/ballofstring2.png",91,70,91,0.7,"stim/42.jpeg",4,2,2,NA,"HouseObjects",1,4,"left","left",0.556999922,1,1,0,1,NA,NA,NA,NA,NA,NA,NA,NA,NA,NA,NA,NA,NA,NA,NA,NA,NA,NA,NA,NA,NA,NA,NA,NA
"44","stim/objects/HouseObjects/basket2.png",92,70,92,0.7,"stim/44.jpeg",4,4,2,NA,"HouseObjects",1,3,"left","left",0.53399992,1,1,0,1,NA,NA,NA,NA,NA,NA,NA,NA,NA,NA,NA,NA,NA,NA,NA,NA,NA,NA,NA,NA,NA,NA,NA,NA
"213","stim/objects/Instruments/clarinet.png",93,70,93,0.7,"stim/31.jpeg",3,1,2,NA,"Instruments",2,4,"right","right",0.438999891,1,1,0,1,NA,NA,NA,NA,NA,NA,NA,NA,NA,NA,NA,NA,NA,NA,NA,NA,NA,NA,NA,NA,NA,NA,NA,NA
"138","stim/objects/Instruments/balalaika.png",94,70,94,0.5,"stim/13.jpeg",1,3,1,NA,"Instruments",2,2,"right","left",0.666000128,0,0,0,1,NA,NA,NA,NA,NA,NA,NA,NA,NA,NA,NA,NA,NA,NA,NA,NA,NA,NA,NA,NA,NA,NA,NA,NA
"14","stim/objects/HouseObjects/ballofstring.png",95,70,95,0.5,"stim/12.jpeg",1,2,1,NA,"HouseObjects",1,1,"left","left",0.645999908,1,1,0,1,NA,NA,NA,NA,NA,NA,NA,NA,NA,NA,NA,NA,NA,NA,NA,NA,NA,NA,NA,NA,NA,NA,NA,NA
"160","stim/objects/Instruments/bassdrum2.png",96,70,96,0.9,"stim/51.jpeg",5,1,3,NA,"Instruments",2,1,"right","right",0.496000051,1,1,0,1,NA,NA,NA,NA,NA,NA,NA,NA,NA,NA,NA,NA,NA,NA,NA,NA,NA,NA,NA,NA,NA,NA,NA,NA
"115","stim/objects/HouseObjects/clothespin2.png",97,70,97,0.9,"stim/64.jpeg",6,4,3,NA,"HouseObjects",1,1,"left","left",0.5,1,1,0,1,NA,NA,NA,NA,NA,NA,NA,NA,NA,NA,NA,NA,NA,NA,NA,NA,NA,NA,NA,NA,NA,NA,NA,NA
"33","stim/objects/HouseObjects/barbecuelighter2.png",98,70,98,0.7,"stim/43.jpeg",4,3,2,NA,"HouseObjects",1,2,"left","left",0.546999931,1,1,0,1,NA,NA,NA,NA,NA,NA,NA,NA,NA,NA,NA,NA,NA,NA,NA,NA,NA,NA,NA,NA,NA,NA,NA,NA
"128","stim/objects/Instruments/accordion2.png",99,70,99,0.3,"stim/41.jpeg",4,1,2,NA,"Instruments",2,1,"right","left",0.585999966,0,0,0,1,NA,NA,NA,NA,NA,NA,NA,NA,NA,NA,NA,NA,NA,NA,NA,NA,NA,NA,NA,NA,NA,NA,NA,NA
"151","stim/objects/Instruments/banjo2.png",100,70,100,0.3,"stim/44.jpeg",4,4,2,NA,"Instruments",2,1,"right","left",0.629999876,0,0,0,1,NA,NA,NA,NA,NA,NA,NA,NA,NA,NA,NA,NA,NA,NA,NA,NA,NA,NA,NA,NA,NA,NA,NA,NA
"91","stim/objects/HouseObjects/clock2.png",101,70,101,0.9,"stim/62.jpeg",6,2,3,NA,"HouseObjects",1,3,"left","left",0.493999958,1,1,0,1,NA,NA,NA,NA,NA,NA,NA,NA,NA,NA,NA,NA,NA,NA,NA,NA,NA,NA,NA,NA,NA,NA,NA,NA
"2","stim/objects/HouseObjects/ashtray.png",102,70,102,0.5,"stim/11.jpeg",1,1,1,NA,"HouseObjects",1,4,"left","right",0.548999786,0,0,0,1,NA,NA,NA,NA,NA,NA,NA,NA,NA,NA,NA,NA,NA,NA,NA,NA,NA,NA,NA,NA,NA,NA,NA,NA
"116","stim/objects/HouseObjects/clothespin2.png",103,70,103,0.9,"stim/64.jpeg",6,4,3,NA,"HouseObjects",1,3,"left","left",0.492000103,1,1,0,1,NA,NA,NA,NA,NA,NA,NA,NA,NA,NA,NA,NA,NA,NA,NA,NA,NA,NA,NA,NA,NA,NA,NA,NA
"202","stim/objects/Instruments/chime2.png",104,70,104,0.9,"stim/54.jpeg",5,4,3,NA,"Instruments",2,2,"right","right",0.471999884,1,1,0,1,NA,NA,NA,NA,NA,NA,NA,NA,NA,NA,NA,NA,NA,NA,NA,NA,NA,NA,NA,NA,NA,NA,NA,NA
"147","stim/objects/Instruments/banjo.png",105,70,105,0.5,"stim/14.jpeg",1,4,1,NA,"Instruments",2,1,"right","left",0.678999901,0,0,0,1,NA,NA,NA,NA,NA,NA,NA,NA,NA,NA,NA,NA,NA,NA,NA,NA,NA,NA,NA,NA,NA,NA,NA,NA
"15","stim/objects/HouseObjects/ballofstring.png",106,70,106,0.5,"stim/12.jpeg",1,2,1,NA,"HouseObjects",1,4,"left","left",0.569999933,1,1,0,1,NA,NA,NA,NA,NA,NA,NA,NA,NA,NA,NA,NA,NA,NA,NA,NA,NA,NA,NA,NA,NA,NA,NA,NA
"74","stim/objects/HouseObjects/bucket.png",107,70,107,0.3,"stim/31.jpeg",3,1,2,NA,"HouseObjects",1,1,"left","right",0.517999887,0,0,0,1,NA,NA,NA,NA,NA,NA,NA,NA,NA,NA,NA,NA,NA,NA,NA,NA,NA,NA,NA,NA,NA,NA,NA,NA
"130","stim/objects/Instruments/acousticguitar.png",108,70,108,0.5,"stim/12.jpeg",1,2,1,NA,"Instruments",2,2,"right","right",0.5,1,1,0,1,NA,NA,NA,NA,NA,NA,NA,NA,NA,NA,NA,NA,NA,NA,NA,NA,NA,NA,NA,NA,NA,NA,NA,NA
"161","stim/objects/Instruments/bassdrum2.png",109,70,109,0.9,"stim/51.jpeg",5,1,3,NA,"Instruments",2,1,"right","right",0.528999805,1,1,0,1,NA,NA,NA,NA,NA,NA,NA,NA,NA,NA,NA,NA,NA,NA,NA,NA,NA,NA,NA,NA,NA,NA,NA,NA
"184","stim/objects/Instruments/cello.png",110,70,110,0.5,"stim/23.jpeg",2,3,1,NA,"Instruments",2,4,"right","left",0.523000002,0,0,0,1,NA,NA,NA,NA,NA,NA,NA,NA,NA,NA,NA,NA,NA,NA,NA,NA,NA,NA,NA,NA,NA,NA,NA,NA
"63","stim/objects/HouseObjects/bottle.png",111,70,111,0.5,"stim/23.jpeg",2,3,1,NA,"HouseObjects",1,1,"left","left",0.610999823,1,1,0,1,NA,NA,NA,NA,NA,NA,NA,NA,NA,NA,NA,NA,NA,NA,NA,NA,NA,NA,NA,NA,NA,NA,NA,NA
"50","stim/objects/HouseObjects/bleachbottle.png",112,70,112,0.5,"stim/21.jpeg",2,1,1,NA,"HouseObjects",1,4,"left","right",0.583999872,0,0,0,1,NA,NA,NA,NA,NA,NA,NA,NA,NA,NA,NA,NA,NA,NA,NA,NA,NA,NA,NA,NA,NA,NA,NA,NA
"34","stim/objects/HouseObjects/barbecuelighter2.png",113,70,113,0.7,"stim/43.jpeg",4,3,2,NA,"HouseObjects",1,2,"left","left",0.491999865,1,1,0,1,NA,NA,NA,NA,NA,NA,NA,NA,NA,NA,NA,NA,NA,NA,NA,NA,NA,NA,NA,NA,NA,NA,NA,NA
"131","stim/objects/Instruments/acousticguitar.png",114,70,114,0.5,"stim/12.jpeg",1,2,1,NA,"Instruments",2,3,"right","left",0.674000025,0,0,0,1,NA,NA,NA,NA,NA,NA,NA,NA,NA,NA,NA,NA,NA,NA,NA,NA,NA,NA,NA,NA,NA,NA,NA,NA
"26","stim/objects/HouseObjects/barbecuelighter.png",115,70,115,0.5,"stim/13.jpeg",1,3,1,NA,"HouseObjects",1,3,"left","left",0.635999918,1,1,0,1,NA,NA,NA,NA,NA,NA,NA,NA,NA,NA,NA,NA,NA,NA,NA,NA,NA,NA,NA,NA,NA,NA,NA,NA
"139","stim/objects/Instruments/balalaika.png",116,70,116,0.5,"stim/13.jpeg",1,3,1,NA,"Instruments",2,4,"right","left",0.575000048,0,0,0,1,NA,NA,NA,NA,NA,NA,NA,NA,NA,NA,NA,NA,NA,NA,NA,NA,NA,NA,NA,NA,NA,NA,NA,NA
"9","stim/objects/HouseObjects/ashtray2.png",117,70,117,0.7,"stim/41.jpeg",4,1,2,NA,"HouseObjects",1,2,"left","left",0.502999783,1,1,0,1,NA,NA,NA,NA,NA,NA,NA,NA,NA,NA,NA,NA,NA,NA,NA,NA,NA,NA,NA,NA,NA,NA,NA,NA
"152","stim/objects/Instruments/banjo2.png",118,70,118,0.3,"stim/44.jpeg",4,4,2,NA,"Instruments",2,3,"right","left",0.483999968,0,0,0,1,NA,NA,NA,NA,NA,NA,NA,NA,NA,NA,NA,NA,NA,NA,NA,NA,NA,NA,NA,NA,NA,NA,NA,NA
"148","stim/objects/Instruments/banjo.png",119,70,119,0.5,"stim/14.jpeg",1,4,1,NA,"Instruments",2,2,"right","left",0.59499979,0,0,0,1,NA,NA,NA,NA,NA,NA,NA,NA,NA,NA,NA,NA,NA,NA,NA,NA,NA,NA,NA,NA,NA,NA,NA,NA
"10","stim/objects/HouseObjects/ashtray2.png",120,70,120,0.7,"stim/41.jpeg",4,1,2,NA,"HouseObjects",1,4,"left","left",0.56799984,1,1,0,1,NA,NA,NA,NA,NA,NA,NA,NA,NA,NA,NA,NA,NA,NA,NA,NA,NA,NA,NA,NA,NA,NA,NA,NA
"185","stim/objects/Instruments/cello.png",121,70,121,0.5,"stim/23.jpeg",2,3,1,NA,"Instruments",2,2,"right","left",0.809000015,0,0,0,1,NA,NA,NA,NA,NA,NA,NA,NA,NA,NA,NA,NA,NA,NA,NA,NA,NA,NA,NA,NA,NA,NA,NA,NA
"45","stim/objects/HouseObjects/basket2.png",122,70,122,0.7,"stim/44.jpeg",4,4,2,NA,"HouseObjects",1,4,"left","left",0.573999882,1,1,0,1,NA,NA,NA,NA,NA,NA,NA,NA,NA,NA,NA,NA,NA,NA,NA,NA,NA,NA,NA,NA,NA,NA,NA,NA
"135","stim/objects/Instruments/acousticguitar2.png",123,70,123,0.3,"stim/42.jpeg",4,2,2,NA,"Instruments",2,4,"right","left",0.566999912,0,0,0,1,NA,NA,NA,NA,NA,NA,NA,NA,NA,NA,NA,NA,NA,NA,NA,NA,NA,NA,NA,NA,NA,NA,NA,NA
"216","stim/objects/Instruments/clarinet2.png",124,70,124,0.1,"stim/61.jpeg",6,1,3,NA,"Instruments",2,4,"right","left",0.484999895,0,0,0,1,NA,NA,NA,NA,NA,NA,NA,NA,NA,NA,NA,NA,NA,NA,NA,NA,NA,NA,NA,NA,NA,NA,NA,NA
"175","stim/objects/Instruments/bassguitar2.png",125,70,125,0.9,"stim/52.jpeg",5,2,3,NA,"Instruments",2,2,"right","right",0.525999784,1,1,0,1,NA,NA,NA,NA,NA,NA,NA,NA,NA,NA,NA,NA,NA,NA,NA,NA,NA,NA,NA,NA,NA,NA,NA,NA
"227","stim/objects/Instruments/cymbal.png",126,70,126,0.7,"stim/33.jpeg",3,3,2,NA,"Instruments",2,3,"right","right",0.529000044,1,1,0,1,NA,NA,NA,NA,NA,NA,NA,NA,NA,NA,NA,NA,NA,NA,NA,NA,NA,NA,NA,NA,NA,NA,NA,NA
"220","stim/objects/Instruments/cornet.png",127,70,127,0.7,"stim/32.jpeg",3,2,2,NA,"Instruments",2,3,"right","right",0.559000015,1,1,0,1,NA,NA,NA,NA,NA,NA,NA,NA,NA,NA,NA,NA,NA,NA,NA,NA,NA,NA,NA,NA,NA,NA,NA,NA
"214","stim/objects/Instruments/clarinet.png",128,70,128,0.7,"stim/31.jpeg",3,1,2,NA,"Instruments",2,1,"right","right",0.488999844,1,1,0,1,NA,NA,NA,NA,NA,NA,NA,NA,NA,NA,NA,NA,NA,NA,NA,NA,NA,NA,NA,NA,NA,NA,NA,NA
"35","stim/objects/HouseObjects/barbecuelighter2.png",129,70,129,0.7,"stim/43.jpeg",4,3,2,NA,"HouseObjects",1,4,"left","left",0.507999897,1,1,0,1,NA,NA,NA,NA,NA,NA,NA,NA,NA,NA,NA,NA,NA,NA,NA,NA,NA,NA,NA,NA,NA,NA,NA,NA
"51","stim/objects/HouseObjects/bleachbottle.png",130,70,130,0.5,"stim/21.jpeg",2,1,1,NA,"HouseObjects",1,1,"left","right",0.539999962,0,0,0,1,NA,NA,NA,NA,NA,NA,NA,NA,NA,NA,NA,NA,NA,NA,NA,NA,NA,NA,NA,NA,NA,NA,NA,NA
"64","stim/objects/HouseObjects/bottle.png",131,70,131,0.5,"stim/23.jpeg",2,3,1,NA,"HouseObjects",1,1,"left","left",0.592999935,1,1,0,1,NA,NA,NA,NA,NA,NA,NA,NA,NA,NA,NA,NA,NA,NA,NA,NA,NA,NA,NA,NA,NA,NA,NA,NA
"237","stim/objects/Instruments/doublebass.png",132,70,132,0.7,"stim/34.jpeg",3,4,2,NA,"Instruments",2,3,"right","right",0.525000095,1,1,0,1,NA,NA,NA,NA,NA,NA,NA,NA,NA,NA,NA,NA,NA,NA,NA,NA,NA,NA,NA,NA,NA,NA,NA,NA
"117","stim/objects/HouseObjects/clothespin2.png",133,70,133,0.9,"stim/64.jpeg",6,4,3,NA,"HouseObjects",1,1,"left","left",0.523000002,1,1,0,1,NA,NA,NA,NA,NA,NA,NA,NA,NA,NA,NA,NA,NA,NA,NA,NA,NA,NA,NA,NA,NA,NA,NA,NA
"92","stim/objects/HouseObjects/clock2.png",134,70,134,0.9,"stim/62.jpeg",6,2,3,NA,"HouseObjects",1,3,"left","left",0.534999847,1,1,0,1,NA,NA,NA,NA,NA,NA,NA,NA,NA,NA,NA,NA,NA,NA,NA,NA,NA,NA,NA,NA,NA,NA,NA,NA
"16","stim/objects/HouseObjects/ballofstring.png",135,70,135,0.5,"stim/12.jpeg",1,2,1,NA,"HouseObjects",1,3,"left","right",0.549999952,0,0,0,1,NA,NA,NA,NA,NA,NA,NA,NA,NA,NA,NA,NA,NA,NA,NA,NA,NA,NA,NA,NA,NA,NA,NA,NA
"203","stim/objects/Instruments/chime2.png",136,70,136,0.9,"stim/54.jpeg",5,4,3,NA,"Instruments",2,1,"right","right",0.468999863,1,1,0,1,NA,NA,NA,NA,NA,NA,NA,NA,NA,NA,NA,NA,NA,NA,NA,NA,NA,NA,NA,NA,NA,NA,NA,NA
"155","stim/objects/Instruments/bassdrum.png",137,70,137,0.5,"stim/21.jpeg",2,1,1,NA,"Instruments",2,1,"right","right",0.712000132,1,1,0,1,NA,NA,NA,NA,NA,NA,NA,NA,NA,NA,NA,NA,NA,NA,NA,NA,NA,NA,NA,NA,NA,NA,NA,NA
"124","stim/objects/Instruments/accordion.png",138,70,138,0.5,"stim/11.jpeg",1,1,1,NA,"Instruments",2,3,"right","right",0.575000048,1,1,0,1,NA,NA,NA,NA,NA,NA,NA,NA,NA,NA,NA,NA,NA,NA,NA,NA,NA,NA,NA,NA,NA,NA,NA,NA
"46","stim/objects/HouseObjects/basket2.png",139,70,139,0.7,"stim/44.jpeg",4,4,2,NA,"HouseObjects",1,2,"left","left",0.542999744,1,1,0,1,NA,NA,NA,NA,NA,NA,NA,NA,NA,NA,NA,NA,NA,NA,NA,NA,NA,NA,NA,NA,NA,NA,NA,NA
"189","stim/objects/Instruments/cello2.png",140,70,140,0.9,"stim/53.jpeg",5,3,3,NA,"Instruments",2,2,"right","right",0.475000143,1,1,0,1,NA,NA,NA,NA,NA,NA,NA,NA,NA,NA,NA,NA,NA,NA,NA,NA,NA,NA,NA,NA,NA,NA,NA,NA
"36","stim/objects/HouseObjects/barbecuelighter2.png",141,70,141,0.7,"stim/43.jpeg",4,3,2,NA,"HouseObjects",1,4,"left","left",0.559999943,1,1,0,1,NA,NA,NA,NA,NA,NA,NA,NA,NA,NA,NA,NA,NA,NA,NA,NA,NA,NA,NA,NA,NA,NA,NA,NA
"221","stim/objects/Instruments/cornet.png",142,70,142,0.7,"stim/32.jpeg",3,2,2,NA,"Instruments",2,2,"right","right",0.476000071,1,1,0,1,NA,NA,NA,NA,NA,NA,NA,NA,NA,NA,NA,NA,NA,NA,NA,NA,NA,NA,NA,NA,NA,NA,NA,NA
"197","stim/objects/Instruments/chime.png",143,70,143,0.5,"stim/24.jpeg",2,4,1,NA,"Instruments",2,4,"right","right",0.43599987,1,1,0,1,NA,NA,NA,NA,NA,NA,NA,NA,NA,NA,NA,NA,NA,NA,NA,NA,NA,NA,NA,NA,NA,NA,NA,NA
"140","stim/objects/Instruments/balalaika.png",144,70,144,0.5,"stim/13.jpeg",1,3,1,NA,"Instruments",2,4,"right","left",0.611999989,0,0,0,1,NA,NA,NA,NA,NA,NA,NA,NA,NA,NA,NA,NA,NA,NA,NA,NA,NA,NA,NA,NA,NA,NA,NA,NA
"104","stim/objects/HouseObjects/clothesdryingrack2.png",145,70,145,0.9,"stim/63.jpeg",6,3,3,NA,"HouseObjects",1,4,"left","left",0.615999937,1,1,0,1,NA,NA,NA,NA,NA,NA,NA,NA,NA,NA,NA,NA,NA,NA,NA,NA,NA,NA,NA,NA,NA,NA,NA,NA
"97","stim/objects/HouseObjects/clothesdryingrack.png",146,70,146,0.3,"stim/33.jpeg",3,3,2,NA,"HouseObjects",1,4,"left","right",0.591999769,0,0,0,1,NA,NA,NA,NA,NA,NA,NA,NA,NA,NA,NA,NA,NA,NA,NA,NA,NA,NA,NA,NA,NA,NA,NA,NA
"40","stim/objects/HouseObjects/basket.png",147,70,147,0.5,"stim/14.jpeg",1,4,1,NA,"HouseObjects",1,4,"left","left",0.7099998,1,1,0,1,NA,NA,NA,NA,NA,NA,NA,NA,NA,NA,NA,NA,NA,NA,NA,NA,NA,NA,NA,NA,NA,NA,NA,NA
"75","stim/objects/HouseObjects/bucket.png",148,70,148,0.3,"stim/31.jpeg",3,1,2,NA,"HouseObjects",1,3,"left","right",0.541000128,0,0,0,1,NA,NA,NA,NA,NA,NA,NA,NA,NA,NA,NA,NA,NA,NA,NA,NA,NA,NA,NA,NA,NA,NA,NA,NA
"222","stim/objects/Instruments/cornet.png",149,70,149,0.7,"stim/32.jpeg",3,2,2,NA,"Instruments",2,1,"right","right",0.505999804,1,1,0,1,NA,NA,NA,NA,NA,NA,NA,NA,NA,NA,NA,NA,NA,NA,NA,NA,NA,NA,NA,NA,NA,NA,NA,NA
"81","stim/objects/HouseObjects/bucket2.png",150,70,150,0.9,"stim/61.jpeg",6,1,3,NA,"HouseObjects",1,1,"left","left",0.495000124,1,1,0,1,NA,NA,NA,NA,NA,NA,NA,NA,NA,NA,NA,NA,NA,NA,NA,NA,NA,NA,NA,NA,NA,NA,NA,NA
"224","stim/objects/Instruments/cornet2.png",151,70,151,0.1,"stim/62.jpeg",6,2,3,NA,"Instruments",2,1,"right","left",0.492000103,0,0,0,1,NA,NA,NA,NA,NA,NA,NA,NA,NA,NA,NA,NA,NA,NA,NA,NA,NA,NA,NA,NA,NA,NA,NA,NA
"110","stim/objects/HouseObjects/clothespin.png",152,70,152,0.3,"stim/34.jpeg",3,4,2,NA,"HouseObjects",1,1,"left","right",0.423999786,0,0,0,1,NA,NA,NA,NA,NA,NA,NA,NA,NA,NA,NA,NA,NA,NA,NA,NA,NA,NA,NA,NA,NA,NA,NA,NA
"72","stim/objects/HouseObjects/broom2.png",153,70,153,0.1,"stim/54.jpeg",5,4,3,NA,"HouseObjects",1,4,"left","right",0.440999746,0,0,0,1,NA,NA,NA,NA,NA,NA,NA,NA,NA,NA,NA,NA,NA,NA,NA,NA,NA,NA,NA,NA,NA,NA,NA,NA
"118","stim/objects/HouseObjects/clothespin2.png",154,70,154,0.9,"stim/64.jpeg",6,4,3,NA,"HouseObjects",1,2,"left","left",0.529000044,1,1,0,1,NA,NA,NA,NA,NA,NA,NA,NA,NA,NA,NA,NA,NA,NA,NA,NA,NA,NA,NA,NA,NA,NA,NA,NA
"204","stim/objects/Instruments/chime2.png",155,70,155,0.9,"stim/54.jpeg",5,4,3,NA,"Instruments",2,2,"right","right",0.453999996,1,1,0,1,NA,NA,NA,NA,NA,NA,NA,NA,NA,NA,NA,NA,NA,NA,NA,NA,NA,NA,NA,NA,NA,NA,NA,NA
"21","stim/objects/HouseObjects/ballofstring2.png",156,70,156,0.7,"stim/42.jpeg",4,2,2,NA,"HouseObjects",1,2,"left","left",0.520999908,1,1,0,1,NA,NA,NA,NA,NA,NA,NA,NA,NA,NA,NA,NA,NA,NA,NA,NA,NA,NA,NA,NA,NA,NA,NA,NA
"93","stim/objects/HouseObjects/clock2.png",157,70,157,0.9,"stim/62.jpeg",6,2,3,NA,"HouseObjects",1,4,"left","left",0.512000084,1,1,0,1,NA,NA,NA,NA,NA,NA,NA,NA,NA,NA,NA,NA,NA,NA,NA,NA,NA,NA,NA,NA,NA,NA,NA,NA
"162","stim/objects/Instruments/bassdrum2.png",158,70,158,0.9,"stim/51.jpeg",5,1,3,NA,"Instruments",2,4,"right","right",0.430000067,1,1,0,1,NA,NA,NA,NA,NA,NA,NA,NA,NA,NA,NA,NA,NA,NA,NA,NA,NA,NA,NA,NA,NA,NA,NA,NA
"163","stim/objects/Instruments/bassdrum2.png",159,70,159,0.9,"stim/51.jpeg",5,1,3,NA,"Instruments",2,2,"right","right",0.487999916,1,1,0,1,NA,NA,NA,NA,NA,NA,NA,NA,NA,NA,NA,NA,NA,NA,NA,NA,NA,NA,NA,NA,NA,NA,NA,NA
"167","stim/objects/Instruments/bassguitar.png",160,70,160,0.5,"stim/22.jpeg",2,2,1,NA,"Instruments",2,1,"right","right",0.545999765,1,1,0,1,NA,NA,NA,NA,NA,NA,NA,NA,NA,NA,NA,NA,NA,NA,NA,NA,NA,NA,NA,NA,NA,NA,NA,NA
"156","stim/objects/Instruments/bassdrum.png",161,70,161,0.5,"stim/21.jpeg",2,1,1,NA,"Instruments",2,2,"right","left",0.761999846,0,0,0,1,NA,NA,NA,NA,NA,NA,NA,NA,NA,NA,NA,NA,NA,NA,NA,NA,NA,NA,NA,NA,NA,NA,NA,NA
"94","stim/objects/HouseObjects/clock2.png",162,70,162,0.9,"stim/62.jpeg",6,2,3,NA,"HouseObjects",1,2,"left","left",0.524999857,1,1,0,1,NA,NA,NA,NA,NA,NA,NA,NA,NA,NA,NA,NA,NA,NA,NA,NA,NA,NA,NA,NA,NA,NA,NA,NA
"3","stim/objects/HouseObjects/ashtray.png",163,70,163,0.5,"stim/11.jpeg",1,1,1,NA,"HouseObjects",1,4,"left","right",0.727999926,0,0,0,1,NA,NA,NA,NA,NA,NA,NA,NA,NA,NA,NA,NA,NA,NA,NA,NA,NA,NA,NA,NA,NA,NA,NA,NA
"87","stim/objects/HouseObjects/clock.png",164,70,164,0.3,"stim/32.jpeg",3,2,2,NA,"HouseObjects",1,3,"left","right",0.50999999,0,0,0,1,NA,NA,NA,NA,NA,NA,NA,NA,NA,NA,NA,NA,NA,NA,NA,NA,NA,NA,NA,NA,NA,NA,NA,NA
"136","stim/objects/Instruments/acousticguitar2.png",165,70,165,0.3,"stim/42.jpeg",4,2,2,NA,"Instruments",2,2,"right","left",0.464999914,0,0,0,1,NA,NA,NA,NA,NA,NA,NA,NA,NA,NA,NA,NA,NA,NA,NA,NA,NA,NA,NA,NA,NA,NA,NA,NA
"149","stim/objects/Instruments/banjo.png",166,70,166,0.5,"stim/14.jpeg",1,4,1,NA,"Instruments",2,3,"right","right",0.465999842,1,1,0,1,NA,NA,NA,NA,NA,NA,NA,NA,NA,NA,NA,NA,NA,NA,NA,NA,NA,NA,NA,NA,NA,NA,NA,NA
"4","stim/objects/HouseObjects/ashtray.png",167,70,167,0.5,"stim/11.jpeg",1,1,1,NA,"HouseObjects",1,2,"left","right",0.553999901,0,0,0,1,NA,NA,NA,NA,NA,NA,NA,NA,NA,NA,NA,NA,NA,NA,NA,NA,NA,NA,NA,NA,NA,NA,NA,NA
"141","stim/objects/Instruments/balalaika.png",168,70,168,0.5,"stim/13.jpeg",1,3,1,NA,"Instruments",2,3,"right","right",0.498999834,1,1,0,1,NA,NA,NA,NA,NA,NA,NA,NA,NA,NA,NA,NA,NA,NA,NA,NA,NA,NA,NA,NA,NA,NA,NA,NA
"228","stim/objects/Instruments/cymbal.png",169,70,169,0.7,"stim/33.jpeg",3,3,2,NA,"Instruments",2,2,"right","right",0.493000031,1,1,0,1,NA,NA,NA,NA,NA,NA,NA,NA,NA,NA,NA,NA,NA,NA,NA,NA,NA,NA,NA,NA,NA,NA,NA,NA
"205","stim/objects/Instruments/chime2.png",170,70,170,0.9,"stim/54.jpeg",5,4,3,NA,"Instruments",2,4,"right","right",0.439999819,1,1,0,1,NA,NA,NA,NA,NA,NA,NA,NA,NA,NA,NA,NA,NA,NA,NA,NA,NA,NA,NA,NA,NA,NA,NA,NA
"70","stim/objects/HouseObjects/broom.png",171,70,171,0.5,"stim/24.jpeg",2,4,1,NA,"HouseObjects",1,2,"left","right",0.52699995,0,0,0,1,NA,NA,NA,NA,NA,NA,NA,NA,NA,NA,NA,NA,NA,NA,NA,NA,NA,NA,NA,NA,NA,NA,NA,NA
"82","stim/objects/HouseObjects/bucket2.png",172,70,172,0.9,"stim/61.jpeg",6,1,3,NA,"HouseObjects",1,3,"left","left",0.474999905,1,1,0,1,NA,NA,NA,NA,NA,NA,NA,NA,NA,NA,NA,NA,NA,NA,NA,NA,NA,NA,NA,NA,NA,NA,NA,NA
"164","stim/objects/Instruments/bassdrum2.png",173,70,173,0.9,"stim/51.jpeg",5,1,3,NA,"Instruments",2,4,"right","right",0.413000107,1,1,0,1,NA,NA,NA,NA,NA,NA,NA,NA,NA,NA,NA,NA,NA,NA,NA,NA,NA,NA,NA,NA,NA,NA,NA,NA
"27","stim/objects/HouseObjects/barbecuelighter.png",174,70,174,0.5,"stim/13.jpeg",1,3,1,NA,"HouseObjects",1,3,"left","left",0.603999853,1,1,0,1,NA,NA,NA,NA,NA,NA,NA,NA,NA,NA,NA,NA,NA,NA,NA,NA,NA,NA,NA,NA,NA,NA,NA,NA
"190","stim/objects/Instruments/cello2.png",175,70,175,0.9,"stim/53.jpeg",5,3,3,NA,"Instruments",2,2,"right","right",0.47300005,1,1,0,1,NA,NA,NA,NA,NA,NA,NA,NA,NA,NA,NA,NA,NA,NA,NA,NA,NA,NA,NA,NA,NA,NA,NA,NA
"105","stim/objects/HouseObjects/clothesdryingrack2.png",176,70,176,0.9,"stim/63.jpeg",6,3,3,NA,"HouseObjects",1,4,"left","left",0.473999977,1,1,0,1,NA,NA,NA,NA,NA,NA,NA,NA,NA,NA,NA,NA,NA,NA,NA,NA,NA,NA,NA,NA,NA,NA,NA,NA
"206","stim/objects/Instruments/chime2.png",177,70,177,0.9,"stim/54.jpeg",5,4,3,NA,"Instruments",2,2,"right","right",0.553999901,1,1,0,1,NA,NA,NA,NA,NA,NA,NA,NA,NA,NA,NA,NA,NA,NA,NA,NA,NA,NA,NA,NA,NA,NA,NA,NA
"47","stim/objects/HouseObjects/basket2.png",178,70,178,0.7,"stim/44.jpeg",4,4,2,NA,"HouseObjects",1,3,"left","left",0.572000027,1,1,0,1,NA,NA,NA,NA,NA,NA,NA,NA,NA,NA,NA,NA,NA,NA,NA,NA,NA,NA,NA,NA,NA,NA,NA,NA
"132","stim/objects/Instruments/acousticguitar.png",179,70,179,0.5,"stim/12.jpeg",1,2,1,NA,"Instruments",2,2,"right","right",0.536000013,1,1,0,1,NA,NA,NA,NA,NA,NA,NA,NA,NA,NA,NA,NA,NA,NA,NA,NA,NA,NA,NA,NA,NA,NA,NA,NA
"65","stim/objects/HouseObjects/bottle.png",180,70,180,0.5,"stim/23.jpeg",2,3,1,NA,"HouseObjects",1,3,"left","right",0.594000101,0,0,0,1,NA,NA,NA,NA,NA,NA,NA,NA,NA,NA,NA,NA,NA,NA,NA,NA,NA,NA,NA,NA,NA,NA,NA,NA
"191","stim/objects/Instruments/cello2.png",181,70,181,0.9,"stim/53.jpeg",5,3,3,NA,"Instruments",2,1,"right","right",0.473999977,1,1,0,1,NA,NA,NA,NA,NA,NA,NA,NA,NA,NA,NA,NA,NA,NA,NA,NA,NA,NA,NA,NA,NA,NA,NA,NA
"207","stim/objects/Instruments/chime2.png",182,70,182,0.9,"stim/54.jpeg",5,4,3,NA,"Instruments",2,4,"right","right",0.575999975,1,1,0,1,NA,NA,NA,NA,NA,NA,NA,NA,NA,NA,NA,NA,NA,NA,NA,NA,NA,NA,NA,NA,NA,NA,NA,NA
"17","stim/objects/HouseObjects/ballofstring.png",183,70,183,0.5,"stim/12.jpeg",1,2,1,NA,"HouseObjects",1,2,"left","right",0.588000059,0,0,0,1,NA,NA,NA,NA,NA,NA,NA,NA,NA,NA,NA,NA,NA,NA,NA,NA,NA,NA,NA,NA,NA,NA,NA,NA
"192","stim/objects/Instruments/cello2.png",184,70,184,0.9,"stim/53.jpeg",5,3,3,NA,"Instruments",2,2,"right","right",0.444000006,1,1,0,1,NA,NA,NA,NA,NA,NA,NA,NA,NA,NA,NA,NA,NA,NA,NA,NA,NA,NA,NA,NA,NA,NA,NA,NA
"58","stim/objects/HouseObjects/blender.png",185,70,185,0.5,"stim/22.jpeg",2,2,1,NA,"HouseObjects",1,2,"left","right",0.409999847,0,0,0,1,NA,NA,NA,NA,NA,NA,NA,NA,NA,NA,NA,NA,NA,NA,NA,NA,NA,NA,NA,NA,NA,NA,NA,NA
"28","stim/objects/HouseObjects/barbecuelighter.png",186,70,186,0.5,"stim/13.jpeg",1,3,1,NA,"HouseObjects",1,1,"left","right",0.421999931,0,0,0,1,NA,NA,NA,NA,NA,NA,NA,NA,NA,NA,NA,NA,NA,NA,NA,NA,NA,NA,NA,NA,NA,NA,NA,NA
"168","stim/objects/Instruments/bassguitar.png",187,70,187,0.5,"stim/22.jpeg",2,2,1,NA,"Instruments",2,2,"right","right",0.417999983,1,1,0,1,NA,NA,NA,NA,NA,NA,NA,NA,NA,NA,NA,NA,NA,NA,NA,NA,NA,NA,NA,NA,NA,NA,NA,NA
"176","stim/objects/Instruments/bassguitar2.png",188,70,188,0.9,"stim/52.jpeg",5,2,3,NA,"Instruments",2,1,"right","right",0.487999916,1,1,0,1,NA,NA,NA,NA,NA,NA,NA,NA,NA,NA,NA,NA,NA,NA,NA,NA,NA,NA,NA,NA,NA,NA,NA,NA
"106","stim/objects/HouseObjects/clothesdryingrack2.png",189,70,189,0.9,"stim/63.jpeg",6,3,3,NA,"HouseObjects",1,4,"left","left",0.50999999,1,1,0,1,NA,NA,NA,NA,NA,NA,NA,NA,NA,NA,NA,NA,NA,NA,NA,NA,NA,NA,NA,NA,NA,NA,NA,NA
"41","stim/objects/HouseObjects/basket.png",190,70,190,0.5,"stim/14.jpeg",1,4,1,NA,"HouseObjects",1,4,"left","right",0.489000082,0,0,0,1,NA,NA,NA,NA,NA,NA,NA,NA,NA,NA,NA,NA,NA,NA,NA,NA,NA,NA,NA,NA,NA,NA,NA,NA
"11","stim/objects/HouseObjects/ashtray2.png",191,70,191,0.7,"stim/41.jpeg",4,1,2,NA,"HouseObjects",1,2,"left","left",0.508999825,1,1,0,1,NA,NA,NA,NA,NA,NA,NA,NA,NA,NA,NA,NA,NA,NA,NA,NA,NA,NA,NA,NA,NA,NA,NA,NA
"59","stim/objects/HouseObjects/blender.png",192,70,192,0.5,"stim/22.jpeg",2,2,1,NA,"HouseObjects",1,2,"left","right",0.51699996,0,0,0,1,NA,NA,NA,NA,NA,NA,NA,NA,NA,NA,NA,NA,NA,NA,NA,NA,NA,NA,NA,NA,NA,NA,NA,NA
"52","stim/objects/HouseObjects/bleachbottle.png",193,70,193,0.5,"stim/21.jpeg",2,1,1,NA,"HouseObjects",1,3,"left","right",0.649999857,0,0,0,1,NA,NA,NA,NA,NA,NA,NA,NA,NA,NA,NA,NA,NA,NA,NA,NA,NA,NA,NA,NA,NA,NA,NA,NA
"177","stim/objects/Instruments/bassguitar2.png",194,70,194,0.9,"stim/52.jpeg",5,2,3,NA,"Instruments",2,3,"right","right",0.486000061,1,1,0,1,NA,NA,NA,NA,NA,NA,NA,NA,NA,NA,NA,NA,NA,NA,NA,NA,NA,NA,NA,NA,NA,NA,NA,NA
"178","stim/objects/Instruments/bassguitar2.png",195,70,195,0.9,"stim/52.jpeg",5,2,3,NA,"Instruments",2,4,"right","right",0.49000001,1,1,0,1,NA,NA,NA,NA,NA,NA,NA,NA,NA,NA,NA,NA,NA,NA,NA,NA,NA,NA,NA,NA,NA,NA,NA,NA
"232","stim/objects/Instruments/cymbal2.png",196,70,196,0.1,"stim/63.jpeg",6,3,3,NA,"Instruments",2,4,"right","left",0.44299984,0,0,0,1,NA,NA,NA,NA,NA,NA,NA,NA,NA,NA,NA,NA,NA,NA,NA,NA,NA,NA,NA,NA,NA,NA,NA,NA
"83","stim/objects/HouseObjects/bucket2.png",197,70,197,0.9,"stim/61.jpeg",6,1,3,NA,"HouseObjects",1,2,"left","left",0.48699975,1,1,0,1,NA,NA,NA,NA,NA,NA,NA,NA,NA,NA,NA,NA,NA,NA,NA,NA,NA,NA,NA,NA,NA,NA,NA,NA
"215","stim/objects/Instruments/clarinet.png",198,70,198,0.7,"stim/31.jpeg",3,1,2,NA,"Instruments",2,1,"right","right",0.535999775,1,1,0,1,NA,NA,NA,NA,NA,NA,NA,NA,NA,NA,NA,NA,NA,NA,NA,NA,NA,NA,NA,NA,NA,NA,NA,NA
"53","stim/objects/HouseObjects/bleachbottle.png",199,70,199,0.5,"stim/21.jpeg",2,1,1,NA,"HouseObjects",1,1,"left","",NA,0,0,0,1,NA,NA,NA,NA,NA,NA,NA,NA,NA,NA,NA,NA,NA,NA,NA,NA,NA,NA,NA,NA,NA,NA,NA,NA
"169","stim/objects/Instruments/bassguitar.png",200,70,200,0.5,"stim/22.jpeg",2,2,1,NA,"Instruments",2,1,"right","right",0.414999962,1,1,0,1,NA,NA,NA,NA,NA,NA,NA,NA,NA,NA,NA,NA,NA,NA,NA,NA,NA,NA,NA,NA,NA,NA,NA,NA
"133","stim/objects/Instruments/acousticguitar.png",201,70,201,0.5,"stim/12.jpeg",1,2,1,NA,"Instruments",2,4,"right","left",0.59100008,0,0,0,1,NA,NA,NA,NA,NA,NA,NA,NA,NA,NA,NA,NA,NA,NA,NA,NA,NA,NA,NA,NA,NA,NA,NA,NA
"193","stim/objects/Instruments/cello2.png",202,70,202,0.9,"stim/53.jpeg",5,3,3,NA,"Instruments",2,1,"right","right",0.454999924,1,1,0,1,NA,NA,NA,NA,NA,NA,NA,NA,NA,NA,NA,NA,NA,NA,NA,NA,NA,NA,NA,NA,NA,NA,NA,NA
"22","stim/objects/HouseObjects/ballofstring2.png",203,70,203,0.7,"stim/42.jpeg",4,2,2,NA,"HouseObjects",1,3,"left","left",0.674999952,1,1,0,1,NA,NA,NA,NA,NA,NA,NA,NA,NA,NA,NA,NA,NA,NA,NA,NA,NA,NA,NA,NA,NA,NA,NA,NA
"95","stim/objects/HouseObjects/clock2.png",204,70,204,0.9,"stim/62.jpeg",6,2,3,NA,"HouseObjects",1,1,"left","left",0.54399991,1,1,0,1,NA,NA,NA,NA,NA,NA,NA,NA,NA,NA,NA,NA,NA,NA,NA,NA,NA,NA,NA,NA,NA,NA,NA,NA
"170","stim/objects/Instruments/bassguitar.png",205,70,205,0.5,"stim/22.jpeg",2,2,1,NA,"Instruments",2,1,"right","right",0.75999999,1,1,0,1,NA,NA,NA,NA,NA,NA,NA,NA,NA,NA,NA,NA,NA,NA,NA,NA,NA,NA,NA,NA,NA,NA,NA,NA
"96","stim/objects/HouseObjects/clock2.png",206,70,206,0.9,"stim/62.jpeg",6,2,3,NA,"HouseObjects",1,4,"left","left",0.530999899,1,1,0,1,NA,NA,NA,NA,NA,NA,NA,NA,NA,NA,NA,NA,NA,NA,NA,NA,NA,NA,NA,NA,NA,NA,NA,NA
"5","stim/objects/HouseObjects/ashtray.png",207,70,207,0.5,"stim/11.jpeg",1,1,1,NA,"HouseObjects",1,2,"left","right",0.53399992,0,0,0,1,NA,NA,NA,NA,NA,NA,NA,NA,NA,NA,NA,NA,NA,NA,NA,NA,NA,NA,NA,NA,NA,NA,NA,NA
"119","stim/objects/HouseObjects/clothespin2.png",208,70,208,0.9,"stim/64.jpeg",6,4,3,NA,"HouseObjects",1,4,"left","left",0.51699996,1,1,0,1,NA,NA,NA,NA,NA,NA,NA,NA,NA,NA,NA,NA,NA,NA,NA,NA,NA,NA,NA,NA,NA,NA,NA,NA
"66","stim/objects/HouseObjects/bottle2.png",209,70,209,0.1,"stim/53.jpeg",5,3,3,NA,"HouseObjects",1,2,"left","right",0.504999876,0,0,0,1,NA,NA,NA,NA,NA,NA,NA,NA,NA,NA,NA,NA,NA,NA,NA,NA,NA,NA,NA,NA,NA,NA,NA,NA
"229","stim/objects/Instruments/cymbal.png",210,70,210,0.7,"stim/33.jpeg",3,3,2,NA,"Instruments",2,3,"right","right",0.510999918,1,1,0,1,NA,NA,NA,NA,NA,NA,NA,NA,NA,NA,NA,NA,NA,NA,NA,NA,NA,NA,NA,NA,NA,NA,NA,NA
"198","stim/objects/Instruments/chime.png",211,70,211,0.5,"stim/24.jpeg",2,4,1,NA,"Instruments",2,1,"right","right",0.506000042,1,1,0,1,NA,NA,NA,NA,NA,NA,NA,NA,NA,NA,NA,NA,NA,NA,NA,NA,NA,NA,NA,NA,NA,NA,NA,NA
"23","stim/objects/HouseObjects/ballofstring2.png",212,70,212,0.7,"stim/42.jpeg",4,2,2,NA,"HouseObjects",1,4,"left","right",0.487999916,0,0,0,1,NA,NA,NA,NA,NA,NA,NA,NA,NA,NA,NA,NA,NA,NA,NA,NA,NA,NA,NA,NA,NA,NA,NA,NA
"165","stim/objects/Instruments/bassdrum2.png",213,70,213,0.9,"stim/51.jpeg",5,1,3,NA,"Instruments",2,1,"right","right",0.398999929,1,1,0,1,NA,NA,NA,NA,NA,NA,NA,NA,NA,NA,NA,NA,NA,NA,NA,NA,NA,NA,NA,NA,NA,NA,NA,NA
"238","stim/objects/Instruments/doublebass.png",214,70,214,0.7,"stim/34.jpeg",3,4,2,NA,"Instruments",2,3,"right","right",0.426999807,1,1,0,1,NA,NA,NA,NA,NA,NA,NA,NA,NA,NA,NA,NA,NA,NA,NA,NA,NA,NA,NA,NA,NA,NA,NA,NA
"230","stim/objects/Instruments/cymbal.png",215,70,215,0.7,"stim/33.jpeg",3,3,2,NA,"Instruments",2,1,"right","right",0.460999966,1,1,0,1,NA,NA,NA,NA,NA,NA,NA,NA,NA,NA,NA,NA,NA,NA,NA,NA,NA,NA,NA,NA,NA,NA,NA,NA
"231","stim/objects/Instruments/cymbal.png",216,70,216,0.7,"stim/33.jpeg",3,3,2,NA,"Instruments",2,1,"right","right",0.367999792,1,1,0,1,NA,NA,NA,NA,NA,NA,NA,NA,NA,NA,NA,NA,NA,NA,NA,NA,NA,NA,NA,NA,NA,NA,NA,NA
"223","stim/objects/Instruments/cornet.png",217,70,217,0.7,"stim/32.jpeg",3,2,2,NA,"Instruments",2,2,"right","right",0.417000055,1,1,0,1,NA,NA,NA,NA,NA,NA,NA,NA,NA,NA,NA,NA,NA,NA,NA,NA,NA,NA,NA,NA,NA,NA,NA,NA
"157","stim/objects/Instruments/bassdrum.png",218,70,218,0.5,"stim/21.jpeg",2,1,1,NA,"Instruments",2,1,"right","right",0.388000011,1,1,0,1,NA,NA,NA,NA,NA,NA,NA,NA,NA,NA,NA,NA,NA,NA,NA,NA,NA,NA,NA,NA,NA,NA,NA,NA
"29","stim/objects/HouseObjects/barbecuelighter.png",219,70,219,0.5,"stim/13.jpeg",1,3,1,NA,"HouseObjects",1,4,"left","right",0.518000126,0,0,0,1,NA,NA,NA,NA,NA,NA,NA,NA,NA,NA,NA,NA,NA,NA,NA,NA,NA,NA,NA,NA,NA,NA,NA,NA
"48","stim/objects/HouseObjects/basket2.png",220,70,220,0.7,"stim/44.jpeg",4,4,2,NA,"HouseObjects",1,1,"left","right",0.494999886,0,0,0,1,NA,NA,NA,NA,NA,NA,NA,NA,NA,NA,NA,NA,NA,NA,NA,NA,NA,NA,NA,NA,NA,NA,NA,NA
"179","stim/objects/Instruments/bassguitar2.png",221,70,221,0.9,"stim/52.jpeg",5,2,3,NA,"Instruments",2,3,"right","right",0.562999964,1,1,0,1,NA,NA,NA,NA,NA,NA,NA,NA,NA,NA,NA,NA,NA,NA,NA,NA,NA,NA,NA,NA,NA,NA,NA,NA
"125","stim/objects/Instruments/accordion.png",222,70,222,0.5,"stim/11.jpeg",1,1,1,NA,"Instruments",2,3,"right","right",0.713999987,1,1,0,1,NA,NA,NA,NA,NA,NA,NA,NA,NA,NA,NA,NA,NA,NA,NA,NA,NA,NA,NA,NA,NA,NA,NA,NA
"144","stim/objects/Instruments/balalaika2.png",223,70,223,0.3,"stim/43.jpeg",4,3,2,NA,"Instruments",2,2,"right","left",0.501999855,0,0,0,1,NA,NA,NA,NA,NA,NA,NA,NA,NA,NA,NA,NA,NA,NA,NA,NA,NA,NA,NA,NA,NA,NA,NA,NA
"199","stim/objects/Instruments/chime.png",224,70,224,0.5,"stim/24.jpeg",2,4,1,NA,"Instruments",2,1,"right","right",0.484999895,1,1,0,1,NA,NA,NA,NA,NA,NA,NA,NA,NA,NA,NA,NA,NA,NA,NA,NA,NA,NA,NA,NA,NA,NA,NA,NA
"24","stim/objects/HouseObjects/ballofstring2.png",225,70,225,0.7,"stim/42.jpeg",4,2,2,NA,"HouseObjects",1,2,"left","left",0.544999838,1,1,0,1,NA,NA,NA,NA,NA,NA,NA,NA,NA,NA,NA,NA,NA,NA,NA,NA,NA,NA,NA,NA,NA,NA,NA,NA
"107","stim/objects/HouseObjects/clothesdryingrack2.png",226,70,226,0.9,"stim/63.jpeg",6,3,3,NA,"HouseObjects",1,2,"left","left",0.43599987,1,1,0,1,NA,NA,NA,NA,NA,NA,NA,NA,NA,NA,NA,NA,NA,NA,NA,NA,NA,NA,NA,NA,NA,NA,NA,NA
"208","stim/objects/Instruments/chime2.png",227,70,227,0.9,"stim/54.jpeg",5,4,3,NA,"Instruments",2,3,"right","right",0.492000103,1,1,0,1,NA,NA,NA,NA,NA,NA,NA,NA,NA,NA,NA,NA,NA,NA,NA,NA,NA,NA,NA,NA,NA,NA,NA,NA
"98","stim/objects/HouseObjects/clothesdryingrack.png",228,70,228,0.3,"stim/33.jpeg",3,3,2,NA,"HouseObjects",1,3,"left","right",0.428999901,0,0,0,1,NA,NA,NA,NA,NA,NA,NA,NA,NA,NA,NA,NA,NA,NA,NA,NA,NA,NA,NA,NA,NA,NA,NA,NA
"120","stim/objects/HouseObjects/clothespin2.png",229,70,229,0.9,"stim/64.jpeg",6,4,3,NA,"HouseObjects",1,3,"left","left",0.47699976,1,1,0,1,NA,NA,NA,NA,NA,NA,NA,NA,NA,NA,NA,NA,NA,NA,NA,NA,NA,NA,NA,NA,NA,NA,NA,NA
"194","stim/objects/Instruments/cello2.png",230,70,230,0.9,"stim/53.jpeg",5,3,3,NA,"Instruments",2,1,"right","right",0.41899991,1,1,0,1,NA,NA,NA,NA,NA,NA,NA,NA,NA,NA,NA,NA,NA,NA,NA,NA,NA,NA,NA,NA,NA,NA,NA,NA
"180","stim/objects/Instruments/bassguitar2.png",231,70,231,0.9,"stim/52.jpeg",5,2,3,NA,"Instruments",2,1,"right","right",0.423000097,1,1,0,1,NA,NA,NA,NA,NA,NA,NA,NA,NA,NA,NA,NA,NA,NA,NA,NA,NA,NA,NA,NA,NA,NA,NA,NA
"12","stim/objects/HouseObjects/ashtray2.png",232,70,232,0.7,"stim/41.jpeg",4,1,2,NA,"HouseObjects",1,2,"left","left",0.54399991,1,1,0,1,NA,NA,NA,NA,NA,NA,NA,NA,NA,NA,NA,NA,NA,NA,NA,NA,NA,NA,NA,NA,NA,NA,NA,NA
"84","stim/objects/HouseObjects/bucket2.png",233,70,233,0.9,"stim/61.jpeg",6,1,3,NA,"HouseObjects",1,2,"left","left",0.450999975,1,1,0,1,NA,NA,NA,NA,NA,NA,NA,NA,NA,NA,NA,NA,NA,NA,NA,NA,NA,NA,NA,NA,NA,NA,NA,NA
"166","stim/objects/Instruments/bassdrum2.png",234,70,234,0.9,"stim/51.jpeg",5,1,3,NA,"Instruments",2,3,"right","right",0.421999931,1,1,0,1,NA,NA,NA,NA,NA,NA,NA,NA,NA,NA,NA,NA,NA,NA,NA,NA,NA,NA,NA,NA,NA,NA,NA,NA
"171","stim/objects/Instruments/bassguitar.png",235,70,235,0.5,"stim/22.jpeg",2,2,1,NA,"Instruments",2,1,"right","right",0.421999931,1,1,0,1,NA,NA,NA,NA,NA,NA,NA,NA,NA,NA,NA,NA,NA,NA,NA,NA,NA,NA,NA,NA,NA,NA,NA,NA
"111","stim/objects/HouseObjects/clothespin.png",236,70,236,0.3,"stim/34.jpeg",3,4,2,NA,"HouseObjects",1,4,"left","right",0.390000105,0,0,0,1,NA,NA,NA,NA,NA,NA,NA,NA,NA,NA,NA,NA,NA,NA,NA,NA,NA,NA,NA,NA,NA,NA,NA,NA
"99","stim/objects/HouseObjects/clothesdryingrack.png",237,70,237,0.3,"stim/33.jpeg",3,3,2,NA,"HouseObjects",1,1,"left","right",0.417999983,0,0,0,1,NA,NA,NA,NA,NA,NA,NA,NA,NA,NA,NA,NA,NA,NA,NA,NA,NA,NA,NA,NA,NA,NA,NA,NA
"71","stim/objects/HouseObjects/broom.png",238,70,238,0.5,"stim/24.jpeg",2,4,1,NA,"HouseObjects",1,3,"left","left",0.805999756,1,1,0,1,NA,NA,NA,NA,NA,NA,NA,NA,NA,NA,NA,NA,NA,NA,NA,NA,NA,NA,NA,NA,NA,NA,NA,NA
"239","stim/objects/Instruments/doublebass.png",239,70,239,0.7,"stim/34.jpeg",3,4,2,NA,"Instruments",2,4,"right","right",0.404999971,1,1,0,1,NA,NA,NA,NA,NA,NA,NA,NA,NA,NA,NA,NA,NA,NA,NA,NA,NA,NA,NA,NA,NA,NA,NA,NA
"108","stim/objects/HouseObjects/clothesdryingrack2.png",240,70,240,0.9,"stim/63.jpeg",6,3,3,NA,"HouseObjects",1,4,"left","left",0.562999725,1,1,0,1,NA,NA,NA,NA,NA,NA,NA,NA,NA,NA,NA,NA,NA,NA,NA,NA,NA,NA,NA,NA,NA,NA,NA,NA
"342","stim/objects/HouseObjects/pan.png",248,70,241,0.9,"stim/63.jpeg",6,3,3,2,"HouseObjects",1,1,"left","",NA,0,0,1,0,NA,NA,NA,NA,NA,NA,NA,NA,NA,NA,NA,NA,NA,NA,NA,NA,NA,NA,NA,NA,NA,NA,NA,NA
"383","stim/objects/HouseObjects/rug2.png",249,70,242,0.1,"stim/51.jpeg",5,1,3,1,"HouseObjects",1,2,"left","right",0.368000031,0,0,1,0,127,70,1,0.1,1,"stim/51.jpeg",5,1,"stim/51.jpeg",2,"right",0.644999981,4,4,4.177999973,4,1.246000051,127,0,0,NA,0,NA,0
"343","stim/objects/HouseObjects/pan.png",250,70,243,0.9,"stim/64.jpeg",6,4,3,2,"HouseObjects",1,1,"left","left",0.47699976,1,1,1,0,NA,NA,NA,NA,NA,NA,NA,NA,NA,NA,NA,NA,NA,NA,NA,NA,NA,NA,NA,NA,NA,NA,NA,NA
"562","stim/objects/Instruments/trumpet2.png",251,70,244,0.1,"stim/64.jpeg",6,4,3,1,"Instruments",2,4,"right","left",0.529000044,0,0,1,0,184,70,1,0.1,2,"stim/64.jpeg",6,4,"stim/64.jpeg",4,"right",0.713999987,4,4,2.00999999,2,2.368000031,184,0,1,NA,0,NA,0
"490","stim/objects/Instruments/musicsheet.png",252,70,245,0.9,"stim/51.jpeg",5,1,3,2,"Instruments",2,4,"right","right",0.529999971,1,1,1,0,NA,NA,NA,NA,NA,NA,NA,NA,NA,NA,NA,NA,NA,NA,NA,NA,NA,NA,NA,NA,NA,NA,NA,NA
"292","stim/objects/HouseObjects/knife.png",253,70,246,0.9,"stim/62.jpeg",6,2,3,2,"HouseObjects",1,1,"left","left",0.506999969,1,1,1,0,NA,NA,NA,NA,NA,NA,NA,NA,NA,NA,NA,NA,NA,NA,NA,NA,NA,NA,NA,NA,NA,NA,NA,NA
"491","stim/objects/Instruments/musicsheet.png",254,70,247,0.9,"stim/54.jpeg",5,4,3,2,"Instruments",2,2,"right","right",0.502999783,1,1,1,0,NA,NA,NA,NA,NA,NA,NA,NA,NA,NA,NA,NA,NA,NA,NA,NA,NA,NA,NA,NA,NA,NA,NA,NA
"325","stim/objects/HouseObjects/match.png",255,70,248,0.9,"stim/64.jpeg",6,4,3,2,"HouseObjects",1,4,"left","left",0.465999842,1,1,1,0,NA,NA,NA,NA,NA,NA,NA,NA,NA,NA,NA,NA,NA,NA,NA,NA,NA,NA,NA,NA,NA,NA,NA,NA
"308","stim/objects/HouseObjects/lintroller.png",256,70,249,0.9,"stim/64.jpeg",6,4,3,2,"HouseObjects",1,3,"left","left",0.460999727,1,1,1,0,NA,NA,NA,NA,NA,NA,NA,NA,NA,NA,NA,NA,NA,NA,NA,NA,NA,NA,NA,NA,NA,NA,NA,NA
"524","stim/objects/Instruments/oboe.png",257,70,250,0.9,"stim/51.jpeg",5,1,3,2,"Instruments",2,4,"right","left",0.453999996,0,0,1,0,NA,NA,NA,NA,NA,NA,NA,NA,NA,NA,NA,NA,NA,NA,NA,NA,NA,NA,NA,NA,NA,NA,NA,NA
"387","stim/objects/HouseObjects/saw2.png",258,70,251,0.9,"stim/61.jpeg",6,1,3,1,"HouseObjects",1,1,"left","left",0.516000032,1,1,1,0,92,70,1,0.9,1,"stim/61.jpeg",6,1,"stim/61.jpeg",1,"right",0.835000038,4,2,2.753000021,1,0.904999971,92,0,0,NA,1,NA,0
"507","stim/objects/Instruments/musicstand.png",259,70,252,0.9,"stim/52.jpeg",5,2,3,2,"Instruments",2,3,"right","right",0.496999979,1,1,1,0,NA,NA,NA,NA,NA,NA,NA,NA,NA,NA,NA,NA,NA,NA,NA,NA,NA,NA,NA,NA,NA,NA,NA,NA
"456","stim/objects/Instruments/marimba.png",260,70,253,0.9,"stim/52.jpeg",5,2,3,2,"Instruments",2,3,"right","left",0.76699996,0,0,1,0,NA,NA,NA,NA,NA,NA,NA,NA,NA,NA,NA,NA,NA,NA,NA,NA,NA,NA,NA,NA,NA,NA,NA,NA
"382","stim/objects/HouseObjects/rug.png",261,70,254,0.5,"stim/12.jpeg",1,2,1,1,"HouseObjects",1,2,"left","left",0.713000059,1,1,1,0,182,70,1,0.5,1,"stim/12.jpeg",1,2,"stim/12.jpeg",2,"right",1.062999725,2,2,1.44900012,1,0.854000092,182,0,1,NA,0,NA,0
"376","stim/objects/HouseObjects/recyclingbin.png",262,70,255,0.5,"stim/13.jpeg",1,3,1,1,"HouseObjects",1,4,"left","left",0.407000065,1,1,1,0,34,70,1,0.5,1,"stim/13.jpeg",1,3,"stim/13.jpeg",4,"left",0.718999863,3,2,3.551999807,1,0.436999798,34,1,0,0,0,0,0
"427","stim/objects/Instruments/grandpiano.png",263,70,256,0.5,"stim/21.jpeg",2,1,1,2,"Instruments",2,3,"right","right",0.727999926,1,1,1,0,NA,NA,NA,NA,NA,NA,NA,NA,NA,NA,NA,NA,NA,NA,NA,NA,NA,NA,NA,NA,NA,NA,NA,NA
"345","stim/objects/HouseObjects/pan.png",264,70,257,0.9,"stim/64.jpeg",6,4,3,2,"HouseObjects",1,2,"left","left",0.523999929,1,1,1,0,NA,NA,NA,NA,NA,NA,NA,NA,NA,NA,NA,NA,NA,NA,NA,NA,NA,NA,NA,NA,NA,NA,NA,NA
"525","stim/objects/Instruments/oboe.png",265,70,258,0.9,"stim/53.jpeg",5,3,3,2,"Instruments",2,4,"right","right",0.552000046,1,1,1,0,NA,NA,NA,NA,NA,NA,NA,NA,NA,NA,NA,NA,NA,NA,NA,NA,NA,NA,NA,NA,NA,NA,NA,NA
"400","stim/objects/HouseObjects/towel.png",266,70,259,0.3,"stim/33.jpeg",3,3,2,1,"HouseObjects",1,4,"left","right",0.671000004,0,0,1,0,133,70,1,0.3,1,"stim/33.jpeg",3,3,"stim/33.jpeg",4,"left",0.861999989,3,4,1.837999821,1,2.763000011,133,1,0,0,0,0,0
"523","stim/objects/Instruments/musicstand2.png",267,70,260,0.9,"stim/52.jpeg",5,2,3,1,"Instruments",2,4,"right","left",0.60199976,0,0,1,0,75,70,1,0.9,2,"stim/52.jpeg",5,2,"stim/52.jpeg",4,"left",0.898000002,4,3,2.250999928,4,1.210999966,75,1,0,0,1,1,0
"457","stim/objects/Instruments/marimba.png",268,70,261,0.9,"stim/54.jpeg",5,4,3,2,"Instruments",2,3,"right","left",0.796000004,0,0,1,0,NA,NA,NA,NA,NA,NA,NA,NA,NA,NA,NA,NA,NA,NA,NA,NA,NA,NA,NA,NA,NA,NA,NA,NA
"326","stim/objects/HouseObjects/match.png",269,70,262,0.9,"stim/63.jpeg",6,3,3,2,"HouseObjects",1,2,"left","",NA,0,0,1,0,NA,NA,NA,NA,NA,NA,NA,NA,NA,NA,NA,NA,NA,NA,NA,NA,NA,NA,NA,NA,NA,NA,NA,NA
"286","stim/objects/HouseObjects/ironingboard2.png",270,70,263,0.7,"stim/44.jpeg",4,4,2,1,"HouseObjects",1,1,"left","left",0.558000088,1,1,1,0,100,70,1,0.7,1,"stim/44.jpeg",4,4,"stim/44.jpeg",1,"left",0.997999907,4,2,4.197999954,1,2.037999868,100,1,0,0,1,1,0
"549","stim/objects/Instruments/saxophone.png",271,70,264,0.5,"stim/12.jpeg",1,2,1,1,"Instruments",2,3,"right","left",0.602999926,0,0,1,0,97,70,1,0.5,1,"stim/12.jpeg",1,2,"stim/12.jpeg",3,"left",0.904000044,3,2,2.055000067,1,1.192000151,97,1,1,1,0,0,0
"327","stim/objects/HouseObjects/match.png",272,70,265,0.9,"stim/64.jpeg",6,4,3,2,"HouseObjects",1,1,"left","left",0.536999941,1,1,1,0,NA,NA,NA,NA,NA,NA,NA,NA,NA,NA,NA,NA,NA,NA,NA,NA,NA,NA,NA,NA,NA,NA,NA,NA
"492","stim/objects/Instruments/musicsheet.png",273,70,266,0.9,"stim/53.jpeg",5,3,3,2,"Instruments",2,1,"right","",NA,0,0,1,0,NA,NA,NA,NA,NA,NA,NA,NA,NA,NA,NA,NA,NA,NA,NA,NA,NA,NA,NA,NA,NA,NA,NA,NA
"493","stim/objects/Instruments/musicsheet.png",274,70,267,0.9,"stim/53.jpeg",5,3,3,2,"Instruments",2,3,"right","right",0.56099987,1,1,1,0,NA,NA,NA,NA,NA,NA,NA,NA,NA,NA,NA,NA,NA,NA,NA,NA,NA,NA,NA,NA,NA,NA,NA,NA
"415","stim/objects/Instruments/flute.png",275,70,268,0.5,"stim/14.jpeg",1,4,1,2,"Instruments",2,3,"right","left",0.627999783,0,0,1,0,NA,NA,NA,NA,NA,NA,NA,NA,NA,NA,NA,NA,NA,NA,NA,NA,NA,NA,NA,NA,NA,NA,NA,NA
"346","stim/objects/HouseObjects/pan.png",276,70,269,0.9,"stim/61.jpeg",6,1,3,2,"HouseObjects",1,1,"left","left",0.482000113,1,1,1,0,NA,NA,NA,NA,NA,NA,NA,NA,NA,NA,NA,NA,NA,NA,NA,NA,NA,NA,NA,NA,NA,NA,NA,NA
"359","stim/objects/HouseObjects/pitcher.png",277,70,270,0.9,"stim/61.jpeg",6,1,3,2,"HouseObjects",1,3,"left","left",0.475999832,1,1,1,0,NA,NA,NA,NA,NA,NA,NA,NA,NA,NA,NA,NA,NA,NA,NA,NA,NA,NA,NA,NA,NA,NA,NA,NA
"474","stim/objects/Instruments/metronome.png",278,70,271,0.9,"stim/51.jpeg",5,1,3,2,"Instruments",2,4,"right","right",0.49000001,1,1,1,0,NA,NA,NA,NA,NA,NA,NA,NA,NA,NA,NA,NA,NA,NA,NA,NA,NA,NA,NA,NA,NA,NA,NA,NA
"402","stim/objects/HouseObjects/vacuumcleaner.png",279,70,272,0.3,"stim/34.jpeg",3,4,2,1,"HouseObjects",1,3,"left","left",0.489000082,1,1,1,0,80,70,1,0.3,1,"stim/34.jpeg",3,4,"stim/34.jpeg",3,"left",0.785999775,3,4,1.358999968,3,0.721999884,80,1,1,1,1,1,0
"451","stim/objects/Instruments/laud2.png",280,70,273,0.3,"stim/42.jpeg",4,2,2,1,"Instruments",2,3,"right","left",0.680999994,0,0,1,0,115,70,1,0.3,2,"stim/42.jpeg",4,2,"stim/42.jpeg",3,"left",0.82799983,4,3,3.367999792,2,0.96999979,115,1,0,0,0,0,0
"509","stim/objects/Instruments/musicstand.png",281,70,274,0.9,"stim/54.jpeg",5,4,3,2,"Instruments",2,3,"right","right",0.778000116,1,1,1,0,NA,NA,NA,NA,NA,NA,NA,NA,NA,NA,NA,NA,NA,NA,NA,NA,NA,NA,NA,NA,NA,NA,NA,NA
"526","stim/objects/Instruments/oboe.png",282,70,275,0.9,"stim/52.jpeg",5,2,3,2,"Instruments",2,4,"right","right",0.595999956,1,1,1,0,NA,NA,NA,NA,NA,NA,NA,NA,NA,NA,NA,NA,NA,NA,NA,NA,NA,NA,NA,NA,NA,NA,NA,NA
"440","stim/objects/Instruments/hihat.png",283,70,276,0.7,"stim/34.jpeg",3,4,2,2,"Instruments",2,4,"right","left",0.611000061,0,0,1,0,NA,NA,NA,NA,NA,NA,NA,NA,NA,NA,NA,NA,NA,NA,NA,NA,NA,NA,NA,NA,NA,NA,NA,NA
"385","stim/objects/HouseObjects/safetypin2.png",284,70,277,0.1,"stim/52.jpeg",5,2,3,1,"HouseObjects",1,4,"left","right",0.457000017,0,0,1,0,151,70,1,0.1,1,"stim/52.jpeg",5,2,"stim/52.jpeg",4,"right",1.086999893,3,2,1.59800005,4,1.397000074,151,0,1,NA,1,NA,0
"494","stim/objects/Instruments/musicsheet.png",285,70,278,0.9,"stim/54.jpeg",5,4,3,2,"Instruments",2,2,"right","right",0.517999887,1,1,1,0,NA,NA,NA,NA,NA,NA,NA,NA,NA,NA,NA,NA,NA,NA,NA,NA,NA,NA,NA,NA,NA,NA,NA,NA
"527","stim/objects/Instruments/oboe.png",286,70,279,0.9,"stim/54.jpeg",5,4,3,2,"Instruments",2,1,"right","right",0.642999887,1,1,1,0,NA,NA,NA,NA,NA,NA,NA,NA,NA,NA,NA,NA,NA,NA,NA,NA,NA,NA,NA,NA,NA,NA,NA,NA
"250","stim/objects/HouseObjects/doormat.png",287,70,280,0.5,"stim/11.jpeg",1,1,1,2,"HouseObjects",1,1,"left","left",0.56099987,1,1,1,0,NA,NA,NA,NA,NA,NA,NA,NA,NA,NA,NA,NA,NA,NA,NA,NA,NA,NA,NA,NA,NA,NA,NA,NA
"266","stim/objects/HouseObjects/glassmop.png",288,70,281,0.5,"stim/23.jpeg",2,3,1,2,"HouseObjects",1,3,"left","right",0.618999958,0,0,1,0,NA,NA,NA,NA,NA,NA,NA,NA,NA,NA,NA,NA,NA,NA,NA,NA,NA,NA,NA,NA,NA,NA,NA,NA
"412","stim/objects/Instruments/electricguitar.png",289,70,282,0.5,"stim/12.jpeg",1,2,1,2,"Instruments",2,2,"right","left",0.621000051,0,0,1,0,NA,NA,NA,NA,NA,NA,NA,NA,NA,NA,NA,NA,NA,NA,NA,NA,NA,NA,NA,NA,NA,NA,NA,NA
"275","stim/objects/HouseObjects/handvacuum.png",290,70,283,0.7,"stim/42.jpeg",4,2,2,2,"HouseObjects",1,1,"left","left",0.503999949,1,1,1,0,NA,NA,NA,NA,NA,NA,NA,NA,NA,NA,NA,NA,NA,NA,NA,NA,NA,NA,NA,NA,NA,NA,NA,NA
"566","stim/objects/Instruments/violin2.png",291,70,284,0.1,"stim/62.jpeg",6,2,3,1,"Instruments",2,4,"right","left",0.514999866,0,0,1,0,53,70,1,0.1,2,"stim/62.jpeg",6,2,"stim/62.jpeg",4,"left",0.717999935,4,4,3.217000008,2,1.049000025,53,1,0,0,0,0,0
"459","stim/objects/Instruments/marimba.png",292,70,285,0.9,"stim/51.jpeg",5,1,3,2,"Instruments",2,3,"right","right",0.499999762,1,1,1,0,NA,NA,NA,NA,NA,NA,NA,NA,NA,NA,NA,NA,NA,NA,NA,NA,NA,NA,NA,NA,NA,NA,NA,NA
"563","stim/objects/Instruments/tuba.png",293,70,286,0.7,"stim/33.jpeg",3,3,2,1,"Instruments",2,4,"right","right",0.82799983,1,1,1,0,130,70,1,0.7,2,"stim/33.jpeg",3,3,"stim/33.jpeg",4,"right",0.744999886,2,3,1.370999813,3,1.451999903,130,0,1,NA,0,NA,0
"271","stim/objects/HouseObjects/handbrush.png",294,70,287,0.7,"stim/43.jpeg",4,3,2,2,"HouseObjects",1,2,"left","right",0.454999924,0,0,1,0,NA,NA,NA,NA,NA,NA,NA,NA,NA,NA,NA,NA,NA,NA,NA,NA,NA,NA,NA,NA,NA,NA,NA,NA
"429","stim/objects/Instruments/grandpiano2.png",295,70,288,0.3,"stim/44.jpeg",4,4,2,1,"Instruments",2,4,"right","left",0.501999855,0,0,1,0,104,70,1,0.3,2,"stim/44.jpeg",4,4,"stim/44.jpeg",4,"right",1.080999851,3,3,6.361999989,3,2.928999901,104,0,0,NA,0,NA,0
"510","stim/objects/Instruments/musicstand.png",296,70,289,0.9,"stim/53.jpeg",5,3,3,2,"Instruments",2,2,"right","right",0.572999954,1,1,1,0,NA,NA,NA,NA,NA,NA,NA,NA,NA,NA,NA,NA,NA,NA,NA,NA,NA,NA,NA,NA,NA,NA,NA,NA
"552","stim/objects/Instruments/speaker2.png",297,70,290,0.1,"stim/63.jpeg",6,3,3,1,"Instruments",2,2,"right","left",0.580999851,0,0,1,0,50,70,1,0.1,2,"stim/63.jpeg",6,3,"stim/63.jpeg",2,"right",0.727999926,4,4,4.932999849,2,5.383999825,50,0,0,NA,1,NA,0
"496","stim/objects/Instruments/musicsheet.png",298,70,291,0.9,"stim/51.jpeg",5,1,3,2,"Instruments",2,4,"right","right",0.48300004,1,1,1,0,NA,NA,NA,NA,NA,NA,NA,NA,NA,NA,NA,NA,NA,NA,NA,NA,NA,NA,NA,NA,NA,NA,NA,NA
"436","stim/objects/Instruments/harp.png",299,70,292,0.7,"stim/33.jpeg",3,3,2,2,"Instruments",2,2,"right","right",0.557999849,1,1,1,0,NA,NA,NA,NA,NA,NA,NA,NA,NA,NA,NA,NA,NA,NA,NA,NA,NA,NA,NA,NA,NA,NA,NA,NA
"416","stim/objects/Instruments/flute.png",300,70,293,0.5,"stim/13.jpeg",1,3,1,2,"Instruments",2,2,"right","right",0.480999708,1,1,1,0,NA,NA,NA,NA,NA,NA,NA,NA,NA,NA,NA,NA,NA,NA,NA,NA,NA,NA,NA,NA,NA,NA,NA,NA
"256","stim/objects/HouseObjects/flyswatter.png",301,70,294,0.5,"stim/24.jpeg",2,4,1,2,"HouseObjects",1,2,"left","right",0.659999847,0,0,1,0,NA,NA,NA,NA,NA,NA,NA,NA,NA,NA,NA,NA,NA,NA,NA,NA,NA,NA,NA,NA,NA,NA,NA,NA
"548","stim/objects/Instruments/record2.png",302,70,295,0.9,"stim/52.jpeg",5,2,3,1,"Instruments",2,2,"right","right",0.506999731,1,1,1,0,117,70,1,0.9,2,"stim/52.jpeg",5,2,"stim/52.jpeg",2,"left",0.961999893,4,2,1.642999887,3,1.093999863,117,1,1,1,0,0,0
"554","stim/objects/Instruments/tambourine2.png",303,70,296,0.1,"stim/64.jpeg",6,4,3,1,"Instruments",2,4,"right","left",0.480999947,0,0,1,0,60,70,1,0.1,2,"stim/64.jpeg",6,4,"stim/64.jpeg",4,"right",2.018999815,1,4,2.180999994,2,1.488999844,60,0,1,NA,0,NA,0
"460","stim/objects/Instruments/marimba.png",304,70,297,0.9,"stim/54.jpeg",5,4,3,2,"Instruments",2,2,"right","right",0.492000103,1,1,1,0,NA,NA,NA,NA,NA,NA,NA,NA,NA,NA,NA,NA,NA,NA,NA,NA,NA,NA,NA,NA,NA,NA,NA,NA
"347","stim/objects/HouseObjects/pan.png",305,70,298,0.9,"stim/64.jpeg",6,4,3,2,"HouseObjects",1,4,"left","left",0.542999983,1,1,1,0,NA,NA,NA,NA,NA,NA,NA,NA,NA,NA,NA,NA,NA,NA,NA,NA,NA,NA,NA,NA,NA,NA,NA,NA
"255","stim/objects/HouseObjects/dustpan2.png",306,70,299,0.3,"stim/32.jpeg",3,2,2,1,"HouseObjects",1,3,"left","right",0.453000069,0,0,1,0,135,70,1,0.3,1,"stim/32.jpeg",3,2,"stim/32.jpeg",3,"right",0.970999956,4,3,1.866999865,2,2.501999855,135,0,0,NA,0,NA,0
"529","stim/objects/Instruments/oboe.png",307,70,300,0.9,"stim/54.jpeg",5,4,3,2,"Instruments",2,2,"right","right",0.562000036,1,1,1,0,NA,NA,NA,NA,NA,NA,NA,NA,NA,NA,NA,NA,NA,NA,NA,NA,NA,NA,NA,NA,NA,NA,NA,NA
"393","stim/objects/HouseObjects/spraybottle2.png",308,70,301,0.9,"stim/64.jpeg",6,4,3,1,"HouseObjects",1,4,"left","left",0.470999956,1,1,1,0,139,70,1,0.9,1,"stim/64.jpeg",6,4,"stim/64.jpeg",4,"right",0.700999975,3,4,2.345999956,2,0.930999994,139,0,1,NA,0,NA,0
"452","stim/objects/Instruments/maraca.png",309,70,302,0.7,"stim/31.jpeg",3,1,2,2,"Instruments",2,1,"right","",NA,0,0,1,0,NA,NA,NA,NA,NA,NA,NA,NA,NA,NA,NA,NA,NA,NA,NA,NA,NA,NA,NA,NA,NA,NA,NA,NA
"437","stim/objects/Instruments/harp.png",310,70,303,0.7,"stim/34.jpeg",3,4,2,2,"Instruments",2,2,"right","right",0.763000011,1,1,1,0,NA,NA,NA,NA,NA,NA,NA,NA,NA,NA,NA,NA,NA,NA,NA,NA,NA,NA,NA,NA,NA,NA,NA,NA
"497","stim/objects/Instruments/musicsheet.png",311,70,304,0.9,"stim/54.jpeg",5,4,3,2,"Instruments",2,3,"right","right",0.689999819,1,1,1,0,NA,NA,NA,NA,NA,NA,NA,NA,NA,NA,NA,NA,NA,NA,NA,NA,NA,NA,NA,NA,NA,NA,NA,NA
"418","stim/objects/Instruments/flutetrans.png",312,70,305,0.5,"stim/11.jpeg",1,1,1,2,"Instruments",2,3,"right","right",0.541999817,1,1,1,0,NA,NA,NA,NA,NA,NA,NA,NA,NA,NA,NA,NA,NA,NA,NA,NA,NA,NA,NA,NA,NA,NA,NA,NA
"296","stim/objects/HouseObjects/knife.png",313,70,306,0.9,"stim/61.jpeg",6,1,3,2,"HouseObjects",1,2,"left","left",0.438999891,1,1,1,0,NA,NA,NA,NA,NA,NA,NA,NA,NA,NA,NA,NA,NA,NA,NA,NA,NA,NA,NA,NA,NA,NA,NA,NA
"543","stim/objects/Instruments/pipepiano.png",314,70,307,0.5,"stim/13.jpeg",1,3,1,1,"Instruments",2,2,"right","left",0.559999943,0,0,1,0,42,70,1,0.5,1,"stim/13.jpeg",1,3,"stim/13.jpeg",2,"left",0.766000032,4,3,3.977999926,1,0.536999941,42,1,1,1,0,0,0
"438","stim/objects/Instruments/harp.png",315,70,308,0.7,"stim/31.jpeg",3,1,2,2,"Instruments",2,3,"right","right",0.506999969,1,1,1,0,NA,NA,NA,NA,NA,NA,NA,NA,NA,NA,NA,NA,NA,NA,NA,NA,NA,NA,NA,NA,NA,NA,NA,NA
"244","stim/objects/HouseObjects/cushion.png",316,70,309,0.5,"stim/12.jpeg",1,2,1,2,"HouseObjects",1,4,"left","right",0.473999739,0,0,1,0,NA,NA,NA,NA,NA,NA,NA,NA,NA,NA,NA,NA,NA,NA,NA,NA,NA,NA,NA,NA,NA,NA,NA,NA
"550","stim/objects/Instruments/saxophone2.png",317,70,310,0.9,"stim/54.jpeg",5,4,3,1,"Instruments",2,1,"right","right",0.5,1,1,1,0,122,70,1,0.9,2,"stim/54.jpeg",5,4,"stim/54.jpeg",1,"left",1.210999966,4,3,1.949999809,2,1.578999758,122,1,0,0,0,0,0
"348","stim/objects/HouseObjects/pan.png",318,70,311,0.9,"stim/62.jpeg",6,2,3,2,"HouseObjects",1,2,"left","left",0.530999899,1,1,1,0,NA,NA,NA,NA,NA,NA,NA,NA,NA,NA,NA,NA,NA,NA,NA,NA,NA,NA,NA,NA,NA,NA,NA,NA
"361","stim/objects/HouseObjects/pitcher.png",319,70,312,0.9,"stim/64.jpeg",6,4,3,2,"HouseObjects",1,4,"left","left",0.517999887,1,1,1,0,NA,NA,NA,NA,NA,NA,NA,NA,NA,NA,NA,NA,NA,NA,NA,NA,NA,NA,NA,NA,NA,NA,NA,NA
"411","stim/objects/Instruments/electricdrumset2.png",320,70,313,0.7,"stim/34.jpeg",3,4,2,1,"Instruments",2,1,"right","right",0.468999863,1,1,1,0,101,70,1,0.7,2,"stim/34.jpeg",3,4,"stim/34.jpeg",1,"left",0.94900012,3,3,4.035000086,2,1.529000044,101,1,0,0,0,0,0
"463","stim/objects/Instruments/marimba.png",321,70,314,0.9,"stim/52.jpeg",5,2,3,2,"Instruments",2,3,"right","right",0.428999901,1,1,1,0,NA,NA,NA,NA,NA,NA,NA,NA,NA,NA,NA,NA,NA,NA,NA,NA,NA,NA,NA,NA,NA,NA,NA,NA
"258","stim/objects/HouseObjects/flyswatter2.png",322,70,315,0.7,"stim/44.jpeg",4,4,2,1,"HouseObjects",1,1,"left","left",0.473999977,1,1,1,0,29,70,1,0.7,1,"stim/44.jpeg",4,4,"stim/44.jpeg",1,"right",2.282999992,2,1,3.092999697,1,0.347999811,29,0,0,NA,1,NA,0
"531","stim/objects/Instruments/oboe.png",323,70,316,0.9,"stim/54.jpeg",5,4,3,2,"Instruments",2,3,"right","right",0.565000057,1,1,1,0,NA,NA,NA,NA,NA,NA,NA,NA,NA,NA,NA,NA,NA,NA,NA,NA,NA,NA,NA,NA,NA,NA,NA,NA
"380","stim/objects/HouseObjects/rubbergloves.png",324,70,317,0.5,"stim/11.jpeg",1,1,1,1,"HouseObjects",1,4,"left","right",0.405999899,0,0,1,0,48,70,1,0.5,1,"stim/11.jpeg",1,1,"stim/11.jpeg",4,"right",1.065999985,2,1,3.57799983,1,0.290999889,48,0,1,NA,0,NA,0
"283","stim/objects/HouseObjects/ironingboard.png",325,70,318,0.7,"stim/42.jpeg",4,2,2,2,"HouseObjects",1,1,"left","left",0.667999983,1,1,1,0,NA,NA,NA,NA,NA,NA,NA,NA,NA,NA,NA,NA,NA,NA,NA,NA,NA,NA,NA,NA,NA,NA,NA,NA
"570","stim/objects/Instruments/xylophone2.png",326,70,319,0.1,"stim/64.jpeg",6,4,3,1,"Instruments",2,4,"right","left",0.556999922,0,0,1,0,46,70,1,0.1,2,"stim/64.jpeg",6,4,"stim/64.jpeg",4,"left",1.085999966,2,2,2.076999903,2,0.880999804,46,1,0,0,0,0,0
"362","stim/objects/HouseObjects/pitcher.png",327,70,320,0.9,"stim/62.jpeg",6,2,3,2,"HouseObjects",1,3,"left","left",0.505999804,1,1,1,0,NA,NA,NA,NA,NA,NA,NA,NA,NA,NA,NA,NA,NA,NA,NA,NA,NA,NA,NA,NA,NA,NA,NA,NA
"406","stim/objects/Instruments/drums.png",328,70,321,0.5,"stim/14.jpeg",1,4,1,2,"Instruments",2,2,"right","left",0.595999956,0,0,1,0,NA,NA,NA,NA,NA,NA,NA,NA,NA,NA,NA,NA,NA,NA,NA,NA,NA,NA,NA,NA,NA,NA,NA,NA
"472","stim/objects/Instruments/marimba2.png",329,70,322,0.9,"stim/53.jpeg",5,3,3,1,"Instruments",2,1,"right","right",0.465999842,1,1,1,0,194,70,1,0.9,2,"stim/53.jpeg",5,3,"stim/53.jpeg",1,"right",0.618999958,4,2,1.411999941,2,1.511999846,194,0,0,NA,0,NA,0
"276","stim/objects/HouseObjects/handvacuum.png",330,70,323,0.7,"stim/44.jpeg",4,4,2,2,"HouseObjects",1,2,"left","left",0.66899991,1,1,1,0,NA,NA,NA,NA,NA,NA,NA,NA,NA,NA,NA,NA,NA,NA,NA,NA,NA,NA,NA,NA,NA,NA,NA,NA
"464","stim/objects/Instruments/marimba.png",331,70,324,0.9,"stim/52.jpeg",5,2,3,2,"Instruments",2,2,"right","right",0.444999933,1,1,1,0,NA,NA,NA,NA,NA,NA,NA,NA,NA,NA,NA,NA,NA,NA,NA,NA,NA,NA,NA,NA,NA,NA,NA,NA
"297","stim/objects/HouseObjects/knife.png",332,70,325,0.9,"stim/63.jpeg",6,3,3,2,"HouseObjects",1,4,"left","left",0.523000002,1,1,1,0,NA,NA,NA,NA,NA,NA,NA,NA,NA,NA,NA,NA,NA,NA,NA,NA,NA,NA,NA,NA,NA,NA,NA,NA
"569","stim/objects/Instruments/xylophone.png",333,70,326,0.7,"stim/32.jpeg",3,2,2,1,"Instruments",2,2,"right","right",0.493999958,1,1,1,0,98,70,1,0.7,2,"stim/32.jpeg",3,2,"stim/32.jpeg",2,"right",0.808000088,2,3,1.694000006,2,1.589999914,98,0,0,NA,1,NA,0
"363","stim/objects/HouseObjects/pitcher.png",334,70,327,0.9,"stim/61.jpeg",6,1,3,2,"HouseObjects",1,2,"left","left",0.517999887,1,1,1,0,NA,NA,NA,NA,NA,NA,NA,NA,NA,NA,NA,NA,NA,NA,NA,NA,NA,NA,NA,NA,NA,NA,NA,NA
"279","stim/objects/HouseObjects/iron.png",335,70,328,0.7,"stim/44.jpeg",4,4,2,2,"HouseObjects",1,3,"left","left",0.47300005,1,1,1,0,NA,NA,NA,NA,NA,NA,NA,NA,NA,NA,NA,NA,NA,NA,NA,NA,NA,NA,NA,NA,NA,NA,NA,NA
"401","stim/objects/HouseObjects/towel2.png",336,70,329,0.9,"stim/64.jpeg",6,4,3,1,"HouseObjects",1,2,"left","left",0.518999815,1,1,1,0,17,70,1,0.9,1,"stim/64.jpeg",6,4,"stim/64.jpeg",2,"left",1.206999779,2,1,4.178999901,3,2.454999924,17,1,0,0,0,0,0
"311","stim/objects/HouseObjects/lintroller.png",337,70,330,0.9,"stim/62.jpeg",6,2,3,2,"HouseObjects",1,3,"left","left",0.440000057,1,1,1,0,NA,NA,NA,NA,NA,NA,NA,NA,NA,NA,NA,NA,NA,NA,NA,NA,NA,NA,NA,NA,NA,NA,NA,NA
"261","stim/objects/HouseObjects/garbagebin2.png",338,70,331,0.7,"stim/41.jpeg",4,1,2,1,"HouseObjects",1,1,"left","left",0.482000113,1,1,1,0,111,70,1,0.7,1,"stim/41.jpeg",4,1,"stim/41.jpeg",1,"right",1.132999897,3,2,2.799999952,1,0.904000044,111,0,0,NA,1,NA,0
"444","stim/objects/Instruments/keyboard.png",339,70,332,0.7,"stim/32.jpeg",3,2,2,2,"Instruments",2,3,"right","right",0.555999756,1,1,1,0,NA,NA,NA,NA,NA,NA,NA,NA,NA,NA,NA,NA,NA,NA,NA,NA,NA,NA,NA,NA,NA,NA,NA,NA
"313","stim/objects/HouseObjects/lintroller.png",340,70,333,0.9,"stim/61.jpeg",6,1,3,2,"HouseObjects",1,3,"left","left",0.475999832,1,1,1,0,NA,NA,NA,NA,NA,NA,NA,NA,NA,NA,NA,NA,NA,NA,NA,NA,NA,NA,NA,NA,NA,NA,NA,NA
"477","stim/objects/Instruments/metronome.png",341,70,334,0.9,"stim/54.jpeg",5,4,3,2,"Instruments",2,2,"right","right",0.494999886,1,1,1,0,NA,NA,NA,NA,NA,NA,NA,NA,NA,NA,NA,NA,NA,NA,NA,NA,NA,NA,NA,NA,NA,NA,NA,NA
"272","stim/objects/HouseObjects/handbrush.png",342,70,335,0.7,"stim/41.jpeg",4,1,2,2,"HouseObjects",1,2,"left","left",0.576999903,1,1,1,0,NA,NA,NA,NA,NA,NA,NA,NA,NA,NA,NA,NA,NA,NA,NA,NA,NA,NA,NA,NA,NA,NA,NA,NA
"364","stim/objects/HouseObjects/pitcher.png",343,70,336,0.9,"stim/64.jpeg",6,4,3,2,"HouseObjects",1,4,"left","left",0.521999836,1,1,1,0,NA,NA,NA,NA,NA,NA,NA,NA,NA,NA,NA,NA,NA,NA,NA,NA,NA,NA,NA,NA,NA,NA,NA,NA
"314","stim/objects/HouseObjects/lintroller.png",344,70,337,0.9,"stim/62.jpeg",6,2,3,2,"HouseObjects",1,2,"left","left",0.676999807,1,1,1,0,NA,NA,NA,NA,NA,NA,NA,NA,NA,NA,NA,NA,NA,NA,NA,NA,NA,NA,NA,NA,NA,NA,NA,NA
"298","stim/objects/HouseObjects/knife.png",345,70,338,0.9,"stim/63.jpeg",6,3,3,2,"HouseObjects",1,1,"left","left",0.467999935,1,1,1,0,NA,NA,NA,NA,NA,NA,NA,NA,NA,NA,NA,NA,NA,NA,NA,NA,NA,NA,NA,NA,NA,NA,NA,NA
"365","stim/objects/HouseObjects/pitcher.png",346,70,339,0.9,"stim/63.jpeg",6,3,3,2,"HouseObjects",1,4,"left","left",0.40199995,1,1,1,0,NA,NA,NA,NA,NA,NA,NA,NA,NA,NA,NA,NA,NA,NA,NA,NA,NA,NA,NA,NA,NA,NA,NA,NA
"241","stim/objects/HouseObjects/coffee.png",347,70,340,0.5,"stim/11.jpeg",1,1,1,2,"HouseObjects",1,2,"left","right",0.631000042,0,0,1,0,NA,NA,NA,NA,NA,NA,NA,NA,NA,NA,NA,NA,NA,NA,NA,NA,NA,NA,NA,NA,NA,NA,NA,NA
"295","stim/objects/HouseObjects/knife.png",348,70,341,0.9,"stim/64.jpeg",6,4,3,2,"HouseObjects",1,4,"left","left",0.444999933,1,1,1,0,NA,NA,NA,NA,NA,NA,NA,NA,NA,NA,NA,NA,NA,NA,NA,NA,NA,NA,NA,NA,NA,NA,NA,NA
"512","stim/objects/Instruments/musicstand.png",349,70,342,0.9,"stim/54.jpeg",5,4,3,2,"Instruments",2,3,"right","right",0.541000128,1,1,1,0,NA,NA,NA,NA,NA,NA,NA,NA,NA,NA,NA,NA,NA,NA,NA,NA,NA,NA,NA,NA,NA,NA,NA,NA
"409","stim/objects/Instruments/electricdrumset.png",350,70,343,0.5,"stim/11.jpeg",1,1,1,2,"Instruments",2,1,"right","right",0.421999931,1,1,1,0,NA,NA,NA,NA,NA,NA,NA,NA,NA,NA,NA,NA,NA,NA,NA,NA,NA,NA,NA,NA,NA,NA,NA,NA
"399","stim/objects/HouseObjects/thread2.png",351,70,344,0.9,"stim/63.jpeg",6,3,3,1,"HouseObjects",1,3,"left","left",0.454999924,1,1,1,0,123,70,1,0.9,1,"stim/63.jpeg",6,3,"stim/63.jpeg",3,"right",3.010999918,1,4,2.286000013,2,1.437999964,123,0,0,NA,0,NA,0
"315","stim/objects/HouseObjects/lintroller.png",352,70,345,0.9,"stim/63.jpeg",6,3,3,2,"HouseObjects",1,4,"left","left",0.493999958,1,1,1,0,NA,NA,NA,NA,NA,NA,NA,NA,NA,NA,NA,NA,NA,NA,NA,NA,NA,NA,NA,NA,NA,NA,NA,NA
"280","stim/objects/HouseObjects/iron.png",353,70,346,0.7,"stim/43.jpeg",4,3,2,2,"HouseObjects",1,3,"left","left",0.585000038,1,1,1,0,NA,NA,NA,NA,NA,NA,NA,NA,NA,NA,NA,NA,NA,NA,NA,NA,NA,NA,NA,NA,NA,NA,NA,NA
"366","stim/objects/HouseObjects/pitcher.png",354,70,347,0.9,"stim/61.jpeg",6,1,3,2,"HouseObjects",1,1,"left","left",0.596999884,1,1,1,0,NA,NA,NA,NA,NA,NA,NA,NA,NA,NA,NA,NA,NA,NA,NA,NA,NA,NA,NA,NA,NA,NA,NA,NA
"430","stim/objects/Instruments/guitarcase.png",355,70,348,0.5,"stim/21.jpeg",2,1,1,2,"Instruments",2,1,"right","left",0.59800005,0,0,1,0,NA,NA,NA,NA,NA,NA,NA,NA,NA,NA,NA,NA,NA,NA,NA,NA,NA,NA,NA,NA,NA,NA,NA,NA
"389","stim/objects/HouseObjects/scale2.png",356,70,349,0.9,"stim/62.jpeg",6,2,3,1,"HouseObjects",1,3,"left","left",0.490999937,1,1,1,0,1,70,1,0.9,1,"stim/62.jpeg",6,2,"stim/62.jpeg",3,"left",1.657000065,4,2,5.868999958,3,1.197000027,1,1,1,1,1,1,0
"532","stim/objects/Instruments/oboe.png",357,70,350,0.9,"stim/53.jpeg",5,3,3,2,"Instruments",2,3,"right","right",0.546999931,1,1,1,0,NA,NA,NA,NA,NA,NA,NA,NA,NA,NA,NA,NA,NA,NA,NA,NA,NA,NA,NA,NA,NA,NA,NA,NA
"341","stim/objects/HouseObjects/match2.png",358,70,351,0.1,"stim/53.jpeg",5,3,3,1,"HouseObjects",1,3,"left","right",0.491999865,0,0,1,0,152,70,1,0.1,1,"stim/53.jpeg",5,3,"stim/53.jpeg",3,"right",3.000999928,1,1,1.008999825,2,1.42599988,152,0,0,NA,0,NA,0
"466","stim/objects/Instruments/marimba.png",359,70,352,0.9,"stim/54.jpeg",5,4,3,2,"Instruments",2,4,"right","right",0.439999819,1,1,1,0,NA,NA,NA,NA,NA,NA,NA,NA,NA,NA,NA,NA,NA,NA,NA,NA,NA,NA,NA,NA,NA,NA,NA,NA
"467","stim/objects/Instruments/marimba.png",360,70,353,0.9,"stim/53.jpeg",5,3,3,2,"Instruments",2,3,"right","right",0.486000061,1,1,1,0,NA,NA,NA,NA,NA,NA,NA,NA,NA,NA,NA,NA,NA,NA,NA,NA,NA,NA,NA,NA,NA,NA,NA,NA
"455","stim/objects/Instruments/maraca2.png",361,70,354,0.3,"stim/43.jpeg",4,3,2,1,"Instruments",2,2,"right","left",0.574999809,0,0,1,0,142,70,1,0.3,2,"stim/43.jpeg",4,3,"stim/43.jpeg",2,"left",0.942000151,3,2,1.27699995,4,1.535000086,142,1,0,0,0,0,0
"468","stim/objects/Instruments/marimba.png",362,70,355,0.9,"stim/51.jpeg",5,1,3,2,"Instruments",2,3,"right","right",0.529000044,1,1,1,0,NA,NA,NA,NA,NA,NA,NA,NA,NA,NA,NA,NA,NA,NA,NA,NA,NA,NA,NA,NA,NA,NA,NA,NA
"395","stim/objects/HouseObjects/teapot2.png",363,70,356,0.9,"stim/61.jpeg",6,1,3,1,"HouseObjects",1,1,"left","left",0.48300004,1,1,1,0,68,70,1,0.9,1,"stim/61.jpeg",6,1,"stim/61.jpeg",1,"right",0.677999973,4,4,6.315999985,1,1.077000141,68,0,0,NA,1,NA,0
"328","stim/objects/HouseObjects/match.png",364,70,357,0.9,"stim/62.jpeg",6,2,3,2,"HouseObjects",1,3,"left","left",0.586999893,1,1,1,0,NA,NA,NA,NA,NA,NA,NA,NA,NA,NA,NA,NA,NA,NA,NA,NA,NA,NA,NA,NA,NA,NA,NA,NA
"446","stim/objects/Instruments/keyboard.png",365,70,358,0.7,"stim/33.jpeg",3,3,2,2,"Instruments",2,4,"right","right",0.544999838,1,1,1,0,NA,NA,NA,NA,NA,NA,NA,NA,NA,NA,NA,NA,NA,NA,NA,NA,NA,NA,NA,NA,NA,NA,NA,NA
"423","stim/objects/Instruments/frenchhorn2.png",366,70,359,0.3,"stim/42.jpeg",4,2,2,1,"Instruments",2,1,"right","left",0.549999952,0,0,1,0,128,70,1,0.3,2,"stim/42.jpeg",4,2,"stim/42.jpeg",1,"left",0.852999926,4,3,2.832000017,1,0.93599987,128,1,0,0,1,1,0
"449","stim/objects/Instruments/laud.png",367,70,360,0.7,"stim/34.jpeg",3,4,2,2,"Instruments",2,3,"right","right",0.545000076,1,1,1,0,NA,NA,NA,NA,NA,NA,NA,NA,NA,NA,NA,NA,NA,NA,NA,NA,NA,NA,NA,NA,NA,NA,NA,NA
"559","stim/objects/Instruments/trombone.png",368,70,361,0.5,"stim/24.jpeg",2,4,1,1,"Instruments",2,1,"right","left",0.643999815,0,0,1,0,198,70,1,0.5,2,"stim/24.jpeg",2,4,"stim/24.jpeg",1,"right",1.030999899,2,3,0.69299984,4,1.46999979,198,0,0,NA,0,NA,0
"390","stim/objects/HouseObjects/sponge.png",369,70,362,0.5,"stim/23.jpeg",2,3,1,1,"HouseObjects",1,3,"left","left",0.500999928,1,1,1,0,44,70,1,0.5,2,"stim/23.jpeg",2,3,"stim/23.jpeg",3,"left",0.830999851,4,1,2.217999697,1,0.326999903,44,1,0,0,0,0,0
"291","stim/objects/HouseObjects/knife.png",370,70,363,0.9,"stim/62.jpeg",6,2,3,2,"HouseObjects",1,3,"left","left",0.75,1,1,1,0,NA,NA,NA,NA,NA,NA,NA,NA,NA,NA,NA,NA,NA,NA,NA,NA,NA,NA,NA,NA,NA,NA,NA,NA
"290","stim/objects/HouseObjects/key2.png",371,70,364,0.7,"stim/41.jpeg",4,1,2,1,"HouseObjects",1,1,"left","right",0.739000082,0,0,1,0,23,70,1,0.7,1,"stim/41.jpeg",4,1,"stim/41.jpeg",1,"left",0.911999941,4,3,7.789999962,3,0.434999943,23,1,0,0,0,0,0
"344","stim/objects/HouseObjects/pan.png",372,70,365,0.9,"stim/62.jpeg",6,2,3,2,"HouseObjects",1,3,"left","left",0.517999887,1,1,1,0,NA,NA,NA,NA,NA,NA,NA,NA,NA,NA,NA,NA,NA,NA,NA,NA,NA,NA,NA,NA,NA,NA,NA,NA
"358","stim/objects/HouseObjects/pan2.png",373,70,366,0.1,"stim/54.jpeg",5,4,3,1,"HouseObjects",1,3,"left","right",0.45299983,0,0,1,0,176,70,1,0.1,1,"stim/54.jpeg",5,4,"stim/54.jpeg",3,"right",0.809000015,3,1,1.642999887,4,1.997999907,176,0,0,NA,0,NA,0
"398","stim/objects/HouseObjects/thread.png",374,70,367,0.3,"stim/32.jpeg",3,2,2,1,"HouseObjects",1,1,"left","right",0.527999878,0,0,1,0,18,70,1,0.3,1,"stim/32.jpeg",3,2,"stim/32.jpeg",1,"right",0.878999949,2,3,2.994999886,2,1.268999815,18,0,0,NA,0,NA,0
"513","stim/objects/Instruments/musicstand.png",375,70,368,0.9,"stim/53.jpeg",5,3,3,2,"Instruments",2,4,"right","right",0.400999784,1,1,1,0,NA,NA,NA,NA,NA,NA,NA,NA,NA,NA,NA,NA,NA,NA,NA,NA,NA,NA,NA,NA,NA,NA,NA,NA
"476","stim/objects/Instruments/metronome.png",376,70,369,0.9,"stim/52.jpeg",5,2,3,2,"Instruments",2,1,"right","right",0.542999983,1,1,1,0,NA,NA,NA,NA,NA,NA,NA,NA,NA,NA,NA,NA,NA,NA,NA,NA,NA,NA,NA,NA,NA,NA,NA,NA
"368","stim/objects/HouseObjects/pitcher.png",377,70,370,0.9,"stim/61.jpeg",6,1,3,2,"HouseObjects",1,3,"left","left",0.440999985,1,1,1,0,NA,NA,NA,NA,NA,NA,NA,NA,NA,NA,NA,NA,NA,NA,NA,NA,NA,NA,NA,NA,NA,NA,NA,NA
"561","stim/objects/Instruments/trumpet.png",378,70,371,0.7,"stim/32.jpeg",3,2,2,1,"Instruments",2,2,"right","right",0.505999804,1,1,1,0,181,70,1,0.7,2,"stim/32.jpeg",3,2,"stim/32.jpeg",2,"right",0.909999847,3,3,1.246999979,2,0.811999798,181,0,0,NA,1,NA,0
"307","stim/objects/HouseObjects/knife2.png",379,70,372,0.1,"stim/51.jpeg",5,1,3,1,"HouseObjects",1,3,"left","right",0.641000032,0,0,1,0,85,70,1,0.1,1,"stim/51.jpeg",5,1,"stim/51.jpeg",3,"right",0.904000044,4,3,4.066999912,2,1.359999895,85,0,0,NA,0,NA,0
"417","stim/objects/Instruments/flute2.png",380,70,373,0.7,"stim/32.jpeg",3,2,2,1,"Instruments",2,2,"right","right",0.376999855,1,1,1,0,149,70,1,0.7,2,"stim/32.jpeg",3,2,"stim/32.jpeg",2,"right",0.727999926,3,4,1.535999775,2,2.967000008,149,0,0,NA,1,NA,0
"480","stim/objects/Instruments/metronome.png",381,70,374,0.9,"stim/51.jpeg",5,1,3,2,"Instruments",2,3,"right","right",0.518999815,1,1,1,0,NA,NA,NA,NA,NA,NA,NA,NA,NA,NA,NA,NA,NA,NA,NA,NA,NA,NA,NA,NA,NA,NA,NA,NA
"397","stim/objects/HouseObjects/thermometer2.png",382,70,375,0.9,"stim/62.jpeg",6,2,3,1,"HouseObjects",1,2,"left","right",0.411999941,0,0,1,0,65,70,1,0.9,1,"stim/62.jpeg",6,2,"stim/62.jpeg",2,"left",1.049999952,3,2,1.36199975,1,0.736999989,65,1,1,1,0,0,0
"439","stim/objects/Instruments/harp2.png",383,70,376,0.3,"stim/43.jpeg",4,3,2,1,"Instruments",2,4,"right","left",0.587999821,0,0,1,0,43,70,1,0.3,2,"stim/43.jpeg",4,3,"stim/43.jpeg",4,"right",1.130999804,2,1,1.878999949,4,1.701999903,43,0,0,NA,1,NA,0
"254","stim/objects/HouseObjects/dustpan.png",384,70,377,0.5,"stim/11.jpeg",1,1,1,2,"HouseObjects",1,4,"left","right",0.480999947,0,0,1,0,NA,NA,NA,NA,NA,NA,NA,NA,NA,NA,NA,NA,NA,NA,NA,NA,NA,NA,NA,NA,NA,NA,NA,NA
"514","stim/objects/Instruments/musicstand.png",385,70,378,0.9,"stim/53.jpeg",5,3,3,2,"Instruments",2,1,"right","right",0.506999969,1,1,1,0,NA,NA,NA,NA,NA,NA,NA,NA,NA,NA,NA,NA,NA,NA,NA,NA,NA,NA,NA,NA,NA,NA,NA,NA
"410","stim/objects/Instruments/electricdrumset.png",386,70,379,0.5,"stim/12.jpeg",1,2,1,2,"Instruments",2,1,"right","left",0.564999819,0,0,1,0,NA,NA,NA,NA,NA,NA,NA,NA,NA,NA,NA,NA,NA,NA,NA,NA,NA,NA,NA,NA,NA,NA,NA,NA
"508","stim/objects/Instruments/musicstand.png",387,70,380,0.9,"stim/51.jpeg",5,1,3,2,"Instruments",2,4,"right","right",0.43599987,1,1,1,0,NA,NA,NA,NA,NA,NA,NA,NA,NA,NA,NA,NA,NA,NA,NA,NA,NA,NA,NA,NA,NA,NA,NA,NA
"293","stim/objects/HouseObjects/knife.png",388,70,381,0.9,"stim/62.jpeg",6,2,3,2,"HouseObjects",1,4,"left","left",0.520999908,1,1,1,0,NA,NA,NA,NA,NA,NA,NA,NA,NA,NA,NA,NA,NA,NA,NA,NA,NA,NA,NA,NA,NA,NA,NA,NA
"568","stim/objects/Instruments/vuvuzela2.png",389,70,382,0.1,"stim/63.jpeg",6,3,3,1,"Instruments",2,2,"right","left",0.578999758,0,0,1,0,158,70,1,0.1,2,"stim/63.jpeg",6,3,"stim/63.jpeg",2,"left",1.059000015,3,1,2.021999836,2,1.104999781,158,1,0,0,1,1,0
"469","stim/objects/Instruments/marimba.png",390,70,383,0.9,"stim/53.jpeg",5,3,3,2,"Instruments",2,4,"right","right",0.494999886,1,1,1,0,NA,NA,NA,NA,NA,NA,NA,NA,NA,NA,NA,NA,NA,NA,NA,NA,NA,NA,NA,NA,NA,NA,NA,NA
"473","stim/objects/Instruments/metronome.png",391,70,384,0.9,"stim/53.jpeg",5,3,3,2,"Instruments",2,3,"right","",NA,0,0,1,0,NA,NA,NA,NA,NA,NA,NA,NA,NA,NA,NA,NA,NA,NA,NA,NA,NA,NA,NA,NA,NA,NA,NA,NA
"447","stim/objects/Instruments/keyboard2.png",392,70,385,0.3,"stim/41.jpeg",4,1,2,1,"Instruments",2,4,"right","left",0.638999939,0,0,1,0,78,70,1,0.3,2,"stim/41.jpeg",4,1,"stim/41.jpeg",4,"left",0.75999999,4,3,4.753999949,2,0.669000149,78,1,0,0,0,0,0
"544","stim/objects/Instruments/pipepiano2.png",393,70,386,0.9,"stim/51.jpeg",5,1,3,1,"Instruments",2,1,"right","right",0.511999846,1,1,1,0,105,70,1,0.9,2,"stim/51.jpeg",5,1,"stim/51.jpeg",1,"left",1.394000053,4,4,4.848999977,2,1.743999958,105,1,0,0,0,0,0
"354","stim/objects/HouseObjects/pan.png",394,70,387,0.9,"stim/63.jpeg",6,3,3,2,"HouseObjects",1,1,"left","left",0.612999916,1,1,1,0,NA,NA,NA,NA,NA,NA,NA,NA,NA,NA,NA,NA,NA,NA,NA,NA,NA,NA,NA,NA,NA,NA,NA,NA
"500","stim/objects/Instruments/musicsheet.png",395,70,388,0.9,"stim/51.jpeg",5,1,3,2,"Instruments",2,2,"right","right",0.486000061,1,1,1,0,NA,NA,NA,NA,NA,NA,NA,NA,NA,NA,NA,NA,NA,NA,NA,NA,NA,NA,NA,NA,NA,NA,NA,NA
"441","stim/objects/Instruments/hihat.png",396,70,389,0.7,"stim/32.jpeg",3,2,2,2,"Instruments",2,2,"right","right",0.558999777,1,1,1,0,NA,NA,NA,NA,NA,NA,NA,NA,NA,NA,NA,NA,NA,NA,NA,NA,NA,NA,NA,NA,NA,NA,NA,NA
"300","stim/objects/HouseObjects/knife.png",397,70,390,0.9,"stim/61.jpeg",6,1,3,2,"HouseObjects",1,3,"left","left",0.566999912,1,1,1,0,NA,NA,NA,NA,NA,NA,NA,NA,NA,NA,NA,NA,NA,NA,NA,NA,NA,NA,NA,NA,NA,NA,NA,NA
"516","stim/objects/Instruments/musicstand.png",398,70,391,0.9,"stim/53.jpeg",5,3,3,2,"Instruments",2,3,"right","right",0.486999989,1,1,1,0,NA,NA,NA,NA,NA,NA,NA,NA,NA,NA,NA,NA,NA,NA,NA,NA,NA,NA,NA,NA,NA,NA,NA,NA
"381","stim/objects/HouseObjects/rubbergloves2.png",399,70,392,0.1,"stim/54.jpeg",5,4,3,1,"HouseObjects",1,1,"left","right",0.561999798,0,0,1,0,166,70,1,0.1,1,"stim/54.jpeg",5,4,"stim/54.jpeg",1,"right",1.473999977,2,3,1.578000069,4,1.19299984,166,0,0,NA,0,NA,0
"268","stim/objects/HouseObjects/hairdryer.png",400,70,393,0.5,"stim/24.jpeg",2,4,1,2,"HouseObjects",1,2,"left","left",0.532999992,1,1,1,0,NA,NA,NA,NA,NA,NA,NA,NA,NA,NA,NA,NA,NA,NA,NA,NA,NA,NA,NA,NA,NA,NA,NA,NA
"294","stim/objects/HouseObjects/knife.png",401,70,394,0.9,"stim/62.jpeg",6,2,3,2,"HouseObjects",1,4,"left","left",0.509000063,1,1,1,0,NA,NA,NA,NA,NA,NA,NA,NA,NA,NA,NA,NA,NA,NA,NA,NA,NA,NA,NA,NA,NA,NA,NA,NA
"355","stim/objects/HouseObjects/pan.png",402,70,395,0.9,"stim/61.jpeg",6,1,3,2,"HouseObjects",1,1,"left","left",0.513000011,1,1,1,0,NA,NA,NA,NA,NA,NA,NA,NA,NA,NA,NA,NA,NA,NA,NA,NA,NA,NA,NA,NA,NA,NA,NA,NA
"517","stim/objects/Instruments/musicstand.png",403,70,396,0.9,"stim/54.jpeg",5,4,3,2,"Instruments",2,4,"right","right",0.542000055,1,1,1,0,NA,NA,NA,NA,NA,NA,NA,NA,NA,NA,NA,NA,NA,NA,NA,NA,NA,NA,NA,NA,NA,NA,NA,NA
"534","stim/objects/Instruments/oboe.png",404,70,397,0.9,"stim/51.jpeg",5,1,3,2,"Instruments",2,1,"right","right",0.5,1,1,1,0,NA,NA,NA,NA,NA,NA,NA,NA,NA,NA,NA,NA,NA,NA,NA,NA,NA,NA,NA,NA,NA,NA,NA,NA
"448","stim/objects/Instruments/laud.png",405,70,398,0.7,"stim/32.jpeg",3,2,2,2,"Instruments",2,2,"right","right",0.499000072,1,1,1,0,NA,NA,NA,NA,NA,NA,NA,NA,NA,NA,NA,NA,NA,NA,NA,NA,NA,NA,NA,NA,NA,NA,NA,NA
"301","stim/objects/HouseObjects/knife.png",406,70,399,0.9,"stim/64.jpeg",6,4,3,2,"HouseObjects",1,2,"left","left",0.447000027,1,1,1,0,NA,NA,NA,NA,NA,NA,NA,NA,NA,NA,NA,NA,NA,NA,NA,NA,NA,NA,NA,NA,NA,NA,NA,NA
"428","stim/objects/Instruments/grandpiano.png",407,70,400,0.5,"stim/24.jpeg",2,4,1,2,"Instruments",2,1,"right","right",0.450999975,1,1,1,0,NA,NA,NA,NA,NA,NA,NA,NA,NA,NA,NA,NA,NA,NA,NA,NA,NA,NA,NA,NA,NA,NA,NA,NA
"555","stim/objects/Instruments/timbal.png",408,70,401,0.5,"stim/22.jpeg",2,2,1,1,"Instruments",2,2,"right","left",0.468999863,0,0,1,0,154,70,1,0.5,2,"stim/22.jpeg",2,2,"stim/22.jpeg",2,"right",0.799999952,2,2,0.997999907,2,1.371999741,154,0,1,NA,1,NA,0
"558","stim/objects/Instruments/triangle2.png",409,70,402,0.1,"stim/62.jpeg",6,2,3,1,"Instruments",2,2,"right","left",0.683999777,0,0,1,0,64,70,1,0.1,2,"stim/62.jpeg",6,2,"stim/62.jpeg",2,"right",1.934000015,2,3,2.995999813,2,0.328999758,64,0,0,NA,1,NA,0
"245","stim/objects/HouseObjects/cushion.png",410,70,403,0.5,"stim/13.jpeg",1,3,1,2,"HouseObjects",1,3,"left","right",0.465999842,0,0,1,0,NA,NA,NA,NA,NA,NA,NA,NA,NA,NA,NA,NA,NA,NA,NA,NA,NA,NA,NA,NA,NA,NA,NA,NA
"333","stim/objects/HouseObjects/match.png",411,70,404,0.9,"stim/62.jpeg",6,2,3,2,"HouseObjects",1,4,"left","left",0.461999893,1,1,1,0,NA,NA,NA,NA,NA,NA,NA,NA,NA,NA,NA,NA,NA,NA,NA,NA,NA,NA,NA,NA,NA,NA,NA,NA
"564","stim/objects/Instruments/tuba2.png",412,70,405,0.1,"stim/61.jpeg",6,1,3,1,"Instruments",2,2,"right","left",0.470999956,0,0,1,0,167,70,1,0.1,2,"stim/61.jpeg",6,1,"stim/61.jpeg",2,"right",0.723999977,4,1,2.624999762,2,1.118999958,167,0,1,NA,1,NA,0
"518","stim/objects/Instruments/musicstand.png",413,70,406,0.9,"stim/51.jpeg",5,1,3,2,"Instruments",2,3,"right","right",0.736000061,1,1,1,0,NA,NA,NA,NA,NA,NA,NA,NA,NA,NA,NA,NA,NA,NA,NA,NA,NA,NA,NA,NA,NA,NA,NA,NA
"360","stim/objects/HouseObjects/pitcher.png",414,70,407,0.9,"stim/63.jpeg",6,3,3,2,"HouseObjects",1,2,"left","left",0.410000086,1,1,1,0,NA,NA,NA,NA,NA,NA,NA,NA,NA,NA,NA,NA,NA,NA,NA,NA,NA,NA,NA,NA,NA,NA,NA,NA
"419","stim/objects/Instruments/flutetrans.png",415,70,408,0.5,"stim/14.jpeg",1,4,1,2,"Instruments",2,4,"right","left",0.680999994,0,0,1,0,NA,NA,NA,NA,NA,NA,NA,NA,NA,NA,NA,NA,NA,NA,NA,NA,NA,NA,NA,NA,NA,NA,NA,NA
"309","stim/objects/HouseObjects/lintroller.png",416,70,409,0.9,"stim/62.jpeg",6,2,3,2,"HouseObjects",1,1,"left","left",0.528000116,1,1,1,0,NA,NA,NA,NA,NA,NA,NA,NA,NA,NA,NA,NA,NA,NA,NA,NA,NA,NA,NA,NA,NA,NA,NA,NA
"319","stim/objects/HouseObjects/lintroller.png",417,70,410,0.9,"stim/64.jpeg",6,4,3,2,"HouseObjects",1,4,"left","left",0.572999954,1,1,1,0,NA,NA,NA,NA,NA,NA,NA,NA,NA,NA,NA,NA,NA,NA,NA,NA,NA,NA,NA,NA,NA,NA,NA,NA
"511","stim/objects/Instruments/musicstand.png",418,70,411,0.9,"stim/52.jpeg",5,2,3,2,"Instruments",2,4,"right","right",0.495000124,1,1,1,0,NA,NA,NA,NA,NA,NA,NA,NA,NA,NA,NA,NA,NA,NA,NA,NA,NA,NA,NA,NA,NA,NA,NA,NA
"388","stim/objects/HouseObjects/scale.png",419,70,412,0.5,"stim/22.jpeg",2,2,1,1,"HouseObjects",1,2,"left","right",0.621999979,0,0,1,0,179,70,1,0.5,2,"stim/22.jpeg",2,2,"stim/22.jpeg",2,"right",2.387999773,1,3,1.433000088,4,1.305999994,179,0,0,NA,0,NA,0
"351","stim/objects/HouseObjects/pan.png",420,70,413,0.9,"stim/61.jpeg",6,1,3,2,"HouseObjects",1,1,"left","left",0.405999899,1,1,1,0,NA,NA,NA,NA,NA,NA,NA,NA,NA,NA,NA,NA,NA,NA,NA,NA,NA,NA,NA,NA,NA,NA,NA,NA
"302","stim/objects/HouseObjects/knife.png",421,70,414,0.9,"stim/64.jpeg",6,4,3,2,"HouseObjects",1,2,"left","left",0.419999838,1,1,1,0,NA,NA,NA,NA,NA,NA,NA,NA,NA,NA,NA,NA,NA,NA,NA,NA,NA,NA,NA,NA,NA,NA,NA,NA
"453","stim/objects/Instruments/maraca.png",422,70,415,0.7,"stim/34.jpeg",3,4,2,2,"Instruments",2,2,"right","right",0.476000071,1,1,1,0,NA,NA,NA,NA,NA,NA,NA,NA,NA,NA,NA,NA,NA,NA,NA,NA,NA,NA,NA,NA,NA,NA,NA,NA
"421","stim/objects/Instruments/frenchhorn.png",423,70,416,0.5,"stim/23.jpeg",2,3,1,2,"Instruments",2,4,"right","right",0.595000029,1,1,1,0,NA,NA,NA,NA,NA,NA,NA,NA,NA,NA,NA,NA,NA,NA,NA,NA,NA,NA,NA,NA,NA,NA,NA,NA
"528","stim/objects/Instruments/oboe.png",424,70,417,0.9,"stim/54.jpeg",5,4,3,2,"Instruments",2,2,"right","right",0.510999918,1,1,1,0,NA,NA,NA,NA,NA,NA,NA,NA,NA,NA,NA,NA,NA,NA,NA,NA,NA,NA,NA,NA,NA,NA,NA,NA
"303","stim/objects/HouseObjects/knife.png",425,70,418,0.9,"stim/61.jpeg",6,1,3,2,"HouseObjects",1,2,"left","left",0.510999918,1,1,1,0,NA,NA,NA,NA,NA,NA,NA,NA,NA,NA,NA,NA,NA,NA,NA,NA,NA,NA,NA,NA,NA,NA,NA,NA
"247","stim/objects/HouseObjects/dishsoap.png",426,70,419,0.5,"stim/13.jpeg",1,3,1,2,"HouseObjects",1,4,"left","right",0.573999882,0,0,1,0,NA,NA,NA,NA,NA,NA,NA,NA,NA,NA,NA,NA,NA,NA,NA,NA,NA,NA,NA,NA,NA,NA,NA,NA
"461","stim/objects/Instruments/marimba.png",427,70,420,0.9,"stim/51.jpeg",5,1,3,2,"Instruments",2,3,"right","right",0.524999857,1,1,1,0,NA,NA,NA,NA,NA,NA,NA,NA,NA,NA,NA,NA,NA,NA,NA,NA,NA,NA,NA,NA,NA,NA,NA,NA
"316","stim/objects/HouseObjects/lintroller.png",428,70,421,0.9,"stim/63.jpeg",6,3,3,2,"HouseObjects",1,2,"left","left",0.575999737,1,1,1,0,NA,NA,NA,NA,NA,NA,NA,NA,NA,NA,NA,NA,NA,NA,NA,NA,NA,NA,NA,NA,NA,NA,NA,NA
"252","stim/objects/HouseObjects/doormat2.png",429,70,422,0.3,"stim/31.jpeg",3,1,2,1,"HouseObjects",1,3,"left","right",0.476999998,0,0,1,0,6,70,1,0.3,1,"stim/31.jpeg",3,1,"stim/31.jpeg",3,"left",1.045999765,4,4,3.26699996,1,0.904000044,6,1,0,0,0,0,0
"396","stim/objects/HouseObjects/thermometer.png",430,70,423,0.3,"stim/31.jpeg",3,1,2,1,"HouseObjects",1,1,"left","right",0.386999846,0,0,1,0,191,70,1,0.3,1,"stim/31.jpeg",3,1,"stim/31.jpeg",1,"right",0.750999928,3,4,1.229999781,4,1.530999899,191,0,0,NA,0,NA,0
"483","stim/objects/Instruments/metronome.png",431,70,424,0.9,"stim/52.jpeg",5,2,3,2,"Instruments",2,4,"right","right",0.460000038,1,1,1,0,NA,NA,NA,NA,NA,NA,NA,NA,NA,NA,NA,NA,NA,NA,NA,NA,NA,NA,NA,NA,NA,NA,NA,NA
"369","stim/objects/HouseObjects/pitcher.png",432,70,425,0.9,"stim/64.jpeg",6,4,3,2,"HouseObjects",1,2,"left","left",0.482999802,1,1,1,0,NA,NA,NA,NA,NA,NA,NA,NA,NA,NA,NA,NA,NA,NA,NA,NA,NA,NA,NA,NA,NA,NA,NA,NA
"407","stim/objects/Instruments/drums.png",433,70,426,0.5,"stim/11.jpeg",1,1,1,2,"Instruments",2,3,"right","left",0.674999714,0,0,1,0,NA,NA,NA,NA,NA,NA,NA,NA,NA,NA,NA,NA,NA,NA,NA,NA,NA,NA,NA,NA,NA,NA,NA,NA
"420","stim/objects/Instruments/flutetrans2.png",434,70,427,0.7,"stim/33.jpeg",3,3,2,1,"Instruments",2,1,"right","left",0.525000095,0,0,1,0,109,70,1,0.7,2,"stim/33.jpeg",3,3,"stim/33.jpeg",1,"right",2.417999744,2,3,1.859999895,2,1.388999939,109,0,1,NA,0,NA,0
"462","stim/objects/Instruments/marimba.png",435,70,428,0.9,"stim/53.jpeg",5,3,3,2,"Instruments",2,1,"right","right",0.555000067,1,1,1,0,NA,NA,NA,NA,NA,NA,NA,NA,NA,NA,NA,NA,NA,NA,NA,NA,NA,NA,NA,NA,NA,NA,NA,NA
"538","stim/objects/Instruments/oboe.png",436,70,429,0.9,"stim/53.jpeg",5,3,3,2,"Instruments",2,1,"right","right",0.559000015,1,1,1,0,NA,NA,NA,NA,NA,NA,NA,NA,NA,NA,NA,NA,NA,NA,NA,NA,NA,NA,NA,NA,NA,NA,NA,NA
"304","stim/objects/HouseObjects/knife.png",437,70,430,0.9,"stim/63.jpeg",6,3,3,2,"HouseObjects",1,2,"left","left",0.515000105,1,1,1,0,NA,NA,NA,NA,NA,NA,NA,NA,NA,NA,NA,NA,NA,NA,NA,NA,NA,NA,NA,NA,NA,NA,NA,NA
"378","stim/objects/HouseObjects/remote.png",438,70,431,0.5,"stim/14.jpeg",1,4,1,1,"HouseObjects",1,1,"left","right",0.463999987,0,0,1,0,170,70,1,0.5,1,"stim/14.jpeg",1,4,"stim/14.jpeg",1,"right",0.845999718,3,2,1.09800005,1,1.849999905,170,0,0,NA,1,NA,0
"501","stim/objects/Instruments/musicsheet.png",439,70,432,0.9,"stim/53.jpeg",5,3,3,2,"Instruments",2,1,"right","right",0.485999823,1,1,1,0,NA,NA,NA,NA,NA,NA,NA,NA,NA,NA,NA,NA,NA,NA,NA,NA,NA,NA,NA,NA,NA,NA,NA,NA
"565","stim/objects/Instruments/violin.png",440,70,433,0.7,"stim/34.jpeg",3,4,2,1,"Instruments",2,4,"right","left",0.463999987,0,0,1,0,67,70,1,0.7,2,"stim/34.jpeg",3,4,"stim/34.jpeg",4,"left",1.945999861,3,3,1.967000008,1,1.36500001,67,1,0,0,0,0,0
"422","stim/objects/Instruments/frenchhorn.png",441,70,434,0.5,"stim/22.jpeg",2,2,1,2,"Instruments",2,4,"right","left",0.601999998,0,0,1,0,NA,NA,NA,NA,NA,NA,NA,NA,NA,NA,NA,NA,NA,NA,NA,NA,NA,NA,NA,NA,NA,NA,NA,NA
"274","stim/objects/HouseObjects/handbrush2.png",442,70,435,0.7,"stim/41.jpeg",4,1,2,1,"HouseObjects",1,1,"left","left",0.633999825,1,1,1,0,159,70,1,0.7,1,"stim/41.jpeg",4,1,"stim/41.jpeg",1,"right",0.666999817,3,2,1.315000057,2,1.057999849,159,0,0,NA,0,NA,0
"253","stim/objects/HouseObjects/dustpan.png",443,70,436,0.5,"stim/12.jpeg",1,2,1,2,"HouseObjects",1,3,"left","right",0.44900012,0,0,1,0,NA,NA,NA,NA,NA,NA,NA,NA,NA,NA,NA,NA,NA,NA,NA,NA,NA,NA,NA,NA,NA,NA,NA,NA
"545","stim/objects/Instruments/record_player.png",444,70,437,0.5,"stim/11.jpeg",1,1,1,1,"Instruments",2,3,"right","right",0.463999748,1,1,1,0,5,70,1,0.5,1,"stim/11.jpeg",1,1,"stim/11.jpeg",3,"left",3.125999928,3,4,3.914999962,1,0.94299984,5,1,0,0,0,0,0
"475","stim/objects/Instruments/metronome.png",445,70,438,0.9,"stim/54.jpeg",5,4,3,2,"Instruments",2,1,"right","right",0.445999861,1,1,1,0,NA,NA,NA,NA,NA,NA,NA,NA,NA,NA,NA,NA,NA,NA,NA,NA,NA,NA,NA,NA,NA,NA,NA,NA
"336","stim/objects/HouseObjects/match.png",446,70,439,0.9,"stim/61.jpeg",6,1,3,2,"HouseObjects",1,2,"left","left",0.546999931,1,1,1,0,NA,NA,NA,NA,NA,NA,NA,NA,NA,NA,NA,NA,NA,NA,NA,NA,NA,NA,NA,NA,NA,NA,NA,NA
"567","stim/objects/Instruments/vuvuzela.png",447,70,440,0.7,"stim/31.jpeg",3,1,2,1,"Instruments",2,3,"right","left",0.602999926,0,0,1,0,199,70,1,0.7,2,"stim/31.jpeg",3,1,"stim/31.jpeg",3,"right",1.131000042,4,3,0.760999918,1,1.701999903,199,0,0,NA,0,NA,0
"470","stim/objects/Instruments/marimba.png",448,70,441,0.9,"stim/54.jpeg",5,4,3,2,"Instruments",2,3,"right","right",0.549000025,1,1,1,0,NA,NA,NA,NA,NA,NA,NA,NA,NA,NA,NA,NA,NA,NA,NA,NA,NA,NA,NA,NA,NA,NA,NA,NA
"414","stim/objects/Instruments/electricguitar2.png",449,70,442,0.7,"stim/31.jpeg",3,1,2,1,"Instruments",2,1,"right","left",0.518000126,0,0,1,0,14,70,1,0.7,2,"stim/31.jpeg",3,1,"stim/31.jpeg",1,"left",2.446000099,3,1,3.63499999,2,0.902999878,14,1,1,1,0,0,0
"310","stim/objects/HouseObjects/lintroller.png",450,70,443,0.9,"stim/63.jpeg",6,3,3,2,"HouseObjects",1,1,"left","left",0.522999763,1,1,1,0,NA,NA,NA,NA,NA,NA,NA,NA,NA,NA,NA,NA,NA,NA,NA,NA,NA,NA,NA,NA,NA,NA,NA,NA
"551","stim/objects/Instruments/speaker.png",451,70,444,0.5,"stim/24.jpeg",2,4,1,1,"Instruments",2,1,"right","right",0.440999985,1,1,1,0,153,70,1,0.5,2,"stim/24.jpeg",2,4,"stim/24.jpeg",1,"left",0.846999884,3,3,1.910999775,4,1.519999981,153,1,0,0,0,0,0
"288","stim/objects/HouseObjects/key.png",452,70,445,0.7,"stim/43.jpeg",4,3,2,2,"HouseObjects",1,3,"left","left",0.521999836,1,1,1,0,NA,NA,NA,NA,NA,NA,NA,NA,NA,NA,NA,NA,NA,NA,NA,NA,NA,NA,NA,NA,NA,NA,NA,NA
"379","stim/objects/HouseObjects/remote2.png",453,70,446,0.1,"stim/53.jpeg",5,3,3,1,"HouseObjects",1,1,"left","right",0.469000101,0,0,1,0,25,70,1,0.1,1,"stim/53.jpeg",5,3,"stim/53.jpeg",1,"right",0.700000048,4,3,6.398999929,4,0.638000011,25,0,1,NA,0,NA,0
"465","stim/objects/Instruments/marimba.png",454,70,447,0.9,"stim/53.jpeg",5,3,3,2,"Instruments",2,2,"right","right",0.73300004,1,1,1,0,NA,NA,NA,NA,NA,NA,NA,NA,NA,NA,NA,NA,NA,NA,NA,NA,NA,NA,NA,NA,NA,NA,NA,NA
"408","stim/objects/Instruments/drums2.png",455,70,448,0.7,"stim/33.jpeg",3,3,2,1,"Instruments",2,1,"right","right",0.448999882,1,1,1,0,70,70,1,0.7,2,"stim/33.jpeg",3,3,"stim/33.jpeg",1,"left",0.879999876,4,2,3.559000015,1,0.691999912,70,1,0,0,1,1,0
"482","stim/objects/Instruments/metronome.png",456,70,449,0.9,"stim/54.jpeg",5,4,3,2,"Instruments",2,1,"right","right",0.507999897,1,1,1,0,NA,NA,NA,NA,NA,NA,NA,NA,NA,NA,NA,NA,NA,NA,NA,NA,NA,NA,NA,NA,NA,NA,NA,NA
"375","stim/objects/HouseObjects/pitcher2.png",457,70,450,0.1,"stim/51.jpeg",5,1,3,1,"HouseObjects",1,1,"left","right",0.404999971,0,0,1,0,136,70,1,0.1,1,"stim/51.jpeg",5,1,"stim/51.jpeg",1,"left",1.398000002,4,2,1.661999941,2,1.362999916,136,1,0,0,0,0,0
"273","stim/objects/HouseObjects/handbrush.png",458,70,451,0.7,"stim/42.jpeg",4,2,2,2,"HouseObjects",1,4,"left","left",0.509000063,1,1,1,0,NA,NA,NA,NA,NA,NA,NA,NA,NA,NA,NA,NA,NA,NA,NA,NA,NA,NA,NA,NA,NA,NA,NA,NA
"312","stim/objects/HouseObjects/lintroller.png",459,70,452,0.9,"stim/62.jpeg",6,2,3,2,"HouseObjects",1,3,"left","left",0.457999945,1,1,1,0,NA,NA,NA,NA,NA,NA,NA,NA,NA,NA,NA,NA,NA,NA,NA,NA,NA,NA,NA,NA,NA,NA,NA,NA
"536","stim/objects/Instruments/oboe.png",460,70,453,0.9,"stim/52.jpeg",5,2,3,2,"Instruments",2,1,"right","right",0.493999958,1,1,1,0,NA,NA,NA,NA,NA,NA,NA,NA,NA,NA,NA,NA,NA,NA,NA,NA,NA,NA,NA,NA,NA,NA,NA,NA
"338","stim/objects/HouseObjects/match.png",461,70,454,0.9,"stim/61.jpeg",6,1,3,2,"HouseObjects",1,1,"left","left",0.453000069,1,1,1,0,NA,NA,NA,NA,NA,NA,NA,NA,NA,NA,NA,NA,NA,NA,NA,NA,NA,NA,NA,NA,NA,NA,NA,NA
"371","stim/objects/HouseObjects/pitcher.png",462,70,455,0.9,"stim/64.jpeg",6,4,3,2,"HouseObjects",1,3,"left","left",0.473999977,1,1,1,0,NA,NA,NA,NA,NA,NA,NA,NA,NA,NA,NA,NA,NA,NA,NA,NA,NA,NA,NA,NA,NA,NA,NA,NA
"372","stim/objects/HouseObjects/pitcher.png",463,70,456,0.9,"stim/62.jpeg",6,2,3,2,"HouseObjects",1,1,"left","left",0.46600008,1,1,1,0,NA,NA,NA,NA,NA,NA,NA,NA,NA,NA,NA,NA,NA,NA,NA,NA,NA,NA,NA,NA,NA,NA,NA,NA
"443","stim/objects/Instruments/hihat2.png",464,70,457,0.3,"stim/44.jpeg",4,4,2,1,"Instruments",2,2,"right","left",0.559999943,0,0,1,0,168,70,1,0.3,2,"stim/44.jpeg",4,4,"stim/44.jpeg",2,"right",0.734999895,3,2,1.029999971,2,1.824999809,168,0,0,NA,1,NA,0
"450","stim/objects/Instruments/laud.png",465,70,458,0.7,"stim/33.jpeg",3,3,2,2,"Instruments",2,3,"right","left",0.690000057,0,0,1,0,NA,NA,NA,NA,NA,NA,NA,NA,NA,NA,NA,NA,NA,NA,NA,NA,NA,NA,NA,NA,NA,NA,NA,NA
"546","stim/objects/Instruments/record_player2.png",466,70,459,0.9,"stim/53.jpeg",5,3,3,1,"Instruments",2,2,"right","right",0.545000076,1,1,1,0,76,70,1,0.9,2,"stim/53.jpeg",5,3,"stim/53.jpeg",2,"left",0.997999907,4,2,2.162999868,3,0.384999752,76,1,0,0,0,0,0
