"","obj_file","X.x","participant.x","trialN.x","trial_cond","scn_file.x","scn_cat","scn_inst","scn_condition","fillers","obj_cat","obj_cat_num","quadrant","corr_ans","key_resp_trial.keys","key_resp_trial.rt","trial_acc","trial_acc_manual","group.x","practice","X.y","participant.y","OvsN","PE_level","object_cat","scn_file.y","corr_scn_cat","corr_scn_inst","scn_file.1","corr_loc","key_resp_id.keys","key_resp_id.rt","key_resp_conf.keys","key_resp_assoc.keys","key_resp_assoc.rt","key_resp_loc.keys","key_resp_loc.rt","trialN.y","id_acc","assoc.acc","cond_assoc","loc.acc","cond_loc","group.y"
"186","stim/objects/Instruments/tambourine2.png",1,68,1,0.1,"stim/53.jpeg",5,3,3,NA,"Instruments",1,4,"left","",NA,0,0,0,1,NA,NA,NA,NA,NA,NA,NA,NA,NA,NA,NA,NA,NA,NA,NA,NA,NA,NA,NA,NA,NA,NA,NA,NA
"38","stim/objects/HouseObjects/safetypin2.png",2,68,2,0.9,"stim/51.jpeg",5,1,3,NA,"HouseObjects",2,4,"right","left",0.394999743,0,0,0,1,NA,NA,NA,NA,NA,NA,NA,NA,NA,NA,NA,NA,NA,NA,NA,NA,NA,NA,NA,NA,NA,NA,NA,NA
"196","stim/objects/Instruments/triangle2.png",3,68,3,0.9,"stim/61.jpeg",6,1,3,NA,"Instruments",1,2,"left","right",0.524999857,0,0,0,1,NA,NA,NA,NA,NA,NA,NA,NA,NA,NA,NA,NA,NA,NA,NA,NA,NA,NA,NA,NA,NA,NA,NA,NA
"220","stim/objects/Instruments/trumpet2.png",4,68,4,0.9,"stim/63.jpeg",6,3,3,NA,"Instruments",1,3,"left","left",0.340999842,1,1,0,1,NA,NA,NA,NA,NA,NA,NA,NA,NA,NA,NA,NA,NA,NA,NA,NA,NA,NA,NA,NA,NA,NA,NA,NA
"175","stim/objects/Instruments/speaker.png",5,68,5,0.5,"stim/22.jpeg",2,2,1,NA,"Instruments",1,1,"left","right",0.395999908,0,0,0,1,NA,NA,NA,NA,NA,NA,NA,NA,NA,NA,NA,NA,NA,NA,NA,NA,NA,NA,NA,NA,NA,NA,NA,NA
"9","stim/objects/HouseObjects/remote.png",6,68,6,0.5,"stim/12.jpeg",1,2,1,NA,"HouseObjects",2,1,"right","left",0.386999846,0,0,0,1,NA,NA,NA,NA,NA,NA,NA,NA,NA,NA,NA,NA,NA,NA,NA,NA,NA,NA,NA,NA,NA,NA,NA,NA
"176","stim/objects/Instruments/speaker.png",7,68,7,0.5,"stim/22.jpeg",2,2,1,NA,"Instruments",1,4,"left","right",0.342999935,0,0,0,1,NA,NA,NA,NA,NA,NA,NA,NA,NA,NA,NA,NA,NA,NA,NA,NA,NA,NA,NA,NA,NA,NA,NA,NA
"177","stim/objects/Instruments/speaker.png",8,68,8,0.5,"stim/22.jpeg",2,2,1,NA,"Instruments",1,4,"left","left",0.314999819,1,1,0,1,NA,NA,NA,NA,NA,NA,NA,NA,NA,NA,NA,NA,NA,NA,NA,NA,NA,NA,NA,NA,NA,NA,NA,NA
"208","stim/objects/Instruments/trombone2.png",9,68,9,0.9,"stim/62.jpeg",6,2,3,NA,"Instruments",1,1,"left","left",0.39199996,1,1,0,1,NA,NA,NA,NA,NA,NA,NA,NA,NA,NA,NA,NA,NA,NA,NA,NA,NA,NA,NA,NA,NA,NA,NA,NA
"150","stim/objects/Instruments/record_player2.png",10,68,10,0.7,"stim/44.jpeg",4,4,2,NA,"Instruments",1,4,"left","right",0.454999924,0,0,0,1,NA,NA,NA,NA,NA,NA,NA,NA,NA,NA,NA,NA,NA,NA,NA,NA,NA,NA,NA,NA,NA,NA,NA,NA
"126","stim/objects/Instruments/panflute2.png",11,68,11,0.7,"stim/41.jpeg",4,1,2,NA,"Instruments",1,2,"left","right",0.322999954,0,0,0,1,NA,NA,NA,NA,NA,NA,NA,NA,NA,NA,NA,NA,NA,NA,NA,NA,NA,NA,NA,NA,NA,NA,NA,NA
"127","stim/objects/Instruments/panflute2.png",12,68,12,0.7,"stim/41.jpeg",4,1,2,NA,"Instruments",1,2,"left","left",0.516000032,1,1,0,1,NA,NA,NA,NA,NA,NA,NA,NA,NA,NA,NA,NA,NA,NA,NA,NA,NA,NA,NA,NA,NA,NA,NA,NA
"151","stim/objects/Instruments/record_player2.png",13,68,13,0.7,"stim/44.jpeg",4,4,2,NA,"Instruments",1,1,"left","left",0.480999947,1,1,0,1,NA,NA,NA,NA,NA,NA,NA,NA,NA,NA,NA,NA,NA,NA,NA,NA,NA,NA,NA,NA,NA,NA,NA,NA
"89","stim/objects/HouseObjects/spraybottle.png",14,68,14,0.7,"stim/31.jpeg",3,1,2,NA,"HouseObjects",2,3,"right","left",0.390999794,0,0,0,1,NA,NA,NA,NA,NA,NA,NA,NA,NA,NA,NA,NA,NA,NA,NA,NA,NA,NA,NA,NA,NA,NA,NA,NA
"105","stim/objects/HouseObjects/thermometer.png",15,68,15,0.7,"stim/33.jpeg",3,3,2,NA,"HouseObjects",2,4,"right","",NA,0,0,0,1,NA,NA,NA,NA,NA,NA,NA,NA,NA,NA,NA,NA,NA,NA,NA,NA,NA,NA,NA,NA,NA,NA,NA,NA
"30","stim/objects/HouseObjects/rug2.png",16,68,16,0.3,"stim/44.jpeg",4,4,2,NA,"HouseObjects",2,4,"right","right",0.455999851,1,1,0,1,NA,NA,NA,NA,NA,NA,NA,NA,NA,NA,NA,NA,NA,NA,NA,NA,NA,NA,NA,NA,NA,NA,NA,NA
"106","stim/objects/HouseObjects/thermometer.png",17,68,17,0.7,"stim/33.jpeg",3,3,2,NA,"HouseObjects",2,2,"right","right",0.355999708,1,1,0,1,NA,NA,NA,NA,NA,NA,NA,NA,NA,NA,NA,NA,NA,NA,NA,NA,NA,NA,NA,NA,NA,NA,NA,NA
"52","stim/objects/HouseObjects/saw2.png",18,68,18,0.9,"stim/52.jpeg",5,2,3,NA,"HouseObjects",2,1,"right","right",0.322999954,1,1,0,1,NA,NA,NA,NA,NA,NA,NA,NA,NA,NA,NA,NA,NA,NA,NA,NA,NA,NA,NA,NA,NA,NA,NA,NA
"157","stim/objects/Instruments/record.png",19,68,19,0.5,"stim/13.jpeg",1,3,1,NA,"Instruments",1,2,"left","right",0.440999985,0,0,0,1,NA,NA,NA,NA,NA,NA,NA,NA,NA,NA,NA,NA,NA,NA,NA,NA,NA,NA,NA,NA,NA,NA,NA,NA
"197","stim/objects/Instruments/triangle2.png",20,68,20,0.9,"stim/61.jpeg",6,1,3,NA,"Instruments",1,3,"left","left",0.355999947,1,1,0,1,NA,NA,NA,NA,NA,NA,NA,NA,NA,NA,NA,NA,NA,NA,NA,NA,NA,NA,NA,NA,NA,NA,NA,NA
"31","stim/objects/HouseObjects/rug2.png",21,68,21,0.3,"stim/44.jpeg",4,4,2,NA,"HouseObjects",2,2,"right","right",0.362999916,1,1,0,1,NA,NA,NA,NA,NA,NA,NA,NA,NA,NA,NA,NA,NA,NA,NA,NA,NA,NA,NA,NA,NA,NA,NA,NA
"90","stim/objects/HouseObjects/spraybottle.png",22,68,22,0.7,"stim/31.jpeg",3,1,2,NA,"HouseObjects",2,1,"right","left",0.348999739,0,0,0,1,NA,NA,NA,NA,NA,NA,NA,NA,NA,NA,NA,NA,NA,NA,NA,NA,NA,NA,NA,NA,NA,NA,NA,NA
"187","stim/objects/Instruments/timbal.png",23,68,23,0.5,"stim/24.jpeg",2,4,1,NA,"Instruments",1,1,"left","right",0.335000038,0,0,0,1,NA,NA,NA,NA,NA,NA,NA,NA,NA,NA,NA,NA,NA,NA,NA,NA,NA,NA,NA,NA,NA,NA,NA,NA
"169","stim/objects/Instruments/saxophone.png",24,68,24,0.5,"stim/21.jpeg",2,1,1,NA,"Instruments",1,3,"left","right",0.414999962,0,0,0,1,NA,NA,NA,NA,NA,NA,NA,NA,NA,NA,NA,NA,NA,NA,NA,NA,NA,NA,NA,NA,NA,NA,NA,NA
"152","stim/objects/Instruments/record_player2.png",25,68,25,0.7,"stim/44.jpeg",4,4,2,NA,"Instruments",1,2,"left","left",0.374999762,1,1,0,1,NA,NA,NA,NA,NA,NA,NA,NA,NA,NA,NA,NA,NA,NA,NA,NA,NA,NA,NA,NA,NA,NA,NA,NA
"66","stim/objects/HouseObjects/scale2.png",26,68,26,0.9,"stim/53.jpeg",5,3,3,NA,"HouseObjects",2,2,"right","right",0.287999868,1,1,0,1,NA,NA,NA,NA,NA,NA,NA,NA,NA,NA,NA,NA,NA,NA,NA,NA,NA,NA,NA,NA,NA,NA,NA,NA
"53","stim/objects/HouseObjects/saw2.png",27,68,27,0.9,"stim/52.jpeg",5,2,3,NA,"HouseObjects",2,3,"right","right",0.41899991,1,1,0,1,NA,NA,NA,NA,NA,NA,NA,NA,NA,NA,NA,NA,NA,NA,NA,NA,NA,NA,NA,NA,NA,NA,NA,NA
"170","stim/objects/Instruments/saxophone.png",28,68,28,0.5,"stim/21.jpeg",2,1,1,NA,"Instruments",1,4,"left","right",0.581999779,0,0,0,1,NA,NA,NA,NA,NA,NA,NA,NA,NA,NA,NA,NA,NA,NA,NA,NA,NA,NA,NA,NA,NA,NA,NA,NA
"1","stim/objects/HouseObjects/recyclingbin.png",29,68,29,0.5,"stim/11.jpeg",1,1,1,NA,"HouseObjects",2,2,"right","left",0.45600009,0,0,0,1,NA,NA,NA,NA,NA,NA,NA,NA,NA,NA,NA,NA,NA,NA,NA,NA,NA,NA,NA,NA,NA,NA,NA,NA
"232","stim/objects/Instruments/tuba2.png",30,68,30,0.9,"stim/64.jpeg",6,4,3,NA,"Instruments",1,3,"left","right",0.520999908,0,0,0,1,NA,NA,NA,NA,NA,NA,NA,NA,NA,NA,NA,NA,NA,NA,NA,NA,NA,NA,NA,NA,NA,NA,NA,NA
"133","stim/objects/Instruments/pipepiano.png",31,68,31,0.5,"stim/12.jpeg",1,2,1,NA,"Instruments",1,4,"left","left",0.274999857,1,1,0,1,NA,NA,NA,NA,NA,NA,NA,NA,NA,NA,NA,NA,NA,NA,NA,NA,NA,NA,NA,NA,NA,NA,NA,NA
"229","stim/objects/Instruments/tuba.png",32,68,32,0.3,"stim/34.jpeg",3,4,2,NA,"Instruments",1,3,"left","right",0.232999802,0,0,0,1,NA,NA,NA,NA,NA,NA,NA,NA,NA,NA,NA,NA,NA,NA,NA,NA,NA,NA,NA,NA,NA,NA,NA,NA
"54","stim/objects/HouseObjects/saw2.png",33,68,33,0.9,"stim/52.jpeg",5,2,3,NA,"HouseObjects",2,2,"right","left",0.401000023,0,0,0,1,NA,NA,NA,NA,NA,NA,NA,NA,NA,NA,NA,NA,NA,NA,NA,NA,NA,NA,NA,NA,NA,NA,NA,NA
"80","stim/objects/HouseObjects/sponge2.png",34,68,34,0.9,"stim/54.jpeg",5,4,3,NA,"HouseObjects",2,1,"right","",NA,0,0,0,1,NA,NA,NA,NA,NA,NA,NA,NA,NA,NA,NA,NA,NA,NA,NA,NA,NA,NA,NA,NA,NA,NA,NA,NA
"162","stim/objects/Instruments/record2.png",35,68,35,0.7,"stim/43.jpeg",4,3,2,NA,"Instruments",1,1,"left","right",0.112999916,0,0,0,1,NA,NA,NA,NA,NA,NA,NA,NA,NA,NA,NA,NA,NA,NA,NA,NA,NA,NA,NA,NA,NA,NA,NA,NA
"39","stim/objects/HouseObjects/safetypin2.png",36,68,36,0.9,"stim/51.jpeg",5,1,3,NA,"HouseObjects",2,1,"right","left",0.302000046,0,0,0,1,NA,NA,NA,NA,NA,NA,NA,NA,NA,NA,NA,NA,NA,NA,NA,NA,NA,NA,NA,NA,NA,NA,NA,NA
"145","stim/objects/Instruments/record_player.png",37,68,37,0.5,"stim/14.jpeg",1,4,1,NA,"Instruments",1,4,"left","right",0.307999849,0,0,0,1,NA,NA,NA,NA,NA,NA,NA,NA,NA,NA,NA,NA,NA,NA,NA,NA,NA,NA,NA,NA,NA,NA,NA,NA
"205","stim/objects/Instruments/trombone.png",38,68,38,0.3,"stim/32.jpeg",3,2,2,NA,"Instruments",1,3,"left","left",0.460999727,1,1,0,1,NA,NA,NA,NA,NA,NA,NA,NA,NA,NA,NA,NA,NA,NA,NA,NA,NA,NA,NA,NA,NA,NA,NA,NA
"128","stim/objects/Instruments/panflute2.png",39,68,39,0.7,"stim/41.jpeg",4,1,2,NA,"Instruments",1,3,"left","left",0.287999868,1,1,0,1,NA,NA,NA,NA,NA,NA,NA,NA,NA,NA,NA,NA,NA,NA,NA,NA,NA,NA,NA,NA,NA,NA,NA,NA
"40","stim/objects/HouseObjects/safetypin2.png",40,68,40,0.9,"stim/51.jpeg",5,1,3,NA,"HouseObjects",2,3,"right","left",0.40899992,0,0,0,1,NA,NA,NA,NA,NA,NA,NA,NA,NA,NA,NA,NA,NA,NA,NA,NA,NA,NA,NA,NA,NA,NA,NA,NA
"121","stim/objects/Instruments/panflute.png",41,68,41,0.5,"stim/11.jpeg",1,1,1,NA,"Instruments",1,1,"left","",NA,0,0,0,1,NA,NA,NA,NA,NA,NA,NA,NA,NA,NA,NA,NA,NA,NA,NA,NA,NA,NA,NA,NA,NA,NA,NA,NA
"120","stim/objects/HouseObjects/thread2.png",42,68,42,0.1,"stim/64.jpeg",6,4,3,NA,"HouseObjects",2,4,"right","right",0.625999928,1,1,0,1,NA,NA,NA,NA,NA,NA,NA,NA,NA,NA,NA,NA,NA,NA,NA,NA,NA,NA,NA,NA,NA,NA,NA,NA
"67","stim/objects/HouseObjects/scale2.png",43,68,43,0.9,"stim/53.jpeg",5,3,3,NA,"HouseObjects",2,1,"right","right",0.433999777,1,1,0,1,NA,NA,NA,NA,NA,NA,NA,NA,NA,NA,NA,NA,NA,NA,NA,NA,NA,NA,NA,NA,NA,NA,NA,NA
"41","stim/objects/HouseObjects/safetypin2.png",44,68,44,0.9,"stim/51.jpeg",5,1,3,NA,"HouseObjects",2,1,"right","right",0.02699995,1,1,0,1,NA,NA,NA,NA,NA,NA,NA,NA,NA,NA,NA,NA,NA,NA,NA,NA,NA,NA,NA,NA,NA,NA,NA,NA
"81","stim/objects/HouseObjects/sponge2.png",45,68,45,0.9,"stim/54.jpeg",5,4,3,NA,"HouseObjects",2,4,"right","right",0.407999992,1,1,0,1,NA,NA,NA,NA,NA,NA,NA,NA,NA,NA,NA,NA,NA,NA,NA,NA,NA,NA,NA,NA,NA,NA,NA,NA
"193","stim/objects/Instruments/triangle.png",46,68,46,0.3,"stim/31.jpeg",3,1,2,NA,"Instruments",1,2,"left","right",0.316999912,0,0,0,1,NA,NA,NA,NA,NA,NA,NA,NA,NA,NA,NA,NA,NA,NA,NA,NA,NA,NA,NA,NA,NA,NA,NA,NA
"10","stim/objects/HouseObjects/remote.png",47,68,47,0.5,"stim/12.jpeg",1,2,1,NA,"HouseObjects",2,2,"right","right",0.430999756,1,1,0,1,NA,NA,NA,NA,NA,NA,NA,NA,NA,NA,NA,NA,NA,NA,NA,NA,NA,NA,NA,NA,NA,NA,NA,NA
"221","stim/objects/Instruments/trumpet2.png",48,68,48,0.9,"stim/63.jpeg",6,3,3,NA,"Instruments",1,3,"left","left",0.580999851,1,1,0,1,NA,NA,NA,NA,NA,NA,NA,NA,NA,NA,NA,NA,NA,NA,NA,NA,NA,NA,NA,NA,NA,NA,NA,NA
"33","stim/objects/HouseObjects/safetypin.png",49,68,49,0.5,"stim/21.jpeg",2,1,1,NA,"HouseObjects",2,4,"right","right",0.38499999,1,1,0,1,NA,NA,NA,NA,NA,NA,NA,NA,NA,NA,NA,NA,NA,NA,NA,NA,NA,NA,NA,NA,NA,NA,NA,NA
"146","stim/objects/Instruments/record_player.png",50,68,50,0.5,"stim/14.jpeg",1,4,1,NA,"Instruments",1,4,"left","right",0.443999767,0,0,0,1,NA,NA,NA,NA,NA,NA,NA,NA,NA,NA,NA,NA,NA,NA,NA,NA,NA,NA,NA,NA,NA,NA,NA,NA
"158","stim/objects/Instruments/record.png",51,68,51,0.5,"stim/13.jpeg",1,3,1,NA,"Instruments",1,3,"left","left",0.434999943,1,1,0,1,NA,NA,NA,NA,NA,NA,NA,NA,NA,NA,NA,NA,NA,NA,NA,NA,NA,NA,NA,NA,NA,NA,NA,NA
"222","stim/objects/Instruments/trumpet2.png",52,68,52,0.9,"stim/63.jpeg",6,3,3,NA,"Instruments",1,2,"left","left",0.404999971,1,1,0,1,NA,NA,NA,NA,NA,NA,NA,NA,NA,NA,NA,NA,NA,NA,NA,NA,NA,NA,NA,NA,NA,NA,NA,NA
"34","stim/objects/HouseObjects/safetypin.png",53,68,53,0.5,"stim/21.jpeg",2,1,1,NA,"HouseObjects",2,4,"right","right",0.243000031,1,1,0,1,NA,NA,NA,NA,NA,NA,NA,NA,NA,NA,NA,NA,NA,NA,NA,NA,NA,NA,NA,NA,NA,NA,NA,NA
"107","stim/objects/HouseObjects/thermometer.png",54,68,54,0.7,"stim/33.jpeg",3,3,2,NA,"HouseObjects",2,4,"right","left",0.306999922,0,0,0,1,NA,NA,NA,NA,NA,NA,NA,NA,NA,NA,NA,NA,NA,NA,NA,NA,NA,NA,NA,NA,NA,NA,NA,NA
"11","stim/objects/HouseObjects/remote.png",55,68,55,0.5,"stim/12.jpeg",1,2,1,NA,"HouseObjects",2,2,"right","right",0.259000063,1,1,0,1,NA,NA,NA,NA,NA,NA,NA,NA,NA,NA,NA,NA,NA,NA,NA,NA,NA,NA,NA,NA,NA,NA,NA,NA
"25","stim/objects/HouseObjects/rug.png",56,68,56,0.5,"stim/14.jpeg",1,4,1,NA,"HouseObjects",2,4,"right","left",0.210999966,0,0,0,1,NA,NA,NA,NA,NA,NA,NA,NA,NA,NA,NA,NA,NA,NA,NA,NA,NA,NA,NA,NA,NA,NA,NA,NA
"97","stim/objects/HouseObjects/teapot.png",57,68,57,0.7,"stim/32.jpeg",3,2,2,NA,"HouseObjects",2,3,"right","right",0.219000101,1,1,0,1,NA,NA,NA,NA,NA,NA,NA,NA,NA,NA,NA,NA,NA,NA,NA,NA,NA,NA,NA,NA,NA,NA,NA,NA
"91","stim/objects/HouseObjects/spraybottle.png",58,68,58,0.7,"stim/31.jpeg",3,1,2,NA,"HouseObjects",2,4,"right","right",0.263999939,1,1,0,1,NA,NA,NA,NA,NA,NA,NA,NA,NA,NA,NA,NA,NA,NA,NA,NA,NA,NA,NA,NA,NA,NA,NA,NA
"6","stim/objects/HouseObjects/recyclingbin2.png",59,68,59,0.3,"stim/41.jpeg",4,1,2,NA,"HouseObjects",2,4,"right","right",0.291999817,1,1,0,1,NA,NA,NA,NA,NA,NA,NA,NA,NA,NA,NA,NA,NA,NA,NA,NA,NA,NA,NA,NA,NA,NA,NA,NA
"113","stim/objects/HouseObjects/thread.png",60,68,60,0.7,"stim/34.jpeg",3,4,2,NA,"HouseObjects",2,4,"right","right",0.394999743,1,1,0,1,NA,NA,NA,NA,NA,NA,NA,NA,NA,NA,NA,NA,NA,NA,NA,NA,NA,NA,NA,NA,NA,NA,NA,NA
"108","stim/objects/HouseObjects/thermometer.png",61,68,61,0.7,"stim/33.jpeg",3,3,2,NA,"HouseObjects",2,2,"right","right",0.326999903,1,1,0,1,NA,NA,NA,NA,NA,NA,NA,NA,NA,NA,NA,NA,NA,NA,NA,NA,NA,NA,NA,NA,NA,NA,NA,NA
"209","stim/objects/Instruments/trombone2.png",62,68,62,0.9,"stim/62.jpeg",6,2,3,NA,"Instruments",1,1,"left","right",0.156000137,0,0,0,1,NA,NA,NA,NA,NA,NA,NA,NA,NA,NA,NA,NA,NA,NA,NA,NA,NA,NA,NA,NA,NA,NA,NA,NA
"55","stim/objects/HouseObjects/saw2.png",63,68,63,0.9,"stim/52.jpeg",5,2,3,NA,"HouseObjects",2,2,"right","left",0.479999781,0,0,0,1,NA,NA,NA,NA,NA,NA,NA,NA,NA,NA,NA,NA,NA,NA,NA,NA,NA,NA,NA,NA,NA,NA,NA,NA
"42","stim/objects/HouseObjects/safetypin2.png",64,68,64,0.9,"stim/51.jpeg",5,1,3,NA,"HouseObjects",2,2,"right","right",0.222999811,1,1,0,1,NA,NA,NA,NA,NA,NA,NA,NA,NA,NA,NA,NA,NA,NA,NA,NA,NA,NA,NA,NA,NA,NA,NA,NA
"17","stim/objects/HouseObjects/rubbergloves.png",65,68,65,0.5,"stim/13.jpeg",1,3,1,NA,"HouseObjects",2,1,"right","left",0.255999804,0,0,0,1,NA,NA,NA,NA,NA,NA,NA,NA,NA,NA,NA,NA,NA,NA,NA,NA,NA,NA,NA,NA,NA,NA,NA,NA
"14","stim/objects/HouseObjects/remote2.png",66,68,66,0.3,"stim/42.jpeg",4,2,2,NA,"HouseObjects",2,3,"right","right",0.475999832,1,1,0,1,NA,NA,NA,NA,NA,NA,NA,NA,NA,NA,NA,NA,NA,NA,NA,NA,NA,NA,NA,NA,NA,NA,NA,NA
"223","stim/objects/Instruments/trumpet2.png",67,68,67,0.9,"stim/63.jpeg",6,3,3,NA,"Instruments",1,3,"left","right",0.294999838,0,0,0,1,NA,NA,NA,NA,NA,NA,NA,NA,NA,NA,NA,NA,NA,NA,NA,NA,NA,NA,NA,NA,NA,NA,NA,NA
"92","stim/objects/HouseObjects/spraybottle.png",68,68,68,0.7,"stim/31.jpeg",3,1,2,NA,"HouseObjects",2,2,"right","left",0.36500001,0,0,0,1,NA,NA,NA,NA,NA,NA,NA,NA,NA,NA,NA,NA,NA,NA,NA,NA,NA,NA,NA,NA,NA,NA,NA,NA
"18","stim/objects/HouseObjects/rubbergloves.png",69,68,69,0.5,"stim/13.jpeg",1,3,1,NA,"HouseObjects",2,4,"right","right",0.200999975,1,1,0,1,NA,NA,NA,NA,NA,NA,NA,NA,NA,NA,NA,NA,NA,NA,NA,NA,NA,NA,NA,NA,NA,NA,NA,NA
"138","stim/objects/Instruments/pipepiano2.png",70,68,70,0.7,"stim/42.jpeg",4,2,2,NA,"Instruments",1,3,"left","left",0.223999739,1,1,0,1,NA,NA,NA,NA,NA,NA,NA,NA,NA,NA,NA,NA,NA,NA,NA,NA,NA,NA,NA,NA,NA,NA,NA,NA
"181","stim/objects/Instruments/tambourine.png",71,68,71,0.5,"stim/23.jpeg",2,3,1,NA,"Instruments",1,4,"left","right",0.488999844,0,0,0,1,NA,NA,NA,NA,NA,NA,NA,NA,NA,NA,NA,NA,NA,NA,NA,NA,NA,NA,NA,NA,NA,NA,NA,NA
"153","stim/objects/Instruments/record_player2.png",72,68,72,0.7,"stim/44.jpeg",4,4,2,NA,"Instruments",1,1,"left","right",0.712999821,0,0,0,1,NA,NA,NA,NA,NA,NA,NA,NA,NA,NA,NA,NA,NA,NA,NA,NA,NA,NA,NA,NA,NA,NA,NA,NA
"217","stim/objects/Instruments/trumpet.png",73,68,73,0.3,"stim/33.jpeg",3,3,2,NA,"Instruments",1,3,"left","",NA,0,0,0,1,NA,NA,NA,NA,NA,NA,NA,NA,NA,NA,NA,NA,NA,NA,NA,NA,NA,NA,NA,NA,NA,NA,NA,NA
"114","stim/objects/HouseObjects/thread.png",74,68,74,0.7,"stim/34.jpeg",3,4,2,NA,"HouseObjects",2,4,"right","right",0.373000145,1,1,0,1,NA,NA,NA,NA,NA,NA,NA,NA,NA,NA,NA,NA,NA,NA,NA,NA,NA,NA,NA,NA,NA,NA,NA,NA
"22","stim/objects/HouseObjects/rubbergloves2.png",75,68,75,0.3,"stim/43.jpeg",4,3,2,NA,"HouseObjects",2,4,"right","right",0.470999956,1,1,0,1,NA,NA,NA,NA,NA,NA,NA,NA,NA,NA,NA,NA,NA,NA,NA,NA,NA,NA,NA,NA,NA,NA,NA,NA
"210","stim/objects/Instruments/trombone2.png",76,68,76,0.9,"stim/62.jpeg",6,2,3,NA,"Instruments",1,4,"left","right",0.463999987,0,0,0,1,NA,NA,NA,NA,NA,NA,NA,NA,NA,NA,NA,NA,NA,NA,NA,NA,NA,NA,NA,NA,NA,NA,NA,NA
"56","stim/objects/HouseObjects/saw2.png",77,68,77,0.9,"stim/52.jpeg",5,2,3,NA,"HouseObjects",2,4,"right","right",0.487999916,1,1,0,1,NA,NA,NA,NA,NA,NA,NA,NA,NA,NA,NA,NA,NA,NA,NA,NA,NA,NA,NA,NA,NA,NA,NA,NA
"61","stim/objects/HouseObjects/scale.png",78,68,78,0.5,"stim/23.jpeg",2,3,1,NA,"HouseObjects",2,1,"right","left",0.57799983,0,0,0,1,NA,NA,NA,NA,NA,NA,NA,NA,NA,NA,NA,NA,NA,NA,NA,NA,NA,NA,NA,NA,NA,NA,NA,NA
"122","stim/objects/Instruments/panflute.png",79,68,79,0.5,"stim/11.jpeg",1,1,1,NA,"Instruments",1,4,"left","right",0.575999737,0,0,0,1,NA,NA,NA,NA,NA,NA,NA,NA,NA,NA,NA,NA,NA,NA,NA,NA,NA,NA,NA,NA,NA,NA,NA,NA
"82","stim/objects/HouseObjects/sponge2.png",80,68,80,0.9,"stim/54.jpeg",5,4,3,NA,"HouseObjects",2,3,"right","left",0.356999874,0,0,0,1,NA,NA,NA,NA,NA,NA,NA,NA,NA,NA,NA,NA,NA,NA,NA,NA,NA,NA,NA,NA,NA,NA,NA,NA
"154","stim/objects/Instruments/record_player2.png",81,68,81,0.7,"stim/44.jpeg",4,4,2,NA,"Instruments",1,1,"left","right",0.247999907,0,0,0,1,NA,NA,NA,NA,NA,NA,NA,NA,NA,NA,NA,NA,NA,NA,NA,NA,NA,NA,NA,NA,NA,NA,NA,NA
"224","stim/objects/Instruments/trumpet2.png",82,68,82,0.9,"stim/63.jpeg",6,3,3,NA,"Instruments",1,2,"left","right",0.545000076,0,0,0,1,NA,NA,NA,NA,NA,NA,NA,NA,NA,NA,NA,NA,NA,NA,NA,NA,NA,NA,NA,NA,NA,NA,NA,NA
"230","stim/objects/Instruments/tuba.png",83,68,83,0.3,"stim/34.jpeg",3,4,2,NA,"Instruments",1,3,"left","right",0.748999834,0,0,0,1,NA,NA,NA,NA,NA,NA,NA,NA,NA,NA,NA,NA,NA,NA,NA,NA,NA,NA,NA,NA,NA,NA,NA,NA
"194","stim/objects/Instruments/triangle.png",84,68,84,0.3,"stim/31.jpeg",3,1,2,NA,"Instruments",1,3,"left","left",0.799000025,1,1,0,1,NA,NA,NA,NA,NA,NA,NA,NA,NA,NA,NA,NA,NA,NA,NA,NA,NA,NA,NA,NA,NA,NA,NA,NA
"19","stim/objects/HouseObjects/rubbergloves.png",85,68,85,0.5,"stim/13.jpeg",1,3,1,NA,"HouseObjects",2,2,"right","left",0.86500001,0,0,0,1,NA,NA,NA,NA,NA,NA,NA,NA,NA,NA,NA,NA,NA,NA,NA,NA,NA,NA,NA,NA,NA,NA,NA,NA
"195","stim/objects/Instruments/triangle.png",86,68,86,0.3,"stim/31.jpeg",3,1,2,NA,"Instruments",1,2,"left","",NA,0,0,0,1,NA,NA,NA,NA,NA,NA,NA,NA,NA,NA,NA,NA,NA,NA,NA,NA,NA,NA,NA,NA,NA,NA,NA,NA
"32","stim/objects/HouseObjects/rug2.png",87,68,87,0.3,"stim/44.jpeg",4,4,2,NA,"HouseObjects",2,1,"right","right",0.360999823,1,1,0,1,NA,NA,NA,NA,NA,NA,NA,NA,NA,NA,NA,NA,NA,NA,NA,NA,NA,NA,NA,NA,NA,NA,NA,NA
"171","stim/objects/Instruments/saxophone.png",88,68,88,0.5,"stim/21.jpeg",2,1,1,NA,"Instruments",1,4,"left","right",0.326999903,0,0,0,1,NA,NA,NA,NA,NA,NA,NA,NA,NA,NA,NA,NA,NA,NA,NA,NA,NA,NA,NA,NA,NA,NA,NA,NA
"139","stim/objects/Instruments/pipepiano2.png",89,68,89,0.7,"stim/42.jpeg",4,2,2,NA,"Instruments",1,4,"left","left",0.387999773,1,1,0,1,NA,NA,NA,NA,NA,NA,NA,NA,NA,NA,NA,NA,NA,NA,NA,NA,NA,NA,NA,NA,NA,NA,NA,NA
"233","stim/objects/Instruments/tuba2.png",90,68,90,0.9,"stim/64.jpeg",6,4,3,NA,"Instruments",1,4,"left","right",0.345999956,0,0,0,1,NA,NA,NA,NA,NA,NA,NA,NA,NA,NA,NA,NA,NA,NA,NA,NA,NA,NA,NA,NA,NA,NA,NA,NA
"134","stim/objects/Instruments/pipepiano.png",91,68,91,0.5,"stim/12.jpeg",1,2,1,NA,"Instruments",1,4,"left","right",0.239999771,0,0,0,1,NA,NA,NA,NA,NA,NA,NA,NA,NA,NA,NA,NA,NA,NA,NA,NA,NA,NA,NA,NA,NA,NA,NA,NA
"109","stim/objects/HouseObjects/thermometer.png",92,68,92,0.7,"stim/33.jpeg",3,3,2,NA,"HouseObjects",2,1,"right","right",0.072000027,1,1,0,1,NA,NA,NA,NA,NA,NA,NA,NA,NA,NA,NA,NA,NA,NA,NA,NA,NA,NA,NA,NA,NA,NA,NA,NA
"147","stim/objects/Instruments/record_player.png",93,68,93,0.5,"stim/14.jpeg",1,4,1,NA,"Instruments",1,3,"left","right",0.465999842,0,0,0,1,NA,NA,NA,NA,NA,NA,NA,NA,NA,NA,NA,NA,NA,NA,NA,NA,NA,NA,NA,NA,NA,NA,NA,NA
"211","stim/objects/Instruments/trombone2.png",94,68,94,0.9,"stim/62.jpeg",6,2,3,NA,"Instruments",1,4,"left","right",0.001999855,0,0,0,1,NA,NA,NA,NA,NA,NA,NA,NA,NA,NA,NA,NA,NA,NA,NA,NA,NA,NA,NA,NA,NA,NA,NA,NA
"140","stim/objects/Instruments/pipepiano2.png",95,68,95,0.7,"stim/42.jpeg",4,2,2,NA,"Instruments",1,4,"left","left",0.336999893,1,1,0,1,NA,NA,NA,NA,NA,NA,NA,NA,NA,NA,NA,NA,NA,NA,NA,NA,NA,NA,NA,NA,NA,NA,NA,NA
"68","stim/objects/HouseObjects/scale2.png",96,68,96,0.9,"stim/53.jpeg",5,3,3,NA,"HouseObjects",2,3,"right","left",0.339999914,0,0,0,1,NA,NA,NA,NA,NA,NA,NA,NA,NA,NA,NA,NA,NA,NA,NA,NA,NA,NA,NA,NA,NA,NA,NA,NA
"12","stim/objects/HouseObjects/remote.png",97,68,97,0.5,"stim/12.jpeg",1,2,1,NA,"HouseObjects",2,2,"right","right",0.651999712,1,1,0,1,NA,NA,NA,NA,NA,NA,NA,NA,NA,NA,NA,NA,NA,NA,NA,NA,NA,NA,NA,NA,NA,NA,NA,NA
"206","stim/objects/Instruments/trombone.png",98,68,98,0.3,"stim/32.jpeg",3,2,2,NA,"Instruments",1,2,"left","right",0.5849998,0,0,0,1,NA,NA,NA,NA,NA,NA,NA,NA,NA,NA,NA,NA,NA,NA,NA,NA,NA,NA,NA,NA,NA,NA,NA,NA
"98","stim/objects/HouseObjects/teapot.png",99,68,99,0.7,"stim/32.jpeg",3,2,2,NA,"HouseObjects",2,4,"right","left",0.684000015,0,0,0,1,NA,NA,NA,NA,NA,NA,NA,NA,NA,NA,NA,NA,NA,NA,NA,NA,NA,NA,NA,NA,NA,NA,NA,NA
"75","stim/objects/HouseObjects/sponge.png",100,68,100,0.5,"stim/24.jpeg",2,4,1,NA,"HouseObjects",2,2,"right","",NA,0,0,0,1,NA,NA,NA,NA,NA,NA,NA,NA,NA,NA,NA,NA,NA,NA,NA,NA,NA,NA,NA,NA,NA,NA,NA,NA
"188","stim/objects/Instruments/timbal.png",101,68,101,0.5,"stim/24.jpeg",2,4,1,NA,"Instruments",1,2,"left","left",0.102999926,1,1,0,1,NA,NA,NA,NA,NA,NA,NA,NA,NA,NA,NA,NA,NA,NA,NA,NA,NA,NA,NA,NA,NA,NA,NA,NA
"2","stim/objects/HouseObjects/recyclingbin.png",102,68,102,0.5,"stim/11.jpeg",1,1,1,NA,"HouseObjects",2,2,"right","right",0.309999943,1,1,0,1,NA,NA,NA,NA,NA,NA,NA,NA,NA,NA,NA,NA,NA,NA,NA,NA,NA,NA,NA,NA,NA,NA,NA,NA
"218","stim/objects/Instruments/trumpet.png",103,68,103,0.3,"stim/33.jpeg",3,3,2,NA,"Instruments",1,1,"left","right",0.02699995,0,0,0,1,NA,NA,NA,NA,NA,NA,NA,NA,NA,NA,NA,NA,NA,NA,NA,NA,NA,NA,NA,NA,NA,NA,NA,NA
"182","stim/objects/Instruments/tambourine.png",104,68,104,0.5,"stim/23.jpeg",2,3,1,NA,"Instruments",1,4,"left","left",0.4599998,1,1,0,1,NA,NA,NA,NA,NA,NA,NA,NA,NA,NA,NA,NA,NA,NA,NA,NA,NA,NA,NA,NA,NA,NA,NA,NA
"141","stim/objects/Instruments/pipepiano2.png",105,68,105,0.7,"stim/42.jpeg",4,2,2,NA,"Instruments",1,3,"left","left",0.56799984,1,1,0,1,NA,NA,NA,NA,NA,NA,NA,NA,NA,NA,NA,NA,NA,NA,NA,NA,NA,NA,NA,NA,NA,NA,NA,NA
"234","stim/objects/Instruments/tuba2.png",106,68,106,0.9,"stim/64.jpeg",6,4,3,NA,"Instruments",1,3,"left","left",0.411000013,1,1,0,1,NA,NA,NA,NA,NA,NA,NA,NA,NA,NA,NA,NA,NA,NA,NA,NA,NA,NA,NA,NA,NA,NA,NA,NA
"198","stim/objects/Instruments/triangle2.png",107,68,107,0.9,"stim/61.jpeg",6,1,3,NA,"Instruments",1,4,"left","left",0.377999783,1,1,0,1,NA,NA,NA,NA,NA,NA,NA,NA,NA,NA,NA,NA,NA,NA,NA,NA,NA,NA,NA,NA,NA,NA,NA,NA
"83","stim/objects/HouseObjects/sponge2.png",108,68,108,0.9,"stim/54.jpeg",5,4,3,NA,"HouseObjects",2,2,"right","right",0.621999979,1,1,0,1,NA,NA,NA,NA,NA,NA,NA,NA,NA,NA,NA,NA,NA,NA,NA,NA,NA,NA,NA,NA,NA,NA,NA,NA
"159","stim/objects/Instruments/record.png",109,68,109,0.5,"stim/13.jpeg",1,3,1,NA,"Instruments",1,3,"left","left",0.413999796,1,1,0,1,NA,NA,NA,NA,NA,NA,NA,NA,NA,NA,NA,NA,NA,NA,NA,NA,NA,NA,NA,NA,NA,NA,NA,NA
"112","stim/objects/HouseObjects/thermometer2.png",110,68,110,0.1,"stim/63.jpeg",6,3,3,NA,"HouseObjects",2,4,"right","right",0.361999989,1,1,0,1,NA,NA,NA,NA,NA,NA,NA,NA,NA,NA,NA,NA,NA,NA,NA,NA,NA,NA,NA,NA,NA,NA,NA,NA
"225","stim/objects/Instruments/trumpet2.png",111,68,111,0.9,"stim/63.jpeg",6,3,3,NA,"Instruments",1,4,"left","left",0.292999983,1,1,0,1,NA,NA,NA,NA,NA,NA,NA,NA,NA,NA,NA,NA,NA,NA,NA,NA,NA,NA,NA,NA,NA,NA,NA,NA
"123","stim/objects/Instruments/panflute.png",112,68,112,0.5,"stim/11.jpeg",1,1,1,NA,"Instruments",1,1,"left","left",0.545000076,1,1,0,1,NA,NA,NA,NA,NA,NA,NA,NA,NA,NA,NA,NA,NA,NA,NA,NA,NA,NA,NA,NA,NA,NA,NA,NA
"189","stim/objects/Instruments/timbal.png",113,68,113,0.5,"stim/24.jpeg",2,4,1,NA,"Instruments",1,3,"left","left",0.697999954,1,1,0,1,NA,NA,NA,NA,NA,NA,NA,NA,NA,NA,NA,NA,NA,NA,NA,NA,NA,NA,NA,NA,NA,NA,NA,NA
"148","stim/objects/Instruments/record_player.png",114,68,114,0.5,"stim/14.jpeg",1,4,1,NA,"Instruments",1,1,"left","left",0.691999912,1,1,0,1,NA,NA,NA,NA,NA,NA,NA,NA,NA,NA,NA,NA,NA,NA,NA,NA,NA,NA,NA,NA,NA,NA,NA,NA
"76","stim/objects/HouseObjects/sponge.png",115,68,115,0.5,"stim/24.jpeg",2,4,1,NA,"HouseObjects",2,1,"right","",NA,0,0,0,1,NA,NA,NA,NA,NA,NA,NA,NA,NA,NA,NA,NA,NA,NA,NA,NA,NA,NA,NA,NA,NA,NA,NA,NA
"3","stim/objects/HouseObjects/recyclingbin.png",116,68,116,0.5,"stim/11.jpeg",1,1,1,NA,"HouseObjects",2,2,"right","right",0.805999994,1,1,0,1,NA,NA,NA,NA,NA,NA,NA,NA,NA,NA,NA,NA,NA,NA,NA,NA,NA,NA,NA,NA,NA,NA,NA,NA
"57","stim/objects/HouseObjects/saw2.png",117,68,117,0.9,"stim/52.jpeg",5,2,3,NA,"HouseObjects",2,3,"right","left",0.361999989,0,0,0,1,NA,NA,NA,NA,NA,NA,NA,NA,NA,NA,NA,NA,NA,NA,NA,NA,NA,NA,NA,NA,NA,NA,NA,NA
"212","stim/objects/Instruments/trombone2.png",118,68,118,0.9,"stim/62.jpeg",6,2,3,NA,"Instruments",1,1,"left","right",0.477999926,0,0,0,1,NA,NA,NA,NA,NA,NA,NA,NA,NA,NA,NA,NA,NA,NA,NA,NA,NA,NA,NA,NA,NA,NA,NA,NA
"155","stim/objects/Instruments/record_player2.png",119,68,119,0.7,"stim/44.jpeg",4,4,2,NA,"Instruments",1,1,"left","left",0.636999846,1,1,0,1,NA,NA,NA,NA,NA,NA,NA,NA,NA,NA,NA,NA,NA,NA,NA,NA,NA,NA,NA,NA,NA,NA,NA,NA
"7","stim/objects/HouseObjects/recyclingbin2.png",120,68,120,0.3,"stim/41.jpeg",4,1,2,NA,"HouseObjects",2,4,"right","left",0.618000031,0,0,0,1,NA,NA,NA,NA,NA,NA,NA,NA,NA,NA,NA,NA,NA,NA,NA,NA,NA,NA,NA,NA,NA,NA,NA,NA
"43","stim/objects/HouseObjects/safetypin2.png",121,68,121,0.9,"stim/51.jpeg",5,1,3,NA,"HouseObjects",2,2,"right","right",0.615999937,1,1,0,1,NA,NA,NA,NA,NA,NA,NA,NA,NA,NA,NA,NA,NA,NA,NA,NA,NA,NA,NA,NA,NA,NA,NA,NA
"192","stim/objects/Instruments/timbal2.png",122,68,122,0.1,"stim/54.jpeg",5,4,3,NA,"Instruments",1,1,"left","right",0.710999966,0,0,0,1,NA,NA,NA,NA,NA,NA,NA,NA,NA,NA,NA,NA,NA,NA,NA,NA,NA,NA,NA,NA,NA,NA,NA,NA
"235","stim/objects/Instruments/tuba2.png",123,68,123,0.9,"stim/64.jpeg",6,4,3,NA,"Instruments",1,1,"left","left",0.605000019,1,1,0,1,NA,NA,NA,NA,NA,NA,NA,NA,NA,NA,NA,NA,NA,NA,NA,NA,NA,NA,NA,NA,NA,NA,NA,NA
"135","stim/objects/Instruments/pipepiano.png",124,68,124,0.5,"stim/12.jpeg",1,2,1,NA,"Instruments",1,1,"left","left",0.363999844,1,1,0,1,NA,NA,NA,NA,NA,NA,NA,NA,NA,NA,NA,NA,NA,NA,NA,NA,NA,NA,NA,NA,NA,NA,NA,NA
"20","stim/objects/HouseObjects/rubbergloves.png",125,68,125,0.5,"stim/13.jpeg",1,3,1,NA,"HouseObjects",2,3,"right","left",0.325999975,0,0,0,1,NA,NA,NA,NA,NA,NA,NA,NA,NA,NA,NA,NA,NA,NA,NA,NA,NA,NA,NA,NA,NA,NA,NA,NA
"190","stim/objects/Instruments/timbal.png",126,68,126,0.5,"stim/24.jpeg",2,4,1,NA,"Instruments",1,3,"left","right",0.249999762,0,0,0,1,NA,NA,NA,NA,NA,NA,NA,NA,NA,NA,NA,NA,NA,NA,NA,NA,NA,NA,NA,NA,NA,NA,NA,NA
"69","stim/objects/HouseObjects/scale2.png",127,68,127,0.9,"stim/53.jpeg",5,3,3,NA,"HouseObjects",2,2,"right","left",0.369999886,0,0,0,1,NA,NA,NA,NA,NA,NA,NA,NA,NA,NA,NA,NA,NA,NA,NA,NA,NA,NA,NA,NA,NA,NA,NA,NA
"199","stim/objects/Instruments/triangle2.png",128,68,128,0.9,"stim/61.jpeg",6,1,3,NA,"Instruments",1,4,"left","right",0.26699996,0,0,0,1,NA,NA,NA,NA,NA,NA,NA,NA,NA,NA,NA,NA,NA,NA,NA,NA,NA,NA,NA,NA,NA,NA,NA,NA
"226","stim/objects/Instruments/trumpet2.png",129,68,129,0.9,"stim/63.jpeg",6,3,3,NA,"Instruments",1,4,"left","left",0.367999792,1,1,0,1,NA,NA,NA,NA,NA,NA,NA,NA,NA,NA,NA,NA,NA,NA,NA,NA,NA,NA,NA,NA,NA,NA,NA,NA
"70","stim/objects/HouseObjects/scale2.png",130,68,130,0.9,"stim/53.jpeg",5,3,3,NA,"HouseObjects",2,2,"right","left",0.339999914,0,0,0,1,NA,NA,NA,NA,NA,NA,NA,NA,NA,NA,NA,NA,NA,NA,NA,NA,NA,NA,NA,NA,NA,NA,NA,NA
"183","stim/objects/Instruments/tambourine.png",131,68,131,0.5,"stim/23.jpeg",2,3,1,NA,"Instruments",1,3,"left","right",0.03399992,0,0,0,1,NA,NA,NA,NA,NA,NA,NA,NA,NA,NA,NA,NA,NA,NA,NA,NA,NA,NA,NA,NA,NA,NA,NA,NA
"96","stim/objects/HouseObjects/spraybottle2.png",132,68,132,0.1,"stim/61.jpeg",6,1,3,NA,"HouseObjects",2,2,"right","left",0.199999809,0,0,0,1,NA,NA,NA,NA,NA,NA,NA,NA,NA,NA,NA,NA,NA,NA,NA,NA,NA,NA,NA,NA,NA,NA,NA,NA
"163","stim/objects/Instruments/record2.png",133,68,133,0.7,"stim/43.jpeg",4,3,2,NA,"Instruments",1,3,"left","right",0.125,0,0,0,1,NA,NA,NA,NA,NA,NA,NA,NA,NA,NA,NA,NA,NA,NA,NA,NA,NA,NA,NA,NA,NA,NA,NA,NA
"62","stim/objects/HouseObjects/scale.png",134,68,134,0.5,"stim/23.jpeg",2,3,1,NA,"HouseObjects",2,2,"right","left",0.337000132,0,0,0,1,NA,NA,NA,NA,NA,NA,NA,NA,NA,NA,NA,NA,NA,NA,NA,NA,NA,NA,NA,NA,NA,NA,NA,NA
"110","stim/objects/HouseObjects/thermometer.png",135,68,135,0.7,"stim/33.jpeg",3,3,2,NA,"HouseObjects",2,1,"right","right",0.000999928,1,1,0,1,NA,NA,NA,NA,NA,NA,NA,NA,NA,NA,NA,NA,NA,NA,NA,NA,NA,NA,NA,NA,NA,NA,NA,NA
"84","stim/objects/HouseObjects/sponge2.png",136,68,136,0.9,"stim/54.jpeg",5,4,3,NA,"HouseObjects",2,4,"right","right",0.399999857,1,1,0,1,NA,NA,NA,NA,NA,NA,NA,NA,NA,NA,NA,NA,NA,NA,NA,NA,NA,NA,NA,NA,NA,NA,NA,NA
"47","stim/objects/HouseObjects/saw.png",137,68,137,0.5,"stim/22.jpeg",2,2,1,NA,"HouseObjects",2,1,"right","right",0.269999981,1,1,0,1,NA,NA,NA,NA,NA,NA,NA,NA,NA,NA,NA,NA,NA,NA,NA,NA,NA,NA,NA,NA,NA,NA,NA,NA
"63","stim/objects/HouseObjects/scale.png",138,68,138,0.5,"stim/23.jpeg",2,3,1,NA,"HouseObjects",2,3,"right","left",0.464999914,0,0,0,1,NA,NA,NA,NA,NA,NA,NA,NA,NA,NA,NA,NA,NA,NA,NA,NA,NA,NA,NA,NA,NA,NA,NA,NA
"200","stim/objects/Instruments/triangle2.png",139,68,139,0.9,"stim/61.jpeg",6,1,3,NA,"Instruments",1,2,"left","right",0.440999746,0,0,0,1,NA,NA,NA,NA,NA,NA,NA,NA,NA,NA,NA,NA,NA,NA,NA,NA,NA,NA,NA,NA,NA,NA,NA,NA
"164","stim/objects/Instruments/record2.png",140,68,140,0.7,"stim/43.jpeg",4,3,2,NA,"Instruments",1,2,"left","left",0.26699996,1,1,0,1,NA,NA,NA,NA,NA,NA,NA,NA,NA,NA,NA,NA,NA,NA,NA,NA,NA,NA,NA,NA,NA,NA,NA,NA
"44","stim/objects/HouseObjects/safetypin2.png",141,68,141,0.9,"stim/51.jpeg",5,1,3,NA,"HouseObjects",2,3,"right","left",0.35199976,0,0,0,1,NA,NA,NA,NA,NA,NA,NA,NA,NA,NA,NA,NA,NA,NA,NA,NA,NA,NA,NA,NA,NA,NA,NA,NA
"180","stim/objects/Instruments/speaker2.png",142,68,142,0.1,"stim/52.jpeg",5,2,3,NA,"Instruments",1,3,"left","right",0.011999846,0,0,0,1,NA,NA,NA,NA,NA,NA,NA,NA,NA,NA,NA,NA,NA,NA,NA,NA,NA,NA,NA,NA,NA,NA,NA,NA
"236","stim/objects/Instruments/tuba2.png",143,68,143,0.9,"stim/64.jpeg",6,4,3,NA,"Instruments",1,3,"left","right",0.137000084,0,0,0,1,NA,NA,NA,NA,NA,NA,NA,NA,NA,NA,NA,NA,NA,NA,NA,NA,NA,NA,NA,NA,NA,NA,NA,NA
"21","stim/objects/HouseObjects/rubbergloves.png",144,68,144,0.5,"stim/13.jpeg",1,3,1,NA,"HouseObjects",2,3,"right","left",0.170000076,0,0,0,1,NA,NA,NA,NA,NA,NA,NA,NA,NA,NA,NA,NA,NA,NA,NA,NA,NA,NA,NA,NA,NA,NA,NA,NA
"48","stim/objects/HouseObjects/saw.png",145,68,145,0.5,"stim/22.jpeg",2,2,1,NA,"HouseObjects",2,3,"right","right",0.29399991,1,1,0,1,NA,NA,NA,NA,NA,NA,NA,NA,NA,NA,NA,NA,NA,NA,NA,NA,NA,NA,NA,NA,NA,NA,NA,NA
"99","stim/objects/HouseObjects/teapot.png",146,68,146,0.7,"stim/32.jpeg",3,2,2,NA,"HouseObjects",2,4,"right","right",0.496999979,1,1,0,1,NA,NA,NA,NA,NA,NA,NA,NA,NA,NA,NA,NA,NA,NA,NA,NA,NA,NA,NA,NA,NA,NA,NA,NA
"71","stim/objects/HouseObjects/scale2.png",147,68,147,0.9,"stim/53.jpeg",5,3,3,NA,"HouseObjects",2,1,"right","left",0.508999825,0,0,0,1,NA,NA,NA,NA,NA,NA,NA,NA,NA,NA,NA,NA,NA,NA,NA,NA,NA,NA,NA,NA,NA,NA,NA,NA
"4","stim/objects/HouseObjects/recyclingbin.png",148,68,148,0.5,"stim/11.jpeg",1,1,1,NA,"HouseObjects",2,3,"right","right",0.796999931,1,1,0,1,NA,NA,NA,NA,NA,NA,NA,NA,NA,NA,NA,NA,NA,NA,NA,NA,NA,NA,NA,NA,NA,NA,NA,NA
"115","stim/objects/HouseObjects/thread.png",149,68,149,0.7,"stim/34.jpeg",3,4,2,NA,"HouseObjects",2,3,"right","right",0.467000008,1,1,0,1,NA,NA,NA,NA,NA,NA,NA,NA,NA,NA,NA,NA,NA,NA,NA,NA,NA,NA,NA,NA,NA,NA,NA,NA
"49","stim/objects/HouseObjects/saw.png",150,68,150,0.5,"stim/22.jpeg",2,2,1,NA,"HouseObjects",2,1,"right","left",0.40899992,0,0,0,1,NA,NA,NA,NA,NA,NA,NA,NA,NA,NA,NA,NA,NA,NA,NA,NA,NA,NA,NA,NA,NA,NA,NA,NA
"172","stim/objects/Instruments/saxophone.png",151,68,151,0.5,"stim/21.jpeg",2,1,1,NA,"Instruments",1,2,"left","right",0.351999998,0,0,0,1,NA,NA,NA,NA,NA,NA,NA,NA,NA,NA,NA,NA,NA,NA,NA,NA,NA,NA,NA,NA,NA,NA,NA,NA
"116","stim/objects/HouseObjects/thread.png",152,68,152,0.7,"stim/34.jpeg",3,4,2,NA,"HouseObjects",2,2,"right","left",0.441999912,0,0,0,1,NA,NA,NA,NA,NA,NA,NA,NA,NA,NA,NA,NA,NA,NA,NA,NA,NA,NA,NA,NA,NA,NA,NA,NA
"26","stim/objects/HouseObjects/rug.png",153,68,153,0.5,"stim/14.jpeg",1,4,1,NA,"HouseObjects",2,1,"right","left",0.575000048,0,0,0,1,NA,NA,NA,NA,NA,NA,NA,NA,NA,NA,NA,NA,NA,NA,NA,NA,NA,NA,NA,NA,NA,NA,NA,NA
"165","stim/objects/Instruments/record2.png",154,68,154,0.7,"stim/43.jpeg",4,3,2,NA,"Instruments",1,3,"left","right",0.641000032,0,0,0,1,NA,NA,NA,NA,NA,NA,NA,NA,NA,NA,NA,NA,NA,NA,NA,NA,NA,NA,NA,NA,NA,NA,NA,NA
"237","stim/objects/Instruments/tuba2.png",155,68,155,0.9,"stim/64.jpeg",6,4,3,NA,"Instruments",1,2,"left","left",0.393999815,1,1,0,1,NA,NA,NA,NA,NA,NA,NA,NA,NA,NA,NA,NA,NA,NA,NA,NA,NA,NA,NA,NA,NA,NA,NA,NA
"142","stim/objects/Instruments/pipepiano2.png",156,68,156,0.7,"stim/42.jpeg",4,2,2,NA,"Instruments",1,1,"left","left",0.35800004,1,1,0,1,NA,NA,NA,NA,NA,NA,NA,NA,NA,NA,NA,NA,NA,NA,NA,NA,NA,NA,NA,NA,NA,NA,NA,NA
"50","stim/objects/HouseObjects/saw.png",157,68,157,0.5,"stim/22.jpeg",2,2,1,NA,"HouseObjects",2,2,"right","left",0.706999779,0,0,0,1,NA,NA,NA,NA,NA,NA,NA,NA,NA,NA,NA,NA,NA,NA,NA,NA,NA,NA,NA,NA,NA,NA,NA,NA
"191","stim/objects/Instruments/timbal.png",158,68,158,0.5,"stim/24.jpeg",2,4,1,NA,"Instruments",1,4,"left","left",0.663999796,1,1,0,1,NA,NA,NA,NA,NA,NA,NA,NA,NA,NA,NA,NA,NA,NA,NA,NA,NA,NA,NA,NA,NA,NA,NA,NA
"64","stim/objects/HouseObjects/scale.png",159,68,159,0.5,"stim/23.jpeg",2,3,1,NA,"HouseObjects",2,4,"right","left",0.256999969,0,0,0,1,NA,NA,NA,NA,NA,NA,NA,NA,NA,NA,NA,NA,NA,NA,NA,NA,NA,NA,NA,NA,NA,NA,NA,NA
"129","stim/objects/Instruments/panflute2.png",160,68,160,0.7,"stim/41.jpeg",4,1,2,NA,"Instruments",1,1,"left","right",0.423999786,0,0,0,1,NA,NA,NA,NA,NA,NA,NA,NA,NA,NA,NA,NA,NA,NA,NA,NA,NA,NA,NA,NA,NA,NA,NA,NA
"219","stim/objects/Instruments/trumpet.png",161,68,161,0.3,"stim/33.jpeg",3,3,2,NA,"Instruments",1,4,"left","right",0.639999866,0,0,0,1,NA,NA,NA,NA,NA,NA,NA,NA,NA,NA,NA,NA,NA,NA,NA,NA,NA,NA,NA,NA,NA,NA,NA,NA
"117","stim/objects/HouseObjects/thread.png",162,68,162,0.7,"stim/34.jpeg",3,4,2,NA,"HouseObjects",2,3,"right","right",0.698999882,1,1,0,1,NA,NA,NA,NA,NA,NA,NA,NA,NA,NA,NA,NA,NA,NA,NA,NA,NA,NA,NA,NA,NA,NA,NA,NA
"201","stim/objects/Instruments/triangle2.png",163,68,163,0.9,"stim/61.jpeg",6,1,3,NA,"Instruments",1,3,"left","left",0.625999928,1,1,0,1,NA,NA,NA,NA,NA,NA,NA,NA,NA,NA,NA,NA,NA,NA,NA,NA,NA,NA,NA,NA,NA,NA,NA,NA
"27","stim/objects/HouseObjects/rug.png",164,68,164,0.5,"stim/14.jpeg",1,4,1,NA,"HouseObjects",2,2,"right","left",0.747999907,0,0,0,1,NA,NA,NA,NA,NA,NA,NA,NA,NA,NA,NA,NA,NA,NA,NA,NA,NA,NA,NA,NA,NA,NA,NA,NA
"130","stim/objects/Instruments/panflute2.png",165,68,165,0.7,"stim/41.jpeg",4,1,2,NA,"Instruments",1,2,"left","right",0.684999943,0,0,0,1,NA,NA,NA,NA,NA,NA,NA,NA,NA,NA,NA,NA,NA,NA,NA,NA,NA,NA,NA,NA,NA,NA,NA,NA
"184","stim/objects/Instruments/tambourine.png",166,68,166,0.5,"stim/23.jpeg",2,3,1,NA,"Instruments",1,1,"left","left",0.76699996,1,1,0,1,NA,NA,NA,NA,NA,NA,NA,NA,NA,NA,NA,NA,NA,NA,NA,NA,NA,NA,NA,NA,NA,NA,NA,NA
"149","stim/objects/Instruments/record_player.png",167,68,167,0.5,"stim/14.jpeg",1,4,1,NA,"Instruments",1,4,"left","left",0.822999954,1,1,0,1,NA,NA,NA,NA,NA,NA,NA,NA,NA,NA,NA,NA,NA,NA,NA,NA,NA,NA,NA,NA,NA,NA,NA,NA
"160","stim/objects/Instruments/record.png",168,68,168,0.5,"stim/13.jpeg",1,3,1,NA,"Instruments",1,1,"left","left",0.388000011,1,1,0,1,NA,NA,NA,NA,NA,NA,NA,NA,NA,NA,NA,NA,NA,NA,NA,NA,NA,NA,NA,NA,NA,NA,NA,NA
"35","stim/objects/HouseObjects/safetypin.png",169,68,169,0.5,"stim/21.jpeg",2,1,1,NA,"HouseObjects",2,3,"right","right",0.5849998,1,1,0,1,NA,NA,NA,NA,NA,NA,NA,NA,NA,NA,NA,NA,NA,NA,NA,NA,NA,NA,NA,NA,NA,NA,NA,NA
"131","stim/objects/Instruments/panflute2.png",170,68,170,0.7,"stim/41.jpeg",4,1,2,NA,"Instruments",1,1,"left","left",0.667000055,1,1,0,1,NA,NA,NA,NA,NA,NA,NA,NA,NA,NA,NA,NA,NA,NA,NA,NA,NA,NA,NA,NA,NA,NA,NA,NA
"58","stim/objects/HouseObjects/saw2.png",171,68,171,0.9,"stim/52.jpeg",5,2,3,NA,"HouseObjects",2,4,"right","right",0.674999952,1,1,0,1,NA,NA,NA,NA,NA,NA,NA,NA,NA,NA,NA,NA,NA,NA,NA,NA,NA,NA,NA,NA,NA,NA,NA,NA
"72","stim/objects/HouseObjects/scale2.png",172,68,172,0.9,"stim/53.jpeg",5,3,3,NA,"HouseObjects",2,1,"right","right",0.484999895,1,1,0,1,NA,NA,NA,NA,NA,NA,NA,NA,NA,NA,NA,NA,NA,NA,NA,NA,NA,NA,NA,NA,NA,NA,NA,NA
"100","stim/objects/HouseObjects/teapot.png",173,68,173,0.7,"stim/32.jpeg",3,2,2,NA,"HouseObjects",2,1,"right","",NA,0,0,0,1,NA,NA,NA,NA,NA,NA,NA,NA,NA,NA,NA,NA,NA,NA,NA,NA,NA,NA,NA,NA,NA,NA,NA,NA
"238","stim/objects/Instruments/tuba2.png",174,68,174,0.9,"stim/64.jpeg",6,4,3,NA,"Instruments",1,2,"left","left",0.714999914,1,1,0,1,NA,NA,NA,NA,NA,NA,NA,NA,NA,NA,NA,NA,NA,NA,NA,NA,NA,NA,NA,NA,NA,NA,NA,NA
"156","stim/objects/Instruments/record_player2.png",175,68,175,0.7,"stim/44.jpeg",4,4,2,NA,"Instruments",1,3,"left","left",0.687999964,1,1,0,1,NA,NA,NA,NA,NA,NA,NA,NA,NA,NA,NA,NA,NA,NA,NA,NA,NA,NA,NA,NA,NA,NA,NA,NA
"207","stim/objects/Instruments/trombone.png",176,68,176,0.3,"stim/32.jpeg",3,2,2,NA,"Instruments",1,2,"left","right",0.636999846,0,0,0,1,NA,NA,NA,NA,NA,NA,NA,NA,NA,NA,NA,NA,NA,NA,NA,NA,NA,NA,NA,NA,NA,NA,NA,NA
"36","stim/objects/HouseObjects/safetypin.png",177,68,177,0.5,"stim/21.jpeg",2,1,1,NA,"HouseObjects",2,3,"right","right",0.636000156,1,1,0,1,NA,NA,NA,NA,NA,NA,NA,NA,NA,NA,NA,NA,NA,NA,NA,NA,NA,NA,NA,NA,NA,NA,NA,NA
"65","stim/objects/HouseObjects/scale.png",178,68,178,0.5,"stim/23.jpeg",2,3,1,NA,"HouseObjects",2,4,"right","right",0.523999929,1,1,0,1,NA,NA,NA,NA,NA,NA,NA,NA,NA,NA,NA,NA,NA,NA,NA,NA,NA,NA,NA,NA,NA,NA,NA,NA
"59","stim/objects/HouseObjects/saw2.png",179,68,179,0.9,"stim/52.jpeg",5,2,3,NA,"HouseObjects",2,2,"right","left",0.444999933,0,0,0,1,NA,NA,NA,NA,NA,NA,NA,NA,NA,NA,NA,NA,NA,NA,NA,NA,NA,NA,NA,NA,NA,NA,NA,NA
"213","stim/objects/Instruments/trombone2.png",180,68,180,0.9,"stim/62.jpeg",6,2,3,NA,"Instruments",1,1,"left","left",0.59499979,1,1,0,1,NA,NA,NA,NA,NA,NA,NA,NA,NA,NA,NA,NA,NA,NA,NA,NA,NA,NA,NA,NA,NA,NA,NA,NA
"231","stim/objects/Instruments/tuba.png",181,68,181,0.3,"stim/34.jpeg",3,4,2,NA,"Instruments",1,2,"left","left",0.27699995,1,1,0,1,NA,NA,NA,NA,NA,NA,NA,NA,NA,NA,NA,NA,NA,NA,NA,NA,NA,NA,NA,NA,NA,NA,NA,NA
"136","stim/objects/Instruments/pipepiano.png",182,68,182,0.5,"stim/12.jpeg",1,2,1,NA,"Instruments",1,2,"left","left",0.761999846,1,1,0,1,NA,NA,NA,NA,NA,NA,NA,NA,NA,NA,NA,NA,NA,NA,NA,NA,NA,NA,NA,NA,NA,NA,NA,NA
"174","stim/objects/Instruments/saxophone2.png",183,68,183,0.1,"stim/51.jpeg",5,1,3,NA,"Instruments",1,4,"left","right",0.279999971,0,0,0,1,NA,NA,NA,NA,NA,NA,NA,NA,NA,NA,NA,NA,NA,NA,NA,NA,NA,NA,NA,NA,NA,NA,NA,NA
"214","stim/objects/Instruments/trombone2.png",184,68,184,0.9,"stim/62.jpeg",6,2,3,NA,"Instruments",1,1,"left","",NA,0,0,0,1,NA,NA,NA,NA,NA,NA,NA,NA,NA,NA,NA,NA,NA,NA,NA,NA,NA,NA,NA,NA,NA,NA,NA,NA
"178","stim/objects/Instruments/speaker.png",185,68,185,0.5,"stim/22.jpeg",2,2,1,NA,"Instruments",1,1,"left","left",0.457999945,1,1,0,1,NA,NA,NA,NA,NA,NA,NA,NA,NA,NA,NA,NA,NA,NA,NA,NA,NA,NA,NA,NA,NA,NA,NA,NA
"45","stim/objects/HouseObjects/safetypin2.png",186,68,186,0.9,"stim/51.jpeg",5,1,3,NA,"HouseObjects",2,4,"right","left",0.191999912,0,0,0,1,NA,NA,NA,NA,NA,NA,NA,NA,NA,NA,NA,NA,NA,NA,NA,NA,NA,NA,NA,NA,NA,NA,NA,NA
"143","stim/objects/Instruments/pipepiano2.png",187,68,187,0.7,"stim/42.jpeg",4,2,2,NA,"Instruments",1,1,"left","left",0.54399991,1,1,0,1,NA,NA,NA,NA,NA,NA,NA,NA,NA,NA,NA,NA,NA,NA,NA,NA,NA,NA,NA,NA,NA,NA,NA,NA
"85","stim/objects/HouseObjects/sponge2.png",188,68,188,0.9,"stim/54.jpeg",5,4,3,NA,"HouseObjects",2,3,"right","left",0.201999903,0,0,0,1,NA,NA,NA,NA,NA,NA,NA,NA,NA,NA,NA,NA,NA,NA,NA,NA,NA,NA,NA,NA,NA,NA,NA,NA
"86","stim/objects/HouseObjects/sponge2.png",189,68,189,0.9,"stim/54.jpeg",5,4,3,NA,"HouseObjects",2,2,"right","left",0.806999922,0,0,0,1,NA,NA,NA,NA,NA,NA,NA,NA,NA,NA,NA,NA,NA,NA,NA,NA,NA,NA,NA,NA,NA,NA,NA,NA
"28","stim/objects/HouseObjects/rug.png",190,68,190,0.5,"stim/14.jpeg",1,4,1,NA,"HouseObjects",2,3,"right","left",0.546000004,0,0,0,1,NA,NA,NA,NA,NA,NA,NA,NA,NA,NA,NA,NA,NA,NA,NA,NA,NA,NA,NA,NA,NA,NA,NA,NA
"101","stim/objects/HouseObjects/teapot.png",191,68,191,0.7,"stim/32.jpeg",3,2,2,NA,"HouseObjects",2,1,"right","left",0.330999851,0,0,0,1,NA,NA,NA,NA,NA,NA,NA,NA,NA,NA,NA,NA,NA,NA,NA,NA,NA,NA,NA,NA,NA,NA,NA,NA
"87","stim/objects/HouseObjects/sponge2.png",192,68,192,0.9,"stim/54.jpeg",5,4,3,NA,"HouseObjects",2,1,"right","left",0.553999901,0,0,0,1,NA,NA,NA,NA,NA,NA,NA,NA,NA,NA,NA,NA,NA,NA,NA,NA,NA,NA,NA,NA,NA,NA,NA,NA
"8","stim/objects/HouseObjects/recyclingbin2.png",193,68,193,0.3,"stim/41.jpeg",4,1,2,NA,"HouseObjects",2,3,"right","right",0.754999876,1,1,0,1,NA,NA,NA,NA,NA,NA,NA,NA,NA,NA,NA,NA,NA,NA,NA,NA,NA,NA,NA,NA,NA,NA,NA,NA
"23","stim/objects/HouseObjects/rubbergloves2.png",194,68,194,0.3,"stim/43.jpeg",4,3,2,NA,"HouseObjects",2,3,"right","right",0.621000051,1,1,0,1,NA,NA,NA,NA,NA,NA,NA,NA,NA,NA,NA,NA,NA,NA,NA,NA,NA,NA,NA,NA,NA,NA,NA,NA
"111","stim/objects/HouseObjects/thermometer.png",195,68,195,0.7,"stim/33.jpeg",3,3,2,NA,"HouseObjects",2,4,"right","left",0.525999784,0,0,0,1,NA,NA,NA,NA,NA,NA,NA,NA,NA,NA,NA,NA,NA,NA,NA,NA,NA,NA,NA,NA,NA,NA,NA,NA
"60","stim/objects/HouseObjects/saw2.png",196,68,196,0.9,"stim/52.jpeg",5,2,3,NA,"HouseObjects",2,3,"right","right",0.672999859,1,1,0,1,NA,NA,NA,NA,NA,NA,NA,NA,NA,NA,NA,NA,NA,NA,NA,NA,NA,NA,NA,NA,NA,NA,NA,NA
"227","stim/objects/Instruments/trumpet2.png",197,68,197,0.9,"stim/63.jpeg",6,3,3,NA,"Instruments",1,3,"left","left",0.75,1,1,0,1,NA,NA,NA,NA,NA,NA,NA,NA,NA,NA,NA,NA,NA,NA,NA,NA,NA,NA,NA,NA,NA,NA,NA,NA
"15","stim/objects/HouseObjects/remote2.png",198,68,198,0.3,"stim/42.jpeg",4,2,2,NA,"HouseObjects",2,2,"right","left",0.455999851,0,0,0,1,NA,NA,NA,NA,NA,NA,NA,NA,NA,NA,NA,NA,NA,NA,NA,NA,NA,NA,NA,NA,NA,NA,NA,NA
"77","stim/objects/HouseObjects/sponge.png",199,68,199,0.5,"stim/24.jpeg",2,4,1,NA,"HouseObjects",2,2,"right","right",0.286999941,1,1,0,1,NA,NA,NA,NA,NA,NA,NA,NA,NA,NA,NA,NA,NA,NA,NA,NA,NA,NA,NA,NA,NA,NA,NA,NA
"51","stim/objects/HouseObjects/saw.png",200,68,200,0.5,"stim/22.jpeg",2,2,1,NA,"HouseObjects",2,1,"right","right",0.069000006,1,1,0,1,NA,NA,NA,NA,NA,NA,NA,NA,NA,NA,NA,NA,NA,NA,NA,NA,NA,NA,NA,NA,NA,NA,NA,NA
"13","stim/objects/HouseObjects/remote.png",201,68,201,0.5,"stim/12.jpeg",1,2,1,NA,"HouseObjects",2,3,"right","right",0.592999935,1,1,0,1,NA,NA,NA,NA,NA,NA,NA,NA,NA,NA,NA,NA,NA,NA,NA,NA,NA,NA,NA,NA,NA,NA,NA,NA
"166","stim/objects/Instruments/record2.png",202,68,202,0.7,"stim/43.jpeg",4,3,2,NA,"Instruments",1,4,"left","right",0.480000019,0,0,0,1,NA,NA,NA,NA,NA,NA,NA,NA,NA,NA,NA,NA,NA,NA,NA,NA,NA,NA,NA,NA,NA,NA,NA,NA
"124","stim/objects/Instruments/panflute.png",203,68,203,0.5,"stim/11.jpeg",1,1,1,NA,"Instruments",1,2,"left","",NA,0,0,0,1,NA,NA,NA,NA,NA,NA,NA,NA,NA,NA,NA,NA,NA,NA,NA,NA,NA,NA,NA,NA,NA,NA,NA,NA
"202","stim/objects/Instruments/triangle2.png",204,68,204,0.9,"stim/61.jpeg",6,1,3,NA,"Instruments",1,2,"left","left",0.486999989,1,1,0,1,NA,NA,NA,NA,NA,NA,NA,NA,NA,NA,NA,NA,NA,NA,NA,NA,NA,NA,NA,NA,NA,NA,NA,NA
"93","stim/objects/HouseObjects/spraybottle.png",205,68,205,0.7,"stim/31.jpeg",3,1,2,NA,"HouseObjects",2,4,"right","right",0.329999924,1,1,0,1,NA,NA,NA,NA,NA,NA,NA,NA,NA,NA,NA,NA,NA,NA,NA,NA,NA,NA,NA,NA,NA,NA,NA,NA
"167","stim/objects/Instruments/record2.png",206,68,206,0.7,"stim/43.jpeg",4,3,2,NA,"Instruments",1,1,"left","right",0.34499979,0,0,0,1,NA,NA,NA,NA,NA,NA,NA,NA,NA,NA,NA,NA,NA,NA,NA,NA,NA,NA,NA,NA,NA,NA,NA,NA
"24","stim/objects/HouseObjects/rubbergloves2.png",207,68,207,0.3,"stim/43.jpeg",4,3,2,NA,"HouseObjects",2,4,"right","left",0.375999928,0,0,0,1,NA,NA,NA,NA,NA,NA,NA,NA,NA,NA,NA,NA,NA,NA,NA,NA,NA,NA,NA,NA,NA,NA,NA,NA
"118","stim/objects/HouseObjects/thread.png",208,68,208,0.7,"stim/34.jpeg",3,4,2,NA,"HouseObjects",2,4,"right","right",0.324999809,1,1,0,1,NA,NA,NA,NA,NA,NA,NA,NA,NA,NA,NA,NA,NA,NA,NA,NA,NA,NA,NA,NA,NA,NA,NA,NA
"37","stim/objects/HouseObjects/safetypin.png",209,68,209,0.5,"stim/21.jpeg",2,1,1,NA,"HouseObjects",2,3,"right","left",0.319999933,0,0,0,1,NA,NA,NA,NA,NA,NA,NA,NA,NA,NA,NA,NA,NA,NA,NA,NA,NA,NA,NA,NA,NA,NA,NA,NA
"29","stim/objects/HouseObjects/rug.png",210,68,210,0.5,"stim/14.jpeg",1,4,1,NA,"HouseObjects",2,1,"right","right",0.819000006,1,1,0,1,NA,NA,NA,NA,NA,NA,NA,NA,NA,NA,NA,NA,NA,NA,NA,NA,NA,NA,NA,NA,NA,NA,NA,NA
"137","stim/objects/Instruments/pipepiano.png",211,68,211,0.5,"stim/12.jpeg",1,2,1,NA,"Instruments",1,3,"left","right",0.493000031,0,0,0,1,NA,NA,NA,NA,NA,NA,NA,NA,NA,NA,NA,NA,NA,NA,NA,NA,NA,NA,NA,NA,NA,NA,NA,NA
"132","stim/objects/Instruments/panflute2.png",212,68,212,0.7,"stim/41.jpeg",4,1,2,NA,"Instruments",1,1,"left","right",0.000999928,0,0,0,1,NA,NA,NA,NA,NA,NA,NA,NA,NA,NA,NA,NA,NA,NA,NA,NA,NA,NA,NA,NA,NA,NA,NA,NA
"125","stim/objects/Instruments/panflute.png",213,68,213,0.5,"stim/11.jpeg",1,1,1,NA,"Instruments",1,2,"left","left",0.427999735,1,1,0,1,NA,NA,NA,NA,NA,NA,NA,NA,NA,NA,NA,NA,NA,NA,NA,NA,NA,NA,NA,NA,NA,NA,NA,NA
"173","stim/objects/Instruments/saxophone.png",214,68,214,0.5,"stim/21.jpeg",2,1,1,NA,"Instruments",1,3,"left","right",0.470999956,0,0,0,1,NA,NA,NA,NA,NA,NA,NA,NA,NA,NA,NA,NA,NA,NA,NA,NA,NA,NA,NA,NA,NA,NA,NA,NA
"119","stim/objects/HouseObjects/thread.png",215,68,215,0.7,"stim/34.jpeg",3,4,2,NA,"HouseObjects",2,2,"right","right",0.131000042,1,1,0,1,NA,NA,NA,NA,NA,NA,NA,NA,NA,NA,NA,NA,NA,NA,NA,NA,NA,NA,NA,NA,NA,NA,NA,NA
"215","stim/objects/Instruments/trombone2.png",216,68,216,0.9,"stim/62.jpeg",6,2,3,NA,"Instruments",1,4,"left","left",0.540999889,1,1,0,1,NA,NA,NA,NA,NA,NA,NA,NA,NA,NA,NA,NA,NA,NA,NA,NA,NA,NA,NA,NA,NA,NA,NA,NA
"102","stim/objects/HouseObjects/teapot.png",217,68,217,0.7,"stim/32.jpeg",3,2,2,NA,"HouseObjects",2,3,"right","left",0.688999891,0,0,0,1,NA,NA,NA,NA,NA,NA,NA,NA,NA,NA,NA,NA,NA,NA,NA,NA,NA,NA,NA,NA,NA,NA,NA,NA
"73","stim/objects/HouseObjects/scale2.png",218,68,218,0.9,"stim/53.jpeg",5,3,3,NA,"HouseObjects",2,1,"right","right",0.443000078,1,1,0,1,NA,NA,NA,NA,NA,NA,NA,NA,NA,NA,NA,NA,NA,NA,NA,NA,NA,NA,NA,NA,NA,NA,NA,NA
"239","stim/objects/Instruments/tuba2.png",219,68,219,0.9,"stim/64.jpeg",6,4,3,NA,"Instruments",1,3,"left","right",0.381000042,0,0,0,1,NA,NA,NA,NA,NA,NA,NA,NA,NA,NA,NA,NA,NA,NA,NA,NA,NA,NA,NA,NA,NA,NA,NA,NA
"5","stim/objects/HouseObjects/recyclingbin.png",220,68,220,0.5,"stim/11.jpeg",1,1,1,NA,"HouseObjects",2,1,"right","left",0.460000038,0,0,0,1,NA,NA,NA,NA,NA,NA,NA,NA,NA,NA,NA,NA,NA,NA,NA,NA,NA,NA,NA,NA,NA,NA,NA,NA
"103","stim/objects/HouseObjects/teapot.png",221,68,221,0.7,"stim/32.jpeg",3,2,2,NA,"HouseObjects",2,1,"right","right",0.381999969,1,1,0,1,NA,NA,NA,NA,NA,NA,NA,NA,NA,NA,NA,NA,NA,NA,NA,NA,NA,NA,NA,NA,NA,NA,NA,NA
"161","stim/objects/Instruments/record.png",222,68,222,0.5,"stim/13.jpeg",1,3,1,NA,"Instruments",1,1,"left","",NA,0,0,0,1,NA,NA,NA,NA,NA,NA,NA,NA,NA,NA,NA,NA,NA,NA,NA,NA,NA,NA,NA,NA,NA,NA,NA,NA
"240","stim/objects/Instruments/tuba2.png",223,68,223,0.9,"stim/64.jpeg",6,4,3,NA,"Instruments",1,2,"left","right",0.266000032,0,0,0,1,NA,NA,NA,NA,NA,NA,NA,NA,NA,NA,NA,NA,NA,NA,NA,NA,NA,NA,NA,NA,NA,NA,NA,NA
"168","stim/objects/Instruments/record2.png",224,68,224,0.7,"stim/43.jpeg",4,3,2,NA,"Instruments",1,1,"left","right",0.368000031,0,0,0,1,NA,NA,NA,NA,NA,NA,NA,NA,NA,NA,NA,NA,NA,NA,NA,NA,NA,NA,NA,NA,NA,NA,NA,NA
"74","stim/objects/HouseObjects/scale2.png",225,68,225,0.9,"stim/53.jpeg",5,3,3,NA,"HouseObjects",2,2,"right","left",0.538999796,0,0,0,1,NA,NA,NA,NA,NA,NA,NA,NA,NA,NA,NA,NA,NA,NA,NA,NA,NA,NA,NA,NA,NA,NA,NA,NA
"78","stim/objects/HouseObjects/sponge.png",226,68,226,0.5,"stim/24.jpeg",2,4,1,NA,"HouseObjects",2,2,"right","right",0.611999989,1,1,0,1,NA,NA,NA,NA,NA,NA,NA,NA,NA,NA,NA,NA,NA,NA,NA,NA,NA,NA,NA,NA,NA,NA,NA,NA
"16","stim/objects/HouseObjects/remote2.png",227,68,227,0.3,"stim/42.jpeg",4,2,2,NA,"HouseObjects",2,2,"right","left",0.747999907,0,0,0,1,NA,NA,NA,NA,NA,NA,NA,NA,NA,NA,NA,NA,NA,NA,NA,NA,NA,NA,NA,NA,NA,NA,NA,NA
"79","stim/objects/HouseObjects/sponge.png",228,68,228,0.5,"stim/24.jpeg",2,4,1,NA,"HouseObjects",2,2,"right","right",0.722000122,1,1,0,1,NA,NA,NA,NA,NA,NA,NA,NA,NA,NA,NA,NA,NA,NA,NA,NA,NA,NA,NA,NA,NA,NA,NA,NA
"46","stim/objects/HouseObjects/safetypin2.png",229,68,229,0.9,"stim/51.jpeg",5,1,3,NA,"HouseObjects",2,4,"right","right",0.537999868,1,1,0,1,NA,NA,NA,NA,NA,NA,NA,NA,NA,NA,NA,NA,NA,NA,NA,NA,NA,NA,NA,NA,NA,NA,NA,NA
"203","stim/objects/Instruments/triangle2.png",230,68,230,0.9,"stim/61.jpeg",6,1,3,NA,"Instruments",1,4,"left","right",0.315999985,0,0,0,1,NA,NA,NA,NA,NA,NA,NA,NA,NA,NA,NA,NA,NA,NA,NA,NA,NA,NA,NA,NA,NA,NA,NA,NA
"228","stim/objects/Instruments/trumpet2.png",231,68,231,0.9,"stim/63.jpeg",6,3,3,NA,"Instruments",1,1,"left","left",0.406999826,1,1,0,1,NA,NA,NA,NA,NA,NA,NA,NA,NA,NA,NA,NA,NA,NA,NA,NA,NA,NA,NA,NA,NA,NA,NA,NA
"94","stim/objects/HouseObjects/spraybottle.png",232,68,232,0.7,"stim/31.jpeg",3,1,2,NA,"HouseObjects",2,3,"right","",NA,0,0,0,1,NA,NA,NA,NA,NA,NA,NA,NA,NA,NA,NA,NA,NA,NA,NA,NA,NA,NA,NA,NA,NA,NA,NA,NA
"185","stim/objects/Instruments/tambourine.png",233,68,233,0.5,"stim/23.jpeg",2,3,1,NA,"Instruments",1,4,"left","left",0.491999865,1,1,0,1,NA,NA,NA,NA,NA,NA,NA,NA,NA,NA,NA,NA,NA,NA,NA,NA,NA,NA,NA,NA,NA,NA,NA,NA
"95","stim/objects/HouseObjects/spraybottle.png",234,68,234,0.7,"stim/31.jpeg",3,1,2,NA,"HouseObjects",2,2,"right","left",0.495999813,0,0,0,1,NA,NA,NA,NA,NA,NA,NA,NA,NA,NA,NA,NA,NA,NA,NA,NA,NA,NA,NA,NA,NA,NA,NA,NA
"179","stim/objects/Instruments/speaker.png",235,68,235,0.5,"stim/22.jpeg",2,2,1,NA,"Instruments",1,3,"left","right",0.183999777,0,0,0,1,NA,NA,NA,NA,NA,NA,NA,NA,NA,NA,NA,NA,NA,NA,NA,NA,NA,NA,NA,NA,NA,NA,NA,NA
"104","stim/objects/HouseObjects/teapot2.png",236,68,236,0.1,"stim/62.jpeg",6,2,3,NA,"HouseObjects",2,1,"right","left",0.394000053,0,0,0,1,NA,NA,NA,NA,NA,NA,NA,NA,NA,NA,NA,NA,NA,NA,NA,NA,NA,NA,NA,NA,NA,NA,NA,NA
"144","stim/objects/Instruments/pipepiano2.png",237,68,237,0.7,"stim/42.jpeg",4,2,2,NA,"Instruments",1,2,"left","right",0.575999737,0,0,0,1,NA,NA,NA,NA,NA,NA,NA,NA,NA,NA,NA,NA,NA,NA,NA,NA,NA,NA,NA,NA,NA,NA,NA,NA
"204","stim/objects/Instruments/triangle2.png",238,68,238,0.9,"stim/61.jpeg",6,1,3,NA,"Instruments",1,3,"left","left",0.573999882,1,1,0,1,NA,NA,NA,NA,NA,NA,NA,NA,NA,NA,NA,NA,NA,NA,NA,NA,NA,NA,NA,NA,NA,NA,NA,NA
"88","stim/objects/HouseObjects/sponge2.png",239,68,239,0.9,"stim/54.jpeg",5,4,3,NA,"HouseObjects",2,1,"right","left",0.454999924,0,0,0,1,NA,NA,NA,NA,NA,NA,NA,NA,NA,NA,NA,NA,NA,NA,NA,NA,NA,NA,NA,NA,NA,NA,NA,NA
"216","stim/objects/Instruments/trombone2.png",240,68,240,0.9,"stim/62.jpeg",6,2,3,NA,"Instruments",1,1,"left","left",0.365999937,1,1,0,1,NA,NA,NA,NA,NA,NA,NA,NA,NA,NA,NA,NA,NA,NA,NA,NA,NA,NA,NA,NA,NA,NA,NA,NA
"412","stim/objects/Instruments/balalaika3.png",248,68,241,0.5,"stim/13.jpeg",1,3,1,2,"Instruments",1,1,"left","",NA,0,0,1,0,NA,NA,NA,NA,NA,NA,NA,NA,NA,NA,NA,NA,NA,NA,NA,NA,NA,NA,NA,NA,NA,NA,NA,NA
"562","stim/objects/Instruments/musicstand4.png",249,68,242,0.9,"stim/62.jpeg",6,2,3,1,"Instruments",1,2,"left","right",0.001999855,0,0,1,0,190,68,1,0.9,1,"stim/62.jpeg",6,2,"stim/62.jpeg",2,"right",1.061000347,3,3,1.17200017,2,1.615000248,190,0,0,NA,1,NA,0
"448","stim/objects/Instruments/electricdrumset3.png",250,68,243,0.7,"stim/42.jpeg",4,2,2,2,"Instruments",1,3,"left","left",0.474999905,1,1,1,0,NA,NA,NA,NA,NA,NA,NA,NA,NA,NA,NA,NA,NA,NA,NA,NA,NA,NA,NA,NA,NA,NA,NA,NA
"433","stim/objects/Instruments/cornet3.png",251,68,244,0.5,"stim/24.jpeg",2,4,1,2,"Instruments",1,3,"left","right",0.691999912,0,0,1,0,NA,NA,NA,NA,NA,NA,NA,NA,NA,NA,NA,NA,NA,NA,NA,NA,NA,NA,NA,NA,NA,NA,NA,NA
"243","stim/objects/HouseObjects/ashtray4.png",252,68,245,0.7,"stim/33.jpeg",3,3,2,1,"HouseObjects",2,1,"right","right",0.693000078,1,1,1,0,135,68,1,0.7,2,"stim/33.jpeg",3,3,"stim/33.jpeg",1,"left",1.476000071,4,2,4.213000059,1,4.180000067,135,1,0,0,1,1,0
"524","stim/objects/Instruments/grandpiano3.png",253,68,246,0.9,"stim/62.jpeg",6,2,3,2,"Instruments",1,2,"left","left",0.665999889,1,1,1,0,NA,NA,NA,NA,NA,NA,NA,NA,NA,NA,NA,NA,NA,NA,NA,NA,NA,NA,NA,NA,NA,NA,NA,NA
"525","stim/objects/Instruments/grandpiano3.png",254,68,247,0.9,"stim/64.jpeg",6,4,3,2,"Instruments",1,4,"left","right",0.576999903,0,0,1,0,NA,NA,NA,NA,NA,NA,NA,NA,NA,NA,NA,NA,NA,NA,NA,NA,NA,NA,NA,NA,NA,NA,NA,NA
"291","stim/objects/HouseObjects/doormat3.png",255,68,248,0.9,"stim/53.jpeg",5,3,3,2,"HouseObjects",2,2,"right","left",0.397000074,0,0,1,0,NA,NA,NA,NA,NA,NA,NA,NA,NA,NA,NA,NA,NA,NA,NA,NA,NA,NA,NA,NA,NA,NA,NA,NA
"274","stim/objects/HouseObjects/clothesdryingrack4.png",256,68,249,0.3,"stim/43.jpeg",4,3,2,1,"HouseObjects",2,2,"right","right",0.273999929,1,1,1,0,141,68,1,0.3,2,"stim/43.jpeg",4,3,"stim/43.jpeg",2,"left",1.510000229,4,3,5.424000025,3,3.961000204,141,1,1,1,0,0,0
"262","stim/objects/HouseObjects/broom3.png",257,68,250,0.5,"stim/24.jpeg",2,4,1,2,"HouseObjects",2,4,"right","right",0.421000004,1,1,1,0,NA,NA,NA,NA,NA,NA,NA,NA,NA,NA,NA,NA,NA,NA,NA,NA,NA,NA,NA,NA,NA,NA,NA,NA
"544","stim/objects/Instruments/harmonica4.png",258,68,251,0.1,"stim/53.jpeg",5,3,3,1,"Instruments",1,3,"left","right",0.559999704,0,0,1,0,36,68,1,0.1,1,"stim/53.jpeg",5,3,"stim/53.jpeg",3,"left",0.926000118,2,1,5.600000143,1,3.058000088,36,1,0,0,0,0,0
"526","stim/objects/Instruments/grandpiano3.png",259,68,252,0.9,"stim/62.jpeg",6,2,3,2,"Instruments",1,4,"left","right",0.328999758,0,0,1,0,NA,NA,NA,NA,NA,NA,NA,NA,NA,NA,NA,NA,NA,NA,NA,NA,NA,NA,NA,NA,NA,NA,NA,NA
"418","stim/objects/Instruments/bassdrum3.png",260,68,253,0.5,"stim/12.jpeg",1,2,1,2,"Instruments",1,4,"left","left",0.595000029,1,1,1,0,NA,NA,NA,NA,NA,NA,NA,NA,NA,NA,NA,NA,NA,NA,NA,NA,NA,NA,NA,NA,NA,NA,NA,NA
"507","stim/objects/Instruments/gong3.png",261,68,254,0.9,"stim/62.jpeg",6,2,3,2,"Instruments",1,1,"left","left",0.443999767,1,1,1,0,NA,NA,NA,NA,NA,NA,NA,NA,NA,NA,NA,NA,NA,NA,NA,NA,NA,NA,NA,NA,NA,NA,NA,NA
"309","stim/objects/HouseObjects/dustpan3.png",262,68,255,0.9,"stim/54.jpeg",5,4,3,2,"HouseObjects",2,1,"right","left",0.491999865,0,0,1,0,NA,NA,NA,NA,NA,NA,NA,NA,NA,NA,NA,NA,NA,NA,NA,NA,NA,NA,NA,NA,NA,NA,NA,NA
"283","stim/objects/HouseObjects/cushion3.png",263,68,256,0.7,"stim/32.jpeg",3,2,2,2,"HouseObjects",2,1,"right","left",0.572000027,0,0,1,0,NA,NA,NA,NA,NA,NA,NA,NA,NA,NA,NA,NA,NA,NA,NA,NA,NA,NA,NA,NA,NA,NA,NA,NA
"557","stim/objects/Instruments/metronome3.png",264,68,257,0.5,"stim/24.jpeg",2,4,1,1,"Instruments",1,2,"left","right",0.667999744,0,0,1,0,179,68,1,0.5,2,"stim/24.jpeg",2,4,"stim/24.jpeg",2,"left",0.913000107,4,1,4.294000149,3,3.087000132,179,1,0,0,0,0,0
"395","stim/objects/HouseObjects/match4.png",265,68,258,0.1,"stim/63.jpeg",6,3,3,1,"HouseObjects",2,2,"right","right",0.762999773,1,1,1,0,72,68,1,0.1,2,"stim/63.jpeg",6,3,"stim/63.jpeg",2,"left",1.528000116,4,3,3.63499999,1,5.042000055,72,1,1,1,0,0,0
"439","stim/objects/Instruments/cymbal4.png",266,68,259,0.7,"stim/41.jpeg",4,1,2,1,"Instruments",1,2,"left","left",0.708999872,1,1,1,0,140,68,1,0.7,1,"stim/41.jpeg",4,1,"stim/41.jpeg",2,"right",2.257000208,4,4,3.136000156,3,1.740999937,140,0,0,NA,0,NA,0
"278","stim/objects/HouseObjects/clothespin4.png",267,68,260,0.3,"stim/44.jpeg",4,4,2,1,"HouseObjects",2,4,"right","right",0.575999975,1,1,1,0,44,68,1,0.3,2,"stim/44.jpeg",4,4,"stim/44.jpeg",4,"right",1.186000347,4,1,3.33100009,3,2.137000084,44,0,0,NA,0,NA,0
"443","stim/objects/Instruments/doublebass4.png",268,68,261,0.7,"stim/42.jpeg",4,2,2,1,"Instruments",1,4,"left","left",0.753000021,1,1,1,0,128,68,1,0.7,1,"stim/42.jpeg",4,2,"stim/42.jpeg",4,"left",0.846000195,3,1,1.629000187,2,1.976999998,128,1,0,0,0,0,0
"508","stim/objects/Instruments/gong3.png",269,68,262,0.9,"stim/62.jpeg",6,2,3,2,"Instruments",1,4,"left","left",0.665999889,1,1,1,0,NA,NA,NA,NA,NA,NA,NA,NA,NA,NA,NA,NA,NA,NA,NA,NA,NA,NA,NA,NA,NA,NA,NA,NA
"527","stim/objects/Instruments/grandpiano3.png",270,68,263,0.9,"stim/61.jpeg",6,1,3,2,"Instruments",1,1,"left","left",0.56799984,1,1,1,0,NA,NA,NA,NA,NA,NA,NA,NA,NA,NA,NA,NA,NA,NA,NA,NA,NA,NA,NA,NA,NA,NA,NA,NA
"359","stim/objects/HouseObjects/glass3.png",271,68,264,0.9,"stim/54.jpeg",5,4,3,2,"HouseObjects",2,1,"right","right",0.585999966,1,1,1,0,NA,NA,NA,NA,NA,NA,NA,NA,NA,NA,NA,NA,NA,NA,NA,NA,NA,NA,NA,NA,NA,NA,NA,NA
"474","stim/objects/Instruments/flutetrans3.png",272,68,265,0.9,"stim/64.jpeg",6,4,3,2,"Instruments",1,3,"left","left",0.555999994,1,1,1,0,NA,NA,NA,NA,NA,NA,NA,NA,NA,NA,NA,NA,NA,NA,NA,NA,NA,NA,NA,NA,NA,NA,NA,NA
"509","stim/objects/Instruments/gong3.png",273,68,266,0.9,"stim/64.jpeg",6,4,3,2,"Instruments",1,2,"left","left",0.566999912,1,1,1,0,NA,NA,NA,NA,NA,NA,NA,NA,NA,NA,NA,NA,NA,NA,NA,NA,NA,NA,NA,NA,NA,NA,NA,NA
"266","stim/objects/HouseObjects/bucket3.png",274,68,267,0.5,"stim/21.jpeg",2,1,1,2,"HouseObjects",2,4,"right","right",0.625999928,1,1,1,0,NA,NA,NA,NA,NA,NA,NA,NA,NA,NA,NA,NA,NA,NA,NA,NA,NA,NA,NA,NA,NA,NA,NA,NA
"279","stim/objects/HouseObjects/coffee3.png",275,68,268,0.7,"stim/31.jpeg",3,1,2,2,"HouseObjects",2,4,"right","",NA,0,0,1,0,NA,NA,NA,NA,NA,NA,NA,NA,NA,NA,NA,NA,NA,NA,NA,NA,NA,NA,NA,NA,NA,NA,NA,NA
"549","stim/objects/Instruments/keyboard3.png",276,68,269,0.5,"stim/13.jpeg",1,3,1,1,"Instruments",1,2,"left","left",0.859999895,1,1,1,0,8,68,1,0.5,1,"stim/13.jpeg",1,3,"stim/13.jpeg",2,"right",1.490000248,3,1,4.46200037,2,4.735000134,8,0,0,NA,1,NA,0
"475","stim/objects/Instruments/flutetrans3.png",277,68,270,0.9,"stim/62.jpeg",6,2,3,2,"Instruments",1,2,"left","left",0.585999966,1,1,1,0,NA,NA,NA,NA,NA,NA,NA,NA,NA,NA,NA,NA,NA,NA,NA,NA,NA,NA,NA,NA,NA,NA,NA,NA
"472","stim/objects/Instruments/flute4.png",278,68,271,0.1,"stim/51.jpeg",5,1,3,1,"Instruments",1,3,"left","right",0.690000057,0,0,1,0,134,68,1,0.1,1,"stim/51.jpeg",5,1,"stim/51.jpeg",3,"right",1.499000072,2,3,1.078000307,3,1.429000139,134,0,0,NA,1,NA,0
"325","stim/objects/HouseObjects/flyswatter3.png",279,68,272,0.9,"stim/52.jpeg",5,2,3,2,"HouseObjects",2,1,"right","right",0.518999815,1,1,1,0,NA,NA,NA,NA,NA,NA,NA,NA,NA,NA,NA,NA,NA,NA,NA,NA,NA,NA,NA,NA,NA,NA,NA,NA
"510","stim/objects/Instruments/gong3.png",280,68,273,0.9,"stim/64.jpeg",6,4,3,2,"Instruments",1,1,"left","left",0.542999744,1,1,1,0,NA,NA,NA,NA,NA,NA,NA,NA,NA,NA,NA,NA,NA,NA,NA,NA,NA,NA,NA,NA,NA,NA,NA,NA
"511","stim/objects/Instruments/gong3.png",281,68,274,0.9,"stim/63.jpeg",6,3,3,2,"Instruments",1,4,"left","left",0.540999889,1,1,1,0,NA,NA,NA,NA,NA,NA,NA,NA,NA,NA,NA,NA,NA,NA,NA,NA,NA,NA,NA,NA,NA,NA,NA,NA
"436","stim/objects/Instruments/cymbal3.png",282,68,275,0.7,"stim/43.jpeg",4,3,2,2,"Instruments",1,3,"left","right",0.76699996,0,0,1,0,NA,NA,NA,NA,NA,NA,NA,NA,NA,NA,NA,NA,NA,NA,NA,NA,NA,NA,NA,NA,NA,NA,NA,NA
"268","stim/objects/HouseObjects/clock3.png",283,68,276,0.5,"stim/23.jpeg",2,3,1,2,"HouseObjects",2,4,"right","left",0.535000086,0,0,1,0,NA,NA,NA,NA,NA,NA,NA,NA,NA,NA,NA,NA,NA,NA,NA,NA,NA,NA,NA,NA,NA,NA,NA,NA
"476","stim/objects/Instruments/flutetrans3.png",284,68,277,0.9,"stim/64.jpeg",6,4,3,2,"Instruments",1,1,"left","left",0.540999889,1,1,1,0,NA,NA,NA,NA,NA,NA,NA,NA,NA,NA,NA,NA,NA,NA,NA,NA,NA,NA,NA,NA,NA,NA,NA,NA
"342","stim/objects/HouseObjects/garbagebin3.png",285,68,278,0.9,"stim/53.jpeg",5,3,3,2,"HouseObjects",2,4,"right","right",0.669999838,1,1,1,0,NA,NA,NA,NA,NA,NA,NA,NA,NA,NA,NA,NA,NA,NA,NA,NA,NA,NA,NA,NA,NA,NA,NA,NA
"282","stim/objects/HouseObjects/coffee4.png",286,68,279,0.3,"stim/41.jpeg",4,1,2,1,"HouseObjects",2,3,"right","right",0.623999834,1,1,1,0,168,68,1,0.3,2,"stim/41.jpeg",4,1,"stim/41.jpeg",3,"right",1.565999985,3,3,1.404000044,3,2.649000168,168,0,0,NA,1,NA,0
"570","stim/objects/Instruments/xylophone4.png",287,68,280,0.9,"stim/62.jpeg",6,2,3,1,"Instruments",1,4,"left","left",0.498999834,1,1,1,0,6,68,1,0.9,1,"stim/62.jpeg",6,2,"stim/62.jpeg",4,"left",1.44900012,4,4,3.873000145,4,4.414000273,6,1,0,0,1,1,0
"275","stim/objects/HouseObjects/clothespin3.png",288,68,281,0.7,"stim/32.jpeg",3,2,2,2,"HouseObjects",2,1,"right","right",0.72699976,1,1,1,0,NA,NA,NA,NA,NA,NA,NA,NA,NA,NA,NA,NA,NA,NA,NA,NA,NA,NA,NA,NA,NA,NA,NA,NA
"360","stim/objects/HouseObjects/glass3.png",289,68,282,0.9,"stim/53.jpeg",5,3,3,2,"HouseObjects",2,2,"right","right",0.674999952,1,1,1,0,NA,NA,NA,NA,NA,NA,NA,NA,NA,NA,NA,NA,NA,NA,NA,NA,NA,NA,NA,NA,NA,NA,NA,NA
"293","stim/objects/HouseObjects/doormat3.png",290,68,283,0.9,"stim/51.jpeg",5,1,3,2,"HouseObjects",2,3,"right","right",0.638999939,1,1,1,0,NA,NA,NA,NA,NA,NA,NA,NA,NA,NA,NA,NA,NA,NA,NA,NA,NA,NA,NA,NA,NA,NA,NA,NA
"270","stim/objects/HouseObjects/clock4.png",291,68,284,0.3,"stim/42.jpeg",4,2,2,1,"HouseObjects",2,2,"right","left",0.813999891,0,0,1,0,187,68,1,0.3,2,"stim/42.jpeg",4,2,"stim/42.jpeg",2,"right",1.250000238,3,1,0.77300024,3,0.812000275,187,0,0,NA,0,NA,0
"452","stim/objects/Instruments/electricguitar3.png",292,68,285,0.7,"stim/41.jpeg",4,1,2,2,"Instruments",1,2,"left","",NA,0,0,1,0,NA,NA,NA,NA,NA,NA,NA,NA,NA,NA,NA,NA,NA,NA,NA,NA,NA,NA,NA,NA,NA,NA,NA,NA
"421","stim/objects/Instruments/bassguitar3.png",293,68,286,0.5,"stim/24.jpeg",2,4,1,2,"Instruments",1,2,"left","left",0.681999922,1,1,1,0,NA,NA,NA,NA,NA,NA,NA,NA,NA,NA,NA,NA,NA,NA,NA,NA,NA,NA,NA,NA,NA,NA,NA,NA
"343","stim/objects/HouseObjects/garbagebin3.png",294,68,287,0.9,"stim/53.jpeg",5,3,3,2,"HouseObjects",2,4,"right","right",0.605999947,1,1,1,0,NA,NA,NA,NA,NA,NA,NA,NA,NA,NA,NA,NA,NA,NA,NA,NA,NA,NA,NA,NA,NA,NA,NA,NA
"506","stim/objects/Instruments/frenchhorn4.png",295,68,288,0.1,"stim/53.jpeg",5,3,3,1,"Instruments",1,4,"left","right",0.476999998,0,0,1,0,74,68,1,0.1,1,"stim/53.jpeg",5,3,"stim/53.jpeg",4,"left",1.002000093,4,3,2.220999956,1,2.511000156,74,1,1,1,0,0,0
"383","stim/objects/HouseObjects/handvacuum4.png",296,68,289,0.9,"stim/53.jpeg",5,3,3,1,"HouseObjects",2,3,"right","left",0.565999985,0,0,1,0,198,68,1,0.9,2,"stim/53.jpeg",5,3,"stim/53.jpeg",3,"left",1.264000177,3,3,2.008000135,4,1.727000237,198,1,1,1,0,0,0
"492","stim/objects/Instruments/frenchhorn3.png",297,68,290,0.9,"stim/64.jpeg",6,4,3,2,"Instruments",1,3,"left","left",0.519000053,1,1,1,0,NA,NA,NA,NA,NA,NA,NA,NA,NA,NA,NA,NA,NA,NA,NA,NA,NA,NA,NA,NA,NA,NA,NA,NA
"512","stim/objects/Instruments/gong3.png",298,68,291,0.9,"stim/61.jpeg",6,1,3,2,"Instruments",1,1,"left","left",0.460999966,1,1,1,0,NA,NA,NA,NA,NA,NA,NA,NA,NA,NA,NA,NA,NA,NA,NA,NA,NA,NA,NA,NA,NA,NA,NA,NA
"563","stim/objects/Instruments/oboe3.png",299,68,292,0.3,"stim/32.jpeg",3,2,2,1,"Instruments",1,4,"left","left",0.302999973,1,1,1,0,125,68,1,0.3,1,"stim/32.jpeg",3,2,"stim/32.jpeg",4,"right",0.774000168,1,4,2.274000168,4,3.114000082,125,0,0,NA,1,NA,0
"545","stim/objects/Instruments/harp3.png",300,68,293,0.5,"stim/11.jpeg",1,1,1,1,"Instruments",1,2,"left","left",0.481999874,1,1,1,0,46,68,1,0.5,1,"stim/11.jpeg",1,1,"stim/11.jpeg",2,"right",1.13100028,3,2,3.832000017,1,1.538000107,46,0,0,NA,0,NA,0
"440","stim/objects/Instruments/doublebass3.png",301,68,294,0.7,"stim/43.jpeg",4,3,2,2,"Instruments",1,2,"left","right",0.64199996,0,0,1,0,NA,NA,NA,NA,NA,NA,NA,NA,NA,NA,NA,NA,NA,NA,NA,NA,NA,NA,NA,NA,NA,NA,NA,NA
"294","stim/objects/HouseObjects/doormat3.png",302,68,295,0.9,"stim/51.jpeg",5,1,3,2,"HouseObjects",2,3,"right","right",0.605999947,1,1,1,0,NA,NA,NA,NA,NA,NA,NA,NA,NA,NA,NA,NA,NA,NA,NA,NA,NA,NA,NA,NA,NA,NA,NA,NA
"311","stim/objects/HouseObjects/dustpan3.png",303,68,296,0.9,"stim/53.jpeg",5,3,3,2,"HouseObjects",2,1,"right","right",0.566999912,1,1,1,0,NA,NA,NA,NA,NA,NA,NA,NA,NA,NA,NA,NA,NA,NA,NA,NA,NA,NA,NA,NA,NA,NA,NA,NA
"429","stim/objects/Instruments/chime4.png",304,68,297,0.7,"stim/42.jpeg",4,2,2,1,"Instruments",1,4,"left","right",0.760999918,0,0,1,0,49,68,1,0.7,1,"stim/42.jpeg",4,2,"stim/42.jpeg",4,"left",1.75600028,4,1,4.087000132,3,5.207000256,49,1,0,0,0,0,0
"244","stim/objects/HouseObjects/ballofstring3.png",305,68,298,0.5,"stim/12.jpeg",1,2,1,2,"HouseObjects",2,4,"right","left",0.775999784,0,0,1,0,NA,NA,NA,NA,NA,NA,NA,NA,NA,NA,NA,NA,NA,NA,NA,NA,NA,NA,NA,NA,NA,NA,NA,NA
"344","stim/objects/HouseObjects/garbagebin3.png",306,68,299,0.9,"stim/54.jpeg",5,4,3,2,"HouseObjects",2,3,"right","right",0.821000099,1,1,1,0,NA,NA,NA,NA,NA,NA,NA,NA,NA,NA,NA,NA,NA,NA,NA,NA,NA,NA,NA,NA,NA,NA,NA,NA
"555","stim/objects/Instruments/marimba3.png",307,68,300,0.5,"stim/23.jpeg",2,3,1,1,"Instruments",1,2,"left","left",0.632999897,1,1,1,0,43,68,1,0.5,2,"stim/23.jpeg",2,3,"stim/23.jpeg",2,"left",0.834000111,1,1,3.606000185,3,2.694000244,43,1,0,0,0,0,0
"451","stim/objects/Instruments/electricdrumset4.png",308,68,301,0.7,"stim/44.jpeg",4,4,2,1,"Instruments",1,3,"left","left",0.490999937,1,1,1,0,183,68,1,0.7,1,"stim/44.jpeg",4,4,"stim/44.jpeg",3,"right",1.058000088,2,3,1.845000267,4,2.614000082,183,0,0,NA,0,NA,0
"345","stim/objects/HouseObjects/garbagebin3.png",309,68,302,0.9,"stim/51.jpeg",5,1,3,2,"HouseObjects",2,4,"right","right",0.485999823,1,1,1,0,NA,NA,NA,NA,NA,NA,NA,NA,NA,NA,NA,NA,NA,NA,NA,NA,NA,NA,NA,NA,NA,NA,NA,NA
"459","stim/objects/Instruments/flute3.png",310,68,303,0.9,"stim/64.jpeg",6,4,3,2,"Instruments",1,3,"left","left",0.557999849,1,1,1,0,NA,NA,NA,NA,NA,NA,NA,NA,NA,NA,NA,NA,NA,NA,NA,NA,NA,NA,NA,NA,NA,NA,NA,NA
"312","stim/objects/HouseObjects/dustpan3.png",311,68,304,0.9,"stim/54.jpeg",5,4,3,2,"HouseObjects",2,1,"right","left",0.340999842,0,0,1,0,NA,NA,NA,NA,NA,NA,NA,NA,NA,NA,NA,NA,NA,NA,NA,NA,NA,NA,NA,NA,NA,NA,NA,NA
"271","stim/objects/HouseObjects/clothesdryingrack3.png",312,68,305,0.7,"stim/34.jpeg",3,4,2,2,"HouseObjects",2,3,"right","left",0.416999817,0,0,1,0,NA,NA,NA,NA,NA,NA,NA,NA,NA,NA,NA,NA,NA,NA,NA,NA,NA,NA,NA,NA,NA,NA,NA,NA
"328","stim/objects/HouseObjects/flyswatter3.png",313,68,306,0.9,"stim/52.jpeg",5,2,3,2,"HouseObjects",2,1,"right","left",0.4599998,0,0,1,0,NA,NA,NA,NA,NA,NA,NA,NA,NA,NA,NA,NA,NA,NA,NA,NA,NA,NA,NA,NA,NA,NA,NA,NA
"430","stim/objects/Instruments/clarinet3.png",314,68,307,0.5,"stim/22.jpeg",2,2,1,2,"Instruments",1,1,"left","left",0.771999836,1,1,1,0,NA,NA,NA,NA,NA,NA,NA,NA,NA,NA,NA,NA,NA,NA,NA,NA,NA,NA,NA,NA,NA,NA,NA,NA
"380","stim/objects/HouseObjects/handbrush3.png",315,68,308,0.5,"stim/14.jpeg",1,4,1,1,"HouseObjects",2,2,"right","left",0.139999866,0,0,1,0,53,68,1,0.5,1,"stim/14.jpeg",1,4,"stim/14.jpeg",2,"left",0.978000164,4,1,4.288000345,1,0.55700016,53,1,0,0,0,0,0
"489","stim/objects/Instruments/flutetrans4.png",316,68,309,0.1,"stim/52.jpeg",5,2,3,1,"Instruments",1,4,"left","left",0.759999752,1,1,1,0,17,68,1,0.1,1,"stim/52.jpeg",5,2,"stim/52.jpeg",4,"left",0.22300005,3,2,4.431000233,1,2.406000137,17,1,1,1,0,0,0
"460","stim/objects/Instruments/flute3.png",317,68,310,0.9,"stim/61.jpeg",6,1,3,2,"Instruments",1,1,"left","left",0.69299984,1,1,1,0,NA,NA,NA,NA,NA,NA,NA,NA,NA,NA,NA,NA,NA,NA,NA,NA,NA,NA,NA,NA,NA,NA,NA,NA
"478","stim/objects/Instruments/flutetrans3.png",318,68,311,0.9,"stim/62.jpeg",6,2,3,2,"Instruments",1,3,"left","left",0.655999899,1,1,1,0,NA,NA,NA,NA,NA,NA,NA,NA,NA,NA,NA,NA,NA,NA,NA,NA,NA,NA,NA,NA,NA,NA,NA,NA
"295","stim/objects/HouseObjects/doormat3.png",319,68,312,0.9,"stim/54.jpeg",5,4,3,2,"HouseObjects",2,4,"right","right",0.609999895,1,1,1,0,NA,NA,NA,NA,NA,NA,NA,NA,NA,NA,NA,NA,NA,NA,NA,NA,NA,NA,NA,NA,NA,NA,NA,NA
"362","stim/objects/HouseObjects/glass3.png",320,68,313,0.9,"stim/54.jpeg",5,4,3,2,"HouseObjects",2,2,"right","left",0.246999979,0,0,1,0,NA,NA,NA,NA,NA,NA,NA,NA,NA,NA,NA,NA,NA,NA,NA,NA,NA,NA,NA,NA,NA,NA,NA,NA
"495","stim/objects/Instruments/frenchhorn3.png",321,68,314,0.9,"stim/61.jpeg",6,1,3,2,"Instruments",1,3,"left","left",0.22300005,1,1,1,0,NA,NA,NA,NA,NA,NA,NA,NA,NA,NA,NA,NA,NA,NA,NA,NA,NA,NA,NA,NA,NA,NA,NA,NA
"496","stim/objects/Instruments/frenchhorn3.png",322,68,315,0.9,"stim/63.jpeg",6,3,3,2,"Instruments",1,3,"left","left",0.438999891,1,1,1,0,NA,NA,NA,NA,NA,NA,NA,NA,NA,NA,NA,NA,NA,NA,NA,NA,NA,NA,NA,NA,NA,NA,NA,NA
"379","stim/objects/HouseObjects/hairdryer4.png",323,68,316,0.9,"stim/51.jpeg",5,1,3,1,"HouseObjects",2,4,"right","left",0.28399992,0,0,1,0,120,68,1,0.9,2,"stim/51.jpeg",5,1,"stim/51.jpeg",4,"left",0.203999996,1,2,3.151000023,3,1.003000259,120,1,0,0,0,0,0
"569","stim/objects/Instruments/xylophone3.png",324,68,317,0.3,"stim/31.jpeg",3,1,2,1,"Instruments",1,3,"left","left",0.461999893,1,1,1,0,20,68,1,0.3,1,"stim/31.jpeg",3,1,"stim/31.jpeg",3,"left",1.642000198,3,3,3.092000008,3,2.000000238,20,1,0,0,1,1,0
"543","stim/objects/Instruments/harmonica3.png",325,68,318,0.5,"stim/14.jpeg",1,4,1,1,"Instruments",1,3,"left","left",0.523999929,1,1,1,0,38,68,1,0.5,1,"stim/14.jpeg",1,4,"stim/14.jpeg",3,"left",1.390000105,4,2,3.913000107,2,1.392000198,38,1,0,0,0,0,0
"391","stim/objects/HouseObjects/knife4.png",326,68,319,0.1,"stim/61.jpeg",6,1,3,1,"HouseObjects",2,3,"right","left",0.180000067,0,0,1,0,126,68,1,0.1,2,"stim/61.jpeg",6,1,"stim/61.jpeg",3,"left",2.079000235,4,4,2.946000099,3,3.051000118,126,1,0,0,1,1,0
"330","stim/objects/HouseObjects/flyswatter3.png",327,68,320,0.9,"stim/53.jpeg",5,3,3,2,"HouseObjects",2,2,"right","left",0.363999844,0,0,1,0,NA,NA,NA,NA,NA,NA,NA,NA,NA,NA,NA,NA,NA,NA,NA,NA,NA,NA,NA,NA,NA,NA,NA,NA
"547","stim/objects/Instruments/hihat3.png",328,68,321,0.5,"stim/12.jpeg",1,2,1,1,"Instruments",1,3,"left","left",0.496000051,1,1,1,0,34,68,1,0.5,1,"stim/12.jpeg",1,2,"stim/12.jpeg",3,"right",1.908000231,2,2,0.436000109,2,0.639000177,34,0,1,NA,0,NA,0
"297","stim/objects/HouseObjects/doormat3.png",329,68,322,0.9,"stim/54.jpeg",5,4,3,2,"HouseObjects",2,2,"right","right",0.439999819,1,1,1,0,NA,NA,NA,NA,NA,NA,NA,NA,NA,NA,NA,NA,NA,NA,NA,NA,NA,NA,NA,NA,NA,NA,NA,NA
"554","stim/objects/Instruments/maraca4.png",330,68,323,0.9,"stim/62.jpeg",6,2,3,1,"Instruments",1,4,"left","right",0.306999922,0,0,1,0,144,68,1,0.9,1,"stim/62.jpeg",6,2,"stim/62.jpeg",4,"left",0.96600008,4,4,2.098000288,4,1.739000082,144,1,0,0,1,1,0
"364","stim/objects/HouseObjects/glass3.png",331,68,324,0.9,"stim/51.jpeg",5,1,3,2,"HouseObjects",2,3,"right","left",0.238999844,0,0,1,0,NA,NA,NA,NA,NA,NA,NA,NA,NA,NA,NA,NA,NA,NA,NA,NA,NA,NA,NA,NA,NA,NA,NA,NA
"529","stim/objects/Instruments/grandpiano3.png",332,68,325,0.9,"stim/64.jpeg",6,4,3,2,"Instruments",1,1,"left","right",0.254999876,0,0,1,0,NA,NA,NA,NA,NA,NA,NA,NA,NA,NA,NA,NA,NA,NA,NA,NA,NA,NA,NA,NA,NA,NA,NA,NA
"365","stim/objects/HouseObjects/glass3.png",333,68,326,0.9,"stim/51.jpeg",5,1,3,2,"HouseObjects",2,4,"right","right",0.479999781,1,1,1,0,NA,NA,NA,NA,NA,NA,NA,NA,NA,NA,NA,NA,NA,NA,NA,NA,NA,NA,NA,NA,NA,NA,NA,NA
"384","stim/objects/HouseObjects/iron3.png",334,68,327,0.5,"stim/12.jpeg",1,2,1,1,"HouseObjects",2,2,"right","left",0.236000061,0,0,1,0,195,68,1,0.5,1,"stim/12.jpeg",1,2,"stim/12.jpeg",2,"left",2.49600029,3,3,2.519000053,4,2.741000175,195,1,0,0,0,0,0
"447","stim/objects/Instruments/drums4.png",335,68,328,0.7,"stim/43.jpeg",4,3,2,1,"Instruments",1,4,"left","left",0.759999752,1,1,1,0,122,68,1,0.7,1,"stim/43.jpeg",4,3,"stim/43.jpeg",4,"right",1.960000038,1,2,1.377000093,1,1.705000162,122,0,0,NA,0,NA,0
"479","stim/objects/Instruments/flutetrans3.png",336,68,329,0.9,"stim/61.jpeg",6,1,3,2,"Instruments",1,3,"left","left",0.32799983,1,1,1,0,NA,NA,NA,NA,NA,NA,NA,NA,NA,NA,NA,NA,NA,NA,NA,NA,NA,NA,NA,NA,NA,NA,NA,NA
"497","stim/objects/Instruments/frenchhorn3.png",337,68,330,0.9,"stim/64.jpeg",6,4,3,2,"Instruments",1,3,"left","left",0.475999832,1,1,1,0,NA,NA,NA,NA,NA,NA,NA,NA,NA,NA,NA,NA,NA,NA,NA,NA,NA,NA,NA,NA,NA,NA,NA,NA
"530","stim/objects/Instruments/grandpiano3.png",338,68,331,0.9,"stim/63.jpeg",6,3,3,2,"Instruments",1,3,"left","left",0.589999914,1,1,1,0,NA,NA,NA,NA,NA,NA,NA,NA,NA,NA,NA,NA,NA,NA,NA,NA,NA,NA,NA,NA,NA,NA,NA,NA
"493","stim/objects/Instruments/frenchhorn3.png",339,68,332,0.9,"stim/61.jpeg",6,1,3,2,"Instruments",1,4,"left","left",0.257999897,1,1,1,0,NA,NA,NA,NA,NA,NA,NA,NA,NA,NA,NA,NA,NA,NA,NA,NA,NA,NA,NA,NA,NA,NA,NA,NA
"432","stim/objects/Instruments/clarinet4.png",340,68,333,0.7,"stim/43.jpeg",4,3,2,1,"Instruments",1,3,"left","left",0.256999969,1,1,1,0,75,68,1,0.7,1,"stim/43.jpeg",4,3,"stim/43.jpeg",3,"left",2.361000061,2,2,0.836000204,3,1.20600009,75,1,0,0,1,1,0
"284","stim/objects/HouseObjects/cushion3.png",341,68,334,0.7,"stim/33.jpeg",3,3,2,2,"HouseObjects",2,1,"right","left",0.373999834,0,0,1,0,NA,NA,NA,NA,NA,NA,NA,NA,NA,NA,NA,NA,NA,NA,NA,NA,NA,NA,NA,NA,NA,NA,NA,NA
"299","stim/objects/HouseObjects/doormat3.png",342,68,335,0.9,"stim/52.jpeg",5,2,3,2,"HouseObjects",2,1,"right","right",0.677000046,1,1,1,0,NA,NA,NA,NA,NA,NA,NA,NA,NA,NA,NA,NA,NA,NA,NA,NA,NA,NA,NA,NA,NA,NA,NA,NA
"256","stim/objects/HouseObjects/blender3.png",343,68,336,0.5,"stim/23.jpeg",2,3,1,2,"HouseObjects",2,2,"right","right",0.697000027,1,1,1,0,NA,NA,NA,NA,NA,NA,NA,NA,NA,NA,NA,NA,NA,NA,NA,NA,NA,NA,NA,NA,NA,NA,NA,NA
"331","stim/objects/HouseObjects/flyswatter3.png",344,68,337,0.9,"stim/54.jpeg",5,4,3,2,"HouseObjects",2,4,"right","right",0.429999828,1,1,1,0,NA,NA,NA,NA,NA,NA,NA,NA,NA,NA,NA,NA,NA,NA,NA,NA,NA,NA,NA,NA,NA,NA,NA,NA
"463","stim/objects/Instruments/flute3.png",345,68,338,0.9,"stim/62.jpeg",6,2,3,2,"Instruments",1,3,"left","",NA,0,0,1,0,NA,NA,NA,NA,NA,NA,NA,NA,NA,NA,NA,NA,NA,NA,NA,NA,NA,NA,NA,NA,NA,NA,NA,NA
"393","stim/objects/HouseObjects/lintroller4.png",346,68,339,0.1,"stim/62.jpeg",6,2,3,1,"HouseObjects",2,4,"right","right",0.686999798,1,1,1,0,13,68,1,0.1,2,"stim/62.jpeg",6,2,"stim/62.jpeg",4,"right",1.065000057,2,2,1.690000296,1,3.925000191,13,0,1,NA,0,NA,0
"396","stim/objects/HouseObjects/pan3.png",347,68,340,0.7,"stim/32.jpeg",3,2,2,1,"HouseObjects",2,2,"right","left",0.641999722,0,0,1,0,191,68,1,0.7,2,"stim/32.jpeg",3,2,"stim/32.jpeg",2,"right",1.346000195,1,3,1.093000174,2,0.72900033,191,0,0,NA,1,NA,0
"332","stim/objects/HouseObjects/flyswatter3.png",348,68,341,0.9,"stim/54.jpeg",5,4,3,2,"HouseObjects",2,2,"right","right",0.654000044,1,1,1,0,NA,NA,NA,NA,NA,NA,NA,NA,NA,NA,NA,NA,NA,NA,NA,NA,NA,NA,NA,NA,NA,NA,NA,NA
"480","stim/objects/Instruments/flutetrans3.png",349,68,342,0.9,"stim/63.jpeg",6,3,3,2,"Instruments",1,4,"left","left",0.863999844,1,1,1,0,NA,NA,NA,NA,NA,NA,NA,NA,NA,NA,NA,NA,NA,NA,NA,NA,NA,NA,NA,NA,NA,NA,NA,NA
"246","stim/objects/HouseObjects/ballofstring4.png",350,68,343,0.7,"stim/34.jpeg",3,4,2,1,"HouseObjects",2,4,"right","right",0.600999832,1,1,1,0,162,68,1,0.7,2,"stim/34.jpeg",3,4,"stim/34.jpeg",4,"right",3.704000235,2,2,0.343000174,2,1.059000015,162,0,0,NA,0,NA,0
"255","stim/objects/HouseObjects/bleachbottle4.png",351,68,344,0.7,"stim/33.jpeg",3,3,2,1,"HouseObjects",2,2,"right","left",0.505999804,0,0,1,0,151,68,1,0.7,2,"stim/33.jpeg",3,3,"stim/33.jpeg",2,"right",0.804000139,2,2,1.005000353,3,1.108000278,151,0,0,NA,0,NA,0
"498","stim/objects/Instruments/frenchhorn3.png",352,68,345,0.9,"stim/63.jpeg",6,3,3,2,"Instruments",1,2,"left","right",0.57400012,0,0,1,0,NA,NA,NA,NA,NA,NA,NA,NA,NA,NA,NA,NA,NA,NA,NA,NA,NA,NA,NA,NA,NA,NA,NA,NA
"253","stim/objects/HouseObjects/bleachbottle3.png",353,68,346,0.5,"stim/11.jpeg",1,1,1,2,"HouseObjects",2,1,"right","left",0.804999828,0,0,1,0,NA,NA,NA,NA,NA,NA,NA,NA,NA,NA,NA,NA,NA,NA,NA,NA,NA,NA,NA,NA,NA,NA,NA,NA
"550","stim/objects/Instruments/keyboard4.png",354,68,347,0.1,"stim/52.jpeg",5,2,3,1,"Instruments",1,4,"left","right",0.398000002,0,0,1,0,24,68,1,0.1,1,"stim/52.jpeg",5,2,"stim/52.jpeg",4,"right",0.754000187,1,1,1.539000273,1,1.641000271,24,0,0,NA,0,NA,0
"250","stim/objects/HouseObjects/basket3.png",355,68,348,0.5,"stim/14.jpeg",1,4,1,2,"HouseObjects",2,1,"right","right",0.400000095,1,1,1,0,NA,NA,NA,NA,NA,NA,NA,NA,NA,NA,NA,NA,NA,NA,NA,NA,NA,NA,NA,NA,NA,NA,NA,NA
"347","stim/objects/HouseObjects/garbagebin3.png",356,68,349,0.9,"stim/54.jpeg",5,4,3,2,"HouseObjects",2,3,"right","left",0.427999973,0,0,1,0,NA,NA,NA,NA,NA,NA,NA,NA,NA,NA,NA,NA,NA,NA,NA,NA,NA,NA,NA,NA,NA,NA,NA,NA
"348","stim/objects/HouseObjects/garbagebin3.png",357,68,350,0.9,"stim/54.jpeg",5,4,3,2,"HouseObjects",2,2,"right","right",0.433000088,1,1,1,0,NA,NA,NA,NA,NA,NA,NA,NA,NA,NA,NA,NA,NA,NA,NA,NA,NA,NA,NA,NA,NA,NA,NA,NA
"377","stim/objects/HouseObjects/glassmop4.png",358,68,351,0.9,"stim/54.jpeg",5,4,3,1,"HouseObjects",2,3,"right","right",0.122999907,1,1,1,0,136,68,1,0.9,2,"stim/54.jpeg",5,4,"stim/54.jpeg",3,"right",1.235000134,1,2,2.27300024,1,0.836000204,136,0,0,NA,0,NA,0
"247","stim/objects/HouseObjects/barbecuelighter3.png",359,68,352,0.5,"stim/13.jpeg",1,3,1,2,"HouseObjects",2,3,"right","left",0.625999928,0,0,1,0,NA,NA,NA,NA,NA,NA,NA,NA,NA,NA,NA,NA,NA,NA,NA,NA,NA,NA,NA,NA,NA,NA,NA,NA
"454","stim/objects/Instruments/electricguitar3.png",360,68,353,0.7,"stim/43.jpeg",4,3,2,2,"Instruments",1,4,"left","right",0.280999899,0,0,1,0,NA,NA,NA,NA,NA,NA,NA,NA,NA,NA,NA,NA,NA,NA,NA,NA,NA,NA,NA,NA,NA,NA,NA,NA
"315","stim/objects/HouseObjects/dustpan3.png",361,68,354,0.9,"stim/52.jpeg",5,2,3,2,"HouseObjects",2,1,"right","left",0.044999838,0,0,1,0,NA,NA,NA,NA,NA,NA,NA,NA,NA,NA,NA,NA,NA,NA,NA,NA,NA,NA,NA,NA,NA,NA,NA,NA
"464","stim/objects/Instruments/flute3.png",362,68,355,0.9,"stim/61.jpeg",6,1,3,2,"Instruments",1,2,"left","right",0.30099988,0,0,1,0,NA,NA,NA,NA,NA,NA,NA,NA,NA,NA,NA,NA,NA,NA,NA,NA,NA,NA,NA,NA,NA,NA,NA,NA
"333","stim/objects/HouseObjects/flyswatter3.png",363,68,356,0.9,"stim/53.jpeg",5,3,3,2,"HouseObjects",2,3,"right","left",0.002000093,0,0,1,0,NA,NA,NA,NA,NA,NA,NA,NA,NA,NA,NA,NA,NA,NA,NA,NA,NA,NA,NA,NA,NA,NA,NA,NA
"482","stim/objects/Instruments/flutetrans3.png",364,68,357,0.9,"stim/63.jpeg",6,3,3,2,"Instruments",1,3,"left","right",0.138999939,0,0,1,0,NA,NA,NA,NA,NA,NA,NA,NA,NA,NA,NA,NA,NA,NA,NA,NA,NA,NA,NA,NA,NA,NA,NA,NA
"513","stim/objects/Instruments/gong3.png",365,68,358,0.9,"stim/61.jpeg",6,1,3,2,"Instruments",1,1,"left","left",0.368000031,1,1,1,0,NA,NA,NA,NA,NA,NA,NA,NA,NA,NA,NA,NA,NA,NA,NA,NA,NA,NA,NA,NA,NA,NA,NA,NA
"316","stim/objects/HouseObjects/dustpan3.png",366,68,359,0.9,"stim/51.jpeg",5,1,3,2,"HouseObjects",2,2,"right","left",0.391000032,0,0,1,0,NA,NA,NA,NA,NA,NA,NA,NA,NA,NA,NA,NA,NA,NA,NA,NA,NA,NA,NA,NA,NA,NA,NA,NA
"300","stim/objects/HouseObjects/doormat3.png",367,68,360,0.9,"stim/52.jpeg",5,2,3,2,"HouseObjects",2,2,"right","right",0.470999956,1,1,1,0,NA,NA,NA,NA,NA,NA,NA,NA,NA,NA,NA,NA,NA,NA,NA,NA,NA,NA,NA,NA,NA,NA,NA,NA
"358","stim/objects/HouseObjects/garbagebin4.png",368,68,361,0.9,"stim/52.jpeg",5,2,3,1,"HouseObjects",2,1,"right","",NA,0,0,1,0,50,68,1,0.9,2,"stim/52.jpeg",5,2,"stim/52.jpeg",1,"right",2.002000093,1,3,5.075000048,3,1.925000191,50,0,0,NA,0,NA,0
"287","stim/objects/HouseObjects/dishsoap3.png",369,68,362,0.7,"stim/34.jpeg",3,4,2,2,"HouseObjects",2,4,"right","left",0.748999834,0,0,1,0,NA,NA,NA,NA,NA,NA,NA,NA,NA,NA,NA,NA,NA,NA,NA,NA,NA,NA,NA,NA,NA,NA,NA,NA
"308","stim/objects/HouseObjects/dustpan3.png",370,68,363,0.9,"stim/54.jpeg",5,4,3,2,"HouseObjects",2,2,"right","left",0.526000023,0,0,1,0,NA,NA,NA,NA,NA,NA,NA,NA,NA,NA,NA,NA,NA,NA,NA,NA,NA,NA,NA,NA,NA,NA,NA,NA
"499","stim/objects/Instruments/frenchhorn3.png",371,68,364,0.9,"stim/63.jpeg",6,3,3,2,"Instruments",1,1,"left","left",0.035999775,1,1,1,0,NA,NA,NA,NA,NA,NA,NA,NA,NA,NA,NA,NA,NA,NA,NA,NA,NA,NA,NA,NA,NA,NA,NA,NA
"366","stim/objects/HouseObjects/glass3.png",372,68,365,0.9,"stim/53.jpeg",5,3,3,2,"HouseObjects",2,2,"right","left",0.271999836,0,0,1,0,NA,NA,NA,NA,NA,NA,NA,NA,NA,NA,NA,NA,NA,NA,NA,NA,NA,NA,NA,NA,NA,NA,NA,NA
"265","stim/objects/HouseObjects/bucket3.png",373,68,366,0.5,"stim/22.jpeg",2,2,1,2,"HouseObjects",2,3,"right","right",0.001999855,1,1,1,0,NA,NA,NA,NA,NA,NA,NA,NA,NA,NA,NA,NA,NA,NA,NA,NA,NA,NA,NA,NA,NA,NA,NA,NA
"444","stim/objects/Instruments/drums3.png",374,68,367,0.7,"stim/44.jpeg",4,4,2,2,"Instruments",1,4,"left","left",0.439999819,1,1,1,0,NA,NA,NA,NA,NA,NA,NA,NA,NA,NA,NA,NA,NA,NA,NA,NA,NA,NA,NA,NA,NA,NA,NA,NA
"335","stim/objects/HouseObjects/flyswatter3.png",375,68,368,0.9,"stim/52.jpeg",5,2,3,2,"HouseObjects",2,2,"right","right",0.429999828,1,1,1,0,NA,NA,NA,NA,NA,NA,NA,NA,NA,NA,NA,NA,NA,NA,NA,NA,NA,NA,NA,NA,NA,NA,NA,NA
"483","stim/objects/Instruments/flutetrans3.png",376,68,369,0.9,"stim/61.jpeg",6,1,3,2,"Instruments",1,2,"left","right",0.421999931,0,0,1,0,NA,NA,NA,NA,NA,NA,NA,NA,NA,NA,NA,NA,NA,NA,NA,NA,NA,NA,NA,NA,NA,NA,NA,NA
"561","stim/objects/Instruments/musicstand3.png",377,68,370,0.3,"stim/31.jpeg",3,1,2,1,"Instruments",1,2,"left","right",0.225999832,0,0,1,0,59,68,1,0.3,1,"stim/31.jpeg",3,1,"stim/31.jpeg",2,"right",1.171000242,2,2,2.094000101,2,1.930000067,59,0,0,NA,1,NA,0
"382","stim/objects/HouseObjects/handvacuum3.png",378,68,371,0.5,"stim/11.jpeg",1,1,1,1,"HouseObjects",2,4,"right","left",0.381999969,0,0,1,0,3,68,1,0.5,1,"stim/11.jpeg",1,1,"stim/11.jpeg",4,"left",2.653000116,2,3,2.875,3,4.272000313,3,1,0,0,0,0,0
"559","stim/objects/Instruments/musicsheet3.png",379,68,372,0.5,"stim/21.jpeg",2,1,1,1,"Instruments",1,1,"left","left",0.343999863,1,1,1,0,108,68,1,0.5,2,"stim/21.jpeg",2,1,"stim/21.jpeg",1,"right",2.072000027,2,4,2.71900034,4,3.111000299,108,0,0,NA,0,NA,0
"445","stim/objects/Instruments/drums3.png",380,68,373,0.7,"stim/41.jpeg",4,1,2,2,"Instruments",1,3,"left","left",0.363999844,1,1,1,0,NA,NA,NA,NA,NA,NA,NA,NA,NA,NA,NA,NA,NA,NA,NA,NA,NA,NA,NA,NA,NA,NA,NA,NA
"465","stim/objects/Instruments/flute3.png",381,68,374,0.9,"stim/63.jpeg",6,3,3,2,"Instruments",1,3,"left","left",0.424999952,1,1,1,0,NA,NA,NA,NA,NA,NA,NA,NA,NA,NA,NA,NA,NA,NA,NA,NA,NA,NA,NA,NA,NA,NA,NA,NA
"317","stim/objects/HouseObjects/dustpan3.png",382,68,375,0.9,"stim/53.jpeg",5,3,3,2,"HouseObjects",2,4,"right","left",0.339999914,0,0,1,0,NA,NA,NA,NA,NA,NA,NA,NA,NA,NA,NA,NA,NA,NA,NA,NA,NA,NA,NA,NA,NA,NA,NA,NA
"257","stim/objects/HouseObjects/blender3.png",383,68,376,0.5,"stim/22.jpeg",2,2,1,2,"HouseObjects",2,2,"right","left",0.239000082,0,0,1,0,NA,NA,NA,NA,NA,NA,NA,NA,NA,NA,NA,NA,NA,NA,NA,NA,NA,NA,NA,NA,NA,NA,NA,NA
"466","stim/objects/Instruments/flute3.png",384,68,377,0.9,"stim/61.jpeg",6,1,3,2,"Instruments",1,1,"left","right",0.723999977,0,0,1,0,NA,NA,NA,NA,NA,NA,NA,NA,NA,NA,NA,NA,NA,NA,NA,NA,NA,NA,NA,NA,NA,NA,NA,NA
"310","stim/objects/HouseObjects/dustpan3.png",385,68,378,0.9,"stim/54.jpeg",5,4,3,2,"HouseObjects",2,3,"right","left",0.506000042,0,0,1,0,NA,NA,NA,NA,NA,NA,NA,NA,NA,NA,NA,NA,NA,NA,NA,NA,NA,NA,NA,NA,NA,NA,NA,NA
"456","stim/objects/Instruments/flute3.png",386,68,379,0.9,"stim/63.jpeg",6,3,3,2,"Instruments",1,2,"left","",NA,0,0,1,0,NA,NA,NA,NA,NA,NA,NA,NA,NA,NA,NA,NA,NA,NA,NA,NA,NA,NA,NA,NA,NA,NA,NA,NA
"307","stim/objects/HouseObjects/doormat4.png",387,68,380,0.9,"stim/53.jpeg",5,3,3,1,"HouseObjects",2,1,"right","right",0.339999914,1,1,1,0,138,68,1,0.9,2,"stim/53.jpeg",5,3,"stim/53.jpeg",1,"left",1.221000195,4,1,3.329000235,4,4.529000044,138,1,0,0,0,0,0
"457","stim/objects/Instruments/flute3.png",388,68,381,0.9,"stim/62.jpeg",6,2,3,2,"Instruments",1,3,"left","left",0.502000093,1,1,1,0,NA,NA,NA,NA,NA,NA,NA,NA,NA,NA,NA,NA,NA,NA,NA,NA,NA,NA,NA,NA,NA,NA,NA,NA
"411","stim/objects/Instruments/acousticguitar4.png",389,68,382,0.3,"stim/33.jpeg",3,3,2,1,"Instruments",1,3,"left","left",0.421999931,1,1,1,0,81,68,1,0.3,1,"stim/33.jpeg",3,3,"stim/33.jpeg",3,"right",0.935000181,2,1,0.937000036,2,0.522000074,81,0,0,NA,0,NA,0
"302","stim/objects/HouseObjects/doormat3.png",390,68,383,0.9,"stim/52.jpeg",5,2,3,2,"HouseObjects",2,4,"right","right",0.45299983,1,1,1,0,NA,NA,NA,NA,NA,NA,NA,NA,NA,NA,NA,NA,NA,NA,NA,NA,NA,NA,NA,NA,NA,NA,NA,NA
"368","stim/objects/HouseObjects/glass3.png",391,68,384,0.9,"stim/53.jpeg",5,3,3,2,"HouseObjects",2,3,"right","right",0.250999928,1,1,1,0,NA,NA,NA,NA,NA,NA,NA,NA,NA,NA,NA,NA,NA,NA,NA,NA,NA,NA,NA,NA,NA,NA,NA,NA
"417","stim/objects/Instruments/banjo4.png",392,68,385,0.3,"stim/31.jpeg",3,1,2,1,"Instruments",1,3,"left","right",0.230000019,0,0,1,0,103,68,1,0.3,1,"stim/31.jpeg",3,1,"stim/31.jpeg",3,"right",2.546000242,3,3,1.170000076,2,0.836000204,103,0,0,NA,0,NA,0
"515","stim/objects/Instruments/gong3.png",393,68,386,0.9,"stim/63.jpeg",6,3,3,2,"Instruments",1,4,"left","right",0.360999823,0,0,1,0,NA,NA,NA,NA,NA,NA,NA,NA,NA,NA,NA,NA,NA,NA,NA,NA,NA,NA,NA,NA,NA,NA,NA,NA
"280","stim/objects/HouseObjects/coffee3.png",394,68,387,0.7,"stim/32.jpeg",3,2,2,2,"HouseObjects",2,2,"right","left",0.307999849,0,0,1,0,NA,NA,NA,NA,NA,NA,NA,NA,NA,NA,NA,NA,NA,NA,NA,NA,NA,NA,NA,NA,NA,NA,NA,NA
"254","stim/objects/HouseObjects/bleachbottle3.png",395,68,388,0.5,"stim/14.jpeg",1,4,1,2,"HouseObjects",2,3,"right","left",0.009999752,0,0,1,0,NA,NA,NA,NA,NA,NA,NA,NA,NA,NA,NA,NA,NA,NA,NA,NA,NA,NA,NA,NA,NA,NA,NA,NA
"381","stim/objects/HouseObjects/handbrush4.png",396,68,389,0.9,"stim/52.jpeg",5,2,3,1,"HouseObjects",2,1,"right","right",0.399999857,1,1,1,0,112,68,1,0.9,2,"stim/52.jpeg",5,2,"stim/52.jpeg",1,"left",1.059000015,3,1,4.113000154,4,1.40500021,112,1,0,0,0,0,0
"427","stim/objects/Instruments/chime3.png",397,68,390,0.5,"stim/22.jpeg",2,2,1,2,"Instruments",1,1,"left","right",0.460999966,0,0,1,0,NA,NA,NA,NA,NA,NA,NA,NA,NA,NA,NA,NA,NA,NA,NA,NA,NA,NA,NA,NA,NA,NA,NA,NA
"450","stim/objects/Instruments/electricdrumset3.png",398,68,391,0.7,"stim/44.jpeg",4,4,2,2,"Instruments",1,1,"left","left",0.405999899,1,1,1,0,NA,NA,NA,NA,NA,NA,NA,NA,NA,NA,NA,NA,NA,NA,NA,NA,NA,NA,NA,NA,NA,NA,NA,NA
"292","stim/objects/HouseObjects/doormat3.png",399,68,392,0.9,"stim/51.jpeg",5,1,3,2,"HouseObjects",2,2,"right","right",0.280999899,1,1,1,0,NA,NA,NA,NA,NA,NA,NA,NA,NA,NA,NA,NA,NA,NA,NA,NA,NA,NA,NA,NA,NA,NA,NA,NA
"501","stim/objects/Instruments/frenchhorn3.png",400,68,393,0.9,"stim/62.jpeg",6,2,3,2,"Instruments",1,2,"left","left",0.481999874,1,1,1,0,NA,NA,NA,NA,NA,NA,NA,NA,NA,NA,NA,NA,NA,NA,NA,NA,NA,NA,NA,NA,NA,NA,NA,NA
"386","stim/objects/HouseObjects/ironingboard3.png",401,68,394,0.5,"stim/24.jpeg",2,4,1,1,"HouseObjects",2,1,"right","right",0.443999767,1,1,1,0,174,68,1,0.5,2,"stim/24.jpeg",2,4,"stim/24.jpeg",1,"right",2.423000097,3,3,1.289000273,2,2.726000071,174,0,0,NA,0,NA,0
"350","stim/objects/HouseObjects/garbagebin3.png",402,68,395,0.9,"stim/51.jpeg",5,1,3,2,"HouseObjects",2,4,"right","left",0.252999783,0,0,1,0,NA,NA,NA,NA,NA,NA,NA,NA,NA,NA,NA,NA,NA,NA,NA,NA,NA,NA,NA,NA,NA,NA,NA,NA
"399","stim/objects/HouseObjects/pitcher4.png",403,68,396,0.1,"stim/61.jpeg",6,1,3,1,"HouseObjects",2,4,"right","right",0.825999975,1,1,1,0,70,68,1,0.1,2,"stim/61.jpeg",6,1,"stim/61.jpeg",4,"right",4.012000084,2,1,1.771000147,4,2.637000084,70,0,1,NA,1,NA,0
"259","stim/objects/HouseObjects/bottle3.png",404,68,397,0.5,"stim/23.jpeg",2,3,1,2,"HouseObjects",2,3,"right","left",0.519999743,0,0,1,0,NA,NA,NA,NA,NA,NA,NA,NA,NA,NA,NA,NA,NA,NA,NA,NA,NA,NA,NA,NA,NA,NA,NA,NA
"534","stim/objects/Instruments/grandpiano3.png",405,68,398,0.9,"stim/61.jpeg",6,1,3,2,"Instruments",1,1,"left","right",0.434999943,0,0,1,0,NA,NA,NA,NA,NA,NA,NA,NA,NA,NA,NA,NA,NA,NA,NA,NA,NA,NA,NA,NA,NA,NA,NA,NA
"419","stim/objects/Instruments/bassdrum3.png",406,68,399,0.5,"stim/11.jpeg",1,1,1,2,"Instruments",1,3,"left","left",0.381999969,1,1,1,0,NA,NA,NA,NA,NA,NA,NA,NA,NA,NA,NA,NA,NA,NA,NA,NA,NA,NA,NA,NA,NA,NA,NA,NA
"491","stim/objects/Instruments/frenchhorn3.png",407,68,400,0.9,"stim/62.jpeg",6,2,3,2,"Instruments",1,4,"left","right",0.374999762,0,0,1,0,NA,NA,NA,NA,NA,NA,NA,NA,NA,NA,NA,NA,NA,NA,NA,NA,NA,NA,NA,NA,NA,NA,NA,NA
"341","stim/objects/HouseObjects/flyswatter4.png",408,68,401,0.9,"stim/51.jpeg",5,1,3,1,"HouseObjects",2,1,"right","left",0.152999878,0,0,1,0,121,68,1,0.9,2,"stim/51.jpeg",5,1,"stim/51.jpeg",1,"right",1.84100008,3,1,2.009000063,1,1.833000183,121,0,1,NA,1,NA,0
"353","stim/objects/HouseObjects/garbagebin3.png",409,68,402,0.9,"stim/52.jpeg",5,2,3,2,"HouseObjects",2,4,"right","right",0.363000154,1,1,1,0,NA,NA,NA,NA,NA,NA,NA,NA,NA,NA,NA,NA,NA,NA,NA,NA,NA,NA,NA,NA,NA,NA,NA,NA
"273","stim/objects/HouseObjects/clothesdryingrack3.png",410,68,403,0.7,"stim/31.jpeg",3,1,2,2,"HouseObjects",2,1,"right","right",0.63499999,1,1,1,0,NA,NA,NA,NA,NA,NA,NA,NA,NA,NA,NA,NA,NA,NA,NA,NA,NA,NA,NA,NA,NA,NA,NA,NA
"467","stim/objects/Instruments/flute3.png",411,68,404,0.9,"stim/62.jpeg",6,2,3,2,"Instruments",1,3,"left","right",0.519999981,0,0,1,0,NA,NA,NA,NA,NA,NA,NA,NA,NA,NA,NA,NA,NA,NA,NA,NA,NA,NA,NA,NA,NA,NA,NA,NA
"252","stim/objects/HouseObjects/basket4.png",412,68,405,0.7,"stim/32.jpeg",3,2,2,1,"HouseObjects",2,2,"right","left",0.579999924,0,0,1,0,78,68,1,0.7,2,"stim/32.jpeg",3,2,"stim/32.jpeg",2,"right",0.901000023,2,2,1.919000149,3,1.887000084,78,0,1,NA,0,NA,0
"241","stim/objects/HouseObjects/ashtray3.png",413,68,406,0.5,"stim/14.jpeg",1,4,1,2,"HouseObjects",2,1,"right","",NA,0,0,1,0,NA,NA,NA,NA,NA,NA,NA,NA,NA,NA,NA,NA,NA,NA,NA,NA,NA,NA,NA,NA,NA,NA,NA,NA
"318","stim/objects/HouseObjects/dustpan3.png",414,68,407,0.9,"stim/53.jpeg",5,3,3,2,"HouseObjects",2,1,"right","right",0.205999851,1,1,1,0,NA,NA,NA,NA,NA,NA,NA,NA,NA,NA,NA,NA,NA,NA,NA,NA,NA,NA,NA,NA,NA,NA,NA,NA
"281","stim/objects/HouseObjects/coffee3.png",415,68,408,0.7,"stim/33.jpeg",3,3,2,2,"HouseObjects",2,1,"right","left",0.522000074,0,0,1,0,NA,NA,NA,NA,NA,NA,NA,NA,NA,NA,NA,NA,NA,NA,NA,NA,NA,NA,NA,NA,NA,NA,NA,NA
"326","stim/objects/HouseObjects/flyswatter3.png",416,68,409,0.9,"stim/51.jpeg",5,1,3,2,"HouseObjects",2,3,"right","right",0.118000031,1,1,1,0,NA,NA,NA,NA,NA,NA,NA,NA,NA,NA,NA,NA,NA,NA,NA,NA,NA,NA,NA,NA,NA,NA,NA,NA
"327","stim/objects/HouseObjects/flyswatter3.png",417,68,410,0.9,"stim/52.jpeg",5,2,3,2,"HouseObjects",2,1,"right","right",0.187999964,1,1,1,0,NA,NA,NA,NA,NA,NA,NA,NA,NA,NA,NA,NA,NA,NA,NA,NA,NA,NA,NA,NA,NA,NA,NA,NA
"446","stim/objects/Instruments/drums3.png",418,68,411,0.7,"stim/43.jpeg",4,3,2,2,"Instruments",1,3,"left","left",0.67599988,1,1,1,0,NA,NA,NA,NA,NA,NA,NA,NA,NA,NA,NA,NA,NA,NA,NA,NA,NA,NA,NA,NA,NA,NA,NA,NA
"438","stim/objects/Instruments/cymbal3.png",419,68,412,0.7,"stim/41.jpeg",4,1,2,2,"Instruments",1,3,"left","right",0.234999895,0,0,1,0,NA,NA,NA,NA,NA,NA,NA,NA,NA,NA,NA,NA,NA,NA,NA,NA,NA,NA,NA,NA,NA,NA,NA,NA
"405","stim/objects/HouseObjects/wateringcan4.png",420,68,413,0.1,"stim/64.jpeg",6,4,3,1,"HouseObjects",2,2,"right","right",0.237999916,1,1,1,0,163,68,1,0.1,2,"stim/64.jpeg",6,4,"stim/64.jpeg",2,"left",1.912000179,2,1,1.194000006,2,0.502000093,163,1,0,0,1,1,0
"523","stim/objects/Instruments/gong4.png",421,68,414,0.1,"stim/54.jpeg",5,4,3,1,"Instruments",1,2,"left","left",0.325999975,1,1,1,0,93,68,1,0.1,1,"stim/54.jpeg",5,4,"stim/54.jpeg",2,"left",1.202000141,4,3,2.367000103,1,2.474000216,93,1,0,0,0,0,0
"553","stim/objects/Instruments/maraca3.png",422,68,415,0.5,"stim/22.jpeg",2,2,1,1,"Instruments",1,3,"left","left",0.412999868,1,1,1,0,106,68,1,0.5,2,"stim/22.jpeg",2,2,"stim/22.jpeg",3,"left",0.83100009,4,1,3.43900013,2,1.468000174,106,1,0,0,0,0,0
"516","stim/objects/Instruments/gong3.png",423,68,416,0.9,"stim/61.jpeg",6,1,3,2,"Instruments",1,4,"left","right",0.350999832,0,0,1,0,NA,NA,NA,NA,NA,NA,NA,NA,NA,NA,NA,NA,NA,NA,NA,NA,NA,NA,NA,NA,NA,NA,NA,NA
"565","stim/objects/Instruments/violin3.png",424,68,417,0.3,"stim/33.jpeg",3,3,2,1,"Instruments",1,1,"left","left",0.587999821,1,1,1,0,182,68,1,0.3,1,"stim/33.jpeg",3,3,"stim/33.jpeg",1,"right",0.480000019,1,2,2.312000275,1,1.158000231,182,0,0,NA,1,NA,0
"406","stim/objects/Instruments/accordion3.png",425,68,418,0.5,"stim/12.jpeg",1,2,1,2,"Instruments",1,4,"left","left",0.132999897,1,1,1,0,NA,NA,NA,NA,NA,NA,NA,NA,NA,NA,NA,NA,NA,NA,NA,NA,NA,NA,NA,NA,NA,NA,NA,NA
"413","stim/objects/Instruments/balalaika3.png",426,68,419,0.5,"stim/14.jpeg",1,4,1,2,"Instruments",1,1,"left","right",0.232999802,0,0,1,0,NA,NA,NA,NA,NA,NA,NA,NA,NA,NA,NA,NA,NA,NA,NA,NA,NA,NA,NA,NA,NA,NA,NA,NA
"313","stim/objects/HouseObjects/dustpan3.png",427,68,420,0.9,"stim/53.jpeg",5,3,3,2,"HouseObjects",2,4,"right","left",0.288999796,0,0,1,0,NA,NA,NA,NA,NA,NA,NA,NA,NA,NA,NA,NA,NA,NA,NA,NA,NA,NA,NA,NA,NA,NA,NA,NA
"455","stim/objects/Instruments/electricguitar4.png",428,68,421,0.7,"stim/41.jpeg",4,1,2,1,"Instruments",1,3,"left","right",0.35800004,0,0,1,0,173,68,1,0.7,1,"stim/41.jpeg",4,1,"stim/41.jpeg",3,"right",0.98300004,3,2,3.130000114,3,1.982000351,173,0,0,NA,1,NA,0
"567","stim/objects/Instruments/vuvuzela3.png",429,68,422,0.3,"stim/34.jpeg",3,4,2,1,"Instruments",1,4,"left","right",0.40899992,0,0,1,0,180,68,1,0.3,1,"stim/34.jpeg",3,4,"stim/34.jpeg",4,"left",1.261000156,4,2,3.242000103,3,3.302000284,180,1,0,0,0,0,0
"426","stim/objects/Instruments/cello4.png",430,68,423,0.7,"stim/41.jpeg",4,1,2,1,"Instruments",1,1,"left","left",0.085000038,1,1,1,0,83,68,1,0.7,1,"stim/41.jpeg",4,1,"stim/41.jpeg",1,"right",1.835999966,2,1,1.696000338,3,1.17200017,83,0,1,NA,0,NA,0
"394","stim/objects/HouseObjects/match3.png",431,68,424,0.5,"stim/24.jpeg",2,4,1,1,"HouseObjects",2,3,"right","left",0.326999903,0,0,1,0,176,68,1,0.5,2,"stim/24.jpeg",2,4,"stim/24.jpeg",3,"left",4.509000063,4,4,5.146000147,3,4.64800024,176,1,1,1,1,1,0
"485","stim/objects/Instruments/flutetrans3.png",432,68,425,0.9,"stim/63.jpeg",6,3,3,2,"Instruments",1,1,"left","left",0.592999935,1,1,1,0,NA,NA,NA,NA,NA,NA,NA,NA,NA,NA,NA,NA,NA,NA,NA,NA,NA,NA,NA,NA,NA,NA,NA,NA
"320","stim/objects/HouseObjects/dustpan3.png",433,68,426,0.9,"stim/52.jpeg",5,2,3,2,"HouseObjects",2,4,"right","left",0.246000051,0,0,1,0,NA,NA,NA,NA,NA,NA,NA,NA,NA,NA,NA,NA,NA,NA,NA,NA,NA,NA,NA,NA,NA,NA,NA,NA
"242","stim/objects/HouseObjects/ashtray3.png",434,68,427,0.5,"stim/11.jpeg",1,1,1,2,"HouseObjects",2,4,"right","right",0.697999954,1,1,1,0,NA,NA,NA,NA,NA,NA,NA,NA,NA,NA,NA,NA,NA,NA,NA,NA,NA,NA,NA,NA,NA,NA,NA,NA
"385","stim/objects/HouseObjects/iron4.png",435,68,428,0.9,"stim/54.jpeg",5,4,3,1,"HouseObjects",2,2,"right","left",0.551000118,0,0,1,0,66,68,1,0.9,2,"stim/54.jpeg",5,4,"stim/54.jpeg",2,"left",1.330000162,2,1,1.641000271,2,0.852000237,66,1,0,0,1,1,0
"414","stim/objects/Instruments/balalaika4.png",436,68,429,0.3,"stim/34.jpeg",3,4,2,1,"Instruments",1,2,"left","right",0.733999968,0,0,1,0,29,68,1,0.3,1,"stim/34.jpeg",3,4,"stim/34.jpeg",2,"left",0.916000366,4,3,3.394000053,1,3.490000248,29,1,0,0,0,0,0
"269","stim/objects/HouseObjects/clock3.png",437,68,430,0.5,"stim/22.jpeg",2,2,1,2,"HouseObjects",2,2,"right","right",0.809000015,1,1,1,0,NA,NA,NA,NA,NA,NA,NA,NA,NA,NA,NA,NA,NA,NA,NA,NA,NA,NA,NA,NA,NA,NA,NA,NA
"434","stim/objects/Instruments/cornet3.png",438,68,431,0.5,"stim/23.jpeg",2,3,1,2,"Instruments",1,3,"left","left",0.546000004,1,1,1,0,NA,NA,NA,NA,NA,NA,NA,NA,NA,NA,NA,NA,NA,NA,NA,NA,NA,NA,NA,NA,NA,NA,NA,NA
"566","stim/objects/Instruments/violin4.png",439,68,432,0.9,"stim/64.jpeg",6,4,3,1,"Instruments",1,3,"left","left",0.395999908,1,1,1,0,118,68,1,0.9,1,"stim/64.jpeg",6,4,"stim/64.jpeg",3,"right",1.30700016,4,3,2.384000063,1,1.923000336,118,0,0,NA,0,NA,0
"541","stim/objects/Instruments/guitarcase3.png",440,68,433,0.5,"stim/13.jpeg",1,3,1,1,"Instruments",1,1,"left","left",0.34499979,1,1,1,0,148,68,1,0.5,1,"stim/13.jpeg",1,3,"stim/13.jpeg",1,"right",0.624000072,1,1,1.306000233,1,1.619000196,148,0,0,NA,1,NA,0
"369","stim/objects/HouseObjects/glass3.png",441,68,434,0.9,"stim/53.jpeg",5,3,3,2,"HouseObjects",2,2,"right","right",0.395999908,1,1,1,0,NA,NA,NA,NA,NA,NA,NA,NA,NA,NA,NA,NA,NA,NA,NA,NA,NA,NA,NA,NA,NA,NA,NA,NA
"536","stim/objects/Instruments/grandpiano3.png",442,68,435,0.9,"stim/63.jpeg",6,3,3,2,"Instruments",1,3,"left","left",0.555999994,1,1,1,0,NA,NA,NA,NA,NA,NA,NA,NA,NA,NA,NA,NA,NA,NA,NA,NA,NA,NA,NA,NA,NA,NA,NA,NA
"338","stim/objects/HouseObjects/flyswatter3.png",443,68,436,0.9,"stim/53.jpeg",5,3,3,2,"HouseObjects",2,3,"right","right",0.703999758,1,1,1,0,NA,NA,NA,NA,NA,NA,NA,NA,NA,NA,NA,NA,NA,NA,NA,NA,NA,NA,NA,NA,NA,NA,NA,NA
"387","stim/objects/HouseObjects/ironingboard4.png",444,68,437,0.1,"stim/63.jpeg",6,3,3,1,"HouseObjects",2,4,"right","left",0.713999987,0,0,1,0,15,68,1,0.1,2,"stim/63.jpeg",6,3,"stim/63.jpeg",4,"right",1.272000074,1,1,1.40500021,2,2.745000124,15,0,0,NA,0,NA,0
"296","stim/objects/HouseObjects/doormat3.png",445,68,438,0.9,"stim/52.jpeg",5,2,3,2,"HouseObjects",2,3,"right","left",0.74000001,0,0,1,0,NA,NA,NA,NA,NA,NA,NA,NA,NA,NA,NA,NA,NA,NA,NA,NA,NA,NA,NA,NA,NA,NA,NA,NA
"388","stim/objects/HouseObjects/key3.png",446,68,439,0.5,"stim/21.jpeg",2,1,1,1,"HouseObjects",2,4,"right","right",0.370999813,1,1,1,0,107,68,1,0.5,2,"stim/21.jpeg",2,1,"stim/21.jpeg",4,"left",3.208000183,2,3,2.880000114,4,3.20600009,107,1,0,0,1,1,0
"276","stim/objects/HouseObjects/clothespin3.png",447,68,440,0.7,"stim/31.jpeg",3,1,2,2,"HouseObjects",2,1,"right","left",0.548999786,0,0,1,0,NA,NA,NA,NA,NA,NA,NA,NA,NA,NA,NA,NA,NA,NA,NA,NA,NA,NA,NA,NA,NA,NA,NA,NA
"514","stim/objects/Instruments/gong3.png",448,68,441,0.9,"stim/62.jpeg",6,2,3,2,"Instruments",1,2,"left","left",0.711999893,1,1,1,0,NA,NA,NA,NA,NA,NA,NA,NA,NA,NA,NA,NA,NA,NA,NA,NA,NA,NA,NA,NA,NA,NA,NA,NA
"404","stim/objects/HouseObjects/wateringcan3.png",449,68,442,0.7,"stim/32.jpeg",3,2,2,1,"HouseObjects",2,3,"right","left",0.499000072,0,0,1,0,41,68,1,0.7,2,"stim/32.jpeg",3,2,"stim/32.jpeg",3,"left",1.212000132,4,4,7.157000065,3,3.034000158,41,1,0,0,1,1,0
"285","stim/objects/HouseObjects/cushion3.png",450,68,443,0.7,"stim/34.jpeg",3,4,2,2,"HouseObjects",2,1,"right","left",0.608999968,0,0,1,0,NA,NA,NA,NA,NA,NA,NA,NA,NA,NA,NA,NA,NA,NA,NA,NA,NA,NA,NA,NA,NA,NA,NA,NA
"363","stim/objects/HouseObjects/glass3.png",451,68,444,0.9,"stim/51.jpeg",5,1,3,2,"HouseObjects",2,3,"right","right",0.689999819,1,1,1,0,NA,NA,NA,NA,NA,NA,NA,NA,NA,NA,NA,NA,NA,NA,NA,NA,NA,NA,NA,NA,NA,NA,NA,NA
"392","stim/objects/HouseObjects/lintroller3.png",452,68,445,0.5,"stim/23.jpeg",2,3,1,1,"HouseObjects",2,3,"right","right",0.713999987,1,1,1,0,87,68,1,0.5,2,"stim/23.jpeg",2,3,"stim/23.jpeg",3,"left",1.073000193,3,3,2.853000164,4,2.299000263,87,1,1,1,0,0,0
"355","stim/objects/HouseObjects/garbagebin3.png",453,68,446,0.9,"stim/52.jpeg",5,2,3,2,"HouseObjects",2,1,"right","right",0.676999807,1,1,1,0,NA,NA,NA,NA,NA,NA,NA,NA,NA,NA,NA,NA,NA,NA,NA,NA,NA,NA,NA,NA,NA,NA,NA,NA
"540","stim/objects/Instruments/grandpiano4.png",454,68,447,0.1,"stim/51.jpeg",5,1,3,1,"Instruments",1,4,"left","right",0.473999977,0,0,1,0,45,68,1,0.1,1,"stim/51.jpeg",5,1,"stim/51.jpeg",4,"right",1.621000051,3,1,1.645000219,1,2.578000069,45,0,1,NA,0,NA,0
"437","stim/objects/Instruments/cymbal3.png",455,68,448,0.7,"stim/42.jpeg",4,2,2,2,"Instruments",1,4,"left","left",0.304999828,1,1,1,0,NA,NA,NA,NA,NA,NA,NA,NA,NA,NA,NA,NA,NA,NA,NA,NA,NA,NA,NA,NA,NA,NA,NA,NA
"402","stim/objects/HouseObjects/vacuumcleaner3.png",456,68,449,0.7,"stim/31.jpeg",3,1,2,1,"HouseObjects",2,3,"right","left",0.640999794,0,0,1,0,94,68,1,0.7,2,"stim/31.jpeg",3,1,"stim/31.jpeg",3,"right",1.361000299,1,2,1.376000166,1,1.348999977,94,0,0,NA,0,NA,0
"337","stim/objects/HouseObjects/flyswatter3.png",457,68,450,0.9,"stim/51.jpeg",5,1,3,2,"HouseObjects",2,4,"right","right",0.661999941,1,1,1,0,NA,NA,NA,NA,NA,NA,NA,NA,NA,NA,NA,NA,NA,NA,NA,NA,NA,NA,NA,NA,NA,NA,NA,NA
"487","stim/objects/Instruments/flutetrans3.png",458,68,451,0.9,"stim/61.jpeg",6,1,3,2,"Instruments",1,1,"left","left",0.497999907,1,1,1,0,NA,NA,NA,NA,NA,NA,NA,NA,NA,NA,NA,NA,NA,NA,NA,NA,NA,NA,NA,NA,NA,NA,NA,NA
"560","stim/objects/Instruments/musicsheet4.png",459,68,452,0.9,"stim/61.jpeg",6,1,3,1,"Instruments",1,1,"left","left",0.608999968,1,1,1,0,95,68,1,0.9,1,"stim/61.jpeg",6,1,"stim/61.jpeg",1,"right",3.670000315,1,1,1.537000179,2,2.392000198,95,0,1,NA,0,NA,0
"370","stim/objects/HouseObjects/glass3.png",460,68,453,0.9,"stim/52.jpeg",5,2,3,2,"HouseObjects",2,2,"right","right",0.457999945,1,1,1,0,NA,NA,NA,NA,NA,NA,NA,NA,NA,NA,NA,NA,NA,NA,NA,NA,NA,NA,NA,NA,NA,NA,NA,NA
"462","stim/objects/Instruments/flute3.png",461,68,454,0.9,"stim/64.jpeg",6,4,3,2,"Instruments",1,1,"left","right",0.607999802,0,0,1,0,NA,NA,NA,NA,NA,NA,NA,NA,NA,NA,NA,NA,NA,NA,NA,NA,NA,NA,NA,NA,NA,NA,NA,NA
"398","stim/objects/HouseObjects/pitcher3.png",462,68,455,0.7,"stim/33.jpeg",3,3,2,1,"HouseObjects",2,2,"right","left",0.52699995,0,0,1,0,161,68,1,0.7,2,"stim/33.jpeg",3,3,"stim/33.jpeg",2,"right",1.447000265,1,3,2.298000097,2,0.539000273,161,0,1,NA,1,NA,0
"538","stim/objects/Instruments/grandpiano3.png",463,68,456,0.9,"stim/61.jpeg",6,1,3,2,"Instruments",1,1,"left","left",0.493999958,1,1,1,0,NA,NA,NA,NA,NA,NA,NA,NA,NA,NA,NA,NA,NA,NA,NA,NA,NA,NA,NA,NA,NA,NA,NA,NA
"324","stim/objects/HouseObjects/dustpan4.png",464,68,457,0.9,"stim/54.jpeg",5,4,3,1,"HouseObjects",2,2,"right","right",0.725999832,1,1,1,0,172,68,1,0.9,2,"stim/54.jpeg",5,4,"stim/54.jpeg",2,"right",2.157000303,2,3,2.776000261,2,2.54700017,172,0,0,NA,1,NA,0
"371","stim/objects/HouseObjects/glass3.png",465,68,458,0.9,"stim/52.jpeg",5,2,3,2,"HouseObjects",2,4,"right","right",0.403999805,1,1,1,0,NA,NA,NA,NA,NA,NA,NA,NA,NA,NA,NA,NA,NA,NA,NA,NA,NA,NA,NA,NA,NA,NA,NA,NA
"504","stim/objects/Instruments/frenchhorn3.png",466,68,459,0.9,"stim/63.jpeg",6,3,3,2,"Instruments",1,4,"left","right",0.368999958,0,0,1,0,NA,NA,NA,NA,NA,NA,NA,NA,NA,NA,NA,NA,NA,NA,NA,NA,NA,NA,NA,NA,NA,NA,NA,NA
