"","participant","OvsN","PE_level","object_cat","obj_file","scn_file","corr_scn_cat","corr_scn_inst","scn_file.1","corr_loc","key_resp_id.keys","key_resp_id.rt","key_resp_conf.keys","key_resp_assoc.keys","key_resp_assoc.rt","key_resp_loc.keys","key_resp_loc.rt","trialN","id_acc","assoc.acc","cond_assoc","loc.acc","cond_loc","group"
"1",64,1,0.7,2,"stim/objects/Instruments/banjo2.png","stim/52.jpeg",5,2,"stim/52.jpeg",1,"left",1.694999933,4,2,4.890000105,1,1.63499999,1,1,1,1,1,1,0
"2",64,1,0.7,1,"stim/objects/HouseObjects/dishsoap2.png","stim/61.jpeg",6,1,"stim/61.jpeg",1,"left",2.34499979,3,2,8.698999882,1,2.980999947,2,1,0,0,1,1,0
"3",64,1,0.5,1,"stim/objects/HouseObjects/iron.png","stim/33.jpeg",3,3,"stim/33.jpeg",2,"right",2.343999863,1,1,6.101000071,2,1.164000034,3,0,0,NA,1,NA,0
"4",64,1,0.5,1,"stim/objects/Instruments/harp.png","stim/34.jpeg",3,4,"stim/34.jpeg",2,"left",2.082000017,3,2,8.746999979,3,0.815000057,4,1,0,0,0,0,0
"5",64,2,0,1,"stim/objects/HouseObjects/clothesdryingrack3.png","",0,0,"",0,"right",2.483999968,NA,NA,NA,NA,NA,5,1,NA,NA,NA,NA,0
"6",64,1,0.9,1,"stim/objects/HouseObjects/remote2.png","stim/21.jpeg",2,1,"stim/21.jpeg",2,"left",2.888000011,4,4,10.14199996,3,1.874000072,6,1,0,0,0,0,0
"7",64,2,0,1,"stim/objects/HouseObjects/clothespin3.png","",0,0,"",0,"left",1.34100008,NA,NA,NA,NA,NA,7,0,NA,NA,NA,NA,0
"8",64,1,0.7,1,"stim/objects/HouseObjects/blender2.png","stim/64.jpeg",6,4,"stim/64.jpeg",2,"left",1.990999937,3,3,8.479000092,3,1.025000095,8,1,0,0,0,0,0
"9",64,1,0.1,2,"stim/objects/Instruments/panflute2.png","stim/22.jpeg",2,2,"stim/22.jpeg",1,"left",1.399999857,4,4,3.569999933,4,0.306999922,9,1,0,0,0,0,0
"10",64,1,0.7,2,"stim/objects/Instruments/pipepiano.png","stim/51.jpeg",5,1,"stim/51.jpeg",4,"right",2.017999887,2,4,10.25099993,4,0.503999949,10,0,0,NA,1,NA,0
"11",64,2,0,1,"stim/objects/HouseObjects/iron3.png","",0,0,"",0,"right",1.511999846,NA,NA,NA,NA,NA,11,1,NA,NA,NA,NA,0
"12",64,2,0,1,"stim/objects/HouseObjects/dishsoap4.png","",0,0,"",0,"right",2.497999907,NA,NA,NA,NA,NA,12,1,NA,NA,NA,NA,0
"13",64,1,0.9,2,"stim/objects/Instruments/harp2.png","stim/12.jpeg",1,2,"stim/12.jpeg",2,"left",1.589999914,2,2,6.536999702,4,0.753999949,13,1,1,1,0,0,0
"14",64,1,0.7,2,"stim/objects/Instruments/oboe.png","stim/53.jpeg",5,3,"stim/53.jpeg",1,"left",1.475999832,4,3,12.40399981,4,0.662999868,14,1,1,1,0,0,0
"15",64,2,0,2,"stim/objects/Instruments/drums4.png","",0,0,"",0,"left",2.370000124,NA,NA,NA,NA,NA,15,0,NA,NA,NA,NA,0
"16",64,1,0.3,1,"stim/objects/HouseObjects/pan.png","stim/51.jpeg",5,1,"stim/51.jpeg",4,"left",1.488999844,3,1,25.67000008,1,0.338000059,16,1,1,1,0,0,0
"17",64,2,0,1,"stim/objects/HouseObjects/ballofstring3.png","",0,0,"",0,"left",2.076999903,NA,NA,NA,NA,NA,17,0,NA,NA,NA,NA,0
"18",64,2,0,2,"stim/objects/Instruments/doublebass3.png","",0,0,"",0,"left",1.246999979,NA,NA,NA,NA,NA,18,0,NA,NA,NA,NA,0
"19",64,2,0,2,"stim/objects/Instruments/musicsheet3.png","",0,0,"",0,"right",2.665999889,NA,NA,NA,NA,NA,19,1,NA,NA,NA,NA,0
"20",64,2,0,1,"stim/objects/HouseObjects/barbecuelighter4.png","",0,0,"",0,"right",2.871000051,NA,NA,NA,NA,NA,20,1,NA,NA,NA,NA,0
"21",64,1,0.3,1,"stim/objects/HouseObjects/rubbergloves.png","stim/51.jpeg",5,1,"stim/51.jpeg",1,"right",1.474999905,2,2,5.464999914,3,0.440000057,21,0,0,NA,0,NA,0
"22",64,1,0.9,1,"stim/objects/HouseObjects/recyclingbin2.png","stim/24.jpeg",2,4,"stim/24.jpeg",1,"left",1.302000046,4,2,10.51499987,3,0.639999866,22,1,0,0,0,0,0
"23",64,1,0.7,2,"stim/objects/Instruments/bassdrum2.png","stim/53.jpeg",5,3,"stim/53.jpeg",2,"left",1.705999851,4,3,3.673999786,4,0.617000103,23,1,1,1,0,0,0
"24",64,2,0,1,"stim/objects/HouseObjects/doormat3.png","",0,0,"",0,"left",1.367999792,NA,NA,NA,NA,NA,24,0,NA,NA,NA,NA,0
"25",64,1,0.7,1,"stim/objects/HouseObjects/coffee2.png","stim/63.jpeg",6,3,"stim/63.jpeg",1,"right",1.507999897,3,1,3.304999828,3,0.504999876,25,0,0,NA,0,NA,0
"26",64,1,0.7,2,"stim/objects/Instruments/acousticguitar2.png","stim/54.jpeg",5,4,"stim/54.jpeg",1,"left",1.231999874,4,3,5.907999992,3,0.457000017,26,1,0,0,0,0,0
"27",64,1,0.9,1,"stim/objects/HouseObjects/pan2.png","stim/22.jpeg",2,2,"stim/22.jpeg",3,"left",8.963999987,3,4,5.842000008,3,0.549000025,27,1,0,0,1,1,0
"28",64,1,0.5,2,"stim/objects/HouseObjects/match.png","stim/41.jpeg",4,1,"stim/41.jpeg",1,"left",1.005000114,4,3,5.519999981,3,0.138000011,28,1,0,0,0,0,0
"29",64,1,0.9,2,"stim/objects/Instruments/guitarcase2.png","stim/14.jpeg",1,4,"stim/14.jpeg",4,"right",1.750999928,2,4,3.277999878,4,0.268999815,29,0,1,NA,1,NA,0
"30",64,2,0,1,"stim/objects/HouseObjects/garbagebin3.png","",0,0,"",0,"right",1.585999727,NA,NA,NA,NA,NA,30,1,NA,NA,NA,NA,0
"31",64,2,0,2,"stim/objects/Instruments/laud3.png","",0,0,"",0,"left",1.227999926,NA,NA,NA,NA,NA,31,0,NA,NA,NA,NA,0
"32",64,1,0.5,2,"stim/objects/HouseObjects/ironingboard.png","stim/41.jpeg",4,1,"stim/41.jpeg",3,"left",1.69299984,3,2,11.65300012,3,0.60800004,32,1,0,0,1,1,0
"33",64,2,0,2,"stim/objects/Instruments/chime3.png","",0,0,"",0,"right",1.856999874,NA,NA,NA,NA,NA,33,1,NA,NA,NA,NA,0
"34",64,1,0.1,1,"stim/objects/HouseObjects/glass2.png","stim/11.jpeg",1,1,"stim/11.jpeg",4,"left",1.157999754,3,3,6.35800004,1,1.291999817,34,1,0,0,0,0,0
"35",64,1,0.3,2,"stim/objects/Instruments/bassguitar2.png","stim/62.jpeg",6,2,"stim/62.jpeg",3,"left",2.091999769,4,2,6.446999788,3,0.250999928,35,1,1,1,1,1,0
"36",64,1,0.7,1,"stim/objects/HouseObjects/bottle2.png","stim/61.jpeg",6,1,"stim/61.jpeg",4,"right",1.213999987,2,2,1.389999866,2,0.233999968,36,0,0,NA,0,NA,0
"37",64,1,0.3,2,"stim/objects/Instruments/doublebass2.png","stim/64.jpeg",6,4,"stim/64.jpeg",2,"left",1.25999999,4,3,7.184000015,4,0.63499999,37,1,0,0,0,0,0
"38",64,2,0,1,"stim/objects/HouseObjects/flyswatter3.png","",0,0,"",0,"left",1.600000143,NA,NA,NA,NA,NA,38,0,NA,NA,NA,NA,0
"39",64,2,0,2,"stim/objects/Instruments/accordion4.png","",0,0,"",0,"right",2.010999918,NA,NA,NA,NA,NA,39,1,NA,NA,NA,NA,0
"40",64,1,0.1,1,"stim/objects/HouseObjects/hairdryer2.png","stim/13.jpeg",1,3,"stim/13.jpeg",4,"left",1.230000019,4,2,6.086999893,4,0.624999762,40,1,0,0,1,1,0
"41",64,1,0.7,2,"stim/objects/Instruments/panflute.png","stim/54.jpeg",5,4,"stim/54.jpeg",4,"left",1.34800005,4,3,15.32800007,1,0.424999952,41,1,0,0,0,0,0
"42",64,2,0,2,"stim/objects/Instruments/harmonica3.png","",0,0,"",0,"left",1.292999983,NA,NA,NA,NA,NA,42,0,NA,NA,NA,NA,0
"43",64,1,0.5,1,"stim/objects/HouseObjects/handvacuum.png","stim/32.jpeg",3,2,"stim/32.jpeg",2,"left",1.23699975,3,1,13.44300008,1,0.152999878,43,1,0,0,0,0,0
"44",64,2,0,2,"stim/objects/Instruments/cello4.png","",0,0,"",0,"right",1.328999996,NA,NA,NA,NA,NA,44,1,NA,NA,NA,NA,0
"45",64,1,0.3,1,"stim/objects/HouseObjects/recyclingbin.png","stim/53.jpeg",5,3,"stim/53.jpeg",1,"left",1.034999847,3,3,5.006999969,3,0.133999825,45,1,1,1,0,0,0
"46",64,2,0,1,"stim/objects/HouseObjects/pitcher3.png","",0,0,"",0,"left",1.66899991,NA,NA,NA,NA,NA,46,0,NA,NA,NA,NA,0
"47",64,1,0.5,2,"stim/objects/Instruments/marimba.png","stim/42.jpeg",4,2,"stim/42.jpeg",4,"left",1.121999979,3,3,16.58299994,4,0.898000002,47,1,0,0,1,1,0
"48",64,1,0.5,2,"stim/objects/Instruments/musicsheet.png","stim/44.jpeg",4,4,"stim/44.jpeg",2,"left",1.328999996,4,4,8.795000076,4,0.289000034,48,1,1,1,0,0,0
"49",64,1,0.7,2,"stim/objects/Instruments/accordion2.png","stim/53.jpeg",5,3,"stim/53.jpeg",4,"right",1.670000076,2,2,1.138999939,2,0.095000029,49,0,0,NA,0,NA,0
"50",64,2,0,2,"stim/objects/Instruments/guitarcase3.png","",0,0,"",0,"right",2.143999815,NA,NA,NA,NA,NA,50,1,NA,NA,NA,NA,0
"51",64,2,0,2,"stim/objects/Instruments/harp3.png","",0,0,"",0,"left",0.934000015,NA,NA,NA,NA,NA,51,0,NA,NA,NA,NA,0
"52",64,1,0.1,2,"stim/objects/Instruments/musicsheet2.png","stim/23.jpeg",2,3,"stim/23.jpeg",4,"left",0.992999792,3,2,2.128999949,3,1.614999771,52,1,0,0,0,0,0
"53",64,2,0,2,"stim/objects/Instruments/keyboard3.png","",0,0,"",0,"right",1.733999968,NA,NA,NA,NA,NA,53,1,NA,NA,NA,NA,0
"54",64,2,0,1,"stim/objects/HouseObjects/ironingboard3.png","",0,0,"",0,"right",1.035000086,NA,NA,NA,NA,NA,54,1,NA,NA,NA,NA,0
"55",64,1,0.9,1,"stim/objects/HouseObjects/ironingboard2.png","stim/21.jpeg",2,1,"stim/21.jpeg",4,"left",1.070999861,4,1,9.521999836,3,0.349999905,55,1,1,1,0,0,0
"56",64,2,0,2,"stim/objects/Instruments/oboe3.png","",0,0,"",0,"right",1.582000017,NA,NA,NA,NA,NA,56,1,NA,NA,NA,NA,0
"57",64,1,0.9,1,"stim/objects/HouseObjects/pitcher2.png","stim/23.jpeg",2,3,"stim/23.jpeg",2,"right",1.002999783,3,3,1.353999853,4,0.351999998,57,0,1,NA,0,NA,0
"58",64,1,0.7,1,"stim/objects/HouseObjects/clothesdryingrack2.png","stim/61.jpeg",6,1,"stim/61.jpeg",4,"right",1.75999999,2,2,1.064999819,2,0.220000029,58,0,0,NA,0,NA,0
"59",64,2,0,2,"stim/objects/Instruments/hihat3.png","",0,0,"",0,"left",1.698999882,NA,NA,NA,NA,NA,59,0,NA,NA,NA,NA,0
"60",64,1,0.5,1,"stim/objects/Instruments/guitarcase.png","stim/32.jpeg",3,2,"stim/32.jpeg",2,"left",1.085000038,4,2,14.91799998,2,0.319999933,60,1,1,1,1,1,0
"61",64,2,0,1,"stim/objects/HouseObjects/clock3.png","",0,0,"",0,"right",1.744999886,NA,NA,NA,NA,NA,61,1,NA,NA,NA,NA,0
"62",64,2,0,1,"stim/objects/HouseObjects/broom4.png","",0,0,"",0,"left",0.954999924,NA,NA,NA,NA,NA,62,0,NA,NA,NA,NA,0
"63",64,1,0.1,2,"stim/objects/Instruments/musicstand2.png","stim/24.jpeg",2,4,"stim/24.jpeg",3,"right",1.259000063,3,3,1.417999983,3,0.270999908,63,0,0,NA,1,NA,0
"64",64,2,0,1,"stim/objects/HouseObjects/bleachbottle3.png","",0,0,"",0,"right",1.974999905,NA,NA,NA,NA,NA,64,1,NA,NA,NA,NA,0
"65",64,1,0.1,2,"stim/objects/Instruments/oboe2.png","stim/21.jpeg",2,1,"stim/21.jpeg",4,"left",0.842999935,3,3,10.10399985,3,0.150999784,65,1,0,0,0,0,0
"66",64,2,0,1,"stim/objects/HouseObjects/clothesdryingrack4.png","",0,0,"",0,"right",1.480999947,NA,NA,NA,NA,NA,66,1,NA,NA,NA,NA,0
"67",64,1,0.5,2,"stim/objects/Instruments/metronome.png","stim/43.jpeg",4,3,"stim/43.jpeg",3,"right",1.268999815,3,3,0.616999865,3,0.169999838,67,0,1,NA,1,NA,0
"68",64,1,0.1,1,"stim/objects/HouseObjects/handbrush2.png","stim/14.jpeg",1,4,"stim/14.jpeg",2,"left",2.83100009,4,4,8.200000048,1,1.286000013,68,1,1,1,0,0,0
"69",64,2,0,1,"stim/objects/HouseObjects/recyclingbin3.png","",0,0,"",0,"right",1.467999935,NA,NA,NA,NA,NA,69,1,NA,NA,NA,NA,0
"70",64,2,0,1,"stim/objects/HouseObjects/bucket3.png","",0,0,"",0,"right",1.128000021,NA,NA,NA,NA,NA,70,1,NA,NA,NA,NA,0
"71",64,1,0.1,2,"stim/objects/Instruments/maraca2.png","stim/24.jpeg",2,4,"stim/24.jpeg",4,"left",1.366999865,3,4,3.318999767,2,0.802000046,71,1,1,1,0,0,0
"72",64,2,0,2,"stim/objects/Instruments/banjo4.png","",0,0,"",0,"left",1.112999916,NA,NA,NA,NA,NA,72,0,NA,NA,NA,NA,0
"73",64,1,0.7,1,"stim/objects/HouseObjects/clothespin2.png","stim/62.jpeg",6,2,"stim/62.jpeg",4,"right",1.794999838,4,4,1.001999855,4,0.197000027,73,0,0,NA,1,NA,0
"74",64,1,0.1,1,"stim/objects/HouseObjects/dustpan2.png","stim/12.jpeg",1,2,"stim/12.jpeg",2,"right",3.190999985,3,1,2.009999752,3,0.284999847,74,0,0,NA,0,NA,0
"75",64,1,0.5,1,"stim/objects/Instruments/harmonica.png","stim/33.jpeg",3,3,"stim/33.jpeg",3,"left",1.363999844,4,3,15.1079998,3,0.429999828,75,1,1,1,1,1,0
"76",64,2,0,2,"stim/objects/Instruments/acousticguitar4.png","",0,0,"",0,"left",1.100999832,NA,NA,NA,NA,NA,76,0,NA,NA,NA,NA,0
"77",64,2,0,1,"stim/objects/HouseObjects/match3.png","",0,0,"",0,"right",1.314999819,NA,NA,NA,NA,NA,77,1,NA,NA,NA,NA,0
"78",64,2,0,1,"stim/objects/HouseObjects/broom3.png","",0,0,"",0,"left",1.472999811,NA,NA,NA,NA,NA,78,0,NA,NA,NA,NA,0
"79",64,1,0.7,1,"stim/objects/HouseObjects/bucket2.png","stim/63.jpeg",6,3,"stim/63.jpeg",4,"left",1.161999941,4,1,8.912999868,3,0.832999945,79,1,0,0,0,0,0
"80",64,1,0.3,2,"stim/objects/Instruments/electricdrumset2.png","stim/62.jpeg",6,2,"stim/62.jpeg",4,"left",1.523000002,3,4,5.198999882,3,0.596999884,80,1,0,0,0,0,0
"81",64,1,0.5,2,"stim/objects/HouseObjects/knife.png","stim/43.jpeg",4,3,"stim/43.jpeg",1,"right",1.606999874,3,2,0.286999941,3,1.688999891,81,0,0,NA,0,NA,0
"82",64,1,0.7,2,"stim/objects/Instruments/balalaika2.png","stim/51.jpeg",5,1,"stim/51.jpeg",3,"left",1.247999907,4,4,1.967000008,4,0.646999836,82,1,0,0,0,0,0
"83",64,2,0,2,"stim/objects/Instruments/flute3.png","",0,0,"",0,"right",1.486999989,NA,NA,NA,NA,NA,83,1,NA,NA,NA,NA,0
"84",64,2,0,1,"stim/objects/HouseObjects/pan3.png","",0,0,"",0,"right",1.14199996,NA,NA,NA,NA,NA,84,1,NA,NA,NA,NA,0
"85",64,1,0.7,2,"stim/objects/Instruments/record.png","stim/52.jpeg",5,2,"stim/52.jpeg",3,"left",1.298000097,3,3,11.75300002,3,0.359999895,85,1,0,0,1,1,0
"86",64,1,0.3,1,"stim/objects/HouseObjects/ballofstring2.png","stim/53.jpeg",5,3,"stim/53.jpeg",3,"right",1.967000008,3,4,2.029000044,2,1.457999945,86,0,0,NA,0,NA,0
"87",64,2,0,1,"stim/objects/HouseObjects/bleachbottle4.png","",0,0,"",0,"left",1.506000042,NA,NA,NA,NA,NA,87,0,NA,NA,NA,NA,0
"88",64,2,0,1,"stim/objects/HouseObjects/hairdryer3.png","",0,0,"",0,"right",1.641000032,NA,NA,NA,NA,NA,88,1,NA,NA,NA,NA,0
"89",64,2,0,1,"stim/objects/HouseObjects/cushion4.png","",0,0,"",0,"left",0.924999952,NA,NA,NA,NA,NA,89,0,NA,NA,NA,NA,0
"90",64,2,0,1,"stim/objects/HouseObjects/ashtray3.png","",0,0,"",0,"left",1.467999935,NA,NA,NA,NA,NA,90,0,NA,NA,NA,NA,0
"91",64,1,0.5,1,"stim/objects/HouseObjects/glassmop.png","stim/33.jpeg",3,3,"stim/33.jpeg",1,"left",0.968999863,4,3,7.734999895,3,0.631999969,91,1,1,1,0,0,0
"92",64,1,0.5,1,"stim/objects/Instruments/hihat.png","stim/31.jpeg",3,1,"stim/31.jpeg",4,"left",1.498999834,3,4,4.633999825,4,0.635999918,92,1,0,0,1,1,0
"93",64,2,0,2,"stim/objects/Instruments/bassguitar4.png","",0,0,"",0,"right",1.039999962,NA,NA,NA,NA,NA,93,1,NA,NA,NA,NA,0
"94",64,1,0.9,2,"stim/objects/Instruments/gong2.png","stim/12.jpeg",1,2,"stim/12.jpeg",2,"left",1.135999918,3,3,2.794999838,3,0.299000025,94,1,0,0,0,0,0
"95",64,1,0.5,1,"stim/objects/HouseObjects/handbrush.png","stim/31.jpeg",3,1,"stim/31.jpeg",4,"left",2.118000031,4,2,8.937999725,3,0.249000072,95,1,0,0,0,0,0
"96",64,1,0.1,2,"stim/objects/Instruments/record2.png","stim/24.jpeg",2,4,"stim/24.jpeg",3,"left",1.161000013,4,4,5.302000046,3,0.463000059,96,1,1,1,1,1,0
"97",64,1,0.3,2,"stim/objects/Instruments/drums2.png","stim/61.jpeg",6,1,"stim/61.jpeg",3,"left",1.805999756,4,1,4.858999968,3,0.424999952,97,1,1,1,1,1,0
"98",64,2,0,1,"stim/objects/HouseObjects/ashtray4.png","",0,0,"",0,"right",1.870999813,NA,NA,NA,NA,NA,98,1,NA,NA,NA,NA,0
"99",64,2,0,1,"stim/objects/HouseObjects/basket4.png","",0,0,"",0,"right",0.994999886,NA,NA,NA,NA,NA,99,1,NA,NA,NA,NA,0
"100",64,2,0,2,"stim/objects/Instruments/metronome3.png","",0,0,"",0,"right",0.960999966,NA,NA,NA,NA,NA,100,1,NA,NA,NA,NA,0
"101",64,2,0,2,"stim/objects/Instruments/record3.png","",0,0,"",0,"left",1.420000076,NA,NA,NA,NA,NA,101,0,NA,NA,NA,NA,0
"102",64,2,0,1,"stim/objects/HouseObjects/knife3.png","",0,0,"",0,"right",1.240999937,NA,NA,NA,NA,NA,102,1,NA,NA,NA,NA,0
"103",64,2,0,2,"stim/objects/Instruments/chime4.png","",0,0,"",0,"right",1.645999908,NA,NA,NA,NA,NA,103,1,NA,NA,NA,NA,0
"104",64,2,0,2,"stim/objects/Instruments/cornet4.png","",0,0,"",0,"right",0.921999931,NA,NA,NA,NA,NA,104,1,NA,NA,NA,NA,0
"105",64,1,0.5,2,"stim/objects/HouseObjects/lintroller.png","stim/44.jpeg",4,4,"stim/44.jpeg",1,"left",1.204999924,4,4,5.232999802,3,0.171000004,105,1,1,1,0,0,0
"106",64,1,0.1,2,"stim/objects/Instruments/metronome2.png","stim/22.jpeg",2,2,"stim/22.jpeg",3,"right",1.105000019,2,3,5.565000057,3,0.096999884,106,0,0,NA,1,NA,0
"107",64,2,0,2,"stim/objects/Instruments/cymbal4.png","",0,0,"",0,"left",1.388000011,NA,NA,NA,NA,NA,107,0,NA,NA,NA,NA,0
"108",64,2,0,2,"stim/objects/Instruments/accordion3.png","",0,0,"",0,"left",0.92599988,NA,NA,NA,NA,NA,108,0,NA,NA,NA,NA,0
"109",64,1,0.3,1,"stim/objects/HouseObjects/basket2.png","stim/51.jpeg",5,1,"stim/51.jpeg",3,"right",1.273000002,2,4,3.690999985,4,0.111999989,109,0,0,NA,0,NA,0
"110",64,2,0,1,"stim/objects/HouseObjects/key3.png","",0,0,"",0,"right",1.651000023,NA,NA,NA,NA,NA,110,1,NA,NA,NA,NA,0
"111",64,1,0.5,2,"stim/objects/Instruments/maraca.png","stim/41.jpeg",4,1,"stim/41.jpeg",3,"left",1.053999901,4,2,3.069999933,3,0.780999899,111,1,0,0,1,1,0
"112",64,2,0,1,"stim/objects/HouseObjects/dishsoap3.png","",0,0,"",0,"right",1.601999998,NA,NA,NA,NA,NA,112,1,NA,NA,NA,NA,0
"113",64,1,0.3,1,"stim/objects/HouseObjects/remote.png","stim/54.jpeg",5,4,"stim/54.jpeg",3,"right",1.164999962,3,2,9.240999937,3,0.15199995,113,0,0,NA,1,NA,0
"114",64,2,0,2,"stim/objects/Instruments/acousticguitar3.png","",0,0,"",0,"left",1.491999865,NA,NA,NA,NA,NA,114,0,NA,NA,NA,NA,0
"115",64,2,0,2,"stim/objects/Instruments/drums3.png","",0,0,"",0,"right",1.28399992,NA,NA,NA,NA,NA,115,1,NA,NA,NA,NA,0
"116",64,1,0.3,2,"stim/objects/Instruments/electricguitar2.png","stim/63.jpeg",6,3,"stim/63.jpeg",1,"left",0.83100009,4,4,7.723999977,3,0.277999878,116,1,0,0,0,0,0
"117",64,2,0,2,"stim/objects/Instruments/bassdrum3.png","",0,0,"",0,"right",2.06799984,NA,NA,NA,NA,NA,117,1,NA,NA,NA,NA,0
"118",64,2,0,1,"stim/objects/HouseObjects/remote3.png","",0,0,"",0,"right",1.277999878,NA,NA,NA,NA,NA,118,1,NA,NA,NA,NA,0
"119",64,2,0,1,"stim/objects/HouseObjects/clothespin4.png","",0,0,"",0,"right",1.003000021,NA,NA,NA,NA,NA,119,1,NA,NA,NA,NA,0
"120",64,1,0.9,2,"stim/objects/Instruments/flute2.png","stim/13.jpeg",1,3,"stim/13.jpeg",3,"left",0.872999907,4,2,6.614000082,4,1.181999922,120,1,0,0,0,0,0
"121",64,2,0,2,"stim/objects/Instruments/bassguitar3.png","",0,0,"",0,"left",1.404000044,NA,NA,NA,NA,NA,121,0,NA,NA,NA,NA,0
"122",64,2,0,2,"stim/objects/Instruments/balalaika4.png","",0,0,"",0,"left",1.30099988,NA,NA,NA,NA,NA,122,0,NA,NA,NA,NA,0
"123",64,1,0.3,1,"stim/objects/HouseObjects/bleachbottle2.png","stim/52.jpeg",5,2,"stim/52.jpeg",4,"right",0.948999882,3,3,3.463999987,2,0.017999887,123,0,0,NA,0,NA,0
"124",64,2,0,2,"stim/objects/Instruments/banjo3.png","",0,0,"",0,"right",1.937999964,NA,NA,NA,NA,NA,124,1,NA,NA,NA,NA,0
"125",64,1,0.1,1,"stim/objects/HouseObjects/handvacuum2.png","stim/11.jpeg",1,1,"stim/11.jpeg",2,"right",1.305999994,3,1,2.01699996,3,0.426999807,125,0,1,NA,0,NA,0
"126",64,2,0,1,"stim/objects/HouseObjects/glassmop3.png","",0,0,"",0,"right",1.470000029,NA,NA,NA,NA,NA,126,1,NA,NA,NA,NA,0
"127",64,2,0,2,"stim/objects/Instruments/gong3.png","",0,0,"",0,"right",1.345999956,NA,NA,NA,NA,NA,127,1,NA,NA,NA,NA,0
"128",64,2,0,2,"stim/objects/Instruments/panflute3.png","",0,0,"",0,"right",1.036000013,NA,NA,NA,NA,NA,128,1,NA,NA,NA,NA,0
"129",64,1,0.9,2,"stim/objects/Instruments/keyboard2.png","stim/14.jpeg",1,4,"stim/14.jpeg",2,"right",0.976999998,4,2,2.664000034,4,1.029999971,129,0,0,NA,0,NA,0
"130",64,1,0.9,2,"stim/objects/Instruments/harmonica2.png","stim/11.jpeg",1,1,"stim/11.jpeg",3,"left",1.531999826,3,1,5.576999903,1,1.993000031,130,1,1,1,0,0,0
"131",64,2,0,2,"stim/objects/Instruments/electricdrumset4.png","",0,0,"",0,"left",1.470999956,NA,NA,NA,NA,NA,131,0,NA,NA,NA,NA,0
"132",64,1,0.9,1,"stim/objects/HouseObjects/match2.png","stim/21.jpeg",2,1,"stim/21.jpeg",2,"right",0.997999907,3,3,0.738999844,3,1.372999907,132,0,0,NA,0,NA,0
"133",64,2,0,1,"stim/objects/HouseObjects/lintroller3.png","",0,0,"",0,"right",1.389999866,NA,NA,NA,NA,NA,133,1,NA,NA,NA,NA,0
"134",64,2,0,1,"stim/objects/HouseObjects/barbecuelighter3.png","",0,0,"",0,"right",1.7099998,NA,NA,NA,NA,NA,134,1,NA,NA,NA,NA,0
"135",64,2,0,1,"stim/objects/HouseObjects/rubbergloves3.png","",0,0,"",0,"right",0.880000114,NA,NA,NA,NA,NA,135,1,NA,NA,NA,NA,0
"136",64,1,0.7,1,"stim/objects/HouseObjects/cushion2.png","stim/64.jpeg",6,4,"stim/64.jpeg",3,"left",1.444999933,2,4,5.628000021,3,1.121999979,136,1,1,1,1,1,0
"137",64,1,0.3,2,"stim/objects/Instruments/chime2.png","stim/64.jpeg",6,4,"stim/64.jpeg",1,"left",1.914000034,3,2,4.974999905,2,0.727999926,137,1,0,0,0,0,0
"138",64,1,0.1,1,"stim/objects/HouseObjects/doormat2.png","stim/11.jpeg",1,1,"stim/11.jpeg",4,"left",1.065999985,3,3,1.280999899,3,2.89199996,138,1,0,0,0,0,0
"139",64,1,0.1,2,"stim/objects/Instruments/pipepiano2.png","stim/23.jpeg",2,3,"stim/23.jpeg",3,"left",1.500999928,4,4,5.833999872,4,0.246999979,139,1,0,0,0,0,0
"140",64,2,0,2,"stim/objects/Instruments/maraca3.png","",0,0,"",0,"left",0.938999891,NA,NA,NA,NA,NA,140,0,NA,NA,NA,NA,0
"141",64,2,0,1,"stim/objects/HouseObjects/handvacuum3.png","",0,0,"",0,"right",1.804999828,NA,NA,NA,NA,NA,141,1,NA,NA,NA,NA,0
"142",64,1,0.9,1,"stim/objects/HouseObjects/key2.png","stim/22.jpeg",2,2,"stim/22.jpeg",3,"right",1.596999884,2,1,1.402999878,3,0.186999798,142,0,0,NA,1,NA,0
"143",64,1,0.1,1,"stim/objects/HouseObjects/glassmop2.png","stim/12.jpeg",1,2,"stim/12.jpeg",3,"right",1.203000069,3,3,0.796000004,4,0.292999983,143,0,0,NA,0,NA,0
"144",64,1,0.7,1,"stim/objects/HouseObjects/broom2.png","stim/62.jpeg",6,2,"stim/62.jpeg",2,"right",2.792999983,1,3,3.985999823,3,0.303999901,144,0,0,NA,0,NA,0
"145",64,1,0.7,2,"stim/objects/Instruments/musicstand.png","stim/52.jpeg",5,2,"stim/52.jpeg",2,"right",1.787999868,2,1,3.125,1,0.542999744,145,0,0,NA,0,NA,0
"146",64,2,0,2,"stim/objects/Instruments/electricguitar3.png","",0,0,"",0,"right",1.618999958,NA,NA,NA,NA,NA,146,1,NA,NA,NA,NA,0
"147",64,1,0.3,1,"stim/objects/HouseObjects/barbecuelighter2.png","stim/54.jpeg",5,4,"stim/54.jpeg",1,"right",1.04399991,1,4,3.795000076,4,1.127999783,147,0,1,NA,0,NA,0
"148",64,2,0,2,"stim/objects/Instruments/clarinet3.png","",0,0,"",0,"left",3.924999714,NA,NA,NA,NA,NA,148,0,NA,NA,NA,NA,0
"149",64,2,0,1,"stim/objects/HouseObjects/basket3.png","",0,0,"",0,"right",1.279000044,NA,NA,NA,NA,NA,149,1,NA,NA,NA,NA,0
"150",64,1,0.5,1,"stim/objects/Instruments/keyboard.png","stim/32.jpeg",3,2,"stim/32.jpeg",2,"left",1.06799984,3,2,7.984999895,3,3.160000086,150,1,1,1,0,0,0
"151",64,2,0,2,"stim/objects/Instruments/flutetrans3.png","",0,0,"",0,"right",2.342999935,NA,NA,NA,NA,NA,151,1,NA,NA,NA,NA,0
"152",64,1,0.5,2,"stim/objects/HouseObjects/key.png","stim/42.jpeg",4,2,"stim/42.jpeg",4,"left",1.079999924,2,3,6.04399991,1,0.861999989,152,1,0,0,0,0,0
"153",64,2,0,2,"stim/objects/Instruments/cello3.png","",0,0,"",0,"left",1.86899972,NA,NA,NA,NA,NA,153,0,NA,NA,NA,NA,0
"154",64,1,0.9,1,"stim/objects/HouseObjects/knife2.png","stim/23.jpeg",2,3,"stim/23.jpeg",3,"left",1.177999973,4,2,3.470999956,3,0.312999964,154,1,0,0,1,1,0
"155",64,1,0.1,1,"stim/objects/HouseObjects/iron2.png","stim/12.jpeg",1,2,"stim/12.jpeg",4,"right",1.309999943,2,3,6.483999729,1,0.214999914,155,0,0,NA,0,NA,0
"156",64,2,0,2,"stim/objects/Instruments/cymbal3.png","",0,0,"",0,"right",1.368000031,NA,NA,NA,NA,NA,156,1,NA,NA,NA,NA,0
"157",64,2,0,2,"stim/objects/Instruments/clarinet4.png","",0,0,"",0,"right",1.32799983,NA,NA,NA,NA,NA,157,1,NA,NA,NA,NA,0
"158",64,2,0,1,"stim/objects/HouseObjects/handbrush3.png","",0,0,"",0,"right",0.842000008,NA,NA,NA,NA,NA,158,1,NA,NA,NA,NA,0
"159",64,2,0,2,"stim/objects/Instruments/cornet3.png","",0,0,"",0,"left",2.390999794,NA,NA,NA,NA,NA,159,0,NA,NA,NA,NA,0
"160",64,2,0,1,"stim/objects/HouseObjects/coffee3.png","",0,0,"",0,"right",1.874999762,NA,NA,NA,NA,NA,160,1,NA,NA,NA,NA,0
"161",64,2,0,1,"stim/objects/HouseObjects/dustpan3.png","",0,0,"",0,"right",2.289999962,NA,NA,NA,NA,NA,161,1,NA,NA,NA,NA,0
"162",64,2,0,1,"stim/objects/HouseObjects/bottle3.png","",0,0,"",0,"right",0.980999947,NA,NA,NA,NA,NA,162,1,NA,NA,NA,NA,0
"163",64,2,0,1,"stim/objects/HouseObjects/bottle4.png","",0,0,"",0,"right",0.726000071,NA,NA,NA,NA,NA,163,1,NA,NA,NA,NA,0
"164",64,2,0,2,"stim/objects/Instruments/balalaika3.png","",0,0,"",0,"left",2.002000093,NA,NA,NA,NA,NA,164,0,NA,NA,NA,NA,0
"165",64,2,0,2,"stim/objects/Instruments/electricguitar4.png","",0,0,"",0,"right",1.503000021,NA,NA,NA,NA,NA,165,1,NA,NA,NA,NA,0
"166",64,1,0.1,1,"stim/objects/HouseObjects/garbagebin2.png","stim/14.jpeg",1,4,"stim/14.jpeg",3,"right",1.519999981,1,3,4.52699995,4,0.628999949,166,0,0,NA,0,NA,0
"167",64,1,0.3,2,"stim/objects/Instruments/cymbal2.png","stim/63.jpeg",6,3,"stim/63.jpeg",3,"left",2.523999929,3,4,4.453999996,4,0.235999823,167,1,0,0,0,0,0
"168",64,2,0,2,"stim/objects/Instruments/grandpiano3.png","",0,0,"",0,"right",1.232999802,NA,NA,NA,NA,NA,168,1,NA,NA,NA,NA,0
"169",64,2,0,2,"stim/objects/Instruments/marimba3.png","",0,0,"",0,"left",1.231999874,NA,NA,NA,NA,NA,169,0,NA,NA,NA,NA,0
"170",64,1,0.3,1,"stim/objects/HouseObjects/pitcher.png","stim/52.jpeg",5,2,"stim/52.jpeg",2,"right",1.88499999,1,4,6.129999876,2,1.203999996,170,0,0,NA,1,NA,0
"171",64,1,0.3,1,"stim/objects/HouseObjects/ashtray2.png","stim/52.jpeg",5,2,"stim/52.jpeg",3,"right",1.563999891,1,2,1.53399992,2,0.285000086,171,0,1,NA,0,NA,0
"172",64,2,0,1,"stim/objects/HouseObjects/cushion3.png","",0,0,"",0,"right",1.68599987,NA,NA,NA,NA,NA,172,1,NA,NA,NA,NA,0
"173",64,1,0.9,2,"stim/objects/Instruments/grandpiano2.png","stim/13.jpeg",1,3,"stim/13.jpeg",1,"right",1.027999878,2,1,3.183000088,3,0.133999825,173,0,0,NA,0,NA,0
"174",64,2,0,2,"stim/objects/Instruments/frenchhorn3.png","",0,0,"",0,"left",1.496000051,NA,NA,NA,NA,NA,174,0,NA,NA,NA,NA,0
"175",64,1,0.9,1,"stim/objects/HouseObjects/lintroller2.png","stim/24.jpeg",2,4,"stim/24.jpeg",4,"right",1.078000069,2,2,2.343999863,3,0.257999897,175,0,0,NA,0,NA,0
"176",64,1,0.3,2,"stim/objects/Instruments/cornet2.png","stim/62.jpeg",6,2,"stim/62.jpeg",2,"left",3.095999956,3,3,1.691999912,4,0.35800004,176,1,0,0,0,0,0
"177",64,1,0.5,2,"stim/objects/Instruments/laud.png","stim/44.jpeg",4,4,"stim/44.jpeg",1,"left",1.384999752,4,2,3.095999956,2,0.174999714,177,1,0,0,0,0,0
"178",64,2,0,1,"stim/objects/HouseObjects/coffee4.png","",0,0,"",0,"right",1.280999899,NA,NA,NA,NA,NA,178,1,NA,NA,NA,NA,0
"179",64,2,0,2,"stim/objects/Instruments/pipepiano3.png","",0,0,"",0,"right",1.299000025,NA,NA,NA,NA,NA,179,1,NA,NA,NA,NA,0
"180",64,1,0.5,1,"stim/objects/HouseObjects/hairdryer.png","stim/34.jpeg",3,4,"stim/34.jpeg",3,"right",2.187000036,1,2,12.94299984,1,0.352999926,180,0,0,NA,0,NA,0
"181",64,2,0,1,"stim/objects/HouseObjects/blender3.png","",0,0,"",0,"right",1.251999855,NA,NA,NA,NA,NA,181,1,NA,NA,NA,NA,0
"182",64,1,0.1,1,"stim/objects/HouseObjects/flyswatter2.png","stim/13.jpeg",1,3,"stim/13.jpeg",3,"right",1.214999914,2,3,3.700999737,3,0.250999928,182,0,1,NA,1,NA,0
"183",64,2,0,2,"stim/objects/Instruments/musicstand3.png","",0,0,"",0,"left",1.335000038,NA,NA,NA,NA,NA,183,0,NA,NA,NA,NA,0
"184",64,2,0,1,"stim/objects/HouseObjects/bucket4.png","",0,0,"",0,"left",1.220999956,NA,NA,NA,NA,NA,184,0,NA,NA,NA,NA,0
"185",64,1,0.9,2,"stim/objects/Instruments/flutetrans2.png","stim/14.jpeg",1,4,"stim/14.jpeg",4,"left",0.819999933,3,3,6.093999863,4,0.842000008,185,1,0,0,1,1,0
"186",64,1,0.9,2,"stim/objects/Instruments/frenchhorn2.png","stim/11.jpeg",1,1,"stim/11.jpeg",1,"left",1.532999992,4,2,11.98399997,3,0.277999878,186,1,0,0,0,0,0
"187",64,2,0,1,"stim/objects/HouseObjects/ballofstring4.png","",0,0,"",0,"left",1.786999941,NA,NA,NA,NA,NA,187,0,NA,NA,NA,NA,0
"188",64,2,0,1,"stim/objects/HouseObjects/blender4.png","",0,0,"",0,"right",0.985999823,NA,NA,NA,NA,NA,188,1,NA,NA,NA,NA,0
"189",64,2,0,1,"stim/objects/HouseObjects/clock4.png","",0,0,"",0,"right",1.03399992,NA,NA,NA,NA,NA,189,1,NA,NA,NA,NA,0
"190",64,1,0.1,2,"stim/objects/Instruments/marimba2.png","stim/21.jpeg",2,1,"stim/21.jpeg",2,"left",0.917999983,4,4,10.30699992,4,0.355999947,190,1,0,0,0,0,0
"191",64,2,0,2,"stim/objects/Instruments/doublebass4.png","",0,0,"",0,"left",1.173999786,NA,NA,NA,NA,NA,191,0,NA,NA,NA,NA,0
"192",64,1,0.7,1,"stim/objects/HouseObjects/clock2.png","stim/64.jpeg",6,4,"stim/64.jpeg",1,"right",1.450999975,3,2,1.432999849,2,0.117999792,192,0,0,NA,0,NA,0
"193",64,1,0.3,2,"stim/objects/Instruments/clarinet2.png","stim/61.jpeg",6,1,"stim/61.jpeg",3,"left",1.112999916,3,3,8.318999767,1,0.346999884,193,1,0,0,0,0,0
"194",64,2,0,2,"stim/objects/Instruments/bassdrum4.png","",0,0,"",0,"left",1.285000086,NA,NA,NA,NA,NA,194,0,NA,NA,NA,NA,0
"195",64,2,0,2,"stim/objects/Instruments/electricdrumset3.png","",0,0,"",0,"right",1.134999752,NA,NA,NA,NA,NA,195,1,NA,NA,NA,NA,0
"196",64,1,0.9,2,"stim/objects/Instruments/hihat2.png","stim/13.jpeg",1,3,"stim/13.jpeg",3,"left",0.907999992,4,2,2.380000114,4,0.434000015,196,1,0,0,0,0,0
"197",64,2,0,1,"stim/objects/HouseObjects/glass3.png","",0,0,"",0,"left",1.268000126,NA,NA,NA,NA,NA,197,0,NA,NA,NA,NA,0
"198",64,1,0.3,2,"stim/objects/Instruments/cello2.png","stim/63.jpeg",6,3,"stim/63.jpeg",4,"right",1.146999836,3,4,1.53399992,4,1.213999748,198,0,0,NA,1,NA,0
"199",64,1,0.9,1,"stim/objects/HouseObjects/rubbergloves2.png","stim/22.jpeg",2,2,"stim/22.jpeg",4,"right",1.085999966,3,1,1.540999889,3,0.78399992,199,0,0,NA,0,NA,0
"200",64,1,0.1,2,"stim/objects/Instruments/laud2.png","stim/23.jpeg",2,3,"stim/23.jpeg",4,"left",2.92599988,2,4,3.130000114,3,0.29399991,200,1,0,0,0,0,0
