"","obj_file","X.x","participant.x","trialN.x","trial_cond","scn_file.x","scn_cat","scn_inst","scn_condition","fillers","obj_cat","obj_cat_num","quadrant","corr_ans","key_resp_trial.keys","key_resp_trial.rt","trial_acc","trial_acc_manual","group.x","practice","X.y","participant.y","OvsN","PE_level","object_cat","scn_file.y","corr_scn_cat","corr_scn_inst","scn_file.1","corr_loc","key_resp_id.keys","key_resp_id.rt","key_resp_conf.keys","key_resp_assoc.keys","key_resp_assoc.rt","key_resp_loc.keys","key_resp_loc.rt","trialN.y","id_acc","assoc.acc","cond_assoc","loc.acc","cond_loc","group.y"
"153","stim/objects/Instruments/timbal.png",1,64,1,0.5,"stim/41.jpeg",4,1,1,NA,"Instruments",2,2,"right","",NA,0,0,0,1,NA,NA,NA,NA,NA,NA,NA,NA,NA,NA,NA,NA,NA,NA,NA,NA,NA,NA,NA,NA,NA,NA,NA,NA
"6","stim/objects/HouseObjects/rug2.png",2,64,2,0.7,"stim/61.jpeg",6,1,2,NA,"HouseObjects",1,1,"left","left",0.582999945,1,1,0,1,NA,NA,NA,NA,NA,NA,NA,NA,NA,NA,NA,NA,NA,NA,NA,NA,NA,NA,NA,NA,NA,NA,NA,NA
"30","stim/objects/HouseObjects/saw2.png",3,64,3,0.7,"stim/63.jpeg",6,3,2,NA,"HouseObjects",1,2,"left","left",0.731999874,1,1,0,1,NA,NA,NA,NA,NA,NA,NA,NA,NA,NA,NA,NA,NA,NA,NA,NA,NA,NA,NA,NA,NA,NA,NA,NA
"60","stim/objects/HouseObjects/spraybottle2.png",4,64,4,0.1,"stim/12.jpeg",1,2,3,NA,"HouseObjects",1,3,"left","right",0.707999945,0,0,0,1,NA,NA,NA,NA,NA,NA,NA,NA,NA,NA,NA,NA,NA,NA,NA,NA,NA,NA,NA,NA,NA,NA,NA,NA
"76","stim/objects/HouseObjects/thread2.png",5,64,5,0.9,"stim/21.jpeg",2,1,3,NA,"HouseObjects",1,4,"left","left",0.714999914,1,1,0,1,NA,NA,NA,NA,NA,NA,NA,NA,NA,NA,NA,NA,NA,NA,NA,NA,NA,NA,NA,NA,NA,NA,NA,NA
"195","stim/objects/Instruments/trumpet.png",6,64,6,0.5,"stim/44.jpeg",4,4,1,NA,"Instruments",2,1,"right","",NA,0,0,0,1,NA,NA,NA,NA,NA,NA,NA,NA,NA,NA,NA,NA,NA,NA,NA,NA,NA,NA,NA,NA,NA,NA,NA,NA
"97","stim/objects/HouseObjects/vacuumcleaner.png",7,64,7,0.3,"stim/53.jpeg",5,3,2,NA,"HouseObjects",1,4,"left","right",0.669999838,0,0,0,1,NA,NA,NA,NA,NA,NA,NA,NA,NA,NA,NA,NA,NA,NA,NA,NA,NA,NA,NA,NA,NA,NA,NA,NA
"150","stim/objects/Instruments/tambourine2.png",8,64,8,0.3,"stim/64.jpeg",6,4,2,NA,"Instruments",2,1,"right","left",0.653999805,0,0,0,1,NA,NA,NA,NA,NA,NA,NA,NA,NA,NA,NA,NA,NA,NA,NA,NA,NA,NA,NA,NA,NA,NA,NA,NA
"37","stim/objects/HouseObjects/scale.png",9,64,9,0.5,"stim/34.jpeg",3,4,1,NA,"HouseObjects",1,2,"left","right",0.838000059,0,0,0,1,NA,NA,NA,NA,NA,NA,NA,NA,NA,NA,NA,NA,NA,NA,NA,NA,NA,NA,NA,NA,NA,NA,NA,NA
"217","stim/objects/Instruments/violin.png",10,64,10,0.7,"stim/52.jpeg",5,2,2,NA,"Instruments",2,2,"right","right",0.546999931,1,1,0,1,NA,NA,NA,NA,NA,NA,NA,NA,NA,NA,NA,NA,NA,NA,NA,NA,NA,NA,NA,NA,NA,NA,NA,NA
"200","stim/objects/Instruments/trumpet2.png",11,64,11,0.9,"stim/14.jpeg",1,4,3,NA,"Instruments",2,1,"right","right",0.593999863,1,1,0,1,NA,NA,NA,NA,NA,NA,NA,NA,NA,NA,NA,NA,NA,NA,NA,NA,NA,NA,NA,NA,NA,NA,NA,NA
"218","stim/objects/Instruments/violin.png",12,64,12,0.7,"stim/52.jpeg",5,2,2,NA,"Instruments",2,2,"right","right",0.5849998,1,1,0,1,NA,NA,NA,NA,NA,NA,NA,NA,NA,NA,NA,NA,NA,NA,NA,NA,NA,NA,NA,NA,NA,NA,NA,NA
"18","stim/objects/HouseObjects/safetypin2.png",13,64,13,0.7,"stim/62.jpeg",6,2,2,NA,"HouseObjects",1,4,"left","left",0.867000103,1,1,0,1,NA,NA,NA,NA,NA,NA,NA,NA,NA,NA,NA,NA,NA,NA,NA,NA,NA,NA,NA,NA,NA,NA,NA,NA
"31","stim/objects/HouseObjects/saw2.png",14,64,14,0.7,"stim/63.jpeg",6,3,2,NA,"HouseObjects",1,3,"left","left",0.830999851,1,1,0,1,NA,NA,NA,NA,NA,NA,NA,NA,NA,NA,NA,NA,NA,NA,NA,NA,NA,NA,NA,NA,NA,NA,NA,NA
"77","stim/objects/HouseObjects/thread2.png",15,64,15,0.9,"stim/21.jpeg",2,1,3,NA,"HouseObjects",1,4,"left","left",0.878000021,1,1,0,1,NA,NA,NA,NA,NA,NA,NA,NA,NA,NA,NA,NA,NA,NA,NA,NA,NA,NA,NA,NA,NA,NA,NA,NA
"25","stim/objects/HouseObjects/saw.png",16,64,16,0.5,"stim/33.jpeg",3,3,1,NA,"HouseObjects",1,3,"left","right",0.752999783,0,0,0,1,NA,NA,NA,NA,NA,NA,NA,NA,NA,NA,NA,NA,NA,NA,NA,NA,NA,NA,NA,NA,NA,NA,NA,NA
"13","stim/objects/HouseObjects/safetypin.png",17,64,17,0.5,"stim/32.jpeg",3,2,1,NA,"HouseObjects",1,3,"left","right",0.811000109,0,0,0,1,NA,NA,NA,NA,NA,NA,NA,NA,NA,NA,NA,NA,NA,NA,NA,NA,NA,NA,NA,NA,NA,NA,NA,NA
"42","stim/objects/HouseObjects/scale2.png",18,64,18,0.7,"stim/64.jpeg",6,4,2,NA,"HouseObjects",1,4,"left","left",0.707999945,1,1,0,1,NA,NA,NA,NA,NA,NA,NA,NA,NA,NA,NA,NA,NA,NA,NA,NA,NA,NA,NA,NA,NA,NA,NA,NA
"88","stim/objects/HouseObjects/towel2.png",19,64,19,0.9,"stim/22.jpeg",2,2,3,NA,"HouseObjects",1,3,"left","left",0.632999897,1,1,0,1,NA,NA,NA,NA,NA,NA,NA,NA,NA,NA,NA,NA,NA,NA,NA,NA,NA,NA,NA,NA,NA,NA,NA,NA
"158","stim/objects/Instruments/timbal2.png",20,64,20,0.9,"stim/11.jpeg",1,1,3,NA,"Instruments",2,1,"right","right",0.74399972,1,1,0,1,NA,NA,NA,NA,NA,NA,NA,NA,NA,NA,NA,NA,NA,NA,NA,NA,NA,NA,NA,NA,NA,NA,NA,NA
"89","stim/objects/HouseObjects/towel2.png",21,64,21,0.9,"stim/22.jpeg",2,2,3,NA,"HouseObjects",1,3,"left","left",0.805999994,1,1,0,1,NA,NA,NA,NA,NA,NA,NA,NA,NA,NA,NA,NA,NA,NA,NA,NA,NA,NA,NA,NA,NA,NA,NA,NA
"19","stim/objects/HouseObjects/safetypin2.png",22,64,22,0.7,"stim/62.jpeg",6,2,2,NA,"HouseObjects",1,2,"left","left",0.830999851,1,1,0,1,NA,NA,NA,NA,NA,NA,NA,NA,NA,NA,NA,NA,NA,NA,NA,NA,NA,NA,NA,NA,NA,NA,NA,NA
"209","stim/objects/Instruments/tuba.png",23,64,23,0.7,"stim/51.jpeg",5,1,2,NA,"Instruments",2,3,"right","right",0.580999851,1,1,0,1,NA,NA,NA,NA,NA,NA,NA,NA,NA,NA,NA,NA,NA,NA,NA,NA,NA,NA,NA,NA,NA,NA,NA,NA
"186","stim/objects/Instruments/trombone2.png",24,64,24,0.9,"stim/13.jpeg",1,3,3,NA,"Instruments",2,3,"right","right",0.718999863,1,1,0,1,NA,NA,NA,NA,NA,NA,NA,NA,NA,NA,NA,NA,NA,NA,NA,NA,NA,NA,NA,NA,NA,NA,NA,NA
"112","stim/objects/HouseObjects/wateringcan2.png",25,64,25,0.9,"stim/24.jpeg",2,4,3,NA,"HouseObjects",1,4,"left","left",0.631000042,1,1,0,1,NA,NA,NA,NA,NA,NA,NA,NA,NA,NA,NA,NA,NA,NA,NA,NA,NA,NA,NA,NA,NA,NA,NA,NA
"137","stim/objects/Instruments/speaker.png",26,64,26,0.5,"stim/33.jpeg",3,3,1,NA,"Instruments",2,2,"right","right",0.484999895,1,1,0,1,NA,NA,NA,NA,NA,NA,NA,NA,NA,NA,NA,NA,NA,NA,NA,NA,NA,NA,NA,NA,NA,NA,NA,NA
"201","stim/objects/Instruments/trumpet2.png",27,64,27,0.9,"stim/14.jpeg",1,4,3,NA,"Instruments",2,1,"right","right",0.791000128,1,1,0,1,NA,NA,NA,NA,NA,NA,NA,NA,NA,NA,NA,NA,NA,NA,NA,NA,NA,NA,NA,NA,NA,NA,NA,NA
"210","stim/objects/Instruments/tuba.png",28,64,28,0.7,"stim/51.jpeg",5,1,2,NA,"Instruments",2,1,"right","right",0.638999939,1,1,0,1,NA,NA,NA,NA,NA,NA,NA,NA,NA,NA,NA,NA,NA,NA,NA,NA,NA,NA,NA,NA,NA,NA,NA,NA
"113","stim/objects/HouseObjects/wateringcan2.png",29,64,29,0.9,"stim/24.jpeg",2,4,3,NA,"HouseObjects",1,4,"left","left",0.635999918,1,1,0,1,NA,NA,NA,NA,NA,NA,NA,NA,NA,NA,NA,NA,NA,NA,NA,NA,NA,NA,NA,NA,NA,NA,NA,NA
"7","stim/objects/HouseObjects/rug2.png",30,64,30,0.7,"stim/61.jpeg",6,1,2,NA,"HouseObjects",1,3,"left","left",0.727999926,1,1,0,1,NA,NA,NA,NA,NA,NA,NA,NA,NA,NA,NA,NA,NA,NA,NA,NA,NA,NA,NA,NA,NA,NA,NA,NA
"233","stim/objects/Instruments/xylophone.png",31,64,31,0.7,"stim/54.jpeg",5,4,2,NA,"Instruments",2,1,"right","right",0.470999956,1,1,0,1,NA,NA,NA,NA,NA,NA,NA,NA,NA,NA,NA,NA,NA,NA,NA,NA,NA,NA,NA,NA,NA,NA,NA,NA
"78","stim/objects/HouseObjects/thread2.png",32,64,32,0.9,"stim/21.jpeg",2,1,3,NA,"HouseObjects",1,2,"left","left",0.694000006,1,1,0,1,NA,NA,NA,NA,NA,NA,NA,NA,NA,NA,NA,NA,NA,NA,NA,NA,NA,NA,NA,NA,NA,NA,NA,NA
"129","stim/objects/Instruments/saxophone.png",33,64,33,0.5,"stim/32.jpeg",3,2,1,NA,"Instruments",2,4,"right","right",0.848999977,1,1,0,1,NA,NA,NA,NA,NA,NA,NA,NA,NA,NA,NA,NA,NA,NA,NA,NA,NA,NA,NA,NA,NA,NA,NA,NA
"202","stim/objects/Instruments/trumpet2.png",34,64,34,0.9,"stim/14.jpeg",1,4,3,NA,"Instruments",2,3,"right","right",0.565999985,1,1,0,1,NA,NA,NA,NA,NA,NA,NA,NA,NA,NA,NA,NA,NA,NA,NA,NA,NA,NA,NA,NA,NA,NA,NA,NA
"134","stim/objects/Instruments/saxophone2.png",35,64,35,0.3,"stim/62.jpeg",6,2,2,NA,"Instruments",2,4,"right","left",0.822000027,0,0,0,1,NA,NA,NA,NA,NA,NA,NA,NA,NA,NA,NA,NA,NA,NA,NA,NA,NA,NA,NA,NA,NA,NA,NA,NA
"172","stim/objects/Instruments/triangle2.png",36,64,36,0.9,"stim/12.jpeg",1,2,3,NA,"Instruments",2,3,"right","right",0.553999901,1,1,0,1,NA,NA,NA,NA,NA,NA,NA,NA,NA,NA,NA,NA,NA,NA,NA,NA,NA,NA,NA,NA,NA,NA,NA,NA
"43","stim/objects/HouseObjects/scale2.png",37,64,37,0.7,"stim/64.jpeg",6,4,2,NA,"HouseObjects",1,2,"left","left",0.730999947,1,1,0,1,NA,NA,NA,NA,NA,NA,NA,NA,NA,NA,NA,NA,NA,NA,NA,NA,NA,NA,NA,NA,NA,NA,NA,NA
"181","stim/objects/Instruments/trombone.png",38,64,38,0.5,"stim/43.jpeg",4,3,1,NA,"Instruments",2,4,"right","left",0.826999903,0,0,0,1,NA,NA,NA,NA,NA,NA,NA,NA,NA,NA,NA,NA,NA,NA,NA,NA,NA,NA,NA,NA,NA,NA,NA,NA
"203","stim/objects/Instruments/trumpet2.png",39,64,39,0.9,"stim/14.jpeg",1,4,3,NA,"Instruments",2,2,"right","right",0.871999979,1,1,0,1,NA,NA,NA,NA,NA,NA,NA,NA,NA,NA,NA,NA,NA,NA,NA,NA,NA,NA,NA,NA,NA,NA,NA,NA
"1","stim/objects/HouseObjects/rug.png",40,64,40,0.5,"stim/31.jpeg",3,1,1,NA,"HouseObjects",1,3,"left","right",0.821999788,0,0,0,1,NA,NA,NA,NA,NA,NA,NA,NA,NA,NA,NA,NA,NA,NA,NA,NA,NA,NA,NA,NA,NA,NA,NA,NA
"67","stim/objects/HouseObjects/thermometer.png",41,64,41,0.5,"stim/44.jpeg",4,4,1,NA,"HouseObjects",1,3,"left","left",0.883000135,1,1,0,1,NA,NA,NA,NA,NA,NA,NA,NA,NA,NA,NA,NA,NA,NA,NA,NA,NA,NA,NA,NA,NA,NA,NA,NA
"2","stim/objects/HouseObjects/rug.png",42,64,42,0.5,"stim/31.jpeg",3,1,1,NA,"HouseObjects",1,3,"left","left",0.802999973,1,1,0,1,NA,NA,NA,NA,NA,NA,NA,NA,NA,NA,NA,NA,NA,NA,NA,NA,NA,NA,NA,NA,NA,NA,NA,NA
"90","stim/objects/HouseObjects/towel2.png",43,64,43,0.9,"stim/22.jpeg",2,2,3,NA,"HouseObjects",1,2,"left","left",0.621000051,1,1,0,1,NA,NA,NA,NA,NA,NA,NA,NA,NA,NA,NA,NA,NA,NA,NA,NA,NA,NA,NA,NA,NA,NA,NA,NA
"20","stim/objects/HouseObjects/safetypin2.png",44,64,44,0.7,"stim/62.jpeg",6,2,2,NA,"HouseObjects",1,3,"left","left",0.798000097,1,1,0,1,NA,NA,NA,NA,NA,NA,NA,NA,NA,NA,NA,NA,NA,NA,NA,NA,NA,NA,NA,NA,NA,NA,NA,NA
"159","stim/objects/Instruments/timbal2.png",45,64,45,0.9,"stim/11.jpeg",1,1,3,NA,"Instruments",2,4,"right","right",0.631000042,1,1,0,1,NA,NA,NA,NA,NA,NA,NA,NA,NA,NA,NA,NA,NA,NA,NA,NA,NA,NA,NA,NA,NA,NA,NA,NA
"173","stim/objects/Instruments/triangle2.png",46,64,46,0.9,"stim/12.jpeg",1,2,3,NA,"Instruments",2,1,"right","right",0.55099988,1,1,0,1,NA,NA,NA,NA,NA,NA,NA,NA,NA,NA,NA,NA,NA,NA,NA,NA,NA,NA,NA,NA,NA,NA,NA,NA
"232","stim/objects/Instruments/vuvuzela2.png",47,64,47,0.1,"stim/23.jpeg",2,3,3,NA,"Instruments",2,2,"right","left",0.534000158,0,0,0,1,NA,NA,NA,NA,NA,NA,NA,NA,NA,NA,NA,NA,NA,NA,NA,NA,NA,NA,NA,NA,NA,NA,NA,NA
"14","stim/objects/HouseObjects/safetypin.png",48,64,48,0.5,"stim/32.jpeg",3,2,1,NA,"HouseObjects",1,3,"left","right",0.75,0,0,0,1,NA,NA,NA,NA,NA,NA,NA,NA,NA,NA,NA,NA,NA,NA,NA,NA,NA,NA,NA,NA,NA,NA,NA,NA
"73","stim/objects/HouseObjects/thread.png",49,64,49,0.3,"stim/51.jpeg",5,1,2,NA,"HouseObjects",1,4,"left","right",0.480999947,0,0,0,1,NA,NA,NA,NA,NA,NA,NA,NA,NA,NA,NA,NA,NA,NA,NA,NA,NA,NA,NA,NA,NA,NA,NA,NA
"211","stim/objects/Instruments/tuba.png",50,64,50,0.7,"stim/51.jpeg",5,1,2,NA,"Instruments",2,1,"right","right",0.510999918,1,1,0,1,NA,NA,NA,NA,NA,NA,NA,NA,NA,NA,NA,NA,NA,NA,NA,NA,NA,NA,NA,NA,NA,NA,NA,NA
"219","stim/objects/Instruments/violin.png",51,64,51,0.7,"stim/52.jpeg",5,2,2,NA,"Instruments",2,2,"right","right",0.616999865,1,1,0,1,NA,NA,NA,NA,NA,NA,NA,NA,NA,NA,NA,NA,NA,NA,NA,NA,NA,NA,NA,NA,NA,NA,NA,NA
"121","stim/objects/Instruments/record_player.png",52,64,52,0.5,"stim/31.jpeg",3,1,1,NA,"Instruments",2,4,"right","",NA,0,0,0,1,NA,NA,NA,NA,NA,NA,NA,NA,NA,NA,NA,NA,NA,NA,NA,NA,NA,NA,NA,NA,NA,NA,NA,NA
"91","stim/objects/HouseObjects/towel2.png",53,64,53,0.9,"stim/22.jpeg",2,2,3,NA,"HouseObjects",1,1,"left","left",0.625999928,1,1,0,1,NA,NA,NA,NA,NA,NA,NA,NA,NA,NA,NA,NA,NA,NA,NA,NA,NA,NA,NA,NA,NA,NA,NA,NA
"114","stim/objects/HouseObjects/wateringcan2.png",54,64,54,0.9,"stim/24.jpeg",2,4,3,NA,"HouseObjects",1,3,"left","left",0.463000059,1,1,0,1,NA,NA,NA,NA,NA,NA,NA,NA,NA,NA,NA,NA,NA,NA,NA,NA,NA,NA,NA,NA,NA,NA,NA,NA
"212","stim/objects/Instruments/tuba.png",55,64,55,0.7,"stim/51.jpeg",5,1,2,NA,"Instruments",2,1,"right","right",0.472999811,1,1,0,1,NA,NA,NA,NA,NA,NA,NA,NA,NA,NA,NA,NA,NA,NA,NA,NA,NA,NA,NA,NA,NA,NA,NA,NA
"100","stim/objects/HouseObjects/vacuumcleaner2.png",56,64,56,0.9,"stim/23.jpeg",2,3,3,NA,"HouseObjects",1,3,"left","left",0.597999811,1,1,0,1,NA,NA,NA,NA,NA,NA,NA,NA,NA,NA,NA,NA,NA,NA,NA,NA,NA,NA,NA,NA,NA,NA,NA,NA
"154","stim/objects/Instruments/timbal.png",57,64,57,0.5,"stim/41.jpeg",4,1,1,NA,"Instruments",2,2,"right","right",0.690000057,1,1,0,1,NA,NA,NA,NA,NA,NA,NA,NA,NA,NA,NA,NA,NA,NA,NA,NA,NA,NA,NA,NA,NA,NA,NA,NA
"85","stim/objects/HouseObjects/towel.png",58,64,58,0.3,"stim/52.jpeg",5,2,2,NA,"HouseObjects",1,2,"left","right",0.478999853,0,0,0,1,NA,NA,NA,NA,NA,NA,NA,NA,NA,NA,NA,NA,NA,NA,NA,NA,NA,NA,NA,NA,NA,NA,NA,NA
"21","stim/objects/HouseObjects/safetypin2.png",59,64,59,0.7,"stim/62.jpeg",6,2,2,NA,"HouseObjects",1,3,"left","left",0.618000031,1,1,0,1,NA,NA,NA,NA,NA,NA,NA,NA,NA,NA,NA,NA,NA,NA,NA,NA,NA,NA,NA,NA,NA,NA,NA,NA
"151","stim/objects/Instruments/tambourine2.png",60,64,60,0.3,"stim/64.jpeg",6,4,2,NA,"Instruments",2,4,"right","left",0.605000019,0,0,0,1,NA,NA,NA,NA,NA,NA,NA,NA,NA,NA,NA,NA,NA,NA,NA,NA,NA,NA,NA,NA,NA,NA,NA,NA
"182","stim/objects/Instruments/trombone.png",61,64,61,0.5,"stim/43.jpeg",4,3,1,NA,"Instruments",2,4,"right","",NA,0,0,0,1,NA,NA,NA,NA,NA,NA,NA,NA,NA,NA,NA,NA,NA,NA,NA,NA,NA,NA,NA,NA,NA,NA,NA,NA
"225","stim/objects/Instruments/vuvuzela.png",62,64,62,0.7,"stim/53.jpeg",5,3,2,NA,"Instruments",2,2,"right","right",0.462999821,1,1,0,1,NA,NA,NA,NA,NA,NA,NA,NA,NA,NA,NA,NA,NA,NA,NA,NA,NA,NA,NA,NA,NA,NA,NA,NA
"160","stim/objects/Instruments/timbal2.png",63,64,63,0.9,"stim/11.jpeg",1,1,3,NA,"Instruments",2,2,"right","right",0.538999796,1,1,0,1,NA,NA,NA,NA,NA,NA,NA,NA,NA,NA,NA,NA,NA,NA,NA,NA,NA,NA,NA,NA,NA,NA,NA,NA
"174","stim/objects/Instruments/triangle2.png",64,64,64,0.9,"stim/12.jpeg",1,2,3,NA,"Instruments",2,2,"right","right",0.436999798,1,1,0,1,NA,NA,NA,NA,NA,NA,NA,NA,NA,NA,NA,NA,NA,NA,NA,NA,NA,NA,NA,NA,NA,NA,NA,NA
"115","stim/objects/HouseObjects/wateringcan2.png",65,64,65,0.9,"stim/24.jpeg",2,4,3,NA,"HouseObjects",1,1,"left","left",0.368999958,1,1,0,1,NA,NA,NA,NA,NA,NA,NA,NA,NA,NA,NA,NA,NA,NA,NA,NA,NA,NA,NA,NA,NA,NA,NA,NA
"32","stim/objects/HouseObjects/saw2.png",66,64,66,0.7,"stim/63.jpeg",6,3,2,NA,"HouseObjects",1,4,"left","left",0.529999971,1,1,0,1,NA,NA,NA,NA,NA,NA,NA,NA,NA,NA,NA,NA,NA,NA,NA,NA,NA,NA,NA,NA,NA,NA,NA,NA
"213","stim/objects/Instruments/tuba.png",67,64,67,0.7,"stim/51.jpeg",5,1,2,NA,"Instruments",2,2,"right","right",0.492999792,1,1,0,1,NA,NA,NA,NA,NA,NA,NA,NA,NA,NA,NA,NA,NA,NA,NA,NA,NA,NA,NA,NA,NA,NA,NA,NA
"122","stim/objects/Instruments/record_player.png",68,64,68,0.5,"stim/31.jpeg",3,1,1,NA,"Instruments",2,1,"right","left",0.579999924,0,0,0,1,NA,NA,NA,NA,NA,NA,NA,NA,NA,NA,NA,NA,NA,NA,NA,NA,NA,NA,NA,NA,NA,NA,NA,NA
"161","stim/objects/Instruments/timbal2.png",69,64,69,0.9,"stim/11.jpeg",1,1,3,NA,"Instruments",2,4,"right","right",0.530999899,1,1,0,1,NA,NA,NA,NA,NA,NA,NA,NA,NA,NA,NA,NA,NA,NA,NA,NA,NA,NA,NA,NA,NA,NA,NA,NA
"101","stim/objects/HouseObjects/vacuumcleaner2.png",70,64,70,0.9,"stim/23.jpeg",2,3,3,NA,"HouseObjects",1,4,"left","left",0.463999987,1,1,0,1,NA,NA,NA,NA,NA,NA,NA,NA,NA,NA,NA,NA,NA,NA,NA,NA,NA,NA,NA,NA,NA,NA,NA,NA
"98","stim/objects/HouseObjects/vacuumcleaner.png",71,64,71,0.3,"stim/53.jpeg",5,3,2,NA,"HouseObjects",1,3,"left","right",0.537999868,0,0,0,1,NA,NA,NA,NA,NA,NA,NA,NA,NA,NA,NA,NA,NA,NA,NA,NA,NA,NA,NA,NA,NA,NA,NA,NA
"123","stim/objects/Instruments/record_player.png",72,64,72,0.5,"stim/31.jpeg",3,1,1,NA,"Instruments",2,1,"right","left",0.802999973,0,0,0,1,NA,NA,NA,NA,NA,NA,NA,NA,NA,NA,NA,NA,NA,NA,NA,NA,NA,NA,NA,NA,NA,NA,NA,NA
"86","stim/objects/HouseObjects/towel.png",73,64,73,0.3,"stim/52.jpeg",5,2,2,NA,"HouseObjects",1,1,"left","right",0.548999786,0,0,0,1,NA,NA,NA,NA,NA,NA,NA,NA,NA,NA,NA,NA,NA,NA,NA,NA,NA,NA,NA,NA,NA,NA,NA,NA
"224","stim/objects/Instruments/violin2.png",74,64,74,0.1,"stim/22.jpeg",2,2,3,NA,"Instruments",2,4,"right","left",0.569000006,0,0,0,1,NA,NA,NA,NA,NA,NA,NA,NA,NA,NA,NA,NA,NA,NA,NA,NA,NA,NA,NA,NA,NA,NA,NA,NA
"61","stim/objects/HouseObjects/teapot.png",75,64,75,0.5,"stim/43.jpeg",4,3,1,NA,"HouseObjects",1,4,"left","right",0.445999861,0,0,0,1,NA,NA,NA,NA,NA,NA,NA,NA,NA,NA,NA,NA,NA,NA,NA,NA,NA,NA,NA,NA,NA,NA,NA,NA
"135","stim/objects/Instruments/saxophone2.png",76,64,76,0.3,"stim/62.jpeg",6,2,2,NA,"Instruments",2,4,"right","left",0.566999912,0,0,0,1,NA,NA,NA,NA,NA,NA,NA,NA,NA,NA,NA,NA,NA,NA,NA,NA,NA,NA,NA,NA,NA,NA,NA,NA
"68","stim/objects/HouseObjects/thermometer.png",77,64,77,0.5,"stim/44.jpeg",4,4,1,NA,"HouseObjects",1,1,"left","right",0.478999853,0,0,0,1,NA,NA,NA,NA,NA,NA,NA,NA,NA,NA,NA,NA,NA,NA,NA,NA,NA,NA,NA,NA,NA,NA,NA,NA
"226","stim/objects/Instruments/vuvuzela.png",78,64,78,0.7,"stim/53.jpeg",5,3,2,NA,"Instruments",2,2,"right","right",0.575999737,1,1,0,1,NA,NA,NA,NA,NA,NA,NA,NA,NA,NA,NA,NA,NA,NA,NA,NA,NA,NA,NA,NA,NA,NA,NA,NA
"196","stim/objects/Instruments/trumpet.png",79,64,79,0.5,"stim/44.jpeg",4,4,1,NA,"Instruments",2,2,"right","left",0.78399992,0,0,0,1,NA,NA,NA,NA,NA,NA,NA,NA,NA,NA,NA,NA,NA,NA,NA,NA,NA,NA,NA,NA,NA,NA,NA,NA
"66","stim/objects/HouseObjects/teapot2.png",80,64,80,0.1,"stim/13.jpeg",1,3,3,NA,"HouseObjects",1,1,"left","right",0.736999989,0,0,0,1,NA,NA,NA,NA,NA,NA,NA,NA,NA,NA,NA,NA,NA,NA,NA,NA,NA,NA,NA,NA,NA,NA,NA,NA
"62","stim/objects/HouseObjects/teapot.png",81,64,81,0.5,"stim/43.jpeg",4,3,1,NA,"HouseObjects",1,4,"left","",NA,0,0,0,1,NA,NA,NA,NA,NA,NA,NA,NA,NA,NA,NA,NA,NA,NA,NA,NA,NA,NA,NA,NA,NA,NA,NA,NA
"15","stim/objects/HouseObjects/safetypin.png",82,64,82,0.5,"stim/32.jpeg",3,2,1,NA,"HouseObjects",1,4,"left","right",0.674999952,0,0,0,1,NA,NA,NA,NA,NA,NA,NA,NA,NA,NA,NA,NA,NA,NA,NA,NA,NA,NA,NA,NA,NA,NA,NA,NA
"175","stim/objects/Instruments/triangle2.png",83,64,83,0.9,"stim/12.jpeg",1,2,3,NA,"Instruments",2,4,"right","right",0.574999809,1,1,0,1,NA,NA,NA,NA,NA,NA,NA,NA,NA,NA,NA,NA,NA,NA,NA,NA,NA,NA,NA,NA,NA,NA,NA,NA
"142","stim/objects/Instruments/speaker2.png",84,64,84,0.3,"stim/63.jpeg",6,3,2,NA,"Instruments",2,1,"right","left",0.58100009,0,0,0,1,NA,NA,NA,NA,NA,NA,NA,NA,NA,NA,NA,NA,NA,NA,NA,NA,NA,NA,NA,NA,NA,NA,NA,NA
"49","stim/objects/HouseObjects/sponge.png",85,64,85,0.5,"stim/41.jpeg",4,1,1,NA,"HouseObjects",1,2,"left","right",0.477999926,0,0,0,1,NA,NA,NA,NA,NA,NA,NA,NA,NA,NA,NA,NA,NA,NA,NA,NA,NA,NA,NA,NA,NA,NA,NA,NA
"54","stim/objects/HouseObjects/sponge2.png",86,64,86,0.1,"stim/11.jpeg",1,1,3,NA,"HouseObjects",1,2,"left","right",0.841999769,0,0,0,1,NA,NA,NA,NA,NA,NA,NA,NA,NA,NA,NA,NA,NA,NA,NA,NA,NA,NA,NA,NA,NA,NA,NA,NA
"126","stim/objects/Instruments/record_player2.png",87,64,87,0.3,"stim/61.jpeg",6,1,2,NA,"Instruments",2,3,"right","left",0.730999947,0,0,0,1,NA,NA,NA,NA,NA,NA,NA,NA,NA,NA,NA,NA,NA,NA,NA,NA,NA,NA,NA,NA,NA,NA,NA,NA
"38","stim/objects/HouseObjects/scale.png",88,64,88,0.5,"stim/34.jpeg",3,4,1,NA,"HouseObjects",1,3,"left","right",0.446999788,0,0,0,1,NA,NA,NA,NA,NA,NA,NA,NA,NA,NA,NA,NA,NA,NA,NA,NA,NA,NA,NA,NA,NA,NA,NA,NA
"16","stim/objects/HouseObjects/safetypin.png",89,64,89,0.5,"stim/32.jpeg",3,2,1,NA,"HouseObjects",1,4,"left","right",0.647000074,0,0,0,1,NA,NA,NA,NA,NA,NA,NA,NA,NA,NA,NA,NA,NA,NA,NA,NA,NA,NA,NA,NA,NA,NA,NA,NA
"138","stim/objects/Instruments/speaker.png",90,64,90,0.5,"stim/33.jpeg",3,3,1,NA,"Instruments",2,3,"right","right",0.677999973,1,1,0,1,NA,NA,NA,NA,NA,NA,NA,NA,NA,NA,NA,NA,NA,NA,NA,NA,NA,NA,NA,NA,NA,NA,NA,NA
"44","stim/objects/HouseObjects/scale2.png",91,64,91,0.7,"stim/64.jpeg",6,4,2,NA,"HouseObjects",1,4,"left","left",0.703999996,1,1,0,1,NA,NA,NA,NA,NA,NA,NA,NA,NA,NA,NA,NA,NA,NA,NA,NA,NA,NA,NA,NA,NA,NA,NA,NA
"45","stim/objects/HouseObjects/scale2.png",92,64,92,0.7,"stim/64.jpeg",6,4,2,NA,"HouseObjects",1,2,"left","left",0.473999977,1,1,0,1,NA,NA,NA,NA,NA,NA,NA,NA,NA,NA,NA,NA,NA,NA,NA,NA,NA,NA,NA,NA,NA,NA,NA,NA
"143","stim/objects/Instruments/speaker2.png",93,64,93,0.3,"stim/63.jpeg",6,3,2,NA,"Instruments",2,4,"right","left",0.599999905,0,0,0,1,NA,NA,NA,NA,NA,NA,NA,NA,NA,NA,NA,NA,NA,NA,NA,NA,NA,NA,NA,NA,NA,NA,NA,NA
"216","stim/objects/Instruments/tuba2.png",94,64,94,0.1,"stim/21.jpeg",2,1,3,NA,"Instruments",2,1,"right","left",0.577000141,0,0,0,1,NA,NA,NA,NA,NA,NA,NA,NA,NA,NA,NA,NA,NA,NA,NA,NA,NA,NA,NA,NA,NA,NA,NA,NA
"102","stim/objects/HouseObjects/vacuumcleaner2.png",95,64,95,0.9,"stim/23.jpeg",2,3,3,NA,"HouseObjects",1,4,"left","left",0.569000006,1,1,0,1,NA,NA,NA,NA,NA,NA,NA,NA,NA,NA,NA,NA,NA,NA,NA,NA,NA,NA,NA,NA,NA,NA,NA,NA
"3","stim/objects/HouseObjects/rug.png",96,64,96,0.5,"stim/31.jpeg",3,1,1,NA,"HouseObjects",1,2,"left","right",0.655999899,0,0,0,1,NA,NA,NA,NA,NA,NA,NA,NA,NA,NA,NA,NA,NA,NA,NA,NA,NA,NA,NA,NA,NA,NA,NA,NA
"139","stim/objects/Instruments/speaker.png",97,64,97,0.5,"stim/33.jpeg",3,3,1,NA,"Instruments",2,1,"right","right",0.433999777,1,1,0,1,NA,NA,NA,NA,NA,NA,NA,NA,NA,NA,NA,NA,NA,NA,NA,NA,NA,NA,NA,NA,NA,NA,NA,NA
"130","stim/objects/Instruments/saxophone.png",98,64,98,0.5,"stim/32.jpeg",3,2,1,NA,"Instruments",2,1,"right","right",0.500999928,1,1,0,1,NA,NA,NA,NA,NA,NA,NA,NA,NA,NA,NA,NA,NA,NA,NA,NA,NA,NA,NA,NA,NA,NA,NA,NA
"167","stim/objects/Instruments/triangle.png",99,64,99,0.5,"stim/42.jpeg",4,2,1,NA,"Instruments",2,3,"right","left",0.753000021,0,0,0,1,NA,NA,NA,NA,NA,NA,NA,NA,NA,NA,NA,NA,NA,NA,NA,NA,NA,NA,NA,NA,NA,NA,NA,NA
"183","stim/objects/Instruments/trombone.png",100,64,100,0.5,"stim/43.jpeg",4,3,1,NA,"Instruments",2,3,"right","left",0.8349998,0,0,0,1,NA,NA,NA,NA,NA,NA,NA,NA,NA,NA,NA,NA,NA,NA,NA,NA,NA,NA,NA,NA,NA,NA,NA,NA
"92","stim/objects/HouseObjects/towel2.png",101,64,101,0.9,"stim/22.jpeg",2,2,3,NA,"HouseObjects",1,2,"left","left",0.498000145,1,1,0,1,NA,NA,NA,NA,NA,NA,NA,NA,NA,NA,NA,NA,NA,NA,NA,NA,NA,NA,NA,NA,NA,NA,NA,NA
"8","stim/objects/HouseObjects/rug2.png",102,64,102,0.7,"stim/61.jpeg",6,1,2,NA,"HouseObjects",1,1,"left","left",0.622999907,1,1,0,1,NA,NA,NA,NA,NA,NA,NA,NA,NA,NA,NA,NA,NA,NA,NA,NA,NA,NA,NA,NA,NA,NA,NA,NA
"162","stim/objects/Instruments/timbal2.png",103,64,103,0.9,"stim/11.jpeg",1,1,3,NA,"Instruments",2,1,"right","right",0.565000057,1,1,0,1,NA,NA,NA,NA,NA,NA,NA,NA,NA,NA,NA,NA,NA,NA,NA,NA,NA,NA,NA,NA,NA,NA,NA,NA
"176","stim/objects/Instruments/triangle2.png",104,64,104,0.9,"stim/12.jpeg",1,2,3,NA,"Instruments",2,3,"right","right",0.59499979,1,1,0,1,NA,NA,NA,NA,NA,NA,NA,NA,NA,NA,NA,NA,NA,NA,NA,NA,NA,NA,NA,NA,NA,NA,NA,NA
"50","stim/objects/HouseObjects/sponge.png",105,64,105,0.5,"stim/41.jpeg",4,1,1,NA,"HouseObjects",1,3,"left","left",0.600999832,1,1,0,1,NA,NA,NA,NA,NA,NA,NA,NA,NA,NA,NA,NA,NA,NA,NA,NA,NA,NA,NA,NA,NA,NA,NA,NA
"168","stim/objects/Instruments/triangle.png",106,64,106,0.5,"stim/42.jpeg",4,2,1,NA,"Instruments",2,1,"right","left",0.618999958,0,0,0,1,NA,NA,NA,NA,NA,NA,NA,NA,NA,NA,NA,NA,NA,NA,NA,NA,NA,NA,NA,NA,NA,NA,NA,NA
"155","stim/objects/Instruments/timbal.png",107,64,107,0.5,"stim/41.jpeg",4,1,1,NA,"Instruments",2,4,"right","right",0.487999916,1,1,0,1,NA,NA,NA,NA,NA,NA,NA,NA,NA,NA,NA,NA,NA,NA,NA,NA,NA,NA,NA,NA,NA,NA,NA,NA
"177","stim/objects/Instruments/triangle2.png",108,64,108,0.9,"stim/12.jpeg",1,2,3,NA,"Instruments",2,1,"right","right",0.520999908,1,1,0,1,NA,NA,NA,NA,NA,NA,NA,NA,NA,NA,NA,NA,NA,NA,NA,NA,NA,NA,NA,NA,NA,NA,NA,NA
"204","stim/objects/Instruments/trumpet2.png",109,64,109,0.9,"stim/14.jpeg",1,4,3,NA,"Instruments",2,3,"right","right",0.505000114,1,1,0,1,NA,NA,NA,NA,NA,NA,NA,NA,NA,NA,NA,NA,NA,NA,NA,NA,NA,NA,NA,NA,NA,NA,NA,NA
"4","stim/objects/HouseObjects/rug.png",110,64,110,0.5,"stim/31.jpeg",3,1,1,NA,"HouseObjects",1,2,"left","right",0.758999825,0,0,0,1,NA,NA,NA,NA,NA,NA,NA,NA,NA,NA,NA,NA,NA,NA,NA,NA,NA,NA,NA,NA,NA,NA,NA,NA
"152","stim/objects/Instruments/tambourine2.png",111,64,111,0.3,"stim/64.jpeg",6,4,2,NA,"Instruments",2,3,"right","left",0.528000116,0,0,0,1,NA,NA,NA,NA,NA,NA,NA,NA,NA,NA,NA,NA,NA,NA,NA,NA,NA,NA,NA,NA,NA,NA,NA,NA
"234","stim/objects/Instruments/xylophone.png",112,64,112,0.7,"stim/54.jpeg",5,4,2,NA,"Instruments",2,2,"right","right",0.545999765,1,1,0,1,NA,NA,NA,NA,NA,NA,NA,NA,NA,NA,NA,NA,NA,NA,NA,NA,NA,NA,NA,NA,NA,NA,NA,NA
"227","stim/objects/Instruments/vuvuzela.png",113,64,113,0.7,"stim/53.jpeg",5,3,2,NA,"Instruments",2,4,"right","right",0.662999868,1,1,0,1,NA,NA,NA,NA,NA,NA,NA,NA,NA,NA,NA,NA,NA,NA,NA,NA,NA,NA,NA,NA,NA,NA,NA,NA
"109","stim/objects/HouseObjects/wateringcan.png",114,64,114,0.3,"stim/54.jpeg",5,4,2,NA,"HouseObjects",1,2,"left","right",0.485999823,0,0,0,1,NA,NA,NA,NA,NA,NA,NA,NA,NA,NA,NA,NA,NA,NA,NA,NA,NA,NA,NA,NA,NA,NA,NA,NA
"197","stim/objects/Instruments/trumpet.png",115,64,115,0.5,"stim/44.jpeg",4,4,1,NA,"Instruments",2,3,"right","left",0.645999908,0,0,0,1,NA,NA,NA,NA,NA,NA,NA,NA,NA,NA,NA,NA,NA,NA,NA,NA,NA,NA,NA,NA,NA,NA,NA,NA
"235","stim/objects/Instruments/xylophone.png",116,64,116,0.7,"stim/54.jpeg",5,4,2,NA,"Instruments",2,1,"right","right",0.53399992,1,1,0,1,NA,NA,NA,NA,NA,NA,NA,NA,NA,NA,NA,NA,NA,NA,NA,NA,NA,NA,NA,NA,NA,NA,NA,NA
"33","stim/objects/HouseObjects/saw2.png",117,64,117,0.7,"stim/63.jpeg",6,3,2,NA,"HouseObjects",1,3,"left","left",0.694000006,1,1,0,1,NA,NA,NA,NA,NA,NA,NA,NA,NA,NA,NA,NA,NA,NA,NA,NA,NA,NA,NA,NA,NA,NA,NA,NA
"140","stim/objects/Instruments/speaker.png",118,64,118,0.5,"stim/33.jpeg",3,3,1,NA,"Instruments",2,1,"right","right",0.64199996,1,1,0,1,NA,NA,NA,NA,NA,NA,NA,NA,NA,NA,NA,NA,NA,NA,NA,NA,NA,NA,NA,NA,NA,NA,NA,NA
"163","stim/objects/Instruments/timbal2.png",119,64,119,0.9,"stim/11.jpeg",1,1,3,NA,"Instruments",2,1,"right","right",0.536000013,1,1,0,1,NA,NA,NA,NA,NA,NA,NA,NA,NA,NA,NA,NA,NA,NA,NA,NA,NA,NA,NA,NA,NA,NA,NA,NA
"136","stim/objects/Instruments/saxophone2.png",120,64,120,0.3,"stim/62.jpeg",6,2,2,NA,"Instruments",2,3,"right","left",0.56099987,0,0,0,1,NA,NA,NA,NA,NA,NA,NA,NA,NA,NA,NA,NA,NA,NA,NA,NA,NA,NA,NA,NA,NA,NA,NA,NA
"110","stim/objects/HouseObjects/wateringcan.png",121,64,121,0.3,"stim/54.jpeg",5,4,2,NA,"HouseObjects",1,3,"left","right",0.493000031,0,0,0,1,NA,NA,NA,NA,NA,NA,NA,NA,NA,NA,NA,NA,NA,NA,NA,NA,NA,NA,NA,NA,NA,NA,NA,NA
"198","stim/objects/Instruments/trumpet.png",122,64,122,0.5,"stim/44.jpeg",4,4,1,NA,"Instruments",2,4,"right","right",0.770999908,1,1,0,1,NA,NA,NA,NA,NA,NA,NA,NA,NA,NA,NA,NA,NA,NA,NA,NA,NA,NA,NA,NA,NA,NA,NA,NA
"51","stim/objects/HouseObjects/sponge.png",123,64,123,0.5,"stim/41.jpeg",4,1,1,NA,"HouseObjects",1,4,"left","right",0.552000046,0,0,0,1,NA,NA,NA,NA,NA,NA,NA,NA,NA,NA,NA,NA,NA,NA,NA,NA,NA,NA,NA,NA,NA,NA,NA,NA
"79","stim/objects/HouseObjects/thread2.png",124,64,124,0.9,"stim/21.jpeg",2,1,3,NA,"HouseObjects",1,4,"left","left",0.501999855,1,1,0,1,NA,NA,NA,NA,NA,NA,NA,NA,NA,NA,NA,NA,NA,NA,NA,NA,NA,NA,NA,NA,NA,NA,NA,NA
"141","stim/objects/Instruments/speaker.png",125,64,125,0.5,"stim/33.jpeg",3,3,1,NA,"Instruments",2,3,"right","right",0.593999863,1,1,0,1,NA,NA,NA,NA,NA,NA,NA,NA,NA,NA,NA,NA,NA,NA,NA,NA,NA,NA,NA,NA,NA,NA,NA,NA
"103","stim/objects/HouseObjects/vacuumcleaner2.png",126,64,126,0.9,"stim/23.jpeg",2,3,3,NA,"HouseObjects",1,4,"left","left",0.54399991,1,1,0,1,NA,NA,NA,NA,NA,NA,NA,NA,NA,NA,NA,NA,NA,NA,NA,NA,NA,NA,NA,NA,NA,NA,NA,NA
"236","stim/objects/Instruments/xylophone.png",127,64,127,0.7,"stim/54.jpeg",5,4,2,NA,"Instruments",2,1,"right","right",0.576999903,1,1,0,1,NA,NA,NA,NA,NA,NA,NA,NA,NA,NA,NA,NA,NA,NA,NA,NA,NA,NA,NA,NA,NA,NA,NA,NA
"228","stim/objects/Instruments/vuvuzela.png",128,64,128,0.7,"stim/53.jpeg",5,3,2,NA,"Instruments",2,1,"right","right",0.45299983,1,1,0,1,NA,NA,NA,NA,NA,NA,NA,NA,NA,NA,NA,NA,NA,NA,NA,NA,NA,NA,NA,NA,NA,NA,NA,NA
"34","stim/objects/HouseObjects/saw2.png",129,64,129,0.7,"stim/63.jpeg",6,3,2,NA,"HouseObjects",1,4,"left","left",0.558000088,1,1,0,1,NA,NA,NA,NA,NA,NA,NA,NA,NA,NA,NA,NA,NA,NA,NA,NA,NA,NA,NA,NA,NA,NA,NA,NA
"104","stim/objects/HouseObjects/vacuumcleaner2.png",130,64,130,0.9,"stim/23.jpeg",2,3,3,NA,"HouseObjects",1,3,"left","left",0.473999977,1,1,0,1,NA,NA,NA,NA,NA,NA,NA,NA,NA,NA,NA,NA,NA,NA,NA,NA,NA,NA,NA,NA,NA,NA,NA,NA
"63","stim/objects/HouseObjects/teapot.png",131,64,131,0.5,"stim/43.jpeg",4,3,1,NA,"HouseObjects",1,2,"left","left",0.792000055,1,1,0,1,NA,NA,NA,NA,NA,NA,NA,NA,NA,NA,NA,NA,NA,NA,NA,NA,NA,NA,NA,NA,NA,NA,NA,NA
"35","stim/objects/HouseObjects/saw2.png",132,64,132,0.7,"stim/63.jpeg",6,3,2,NA,"HouseObjects",1,4,"left","left",0.549999952,1,1,0,1,NA,NA,NA,NA,NA,NA,NA,NA,NA,NA,NA,NA,NA,NA,NA,NA,NA,NA,NA,NA,NA,NA,NA,NA
"105","stim/objects/HouseObjects/vacuumcleaner2.png",133,64,133,0.9,"stim/23.jpeg",2,3,3,NA,"HouseObjects",1,1,"left","left",0.55099988,1,1,0,1,NA,NA,NA,NA,NA,NA,NA,NA,NA,NA,NA,NA,NA,NA,NA,NA,NA,NA,NA,NA,NA,NA,NA,NA
"80","stim/objects/HouseObjects/thread2.png",134,64,134,0.9,"stim/21.jpeg",2,1,3,NA,"HouseObjects",1,4,"left","left",0.51699996,1,1,0,1,NA,NA,NA,NA,NA,NA,NA,NA,NA,NA,NA,NA,NA,NA,NA,NA,NA,NA,NA,NA,NA,NA,NA,NA
"214","stim/objects/Instruments/tuba.png",135,64,135,0.7,"stim/51.jpeg",5,1,2,NA,"Instruments",2,2,"right","right",0.506999969,1,1,0,1,NA,NA,NA,NA,NA,NA,NA,NA,NA,NA,NA,NA,NA,NA,NA,NA,NA,NA,NA,NA,NA,NA,NA,NA
"111","stim/objects/HouseObjects/wateringcan.png",136,64,136,0.3,"stim/54.jpeg",5,4,2,NA,"HouseObjects",1,2,"left","right",0.539999962,0,0,0,1,NA,NA,NA,NA,NA,NA,NA,NA,NA,NA,NA,NA,NA,NA,NA,NA,NA,NA,NA,NA,NA,NA,NA,NA
"205","stim/objects/Instruments/trumpet2.png",137,64,137,0.9,"stim/14.jpeg",1,4,3,NA,"Instruments",2,4,"right","right",0.529000044,1,1,0,1,NA,NA,NA,NA,NA,NA,NA,NA,NA,NA,NA,NA,NA,NA,NA,NA,NA,NA,NA,NA,NA,NA,NA,NA
"26","stim/objects/HouseObjects/saw.png",138,64,138,0.5,"stim/33.jpeg",3,3,1,NA,"HouseObjects",1,1,"left","right",0.569000006,0,0,0,1,NA,NA,NA,NA,NA,NA,NA,NA,NA,NA,NA,NA,NA,NA,NA,NA,NA,NA,NA,NA,NA,NA,NA,NA
"220","stim/objects/Instruments/violin.png",139,64,139,0.7,"stim/52.jpeg",5,2,2,NA,"Instruments",2,3,"right","right",0.666999817,1,1,0,1,NA,NA,NA,NA,NA,NA,NA,NA,NA,NA,NA,NA,NA,NA,NA,NA,NA,NA,NA,NA,NA,NA,NA,NA
"169","stim/objects/Instruments/triangle.png",140,64,140,0.5,"stim/42.jpeg",4,2,1,NA,"Instruments",2,1,"right","",NA,0,0,0,1,NA,NA,NA,NA,NA,NA,NA,NA,NA,NA,NA,NA,NA,NA,NA,NA,NA,NA,NA,NA,NA,NA,NA,NA
"74","stim/objects/HouseObjects/thread.png",141,64,141,0.3,"stim/51.jpeg",5,1,2,NA,"HouseObjects",1,1,"left","right",0.473999977,0,0,0,1,NA,NA,NA,NA,NA,NA,NA,NA,NA,NA,NA,NA,NA,NA,NA,NA,NA,NA,NA,NA,NA,NA,NA,NA
"9","stim/objects/HouseObjects/rug2.png",142,64,142,0.7,"stim/61.jpeg",6,1,2,NA,"HouseObjects",1,3,"left","left",0.538999796,1,1,0,1,NA,NA,NA,NA,NA,NA,NA,NA,NA,NA,NA,NA,NA,NA,NA,NA,NA,NA,NA,NA,NA,NA,NA,NA
"178","stim/objects/Instruments/triangle2.png",143,64,143,0.9,"stim/12.jpeg",1,2,3,NA,"Instruments",2,1,"right","right",0.496999979,1,1,0,1,NA,NA,NA,NA,NA,NA,NA,NA,NA,NA,NA,NA,NA,NA,NA,NA,NA,NA,NA,NA,NA,NA,NA,NA
"22","stim/objects/HouseObjects/safetypin2.png",144,64,144,0.7,"stim/62.jpeg",6,2,2,NA,"HouseObjects",1,2,"left","left",0.47300005,1,1,0,1,NA,NA,NA,NA,NA,NA,NA,NA,NA,NA,NA,NA,NA,NA,NA,NA,NA,NA,NA,NA,NA,NA,NA,NA
"81","stim/objects/HouseObjects/thread2.png",145,64,145,0.9,"stim/21.jpeg",2,1,3,NA,"HouseObjects",1,1,"left","left",0.545999765,1,1,0,1,NA,NA,NA,NA,NA,NA,NA,NA,NA,NA,NA,NA,NA,NA,NA,NA,NA,NA,NA,NA,NA,NA,NA,NA
"39","stim/objects/HouseObjects/scale.png",146,64,146,0.5,"stim/34.jpeg",3,4,1,NA,"HouseObjects",1,3,"left","right",0.646999836,0,0,0,1,NA,NA,NA,NA,NA,NA,NA,NA,NA,NA,NA,NA,NA,NA,NA,NA,NA,NA,NA,NA,NA,NA,NA,NA
"179","stim/objects/Instruments/triangle2.png",147,64,147,0.9,"stim/12.jpeg",1,2,3,NA,"Instruments",2,1,"right","right",0.566999912,1,1,0,1,NA,NA,NA,NA,NA,NA,NA,NA,NA,NA,NA,NA,NA,NA,NA,NA,NA,NA,NA,NA,NA,NA,NA,NA
"124","stim/objects/Instruments/record_player.png",148,64,148,0.5,"stim/31.jpeg",3,1,1,NA,"Instruments",2,1,"right","right",0.676000118,1,1,0,1,NA,NA,NA,NA,NA,NA,NA,NA,NA,NA,NA,NA,NA,NA,NA,NA,NA,NA,NA,NA,NA,NA,NA,NA
"187","stim/objects/Instruments/trombone2.png",149,64,149,0.9,"stim/13.jpeg",1,3,3,NA,"Instruments",2,2,"right","right",0.468999863,1,1,0,1,NA,NA,NA,NA,NA,NA,NA,NA,NA,NA,NA,NA,NA,NA,NA,NA,NA,NA,NA,NA,NA,NA,NA,NA
"188","stim/objects/Instruments/trombone2.png",150,64,150,0.9,"stim/13.jpeg",1,3,3,NA,"Instruments",2,2,"right","right",0.358999968,1,1,0,1,NA,NA,NA,NA,NA,NA,NA,NA,NA,NA,NA,NA,NA,NA,NA,NA,NA,NA,NA,NA,NA,NA,NA,NA
"131","stim/objects/Instruments/saxophone.png",151,64,151,0.5,"stim/32.jpeg",3,2,1,NA,"Instruments",2,1,"right","right",0.715000153,1,1,0,1,NA,NA,NA,NA,NA,NA,NA,NA,NA,NA,NA,NA,NA,NA,NA,NA,NA,NA,NA,NA,NA,NA,NA,NA
"156","stim/objects/Instruments/timbal.png",152,64,152,0.5,"stim/41.jpeg",4,1,1,NA,"Instruments",2,1,"right","left",0.758999825,0,0,0,1,NA,NA,NA,NA,NA,NA,NA,NA,NA,NA,NA,NA,NA,NA,NA,NA,NA,NA,NA,NA,NA,NA,NA,NA
"64","stim/objects/HouseObjects/teapot.png",153,64,153,0.5,"stim/43.jpeg",4,3,1,NA,"HouseObjects",1,2,"left","left",0.677999973,1,1,0,1,NA,NA,NA,NA,NA,NA,NA,NA,NA,NA,NA,NA,NA,NA,NA,NA,NA,NA,NA,NA,NA,NA,NA,NA
"106","stim/objects/HouseObjects/vacuumcleaner2.png",154,64,154,0.9,"stim/23.jpeg",2,3,3,NA,"HouseObjects",1,4,"left","left",0.502999783,1,1,0,1,NA,NA,NA,NA,NA,NA,NA,NA,NA,NA,NA,NA,NA,NA,NA,NA,NA,NA,NA,NA,NA,NA,NA,NA
"164","stim/objects/Instruments/timbal2.png",155,64,155,0.9,"stim/11.jpeg",1,1,3,NA,"Instruments",2,1,"right","right",0.506000042,1,1,0,1,NA,NA,NA,NA,NA,NA,NA,NA,NA,NA,NA,NA,NA,NA,NA,NA,NA,NA,NA,NA,NA,NA,NA,NA
"132","stim/objects/Instruments/saxophone.png",156,64,156,0.5,"stim/32.jpeg",3,2,1,NA,"Instruments",2,1,"right","right",0.599999905,1,1,0,1,NA,NA,NA,NA,NA,NA,NA,NA,NA,NA,NA,NA,NA,NA,NA,NA,NA,NA,NA,NA,NA,NA,NA,NA
"170","stim/objects/Instruments/triangle.png",157,64,157,0.5,"stim/42.jpeg",4,2,1,NA,"Instruments",2,2,"right","left",0.640999794,0,0,0,1,NA,NA,NA,NA,NA,NA,NA,NA,NA,NA,NA,NA,NA,NA,NA,NA,NA,NA,NA,NA,NA,NA,NA,NA
"206","stim/objects/Instruments/trumpet2.png",158,64,158,0.9,"stim/14.jpeg",1,4,3,NA,"Instruments",2,3,"right","right",0.437000036,1,1,0,1,NA,NA,NA,NA,NA,NA,NA,NA,NA,NA,NA,NA,NA,NA,NA,NA,NA,NA,NA,NA,NA,NA,NA,NA
"145","stim/objects/Instruments/tambourine.png",159,64,159,0.5,"stim/34.jpeg",3,4,1,NA,"Instruments",2,1,"right","right",0.720999956,1,1,0,1,NA,NA,NA,NA,NA,NA,NA,NA,NA,NA,NA,NA,NA,NA,NA,NA,NA,NA,NA,NA,NA,NA,NA,NA
"125","stim/objects/Instruments/record_player.png",160,64,160,0.5,"stim/31.jpeg",3,1,1,NA,"Instruments",2,2,"right","right",0.402999878,1,1,0,1,NA,NA,NA,NA,NA,NA,NA,NA,NA,NA,NA,NA,NA,NA,NA,NA,NA,NA,NA,NA,NA,NA,NA,NA
"229","stim/objects/Instruments/vuvuzela.png",161,64,161,0.7,"stim/53.jpeg",5,3,2,NA,"Instruments",2,1,"right","right",0.458999872,1,1,0,1,NA,NA,NA,NA,NA,NA,NA,NA,NA,NA,NA,NA,NA,NA,NA,NA,NA,NA,NA,NA,NA,NA,NA,NA
"189","stim/objects/Instruments/trombone2.png",162,64,162,0.9,"stim/13.jpeg",1,3,3,NA,"Instruments",2,2,"right","right",0.394999981,1,1,0,1,NA,NA,NA,NA,NA,NA,NA,NA,NA,NA,NA,NA,NA,NA,NA,NA,NA,NA,NA,NA,NA,NA,NA,NA
"75","stim/objects/HouseObjects/thread.png",163,64,163,0.3,"stim/51.jpeg",5,1,2,NA,"HouseObjects",1,2,"left","right",0.527999878,0,0,0,1,NA,NA,NA,NA,NA,NA,NA,NA,NA,NA,NA,NA,NA,NA,NA,NA,NA,NA,NA,NA,NA,NA,NA,NA
"165","stim/objects/Instruments/timbal2.png",164,64,164,0.9,"stim/11.jpeg",1,1,3,NA,"Instruments",2,2,"right","right",0.727999926,1,1,0,1,NA,NA,NA,NA,NA,NA,NA,NA,NA,NA,NA,NA,NA,NA,NA,NA,NA,NA,NA,NA,NA,NA,NA,NA
"221","stim/objects/Instruments/violin.png",165,64,165,0.7,"stim/52.jpeg",5,2,2,NA,"Instruments",2,4,"right","right",0.480000019,1,1,0,1,NA,NA,NA,NA,NA,NA,NA,NA,NA,NA,NA,NA,NA,NA,NA,NA,NA,NA,NA,NA,NA,NA,NA,NA
"40","stim/objects/HouseObjects/scale.png",166,64,166,0.5,"stim/34.jpeg",3,4,1,NA,"HouseObjects",1,4,"left","right",0.621999741,0,0,0,1,NA,NA,NA,NA,NA,NA,NA,NA,NA,NA,NA,NA,NA,NA,NA,NA,NA,NA,NA,NA,NA,NA,NA,NA
"72","stim/objects/HouseObjects/thermometer2.png",167,64,167,0.1,"stim/14.jpeg",1,4,3,NA,"HouseObjects",1,3,"left","left",0.46999979,1,1,0,1,NA,NA,NA,NA,NA,NA,NA,NA,NA,NA,NA,NA,NA,NA,NA,NA,NA,NA,NA,NA,NA,NA,NA,NA
"36","stim/objects/HouseObjects/saw2.png",168,64,168,0.7,"stim/63.jpeg",6,3,2,NA,"HouseObjects",1,3,"left","left",0.752999783,1,1,0,1,NA,NA,NA,NA,NA,NA,NA,NA,NA,NA,NA,NA,NA,NA,NA,NA,NA,NA,NA,NA,NA,NA,NA,NA
"116","stim/objects/HouseObjects/wateringcan2.png",169,64,169,0.9,"stim/24.jpeg",2,4,3,NA,"HouseObjects",1,2,"left","left",0.574999809,1,1,0,1,NA,NA,NA,NA,NA,NA,NA,NA,NA,NA,NA,NA,NA,NA,NA,NA,NA,NA,NA,NA,NA,NA,NA,NA
"117","stim/objects/HouseObjects/wateringcan2.png",170,64,170,0.9,"stim/24.jpeg",2,4,3,NA,"HouseObjects",1,1,"left","left",0.42599988,1,1,0,1,NA,NA,NA,NA,NA,NA,NA,NA,NA,NA,NA,NA,NA,NA,NA,NA,NA,NA,NA,NA,NA,NA,NA,NA
"55","stim/objects/HouseObjects/spraybottle.png",171,64,171,0.5,"stim/42.jpeg",4,2,1,NA,"HouseObjects",1,4,"left","right",0.902999878,0,0,0,1,NA,NA,NA,NA,NA,NA,NA,NA,NA,NA,NA,NA,NA,NA,NA,NA,NA,NA,NA,NA,NA,NA,NA,NA
"93","stim/objects/HouseObjects/towel2.png",172,64,172,0.9,"stim/22.jpeg",2,2,3,NA,"HouseObjects",1,4,"left","left",0.494999886,1,1,0,1,NA,NA,NA,NA,NA,NA,NA,NA,NA,NA,NA,NA,NA,NA,NA,NA,NA,NA,NA,NA,NA,NA,NA,NA
"146","stim/objects/Instruments/tambourine.png",173,64,173,0.5,"stim/34.jpeg",3,4,1,NA,"Instruments",2,2,"right","right",0.558000088,1,1,0,1,NA,NA,NA,NA,NA,NA,NA,NA,NA,NA,NA,NA,NA,NA,NA,NA,NA,NA,NA,NA,NA,NA,NA,NA
"147","stim/objects/Instruments/tambourine.png",174,64,174,0.5,"stim/34.jpeg",3,4,1,NA,"Instruments",2,1,"right","right",0.524999857,1,1,0,1,NA,NA,NA,NA,NA,NA,NA,NA,NA,NA,NA,NA,NA,NA,NA,NA,NA,NA,NA,NA,NA,NA,NA,NA
"148","stim/objects/Instruments/tambourine.png",175,64,175,0.5,"stim/34.jpeg",3,4,1,NA,"Instruments",2,1,"right","right",0.372999907,1,1,0,1,NA,NA,NA,NA,NA,NA,NA,NA,NA,NA,NA,NA,NA,NA,NA,NA,NA,NA,NA,NA,NA,NA,NA,NA
"52","stim/objects/HouseObjects/sponge.png",176,64,176,0.5,"stim/41.jpeg",4,1,1,NA,"HouseObjects",1,3,"left","",NA,0,0,0,1,NA,NA,NA,NA,NA,NA,NA,NA,NA,NA,NA,NA,NA,NA,NA,NA,NA,NA,NA,NA,NA,NA,NA,NA
"10","stim/objects/HouseObjects/rug2.png",177,64,177,0.7,"stim/61.jpeg",6,1,2,NA,"HouseObjects",1,2,"left","left",0.512999773,1,1,0,1,NA,NA,NA,NA,NA,NA,NA,NA,NA,NA,NA,NA,NA,NA,NA,NA,NA,NA,NA,NA,NA,NA,NA,NA
"53","stim/objects/HouseObjects/sponge.png",178,64,178,0.5,"stim/41.jpeg",4,1,1,NA,"HouseObjects",1,4,"left","right",0.378999949,0,0,0,1,NA,NA,NA,NA,NA,NA,NA,NA,NA,NA,NA,NA,NA,NA,NA,NA,NA,NA,NA,NA,NA,NA,NA,NA
"94","stim/objects/HouseObjects/towel2.png",179,64,179,0.9,"stim/22.jpeg",2,2,3,NA,"HouseObjects",1,2,"left","left",0.473999739,1,1,0,1,NA,NA,NA,NA,NA,NA,NA,NA,NA,NA,NA,NA,NA,NA,NA,NA,NA,NA,NA,NA,NA,NA,NA,NA
"41","stim/objects/HouseObjects/scale.png",180,64,180,0.5,"stim/34.jpeg",3,4,1,NA,"HouseObjects",1,2,"left","left",0.549000025,1,1,0,1,NA,NA,NA,NA,NA,NA,NA,NA,NA,NA,NA,NA,NA,NA,NA,NA,NA,NA,NA,NA,NA,NA,NA,NA
"11","stim/objects/HouseObjects/rug2.png",181,64,181,0.7,"stim/61.jpeg",6,1,2,NA,"HouseObjects",1,3,"left","right",0.638999939,0,0,0,1,NA,NA,NA,NA,NA,NA,NA,NA,NA,NA,NA,NA,NA,NA,NA,NA,NA,NA,NA,NA,NA,NA,NA,NA
"46","stim/objects/HouseObjects/scale2.png",182,64,182,0.7,"stim/64.jpeg",6,4,2,NA,"HouseObjects",1,4,"left","left",0.509000063,1,1,0,1,NA,NA,NA,NA,NA,NA,NA,NA,NA,NA,NA,NA,NA,NA,NA,NA,NA,NA,NA,NA,NA,NA,NA,NA
"171","stim/objects/Instruments/triangle.png",183,64,183,0.5,"stim/42.jpeg",4,2,1,NA,"Instruments",2,2,"right","left",0.609999895,0,0,0,1,NA,NA,NA,NA,NA,NA,NA,NA,NA,NA,NA,NA,NA,NA,NA,NA,NA,NA,NA,NA,NA,NA,NA,NA
"107","stim/objects/HouseObjects/vacuumcleaner2.png",184,64,184,0.9,"stim/23.jpeg",2,3,3,NA,"HouseObjects",1,1,"left","left",0.438999891,1,1,0,1,NA,NA,NA,NA,NA,NA,NA,NA,NA,NA,NA,NA,NA,NA,NA,NA,NA,NA,NA,NA,NA,NA,NA,NA
"56","stim/objects/HouseObjects/spraybottle.png",185,64,185,0.5,"stim/42.jpeg",4,2,1,NA,"HouseObjects",1,2,"left","left",0.602999926,1,1,0,1,NA,NA,NA,NA,NA,NA,NA,NA,NA,NA,NA,NA,NA,NA,NA,NA,NA,NA,NA,NA,NA,NA,NA,NA
"166","stim/objects/Instruments/timbal2.png",186,64,186,0.9,"stim/11.jpeg",1,1,3,NA,"Instruments",2,1,"right","right",0.490999937,1,1,0,1,NA,NA,NA,NA,NA,NA,NA,NA,NA,NA,NA,NA,NA,NA,NA,NA,NA,NA,NA,NA,NA,NA,NA,NA
"157","stim/objects/Instruments/timbal.png",187,64,187,0.5,"stim/41.jpeg",4,1,1,NA,"Instruments",2,2,"right","left",0.661999941,0,0,0,1,NA,NA,NA,NA,NA,NA,NA,NA,NA,NA,NA,NA,NA,NA,NA,NA,NA,NA,NA,NA,NA,NA,NA,NA
"118","stim/objects/HouseObjects/wateringcan2.png",188,64,188,0.9,"stim/24.jpeg",2,4,3,NA,"HouseObjects",1,4,"left","left",0.450999975,1,1,0,1,NA,NA,NA,NA,NA,NA,NA,NA,NA,NA,NA,NA,NA,NA,NA,NA,NA,NA,NA,NA,NA,NA,NA,NA
"119","stim/objects/HouseObjects/wateringcan2.png",189,64,189,0.9,"stim/24.jpeg",2,4,3,NA,"HouseObjects",1,2,"left","left",0.353999853,1,1,0,1,NA,NA,NA,NA,NA,NA,NA,NA,NA,NA,NA,NA,NA,NA,NA,NA,NA,NA,NA,NA,NA,NA,NA,NA
"190","stim/objects/Instruments/trombone2.png",190,64,190,0.9,"stim/13.jpeg",1,3,3,NA,"Instruments",2,3,"right","right",0.368999958,1,1,0,1,NA,NA,NA,NA,NA,NA,NA,NA,NA,NA,NA,NA,NA,NA,NA,NA,NA,NA,NA,NA,NA,NA,NA,NA
"237","stim/objects/Instruments/xylophone.png",191,64,191,0.7,"stim/54.jpeg",5,4,2,NA,"Instruments",2,3,"right","right",0.40899992,1,1,0,1,NA,NA,NA,NA,NA,NA,NA,NA,NA,NA,NA,NA,NA,NA,NA,NA,NA,NA,NA,NA,NA,NA,NA,NA
"127","stim/objects/Instruments/record_player2.png",192,64,192,0.3,"stim/61.jpeg",6,1,2,NA,"Instruments",2,1,"right","left",0.546999931,0,0,0,1,NA,NA,NA,NA,NA,NA,NA,NA,NA,NA,NA,NA,NA,NA,NA,NA,NA,NA,NA,NA,NA,NA,NA,NA
"191","stim/objects/Instruments/trombone2.png",193,64,193,0.9,"stim/13.jpeg",1,3,3,NA,"Instruments",2,4,"right","right",0.399999857,1,1,0,1,NA,NA,NA,NA,NA,NA,NA,NA,NA,NA,NA,NA,NA,NA,NA,NA,NA,NA,NA,NA,NA,NA,NA,NA
"87","stim/objects/HouseObjects/towel.png",194,64,194,0.3,"stim/52.jpeg",5,2,2,NA,"HouseObjects",1,4,"left","right",0.546999931,0,0,0,1,NA,NA,NA,NA,NA,NA,NA,NA,NA,NA,NA,NA,NA,NA,NA,NA,NA,NA,NA,NA,NA,NA,NA,NA
"207","stim/objects/Instruments/trumpet2.png",195,64,195,0.9,"stim/14.jpeg",1,4,3,NA,"Instruments",2,3,"right","right",0.526000023,1,1,0,1,NA,NA,NA,NA,NA,NA,NA,NA,NA,NA,NA,NA,NA,NA,NA,NA,NA,NA,NA,NA,NA,NA,NA,NA
"99","stim/objects/HouseObjects/vacuumcleaner.png",196,64,196,0.3,"stim/53.jpeg",5,3,2,NA,"HouseObjects",1,3,"left","right",0.437999964,0,0,0,1,NA,NA,NA,NA,NA,NA,NA,NA,NA,NA,NA,NA,NA,NA,NA,NA,NA,NA,NA,NA,NA,NA,NA,NA
"128","stim/objects/Instruments/record_player2.png",197,64,197,0.3,"stim/61.jpeg",6,1,2,NA,"Instruments",2,1,"right","left",0.428999901,0,0,0,1,NA,NA,NA,NA,NA,NA,NA,NA,NA,NA,NA,NA,NA,NA,NA,NA,NA,NA,NA,NA,NA,NA,NA,NA
"230","stim/objects/Instruments/vuvuzela.png",198,64,198,0.7,"stim/53.jpeg",5,3,2,NA,"Instruments",2,1,"right","right",0.710999966,1,1,0,1,NA,NA,NA,NA,NA,NA,NA,NA,NA,NA,NA,NA,NA,NA,NA,NA,NA,NA,NA,NA,NA,NA,NA,NA
"17","stim/objects/HouseObjects/safetypin.png",199,64,199,0.5,"stim/32.jpeg",3,2,1,NA,"HouseObjects",1,1,"left","right",0.515000105,0,0,0,1,NA,NA,NA,NA,NA,NA,NA,NA,NA,NA,NA,NA,NA,NA,NA,NA,NA,NA,NA,NA,NA,NA,NA,NA
"95","stim/objects/HouseObjects/towel2.png",200,64,200,0.9,"stim/22.jpeg",2,2,3,NA,"HouseObjects",1,4,"left","left",0.484999895,1,1,0,1,NA,NA,NA,NA,NA,NA,NA,NA,NA,NA,NA,NA,NA,NA,NA,NA,NA,NA,NA,NA,NA,NA,NA,NA
"57","stim/objects/HouseObjects/spraybottle.png",201,64,201,0.5,"stim/42.jpeg",4,2,1,NA,"HouseObjects",1,4,"left","left",0.877000093,1,1,0,1,NA,NA,NA,NA,NA,NA,NA,NA,NA,NA,NA,NA,NA,NA,NA,NA,NA,NA,NA,NA,NA,NA,NA,NA
"180","stim/objects/Instruments/triangle2.png",202,64,202,0.9,"stim/12.jpeg",1,2,3,NA,"Instruments",2,3,"right","right",0.45299983,1,1,0,1,NA,NA,NA,NA,NA,NA,NA,NA,NA,NA,NA,NA,NA,NA,NA,NA,NA,NA,NA,NA,NA,NA,NA,NA
"82","stim/objects/HouseObjects/thread2.png",203,64,203,0.9,"stim/21.jpeg",2,1,3,NA,"HouseObjects",1,2,"left","left",0.467999935,1,1,0,1,NA,NA,NA,NA,NA,NA,NA,NA,NA,NA,NA,NA,NA,NA,NA,NA,NA,NA,NA,NA,NA,NA,NA,NA
"238","stim/objects/Instruments/xylophone.png",204,64,204,0.7,"stim/54.jpeg",5,4,2,NA,"Instruments",2,1,"right","right",0.578999758,1,1,0,1,NA,NA,NA,NA,NA,NA,NA,NA,NA,NA,NA,NA,NA,NA,NA,NA,NA,NA,NA,NA,NA,NA,NA,NA
"65","stim/objects/HouseObjects/teapot.png",205,64,205,0.5,"stim/43.jpeg",4,3,1,NA,"HouseObjects",1,4,"left","left",0.538999796,1,1,0,1,NA,NA,NA,NA,NA,NA,NA,NA,NA,NA,NA,NA,NA,NA,NA,NA,NA,NA,NA,NA,NA,NA,NA,NA
"47","stim/objects/HouseObjects/scale2.png",206,64,206,0.7,"stim/64.jpeg",6,4,2,NA,"HouseObjects",1,3,"left","left",0.521999836,1,1,0,1,NA,NA,NA,NA,NA,NA,NA,NA,NA,NA,NA,NA,NA,NA,NA,NA,NA,NA,NA,NA,NA,NA,NA,NA
"222","stim/objects/Instruments/violin.png",207,64,207,0.7,"stim/52.jpeg",5,2,2,NA,"Instruments",2,4,"right","right",0.405999899,1,1,0,1,NA,NA,NA,NA,NA,NA,NA,NA,NA,NA,NA,NA,NA,NA,NA,NA,NA,NA,NA,NA,NA,NA,NA,NA
"5","stim/objects/HouseObjects/rug.png",208,64,208,0.5,"stim/31.jpeg",3,1,1,NA,"HouseObjects",1,1,"left","left",0.450999975,1,1,0,1,NA,NA,NA,NA,NA,NA,NA,NA,NA,NA,NA,NA,NA,NA,NA,NA,NA,NA,NA,NA,NA,NA,NA,NA
"23","stim/objects/HouseObjects/safetypin2.png",209,64,209,0.7,"stim/62.jpeg",6,2,2,NA,"HouseObjects",1,1,"left","left",0.553999901,1,1,0,1,NA,NA,NA,NA,NA,NA,NA,NA,NA,NA,NA,NA,NA,NA,NA,NA,NA,NA,NA,NA,NA,NA,NA,NA
"108","stim/objects/HouseObjects/vacuumcleaner2.png",210,64,210,0.9,"stim/23.jpeg",2,3,3,NA,"HouseObjects",1,2,"left","left",0.526000023,1,1,0,1,NA,NA,NA,NA,NA,NA,NA,NA,NA,NA,NA,NA,NA,NA,NA,NA,NA,NA,NA,NA,NA,NA,NA,NA
"58","stim/objects/HouseObjects/spraybottle.png",211,64,211,0.5,"stim/42.jpeg",4,2,1,NA,"HouseObjects",1,4,"left","right",0.415999889,0,0,0,1,NA,NA,NA,NA,NA,NA,NA,NA,NA,NA,NA,NA,NA,NA,NA,NA,NA,NA,NA,NA,NA,NA,NA,NA
"120","stim/objects/HouseObjects/wateringcan2.png",212,64,212,0.9,"stim/24.jpeg",2,4,3,NA,"HouseObjects",1,3,"left","left",0.513000011,1,1,0,1,NA,NA,NA,NA,NA,NA,NA,NA,NA,NA,NA,NA,NA,NA,NA,NA,NA,NA,NA,NA,NA,NA,NA,NA
"192","stim/objects/Instruments/trombone2.png",213,64,213,0.9,"stim/13.jpeg",1,3,3,NA,"Instruments",2,3,"right","right",0.47699976,1,1,0,1,NA,NA,NA,NA,NA,NA,NA,NA,NA,NA,NA,NA,NA,NA,NA,NA,NA,NA,NA,NA,NA,NA,NA,NA
"12","stim/objects/HouseObjects/rug2.png",214,64,214,0.7,"stim/61.jpeg",6,1,2,NA,"HouseObjects",1,2,"left","left",0.54399991,1,1,0,1,NA,NA,NA,NA,NA,NA,NA,NA,NA,NA,NA,NA,NA,NA,NA,NA,NA,NA,NA,NA,NA,NA,NA,NA
"215","stim/objects/Instruments/tuba.png",215,64,215,0.7,"stim/51.jpeg",5,1,2,NA,"Instruments",2,2,"right","right",0.426000118,1,1,0,1,NA,NA,NA,NA,NA,NA,NA,NA,NA,NA,NA,NA,NA,NA,NA,NA,NA,NA,NA,NA,NA,NA,NA,NA
"69","stim/objects/HouseObjects/thermometer.png",216,64,216,0.5,"stim/44.jpeg",4,4,1,NA,"HouseObjects",1,3,"left","left",0.613999844,1,1,0,1,NA,NA,NA,NA,NA,NA,NA,NA,NA,NA,NA,NA,NA,NA,NA,NA,NA,NA,NA,NA,NA,NA,NA,NA
"144","stim/objects/Instruments/speaker2.png",217,64,217,0.3,"stim/63.jpeg",6,3,2,NA,"Instruments",2,3,"right","left",0.481999874,0,0,0,1,NA,NA,NA,NA,NA,NA,NA,NA,NA,NA,NA,NA,NA,NA,NA,NA,NA,NA,NA,NA,NA,NA,NA,NA
"149","stim/objects/Instruments/tambourine.png",218,64,218,0.5,"stim/34.jpeg",3,4,1,NA,"Instruments",2,4,"right","right",0.536000013,1,1,0,1,NA,NA,NA,NA,NA,NA,NA,NA,NA,NA,NA,NA,NA,NA,NA,NA,NA,NA,NA,NA,NA,NA,NA,NA
"59","stim/objects/HouseObjects/spraybottle.png",219,64,219,0.5,"stim/42.jpeg",4,2,1,NA,"HouseObjects",1,4,"left","left",0.599999905,1,1,0,1,NA,NA,NA,NA,NA,NA,NA,NA,NA,NA,NA,NA,NA,NA,NA,NA,NA,NA,NA,NA,NA,NA,NA,NA
"184","stim/objects/Instruments/trombone.png",220,64,220,0.5,"stim/43.jpeg",4,3,1,NA,"Instruments",2,3,"right","left",0.521999836,0,0,0,1,NA,NA,NA,NA,NA,NA,NA,NA,NA,NA,NA,NA,NA,NA,NA,NA,NA,NA,NA,NA,NA,NA,NA,NA
"208","stim/objects/Instruments/trumpet2.png",221,64,221,0.9,"stim/14.jpeg",1,4,3,NA,"Instruments",2,2,"right","right",0.476000071,1,1,0,1,NA,NA,NA,NA,NA,NA,NA,NA,NA,NA,NA,NA,NA,NA,NA,NA,NA,NA,NA,NA,NA,NA,NA,NA
"27","stim/objects/HouseObjects/saw.png",222,64,222,0.5,"stim/33.jpeg",3,3,1,NA,"HouseObjects",1,1,"left","right",0.652999878,0,0,0,1,NA,NA,NA,NA,NA,NA,NA,NA,NA,NA,NA,NA,NA,NA,NA,NA,NA,NA,NA,NA,NA,NA,NA,NA
"28","stim/objects/HouseObjects/saw.png",223,64,223,0.5,"stim/33.jpeg",3,3,1,NA,"HouseObjects",1,3,"left","left",0.644999981,1,1,0,1,NA,NA,NA,NA,NA,NA,NA,NA,NA,NA,NA,NA,NA,NA,NA,NA,NA,NA,NA,NA,NA,NA,NA,NA
"185","stim/objects/Instruments/trombone.png",224,64,224,0.5,"stim/43.jpeg",4,3,1,NA,"Instruments",2,4,"right","left",0.782999992,0,0,0,1,NA,NA,NA,NA,NA,NA,NA,NA,NA,NA,NA,NA,NA,NA,NA,NA,NA,NA,NA,NA,NA,NA,NA,NA
"83","stim/objects/HouseObjects/thread2.png",225,64,225,0.9,"stim/21.jpeg",2,1,3,NA,"HouseObjects",1,1,"left","left",0.457000017,1,1,0,1,NA,NA,NA,NA,NA,NA,NA,NA,NA,NA,NA,NA,NA,NA,NA,NA,NA,NA,NA,NA,NA,NA,NA,NA
"193","stim/objects/Instruments/trombone2.png",226,64,226,0.9,"stim/13.jpeg",1,3,3,NA,"Instruments",2,2,"right","left",0.707000017,0,0,0,1,NA,NA,NA,NA,NA,NA,NA,NA,NA,NA,NA,NA,NA,NA,NA,NA,NA,NA,NA,NA,NA,NA,NA,NA
"239","stim/objects/Instruments/xylophone.png",227,64,227,0.7,"stim/54.jpeg",5,4,2,NA,"Instruments",2,4,"right","right",0.541000128,1,1,0,1,NA,NA,NA,NA,NA,NA,NA,NA,NA,NA,NA,NA,NA,NA,NA,NA,NA,NA,NA,NA,NA,NA,NA,NA
"70","stim/objects/HouseObjects/thermometer.png",228,64,228,0.5,"stim/44.jpeg",4,4,1,NA,"HouseObjects",1,2,"left","right",0.532000065,0,0,0,1,NA,NA,NA,NA,NA,NA,NA,NA,NA,NA,NA,NA,NA,NA,NA,NA,NA,NA,NA,NA,NA,NA,NA,NA
"231","stim/objects/Instruments/vuvuzela.png",229,64,229,0.7,"stim/53.jpeg",5,3,2,NA,"Instruments",2,4,"right","right",0.539999962,1,1,0,1,NA,NA,NA,NA,NA,NA,NA,NA,NA,NA,NA,NA,NA,NA,NA,NA,NA,NA,NA,NA,NA,NA,NA,NA
"199","stim/objects/Instruments/trumpet.png",230,64,230,0.5,"stim/44.jpeg",4,4,1,NA,"Instruments",2,3,"right","left",0.684999704,0,0,0,1,NA,NA,NA,NA,NA,NA,NA,NA,NA,NA,NA,NA,NA,NA,NA,NA,NA,NA,NA,NA,NA,NA,NA,NA
"71","stim/objects/HouseObjects/thermometer.png",231,64,231,0.5,"stim/44.jpeg",4,4,1,NA,"HouseObjects",1,2,"left","left",0.532999992,1,1,0,1,NA,NA,NA,NA,NA,NA,NA,NA,NA,NA,NA,NA,NA,NA,NA,NA,NA,NA,NA,NA,NA,NA,NA,NA
"133","stim/objects/Instruments/saxophone.png",232,64,232,0.5,"stim/32.jpeg",3,2,1,NA,"Instruments",2,3,"right","right",0.473999739,1,1,0,1,NA,NA,NA,NA,NA,NA,NA,NA,NA,NA,NA,NA,NA,NA,NA,NA,NA,NA,NA,NA,NA,NA,NA,NA
"29","stim/objects/HouseObjects/saw.png",233,64,233,0.5,"stim/33.jpeg",3,3,1,NA,"HouseObjects",1,2,"left","right",0.552999973,0,0,0,1,NA,NA,NA,NA,NA,NA,NA,NA,NA,NA,NA,NA,NA,NA,NA,NA,NA,NA,NA,NA,NA,NA,NA,NA
"48","stim/objects/HouseObjects/scale2.png",234,64,234,0.7,"stim/64.jpeg",6,4,2,NA,"HouseObjects",1,4,"left","left",0.488999844,1,1,0,1,NA,NA,NA,NA,NA,NA,NA,NA,NA,NA,NA,NA,NA,NA,NA,NA,NA,NA,NA,NA,NA,NA,NA,NA
"84","stim/objects/HouseObjects/thread2.png",235,64,235,0.9,"stim/21.jpeg",2,1,3,NA,"HouseObjects",1,2,"left","left",0.519999981,1,1,0,1,NA,NA,NA,NA,NA,NA,NA,NA,NA,NA,NA,NA,NA,NA,NA,NA,NA,NA,NA,NA,NA,NA,NA,NA
"24","stim/objects/HouseObjects/safetypin2.png",236,64,236,0.7,"stim/62.jpeg",6,2,2,NA,"HouseObjects",1,1,"left","left",0.577000141,1,1,0,1,NA,NA,NA,NA,NA,NA,NA,NA,NA,NA,NA,NA,NA,NA,NA,NA,NA,NA,NA,NA,NA,NA,NA,NA
"240","stim/objects/Instruments/xylophone2.png",237,64,237,0.1,"stim/24.jpeg",2,4,3,NA,"Instruments",2,3,"right","left",0.465999842,0,0,0,1,NA,NA,NA,NA,NA,NA,NA,NA,NA,NA,NA,NA,NA,NA,NA,NA,NA,NA,NA,NA,NA,NA,NA,NA
"223","stim/objects/Instruments/violin.png",238,64,238,0.7,"stim/52.jpeg",5,2,2,NA,"Instruments",2,3,"right","right",0.437999964,1,1,0,1,NA,NA,NA,NA,NA,NA,NA,NA,NA,NA,NA,NA,NA,NA,NA,NA,NA,NA,NA,NA,NA,NA,NA,NA
"194","stim/objects/Instruments/trombone2.png",239,64,239,0.9,"stim/13.jpeg",1,3,3,NA,"Instruments",2,4,"right","right",0.495999813,1,1,0,1,NA,NA,NA,NA,NA,NA,NA,NA,NA,NA,NA,NA,NA,NA,NA,NA,NA,NA,NA,NA,NA,NA,NA,NA
"96","stim/objects/HouseObjects/towel2.png",240,64,240,0.9,"stim/22.jpeg",2,2,3,NA,"HouseObjects",1,3,"left","left",0.509999752,1,1,0,1,NA,NA,NA,NA,NA,NA,NA,NA,NA,NA,NA,NA,NA,NA,NA,NA,NA,NA,NA,NA,NA,NA,NA,NA
"308","stim/objects/HouseObjects/dustpan.png",248,64,241,0.9,"stim/24.jpeg",2,4,3,2,"HouseObjects",1,2,"left","left",0.750999928,1,1,1,0,NA,NA,NA,NA,NA,NA,NA,NA,NA,NA,NA,NA,NA,NA,NA,NA,NA,NA,NA,NA,NA,NA,NA,NA
"291","stim/objects/HouseObjects/doormat.png",249,64,242,0.9,"stim/21.jpeg",2,1,3,2,"HouseObjects",1,3,"left","left",0.5849998,1,1,1,0,NA,NA,NA,NA,NA,NA,NA,NA,NA,NA,NA,NA,NA,NA,NA,NA,NA,NA,NA,NA,NA,NA,NA,NA
"391","stim/objects/HouseObjects/knife2.png",250,64,243,0.9,"stim/23.jpeg",2,3,3,1,"HouseObjects",1,3,"left","left",0.501999855,1,1,1,0,154,64,1,0.9,1,"stim/23.jpeg",2,3,"stim/23.jpeg",3,"left",1.177999973,4,2,3.470999956,3,0.312999964,154,1,0,0,1,1,0
"359","stim/objects/HouseObjects/glass.png",251,64,244,0.9,"stim/24.jpeg",2,4,3,2,"HouseObjects",1,1,"left","left",0.592999935,1,1,1,0,NA,NA,NA,NA,NA,NA,NA,NA,NA,NA,NA,NA,NA,NA,NA,NA,NA,NA,NA,NA,NA,NA,NA,NA
"472","stim/objects/Instruments/flute2.png",252,64,245,0.9,"stim/13.jpeg",1,3,3,1,"Instruments",2,3,"right","right",0.761999846,1,1,1,0,120,64,1,0.9,2,"stim/13.jpeg",1,3,"stim/13.jpeg",3,"left",0.872999907,4,2,6.614000082,4,1.181999922,120,1,0,0,0,0,0
"490","stim/objects/Instruments/frenchhorn.png",253,64,246,0.9,"stim/13.jpeg",1,3,3,2,"Instruments",2,1,"right","right",0.568000078,1,1,1,0,NA,NA,NA,NA,NA,NA,NA,NA,NA,NA,NA,NA,NA,NA,NA,NA,NA,NA,NA,NA,NA,NA,NA,NA
"473","stim/objects/Instruments/flutetrans.png",254,64,247,0.9,"stim/14.jpeg",1,4,3,2,"Instruments",2,4,"right","right",0.663999796,1,1,1,0,NA,NA,NA,NA,NA,NA,NA,NA,NA,NA,NA,NA,NA,NA,NA,NA,NA,NA,NA,NA,NA,NA,NA,NA
"506","stim/objects/Instruments/frenchhorn2.png",255,64,248,0.9,"stim/11.jpeg",1,1,3,1,"Instruments",2,1,"right","right",0.580999851,1,1,1,0,186,64,1,0.9,2,"stim/11.jpeg",1,1,"stim/11.jpeg",1,"left",1.532999992,4,2,11.98399997,3,0.277999878,186,1,0,0,0,0,0
"283","stim/objects/HouseObjects/cushion.png",256,64,249,0.7,"stim/64.jpeg",6,4,2,2,"HouseObjects",1,3,"left","left",0.855999947,1,1,1,0,NA,NA,NA,NA,NA,NA,NA,NA,NA,NA,NA,NA,NA,NA,NA,NA,NA,NA,NA,NA,NA,NA,NA,NA
"456","stim/objects/Instruments/flute.png",257,64,250,0.9,"stim/14.jpeg",1,4,3,2,"Instruments",2,4,"right","right",0.50999999,1,1,1,0,NA,NA,NA,NA,NA,NA,NA,NA,NA,NA,NA,NA,NA,NA,NA,NA,NA,NA,NA,NA,NA,NA,NA,NA
"443","stim/objects/Instruments/doublebass2.png",258,64,251,0.3,"stim/64.jpeg",6,4,2,1,"Instruments",2,2,"right","left",0.563999891,0,0,1,0,37,64,1,0.3,2,"stim/64.jpeg",6,4,"stim/64.jpeg",2,"left",1.25999999,4,3,7.184000015,4,0.63499999,37,1,0,0,0,0,0
"457","stim/objects/Instruments/flute.png",259,64,252,0.9,"stim/12.jpeg",1,2,3,2,"Instruments",2,2,"right","right",0.529999971,1,1,1,0,NA,NA,NA,NA,NA,NA,NA,NA,NA,NA,NA,NA,NA,NA,NA,NA,NA,NA,NA,NA,NA,NA,NA,NA
"474","stim/objects/Instruments/flutetrans.png",260,64,253,0.9,"stim/13.jpeg",1,3,3,2,"Instruments",2,2,"right","right",0.547999859,1,1,1,0,NA,NA,NA,NA,NA,NA,NA,NA,NA,NA,NA,NA,NA,NA,NA,NA,NA,NA,NA,NA,NA,NA,NA,NA
"309","stim/objects/HouseObjects/dustpan.png",261,64,254,0.9,"stim/24.jpeg",2,4,3,2,"HouseObjects",1,1,"left","left",0.488999844,1,1,1,0,NA,NA,NA,NA,NA,NA,NA,NA,NA,NA,NA,NA,NA,NA,NA,NA,NA,NA,NA,NA,NA,NA,NA,NA
"451","stim/objects/Instruments/electricdrumset2.png",262,64,255,0.3,"stim/62.jpeg",6,2,2,1,"Instruments",2,4,"right","right",0.815999985,1,1,1,0,80,64,1,0.3,2,"stim/62.jpeg",6,2,"stim/62.jpeg",4,"left",1.523000002,3,4,5.198999882,3,0.596999884,80,1,0,0,0,0,0
"524","stim/objects/Instruments/grandpiano.png",263,64,256,0.9,"stim/13.jpeg",1,3,3,2,"Instruments",2,4,"right","left",0.671999931,0,0,1,0,NA,NA,NA,NA,NA,NA,NA,NA,NA,NA,NA,NA,NA,NA,NA,NA,NA,NA,NA,NA,NA,NA,NA,NA
"342","stim/objects/HouseObjects/garbagebin.png",264,64,257,0.9,"stim/22.jpeg",2,2,3,2,"HouseObjects",1,2,"left","left",0.607999802,1,1,1,0,NA,NA,NA,NA,NA,NA,NA,NA,NA,NA,NA,NA,NA,NA,NA,NA,NA,NA,NA,NA,NA,NA,NA,NA
"475","stim/objects/Instruments/flutetrans.png",265,64,258,0.9,"stim/11.jpeg",1,1,3,2,"Instruments",2,2,"right","right",0.523999929,1,1,1,0,NA,NA,NA,NA,NA,NA,NA,NA,NA,NA,NA,NA,NA,NA,NA,NA,NA,NA,NA,NA,NA,NA,NA,NA
"444","stim/objects/Instruments/drums.png",266,64,259,0.7,"stim/53.jpeg",5,3,2,2,"Instruments",2,2,"right","right",0.496000051,1,1,1,0,NA,NA,NA,NA,NA,NA,NA,NA,NA,NA,NA,NA,NA,NA,NA,NA,NA,NA,NA,NA,NA,NA,NA,NA
"243","stim/objects/HouseObjects/ashtray2.png",267,64,260,0.3,"stim/52.jpeg",5,2,2,1,"HouseObjects",1,3,"left","right",0.535999775,0,0,1,0,171,64,1,0.3,1,"stim/52.jpeg",5,2,"stim/52.jpeg",3,"right",1.563999891,1,2,1.53399992,2,0.285000086,171,0,1,NA,0,NA,0
"310","stim/objects/HouseObjects/dustpan.png",268,64,261,0.9,"stim/22.jpeg",2,2,3,2,"HouseObjects",1,1,"left","left",0.592999935,1,1,1,0,NA,NA,NA,NA,NA,NA,NA,NA,NA,NA,NA,NA,NA,NA,NA,NA,NA,NA,NA,NA,NA,NA,NA,NA
"432","stim/objects/Instruments/clarinet2.png",269,64,262,0.3,"stim/61.jpeg",6,1,2,1,"Instruments",2,3,"right","right",0.76699996,1,1,1,0,193,64,1,0.3,2,"stim/61.jpeg",6,1,"stim/61.jpeg",3,"left",1.112999916,3,3,8.318999767,1,0.346999884,193,1,0,0,0,0,0
"525","stim/objects/Instruments/grandpiano.png",270,64,263,0.9,"stim/12.jpeg",1,2,3,2,"Instruments",2,3,"right","",NA,0,0,1,0,NA,NA,NA,NA,NA,NA,NA,NA,NA,NA,NA,NA,NA,NA,NA,NA,NA,NA,NA,NA,NA,NA,NA,NA
"492","stim/objects/Instruments/frenchhorn.png",271,64,264,0.9,"stim/12.jpeg",1,2,3,2,"Instruments",2,2,"right","",NA,0,0,1,0,NA,NA,NA,NA,NA,NA,NA,NA,NA,NA,NA,NA,NA,NA,NA,NA,NA,NA,NA,NA,NA,NA,NA,NA
"343","stim/objects/HouseObjects/garbagebin.png",272,64,265,0.9,"stim/22.jpeg",2,2,3,2,"HouseObjects",1,1,"left","left",0.479999781,1,1,1,0,NA,NA,NA,NA,NA,NA,NA,NA,NA,NA,NA,NA,NA,NA,NA,NA,NA,NA,NA,NA,NA,NA,NA,NA
"325","stim/objects/HouseObjects/flyswatter.png",273,64,266,0.9,"stim/23.jpeg",2,3,3,2,"HouseObjects",1,1,"left","left",0.478999853,1,1,1,0,NA,NA,NA,NA,NA,NA,NA,NA,NA,NA,NA,NA,NA,NA,NA,NA,NA,NA,NA,NA,NA,NA,NA,NA
"439","stim/objects/Instruments/cymbal2.png",274,64,267,0.3,"stim/63.jpeg",6,3,2,1,"Instruments",2,3,"right","left",0.528000116,0,0,1,0,167,64,1,0.3,2,"stim/63.jpeg",6,3,"stim/63.jpeg",3,"left",2.523999929,3,4,4.453999996,4,0.235999823,167,1,0,0,0,0,0
"311","stim/objects/HouseObjects/dustpan.png",275,64,268,0.9,"stim/24.jpeg",2,4,3,2,"HouseObjects",1,4,"left","left",0.446999788,1,1,1,0,NA,NA,NA,NA,NA,NA,NA,NA,NA,NA,NA,NA,NA,NA,NA,NA,NA,NA,NA,NA,NA,NA,NA,NA
"361","stim/objects/HouseObjects/glass.png",276,64,269,0.9,"stim/22.jpeg",2,2,3,2,"HouseObjects",1,2,"left","left",0.47300005,1,1,1,0,NA,NA,NA,NA,NA,NA,NA,NA,NA,NA,NA,NA,NA,NA,NA,NA,NA,NA,NA,NA,NA,NA,NA,NA
"344","stim/objects/HouseObjects/garbagebin.png",277,64,270,0.9,"stim/21.jpeg",2,1,3,2,"HouseObjects",1,1,"left","",NA,0,0,1,0,NA,NA,NA,NA,NA,NA,NA,NA,NA,NA,NA,NA,NA,NA,NA,NA,NA,NA,NA,NA,NA,NA,NA,NA
"458","stim/objects/Instruments/flute.png",278,64,271,0.9,"stim/13.jpeg",1,3,3,2,"Instruments",2,2,"right","right",0.656999826,1,1,1,0,NA,NA,NA,NA,NA,NA,NA,NA,NA,NA,NA,NA,NA,NA,NA,NA,NA,NA,NA,NA,NA,NA,NA,NA
"293","stim/objects/HouseObjects/doormat.png",279,64,272,0.9,"stim/24.jpeg",2,4,3,2,"HouseObjects",1,2,"left","left",0.498999834,1,1,1,0,NA,NA,NA,NA,NA,NA,NA,NA,NA,NA,NA,NA,NA,NA,NA,NA,NA,NA,NA,NA,NA,NA,NA,NA
"312","stim/objects/HouseObjects/dustpan.png",280,64,273,0.9,"stim/22.jpeg",2,2,3,2,"HouseObjects",1,1,"left","left",0.399999857,1,1,1,0,NA,NA,NA,NA,NA,NA,NA,NA,NA,NA,NA,NA,NA,NA,NA,NA,NA,NA,NA,NA,NA,NA,NA,NA
"362","stim/objects/HouseObjects/glass.png",281,64,274,0.9,"stim/23.jpeg",2,3,3,2,"HouseObjects",1,1,"left","left",0.563999891,1,1,1,0,NA,NA,NA,NA,NA,NA,NA,NA,NA,NA,NA,NA,NA,NA,NA,NA,NA,NA,NA,NA,NA,NA,NA,NA
"507","stim/objects/Instruments/gong.png",282,64,275,0.9,"stim/12.jpeg",1,2,3,2,"Instruments",2,1,"right","right",0.532999754,1,1,1,0,NA,NA,NA,NA,NA,NA,NA,NA,NA,NA,NA,NA,NA,NA,NA,NA,NA,NA,NA,NA,NA,NA,NA,NA
"559","stim/objects/Instruments/musicsheet.png",283,64,276,0.5,"stim/44.jpeg",4,4,1,1,"Instruments",2,2,"right","right",0.595999956,1,1,1,0,48,64,1,0.5,2,"stim/44.jpeg",4,4,"stim/44.jpeg",2,"left",1.328999996,4,4,8.795000076,4,0.289000034,48,1,1,1,0,0,0
"257","stim/objects/HouseObjects/blender.png",284,64,277,0.5,"stim/44.jpeg",4,4,1,2,"HouseObjects",1,2,"left","",NA,0,0,1,0,NA,NA,NA,NA,NA,NA,NA,NA,NA,NA,NA,NA,NA,NA,NA,NA,NA,NA,NA,NA,NA,NA,NA,NA
"294","stim/objects/HouseObjects/doormat.png",285,64,278,0.9,"stim/24.jpeg",2,4,3,2,"HouseObjects",1,3,"left","left",0.446000099,1,1,1,0,NA,NA,NA,NA,NA,NA,NA,NA,NA,NA,NA,NA,NA,NA,NA,NA,NA,NA,NA,NA,NA,NA,NA,NA
"558","stim/objects/Instruments/metronome2.png",286,64,279,0.1,"stim/22.jpeg",2,2,3,1,"Instruments",2,3,"right","left",0.494999886,0,0,1,0,106,64,1,0.1,2,"stim/22.jpeg",2,2,"stim/22.jpeg",3,"right",1.105000019,2,3,5.565000057,3,0.096999884,106,0,0,NA,1,NA,0
"389","stim/objects/HouseObjects/key2.png",287,64,280,0.9,"stim/22.jpeg",2,2,3,1,"HouseObjects",1,3,"left","left",0.465999842,1,1,1,0,142,64,1,0.9,1,"stim/22.jpeg",2,2,"stim/22.jpeg",3,"right",1.596999884,2,1,1.402999878,3,0.186999798,142,0,0,NA,1,NA,0
"345","stim/objects/HouseObjects/garbagebin.png",288,64,281,0.9,"stim/24.jpeg",2,4,3,2,"HouseObjects",1,1,"left","left",0.437000036,1,1,1,0,NA,NA,NA,NA,NA,NA,NA,NA,NA,NA,NA,NA,NA,NA,NA,NA,NA,NA,NA,NA,NA,NA,NA,NA
"364","stim/objects/HouseObjects/glass.png",289,64,282,0.9,"stim/21.jpeg",2,1,3,2,"HouseObjects",1,4,"left","left",0.466999769,1,1,1,0,NA,NA,NA,NA,NA,NA,NA,NA,NA,NA,NA,NA,NA,NA,NA,NA,NA,NA,NA,NA,NA,NA,NA,NA
"445","stim/objects/Instruments/drums.png",290,64,283,0.7,"stim/51.jpeg",5,1,2,2,"Instruments",2,2,"right","right",0.746000051,1,1,1,0,NA,NA,NA,NA,NA,NA,NA,NA,NA,NA,NA,NA,NA,NA,NA,NA,NA,NA,NA,NA,NA,NA,NA,NA
"568","stim/objects/Instruments/pipepiano2.png",291,64,284,0.1,"stim/23.jpeg",2,3,3,1,"Instruments",2,3,"right","left",0.530999899,0,0,1,0,139,64,1,0.1,2,"stim/23.jpeg",2,3,"stim/23.jpeg",3,"left",1.500999928,4,4,5.833999872,4,0.246999979,139,1,0,0,0,0,0
"290","stim/objects/HouseObjects/dishsoap2.png",292,64,285,0.7,"stim/61.jpeg",6,1,2,1,"HouseObjects",1,1,"left","left",0.629999876,1,1,1,0,2,64,1,0.7,1,"stim/61.jpeg",6,1,"stim/61.jpeg",1,"left",2.34499979,3,2,8.698999882,1,2.980999947,2,1,0,0,1,1,0
"477","stim/objects/Instruments/flutetrans.png",293,64,286,0.9,"stim/12.jpeg",1,2,3,2,"Instruments",2,1,"right","right",0.595000029,1,1,1,0,NA,NA,NA,NA,NA,NA,NA,NA,NA,NA,NA,NA,NA,NA,NA,NA,NA,NA,NA,NA,NA,NA,NA,NA
"365","stim/objects/HouseObjects/glass.png",294,64,287,0.9,"stim/23.jpeg",2,3,3,2,"HouseObjects",1,1,"left","left",0.548000097,1,1,1,0,NA,NA,NA,NA,NA,NA,NA,NA,NA,NA,NA,NA,NA,NA,NA,NA,NA,NA,NA,NA,NA,NA,NA,NA
"292","stim/objects/HouseObjects/doormat.png",295,64,288,0.9,"stim/22.jpeg",2,2,3,2,"HouseObjects",1,2,"left","left",0.65199995,1,1,1,0,NA,NA,NA,NA,NA,NA,NA,NA,NA,NA,NA,NA,NA,NA,NA,NA,NA,NA,NA,NA,NA,NA,NA,NA
"265","stim/objects/HouseObjects/bucket.png",296,64,289,0.5,"stim/43.jpeg",4,3,1,2,"HouseObjects",1,3,"left","right",0.575999975,0,0,1,0,NA,NA,NA,NA,NA,NA,NA,NA,NA,NA,NA,NA,NA,NA,NA,NA,NA,NA,NA,NA,NA,NA,NA,NA
"313","stim/objects/HouseObjects/dustpan.png",297,64,290,0.9,"stim/23.jpeg",2,3,3,2,"HouseObjects",1,4,"left","left",0.461999893,1,1,1,0,NA,NA,NA,NA,NA,NA,NA,NA,NA,NA,NA,NA,NA,NA,NA,NA,NA,NA,NA,NA,NA,NA,NA,NA
"566","stim/objects/Instruments/panflute2.png",298,64,291,0.1,"stim/22.jpeg",2,2,3,1,"Instruments",2,1,"right","left",0.836999893,0,0,1,0,9,64,1,0.1,2,"stim/22.jpeg",2,2,"stim/22.jpeg",1,"left",1.399999857,4,4,3.569999933,4,0.306999922,9,1,0,0,0,0,0
"460","stim/objects/Instruments/flute.png",299,64,292,0.9,"stim/12.jpeg",1,2,3,2,"Instruments",2,4,"right","right",0.447000027,1,1,1,0,NA,NA,NA,NA,NA,NA,NA,NA,NA,NA,NA,NA,NA,NA,NA,NA,NA,NA,NA,NA,NA,NA,NA,NA
"478","stim/objects/Instruments/flutetrans.png",300,64,293,0.9,"stim/14.jpeg",1,4,3,2,"Instruments",2,1,"right","right",0.82799983,1,1,1,0,NA,NA,NA,NA,NA,NA,NA,NA,NA,NA,NA,NA,NA,NA,NA,NA,NA,NA,NA,NA,NA,NA,NA,NA
"279","stim/objects/HouseObjects/coffee.png",301,64,294,0.7,"stim/61.jpeg",6,1,2,2,"HouseObjects",1,1,"left","",NA,0,0,1,0,NA,NA,NA,NA,NA,NA,NA,NA,NA,NA,NA,NA,NA,NA,NA,NA,NA,NA,NA,NA,NA,NA,NA,NA
"526","stim/objects/Instruments/grandpiano.png",302,64,295,0.9,"stim/14.jpeg",1,4,3,2,"Instruments",2,4,"right","right",0.532999992,1,1,1,0,NA,NA,NA,NA,NA,NA,NA,NA,NA,NA,NA,NA,NA,NA,NA,NA,NA,NA,NA,NA,NA,NA,NA,NA
"440","stim/objects/Instruments/doublebass.png",303,64,296,0.7,"stim/52.jpeg",5,2,2,2,"Instruments",2,2,"right","right",0.605000019,1,1,1,0,NA,NA,NA,NA,NA,NA,NA,NA,NA,NA,NA,NA,NA,NA,NA,NA,NA,NA,NA,NA,NA,NA,NA,NA
"430","stim/objects/Instruments/clarinet.png",304,64,297,0.5,"stim/42.jpeg",4,2,1,2,"Instruments",2,2,"right","right",0.664999962,1,1,1,0,NA,NA,NA,NA,NA,NA,NA,NA,NA,NA,NA,NA,NA,NA,NA,NA,NA,NA,NA,NA,NA,NA,NA,NA
"447","stim/objects/Instruments/drums2.png",305,64,298,0.3,"stim/61.jpeg",6,1,2,1,"Instruments",2,3,"right","left",0.621999979,0,0,1,0,97,64,1,0.3,2,"stim/61.jpeg",6,1,"stim/61.jpeg",3,"left",1.805999756,4,1,4.858999968,3,0.424999952,97,1,1,1,1,1,0
"394","stim/objects/HouseObjects/match.png",306,64,299,0.5,"stim/41.jpeg",4,1,1,1,"HouseObjects",1,1,"left","right",0.59499979,0,0,1,0,28,64,1,0.5,2,"stim/41.jpeg",4,1,"stim/41.jpeg",1,"left",1.005000114,4,3,5.519999981,3,0.138000011,28,1,0,0,0,0,0
"271","stim/objects/HouseObjects/clothesdryingrack.png",307,64,300,0.7,"stim/61.jpeg",6,1,2,2,"HouseObjects",1,2,"left","",NA,0,0,1,0,NA,NA,NA,NA,NA,NA,NA,NA,NA,NA,NA,NA,NA,NA,NA,NA,NA,NA,NA,NA,NA,NA,NA,NA
"427","stim/objects/Instruments/chime.png",308,64,301,0.5,"stim/41.jpeg",4,1,1,2,"Instruments",2,2,"right","left",0.812999964,0,0,1,0,NA,NA,NA,NA,NA,NA,NA,NA,NA,NA,NA,NA,NA,NA,NA,NA,NA,NA,NA,NA,NA,NA,NA,NA
"404","stim/objects/HouseObjects/rubbergloves.png",309,64,302,0.3,"stim/51.jpeg",5,1,2,1,"HouseObjects",1,1,"left","",NA,0,0,1,0,21,64,1,0.3,1,"stim/51.jpeg",5,1,"stim/51.jpeg",1,"right",1.474999905,2,2,5.464999914,3,0.440000057,21,0,0,NA,0,NA,0
"328","stim/objects/HouseObjects/flyswatter.png",310,64,303,0.9,"stim/21.jpeg",2,1,3,2,"HouseObjects",1,3,"left","left",0.487999916,1,1,1,0,NA,NA,NA,NA,NA,NA,NA,NA,NA,NA,NA,NA,NA,NA,NA,NA,NA,NA,NA,NA,NA,NA,NA,NA
"329","stim/objects/HouseObjects/flyswatter.png",311,64,304,0.9,"stim/21.jpeg",2,1,3,2,"HouseObjects",1,1,"left","left",0.579999924,1,1,1,0,NA,NA,NA,NA,NA,NA,NA,NA,NA,NA,NA,NA,NA,NA,NA,NA,NA,NA,NA,NA,NA,NA,NA,NA
"421","stim/objects/Instruments/bassguitar.png",312,64,305,0.5,"stim/42.jpeg",4,2,1,2,"Instruments",2,4,"right","",NA,0,0,1,0,NA,NA,NA,NA,NA,NA,NA,NA,NA,NA,NA,NA,NA,NA,NA,NA,NA,NA,NA,NA,NA,NA,NA,NA
"527","stim/objects/Instruments/grandpiano.png",313,64,306,0.9,"stim/13.jpeg",1,3,3,2,"Instruments",2,1,"right","right",0.515999794,1,1,1,0,NA,NA,NA,NA,NA,NA,NA,NA,NA,NA,NA,NA,NA,NA,NA,NA,NA,NA,NA,NA,NA,NA,NA,NA
"562","stim/objects/Instruments/musicstand2.png",314,64,307,0.1,"stim/24.jpeg",2,4,3,1,"Instruments",2,3,"right","left",0.5,0,0,1,0,63,64,1,0.1,2,"stim/24.jpeg",2,4,"stim/24.jpeg",3,"right",1.259000063,3,3,1.417999983,3,0.270999908,63,0,0,NA,1,NA,0
"330","stim/objects/HouseObjects/flyswatter.png",315,64,308,0.9,"stim/23.jpeg",2,3,3,2,"HouseObjects",1,4,"left","left",0.473999977,1,1,1,0,NA,NA,NA,NA,NA,NA,NA,NA,NA,NA,NA,NA,NA,NA,NA,NA,NA,NA,NA,NA,NA,NA,NA,NA
"366","stim/objects/HouseObjects/glass.png",316,64,309,0.9,"stim/21.jpeg",2,1,3,2,"HouseObjects",1,1,"left","left",0.480000019,1,1,1,0,NA,NA,NA,NA,NA,NA,NA,NA,NA,NA,NA,NA,NA,NA,NA,NA,NA,NA,NA,NA,NA,NA,NA,NA
"331","stim/objects/HouseObjects/flyswatter.png",317,64,310,0.9,"stim/21.jpeg",2,1,3,2,"HouseObjects",1,3,"left","left",0.773999929,1,1,1,0,NA,NA,NA,NA,NA,NA,NA,NA,NA,NA,NA,NA,NA,NA,NA,NA,NA,NA,NA,NA,NA,NA,NA,NA
"332","stim/objects/HouseObjects/flyswatter.png",318,64,311,0.9,"stim/22.jpeg",2,2,3,2,"HouseObjects",1,1,"left","left",0.528999805,1,1,1,0,NA,NA,NA,NA,NA,NA,NA,NA,NA,NA,NA,NA,NA,NA,NA,NA,NA,NA,NA,NA,NA,NA,NA,NA
"494","stim/objects/Instruments/frenchhorn.png",319,64,312,0.9,"stim/14.jpeg",1,4,3,2,"Instruments",2,1,"right","right",0.642999887,1,1,1,0,NA,NA,NA,NA,NA,NA,NA,NA,NA,NA,NA,NA,NA,NA,NA,NA,NA,NA,NA,NA,NA,NA,NA,NA
"392","stim/objects/HouseObjects/lintroller.png",320,64,313,0.5,"stim/44.jpeg",4,4,1,1,"HouseObjects",1,1,"left","right",0.621999979,0,0,1,0,105,64,1,0.5,2,"stim/44.jpeg",4,4,"stim/44.jpeg",1,"left",1.204999924,4,4,5.232999802,3,0.171000004,105,1,1,1,0,0,0
"448","stim/objects/Instruments/electricdrumset.png",321,64,314,0.7,"stim/52.jpeg",5,2,2,2,"Instruments",2,3,"right","right",0.521000147,1,1,1,0,NA,NA,NA,NA,NA,NA,NA,NA,NA,NA,NA,NA,NA,NA,NA,NA,NA,NA,NA,NA,NA,NA,NA,NA
"436","stim/objects/Instruments/cymbal.png",322,64,315,0.7,"stim/51.jpeg",5,1,2,2,"Instruments",2,3,"right","right",0.552999973,1,1,1,0,NA,NA,NA,NA,NA,NA,NA,NA,NA,NA,NA,NA,NA,NA,NA,NA,NA,NA,NA,NA,NA,NA,NA,NA
"253","stim/objects/HouseObjects/bleachbottle.png",323,64,316,0.5,"stim/32.jpeg",3,2,1,2,"HouseObjects",1,3,"left","right",0.54399991,0,0,1,0,NA,NA,NA,NA,NA,NA,NA,NA,NA,NA,NA,NA,NA,NA,NA,NA,NA,NA,NA,NA,NA,NA,NA,NA
"462","stim/objects/Instruments/flute.png",324,64,317,0.9,"stim/12.jpeg",1,2,3,2,"Instruments",2,2,"right","right",0.620999813,1,1,1,0,NA,NA,NA,NA,NA,NA,NA,NA,NA,NA,NA,NA,NA,NA,NA,NA,NA,NA,NA,NA,NA,NA,NA,NA
"388","stim/objects/HouseObjects/key.png",325,64,318,0.5,"stim/42.jpeg",4,2,1,1,"HouseObjects",1,4,"left","left",0.767999887,1,1,1,0,152,64,1,0.5,2,"stim/42.jpeg",4,2,"stim/42.jpeg",4,"left",1.079999924,2,3,6.04399991,1,0.861999989,152,1,0,0,0,0,0
"333","stim/objects/HouseObjects/flyswatter.png",326,64,319,0.9,"stim/21.jpeg",2,1,3,2,"HouseObjects",1,1,"left","left",0.486000061,1,1,1,0,NA,NA,NA,NA,NA,NA,NA,NA,NA,NA,NA,NA,NA,NA,NA,NA,NA,NA,NA,NA,NA,NA,NA,NA
"510","stim/objects/Instruments/gong.png",327,64,320,0.9,"stim/13.jpeg",1,3,3,2,"Instruments",2,4,"right","right",0.486999989,1,1,1,0,NA,NA,NA,NA,NA,NA,NA,NA,NA,NA,NA,NA,NA,NA,NA,NA,NA,NA,NA,NA,NA,NA,NA,NA
"417","stim/objects/Instruments/banjo2.png",328,64,321,0.7,"stim/52.jpeg",5,2,2,1,"Instruments",2,1,"right","right",0.706999779,1,1,1,0,1,64,1,0.7,2,"stim/52.jpeg",5,2,"stim/52.jpeg",1,"left",1.694999933,4,2,4.890000105,1,1.63499999,1,1,1,1,1,1,0
"272","stim/objects/HouseObjects/clothesdryingrack.png",329,64,322,0.7,"stim/62.jpeg",6,2,2,2,"HouseObjects",1,4,"left","left",0.539999962,1,1,1,0,NA,NA,NA,NA,NA,NA,NA,NA,NA,NA,NA,NA,NA,NA,NA,NA,NA,NA,NA,NA,NA,NA,NA,NA
"529","stim/objects/Instruments/grandpiano.png",330,64,323,0.9,"stim/11.jpeg",1,1,3,2,"Instruments",2,3,"right","right",0.617000103,1,1,1,0,NA,NA,NA,NA,NA,NA,NA,NA,NA,NA,NA,NA,NA,NA,NA,NA,NA,NA,NA,NA,NA,NA,NA,NA
"268","stim/objects/HouseObjects/clock.png",331,64,324,0.5,"stim/43.jpeg",4,3,1,2,"HouseObjects",1,1,"left","",NA,0,0,1,0,NA,NA,NA,NA,NA,NA,NA,NA,NA,NA,NA,NA,NA,NA,NA,NA,NA,NA,NA,NA,NA,NA,NA,NA
"381","stim/objects/HouseObjects/handbrush2.png",332,64,325,0.1,"stim/14.jpeg",1,4,3,1,"HouseObjects",1,2,"left","",NA,0,0,1,0,68,64,1,0.1,1,"stim/14.jpeg",1,4,"stim/14.jpeg",2,"left",2.83100009,4,4,8.200000048,1,1.286000013,68,1,1,1,0,0,0
"542","stim/objects/Instruments/guitarcase2.png",333,64,326,0.9,"stim/14.jpeg",1,4,3,1,"Instruments",2,4,"right","right",0.495000124,1,1,1,0,29,64,1,0.9,2,"stim/14.jpeg",1,4,"stim/14.jpeg",4,"right",1.750999928,2,4,3.277999878,4,0.268999815,29,0,1,NA,1,NA,0
"403","stim/objects/HouseObjects/remote2.png",334,64,327,0.9,"stim/21.jpeg",2,1,3,1,"HouseObjects",1,2,"left","left",0.481999874,1,1,1,0,6,64,1,0.9,1,"stim/21.jpeg",2,1,"stim/21.jpeg",2,"left",2.888000011,4,4,10.14199996,3,1.874000072,6,1,0,0,0,0,0
"459","stim/objects/Instruments/flute.png",335,64,328,0.9,"stim/12.jpeg",1,2,3,2,"Instruments",2,2,"right","right",0.625999928,1,1,1,0,NA,NA,NA,NA,NA,NA,NA,NA,NA,NA,NA,NA,NA,NA,NA,NA,NA,NA,NA,NA,NA,NA,NA,NA
"386","stim/objects/HouseObjects/ironingboard.png",336,64,329,0.5,"stim/41.jpeg",4,1,1,1,"HouseObjects",1,3,"left","right",0.606999874,0,0,1,0,32,64,1,0.5,2,"stim/41.jpeg",4,1,"stim/41.jpeg",3,"left",1.69299984,3,2,11.65300012,3,0.60800004,32,1,0,0,1,1,0
"530","stim/objects/Instruments/grandpiano.png",337,64,330,0.9,"stim/12.jpeg",1,2,3,2,"Instruments",2,2,"right","right",0.649999857,1,1,1,0,NA,NA,NA,NA,NA,NA,NA,NA,NA,NA,NA,NA,NA,NA,NA,NA,NA,NA,NA,NA,NA,NA,NA,NA
"316","stim/objects/HouseObjects/dustpan.png",338,64,331,0.9,"stim/23.jpeg",2,3,3,2,"HouseObjects",1,1,"left","left",0.625,1,1,1,0,NA,NA,NA,NA,NA,NA,NA,NA,NA,NA,NA,NA,NA,NA,NA,NA,NA,NA,NA,NA,NA,NA,NA,NA
"495","stim/objects/Instruments/frenchhorn.png",339,64,332,0.9,"stim/13.jpeg",1,3,3,2,"Instruments",2,1,"right","right",0.601999998,1,1,1,0,NA,NA,NA,NA,NA,NA,NA,NA,NA,NA,NA,NA,NA,NA,NA,NA,NA,NA,NA,NA,NA,NA,NA,NA
"463","stim/objects/Instruments/flute.png",340,64,333,0.9,"stim/13.jpeg",1,3,3,2,"Instruments",2,4,"right","right",0.415999889,1,1,1,0,NA,NA,NA,NA,NA,NA,NA,NA,NA,NA,NA,NA,NA,NA,NA,NA,NA,NA,NA,NA,NA,NA,NA,NA
"379","stim/objects/HouseObjects/hairdryer2.png",341,64,334,0.1,"stim/13.jpeg",1,3,3,1,"HouseObjects",1,4,"left","right",0.790999889,0,0,1,0,40,64,1,0.1,1,"stim/13.jpeg",1,3,"stim/13.jpeg",4,"left",1.230000019,4,2,6.086999893,4,0.624999762,40,1,0,0,1,1,0
"556","stim/objects/Instruments/marimba2.png",342,64,335,0.1,"stim/21.jpeg",2,1,3,1,"Instruments",2,2,"right","left",0.529000044,0,0,1,0,190,64,1,0.1,2,"stim/21.jpeg",2,1,"stim/21.jpeg",2,"left",0.917999983,4,4,10.30699992,4,0.355999947,190,1,0,0,0,0,0
"513","stim/objects/Instruments/gong.png",343,64,336,0.9,"stim/11.jpeg",1,1,3,2,"Instruments",2,2,"right","right",0.466999769,1,1,1,0,NA,NA,NA,NA,NA,NA,NA,NA,NA,NA,NA,NA,NA,NA,NA,NA,NA,NA,NA,NA,NA,NA,NA,NA
"446","stim/objects/Instruments/drums.png",344,64,337,0.7,"stim/52.jpeg",5,2,2,2,"Instruments",2,1,"right","right",0.507999897,1,1,1,0,NA,NA,NA,NA,NA,NA,NA,NA,NA,NA,NA,NA,NA,NA,NA,NA,NA,NA,NA,NA,NA,NA,NA,NA
"461","stim/objects/Instruments/flute.png",345,64,338,0.9,"stim/14.jpeg",1,4,3,2,"Instruments",2,4,"right","",NA,0,0,1,0,NA,NA,NA,NA,NA,NA,NA,NA,NA,NA,NA,NA,NA,NA,NA,NA,NA,NA,NA,NA,NA,NA,NA,NA
"346","stim/objects/HouseObjects/garbagebin.png",346,64,339,0.9,"stim/23.jpeg",2,3,3,2,"HouseObjects",1,2,"left","left",0.4599998,1,1,1,0,NA,NA,NA,NA,NA,NA,NA,NA,NA,NA,NA,NA,NA,NA,NA,NA,NA,NA,NA,NA,NA,NA,NA,NA
"259","stim/objects/HouseObjects/bottle.png",347,64,340,0.5,"stim/44.jpeg",4,4,1,2,"HouseObjects",1,2,"left","right",0.726999998,0,0,1,0,NA,NA,NA,NA,NA,NA,NA,NA,NA,NA,NA,NA,NA,NA,NA,NA,NA,NA,NA,NA,NA,NA,NA,NA
"557","stim/objects/Instruments/metronome.png",348,64,341,0.5,"stim/43.jpeg",4,3,1,1,"Instruments",2,3,"right","right",0.657000065,1,1,1,0,67,64,1,0.5,2,"stim/43.jpeg",4,3,"stim/43.jpeg",3,"right",1.268999815,3,3,0.616999865,3,0.169999838,67,0,1,NA,1,NA,0
"565","stim/objects/Instruments/panflute.png",349,64,342,0.7,"stim/54.jpeg",5,4,2,1,"Instruments",2,4,"right","right",0.474999905,1,1,1,0,41,64,1,0.7,2,"stim/54.jpeg",5,4,"stim/54.jpeg",4,"left",1.34800005,4,3,15.32800007,1,0.424999952,41,1,0,0,0,0,0
"298","stim/objects/HouseObjects/doormat.png",350,64,343,0.9,"stim/21.jpeg",2,1,3,2,"HouseObjects",1,3,"left","left",0.488000154,1,1,1,0,NA,NA,NA,NA,NA,NA,NA,NA,NA,NA,NA,NA,NA,NA,NA,NA,NA,NA,NA,NA,NA,NA,NA,NA
"402","stim/objects/HouseObjects/remote.png",351,64,344,0.3,"stim/54.jpeg",5,4,2,1,"HouseObjects",1,3,"left","right",0.558999777,0,0,1,0,113,64,1,0.3,1,"stim/54.jpeg",5,4,"stim/54.jpeg",3,"right",1.164999962,3,2,9.240999937,3,0.15199995,113,0,0,NA,1,NA,0
"553","stim/objects/Instruments/maraca.png",352,64,345,0.5,"stim/41.jpeg",4,1,1,1,"Instruments",2,3,"right","right",0.496999979,1,1,1,0,111,64,1,0.5,2,"stim/41.jpeg",4,1,"stim/41.jpeg",3,"left",1.053999901,4,2,3.069999933,3,0.780999899,111,1,0,0,1,1,0
"514","stim/objects/Instruments/gong.png",353,64,346,0.9,"stim/12.jpeg",1,2,3,2,"Instruments",2,2,"right","right",0.487999916,1,1,1,0,NA,NA,NA,NA,NA,NA,NA,NA,NA,NA,NA,NA,NA,NA,NA,NA,NA,NA,NA,NA,NA,NA,NA,NA
"515","stim/objects/Instruments/gong.png",354,64,347,0.9,"stim/14.jpeg",1,4,3,2,"Instruments",2,4,"right","right",0.497999907,1,1,1,0,NA,NA,NA,NA,NA,NA,NA,NA,NA,NA,NA,NA,NA,NA,NA,NA,NA,NA,NA,NA,NA,NA,NA,NA
"261","stim/objects/HouseObjects/bottle2.png",355,64,348,0.7,"stim/61.jpeg",6,1,2,1,"HouseObjects",1,4,"left","",NA,0,0,1,0,36,64,1,0.7,1,"stim/61.jpeg",6,1,"stim/61.jpeg",4,"right",1.213999987,2,2,1.389999866,2,0.233999968,36,0,0,NA,0,NA,0
"258","stim/objects/HouseObjects/blender2.png",356,64,349,0.7,"stim/64.jpeg",6,4,2,1,"HouseObjects",1,2,"left","left",0.669999838,1,1,1,0,8,64,1,0.7,1,"stim/64.jpeg",6,4,"stim/64.jpeg",2,"left",1.990999937,3,3,8.479000092,3,1.025000095,8,1,0,0,0,0,0
"275","stim/objects/HouseObjects/clothespin.png",357,64,350,0.7,"stim/63.jpeg",6,3,2,2,"HouseObjects",1,2,"left","left",0.621999979,1,1,1,0,NA,NA,NA,NA,NA,NA,NA,NA,NA,NA,NA,NA,NA,NA,NA,NA,NA,NA,NA,NA,NA,NA,NA,NA
"429","stim/objects/Instruments/chime2.png",358,64,351,0.3,"stim/64.jpeg",6,4,2,1,"Instruments",2,1,"right","left",0.395999908,0,0,1,0,137,64,1,0.3,2,"stim/64.jpeg",6,4,"stim/64.jpeg",1,"left",1.914000034,3,2,4.974999905,2,0.727999926,137,1,0,0,0,0,0
"341","stim/objects/HouseObjects/flyswatter2.png",359,64,352,0.1,"stim/13.jpeg",1,3,3,1,"HouseObjects",1,3,"left","right",0.49000001,0,0,1,0,182,64,1,0.1,1,"stim/13.jpeg",1,3,"stim/13.jpeg",3,"right",1.214999914,2,3,3.700999737,3,0.250999928,182,0,1,NA,1,NA,0
"286","stim/objects/HouseObjects/cushion2.png",360,64,353,0.7,"stim/64.jpeg",6,4,2,1,"HouseObjects",1,3,"left","left",0.458999872,1,1,1,0,136,64,1,0.7,1,"stim/64.jpeg",6,4,"stim/64.jpeg",3,"left",1.444999933,2,4,5.628000021,3,1.121999979,136,1,1,1,1,1,0
"516","stim/objects/Instruments/gong.png",361,64,354,0.9,"stim/11.jpeg",1,1,3,2,"Instruments",2,1,"right","right",0.712000132,1,1,1,0,NA,NA,NA,NA,NA,NA,NA,NA,NA,NA,NA,NA,NA,NA,NA,NA,NA,NA,NA,NA,NA,NA,NA,NA
"334","stim/objects/HouseObjects/flyswatter.png",362,64,355,0.9,"stim/23.jpeg",2,3,3,2,"HouseObjects",1,1,"left","left",0.457999945,1,1,1,0,NA,NA,NA,NA,NA,NA,NA,NA,NA,NA,NA,NA,NA,NA,NA,NA,NA,NA,NA,NA,NA,NA,NA,NA
"548","stim/objects/Instruments/hihat2.png",363,64,356,0.9,"stim/13.jpeg",1,3,3,1,"Instruments",2,3,"right","right",0.592999935,1,1,1,0,196,64,1,0.9,2,"stim/13.jpeg",1,3,"stim/13.jpeg",3,"left",0.907999992,4,2,2.380000114,4,0.434000015,196,1,0,0,0,0,0
"335","stim/objects/HouseObjects/flyswatter.png",364,64,357,0.9,"stim/23.jpeg",2,3,3,2,"HouseObjects",1,3,"left","",NA,0,0,1,0,NA,NA,NA,NA,NA,NA,NA,NA,NA,NA,NA,NA,NA,NA,NA,NA,NA,NA,NA,NA,NA,NA,NA,NA
"269","stim/objects/HouseObjects/clock.png",365,64,358,0.5,"stim/44.jpeg",4,4,1,2,"HouseObjects",1,1,"left","right",0.598999739,0,0,1,0,NA,NA,NA,NA,NA,NA,NA,NA,NA,NA,NA,NA,NA,NA,NA,NA,NA,NA,NA,NA,NA,NA,NA,NA
"280","stim/objects/HouseObjects/coffee.png",366,64,359,0.7,"stim/64.jpeg",6,4,2,2,"HouseObjects",1,2,"left","left",0.479000092,1,1,1,0,NA,NA,NA,NA,NA,NA,NA,NA,NA,NA,NA,NA,NA,NA,NA,NA,NA,NA,NA,NA,NA,NA,NA,NA
"464","stim/objects/Instruments/flute.png",367,64,360,0.9,"stim/14.jpeg",1,4,3,2,"Instruments",2,4,"right","",NA,0,0,1,0,NA,NA,NA,NA,NA,NA,NA,NA,NA,NA,NA,NA,NA,NA,NA,NA,NA,NA,NA,NA,NA,NA,NA,NA
"498","stim/objects/Instruments/frenchhorn.png",368,64,361,0.9,"stim/11.jpeg",1,1,3,2,"Instruments",2,4,"right","right",0.635999918,1,1,1,0,NA,NA,NA,NA,NA,NA,NA,NA,NA,NA,NA,NA,NA,NA,NA,NA,NA,NA,NA,NA,NA,NA,NA,NA
"260","stim/objects/HouseObjects/bottle.png",369,64,362,0.5,"stim/41.jpeg",4,1,1,2,"HouseObjects",1,2,"left","right",0.528999805,0,0,1,0,NA,NA,NA,NA,NA,NA,NA,NA,NA,NA,NA,NA,NA,NA,NA,NA,NA,NA,NA,NA,NA,NA,NA,NA
"318","stim/objects/HouseObjects/dustpan.png",370,64,363,0.9,"stim/21.jpeg",2,1,3,2,"HouseObjects",1,3,"left","left",0.468999863,1,1,1,0,NA,NA,NA,NA,NA,NA,NA,NA,NA,NA,NA,NA,NA,NA,NA,NA,NA,NA,NA,NA,NA,NA,NA,NA
"544","stim/objects/Instruments/harmonica2.png",371,64,364,0.9,"stim/11.jpeg",1,1,3,1,"Instruments",2,3,"right","right",0.559999943,1,1,1,0,130,64,1,0.9,2,"stim/11.jpeg",1,1,"stim/11.jpeg",3,"left",1.531999826,3,1,5.576999903,1,1.993000031,130,1,1,1,0,0,0
"370","stim/objects/HouseObjects/glass.png",372,64,365,0.9,"stim/24.jpeg",2,4,3,2,"HouseObjects",1,4,"left","right",0.710000038,0,0,1,0,NA,NA,NA,NA,NA,NA,NA,NA,NA,NA,NA,NA,NA,NA,NA,NA,NA,NA,NA,NA,NA,NA,NA,NA
"555","stim/objects/Instruments/marimba.png",373,64,366,0.5,"stim/42.jpeg",4,2,1,1,"Instruments",2,4,"right","right",0.758000135,1,1,1,0,47,64,1,0.5,2,"stim/42.jpeg",4,2,"stim/42.jpeg",4,"left",1.121999979,3,3,16.58299994,4,0.898000002,47,1,0,0,1,1,0
"262","stim/objects/HouseObjects/broom.png",374,64,367,0.5,"stim/42.jpeg",4,2,1,2,"HouseObjects",1,1,"left","left",0.57799983,1,1,1,0,NA,NA,NA,NA,NA,NA,NA,NA,NA,NA,NA,NA,NA,NA,NA,NA,NA,NA,NA,NA,NA,NA,NA,NA
"512","stim/objects/Instruments/gong.png",375,64,368,0.9,"stim/13.jpeg",1,3,3,2,"Instruments",2,2,"right","",NA,0,0,1,0,NA,NA,NA,NA,NA,NA,NA,NA,NA,NA,NA,NA,NA,NA,NA,NA,NA,NA,NA,NA,NA,NA,NA,NA
"249","stim/objects/HouseObjects/barbecuelighter2.png",376,64,369,0.3,"stim/54.jpeg",5,4,2,1,"HouseObjects",1,1,"left","right",0.512000084,0,0,1,0,147,64,1,0.3,1,"stim/54.jpeg",5,4,"stim/54.jpeg",1,"right",1.04399991,1,4,3.795000076,4,1.127999783,147,0,1,NA,0,NA,0
"398","stim/objects/HouseObjects/pitcher.png",377,64,370,0.3,"stim/52.jpeg",5,2,2,1,"HouseObjects",1,2,"left","left",0.853999853,1,1,1,0,170,64,1,0.3,1,"stim/52.jpeg",5,2,"stim/52.jpeg",2,"right",1.88499999,1,4,6.129999876,2,1.203999996,170,0,0,NA,1,NA,0
"349","stim/objects/HouseObjects/garbagebin.png",378,64,371,0.9,"stim/21.jpeg",2,1,3,2,"HouseObjects",1,3,"left","left",0.582000017,1,1,1,0,NA,NA,NA,NA,NA,NA,NA,NA,NA,NA,NA,NA,NA,NA,NA,NA,NA,NA,NA,NA,NA,NA,NA,NA
"564","stim/objects/Instruments/oboe2.png",379,64,372,0.1,"stim/21.jpeg",2,1,3,1,"Instruments",2,4,"right","left",0.4599998,0,0,1,0,65,64,1,0.1,2,"stim/21.jpeg",2,1,"stim/21.jpeg",4,"left",0.842999935,3,3,10.10399985,3,0.150999784,65,1,0,0,0,0,0
"387","stim/objects/HouseObjects/ironingboard2.png",380,64,373,0.9,"stim/21.jpeg",2,1,3,1,"HouseObjects",1,4,"left","left",0.467000008,1,1,1,0,55,64,1,0.9,1,"stim/21.jpeg",2,1,"stim/21.jpeg",4,"left",1.070999861,4,1,9.521999836,3,0.349999905,55,1,1,1,0,0,0
"407","stim/objects/Instruments/accordion.png",381,64,374,0.5,"stim/31.jpeg",3,1,1,2,"Instruments",2,4,"right","right",0.453999996,1,1,1,0,NA,NA,NA,NA,NA,NA,NA,NA,NA,NA,NA,NA,NA,NA,NA,NA,NA,NA,NA,NA,NA,NA,NA,NA
"399","stim/objects/HouseObjects/pitcher2.png",382,64,375,0.9,"stim/23.jpeg",2,3,3,1,"HouseObjects",1,2,"left","left",0.554999828,1,1,1,0,57,64,1,0.9,1,"stim/23.jpeg",2,3,"stim/23.jpeg",2,"right",1.002999783,3,3,1.353999853,4,0.351999998,57,0,1,NA,0,NA,0
"491","stim/objects/Instruments/frenchhorn.png",383,64,376,0.9,"stim/14.jpeg",1,4,3,2,"Instruments",2,1,"right","right",0.552999973,1,1,1,0,NA,NA,NA,NA,NA,NA,NA,NA,NA,NA,NA,NA,NA,NA,NA,NA,NA,NA,NA,NA,NA,NA,NA,NA
"287","stim/objects/HouseObjects/dishsoap.png",384,64,377,0.7,"stim/62.jpeg",6,2,2,2,"HouseObjects",1,1,"left","right",0.477999926,0,0,1,0,NA,NA,NA,NA,NA,NA,NA,NA,NA,NA,NA,NA,NA,NA,NA,NA,NA,NA,NA,NA,NA,NA,NA,NA
"424","stim/objects/Instruments/cello.png",385,64,378,0.5,"stim/43.jpeg",4,3,1,2,"Instruments",2,2,"right","right",0.461999893,1,1,1,0,NA,NA,NA,NA,NA,NA,NA,NA,NA,NA,NA,NA,NA,NA,NA,NA,NA,NA,NA,NA,NA,NA,NA,NA
"541","stim/objects/Instruments/guitarcase.png",386,64,379,0.5,"stim/32.jpeg",3,2,1,1,"Instruments",2,2,"right","right",0.394999981,1,1,1,0,60,64,1,0.5,1,"stim/32.jpeg",3,2,"stim/32.jpeg",2,"left",1.085000038,4,2,14.91799998,2,0.319999933,60,1,1,1,1,1,0
"413","stim/objects/Instruments/balalaika.png",387,64,380,0.5,"stim/33.jpeg",3,3,1,2,"Instruments",2,4,"right","right",0.444999933,1,1,1,0,NA,NA,NA,NA,NA,NA,NA,NA,NA,NA,NA,NA,NA,NA,NA,NA,NA,NA,NA,NA,NA,NA,NA,NA
"476","stim/objects/Instruments/flutetrans.png",388,64,381,0.9,"stim/13.jpeg",1,3,3,2,"Instruments",2,2,"right","right",0.604000092,1,1,1,0,NA,NA,NA,NA,NA,NA,NA,NA,NA,NA,NA,NA,NA,NA,NA,NA,NA,NA,NA,NA,NA,NA,NA,NA
"531","stim/objects/Instruments/grandpiano.png",389,64,382,0.9,"stim/13.jpeg",1,3,3,2,"Instruments",2,2,"right","right",0.519000053,1,1,1,0,NA,NA,NA,NA,NA,NA,NA,NA,NA,NA,NA,NA,NA,NA,NA,NA,NA,NA,NA,NA,NA,NA,NA,NA
"409","stim/objects/Instruments/acousticguitar.png",390,64,383,0.5,"stim/32.jpeg",3,2,1,2,"Instruments",2,3,"right","right",0.693999767,1,1,1,0,NA,NA,NA,NA,NA,NA,NA,NA,NA,NA,NA,NA,NA,NA,NA,NA,NA,NA,NA,NA,NA,NA,NA,NA
"546","stim/objects/Instruments/harp2.png",391,64,384,0.9,"stim/12.jpeg",1,2,3,1,"Instruments",2,2,"right","right",0.637000084,1,1,1,0,13,64,1,0.9,2,"stim/12.jpeg",1,2,"stim/12.jpeg",2,"left",1.589999914,2,2,6.536999702,4,0.753999949,13,1,1,1,0,0,0
"347","stim/objects/HouseObjects/garbagebin.png",392,64,385,0.9,"stim/23.jpeg",2,3,3,2,"HouseObjects",1,1,"left","left",0.463999987,1,1,1,0,NA,NA,NA,NA,NA,NA,NA,NA,NA,NA,NA,NA,NA,NA,NA,NA,NA,NA,NA,NA,NA,NA,NA,NA
"375","stim/objects/HouseObjects/glass2.png",393,64,386,0.1,"stim/11.jpeg",1,1,3,1,"HouseObjects",1,4,"left","right",0.396999836,0,0,1,0,34,64,1,0.1,1,"stim/11.jpeg",1,1,"stim/11.jpeg",4,"left",1.157999754,3,3,6.35800004,1,1.291999817,34,1,0,0,0,0,0
"532","stim/objects/Instruments/grandpiano.png",394,64,387,0.9,"stim/11.jpeg",1,1,3,2,"Instruments",2,3,"right","right",0.63499999,1,1,1,0,NA,NA,NA,NA,NA,NA,NA,NA,NA,NA,NA,NA,NA,NA,NA,NA,NA,NA,NA,NA,NA,NA,NA,NA
"569","stim/objects/Instruments/record.png",395,64,388,0.7,"stim/52.jpeg",5,2,2,1,"Instruments",2,3,"right","right",0.506999969,1,1,1,0,85,64,1,0.7,2,"stim/52.jpeg",5,2,"stim/52.jpeg",3,"left",1.298000097,3,3,11.75300002,3,0.359999895,85,1,0,0,1,1,0
"270","stim/objects/HouseObjects/clock2.png",396,64,389,0.7,"stim/64.jpeg",6,4,2,1,"HouseObjects",1,1,"left","left",0.45299983,1,1,1,0,192,64,1,0.7,1,"stim/64.jpeg",6,4,"stim/64.jpeg",1,"right",1.450999975,3,2,1.432999849,2,0.117999792,192,0,0,NA,0,NA,0
"320","stim/objects/HouseObjects/dustpan.png",397,64,390,0.9,"stim/23.jpeg",2,3,3,2,"HouseObjects",1,4,"left","right",0.398999929,0,0,1,0,NA,NA,NA,NA,NA,NA,NA,NA,NA,NA,NA,NA,NA,NA,NA,NA,NA,NA,NA,NA,NA,NA,NA,NA
"351","stim/objects/HouseObjects/garbagebin.png",398,64,391,0.9,"stim/24.jpeg",2,4,3,2,"HouseObjects",1,1,"left","left",0.463999748,1,1,1,0,NA,NA,NA,NA,NA,NA,NA,NA,NA,NA,NA,NA,NA,NA,NA,NA,NA,NA,NA,NA,NA,NA,NA,NA
"369","stim/objects/HouseObjects/glass.png",399,64,392,0.9,"stim/24.jpeg",2,4,3,2,"HouseObjects",1,4,"left","left",0.386999846,1,1,1,0,NA,NA,NA,NA,NA,NA,NA,NA,NA,NA,NA,NA,NA,NA,NA,NA,NA,NA,NA,NA,NA,NA,NA,NA
"317","stim/objects/HouseObjects/dustpan.png",400,64,393,0.9,"stim/22.jpeg",2,2,3,2,"HouseObjects",1,3,"left","left",0.415999889,1,1,1,0,NA,NA,NA,NA,NA,NA,NA,NA,NA,NA,NA,NA,NA,NA,NA,NA,NA,NA,NA,NA,NA,NA,NA,NA
"339","stim/objects/HouseObjects/flyswatter.png",401,64,394,0.9,"stim/24.jpeg",2,4,3,2,"HouseObjects",1,1,"left","left",0.342999935,1,1,1,0,NA,NA,NA,NA,NA,NA,NA,NA,NA,NA,NA,NA,NA,NA,NA,NA,NA,NA,NA,NA,NA,NA,NA,NA
"377","stim/objects/HouseObjects/glassmop2.png",402,64,395,0.1,"stim/12.jpeg",1,2,3,1,"HouseObjects",1,3,"left","right",0.457999945,0,0,1,0,143,64,1,0.1,1,"stim/12.jpeg",1,2,"stim/12.jpeg",3,"right",1.203000069,3,3,0.796000004,4,0.292999983,143,0,0,NA,0,NA,0
"481","stim/objects/Instruments/flutetrans.png",403,64,396,0.9,"stim/11.jpeg",1,1,3,2,"Instruments",2,2,"right","right",0.345999956,1,1,1,0,NA,NA,NA,NA,NA,NA,NA,NA,NA,NA,NA,NA,NA,NA,NA,NA,NA,NA,NA,NA,NA,NA,NA,NA
"241","stim/objects/HouseObjects/ashtray.png",404,64,397,0.5,"stim/31.jpeg",3,1,1,2,"HouseObjects",1,1,"left","right",0.572000027,0,0,1,0,NA,NA,NA,NA,NA,NA,NA,NA,NA,NA,NA,NA,NA,NA,NA,NA,NA,NA,NA,NA,NA,NA,NA,NA
"252","stim/objects/HouseObjects/basket2.png",405,64,398,0.3,"stim/51.jpeg",5,1,2,1,"HouseObjects",1,3,"left","right",0.578999758,0,0,1,0,109,64,1,0.3,1,"stim/51.jpeg",5,1,"stim/51.jpeg",3,"right",1.273000002,2,4,3.690999985,4,0.111999989,109,0,0,NA,0,NA,0
"382","stim/objects/HouseObjects/handvacuum.png",406,64,399,0.5,"stim/32.jpeg",3,2,1,1,"HouseObjects",1,2,"left","right",0.484999895,0,0,1,0,43,64,1,0.5,1,"stim/32.jpeg",3,2,"stim/32.jpeg",2,"left",1.23699975,3,1,13.44300008,1,0.152999878,43,1,0,0,0,0,0
"508","stim/objects/Instruments/gong.png",407,64,400,0.9,"stim/13.jpeg",1,3,3,2,"Instruments",2,2,"right","right",0.450000048,1,1,1,0,NA,NA,NA,NA,NA,NA,NA,NA,NA,NA,NA,NA,NA,NA,NA,NA,NA,NA,NA,NA,NA,NA,NA,NA
"363","stim/objects/HouseObjects/glass.png",408,64,401,0.9,"stim/24.jpeg",2,4,3,2,"HouseObjects",1,1,"left","left",0.809999943,1,1,1,0,NA,NA,NA,NA,NA,NA,NA,NA,NA,NA,NA,NA,NA,NA,NA,NA,NA,NA,NA,NA,NA,NA,NA,NA
"563","stim/objects/Instruments/oboe.png",409,64,402,0.7,"stim/53.jpeg",5,3,2,1,"Instruments",2,1,"right","right",0.63499999,1,1,1,0,14,64,1,0.7,2,"stim/53.jpeg",5,3,"stim/53.jpeg",1,"left",1.475999832,4,3,12.40399981,4,0.662999868,14,1,1,1,0,0,0
"499","stim/objects/Instruments/frenchhorn.png",410,64,403,0.9,"stim/12.jpeg",1,2,3,2,"Instruments",2,3,"right","right",0.569000006,1,1,1,0,NA,NA,NA,NA,NA,NA,NA,NA,NA,NA,NA,NA,NA,NA,NA,NA,NA,NA,NA,NA,NA,NA,NA,NA
"425","stim/objects/Instruments/cello.png",411,64,404,0.5,"stim/44.jpeg",4,4,1,2,"Instruments",2,4,"right","right",0.720000029,1,1,1,0,NA,NA,NA,NA,NA,NA,NA,NA,NA,NA,NA,NA,NA,NA,NA,NA,NA,NA,NA,NA,NA,NA,NA,NA
"326","stim/objects/HouseObjects/flyswatter.png",412,64,405,0.9,"stim/22.jpeg",2,2,3,2,"HouseObjects",1,2,"left","left",0.648000002,1,1,1,0,NA,NA,NA,NA,NA,NA,NA,NA,NA,NA,NA,NA,NA,NA,NA,NA,NA,NA,NA,NA,NA,NA,NA,NA
"415","stim/objects/Instruments/banjo.png",413,64,406,0.5,"stim/34.jpeg",3,4,1,2,"Instruments",2,3,"right","left",0.661999941,0,0,1,0,NA,NA,NA,NA,NA,NA,NA,NA,NA,NA,NA,NA,NA,NA,NA,NA,NA,NA,NA,NA,NA,NA,NA,NA
"466","stim/objects/Instruments/flute.png",414,64,407,0.9,"stim/13.jpeg",1,3,3,2,"Instruments",2,2,"right","right",0.596999884,1,1,1,0,NA,NA,NA,NA,NA,NA,NA,NA,NA,NA,NA,NA,NA,NA,NA,NA,NA,NA,NA,NA,NA,NA,NA,NA
"336","stim/objects/HouseObjects/flyswatter.png",415,64,408,0.9,"stim/24.jpeg",2,4,3,2,"HouseObjects",1,4,"left","left",0.837999821,1,1,1,0,NA,NA,NA,NA,NA,NA,NA,NA,NA,NA,NA,NA,NA,NA,NA,NA,NA,NA,NA,NA,NA,NA,NA,NA
"255","stim/objects/HouseObjects/bleachbottle2.png",416,64,409,0.3,"stim/52.jpeg",5,2,2,1,"HouseObjects",1,4,"left","right",0.450000048,0,0,1,0,123,64,1,0.3,1,"stim/52.jpeg",5,2,"stim/52.jpeg",4,"right",0.948999882,3,3,3.463999987,2,0.017999887,123,0,0,NA,0,NA,0
"372","stim/objects/HouseObjects/glass.png",417,64,410,0.9,"stim/23.jpeg",2,3,3,2,"HouseObjects",1,3,"left","left",0.483999729,1,1,1,0,NA,NA,NA,NA,NA,NA,NA,NA,NA,NA,NA,NA,NA,NA,NA,NA,NA,NA,NA,NA,NA,NA,NA,NA
"373","stim/objects/HouseObjects/glass.png",418,64,411,0.9,"stim/21.jpeg",2,1,3,2,"HouseObjects",1,1,"left","left",0.392999887,1,1,1,0,NA,NA,NA,NA,NA,NA,NA,NA,NA,NA,NA,NA,NA,NA,NA,NA,NA,NA,NA,NA,NA,NA,NA,NA
"314","stim/objects/HouseObjects/dustpan.png",419,64,412,0.9,"stim/22.jpeg",2,2,3,2,"HouseObjects",1,1,"left","left",0.539000034,1,1,1,0,NA,NA,NA,NA,NA,NA,NA,NA,NA,NA,NA,NA,NA,NA,NA,NA,NA,NA,NA,NA,NA,NA,NA,NA
"517","stim/objects/Instruments/gong.png",420,64,413,0.9,"stim/12.jpeg",1,2,3,2,"Instruments",2,2,"right","right",0.690999985,1,1,1,0,NA,NA,NA,NA,NA,NA,NA,NA,NA,NA,NA,NA,NA,NA,NA,NA,NA,NA,NA,NA,NA,NA,NA,NA
"467","stim/objects/Instruments/flute.png",421,64,414,0.9,"stim/11.jpeg",1,1,3,2,"Instruments",2,2,"right","right",0.585999966,1,1,1,0,NA,NA,NA,NA,NA,NA,NA,NA,NA,NA,NA,NA,NA,NA,NA,NA,NA,NA,NA,NA,NA,NA,NA,NA
"324","stim/objects/HouseObjects/dustpan2.png",422,64,415,0.1,"stim/12.jpeg",1,2,3,1,"HouseObjects",1,2,"left","right",0.508000135,0,0,1,0,74,64,1,0.1,1,"stim/12.jpeg",1,2,"stim/12.jpeg",2,"right",3.190999985,3,1,2.009999752,3,0.284999847,74,0,0,NA,0,NA,0
"500","stim/objects/Instruments/frenchhorn.png",423,64,416,0.9,"stim/11.jpeg",1,1,3,2,"Instruments",2,2,"right","right",0.41899991,1,1,1,0,NA,NA,NA,NA,NA,NA,NA,NA,NA,NA,NA,NA,NA,NA,NA,NA,NA,NA,NA,NA,NA,NA,NA,NA
"353","stim/objects/HouseObjects/garbagebin.png",424,64,417,0.9,"stim/23.jpeg",2,3,3,2,"HouseObjects",1,3,"left","left",0.473999977,1,1,1,0,NA,NA,NA,NA,NA,NA,NA,NA,NA,NA,NA,NA,NA,NA,NA,NA,NA,NA,NA,NA,NA,NA,NA,NA
"433","stim/objects/Instruments/cornet.png",425,64,418,0.5,"stim/42.jpeg",4,2,1,2,"Instruments",2,3,"right","right",0.698999882,1,1,1,0,NA,NA,NA,NA,NA,NA,NA,NA,NA,NA,NA,NA,NA,NA,NA,NA,NA,NA,NA,NA,NA,NA,NA,NA
"397","stim/objects/HouseObjects/pan2.png",426,64,419,0.9,"stim/22.jpeg",2,2,3,1,"HouseObjects",1,3,"left","left",0.430000067,1,1,1,0,27,64,1,0.9,1,"stim/22.jpeg",2,2,"stim/22.jpeg",3,"left",8.963999987,3,4,5.842000008,3,0.549000025,27,1,0,0,1,1,0
"358","stim/objects/HouseObjects/garbagebin2.png",427,64,420,0.1,"stim/14.jpeg",1,4,3,1,"HouseObjects",1,3,"left","right",0.625,0,0,1,0,166,64,1,0.1,1,"stim/14.jpeg",1,4,"stim/14.jpeg",3,"right",1.519999981,1,3,4.52699995,4,0.628999949,166,0,0,NA,0,NA,0
"520","stim/objects/Instruments/gong.png",428,64,421,0.9,"stim/13.jpeg",1,3,3,2,"Instruments",2,3,"right","right",0.511999846,1,1,1,0,NA,NA,NA,NA,NA,NA,NA,NA,NA,NA,NA,NA,NA,NA,NA,NA,NA,NA,NA,NA,NA,NA,NA,NA
"501","stim/objects/Instruments/frenchhorn.png",429,64,422,0.9,"stim/11.jpeg",1,1,3,2,"Instruments",2,1,"right","right",0.638000011,1,1,1,0,NA,NA,NA,NA,NA,NA,NA,NA,NA,NA,NA,NA,NA,NA,NA,NA,NA,NA,NA,NA,NA,NA,NA,NA
"551","stim/objects/Instruments/laud.png",430,64,423,0.5,"stim/44.jpeg",4,4,1,1,"Instruments",2,1,"right","right",0.49399972,1,1,1,0,177,64,1,0.5,2,"stim/44.jpeg",4,4,"stim/44.jpeg",1,"left",1.384999752,4,2,3.095999956,2,0.174999714,177,1,0,0,0,0,0
"533","stim/objects/Instruments/grandpiano.png",431,64,424,0.9,"stim/11.jpeg",1,1,3,2,"Instruments",2,1,"right","right",0.518000126,1,1,1,0,NA,NA,NA,NA,NA,NA,NA,NA,NA,NA,NA,NA,NA,NA,NA,NA,NA,NA,NA,NA,NA,NA,NA,NA
"480","stim/objects/Instruments/flutetrans.png",432,64,425,0.9,"stim/13.jpeg",1,3,3,2,"Instruments",2,3,"right","left",0.464999914,0,0,1,0,NA,NA,NA,NA,NA,NA,NA,NA,NA,NA,NA,NA,NA,NA,NA,NA,NA,NA,NA,NA,NA,NA,NA,NA
"435","stim/objects/Instruments/cornet2.png",433,64,426,0.3,"stim/62.jpeg",6,2,2,1,"Instruments",2,2,"right","left",0.554999828,0,0,1,0,176,64,1,0.3,2,"stim/62.jpeg",6,2,"stim/62.jpeg",2,"left",3.095999956,3,3,1.691999912,4,0.35800004,176,1,0,0,0,0,0
"414","stim/objects/Instruments/balalaika2.png",434,64,427,0.7,"stim/51.jpeg",5,1,2,1,"Instruments",2,3,"right","",NA,0,0,1,0,82,64,1,0.7,2,"stim/51.jpeg",5,1,"stim/51.jpeg",3,"left",1.247999907,4,4,1.967000008,4,0.646999836,82,1,0,0,0,0,0
"416","stim/objects/Instruments/banjo.png",435,64,428,0.5,"stim/33.jpeg",3,3,1,2,"Instruments",2,2,"right","",NA,0,0,1,0,NA,NA,NA,NA,NA,NA,NA,NA,NA,NA,NA,NA,NA,NA,NA,NA,NA,NA,NA,NA,NA,NA,NA,NA
"338","stim/objects/HouseObjects/flyswatter.png",436,64,429,0.9,"stim/24.jpeg",2,4,3,2,"HouseObjects",1,3,"left","left",0.450999737,1,1,1,0,NA,NA,NA,NA,NA,NA,NA,NA,NA,NA,NA,NA,NA,NA,NA,NA,NA,NA,NA,NA,NA,NA,NA,NA
"254","stim/objects/HouseObjects/bleachbottle.png",437,64,430,0.5,"stim/31.jpeg",3,1,1,2,"HouseObjects",1,3,"left","right",0.663000107,0,0,1,0,NA,NA,NA,NA,NA,NA,NA,NA,NA,NA,NA,NA,NA,NA,NA,NA,NA,NA,NA,NA,NA,NA,NA,NA
"419","stim/objects/Instruments/bassdrum.png",438,64,431,0.5,"stim/31.jpeg",3,1,1,2,"Instruments",2,1,"right","right",0.582999945,1,1,1,0,NA,NA,NA,NA,NA,NA,NA,NA,NA,NA,NA,NA,NA,NA,NA,NA,NA,NA,NA,NA,NA,NA,NA,NA
"465","stim/objects/Instruments/flute.png",439,64,432,0.9,"stim/14.jpeg",1,4,3,2,"Instruments",2,2,"right","right",0.59499979,1,1,1,0,NA,NA,NA,NA,NA,NA,NA,NA,NA,NA,NA,NA,NA,NA,NA,NA,NA,NA,NA,NA,NA,NA,NA,NA
"264","stim/objects/HouseObjects/broom2.png",440,64,433,0.7,"stim/62.jpeg",6,2,2,1,"HouseObjects",1,2,"left","left",0.570999861,1,1,1,0,144,64,1,0.7,1,"stim/62.jpeg",6,2,"stim/62.jpeg",2,"right",2.792999983,1,3,3.985999823,3,0.303999901,144,0,0,NA,0,NA,0
"528","stim/objects/Instruments/grandpiano.png",441,64,434,0.9,"stim/12.jpeg",1,2,3,2,"Instruments",2,4,"right","right",0.424999952,1,1,1,0,NA,NA,NA,NA,NA,NA,NA,NA,NA,NA,NA,NA,NA,NA,NA,NA,NA,NA,NA,NA,NA,NA,NA,NA
"469","stim/objects/Instruments/flute.png",442,64,435,0.9,"stim/11.jpeg",1,1,3,2,"Instruments",2,1,"right","right",0.56099987,1,1,1,0,NA,NA,NA,NA,NA,NA,NA,NA,NA,NA,NA,NA,NA,NA,NA,NA,NA,NA,NA,NA,NA,NA,NA,NA
"274","stim/objects/HouseObjects/clothesdryingrack2.png",443,64,436,0.7,"stim/61.jpeg",6,1,2,1,"HouseObjects",1,4,"left","left",0.529000044,1,1,1,0,58,64,1,0.7,1,"stim/61.jpeg",6,1,"stim/61.jpeg",4,"right",1.75999999,2,2,1.064999819,2,0.220000029,58,0,0,NA,0,NA,0
"503","stim/objects/Instruments/frenchhorn.png",444,64,437,0.9,"stim/13.jpeg",1,3,3,2,"Instruments",2,1,"right","right",0.46600008,1,1,1,0,NA,NA,NA,NA,NA,NA,NA,NA,NA,NA,NA,NA,NA,NA,NA,NA,NA,NA,NA,NA,NA,NA,NA,NA
"418","stim/objects/Instruments/bassdrum.png",445,64,438,0.5,"stim/34.jpeg",3,4,1,2,"Instruments",2,3,"right","right",0.625,1,1,1,0,NA,NA,NA,NA,NA,NA,NA,NA,NA,NA,NA,NA,NA,NA,NA,NA,NA,NA,NA,NA,NA,NA,NA,NA
"509","stim/objects/Instruments/gong.png",446,64,439,0.9,"stim/11.jpeg",1,1,3,2,"Instruments",2,4,"right","right",0.613999844,1,1,1,0,NA,NA,NA,NA,NA,NA,NA,NA,NA,NA,NA,NA,NA,NA,NA,NA,NA,NA,NA,NA,NA,NA,NA,NA
"535","stim/objects/Instruments/grandpiano.png",447,64,440,0.9,"stim/14.jpeg",1,4,3,2,"Instruments",2,2,"right","",NA,0,0,1,0,NA,NA,NA,NA,NA,NA,NA,NA,NA,NA,NA,NA,NA,NA,NA,NA,NA,NA,NA,NA,NA,NA,NA,NA
"449","stim/objects/Instruments/electricdrumset.png",448,64,441,0.7,"stim/53.jpeg",5,3,2,2,"Instruments",2,2,"right","right",0.588000059,1,1,1,0,NA,NA,NA,NA,NA,NA,NA,NA,NA,NA,NA,NA,NA,NA,NA,NA,NA,NA,NA,NA,NA,NA,NA,NA
"412","stim/objects/Instruments/balalaika.png",449,64,442,0.5,"stim/32.jpeg",3,2,1,2,"Instruments",2,1,"right","right",0.69299984,1,1,1,0,NA,NA,NA,NA,NA,NA,NA,NA,NA,NA,NA,NA,NA,NA,NA,NA,NA,NA,NA,NA,NA,NA,NA,NA
"323","stim/objects/HouseObjects/dustpan.png",450,64,443,0.9,"stim/23.jpeg",2,3,3,2,"HouseObjects",1,4,"left","left",0.551999807,1,1,1,0,NA,NA,NA,NA,NA,NA,NA,NA,NA,NA,NA,NA,NA,NA,NA,NA,NA,NA,NA,NA,NA,NA,NA,NA
"482","stim/objects/Instruments/flutetrans.png",451,64,444,0.9,"stim/14.jpeg",1,4,3,2,"Instruments",2,4,"right","right",0.857999802,1,1,1,0,NA,NA,NA,NA,NA,NA,NA,NA,NA,NA,NA,NA,NA,NA,NA,NA,NA,NA,NA,NA,NA,NA,NA,NA
"487","stim/objects/Instruments/flutetrans.png",452,64,445,0.9,"stim/12.jpeg",1,2,3,2,"Instruments",2,1,"right","right",0.732999802,1,1,1,0,NA,NA,NA,NA,NA,NA,NA,NA,NA,NA,NA,NA,NA,NA,NA,NA,NA,NA,NA,NA,NA,NA,NA,NA
"250","stim/objects/HouseObjects/basket.png",453,64,446,0.5,"stim/34.jpeg",3,4,1,2,"HouseObjects",1,4,"left","right",0.559999943,0,0,1,0,NA,NA,NA,NA,NA,NA,NA,NA,NA,NA,NA,NA,NA,NA,NA,NA,NA,NA,NA,NA,NA,NA,NA,NA
"307","stim/objects/HouseObjects/doormat2.png",454,64,447,0.1,"stim/11.jpeg",1,1,3,1,"HouseObjects",1,4,"left","left",0.822999954,1,1,1,0,138,64,1,0.1,1,"stim/11.jpeg",1,1,"stim/11.jpeg",4,"left",1.065999985,3,3,1.280999899,3,2.89199996,138,1,0,0,0,0,0
"511","stim/objects/Instruments/gong.png",455,64,448,0.9,"stim/12.jpeg",1,2,3,2,"Instruments",2,4,"right","left",0.372999907,0,0,1,0,NA,NA,NA,NA,NA,NA,NA,NA,NA,NA,NA,NA,NA,NA,NA,NA,NA,NA,NA,NA,NA,NA,NA,NA
"518","stim/objects/Instruments/gong.png",456,64,449,0.9,"stim/14.jpeg",1,4,3,2,"Instruments",2,4,"right","right",0.683999777,1,1,1,0,NA,NA,NA,NA,NA,NA,NA,NA,NA,NA,NA,NA,NA,NA,NA,NA,NA,NA,NA,NA,NA,NA,NA,NA
"296","stim/objects/HouseObjects/doormat.png",457,64,450,0.9,"stim/24.jpeg",2,4,3,2,"HouseObjects",1,2,"left","left",0.558000088,1,1,1,0,NA,NA,NA,NA,NA,NA,NA,NA,NA,NA,NA,NA,NA,NA,NA,NA,NA,NA,NA,NA,NA,NA,NA,NA
"549","stim/objects/Instruments/keyboard.png",458,64,451,0.5,"stim/32.jpeg",3,2,1,1,"Instruments",2,2,"right","right",0.566999912,1,1,1,0,150,64,1,0.5,1,"stim/32.jpeg",3,2,"stim/32.jpeg",2,"left",1.06799984,3,2,7.984999895,3,3.160000086,150,1,1,1,0,0,0
"550","stim/objects/Instruments/keyboard2.png",459,64,452,0.9,"stim/14.jpeg",1,4,3,1,"Instruments",2,2,"right","right",0.712000132,1,1,1,0,129,64,1,0.9,2,"stim/14.jpeg",1,4,"stim/14.jpeg",2,"right",0.976999998,4,2,2.664000034,4,1.029999971,129,0,0,NA,0,NA,0
"484","stim/objects/Instruments/flutetrans.png",460,64,453,0.9,"stim/13.jpeg",1,3,3,2,"Instruments",2,4,"right","right",0.558999777,1,1,1,0,NA,NA,NA,NA,NA,NA,NA,NA,NA,NA,NA,NA,NA,NA,NA,NA,NA,NA,NA,NA,NA,NA,NA,NA
"522","stim/objects/Instruments/gong.png",461,64,454,0.9,"stim/14.jpeg",1,4,3,2,"Instruments",2,3,"right","right",0.660999775,1,1,1,0,NA,NA,NA,NA,NA,NA,NA,NA,NA,NA,NA,NA,NA,NA,NA,NA,NA,NA,NA,NA,NA,NA,NA,NA
"406","stim/objects/Instruments/accordion.png",462,64,455,0.5,"stim/34.jpeg",3,4,1,2,"Instruments",2,1,"right","right",0.402999878,1,1,1,0,NA,NA,NA,NA,NA,NA,NA,NA,NA,NA,NA,NA,NA,NA,NA,NA,NA,NA,NA,NA,NA,NA,NA,NA
"297","stim/objects/HouseObjects/doormat.png",463,64,456,0.9,"stim/23.jpeg",2,3,3,2,"HouseObjects",1,3,"left","left",0.453000069,1,1,1,0,NA,NA,NA,NA,NA,NA,NA,NA,NA,NA,NA,NA,NA,NA,NA,NA,NA,NA,NA,NA,NA,NA,NA,NA
"471","stim/objects/Instruments/flute.png",464,64,457,0.9,"stim/11.jpeg",1,1,3,2,"Instruments",2,4,"right","right",0.841999769,1,1,1,0,NA,NA,NA,NA,NA,NA,NA,NA,NA,NA,NA,NA,NA,NA,NA,NA,NA,NA,NA,NA,NA,NA,NA,NA
"483","stim/objects/Instruments/flutetrans.png",465,64,458,0.9,"stim/12.jpeg",1,2,3,2,"Instruments",2,3,"right","left",0.457000017,0,0,1,0,NA,NA,NA,NA,NA,NA,NA,NA,NA,NA,NA,NA,NA,NA,NA,NA,NA,NA,NA,NA,NA,NA,NA,NA
"371","stim/objects/HouseObjects/glass.png",466,64,459,0.9,"stim/22.jpeg",2,2,3,2,"HouseObjects",1,3,"left","left",0.520999908,1,1,1,0,NA,NA,NA,NA,NA,NA,NA,NA,NA,NA,NA,NA,NA,NA,NA,NA,NA,NA,NA,NA,NA,NA,NA,NA
"519","stim/objects/Instruments/gong.png",467,64,460,0.9,"stim/11.jpeg",1,1,3,2,"Instruments",2,3,"right","",NA,0,0,1,0,NA,NA,NA,NA,NA,NA,NA,NA,NA,NA,NA,NA,NA,NA,NA,NA,NA,NA,NA,NA,NA,NA,NA,NA
"552","stim/objects/Instruments/laud2.png",468,64,461,0.1,"stim/23.jpeg",2,3,3,1,"Instruments",2,4,"right","left",0.488999844,0,0,1,0,200,64,1,0.1,2,"stim/23.jpeg",2,3,"stim/23.jpeg",4,"left",2.92599988,2,4,3.130000114,3,0.29399991,200,1,0,0,0,0,0
"496","stim/objects/Instruments/frenchhorn.png",469,64,462,0.9,"stim/12.jpeg",1,2,3,2,"Instruments",2,2,"right","",NA,0,0,1,0,NA,NA,NA,NA,NA,NA,NA,NA,NA,NA,NA,NA,NA,NA,NA,NA,NA,NA,NA,NA,NA,NA,NA,NA
