"","obj_file","X.x","participant.x","trialN.x","trial_cond","scn_file.x","scn_cat","scn_inst","scn_condition","fillers","obj_cat","obj_cat_num","quadrant","corr_ans","key_resp_trial.keys","key_resp_trial.rt","trial_acc","trial_acc_manual","group.x","practice","X.y","participant.y","OvsN","PE_level","object_cat","scn_file.y","corr_scn_cat","corr_scn_inst","scn_file.1","corr_loc","key_resp_id.keys","key_resp_id.rt","key_resp_conf.keys","key_resp_assoc.keys","key_resp_assoc.rt","key_resp_loc.keys","key_resp_loc.rt","trialN.y","id_acc","assoc.acc","cond_assoc","loc.acc","cond_loc","group.y"
"208","stim/objects/Instruments/harmonica2.png",1,61,1,0.9,"stim/22.jpeg",2,2,3,NA,"Instruments",1,2,"left","",NA,0,0,0,1,NA,NA,NA,NA,NA,NA,NA,NA,NA,NA,NA,NA,NA,NA,NA,NA,NA,NA,NA,NA,NA,NA,NA,NA
"22","stim/objects/HouseObjects/dishsoap2.png",2,61,2,0.3,"stim/63.jpeg",6,3,2,NA,"HouseObjects",2,4,"right","right",0.821000338,1,1,0,1,NA,NA,NA,NA,NA,NA,NA,NA,NA,NA,NA,NA,NA,NA,NA,NA,NA,NA,NA,NA,NA,NA,NA,NA
"105","stim/objects/HouseObjects/handbrush.png",3,61,3,0.7,"stim/53.jpeg",5,3,2,NA,"HouseObjects",2,2,"right","",NA,0,0,0,1,NA,NA,NA,NA,NA,NA,NA,NA,NA,NA,NA,NA,NA,NA,NA,NA,NA,NA,NA,NA,NA,NA,NA,NA
"209","stim/objects/Instruments/harmonica2.png",4,61,4,0.9,"stim/22.jpeg",2,2,3,NA,"Instruments",1,2,"left","right",0.501000166,0,0,0,1,NA,NA,NA,NA,NA,NA,NA,NA,NA,NA,NA,NA,NA,NA,NA,NA,NA,NA,NA,NA,NA,NA,NA,NA
"97","stim/objects/HouseObjects/hairdryer.png",5,61,5,0.7,"stim/52.jpeg",5,2,2,NA,"HouseObjects",2,3,"right","left",0.244000196,0,0,0,1,NA,NA,NA,NA,NA,NA,NA,NA,NA,NA,NA,NA,NA,NA,NA,NA,NA,NA,NA,NA,NA,NA,NA,NA
"120","stim/objects/HouseObjects/handvacuum2.png",6,61,6,0.1,"stim/24.jpeg",2,4,3,NA,"HouseObjects",2,3,"right","left",0.64800024,0,0,0,1,NA,NA,NA,NA,NA,NA,NA,NA,NA,NA,NA,NA,NA,NA,NA,NA,NA,NA,NA,NA,NA,NA,NA,NA
"38","stim/objects/HouseObjects/dustpan2.png",7,61,7,0.9,"stim/11.jpeg",1,1,3,NA,"HouseObjects",2,2,"right","right",0.828000069,1,1,0,1,NA,NA,NA,NA,NA,NA,NA,NA,NA,NA,NA,NA,NA,NA,NA,NA,NA,NA,NA,NA,NA,NA,NA,NA
"30","stim/objects/HouseObjects/doormat2.png",8,61,8,0.3,"stim/64.jpeg",6,4,2,NA,"HouseObjects",2,4,"right","left",0.632000208,0,0,0,1,NA,NA,NA,NA,NA,NA,NA,NA,NA,NA,NA,NA,NA,NA,NA,NA,NA,NA,NA,NA,NA,NA,NA,NA
"121","stim/objects/Instruments/drums.png",9,61,9,0.5,"stim/31.jpeg",3,1,1,NA,"Instruments",1,2,"left","",NA,0,0,0,1,NA,NA,NA,NA,NA,NA,NA,NA,NA,NA,NA,NA,NA,NA,NA,NA,NA,NA,NA,NA,NA,NA,NA,NA
"157","stim/objects/Instruments/flute.png",10,61,10,0.5,"stim/34.jpeg",3,4,1,NA,"Instruments",1,3,"left","left",0.511000156,1,1,0,1,NA,NA,NA,NA,NA,NA,NA,NA,NA,NA,NA,NA,NA,NA,NA,NA,NA,NA,NA,NA,NA,NA,NA,NA
"158","stim/objects/Instruments/flute.png",11,61,11,0.5,"stim/34.jpeg",3,4,1,NA,"Instruments",1,2,"left","left",0.545000076,1,1,0,1,NA,NA,NA,NA,NA,NA,NA,NA,NA,NA,NA,NA,NA,NA,NA,NA,NA,NA,NA,NA,NA,NA,NA,NA
"175","stim/objects/Instruments/frenchhorn.png",12,61,12,0.5,"stim/42.jpeg",4,2,1,NA,"Instruments",1,2,"left","right",0.628000259,0,0,0,1,NA,NA,NA,NA,NA,NA,NA,NA,NA,NA,NA,NA,NA,NA,NA,NA,NA,NA,NA,NA,NA,NA,NA,NA
"17","stim/objects/HouseObjects/dishsoap.png",13,61,13,0.5,"stim/33.jpeg",3,3,1,NA,"HouseObjects",2,4,"right","left",0.342000008,0,0,0,1,NA,NA,NA,NA,NA,NA,NA,NA,NA,NA,NA,NA,NA,NA,NA,NA,NA,NA,NA,NA,NA,NA,NA,NA
"159","stim/objects/Instruments/flute.png",14,61,14,0.5,"stim/34.jpeg",3,4,1,NA,"Instruments",1,3,"left","right",0.470000029,0,0,0,1,NA,NA,NA,NA,NA,NA,NA,NA,NA,NA,NA,NA,NA,NA,NA,NA,NA,NA,NA,NA,NA,NA,NA,NA
"6","stim/objects/HouseObjects/coffee2.png",15,61,15,0.3,"stim/61.jpeg",6,1,2,NA,"HouseObjects",2,3,"right","left",0.077000141,0,0,0,1,NA,NA,NA,NA,NA,NA,NA,NA,NA,NA,NA,NA,NA,NA,NA,NA,NA,NA,NA,NA,NA,NA,NA,NA
"39","stim/objects/HouseObjects/dustpan2.png",16,61,16,0.9,"stim/11.jpeg",1,1,3,NA,"HouseObjects",2,1,"right","right",0.799000263,1,1,0,1,NA,NA,NA,NA,NA,NA,NA,NA,NA,NA,NA,NA,NA,NA,NA,NA,NA,NA,NA,NA,NA,NA,NA,NA
"80","stim/objects/HouseObjects/glass2.png",17,61,17,0.9,"stim/14.jpeg",1,4,3,NA,"HouseObjects",2,4,"right","",NA,0,0,0,1,NA,NA,NA,NA,NA,NA,NA,NA,NA,NA,NA,NA,NA,NA,NA,NA,NA,NA,NA,NA,NA,NA,NA,NA
"133","stim/objects/Instruments/electricdrumset.png",18,61,18,0.5,"stim/32.jpeg",3,2,1,NA,"Instruments",1,4,"left","right",0.375000238,0,0,0,1,NA,NA,NA,NA,NA,NA,NA,NA,NA,NA,NA,NA,NA,NA,NA,NA,NA,NA,NA,NA,NA,NA,NA,NA
"162","stim/objects/Instruments/flute2.png",19,61,19,0.7,"stim/64.jpeg",6,4,2,NA,"Instruments",1,3,"left","left",0.636000156,1,1,0,1,NA,NA,NA,NA,NA,NA,NA,NA,NA,NA,NA,NA,NA,NA,NA,NA,NA,NA,NA,NA,NA,NA,NA,NA
"169","stim/objects/Instruments/flutetrans.png",20,61,20,0.5,"stim/41.jpeg",4,1,1,NA,"Instruments",1,2,"left","",NA,0,0,0,1,NA,NA,NA,NA,NA,NA,NA,NA,NA,NA,NA,NA,NA,NA,NA,NA,NA,NA,NA,NA,NA,NA,NA,NA
"220","stim/objects/Instruments/harp2.png",21,61,21,0.9,"stim/23.jpeg",2,3,3,NA,"Instruments",1,4,"left","",NA,0,0,0,1,NA,NA,NA,NA,NA,NA,NA,NA,NA,NA,NA,NA,NA,NA,NA,NA,NA,NA,NA,NA,NA,NA,NA,NA
"138","stim/objects/Instruments/electricdrumset2.png",22,61,22,0.7,"stim/62.jpeg",6,2,2,NA,"Instruments",1,2,"left","right",0.111000061,0,0,0,1,NA,NA,NA,NA,NA,NA,NA,NA,NA,NA,NA,NA,NA,NA,NA,NA,NA,NA,NA,NA,NA,NA,NA,NA
"170","stim/objects/Instruments/flutetrans.png",23,61,23,0.5,"stim/41.jpeg",4,1,1,NA,"Instruments",1,1,"left","right",0.196000099,0,0,0,1,NA,NA,NA,NA,NA,NA,NA,NA,NA,NA,NA,NA,NA,NA,NA,NA,NA,NA,NA,NA,NA,NA,NA,NA
"81","stim/objects/HouseObjects/glass2.png",24,61,24,0.9,"stim/14.jpeg",1,4,3,NA,"HouseObjects",2,1,"right","left",0.511000156,0,0,0,1,NA,NA,NA,NA,NA,NA,NA,NA,NA,NA,NA,NA,NA,NA,NA,NA,NA,NA,NA,NA,NA,NA,NA,NA
"221","stim/objects/Instruments/harp2.png",25,61,25,0.9,"stim/23.jpeg",2,3,3,NA,"Instruments",1,4,"left","right",0.646000147,0,0,0,1,NA,NA,NA,NA,NA,NA,NA,NA,NA,NA,NA,NA,NA,NA,NA,NA,NA,NA,NA,NA,NA,NA,NA,NA
"232","stim/objects/Instruments/hihat2.png",26,61,26,0.9,"stim/24.jpeg",2,4,3,NA,"Instruments",1,4,"left","right",0.386000156,0,0,0,1,NA,NA,NA,NA,NA,NA,NA,NA,NA,NA,NA,NA,NA,NA,NA,NA,NA,NA,NA,NA,NA,NA,NA,NA
"150","stim/objects/Instruments/electricguitar2.png",27,61,27,0.7,"stim/63.jpeg",6,3,2,NA,"Instruments",1,4,"left","right",0.284000158,0,0,0,1,NA,NA,NA,NA,NA,NA,NA,NA,NA,NA,NA,NA,NA,NA,NA,NA,NA,NA,NA,NA,NA,NA,NA,NA
"151","stim/objects/Instruments/electricguitar2.png",28,61,28,0.7,"stim/63.jpeg",6,3,2,NA,"Instruments",1,2,"left","right",0.311000109,0,0,0,1,NA,NA,NA,NA,NA,NA,NA,NA,NA,NA,NA,NA,NA,NA,NA,NA,NA,NA,NA,NA,NA,NA,NA,NA
"14","stim/objects/HouseObjects/cushion2.png",29,61,29,0.3,"stim/62.jpeg",6,2,2,NA,"HouseObjects",2,2,"right","",NA,0,0,0,1,NA,NA,NA,NA,NA,NA,NA,NA,NA,NA,NA,NA,NA,NA,NA,NA,NA,NA,NA,NA,NA,NA,NA,NA
"196","stim/objects/Instruments/guitarcase2.png",30,61,30,0.9,"stim/21.jpeg",2,1,3,NA,"Instruments",1,1,"left","left",0.401000023,1,1,0,1,NA,NA,NA,NA,NA,NA,NA,NA,NA,NA,NA,NA,NA,NA,NA,NA,NA,NA,NA,NA,NA,NA,NA,NA
"210","stim/objects/Instruments/harmonica2.png",31,61,31,0.9,"stim/22.jpeg",2,2,3,NA,"Instruments",1,4,"left","left",0.717000008,1,1,0,1,NA,NA,NA,NA,NA,NA,NA,NA,NA,NA,NA,NA,NA,NA,NA,NA,NA,NA,NA,NA,NA,NA,NA,NA
"52","stim/objects/HouseObjects/flyswatter2.png",32,61,32,0.9,"stim/12.jpeg",1,2,3,NA,"HouseObjects",2,4,"right","right",0.633000135,1,1,0,1,NA,NA,NA,NA,NA,NA,NA,NA,NA,NA,NA,NA,NA,NA,NA,NA,NA,NA,NA,NA,NA,NA,NA,NA
"47","stim/objects/HouseObjects/flyswatter.png",33,61,33,0.5,"stim/42.jpeg",4,2,1,NA,"HouseObjects",2,2,"right","right",0.486000061,1,1,0,1,NA,NA,NA,NA,NA,NA,NA,NA,NA,NA,NA,NA,NA,NA,NA,NA,NA,NA,NA,NA,NA,NA,NA,NA
"96","stim/objects/HouseObjects/glassmop2.png",34,61,34,0.1,"stim/21.jpeg",2,1,3,NA,"HouseObjects",2,3,"right","left",0.570000172,0,0,0,1,NA,NA,NA,NA,NA,NA,NA,NA,NA,NA,NA,NA,NA,NA,NA,NA,NA,NA,NA,NA,NA,NA,NA,NA
"31","stim/objects/HouseObjects/doormat2.png",35,61,35,0.3,"stim/64.jpeg",6,4,2,NA,"HouseObjects",2,2,"right","right",0.370000124,1,1,0,1,NA,NA,NA,NA,NA,NA,NA,NA,NA,NA,NA,NA,NA,NA,NA,NA,NA,NA,NA,NA,NA,NA,NA,NA
"32","stim/objects/HouseObjects/doormat2.png",36,61,36,0.3,"stim/64.jpeg",6,4,2,NA,"HouseObjects",2,1,"right","right",0.251000166,1,1,0,1,NA,NA,NA,NA,NA,NA,NA,NA,NA,NA,NA,NA,NA,NA,NA,NA,NA,NA,NA,NA,NA,NA,NA,NA
"139","stim/objects/Instruments/electricdrumset2.png",37,61,37,0.7,"stim/62.jpeg",6,2,2,NA,"Instruments",1,3,"left","left",0.549000025,1,1,0,1,NA,NA,NA,NA,NA,NA,NA,NA,NA,NA,NA,NA,NA,NA,NA,NA,NA,NA,NA,NA,NA,NA,NA,NA
"171","stim/objects/Instruments/flutetrans.png",38,61,38,0.5,"stim/41.jpeg",4,1,1,NA,"Instruments",1,4,"left","left",0.448000193,1,1,0,1,NA,NA,NA,NA,NA,NA,NA,NA,NA,NA,NA,NA,NA,NA,NA,NA,NA,NA,NA,NA,NA,NA,NA,NA
"53","stim/objects/HouseObjects/flyswatter2.png",39,61,39,0.9,"stim/12.jpeg",1,2,3,NA,"HouseObjects",2,2,"right","right",0.424000263,1,1,0,1,NA,NA,NA,NA,NA,NA,NA,NA,NA,NA,NA,NA,NA,NA,NA,NA,NA,NA,NA,NA,NA,NA,NA,NA
"18","stim/objects/HouseObjects/dishsoap.png",40,61,40,0.5,"stim/33.jpeg",3,3,1,NA,"HouseObjects",2,3,"right","left",0.528000355,0,0,0,1,NA,NA,NA,NA,NA,NA,NA,NA,NA,NA,NA,NA,NA,NA,NA,NA,NA,NA,NA,NA,NA,NA,NA,NA
"106","stim/objects/HouseObjects/handbrush.png",41,61,41,0.7,"stim/53.jpeg",5,3,2,NA,"HouseObjects",2,3,"right","right",0.818000078,1,1,0,1,NA,NA,NA,NA,NA,NA,NA,NA,NA,NA,NA,NA,NA,NA,NA,NA,NA,NA,NA,NA,NA,NA,NA,NA
"140","stim/objects/Instruments/electricdrumset2.png",42,61,42,0.7,"stim/62.jpeg",6,2,2,NA,"Instruments",1,3,"left","left",0.637000084,1,1,0,1,NA,NA,NA,NA,NA,NA,NA,NA,NA,NA,NA,NA,NA,NA,NA,NA,NA,NA,NA,NA,NA,NA,NA,NA
"197","stim/objects/Instruments/guitarcase2.png",43,61,43,0.9,"stim/21.jpeg",2,1,3,NA,"Instruments",1,1,"left","left",0.644000292,1,1,0,1,NA,NA,NA,NA,NA,NA,NA,NA,NA,NA,NA,NA,NA,NA,NA,NA,NA,NA,NA,NA,NA,NA,NA,NA
"9","stim/objects/HouseObjects/cushion.png",44,61,44,0.5,"stim/32.jpeg",3,2,1,NA,"HouseObjects",2,1,"right","left",0.538000107,0,0,0,1,NA,NA,NA,NA,NA,NA,NA,NA,NA,NA,NA,NA,NA,NA,NA,NA,NA,NA,NA,NA,NA,NA,NA,NA
"163","stim/objects/Instruments/flute2.png",45,61,45,0.7,"stim/64.jpeg",6,4,2,NA,"Instruments",1,4,"left","left",0.130000114,1,1,0,1,NA,NA,NA,NA,NA,NA,NA,NA,NA,NA,NA,NA,NA,NA,NA,NA,NA,NA,NA,NA,NA,NA,NA,NA
"89","stim/objects/HouseObjects/glassmop.png",46,61,46,0.7,"stim/51.jpeg",5,1,2,NA,"HouseObjects",2,2,"right","right",0.478000164,1,1,0,1,NA,NA,NA,NA,NA,NA,NA,NA,NA,NA,NA,NA,NA,NA,NA,NA,NA,NA,NA,NA,NA,NA,NA,NA
"98","stim/objects/HouseObjects/hairdryer.png",47,61,47,0.7,"stim/52.jpeg",5,2,2,NA,"HouseObjects",2,3,"right","right",0.578000069,1,1,0,1,NA,NA,NA,NA,NA,NA,NA,NA,NA,NA,NA,NA,NA,NA,NA,NA,NA,NA,NA,NA,NA,NA,NA,NA
"152","stim/objects/Instruments/electricguitar2.png",48,61,48,0.7,"stim/63.jpeg",6,3,2,NA,"Instruments",1,3,"left","left",0.579000235,1,1,0,1,NA,NA,NA,NA,NA,NA,NA,NA,NA,NA,NA,NA,NA,NA,NA,NA,NA,NA,NA,NA,NA,NA,NA,NA
"211","stim/objects/Instruments/harmonica2.png",49,61,49,0.9,"stim/22.jpeg",2,2,3,NA,"Instruments",1,3,"left","left",0.671000004,1,1,0,1,NA,NA,NA,NA,NA,NA,NA,NA,NA,NA,NA,NA,NA,NA,NA,NA,NA,NA,NA,NA,NA,NA,NA,NA
"141","stim/objects/Instruments/electricdrumset2.png",50,61,50,0.7,"stim/62.jpeg",6,2,2,NA,"Instruments",1,3,"left","left",0.794000149,1,1,0,1,NA,NA,NA,NA,NA,NA,NA,NA,NA,NA,NA,NA,NA,NA,NA,NA,NA,NA,NA,NA,NA,NA,NA,NA
"40","stim/objects/HouseObjects/dustpan2.png",51,61,51,0.9,"stim/11.jpeg",1,1,3,NA,"HouseObjects",2,3,"right","right",0.827000141,1,1,0,1,NA,NA,NA,NA,NA,NA,NA,NA,NA,NA,NA,NA,NA,NA,NA,NA,NA,NA,NA,NA,NA,NA,NA,NA
"113","stim/objects/HouseObjects/handvacuum.png",52,61,52,0.7,"stim/54.jpeg",5,4,2,NA,"HouseObjects",2,4,"right","right",0.542000055,1,1,0,1,NA,NA,NA,NA,NA,NA,NA,NA,NA,NA,NA,NA,NA,NA,NA,NA,NA,NA,NA,NA,NA,NA,NA,NA
"122","stim/objects/Instruments/drums.png",53,61,53,0.5,"stim/31.jpeg",3,1,1,NA,"Instruments",1,1,"left","left",0.703999996,1,1,0,1,NA,NA,NA,NA,NA,NA,NA,NA,NA,NA,NA,NA,NA,NA,NA,NA,NA,NA,NA,NA,NA,NA,NA,NA
"229","stim/objects/Instruments/hihat.png",54,61,54,0.3,"stim/54.jpeg",5,4,2,NA,"Instruments",1,2,"left","left",0.312999964,1,1,0,1,NA,NA,NA,NA,NA,NA,NA,NA,NA,NA,NA,NA,NA,NA,NA,NA,NA,NA,NA,NA,NA,NA,NA,NA
"181","stim/objects/Instruments/gong.png",55,61,55,0.5,"stim/43.jpeg",4,3,1,NA,"Instruments",1,4,"left","right",0.532000065,0,0,0,1,NA,NA,NA,NA,NA,NA,NA,NA,NA,NA,NA,NA,NA,NA,NA,NA,NA,NA,NA,NA,NA,NA,NA,NA
"134","stim/objects/Instruments/electricdrumset.png",56,61,56,0.5,"stim/32.jpeg",3,2,1,NA,"Instruments",1,2,"left","left",0.353000164,1,1,0,1,NA,NA,NA,NA,NA,NA,NA,NA,NA,NA,NA,NA,NA,NA,NA,NA,NA,NA,NA,NA,NA,NA,NA,NA
"90","stim/objects/HouseObjects/glassmop.png",57,61,57,0.7,"stim/51.jpeg",5,1,2,NA,"HouseObjects",2,1,"right","right",0.529999971,1,1,0,1,NA,NA,NA,NA,NA,NA,NA,NA,NA,NA,NA,NA,NA,NA,NA,NA,NA,NA,NA,NA,NA,NA,NA,NA
"153","stim/objects/Instruments/electricguitar2.png",58,61,58,0.7,"stim/63.jpeg",6,3,2,NA,"Instruments",1,3,"left","left",0.511000156,1,1,0,1,NA,NA,NA,NA,NA,NA,NA,NA,NA,NA,NA,NA,NA,NA,NA,NA,NA,NA,NA,NA,NA,NA,NA,NA
"33","stim/objects/HouseObjects/dustpan.png",59,61,59,0.5,"stim/41.jpeg",4,1,1,NA,"HouseObjects",2,4,"right","right",0.376000166,1,1,0,1,NA,NA,NA,NA,NA,NA,NA,NA,NA,NA,NA,NA,NA,NA,NA,NA,NA,NA,NA,NA,NA,NA,NA,NA
"114","stim/objects/HouseObjects/handvacuum.png",60,61,60,0.7,"stim/54.jpeg",5,4,2,NA,"HouseObjects",2,4,"right","left",0.27300024,0,0,0,1,NA,NA,NA,NA,NA,NA,NA,NA,NA,NA,NA,NA,NA,NA,NA,NA,NA,NA,NA,NA,NA,NA,NA,NA
"34","stim/objects/HouseObjects/dustpan.png",61,61,61,0.5,"stim/41.jpeg",4,1,1,NA,"HouseObjects",2,1,"right","right",0.545000315,1,1,0,1,NA,NA,NA,NA,NA,NA,NA,NA,NA,NA,NA,NA,NA,NA,NA,NA,NA,NA,NA,NA,NA,NA,NA,NA
"107","stim/objects/HouseObjects/handbrush.png",62,61,62,0.7,"stim/53.jpeg",5,3,2,NA,"HouseObjects",2,1,"right","right",0.404000282,1,1,0,1,NA,NA,NA,NA,NA,NA,NA,NA,NA,NA,NA,NA,NA,NA,NA,NA,NA,NA,NA,NA,NA,NA,NA,NA
"41","stim/objects/HouseObjects/dustpan2.png",63,61,63,0.9,"stim/11.jpeg",1,1,3,NA,"HouseObjects",2,1,"right","right",0.62100029,1,1,0,1,NA,NA,NA,NA,NA,NA,NA,NA,NA,NA,NA,NA,NA,NA,NA,NA,NA,NA,NA,NA,NA,NA,NA,NA
"222","stim/objects/Instruments/harp2.png",64,61,64,0.9,"stim/23.jpeg",2,3,3,NA,"Instruments",1,2,"left","left",0.720000267,1,1,0,1,NA,NA,NA,NA,NA,NA,NA,NA,NA,NA,NA,NA,NA,NA,NA,NA,NA,NA,NA,NA,NA,NA,NA,NA
"75","stim/objects/HouseObjects/glass.png",65,61,65,0.5,"stim/44.jpeg",4,4,1,NA,"HouseObjects",2,2,"right","right",0.857000113,1,1,0,1,NA,NA,NA,NA,NA,NA,NA,NA,NA,NA,NA,NA,NA,NA,NA,NA,NA,NA,NA,NA,NA,NA,NA,NA
"19","stim/objects/HouseObjects/dishsoap.png",66,61,66,0.5,"stim/33.jpeg",3,3,1,NA,"HouseObjects",2,2,"right","",NA,0,0,0,1,NA,NA,NA,NA,NA,NA,NA,NA,NA,NA,NA,NA,NA,NA,NA,NA,NA,NA,NA,NA,NA,NA,NA,NA
"66","stim/objects/HouseObjects/garbagebin2.png",67,61,67,0.9,"stim/13.jpeg",1,3,3,NA,"HouseObjects",2,3,"right","right",0.828000069,1,1,0,1,NA,NA,NA,NA,NA,NA,NA,NA,NA,NA,NA,NA,NA,NA,NA,NA,NA,NA,NA,NA,NA,NA,NA,NA
"217","stim/objects/Instruments/harp.png",68,61,68,0.3,"stim/53.jpeg",5,3,2,NA,"Instruments",1,4,"left","right",0.360000134,0,0,0,1,NA,NA,NA,NA,NA,NA,NA,NA,NA,NA,NA,NA,NA,NA,NA,NA,NA,NA,NA,NA,NA,NA,NA,NA
"205","stim/objects/Instruments/harmonica.png",69,61,69,0.3,"stim/52.jpeg",5,2,2,NA,"Instruments",1,1,"left","right",0.719000101,0,0,0,1,NA,NA,NA,NA,NA,NA,NA,NA,NA,NA,NA,NA,NA,NA,NA,NA,NA,NA,NA,NA,NA,NA,NA,NA
"233","stim/objects/Instruments/hihat2.png",70,61,70,0.9,"stim/24.jpeg",2,4,3,NA,"Instruments",1,3,"left","left",0.677000284,1,1,0,1,NA,NA,NA,NA,NA,NA,NA,NA,NA,NA,NA,NA,NA,NA,NA,NA,NA,NA,NA,NA,NA,NA,NA,NA
"142","stim/objects/Instruments/electricdrumset2.png",71,61,71,0.7,"stim/62.jpeg",6,2,2,NA,"Instruments",1,4,"left","",NA,0,0,0,1,NA,NA,NA,NA,NA,NA,NA,NA,NA,NA,NA,NA,NA,NA,NA,NA,NA,NA,NA,NA,NA,NA,NA,NA
"1","stim/objects/HouseObjects/coffee.png",72,61,72,0.5,"stim/31.jpeg",3,1,1,NA,"HouseObjects",2,1,"right","right",0.200000048,1,1,0,1,NA,NA,NA,NA,NA,NA,NA,NA,NA,NA,NA,NA,NA,NA,NA,NA,NA,NA,NA,NA,NA,NA,NA,NA
"99","stim/objects/HouseObjects/hairdryer.png",73,61,73,0.7,"stim/52.jpeg",5,2,2,NA,"HouseObjects",2,4,"right","right",0.269000053,1,1,0,1,NA,NA,NA,NA,NA,NA,NA,NA,NA,NA,NA,NA,NA,NA,NA,NA,NA,NA,NA,NA,NA,NA,NA,NA
"176","stim/objects/Instruments/frenchhorn.png",74,61,74,0.5,"stim/42.jpeg",4,2,1,NA,"Instruments",1,4,"left","left",0.249000311,1,1,0,1,NA,NA,NA,NA,NA,NA,NA,NA,NA,NA,NA,NA,NA,NA,NA,NA,NA,NA,NA,NA,NA,NA,NA,NA
"67","stim/objects/HouseObjects/garbagebin2.png",75,61,75,0.9,"stim/13.jpeg",1,3,3,NA,"HouseObjects",2,1,"right","left",0.512000084,0,0,0,1,NA,NA,NA,NA,NA,NA,NA,NA,NA,NA,NA,NA,NA,NA,NA,NA,NA,NA,NA,NA,NA,NA,NA,NA
"54","stim/objects/HouseObjects/flyswatter2.png",76,61,76,0.9,"stim/12.jpeg",1,2,3,NA,"HouseObjects",2,4,"right","right",0.435000181,1,1,0,1,NA,NA,NA,NA,NA,NA,NA,NA,NA,NA,NA,NA,NA,NA,NA,NA,NA,NA,NA,NA,NA,NA,NA,NA
"2","stim/objects/HouseObjects/coffee.png",77,61,77,0.5,"stim/31.jpeg",3,1,1,NA,"HouseObjects",2,1,"right","left",0.389000177,0,0,0,1,NA,NA,NA,NA,NA,NA,NA,NA,NA,NA,NA,NA,NA,NA,NA,NA,NA,NA,NA,NA,NA,NA,NA,NA
"115","stim/objects/HouseObjects/handvacuum.png",78,61,78,0.7,"stim/54.jpeg",5,4,2,NA,"HouseObjects",2,4,"right","",NA,0,0,0,1,NA,NA,NA,NA,NA,NA,NA,NA,NA,NA,NA,NA,NA,NA,NA,NA,NA,NA,NA,NA,NA,NA,NA,NA
"126","stim/objects/Instruments/drums2.png",79,61,79,0.7,"stim/61.jpeg",6,1,2,NA,"Instruments",1,2,"left","right",0.231000185,0,0,0,1,NA,NA,NA,NA,NA,NA,NA,NA,NA,NA,NA,NA,NA,NA,NA,NA,NA,NA,NA,NA,NA,NA,NA,NA
"187","stim/objects/Instruments/grandpiano.png",80,61,80,0.5,"stim/44.jpeg",4,4,1,NA,"Instruments",1,2,"left","left",0.305000305,1,1,0,1,NA,NA,NA,NA,NA,NA,NA,NA,NA,NA,NA,NA,NA,NA,NA,NA,NA,NA,NA,NA,NA,NA,NA,NA
"76","stim/objects/HouseObjects/glass.png",81,61,81,0.5,"stim/44.jpeg",4,4,1,NA,"HouseObjects",2,3,"right","right",0.203999996,1,1,0,1,NA,NA,NA,NA,NA,NA,NA,NA,NA,NA,NA,NA,NA,NA,NA,NA,NA,NA,NA,NA,NA,NA,NA,NA
"55","stim/objects/HouseObjects/flyswatter2.png",82,61,82,0.9,"stim/12.jpeg",1,2,3,NA,"HouseObjects",2,1,"right","right",0.743000031,1,1,0,1,NA,NA,NA,NA,NA,NA,NA,NA,NA,NA,NA,NA,NA,NA,NA,NA,NA,NA,NA,NA,NA,NA,NA,NA
"25","stim/objects/HouseObjects/doormat.png",83,61,83,0.5,"stim/34.jpeg",3,4,1,NA,"HouseObjects",2,1,"right","right",0.413000107,1,1,0,1,NA,NA,NA,NA,NA,NA,NA,NA,NA,NA,NA,NA,NA,NA,NA,NA,NA,NA,NA,NA,NA,NA,NA,NA
"100","stim/objects/HouseObjects/hairdryer.png",84,61,84,0.7,"stim/52.jpeg",5,2,2,NA,"HouseObjects",2,1,"right","right",0.564000368,1,1,0,1,NA,NA,NA,NA,NA,NA,NA,NA,NA,NA,NA,NA,NA,NA,NA,NA,NA,NA,NA,NA,NA,NA,NA,NA
"234","stim/objects/Instruments/hihat2.png",85,61,85,0.9,"stim/24.jpeg",2,4,3,NA,"Instruments",1,4,"left","left",0.748000145,1,1,0,1,NA,NA,NA,NA,NA,NA,NA,NA,NA,NA,NA,NA,NA,NA,NA,NA,NA,NA,NA,NA,NA,NA,NA,NA
"82","stim/objects/HouseObjects/glass2.png",86,61,86,0.9,"stim/14.jpeg",1,4,3,NA,"HouseObjects",2,2,"right","right",0.668000221,1,1,0,1,NA,NA,NA,NA,NA,NA,NA,NA,NA,NA,NA,NA,NA,NA,NA,NA,NA,NA,NA,NA,NA,NA,NA,NA
"108","stim/objects/HouseObjects/handbrush.png",87,61,87,0.7,"stim/53.jpeg",5,3,2,NA,"HouseObjects",2,2,"right","right",0.417999983,1,1,0,1,NA,NA,NA,NA,NA,NA,NA,NA,NA,NA,NA,NA,NA,NA,NA,NA,NA,NA,NA,NA,NA,NA,NA,NA
"182","stim/objects/Instruments/gong.png",88,61,88,0.5,"stim/43.jpeg",4,3,1,NA,"Instruments",1,1,"left","right",0.805000305,0,0,0,1,NA,NA,NA,NA,NA,NA,NA,NA,NA,NA,NA,NA,NA,NA,NA,NA,NA,NA,NA,NA,NA,NA,NA,NA
"61","stim/objects/HouseObjects/garbagebin.png",89,61,89,0.5,"stim/43.jpeg",4,3,1,NA,"HouseObjects",2,4,"right","left",0.697000265,0,0,0,1,NA,NA,NA,NA,NA,NA,NA,NA,NA,NA,NA,NA,NA,NA,NA,NA,NA,NA,NA,NA,NA,NA,NA,NA
"127","stim/objects/Instruments/drums2.png",90,61,90,0.7,"stim/61.jpeg",6,1,2,NA,"Instruments",1,1,"left","",NA,0,0,0,1,NA,NA,NA,NA,NA,NA,NA,NA,NA,NA,NA,NA,NA,NA,NA,NA,NA,NA,NA,NA,NA,NA,NA,NA
"62","stim/objects/HouseObjects/garbagebin.png",91,61,91,0.5,"stim/43.jpeg",4,3,1,NA,"HouseObjects",2,1,"right","left",0.421000242,0,0,0,1,NA,NA,NA,NA,NA,NA,NA,NA,NA,NA,NA,NA,NA,NA,NA,NA,NA,NA,NA,NA,NA,NA,NA,NA
"42","stim/objects/HouseObjects/dustpan2.png",92,61,92,0.9,"stim/11.jpeg",1,1,3,NA,"HouseObjects",2,4,"right","right",0.413000107,1,1,0,1,NA,NA,NA,NA,NA,NA,NA,NA,NA,NA,NA,NA,NA,NA,NA,NA,NA,NA,NA,NA,NA,NA,NA,NA
"180","stim/objects/Instruments/frenchhorn2.png",93,61,93,0.1,"stim/12.jpeg",1,2,3,NA,"Instruments",1,3,"left","right",0.402000189,0,0,0,1,NA,NA,NA,NA,NA,NA,NA,NA,NA,NA,NA,NA,NA,NA,NA,NA,NA,NA,NA,NA,NA,NA,NA,NA
"183","stim/objects/Instruments/gong.png",94,61,94,0.5,"stim/43.jpeg",4,3,1,NA,"Instruments",1,2,"left","right",0.529000282,0,0,0,1,NA,NA,NA,NA,NA,NA,NA,NA,NA,NA,NA,NA,NA,NA,NA,NA,NA,NA,NA,NA,NA,NA,NA,NA
"198","stim/objects/Instruments/guitarcase2.png",95,61,95,0.9,"stim/21.jpeg",2,1,3,NA,"Instruments",1,2,"left","right",0.453000069,0,0,0,1,NA,NA,NA,NA,NA,NA,NA,NA,NA,NA,NA,NA,NA,NA,NA,NA,NA,NA,NA,NA,NA,NA,NA,NA
"177","stim/objects/Instruments/frenchhorn.png",96,61,96,0.5,"stim/42.jpeg",4,2,1,NA,"Instruments",1,3,"left","left",0.253000259,1,1,0,1,NA,NA,NA,NA,NA,NA,NA,NA,NA,NA,NA,NA,NA,NA,NA,NA,NA,NA,NA,NA,NA,NA,NA,NA
"218","stim/objects/Instruments/harp.png",97,61,97,0.3,"stim/53.jpeg",5,3,2,NA,"Instruments",1,1,"left","left",0.477000237,1,1,0,1,NA,NA,NA,NA,NA,NA,NA,NA,NA,NA,NA,NA,NA,NA,NA,NA,NA,NA,NA,NA,NA,NA,NA,NA
"15","stim/objects/HouseObjects/cushion2.png",98,61,98,0.3,"stim/62.jpeg",6,2,2,NA,"HouseObjects",2,4,"right","right",0.640000343,1,1,0,1,NA,NA,NA,NA,NA,NA,NA,NA,NA,NA,NA,NA,NA,NA,NA,NA,NA,NA,NA,NA,NA,NA,NA,NA
"154","stim/objects/Instruments/electricguitar2.png",99,61,99,0.7,"stim/63.jpeg",6,3,2,NA,"Instruments",1,1,"left","left",0.695000172,1,1,0,1,NA,NA,NA,NA,NA,NA,NA,NA,NA,NA,NA,NA,NA,NA,NA,NA,NA,NA,NA,NA,NA,NA,NA,NA
"101","stim/objects/HouseObjects/hairdryer.png",100,61,100,0.7,"stim/52.jpeg",5,2,2,NA,"HouseObjects",2,2,"right","right",0.696000338,1,1,0,1,NA,NA,NA,NA,NA,NA,NA,NA,NA,NA,NA,NA,NA,NA,NA,NA,NA,NA,NA,NA,NA,NA,NA,NA
"3","stim/objects/HouseObjects/coffee.png",101,61,101,0.5,"stim/31.jpeg",3,1,1,NA,"HouseObjects",2,4,"right","right",0.694000244,1,1,0,1,NA,NA,NA,NA,NA,NA,NA,NA,NA,NA,NA,NA,NA,NA,NA,NA,NA,NA,NA,NA,NA,NA,NA,NA
"35","stim/objects/HouseObjects/dustpan.png",102,61,102,0.5,"stim/41.jpeg",4,1,1,NA,"HouseObjects",2,4,"right","right",0.88800025,1,1,0,1,NA,NA,NA,NA,NA,NA,NA,NA,NA,NA,NA,NA,NA,NA,NA,NA,NA,NA,NA,NA,NA,NA,NA,NA
"20","stim/objects/HouseObjects/dishsoap.png",103,61,103,0.5,"stim/33.jpeg",3,3,1,NA,"HouseObjects",2,3,"right","left",0.43200016,0,0,0,1,NA,NA,NA,NA,NA,NA,NA,NA,NA,NA,NA,NA,NA,NA,NA,NA,NA,NA,NA,NA,NA,NA,NA,NA
"223","stim/objects/Instruments/harp2.png",104,61,104,0.9,"stim/23.jpeg",2,3,3,NA,"Instruments",1,1,"left","left",0.644000053,1,1,0,1,NA,NA,NA,NA,NA,NA,NA,NA,NA,NA,NA,NA,NA,NA,NA,NA,NA,NA,NA,NA,NA,NA,NA,NA
"36","stim/objects/HouseObjects/dustpan.png",105,61,105,0.5,"stim/41.jpeg",4,1,1,NA,"HouseObjects",2,4,"right","right",0.702000141,1,1,0,1,NA,NA,NA,NA,NA,NA,NA,NA,NA,NA,NA,NA,NA,NA,NA,NA,NA,NA,NA,NA,NA,NA,NA,NA
"235","stim/objects/Instruments/hihat2.png",106,61,106,0.9,"stim/24.jpeg",2,4,3,NA,"Instruments",1,1,"left","left",0.429000139,1,1,0,1,NA,NA,NA,NA,NA,NA,NA,NA,NA,NA,NA,NA,NA,NA,NA,NA,NA,NA,NA,NA,NA,NA,NA,NA
"116","stim/objects/HouseObjects/handvacuum.png",107,61,107,0.7,"stim/54.jpeg",5,4,2,NA,"HouseObjects",2,2,"right","right",0.828000307,1,1,0,1,NA,NA,NA,NA,NA,NA,NA,NA,NA,NA,NA,NA,NA,NA,NA,NA,NA,NA,NA,NA,NA,NA,NA,NA
"178","stim/objects/Instruments/frenchhorn.png",108,61,108,0.5,"stim/42.jpeg",4,2,1,NA,"Instruments",1,3,"left","left",0.520000219,1,1,0,1,NA,NA,NA,NA,NA,NA,NA,NA,NA,NA,NA,NA,NA,NA,NA,NA,NA,NA,NA,NA,NA,NA,NA,NA
"188","stim/objects/Instruments/grandpiano.png",109,61,109,0.5,"stim/44.jpeg",4,4,1,NA,"Instruments",1,3,"left","left",0.378000259,1,1,0,1,NA,NA,NA,NA,NA,NA,NA,NA,NA,NA,NA,NA,NA,NA,NA,NA,NA,NA,NA,NA,NA,NA,NA,NA
"160","stim/objects/Instruments/flute.png",110,61,110,0.5,"stim/34.jpeg",3,4,1,NA,"Instruments",1,1,"left","left",0.460000038,1,1,0,1,NA,NA,NA,NA,NA,NA,NA,NA,NA,NA,NA,NA,NA,NA,NA,NA,NA,NA,NA,NA,NA,NA,NA,NA
"212","stim/objects/Instruments/harmonica2.png",111,61,111,0.9,"stim/22.jpeg",2,2,3,NA,"Instruments",1,3,"left","left",0.703000069,1,1,0,1,NA,NA,NA,NA,NA,NA,NA,NA,NA,NA,NA,NA,NA,NA,NA,NA,NA,NA,NA,NA,NA,NA,NA,NA
"199","stim/objects/Instruments/guitarcase2.png",112,61,112,0.9,"stim/21.jpeg",2,1,3,NA,"Instruments",1,2,"left","left",0.398000002,1,1,0,1,NA,NA,NA,NA,NA,NA,NA,NA,NA,NA,NA,NA,NA,NA,NA,NA,NA,NA,NA,NA,NA,NA,NA,NA
"56","stim/objects/HouseObjects/flyswatter2.png",113,61,113,0.9,"stim/12.jpeg",1,2,3,NA,"HouseObjects",2,2,"right","right",0.512000084,1,1,0,1,NA,NA,NA,NA,NA,NA,NA,NA,NA,NA,NA,NA,NA,NA,NA,NA,NA,NA,NA,NA,NA,NA,NA,NA
"155","stim/objects/Instruments/electricguitar2.png",114,61,114,0.7,"stim/63.jpeg",6,3,2,NA,"Instruments",1,2,"left","right",0.604000092,0,0,0,1,NA,NA,NA,NA,NA,NA,NA,NA,NA,NA,NA,NA,NA,NA,NA,NA,NA,NA,NA,NA,NA,NA,NA,NA
"206","stim/objects/Instruments/harmonica.png",115,61,115,0.3,"stim/52.jpeg",5,2,2,NA,"Instruments",1,2,"left","left",0.550000191,1,1,0,1,NA,NA,NA,NA,NA,NA,NA,NA,NA,NA,NA,NA,NA,NA,NA,NA,NA,NA,NA,NA,NA,NA,NA,NA
"164","stim/objects/Instruments/flute2.png",116,61,116,0.7,"stim/64.jpeg",6,4,2,NA,"Instruments",1,2,"left","left",0.650000095,1,1,0,1,NA,NA,NA,NA,NA,NA,NA,NA,NA,NA,NA,NA,NA,NA,NA,NA,NA,NA,NA,NA,NA,NA,NA,NA
"128","stim/objects/Instruments/drums2.png",117,61,117,0.7,"stim/61.jpeg",6,1,2,NA,"Instruments",1,4,"left","left",0.210999966,1,1,0,1,NA,NA,NA,NA,NA,NA,NA,NA,NA,NA,NA,NA,NA,NA,NA,NA,NA,NA,NA,NA,NA,NA,NA,NA
"21","stim/objects/HouseObjects/dishsoap.png",118,61,118,0.5,"stim/33.jpeg",3,3,1,NA,"HouseObjects",2,3,"right","left",0.502000093,0,0,0,1,NA,NA,NA,NA,NA,NA,NA,NA,NA,NA,NA,NA,NA,NA,NA,NA,NA,NA,NA,NA,NA,NA,NA,NA
"189","stim/objects/Instruments/grandpiano.png",119,61,119,0.5,"stim/44.jpeg",4,4,1,NA,"Instruments",1,4,"left","right",0.815999985,0,0,0,1,NA,NA,NA,NA,NA,NA,NA,NA,NA,NA,NA,NA,NA,NA,NA,NA,NA,NA,NA,NA,NA,NA,NA,NA
"224","stim/objects/Instruments/harp2.png",120,61,120,0.9,"stim/23.jpeg",2,3,3,NA,"Instruments",1,1,"left","left",0.002000093,1,1,0,1,NA,NA,NA,NA,NA,NA,NA,NA,NA,NA,NA,NA,NA,NA,NA,NA,NA,NA,NA,NA,NA,NA,NA,NA
"109","stim/objects/HouseObjects/handbrush.png",121,61,121,0.7,"stim/53.jpeg",5,3,2,NA,"HouseObjects",2,3,"right","right",0.493000269,1,1,0,1,NA,NA,NA,NA,NA,NA,NA,NA,NA,NA,NA,NA,NA,NA,NA,NA,NA,NA,NA,NA,NA,NA,NA,NA
"186","stim/objects/Instruments/gong2.png",122,61,122,0.1,"stim/13.jpeg",1,3,3,NA,"Instruments",1,2,"left","right",0.765000105,0,0,0,1,NA,NA,NA,NA,NA,NA,NA,NA,NA,NA,NA,NA,NA,NA,NA,NA,NA,NA,NA,NA,NA,NA,NA,NA
"57","stim/objects/HouseObjects/flyswatter2.png",123,61,123,0.9,"stim/12.jpeg",1,2,3,NA,"HouseObjects",2,4,"right","left",0.597000122,0,0,0,1,NA,NA,NA,NA,NA,NA,NA,NA,NA,NA,NA,NA,NA,NA,NA,NA,NA,NA,NA,NA,NA,NA,NA,NA
"48","stim/objects/HouseObjects/flyswatter.png",124,61,124,0.5,"stim/42.jpeg",4,2,1,NA,"HouseObjects",2,2,"right","right",0.519000053,1,1,0,1,NA,NA,NA,NA,NA,NA,NA,NA,NA,NA,NA,NA,NA,NA,NA,NA,NA,NA,NA,NA,NA,NA,NA,NA
"49","stim/objects/HouseObjects/flyswatter.png",125,61,125,0.5,"stim/42.jpeg",4,2,1,NA,"HouseObjects",2,3,"right","right",0.544000149,1,1,0,1,NA,NA,NA,NA,NA,NA,NA,NA,NA,NA,NA,NA,NA,NA,NA,NA,NA,NA,NA,NA,NA,NA,NA,NA
"190","stim/objects/Instruments/grandpiano.png",126,61,126,0.5,"stim/44.jpeg",4,4,1,NA,"Instruments",1,2,"left","right",0.696000099,0,0,0,1,NA,NA,NA,NA,NA,NA,NA,NA,NA,NA,NA,NA,NA,NA,NA,NA,NA,NA,NA,NA,NA,NA,NA,NA
"83","stim/objects/HouseObjects/glass2.png",127,61,127,0.9,"stim/14.jpeg",1,4,3,NA,"HouseObjects",2,1,"right","right",0.841000319,1,1,0,1,NA,NA,NA,NA,NA,NA,NA,NA,NA,NA,NA,NA,NA,NA,NA,NA,NA,NA,NA,NA,NA,NA,NA,NA
"91","stim/objects/HouseObjects/glassmop.png",128,61,128,0.7,"stim/51.jpeg",5,1,2,NA,"HouseObjects",2,4,"right","right",0.548000097,1,1,0,1,NA,NA,NA,NA,NA,NA,NA,NA,NA,NA,NA,NA,NA,NA,NA,NA,NA,NA,NA,NA,NA,NA,NA,NA
"117","stim/objects/HouseObjects/handvacuum.png",129,61,129,0.7,"stim/54.jpeg",5,4,2,NA,"HouseObjects",2,1,"right","right",0.685000181,1,1,0,1,NA,NA,NA,NA,NA,NA,NA,NA,NA,NA,NA,NA,NA,NA,NA,NA,NA,NA,NA,NA,NA,NA,NA,NA
"92","stim/objects/HouseObjects/glassmop.png",130,61,130,0.7,"stim/51.jpeg",5,1,2,NA,"HouseObjects",2,3,"right","right",0.602000237,1,1,0,1,NA,NA,NA,NA,NA,NA,NA,NA,NA,NA,NA,NA,NA,NA,NA,NA,NA,NA,NA,NA,NA,NA,NA,NA
"200","stim/objects/Instruments/guitarcase2.png",131,61,131,0.9,"stim/21.jpeg",2,1,3,NA,"Instruments",1,1,"left","left",0.712000132,1,1,0,1,NA,NA,NA,NA,NA,NA,NA,NA,NA,NA,NA,NA,NA,NA,NA,NA,NA,NA,NA,NA,NA,NA,NA,NA
"129","stim/objects/Instruments/drums2.png",132,61,132,0.7,"stim/61.jpeg",6,1,2,NA,"Instruments",1,1,"left","",NA,0,0,0,1,NA,NA,NA,NA,NA,NA,NA,NA,NA,NA,NA,NA,NA,NA,NA,NA,NA,NA,NA,NA,NA,NA,NA,NA
"77","stim/objects/HouseObjects/glass.png",133,61,133,0.5,"stim/44.jpeg",4,4,1,NA,"HouseObjects",2,4,"right","left",0.321000099,0,0,0,1,NA,NA,NA,NA,NA,NA,NA,NA,NA,NA,NA,NA,NA,NA,NA,NA,NA,NA,NA,NA,NA,NA,NA,NA
"50","stim/objects/HouseObjects/flyswatter.png",134,61,134,0.5,"stim/42.jpeg",4,2,1,NA,"HouseObjects",2,4,"right","",NA,0,0,0,1,NA,NA,NA,NA,NA,NA,NA,NA,NA,NA,NA,NA,NA,NA,NA,NA,NA,NA,NA,NA,NA,NA,NA,NA
"123","stim/objects/Instruments/drums.png",135,61,135,0.5,"stim/31.jpeg",3,1,1,NA,"Instruments",1,2,"left","right",0.386000156,0,0,0,1,NA,NA,NA,NA,NA,NA,NA,NA,NA,NA,NA,NA,NA,NA,NA,NA,NA,NA,NA,NA,NA,NA,NA,NA
"135","stim/objects/Instruments/electricdrumset.png",136,61,136,0.5,"stim/32.jpeg",3,2,1,NA,"Instruments",1,4,"left","right",0.535000086,0,0,0,1,NA,NA,NA,NA,NA,NA,NA,NA,NA,NA,NA,NA,NA,NA,NA,NA,NA,NA,NA,NA,NA,NA,NA,NA
"23","stim/objects/HouseObjects/dishsoap2.png",137,61,137,0.3,"stim/63.jpeg",6,3,2,NA,"HouseObjects",2,2,"right","left",0.420000076,0,0,0,1,NA,NA,NA,NA,NA,NA,NA,NA,NA,NA,NA,NA,NA,NA,NA,NA,NA,NA,NA,NA,NA,NA,NA,NA
"130","stim/objects/Instruments/drums2.png",138,61,138,0.7,"stim/61.jpeg",6,1,2,NA,"Instruments",1,3,"left","left",0.267000198,1,1,0,1,NA,NA,NA,NA,NA,NA,NA,NA,NA,NA,NA,NA,NA,NA,NA,NA,NA,NA,NA,NA,NA,NA,NA,NA
"165","stim/objects/Instruments/flute2.png",139,61,139,0.7,"stim/64.jpeg",6,4,2,NA,"Instruments",1,4,"left","left",0.735000134,1,1,0,1,NA,NA,NA,NA,NA,NA,NA,NA,NA,NA,NA,NA,NA,NA,NA,NA,NA,NA,NA,NA,NA,NA,NA,NA
"236","stim/objects/Instruments/hihat2.png",140,61,140,0.9,"stim/24.jpeg",2,4,3,NA,"Instruments",1,1,"left","left",0.631000042,1,1,0,1,NA,NA,NA,NA,NA,NA,NA,NA,NA,NA,NA,NA,NA,NA,NA,NA,NA,NA,NA,NA,NA,NA,NA,NA
"78","stim/objects/HouseObjects/glass.png",141,61,141,0.5,"stim/44.jpeg",4,4,1,NA,"HouseObjects",2,3,"right","left",0.79700017,0,0,0,1,NA,NA,NA,NA,NA,NA,NA,NA,NA,NA,NA,NA,NA,NA,NA,NA,NA,NA,NA,NA,NA,NA,NA,NA
"213","stim/objects/Instruments/harmonica2.png",142,61,142,0.9,"stim/22.jpeg",2,2,3,NA,"Instruments",1,4,"left","left",0.361000299,1,1,0,1,NA,NA,NA,NA,NA,NA,NA,NA,NA,NA,NA,NA,NA,NA,NA,NA,NA,NA,NA,NA,NA,NA,NA,NA
"68","stim/objects/HouseObjects/garbagebin2.png",143,61,143,0.9,"stim/13.jpeg",1,3,3,NA,"HouseObjects",2,1,"right","right",0.569000006,1,1,0,1,NA,NA,NA,NA,NA,NA,NA,NA,NA,NA,NA,NA,NA,NA,NA,NA,NA,NA,NA,NA,NA,NA,NA,NA
"143","stim/objects/Instruments/electricdrumset2.png",144,61,144,0.7,"stim/62.jpeg",6,2,2,NA,"Instruments",1,4,"left","right",0.717000008,0,0,0,1,NA,NA,NA,NA,NA,NA,NA,NA,NA,NA,NA,NA,NA,NA,NA,NA,NA,NA,NA,NA,NA,NA,NA,NA
"237","stim/objects/Instruments/hihat2.png",145,61,145,0.9,"stim/24.jpeg",2,4,3,NA,"Instruments",1,1,"left","left",0.58100009,1,1,0,1,NA,NA,NA,NA,NA,NA,NA,NA,NA,NA,NA,NA,NA,NA,NA,NA,NA,NA,NA,NA,NA,NA,NA,NA
"193","stim/objects/Instruments/guitarcase.png",146,61,146,0.3,"stim/51.jpeg",5,1,2,NA,"Instruments",1,3,"left","right",0.611000299,0,0,0,1,NA,NA,NA,NA,NA,NA,NA,NA,NA,NA,NA,NA,NA,NA,NA,NA,NA,NA,NA,NA,NA,NA,NA,NA
"161","stim/objects/Instruments/flute.png",147,61,147,0.5,"stim/34.jpeg",3,4,1,NA,"Instruments",1,2,"left","right",0.343000174,0,0,0,1,NA,NA,NA,NA,NA,NA,NA,NA,NA,NA,NA,NA,NA,NA,NA,NA,NA,NA,NA,NA,NA,NA,NA,NA
"118","stim/objects/HouseObjects/handvacuum.png",148,61,148,0.7,"stim/54.jpeg",5,4,2,NA,"HouseObjects",2,1,"right","left",0.437000036,0,0,0,1,NA,NA,NA,NA,NA,NA,NA,NA,NA,NA,NA,NA,NA,NA,NA,NA,NA,NA,NA,NA,NA,NA,NA,NA
"26","stim/objects/HouseObjects/doormat.png",149,61,149,0.5,"stim/34.jpeg",3,4,1,NA,"HouseObjects",2,3,"right","left",0.618000269,0,0,0,1,NA,NA,NA,NA,NA,NA,NA,NA,NA,NA,NA,NA,NA,NA,NA,NA,NA,NA,NA,NA,NA,NA,NA,NA
"69","stim/objects/HouseObjects/garbagebin2.png",150,61,150,0.9,"stim/13.jpeg",1,3,3,NA,"HouseObjects",2,2,"right","right",0.743000269,1,1,0,1,NA,NA,NA,NA,NA,NA,NA,NA,NA,NA,NA,NA,NA,NA,NA,NA,NA,NA,NA,NA,NA,NA,NA,NA
"10","stim/objects/HouseObjects/cushion.png",151,61,151,0.5,"stim/32.jpeg",3,2,1,NA,"HouseObjects",2,4,"right","right",0.46900034,1,1,0,1,NA,NA,NA,NA,NA,NA,NA,NA,NA,NA,NA,NA,NA,NA,NA,NA,NA,NA,NA,NA,NA,NA,NA,NA
"102","stim/objects/HouseObjects/hairdryer.png",152,61,152,0.7,"stim/52.jpeg",5,2,2,NA,"HouseObjects",2,3,"right","right",0.534000158,1,1,0,1,NA,NA,NA,NA,NA,NA,NA,NA,NA,NA,NA,NA,NA,NA,NA,NA,NA,NA,NA,NA,NA,NA,NA,NA
"144","stim/objects/Instruments/electricdrumset2.png",153,61,153,0.7,"stim/62.jpeg",6,2,2,NA,"Instruments",1,1,"left","right",0.420000315,0,0,0,1,NA,NA,NA,NA,NA,NA,NA,NA,NA,NA,NA,NA,NA,NA,NA,NA,NA,NA,NA,NA,NA,NA,NA,NA
"70","stim/objects/HouseObjects/garbagebin2.png",154,61,154,0.9,"stim/13.jpeg",1,3,3,NA,"HouseObjects",2,3,"right","left",0.828999996,0,0,0,1,NA,NA,NA,NA,NA,NA,NA,NA,NA,NA,NA,NA,NA,NA,NA,NA,NA,NA,NA,NA,NA,NA,NA,NA
"58","stim/objects/HouseObjects/flyswatter2.png",155,61,155,0.9,"stim/12.jpeg",1,2,3,NA,"HouseObjects",2,2,"right","right",0.611000299,1,1,0,1,NA,NA,NA,NA,NA,NA,NA,NA,NA,NA,NA,NA,NA,NA,NA,NA,NA,NA,NA,NA,NA,NA,NA,NA
"172","stim/objects/Instruments/flutetrans.png",156,61,156,0.5,"stim/41.jpeg",4,1,1,NA,"Instruments",1,2,"left","right",0.553000212,0,0,0,1,NA,NA,NA,NA,NA,NA,NA,NA,NA,NA,NA,NA,NA,NA,NA,NA,NA,NA,NA,NA,NA,NA,NA,NA
"27","stim/objects/HouseObjects/doormat.png",157,61,157,0.5,"stim/34.jpeg",3,4,1,NA,"HouseObjects",2,3,"right","right",0.633000135,1,1,0,1,NA,NA,NA,NA,NA,NA,NA,NA,NA,NA,NA,NA,NA,NA,NA,NA,NA,NA,NA,NA,NA,NA,NA,NA
"131","stim/objects/Instruments/drums2.png",158,61,158,0.7,"stim/61.jpeg",6,1,2,NA,"Instruments",1,4,"left","",NA,0,0,0,1,NA,NA,NA,NA,NA,NA,NA,NA,NA,NA,NA,NA,NA,NA,NA,NA,NA,NA,NA,NA,NA,NA,NA,NA
"84","stim/objects/HouseObjects/glass2.png",159,61,159,0.9,"stim/14.jpeg",1,4,3,NA,"HouseObjects",2,3,"right","right",0.719000101,1,1,0,1,NA,NA,NA,NA,NA,NA,NA,NA,NA,NA,NA,NA,NA,NA,NA,NA,NA,NA,NA,NA,NA,NA,NA,NA
"201","stim/objects/Instruments/guitarcase2.png",160,61,160,0.9,"stim/21.jpeg",2,1,3,NA,"Instruments",1,2,"left","right",0.445000172,0,0,0,1,NA,NA,NA,NA,NA,NA,NA,NA,NA,NA,NA,NA,NA,NA,NA,NA,NA,NA,NA,NA,NA,NA,NA,NA
"59","stim/objects/HouseObjects/flyswatter2.png",161,61,161,0.9,"stim/12.jpeg",1,2,3,NA,"HouseObjects",2,1,"right","right",0.694000244,1,1,0,1,NA,NA,NA,NA,NA,NA,NA,NA,NA,NA,NA,NA,NA,NA,NA,NA,NA,NA,NA,NA,NA,NA,NA,NA
"4","stim/objects/HouseObjects/coffee.png",162,61,162,0.5,"stim/31.jpeg",3,1,1,NA,"HouseObjects",2,3,"right","left",0.645000219,0,0,0,1,NA,NA,NA,NA,NA,NA,NA,NA,NA,NA,NA,NA,NA,NA,NA,NA,NA,NA,NA,NA,NA,NA,NA,NA
"214","stim/objects/Instruments/harmonica2.png",163,61,163,0.9,"stim/22.jpeg",2,2,3,NA,"Instruments",1,1,"left","",NA,0,0,0,1,NA,NA,NA,NA,NA,NA,NA,NA,NA,NA,NA,NA,NA,NA,NA,NA,NA,NA,NA,NA,NA,NA,NA,NA
"63","stim/objects/HouseObjects/garbagebin.png",164,61,164,0.5,"stim/43.jpeg",4,3,1,NA,"HouseObjects",2,3,"right","left",0.350000143,0,0,0,1,NA,NA,NA,NA,NA,NA,NA,NA,NA,NA,NA,NA,NA,NA,NA,NA,NA,NA,NA,NA,NA,NA,NA,NA
"43","stim/objects/HouseObjects/dustpan2.png",165,61,165,0.9,"stim/11.jpeg",1,1,3,NA,"HouseObjects",2,3,"right","right",0.704000235,1,1,0,1,NA,NA,NA,NA,NA,NA,NA,NA,NA,NA,NA,NA,NA,NA,NA,NA,NA,NA,NA,NA,NA,NA,NA,NA
"60","stim/objects/HouseObjects/flyswatter2.png",166,61,166,0.9,"stim/12.jpeg",1,2,3,NA,"HouseObjects",2,3,"right","right",0.726000071,1,1,0,1,NA,NA,NA,NA,NA,NA,NA,NA,NA,NA,NA,NA,NA,NA,NA,NA,NA,NA,NA,NA,NA,NA,NA,NA
"11","stim/objects/HouseObjects/cushion.png",167,61,167,0.5,"stim/32.jpeg",3,2,1,NA,"HouseObjects",2,1,"right","left",0.744000196,0,0,0,1,NA,NA,NA,NA,NA,NA,NA,NA,NA,NA,NA,NA,NA,NA,NA,NA,NA,NA,NA,NA,NA,NA,NA,NA
"136","stim/objects/Instruments/electricdrumset.png",168,61,168,0.5,"stim/32.jpeg",3,2,1,NA,"Instruments",1,4,"left","right",0.450000048,0,0,0,1,NA,NA,NA,NA,NA,NA,NA,NA,NA,NA,NA,NA,NA,NA,NA,NA,NA,NA,NA,NA,NA,NA,NA,NA
"230","stim/objects/Instruments/hihat.png",169,61,169,0.3,"stim/54.jpeg",5,4,2,NA,"Instruments",1,2,"left","right",0.626000166,0,0,0,1,NA,NA,NA,NA,NA,NA,NA,NA,NA,NA,NA,NA,NA,NA,NA,NA,NA,NA,NA,NA,NA,NA,NA,NA
"12","stim/objects/HouseObjects/cushion.png",170,61,170,0.5,"stim/32.jpeg",3,2,1,NA,"HouseObjects",2,1,"right","left",0.617000341,0,0,0,1,NA,NA,NA,NA,NA,NA,NA,NA,NA,NA,NA,NA,NA,NA,NA,NA,NA,NA,NA,NA,NA,NA,NA,NA
"145","stim/objects/Instruments/electricguitar.png",171,61,171,0.5,"stim/33.jpeg",3,3,1,NA,"Instruments",1,1,"left","left",0.68900013,1,1,0,1,NA,NA,NA,NA,NA,NA,NA,NA,NA,NA,NA,NA,NA,NA,NA,NA,NA,NA,NA,NA,NA,NA,NA,NA
"225","stim/objects/Instruments/harp2.png",172,61,172,0.9,"stim/23.jpeg",2,3,3,NA,"Instruments",1,3,"left","left",0.596000195,1,1,0,1,NA,NA,NA,NA,NA,NA,NA,NA,NA,NA,NA,NA,NA,NA,NA,NA,NA,NA,NA,NA,NA,NA,NA,NA
"124","stim/objects/Instruments/drums.png",173,61,173,0.5,"stim/31.jpeg",3,1,1,NA,"Instruments",1,1,"left","left",0.74600029,1,1,0,1,NA,NA,NA,NA,NA,NA,NA,NA,NA,NA,NA,NA,NA,NA,NA,NA,NA,NA,NA,NA,NA,NA,NA,NA
"226","stim/objects/Instruments/harp2.png",174,61,174,0.9,"stim/23.jpeg",2,3,3,NA,"Instruments",1,1,"left","left",0.521000147,1,1,0,1,NA,NA,NA,NA,NA,NA,NA,NA,NA,NA,NA,NA,NA,NA,NA,NA,NA,NA,NA,NA,NA,NA,NA,NA
"85","stim/objects/HouseObjects/glass2.png",175,61,175,0.9,"stim/14.jpeg",1,4,3,NA,"HouseObjects",2,3,"right","",NA,0,0,0,1,NA,NA,NA,NA,NA,NA,NA,NA,NA,NA,NA,NA,NA,NA,NA,NA,NA,NA,NA,NA,NA,NA,NA,NA
"184","stim/objects/Instruments/gong.png",176,61,176,0.5,"stim/43.jpeg",4,3,1,NA,"Instruments",1,4,"left","right",0.261000156,0,0,0,1,NA,NA,NA,NA,NA,NA,NA,NA,NA,NA,NA,NA,NA,NA,NA,NA,NA,NA,NA,NA,NA,NA,NA,NA
"71","stim/objects/HouseObjects/garbagebin2.png",177,61,177,0.9,"stim/13.jpeg",1,3,3,NA,"HouseObjects",2,1,"right","right",0.259000063,1,1,0,1,NA,NA,NA,NA,NA,NA,NA,NA,NA,NA,NA,NA,NA,NA,NA,NA,NA,NA,NA,NA,NA,NA,NA,NA
"146","stim/objects/Instruments/electricguitar.png",178,61,178,0.5,"stim/33.jpeg",3,3,1,NA,"Instruments",1,3,"left","right",0.461000204,0,0,0,1,NA,NA,NA,NA,NA,NA,NA,NA,NA,NA,NA,NA,NA,NA,NA,NA,NA,NA,NA,NA,NA,NA,NA,NA
"173","stim/objects/Instruments/flutetrans.png",179,61,179,0.5,"stim/41.jpeg",4,1,1,NA,"Instruments",1,2,"left","right",0.464000225,0,0,0,1,NA,NA,NA,NA,NA,NA,NA,NA,NA,NA,NA,NA,NA,NA,NA,NA,NA,NA,NA,NA,NA,NA,NA,NA
"119","stim/objects/HouseObjects/handvacuum.png",180,61,180,0.7,"stim/54.jpeg",5,4,2,NA,"HouseObjects",2,3,"right","right",0.31400013,1,1,0,1,NA,NA,NA,NA,NA,NA,NA,NA,NA,NA,NA,NA,NA,NA,NA,NA,NA,NA,NA,NA,NA,NA,NA,NA
"194","stim/objects/Instruments/guitarcase.png",181,61,181,0.3,"stim/51.jpeg",5,1,2,NA,"Instruments",1,1,"left","left",0.285000086,1,1,0,1,NA,NA,NA,NA,NA,NA,NA,NA,NA,NA,NA,NA,NA,NA,NA,NA,NA,NA,NA,NA,NA,NA,NA,NA
"44","stim/objects/HouseObjects/dustpan2.png",182,61,182,0.9,"stim/11.jpeg",1,1,3,NA,"HouseObjects",2,4,"right","left",0.179000139,0,0,0,1,NA,NA,NA,NA,NA,NA,NA,NA,NA,NA,NA,NA,NA,NA,NA,NA,NA,NA,NA,NA,NA,NA,NA,NA
"195","stim/objects/Instruments/guitarcase.png",183,61,183,0.3,"stim/51.jpeg",5,1,2,NA,"Instruments",1,1,"left","right",0.417999983,0,0,0,1,NA,NA,NA,NA,NA,NA,NA,NA,NA,NA,NA,NA,NA,NA,NA,NA,NA,NA,NA,NA,NA,NA,NA,NA
"110","stim/objects/HouseObjects/handbrush.png",184,61,184,0.7,"stim/53.jpeg",5,3,2,NA,"HouseObjects",2,3,"right","right",0.618000031,1,1,0,1,NA,NA,NA,NA,NA,NA,NA,NA,NA,NA,NA,NA,NA,NA,NA,NA,NA,NA,NA,NA,NA,NA,NA,NA
"166","stim/objects/Instruments/flute2.png",185,61,185,0.7,"stim/64.jpeg",6,4,2,NA,"Instruments",1,4,"left","left",0.542999983,1,1,0,1,NA,NA,NA,NA,NA,NA,NA,NA,NA,NA,NA,NA,NA,NA,NA,NA,NA,NA,NA,NA,NA,NA,NA,NA
"79","stim/objects/HouseObjects/glass.png",186,61,186,0.5,"stim/44.jpeg",4,4,1,NA,"HouseObjects",2,1,"right","left",0.293000221,0,0,0,1,NA,NA,NA,NA,NA,NA,NA,NA,NA,NA,NA,NA,NA,NA,NA,NA,NA,NA,NA,NA,NA,NA,NA,NA
"51","stim/objects/HouseObjects/flyswatter.png",187,61,187,0.5,"stim/42.jpeg",4,2,1,NA,"HouseObjects",2,2,"right","right",0.544000149,1,1,0,1,NA,NA,NA,NA,NA,NA,NA,NA,NA,NA,NA,NA,NA,NA,NA,NA,NA,NA,NA,NA,NA,NA,NA,NA
"147","stim/objects/Instruments/electricguitar.png",188,61,188,0.5,"stim/33.jpeg",3,3,1,NA,"Instruments",1,4,"left","left",0.703000069,1,1,0,1,NA,NA,NA,NA,NA,NA,NA,NA,NA,NA,NA,NA,NA,NA,NA,NA,NA,NA,NA,NA,NA,NA,NA,NA
"238","stim/objects/Instruments/hihat2.png",189,61,189,0.9,"stim/24.jpeg",2,4,3,NA,"Instruments",1,2,"left","left",0.49600029,1,1,0,1,NA,NA,NA,NA,NA,NA,NA,NA,NA,NA,NA,NA,NA,NA,NA,NA,NA,NA,NA,NA,NA,NA,NA,NA
"215","stim/objects/Instruments/harmonica2.png",190,61,190,0.9,"stim/22.jpeg",2,2,3,NA,"Instruments",1,3,"left","right",0.434000254,0,0,0,1,NA,NA,NA,NA,NA,NA,NA,NA,NA,NA,NA,NA,NA,NA,NA,NA,NA,NA,NA,NA,NA,NA,NA,NA
"227","stim/objects/Instruments/harp2.png",191,61,191,0.9,"stim/23.jpeg",2,3,3,NA,"Instruments",1,4,"left","left",0.38499999,1,1,0,1,NA,NA,NA,NA,NA,NA,NA,NA,NA,NA,NA,NA,NA,NA,NA,NA,NA,NA,NA,NA,NA,NA,NA,NA
"28","stim/objects/HouseObjects/doormat.png",192,61,192,0.5,"stim/34.jpeg",3,4,1,NA,"HouseObjects",2,1,"right","left",0.800000191,0,0,0,1,NA,NA,NA,NA,NA,NA,NA,NA,NA,NA,NA,NA,NA,NA,NA,NA,NA,NA,NA,NA,NA,NA,NA,NA
"86","stim/objects/HouseObjects/glass2.png",193,61,193,0.9,"stim/14.jpeg",1,4,3,NA,"HouseObjects",2,3,"right","right",0.502000332,1,1,0,1,NA,NA,NA,NA,NA,NA,NA,NA,NA,NA,NA,NA,NA,NA,NA,NA,NA,NA,NA,NA,NA,NA,NA,NA
"219","stim/objects/Instruments/harp.png",194,61,194,0.3,"stim/53.jpeg",5,3,2,NA,"Instruments",1,1,"left","right",0.248000145,0,0,0,1,NA,NA,NA,NA,NA,NA,NA,NA,NA,NA,NA,NA,NA,NA,NA,NA,NA,NA,NA,NA,NA,NA,NA,NA
"93","stim/objects/HouseObjects/glassmop.png",195,61,195,0.7,"stim/51.jpeg",5,1,2,NA,"HouseObjects",2,4,"right","right",0.518000126,1,1,0,1,NA,NA,NA,NA,NA,NA,NA,NA,NA,NA,NA,NA,NA,NA,NA,NA,NA,NA,NA,NA,NA,NA,NA,NA
"7","stim/objects/HouseObjects/coffee2.png",196,61,196,0.3,"stim/61.jpeg",6,1,2,NA,"HouseObjects",2,3,"right","left",0.636000156,0,0,0,1,NA,NA,NA,NA,NA,NA,NA,NA,NA,NA,NA,NA,NA,NA,NA,NA,NA,NA,NA,NA,NA,NA,NA,NA
"231","stim/objects/Instruments/hihat.png",197,61,197,0.3,"stim/54.jpeg",5,4,2,NA,"Instruments",1,1,"left","right",0.668000221,0,0,0,1,NA,NA,NA,NA,NA,NA,NA,NA,NA,NA,NA,NA,NA,NA,NA,NA,NA,NA,NA,NA,NA,NA,NA,NA
"104","stim/objects/HouseObjects/hairdryer2.png",198,61,198,0.1,"stim/22.jpeg",2,2,3,NA,"HouseObjects",2,2,"right","left",0.933000088,0,0,0,1,NA,NA,NA,NA,NA,NA,NA,NA,NA,NA,NA,NA,NA,NA,NA,NA,NA,NA,NA,NA,NA,NA,NA,NA
"64","stim/objects/HouseObjects/garbagebin.png",199,61,199,0.5,"stim/43.jpeg",4,3,1,NA,"HouseObjects",2,1,"right","",NA,0,0,0,1,NA,NA,NA,NA,NA,NA,NA,NA,NA,NA,NA,NA,NA,NA,NA,NA,NA,NA,NA,NA,NA,NA,NA,NA
"65","stim/objects/HouseObjects/garbagebin.png",200,61,200,0.5,"stim/43.jpeg",4,3,1,NA,"HouseObjects",2,3,"right","right",0.347000122,1,1,0,1,NA,NA,NA,NA,NA,NA,NA,NA,NA,NA,NA,NA,NA,NA,NA,NA,NA,NA,NA,NA,NA,NA,NA,NA
"87","stim/objects/HouseObjects/glass2.png",201,61,201,0.9,"stim/14.jpeg",1,4,3,NA,"HouseObjects",2,2,"right","right",0.352000237,1,1,0,1,NA,NA,NA,NA,NA,NA,NA,NA,NA,NA,NA,NA,NA,NA,NA,NA,NA,NA,NA,NA,NA,NA,NA,NA
"94","stim/objects/HouseObjects/glassmop.png",202,61,202,0.7,"stim/51.jpeg",5,1,2,NA,"HouseObjects",2,4,"right","right",0.702000141,1,1,0,1,NA,NA,NA,NA,NA,NA,NA,NA,NA,NA,NA,NA,NA,NA,NA,NA,NA,NA,NA,NA,NA,NA,NA,NA
"24","stim/objects/HouseObjects/dishsoap2.png",203,61,203,0.3,"stim/63.jpeg",6,3,2,NA,"HouseObjects",2,4,"right","left",0.46200037,0,0,0,1,NA,NA,NA,NA,NA,NA,NA,NA,NA,NA,NA,NA,NA,NA,NA,NA,NA,NA,NA,NA,NA,NA,NA,NA
"228","stim/objects/Instruments/harp2.png",204,61,204,0.9,"stim/23.jpeg",2,3,3,NA,"Instruments",1,3,"left","left",0.545000076,1,1,0,1,NA,NA,NA,NA,NA,NA,NA,NA,NA,NA,NA,NA,NA,NA,NA,NA,NA,NA,NA,NA,NA,NA,NA,NA
"156","stim/objects/Instruments/electricguitar2.png",205,61,205,0.7,"stim/63.jpeg",6,3,2,NA,"Instruments",1,2,"left","left",0.484000206,1,1,0,1,NA,NA,NA,NA,NA,NA,NA,NA,NA,NA,NA,NA,NA,NA,NA,NA,NA,NA,NA,NA,NA,NA,NA,NA
"16","stim/objects/HouseObjects/cushion2.png",206,61,206,0.3,"stim/62.jpeg",6,2,2,NA,"HouseObjects",2,1,"right","right",0.54700017,1,1,0,1,NA,NA,NA,NA,NA,NA,NA,NA,NA,NA,NA,NA,NA,NA,NA,NA,NA,NA,NA,NA,NA,NA,NA,NA
"72","stim/objects/HouseObjects/garbagebin2.png",207,61,207,0.9,"stim/13.jpeg",1,3,3,NA,"HouseObjects",2,3,"right","left",0.429000139,0,0,0,1,NA,NA,NA,NA,NA,NA,NA,NA,NA,NA,NA,NA,NA,NA,NA,NA,NA,NA,NA,NA,NA,NA,NA,NA
"112","stim/objects/HouseObjects/handbrush2.png",208,61,208,0.1,"stim/23.jpeg",2,3,3,NA,"HouseObjects",2,4,"right","left",0.342000246,0,0,0,1,NA,NA,NA,NA,NA,NA,NA,NA,NA,NA,NA,NA,NA,NA,NA,NA,NA,NA,NA,NA,NA,NA,NA,NA
"37","stim/objects/HouseObjects/dustpan.png",209,61,209,0.5,"stim/41.jpeg",4,1,1,NA,"HouseObjects",2,1,"right","right",0.434000015,1,1,0,1,NA,NA,NA,NA,NA,NA,NA,NA,NA,NA,NA,NA,NA,NA,NA,NA,NA,NA,NA,NA,NA,NA,NA,NA
"148","stim/objects/Instruments/electricguitar.png",210,61,210,0.5,"stim/33.jpeg",3,3,1,NA,"Instruments",1,1,"left","right",0.301000357,0,0,0,1,NA,NA,NA,NA,NA,NA,NA,NA,NA,NA,NA,NA,NA,NA,NA,NA,NA,NA,NA,NA,NA,NA,NA,NA
"73","stim/objects/HouseObjects/garbagebin2.png",211,61,211,0.9,"stim/13.jpeg",1,3,3,NA,"HouseObjects",2,2,"right","left",0.710000038,0,0,0,1,NA,NA,NA,NA,NA,NA,NA,NA,NA,NA,NA,NA,NA,NA,NA,NA,NA,NA,NA,NA,NA,NA,NA,NA
"179","stim/objects/Instruments/frenchhorn.png",212,61,212,0.5,"stim/42.jpeg",4,2,1,NA,"Instruments",1,4,"left","right",0.502000093,0,0,0,1,NA,NA,NA,NA,NA,NA,NA,NA,NA,NA,NA,NA,NA,NA,NA,NA,NA,NA,NA,NA,NA,NA,NA,NA
"174","stim/objects/Instruments/flutetrans2.png",213,61,213,0.1,"stim/11.jpeg",1,1,3,NA,"Instruments",1,3,"left","right",0.549000263,0,0,0,1,NA,NA,NA,NA,NA,NA,NA,NA,NA,NA,NA,NA,NA,NA,NA,NA,NA,NA,NA,NA,NA,NA,NA,NA
"192","stim/objects/Instruments/grandpiano2.png",214,61,214,0.1,"stim/14.jpeg",1,4,3,NA,"Instruments",1,2,"left","right",0.320000172,0,0,0,1,NA,NA,NA,NA,NA,NA,NA,NA,NA,NA,NA,NA,NA,NA,NA,NA,NA,NA,NA,NA,NA,NA,NA,NA
"216","stim/objects/Instruments/harmonica2.png",215,61,215,0.9,"stim/22.jpeg",2,2,3,NA,"Instruments",1,4,"left","right",0.460999966,0,0,0,1,NA,NA,NA,NA,NA,NA,NA,NA,NA,NA,NA,NA,NA,NA,NA,NA,NA,NA,NA,NA,NA,NA,NA,NA
"45","stim/objects/HouseObjects/dustpan2.png",216,61,216,0.9,"stim/11.jpeg",1,1,3,NA,"HouseObjects",2,2,"right","left",0.441000223,0,0,0,1,NA,NA,NA,NA,NA,NA,NA,NA,NA,NA,NA,NA,NA,NA,NA,NA,NA,NA,NA,NA,NA,NA,NA,NA
"103","stim/objects/HouseObjects/hairdryer.png",217,61,217,0.7,"stim/52.jpeg",5,2,2,NA,"HouseObjects",2,2,"right","right",0.2900002,1,1,0,1,NA,NA,NA,NA,NA,NA,NA,NA,NA,NA,NA,NA,NA,NA,NA,NA,NA,NA,NA,NA,NA,NA,NA,NA
"74","stim/objects/HouseObjects/garbagebin2.png",218,61,218,0.9,"stim/13.jpeg",1,3,3,NA,"HouseObjects",2,4,"right","right",0.19900012,1,1,0,1,NA,NA,NA,NA,NA,NA,NA,NA,NA,NA,NA,NA,NA,NA,NA,NA,NA,NA,NA,NA,NA,NA,NA,NA
"111","stim/objects/HouseObjects/handbrush.png",219,61,219,0.7,"stim/53.jpeg",5,3,2,NA,"HouseObjects",2,3,"right","right",0.660000086,1,1,0,1,NA,NA,NA,NA,NA,NA,NA,NA,NA,NA,NA,NA,NA,NA,NA,NA,NA,NA,NA,NA,NA,NA,NA,NA
"191","stim/objects/Instruments/grandpiano.png",220,61,220,0.5,"stim/44.jpeg",4,4,1,NA,"Instruments",1,3,"left","right",0.771000147,0,0,0,1,NA,NA,NA,NA,NA,NA,NA,NA,NA,NA,NA,NA,NA,NA,NA,NA,NA,NA,NA,NA,NA,NA,NA,NA
"13","stim/objects/HouseObjects/cushion.png",221,61,221,0.5,"stim/32.jpeg",3,2,1,NA,"HouseObjects",2,3,"right","left",0.653000355,0,0,0,1,NA,NA,NA,NA,NA,NA,NA,NA,NA,NA,NA,NA,NA,NA,NA,NA,NA,NA,NA,NA,NA,NA,NA,NA
"149","stim/objects/Instruments/electricguitar.png",222,61,222,0.5,"stim/33.jpeg",3,3,1,NA,"Instruments",1,4,"left","right",0.276000023,0,0,0,1,NA,NA,NA,NA,NA,NA,NA,NA,NA,NA,NA,NA,NA,NA,NA,NA,NA,NA,NA,NA,NA,NA,NA,NA
"167","stim/objects/Instruments/flute2.png",223,61,223,0.7,"stim/64.jpeg",6,4,2,NA,"Instruments",1,2,"left","left",0.378000259,1,1,0,1,NA,NA,NA,NA,NA,NA,NA,NA,NA,NA,NA,NA,NA,NA,NA,NA,NA,NA,NA,NA,NA,NA,NA,NA
"202","stim/objects/Instruments/guitarcase2.png",224,61,224,0.9,"stim/21.jpeg",2,1,3,NA,"Instruments",1,2,"left","left",0.494000196,1,1,0,1,NA,NA,NA,NA,NA,NA,NA,NA,NA,NA,NA,NA,NA,NA,NA,NA,NA,NA,NA,NA,NA,NA,NA,NA
"207","stim/objects/Instruments/harmonica.png",225,61,225,0.3,"stim/52.jpeg",5,2,2,NA,"Instruments",1,1,"left","left",0.519000292,1,1,0,1,NA,NA,NA,NA,NA,NA,NA,NA,NA,NA,NA,NA,NA,NA,NA,NA,NA,NA,NA,NA,NA,NA,NA,NA
"8","stim/objects/HouseObjects/coffee2.png",226,61,226,0.3,"stim/61.jpeg",6,1,2,NA,"HouseObjects",2,2,"right","left",0.595000029,0,0,0,1,NA,NA,NA,NA,NA,NA,NA,NA,NA,NA,NA,NA,NA,NA,NA,NA,NA,NA,NA,NA,NA,NA,NA,NA
"125","stim/objects/Instruments/drums.png",227,61,227,0.5,"stim/31.jpeg",3,1,1,NA,"Instruments",1,2,"left","left",0.450000048,1,1,0,1,NA,NA,NA,NA,NA,NA,NA,NA,NA,NA,NA,NA,NA,NA,NA,NA,NA,NA,NA,NA,NA,NA,NA,NA
"137","stim/objects/Instruments/electricdrumset.png",228,61,228,0.5,"stim/32.jpeg",3,2,1,NA,"Instruments",1,3,"left","left",0.654000044,1,1,0,1,NA,NA,NA,NA,NA,NA,NA,NA,NA,NA,NA,NA,NA,NA,NA,NA,NA,NA,NA,NA,NA,NA,NA,NA
"203","stim/objects/Instruments/guitarcase2.png",229,61,229,0.9,"stim/21.jpeg",2,1,3,NA,"Instruments",1,4,"left","left",0.59400034,1,1,0,1,NA,NA,NA,NA,NA,NA,NA,NA,NA,NA,NA,NA,NA,NA,NA,NA,NA,NA,NA,NA,NA,NA,NA,NA
"132","stim/objects/Instruments/drums2.png",230,61,230,0.7,"stim/61.jpeg",6,1,2,NA,"Instruments",1,1,"left","left",0.750000238,1,1,0,1,NA,NA,NA,NA,NA,NA,NA,NA,NA,NA,NA,NA,NA,NA,NA,NA,NA,NA,NA,NA,NA,NA,NA,NA
"88","stim/objects/HouseObjects/glass2.png",231,61,231,0.9,"stim/14.jpeg",1,4,3,NA,"HouseObjects",2,4,"right","left",0.53000021,0,0,0,1,NA,NA,NA,NA,NA,NA,NA,NA,NA,NA,NA,NA,NA,NA,NA,NA,NA,NA,NA,NA,NA,NA,NA,NA
"46","stim/objects/HouseObjects/dustpan2.png",232,61,232,0.9,"stim/11.jpeg",1,1,3,NA,"HouseObjects",2,4,"right","right",0.546000004,1,1,0,1,NA,NA,NA,NA,NA,NA,NA,NA,NA,NA,NA,NA,NA,NA,NA,NA,NA,NA,NA,NA,NA,NA,NA,NA
"204","stim/objects/Instruments/guitarcase2.png",233,61,233,0.9,"stim/21.jpeg",2,1,3,NA,"Instruments",1,1,"left","left",0.684000015,1,1,0,1,NA,NA,NA,NA,NA,NA,NA,NA,NA,NA,NA,NA,NA,NA,NA,NA,NA,NA,NA,NA,NA,NA,NA,NA
"168","stim/objects/Instruments/flute2.png",234,61,234,0.7,"stim/64.jpeg",6,4,2,NA,"Instruments",1,1,"left","right",0.535000324,0,0,0,1,NA,NA,NA,NA,NA,NA,NA,NA,NA,NA,NA,NA,NA,NA,NA,NA,NA,NA,NA,NA,NA,NA,NA,NA
"239","stim/objects/Instruments/hihat2.png",235,61,235,0.9,"stim/24.jpeg",2,4,3,NA,"Instruments",1,4,"left","left",0.261000156,1,1,0,1,NA,NA,NA,NA,NA,NA,NA,NA,NA,NA,NA,NA,NA,NA,NA,NA,NA,NA,NA,NA,NA,NA,NA,NA
"185","stim/objects/Instruments/gong.png",236,61,236,0.5,"stim/43.jpeg",4,3,1,NA,"Instruments",1,2,"left","left",0.445000172,1,1,0,1,NA,NA,NA,NA,NA,NA,NA,NA,NA,NA,NA,NA,NA,NA,NA,NA,NA,NA,NA,NA,NA,NA,NA,NA
"29","stim/objects/HouseObjects/doormat.png",237,61,237,0.5,"stim/34.jpeg",3,4,1,NA,"HouseObjects",2,1,"right","left",0.770000219,0,0,0,1,NA,NA,NA,NA,NA,NA,NA,NA,NA,NA,NA,NA,NA,NA,NA,NA,NA,NA,NA,NA,NA,NA,NA,NA
"240","stim/objects/Instruments/hihat2.png",238,61,238,0.9,"stim/24.jpeg",2,4,3,NA,"Instruments",1,3,"left","left",0.419000387,1,1,0,1,NA,NA,NA,NA,NA,NA,NA,NA,NA,NA,NA,NA,NA,NA,NA,NA,NA,NA,NA,NA,NA,NA,NA,NA
"5","stim/objects/HouseObjects/coffee.png",239,61,239,0.5,"stim/31.jpeg",3,1,1,NA,"HouseObjects",2,2,"right","left",0.56400013,0,0,0,1,NA,NA,NA,NA,NA,NA,NA,NA,NA,NA,NA,NA,NA,NA,NA,NA,NA,NA,NA,NA,NA,NA,NA,NA
"95","stim/objects/HouseObjects/glassmop.png",240,61,240,0.7,"stim/51.jpeg",5,1,2,NA,"HouseObjects",2,3,"right","left",0.497000217,0,0,0,1,NA,NA,NA,NA,NA,NA,NA,NA,NA,NA,NA,NA,NA,NA,NA,NA,NA,NA,NA,NA,NA,NA,NA,NA
"291","stim/objects/HouseObjects/knife3.png",248,61,241,0.9,"stim/13.jpeg",1,3,3,2,"HouseObjects",2,4,"right","left",0.634000063,0,0,1,0,NA,NA,NA,NA,NA,NA,NA,NA,NA,NA,NA,NA,NA,NA,NA,NA,NA,NA,NA,NA,NA,NA,NA,NA
"524","stim/objects/Instruments/oboe3.png",249,61,242,0.9,"stim/22.jpeg",2,2,3,2,"Instruments",1,4,"left","",NA,0,0,1,0,NA,NA,NA,NA,NA,NA,NA,NA,NA,NA,NA,NA,NA,NA,NA,NA,NA,NA,NA,NA,NA,NA,NA,NA
"325","stim/objects/HouseObjects/match3.png",250,61,243,0.9,"stim/12.jpeg",1,2,3,2,"HouseObjects",2,1,"right","",NA,0,0,1,0,NA,NA,NA,NA,NA,NA,NA,NA,NA,NA,NA,NA,NA,NA,NA,NA,NA,NA,NA,NA,NA,NA,NA,NA
"490","stim/objects/Instruments/musicsheet3.png",251,61,244,0.9,"stim/22.jpeg",2,2,3,2,"Instruments",1,3,"left","right",0.452000141,0,0,1,0,NA,NA,NA,NA,NA,NA,NA,NA,NA,NA,NA,NA,NA,NA,NA,NA,NA,NA,NA,NA,NA,NA,NA,NA
"287","stim/objects/HouseObjects/key3.png",252,61,245,0.7,"stim/51.jpeg",5,1,2,2,"HouseObjects",2,3,"right","left",0.775000095,0,0,1,0,NA,NA,NA,NA,NA,NA,NA,NA,NA,NA,NA,NA,NA,NA,NA,NA,NA,NA,NA,NA,NA,NA,NA,NA
"491","stim/objects/Instruments/musicsheet3.png",253,61,246,0.9,"stim/24.jpeg",2,4,3,2,"Instruments",1,2,"left","left",0.765000105,1,1,1,0,NA,NA,NA,NA,NA,NA,NA,NA,NA,NA,NA,NA,NA,NA,NA,NA,NA,NA,NA,NA,NA,NA,NA,NA
"440","stim/objects/Instruments/doublebass3.png",254,61,247,0.7,"stim/62.jpeg",6,2,2,2,"Instruments",1,3,"left","left",0.316000223,1,1,1,0,NA,NA,NA,NA,NA,NA,NA,NA,NA,NA,NA,NA,NA,NA,NA,NA,NA,NA,NA,NA,NA,NA,NA,NA
"492","stim/objects/Instruments/musicsheet3.png",255,61,248,0.9,"stim/24.jpeg",2,4,3,2,"Instruments",1,1,"left","left",0.264000177,1,1,1,0,NA,NA,NA,NA,NA,NA,NA,NA,NA,NA,NA,NA,NA,NA,NA,NA,NA,NA,NA,NA,NA,NA,NA,NA
"342","stim/objects/HouseObjects/pan3.png",256,61,249,0.9,"stim/14.jpeg",1,4,3,2,"HouseObjects",2,3,"right","right",0.539000273,1,1,1,0,NA,NA,NA,NA,NA,NA,NA,NA,NA,NA,NA,NA,NA,NA,NA,NA,NA,NA,NA,NA,NA,NA,NA,NA
"417","stim/objects/Instruments/banjo4.png",257,61,250,0.3,"stim/51.jpeg",5,1,2,1,"Instruments",1,3,"left","left",0.310000181,1,1,1,0,118,61,1,0.3,1,"stim/51.jpeg",5,1,"stim/51.jpeg",3,"left",2.812999964,2,2,0.342999935,2,0.22300005,118,1,0,0,0,0,0
"567","stim/objects/Instruments/vuvuzela3.png",258,61,251,0.3,"stim/54.jpeg",5,4,2,1,"Instruments",1,4,"left","right",0.366000175,0,0,1,0,42,61,1,0.3,1,"stim/54.jpeg",5,4,"stim/54.jpeg",4,"right",1.872999907,2,2,0.378999949,2,0.280999899,42,0,0,NA,0,NA,0
"327","stim/objects/HouseObjects/match3.png",259,61,252,0.9,"stim/11.jpeg",1,1,3,2,"HouseObjects",2,2,"right","left",0.24600029,0,0,1,0,NA,NA,NA,NA,NA,NA,NA,NA,NA,NA,NA,NA,NA,NA,NA,NA,NA,NA,NA,NA,NA,NA,NA,NA
"309","stim/objects/HouseObjects/lintroller3.png",260,61,253,0.9,"stim/14.jpeg",1,4,3,2,"HouseObjects",2,2,"right","right",0.802000284,1,1,1,0,NA,NA,NA,NA,NA,NA,NA,NA,NA,NA,NA,NA,NA,NA,NA,NA,NA,NA,NA,NA,NA,NA,NA,NA
"380","stim/objects/HouseObjects/rubbergloves3.png",261,61,254,0.5,"stim/34.jpeg",3,4,1,1,"HouseObjects",2,3,"right","left",0.460000277,0,0,1,0,124,61,1,0.5,1,"stim/34.jpeg",3,4,"stim/34.jpeg",3,"right",1.608999968,2,3,0.598999977,2,0.297999859,124,0,0,NA,0,NA,0
"292","stim/objects/HouseObjects/knife3.png",262,61,255,0.9,"stim/11.jpeg",1,1,3,2,"HouseObjects",2,3,"right","right",0.694000006,1,1,1,0,NA,NA,NA,NA,NA,NA,NA,NA,NA,NA,NA,NA,NA,NA,NA,NA,NA,NA,NA,NA,NA,NA,NA,NA
"456","stim/objects/Instruments/marimba3.png",263,61,256,0.9,"stim/21.jpeg",2,1,3,2,"Instruments",1,2,"left","left",0.570000172,1,1,1,0,NA,NA,NA,NA,NA,NA,NA,NA,NA,NA,NA,NA,NA,NA,NA,NA,NA,NA,NA,NA,NA,NA,NA,NA
"256","stim/objects/HouseObjects/blender3.png",264,61,257,0.5,"stim/42.jpeg",4,2,1,2,"HouseObjects",2,1,"right","right",0.245000124,1,1,1,0,NA,NA,NA,NA,NA,NA,NA,NA,NA,NA,NA,NA,NA,NA,NA,NA,NA,NA,NA,NA,NA,NA,NA,NA
"412","stim/objects/Instruments/balalaika3.png",265,61,258,0.5,"stim/33.jpeg",3,3,1,2,"Instruments",1,2,"left","left",0.244000196,1,1,1,0,NA,NA,NA,NA,NA,NA,NA,NA,NA,NA,NA,NA,NA,NA,NA,NA,NA,NA,NA,NA,NA,NA,NA,NA
"525","stim/objects/Instruments/oboe3.png",266,61,259,0.9,"stim/24.jpeg",2,4,3,2,"Instruments",1,4,"left","right",0.362000227,0,0,1,0,NA,NA,NA,NA,NA,NA,NA,NA,NA,NA,NA,NA,NA,NA,NA,NA,NA,NA,NA,NA,NA,NA,NA,NA
"293","stim/objects/HouseObjects/knife3.png",267,61,260,0.9,"stim/12.jpeg",1,2,3,2,"HouseObjects",2,2,"right","right",0.602000237,1,1,1,0,NA,NA,NA,NA,NA,NA,NA,NA,NA,NA,NA,NA,NA,NA,NA,NA,NA,NA,NA,NA,NA,NA,NA,NA
"343","stim/objects/HouseObjects/pan3.png",268,61,261,0.9,"stim/11.jpeg",1,1,3,2,"HouseObjects",2,1,"right","right",0.683000088,1,1,1,0,NA,NA,NA,NA,NA,NA,NA,NA,NA,NA,NA,NA,NA,NA,NA,NA,NA,NA,NA,NA,NA,NA,NA,NA
"436","stim/objects/Instruments/cymbal3.png",269,61,262,0.7,"stim/61.jpeg",6,1,2,2,"Instruments",1,4,"left","left",0.7900002,1,1,1,0,NA,NA,NA,NA,NA,NA,NA,NA,NA,NA,NA,NA,NA,NA,NA,NA,NA,NA,NA,NA,NA,NA,NA,NA
"451","stim/objects/Instruments/laud4.png",270,61,263,0.7,"stim/64.jpeg",6,4,2,1,"Instruments",1,2,"left","left",0.253000021,1,1,1,0,141,61,1,0.7,1,"stim/64.jpeg",6,4,"stim/64.jpeg",2,"left",4.023000002,4,1,0.448999882,1,0.546000004,141,1,0,0,0,0,0
"443","stim/objects/Instruments/doublebass4.png",271,61,264,0.7,"stim/62.jpeg",6,2,2,1,"Instruments",1,3,"left","right",0.26699996,0,0,1,0,83,61,1,0.7,1,"stim/62.jpeg",6,2,"stim/62.jpeg",3,"left",0.695999861,2,2,0.47699976,2,0.189999819,83,1,1,1,0,0,0
"415","stim/objects/Instruments/banjo3.png",272,61,265,0.5,"stim/31.jpeg",3,1,1,2,"Instruments",1,1,"left","left",0.802000046,1,1,1,0,NA,NA,NA,NA,NA,NA,NA,NA,NA,NA,NA,NA,NA,NA,NA,NA,NA,NA,NA,NA,NA,NA,NA,NA
"507","stim/objects/Instruments/musicstand3.png",273,61,266,0.9,"stim/21.jpeg",2,1,3,2,"Instruments",1,2,"left","left",0.678000212,1,1,1,0,NA,NA,NA,NA,NA,NA,NA,NA,NA,NA,NA,NA,NA,NA,NA,NA,NA,NA,NA,NA,NA,NA,NA,NA
"426","stim/objects/Instruments/cello4.png",274,61,267,0.7,"stim/61.jpeg",6,1,2,1,"Instruments",1,4,"left","left",0.496000051,1,1,1,0,156,61,1,0.7,1,"stim/61.jpeg",6,1,"stim/61.jpeg",4,"right",0.648999929,2,2,0.230000019,2,0.180000067,156,0,0,NA,0,NA,0
"546","stim/objects/Instruments/record_player4.png",275,61,268,0.1,"stim/11.jpeg",1,1,3,1,"Instruments",1,1,"left","right",0.243000031,0,0,1,0,176,61,1,0.1,1,"stim/11.jpeg",1,1,"stim/11.jpeg",1,"left",1.64199996,3,3,0.450000048,3,0.180999994,176,1,0,0,0,0,0
"414","stim/objects/Instruments/balalaika4.png",276,61,269,0.3,"stim/54.jpeg",5,4,2,1,"Instruments",1,4,"left","left",0.328000307,1,1,1,0,115,61,1,0.3,1,"stim/54.jpeg",5,4,"stim/54.jpeg",4,"right",2.072999954,3,3,0.463000059,3,0.285999775,115,0,0,NA,0,NA,0
"359","stim/objects/HouseObjects/pitcher3.png",277,61,270,0.9,"stim/14.jpeg",1,4,3,2,"HouseObjects",2,2,"right","right",0.42200017,1,1,1,0,NA,NA,NA,NA,NA,NA,NA,NA,NA,NA,NA,NA,NA,NA,NA,NA,NA,NA,NA,NA,NA,NA,NA,NA
"360","stim/objects/HouseObjects/pitcher3.png",278,61,271,0.9,"stim/11.jpeg",1,1,3,2,"HouseObjects",2,2,"right","right",0.119000196,1,1,1,0,NA,NA,NA,NA,NA,NA,NA,NA,NA,NA,NA,NA,NA,NA,NA,NA,NA,NA,NA,NA,NA,NA,NA,NA
"434","stim/objects/Instruments/cornet3.png",279,61,272,0.5,"stim/44.jpeg",4,4,1,2,"Instruments",1,4,"left","right",0.736999989,0,0,1,0,NA,NA,NA,NA,NA,NA,NA,NA,NA,NA,NA,NA,NA,NA,NA,NA,NA,NA,NA,NA,NA,NA,NA,NA
"561","stim/objects/Instruments/trumpet3.png",280,61,273,0.3,"stim/51.jpeg",5,1,2,1,"Instruments",1,2,"left","",NA,0,0,1,0,16,61,1,0.3,1,"stim/51.jpeg",5,1,"stim/51.jpeg",2,"left",1.722999811,3,2,0.94299984,2,1.371999979,16,1,0,0,1,1,0
"473","stim/objects/Instruments/metronome3.png",281,61,274,0.9,"stim/22.jpeg",2,2,3,2,"Instruments",1,4,"left","left",0.313000202,1,1,1,0,NA,NA,NA,NA,NA,NA,NA,NA,NA,NA,NA,NA,NA,NA,NA,NA,NA,NA,NA,NA,NA,NA,NA,NA
"556","stim/objects/Instruments/timbal4.png",282,61,275,0.9,"stim/23.jpeg",2,3,3,1,"Instruments",1,1,"left","right",0.832000256,0,0,1,0,12,61,1,0.9,1,"stim/23.jpeg",2,3,"stim/23.jpeg",1,"left",2.128999949,2,3,1.328999996,1,1.407000065,12,1,1,1,1,1,0
"361","stim/objects/HouseObjects/pitcher3.png",283,61,276,0.9,"stim/14.jpeg",1,4,3,2,"HouseObjects",2,1,"right","left",0.762000084,0,0,1,0,NA,NA,NA,NA,NA,NA,NA,NA,NA,NA,NA,NA,NA,NA,NA,NA,NA,NA,NA,NA,NA,NA,NA,NA
"409","stim/objects/Instruments/acousticguitar3.png",284,61,277,0.5,"stim/33.jpeg",3,3,1,2,"Instruments",1,1,"left","right",0.585000277,0,0,1,0,NA,NA,NA,NA,NA,NA,NA,NA,NA,NA,NA,NA,NA,NA,NA,NA,NA,NA,NA,NA,NA,NA,NA,NA
"307","stim/objects/HouseObjects/knife4.png",285,61,278,0.9,"stim/13.jpeg",1,3,3,1,"HouseObjects",2,2,"right","right",0.304000139,1,1,1,0,37,61,1,0.9,2,"stim/13.jpeg",1,3,"stim/13.jpeg",2,"right",1.313999891,2,2,0.296000004,2,0.296999931,37,0,0,NA,1,NA,0
"408","stim/objects/Instruments/accordion4.png",286,61,279,0.3,"stim/52.jpeg",5,2,2,1,"Instruments",1,1,"left","right",0.490000248,0,0,1,0,44,61,1,0.3,1,"stim/52.jpeg",5,2,"stim/52.jpeg",1,"left",2.08100009,4,3,0.677999973,3,0.23300004,44,1,0,0,0,0,0
"541","stim/objects/Instruments/panflute3.png",287,61,280,0.5,"stim/33.jpeg",3,3,1,1,"Instruments",1,2,"left","right",0.747000217,0,0,1,0,38,61,1,0.5,1,"stim/33.jpeg",3,3,"stim/33.jpeg",2,"left",1.379999876,4,3,0.815999985,3,0.710000038,38,1,1,1,0,0,0
"250","stim/objects/HouseObjects/basket3.png",288,61,281,0.5,"stim/33.jpeg",3,3,1,2,"HouseObjects",2,4,"right","right",0.375,1,1,1,0,NA,NA,NA,NA,NA,NA,NA,NA,NA,NA,NA,NA,NA,NA,NA,NA,NA,NA,NA,NA,NA,NA,NA,NA
"295","stim/objects/HouseObjects/knife3.png",289,61,282,0.9,"stim/12.jpeg",1,2,3,2,"HouseObjects",2,1,"right","right",0.420000315,1,1,1,0,NA,NA,NA,NA,NA,NA,NA,NA,NA,NA,NA,NA,NA,NA,NA,NA,NA,NA,NA,NA,NA,NA,NA,NA
"474","stim/objects/Instruments/metronome3.png",290,61,283,0.9,"stim/23.jpeg",2,3,3,2,"Instruments",1,3,"left","right",0.783000231,0,0,1,0,NA,NA,NA,NA,NA,NA,NA,NA,NA,NA,NA,NA,NA,NA,NA,NA,NA,NA,NA,NA,NA,NA,NA,NA
"489","stim/objects/Instruments/metronome4.png",291,61,284,0.1,"stim/12.jpeg",1,2,3,1,"Instruments",1,4,"left","right",0.728000164,0,0,1,0,18,61,1,0.1,1,"stim/12.jpeg",1,2,"stim/12.jpeg",4,"right",2.333999872,3,2,0.801000118,2,0.615999937,18,0,1,NA,0,NA,0
"271","stim/objects/HouseObjects/clothesdryingrack3.png",292,61,285,0.7,"stim/54.jpeg",5,4,2,2,"HouseObjects",2,1,"right","right",0.629000187,1,1,1,0,NA,NA,NA,NA,NA,NA,NA,NA,NA,NA,NA,NA,NA,NA,NA,NA,NA,NA,NA,NA,NA,NA,NA,NA
"511","stim/objects/Instruments/musicstand3.png",293,61,286,0.9,"stim/23.jpeg",2,3,3,2,"Instruments",1,1,"left","left",0.412000179,1,1,1,0,NA,NA,NA,NA,NA,NA,NA,NA,NA,NA,NA,NA,NA,NA,NA,NA,NA,NA,NA,NA,NA,NA,NA,NA
"268","stim/objects/HouseObjects/clock3.png",294,61,287,0.5,"stim/43.jpeg",4,3,1,2,"HouseObjects",2,1,"right","right",0.524000168,1,1,1,0,NA,NA,NA,NA,NA,NA,NA,NA,NA,NA,NA,NA,NA,NA,NA,NA,NA,NA,NA,NA,NA,NA,NA,NA
"459","stim/objects/Instruments/marimba3.png",295,61,288,0.9,"stim/24.jpeg",2,4,3,2,"Instruments",1,1,"left","left",0.282000065,1,1,1,0,NA,NA,NA,NA,NA,NA,NA,NA,NA,NA,NA,NA,NA,NA,NA,NA,NA,NA,NA,NA,NA,NA,NA,NA
"475","stim/objects/Instruments/metronome3.png",296,61,289,0.9,"stim/24.jpeg",2,4,3,2,"Instruments",1,3,"left","left",0.377000093,1,1,1,0,NA,NA,NA,NA,NA,NA,NA,NA,NA,NA,NA,NA,NA,NA,NA,NA,NA,NA,NA,NA,NA,NA,NA,NA
"241","stim/objects/HouseObjects/ashtray3.png",297,61,290,0.5,"stim/31.jpeg",3,1,1,2,"HouseObjects",2,4,"right","right",0.520000219,1,1,1,0,NA,NA,NA,NA,NA,NA,NA,NA,NA,NA,NA,NA,NA,NA,NA,NA,NA,NA,NA,NA,NA,NA,NA,NA
"460","stim/objects/Instruments/marimba3.png",298,61,291,0.9,"stim/22.jpeg",2,2,3,2,"Instruments",1,2,"left","left",0.393000126,1,1,1,0,NA,NA,NA,NA,NA,NA,NA,NA,NA,NA,NA,NA,NA,NA,NA,NA,NA,NA,NA,NA,NA,NA,NA,NA
"312","stim/objects/HouseObjects/lintroller3.png",299,61,292,0.9,"stim/13.jpeg",1,3,3,2,"HouseObjects",2,3,"right","left",0.252000093,0,0,1,0,NA,NA,NA,NA,NA,NA,NA,NA,NA,NA,NA,NA,NA,NA,NA,NA,NA,NA,NA,NA,NA,NA,NA,NA
"441","stim/objects/Instruments/doublebass3.png",300,61,293,0.7,"stim/64.jpeg",6,4,2,2,"Instruments",1,3,"left","right",0.195000172,0,0,1,0,NA,NA,NA,NA,NA,NA,NA,NA,NA,NA,NA,NA,NA,NA,NA,NA,NA,NA,NA,NA,NA,NA,NA,NA
"542","stim/objects/Instruments/panflute4.png",301,61,294,0.1,"stim/12.jpeg",1,2,3,1,"Instruments",1,3,"left","right",0.161000252,0,0,1,0,111,61,1,0.1,1,"stim/12.jpeg",1,2,"stim/12.jpeg",3,"left",0.461999893,2,2,0.230000019,2,0.849999905,111,1,1,1,0,0,0
"545","stim/objects/Instruments/record_player3.png",302,61,295,0.5,"stim/32.jpeg",3,2,1,1,"Instruments",1,1,"left","left",0.249000311,1,1,1,0,145,61,1,0.5,1,"stim/32.jpeg",3,2,"stim/32.jpeg",1,"right",2.040999889,2,2,0.381000042,2,0.197999954,145,0,1,NA,0,NA,0
"437","stim/objects/Instruments/cymbal3.png",303,61,296,0.7,"stim/63.jpeg",6,3,2,2,"Instruments",1,1,"left","right",0.277000189,0,0,1,0,NA,NA,NA,NA,NA,NA,NA,NA,NA,NA,NA,NA,NA,NA,NA,NA,NA,NA,NA,NA,NA,NA,NA,NA
"297","stim/objects/HouseObjects/knife3.png",304,61,297,0.9,"stim/13.jpeg",1,3,3,2,"HouseObjects",2,2,"right","left",0.002000093,0,0,1,0,NA,NA,NA,NA,NA,NA,NA,NA,NA,NA,NA,NA,NA,NA,NA,NA,NA,NA,NA,NA,NA,NA,NA,NA
"512","stim/objects/Instruments/musicstand3.png",305,61,298,0.9,"stim/21.jpeg",2,1,3,2,"Instruments",1,2,"left","right",0.418000221,0,0,1,0,NA,NA,NA,NA,NA,NA,NA,NA,NA,NA,NA,NA,NA,NA,NA,NA,NA,NA,NA,NA,NA,NA,NA,NA
"432","stim/objects/Instruments/clarinet4.png",306,61,299,0.7,"stim/63.jpeg",6,3,2,1,"Instruments",1,4,"left","left",0.381000042,1,1,1,0,41,61,1,0.7,1,"stim/63.jpeg",6,3,"stim/63.jpeg",4,"left",1.02699995,4,3,2.15199995,3,0.473999977,41,1,1,1,0,0,0
"526","stim/objects/Instruments/oboe3.png",307,61,300,0.9,"stim/23.jpeg",2,3,3,2,"Instruments",1,3,"left","left",0.289000034,1,1,1,0,NA,NA,NA,NA,NA,NA,NA,NA,NA,NA,NA,NA,NA,NA,NA,NA,NA,NA,NA,NA,NA,NA,NA,NA
"527","stim/objects/Instruments/oboe3.png",308,61,301,0.9,"stim/21.jpeg",2,1,3,2,"Instruments",1,1,"left","left",0.537000179,1,1,1,0,NA,NA,NA,NA,NA,NA,NA,NA,NA,NA,NA,NA,NA,NA,NA,NA,NA,NA,NA,NA,NA,NA,NA,NA
"461","stim/objects/Instruments/marimba3.png",309,61,302,0.9,"stim/24.jpeg",2,4,3,2,"Instruments",1,4,"left","right",0.295000076,0,0,1,0,NA,NA,NA,NA,NA,NA,NA,NA,NA,NA,NA,NA,NA,NA,NA,NA,NA,NA,NA,NA,NA,NA,NA,NA
"246","stim/objects/HouseObjects/ballofstring4.png",310,61,303,0.7,"stim/54.jpeg",5,4,2,1,"HouseObjects",2,3,"right","right",0.654000044,1,1,1,0,193,61,1,0.7,2,"stim/54.jpeg",5,4,"stim/54.jpeg",3,"left",0.880999804,2,2,0.376999855,2,0.181999922,193,1,0,0,0,0,0
"493","stim/objects/Instruments/musicsheet3.png",311,61,304,0.9,"stim/23.jpeg",2,3,3,2,"Instruments",1,1,"left","right",0.392000198,0,0,1,0,NA,NA,NA,NA,NA,NA,NA,NA,NA,NA,NA,NA,NA,NA,NA,NA,NA,NA,NA,NA,NA,NA,NA,NA
"424","stim/objects/Instruments/cello3.png",312,61,305,0.5,"stim/41.jpeg",4,1,1,2,"Instruments",1,4,"left","left",0.494000196,1,1,1,0,NA,NA,NA,NA,NA,NA,NA,NA,NA,NA,NA,NA,NA,NA,NA,NA,NA,NA,NA,NA,NA,NA,NA,NA
"528","stim/objects/Instruments/oboe3.png",313,61,306,0.9,"stim/22.jpeg",2,2,3,2,"Instruments",1,4,"left","left",0.552000046,1,1,1,0,NA,NA,NA,NA,NA,NA,NA,NA,NA,NA,NA,NA,NA,NA,NA,NA,NA,NA,NA,NA,NA,NA,NA,NA
"267","stim/objects/HouseObjects/bucket4.png",314,61,307,0.3,"stim/61.jpeg",6,1,2,1,"HouseObjects",2,3,"right","left",0.818000078,0,0,1,0,97,61,1,0.3,2,"stim/61.jpeg",6,1,"stim/61.jpeg",3,"left",1.046999931,2,2,0.350999832,2,0.199999809,97,1,0,0,0,0,0
"344","stim/objects/HouseObjects/pan3.png",315,61,308,0.9,"stim/12.jpeg",1,2,3,2,"HouseObjects",2,4,"right","left",0.411000252,0,0,1,0,NA,NA,NA,NA,NA,NA,NA,NA,NA,NA,NA,NA,NA,NA,NA,NA,NA,NA,NA,NA,NA,NA,NA,NA
"462","stim/objects/Instruments/marimba3.png",316,61,309,0.9,"stim/23.jpeg",2,3,3,2,"Instruments",1,2,"left","left",0.812000275,1,1,1,0,NA,NA,NA,NA,NA,NA,NA,NA,NA,NA,NA,NA,NA,NA,NA,NA,NA,NA,NA,NA,NA,NA,NA,NA
"476","stim/objects/Instruments/metronome3.png",317,61,310,0.9,"stim/21.jpeg",2,1,3,2,"Instruments",1,3,"left","left",0.744000196,1,1,1,0,NA,NA,NA,NA,NA,NA,NA,NA,NA,NA,NA,NA,NA,NA,NA,NA,NA,NA,NA,NA,NA,NA,NA,NA
"362","stim/objects/HouseObjects/pitcher3.png",318,61,311,0.9,"stim/13.jpeg",1,3,3,2,"HouseObjects",2,2,"right","right",0.861999989,1,1,1,0,NA,NA,NA,NA,NA,NA,NA,NA,NA,NA,NA,NA,NA,NA,NA,NA,NA,NA,NA,NA,NA,NA,NA,NA
"275","stim/objects/HouseObjects/clothespin3.png",319,61,312,0.7,"stim/51.jpeg",5,1,2,2,"HouseObjects",2,2,"right","right",0.434999943,1,1,1,0,NA,NA,NA,NA,NA,NA,NA,NA,NA,NA,NA,NA,NA,NA,NA,NA,NA,NA,NA,NA,NA,NA,NA,NA
"345","stim/objects/HouseObjects/pan3.png",320,61,313,0.9,"stim/12.jpeg",1,2,3,2,"HouseObjects",2,1,"right","right",0.578999996,1,1,1,0,NA,NA,NA,NA,NA,NA,NA,NA,NA,NA,NA,NA,NA,NA,NA,NA,NA,NA,NA,NA,NA,NA,NA,NA
"444","stim/objects/Instruments/keyboard3.png",321,61,314,0.7,"stim/63.jpeg",6,3,2,2,"Instruments",1,2,"left","left",0.698000193,1,1,1,0,NA,NA,NA,NA,NA,NA,NA,NA,NA,NA,NA,NA,NA,NA,NA,NA,NA,NA,NA,NA,NA,NA,NA,NA
"494","stim/objects/Instruments/musicsheet3.png",322,61,315,0.9,"stim/22.jpeg",2,2,3,2,"Instruments",1,4,"left","left",0.150000334,1,1,1,0,NA,NA,NA,NA,NA,NA,NA,NA,NA,NA,NA,NA,NA,NA,NA,NA,NA,NA,NA,NA,NA,NA,NA,NA
"477","stim/objects/Instruments/metronome3.png",323,61,316,0.9,"stim/24.jpeg",2,4,3,2,"Instruments",1,1,"left","right",0.245000124,0,0,1,0,NA,NA,NA,NA,NA,NA,NA,NA,NA,NA,NA,NA,NA,NA,NA,NA,NA,NA,NA,NA,NA,NA,NA,NA
"274","stim/objects/HouseObjects/clothesdryingrack4.png",324,61,317,0.3,"stim/63.jpeg",6,3,2,1,"HouseObjects",2,3,"right","left",0.585000277,0,0,1,0,165,61,1,0.3,2,"stim/63.jpeg",6,3,"stim/63.jpeg",3,"right",0.994999886,3,3,0.409999847,3,0.203999758,165,0,1,NA,1,NA,0
"547","stim/objects/Instruments/record3.png",325,61,318,0.5,"stim/31.jpeg",3,1,1,1,"Instruments",1,4,"left","",NA,0,0,1,0,189,61,1,0.5,1,"stim/31.jpeg",3,1,"stim/31.jpeg",4,"right",1.17599988,2,2,0.644000053,2,0.146999836,189,0,0,NA,0,NA,0
"565","stim/objects/Instruments/violin3.png",326,61,319,0.3,"stim/53.jpeg",5,3,2,1,"Instruments",1,2,"left","",NA,0,0,1,0,101,61,1,0.3,1,"stim/53.jpeg",5,3,"stim/53.jpeg",2,"left",0.970999956,3,3,0.378999949,3,0.231999874,101,1,1,1,0,0,0
"550","stim/objects/Instruments/saxophone4.png",327,61,320,0.1,"stim/12.jpeg",1,2,3,1,"Instruments",1,4,"left","right",0.769000053,0,0,1,0,179,61,1,0.1,1,"stim/12.jpeg",1,2,"stim/12.jpeg",4,"left",0.861000061,2,2,0.280999899,2,0.187999964,179,1,1,1,0,0,0
"315","stim/objects/HouseObjects/lintroller3.png",328,61,321,0.9,"stim/13.jpeg",1,3,3,2,"HouseObjects",2,4,"right","",NA,0,0,1,0,NA,NA,NA,NA,NA,NA,NA,NA,NA,NA,NA,NA,NA,NA,NA,NA,NA,NA,NA,NA,NA,NA,NA,NA
"298","stim/objects/HouseObjects/knife3.png",329,61,322,0.9,"stim/11.jpeg",1,1,3,2,"HouseObjects",2,4,"right","right",0.467000246,1,1,1,0,NA,NA,NA,NA,NA,NA,NA,NA,NA,NA,NA,NA,NA,NA,NA,NA,NA,NA,NA,NA,NA,NA,NA,NA
"478","stim/objects/Instruments/metronome3.png",330,61,323,0.9,"stim/23.jpeg",2,3,3,2,"Instruments",1,4,"left","right",0.452000141,0,0,1,0,NA,NA,NA,NA,NA,NA,NA,NA,NA,NA,NA,NA,NA,NA,NA,NA,NA,NA,NA,NA,NA,NA,NA,NA
"329","stim/objects/HouseObjects/match3.png",331,61,324,0.9,"stim/14.jpeg",1,4,3,2,"HouseObjects",2,2,"right","",NA,0,0,1,0,NA,NA,NA,NA,NA,NA,NA,NA,NA,NA,NA,NA,NA,NA,NA,NA,NA,NA,NA,NA,NA,NA,NA,NA
"403","stim/objects/HouseObjects/vacuumcleaner4.png",332,61,325,0.1,"stim/23.jpeg",2,3,3,1,"HouseObjects",2,4,"right","right",0.245000124,1,1,1,0,79,61,1,0.1,2,"stim/23.jpeg",2,3,"stim/23.jpeg",4,"left",0.90199995,3,3,0.463999748,1,0.486999989,79,1,1,1,0,0,0
"346","stim/objects/HouseObjects/pan3.png",333,61,326,0.9,"stim/14.jpeg",1,4,3,2,"HouseObjects",2,4,"right","right",0.596000195,1,1,1,0,NA,NA,NA,NA,NA,NA,NA,NA,NA,NA,NA,NA,NA,NA,NA,NA,NA,NA,NA,NA,NA,NA,NA,NA
"266","stim/objects/HouseObjects/bucket3.png",334,61,327,0.5,"stim/41.jpeg",4,1,1,2,"HouseObjects",2,2,"right","",NA,0,0,1,0,NA,NA,NA,NA,NA,NA,NA,NA,NA,NA,NA,NA,NA,NA,NA,NA,NA,NA,NA,NA,NA,NA,NA,NA
"529","stim/objects/Instruments/oboe3.png",335,61,328,0.9,"stim/24.jpeg",2,4,3,2,"Instruments",1,1,"left","left",0.845000029,1,1,1,0,NA,NA,NA,NA,NA,NA,NA,NA,NA,NA,NA,NA,NA,NA,NA,NA,NA,NA,NA,NA,NA,NA,NA,NA
"317","stim/objects/HouseObjects/lintroller3.png",336,61,329,0.9,"stim/13.jpeg",1,3,3,2,"HouseObjects",2,4,"right","left",0.618000269,0,0,1,0,NA,NA,NA,NA,NA,NA,NA,NA,NA,NA,NA,NA,NA,NA,NA,NA,NA,NA,NA,NA,NA,NA,NA,NA
"283","stim/objects/HouseObjects/ironingboard3.png",337,61,330,0.7,"stim/54.jpeg",5,4,2,2,"HouseObjects",2,4,"right","left",0.319000244,0,0,1,0,NA,NA,NA,NA,NA,NA,NA,NA,NA,NA,NA,NA,NA,NA,NA,NA,NA,NA,NA,NA,NA,NA,NA,NA
"278","stim/objects/HouseObjects/clothespin4.png",338,61,331,0.3,"stim/64.jpeg",6,4,2,1,"HouseObjects",2,1,"right","left",0.519000292,0,0,1,0,14,61,1,0.3,2,"stim/64.jpeg",6,4,"stim/64.jpeg",1,"left",1.105999947,2,2,1.069999933,1,0.813999891,14,1,0,0,1,1,0
"530","stim/objects/Instruments/oboe3.png",339,61,332,0.9,"stim/21.jpeg",2,1,3,2,"Instruments",1,2,"left","left",0.63499999,1,1,1,0,NA,NA,NA,NA,NA,NA,NA,NA,NA,NA,NA,NA,NA,NA,NA,NA,NA,NA,NA,NA,NA,NA,NA,NA
"385","stim/objects/HouseObjects/safetypin4.png",340,61,333,0.9,"stim/14.jpeg",1,4,3,1,"HouseObjects",2,1,"right","",NA,0,0,1,0,174,61,1,0.9,2,"stim/14.jpeg",1,4,"stim/14.jpeg",1,"left",2.819999933,3,3,0.428999901,3,0.235999823,174,1,0,0,0,0,0
"262","stim/objects/HouseObjects/broom3.png",341,61,334,0.5,"stim/44.jpeg",4,4,1,2,"HouseObjects",2,4,"right","right",0.262000322,1,1,1,0,NA,NA,NA,NA,NA,NA,NA,NA,NA,NA,NA,NA,NA,NA,NA,NA,NA,NA,NA,NA,NA,NA,NA,NA
"513","stim/objects/Instruments/musicstand3.png",342,61,335,0.9,"stim/22.jpeg",2,2,3,2,"Instruments",1,1,"left","left",0.550000191,1,1,1,0,NA,NA,NA,NA,NA,NA,NA,NA,NA,NA,NA,NA,NA,NA,NA,NA,NA,NA,NA,NA,NA,NA,NA,NA
"347","stim/objects/HouseObjects/pan3.png",343,61,336,0.9,"stim/13.jpeg",1,3,3,2,"HouseObjects",2,1,"right","left",0.845999956,0,0,1,0,NA,NA,NA,NA,NA,NA,NA,NA,NA,NA,NA,NA,NA,NA,NA,NA,NA,NA,NA,NA,NA,NA,NA,NA
"394","stim/objects/HouseObjects/teapot3.png",344,61,337,0.5,"stim/44.jpeg",4,4,1,1,"HouseObjects",2,3,"right","right",0.701000214,1,1,1,0,113,61,1,0.5,2,"stim/44.jpeg",4,4,"stim/44.jpeg",3,"left",0.776000023,2,2,0.253999949,2,0.568000078,113,1,0,0,0,0,0
"378","stim/objects/HouseObjects/remote3.png",345,61,338,0.5,"stim/33.jpeg",3,3,1,1,"HouseObjects",2,2,"right","right",0.83100009,1,1,1,0,183,61,1,0.5,1,"stim/33.jpeg",3,3,"stim/33.jpeg",2,"right",1.851999998,2,2,0.286000013,2,0.215999842,183,0,0,NA,1,NA,0
"276","stim/objects/HouseObjects/clothespin3.png",346,61,339,0.7,"stim/54.jpeg",5,4,2,2,"HouseObjects",2,4,"right","right",0.744000196,1,1,1,0,NA,NA,NA,NA,NA,NA,NA,NA,NA,NA,NA,NA,NA,NA,NA,NA,NA,NA,NA,NA,NA,NA,NA,NA
"252","stim/objects/HouseObjects/basket4.png",347,61,340,0.7,"stim/52.jpeg",5,2,2,1,"HouseObjects",2,2,"right","",NA,0,0,1,0,63,61,1,0.7,2,"stim/52.jpeg",5,2,"stim/52.jpeg",2,"right",1.006999731,2,2,0.278000116,2,0.197999954,63,0,1,NA,1,NA,0
"411","stim/objects/Instruments/acousticguitar4.png",348,61,341,0.3,"stim/53.jpeg",5,3,2,1,"Instruments",1,3,"left","left",0.485000134,1,1,1,0,126,61,1,0.3,1,"stim/53.jpeg",5,3,"stim/53.jpeg",3,"left",1.83100009,2,4,0.427999973,1,0.336999893,126,1,0,0,0,0,0
"286","stim/objects/HouseObjects/ironingboard4.png",349,61,342,0.3,"stim/62.jpeg",6,2,2,1,"HouseObjects",2,1,"right","right",0.566000223,1,1,1,0,72,61,1,0.3,2,"stim/62.jpeg",6,2,"stim/62.jpeg",1,"right",2.70299983,2,2,0.296000004,2,0.23699975,72,0,1,NA,0,NA,0
"299","stim/objects/HouseObjects/knife3.png",350,61,343,0.9,"stim/14.jpeg",1,4,3,2,"HouseObjects",2,1,"right","left",0.412000179,0,0,1,0,NA,NA,NA,NA,NA,NA,NA,NA,NA,NA,NA,NA,NA,NA,NA,NA,NA,NA,NA,NA,NA,NA,NA,NA
"544","stim/objects/Instruments/pipepiano4.png",351,61,344,0.1,"stim/13.jpeg",1,3,3,1,"Instruments",1,3,"left","right",0.266000032,0,0,1,0,175,61,1,0.1,1,"stim/13.jpeg",1,3,"stim/13.jpeg",3,"right",1.378000021,2,2,0.430999994,2,0.195999861,175,0,0,NA,0,NA,0
"413","stim/objects/Instruments/balalaika3.png",352,61,345,0.5,"stim/34.jpeg",3,4,1,2,"Instruments",1,4,"left","left",0.282999992,1,1,1,0,NA,NA,NA,NA,NA,NA,NA,NA,NA,NA,NA,NA,NA,NA,NA,NA,NA,NA,NA,NA,NA,NA,NA,NA
"388","stim/objects/HouseObjects/scale3.png",353,61,346,0.5,"stim/41.jpeg",4,1,1,1,"HouseObjects",2,1,"right","left",0.784000158,0,0,1,0,22,61,1,0.5,2,"stim/41.jpeg",4,1,"stim/41.jpeg",1,"right",0.99000001,2,2,0.409999847,2,0.282999754,22,0,0,NA,0,NA,0
"282","stim/objects/HouseObjects/iron4.png",354,61,347,0.3,"stim/61.jpeg",6,1,2,1,"HouseObjects",2,1,"right","right",0.052000046,1,1,1,0,154,61,1,0.3,2,"stim/61.jpeg",6,1,"stim/61.jpeg",1,"right",2.151000023,2,2,0.282999992,2,0.196999788,154,0,0,NA,0,NA,0
"446","stim/objects/Instruments/keyboard3.png",355,61,348,0.7,"stim/61.jpeg",6,1,2,2,"Instruments",1,1,"left","right",0.350000143,0,0,1,0,NA,NA,NA,NA,NA,NA,NA,NA,NA,NA,NA,NA,NA,NA,NA,NA,NA,NA,NA,NA,NA,NA,NA,NA
"300","stim/objects/HouseObjects/knife3.png",356,61,349,0.9,"stim/14.jpeg",1,4,3,2,"HouseObjects",2,3,"right","right",0.644999981,1,1,1,0,NA,NA,NA,NA,NA,NA,NA,NA,NA,NA,NA,NA,NA,NA,NA,NA,NA,NA,NA,NA,NA,NA,NA,NA
"563","stim/objects/Instruments/tuba3.png",357,61,350,0.3,"stim/52.jpeg",5,2,2,1,"Instruments",1,4,"left","right",0.200000048,0,0,1,0,148,61,1,0.3,1,"stim/52.jpeg",5,2,"stim/52.jpeg",4,"right",1.578000069,2,2,0.221999884,2,0.207000017,148,0,1,NA,0,NA,0
"301","stim/objects/HouseObjects/knife3.png",358,61,351,0.9,"stim/14.jpeg",1,4,3,2,"HouseObjects",2,2,"right","left",0.236000061,0,0,1,0,NA,NA,NA,NA,NA,NA,NA,NA,NA,NA,NA,NA,NA,NA,NA,NA,NA,NA,NA,NA,NA,NA,NA,NA
"330","stim/objects/HouseObjects/match3.png",359,61,352,0.9,"stim/11.jpeg",1,1,3,2,"HouseObjects",2,3,"right","right",0.302000046,1,1,1,0,NA,NA,NA,NA,NA,NA,NA,NA,NA,NA,NA,NA,NA,NA,NA,NA,NA,NA,NA,NA,NA,NA,NA,NA
"463","stim/objects/Instruments/marimba3.png",360,61,353,0.9,"stim/21.jpeg",2,1,3,2,"Instruments",1,2,"left","left",0.661000013,1,1,1,0,NA,NA,NA,NA,NA,NA,NA,NA,NA,NA,NA,NA,NA,NA,NA,NA,NA,NA,NA,NA,NA,NA,NA,NA
"515","stim/objects/Instruments/musicstand3.png",361,61,354,0.9,"stim/24.jpeg",2,4,3,2,"Instruments",1,3,"left","left",0.416000128,1,1,1,0,NA,NA,NA,NA,NA,NA,NA,NA,NA,NA,NA,NA,NA,NA,NA,NA,NA,NA,NA,NA,NA,NA,NA,NA
"464","stim/objects/Instruments/marimba3.png",362,61,355,0.9,"stim/23.jpeg",2,3,3,2,"Instruments",1,1,"left","right",0.669000149,0,0,1,0,NA,NA,NA,NA,NA,NA,NA,NA,NA,NA,NA,NA,NA,NA,NA,NA,NA,NA,NA,NA,NA,NA,NA,NA
"259","stim/objects/HouseObjects/bottle3.png",363,61,356,0.5,"stim/43.jpeg",4,3,1,2,"HouseObjects",2,4,"right","right",0.627000093,1,1,1,0,NA,NA,NA,NA,NA,NA,NA,NA,NA,NA,NA,NA,NA,NA,NA,NA,NA,NA,NA,NA,NA,NA,NA,NA
"258","stim/objects/HouseObjects/blender4.png",364,61,357,0.3,"stim/62.jpeg",6,2,2,1,"HouseObjects",2,1,"right","left",0.327000141,0,0,1,0,138,61,1,0.3,2,"stim/62.jpeg",6,2,"stim/62.jpeg",1,"right",0.708999872,2,2,0.198999882,2,0.480000019,138,0,1,NA,0,NA,0
"331","stim/objects/HouseObjects/match3.png",365,61,358,0.9,"stim/13.jpeg",1,3,3,2,"HouseObjects",2,4,"right","right",0.218000174,1,1,1,0,NA,NA,NA,NA,NA,NA,NA,NA,NA,NA,NA,NA,NA,NA,NA,NA,NA,NA,NA,NA,NA,NA,NA,NA
"419","stim/objects/Instruments/bassdrum3.png",366,61,359,0.5,"stim/32.jpeg",3,2,1,2,"Instruments",1,1,"left","right",0.452000141,0,0,1,0,NA,NA,NA,NA,NA,NA,NA,NA,NA,NA,NA,NA,NA,NA,NA,NA,NA,NA,NA,NA,NA,NA,NA,NA
"407","stim/objects/Instruments/accordion3.png",367,61,360,0.5,"stim/32.jpeg",3,2,1,2,"Instruments",1,1,"left","right",0.595000267,0,0,1,0,NA,NA,NA,NA,NA,NA,NA,NA,NA,NA,NA,NA,NA,NA,NA,NA,NA,NA,NA,NA,NA,NA,NA,NA
"495","stim/objects/Instruments/musicsheet3.png",368,61,361,0.9,"stim/22.jpeg",2,2,3,2,"Instruments",1,2,"left","left",0.86400032,1,1,1,0,NA,NA,NA,NA,NA,NA,NA,NA,NA,NA,NA,NA,NA,NA,NA,NA,NA,NA,NA,NA,NA,NA,NA,NA
"270","stim/objects/HouseObjects/clock4.png",369,61,362,0.3,"stim/62.jpeg",6,2,2,1,"HouseObjects",2,2,"right","left",0.895000219,0,0,1,0,30,61,1,0.3,2,"stim/62.jpeg",6,2,"stim/62.jpeg",2,"right",2.177999973,2,2,0.324999809,2,0.230000019,30,0,1,NA,1,NA,0
"479","stim/objects/Instruments/metronome3.png",370,61,363,0.9,"stim/21.jpeg",2,1,3,2,"Instruments",1,4,"left","left",0.436000109,1,1,1,0,NA,NA,NA,NA,NA,NA,NA,NA,NA,NA,NA,NA,NA,NA,NA,NA,NA,NA,NA,NA,NA,NA,NA,NA
"350","stim/objects/HouseObjects/pan3.png",371,61,364,0.9,"stim/14.jpeg",1,4,3,2,"HouseObjects",2,3,"right","left",0.444000244,0,0,1,0,NA,NA,NA,NA,NA,NA,NA,NA,NA,NA,NA,NA,NA,NA,NA,NA,NA,NA,NA,NA,NA,NA,NA,NA
"248","stim/objects/HouseObjects/barbecuelighter3.png",372,61,365,0.5,"stim/33.jpeg",3,3,1,2,"HouseObjects",2,1,"right","left",0.542000055,0,0,1,0,NA,NA,NA,NA,NA,NA,NA,NA,NA,NA,NA,NA,NA,NA,NA,NA,NA,NA,NA,NA,NA,NA,NA,NA
"557","stim/objects/Instruments/triangle3.png",373,61,366,0.5,"stim/44.jpeg",4,4,1,1,"Instruments",1,1,"left","left",0.813000202,1,1,1,0,86,61,1,0.5,2,"stim/44.jpeg",4,4,"stim/44.jpeg",1,"right",1.342000008,3,3,0.362999916,3,0.243999958,86,0,0,NA,0,NA,0
"399","stim/objects/HouseObjects/thread4.png",374,61,367,0.1,"stim/21.jpeg",2,1,3,1,"HouseObjects",2,3,"right","",NA,0,0,1,0,8,61,1,0.1,2,"stim/21.jpeg",2,1,"stim/21.jpeg",3,"left",1.879999876,4,2,2.632999897,4,1.776000023,8,1,0,0,0,0,0
"481","stim/objects/Instruments/metronome3.png",375,61,368,0.9,"stim/21.jpeg",2,1,3,2,"Instruments",1,2,"left","right",0.298000336,0,0,1,0,NA,NA,NA,NA,NA,NA,NA,NA,NA,NA,NA,NA,NA,NA,NA,NA,NA,NA,NA,NA,NA,NA,NA,NA
"566","stim/objects/Instruments/violin4.png",376,61,369,0.9,"stim/24.jpeg",2,4,3,1,"Instruments",1,3,"left","",NA,0,0,1,0,45,61,1,0.9,1,"stim/24.jpeg",2,4,"stim/24.jpeg",3,"right",1.747999907,2,2,0.480000019,2,0.477999926,45,0,0,NA,0,NA,0
"269","stim/objects/HouseObjects/clock3.png",377,61,370,0.5,"stim/42.jpeg",4,2,1,2,"HouseObjects",2,4,"right","right",0.566000223,1,1,1,0,NA,NA,NA,NA,NA,NA,NA,NA,NA,NA,NA,NA,NA,NA,NA,NA,NA,NA,NA,NA,NA,NA,NA,NA
"308","stim/objects/HouseObjects/lintroller3.png",378,61,371,0.9,"stim/14.jpeg",1,4,3,2,"HouseObjects",2,2,"right","right",0.220000029,1,1,1,0,NA,NA,NA,NA,NA,NA,NA,NA,NA,NA,NA,NA,NA,NA,NA,NA,NA,NA,NA,NA,NA,NA,NA,NA
"326","stim/objects/HouseObjects/match3.png",379,61,372,0.9,"stim/14.jpeg",1,4,3,2,"HouseObjects",2,2,"right","left",0.219000101,0,0,1,0,NA,NA,NA,NA,NA,NA,NA,NA,NA,NA,NA,NA,NA,NA,NA,NA,NA,NA,NA,NA,NA,NA,NA,NA
"272","stim/objects/HouseObjects/clothesdryingrack3.png",380,61,373,0.7,"stim/53.jpeg",5,3,2,2,"HouseObjects",2,3,"right","left",0.210999966,0,0,1,0,NA,NA,NA,NA,NA,NA,NA,NA,NA,NA,NA,NA,NA,NA,NA,NA,NA,NA,NA,NA,NA,NA,NA,NA
"406","stim/objects/Instruments/accordion3.png",381,61,374,0.5,"stim/31.jpeg",3,1,1,2,"Instruments",1,1,"left","left",0.097000122,1,1,1,0,NA,NA,NA,NA,NA,NA,NA,NA,NA,NA,NA,NA,NA,NA,NA,NA,NA,NA,NA,NA,NA,NA,NA,NA
"381","stim/objects/HouseObjects/rubbergloves4.png",382,61,375,0.9,"stim/12.jpeg",1,2,3,1,"HouseObjects",2,2,"right","left",0.398000002,0,0,1,0,129,61,1,0.9,2,"stim/12.jpeg",1,2,"stim/12.jpeg",2,"right",1.75999999,2,1,0.569000006,1,0.321000099,129,0,0,NA,0,NA,0
"429","stim/objects/Instruments/chime4.png",383,61,376,0.7,"stim/62.jpeg",6,2,2,1,"Instruments",1,4,"left","right",0.529000282,0,0,1,0,135,61,1,0.7,1,"stim/62.jpeg",6,2,"stim/62.jpeg",4,"right",0.624000072,2,2,0.23300004,2,0.181999922,135,0,1,NA,0,NA,0
"332","stim/objects/HouseObjects/match3.png",384,61,377,0.9,"stim/12.jpeg",1,2,3,2,"HouseObjects",2,2,"right","right",0.081000328,1,1,1,0,NA,NA,NA,NA,NA,NA,NA,NA,NA,NA,NA,NA,NA,NA,NA,NA,NA,NA,NA,NA,NA,NA,NA,NA
"333","stim/objects/HouseObjects/match3.png",385,61,378,0.9,"stim/12.jpeg",1,2,3,2,"HouseObjects",2,3,"right","right",0.9150002,1,1,1,0,NA,NA,NA,NA,NA,NA,NA,NA,NA,NA,NA,NA,NA,NA,NA,NA,NA,NA,NA,NA,NA,NA,NA,NA
"260","stim/objects/HouseObjects/bottle3.png",386,61,379,0.5,"stim/44.jpeg",4,4,1,2,"HouseObjects",2,2,"right","right",0.678000212,1,1,1,0,NA,NA,NA,NA,NA,NA,NA,NA,NA,NA,NA,NA,NA,NA,NA,NA,NA,NA,NA,NA,NA,NA,NA,NA
"455","stim/objects/Instruments/maraca4.png",387,61,380,0.7,"stim/61.jpeg",6,1,2,1,"Instruments",1,4,"left","right",0.076000214,0,0,1,0,166,61,1,0.7,1,"stim/61.jpeg",6,1,"stim/61.jpeg",4,"right",1.562000036,3,3,0.413999796,3,0.162999868,166,0,0,NA,0,NA,0
"365","stim/objects/HouseObjects/pitcher3.png",388,61,381,0.9,"stim/13.jpeg",1,3,3,2,"HouseObjects",2,4,"right","right",0.227000237,1,1,1,0,NA,NA,NA,NA,NA,NA,NA,NA,NA,NA,NA,NA,NA,NA,NA,NA,NA,NA,NA,NA,NA,NA,NA,NA
"391","stim/objects/HouseObjects/sponge4.png",389,61,382,0.1,"stim/21.jpeg",2,1,3,1,"HouseObjects",2,3,"right","left",0.310000181,0,0,1,0,47,61,1,0.1,2,"stim/21.jpeg",2,1,"stim/21.jpeg",3,"right",0.824999809,2,2,0.366999865,2,0.497999907,47,0,0,NA,0,NA,0
"377","stim/objects/HouseObjects/recyclingbin4.png",390,61,383,0.9,"stim/14.jpeg",1,4,3,1,"HouseObjects",2,3,"right","left",0.327000141,0,0,1,0,107,61,1,0.9,2,"stim/14.jpeg",1,4,"stim/14.jpeg",3,"right",0.980999947,2,2,0.183999777,2,0.644999981,107,0,0,NA,0,NA,0
"265","stim/objects/HouseObjects/bucket3.png",391,61,384,0.5,"stim/42.jpeg",4,2,1,2,"HouseObjects",2,1,"right","left",0.038000107,0,0,1,0,NA,NA,NA,NA,NA,NA,NA,NA,NA,NA,NA,NA,NA,NA,NA,NA,NA,NA,NA,NA,NA,NA,NA,NA
"423","stim/objects/Instruments/bassguitar4.png",392,61,385,0.7,"stim/64.jpeg",6,4,2,1,"Instruments",1,1,"left","left",0.366000175,1,1,1,0,114,61,1,0.7,1,"stim/64.jpeg",6,4,"stim/64.jpeg",1,"right",1.298999786,4,4,1.729999781,4,0.585999966,114,0,1,NA,0,NA,0
"335","stim/objects/HouseObjects/match3.png",393,61,386,0.9,"stim/13.jpeg",1,3,3,2,"HouseObjects",2,4,"right","right",0.211000204,1,1,1,0,NA,NA,NA,NA,NA,NA,NA,NA,NA,NA,NA,NA,NA,NA,NA,NA,NA,NA,NA,NA,NA,NA,NA,NA
"366","stim/objects/HouseObjects/pitcher3.png",394,61,387,0.9,"stim/14.jpeg",1,4,3,2,"HouseObjects",2,4,"right","right",0.417000055,1,1,1,0,NA,NA,NA,NA,NA,NA,NA,NA,NA,NA,NA,NA,NA,NA,NA,NA,NA,NA,NA,NA,NA,NA,NA,NA
"433","stim/objects/Instruments/cornet3.png",395,61,388,0.5,"stim/43.jpeg",4,3,1,2,"Instruments",1,3,"left","left",0.35800004,1,1,1,0,NA,NA,NA,NA,NA,NA,NA,NA,NA,NA,NA,NA,NA,NA,NA,NA,NA,NA,NA,NA,NA,NA,NA,NA
"288","stim/objects/HouseObjects/key3.png",396,61,389,0.7,"stim/54.jpeg",5,4,2,2,"HouseObjects",2,2,"right","right",0.28000021,1,1,1,0,NA,NA,NA,NA,NA,NA,NA,NA,NA,NA,NA,NA,NA,NA,NA,NA,NA,NA,NA,NA,NA,NA,NA,NA
"508","stim/objects/Instruments/musicstand3.png",397,61,390,0.9,"stim/21.jpeg",2,1,3,2,"Instruments",1,3,"left","left",0.309000254,1,1,1,0,NA,NA,NA,NA,NA,NA,NA,NA,NA,NA,NA,NA,NA,NA,NA,NA,NA,NA,NA,NA,NA,NA,NA,NA
"442","stim/objects/Instruments/doublebass3.png",398,61,391,0.7,"stim/63.jpeg",6,3,2,2,"Instruments",1,2,"left","left",0.394000292,1,1,1,0,NA,NA,NA,NA,NA,NA,NA,NA,NA,NA,NA,NA,NA,NA,NA,NA,NA,NA,NA,NA,NA,NA,NA,NA
"404","stim/objects/HouseObjects/wateringcan3.png",399,61,392,0.7,"stim/52.jpeg",5,2,2,1,"HouseObjects",2,4,"right","left",0.045000076,0,0,1,0,157,61,1,0.7,2,"stim/52.jpeg",5,2,"stim/52.jpeg",4,"right",0.941999912,2,2,0.351999998,2,0.250999928,157,0,1,NA,0,NA,0
"324","stim/objects/HouseObjects/lintroller4.png",400,61,393,0.9,"stim/14.jpeg",1,4,3,1,"HouseObjects",2,4,"right","right",0.24600029,1,1,1,0,196,61,1,0.9,2,"stim/14.jpeg",1,4,"stim/14.jpeg",4,"right",1.190999746,2,2,0.296000004,2,0.403999805,196,0,0,NA,0,NA,0
"311","stim/objects/HouseObjects/lintroller3.png",401,61,394,0.9,"stim/14.jpeg",1,4,3,2,"HouseObjects",2,1,"right","left",0.268000126,0,0,1,0,NA,NA,NA,NA,NA,NA,NA,NA,NA,NA,NA,NA,NA,NA,NA,NA,NA,NA,NA,NA,NA,NA,NA,NA
"384","stim/objects/HouseObjects/safetypin3.png",402,61,395,0.5,"stim/32.jpeg",3,2,1,1,"HouseObjects",2,3,"right","left",0.234000206,0,0,1,0,29,61,1,0.5,1,"stim/32.jpeg",3,2,"stim/32.jpeg",3,"right",1.069999933,2,2,0.530999899,2,0.323999882,29,0,1,NA,0,NA,0
"559","stim/objects/Instruments/trombone3.png",403,61,396,0.5,"stim/41.jpeg",4,1,1,1,"Instruments",1,3,"left","left",0.253999949,1,1,1,0,125,61,1,0.5,2,"stim/41.jpeg",4,1,"stim/41.jpeg",3,"left",1.278999805,2,4,0.549999952,2,0.299999952,125,1,0,0,0,0,0
"254","stim/objects/HouseObjects/bleachbottle3.png",404,61,397,0.5,"stim/31.jpeg",3,1,1,2,"HouseObjects",2,4,"right","left",0.22200036,0,0,1,0,NA,NA,NA,NA,NA,NA,NA,NA,NA,NA,NA,NA,NA,NA,NA,NA,NA,NA,NA,NA,NA,NA,NA,NA
"386","stim/objects/HouseObjects/saw3.png",405,61,398,0.5,"stim/44.jpeg",4,4,1,1,"HouseObjects",2,2,"right","right",0.130000114,1,1,1,0,120,61,1,0.5,2,"stim/44.jpeg",4,4,"stim/44.jpeg",2,"right",1.089999914,2,2,0.28399992,2,0.198999882,120,0,0,NA,1,NA,0
"243","stim/objects/HouseObjects/ashtray4.png",406,61,399,0.7,"stim/53.jpeg",5,3,2,1,"HouseObjects",2,3,"right","right",0.218000174,1,1,1,0,140,61,1,0.7,2,"stim/53.jpeg",5,3,"stim/53.jpeg",3,"left",1.492999792,4,4,1.044999838,1,0.350999832,140,1,0,0,0,0,0
"457","stim/objects/Instruments/marimba3.png",407,61,400,0.9,"stim/22.jpeg",2,2,3,2,"Instruments",1,3,"left","left",0.286000252,1,1,1,0,NA,NA,NA,NA,NA,NA,NA,NA,NA,NA,NA,NA,NA,NA,NA,NA,NA,NA,NA,NA,NA,NA,NA,NA
"261","stim/objects/HouseObjects/bottle4.png",408,61,401,0.3,"stim/63.jpeg",6,3,2,1,"HouseObjects",2,2,"right","left",0.516000032,0,0,1,0,147,61,1,0.3,2,"stim/63.jpeg",6,3,"stim/63.jpeg",2,"right",1.582999945,2,2,0.312999964,2,0.182999849,147,0,0,NA,1,NA,0
"277","stim/objects/HouseObjects/clothespin3.png",409,61,402,0.7,"stim/52.jpeg",5,2,2,2,"HouseObjects",2,1,"right","right",0.222000122,1,1,1,0,NA,NA,NA,NA,NA,NA,NA,NA,NA,NA,NA,NA,NA,NA,NA,NA,NA,NA,NA,NA,NA,NA,NA,NA
"484","stim/objects/Instruments/metronome3.png",410,61,403,0.9,"stim/24.jpeg",2,4,3,2,"Instruments",1,1,"left","right",0.313000202,0,0,1,0,NA,NA,NA,NA,NA,NA,NA,NA,NA,NA,NA,NA,NA,NA,NA,NA,NA,NA,NA,NA,NA,NA,NA,NA
"543","stim/objects/Instruments/pipepiano3.png",411,61,404,0.5,"stim/34.jpeg",3,4,1,1,"Instruments",1,2,"left","right",0.670000076,0,0,1,0,9,61,1,0.5,1,"stim/34.jpeg",3,4,"stim/34.jpeg",2,"left",2.243999958,3,3,2.406999826,2,1.9599998,9,1,0,0,1,1,0
"510","stim/objects/Instruments/musicstand3.png",412,61,405,0.9,"stim/23.jpeg",2,3,3,2,"Instruments",1,4,"left","left",0.46600008,1,1,1,0,NA,NA,NA,NA,NA,NA,NA,NA,NA,NA,NA,NA,NA,NA,NA,NA,NA,NA,NA,NA,NA,NA,NA,NA
"564","stim/objects/Instruments/tuba4.png",413,61,406,0.9,"stim/23.jpeg",2,3,3,1,"Instruments",1,3,"left","left",0.570000172,1,1,1,0,69,61,1,0.9,1,"stim/23.jpeg",2,3,"stim/23.jpeg",3,"left",0.55099988,2,2,0.212999821,2,0.213999987,69,1,0,0,0,0,0
"368","stim/objects/HouseObjects/pitcher3.png",414,61,407,0.9,"stim/11.jpeg",1,1,3,2,"HouseObjects",2,1,"right","left",0.494000196,0,0,1,0,NA,NA,NA,NA,NA,NA,NA,NA,NA,NA,NA,NA,NA,NA,NA,NA,NA,NA,NA,NA,NA,NA,NA,NA
"289","stim/objects/HouseObjects/key3.png",415,61,408,0.7,"stim/53.jpeg",5,3,2,2,"HouseObjects",2,2,"right","right",0.545000076,1,1,1,0,NA,NA,NA,NA,NA,NA,NA,NA,NA,NA,NA,NA,NA,NA,NA,NA,NA,NA,NA,NA,NA,NA,NA,NA
"501","stim/objects/Instruments/musicsheet3.png",416,61,409,0.9,"stim/22.jpeg",2,2,3,2,"Instruments",1,4,"left","right",0.352000237,0,0,1,0,NA,NA,NA,NA,NA,NA,NA,NA,NA,NA,NA,NA,NA,NA,NA,NA,NA,NA,NA,NA,NA,NA,NA,NA
"485","stim/objects/Instruments/metronome3.png",417,61,410,0.9,"stim/22.jpeg",2,2,3,2,"Instruments",1,1,"left","left",0.434000015,1,1,1,0,NA,NA,NA,NA,NA,NA,NA,NA,NA,NA,NA,NA,NA,NA,NA,NA,NA,NA,NA,NA,NA,NA,NA,NA
"401","stim/objects/HouseObjects/towel4.png",418,61,411,0.1,"stim/22.jpeg",2,2,3,1,"HouseObjects",2,2,"right","left",0.343000174,0,0,1,0,61,61,1,0.1,2,"stim/22.jpeg",2,2,"stim/22.jpeg",2,"left",5.386999846,2,2,0.270999908,2,0.313999891,61,1,1,1,1,1,0
"498","stim/objects/Instruments/musicsheet3.png",419,61,412,0.9,"stim/21.jpeg",2,1,3,2,"Instruments",1,3,"left","left",0.701000214,1,1,1,0,NA,NA,NA,NA,NA,NA,NA,NA,NA,NA,NA,NA,NA,NA,NA,NA,NA,NA,NA,NA,NA,NA,NA,NA
"393","stim/objects/HouseObjects/spraybottle4.png",420,61,413,0.1,"stim/22.jpeg",2,2,3,1,"HouseObjects",2,1,"right","left",0.095000267,0,0,1,0,191,61,1,0.1,2,"stim/22.jpeg",2,2,"stim/22.jpeg",1,"right",0.67599988,2,2,0.230000019,2,0.174000025,191,0,1,NA,0,NA,0
"465","stim/objects/Instruments/marimba3.png",421,61,414,0.9,"stim/24.jpeg",2,4,3,2,"Instruments",1,4,"left","left",0.062000275,1,1,1,0,NA,NA,NA,NA,NA,NA,NA,NA,NA,NA,NA,NA,NA,NA,NA,NA,NA,NA,NA,NA,NA,NA,NA,NA
"328","stim/objects/HouseObjects/match3.png",422,61,415,0.9,"stim/13.jpeg",1,3,3,2,"HouseObjects",2,4,"right","right",0.770000219,1,1,1,0,NA,NA,NA,NA,NA,NA,NA,NA,NA,NA,NA,NA,NA,NA,NA,NA,NA,NA,NA,NA,NA,NA,NA,NA
"296","stim/objects/HouseObjects/knife3.png",423,61,416,0.9,"stim/12.jpeg",1,2,3,2,"HouseObjects",2,3,"right","right",0.295000076,1,1,1,0,NA,NA,NA,NA,NA,NA,NA,NA,NA,NA,NA,NA,NA,NA,NA,NA,NA,NA,NA,NA,NA,NA,NA,NA
"416","stim/objects/Instruments/banjo3.png",424,61,417,0.5,"stim/34.jpeg",3,4,1,2,"Instruments",1,3,"left","right",0.180000305,0,0,1,0,NA,NA,NA,NA,NA,NA,NA,NA,NA,NA,NA,NA,NA,NA,NA,NA,NA,NA,NA,NA,NA,NA,NA,NA
"244","stim/objects/HouseObjects/ballofstring3.png",425,61,418,0.5,"stim/32.jpeg",3,2,1,2,"HouseObjects",2,3,"right","right",0.484000206,1,1,1,0,NA,NA,NA,NA,NA,NA,NA,NA,NA,NA,NA,NA,NA,NA,NA,NA,NA,NA,NA,NA,NA,NA,NA,NA
"517","stim/objects/Instruments/musicstand3.png",426,61,419,0.9,"stim/23.jpeg",2,3,3,2,"Instruments",1,3,"left","left",0.065000296,1,1,1,0,NA,NA,NA,NA,NA,NA,NA,NA,NA,NA,NA,NA,NA,NA,NA,NA,NA,NA,NA,NA,NA,NA,NA,NA
"448","stim/objects/Instruments/laud3.png",427,61,420,0.7,"stim/62.jpeg",6,2,2,2,"Instruments",1,3,"left","left",0.107000113,1,1,1,0,NA,NA,NA,NA,NA,NA,NA,NA,NA,NA,NA,NA,NA,NA,NA,NA,NA,NA,NA,NA,NA,NA,NA,NA
"502","stim/objects/Instruments/musicsheet3.png",428,61,421,0.9,"stim/21.jpeg",2,1,3,2,"Instruments",1,4,"left","left",0.181000233,1,1,1,0,NA,NA,NA,NA,NA,NA,NA,NA,NA,NA,NA,NA,NA,NA,NA,NA,NA,NA,NA,NA,NA,NA,NA,NA
"279","stim/objects/HouseObjects/iron3.png",429,61,422,0.7,"stim/51.jpeg",5,1,2,2,"HouseObjects",2,3,"right","right",0.276000023,1,1,1,0,NA,NA,NA,NA,NA,NA,NA,NA,NA,NA,NA,NA,NA,NA,NA,NA,NA,NA,NA,NA,NA,NA,NA,NA
"302","stim/objects/HouseObjects/knife3.png",430,61,423,0.9,"stim/11.jpeg",1,1,3,2,"HouseObjects",2,3,"right","right",0.275000095,1,1,1,0,NA,NA,NA,NA,NA,NA,NA,NA,NA,NA,NA,NA,NA,NA,NA,NA,NA,NA,NA,NA,NA,NA,NA,NA
"558","stim/objects/Instruments/triangle4.png",431,61,424,0.9,"stim/24.jpeg",2,4,3,1,"Instruments",1,3,"left","right",0.294000149,0,0,1,0,181,61,1,0.9,1,"stim/24.jpeg",2,4,"stim/24.jpeg",3,"right",1.428999901,1,2,0.61500001,2,0.297999859,181,0,0,NA,0,NA,0
"499","stim/objects/Instruments/musicsheet3.png",432,61,425,0.9,"stim/23.jpeg",2,3,3,2,"Instruments",1,4,"left","left",0.455000162,1,1,1,0,NA,NA,NA,NA,NA,NA,NA,NA,NA,NA,NA,NA,NA,NA,NA,NA,NA,NA,NA,NA,NA,NA,NA,NA
"535","stim/objects/Instruments/oboe3.png",433,61,426,0.9,"stim/22.jpeg",2,2,3,2,"Instruments",1,2,"left","left",0.333000183,1,1,1,0,NA,NA,NA,NA,NA,NA,NA,NA,NA,NA,NA,NA,NA,NA,NA,NA,NA,NA,NA,NA,NA,NA,NA,NA
"568","stim/objects/Instruments/vuvuzela4.png",434,61,427,0.9,"stim/21.jpeg",2,1,3,1,"Instruments",1,2,"left","",NA,0,0,1,0,159,61,1,0.9,1,"stim/21.jpeg",2,1,"stim/21.jpeg",2,"left",0.40899992,2,2,0.243999958,2,0.164999962,159,1,0,0,1,1,0
"313","stim/objects/HouseObjects/lintroller3.png",435,61,428,0.9,"stim/12.jpeg",1,2,3,2,"HouseObjects",2,1,"right","left",0.002000332,0,0,1,0,NA,NA,NA,NA,NA,NA,NA,NA,NA,NA,NA,NA,NA,NA,NA,NA,NA,NA,NA,NA,NA,NA,NA,NA
"466","stim/objects/Instruments/marimba3.png",436,61,429,0.9,"stim/23.jpeg",2,3,3,2,"Instruments",1,4,"left","left",0.136000156,1,1,1,0,NA,NA,NA,NA,NA,NA,NA,NA,NA,NA,NA,NA,NA,NA,NA,NA,NA,NA,NA,NA,NA,NA,NA,NA
"552","stim/objects/Instruments/speaker4.png",437,61,430,0.9,"stim/21.jpeg",2,1,3,1,"Instruments",1,2,"left","right",0.210000277,0,0,1,0,172,61,1,0.9,1,"stim/21.jpeg",2,1,"stim/21.jpeg",2,"left",2.048000097,4,3,0.802000046,3,0.246000051,172,1,0,0,0,0,0
"306","stim/objects/HouseObjects/knife3.png",438,61,431,0.9,"stim/13.jpeg",1,3,3,2,"HouseObjects",2,1,"right","left",0.796000242,0,0,1,0,NA,NA,NA,NA,NA,NA,NA,NA,NA,NA,NA,NA,NA,NA,NA,NA,NA,NA,NA,NA,NA,NA,NA,NA
"338","stim/objects/HouseObjects/match3.png",439,61,432,0.9,"stim/11.jpeg",1,1,3,2,"HouseObjects",2,1,"right","left",0.301000357,0,0,1,0,NA,NA,NA,NA,NA,NA,NA,NA,NA,NA,NA,NA,NA,NA,NA,NA,NA,NA,NA,NA,NA,NA,NA,NA
"422","stim/objects/Instruments/bassguitar3.png",440,61,433,0.5,"stim/44.jpeg",4,4,1,2,"Instruments",1,2,"left","right",0.47900033,0,0,1,0,NA,NA,NA,NA,NA,NA,NA,NA,NA,NA,NA,NA,NA,NA,NA,NA,NA,NA,NA,NA,NA,NA,NA,NA
"284","stim/objects/HouseObjects/ironingboard3.png",441,61,434,0.7,"stim/53.jpeg",5,3,2,2,"HouseObjects",2,2,"right","right",0.294000387,1,1,1,0,NA,NA,NA,NA,NA,NA,NA,NA,NA,NA,NA,NA,NA,NA,NA,NA,NA,NA,NA,NA,NA,NA,NA,NA
"389","stim/objects/HouseObjects/scale4.png",442,61,435,0.1,"stim/24.jpeg",2,4,3,1,"HouseObjects",2,2,"right","right",0.605000019,1,1,1,0,33,61,1,0.1,2,"stim/24.jpeg",2,4,"stim/24.jpeg",2,"left",1.414999723,3,3,0.480000019,3,0.246999741,33,1,0,0,0,0,0
"257","stim/objects/HouseObjects/blender3.png",443,61,436,0.5,"stim/43.jpeg",4,3,1,2,"HouseObjects",2,2,"right","left",0.416000128,0,0,1,0,NA,NA,NA,NA,NA,NA,NA,NA,NA,NA,NA,NA,NA,NA,NA,NA,NA,NA,NA,NA,NA,NA,NA,NA
"249","stim/objects/HouseObjects/barbecuelighter4.png",444,61,437,0.7,"stim/51.jpeg",5,1,2,1,"HouseObjects",2,4,"right","left",0.515000343,0,0,1,0,49,61,1,0.7,2,"stim/51.jpeg",5,1,"stim/51.jpeg",4,"right",1.483999968,2,2,0.27699995,2,0.217999935,49,0,0,NA,0,NA,0
"439","stim/objects/Instruments/cymbal4.png",445,61,438,0.7,"stim/61.jpeg",6,1,2,1,"Instruments",1,1,"left","left",0.318000078,1,1,1,0,139,61,1,0.7,1,"stim/61.jpeg",6,1,"stim/61.jpeg",1,"right",1.131999731,2,2,0.312999964,2,0.177000046,139,0,0,NA,0,NA,0
"449","stim/objects/Instruments/laud3.png",446,61,439,0.7,"stim/61.jpeg",6,1,2,2,"Instruments",1,3,"left","left",0.298000097,1,1,1,0,NA,NA,NA,NA,NA,NA,NA,NA,NA,NA,NA,NA,NA,NA,NA,NA,NA,NA,NA,NA,NA,NA,NA,NA
"452","stim/objects/Instruments/maraca3.png",447,61,440,0.7,"stim/61.jpeg",6,1,2,2,"Instruments",1,4,"left","left",0.368000269,1,1,1,0,NA,NA,NA,NA,NA,NA,NA,NA,NA,NA,NA,NA,NA,NA,NA,NA,NA,NA,NA,NA,NA,NA,NA,NA
"247","stim/objects/HouseObjects/barbecuelighter3.png",448,61,441,0.5,"stim/32.jpeg",3,2,1,2,"HouseObjects",2,3,"right","left",0.319000244,0,0,1,0,NA,NA,NA,NA,NA,NA,NA,NA,NA,NA,NA,NA,NA,NA,NA,NA,NA,NA,NA,NA,NA,NA,NA,NA
"468","stim/objects/Instruments/marimba3.png",449,61,442,0.9,"stim/22.jpeg",2,2,3,2,"Instruments",1,4,"left","right",0.179000139,0,0,1,0,NA,NA,NA,NA,NA,NA,NA,NA,NA,NA,NA,NA,NA,NA,NA,NA,NA,NA,NA,NA,NA,NA,NA,NA
"321","stim/objects/HouseObjects/lintroller3.png",450,61,443,0.9,"stim/13.jpeg",1,3,3,2,"HouseObjects",2,2,"right","right",0.767000198,1,1,1,0,NA,NA,NA,NA,NA,NA,NA,NA,NA,NA,NA,NA,NA,NA,NA,NA,NA,NA,NA,NA,NA,NA,NA,NA
"322","stim/objects/HouseObjects/lintroller3.png",451,61,444,0.9,"stim/11.jpeg",1,1,3,2,"HouseObjects",2,4,"right","left",0.381000042,0,0,1,0,NA,NA,NA,NA,NA,NA,NA,NA,NA,NA,NA,NA,NA,NA,NA,NA,NA,NA,NA,NA,NA,NA,NA,NA
"518","stim/objects/Instruments/musicstand3.png",452,61,445,0.9,"stim/21.jpeg",2,1,3,2,"Instruments",1,3,"left","right",0.283000231,0,0,1,0,NA,NA,NA,NA,NA,NA,NA,NA,NA,NA,NA,NA,NA,NA,NA,NA,NA,NA,NA,NA,NA,NA,NA,NA
"523","stim/objects/Instruments/musicstand4.png",453,61,446,0.1,"stim/14.jpeg",1,4,3,1,"Instruments",1,2,"left","right",0.25999999,0,0,1,0,137,61,1,0.1,1,"stim/14.jpeg",1,4,"stim/14.jpeg",2,"right",1.025000095,2,2,0.233999729,2,0.199999809,137,0,0,NA,1,NA,0
"355","stim/objects/HouseObjects/pan3.png",454,61,447,0.9,"stim/12.jpeg",1,2,3,2,"HouseObjects",2,3,"right","right",0.218000174,1,1,1,0,NA,NA,NA,NA,NA,NA,NA,NA,NA,NA,NA,NA,NA,NA,NA,NA,NA,NA,NA,NA,NA,NA,NA,NA
"470","stim/objects/Instruments/marimba3.png",455,61,448,0.9,"stim/24.jpeg",2,4,3,2,"Instruments",1,4,"left","right",0.251000166,0,0,1,0,NA,NA,NA,NA,NA,NA,NA,NA,NA,NA,NA,NA,NA,NA,NA,NA,NA,NA,NA,NA,NA,NA,NA,NA
"537","stim/objects/Instruments/oboe3.png",456,61,449,0.9,"stim/24.jpeg",2,4,3,2,"Instruments",1,1,"left","left",0.277000189,1,1,1,0,NA,NA,NA,NA,NA,NA,NA,NA,NA,NA,NA,NA,NA,NA,NA,NA,NA,NA,NA,NA,NA,NA,NA,NA
"353","stim/objects/HouseObjects/pan3.png",457,61,450,0.9,"stim/13.jpeg",1,3,3,2,"HouseObjects",2,3,"right","left",0.21600008,0,0,1,0,NA,NA,NA,NA,NA,NA,NA,NA,NA,NA,NA,NA,NA,NA,NA,NA,NA,NA,NA,NA,NA,NA,NA,NA
"425","stim/objects/Instruments/cello3.png",458,61,451,0.5,"stim/44.jpeg",4,4,1,2,"Instruments",1,3,"left","left",0.046000004,1,1,1,0,NA,NA,NA,NA,NA,NA,NA,NA,NA,NA,NA,NA,NA,NA,NA,NA,NA,NA,NA,NA,NA,NA,NA,NA
"253","stim/objects/HouseObjects/bleachbottle3.png",459,61,452,0.5,"stim/34.jpeg",3,4,1,2,"HouseObjects",2,3,"right","right",0.218000174,1,1,1,0,NA,NA,NA,NA,NA,NA,NA,NA,NA,NA,NA,NA,NA,NA,NA,NA,NA,NA,NA,NA,NA,NA,NA,NA
"554","stim/objects/Instruments/tambourine4.png",460,61,453,0.9,"stim/22.jpeg",2,2,3,1,"Instruments",1,2,"left","left",0.502000093,1,1,1,0,185,61,1,0.9,1,"stim/22.jpeg",2,2,"stim/22.jpeg",2,"right",1.325000048,2,2,0.3349998,2,0.388000011,185,0,1,NA,1,NA,0
"405","stim/objects/HouseObjects/wateringcan4.png",461,61,454,0.1,"stim/24.jpeg",2,4,3,1,"HouseObjects",2,4,"right","left",0.250000238,0,0,1,0,186,61,1,0.1,2,"stim/24.jpeg",2,4,"stim/24.jpeg",4,"right",1.712999821,2,2,0.184000015,2,0.580999851,186,0,0,NA,0,NA,0
"351","stim/objects/HouseObjects/pan3.png",462,61,455,0.9,"stim/11.jpeg",1,1,3,2,"HouseObjects",2,2,"right","right",0.412000179,1,1,1,0,NA,NA,NA,NA,NA,NA,NA,NA,NA,NA,NA,NA,NA,NA,NA,NA,NA,NA,NA,NA,NA,NA,NA,NA
"538","stim/objects/Instruments/oboe3.png",463,61,456,0.9,"stim/21.jpeg",2,1,3,2,"Instruments",1,4,"left","right",0.377000093,0,0,1,0,NA,NA,NA,NA,NA,NA,NA,NA,NA,NA,NA,NA,NA,NA,NA,NA,NA,NA,NA,NA,NA,NA,NA,NA
"447","stim/objects/Instruments/keyboard4.png",464,61,457,0.7,"stim/63.jpeg",6,3,2,1,"Instruments",1,2,"left","left",0.311000347,1,1,1,0,76,61,1,0.7,1,"stim/63.jpeg",6,3,"stim/63.jpeg",2,"left",0.978999853,2,2,0.421000004,2,0.30099988,76,1,0,0,1,1,0
"348","stim/objects/HouseObjects/pan3.png",465,61,458,0.9,"stim/12.jpeg",1,2,3,2,"HouseObjects",2,1,"right","left",0.179000139,0,0,1,0,NA,NA,NA,NA,NA,NA,NA,NA,NA,NA,NA,NA,NA,NA,NA,NA,NA,NA,NA,NA,NA,NA,NA,NA
"418","stim/objects/Instruments/bassdrum3.png",466,61,459,0.5,"stim/31.jpeg",3,1,1,2,"Instruments",1,3,"left","right",0.317000151,0,0,1,0,NA,NA,NA,NA,NA,NA,NA,NA,NA,NA,NA,NA,NA,NA,NA,NA,NA,NA,NA,NA,NA,NA,NA,NA
"320","stim/objects/HouseObjects/lintroller3.png",467,61,460,0.9,"stim/12.jpeg",1,2,3,2,"HouseObjects",2,4,"right","right",0.253000259,1,1,1,0,NA,NA,NA,NA,NA,NA,NA,NA,NA,NA,NA,NA,NA,NA,NA,NA,NA,NA,NA,NA,NA,NA,NA,NA
