"","participant","OvsN","PE_level","object_cat","obj_file","scn_file","corr_scn_cat","corr_scn_inst","scn_file.1","corr_loc","key_resp_id.keys","key_resp_id.rt","key_resp_conf.keys","key_resp_assoc.keys","key_resp_assoc.rt","key_resp_loc.keys","key_resp_loc.rt","trialN","id_acc","assoc.acc","cond_assoc","loc.acc","cond_loc","group"
"1",31,1,0.5,2,"stim/objects/HouseObjects/sponge3.png","stim/42.jpeg",4,2,"stim/42.jpeg",2,"right",1.956999779,3,1,2.974999905,1,2.464999914,1,0,0,NA,0,NA,1
"2",31,1,0.1,2,"stim/objects/HouseObjects/thermometer4.png","stim/24.jpeg",2,4,"stim/24.jpeg",1,"left",2.045000076,3,2,3.177999973,1,1.684999943,2,1,0,0,1,1,1
"3",31,2,0,1,"stim/objects/Instruments/balalaika.png","",0,0,"",0,"left",1.611999989,NA,NA,NA,NA,NA,3,0,NA,NA,NA,NA,1
"4",31,1,0.9,1,"stim/objects/Instruments/triangle4.png","stim/24.jpeg",2,4,"stim/24.jpeg",3,"left",1.470999956,3,4,3.612999916,3,1.100999832,4,1,1,1,1,1,1
"5",31,1,0.7,1,"stim/objects/Instruments/chime4.png","stim/62.jpeg",6,2,"stim/62.jpeg",4,"left",3.061000109,3,1,4.375,1,1.589999914,5,1,0,0,0,0,1
"6",31,1,0.7,1,"stim/objects/Instruments/cymbal4.png","stim/61.jpeg",6,1,"stim/61.jpeg",1,"left",2.426999807,3,3,1.494999886,2,1.813999891,6,1,0,0,0,0,1
"7",31,1,0.3,1,"stim/objects/Instruments/balalaika4.png","stim/54.jpeg",5,4,"stim/54.jpeg",4,"left",1.272000074,2,3,2.593999863,4,0.053999901,7,1,0,0,1,1,1
"8",31,2,0,2,"stim/objects/HouseObjects/towel.png","",0,0,"",0,"left",1.99399972,NA,NA,NA,NA,NA,8,0,NA,NA,NA,NA,1
"9",31,1,0.3,2,"stim/objects/HouseObjects/bucket4.png","stim/61.jpeg",6,1,"stim/61.jpeg",3,"left",1.037999868,3,1,3.154999733,1,0.370000124,9,1,1,1,0,0,1
"10",31,2,0,2,"stim/objects/HouseObjects/ashtray.png","",0,0,"",0,"right",1.40899992,NA,NA,NA,NA,NA,10,1,NA,NA,NA,NA,1
"11",31,1,0.9,1,"stim/objects/Instruments/timbal4.png","stim/23.jpeg",2,3,"stim/23.jpeg",1,"right",2.303999901,2,2,1.355999947,2,1.231999874,11,0,0,NA,0,NA,1
"12",31,2,0,2,"stim/objects/HouseObjects/ballofstring.png","",0,0,"",0,"right",1.740999937,NA,NA,NA,NA,NA,12,1,NA,NA,NA,NA,1
"13",31,2,0,2,"stim/objects/HouseObjects/clothesdryingrack2.png","",0,0,"",0,"right",0.092999935,NA,NA,NA,NA,NA,13,1,NA,NA,NA,NA,1
"14",31,1,0.3,1,"stim/objects/Instruments/trumpet3.png","stim/51.jpeg",5,1,"stim/51.jpeg",2,"left",1.174999952,3,3,2.930999994,1,0.569000006,14,1,0,0,0,0,1
"15",31,2,0,1,"stim/objects/Instruments/cymbal2.png","",0,0,"",0,"right",1.507999897,NA,NA,NA,NA,NA,15,1,NA,NA,NA,NA,1
"16",31,2,0,1,"stim/objects/Instruments/record_player.png","",0,0,"",0,"right",1.190999985,NA,NA,NA,NA,NA,16,1,NA,NA,NA,NA,1
"17",31,2,0,2,"stim/objects/HouseObjects/scale.png","",0,0,"",0,"right",0.988999844,NA,NA,NA,NA,NA,17,1,NA,NA,NA,NA,1
"18",31,2,0,1,"stim/objects/Instruments/trombone.png","",0,0,"",0,"right",1.290999889,NA,NA,NA,NA,NA,18,1,NA,NA,NA,NA,1
"19",31,2,0,2,"stim/objects/HouseObjects/saw.png","",0,0,"",0,"left",1.540999889,NA,NA,NA,NA,NA,19,0,NA,NA,NA,NA,1
"20",31,2,0,1,"stim/objects/Instruments/doublebass.png","",0,0,"",0,"left",1.271999836,NA,NA,NA,NA,NA,20,0,NA,NA,NA,NA,1
"21",31,1,0.1,1,"stim/objects/Instruments/marimba4.png","stim/11.jpeg",1,1,"stim/11.jpeg",4,"left",1.086999893,3,3,2.896999836,2,0.817000151,21,1,0,0,0,0,1
"22",31,2,0,1,"stim/objects/Instruments/maraca2.png","",0,0,"",0,"right",1.246000051,NA,NA,NA,NA,NA,22,1,NA,NA,NA,NA,1
"23",31,2,0,1,"stim/objects/Instruments/cello2.png","",0,0,"",0,"right",1.22300005,NA,NA,NA,NA,NA,23,1,NA,NA,NA,NA,1
"24",31,2,0,2,"stim/objects/HouseObjects/recyclingbin.png","",0,0,"",0,"right",0.784999847,NA,NA,NA,NA,NA,24,1,NA,NA,NA,NA,1
"25",31,1,0.1,2,"stim/objects/HouseObjects/vacuumcleaner4.png","stim/23.jpeg",2,3,"stim/23.jpeg",4,"left",0.992999792,3,3,5.892999887,1,0.200999975,25,1,1,1,0,0,1
"26",31,2,0,2,"stim/objects/HouseObjects/barbecuelighter2.png","",0,0,"",0,"right",1.096999884,NA,NA,NA,NA,NA,26,1,NA,NA,NA,NA,1
"27",31,2,0,2,"stim/objects/HouseObjects/iron2.png","",0,0,"",0,"right",0.674999952,NA,NA,NA,NA,NA,27,1,NA,NA,NA,NA,1
"28",31,1,0.9,1,"stim/objects/Instruments/trombone4.png","stim/21.jpeg",2,1,"stim/21.jpeg",2,"left",1.69299984,3,2,3.907999992,1,0.700000048,28,1,0,0,0,0,1
"29",31,1,0.9,2,"stim/objects/HouseObjects/recyclingbin4.png","stim/14.jpeg",1,4,"stim/14.jpeg",3,"left",1.875999928,2,3,2.962999821,1,0.203999758,29,1,0,0,0,0,1
"30",31,1,0.7,2,"stim/objects/HouseObjects/thermometer3.png","stim/52.jpeg",5,2,"stim/52.jpeg",2,"left",2.796000004,3,2,2.007999897,1,0.47699976,30,1,1,1,0,0,1
"31",31,1,0.3,2,"stim/objects/HouseObjects/iron4.png","stim/61.jpeg",6,1,"stim/61.jpeg",1,"right",1.426999807,4,2,0.926999807,1,0.240999937,31,0,0,NA,1,NA,1
"32",31,2,0,2,"stim/objects/HouseObjects/teapot.png","",0,0,"",0,"right",1.039999962,NA,NA,NA,NA,NA,32,1,NA,NA,NA,NA,1
"33",31,1,0.3,1,"stim/objects/Instruments/xylophone3.png","stim/51.jpeg",5,1,"stim/51.jpeg",1,"right",0.768999815,3,2,1.092999935,1,0.15199995,33,0,0,NA,1,NA,1
"34",31,1,0.5,2,"stim/objects/HouseObjects/scale3.png","stim/41.jpeg",4,1,"stim/41.jpeg",1,"left",1.995999813,4,4,8.215999842,1,0.581999779,34,1,0,0,1,1,1
"35",31,1,0.9,2,"stim/objects/HouseObjects/remote4.png","stim/11.jpeg",1,1,"stim/11.jpeg",1,"left",1.477999926,4,1,2.407000065,1,0.200999737,35,1,1,1,1,1,1
"36",31,1,0.3,2,"stim/objects/HouseObjects/clothesdryingrack4.png","stim/63.jpeg",6,3,"stim/63.jpeg",3,"left",2.031999826,4,3,4.444999933,1,0.862999916,36,1,1,1,0,0,1
"37",31,1,0.7,1,"stim/objects/Instruments/maraca4.png","stim/61.jpeg",6,1,"stim/61.jpeg",4,"left",1.161000013,4,1,1.559999943,2,0.907000065,37,1,1,1,0,0,1
"38",31,1,0.7,1,"stim/objects/Instruments/laud4.png","stim/64.jpeg",6,4,"stim/64.jpeg",2,"left",1.049999952,2,4,1.803999901,2,0.291000128,38,1,1,1,1,1,1
"39",31,2,0,1,"stim/objects/Instruments/pipepiano.png","",0,0,"",0,"left",1.607000113,NA,NA,NA,NA,NA,39,0,NA,NA,NA,NA,1
"40",31,1,0.5,1,"stim/objects/HouseObjects/safetypin3.png","stim/32.jpeg",3,2,"stim/32.jpeg",3,"left",1.069999933,4,1,4.113999844,3,0.965999842,40,1,0,0,1,1,1
"41",31,1,0.7,2,"stim/objects/HouseObjects/vacuumcleaner3.png","stim/51.jpeg",5,1,"stim/51.jpeg",1,"left",0.877999783,4,1,2.273999929,1,0.18599987,41,1,1,1,1,1,1
"42",31,1,0.1,2,"stim/objects/HouseObjects/thread4.png","stim/21.jpeg",2,1,"stim/21.jpeg",3,"left",0.992999792,3,1,3.021999836,3,0.5849998,42,1,1,1,1,1,1
"43",31,2,0,1,"stim/objects/Instruments/speaker.png","",0,0,"",0,"right",0.941999912,NA,NA,NA,NA,NA,43,1,NA,NA,NA,NA,1
"44",31,2,0,2,"stim/objects/HouseObjects/bucket2.png","",0,0,"",0,"right",0.63499999,NA,NA,NA,NA,NA,44,1,NA,NA,NA,NA,1
"45",31,1,0.7,1,"stim/objects/Instruments/doublebass4.png","stim/62.jpeg",6,2,"stim/62.jpeg",3,"left",0.757999897,3,4,2.391000032,2,0.224999905,45,1,0,0,0,0,1
"46",31,2,0,1,"stim/objects/Instruments/bassguitar2.png","",0,0,"",0,"left",1.426999807,NA,NA,NA,NA,NA,46,0,NA,NA,NA,NA,1
"47",31,1,0.7,1,"stim/objects/Instruments/cello4.png","stim/61.jpeg",6,1,"stim/61.jpeg",4,"left",1.256999969,3,4,1.305999756,2,0.320999861,47,1,0,0,0,0,1
"48",31,2,0,1,"stim/objects/Instruments/triangle.png","",0,0,"",0,"right",0.978999853,NA,NA,NA,NA,NA,48,1,NA,NA,NA,NA,1
"49",31,1,0.7,1,"stim/objects/Instruments/keyboard4.png","stim/63.jpeg",6,3,"stim/63.jpeg",2,"right",0.552999735,4,3,0.605999947,1,0.235000134,49,0,1,NA,0,NA,1
"50",31,2,0,2,"stim/objects/HouseObjects/bleachbottle.png","",0,0,"",0,"right",0.751999855,NA,NA,NA,NA,NA,50,1,NA,NA,NA,NA,1
"51",31,2,0,1,"stim/objects/Instruments/record.png","",0,0,"",0,"left",1.05099988,NA,NA,NA,NA,NA,51,0,NA,NA,NA,NA,1
"52",31,2,0,2,"stim/objects/HouseObjects/clothespin.png","",0,0,"",0,"left",0.839999914,NA,NA,NA,NA,NA,52,0,NA,NA,NA,NA,1
"53",31,1,0.5,1,"stim/objects/Instruments/saxophone3.png","stim/33.jpeg",3,3,"stim/33.jpeg",3,"left",0.717000008,3,3,2.516999722,2,0.332999945,53,1,1,1,0,0,1
"54",31,1,0.9,2,"stim/objects/HouseObjects/knife4.png","stim/13.jpeg",1,3,"stim/13.jpeg",2,"right",0.792000055,4,4,0.541999817,4,0.316999912,54,0,0,NA,0,NA,1
"55",31,1,0.7,2,"stim/objects/HouseObjects/thread3.png","stim/53.jpeg",5,3,"stim/53.jpeg",1,"left",1.107999802,2,2,1.589999914,1,0.137999773,55,1,0,0,1,1,1
"56",31,2,0,1,"stim/objects/Instruments/banjo.png","",0,0,"",0,"right",0.914000034,NA,NA,NA,NA,NA,56,1,NA,NA,NA,NA,1
"57",31,2,0,2,"stim/objects/HouseObjects/bucket.png","",0,0,"",0,"right",0.619999886,NA,NA,NA,NA,NA,57,1,NA,NA,NA,NA,1
"58",31,1,0.7,2,"stim/objects/HouseObjects/ballofstring4.png","stim/54.jpeg",5,4,"stim/54.jpeg",3,"right",1.001999855,2,2,1.141000032,1,0.339999914,58,0,0,NA,0,NA,1
"59",31,1,0.7,2,"stim/objects/HouseObjects/basket4.png","stim/52.jpeg",5,2,"stim/52.jpeg",2,"left",1.561000109,4,3,2.171000004,2,0.308999777,59,1,0,0,1,1,1
"60",31,2,0,2,"stim/objects/HouseObjects/spraybottle.png","",0,0,"",0,"right",0.678999901,NA,NA,NA,NA,NA,60,1,NA,NA,NA,NA,1
"61",31,2,0,1,"stim/objects/Instruments/clarinet2.png","",0,0,"",0,"left",1.355999947,NA,NA,NA,NA,NA,61,0,NA,NA,NA,NA,1
"62",31,2,0,1,"stim/objects/Instruments/maraca.png","",0,0,"",0,"left",0.769000053,NA,NA,NA,NA,NA,62,0,NA,NA,NA,NA,1
"63",31,1,0.7,1,"stim/objects/Instruments/clarinet4.png","stim/63.jpeg",6,3,"stim/63.jpeg",4,"left",0.89199996,2,2,1.322999954,1,0.309000015,63,1,0,0,0,0,1
"64",31,1,0.3,2,"stim/objects/HouseObjects/ironingboard4.png","stim/62.jpeg",6,2,"stim/62.jpeg",1,"left",1.161999941,4,3,2.940999985,1,0.305999994,64,1,0,0,1,1,1
"65",31,2,0,1,"stim/objects/Instruments/cello.png","",0,0,"",0,"left",1.112999916,NA,NA,NA,NA,NA,65,0,NA,NA,NA,NA,1
"66",31,2,0,1,"stim/objects/Instruments/violin.png","",0,0,"",0,"left",0.851999998,NA,NA,NA,NA,NA,66,0,NA,NA,NA,NA,1
"67",31,2,0,2,"stim/objects/HouseObjects/remote.png","",0,0,"",0,"right",1.269999981,NA,NA,NA,NA,NA,67,1,NA,NA,NA,NA,1
"68",31,2,0,1,"stim/objects/Instruments/laud.png","",0,0,"",0,"left",0.970999956,NA,NA,NA,NA,NA,68,0,NA,NA,NA,NA,1
"69",31,1,0.3,2,"stim/objects/HouseObjects/broom4.png","stim/64.jpeg",6,4,"stim/64.jpeg",4,"left",0.906999826,4,2,1.306999922,1,0.260999918,69,1,0,0,0,0,1
"70",31,1,0.5,2,"stim/objects/HouseObjects/spraybottle3.png","stim/43.jpeg",4,3,"stim/43.jpeg",1,"right",0.828999996,2,1,1.122999907,1,0.178999901,70,0,0,NA,1,NA,1
"71",31,2,0,2,"stim/objects/HouseObjects/key.png","",0,0,"",0,"left",1.274999857,NA,NA,NA,NA,NA,71,0,NA,NA,NA,NA,1
"72",31,2,0,1,"stim/objects/Instruments/acousticguitar2.png","",0,0,"",0,"right",0.819999933,NA,NA,NA,NA,NA,72,1,NA,NA,NA,NA,1
"73",31,1,0.5,1,"stim/objects/HouseObjects/rug3.png","stim/31.jpeg",3,1,"stim/31.jpeg",4,"left",0.791000128,4,2,4.64199996,1,2.40199995,73,1,0,0,0,0,1
"74",31,2,0,1,"stim/objects/Instruments/metronome.png","",0,0,"",0,"right",0.845999956,NA,NA,NA,NA,NA,74,1,NA,NA,NA,NA,1
"75",31,1,0.1,1,"stim/objects/Instruments/metronome4.png","stim/12.jpeg",1,2,"stim/12.jpeg",4,"right",0.549999952,4,1,0.854000092,1,0.150999784,75,0,0,NA,0,NA,1
"76",31,1,0.1,2,"stim/objects/HouseObjects/towel4.png","stim/22.jpeg",2,2,"stim/22.jpeg",2,"left",1.427000046,3,1,2.35800004,3,4.005000114,76,1,0,0,0,0,1
"77",31,2,0,2,"stim/objects/HouseObjects/pan.png","",0,0,"",0,"left",0.792000055,NA,NA,NA,NA,NA,77,0,NA,NA,NA,NA,1
"78",31,2,0,2,"stim/objects/HouseObjects/knife.png","",0,0,"",0,"right",0.792999983,NA,NA,NA,NA,NA,78,1,NA,NA,NA,NA,1
"79",31,2,0,2,"stim/objects/HouseObjects/clothesdryingrack.png","",0,0,"",0,"right",0.618000031,NA,NA,NA,NA,NA,79,1,NA,NA,NA,NA,1
"80",31,2,0,2,"stim/objects/HouseObjects/ballofstring2.png","",0,0,"",0,"right",0.585999966,NA,NA,NA,NA,NA,80,1,NA,NA,NA,NA,1
"81",31,1,0.7,2,"stim/objects/HouseObjects/bleachbottle4.png","stim/53.jpeg",5,3,"stim/53.jpeg",1,"right",0.473999977,2,1,1.355999947,1,0.377000093,81,0,0,NA,1,NA,1
"82",31,1,0.1,1,"stim/objects/Instruments/panflute4.png","stim/12.jpeg",1,2,"stim/12.jpeg",3,"right",0.678999901,4,1,0.694000006,1,0.152999878,82,0,0,NA,0,NA,1
"83",31,1,0.5,2,"stim/objects/Instruments/tambourine3.png","stim/42.jpeg",4,2,"stim/42.jpeg",3,"right",0.713999748,4,1,0.774999857,1,0.167999983,83,0,0,NA,0,NA,1
"84",31,1,0.3,1,"stim/objects/Instruments/violin3.png","stim/53.jpeg",5,3,"stim/53.jpeg",2,"right",1.10199976,2,1,1.036999702,1,0.174000025,84,0,0,NA,0,NA,1
"85",31,1,0.3,2,"stim/objects/HouseObjects/blender4.png","stim/62.jpeg",6,2,"stim/62.jpeg",1,"right",0.648999929,3,1,0.423999786,1,0.141000032,85,0,0,NA,1,NA,1
"86",31,2,0,1,"stim/objects/Instruments/chime2.png","",0,0,"",0,"right",0.773999929,NA,NA,NA,NA,NA,86,1,NA,NA,NA,NA,1
"87",31,2,0,2,"stim/objects/HouseObjects/bottle2.png","",0,0,"",0,"right",0.541999817,NA,NA,NA,NA,NA,87,1,NA,NA,NA,NA,1
"88",31,2,0,1,"stim/objects/Instruments/marimba.png","",0,0,"",0,"right",0.689999819,NA,NA,NA,NA,NA,88,1,NA,NA,NA,NA,1
"89",31,1,0.1,1,"stim/objects/Instruments/musicstand4.png","stim/14.jpeg",1,4,"stim/14.jpeg",2,"right",0.523000002,3,1,0.907999992,1,0.152999878,89,0,0,NA,0,NA,1
"90",31,2,0,2,"stim/objects/HouseObjects/thread.png","",0,0,"",0,"right",0.743999958,NA,NA,NA,NA,NA,90,1,NA,NA,NA,NA,1
"91",31,1,0.1,2,"stim/objects/HouseObjects/sponge4.png","stim/21.jpeg",2,1,"stim/21.jpeg",3,"left",0.968999863,4,1,1.906999826,3,0.710000038,91,1,1,1,1,1,1
"92",31,1,0.9,2,"stim/objects/HouseObjects/safetypin4.png","stim/14.jpeg",1,4,"stim/14.jpeg",1,"left",1.579999924,2,1,1.020999908,1,0.504999876,92,1,0,0,1,1,1
"93",31,1,0.3,2,"stim/objects/HouseObjects/key4.png","stim/63.jpeg",6,3,"stim/63.jpeg",1,"right",0.846999884,2,1,0.875,1,0.741999865,93,0,0,NA,1,NA,1
"94",31,1,0.9,1,"stim/objects/Instruments/tambourine4.png","stim/22.jpeg",2,2,"stim/22.jpeg",2,"right",0.760999918,2,1,0.890999794,3,1.318000078,94,0,0,NA,0,NA,1
"95",31,2,0,1,"stim/objects/Instruments/vuvuzela.png","",0,0,"",0,"right",0.678999901,NA,NA,NA,NA,NA,95,1,NA,NA,NA,NA,1
"96",31,1,0.7,1,"stim/objects/Instruments/cornet4.png","stim/64.jpeg",6,4,"stim/64.jpeg",1,"right",0.519999981,3,1,1.642999887,1,0.191999912,96,0,0,NA,1,NA,1
"97",31,2,0,2,"stim/objects/HouseObjects/key2.png","",0,0,"",0,"right",1.042000055,NA,NA,NA,NA,NA,97,1,NA,NA,NA,NA,1
"98",31,1,0.3,1,"stim/objects/Instruments/accordion4.png","stim/52.jpeg",5,2,"stim/52.jpeg",1,"right",0.536000013,2,2,0.993999958,1,0.369999886,98,0,1,NA,1,NA,1
"99",31,2,0,2,"stim/objects/HouseObjects/ashtray2.png","",0,0,"",0,"right",0.661000013,NA,NA,NA,NA,NA,99,1,NA,NA,NA,NA,1
"100",31,1,0.9,1,"stim/objects/Instruments/speaker4.png","stim/21.jpeg",2,1,"stim/21.jpeg",2,"right",0.736000061,2,2,1.038000107,2,0.917999983,100,0,0,NA,1,NA,1
"101",31,1,0.3,1,"stim/objects/Instruments/vuvuzela3.png","stim/54.jpeg",5,4,"stim/54.jpeg",4,"right",0.645999908,2,1,0.904999971,1,0.635999918,101,0,0,NA,0,NA,1
"102",31,2,0,2,"stim/objects/HouseObjects/bottle.png","",0,0,"",0,"right",0.576999903,NA,NA,NA,NA,NA,102,1,NA,NA,NA,NA,1
"103",31,2,0,1,"stim/objects/Instruments/acousticguitar.png","",0,0,"",0,"right",0.536999941,NA,NA,NA,NA,NA,103,1,NA,NA,NA,NA,1
"104",31,2,0,1,"stim/objects/Instruments/bassguitar.png","",0,0,"",0,"right",0.620999813,NA,NA,NA,NA,NA,104,1,NA,NA,NA,NA,1
"105",31,1,0.7,2,"stim/objects/HouseObjects/towel3.png","stim/54.jpeg",5,4,"stim/54.jpeg",2,"left",1.453000069,4,3,2.944999695,2,0.753999949,105,1,0,0,1,1,1
"106",31,2,0,1,"stim/objects/Instruments/banjo2.png","",0,0,"",0,"right",0.609999895,NA,NA,NA,NA,NA,106,1,NA,NA,NA,NA,1
"107",31,1,0.3,1,"stim/objects/Instruments/bassdrum4.png","stim/52.jpeg",5,2,"stim/52.jpeg",2,"right",0.66899991,2,2,1.371000051,4,1.308000088,107,0,1,NA,0,NA,1
"108",31,1,0.5,2,"stim/objects/Instruments/speaker3.png","stim/41.jpeg",4,1,"stim/41.jpeg",4,"right",0.59100008,2,1,1.224999905,2,0.635999918,108,0,1,NA,0,NA,1
"109",31,1,0.5,2,"stim/objects/Instruments/trombone3.png","stim/41.jpeg",4,1,"stim/41.jpeg",3,"left",1.29399991,4,2,1.354999781,1,0.693999767,109,1,0,0,0,0,1
"110",31,1,0.5,2,"stim/objects/Instruments/triangle3.png","stim/44.jpeg",4,4,"stim/44.jpeg",1,"right",1.226999998,2,2,1.006999731,1,0.368000031,110,0,0,NA,1,NA,1
"111",31,1,0.5,2,"stim/objects/HouseObjects/teapot3.png","stim/44.jpeg",4,4,"stim/44.jpeg",3,"right",1.760999918,2,1,0.742000103,2,0.651000023,111,0,0,NA,0,NA,1
"112",31,1,0.9,1,"stim/objects/Instruments/vuvuzela4.png","stim/21.jpeg",2,1,"stim/21.jpeg",2,"right",1.112999916,2,2,1.605999947,1,0.623999834,112,0,0,NA,0,NA,1
"113",31,2,0,2,"stim/objects/HouseObjects/broom.png","",0,0,"",0,"left",2.110999823,NA,NA,NA,NA,NA,113,0,NA,NA,NA,NA,1
"114",31,1,0.9,1,"stim/objects/Instruments/violin4.png","stim/24.jpeg",2,4,"stim/24.jpeg",3,"right",0.756999969,2,3,1.253999949,2,0.503999949,114,0,0,NA,0,NA,1
"115",31,1,0.7,1,"stim/objects/Instruments/bassguitar4.png","stim/64.jpeg",6,4,"stim/64.jpeg",1,"right",0.694000006,2,1,0.840999842,1,0.32400012,115,0,0,NA,1,NA,1
"116",31,2,0,2,"stim/objects/HouseObjects/broom2.png","",0,0,"",0,"right",0.927999735,NA,NA,NA,NA,NA,116,1,NA,NA,NA,NA,1
"117",31,2,0,2,"stim/objects/HouseObjects/pitcher.png","",0,0,"",0,"right",0.559999943,NA,NA,NA,NA,NA,117,1,NA,NA,NA,NA,1
"118",31,2,0,1,"stim/objects/Instruments/trumpet.png","",0,0,"",0,"left",1.520999908,NA,NA,NA,NA,NA,118,0,NA,NA,NA,NA,1
"119",31,2,0,1,"stim/objects/Instruments/accordion2.png","",0,0,"",0,"right",2.302999973,NA,NA,NA,NA,NA,119,1,NA,NA,NA,NA,1
"120",31,2,0,1,"stim/objects/Instruments/bassdrum.png","",0,0,"",0,"right",0.805999756,NA,NA,NA,NA,NA,120,1,NA,NA,NA,NA,1
"121",31,1,0.9,2,"stim/objects/HouseObjects/pan4.png","stim/12.jpeg",1,2,"stim/12.jpeg",4,"right",1.105999947,3,2,0.773000002,2,0.238999844,121,0,1,NA,0,NA,1
"122",31,2,0,1,"stim/objects/Instruments/laud2.png","",0,0,"",0,"left",1.445999861,NA,NA,NA,NA,NA,122,0,NA,NA,NA,NA,1
"123",31,1,0.1,2,"stim/objects/HouseObjects/saw4.png","stim/23.jpeg",2,3,"stim/23.jpeg",2,"left",2.173999786,2,2,1.039999962,2,1.589999914,123,1,0,0,1,1,1
"124",31,2,0,1,"stim/objects/Instruments/saxophone.png","",0,0,"",0,"left",0.812999964,NA,NA,NA,NA,NA,124,0,NA,NA,NA,NA,1
"125",31,1,0.1,2,"stim/objects/HouseObjects/scale4.png","stim/24.jpeg",2,4,"stim/24.jpeg",2,"right",0.691999912,2,2,0.888999939,2,0.423999786,125,0,0,NA,1,NA,1
"126",31,2,0,2,"stim/objects/HouseObjects/basket.png","",0,0,"",0,"right",0.677999735,NA,NA,NA,NA,NA,126,1,NA,NA,NA,NA,1
"127",31,2,0,2,"stim/objects/HouseObjects/rug.png","",0,0,"",0,"right",0.835999727,NA,NA,NA,NA,NA,127,1,NA,NA,NA,NA,1
"128",31,1,0.3,2,"stim/objects/HouseObjects/clothespin4.png","stim/64.jpeg",6,4,"stim/64.jpeg",1,"left",0.906999826,3,2,3.306999922,1,1.058999777,128,1,0,0,1,1,1
"129",31,2,0,1,"stim/objects/Instruments/accordion.png","",0,0,"",0,"right",0.9599998,NA,NA,NA,NA,NA,129,1,NA,NA,NA,NA,1
"130",31,1,0.9,2,"stim/objects/HouseObjects/lintroller4.png","stim/14.jpeg",1,4,"stim/14.jpeg",4,"right",0.890000105,2,1,0.919999838,2,0.674999952,130,0,0,NA,0,NA,1
"131",31,1,0.9,2,"stim/objects/HouseObjects/match4.png","stim/11.jpeg",1,1,"stim/11.jpeg",2,"right",0.760999918,2,2,0.773000002,2,1.48699975,131,0,0,NA,1,NA,1
"132",31,2,0,2,"stim/objects/HouseObjects/safetypin.png","",0,0,"",0,"right",0.964999914,NA,NA,NA,NA,NA,132,1,NA,NA,NA,NA,1
"133",31,2,0,1,"stim/objects/Instruments/musicsheet.png","",0,0,"",0,"right",1.90199995,NA,NA,NA,NA,NA,133,1,NA,NA,NA,NA,1
"134",31,1,0.1,1,"stim/objects/Instruments/record_player4.png","stim/11.jpeg",1,1,"stim/11.jpeg",1,"right",1.105999947,3,2,0.572999954,1,0.639999866,134,0,0,NA,1,NA,1
"135",31,1,0.5,2,"stim/objects/Instruments/timbal3.png","stim/43.jpeg",4,3,"stim/43.jpeg",1,"left",2.230999947,3,3,1.60800004,1,0.76699996,135,1,1,1,1,1,1
"136",31,1,0.5,1,"stim/objects/Instruments/record_player3.png","stim/32.jpeg",3,2,"stim/32.jpeg",1,"right",1.727999926,2,1,0.541999817,1,0.599999905,136,0,0,NA,1,NA,1
"137",31,1,0.7,2,"stim/objects/HouseObjects/ashtray4.png","stim/53.jpeg",5,3,"stim/53.jpeg",3,"left",2.06099987,3,4,2.807999849,2,0.356999874,137,1,0,0,0,0,1
"138",31,2,0,2,"stim/objects/HouseObjects/ironingboard.png","",0,0,"",0,"right",1.09800005,NA,NA,NA,NA,NA,138,1,NA,NA,NA,NA,1
"139",31,1,0.5,1,"stim/objects/HouseObjects/remote3.png","stim/33.jpeg",3,3,"stim/33.jpeg",2,"left",2.006999969,2,3,3.907999992,1,0.249999762,139,1,1,1,0,0,1
"140",31,2,0,2,"stim/objects/HouseObjects/clock.png","",0,0,"",0,"right",0.758999825,NA,NA,NA,NA,NA,140,1,NA,NA,NA,NA,1
"141",31,2,0,2,"stim/objects/HouseObjects/iron.png","",0,0,"",0,"right",0.68599987,NA,NA,NA,NA,NA,141,1,NA,NA,NA,NA,1
"142",31,1,0.9,1,"stim/objects/Instruments/xylophone4.png","stim/22.jpeg",2,2,"stim/22.jpeg",4,"right",0.589999914,2,1,1.207999945,1,0.704999924,142,0,0,NA,0,NA,1
"143",31,2,0,2,"stim/objects/HouseObjects/barbecuelighter.png","",0,0,"",0,"right",0.732000113,NA,NA,NA,NA,NA,143,1,NA,NA,NA,NA,1
"144",31,2,0,2,"stim/objects/HouseObjects/ironingboard2.png","",0,0,"",0,"right",0.990999937,NA,NA,NA,NA,NA,144,1,NA,NA,NA,NA,1
"145",31,2,0,2,"stim/objects/HouseObjects/sponge.png","",0,0,"",0,"right",0.605000019,NA,NA,NA,NA,NA,145,1,NA,NA,NA,NA,1
"146",31,1,0.1,1,"stim/objects/Instruments/record4.png","stim/14.jpeg",1,4,"stim/14.jpeg",3,"left",1.057999849,4,2,1.605000019,3,1.273000002,146,1,0,0,1,1,1
"147",31,2,0,1,"stim/objects/Instruments/tuba.png","",0,0,"",0,"left",1.111000061,NA,NA,NA,NA,NA,147,0,NA,NA,NA,NA,1
"148",31,1,0.5,1,"stim/objects/Instruments/pipepiano3.png","stim/34.jpeg",3,4,"stim/34.jpeg",2,"left",0.836999893,4,2,2.976999998,2,0.984999895,148,1,0,0,1,1,1
"149",31,2,0,1,"stim/objects/Instruments/tambourine.png","",0,0,"",0,"right",0.713000059,NA,NA,NA,NA,NA,149,1,NA,NA,NA,NA,1
"150",31,1,0.1,1,"stim/objects/Instruments/oboe4.png","stim/11.jpeg",1,1,"stim/11.jpeg",4,"left",0.958999872,3,1,1.517999887,2,0.769999743,150,1,1,1,0,0,1
"151",31,2,0,2,"stim/objects/HouseObjects/wateringcan.png","",0,0,"",0,"right",0.848999977,NA,NA,NA,NA,NA,151,1,NA,NA,NA,NA,1
"152",31,1,0.9,2,"stim/objects/HouseObjects/rubbergloves4.png","stim/12.jpeg",1,2,"stim/12.jpeg",2,"right",0.66899991,2,1,1.45600009,3,0.856999874,152,0,0,NA,0,NA,1
"153",31,2,0,1,"stim/objects/Instruments/chime.png","",0,0,"",0,"right",0.678999901,NA,NA,NA,NA,NA,153,1,NA,NA,NA,NA,1
"154",31,1,0.5,2,"stim/objects/HouseObjects/saw3.png","stim/44.jpeg",4,4,"stim/44.jpeg",2,"right",0.90899992,2,1,0.857000113,1,0.353999853,154,0,0,NA,0,NA,1
"155",31,1,0.1,1,"stim/objects/Instruments/saxophone4.png","stim/12.jpeg",1,2,"stim/12.jpeg",4,"left",1.758999825,2,2,0.77699995,1,0.441999912,155,1,1,1,0,0,1
"156",31,1,0.3,1,"stim/objects/Instruments/acousticguitar4.png","stim/53.jpeg",5,3,"stim/53.jpeg",3,"right",0.960999966,1,1,0.907999992,1,0.595000029,156,0,0,NA,0,NA,1
"157",31,1,0.3,1,"stim/objects/Instruments/tuba3.png","stim/52.jpeg",5,2,"stim/52.jpeg",4,"left",1.707999945,3,3,1.77699995,2,1.875999928,157,1,0,0,0,0,1
"158",31,2,0,1,"stim/objects/Instruments/bassdrum2.png","",0,0,"",0,"right",0.691999912,NA,NA,NA,NA,NA,158,1,NA,NA,NA,NA,1
"159",31,1,0.3,2,"stim/objects/HouseObjects/bottle4.png","stim/63.jpeg",6,3,"stim/63.jpeg",2,"left",0.891000032,4,2,3.008999825,2,0.40899992,159,1,0,0,1,1,1
"160",31,1,0.9,1,"stim/objects/Instruments/trumpet4.png","stim/22.jpeg",2,2,"stim/22.jpeg",4,"right",0.828999996,1,3,2.24000001,2,0.424000025,160,0,0,NA,0,NA,1
"161",31,2,0,1,"stim/objects/Instruments/clarinet.png","",0,0,"",0,"right",0.879999876,NA,NA,NA,NA,NA,161,1,NA,NA,NA,NA,1
"162",31,2,0,1,"stim/objects/Instruments/balalaika2.png","",0,0,"",0,"left",1.352999926,NA,NA,NA,NA,NA,162,0,NA,NA,NA,NA,1
"163",31,2,0,1,"stim/objects/Instruments/musicstand.png","",0,0,"",0,"right",0.807999849,NA,NA,NA,NA,NA,163,1,NA,NA,NA,NA,1
"164",31,2,0,2,"stim/objects/HouseObjects/blender2.png","",0,0,"",0,"right",0.587999821,NA,NA,NA,NA,NA,164,1,NA,NA,NA,NA,1
"165",31,1,0.3,2,"stim/objects/HouseObjects/clock4.png","stim/62.jpeg",6,2,"stim/62.jpeg",2,"right",0.572000027,4,1,0.723999977,1,0.575999975,165,0,0,NA,0,NA,1
"166",31,1,0.9,2,"stim/objects/HouseObjects/pitcher4.png","stim/13.jpeg",1,3,"stim/13.jpeg",3,"right",2.159999847,1,1,0.737999916,2,1.034999847,166,0,0,NA,0,NA,1
"167",31,2,0,2,"stim/objects/HouseObjects/clothespin2.png","",0,0,"",0,"right",0.775999784,NA,NA,NA,NA,NA,167,1,NA,NA,NA,NA,1
"168",31,2,0,2,"stim/objects/HouseObjects/basket2.png","",0,0,"",0,"right",0.573999882,NA,NA,NA,NA,NA,168,1,NA,NA,NA,NA,1
"169",31,2,0,2,"stim/objects/HouseObjects/thermometer.png","",0,0,"",0,"right",0.557999849,NA,NA,NA,NA,NA,169,1,NA,NA,NA,NA,1
"170",31,1,0.7,2,"stim/objects/HouseObjects/barbecuelighter4.png","stim/51.jpeg",5,1,"stim/51.jpeg",4,"left",1.114000082,4,2,2.572999954,3,1.64199996,170,1,0,0,0,0,1
"171",31,2,0,2,"stim/objects/HouseObjects/blender.png","",0,0,"",0,"right",1.358999729,NA,NA,NA,NA,NA,171,1,NA,NA,NA,NA,1
"172",31,1,0.5,1,"stim/objects/Instruments/record3.png","stim/31.jpeg",3,1,"stim/31.jpeg",4,"left",0.856999874,2,1,1.27699995,1,1.235000134,172,1,1,1,0,0,1
"173",31,1,0.1,2,"stim/objects/HouseObjects/teapot4.png","stim/23.jpeg",2,3,"stim/23.jpeg",2,"right",0.606999874,4,1,1.023999929,1,0.43599987,173,0,0,NA,0,NA,1
"174",31,1,0.7,2,"stim/objects/HouseObjects/wateringcan3.png","stim/52.jpeg",5,2,"stim/52.jpeg",4,"right",0.626999855,1,1,0.639999866,1,0.806999922,174,0,0,NA,0,NA,1
"175",31,1,0.5,1,"stim/objects/Instruments/panflute3.png","stim/33.jpeg",3,3,"stim/33.jpeg",2,"right",2.179000139,1,1,0.906000137,2,0.541999817,175,0,0,NA,1,NA,1
"176",31,2,0,1,"stim/objects/Instruments/keyboard2.png","",0,0,"",0,"right",1.491999865,NA,NA,NA,NA,NA,176,1,NA,NA,NA,NA,1
"177",31,1,0.5,1,"stim/objects/HouseObjects/recyclingbin3.png","stim/32.jpeg",3,2,"stim/32.jpeg",3,"right",0.605999947,2,2,1.057999849,1,0.374999762,177,0,1,NA,0,NA,1
"178",31,2,0,2,"stim/objects/HouseObjects/rubbergloves.png","",0,0,"",0,"right",1.064999819,NA,NA,NA,NA,NA,178,1,NA,NA,NA,NA,1
"179",31,2,0,1,"stim/objects/Instruments/doublebass2.png","",0,0,"",0,"left",0.938999891,NA,NA,NA,NA,NA,179,0,NA,NA,NA,NA,1
"180",31,2,0,1,"stim/objects/Instruments/cornet.png","",0,0,"",0,"left",0.923999786,NA,NA,NA,NA,NA,180,0,NA,NA,NA,NA,1
"181",31,1,0.5,1,"stim/objects/HouseObjects/rubbergloves3.png","stim/34.jpeg",3,4,"stim/34.jpeg",3,"right",0.635999918,3,1,0.56099987,2,0.703999996,181,0,0,NA,0,NA,1
"182",31,2,0,1,"stim/objects/Instruments/keyboard.png","",0,0,"",0,"right",0.792999983,NA,NA,NA,NA,NA,182,1,NA,NA,NA,NA,1
"183",31,2,0,1,"stim/objects/Instruments/cornet2.png","",0,0,"",0,"right",1.135999918,NA,NA,NA,NA,NA,183,1,NA,NA,NA,NA,1
"184",31,1,0.1,1,"stim/objects/Instruments/musicsheet4.png","stim/13.jpeg",1,3,"stim/13.jpeg",1,"right",1.036999941,2,1,0.539999962,2,0.444999933,184,0,0,NA,0,NA,1
"185",31,2,0,1,"stim/objects/Instruments/panflute.png","",0,0,"",0,"right",1.059999943,NA,NA,NA,NA,NA,185,1,NA,NA,NA,NA,1
"186",31,2,0,1,"stim/objects/Instruments/xylophone.png","",0,0,"",0,"right",0.657000065,NA,NA,NA,NA,NA,186,1,NA,NA,NA,NA,1
"187",31,1,0.3,1,"stim/objects/Instruments/banjo4.png","stim/51.jpeg",5,1,"stim/51.jpeg",3,"right",0.806999922,2,1,0.77699995,1,0.302999973,187,0,1,NA,0,NA,1
"188",31,1,0.1,2,"stim/objects/HouseObjects/spraybottle4.png","stim/22.jpeg",2,2,"stim/22.jpeg",1,"right",0.997999907,1,2,0.555999994,1,0.691999912,188,0,1,NA,1,NA,1
"189",31,2,0,2,"stim/objects/HouseObjects/bleachbottle2.png","",0,0,"",0,"right",0.960000038,NA,NA,NA,NA,NA,189,1,NA,NA,NA,NA,1
"190",31,1,0.9,1,"stim/objects/Instruments/tuba4.png","stim/23.jpeg",2,3,"stim/23.jpeg",3,"right",1.125999928,2,1,0.64199996,2,0.49000001,190,0,0,NA,0,NA,1
"191",31,2,0,1,"stim/objects/Instruments/timbal.png","",0,0,"",0,"right",0.924999714,NA,NA,NA,NA,NA,191,1,NA,NA,NA,NA,1
"192",31,2,0,2,"stim/objects/HouseObjects/vacuumcleaner.png","",0,0,"",0,"right",0.957999945,NA,NA,NA,NA,NA,192,1,NA,NA,NA,NA,1
"193",31,2,0,2,"stim/objects/HouseObjects/lintroller.png","",0,0,"",0,"right",0.936999798,NA,NA,NA,NA,NA,193,1,NA,NA,NA,NA,1
"194",31,1,0.1,1,"stim/objects/Instruments/pipepiano4.png","stim/13.jpeg",1,3,"stim/13.jpeg",3,"left",3.924000025,2,2,1.359999895,2,0.907999754,194,1,0,0,0,0,1
"195",31,2,0,1,"stim/objects/Instruments/cymbal.png","",0,0,"",0,"right",0.792999983,NA,NA,NA,NA,NA,195,1,NA,NA,NA,NA,1
"196",31,2,0,2,"stim/objects/HouseObjects/clock2.png","",0,0,"",0,"right",0.67599988,NA,NA,NA,NA,NA,196,1,NA,NA,NA,NA,1
"197",31,1,0.1,2,"stim/objects/HouseObjects/wateringcan4.png","stim/24.jpeg",2,4,"stim/24.jpeg",4,"right",0.822000027,3,2,0.60800004,1,0.520999908,197,0,0,NA,0,NA,1
"198",31,1,0.9,2,"stim/objects/HouseObjects/rug4.png","stim/13.jpeg",1,3,"stim/13.jpeg",2,"left",2.345999956,3,2,0.955999851,1,0.539999962,198,1,0,0,0,0,1
"199",31,2,0,1,"stim/objects/Instruments/oboe.png","",0,0,"",0,"left",1.292999744,NA,NA,NA,NA,NA,199,0,NA,NA,NA,NA,1
"200",31,2,0,2,"stim/objects/HouseObjects/match.png","",0,0,"",0,"right",0.970999956,NA,NA,NA,NA,NA,200,1,NA,NA,NA,NA,1
