"","obj_file","X.x","participant.x","trialN.x","trial_cond","scn_file.x","scn_cat","scn_inst","scn_condition","fillers","obj_cat","obj_cat_num","quadrant","corr_ans","key_resp_trial.keys","key_resp_trial.rt","trial_acc","trial_acc_manual","group.x","practice","X.y","participant.y","OvsN","PE_level","object_cat","scn_file.y","corr_scn_cat","corr_scn_inst","scn_file.1","corr_loc","key_resp_id.keys","key_resp_id.rt","key_resp_conf.keys","key_resp_assoc.keys","key_resp_assoc.rt","key_resp_loc.keys","key_resp_loc.rt","trialN.y","id_acc","assoc.acc","cond_assoc","loc.acc","cond_loc","group.y"
"157","stim/objects/Instruments/flute.png",1,31,1,0.5,"stim/34.jpeg",3,4,1,NA,"Instruments",1,3,"left","",NA,0,0,1,1,NA,NA,NA,NA,NA,NA,NA,NA,NA,NA,NA,NA,NA,NA,NA,NA,NA,NA,NA,NA,NA,NA,NA,NA
"80","stim/objects/HouseObjects/glass2.png",2,31,2,0.9,"stim/14.jpeg",1,4,3,NA,"HouseObjects",2,3,"right","",NA,0,0,1,1,NA,NA,NA,NA,NA,NA,NA,NA,NA,NA,NA,NA,NA,NA,NA,NA,NA,NA,NA,NA,NA,NA,NA,NA
"158","stim/objects/Instruments/flute.png",3,31,3,0.5,"stim/34.jpeg",3,4,1,NA,"Instruments",1,2,"left","left",0.777999878,1,1,1,1,NA,NA,NA,NA,NA,NA,NA,NA,NA,NA,NA,NA,NA,NA,NA,NA,NA,NA,NA,NA,NA,NA,NA,NA
"138","stim/objects/Instruments/electricdrumset2.png",4,31,4,0.7,"stim/62.jpeg",6,2,2,NA,"Instruments",1,3,"left","right",0.671999931,0,0,1,1,NA,NA,NA,NA,NA,NA,NA,NA,NA,NA,NA,NA,NA,NA,NA,NA,NA,NA,NA,NA,NA,NA,NA,NA
"196","stim/objects/Instruments/guitarcase2.png",5,31,5,0.9,"stim/21.jpeg",2,1,3,NA,"Instruments",1,2,"left","left",0.582999945,1,1,1,1,NA,NA,NA,NA,NA,NA,NA,NA,NA,NA,NA,NA,NA,NA,NA,NA,NA,NA,NA,NA,NA,NA,NA,NA
"169","stim/objects/Instruments/flutetrans.png",6,31,6,0.5,"stim/41.jpeg",4,1,1,NA,"Instruments",1,1,"left","left",0.687999964,1,1,1,1,NA,NA,NA,NA,NA,NA,NA,NA,NA,NA,NA,NA,NA,NA,NA,NA,NA,NA,NA,NA,NA,NA,NA,NA
"113","stim/objects/HouseObjects/handvacuum.png",7,31,7,0.7,"stim/54.jpeg",5,4,2,NA,"HouseObjects",2,3,"right","right",0.777000189,1,1,1,1,NA,NA,NA,NA,NA,NA,NA,NA,NA,NA,NA,NA,NA,NA,NA,NA,NA,NA,NA,NA,NA,NA,NA,NA
"220","stim/objects/Instruments/harp2.png",8,31,8,0.9,"stim/23.jpeg",2,3,3,NA,"Instruments",1,4,"left","left",0.549999952,1,1,1,1,NA,NA,NA,NA,NA,NA,NA,NA,NA,NA,NA,NA,NA,NA,NA,NA,NA,NA,NA,NA,NA,NA,NA,NA
"145","stim/objects/Instruments/electricguitar.png",9,31,9,0.5,"stim/33.jpeg",3,3,1,NA,"Instruments",1,4,"left","right",0.600999832,0,0,1,1,NA,NA,NA,NA,NA,NA,NA,NA,NA,NA,NA,NA,NA,NA,NA,NA,NA,NA,NA,NA,NA,NA,NA,NA
"170","stim/objects/Instruments/flutetrans.png",10,31,10,0.5,"stim/41.jpeg",4,1,1,NA,"Instruments",1,2,"left","right",0.634000063,0,0,1,1,NA,NA,NA,NA,NA,NA,NA,NA,NA,NA,NA,NA,NA,NA,NA,NA,NA,NA,NA,NA,NA,NA,NA,NA
"121","stim/objects/Instruments/drums.png",11,31,11,0.5,"stim/31.jpeg",3,1,1,NA,"Instruments",1,2,"left","left",0.643000126,1,1,1,1,NA,NA,NA,NA,NA,NA,NA,NA,NA,NA,NA,NA,NA,NA,NA,NA,NA,NA,NA,NA,NA,NA,NA,NA
"181","stim/objects/Instruments/gong.png",12,31,12,0.5,"stim/43.jpeg",4,3,1,NA,"Instruments",1,4,"left","left",0.755000114,1,1,1,1,NA,NA,NA,NA,NA,NA,NA,NA,NA,NA,NA,NA,NA,NA,NA,NA,NA,NA,NA,NA,NA,NA,NA,NA
"162","stim/objects/Instruments/flute2.png",13,31,13,0.7,"stim/64.jpeg",6,4,2,NA,"Instruments",1,4,"left","right",0.823999882,0,0,1,1,NA,NA,NA,NA,NA,NA,NA,NA,NA,NA,NA,NA,NA,NA,NA,NA,NA,NA,NA,NA,NA,NA,NA,NA
"126","stim/objects/Instruments/drums2.png",14,31,14,0.7,"stim/61.jpeg",6,1,2,NA,"Instruments",1,4,"left","left",0.661999941,1,1,1,1,NA,NA,NA,NA,NA,NA,NA,NA,NA,NA,NA,NA,NA,NA,NA,NA,NA,NA,NA,NA,NA,NA,NA,NA
"66","stim/objects/HouseObjects/garbagebin2.png",15,31,15,0.9,"stim/13.jpeg",1,3,3,NA,"HouseObjects",2,2,"right","right",0.671000004,1,1,1,1,NA,NA,NA,NA,NA,NA,NA,NA,NA,NA,NA,NA,NA,NA,NA,NA,NA,NA,NA,NA,NA,NA,NA,NA
"75","stim/objects/HouseObjects/glass.png",16,31,16,0.5,"stim/44.jpeg",4,4,1,NA,"HouseObjects",2,2,"right","left",0.613000154,0,0,1,1,NA,NA,NA,NA,NA,NA,NA,NA,NA,NA,NA,NA,NA,NA,NA,NA,NA,NA,NA,NA,NA,NA,NA,NA
"33","stim/objects/HouseObjects/dustpan.png",17,31,17,0.5,"stim/41.jpeg",4,1,1,NA,"HouseObjects",2,1,"right","left",0.684000015,0,0,1,1,NA,NA,NA,NA,NA,NA,NA,NA,NA,NA,NA,NA,NA,NA,NA,NA,NA,NA,NA,NA,NA,NA,NA,NA
"89","stim/objects/HouseObjects/glassmop.png",18,31,18,0.7,"stim/51.jpeg",5,1,2,NA,"HouseObjects",2,4,"right","right",0.582000017,1,1,1,1,NA,NA,NA,NA,NA,NA,NA,NA,NA,NA,NA,NA,NA,NA,NA,NA,NA,NA,NA,NA,NA,NA,NA,NA
"127","stim/objects/Instruments/drums2.png",19,31,19,0.7,"stim/61.jpeg",6,1,2,NA,"Instruments",1,4,"left","left",0.855000019,1,1,1,1,NA,NA,NA,NA,NA,NA,NA,NA,NA,NA,NA,NA,NA,NA,NA,NA,NA,NA,NA,NA,NA,NA,NA,NA
"67","stim/objects/HouseObjects/garbagebin2.png",20,31,20,0.9,"stim/13.jpeg",1,3,3,NA,"HouseObjects",2,2,"right","right",0.654999971,1,1,1,1,NA,NA,NA,NA,NA,NA,NA,NA,NA,NA,NA,NA,NA,NA,NA,NA,NA,NA,NA,NA,NA,NA,NA,NA
"76","stim/objects/HouseObjects/glass.png",21,31,21,0.5,"stim/44.jpeg",4,4,1,NA,"HouseObjects",2,3,"right","left",0.717999935,0,0,1,1,NA,NA,NA,NA,NA,NA,NA,NA,NA,NA,NA,NA,NA,NA,NA,NA,NA,NA,NA,NA,NA,NA,NA,NA
"197","stim/objects/Instruments/guitarcase2.png",22,31,22,0.9,"stim/21.jpeg",2,1,3,NA,"Instruments",1,1,"left","left",0.581999779,1,1,1,1,NA,NA,NA,NA,NA,NA,NA,NA,NA,NA,NA,NA,NA,NA,NA,NA,NA,NA,NA,NA,NA,NA,NA,NA
"229","stim/objects/Instruments/hihat.png",23,31,23,0.3,"stim/54.jpeg",5,4,2,NA,"Instruments",1,2,"left","right",0.595999956,0,0,1,1,NA,NA,NA,NA,NA,NA,NA,NA,NA,NA,NA,NA,NA,NA,NA,NA,NA,NA,NA,NA,NA,NA,NA,NA
"52","stim/objects/HouseObjects/flyswatter2.png",24,31,24,0.9,"stim/12.jpeg",1,2,3,NA,"HouseObjects",2,1,"right","right",0.556999922,1,1,1,1,NA,NA,NA,NA,NA,NA,NA,NA,NA,NA,NA,NA,NA,NA,NA,NA,NA,NA,NA,NA,NA,NA,NA,NA
"159","stim/objects/Instruments/flute.png",25,31,25,0.5,"stim/34.jpeg",3,4,1,NA,"Instruments",1,2,"left","left",0.60800004,1,1,1,1,NA,NA,NA,NA,NA,NA,NA,NA,NA,NA,NA,NA,NA,NA,NA,NA,NA,NA,NA,NA,NA,NA,NA,NA
"1","stim/objects/HouseObjects/coffee.png",26,31,26,0.5,"stim/31.jpeg",3,1,1,NA,"HouseObjects",2,4,"right","",NA,0,0,1,1,NA,NA,NA,NA,NA,NA,NA,NA,NA,NA,NA,NA,NA,NA,NA,NA,NA,NA,NA,NA,NA,NA,NA,NA
"9","stim/objects/HouseObjects/cushion.png",27,31,27,0.5,"stim/32.jpeg",3,2,1,NA,"HouseObjects",2,1,"right","left",0.752999783,0,0,1,1,NA,NA,NA,NA,NA,NA,NA,NA,NA,NA,NA,NA,NA,NA,NA,NA,NA,NA,NA,NA,NA,NA,NA,NA
"182","stim/objects/Instruments/gong.png",28,31,28,0.5,"stim/43.jpeg",4,3,1,NA,"Instruments",1,1,"left","right",0.881999969,0,0,1,1,NA,NA,NA,NA,NA,NA,NA,NA,NA,NA,NA,NA,NA,NA,NA,NA,NA,NA,NA,NA,NA,NA,NA,NA
"53","stim/objects/HouseObjects/flyswatter2.png",29,31,29,0.9,"stim/12.jpeg",1,2,3,NA,"HouseObjects",2,2,"right","right",0.648999929,1,1,1,1,NA,NA,NA,NA,NA,NA,NA,NA,NA,NA,NA,NA,NA,NA,NA,NA,NA,NA,NA,NA,NA,NA,NA,NA
"6","stim/objects/HouseObjects/coffee2.png",30,31,30,0.3,"stim/61.jpeg",6,1,2,NA,"HouseObjects",2,2,"right","right",0.482999802,1,1,1,1,NA,NA,NA,NA,NA,NA,NA,NA,NA,NA,NA,NA,NA,NA,NA,NA,NA,NA,NA,NA,NA,NA,NA,NA
"198","stim/objects/Instruments/guitarcase2.png",31,31,31,0.9,"stim/21.jpeg",2,1,3,NA,"Instruments",1,2,"left","left",0.553999901,1,1,1,1,NA,NA,NA,NA,NA,NA,NA,NA,NA,NA,NA,NA,NA,NA,NA,NA,NA,NA,NA,NA,NA,NA,NA,NA
"68","stim/objects/HouseObjects/garbagebin2.png",32,31,32,0.9,"stim/13.jpeg",1,3,3,NA,"HouseObjects",2,3,"right","right",0.638000011,1,1,1,1,NA,NA,NA,NA,NA,NA,NA,NA,NA,NA,NA,NA,NA,NA,NA,NA,NA,NA,NA,NA,NA,NA,NA,NA
"150","stim/objects/Instruments/electricguitar2.png",33,31,33,0.7,"stim/63.jpeg",6,3,2,NA,"Instruments",1,2,"left","left",0.684999943,1,1,1,1,NA,NA,NA,NA,NA,NA,NA,NA,NA,NA,NA,NA,NA,NA,NA,NA,NA,NA,NA,NA,NA,NA,NA,NA
"193","stim/objects/Instruments/guitarcase.png",34,31,34,0.3,"stim/51.jpeg",5,1,2,NA,"Instruments",1,3,"left","right",0.570000172,0,0,1,1,NA,NA,NA,NA,NA,NA,NA,NA,NA,NA,NA,NA,NA,NA,NA,NA,NA,NA,NA,NA,NA,NA,NA,NA
"217","stim/objects/Instruments/harp.png",35,31,35,0.3,"stim/53.jpeg",5,3,2,NA,"Instruments",1,1,"left","right",0.51699996,0,0,1,1,NA,NA,NA,NA,NA,NA,NA,NA,NA,NA,NA,NA,NA,NA,NA,NA,NA,NA,NA,NA,NA,NA,NA,NA
"38","stim/objects/HouseObjects/dustpan2.png",36,31,36,0.9,"stim/11.jpeg",1,1,3,NA,"HouseObjects",2,3,"right","right",0.561000109,1,1,1,1,NA,NA,NA,NA,NA,NA,NA,NA,NA,NA,NA,NA,NA,NA,NA,NA,NA,NA,NA,NA,NA,NA,NA,NA
"61","stim/objects/HouseObjects/garbagebin.png",37,31,37,0.5,"stim/43.jpeg",4,3,1,NA,"HouseObjects",2,1,"right","left",0.751000166,0,0,1,1,NA,NA,NA,NA,NA,NA,NA,NA,NA,NA,NA,NA,NA,NA,NA,NA,NA,NA,NA,NA,NA,NA,NA,NA
"54","stim/objects/HouseObjects/flyswatter2.png",38,31,38,0.9,"stim/12.jpeg",1,2,3,NA,"HouseObjects",2,4,"right","right",0.542000055,1,1,1,1,NA,NA,NA,NA,NA,NA,NA,NA,NA,NA,NA,NA,NA,NA,NA,NA,NA,NA,NA,NA,NA,NA,NA,NA
"90","stim/objects/HouseObjects/glassmop.png",39,31,39,0.7,"stim/51.jpeg",5,1,2,NA,"HouseObjects",2,3,"right","left",0.75,0,0,1,1,NA,NA,NA,NA,NA,NA,NA,NA,NA,NA,NA,NA,NA,NA,NA,NA,NA,NA,NA,NA,NA,NA,NA,NA
"175","stim/objects/Instruments/frenchhorn.png",40,31,40,0.5,"stim/42.jpeg",4,2,1,NA,"Instruments",1,2,"left","right",0.534999847,0,0,1,1,NA,NA,NA,NA,NA,NA,NA,NA,NA,NA,NA,NA,NA,NA,NA,NA,NA,NA,NA,NA,NA,NA,NA,NA
"17","stim/objects/HouseObjects/dishsoap.png",41,31,41,0.5,"stim/33.jpeg",3,3,1,NA,"HouseObjects",2,2,"right","left",0.849999905,0,0,1,1,NA,NA,NA,NA,NA,NA,NA,NA,NA,NA,NA,NA,NA,NA,NA,NA,NA,NA,NA,NA,NA,NA,NA,NA
"163","stim/objects/Instruments/flute2.png",42,31,42,0.7,"stim/64.jpeg",6,4,2,NA,"Instruments",1,4,"left","left",0.684000015,1,1,1,1,NA,NA,NA,NA,NA,NA,NA,NA,NA,NA,NA,NA,NA,NA,NA,NA,NA,NA,NA,NA,NA,NA,NA,NA
"105","stim/objects/HouseObjects/handbrush.png",43,31,43,0.7,"stim/53.jpeg",5,3,2,NA,"HouseObjects",2,1,"right","right",0.484999895,1,1,1,1,NA,NA,NA,NA,NA,NA,NA,NA,NA,NA,NA,NA,NA,NA,NA,NA,NA,NA,NA,NA,NA,NA,NA,NA
"39","stim/objects/HouseObjects/dustpan2.png",44,31,44,0.9,"stim/11.jpeg",1,1,3,NA,"HouseObjects",2,2,"right","right",0.664000034,1,1,1,1,NA,NA,NA,NA,NA,NA,NA,NA,NA,NA,NA,NA,NA,NA,NA,NA,NA,NA,NA,NA,NA,NA,NA,NA
"114","stim/objects/HouseObjects/handvacuum.png",45,31,45,0.7,"stim/54.jpeg",5,4,2,NA,"HouseObjects",2,1,"right","right",0.717999935,1,1,1,1,NA,NA,NA,NA,NA,NA,NA,NA,NA,NA,NA,NA,NA,NA,NA,NA,NA,NA,NA,NA,NA,NA,NA,NA
"232","stim/objects/Instruments/hihat2.png",46,31,46,0.9,"stim/24.jpeg",2,4,3,NA,"Instruments",1,4,"left","left",0.579999924,1,1,1,1,NA,NA,NA,NA,NA,NA,NA,NA,NA,NA,NA,NA,NA,NA,NA,NA,NA,NA,NA,NA,NA,NA,NA,NA
"91","stim/objects/HouseObjects/glassmop.png",47,31,47,0.7,"stim/51.jpeg",5,1,2,NA,"HouseObjects",2,4,"right","right",0.738000154,1,1,1,1,NA,NA,NA,NA,NA,NA,NA,NA,NA,NA,NA,NA,NA,NA,NA,NA,NA,NA,NA,NA,NA,NA,NA,NA
"25","stim/objects/HouseObjects/doormat.png",48,31,48,0.5,"stim/34.jpeg",3,4,1,NA,"HouseObjects",2,1,"right","left",0.701000214,0,0,1,1,NA,NA,NA,NA,NA,NA,NA,NA,NA,NA,NA,NA,NA,NA,NA,NA,NA,NA,NA,NA,NA,NA,NA,NA
"40","stim/objects/HouseObjects/dustpan2.png",49,31,49,0.9,"stim/11.jpeg",1,1,3,NA,"HouseObjects",2,2,"right","right",0.539999962,1,1,1,1,NA,NA,NA,NA,NA,NA,NA,NA,NA,NA,NA,NA,NA,NA,NA,NA,NA,NA,NA,NA,NA,NA,NA,NA
"97","stim/objects/HouseObjects/hairdryer.png",50,31,50,0.7,"stim/52.jpeg",5,2,2,NA,"HouseObjects",2,3,"right","left",0.786999941,0,0,1,1,NA,NA,NA,NA,NA,NA,NA,NA,NA,NA,NA,NA,NA,NA,NA,NA,NA,NA,NA,NA,NA,NA,NA,NA
"69","stim/objects/HouseObjects/garbagebin2.png",51,31,51,0.9,"stim/13.jpeg",1,3,3,NA,"HouseObjects",2,1,"right","right",0.565999985,1,1,1,1,NA,NA,NA,NA,NA,NA,NA,NA,NA,NA,NA,NA,NA,NA,NA,NA,NA,NA,NA,NA,NA,NA,NA,NA
"221","stim/objects/Instruments/harp2.png",52,31,52,0.9,"stim/23.jpeg",2,3,3,NA,"Instruments",1,1,"left","left",0.60800004,1,1,1,1,NA,NA,NA,NA,NA,NA,NA,NA,NA,NA,NA,NA,NA,NA,NA,NA,NA,NA,NA,NA,NA,NA,NA,NA
"81","stim/objects/HouseObjects/glass2.png",53,31,53,0.9,"stim/14.jpeg",1,4,3,NA,"HouseObjects",2,1,"right","right",0.556999922,1,1,1,1,NA,NA,NA,NA,NA,NA,NA,NA,NA,NA,NA,NA,NA,NA,NA,NA,NA,NA,NA,NA,NA,NA,NA,NA
"41","stim/objects/HouseObjects/dustpan2.png",54,31,54,0.9,"stim/11.jpeg",1,1,3,NA,"HouseObjects",2,4,"right","right",0.480000019,1,1,1,1,NA,NA,NA,NA,NA,NA,NA,NA,NA,NA,NA,NA,NA,NA,NA,NA,NA,NA,NA,NA,NA,NA,NA,NA
"151","stim/objects/Instruments/electricguitar2.png",55,31,55,0.7,"stim/63.jpeg",6,3,2,NA,"Instruments",1,1,"left","left",0.59100008,1,1,1,1,NA,NA,NA,NA,NA,NA,NA,NA,NA,NA,NA,NA,NA,NA,NA,NA,NA,NA,NA,NA,NA,NA,NA,NA
"176","stim/objects/Instruments/frenchhorn.png",56,31,56,0.5,"stim/42.jpeg",4,2,1,NA,"Instruments",1,3,"left","right",0.546999931,0,0,1,1,NA,NA,NA,NA,NA,NA,NA,NA,NA,NA,NA,NA,NA,NA,NA,NA,NA,NA,NA,NA,NA,NA,NA,NA
"139","stim/objects/Instruments/electricdrumset2.png",57,31,57,0.7,"stim/62.jpeg",6,2,2,NA,"Instruments",1,3,"left","left",0.625999928,1,1,1,1,NA,NA,NA,NA,NA,NA,NA,NA,NA,NA,NA,NA,NA,NA,NA,NA,NA,NA,NA,NA,NA,NA,NA,NA
"146","stim/objects/Instruments/electricguitar.png",58,31,58,0.5,"stim/33.jpeg",3,3,1,NA,"Instruments",1,1,"left","left",0.720000029,1,1,1,1,NA,NA,NA,NA,NA,NA,NA,NA,NA,NA,NA,NA,NA,NA,NA,NA,NA,NA,NA,NA,NA,NA,NA,NA
"98","stim/objects/HouseObjects/hairdryer.png",59,31,59,0.7,"stim/52.jpeg",5,2,2,NA,"HouseObjects",2,1,"right","right",0.81799984,1,1,1,1,NA,NA,NA,NA,NA,NA,NA,NA,NA,NA,NA,NA,NA,NA,NA,NA,NA,NA,NA,NA,NA,NA,NA,NA
"133","stim/objects/Instruments/electricdrumset.png",60,31,60,0.5,"stim/32.jpeg",3,2,1,NA,"Instruments",1,3,"left","left",0.654999971,1,1,1,1,NA,NA,NA,NA,NA,NA,NA,NA,NA,NA,NA,NA,NA,NA,NA,NA,NA,NA,NA,NA,NA,NA,NA,NA
"70","stim/objects/HouseObjects/garbagebin2.png",61,31,61,0.9,"stim/13.jpeg",1,3,3,NA,"HouseObjects",2,3,"right","right",0.556999922,1,1,1,1,NA,NA,NA,NA,NA,NA,NA,NA,NA,NA,NA,NA,NA,NA,NA,NA,NA,NA,NA,NA,NA,NA,NA,NA
"62","stim/objects/HouseObjects/garbagebin.png",62,31,62,0.5,"stim/43.jpeg",4,3,1,NA,"HouseObjects",2,3,"right","right",0.555999994,1,1,1,1,NA,NA,NA,NA,NA,NA,NA,NA,NA,NA,NA,NA,NA,NA,NA,NA,NA,NA,NA,NA,NA,NA,NA,NA
"187","stim/objects/Instruments/grandpiano.png",63,31,63,0.5,"stim/44.jpeg",4,4,1,NA,"Instruments",1,3,"left","right",0.585999966,0,0,1,1,NA,NA,NA,NA,NA,NA,NA,NA,NA,NA,NA,NA,NA,NA,NA,NA,NA,NA,NA,NA,NA,NA,NA,NA
"233","stim/objects/Instruments/hihat2.png",64,31,64,0.9,"stim/24.jpeg",2,4,3,NA,"Instruments",1,3,"left","left",0.618000031,1,1,1,1,NA,NA,NA,NA,NA,NA,NA,NA,NA,NA,NA,NA,NA,NA,NA,NA,NA,NA,NA,NA,NA,NA,NA,NA
"34","stim/objects/HouseObjects/dustpan.png",65,31,65,0.5,"stim/41.jpeg",4,1,1,NA,"HouseObjects",2,4,"right","right",0.5,1,1,1,1,NA,NA,NA,NA,NA,NA,NA,NA,NA,NA,NA,NA,NA,NA,NA,NA,NA,NA,NA,NA,NA,NA,NA,NA
"199","stim/objects/Instruments/guitarcase2.png",66,31,66,0.9,"stim/21.jpeg",2,1,3,NA,"Instruments",1,1,"left","left",0.548000097,1,1,1,1,NA,NA,NA,NA,NA,NA,NA,NA,NA,NA,NA,NA,NA,NA,NA,NA,NA,NA,NA,NA,NA,NA,NA,NA
"115","stim/objects/HouseObjects/handvacuum.png",67,31,67,0.7,"stim/54.jpeg",5,4,2,NA,"HouseObjects",2,4,"right","right",0.584000111,1,1,1,1,NA,NA,NA,NA,NA,NA,NA,NA,NA,NA,NA,NA,NA,NA,NA,NA,NA,NA,NA,NA,NA,NA,NA,NA
"47","stim/objects/HouseObjects/flyswatter.png",68,31,68,0.5,"stim/42.jpeg",4,2,1,NA,"HouseObjects",2,2,"right","right",0.494999886,1,1,1,1,NA,NA,NA,NA,NA,NA,NA,NA,NA,NA,NA,NA,NA,NA,NA,NA,NA,NA,NA,NA,NA,NA,NA,NA
"92","stim/objects/HouseObjects/glassmop.png",69,31,69,0.7,"stim/51.jpeg",5,1,2,NA,"HouseObjects",2,1,"right","",NA,0,0,1,1,NA,NA,NA,NA,NA,NA,NA,NA,NA,NA,NA,NA,NA,NA,NA,NA,NA,NA,NA,NA,NA,NA,NA,NA
"63","stim/objects/HouseObjects/garbagebin.png",70,31,70,0.5,"stim/43.jpeg",4,3,1,NA,"HouseObjects",2,3,"right","right",0.67200017,1,1,1,1,NA,NA,NA,NA,NA,NA,NA,NA,NA,NA,NA,NA,NA,NA,NA,NA,NA,NA,NA,NA,NA,NA,NA,NA
"116","stim/objects/HouseObjects/handvacuum.png",71,31,71,0.7,"stim/54.jpeg",5,4,2,NA,"HouseObjects",2,4,"right","right",0.541999817,1,1,1,1,NA,NA,NA,NA,NA,NA,NA,NA,NA,NA,NA,NA,NA,NA,NA,NA,NA,NA,NA,NA,NA,NA,NA,NA
"82","stim/objects/HouseObjects/glass2.png",72,31,72,0.9,"stim/14.jpeg",1,4,3,NA,"HouseObjects",2,4,"right","right",0.584000111,1,1,1,1,NA,NA,NA,NA,NA,NA,NA,NA,NA,NA,NA,NA,NA,NA,NA,NA,NA,NA,NA,NA,NA,NA,NA,NA
"22","stim/objects/HouseObjects/dishsoap2.png",73,31,73,0.3,"stim/63.jpeg",6,3,2,NA,"HouseObjects",2,4,"right","right",0.51699996,1,1,1,1,NA,NA,NA,NA,NA,NA,NA,NA,NA,NA,NA,NA,NA,NA,NA,NA,NA,NA,NA,NA,NA,NA,NA,NA
"10","stim/objects/HouseObjects/cushion.png",74,31,74,0.5,"stim/32.jpeg",3,2,1,NA,"HouseObjects",2,3,"right","left",0.525000095,0,0,1,1,NA,NA,NA,NA,NA,NA,NA,NA,NA,NA,NA,NA,NA,NA,NA,NA,NA,NA,NA,NA,NA,NA,NA,NA
"77","stim/objects/HouseObjects/glass.png",75,31,75,0.5,"stim/44.jpeg",4,4,1,NA,"HouseObjects",2,1,"right","right",0.741999865,1,1,1,1,NA,NA,NA,NA,NA,NA,NA,NA,NA,NA,NA,NA,NA,NA,NA,NA,NA,NA,NA,NA,NA,NA,NA,NA
"48","stim/objects/HouseObjects/flyswatter.png",76,31,76,0.5,"stim/42.jpeg",4,2,1,NA,"HouseObjects",2,4,"right","right",0.475999832,1,1,1,1,NA,NA,NA,NA,NA,NA,NA,NA,NA,NA,NA,NA,NA,NA,NA,NA,NA,NA,NA,NA,NA,NA,NA,NA
"122","stim/objects/Instruments/drums.png",77,31,77,0.5,"stim/31.jpeg",3,1,1,NA,"Instruments",1,1,"left","left",0.569999933,1,1,1,1,NA,NA,NA,NA,NA,NA,NA,NA,NA,NA,NA,NA,NA,NA,NA,NA,NA,NA,NA,NA,NA,NA,NA,NA
"99","stim/objects/HouseObjects/hairdryer.png",78,31,78,0.7,"stim/52.jpeg",5,2,2,NA,"HouseObjects",2,3,"right","right",0.417999983,1,1,1,1,NA,NA,NA,NA,NA,NA,NA,NA,NA,NA,NA,NA,NA,NA,NA,NA,NA,NA,NA,NA,NA,NA,NA,NA
"222","stim/objects/Instruments/harp2.png",79,31,79,0.9,"stim/23.jpeg",2,3,3,NA,"Instruments",1,1,"left","left",0.645999908,1,1,1,1,NA,NA,NA,NA,NA,NA,NA,NA,NA,NA,NA,NA,NA,NA,NA,NA,NA,NA,NA,NA,NA,NA,NA,NA
"120","stim/objects/HouseObjects/handvacuum2.png",80,31,80,0.1,"stim/24.jpeg",2,4,3,NA,"HouseObjects",2,3,"right","left",0.548000097,0,0,1,1,NA,NA,NA,NA,NA,NA,NA,NA,NA,NA,NA,NA,NA,NA,NA,NA,NA,NA,NA,NA,NA,NA,NA,NA
"71","stim/objects/HouseObjects/garbagebin2.png",81,31,81,0.9,"stim/13.jpeg",1,3,3,NA,"HouseObjects",2,1,"right","right",0.450999975,1,1,1,1,NA,NA,NA,NA,NA,NA,NA,NA,NA,NA,NA,NA,NA,NA,NA,NA,NA,NA,NA,NA,NA,NA,NA,NA
"128","stim/objects/Instruments/drums2.png",82,31,82,0.7,"stim/61.jpeg",6,1,2,NA,"Instruments",1,2,"left","left",0.655999899,1,1,1,1,NA,NA,NA,NA,NA,NA,NA,NA,NA,NA,NA,NA,NA,NA,NA,NA,NA,NA,NA,NA,NA,NA,NA,NA
"14","stim/objects/HouseObjects/cushion2.png",83,31,83,0.3,"stim/62.jpeg",6,2,2,NA,"HouseObjects",2,4,"right","right",0.76699996,1,1,1,1,NA,NA,NA,NA,NA,NA,NA,NA,NA,NA,NA,NA,NA,NA,NA,NA,NA,NA,NA,NA,NA,NA,NA,NA
"171","stim/objects/Instruments/flutetrans.png",84,31,84,0.5,"stim/41.jpeg",4,1,1,NA,"Instruments",1,4,"left","right",0.626999855,0,0,1,1,NA,NA,NA,NA,NA,NA,NA,NA,NA,NA,NA,NA,NA,NA,NA,NA,NA,NA,NA,NA,NA,NA,NA,NA
"188","stim/objects/Instruments/grandpiano.png",85,31,85,0.5,"stim/44.jpeg",4,4,1,NA,"Instruments",1,4,"left","right",0.532999992,0,0,1,1,NA,NA,NA,NA,NA,NA,NA,NA,NA,NA,NA,NA,NA,NA,NA,NA,NA,NA,NA,NA,NA,NA,NA,NA
"23","stim/objects/HouseObjects/dishsoap2.png",86,31,86,0.3,"stim/63.jpeg",6,3,2,NA,"HouseObjects",2,2,"right","left",0.73300004,0,0,1,1,NA,NA,NA,NA,NA,NA,NA,NA,NA,NA,NA,NA,NA,NA,NA,NA,NA,NA,NA,NA,NA,NA,NA,NA
"106","stim/objects/HouseObjects/handbrush.png",87,31,87,0.7,"stim/53.jpeg",5,3,2,NA,"HouseObjects",2,3,"right","right",0.470000029,1,1,1,1,NA,NA,NA,NA,NA,NA,NA,NA,NA,NA,NA,NA,NA,NA,NA,NA,NA,NA,NA,NA,NA,NA,NA,NA
"49","stim/objects/HouseObjects/flyswatter.png",88,31,88,0.5,"stim/42.jpeg",4,2,1,NA,"HouseObjects",2,2,"right","right",0.451999903,1,1,1,1,NA,NA,NA,NA,NA,NA,NA,NA,NA,NA,NA,NA,NA,NA,NA,NA,NA,NA,NA,NA,NA,NA,NA,NA
"7","stim/objects/HouseObjects/coffee2.png",89,31,89,0.3,"stim/61.jpeg",6,1,2,NA,"HouseObjects",2,3,"right","right",0.75,1,1,1,1,NA,NA,NA,NA,NA,NA,NA,NA,NA,NA,NA,NA,NA,NA,NA,NA,NA,NA,NA,NA,NA,NA,NA,NA
"164","stim/objects/Instruments/flute2.png",90,31,90,0.7,"stim/64.jpeg",6,4,2,NA,"Instruments",1,2,"left","left",0.834000111,1,1,1,1,NA,NA,NA,NA,NA,NA,NA,NA,NA,NA,NA,NA,NA,NA,NA,NA,NA,NA,NA,NA,NA,NA,NA,NA
"223","stim/objects/Instruments/harp2.png",91,31,91,0.9,"stim/23.jpeg",2,3,3,NA,"Instruments",1,4,"left","left",0.569000006,1,1,1,1,NA,NA,NA,NA,NA,NA,NA,NA,NA,NA,NA,NA,NA,NA,NA,NA,NA,NA,NA,NA,NA,NA,NA,NA
"147","stim/objects/Instruments/electricguitar.png",92,31,92,0.5,"stim/33.jpeg",3,3,1,NA,"Instruments",1,4,"left","left",0.738999844,1,1,1,1,NA,NA,NA,NA,NA,NA,NA,NA,NA,NA,NA,NA,NA,NA,NA,NA,NA,NA,NA,NA,NA,NA,NA,NA
"183","stim/objects/Instruments/gong.png",93,31,93,0.5,"stim/43.jpeg",4,3,1,NA,"Instruments",1,2,"left","right",0.450000048,0,0,1,1,NA,NA,NA,NA,NA,NA,NA,NA,NA,NA,NA,NA,NA,NA,NA,NA,NA,NA,NA,NA,NA,NA,NA,NA
"234","stim/objects/Instruments/hihat2.png",94,31,94,0.9,"stim/24.jpeg",2,4,3,NA,"Instruments",1,2,"left","left",0.549000025,1,1,1,1,NA,NA,NA,NA,NA,NA,NA,NA,NA,NA,NA,NA,NA,NA,NA,NA,NA,NA,NA,NA,NA,NA,NA,NA
"100","stim/objects/HouseObjects/hairdryer.png",95,31,95,0.7,"stim/52.jpeg",5,2,2,NA,"HouseObjects",2,3,"right","right",0.582000017,1,1,1,1,NA,NA,NA,NA,NA,NA,NA,NA,NA,NA,NA,NA,NA,NA,NA,NA,NA,NA,NA,NA,NA,NA,NA,NA
"83","stim/objects/HouseObjects/glass2.png",96,31,96,0.9,"stim/14.jpeg",1,4,3,NA,"HouseObjects",2,1,"right","right",0.569000006,1,1,1,1,NA,NA,NA,NA,NA,NA,NA,NA,NA,NA,NA,NA,NA,NA,NA,NA,NA,NA,NA,NA,NA,NA,NA,NA
"101","stim/objects/HouseObjects/hairdryer.png",97,31,97,0.7,"stim/52.jpeg",5,2,2,NA,"HouseObjects",2,2,"right","right",0.532000065,1,1,1,1,NA,NA,NA,NA,NA,NA,NA,NA,NA,NA,NA,NA,NA,NA,NA,NA,NA,NA,NA,NA,NA,NA,NA,NA
"152","stim/objects/Instruments/electricguitar2.png",98,31,98,0.7,"stim/63.jpeg",6,3,2,NA,"Instruments",1,3,"left","left",0.88499999,1,1,1,1,NA,NA,NA,NA,NA,NA,NA,NA,NA,NA,NA,NA,NA,NA,NA,NA,NA,NA,NA,NA,NA,NA,NA,NA
"140","stim/objects/Instruments/electricdrumset2.png",99,31,99,0.7,"stim/62.jpeg",6,2,2,NA,"Instruments",1,1,"left","right",0.437999964,0,0,1,1,NA,NA,NA,NA,NA,NA,NA,NA,NA,NA,NA,NA,NA,NA,NA,NA,NA,NA,NA,NA,NA,NA,NA,NA
"180","stim/objects/Instruments/frenchhorn2.png",100,31,100,0.1,"stim/12.jpeg",1,2,3,NA,"Instruments",1,3,"left","right",0.587000132,0,0,1,1,NA,NA,NA,NA,NA,NA,NA,NA,NA,NA,NA,NA,NA,NA,NA,NA,NA,NA,NA,NA,NA,NA,NA,NA
"64","stim/objects/HouseObjects/garbagebin.png",101,31,101,0.5,"stim/43.jpeg",4,3,1,NA,"HouseObjects",2,1,"right","left",0.868999958,0,0,1,1,NA,NA,NA,NA,NA,NA,NA,NA,NA,NA,NA,NA,NA,NA,NA,NA,NA,NA,NA,NA,NA,NA,NA,NA
"165","stim/objects/Instruments/flute2.png",102,31,102,0.7,"stim/64.jpeg",6,4,2,NA,"Instruments",1,2,"left","right",0.488000154,0,0,1,1,NA,NA,NA,NA,NA,NA,NA,NA,NA,NA,NA,NA,NA,NA,NA,NA,NA,NA,NA,NA,NA,NA,NA,NA
"194","stim/objects/Instruments/guitarcase.png",103,31,103,0.3,"stim/51.jpeg",5,1,2,NA,"Instruments",1,1,"left","right",0.728999853,0,0,1,1,NA,NA,NA,NA,NA,NA,NA,NA,NA,NA,NA,NA,NA,NA,NA,NA,NA,NA,NA,NA,NA,NA,NA,NA
"166","stim/objects/Instruments/flute2.png",104,31,104,0.7,"stim/64.jpeg",6,4,2,NA,"Instruments",1,1,"left","left",0.752000093,1,1,1,1,NA,NA,NA,NA,NA,NA,NA,NA,NA,NA,NA,NA,NA,NA,NA,NA,NA,NA,NA,NA,NA,NA,NA,NA
"224","stim/objects/Instruments/harp2.png",105,31,105,0.9,"stim/23.jpeg",2,3,3,NA,"Instruments",1,4,"left","right",0.417999983,0,0,1,1,NA,NA,NA,NA,NA,NA,NA,NA,NA,NA,NA,NA,NA,NA,NA,NA,NA,NA,NA,NA,NA,NA,NA,NA
"177","stim/objects/Instruments/frenchhorn.png",106,31,106,0.5,"stim/42.jpeg",4,2,1,NA,"Instruments",1,4,"left","right",0.636000156,0,0,1,1,NA,NA,NA,NA,NA,NA,NA,NA,NA,NA,NA,NA,NA,NA,NA,NA,NA,NA,NA,NA,NA,NA,NA,NA
"200","stim/objects/Instruments/guitarcase2.png",107,31,107,0.9,"stim/21.jpeg",2,1,3,NA,"Instruments",1,2,"left","left",0.467999935,1,1,1,1,NA,NA,NA,NA,NA,NA,NA,NA,NA,NA,NA,NA,NA,NA,NA,NA,NA,NA,NA,NA,NA,NA,NA,NA
"42","stim/objects/HouseObjects/dustpan2.png",108,31,108,0.9,"stim/11.jpeg",1,1,3,NA,"HouseObjects",2,4,"right","right",0.709000111,1,1,1,1,NA,NA,NA,NA,NA,NA,NA,NA,NA,NA,NA,NA,NA,NA,NA,NA,NA,NA,NA,NA,NA,NA,NA,NA
"153","stim/objects/Instruments/electricguitar2.png",109,31,109,0.7,"stim/63.jpeg",6,3,2,NA,"Instruments",1,2,"left","left",0.585999966,1,1,1,1,NA,NA,NA,NA,NA,NA,NA,NA,NA,NA,NA,NA,NA,NA,NA,NA,NA,NA,NA,NA,NA,NA,NA,NA
"134","stim/objects/Instruments/electricdrumset.png",110,31,110,0.5,"stim/32.jpeg",3,2,1,NA,"Instruments",1,4,"left","left",0.780999899,1,1,1,1,NA,NA,NA,NA,NA,NA,NA,NA,NA,NA,NA,NA,NA,NA,NA,NA,NA,NA,NA,NA,NA,NA,NA,NA
"230","stim/objects/Instruments/hihat.png",111,31,111,0.3,"stim/54.jpeg",5,4,2,NA,"Instruments",1,2,"left","right",0.682999849,0,0,1,1,NA,NA,NA,NA,NA,NA,NA,NA,NA,NA,NA,NA,NA,NA,NA,NA,NA,NA,NA,NA,NA,NA,NA,NA
"195","stim/objects/Instruments/guitarcase.png",112,31,112,0.3,"stim/51.jpeg",5,1,2,NA,"Instruments",1,1,"left","",NA,0,0,1,1,NA,NA,NA,NA,NA,NA,NA,NA,NA,NA,NA,NA,NA,NA,NA,NA,NA,NA,NA,NA,NA,NA,NA,NA
"189","stim/objects/Instruments/grandpiano.png",113,31,113,0.5,"stim/44.jpeg",4,4,1,NA,"Instruments",1,3,"left","right",0.601999998,0,0,1,1,NA,NA,NA,NA,NA,NA,NA,NA,NA,NA,NA,NA,NA,NA,NA,NA,NA,NA,NA,NA,NA,NA,NA,NA
"205","stim/objects/Instruments/harmonica.png",114,31,114,0.3,"stim/52.jpeg",5,2,2,NA,"Instruments",1,1,"left","left",0.536999941,1,1,1,1,NA,NA,NA,NA,NA,NA,NA,NA,NA,NA,NA,NA,NA,NA,NA,NA,NA,NA,NA,NA,NA,NA,NA,NA
"186","stim/objects/Instruments/gong2.png",115,31,115,0.1,"stim/13.jpeg",1,3,3,NA,"Instruments",1,2,"left","left",0.58100009,1,1,1,1,NA,NA,NA,NA,NA,NA,NA,NA,NA,NA,NA,NA,NA,NA,NA,NA,NA,NA,NA,NA,NA,NA,NA,NA
"208","stim/objects/Instruments/harmonica2.png",116,31,116,0.9,"stim/22.jpeg",2,2,3,NA,"Instruments",1,4,"left","left",0.506000042,1,1,1,1,NA,NA,NA,NA,NA,NA,NA,NA,NA,NA,NA,NA,NA,NA,NA,NA,NA,NA,NA,NA,NA,NA,NA,NA
"135","stim/objects/Instruments/electricdrumset.png",117,31,117,0.5,"stim/32.jpeg",3,2,1,NA,"Instruments",1,2,"left","left",0.562999964,1,1,1,1,NA,NA,NA,NA,NA,NA,NA,NA,NA,NA,NA,NA,NA,NA,NA,NA,NA,NA,NA,NA,NA,NA,NA,NA
"26","stim/objects/HouseObjects/doormat.png",118,31,118,0.5,"stim/34.jpeg",3,4,1,NA,"HouseObjects",2,1,"right","left",0.551000118,0,0,1,1,NA,NA,NA,NA,NA,NA,NA,NA,NA,NA,NA,NA,NA,NA,NA,NA,NA,NA,NA,NA,NA,NA,NA,NA
"209","stim/objects/Instruments/harmonica2.png",119,31,119,0.9,"stim/22.jpeg",2,2,3,NA,"Instruments",1,3,"left","left",0.684000015,1,1,1,1,NA,NA,NA,NA,NA,NA,NA,NA,NA,NA,NA,NA,NA,NA,NA,NA,NA,NA,NA,NA,NA,NA,NA,NA
"141","stim/objects/Instruments/electricdrumset2.png",120,31,120,0.7,"stim/62.jpeg",6,2,2,NA,"Instruments",1,4,"left","right",0.555000067,0,0,1,1,NA,NA,NA,NA,NA,NA,NA,NA,NA,NA,NA,NA,NA,NA,NA,NA,NA,NA,NA,NA,NA,NA,NA,NA
"104","stim/objects/HouseObjects/hairdryer2.png",121,31,121,0.1,"stim/22.jpeg",2,2,3,NA,"HouseObjects",2,2,"right","left",0.546999931,0,0,1,1,NA,NA,NA,NA,NA,NA,NA,NA,NA,NA,NA,NA,NA,NA,NA,NA,NA,NA,NA,NA,NA,NA,NA,NA
"96","stim/objects/HouseObjects/glassmop2.png",122,31,122,0.1,"stim/21.jpeg",2,1,3,NA,"HouseObjects",2,3,"right","left",0.562999964,0,0,1,1,NA,NA,NA,NA,NA,NA,NA,NA,NA,NA,NA,NA,NA,NA,NA,NA,NA,NA,NA,NA,NA,NA,NA,NA
"235","stim/objects/Instruments/hihat2.png",123,31,123,0.9,"stim/24.jpeg",2,4,3,NA,"Instruments",1,4,"left","right",0.596000195,0,0,1,1,NA,NA,NA,NA,NA,NA,NA,NA,NA,NA,NA,NA,NA,NA,NA,NA,NA,NA,NA,NA,NA,NA,NA,NA
"30","stim/objects/HouseObjects/doormat2.png",124,31,124,0.3,"stim/64.jpeg",6,4,2,NA,"HouseObjects",2,2,"right","left",0.453999996,0,0,1,1,NA,NA,NA,NA,NA,NA,NA,NA,NA,NA,NA,NA,NA,NA,NA,NA,NA,NA,NA,NA,NA,NA,NA,NA
"236","stim/objects/Instruments/hihat2.png",125,31,125,0.9,"stim/24.jpeg",2,4,3,NA,"Instruments",1,3,"left","left",0.445999861,1,1,1,1,NA,NA,NA,NA,NA,NA,NA,NA,NA,NA,NA,NA,NA,NA,NA,NA,NA,NA,NA,NA,NA,NA,NA,NA
"84","stim/objects/HouseObjects/glass2.png",126,31,126,0.9,"stim/14.jpeg",1,4,3,NA,"HouseObjects",2,2,"right","right",0.604000092,1,1,1,1,NA,NA,NA,NA,NA,NA,NA,NA,NA,NA,NA,NA,NA,NA,NA,NA,NA,NA,NA,NA,NA,NA,NA,NA
"231","stim/objects/Instruments/hihat.png",127,31,127,0.3,"stim/54.jpeg",5,4,2,NA,"Instruments",1,1,"left","left",0.461999893,1,1,1,1,NA,NA,NA,NA,NA,NA,NA,NA,NA,NA,NA,NA,NA,NA,NA,NA,NA,NA,NA,NA,NA,NA,NA,NA
"237","stim/objects/Instruments/hihat2.png",128,31,128,0.9,"stim/24.jpeg",2,4,3,NA,"Instruments",1,4,"left","right",0.453000069,0,0,1,1,NA,NA,NA,NA,NA,NA,NA,NA,NA,NA,NA,NA,NA,NA,NA,NA,NA,NA,NA,NA,NA,NA,NA,NA
"85","stim/objects/HouseObjects/glass2.png",129,31,129,0.9,"stim/14.jpeg",1,4,3,NA,"HouseObjects",2,3,"right","right",0.564999819,1,1,1,1,NA,NA,NA,NA,NA,NA,NA,NA,NA,NA,NA,NA,NA,NA,NA,NA,NA,NA,NA,NA,NA,NA,NA,NA
"117","stim/objects/HouseObjects/handvacuum.png",130,31,130,0.7,"stim/54.jpeg",5,4,2,NA,"HouseObjects",2,2,"right","right",0.632999897,1,1,1,1,NA,NA,NA,NA,NA,NA,NA,NA,NA,NA,NA,NA,NA,NA,NA,NA,NA,NA,NA,NA,NA,NA,NA,NA
"27","stim/objects/HouseObjects/doormat.png",131,31,131,0.5,"stim/34.jpeg",3,4,1,NA,"HouseObjects",2,1,"right","left",0.535000086,0,0,1,1,NA,NA,NA,NA,NA,NA,NA,NA,NA,NA,NA,NA,NA,NA,NA,NA,NA,NA,NA,NA,NA,NA,NA,NA
"50","stim/objects/HouseObjects/flyswatter.png",132,31,132,0.5,"stim/42.jpeg",4,2,1,NA,"HouseObjects",2,2,"right","right",0.433999777,1,1,1,1,NA,NA,NA,NA,NA,NA,NA,NA,NA,NA,NA,NA,NA,NA,NA,NA,NA,NA,NA,NA,NA,NA,NA,NA
"55","stim/objects/HouseObjects/flyswatter2.png",133,31,133,0.9,"stim/12.jpeg",1,2,3,NA,"HouseObjects",2,4,"right","right",0.430000067,1,1,1,1,NA,NA,NA,NA,NA,NA,NA,NA,NA,NA,NA,NA,NA,NA,NA,NA,NA,NA,NA,NA,NA,NA,NA,NA
"2","stim/objects/HouseObjects/coffee.png",134,31,134,0.5,"stim/31.jpeg",3,1,1,NA,"HouseObjects",2,2,"right","right",0.717999935,1,1,1,1,NA,NA,NA,NA,NA,NA,NA,NA,NA,NA,NA,NA,NA,NA,NA,NA,NA,NA,NA,NA,NA,NA,NA,NA
"136","stim/objects/Instruments/electricdrumset.png",135,31,135,0.5,"stim/32.jpeg",3,2,1,NA,"Instruments",1,4,"left","right",0.485000134,0,0,1,1,NA,NA,NA,NA,NA,NA,NA,NA,NA,NA,NA,NA,NA,NA,NA,NA,NA,NA,NA,NA,NA,NA,NA,NA
"3","stim/objects/HouseObjects/coffee.png",136,31,136,0.5,"stim/31.jpeg",3,1,1,NA,"HouseObjects",2,1,"right","left",0.611999989,0,0,1,1,NA,NA,NA,NA,NA,NA,NA,NA,NA,NA,NA,NA,NA,NA,NA,NA,NA,NA,NA,NA,NA,NA,NA,NA
"102","stim/objects/HouseObjects/hairdryer.png",137,31,137,0.7,"stim/52.jpeg",5,2,2,NA,"HouseObjects",2,2,"right","right",0.585000038,1,1,1,1,NA,NA,NA,NA,NA,NA,NA,NA,NA,NA,NA,NA,NA,NA,NA,NA,NA,NA,NA,NA,NA,NA,NA,NA
"201","stim/objects/Instruments/guitarcase2.png",138,31,138,0.9,"stim/21.jpeg",2,1,3,NA,"Instruments",1,1,"left","right",0.481000185,0,0,1,1,NA,NA,NA,NA,NA,NA,NA,NA,NA,NA,NA,NA,NA,NA,NA,NA,NA,NA,NA,NA,NA,NA,NA,NA
"178","stim/objects/Instruments/frenchhorn.png",139,31,139,0.5,"stim/42.jpeg",4,2,1,NA,"Instruments",1,3,"left","left",0.769000053,1,1,1,1,NA,NA,NA,NA,NA,NA,NA,NA,NA,NA,NA,NA,NA,NA,NA,NA,NA,NA,NA,NA,NA,NA,NA,NA
"142","stim/objects/Instruments/electricdrumset2.png",140,31,140,0.7,"stim/62.jpeg",6,2,2,NA,"Instruments",1,2,"left","left",0.587000132,1,1,1,1,NA,NA,NA,NA,NA,NA,NA,NA,NA,NA,NA,NA,NA,NA,NA,NA,NA,NA,NA,NA,NA,NA,NA,NA
"225","stim/objects/Instruments/harp2.png",141,31,141,0.9,"stim/23.jpeg",2,3,3,NA,"Instruments",1,1,"left","left",0.619999886,1,1,1,1,NA,NA,NA,NA,NA,NA,NA,NA,NA,NA,NA,NA,NA,NA,NA,NA,NA,NA,NA,NA,NA,NA,NA,NA
"8","stim/objects/HouseObjects/coffee2.png",142,31,142,0.3,"stim/61.jpeg",6,1,2,NA,"HouseObjects",2,3,"right","left",0.602999926,0,0,1,1,NA,NA,NA,NA,NA,NA,NA,NA,NA,NA,NA,NA,NA,NA,NA,NA,NA,NA,NA,NA,NA,NA,NA,NA
"56","stim/objects/HouseObjects/flyswatter2.png",143,31,143,0.9,"stim/12.jpeg",1,2,3,NA,"HouseObjects",2,4,"right","right",0.482999802,1,1,1,1,NA,NA,NA,NA,NA,NA,NA,NA,NA,NA,NA,NA,NA,NA,NA,NA,NA,NA,NA,NA,NA,NA,NA,NA
"57","stim/objects/HouseObjects/flyswatter2.png",144,31,144,0.9,"stim/12.jpeg",1,2,3,NA,"HouseObjects",2,2,"right","right",0.465000153,1,1,1,1,NA,NA,NA,NA,NA,NA,NA,NA,NA,NA,NA,NA,NA,NA,NA,NA,NA,NA,NA,NA,NA,NA,NA,NA
"107","stim/objects/HouseObjects/handbrush.png",145,31,145,0.7,"stim/53.jpeg",5,3,2,NA,"HouseObjects",2,2,"right","right",0.5,1,1,1,1,NA,NA,NA,NA,NA,NA,NA,NA,NA,NA,NA,NA,NA,NA,NA,NA,NA,NA,NA,NA,NA,NA,NA,NA
"172","stim/objects/Instruments/flutetrans.png",146,31,146,0.5,"stim/41.jpeg",4,1,1,NA,"Instruments",1,2,"left","left",0.770999908,1,1,1,1,NA,NA,NA,NA,NA,NA,NA,NA,NA,NA,NA,NA,NA,NA,NA,NA,NA,NA,NA,NA,NA,NA,NA,NA
"11","stim/objects/HouseObjects/cushion.png",147,31,147,0.5,"stim/32.jpeg",3,2,1,NA,"HouseObjects",2,4,"right","right",0.880000114,1,1,1,1,NA,NA,NA,NA,NA,NA,NA,NA,NA,NA,NA,NA,NA,NA,NA,NA,NA,NA,NA,NA,NA,NA,NA,NA
"129","stim/objects/Instruments/drums2.png",148,31,148,0.7,"stim/61.jpeg",6,1,2,NA,"Instruments",1,3,"left","left",0.636000156,1,1,1,1,NA,NA,NA,NA,NA,NA,NA,NA,NA,NA,NA,NA,NA,NA,NA,NA,NA,NA,NA,NA,NA,NA,NA,NA
"123","stim/objects/Instruments/drums.png",149,31,149,0.5,"stim/31.jpeg",3,1,1,NA,"Instruments",1,2,"left","left",0.632000208,1,1,1,1,NA,NA,NA,NA,NA,NA,NA,NA,NA,NA,NA,NA,NA,NA,NA,NA,NA,NA,NA,NA,NA,NA,NA,NA
"154","stim/objects/Instruments/electricguitar2.png",150,31,150,0.7,"stim/63.jpeg",6,3,2,NA,"Instruments",1,2,"left","left",0.597000122,1,1,1,1,NA,NA,NA,NA,NA,NA,NA,NA,NA,NA,NA,NA,NA,NA,NA,NA,NA,NA,NA,NA,NA,NA,NA,NA
"184","stim/objects/Instruments/gong.png",151,31,151,0.5,"stim/43.jpeg",4,3,1,NA,"Instruments",1,2,"left","left",0.663000107,1,1,1,1,NA,NA,NA,NA,NA,NA,NA,NA,NA,NA,NA,NA,NA,NA,NA,NA,NA,NA,NA,NA,NA,NA,NA,NA
"18","stim/objects/HouseObjects/dishsoap.png",152,31,152,0.5,"stim/33.jpeg",3,3,1,NA,"HouseObjects",2,4,"right","right",0.588000059,1,1,1,1,NA,NA,NA,NA,NA,NA,NA,NA,NA,NA,NA,NA,NA,NA,NA,NA,NA,NA,NA,NA,NA,NA,NA,NA
"4","stim/objects/HouseObjects/coffee.png",153,31,153,0.5,"stim/31.jpeg",3,1,1,NA,"HouseObjects",2,3,"right","left",0.542999983,0,0,1,1,NA,NA,NA,NA,NA,NA,NA,NA,NA,NA,NA,NA,NA,NA,NA,NA,NA,NA,NA,NA,NA,NA,NA,NA
"93","stim/objects/HouseObjects/glassmop.png",154,31,154,0.7,"stim/51.jpeg",5,1,2,NA,"HouseObjects",2,3,"right","",NA,0,0,1,1,NA,NA,NA,NA,NA,NA,NA,NA,NA,NA,NA,NA,NA,NA,NA,NA,NA,NA,NA,NA,NA,NA,NA,NA
"58","stim/objects/HouseObjects/flyswatter2.png",155,31,155,0.9,"stim/12.jpeg",1,2,3,NA,"HouseObjects",2,2,"right","right",0.615999937,1,1,1,1,NA,NA,NA,NA,NA,NA,NA,NA,NA,NA,NA,NA,NA,NA,NA,NA,NA,NA,NA,NA,NA,NA,NA,NA
"160","stim/objects/Instruments/flute.png",156,31,156,0.5,"stim/34.jpeg",3,4,1,NA,"Instruments",1,3,"left","left",0.601999998,1,1,1,1,NA,NA,NA,NA,NA,NA,NA,NA,NA,NA,NA,NA,NA,NA,NA,NA,NA,NA,NA,NA,NA,NA,NA,NA
"108","stim/objects/HouseObjects/handbrush.png",157,31,157,0.7,"stim/53.jpeg",5,3,2,NA,"HouseObjects",2,2,"right","right",0.732000113,1,1,1,1,NA,NA,NA,NA,NA,NA,NA,NA,NA,NA,NA,NA,NA,NA,NA,NA,NA,NA,NA,NA,NA,NA,NA,NA
"174","stim/objects/Instruments/flutetrans2.png",158,31,158,0.1,"stim/11.jpeg",1,1,3,NA,"Instruments",1,3,"left","right",0.631000042,0,0,1,1,NA,NA,NA,NA,NA,NA,NA,NA,NA,NA,NA,NA,NA,NA,NA,NA,NA,NA,NA,NA,NA,NA,NA,NA
"173","stim/objects/Instruments/flutetrans.png",159,31,159,0.5,"stim/41.jpeg",4,1,1,NA,"Instruments",1,2,"left","left",0.546999931,1,1,1,1,NA,NA,NA,NA,NA,NA,NA,NA,NA,NA,NA,NA,NA,NA,NA,NA,NA,NA,NA,NA,NA,NA,NA,NA
"35","stim/objects/HouseObjects/dustpan.png",160,31,160,0.5,"stim/41.jpeg",4,1,1,NA,"HouseObjects",2,4,"right","right",0.634000063,1,1,1,1,NA,NA,NA,NA,NA,NA,NA,NA,NA,NA,NA,NA,NA,NA,NA,NA,NA,NA,NA,NA,NA,NA,NA,NA
"238","stim/objects/Instruments/hihat2.png",161,31,161,0.9,"stim/24.jpeg",2,4,3,NA,"Instruments",1,1,"left","left",0.534000158,1,1,1,1,NA,NA,NA,NA,NA,NA,NA,NA,NA,NA,NA,NA,NA,NA,NA,NA,NA,NA,NA,NA,NA,NA,NA,NA
"148","stim/objects/Instruments/electricguitar.png",162,31,162,0.5,"stim/33.jpeg",3,3,1,NA,"Instruments",1,3,"left","left",0.532999992,1,1,1,1,NA,NA,NA,NA,NA,NA,NA,NA,NA,NA,NA,NA,NA,NA,NA,NA,NA,NA,NA,NA,NA,NA,NA,NA
"226","stim/objects/Instruments/harp2.png",163,31,163,0.9,"stim/23.jpeg",2,3,3,NA,"Instruments",1,3,"left","left",0.480000019,1,1,1,1,NA,NA,NA,NA,NA,NA,NA,NA,NA,NA,NA,NA,NA,NA,NA,NA,NA,NA,NA,NA,NA,NA,NA,NA
"109","stim/objects/HouseObjects/handbrush.png",164,31,164,0.7,"stim/53.jpeg",5,3,2,NA,"HouseObjects",2,3,"right","right",0.61500001,1,1,1,1,NA,NA,NA,NA,NA,NA,NA,NA,NA,NA,NA,NA,NA,NA,NA,NA,NA,NA,NA,NA,NA,NA,NA,NA
"130","stim/objects/Instruments/drums2.png",165,31,165,0.7,"stim/61.jpeg",6,1,2,NA,"Instruments",1,1,"left","left",0.483999968,1,1,1,1,NA,NA,NA,NA,NA,NA,NA,NA,NA,NA,NA,NA,NA,NA,NA,NA,NA,NA,NA,NA,NA,NA,NA,NA
"210","stim/objects/Instruments/harmonica2.png",166,31,166,0.9,"stim/22.jpeg",2,2,3,NA,"Instruments",1,3,"left","left",0.532999992,1,1,1,1,NA,NA,NA,NA,NA,NA,NA,NA,NA,NA,NA,NA,NA,NA,NA,NA,NA,NA,NA,NA,NA,NA,NA,NA
"179","stim/objects/Instruments/frenchhorn.png",167,31,167,0.5,"stim/42.jpeg",4,2,1,NA,"Instruments",1,4,"left","right",0.447000027,0,0,1,1,NA,NA,NA,NA,NA,NA,NA,NA,NA,NA,NA,NA,NA,NA,NA,NA,NA,NA,NA,NA,NA,NA,NA,NA
"43","stim/objects/HouseObjects/dustpan2.png",168,31,168,0.9,"stim/11.jpeg",1,1,3,NA,"HouseObjects",2,1,"right","left",0.644999981,0,0,1,1,NA,NA,NA,NA,NA,NA,NA,NA,NA,NA,NA,NA,NA,NA,NA,NA,NA,NA,NA,NA,NA,NA,NA,NA
"161","stim/objects/Instruments/flute.png",169,31,169,0.5,"stim/34.jpeg",3,4,1,NA,"Instruments",1,1,"left","left",0.559000015,1,1,1,1,NA,NA,NA,NA,NA,NA,NA,NA,NA,NA,NA,NA,NA,NA,NA,NA,NA,NA,NA,NA,NA,NA,NA,NA
"110","stim/objects/HouseObjects/handbrush.png",170,31,170,0.7,"stim/53.jpeg",5,3,2,NA,"HouseObjects",2,3,"right","right",0.525000095,1,1,1,1,NA,NA,NA,NA,NA,NA,NA,NA,NA,NA,NA,NA,NA,NA,NA,NA,NA,NA,NA,NA,NA,NA,NA,NA
"239","stim/objects/Instruments/hihat2.png",171,31,171,0.9,"stim/24.jpeg",2,4,3,NA,"Instruments",1,1,"left","left",0.600000143,1,1,1,1,NA,NA,NA,NA,NA,NA,NA,NA,NA,NA,NA,NA,NA,NA,NA,NA,NA,NA,NA,NA,NA,NA,NA,NA
"149","stim/objects/Instruments/electricguitar.png",172,31,172,0.5,"stim/33.jpeg",3,3,1,NA,"Instruments",1,1,"left","right",0.513000011,0,0,1,1,NA,NA,NA,NA,NA,NA,NA,NA,NA,NA,NA,NA,NA,NA,NA,NA,NA,NA,NA,NA,NA,NA,NA,NA
"185","stim/objects/Instruments/gong.png",173,31,173,0.5,"stim/43.jpeg",4,3,1,NA,"Instruments",1,4,"left","right",0.517999887,0,0,1,1,NA,NA,NA,NA,NA,NA,NA,NA,NA,NA,NA,NA,NA,NA,NA,NA,NA,NA,NA,NA,NA,NA,NA,NA
"211","stim/objects/Instruments/harmonica2.png",174,31,174,0.9,"stim/22.jpeg",2,2,3,NA,"Instruments",1,3,"left","left",0.531999826,1,1,1,1,NA,NA,NA,NA,NA,NA,NA,NA,NA,NA,NA,NA,NA,NA,NA,NA,NA,NA,NA,NA,NA,NA,NA,NA
"227","stim/objects/Instruments/harp2.png",175,31,175,0.9,"stim/23.jpeg",2,3,3,NA,"Instruments",1,2,"left","right",0.597000122,0,0,1,1,NA,NA,NA,NA,NA,NA,NA,NA,NA,NA,NA,NA,NA,NA,NA,NA,NA,NA,NA,NA,NA,NA,NA,NA
"212","stim/objects/Instruments/harmonica2.png",176,31,176,0.9,"stim/22.jpeg",2,2,3,NA,"Instruments",1,2,"left","left",0.647000074,1,1,1,1,NA,NA,NA,NA,NA,NA,NA,NA,NA,NA,NA,NA,NA,NA,NA,NA,NA,NA,NA,NA,NA,NA,NA,NA
"65","stim/objects/HouseObjects/garbagebin.png",177,31,177,0.5,"stim/43.jpeg",4,3,1,NA,"HouseObjects",2,4,"right","right",0.400000095,1,1,1,1,NA,NA,NA,NA,NA,NA,NA,NA,NA,NA,NA,NA,NA,NA,NA,NA,NA,NA,NA,NA,NA,NA,NA,NA
"190","stim/objects/Instruments/grandpiano.png",178,31,178,0.5,"stim/44.jpeg",4,4,1,NA,"Instruments",1,2,"left","right",0.398000002,0,0,1,1,NA,NA,NA,NA,NA,NA,NA,NA,NA,NA,NA,NA,NA,NA,NA,NA,NA,NA,NA,NA,NA,NA,NA,NA
"24","stim/objects/HouseObjects/dishsoap2.png",179,31,179,0.3,"stim/63.jpeg",6,3,2,NA,"HouseObjects",2,4,"right","right",0.463999987,1,1,1,1,NA,NA,NA,NA,NA,NA,NA,NA,NA,NA,NA,NA,NA,NA,NA,NA,NA,NA,NA,NA,NA,NA,NA,NA
"206","stim/objects/Instruments/harmonica.png",180,31,180,0.3,"stim/52.jpeg",5,2,2,NA,"Instruments",1,1,"left","left",0.480999947,1,1,1,1,NA,NA,NA,NA,NA,NA,NA,NA,NA,NA,NA,NA,NA,NA,NA,NA,NA,NA,NA,NA,NA,NA,NA,NA
"167","stim/objects/Instruments/flute2.png",181,31,181,0.7,"stim/64.jpeg",6,4,2,NA,"Instruments",1,4,"left","right",0.330000162,0,0,1,1,NA,NA,NA,NA,NA,NA,NA,NA,NA,NA,NA,NA,NA,NA,NA,NA,NA,NA,NA,NA,NA,NA,NA,NA
"19","stim/objects/HouseObjects/dishsoap.png",182,31,182,0.5,"stim/33.jpeg",3,3,1,NA,"HouseObjects",2,3,"right","left",0.397000074,0,0,1,1,NA,NA,NA,NA,NA,NA,NA,NA,NA,NA,NA,NA,NA,NA,NA,NA,NA,NA,NA,NA,NA,NA,NA,NA
"59","stim/objects/HouseObjects/flyswatter2.png",183,31,183,0.9,"stim/12.jpeg",1,2,3,NA,"HouseObjects",2,3,"right","left",0.450999975,0,0,1,1,NA,NA,NA,NA,NA,NA,NA,NA,NA,NA,NA,NA,NA,NA,NA,NA,NA,NA,NA,NA,NA,NA,NA,NA
"111","stim/objects/HouseObjects/handbrush.png",184,31,184,0.7,"stim/53.jpeg",5,3,2,NA,"HouseObjects",2,3,"right","right",0.355999947,1,1,1,1,NA,NA,NA,NA,NA,NA,NA,NA,NA,NA,NA,NA,NA,NA,NA,NA,NA,NA,NA,NA,NA,NA,NA,NA
"12","stim/objects/HouseObjects/cushion.png",185,31,185,0.5,"stim/32.jpeg",3,2,1,NA,"HouseObjects",2,1,"right","right",0.652999878,1,1,1,1,NA,NA,NA,NA,NA,NA,NA,NA,NA,NA,NA,NA,NA,NA,NA,NA,NA,NA,NA,NA,NA,NA,NA,NA
"72","stim/objects/HouseObjects/garbagebin2.png",186,31,186,0.9,"stim/13.jpeg",1,3,3,NA,"HouseObjects",2,1,"right","right",0.450999975,1,1,1,1,NA,NA,NA,NA,NA,NA,NA,NA,NA,NA,NA,NA,NA,NA,NA,NA,NA,NA,NA,NA,NA,NA,NA,NA
"228","stim/objects/Instruments/harp2.png",187,31,187,0.9,"stim/23.jpeg",2,3,3,NA,"Instruments",1,3,"left","left",0.596999884,1,1,1,1,NA,NA,NA,NA,NA,NA,NA,NA,NA,NA,NA,NA,NA,NA,NA,NA,NA,NA,NA,NA,NA,NA,NA,NA
"78","stim/objects/HouseObjects/glass.png",188,31,188,0.5,"stim/44.jpeg",4,4,1,NA,"HouseObjects",2,4,"right","right",0.368000031,1,1,1,1,NA,NA,NA,NA,NA,NA,NA,NA,NA,NA,NA,NA,NA,NA,NA,NA,NA,NA,NA,NA,NA,NA,NA,NA
"13","stim/objects/HouseObjects/cushion.png",189,31,189,0.5,"stim/32.jpeg",3,2,1,NA,"HouseObjects",2,1,"right","right",0.78399992,1,1,1,1,NA,NA,NA,NA,NA,NA,NA,NA,NA,NA,NA,NA,NA,NA,NA,NA,NA,NA,NA,NA,NA,NA,NA,NA
"131","stim/objects/Instruments/drums2.png",190,31,190,0.7,"stim/61.jpeg",6,1,2,NA,"Instruments",1,1,"left","left",0.56799984,1,1,1,1,NA,NA,NA,NA,NA,NA,NA,NA,NA,NA,NA,NA,NA,NA,NA,NA,NA,NA,NA,NA,NA,NA,NA,NA
"28","stim/objects/HouseObjects/doormat.png",191,31,191,0.5,"stim/34.jpeg",3,4,1,NA,"HouseObjects",2,3,"right","right",0.419000149,1,1,1,1,NA,NA,NA,NA,NA,NA,NA,NA,NA,NA,NA,NA,NA,NA,NA,NA,NA,NA,NA,NA,NA,NA,NA,NA
"73","stim/objects/HouseObjects/garbagebin2.png",192,31,192,0.9,"stim/13.jpeg",1,3,3,NA,"HouseObjects",2,3,"right","left",0.44900012,0,0,1,1,NA,NA,NA,NA,NA,NA,NA,NA,NA,NA,NA,NA,NA,NA,NA,NA,NA,NA,NA,NA,NA,NA,NA,NA
"213","stim/objects/Instruments/harmonica2.png",193,31,193,0.9,"stim/22.jpeg",2,2,3,NA,"Instruments",1,4,"left","right",0.345000029,0,0,1,1,NA,NA,NA,NA,NA,NA,NA,NA,NA,NA,NA,NA,NA,NA,NA,NA,NA,NA,NA,NA,NA,NA,NA,NA
"44","stim/objects/HouseObjects/dustpan2.png",194,31,194,0.9,"stim/11.jpeg",1,1,3,NA,"HouseObjects",2,3,"right","right",0.485000134,1,1,1,1,NA,NA,NA,NA,NA,NA,NA,NA,NA,NA,NA,NA,NA,NA,NA,NA,NA,NA,NA,NA,NA,NA,NA,NA
"45","stim/objects/HouseObjects/dustpan2.png",195,31,195,0.9,"stim/11.jpeg",1,1,3,NA,"HouseObjects",2,4,"right","right",0.388000011,1,1,1,1,NA,NA,NA,NA,NA,NA,NA,NA,NA,NA,NA,NA,NA,NA,NA,NA,NA,NA,NA,NA,NA,NA,NA,NA
"155","stim/objects/Instruments/electricguitar2.png",196,31,196,0.7,"stim/63.jpeg",6,3,2,NA,"Instruments",1,4,"left","left",0.614000082,1,1,1,1,NA,NA,NA,NA,NA,NA,NA,NA,NA,NA,NA,NA,NA,NA,NA,NA,NA,NA,NA,NA,NA,NA,NA,NA
"168","stim/objects/Instruments/flute2.png",197,31,197,0.7,"stim/64.jpeg",6,4,2,NA,"Instruments",1,3,"left","right",0.479000092,0,0,1,1,NA,NA,NA,NA,NA,NA,NA,NA,NA,NA,NA,NA,NA,NA,NA,NA,NA,NA,NA,NA,NA,NA,NA,NA
"214","stim/objects/Instruments/harmonica2.png",198,31,198,0.9,"stim/22.jpeg",2,2,3,NA,"Instruments",1,4,"left","left",0.633000135,1,1,1,1,NA,NA,NA,NA,NA,NA,NA,NA,NA,NA,NA,NA,NA,NA,NA,NA,NA,NA,NA,NA,NA,NA,NA,NA
"31","stim/objects/HouseObjects/doormat2.png",199,31,199,0.3,"stim/64.jpeg",6,4,2,NA,"HouseObjects",2,1,"right","right",0.48300004,1,1,1,1,NA,NA,NA,NA,NA,NA,NA,NA,NA,NA,NA,NA,NA,NA,NA,NA,NA,NA,NA,NA,NA,NA,NA,NA
"86","stim/objects/HouseObjects/glass2.png",200,31,200,0.9,"stim/14.jpeg",1,4,3,NA,"HouseObjects",2,2,"right","right",0.549000025,1,1,1,1,NA,NA,NA,NA,NA,NA,NA,NA,NA,NA,NA,NA,NA,NA,NA,NA,NA,NA,NA,NA,NA,NA,NA,NA
"202","stim/objects/Instruments/guitarcase2.png",201,31,201,0.9,"stim/21.jpeg",2,1,3,NA,"Instruments",1,4,"left","left",0.566999912,1,1,1,1,NA,NA,NA,NA,NA,NA,NA,NA,NA,NA,NA,NA,NA,NA,NA,NA,NA,NA,NA,NA,NA,NA,NA,NA
"32","stim/objects/HouseObjects/doormat2.png",202,31,202,0.3,"stim/64.jpeg",6,4,2,NA,"HouseObjects",2,4,"right","right",0.529000044,1,1,1,1,NA,NA,NA,NA,NA,NA,NA,NA,NA,NA,NA,NA,NA,NA,NA,NA,NA,NA,NA,NA,NA,NA,NA,NA
"203","stim/objects/Instruments/guitarcase2.png",203,31,203,0.9,"stim/21.jpeg",2,1,3,NA,"Instruments",1,1,"left","left",0.51699996,1,1,1,1,NA,NA,NA,NA,NA,NA,NA,NA,NA,NA,NA,NA,NA,NA,NA,NA,NA,NA,NA,NA,NA,NA,NA,NA
"156","stim/objects/Instruments/electricguitar2.png",204,31,204,0.7,"stim/63.jpeg",6,3,2,NA,"Instruments",1,3,"left","left",0.799999952,1,1,1,1,NA,NA,NA,NA,NA,NA,NA,NA,NA,NA,NA,NA,NA,NA,NA,NA,NA,NA,NA,NA,NA,NA,NA,NA
"15","stim/objects/HouseObjects/cushion2.png",205,31,205,0.3,"stim/62.jpeg",6,2,2,NA,"HouseObjects",2,2,"right","left",0.779000044,0,0,1,1,NA,NA,NA,NA,NA,NA,NA,NA,NA,NA,NA,NA,NA,NA,NA,NA,NA,NA,NA,NA,NA,NA,NA,NA
"74","stim/objects/HouseObjects/garbagebin2.png",206,31,206,0.9,"stim/13.jpeg",1,3,3,NA,"HouseObjects",2,4,"right","right",0.5,1,1,1,1,NA,NA,NA,NA,NA,NA,NA,NA,NA,NA,NA,NA,NA,NA,NA,NA,NA,NA,NA,NA,NA,NA,NA,NA
"94","stim/objects/HouseObjects/glassmop.png",207,31,207,0.7,"stim/51.jpeg",5,1,2,NA,"HouseObjects",2,4,"right","right",0.748000145,1,1,1,1,NA,NA,NA,NA,NA,NA,NA,NA,NA,NA,NA,NA,NA,NA,NA,NA,NA,NA,NA,NA,NA,NA,NA,NA
"36","stim/objects/HouseObjects/dustpan.png",208,31,208,0.5,"stim/41.jpeg",4,1,1,NA,"HouseObjects",2,1,"right","right",0.618000031,1,1,1,1,NA,NA,NA,NA,NA,NA,NA,NA,NA,NA,NA,NA,NA,NA,NA,NA,NA,NA,NA,NA,NA,NA,NA,NA
"29","stim/objects/HouseObjects/doormat.png",209,31,209,0.5,"stim/34.jpeg",3,4,1,NA,"HouseObjects",2,3,"right","left",0.717000008,0,0,1,1,NA,NA,NA,NA,NA,NA,NA,NA,NA,NA,NA,NA,NA,NA,NA,NA,NA,NA,NA,NA,NA,NA,NA,NA
"143","stim/objects/Instruments/electricdrumset2.png",210,31,210,0.7,"stim/62.jpeg",6,2,2,NA,"Instruments",1,3,"left","right",0.452000141,0,0,1,1,NA,NA,NA,NA,NA,NA,NA,NA,NA,NA,NA,NA,NA,NA,NA,NA,NA,NA,NA,NA,NA,NA,NA,NA
"215","stim/objects/Instruments/harmonica2.png",211,31,211,0.9,"stim/22.jpeg",2,2,3,NA,"Instruments",1,2,"left","left",0.634000063,1,1,1,1,NA,NA,NA,NA,NA,NA,NA,NA,NA,NA,NA,NA,NA,NA,NA,NA,NA,NA,NA,NA,NA,NA,NA,NA
"218","stim/objects/Instruments/harp.png",212,31,212,0.3,"stim/53.jpeg",5,3,2,NA,"Instruments",1,4,"left","right",0.480999947,0,0,1,1,NA,NA,NA,NA,NA,NA,NA,NA,NA,NA,NA,NA,NA,NA,NA,NA,NA,NA,NA,NA,NA,NA,NA,NA
"20","stim/objects/HouseObjects/dishsoap.png",213,31,213,0.5,"stim/33.jpeg",3,3,1,NA,"HouseObjects",2,3,"right","left",0.513999939,0,0,1,1,NA,NA,NA,NA,NA,NA,NA,NA,NA,NA,NA,NA,NA,NA,NA,NA,NA,NA,NA,NA,NA,NA,NA,NA
"79","stim/objects/HouseObjects/glass.png",214,31,214,0.5,"stim/44.jpeg",4,4,1,NA,"HouseObjects",2,3,"right","right",0.857999802,1,1,1,1,NA,NA,NA,NA,NA,NA,NA,NA,NA,NA,NA,NA,NA,NA,NA,NA,NA,NA,NA,NA,NA,NA,NA,NA
"51","stim/objects/HouseObjects/flyswatter.png",215,31,215,0.5,"stim/42.jpeg",4,2,1,NA,"HouseObjects",2,3,"right","right",0.532000065,1,1,1,1,NA,NA,NA,NA,NA,NA,NA,NA,NA,NA,NA,NA,NA,NA,NA,NA,NA,NA,NA,NA,NA,NA,NA,NA
"118","stim/objects/HouseObjects/handvacuum.png",216,31,216,0.7,"stim/54.jpeg",5,4,2,NA,"HouseObjects",2,4,"right","right",0.501999855,1,1,1,1,NA,NA,NA,NA,NA,NA,NA,NA,NA,NA,NA,NA,NA,NA,NA,NA,NA,NA,NA,NA,NA,NA,NA,NA
"137","stim/objects/Instruments/electricdrumset.png",217,31,217,0.5,"stim/32.jpeg",3,2,1,NA,"Instruments",1,4,"left","right",0.481000185,0,0,1,1,NA,NA,NA,NA,NA,NA,NA,NA,NA,NA,NA,NA,NA,NA,NA,NA,NA,NA,NA,NA,NA,NA,NA,NA
"21","stim/objects/HouseObjects/dishsoap.png",218,31,218,0.5,"stim/33.jpeg",3,3,1,NA,"HouseObjects",2,3,"right","left",0.443000078,0,0,1,1,NA,NA,NA,NA,NA,NA,NA,NA,NA,NA,NA,NA,NA,NA,NA,NA,NA,NA,NA,NA,NA,NA,NA,NA
"46","stim/objects/HouseObjects/dustpan2.png",219,31,219,0.9,"stim/11.jpeg",1,1,3,NA,"HouseObjects",2,1,"right","right",0.404999971,1,1,1,1,NA,NA,NA,NA,NA,NA,NA,NA,NA,NA,NA,NA,NA,NA,NA,NA,NA,NA,NA,NA,NA,NA,NA,NA
"124","stim/objects/Instruments/drums.png",220,31,220,0.5,"stim/31.jpeg",3,1,1,NA,"Instruments",1,2,"left","right",0.444000006,0,0,1,1,NA,NA,NA,NA,NA,NA,NA,NA,NA,NA,NA,NA,NA,NA,NA,NA,NA,NA,NA,NA,NA,NA,NA,NA
"204","stim/objects/Instruments/guitarcase2.png",221,31,221,0.9,"stim/21.jpeg",2,1,3,NA,"Instruments",1,2,"left","left",0.813999891,1,1,1,1,NA,NA,NA,NA,NA,NA,NA,NA,NA,NA,NA,NA,NA,NA,NA,NA,NA,NA,NA,NA,NA,NA,NA,NA
"144","stim/objects/Instruments/electricdrumset2.png",222,31,222,0.7,"stim/62.jpeg",6,2,2,NA,"Instruments",1,4,"left","right",0.46600008,0,0,1,1,NA,NA,NA,NA,NA,NA,NA,NA,NA,NA,NA,NA,NA,NA,NA,NA,NA,NA,NA,NA,NA,NA,NA,NA
"112","stim/objects/HouseObjects/handbrush2.png",223,31,223,0.1,"stim/23.jpeg",2,3,3,NA,"HouseObjects",2,4,"right","left",0.563999891,0,0,1,1,NA,NA,NA,NA,NA,NA,NA,NA,NA,NA,NA,NA,NA,NA,NA,NA,NA,NA,NA,NA,NA,NA,NA,NA
"191","stim/objects/Instruments/grandpiano.png",224,31,224,0.5,"stim/44.jpeg",4,4,1,NA,"Instruments",1,2,"left","right",0.496000051,0,0,1,1,NA,NA,NA,NA,NA,NA,NA,NA,NA,NA,NA,NA,NA,NA,NA,NA,NA,NA,NA,NA,NA,NA,NA,NA
"216","stim/objects/Instruments/harmonica2.png",225,31,225,0.9,"stim/22.jpeg",2,2,3,NA,"Instruments",1,1,"left","left",0.461999893,1,1,1,1,NA,NA,NA,NA,NA,NA,NA,NA,NA,NA,NA,NA,NA,NA,NA,NA,NA,NA,NA,NA,NA,NA,NA,NA
"192","stim/objects/Instruments/grandpiano2.png",226,31,226,0.1,"stim/14.jpeg",1,4,3,NA,"Instruments",1,2,"left","right",0.463999987,0,0,1,1,NA,NA,NA,NA,NA,NA,NA,NA,NA,NA,NA,NA,NA,NA,NA,NA,NA,NA,NA,NA,NA,NA,NA,NA
"132","stim/objects/Instruments/drums2.png",227,31,227,0.7,"stim/61.jpeg",6,1,2,NA,"Instruments",1,1,"left","left",0.5,1,1,1,1,NA,NA,NA,NA,NA,NA,NA,NA,NA,NA,NA,NA,NA,NA,NA,NA,NA,NA,NA,NA,NA,NA,NA,NA
"60","stim/objects/HouseObjects/flyswatter2.png",228,31,228,0.9,"stim/12.jpeg",1,2,3,NA,"HouseObjects",2,1,"right","left",0.462000132,0,0,1,1,NA,NA,NA,NA,NA,NA,NA,NA,NA,NA,NA,NA,NA,NA,NA,NA,NA,NA,NA,NA,NA,NA,NA,NA
"95","stim/objects/HouseObjects/glassmop.png",229,31,229,0.7,"stim/51.jpeg",5,1,2,NA,"HouseObjects",2,2,"right","right",0.645999908,1,1,1,1,NA,NA,NA,NA,NA,NA,NA,NA,NA,NA,NA,NA,NA,NA,NA,NA,NA,NA,NA,NA,NA,NA,NA,NA
"87","stim/objects/HouseObjects/glass2.png",230,31,230,0.9,"stim/14.jpeg",1,4,3,NA,"HouseObjects",2,3,"right","right",0.483999968,1,1,1,1,NA,NA,NA,NA,NA,NA,NA,NA,NA,NA,NA,NA,NA,NA,NA,NA,NA,NA,NA,NA,NA,NA,NA,NA
"16","stim/objects/HouseObjects/cushion2.png",231,31,231,0.3,"stim/62.jpeg",6,2,2,NA,"HouseObjects",2,1,"right","left",0.683000088,0,0,1,1,NA,NA,NA,NA,NA,NA,NA,NA,NA,NA,NA,NA,NA,NA,NA,NA,NA,NA,NA,NA,NA,NA,NA,NA
"125","stim/objects/Instruments/drums.png",232,31,232,0.5,"stim/31.jpeg",3,1,1,NA,"Instruments",1,1,"left","right",0.480000019,0,0,1,1,NA,NA,NA,NA,NA,NA,NA,NA,NA,NA,NA,NA,NA,NA,NA,NA,NA,NA,NA,NA,NA,NA,NA,NA
"240","stim/objects/Instruments/hihat2.png",233,31,233,0.9,"stim/24.jpeg",2,4,3,NA,"Instruments",1,1,"left","left",0.593999863,1,1,1,1,NA,NA,NA,NA,NA,NA,NA,NA,NA,NA,NA,NA,NA,NA,NA,NA,NA,NA,NA,NA,NA,NA,NA,NA
"37","stim/objects/HouseObjects/dustpan.png",234,31,234,0.5,"stim/41.jpeg",4,1,1,NA,"HouseObjects",2,4,"right","right",0.499000072,1,1,1,1,NA,NA,NA,NA,NA,NA,NA,NA,NA,NA,NA,NA,NA,NA,NA,NA,NA,NA,NA,NA,NA,NA,NA,NA
"219","stim/objects/Instruments/harp.png",235,31,235,0.3,"stim/53.jpeg",5,3,2,NA,"Instruments",1,1,"left","right",0.684999943,0,0,1,1,NA,NA,NA,NA,NA,NA,NA,NA,NA,NA,NA,NA,NA,NA,NA,NA,NA,NA,NA,NA,NA,NA,NA,NA
"119","stim/objects/HouseObjects/handvacuum.png",236,31,236,0.7,"stim/54.jpeg",5,4,2,NA,"HouseObjects",2,1,"right","right",0.730999947,1,1,1,1,NA,NA,NA,NA,NA,NA,NA,NA,NA,NA,NA,NA,NA,NA,NA,NA,NA,NA,NA,NA,NA,NA,NA,NA
"5","stim/objects/HouseObjects/coffee.png",237,31,237,0.5,"stim/31.jpeg",3,1,1,NA,"HouseObjects",2,1,"right","left",0.582999945,0,0,1,1,NA,NA,NA,NA,NA,NA,NA,NA,NA,NA,NA,NA,NA,NA,NA,NA,NA,NA,NA,NA,NA,NA,NA,NA
"103","stim/objects/HouseObjects/hairdryer.png",238,31,238,0.7,"stim/52.jpeg",5,2,2,NA,"HouseObjects",2,4,"right","right",0.464999914,1,1,1,1,NA,NA,NA,NA,NA,NA,NA,NA,NA,NA,NA,NA,NA,NA,NA,NA,NA,NA,NA,NA,NA,NA,NA,NA
"207","stim/objects/Instruments/harmonica.png",239,31,239,0.3,"stim/52.jpeg",5,2,2,NA,"Instruments",1,2,"left","right",0.569999933,0,0,1,1,NA,NA,NA,NA,NA,NA,NA,NA,NA,NA,NA,NA,NA,NA,NA,NA,NA,NA,NA,NA,NA,NA,NA,NA
"88","stim/objects/HouseObjects/glass2.png",240,31,240,0.9,"stim/14.jpeg",1,4,3,NA,"HouseObjects",2,4,"right","right",0.463999987,1,1,1,1,NA,NA,NA,NA,NA,NA,NA,NA,NA,NA,NA,NA,NA,NA,NA,NA,NA,NA,NA,NA,NA,NA,NA,NA
"433","stim/objects/Instruments/cornet3.png",248,31,241,0.5,"stim/43.jpeg",4,3,1,2,"Instruments",1,3,"left","",NA,0,0,1,0,NA,NA,NA,NA,NA,NA,NA,NA,NA,NA,NA,NA,NA,NA,NA,NA,NA,NA,NA,NA,NA,NA,NA,NA
"456","stim/objects/Instruments/marimba3.png",249,31,242,0.9,"stim/23.jpeg",2,3,3,2,"Instruments",1,4,"left","left",0.634000063,1,1,1,0,NA,NA,NA,NA,NA,NA,NA,NA,NA,NA,NA,NA,NA,NA,NA,NA,NA,NA,NA,NA,NA,NA,NA,NA
"490","stim/objects/Instruments/musicsheet3.png",250,31,243,0.9,"stim/22.jpeg",2,2,3,2,"Instruments",1,4,"left","left",0.528000116,1,1,1,0,NA,NA,NA,NA,NA,NA,NA,NA,NA,NA,NA,NA,NA,NA,NA,NA,NA,NA,NA,NA,NA,NA,NA,NA
"271","stim/objects/HouseObjects/clothesdryingrack3.png",251,31,244,0.7,"stim/54.jpeg",5,4,2,2,"HouseObjects",2,1,"right","right",0.576999903,1,1,1,0,NA,NA,NA,NA,NA,NA,NA,NA,NA,NA,NA,NA,NA,NA,NA,NA,NA,NA,NA,NA,NA,NA,NA,NA
"386","stim/objects/HouseObjects/saw3.png",252,31,245,0.5,"stim/44.jpeg",4,4,1,1,"HouseObjects",2,2,"right","right",0.531999826,1,1,1,0,154,31,1,0.5,2,"stim/44.jpeg",4,4,"stim/44.jpeg",2,"right",0.90899992,2,1,0.857000113,1,0.353999853,154,0,0,NA,0,NA,1
"418","stim/objects/Instruments/bassdrum3.png",253,31,246,0.5,"stim/31.jpeg",3,1,1,2,"Instruments",1,3,"left","left",0.592000008,1,1,1,0,NA,NA,NA,NA,NA,NA,NA,NA,NA,NA,NA,NA,NA,NA,NA,NA,NA,NA,NA,NA,NA,NA,NA,NA
"279","stim/objects/HouseObjects/iron3.png",254,31,247,0.7,"stim/51.jpeg",5,1,2,2,"HouseObjects",2,3,"right","right",0.679000139,1,1,1,0,NA,NA,NA,NA,NA,NA,NA,NA,NA,NA,NA,NA,NA,NA,NA,NA,NA,NA,NA,NA,NA,NA,NA,NA
"291","stim/objects/HouseObjects/knife3.png",255,31,248,0.9,"stim/12.jpeg",1,2,3,2,"HouseObjects",2,1,"right","right",0.593999863,1,1,1,0,NA,NA,NA,NA,NA,NA,NA,NA,NA,NA,NA,NA,NA,NA,NA,NA,NA,NA,NA,NA,NA,NA,NA,NA
"292","stim/objects/HouseObjects/knife3.png",256,31,249,0.9,"stim/14.jpeg",1,4,3,2,"HouseObjects",2,3,"right","right",0.446000099,1,1,1,0,NA,NA,NA,NA,NA,NA,NA,NA,NA,NA,NA,NA,NA,NA,NA,NA,NA,NA,NA,NA,NA,NA,NA,NA
"473","stim/objects/Instruments/metronome3.png",257,31,250,0.9,"stim/21.jpeg",2,1,3,2,"Instruments",1,4,"left","left",0.582999945,1,1,1,0,NA,NA,NA,NA,NA,NA,NA,NA,NA,NA,NA,NA,NA,NA,NA,NA,NA,NA,NA,NA,NA,NA,NA,NA
"325","stim/objects/HouseObjects/match3.png",258,31,251,0.9,"stim/14.jpeg",1,4,3,2,"HouseObjects",2,3,"right","right",0.414000034,1,1,1,0,NA,NA,NA,NA,NA,NA,NA,NA,NA,NA,NA,NA,NA,NA,NA,NA,NA,NA,NA,NA,NA,NA,NA,NA
"326","stim/objects/HouseObjects/match3.png",259,31,252,0.9,"stim/13.jpeg",1,3,3,2,"HouseObjects",2,4,"right","right",0.463999987,1,1,1,0,NA,NA,NA,NA,NA,NA,NA,NA,NA,NA,NA,NA,NA,NA,NA,NA,NA,NA,NA,NA,NA,NA,NA,NA
"524","stim/objects/Instruments/oboe3.png",260,31,253,0.9,"stim/23.jpeg",2,3,3,2,"Instruments",1,3,"left","left",0.497999907,1,1,1,0,NA,NA,NA,NA,NA,NA,NA,NA,NA,NA,NA,NA,NA,NA,NA,NA,NA,NA,NA,NA,NA,NA,NA,NA
"398","stim/objects/HouseObjects/thread3.png",261,31,254,0.7,"stim/53.jpeg",5,3,2,1,"HouseObjects",2,1,"right","right",0.502000093,1,1,1,0,55,31,1,0.7,2,"stim/53.jpeg",5,3,"stim/53.jpeg",1,"left",1.107999802,2,2,1.589999914,1,0.137999773,55,1,0,0,1,1,1
"508","stim/objects/Instruments/musicstand3.png",262,31,255,0.9,"stim/24.jpeg",2,4,3,2,"Instruments",1,3,"left","left",0.525000095,1,1,1,0,NA,NA,NA,NA,NA,NA,NA,NA,NA,NA,NA,NA,NA,NA,NA,NA,NA,NA,NA,NA,NA,NA,NA,NA
"265","stim/objects/HouseObjects/bucket3.png",263,31,256,0.5,"stim/41.jpeg",4,1,1,2,"HouseObjects",2,2,"right","right",0.49000001,1,1,1,0,NA,NA,NA,NA,NA,NA,NA,NA,NA,NA,NA,NA,NA,NA,NA,NA,NA,NA,NA,NA,NA,NA,NA,NA
"492","stim/objects/Instruments/musicsheet3.png",264,31,257,0.9,"stim/23.jpeg",2,3,3,2,"Instruments",1,1,"left","left",0.482000113,1,1,1,0,NA,NA,NA,NA,NA,NA,NA,NA,NA,NA,NA,NA,NA,NA,NA,NA,NA,NA,NA,NA,NA,NA,NA,NA
"293","stim/objects/HouseObjects/knife3.png",265,31,258,0.9,"stim/14.jpeg",1,4,3,2,"HouseObjects",2,2,"right","right",0.457000017,1,1,1,0,NA,NA,NA,NA,NA,NA,NA,NA,NA,NA,NA,NA,NA,NA,NA,NA,NA,NA,NA,NA,NA,NA,NA,NA
"493","stim/objects/Instruments/musicsheet3.png",266,31,259,0.9,"stim/22.jpeg",2,2,3,2,"Instruments",1,4,"left","right",0.36500001,0,0,1,0,NA,NA,NA,NA,NA,NA,NA,NA,NA,NA,NA,NA,NA,NA,NA,NA,NA,NA,NA,NA,NA,NA,NA,NA
"414","stim/objects/Instruments/balalaika4.png",267,31,260,0.3,"stim/54.jpeg",5,4,2,1,"Instruments",1,4,"left","right",0.688999891,0,0,1,0,7,31,1,0.3,1,"stim/54.jpeg",5,4,"stim/54.jpeg",4,"left",1.272000074,2,3,2.593999863,4,0.053999901,7,1,0,0,1,1,1
"444","stim/objects/Instruments/keyboard3.png",268,31,261,0.7,"stim/61.jpeg",6,1,2,2,"Instruments",1,1,"left","left",0.838999987,1,1,1,0,NA,NA,NA,NA,NA,NA,NA,NA,NA,NA,NA,NA,NA,NA,NA,NA,NA,NA,NA,NA,NA,NA,NA,NA
"509","stim/objects/Instruments/musicstand3.png",269,31,262,0.9,"stim/21.jpeg",2,1,3,2,"Instruments",1,3,"left","left",0.516000032,1,1,1,0,NA,NA,NA,NA,NA,NA,NA,NA,NA,NA,NA,NA,NA,NA,NA,NA,NA,NA,NA,NA,NA,NA,NA,NA
"495","stim/objects/Instruments/musicsheet3.png",270,31,263,0.9,"stim/21.jpeg",2,1,3,2,"Instruments",1,4,"left","left",0.531000137,1,1,1,0,NA,NA,NA,NA,NA,NA,NA,NA,NA,NA,NA,NA,NA,NA,NA,NA,NA,NA,NA,NA,NA,NA,NA,NA
"308","stim/objects/HouseObjects/lintroller3.png",271,31,264,0.9,"stim/13.jpeg",1,3,3,2,"HouseObjects",2,2,"right","right",0.572000027,1,1,1,0,NA,NA,NA,NA,NA,NA,NA,NA,NA,NA,NA,NA,NA,NA,NA,NA,NA,NA,NA,NA,NA,NA,NA,NA
"430","stim/objects/Instruments/clarinet3.png",272,31,265,0.5,"stim/42.jpeg",4,2,1,2,"Instruments",1,2,"left","right",0.602999926,0,0,1,0,NA,NA,NA,NA,NA,NA,NA,NA,NA,NA,NA,NA,NA,NA,NA,NA,NA,NA,NA,NA,NA,NA,NA,NA
"510","stim/objects/Instruments/musicstand3.png",273,31,266,0.9,"stim/24.jpeg",2,4,3,2,"Instruments",1,3,"left","left",0.481999874,1,1,1,0,NA,NA,NA,NA,NA,NA,NA,NA,NA,NA,NA,NA,NA,NA,NA,NA,NA,NA,NA,NA,NA,NA,NA,NA
"327","stim/objects/HouseObjects/match3.png",274,31,267,0.9,"stim/13.jpeg",1,3,3,2,"HouseObjects",2,2,"right","right",0.447999954,1,1,1,0,NA,NA,NA,NA,NA,NA,NA,NA,NA,NA,NA,NA,NA,NA,NA,NA,NA,NA,NA,NA,NA,NA,NA,NA
"290","stim/objects/HouseObjects/key4.png",275,31,268,0.3,"stim/63.jpeg",6,3,2,1,"HouseObjects",2,1,"right","left",0.634000063,0,0,1,0,93,31,1,0.3,2,"stim/63.jpeg",6,3,"stim/63.jpeg",1,"right",0.846999884,2,1,0.875,1,0.741999865,93,0,0,NA,1,NA,1
"440","stim/objects/Instruments/doublebass3.png",276,31,269,0.7,"stim/64.jpeg",6,4,2,2,"Instruments",1,3,"left","right",0.667000055,0,0,1,0,NA,NA,NA,NA,NA,NA,NA,NA,NA,NA,NA,NA,NA,NA,NA,NA,NA,NA,NA,NA,NA,NA,NA,NA
"247","stim/objects/HouseObjects/barbecuelighter3.png",277,31,270,0.5,"stim/33.jpeg",3,3,1,2,"HouseObjects",2,1,"right","left",0.68599987,0,0,1,0,NA,NA,NA,NA,NA,NA,NA,NA,NA,NA,NA,NA,NA,NA,NA,NA,NA,NA,NA,NA,NA,NA,NA,NA
"511","stim/objects/Instruments/musicstand3.png",278,31,271,0.9,"stim/23.jpeg",2,3,3,2,"Instruments",1,4,"left","right",0.575000048,0,0,1,0,NA,NA,NA,NA,NA,NA,NA,NA,NA,NA,NA,NA,NA,NA,NA,NA,NA,NA,NA,NA,NA,NA,NA,NA
"261","stim/objects/HouseObjects/bottle4.png",279,31,272,0.3,"stim/63.jpeg",6,3,2,1,"HouseObjects",2,2,"right","left",0.615999937,0,0,1,0,159,31,1,0.3,2,"stim/63.jpeg",6,3,"stim/63.jpeg",2,"left",0.891000032,4,2,3.008999825,2,0.40899992,159,1,0,0,1,1,1
"445","stim/objects/Instruments/keyboard3.png",280,31,273,0.7,"stim/63.jpeg",6,3,2,2,"Instruments",1,2,"left","right",0.431999922,0,0,1,0,NA,NA,NA,NA,NA,NA,NA,NA,NA,NA,NA,NA,NA,NA,NA,NA,NA,NA,NA,NA,NA,NA,NA,NA
"394","stim/objects/HouseObjects/teapot3.png",281,31,274,0.5,"stim/44.jpeg",4,4,1,1,"HouseObjects",2,3,"right","left",0.470999956,0,0,1,0,111,31,1,0.5,2,"stim/44.jpeg",4,4,"stim/44.jpeg",3,"right",1.760999918,2,1,0.742000103,2,0.651000023,111,0,0,NA,0,NA,1
"262","stim/objects/HouseObjects/broom3.png",282,31,275,0.5,"stim/44.jpeg",4,4,1,2,"HouseObjects",2,4,"right","right",0.424000025,1,1,1,0,NA,NA,NA,NA,NA,NA,NA,NA,NA,NA,NA,NA,NA,NA,NA,NA,NA,NA,NA,NA,NA,NA,NA,NA
"392","stim/objects/HouseObjects/spraybottle3.png",283,31,276,0.5,"stim/43.jpeg",4,3,1,1,"HouseObjects",2,1,"right","right",0.621000051,1,1,1,0,70,31,1,0.5,2,"stim/43.jpeg",4,3,"stim/43.jpeg",1,"right",0.828999996,2,1,1.122999907,1,0.178999901,70,0,0,NA,1,NA,1
"403","stim/objects/HouseObjects/vacuumcleaner4.png",284,31,277,0.1,"stim/23.jpeg",2,3,3,1,"HouseObjects",2,4,"right","left",0.53399992,0,0,1,0,25,31,1,0.1,2,"stim/23.jpeg",2,3,"stim/23.jpeg",4,"left",0.992999792,3,3,5.892999887,1,0.200999975,25,1,1,1,0,0,1
"457","stim/objects/Instruments/marimba3.png",285,31,278,0.9,"stim/21.jpeg",2,1,3,2,"Instruments",1,2,"left","left",0.565000057,1,1,1,0,NA,NA,NA,NA,NA,NA,NA,NA,NA,NA,NA,NA,NA,NA,NA,NA,NA,NA,NA,NA,NA,NA,NA,NA
"282","stim/objects/HouseObjects/iron4.png",286,31,279,0.3,"stim/61.jpeg",6,1,2,1,"HouseObjects",2,1,"right","right",0.588000059,1,1,1,0,31,31,1,0.3,2,"stim/61.jpeg",6,1,"stim/61.jpeg",1,"right",1.426999807,4,2,0.926999807,1,0.240999937,31,0,0,NA,1,NA,1
"404","stim/objects/HouseObjects/wateringcan3.png",287,31,280,0.7,"stim/52.jpeg",5,2,2,1,"HouseObjects",2,4,"right","right",0.570000172,1,1,1,0,174,31,1,0.7,2,"stim/52.jpeg",5,2,"stim/52.jpeg",4,"right",0.626999855,1,1,0.639999866,1,0.806999922,174,0,0,NA,0,NA,1
"274","stim/objects/HouseObjects/clothesdryingrack4.png",288,31,281,0.3,"stim/63.jpeg",6,3,2,1,"HouseObjects",2,3,"right","left",0.541000128,0,0,1,0,36,31,1,0.3,2,"stim/63.jpeg",6,3,"stim/63.jpeg",3,"left",2.031999826,4,3,4.444999933,1,0.862999916,36,1,1,1,0,0,1
"527","stim/objects/Instruments/oboe3.png",289,31,282,0.9,"stim/21.jpeg",2,1,3,2,"Instruments",1,2,"left","left",0.477999926,1,1,1,0,NA,NA,NA,NA,NA,NA,NA,NA,NA,NA,NA,NA,NA,NA,NA,NA,NA,NA,NA,NA,NA,NA,NA,NA
"497","stim/objects/Instruments/musicsheet3.png",290,31,283,0.9,"stim/23.jpeg",2,3,3,2,"Instruments",1,4,"left","right",0.414000034,0,0,1,0,NA,NA,NA,NA,NA,NA,NA,NA,NA,NA,NA,NA,NA,NA,NA,NA,NA,NA,NA,NA,NA,NA,NA,NA
"540","stim/objects/Instruments/oboe4.png",291,31,284,0.1,"stim/11.jpeg",1,1,3,1,"Instruments",1,4,"left","right",0.534000158,0,0,1,0,150,31,1,0.1,1,"stim/11.jpeg",1,1,"stim/11.jpeg",4,"left",0.958999872,3,1,1.517999887,2,0.769999743,150,1,1,1,0,0,1
"474","stim/objects/Instruments/metronome3.png",292,31,285,0.9,"stim/22.jpeg",2,2,3,2,"Instruments",1,3,"left","left",0.460999966,1,1,1,0,NA,NA,NA,NA,NA,NA,NA,NA,NA,NA,NA,NA,NA,NA,NA,NA,NA,NA,NA,NA,NA,NA,NA,NA
"458","stim/objects/Instruments/marimba3.png",293,31,286,0.9,"stim/21.jpeg",2,1,3,2,"Instruments",1,2,"left","left",0.568000078,1,1,1,0,NA,NA,NA,NA,NA,NA,NA,NA,NA,NA,NA,NA,NA,NA,NA,NA,NA,NA,NA,NA,NA,NA,NA,NA
"294","stim/objects/HouseObjects/knife3.png",294,31,287,0.9,"stim/13.jpeg",1,3,3,2,"HouseObjects",2,1,"right","right",0.467999935,1,1,1,0,NA,NA,NA,NA,NA,NA,NA,NA,NA,NA,NA,NA,NA,NA,NA,NA,NA,NA,NA,NA,NA,NA,NA,NA
"344","stim/objects/HouseObjects/pan3.png",295,31,288,0.9,"stim/13.jpeg",1,3,3,2,"HouseObjects",2,1,"right","right",0.556999922,1,1,1,0,NA,NA,NA,NA,NA,NA,NA,NA,NA,NA,NA,NA,NA,NA,NA,NA,NA,NA,NA,NA,NA,NA,NA,NA
"345","stim/objects/HouseObjects/pan3.png",296,31,289,0.9,"stim/11.jpeg",1,1,3,2,"HouseObjects",2,1,"right","right",0.423000097,1,1,1,0,NA,NA,NA,NA,NA,NA,NA,NA,NA,NA,NA,NA,NA,NA,NA,NA,NA,NA,NA,NA,NA,NA,NA,NA
"360","stim/objects/HouseObjects/pitcher3.png",297,31,290,0.9,"stim/11.jpeg",1,1,3,2,"HouseObjects",2,1,"right","right",0.450000048,1,1,1,0,NA,NA,NA,NA,NA,NA,NA,NA,NA,NA,NA,NA,NA,NA,NA,NA,NA,NA,NA,NA,NA,NA,NA,NA
"411","stim/objects/Instruments/acousticguitar4.png",298,31,291,0.3,"stim/53.jpeg",5,3,2,1,"Instruments",1,3,"left","right",0.411000013,0,0,1,0,156,31,1,0.3,1,"stim/53.jpeg",5,3,"stim/53.jpeg",3,"right",0.960999966,1,1,0.907999992,1,0.595000029,156,0,0,NA,0,NA,1
"388","stim/objects/HouseObjects/scale3.png",299,31,292,0.5,"stim/41.jpeg",4,1,1,1,"HouseObjects",2,1,"right","right",0.536000013,1,1,1,0,34,31,1,0.5,2,"stim/41.jpeg",4,1,"stim/41.jpeg",1,"left",1.995999813,4,4,8.215999842,1,0.581999779,34,1,0,0,1,1,1
"295","stim/objects/HouseObjects/knife3.png",300,31,293,0.9,"stim/13.jpeg",1,3,3,2,"HouseObjects",2,1,"right","right",0.597000122,1,1,1,0,NA,NA,NA,NA,NA,NA,NA,NA,NA,NA,NA,NA,NA,NA,NA,NA,NA,NA,NA,NA,NA,NA,NA,NA
"459","stim/objects/Instruments/marimba3.png",301,31,294,0.9,"stim/23.jpeg",2,3,3,2,"Instruments",1,1,"left","left",0.480999947,1,1,1,0,NA,NA,NA,NA,NA,NA,NA,NA,NA,NA,NA,NA,NA,NA,NA,NA,NA,NA,NA,NA,NA,NA,NA,NA
"513","stim/objects/Instruments/musicstand3.png",302,31,295,0.9,"stim/23.jpeg",2,3,3,2,"Instruments",1,1,"left","left",0.463000059,1,1,1,0,NA,NA,NA,NA,NA,NA,NA,NA,NA,NA,NA,NA,NA,NA,NA,NA,NA,NA,NA,NA,NA,NA,NA,NA
"347","stim/objects/HouseObjects/pan3.png",303,31,296,0.9,"stim/11.jpeg",1,1,3,2,"HouseObjects",2,2,"right","right",0.404000044,1,1,1,0,NA,NA,NA,NA,NA,NA,NA,NA,NA,NA,NA,NA,NA,NA,NA,NA,NA,NA,NA,NA,NA,NA,NA,NA
"384","stim/objects/HouseObjects/safetypin3.png",304,31,297,0.5,"stim/32.jpeg",3,2,1,1,"HouseObjects",2,3,"right","left",0.606000185,0,0,1,0,40,31,1,0.5,1,"stim/32.jpeg",3,2,"stim/32.jpeg",3,"left",1.069999933,4,1,4.113999844,3,0.965999842,40,1,0,0,1,1,1
"443","stim/objects/Instruments/doublebass4.png",305,31,298,0.7,"stim/62.jpeg",6,2,2,1,"Instruments",1,3,"left","right",0.424000025,0,0,1,0,45,31,1,0.7,1,"stim/62.jpeg",6,2,"stim/62.jpeg",3,"left",0.757999897,3,4,2.391000032,2,0.224999905,45,1,0,0,0,0,1
"361","stim/objects/HouseObjects/pitcher3.png",306,31,299,0.9,"stim/14.jpeg",1,4,3,2,"HouseObjects",2,1,"right","right",0.519999981,1,1,1,0,NA,NA,NA,NA,NA,NA,NA,NA,NA,NA,NA,NA,NA,NA,NA,NA,NA,NA,NA,NA,NA,NA,NA,NA
"387","stim/objects/HouseObjects/saw4.png",307,31,300,0.1,"stim/23.jpeg",2,3,3,1,"HouseObjects",2,2,"right","left",0.55099988,0,0,1,0,123,31,1,0.1,2,"stim/23.jpeg",2,3,"stim/23.jpeg",2,"left",2.173999786,2,2,1.039999962,2,1.589999914,123,1,0,0,1,1,1
"389","stim/objects/HouseObjects/scale4.png",308,31,301,0.1,"stim/24.jpeg",2,4,3,1,"HouseObjects",2,2,"right","left",0.617000103,0,0,1,0,125,31,1,0.1,2,"stim/24.jpeg",2,4,"stim/24.jpeg",2,"right",0.691999912,2,2,0.888999939,2,0.423999786,125,0,0,NA,1,NA,1
"555","stim/objects/Instruments/timbal3.png",309,31,302,0.5,"stim/43.jpeg",4,3,1,1,"Instruments",1,1,"left","right",0.475000143,0,0,1,0,135,31,1,0.5,2,"stim/43.jpeg",4,3,"stim/43.jpeg",1,"left",2.230999947,3,3,1.60800004,1,0.76699996,135,1,1,1,1,1,1
"460","stim/objects/Instruments/marimba3.png",310,31,303,0.9,"stim/22.jpeg",2,2,3,2,"Instruments",1,3,"left","left",0.511000156,1,1,1,0,NA,NA,NA,NA,NA,NA,NA,NA,NA,NA,NA,NA,NA,NA,NA,NA,NA,NA,NA,NA,NA,NA,NA,NA
"310","stim/objects/HouseObjects/lintroller3.png",311,31,304,0.9,"stim/12.jpeg",1,2,3,2,"HouseObjects",2,1,"right","right",0.547999859,1,1,1,0,NA,NA,NA,NA,NA,NA,NA,NA,NA,NA,NA,NA,NA,NA,NA,NA,NA,NA,NA,NA,NA,NA,NA,NA
"498","stim/objects/Instruments/musicsheet3.png",312,31,305,0.9,"stim/21.jpeg",2,1,3,2,"Instruments",1,3,"left","left",0.536000013,1,1,1,0,NA,NA,NA,NA,NA,NA,NA,NA,NA,NA,NA,NA,NA,NA,NA,NA,NA,NA,NA,NA,NA,NA,NA,NA
"432","stim/objects/Instruments/clarinet4.png",313,31,306,0.7,"stim/63.jpeg",6,3,2,1,"Instruments",1,4,"left","left",0.674000025,1,1,1,0,63,31,1,0.7,1,"stim/63.jpeg",6,3,"stim/63.jpeg",4,"left",0.89199996,2,2,1.322999954,1,0.309000015,63,1,0,0,0,0,1
"406","stim/objects/Instruments/accordion3.png",314,31,307,0.5,"stim/32.jpeg",3,2,1,2,"Instruments",1,1,"left","left",0.631000042,1,1,1,0,NA,NA,NA,NA,NA,NA,NA,NA,NA,NA,NA,NA,NA,NA,NA,NA,NA,NA,NA,NA,NA,NA,NA,NA
"245","stim/objects/HouseObjects/ballofstring3.png",315,31,308,0.5,"stim/31.jpeg",3,1,1,2,"HouseObjects",2,3,"right","left",0.53399992,0,0,1,0,NA,NA,NA,NA,NA,NA,NA,NA,NA,NA,NA,NA,NA,NA,NA,NA,NA,NA,NA,NA,NA,NA,NA,NA
"417","stim/objects/Instruments/banjo4.png",316,31,309,0.3,"stim/51.jpeg",5,1,2,1,"Instruments",1,3,"left","right",0.743999958,0,0,1,0,187,31,1,0.3,1,"stim/51.jpeg",5,1,"stim/51.jpeg",3,"right",0.806999922,2,1,0.77699995,1,0.302999973,187,0,1,NA,0,NA,1
"461","stim/objects/Instruments/marimba3.png",317,31,310,0.9,"stim/22.jpeg",2,2,3,2,"Instruments",1,1,"left","left",0.506000042,1,1,1,0,NA,NA,NA,NA,NA,NA,NA,NA,NA,NA,NA,NA,NA,NA,NA,NA,NA,NA,NA,NA,NA,NA,NA,NA
"382","stim/objects/HouseObjects/rug3.png",318,31,311,0.5,"stim/31.jpeg",3,1,1,1,"HouseObjects",2,4,"right","left",0.584000111,0,0,1,0,73,31,1,0.5,1,"stim/31.jpeg",3,1,"stim/31.jpeg",4,"left",0.791000128,4,2,4.64199996,1,2.40199995,73,1,0,0,0,0,1
"436","stim/objects/Instruments/cymbal3.png",319,31,312,0.7,"stim/63.jpeg",6,3,2,2,"Instruments",1,1,"left","left",0.626999855,1,1,1,0,NA,NA,NA,NA,NA,NA,NA,NA,NA,NA,NA,NA,NA,NA,NA,NA,NA,NA,NA,NA,NA,NA,NA,NA
"550","stim/objects/Instruments/saxophone4.png",320,31,313,0.1,"stim/12.jpeg",1,2,3,1,"Instruments",1,4,"left","right",0.467000008,0,0,1,0,155,31,1,0.1,1,"stim/12.jpeg",1,2,"stim/12.jpeg",4,"left",1.758999825,2,2,0.77699995,1,0.441999912,155,1,1,1,0,0,1
"363","stim/objects/HouseObjects/pitcher3.png",321,31,314,0.9,"stim/11.jpeg",1,1,3,2,"HouseObjects",2,2,"right","right",0.500999928,1,1,1,0,NA,NA,NA,NA,NA,NA,NA,NA,NA,NA,NA,NA,NA,NA,NA,NA,NA,NA,NA,NA,NA,NA,NA,NA
"561","stim/objects/Instruments/trumpet3.png",322,31,315,0.3,"stim/51.jpeg",5,1,2,1,"Instruments",1,2,"left","right",0.779000044,0,0,1,0,14,31,1,0.3,1,"stim/51.jpeg",5,1,"stim/51.jpeg",2,"left",1.174999952,3,3,2.930999994,1,0.569000006,14,1,0,0,0,0,1
"396","stim/objects/HouseObjects/thermometer3.png",323,31,316,0.7,"stim/52.jpeg",5,2,2,1,"HouseObjects",2,2,"right","right",0.46600008,1,1,1,0,30,31,1,0.7,2,"stim/52.jpeg",5,2,"stim/52.jpeg",2,"left",2.796000004,3,2,2.007999897,1,0.47699976,30,1,1,1,0,0,1
"499","stim/objects/Instruments/musicsheet3.png",324,31,317,0.9,"stim/21.jpeg",2,1,3,2,"Instruments",1,3,"left","left",0.56099987,1,1,1,0,NA,NA,NA,NA,NA,NA,NA,NA,NA,NA,NA,NA,NA,NA,NA,NA,NA,NA,NA,NA,NA,NA,NA,NA
"311","stim/objects/HouseObjects/lintroller3.png",325,31,318,0.9,"stim/12.jpeg",1,2,3,2,"HouseObjects",2,4,"right","right",0.416000128,1,1,1,0,NA,NA,NA,NA,NA,NA,NA,NA,NA,NA,NA,NA,NA,NA,NA,NA,NA,NA,NA,NA,NA,NA,NA,NA
"566","stim/objects/Instruments/violin4.png",326,31,319,0.9,"stim/24.jpeg",2,4,3,1,"Instruments",1,3,"left","left",0.588000059,1,1,1,0,114,31,1,0.9,1,"stim/24.jpeg",2,4,"stim/24.jpeg",3,"right",0.756999969,2,3,1.253999949,2,0.503999949,114,0,0,NA,0,NA,1
"307","stim/objects/HouseObjects/knife4.png",327,31,320,0.9,"stim/13.jpeg",1,3,3,1,"HouseObjects",2,2,"right","right",0.631999969,1,1,1,0,54,31,1,0.9,2,"stim/13.jpeg",1,3,"stim/13.jpeg",2,"right",0.792000055,4,4,0.541999817,4,0.316999912,54,0,0,NA,0,NA,1
"268","stim/objects/HouseObjects/clock3.png",328,31,321,0.5,"stim/42.jpeg",4,2,1,2,"HouseObjects",2,4,"right","right",0.389999866,1,1,1,0,NA,NA,NA,NA,NA,NA,NA,NA,NA,NA,NA,NA,NA,NA,NA,NA,NA,NA,NA,NA,NA,NA,NA,NA
"476","stim/objects/Instruments/metronome3.png",329,31,322,0.9,"stim/21.jpeg",2,1,3,2,"Instruments",1,1,"left","left",0.54700017,1,1,1,0,NA,NA,NA,NA,NA,NA,NA,NA,NA,NA,NA,NA,NA,NA,NA,NA,NA,NA,NA,NA,NA,NA,NA,NA
"296","stim/objects/HouseObjects/knife3.png",330,31,323,0.9,"stim/11.jpeg",1,1,3,2,"HouseObjects",2,4,"right","right",0.358999968,1,1,1,0,NA,NA,NA,NA,NA,NA,NA,NA,NA,NA,NA,NA,NA,NA,NA,NA,NA,NA,NA,NA,NA,NA,NA,NA
"329","stim/objects/HouseObjects/match3.png",331,31,324,0.9,"stim/13.jpeg",1,3,3,2,"HouseObjects",2,4,"right","right",0.49000001,1,1,1,0,NA,NA,NA,NA,NA,NA,NA,NA,NA,NA,NA,NA,NA,NA,NA,NA,NA,NA,NA,NA,NA,NA,NA,NA
"431","stim/objects/Instruments/clarinet3.png",332,31,325,0.5,"stim/43.jpeg",4,3,1,2,"Instruments",1,2,"left","right",0.463999987,0,0,1,0,NA,NA,NA,NA,NA,NA,NA,NA,NA,NA,NA,NA,NA,NA,NA,NA,NA,NA,NA,NA,NA,NA,NA,NA
"530","stim/objects/Instruments/oboe3.png",333,31,326,0.9,"stim/21.jpeg",2,1,3,2,"Instruments",1,4,"left","left",0.496000051,1,1,1,0,NA,NA,NA,NA,NA,NA,NA,NA,NA,NA,NA,NA,NA,NA,NA,NA,NA,NA,NA,NA,NA,NA,NA,NA
"477","stim/objects/Instruments/metronome3.png",334,31,327,0.9,"stim/23.jpeg",2,3,3,2,"Instruments",1,3,"left","left",0.554999828,1,1,1,0,NA,NA,NA,NA,NA,NA,NA,NA,NA,NA,NA,NA,NA,NA,NA,NA,NA,NA,NA,NA,NA,NA,NA,NA
"515","stim/objects/Instruments/musicstand3.png",335,31,328,0.9,"stim/21.jpeg",2,1,3,2,"Instruments",1,3,"left","left",0.467999935,1,1,1,0,NA,NA,NA,NA,NA,NA,NA,NA,NA,NA,NA,NA,NA,NA,NA,NA,NA,NA,NA,NA,NA,NA,NA,NA
"364","stim/objects/HouseObjects/pitcher3.png",336,31,329,0.9,"stim/12.jpeg",1,2,3,2,"HouseObjects",2,2,"right","right",0.46600008,1,1,1,0,NA,NA,NA,NA,NA,NA,NA,NA,NA,NA,NA,NA,NA,NA,NA,NA,NA,NA,NA,NA,NA,NA,NA,NA
"330","stim/objects/HouseObjects/match3.png",337,31,330,0.9,"stim/14.jpeg",1,4,3,2,"HouseObjects",2,2,"right","right",0.444999933,1,1,1,0,NA,NA,NA,NA,NA,NA,NA,NA,NA,NA,NA,NA,NA,NA,NA,NA,NA,NA,NA,NA,NA,NA,NA,NA
"260","stim/objects/HouseObjects/bottle3.png",338,31,331,0.5,"stim/44.jpeg",4,4,1,2,"HouseObjects",2,2,"right","right",0.451999903,1,1,1,0,NA,NA,NA,NA,NA,NA,NA,NA,NA,NA,NA,NA,NA,NA,NA,NA,NA,NA,NA,NA,NA,NA,NA,NA
"365","stim/objects/HouseObjects/pitcher3.png",339,31,332,0.9,"stim/11.jpeg",1,1,3,2,"HouseObjects",2,2,"right","right",0.488999844,1,1,1,0,NA,NA,NA,NA,NA,NA,NA,NA,NA,NA,NA,NA,NA,NA,NA,NA,NA,NA,NA,NA,NA,NA,NA,NA
"531","stim/objects/Instruments/oboe3.png",340,31,333,0.9,"stim/22.jpeg",2,2,3,2,"Instruments",1,1,"left","left",0.510999918,1,1,1,0,NA,NA,NA,NA,NA,NA,NA,NA,NA,NA,NA,NA,NA,NA,NA,NA,NA,NA,NA,NA,NA,NA,NA,NA
"424","stim/objects/Instruments/cello3.png",341,31,334,0.5,"stim/44.jpeg",4,4,1,2,"Instruments",1,3,"left","right",0.404000044,0,0,1,0,NA,NA,NA,NA,NA,NA,NA,NA,NA,NA,NA,NA,NA,NA,NA,NA,NA,NA,NA,NA,NA,NA,NA,NA
"331","stim/objects/HouseObjects/match3.png",342,31,335,0.9,"stim/12.jpeg",1,2,3,2,"HouseObjects",2,3,"right","right",0.529999971,1,1,1,0,NA,NA,NA,NA,NA,NA,NA,NA,NA,NA,NA,NA,NA,NA,NA,NA,NA,NA,NA,NA,NA,NA,NA,NA
"297","stim/objects/HouseObjects/knife3.png",343,31,336,0.9,"stim/11.jpeg",1,1,3,2,"HouseObjects",2,3,"right","right",0.319999933,1,1,1,0,NA,NA,NA,NA,NA,NA,NA,NA,NA,NA,NA,NA,NA,NA,NA,NA,NA,NA,NA,NA,NA,NA,NA,NA
"243","stim/objects/HouseObjects/ashtray4.png",344,31,337,0.7,"stim/53.jpeg",5,3,2,1,"HouseObjects",2,3,"right","right",0.434000015,1,1,1,0,137,31,1,0.7,2,"stim/53.jpeg",5,3,"stim/53.jpeg",3,"left",2.06099987,3,4,2.807999849,2,0.356999874,137,1,0,0,0,0,1
"532","stim/objects/Instruments/oboe3.png",345,31,338,0.9,"stim/23.jpeg",2,3,3,2,"Instruments",1,3,"left","right",0.368000031,0,0,1,0,NA,NA,NA,NA,NA,NA,NA,NA,NA,NA,NA,NA,NA,NA,NA,NA,NA,NA,NA,NA,NA,NA,NA,NA
"429","stim/objects/Instruments/chime4.png",346,31,339,0.7,"stim/62.jpeg",6,2,2,1,"Instruments",1,4,"left","left",0.615999937,1,1,1,0,5,31,1,0.7,1,"stim/62.jpeg",6,2,"stim/62.jpeg",4,"left",3.061000109,3,1,4.375,1,1.589999914,5,1,0,0,0,0,1
"533","stim/objects/Instruments/oboe3.png",347,31,340,0.9,"stim/21.jpeg",2,1,3,2,"Instruments",1,1,"left","left",0.53399992,1,1,1,0,NA,NA,NA,NA,NA,NA,NA,NA,NA,NA,NA,NA,NA,NA,NA,NA,NA,NA,NA,NA,NA,NA,NA,NA
"434","stim/objects/Instruments/cornet3.png",348,31,341,0.5,"stim/44.jpeg",4,4,1,2,"Instruments",1,4,"left","right",0.551000118,0,0,1,0,NA,NA,NA,NA,NA,NA,NA,NA,NA,NA,NA,NA,NA,NA,NA,NA,NA,NA,NA,NA,NA,NA,NA,NA
"462","stim/objects/Instruments/marimba3.png",349,31,342,0.9,"stim/24.jpeg",2,4,3,2,"Instruments",1,1,"left","left",0.516000032,1,1,1,0,NA,NA,NA,NA,NA,NA,NA,NA,NA,NA,NA,NA,NA,NA,NA,NA,NA,NA,NA,NA,NA,NA,NA,NA
"380","stim/objects/HouseObjects/rubbergloves3.png",350,31,343,0.5,"stim/34.jpeg",3,4,1,1,"HouseObjects",2,3,"right","left",0.453000069,0,0,1,0,181,31,1,0.5,1,"stim/34.jpeg",3,4,"stim/34.jpeg",3,"right",0.635999918,3,1,0.56099987,2,0.703999996,181,0,0,NA,0,NA,1
"446","stim/objects/Instruments/keyboard3.png",351,31,344,0.7,"stim/64.jpeg",6,4,2,2,"Instruments",1,2,"left","right",0.378999949,0,0,1,0,NA,NA,NA,NA,NA,NA,NA,NA,NA,NA,NA,NA,NA,NA,NA,NA,NA,NA,NA,NA,NA,NA,NA,NA
"298","stim/objects/HouseObjects/knife3.png",352,31,345,0.9,"stim/13.jpeg",1,3,3,2,"HouseObjects",2,2,"right","right",0.556999922,1,1,1,0,NA,NA,NA,NA,NA,NA,NA,NA,NA,NA,NA,NA,NA,NA,NA,NA,NA,NA,NA,NA,NA,NA,NA,NA
"559","stim/objects/Instruments/trombone3.png",353,31,346,0.5,"stim/41.jpeg",4,1,1,1,"Instruments",1,3,"left","left",0.515000105,1,1,1,0,109,31,1,0.5,2,"stim/41.jpeg",4,1,"stim/41.jpeg",3,"left",1.29399991,4,2,1.354999781,1,0.693999767,109,1,0,0,0,0,1
"516","stim/objects/Instruments/musicstand3.png",354,31,347,0.9,"stim/22.jpeg",2,2,3,2,"Instruments",1,1,"left","right",0.428999901,0,0,1,0,NA,NA,NA,NA,NA,NA,NA,NA,NA,NA,NA,NA,NA,NA,NA,NA,NA,NA,NA,NA,NA,NA,NA,NA
"409","stim/objects/Instruments/acousticguitar3.png",355,31,348,0.5,"stim/32.jpeg",3,2,1,2,"Instruments",1,2,"left","right",0.444999933,0,0,1,0,NA,NA,NA,NA,NA,NA,NA,NA,NA,NA,NA,NA,NA,NA,NA,NA,NA,NA,NA,NA,NA,NA,NA,NA
"312","stim/objects/HouseObjects/lintroller3.png",356,31,349,0.9,"stim/14.jpeg",1,4,3,2,"HouseObjects",2,2,"right","right",0.582000017,1,1,1,0,NA,NA,NA,NA,NA,NA,NA,NA,NA,NA,NA,NA,NA,NA,NA,NA,NA,NA,NA,NA,NA,NA,NA,NA
"408","stim/objects/Instruments/accordion4.png",357,31,350,0.3,"stim/52.jpeg",5,2,2,1,"Instruments",1,1,"left","right",0.621999979,0,0,1,0,98,31,1,0.3,1,"stim/52.jpeg",5,2,"stim/52.jpeg",1,"right",0.536000013,2,2,0.993999958,1,0.369999886,98,0,1,NA,1,NA,1
"253","stim/objects/HouseObjects/bleachbottle3.png",358,31,351,0.5,"stim/31.jpeg",3,1,1,2,"HouseObjects",2,4,"right","left",0.766000032,0,0,1,0,NA,NA,NA,NA,NA,NA,NA,NA,NA,NA,NA,NA,NA,NA,NA,NA,NA,NA,NA,NA,NA,NA,NA,NA
"350","stim/objects/HouseObjects/pan3.png",359,31,352,0.9,"stim/13.jpeg",1,3,3,2,"HouseObjects",2,3,"right","right",0.501999855,1,1,1,0,NA,NA,NA,NA,NA,NA,NA,NA,NA,NA,NA,NA,NA,NA,NA,NA,NA,NA,NA,NA,NA,NA,NA,NA
"407","stim/objects/Instruments/accordion3.png",360,31,353,0.5,"stim/31.jpeg",3,1,1,2,"Instruments",1,1,"left","right",0.607000113,0,0,1,0,NA,NA,NA,NA,NA,NA,NA,NA,NA,NA,NA,NA,NA,NA,NA,NA,NA,NA,NA,NA,NA,NA,NA,NA
"564","stim/objects/Instruments/tuba4.png",361,31,354,0.9,"stim/23.jpeg",2,3,3,1,"Instruments",1,3,"left","left",0.518000126,1,1,1,0,190,31,1,0.9,1,"stim/23.jpeg",2,3,"stim/23.jpeg",3,"right",1.125999928,2,1,0.64199996,2,0.49000001,190,0,0,NA,0,NA,1
"328","stim/objects/HouseObjects/match3.png",362,31,355,0.9,"stim/11.jpeg",1,1,3,2,"HouseObjects",2,1,"right","right",0.514999866,1,1,1,0,NA,NA,NA,NA,NA,NA,NA,NA,NA,NA,NA,NA,NA,NA,NA,NA,NA,NA,NA,NA,NA,NA,NA,NA
"517","stim/objects/Instruments/musicstand3.png",363,31,356,0.9,"stim/22.jpeg",2,2,3,2,"Instruments",1,3,"left","right",0.353000164,0,0,1,0,NA,NA,NA,NA,NA,NA,NA,NA,NA,NA,NA,NA,NA,NA,NA,NA,NA,NA,NA,NA,NA,NA,NA,NA
"501","stim/objects/Instruments/musicsheet3.png",364,31,357,0.9,"stim/22.jpeg",2,2,3,2,"Instruments",1,3,"left","left",0.480000019,1,1,1,0,NA,NA,NA,NA,NA,NA,NA,NA,NA,NA,NA,NA,NA,NA,NA,NA,NA,NA,NA,NA,NA,NA,NA,NA
"375","stim/objects/HouseObjects/pitcher4.png",365,31,358,0.9,"stim/13.jpeg",1,3,3,1,"HouseObjects",2,3,"right","right",0.542999983,1,1,1,0,166,31,1,0.9,2,"stim/13.jpeg",1,3,"stim/13.jpeg",3,"right",2.159999847,1,1,0.737999916,2,1.034999847,166,0,0,NA,0,NA,1
"267","stim/objects/HouseObjects/bucket4.png",366,31,359,0.3,"stim/61.jpeg",6,1,2,1,"HouseObjects",2,3,"right","right",0.762000084,1,1,1,0,9,31,1,0.3,2,"stim/61.jpeg",6,1,"stim/61.jpeg",3,"left",1.037999868,3,1,3.154999733,1,0.370000124,9,1,1,1,0,0,1
"565","stim/objects/Instruments/violin3.png",367,31,360,0.3,"stim/53.jpeg",5,3,2,1,"Instruments",1,2,"left","right",0.531000137,0,0,1,0,84,31,1,0.3,1,"stim/53.jpeg",5,3,"stim/53.jpeg",2,"right",1.10199976,2,1,1.036999702,1,0.174000025,84,0,0,NA,0,NA,1
"333","stim/objects/HouseObjects/match3.png",368,31,361,0.9,"stim/13.jpeg",1,3,3,2,"HouseObjects",2,4,"right","right",0.519000053,1,1,1,0,NA,NA,NA,NA,NA,NA,NA,NA,NA,NA,NA,NA,NA,NA,NA,NA,NA,NA,NA,NA,NA,NA,NA,NA
"463","stim/objects/Instruments/marimba3.png",369,31,362,0.9,"stim/24.jpeg",2,4,3,2,"Instruments",1,4,"left","left",0.660000086,1,1,1,0,NA,NA,NA,NA,NA,NA,NA,NA,NA,NA,NA,NA,NA,NA,NA,NA,NA,NA,NA,NA,NA,NA,NA,NA
"366","stim/objects/HouseObjects/pitcher3.png",370,31,363,0.9,"stim/11.jpeg",1,1,3,2,"HouseObjects",2,4,"right","right",0.560000181,1,1,1,0,NA,NA,NA,NA,NA,NA,NA,NA,NA,NA,NA,NA,NA,NA,NA,NA,NA,NA,NA,NA,NA,NA,NA,NA
"256","stim/objects/HouseObjects/blender3.png",371,31,364,0.5,"stim/43.jpeg",4,3,1,2,"HouseObjects",2,2,"right","right",0.585999966,1,1,1,0,NA,NA,NA,NA,NA,NA,NA,NA,NA,NA,NA,NA,NA,NA,NA,NA,NA,NA,NA,NA,NA,NA,NA,NA
"334","stim/objects/HouseObjects/match3.png",372,31,365,0.9,"stim/12.jpeg",1,2,3,2,"HouseObjects",2,2,"right","right",0.55099988,1,1,1,0,NA,NA,NA,NA,NA,NA,NA,NA,NA,NA,NA,NA,NA,NA,NA,NA,NA,NA,NA,NA,NA,NA,NA,NA
"400","stim/objects/HouseObjects/towel3.png",373,31,366,0.7,"stim/54.jpeg",5,4,2,1,"HouseObjects",2,2,"right","right",0.435000181,1,1,1,0,105,31,1,0.7,2,"stim/54.jpeg",5,4,"stim/54.jpeg",2,"left",1.453000069,4,3,2.944999695,2,0.753999949,105,1,0,0,1,1,1
"315","stim/objects/HouseObjects/lintroller3.png",374,31,367,0.9,"stim/12.jpeg",1,2,3,2,"HouseObjects",2,3,"right","right",0.451999903,1,1,1,0,NA,NA,NA,NA,NA,NA,NA,NA,NA,NA,NA,NA,NA,NA,NA,NA,NA,NA,NA,NA,NA,NA,NA,NA
"421","stim/objects/Instruments/bassguitar3.png",375,31,368,0.5,"stim/44.jpeg",4,4,1,2,"Instruments",1,2,"left","right",0.381000042,0,0,1,0,NA,NA,NA,NA,NA,NA,NA,NA,NA,NA,NA,NA,NA,NA,NA,NA,NA,NA,NA,NA,NA,NA,NA,NA
"562","stim/objects/Instruments/trumpet4.png",376,31,369,0.9,"stim/22.jpeg",2,2,3,1,"Instruments",1,4,"left","left",0.684000015,1,1,1,0,160,31,1,0.9,1,"stim/22.jpeg",2,2,"stim/22.jpeg",4,"right",0.828999996,1,3,2.24000001,2,0.424000025,160,0,0,NA,0,NA,1
"502","stim/objects/Instruments/musicsheet3.png",377,31,370,0.9,"stim/23.jpeg",2,3,3,2,"Instruments",1,1,"left","right",0.488999844,0,0,1,0,NA,NA,NA,NA,NA,NA,NA,NA,NA,NA,NA,NA,NA,NA,NA,NA,NA,NA,NA,NA,NA,NA,NA,NA
"275","stim/objects/HouseObjects/clothespin3.png",378,31,371,0.7,"stim/51.jpeg",5,1,2,2,"HouseObjects",2,2,"right","right",0.779000044,1,1,1,0,NA,NA,NA,NA,NA,NA,NA,NA,NA,NA,NA,NA,NA,NA,NA,NA,NA,NA,NA,NA,NA,NA,NA,NA
"518","stim/objects/Instruments/musicstand3.png",379,31,372,0.9,"stim/21.jpeg",2,1,3,2,"Instruments",1,2,"left","left",0.592000008,1,1,1,0,NA,NA,NA,NA,NA,NA,NA,NA,NA,NA,NA,NA,NA,NA,NA,NA,NA,NA,NA,NA,NA,NA,NA,NA
"276","stim/objects/HouseObjects/clothespin3.png",380,31,373,0.7,"stim/52.jpeg",5,2,2,2,"HouseObjects",2,1,"right","left",0.569999933,0,0,1,0,NA,NA,NA,NA,NA,NA,NA,NA,NA,NA,NA,NA,NA,NA,NA,NA,NA,NA,NA,NA,NA,NA,NA,NA
"542","stim/objects/Instruments/panflute4.png",381,31,374,0.1,"stim/12.jpeg",1,2,3,1,"Instruments",1,3,"left","right",0.400000095,0,0,1,0,82,31,1,0.1,1,"stim/12.jpeg",1,2,"stim/12.jpeg",3,"right",0.678999901,4,1,0.694000006,1,0.152999878,82,0,0,NA,0,NA,1
"491","stim/objects/Instruments/musicsheet3.png",382,31,375,0.9,"stim/21.jpeg",2,1,3,2,"Instruments",1,4,"left","left",0.483999968,1,1,1,0,NA,NA,NA,NA,NA,NA,NA,NA,NA,NA,NA,NA,NA,NA,NA,NA,NA,NA,NA,NA,NA,NA,NA,NA
"465","stim/objects/Instruments/marimba3.png",383,31,376,0.9,"stim/21.jpeg",2,1,3,2,"Instruments",1,3,"left","left",0.436000109,1,1,1,0,NA,NA,NA,NA,NA,NA,NA,NA,NA,NA,NA,NA,NA,NA,NA,NA,NA,NA,NA,NA,NA,NA,NA,NA
"466","stim/objects/Instruments/marimba3.png",384,31,377,0.9,"stim/21.jpeg",2,1,3,2,"Instruments",1,3,"left","left",0.582999945,1,1,1,0,NA,NA,NA,NA,NA,NA,NA,NA,NA,NA,NA,NA,NA,NA,NA,NA,NA,NA,NA,NA,NA,NA,NA,NA
"439","stim/objects/Instruments/cymbal4.png",385,31,378,0.7,"stim/61.jpeg",6,1,2,1,"Instruments",1,1,"left","right",0.497999907,0,0,1,0,6,31,1,0.7,1,"stim/61.jpeg",6,1,"stim/61.jpeg",1,"left",2.426999807,3,3,1.494999886,2,1.813999891,6,1,0,0,0,0,1
"453","stim/objects/Instruments/maraca3.png",386,31,379,0.7,"stim/63.jpeg",6,3,2,2,"Instruments",1,3,"left","left",0.499000072,1,1,1,0,NA,NA,NA,NA,NA,NA,NA,NA,NA,NA,NA,NA,NA,NA,NA,NA,NA,NA,NA,NA,NA,NA,NA,NA
"415","stim/objects/Instruments/banjo3.png",387,31,380,0.5,"stim/34.jpeg",3,4,1,2,"Instruments",1,3,"left","left",0.546999931,1,1,1,0,NA,NA,NA,NA,NA,NA,NA,NA,NA,NA,NA,NA,NA,NA,NA,NA,NA,NA,NA,NA,NA,NA,NA,NA
"494","stim/objects/Instruments/musicsheet3.png",388,31,381,0.9,"stim/24.jpeg",2,4,3,2,"Instruments",1,2,"left","left",0.554000139,1,1,1,0,NA,NA,NA,NA,NA,NA,NA,NA,NA,NA,NA,NA,NA,NA,NA,NA,NA,NA,NA,NA,NA,NA,NA,NA
"549","stim/objects/Instruments/saxophone3.png",389,31,382,0.5,"stim/33.jpeg",3,3,1,1,"Instruments",1,3,"left","left",0.46600008,1,1,1,0,53,31,1,0.5,1,"stim/33.jpeg",3,3,"stim/33.jpeg",3,"left",0.717000008,3,3,2.516999722,2,0.332999945,53,1,1,1,0,0,1
"479","stim/objects/Instruments/metronome3.png",390,31,383,0.9,"stim/24.jpeg",2,4,3,2,"Instruments",1,1,"left","left",0.438999891,1,1,1,0,NA,NA,NA,NA,NA,NA,NA,NA,NA,NA,NA,NA,NA,NA,NA,NA,NA,NA,NA,NA,NA,NA,NA,NA
"376","stim/objects/HouseObjects/recyclingbin3.png",391,31,384,0.5,"stim/32.jpeg",3,2,1,1,"HouseObjects",2,3,"right","left",0.61500001,0,0,1,0,177,31,1,0.5,1,"stim/32.jpeg",3,2,"stim/32.jpeg",3,"right",0.605999947,2,2,1.057999849,1,0.374999762,177,0,1,NA,0,NA,1
"481","stim/objects/Instruments/metronome3.png",392,31,385,0.9,"stim/21.jpeg",2,1,3,2,"Instruments",1,3,"left","left",0.45600009,1,1,1,0,NA,NA,NA,NA,NA,NA,NA,NA,NA,NA,NA,NA,NA,NA,NA,NA,NA,NA,NA,NA,NA,NA,NA,NA
"452","stim/objects/Instruments/maraca3.png",393,31,386,0.7,"stim/61.jpeg",6,1,2,2,"Instruments",1,4,"left","left",0.821999788,1,1,1,0,NA,NA,NA,NA,NA,NA,NA,NA,NA,NA,NA,NA,NA,NA,NA,NA,NA,NA,NA,NA,NA,NA,NA,NA
"287","stim/objects/HouseObjects/key3.png",394,31,387,0.7,"stim/51.jpeg",5,1,2,2,"HouseObjects",2,3,"right","left",0.732000113,0,0,1,0,NA,NA,NA,NA,NA,NA,NA,NA,NA,NA,NA,NA,NA,NA,NA,NA,NA,NA,NA,NA,NA,NA,NA,NA
"544","stim/objects/Instruments/pipepiano4.png",395,31,388,0.1,"stim/13.jpeg",1,3,3,1,"Instruments",1,3,"left","right",0.582999945,0,0,1,0,194,31,1,0.1,1,"stim/13.jpeg",1,3,"stim/13.jpeg",3,"left",3.924000025,2,2,1.359999895,2,0.907999754,194,1,0,0,0,0,1
"359","stim/objects/HouseObjects/pitcher3.png",396,31,389,0.9,"stim/14.jpeg",1,4,3,2,"HouseObjects",2,4,"right","right",0.631000042,1,1,1,0,NA,NA,NA,NA,NA,NA,NA,NA,NA,NA,NA,NA,NA,NA,NA,NA,NA,NA,NA,NA,NA,NA,NA,NA
"504","stim/objects/Instruments/musicsheet3.png",397,31,390,0.9,"stim/24.jpeg",2,4,3,2,"Instruments",1,1,"left","left",0.500999928,1,1,1,0,NA,NA,NA,NA,NA,NA,NA,NA,NA,NA,NA,NA,NA,NA,NA,NA,NA,NA,NA,NA,NA,NA,NA,NA
"288","stim/objects/HouseObjects/key3.png",398,31,391,0.7,"stim/54.jpeg",5,4,2,2,"HouseObjects",2,2,"right","right",0.680999994,1,1,1,0,NA,NA,NA,NA,NA,NA,NA,NA,NA,NA,NA,NA,NA,NA,NA,NA,NA,NA,NA,NA,NA,NA,NA,NA
"368","stim/objects/HouseObjects/pitcher3.png",399,31,392,0.9,"stim/12.jpeg",1,2,3,2,"HouseObjects",2,2,"right","right",0.441999912,1,1,1,0,NA,NA,NA,NA,NA,NA,NA,NA,NA,NA,NA,NA,NA,NA,NA,NA,NA,NA,NA,NA,NA,NA,NA,NA
"342","stim/objects/HouseObjects/pan3.png",400,31,393,0.9,"stim/14.jpeg",1,4,3,2,"HouseObjects",2,3,"right","right",0.562000036,1,1,1,0,NA,NA,NA,NA,NA,NA,NA,NA,NA,NA,NA,NA,NA,NA,NA,NA,NA,NA,NA,NA,NA,NA,NA,NA
"299","stim/objects/HouseObjects/knife3.png",401,31,394,0.9,"stim/12.jpeg",1,2,3,2,"HouseObjects",2,1,"right","right",0.471000195,1,1,1,0,NA,NA,NA,NA,NA,NA,NA,NA,NA,NA,NA,NA,NA,NA,NA,NA,NA,NA,NA,NA,NA,NA,NA,NA
"512","stim/objects/Instruments/musicstand3.png",402,31,395,0.9,"stim/21.jpeg",2,1,3,2,"Instruments",1,2,"left","left",0.68599987,1,1,1,0,NA,NA,NA,NA,NA,NA,NA,NA,NA,NA,NA,NA,NA,NA,NA,NA,NA,NA,NA,NA,NA,NA,NA,NA
"506","stim/objects/Instruments/musicsheet4.png",403,31,396,0.1,"stim/13.jpeg",1,3,3,1,"Instruments",1,1,"left","right",0.447000027,0,0,1,0,184,31,1,0.1,1,"stim/13.jpeg",1,3,"stim/13.jpeg",1,"right",1.036999941,2,1,0.539999962,2,0.444999933,184,0,0,NA,0,NA,1
"309","stim/objects/HouseObjects/lintroller3.png",404,31,397,0.9,"stim/14.jpeg",1,4,3,2,"HouseObjects",2,1,"right","right",0.494999886,1,1,1,0,NA,NA,NA,NA,NA,NA,NA,NA,NA,NA,NA,NA,NA,NA,NA,NA,NA,NA,NA,NA,NA,NA,NA,NA
"525","stim/objects/Instruments/oboe3.png",405,31,398,0.9,"stim/24.jpeg",2,4,3,2,"Instruments",1,4,"left","right",0.354000092,0,0,1,0,NA,NA,NA,NA,NA,NA,NA,NA,NA,NA,NA,NA,NA,NA,NA,NA,NA,NA,NA,NA,NA,NA,NA,NA
"266","stim/objects/HouseObjects/bucket3.png",406,31,399,0.5,"stim/42.jpeg",4,2,1,2,"HouseObjects",2,1,"right","right",0.475000143,1,1,1,0,NA,NA,NA,NA,NA,NA,NA,NA,NA,NA,NA,NA,NA,NA,NA,NA,NA,NA,NA,NA,NA,NA,NA,NA
"526","stim/objects/Instruments/oboe3.png",407,31,400,0.9,"stim/22.jpeg",2,2,3,2,"Instruments",1,2,"left","left",0.447000027,1,1,1,0,NA,NA,NA,NA,NA,NA,NA,NA,NA,NA,NA,NA,NA,NA,NA,NA,NA,NA,NA,NA,NA,NA,NA,NA
"381","stim/objects/HouseObjects/rubbergloves4.png",408,31,401,0.9,"stim/12.jpeg",1,2,3,1,"HouseObjects",2,2,"right","right",0.44900012,1,1,1,0,152,31,1,0.9,2,"stim/12.jpeg",1,2,"stim/12.jpeg",2,"right",0.66899991,2,1,1.45600009,3,0.856999874,152,0,0,NA,0,NA,1
"496","stim/objects/Instruments/musicsheet3.png",409,31,402,0.9,"stim/23.jpeg",2,3,3,2,"Instruments",1,1,"left","left",0.511000156,1,1,1,0,NA,NA,NA,NA,NA,NA,NA,NA,NA,NA,NA,NA,NA,NA,NA,NA,NA,NA,NA,NA,NA,NA,NA,NA
"337","stim/objects/HouseObjects/match3.png",410,31,403,0.9,"stim/14.jpeg",1,4,3,2,"HouseObjects",2,2,"right","right",0.402000189,1,1,1,0,NA,NA,NA,NA,NA,NA,NA,NA,NA,NA,NA,NA,NA,NA,NA,NA,NA,NA,NA,NA,NA,NA,NA,NA
"385","stim/objects/HouseObjects/safetypin4.png",411,31,404,0.9,"stim/14.jpeg",1,4,3,1,"HouseObjects",2,1,"right","left",0.457000017,0,0,1,0,92,31,1,0.9,2,"stim/14.jpeg",1,4,"stim/14.jpeg",1,"left",1.579999924,2,1,1.020999908,1,0.504999876,92,1,0,0,1,1,1
"343","stim/objects/HouseObjects/pan3.png",412,31,405,0.9,"stim/14.jpeg",1,4,3,2,"HouseObjects",2,4,"right","right",0.36500001,1,1,1,0,NA,NA,NA,NA,NA,NA,NA,NA,NA,NA,NA,NA,NA,NA,NA,NA,NA,NA,NA,NA,NA,NA,NA,NA
"367","stim/objects/HouseObjects/pitcher3.png",413,31,406,0.9,"stim/14.jpeg",1,4,3,2,"HouseObjects",2,2,"right","right",0.750999928,1,1,1,0,NA,NA,NA,NA,NA,NA,NA,NA,NA,NA,NA,NA,NA,NA,NA,NA,NA,NA,NA,NA,NA,NA,NA,NA
"370","stim/objects/HouseObjects/pitcher3.png",414,31,407,0.9,"stim/13.jpeg",1,3,3,2,"HouseObjects",2,2,"right","right",0.419000149,1,1,1,0,NA,NA,NA,NA,NA,NA,NA,NA,NA,NA,NA,NA,NA,NA,NA,NA,NA,NA,NA,NA,NA,NA,NA,NA
"535","stim/objects/Instruments/oboe3.png",415,31,408,0.9,"stim/23.jpeg",2,3,3,2,"Instruments",1,2,"left","left",0.526000023,1,1,1,0,NA,NA,NA,NA,NA,NA,NA,NA,NA,NA,NA,NA,NA,NA,NA,NA,NA,NA,NA,NA,NA,NA,NA,NA
"423","stim/objects/Instruments/bassguitar4.png",416,31,409,0.7,"stim/64.jpeg",6,4,2,1,"Instruments",1,1,"left","right",0.43599987,0,0,1,0,115,31,1,0.7,1,"stim/64.jpeg",6,4,"stim/64.jpeg",1,"right",0.694000006,2,1,0.840999842,1,0.32400012,115,0,0,NA,1,NA,1
"558","stim/objects/Instruments/triangle4.png",417,31,410,0.9,"stim/24.jpeg",2,4,3,1,"Instruments",1,3,"left","left",0.438000202,1,1,1,0,4,31,1,0.9,1,"stim/24.jpeg",2,4,"stim/24.jpeg",3,"left",1.470999956,3,4,3.612999916,3,1.100999832,4,1,1,1,1,1,1
"318","stim/objects/HouseObjects/lintroller3.png",418,31,411,0.9,"stim/13.jpeg",1,3,3,2,"HouseObjects",2,4,"right","right",0.400000095,1,1,1,0,NA,NA,NA,NA,NA,NA,NA,NA,NA,NA,NA,NA,NA,NA,NA,NA,NA,NA,NA,NA,NA,NA,NA,NA
"346","stim/objects/HouseObjects/pan3.png",419,31,412,0.9,"stim/12.jpeg",1,2,3,2,"HouseObjects",2,3,"right","right",0.412000179,1,1,1,0,NA,NA,NA,NA,NA,NA,NA,NA,NA,NA,NA,NA,NA,NA,NA,NA,NA,NA,NA,NA,NA,NA,NA,NA
"259","stim/objects/HouseObjects/bottle3.png",420,31,413,0.5,"stim/43.jpeg",4,3,1,2,"HouseObjects",2,4,"right","right",0.427999973,1,1,1,0,NA,NA,NA,NA,NA,NA,NA,NA,NA,NA,NA,NA,NA,NA,NA,NA,NA,NA,NA,NA,NA,NA,NA,NA
"422","stim/objects/Instruments/bassguitar3.png",421,31,414,0.5,"stim/43.jpeg",4,3,1,2,"Instruments",1,4,"left","right",0.40199995,0,0,1,0,NA,NA,NA,NA,NA,NA,NA,NA,NA,NA,NA,NA,NA,NA,NA,NA,NA,NA,NA,NA,NA,NA,NA,NA
"264","stim/objects/HouseObjects/broom4.png",422,31,415,0.3,"stim/64.jpeg",6,4,2,1,"HouseObjects",2,4,"right","right",0.414999962,1,1,1,0,69,31,1,0.3,2,"stim/64.jpeg",6,4,"stim/64.jpeg",4,"left",0.906999826,4,2,1.306999922,1,0.260999918,69,1,0,0,0,0,1
"425","stim/objects/Instruments/cello3.png",423,31,416,0.5,"stim/41.jpeg",4,1,1,2,"Instruments",1,4,"left","right",0.453000069,0,0,1,0,NA,NA,NA,NA,NA,NA,NA,NA,NA,NA,NA,NA,NA,NA,NA,NA,NA,NA,NA,NA,NA,NA,NA,NA
"354","stim/objects/HouseObjects/pan3.png",424,31,417,0.9,"stim/12.jpeg",1,2,3,2,"HouseObjects",2,4,"right","right",0.446000099,1,1,1,0,NA,NA,NA,NA,NA,NA,NA,NA,NA,NA,NA,NA,NA,NA,NA,NA,NA,NA,NA,NA,NA,NA,NA,NA
"244","stim/objects/HouseObjects/ballofstring3.png",425,31,418,0.5,"stim/32.jpeg",3,2,1,2,"HouseObjects",2,3,"right","left",0.719000101,0,0,1,0,NA,NA,NA,NA,NA,NA,NA,NA,NA,NA,NA,NA,NA,NA,NA,NA,NA,NA,NA,NA,NA,NA,NA,NA
"514","stim/objects/Instruments/musicstand3.png",426,31,419,0.9,"stim/24.jpeg",2,4,3,2,"Instruments",1,2,"left","right",0.336999893,0,0,1,0,NA,NA,NA,NA,NA,NA,NA,NA,NA,NA,NA,NA,NA,NA,NA,NA,NA,NA,NA,NA,NA,NA,NA,NA
"441","stim/objects/Instruments/doublebass3.png",427,31,420,0.7,"stim/63.jpeg",6,3,2,2,"Instruments",1,2,"left","right",0.375,0,0,1,0,NA,NA,NA,NA,NA,NA,NA,NA,NA,NA,NA,NA,NA,NA,NA,NA,NA,NA,NA,NA,NA,NA,NA,NA
"348","stim/objects/HouseObjects/pan3.png",428,31,421,0.9,"stim/13.jpeg",1,3,3,2,"HouseObjects",2,4,"right","right",0.547999859,1,1,1,0,NA,NA,NA,NA,NA,NA,NA,NA,NA,NA,NA,NA,NA,NA,NA,NA,NA,NA,NA,NA,NA,NA,NA,NA
"362","stim/objects/HouseObjects/pitcher3.png",429,31,422,0.9,"stim/14.jpeg",1,4,3,2,"HouseObjects",2,1,"right","right",0.559999943,1,1,1,0,NA,NA,NA,NA,NA,NA,NA,NA,NA,NA,NA,NA,NA,NA,NA,NA,NA,NA,NA,NA,NA,NA,NA,NA
"419","stim/objects/Instruments/bassdrum3.png",430,31,423,0.5,"stim/32.jpeg",3,2,1,2,"Instruments",1,1,"left","right",0.496000051,0,0,1,0,NA,NA,NA,NA,NA,NA,NA,NA,NA,NA,NA,NA,NA,NA,NA,NA,NA,NA,NA,NA,NA,NA,NA,NA
"335","stim/objects/HouseObjects/match3.png",431,31,424,0.9,"stim/12.jpeg",1,2,3,2,"HouseObjects",2,1,"right","right",0.516000032,1,1,1,0,NA,NA,NA,NA,NA,NA,NA,NA,NA,NA,NA,NA,NA,NA,NA,NA,NA,NA,NA,NA,NA,NA,NA,NA
"356","stim/objects/HouseObjects/pan3.png",432,31,425,0.9,"stim/12.jpeg",1,2,3,2,"HouseObjects",2,1,"right","right",0.521999836,1,1,1,0,NA,NA,NA,NA,NA,NA,NA,NA,NA,NA,NA,NA,NA,NA,NA,NA,NA,NA,NA,NA,NA,NA,NA,NA
"541","stim/objects/Instruments/panflute3.png",433,31,426,0.5,"stim/33.jpeg",3,3,1,1,"Instruments",1,2,"left","right",0.486000061,0,0,1,0,175,31,1,0.5,1,"stim/33.jpeg",3,3,"stim/33.jpeg",2,"right",2.179000139,1,1,0.906000137,2,0.541999817,175,0,0,NA,1,NA,1
"278","stim/objects/HouseObjects/clothespin4.png",434,31,427,0.3,"stim/64.jpeg",6,4,2,1,"HouseObjects",2,1,"right","left",0.546000004,0,0,1,0,128,31,1,0.3,2,"stim/64.jpeg",6,4,"stim/64.jpeg",1,"left",0.906999826,3,2,3.306999922,1,1.058999777,128,1,0,0,1,1,1
"569","stim/objects/Instruments/xylophone3.png",435,31,428,0.3,"stim/51.jpeg",5,1,2,1,"Instruments",1,1,"left","right",0.674000025,0,0,1,0,33,31,1,0.3,1,"stim/51.jpeg",5,1,"stim/51.jpeg",1,"right",0.768999815,3,2,1.092999935,1,0.15199995,33,0,0,NA,1,NA,1
"284","stim/objects/HouseObjects/ironingboard3.png",436,31,429,0.7,"stim/54.jpeg",5,4,2,2,"HouseObjects",2,4,"right","right",0.45600009,1,1,1,0,NA,NA,NA,NA,NA,NA,NA,NA,NA,NA,NA,NA,NA,NA,NA,NA,NA,NA,NA,NA,NA,NA,NA,NA
"475","stim/objects/Instruments/metronome3.png",437,31,430,0.9,"stim/23.jpeg",2,3,3,2,"Instruments",1,4,"left","left",0.642999887,1,1,1,0,NA,NA,NA,NA,NA,NA,NA,NA,NA,NA,NA,NA,NA,NA,NA,NA,NA,NA,NA,NA,NA,NA,NA,NA
"523","stim/objects/Instruments/musicstand4.png",438,31,431,0.1,"stim/14.jpeg",1,4,3,1,"Instruments",1,2,"left","right",0.502000093,0,0,1,0,89,31,1,0.1,1,"stim/14.jpeg",1,4,"stim/14.jpeg",2,"right",0.523000002,3,1,0.907999992,1,0.152999878,89,0,0,NA,0,NA,1
"560","stim/objects/Instruments/trombone4.png",439,31,432,0.9,"stim/21.jpeg",2,1,3,1,"Instruments",1,2,"left","left",0.625,1,1,1,0,28,31,1,0.9,1,"stim/21.jpeg",2,1,"stim/21.jpeg",2,"left",1.69299984,3,2,3.907999992,1,0.700000048,28,1,0,0,0,0,1
"277","stim/objects/HouseObjects/clothespin3.png",440,31,433,0.7,"stim/54.jpeg",5,4,2,2,"HouseObjects",2,4,"right","right",0.482000113,1,1,1,0,NA,NA,NA,NA,NA,NA,NA,NA,NA,NA,NA,NA,NA,NA,NA,NA,NA,NA,NA,NA,NA,NA,NA,NA
"349","stim/objects/HouseObjects/pan3.png",441,31,434,0.9,"stim/14.jpeg",1,4,3,2,"HouseObjects",2,3,"right","right",0.504000187,1,1,1,0,NA,NA,NA,NA,NA,NA,NA,NA,NA,NA,NA,NA,NA,NA,NA,NA,NA,NA,NA,NA,NA,NA,NA,NA
"257","stim/objects/HouseObjects/blender3.png",442,31,435,0.5,"stim/42.jpeg",4,2,1,2,"HouseObjects",2,1,"right","right",0.451999903,1,1,1,0,NA,NA,NA,NA,NA,NA,NA,NA,NA,NA,NA,NA,NA,NA,NA,NA,NA,NA,NA,NA,NA,NA,NA,NA
"551","stim/objects/Instruments/speaker3.png",443,31,436,0.5,"stim/41.jpeg",4,1,1,1,"Instruments",1,4,"left","right",0.600999832,0,0,1,0,108,31,1,0.5,2,"stim/41.jpeg",4,1,"stim/41.jpeg",4,"right",0.59100008,2,1,1.224999905,2,0.635999918,108,0,1,NA,0,NA,1
"250","stim/objects/HouseObjects/basket3.png",444,31,437,0.5,"stim/34.jpeg",3,4,1,2,"HouseObjects",2,1,"right","left",0.619999886,0,0,1,0,NA,NA,NA,NA,NA,NA,NA,NA,NA,NA,NA,NA,NA,NA,NA,NA,NA,NA,NA,NA,NA,NA,NA,NA
"241","stim/objects/HouseObjects/ashtray3.png",445,31,438,0.5,"stim/34.jpeg",3,4,1,2,"HouseObjects",2,2,"right","right",0.539000034,1,1,1,0,NA,NA,NA,NA,NA,NA,NA,NA,NA,NA,NA,NA,NA,NA,NA,NA,NA,NA,NA,NA,NA,NA,NA,NA
"428","stim/objects/Instruments/chime3.png",446,31,439,0.5,"stim/41.jpeg",4,1,1,2,"Instruments",1,2,"left","right",0.517999887,0,0,1,0,NA,NA,NA,NA,NA,NA,NA,NA,NA,NA,NA,NA,NA,NA,NA,NA,NA,NA,NA,NA,NA,NA,NA,NA
"500","stim/objects/Instruments/musicsheet3.png",447,31,440,0.9,"stim/24.jpeg",2,4,3,2,"Instruments",1,2,"left","left",0.539000034,1,1,1,0,NA,NA,NA,NA,NA,NA,NA,NA,NA,NA,NA,NA,NA,NA,NA,NA,NA,NA,NA,NA,NA,NA,NA,NA
"529","stim/objects/Instruments/oboe3.png",448,31,441,0.9,"stim/22.jpeg",2,2,3,2,"Instruments",1,4,"left","left",0.546000004,1,1,1,0,NA,NA,NA,NA,NA,NA,NA,NA,NA,NA,NA,NA,NA,NA,NA,NA,NA,NA,NA,NA,NA,NA,NA,NA
"449","stim/objects/Instruments/laud3.png",449,31,442,0.7,"stim/62.jpeg",6,2,2,2,"Instruments",1,3,"left","left",0.639999866,1,1,1,0,NA,NA,NA,NA,NA,NA,NA,NA,NA,NA,NA,NA,NA,NA,NA,NA,NA,NA,NA,NA,NA,NA,NA,NA
"251","stim/objects/HouseObjects/basket3.png",450,31,443,0.5,"stim/33.jpeg",3,3,1,2,"HouseObjects",2,4,"right","right",0.519999981,1,1,1,0,NA,NA,NA,NA,NA,NA,NA,NA,NA,NA,NA,NA,NA,NA,NA,NA,NA,NA,NA,NA,NA,NA,NA,NA
"358","stim/objects/HouseObjects/pan4.png",451,31,444,0.9,"stim/12.jpeg",1,2,3,1,"HouseObjects",2,4,"right","right",0.530999899,1,1,1,0,121,31,1,0.9,2,"stim/12.jpeg",1,2,"stim/12.jpeg",4,"right",1.105999947,3,2,0.773000002,2,0.238999844,121,0,1,NA,0,NA,1
"269","stim/objects/HouseObjects/clock3.png",452,31,445,0.5,"stim/43.jpeg",4,3,1,2,"HouseObjects",2,1,"right","left",0.536999941,0,0,1,0,NA,NA,NA,NA,NA,NA,NA,NA,NA,NA,NA,NA,NA,NA,NA,NA,NA,NA,NA,NA,NA,NA,NA,NA
"255","stim/objects/HouseObjects/bleachbottle4.png",453,31,446,0.7,"stim/53.jpeg",5,3,2,1,"HouseObjects",2,1,"right","right",0.565999985,1,1,1,0,81,31,1,0.7,2,"stim/53.jpeg",5,3,"stim/53.jpeg",1,"right",0.473999977,2,1,1.355999947,1,0.377000093,81,0,0,NA,1,NA,1
"340","stim/objects/HouseObjects/match3.png",454,31,447,0.9,"stim/11.jpeg",1,1,3,2,"HouseObjects",2,1,"right","right",0.434999943,1,1,1,0,NA,NA,NA,NA,NA,NA,NA,NA,NA,NA,NA,NA,NA,NA,NA,NA,NA,NA,NA,NA,NA,NA,NA,NA
"249","stim/objects/HouseObjects/barbecuelighter4.png",455,31,448,0.7,"stim/51.jpeg",5,1,2,1,"HouseObjects",2,4,"right","right",0.649999857,1,1,1,0,170,31,1,0.7,2,"stim/51.jpeg",5,1,"stim/51.jpeg",4,"left",1.114000082,4,2,2.572999954,3,1.64199996,170,1,0,0,0,0,1
"520","stim/objects/Instruments/musicstand3.png",456,31,449,0.9,"stim/22.jpeg",2,2,3,2,"Instruments",1,1,"left","left",0.51699996,1,1,1,0,NA,NA,NA,NA,NA,NA,NA,NA,NA,NA,NA,NA,NA,NA,NA,NA,NA,NA,NA,NA,NA,NA,NA,NA
"483","stim/objects/Instruments/metronome3.png",457,31,450,0.9,"stim/24.jpeg",2,4,3,2,"Instruments",1,1,"left","left",0.452000141,1,1,1,0,NA,NA,NA,NA,NA,NA,NA,NA,NA,NA,NA,NA,NA,NA,NA,NA,NA,NA,NA,NA,NA,NA,NA,NA
"521","stim/objects/Instruments/musicstand3.png",458,31,451,0.9,"stim/24.jpeg",2,4,3,2,"Instruments",1,3,"left","left",0.467999935,1,1,1,0,NA,NA,NA,NA,NA,NA,NA,NA,NA,NA,NA,NA,NA,NA,NA,NA,NA,NA,NA,NA,NA,NA,NA,NA
"352","stim/objects/HouseObjects/pan3.png",459,31,452,0.9,"stim/13.jpeg",1,3,3,2,"HouseObjects",2,3,"right","left",0.415999889,0,0,1,0,NA,NA,NA,NA,NA,NA,NA,NA,NA,NA,NA,NA,NA,NA,NA,NA,NA,NA,NA,NA,NA,NA,NA,NA
"242","stim/objects/HouseObjects/ashtray3.png",460,31,453,0.5,"stim/31.jpeg",3,1,1,2,"HouseObjects",2,4,"right","right",0.436999798,1,1,1,0,NA,NA,NA,NA,NA,NA,NA,NA,NA,NA,NA,NA,NA,NA,NA,NA,NA,NA,NA,NA,NA,NA,NA,NA
"371","stim/objects/HouseObjects/pitcher3.png",461,31,454,0.9,"stim/12.jpeg",1,2,3,2,"HouseObjects",2,1,"right","right",0.514000177,1,1,1,0,NA,NA,NA,NA,NA,NA,NA,NA,NA,NA,NA,NA,NA,NA,NA,NA,NA,NA,NA,NA,NA,NA,NA,NA
"539","stim/objects/Instruments/oboe3.png",462,31,455,0.9,"stim/23.jpeg",2,3,3,2,"Instruments",1,1,"left","left",0.527999878,1,1,1,0,NA,NA,NA,NA,NA,NA,NA,NA,NA,NA,NA,NA,NA,NA,NA,NA,NA,NA,NA,NA,NA,NA,NA,NA
"547","stim/objects/Instruments/record3.png",463,31,456,0.5,"stim/31.jpeg",3,1,1,1,"Instruments",1,4,"left","right",0.461999893,0,0,1,0,172,31,1,0.5,1,"stim/31.jpeg",3,1,"stim/31.jpeg",4,"left",0.856999874,2,1,1.27699995,1,1.235000134,172,1,1,1,0,0,1
"383","stim/objects/HouseObjects/rug4.png",464,31,457,0.9,"stim/13.jpeg",1,3,3,1,"HouseObjects",2,2,"right","right",0.480000019,1,1,1,0,198,31,1,0.9,2,"stim/13.jpeg",1,3,"stim/13.jpeg",2,"left",2.345999956,3,2,0.955999851,1,0.539999962,198,1,0,0,0,0,1
"272","stim/objects/HouseObjects/clothesdryingrack3.png",465,31,458,0.7,"stim/51.jpeg",5,1,2,2,"HouseObjects",2,2,"right","right",0.642999887,1,1,1,0,NA,NA,NA,NA,NA,NA,NA,NA,NA,NA,NA,NA,NA,NA,NA,NA,NA,NA,NA,NA,NA,NA,NA,NA
"286","stim/objects/HouseObjects/ironingboard4.png",466,31,459,0.3,"stim/62.jpeg",6,2,2,1,"HouseObjects",2,1,"right","left",0.620000124,0,0,1,0,64,31,1,0.3,2,"stim/62.jpeg",6,2,"stim/62.jpeg",1,"left",1.161999941,4,3,2.940999985,1,0.305999994,64,1,0,0,1,1,1
"478","stim/objects/Instruments/metronome3.png",467,31,460,0.9,"stim/23.jpeg",2,3,3,2,"Instruments",1,2,"left","left",0.627000093,1,1,1,0,NA,NA,NA,NA,NA,NA,NA,NA,NA,NA,NA,NA,NA,NA,NA,NA,NA,NA,NA,NA,NA,NA,NA,NA
