"","obj_file","X.x","participant.x","trialN.x","trial_cond","scn_file.x","scn_cat","scn_inst","scn_condition","fillers","obj_cat","obj_cat_num","quadrant","corr_ans","key_resp_trial.keys","key_resp_trial.rt","trial_acc","trial_acc_manual","group.x","practice","X.y","participant.y","OvsN","PE_level","object_cat","scn_file.y","corr_scn_cat","corr_scn_inst","scn_file.1","corr_loc","key_resp_id.keys","key_resp_id.rt","key_resp_conf.keys","key_resp_assoc.keys","key_resp_assoc.rt","key_resp_loc.keys","key_resp_loc.rt","trialN.y","id_acc","assoc.acc","cond_assoc","loc.acc","cond_loc","group.y"
"88","stim/objects/HouseObjects/towel2.png",1,14,1,0.9,"stim/22.jpeg",2,2,3,NA,"HouseObjects",1,4,"left","right",0.739000082,0,0,1,1,NA,NA,NA,NA,NA,NA,NA,NA,NA,NA,NA,NA,NA,NA,NA,NA,NA,NA,NA,NA,NA,NA,NA,NA
"167","stim/objects/Instruments/triangle.png",2,14,2,0.5,"stim/42.jpeg",4,2,1,NA,"Instruments",2,1,"right","right",0.667999983,1,1,1,1,NA,NA,NA,NA,NA,NA,NA,NA,NA,NA,NA,NA,NA,NA,NA,NA,NA,NA,NA,NA,NA,NA,NA,NA
"233","stim/objects/Instruments/xylophone.png",3,14,3,0.7,"stim/54.jpeg",5,4,2,NA,"Instruments",2,1,"right","right",0.778000116,1,1,1,1,NA,NA,NA,NA,NA,NA,NA,NA,NA,NA,NA,NA,NA,NA,NA,NA,NA,NA,NA,NA,NA,NA,NA,NA
"49","stim/objects/HouseObjects/sponge.png",4,14,4,0.5,"stim/41.jpeg",4,1,1,NA,"HouseObjects",1,4,"left","",NA,0,0,1,1,NA,NA,NA,NA,NA,NA,NA,NA,NA,NA,NA,NA,NA,NA,NA,NA,NA,NA,NA,NA,NA,NA,NA,NA
"232","stim/objects/Instruments/vuvuzela2.png",5,14,5,0.1,"stim/23.jpeg",2,3,3,NA,"Instruments",2,2,"right","left",0.540999889,0,0,1,1,NA,NA,NA,NA,NA,NA,NA,NA,NA,NA,NA,NA,NA,NA,NA,NA,NA,NA,NA,NA,NA,NA,NA,NA
"100","stim/objects/HouseObjects/vacuumcleaner2.png",6,14,6,0.9,"stim/23.jpeg",2,3,3,NA,"HouseObjects",1,4,"left","left",0.356999874,1,1,1,1,NA,NA,NA,NA,NA,NA,NA,NA,NA,NA,NA,NA,NA,NA,NA,NA,NA,NA,NA,NA,NA,NA,NA,NA
"158","stim/objects/Instruments/timbal2.png",7,14,7,0.9,"stim/11.jpeg",1,1,3,NA,"Instruments",2,1,"right","right",0.764000177,1,1,1,1,NA,NA,NA,NA,NA,NA,NA,NA,NA,NA,NA,NA,NA,NA,NA,NA,NA,NA,NA,NA,NA,NA,NA,NA
"129","stim/objects/Instruments/saxophone.png",8,14,8,0.5,"stim/32.jpeg",3,2,1,NA,"Instruments",2,1,"right","right",0.625999928,1,1,1,1,NA,NA,NA,NA,NA,NA,NA,NA,NA,NA,NA,NA,NA,NA,NA,NA,NA,NA,NA,NA,NA,NA,NA,NA
"89","stim/objects/HouseObjects/towel2.png",9,14,9,0.9,"stim/22.jpeg",2,2,3,NA,"HouseObjects",1,2,"left","left",0.546000004,1,1,1,1,NA,NA,NA,NA,NA,NA,NA,NA,NA,NA,NA,NA,NA,NA,NA,NA,NA,NA,NA,NA,NA,NA,NA,NA
"61","stim/objects/HouseObjects/teapot.png",10,14,10,0.5,"stim/43.jpeg",4,3,1,NA,"HouseObjects",1,4,"left","right",0.812000036,0,0,1,1,NA,NA,NA,NA,NA,NA,NA,NA,NA,NA,NA,NA,NA,NA,NA,NA,NA,NA,NA,NA,NA,NA,NA,NA
"90","stim/objects/HouseObjects/towel2.png",11,14,11,0.9,"stim/22.jpeg",2,2,3,NA,"HouseObjects",1,4,"left","left",0.551000118,1,1,1,1,NA,NA,NA,NA,NA,NA,NA,NA,NA,NA,NA,NA,NA,NA,NA,NA,NA,NA,NA,NA,NA,NA,NA,NA
"240","stim/objects/Instruments/xylophone2.png",12,14,12,0.1,"stim/24.jpeg",2,4,3,NA,"Instruments",2,3,"right","left",0.52699995,0,0,1,1,NA,NA,NA,NA,NA,NA,NA,NA,NA,NA,NA,NA,NA,NA,NA,NA,NA,NA,NA,NA,NA,NA,NA,NA
"130","stim/objects/Instruments/saxophone.png",13,14,13,0.5,"stim/32.jpeg",3,2,1,NA,"Instruments",2,3,"right","right",0.646999836,1,1,1,1,NA,NA,NA,NA,NA,NA,NA,NA,NA,NA,NA,NA,NA,NA,NA,NA,NA,NA,NA,NA,NA,NA,NA,NA
"217","stim/objects/Instruments/violin.png",14,14,14,0.7,"stim/52.jpeg",5,2,2,NA,"Instruments",2,2,"right","right",0.646000147,1,1,1,1,NA,NA,NA,NA,NA,NA,NA,NA,NA,NA,NA,NA,NA,NA,NA,NA,NA,NA,NA,NA,NA,NA,NA,NA
"60","stim/objects/HouseObjects/spraybottle2.png",15,14,15,0.1,"stim/12.jpeg",1,2,3,NA,"HouseObjects",1,3,"left","right",0.887000084,0,0,1,1,NA,NA,NA,NA,NA,NA,NA,NA,NA,NA,NA,NA,NA,NA,NA,NA,NA,NA,NA,NA,NA,NA,NA,NA
"186","stim/objects/Instruments/trombone2.png",16,14,16,0.9,"stim/13.jpeg",1,3,3,NA,"Instruments",2,2,"right","right",0.637000084,1,1,1,1,NA,NA,NA,NA,NA,NA,NA,NA,NA,NA,NA,NA,NA,NA,NA,NA,NA,NA,NA,NA,NA,NA,NA,NA
"200","stim/objects/Instruments/trumpet2.png",17,14,17,0.9,"stim/14.jpeg",1,4,3,NA,"Instruments",2,3,"right","right",0.700999975,1,1,1,1,NA,NA,NA,NA,NA,NA,NA,NA,NA,NA,NA,NA,NA,NA,NA,NA,NA,NA,NA,NA,NA,NA,NA,NA
"37","stim/objects/HouseObjects/scale.png",18,14,18,0.5,"stim/34.jpeg",3,4,1,NA,"HouseObjects",1,4,"left","right",0.618999958,0,0,1,1,NA,NA,NA,NA,NA,NA,NA,NA,NA,NA,NA,NA,NA,NA,NA,NA,NA,NA,NA,NA,NA,NA,NA,NA
"42","stim/objects/HouseObjects/scale2.png",19,14,19,0.7,"stim/64.jpeg",6,4,2,NA,"HouseObjects",1,4,"left","left",0.93900013,1,1,1,1,NA,NA,NA,NA,NA,NA,NA,NA,NA,NA,NA,NA,NA,NA,NA,NA,NA,NA,NA,NA,NA,NA,NA,NA
"168","stim/objects/Instruments/triangle.png",20,14,20,0.5,"stim/42.jpeg",4,2,1,NA,"Instruments",2,2,"right","right",0.661000013,1,1,1,1,NA,NA,NA,NA,NA,NA,NA,NA,NA,NA,NA,NA,NA,NA,NA,NA,NA,NA,NA,NA,NA,NA,NA,NA
"234","stim/objects/Instruments/xylophone.png",21,14,21,0.7,"stim/54.jpeg",5,4,2,NA,"Instruments",2,1,"right","right",0.710000038,1,1,1,1,NA,NA,NA,NA,NA,NA,NA,NA,NA,NA,NA,NA,NA,NA,NA,NA,NA,NA,NA,NA,NA,NA,NA,NA
"55","stim/objects/HouseObjects/spraybottle.png",22,14,22,0.5,"stim/42.jpeg",4,2,1,NA,"HouseObjects",1,2,"left","right",0.743999958,0,0,1,1,NA,NA,NA,NA,NA,NA,NA,NA,NA,NA,NA,NA,NA,NA,NA,NA,NA,NA,NA,NA,NA,NA,NA,NA
"91","stim/objects/HouseObjects/towel2.png",23,14,23,0.9,"stim/22.jpeg",2,2,3,NA,"HouseObjects",1,2,"left","left",0.562000036,1,1,1,1,NA,NA,NA,NA,NA,NA,NA,NA,NA,NA,NA,NA,NA,NA,NA,NA,NA,NA,NA,NA,NA,NA,NA,NA
"172","stim/objects/Instruments/triangle2.png",24,14,24,0.9,"stim/12.jpeg",1,2,3,NA,"Instruments",2,2,"right","right",0.671999931,1,1,1,1,NA,NA,NA,NA,NA,NA,NA,NA,NA,NA,NA,NA,NA,NA,NA,NA,NA,NA,NA,NA,NA,NA,NA,NA
"121","stim/objects/Instruments/record_player.png",25,14,25,0.5,"stim/31.jpeg",3,1,1,NA,"Instruments",2,1,"right","right",0.555000067,1,1,1,1,NA,NA,NA,NA,NA,NA,NA,NA,NA,NA,NA,NA,NA,NA,NA,NA,NA,NA,NA,NA,NA,NA,NA,NA
"67","stim/objects/HouseObjects/thermometer.png",26,14,26,0.5,"stim/44.jpeg",4,4,1,NA,"HouseObjects",1,2,"left","right",0.545000076,0,0,1,1,NA,NA,NA,NA,NA,NA,NA,NA,NA,NA,NA,NA,NA,NA,NA,NA,NA,NA,NA,NA,NA,NA,NA,NA
"218","stim/objects/Instruments/violin.png",27,14,27,0.7,"stim/52.jpeg",5,2,2,NA,"Instruments",2,2,"right","left",0.917000055,0,0,1,1,NA,NA,NA,NA,NA,NA,NA,NA,NA,NA,NA,NA,NA,NA,NA,NA,NA,NA,NA,NA,NA,NA,NA,NA
"101","stim/objects/HouseObjects/vacuumcleaner2.png",28,14,28,0.9,"stim/23.jpeg",2,3,3,NA,"HouseObjects",1,3,"left","left",0.650000095,1,1,1,1,NA,NA,NA,NA,NA,NA,NA,NA,NA,NA,NA,NA,NA,NA,NA,NA,NA,NA,NA,NA,NA,NA,NA,NA
"13","stim/objects/HouseObjects/safetypin.png",29,14,29,0.5,"stim/32.jpeg",3,2,1,NA,"HouseObjects",1,1,"left","right",0.549000025,0,0,1,1,NA,NA,NA,NA,NA,NA,NA,NA,NA,NA,NA,NA,NA,NA,NA,NA,NA,NA,NA,NA,NA,NA,NA,NA
"137","stim/objects/Instruments/speaker.png",30,14,30,0.5,"stim/33.jpeg",3,3,1,NA,"Instruments",2,3,"right","right",0.710000038,1,1,1,1,NA,NA,NA,NA,NA,NA,NA,NA,NA,NA,NA,NA,NA,NA,NA,NA,NA,NA,NA,NA,NA,NA,NA,NA
"159","stim/objects/Instruments/timbal2.png",31,14,31,0.9,"stim/11.jpeg",1,1,3,NA,"Instruments",2,1,"right","",NA,0,0,1,1,NA,NA,NA,NA,NA,NA,NA,NA,NA,NA,NA,NA,NA,NA,NA,NA,NA,NA,NA,NA,NA,NA,NA,NA
"160","stim/objects/Instruments/timbal2.png",32,14,32,0.9,"stim/11.jpeg",1,1,3,NA,"Instruments",2,4,"right","right",0.618000031,1,1,1,1,NA,NA,NA,NA,NA,NA,NA,NA,NA,NA,NA,NA,NA,NA,NA,NA,NA,NA,NA,NA,NA,NA,NA,NA
"173","stim/objects/Instruments/triangle2.png",33,14,33,0.9,"stim/12.jpeg",1,2,3,NA,"Instruments",2,3,"right","right",0.534999847,1,1,1,1,NA,NA,NA,NA,NA,NA,NA,NA,NA,NA,NA,NA,NA,NA,NA,NA,NA,NA,NA,NA,NA,NA,NA,NA
"54","stim/objects/HouseObjects/sponge2.png",34,14,34,0.1,"stim/11.jpeg",1,1,3,NA,"HouseObjects",1,2,"left","right",0.549999952,0,0,1,1,NA,NA,NA,NA,NA,NA,NA,NA,NA,NA,NA,NA,NA,NA,NA,NA,NA,NA,NA,NA,NA,NA,NA,NA
"187","stim/objects/Instruments/trombone2.png",35,14,35,0.9,"stim/13.jpeg",1,3,3,NA,"Instruments",2,2,"right","right",0.60800004,1,1,1,1,NA,NA,NA,NA,NA,NA,NA,NA,NA,NA,NA,NA,NA,NA,NA,NA,NA,NA,NA,NA,NA,NA,NA,NA
"188","stim/objects/Instruments/trombone2.png",36,14,36,0.9,"stim/13.jpeg",1,3,3,NA,"Instruments",2,3,"right","right",0.677000046,1,1,1,1,NA,NA,NA,NA,NA,NA,NA,NA,NA,NA,NA,NA,NA,NA,NA,NA,NA,NA,NA,NA,NA,NA,NA,NA
"145","stim/objects/Instruments/tambourine.png",37,14,37,0.5,"stim/34.jpeg",3,4,1,NA,"Instruments",2,2,"right","right",0.460999966,1,1,1,1,NA,NA,NA,NA,NA,NA,NA,NA,NA,NA,NA,NA,NA,NA,NA,NA,NA,NA,NA,NA,NA,NA,NA,NA
"153","stim/objects/Instruments/timbal.png",38,14,38,0.5,"stim/41.jpeg",4,1,1,NA,"Instruments",2,2,"right","right",0.558000088,1,1,1,1,NA,NA,NA,NA,NA,NA,NA,NA,NA,NA,NA,NA,NA,NA,NA,NA,NA,NA,NA,NA,NA,NA,NA,NA
"201","stim/objects/Instruments/trumpet2.png",39,14,39,0.9,"stim/14.jpeg",1,4,3,NA,"Instruments",2,2,"right","right",0.546999931,1,1,1,1,NA,NA,NA,NA,NA,NA,NA,NA,NA,NA,NA,NA,NA,NA,NA,NA,NA,NA,NA,NA,NA,NA,NA,NA
"202","stim/objects/Instruments/trumpet2.png",40,14,40,0.9,"stim/14.jpeg",1,4,3,NA,"Instruments",2,3,"right","right",0.497999907,1,1,1,1,NA,NA,NA,NA,NA,NA,NA,NA,NA,NA,NA,NA,NA,NA,NA,NA,NA,NA,NA,NA,NA,NA,NA,NA
"1","stim/objects/HouseObjects/rug.png",41,14,41,0.5,"stim/31.jpeg",3,1,1,NA,"HouseObjects",1,1,"left","left",0.924999952,1,1,1,1,NA,NA,NA,NA,NA,NA,NA,NA,NA,NA,NA,NA,NA,NA,NA,NA,NA,NA,NA,NA,NA,NA,NA,NA
"161","stim/objects/Instruments/timbal2.png",42,14,42,0.9,"stim/11.jpeg",1,1,3,NA,"Instruments",2,1,"right","right",0.555999994,1,1,1,1,NA,NA,NA,NA,NA,NA,NA,NA,NA,NA,NA,NA,NA,NA,NA,NA,NA,NA,NA,NA,NA,NA,NA,NA
"195","stim/objects/Instruments/trumpet.png",43,14,43,0.5,"stim/44.jpeg",4,4,1,NA,"Instruments",2,4,"right","right",0.693000078,1,1,1,1,NA,NA,NA,NA,NA,NA,NA,NA,NA,NA,NA,NA,NA,NA,NA,NA,NA,NA,NA,NA,NA,NA,NA,NA
"150","stim/objects/Instruments/tambourine2.png",44,14,44,0.3,"stim/64.jpeg",6,4,2,NA,"Instruments",2,1,"right","",NA,0,0,1,1,NA,NA,NA,NA,NA,NA,NA,NA,NA,NA,NA,NA,NA,NA,NA,NA,NA,NA,NA,NA,NA,NA,NA,NA
"209","stim/objects/Instruments/tuba.png",45,14,45,0.7,"stim/51.jpeg",5,1,2,NA,"Instruments",2,2,"right","right",0.375999928,1,1,1,1,NA,NA,NA,NA,NA,NA,NA,NA,NA,NA,NA,NA,NA,NA,NA,NA,NA,NA,NA,NA,NA,NA,NA,NA
"62","stim/objects/HouseObjects/teapot.png",46,14,46,0.5,"stim/43.jpeg",4,3,1,NA,"HouseObjects",1,2,"left","right",0.545000076,0,0,1,1,NA,NA,NA,NA,NA,NA,NA,NA,NA,NA,NA,NA,NA,NA,NA,NA,NA,NA,NA,NA,NA,NA,NA,NA
"76","stim/objects/HouseObjects/thread2.png",47,14,47,0.9,"stim/21.jpeg",2,1,3,NA,"HouseObjects",1,1,"left","left",0.670000076,1,1,1,1,NA,NA,NA,NA,NA,NA,NA,NA,NA,NA,NA,NA,NA,NA,NA,NA,NA,NA,NA,NA,NA,NA,NA,NA
"189","stim/objects/Instruments/trombone2.png",48,14,48,0.9,"stim/13.jpeg",1,3,3,NA,"Instruments",2,2,"right","right",0.553999901,1,1,1,1,NA,NA,NA,NA,NA,NA,NA,NA,NA,NA,NA,NA,NA,NA,NA,NA,NA,NA,NA,NA,NA,NA,NA,NA
"43","stim/objects/HouseObjects/scale2.png",49,14,49,0.7,"stim/64.jpeg",6,4,2,NA,"HouseObjects",1,2,"left","left",0.753000021,1,1,1,1,NA,NA,NA,NA,NA,NA,NA,NA,NA,NA,NA,NA,NA,NA,NA,NA,NA,NA,NA,NA,NA,NA,NA,NA
"112","stim/objects/HouseObjects/wateringcan2.png",50,14,50,0.9,"stim/24.jpeg",2,4,3,NA,"HouseObjects",1,2,"left","left",0.534999847,1,1,1,1,NA,NA,NA,NA,NA,NA,NA,NA,NA,NA,NA,NA,NA,NA,NA,NA,NA,NA,NA,NA,NA,NA,NA,NA
"219","stim/objects/Instruments/violin.png",51,14,51,0.7,"stim/52.jpeg",5,2,2,NA,"Instruments",2,3,"right","right",0.539999962,1,1,1,1,NA,NA,NA,NA,NA,NA,NA,NA,NA,NA,NA,NA,NA,NA,NA,NA,NA,NA,NA,NA,NA,NA,NA,NA
"134","stim/objects/Instruments/saxophone2.png",52,14,52,0.3,"stim/62.jpeg",6,2,2,NA,"Instruments",2,3,"right","left",0.542999983,0,0,1,1,NA,NA,NA,NA,NA,NA,NA,NA,NA,NA,NA,NA,NA,NA,NA,NA,NA,NA,NA,NA,NA,NA,NA,NA
"181","stim/objects/Instruments/trombone.png",53,14,53,0.5,"stim/43.jpeg",4,3,1,NA,"Instruments",2,4,"right","left",0.771999836,0,0,1,1,NA,NA,NA,NA,NA,NA,NA,NA,NA,NA,NA,NA,NA,NA,NA,NA,NA,NA,NA,NA,NA,NA,NA,NA
"146","stim/objects/Instruments/tambourine.png",54,14,54,0.5,"stim/34.jpeg",3,4,1,NA,"Instruments",2,1,"right","right",0.514999866,1,1,1,1,NA,NA,NA,NA,NA,NA,NA,NA,NA,NA,NA,NA,NA,NA,NA,NA,NA,NA,NA,NA,NA,NA,NA,NA
"203","stim/objects/Instruments/trumpet2.png",55,14,55,0.9,"stim/14.jpeg",1,4,3,NA,"Instruments",2,3,"right","left",0.545000076,0,0,1,1,NA,NA,NA,NA,NA,NA,NA,NA,NA,NA,NA,NA,NA,NA,NA,NA,NA,NA,NA,NA,NA,NA,NA,NA
"138","stim/objects/Instruments/speaker.png",56,14,56,0.5,"stim/33.jpeg",3,3,1,NA,"Instruments",2,1,"right","right",0.489000082,1,1,1,1,NA,NA,NA,NA,NA,NA,NA,NA,NA,NA,NA,NA,NA,NA,NA,NA,NA,NA,NA,NA,NA,NA,NA,NA
"63","stim/objects/HouseObjects/teapot.png",57,14,57,0.5,"stim/43.jpeg",4,3,1,NA,"HouseObjects",1,4,"left","left",0.832000017,1,1,1,1,NA,NA,NA,NA,NA,NA,NA,NA,NA,NA,NA,NA,NA,NA,NA,NA,NA,NA,NA,NA,NA,NA,NA,NA
"2","stim/objects/HouseObjects/rug.png",58,14,58,0.5,"stim/31.jpeg",3,1,1,NA,"HouseObjects",1,3,"left","right",0.569999933,0,0,1,1,NA,NA,NA,NA,NA,NA,NA,NA,NA,NA,NA,NA,NA,NA,NA,NA,NA,NA,NA,NA,NA,NA,NA,NA
"109","stim/objects/HouseObjects/wateringcan.png",59,14,59,0.3,"stim/54.jpeg",5,4,2,NA,"HouseObjects",1,2,"left","right",0.496999979,0,0,1,1,NA,NA,NA,NA,NA,NA,NA,NA,NA,NA,NA,NA,NA,NA,NA,NA,NA,NA,NA,NA,NA,NA,NA,NA
"154","stim/objects/Instruments/timbal.png",60,14,60,0.5,"stim/41.jpeg",4,1,1,NA,"Instruments",2,1,"right","right",0.516000032,1,1,1,1,NA,NA,NA,NA,NA,NA,NA,NA,NA,NA,NA,NA,NA,NA,NA,NA,NA,NA,NA,NA,NA,NA,NA,NA
"169","stim/objects/Instruments/triangle.png",61,14,61,0.5,"stim/42.jpeg",4,2,1,NA,"Instruments",2,3,"right","right",0.611999989,1,1,1,1,NA,NA,NA,NA,NA,NA,NA,NA,NA,NA,NA,NA,NA,NA,NA,NA,NA,NA,NA,NA,NA,NA,NA,NA
"225","stim/objects/Instruments/vuvuzela.png",62,14,62,0.7,"stim/53.jpeg",5,3,2,NA,"Instruments",2,4,"right","right",0.788000107,1,1,1,1,NA,NA,NA,NA,NA,NA,NA,NA,NA,NA,NA,NA,NA,NA,NA,NA,NA,NA,NA,NA,NA,NA,NA,NA
"113","stim/objects/HouseObjects/wateringcan2.png",63,14,63,0.9,"stim/24.jpeg",2,4,3,NA,"HouseObjects",1,4,"left","left",0.515999794,1,1,1,1,NA,NA,NA,NA,NA,NA,NA,NA,NA,NA,NA,NA,NA,NA,NA,NA,NA,NA,NA,NA,NA,NA,NA,NA
"170","stim/objects/Instruments/triangle.png",64,14,64,0.5,"stim/42.jpeg",4,2,1,NA,"Instruments",2,2,"right","right",0.53000021,1,1,1,1,NA,NA,NA,NA,NA,NA,NA,NA,NA,NA,NA,NA,NA,NA,NA,NA,NA,NA,NA,NA,NA,NA,NA,NA
"97","stim/objects/HouseObjects/vacuumcleaner.png",65,14,65,0.3,"stim/53.jpeg",5,3,2,NA,"HouseObjects",1,3,"left","right",0.588999987,0,0,1,1,NA,NA,NA,NA,NA,NA,NA,NA,NA,NA,NA,NA,NA,NA,NA,NA,NA,NA,NA,NA,NA,NA,NA,NA
"18","stim/objects/HouseObjects/safetypin2.png",66,14,66,0.7,"stim/62.jpeg",6,2,2,NA,"HouseObjects",1,1,"left","right",0.684999943,0,0,1,1,NA,NA,NA,NA,NA,NA,NA,NA,NA,NA,NA,NA,NA,NA,NA,NA,NA,NA,NA,NA,NA,NA,NA,NA
"171","stim/objects/Instruments/triangle.png",67,14,67,0.5,"stim/42.jpeg",4,2,1,NA,"Instruments",2,1,"right","right",0.486000061,1,1,1,1,NA,NA,NA,NA,NA,NA,NA,NA,NA,NA,NA,NA,NA,NA,NA,NA,NA,NA,NA,NA,NA,NA,NA,NA
"38","stim/objects/HouseObjects/scale.png",68,14,68,0.5,"stim/34.jpeg",3,4,1,NA,"HouseObjects",1,2,"left","right",0.551000118,0,0,1,1,NA,NA,NA,NA,NA,NA,NA,NA,NA,NA,NA,NA,NA,NA,NA,NA,NA,NA,NA,NA,NA,NA,NA,NA
"224","stim/objects/Instruments/violin2.png",69,14,69,0.1,"stim/22.jpeg",2,2,3,NA,"Instruments",2,4,"right","left",0.512000084,0,0,1,1,NA,NA,NA,NA,NA,NA,NA,NA,NA,NA,NA,NA,NA,NA,NA,NA,NA,NA,NA,NA,NA,NA,NA,NA
"98","stim/objects/HouseObjects/vacuumcleaner.png",70,14,70,0.3,"stim/53.jpeg",5,3,2,NA,"HouseObjects",1,4,"left","right",0.683000088,0,0,1,1,NA,NA,NA,NA,NA,NA,NA,NA,NA,NA,NA,NA,NA,NA,NA,NA,NA,NA,NA,NA,NA,NA,NA,NA
"50","stim/objects/HouseObjects/sponge.png",71,14,71,0.5,"stim/41.jpeg",4,1,1,NA,"HouseObjects",1,3,"left","right",0.63499999,0,0,1,1,NA,NA,NA,NA,NA,NA,NA,NA,NA,NA,NA,NA,NA,NA,NA,NA,NA,NA,NA,NA,NA,NA,NA,NA
"114","stim/objects/HouseObjects/wateringcan2.png",72,14,72,0.9,"stim/24.jpeg",2,4,3,NA,"HouseObjects",1,3,"left","left",0.549000025,1,1,1,1,NA,NA,NA,NA,NA,NA,NA,NA,NA,NA,NA,NA,NA,NA,NA,NA,NA,NA,NA,NA,NA,NA,NA,NA
"126","stim/objects/Instruments/record_player2.png",73,14,73,0.3,"stim/61.jpeg",6,1,2,NA,"Instruments",2,3,"right","left",0.639999866,0,0,1,1,NA,NA,NA,NA,NA,NA,NA,NA,NA,NA,NA,NA,NA,NA,NA,NA,NA,NA,NA,NA,NA,NA,NA,NA
"162","stim/objects/Instruments/timbal2.png",74,14,74,0.9,"stim/11.jpeg",1,1,3,NA,"Instruments",2,4,"right","right",0.615999937,1,1,1,1,NA,NA,NA,NA,NA,NA,NA,NA,NA,NA,NA,NA,NA,NA,NA,NA,NA,NA,NA,NA,NA,NA,NA,NA
"190","stim/objects/Instruments/trombone2.png",75,14,75,0.9,"stim/13.jpeg",1,3,3,NA,"Instruments",2,4,"right","right",0.56099987,1,1,1,1,NA,NA,NA,NA,NA,NA,NA,NA,NA,NA,NA,NA,NA,NA,NA,NA,NA,NA,NA,NA,NA,NA,NA,NA
"25","stim/objects/HouseObjects/saw.png",76,14,76,0.5,"stim/33.jpeg",3,3,1,NA,"HouseObjects",1,1,"left","right",0.708999872,0,0,1,1,NA,NA,NA,NA,NA,NA,NA,NA,NA,NA,NA,NA,NA,NA,NA,NA,NA,NA,NA,NA,NA,NA,NA,NA
"73","stim/objects/HouseObjects/thread.png",77,14,77,0.3,"stim/51.jpeg",5,1,2,NA,"HouseObjects",1,2,"left","right",0.505999804,0,0,1,1,NA,NA,NA,NA,NA,NA,NA,NA,NA,NA,NA,NA,NA,NA,NA,NA,NA,NA,NA,NA,NA,NA,NA,NA
"142","stim/objects/Instruments/speaker2.png",78,14,78,0.3,"stim/63.jpeg",6,3,2,NA,"Instruments",2,4,"right","right",0.489000082,1,1,1,1,NA,NA,NA,NA,NA,NA,NA,NA,NA,NA,NA,NA,NA,NA,NA,NA,NA,NA,NA,NA,NA,NA,NA,NA
"182","stim/objects/Instruments/trombone.png",79,14,79,0.5,"stim/43.jpeg",4,3,1,NA,"Instruments",2,4,"right","left",0.727999926,0,0,1,1,NA,NA,NA,NA,NA,NA,NA,NA,NA,NA,NA,NA,NA,NA,NA,NA,NA,NA,NA,NA,NA,NA,NA,NA
"115","stim/objects/HouseObjects/wateringcan2.png",80,14,80,0.9,"stim/24.jpeg",2,4,3,NA,"HouseObjects",1,2,"left","left",0.594000101,1,1,1,1,NA,NA,NA,NA,NA,NA,NA,NA,NA,NA,NA,NA,NA,NA,NA,NA,NA,NA,NA,NA,NA,NA,NA,NA
"26","stim/objects/HouseObjects/saw.png",81,14,81,0.5,"stim/33.jpeg",3,3,1,NA,"HouseObjects",1,1,"left","right",0.534000158,0,0,1,1,NA,NA,NA,NA,NA,NA,NA,NA,NA,NA,NA,NA,NA,NA,NA,NA,NA,NA,NA,NA,NA,NA,NA,NA
"235","stim/objects/Instruments/xylophone.png",82,14,82,0.7,"stim/54.jpeg",5,4,2,NA,"Instruments",2,3,"right","right",0.482999802,1,1,1,1,NA,NA,NA,NA,NA,NA,NA,NA,NA,NA,NA,NA,NA,NA,NA,NA,NA,NA,NA,NA,NA,NA,NA,NA
"39","stim/objects/HouseObjects/scale.png",83,14,83,0.5,"stim/34.jpeg",3,4,1,NA,"HouseObjects",1,3,"left","right",0.559000015,0,0,1,1,NA,NA,NA,NA,NA,NA,NA,NA,NA,NA,NA,NA,NA,NA,NA,NA,NA,NA,NA,NA,NA,NA,NA,NA
"191","stim/objects/Instruments/trombone2.png",84,14,84,0.9,"stim/13.jpeg",1,3,3,NA,"Instruments",2,3,"right","right",0.616999865,1,1,1,1,NA,NA,NA,NA,NA,NA,NA,NA,NA,NA,NA,NA,NA,NA,NA,NA,NA,NA,NA,NA,NA,NA,NA,NA
"102","stim/objects/HouseObjects/vacuumcleaner2.png",85,14,85,0.9,"stim/23.jpeg",2,3,3,NA,"HouseObjects",1,4,"left","left",0.483999968,1,1,1,1,NA,NA,NA,NA,NA,NA,NA,NA,NA,NA,NA,NA,NA,NA,NA,NA,NA,NA,NA,NA,NA,NA,NA,NA
"131","stim/objects/Instruments/saxophone.png",86,14,86,0.5,"stim/32.jpeg",3,2,1,NA,"Instruments",2,1,"right","right",0.491000175,1,1,1,1,NA,NA,NA,NA,NA,NA,NA,NA,NA,NA,NA,NA,NA,NA,NA,NA,NA,NA,NA,NA,NA,NA,NA,NA
"183","stim/objects/Instruments/trombone.png",87,14,87,0.5,"stim/43.jpeg",4,3,1,NA,"Instruments",2,4,"right","left",0.741999865,0,0,1,1,NA,NA,NA,NA,NA,NA,NA,NA,NA,NA,NA,NA,NA,NA,NA,NA,NA,NA,NA,NA,NA,NA,NA,NA
"139","stim/objects/Instruments/speaker.png",88,14,88,0.5,"stim/33.jpeg",3,3,1,NA,"Instruments",2,2,"right","right",0.398000002,1,1,1,1,NA,NA,NA,NA,NA,NA,NA,NA,NA,NA,NA,NA,NA,NA,NA,NA,NA,NA,NA,NA,NA,NA,NA,NA
"66","stim/objects/HouseObjects/teapot2.png",89,14,89,0.1,"stim/13.jpeg",1,3,3,NA,"HouseObjects",1,1,"left","right",0.496999979,0,0,1,1,NA,NA,NA,NA,NA,NA,NA,NA,NA,NA,NA,NA,NA,NA,NA,NA,NA,NA,NA,NA,NA,NA,NA,NA
"30","stim/objects/HouseObjects/saw2.png",90,14,90,0.7,"stim/63.jpeg",6,3,2,NA,"HouseObjects",1,4,"left","right",0.641000032,0,0,1,1,NA,NA,NA,NA,NA,NA,NA,NA,NA,NA,NA,NA,NA,NA,NA,NA,NA,NA,NA,NA,NA,NA,NA,NA
"68","stim/objects/HouseObjects/thermometer.png",91,14,91,0.5,"stim/44.jpeg",4,4,1,NA,"HouseObjects",1,3,"left","right",0.684000015,0,0,1,1,NA,NA,NA,NA,NA,NA,NA,NA,NA,NA,NA,NA,NA,NA,NA,NA,NA,NA,NA,NA,NA,NA,NA,NA
"19","stim/objects/HouseObjects/safetypin2.png",92,14,92,0.7,"stim/62.jpeg",6,2,2,NA,"HouseObjects",1,2,"left","right",0.514999866,0,0,1,1,NA,NA,NA,NA,NA,NA,NA,NA,NA,NA,NA,NA,NA,NA,NA,NA,NA,NA,NA,NA,NA,NA,NA,NA
"6","stim/objects/HouseObjects/rug2.png",93,14,93,0.7,"stim/61.jpeg",6,1,2,NA,"HouseObjects",1,1,"left","right",0.437000036,0,0,1,1,NA,NA,NA,NA,NA,NA,NA,NA,NA,NA,NA,NA,NA,NA,NA,NA,NA,NA,NA,NA,NA,NA,NA,NA
"147","stim/objects/Instruments/tambourine.png",94,14,94,0.5,"stim/34.jpeg",3,4,1,NA,"Instruments",2,4,"right","right",0.332999945,1,1,1,1,NA,NA,NA,NA,NA,NA,NA,NA,NA,NA,NA,NA,NA,NA,NA,NA,NA,NA,NA,NA,NA,NA,NA,NA
"27","stim/objects/HouseObjects/saw.png",95,14,95,0.5,"stim/33.jpeg",3,3,1,NA,"HouseObjects",1,3,"left","right",0.506999969,0,0,1,1,NA,NA,NA,NA,NA,NA,NA,NA,NA,NA,NA,NA,NA,NA,NA,NA,NA,NA,NA,NA,NA,NA,NA,NA
"56","stim/objects/HouseObjects/spraybottle.png",96,14,96,0.5,"stim/42.jpeg",4,2,1,NA,"HouseObjects",1,4,"left","right",0.717000008,0,0,1,1,NA,NA,NA,NA,NA,NA,NA,NA,NA,NA,NA,NA,NA,NA,NA,NA,NA,NA,NA,NA,NA,NA,NA,NA
"143","stim/objects/Instruments/speaker2.png",97,14,97,0.3,"stim/63.jpeg",6,3,2,NA,"Instruments",2,3,"right","left",0.792999983,0,0,1,1,NA,NA,NA,NA,NA,NA,NA,NA,NA,NA,NA,NA,NA,NA,NA,NA,NA,NA,NA,NA,NA,NA,NA,NA
"122","stim/objects/Instruments/record_player.png",98,14,98,0.5,"stim/31.jpeg",3,1,1,NA,"Instruments",2,1,"right","left",0.568000078,0,0,1,1,NA,NA,NA,NA,NA,NA,NA,NA,NA,NA,NA,NA,NA,NA,NA,NA,NA,NA,NA,NA,NA,NA,NA,NA
"31","stim/objects/HouseObjects/saw2.png",99,14,99,0.7,"stim/63.jpeg",6,3,2,NA,"HouseObjects",1,3,"left","right",0.407999992,0,0,1,1,NA,NA,NA,NA,NA,NA,NA,NA,NA,NA,NA,NA,NA,NA,NA,NA,NA,NA,NA,NA,NA,NA,NA,NA
"210","stim/objects/Instruments/tuba.png",100,14,100,0.7,"stim/51.jpeg",5,1,2,NA,"Instruments",2,2,"right","right",0.595999956,1,1,1,1,NA,NA,NA,NA,NA,NA,NA,NA,NA,NA,NA,NA,NA,NA,NA,NA,NA,NA,NA,NA,NA,NA,NA,NA
"196","stim/objects/Instruments/trumpet.png",101,14,101,0.5,"stim/44.jpeg",4,4,1,NA,"Instruments",2,3,"right","left",0.666999817,0,0,1,1,NA,NA,NA,NA,NA,NA,NA,NA,NA,NA,NA,NA,NA,NA,NA,NA,NA,NA,NA,NA,NA,NA,NA,NA
"20","stim/objects/HouseObjects/safetypin2.png",102,14,102,0.7,"stim/62.jpeg",6,2,2,NA,"HouseObjects",1,3,"left","left",0.496000051,1,1,1,1,NA,NA,NA,NA,NA,NA,NA,NA,NA,NA,NA,NA,NA,NA,NA,NA,NA,NA,NA,NA,NA,NA,NA,NA
"155","stim/objects/Instruments/timbal.png",103,14,103,0.5,"stim/41.jpeg",4,1,1,NA,"Instruments",2,4,"right","right",0.459000111,1,1,1,1,NA,NA,NA,NA,NA,NA,NA,NA,NA,NA,NA,NA,NA,NA,NA,NA,NA,NA,NA,NA,NA,NA,NA,NA
"174","stim/objects/Instruments/triangle2.png",104,14,104,0.9,"stim/12.jpeg",1,2,3,NA,"Instruments",2,3,"right","right",0.526000023,1,1,1,1,NA,NA,NA,NA,NA,NA,NA,NA,NA,NA,NA,NA,NA,NA,NA,NA,NA,NA,NA,NA,NA,NA,NA,NA
"44","stim/objects/HouseObjects/scale2.png",105,14,105,0.7,"stim/64.jpeg",6,4,2,NA,"HouseObjects",1,3,"left","right",0.631000042,0,0,1,1,NA,NA,NA,NA,NA,NA,NA,NA,NA,NA,NA,NA,NA,NA,NA,NA,NA,NA,NA,NA,NA,NA,NA,NA
"92","stim/objects/HouseObjects/towel2.png",106,14,106,0.9,"stim/22.jpeg",2,2,3,NA,"HouseObjects",1,3,"left","left",0.542000055,1,1,1,1,NA,NA,NA,NA,NA,NA,NA,NA,NA,NA,NA,NA,NA,NA,NA,NA,NA,NA,NA,NA,NA,NA,NA,NA
"85","stim/objects/HouseObjects/towel.png",107,14,107,0.3,"stim/52.jpeg",5,2,2,NA,"HouseObjects",1,4,"left","right",0.454999924,0,0,1,1,NA,NA,NA,NA,NA,NA,NA,NA,NA,NA,NA,NA,NA,NA,NA,NA,NA,NA,NA,NA,NA,NA,NA,NA
"45","stim/objects/HouseObjects/scale2.png",108,14,108,0.7,"stim/64.jpeg",6,4,2,NA,"HouseObjects",1,4,"left","right",0.631000042,0,0,1,1,NA,NA,NA,NA,NA,NA,NA,NA,NA,NA,NA,NA,NA,NA,NA,NA,NA,NA,NA,NA,NA,NA,NA,NA
"175","stim/objects/Instruments/triangle2.png",109,14,109,0.9,"stim/12.jpeg",1,2,3,NA,"Instruments",2,1,"right","right",0.38499999,1,1,1,1,NA,NA,NA,NA,NA,NA,NA,NA,NA,NA,NA,NA,NA,NA,NA,NA,NA,NA,NA,NA,NA,NA,NA,NA
"151","stim/objects/Instruments/tambourine2.png",110,14,110,0.3,"stim/64.jpeg",6,4,2,NA,"Instruments",2,3,"right","",NA,0,0,1,1,NA,NA,NA,NA,NA,NA,NA,NA,NA,NA,NA,NA,NA,NA,NA,NA,NA,NA,NA,NA,NA,NA,NA,NA
"64","stim/objects/HouseObjects/teapot.png",111,14,111,0.5,"stim/43.jpeg",4,3,1,NA,"HouseObjects",1,2,"left","right",0.25999999,0,0,1,1,NA,NA,NA,NA,NA,NA,NA,NA,NA,NA,NA,NA,NA,NA,NA,NA,NA,NA,NA,NA,NA,NA,NA,NA
"204","stim/objects/Instruments/trumpet2.png",112,14,112,0.9,"stim/14.jpeg",1,4,3,NA,"Instruments",2,3,"right","left",0.424000025,0,0,1,1,NA,NA,NA,NA,NA,NA,NA,NA,NA,NA,NA,NA,NA,NA,NA,NA,NA,NA,NA,NA,NA,NA,NA,NA
"132","stim/objects/Instruments/saxophone.png",113,14,113,0.5,"stim/32.jpeg",3,2,1,NA,"Instruments",2,1,"right","right",0.317000151,1,1,1,1,NA,NA,NA,NA,NA,NA,NA,NA,NA,NA,NA,NA,NA,NA,NA,NA,NA,NA,NA,NA,NA,NA,NA,NA
"163","stim/objects/Instruments/timbal2.png",114,14,114,0.9,"stim/11.jpeg",1,1,3,NA,"Instruments",2,1,"right","right",0.349999905,1,1,1,1,NA,NA,NA,NA,NA,NA,NA,NA,NA,NA,NA,NA,NA,NA,NA,NA,NA,NA,NA,NA,NA,NA,NA,NA
"197","stim/objects/Instruments/trumpet.png",115,14,115,0.5,"stim/44.jpeg",4,4,1,NA,"Instruments",2,2,"right","right",0.397000074,1,1,1,1,NA,NA,NA,NA,NA,NA,NA,NA,NA,NA,NA,NA,NA,NA,NA,NA,NA,NA,NA,NA,NA,NA,NA,NA
"211","stim/objects/Instruments/tuba.png",116,14,116,0.7,"stim/51.jpeg",5,1,2,NA,"Instruments",2,1,"right","right",0.251000166,1,1,1,1,NA,NA,NA,NA,NA,NA,NA,NA,NA,NA,NA,NA,NA,NA,NA,NA,NA,NA,NA,NA,NA,NA,NA,NA
"116","stim/objects/HouseObjects/wateringcan2.png",117,14,117,0.9,"stim/24.jpeg",2,4,3,NA,"HouseObjects",1,1,"left","left",0.369999886,1,1,1,1,NA,NA,NA,NA,NA,NA,NA,NA,NA,NA,NA,NA,NA,NA,NA,NA,NA,NA,NA,NA,NA,NA,NA,NA
"57","stim/objects/HouseObjects/spraybottle.png",118,14,118,0.5,"stim/42.jpeg",4,2,1,NA,"HouseObjects",1,4,"left","right",0.27699995,0,0,1,1,NA,NA,NA,NA,NA,NA,NA,NA,NA,NA,NA,NA,NA,NA,NA,NA,NA,NA,NA,NA,NA,NA,NA,NA
"110","stim/objects/HouseObjects/wateringcan.png",119,14,119,0.3,"stim/54.jpeg",5,4,2,NA,"HouseObjects",1,2,"left","right",0.351999998,0,0,1,1,NA,NA,NA,NA,NA,NA,NA,NA,NA,NA,NA,NA,NA,NA,NA,NA,NA,NA,NA,NA,NA,NA,NA,NA
"226","stim/objects/Instruments/vuvuzela.png",120,14,120,0.7,"stim/53.jpeg",5,3,2,NA,"Instruments",2,1,"right","right",0.532999992,1,1,1,1,NA,NA,NA,NA,NA,NA,NA,NA,NA,NA,NA,NA,NA,NA,NA,NA,NA,NA,NA,NA,NA,NA,NA,NA
"7","stim/objects/HouseObjects/rug2.png",121,14,121,0.7,"stim/61.jpeg",6,1,2,NA,"HouseObjects",1,2,"left","right",0.512000084,0,0,1,1,NA,NA,NA,NA,NA,NA,NA,NA,NA,NA,NA,NA,NA,NA,NA,NA,NA,NA,NA,NA,NA,NA,NA,NA
"77","stim/objects/HouseObjects/thread2.png",122,14,122,0.9,"stim/21.jpeg",2,1,3,NA,"HouseObjects",1,4,"left","left",0.544000149,1,1,1,1,NA,NA,NA,NA,NA,NA,NA,NA,NA,NA,NA,NA,NA,NA,NA,NA,NA,NA,NA,NA,NA,NA,NA,NA
"148","stim/objects/Instruments/tambourine.png",123,14,123,0.5,"stim/34.jpeg",3,4,1,NA,"Instruments",2,1,"right","left",0.382999897,0,0,1,1,NA,NA,NA,NA,NA,NA,NA,NA,NA,NA,NA,NA,NA,NA,NA,NA,NA,NA,NA,NA,NA,NA,NA,NA
"74","stim/objects/HouseObjects/thread.png",124,14,124,0.3,"stim/51.jpeg",5,1,2,NA,"HouseObjects",1,4,"left","right",0.401000023,0,0,1,1,NA,NA,NA,NA,NA,NA,NA,NA,NA,NA,NA,NA,NA,NA,NA,NA,NA,NA,NA,NA,NA,NA,NA,NA
"176","stim/objects/Instruments/triangle2.png",125,14,125,0.9,"stim/12.jpeg",1,2,3,NA,"Instruments",2,4,"right","right",0.319000006,1,1,1,1,NA,NA,NA,NA,NA,NA,NA,NA,NA,NA,NA,NA,NA,NA,NA,NA,NA,NA,NA,NA,NA,NA,NA,NA
"103","stim/objects/HouseObjects/vacuumcleaner2.png",126,14,126,0.9,"stim/23.jpeg",2,3,3,NA,"HouseObjects",1,1,"left","right",0.27699995,0,0,1,1,NA,NA,NA,NA,NA,NA,NA,NA,NA,NA,NA,NA,NA,NA,NA,NA,NA,NA,NA,NA,NA,NA,NA,NA
"220","stim/objects/Instruments/violin.png",127,14,127,0.7,"stim/52.jpeg",5,2,2,NA,"Instruments",2,2,"right","right",0.517000198,1,1,1,1,NA,NA,NA,NA,NA,NA,NA,NA,NA,NA,NA,NA,NA,NA,NA,NA,NA,NA,NA,NA,NA,NA,NA,NA
"93","stim/objects/HouseObjects/towel2.png",128,14,128,0.9,"stim/22.jpeg",2,2,3,NA,"HouseObjects",1,2,"left","right",0.367000103,0,0,1,1,NA,NA,NA,NA,NA,NA,NA,NA,NA,NA,NA,NA,NA,NA,NA,NA,NA,NA,NA,NA,NA,NA,NA,NA
"94","stim/objects/HouseObjects/towel2.png",129,14,129,0.9,"stim/22.jpeg",2,2,3,NA,"HouseObjects",1,3,"left","left",0.483999968,1,1,1,1,NA,NA,NA,NA,NA,NA,NA,NA,NA,NA,NA,NA,NA,NA,NA,NA,NA,NA,NA,NA,NA,NA,NA,NA
"123","stim/objects/Instruments/record_player.png",130,14,130,0.5,"stim/31.jpeg",3,1,1,NA,"Instruments",2,4,"right","right",0.376000166,1,1,1,1,NA,NA,NA,NA,NA,NA,NA,NA,NA,NA,NA,NA,NA,NA,NA,NA,NA,NA,NA,NA,NA,NA,NA,NA
"127","stim/objects/Instruments/record_player2.png",131,14,131,0.3,"stim/61.jpeg",6,1,2,NA,"Instruments",2,1,"right","left",0.569999933,0,0,1,1,NA,NA,NA,NA,NA,NA,NA,NA,NA,NA,NA,NA,NA,NA,NA,NA,NA,NA,NA,NA,NA,NA,NA,NA
"135","stim/objects/Instruments/saxophone2.png",132,14,132,0.3,"stim/62.jpeg",6,2,2,NA,"Instruments",2,4,"right","left",0.515000105,0,0,1,1,NA,NA,NA,NA,NA,NA,NA,NA,NA,NA,NA,NA,NA,NA,NA,NA,NA,NA,NA,NA,NA,NA,NA,NA
"177","stim/objects/Instruments/triangle2.png",133,14,133,0.9,"stim/12.jpeg",1,2,3,NA,"Instruments",2,3,"right","left",0.346999884,0,0,1,1,NA,NA,NA,NA,NA,NA,NA,NA,NA,NA,NA,NA,NA,NA,NA,NA,NA,NA,NA,NA,NA,NA,NA,NA
"212","stim/objects/Instruments/tuba.png",134,14,134,0.7,"stim/51.jpeg",5,1,2,NA,"Instruments",2,2,"right","right",0.426000118,1,1,1,1,NA,NA,NA,NA,NA,NA,NA,NA,NA,NA,NA,NA,NA,NA,NA,NA,NA,NA,NA,NA,NA,NA,NA,NA
"8","stim/objects/HouseObjects/rug2.png",135,14,135,0.7,"stim/61.jpeg",6,1,2,NA,"HouseObjects",1,3,"left","left",0.433000088,1,1,1,1,NA,NA,NA,NA,NA,NA,NA,NA,NA,NA,NA,NA,NA,NA,NA,NA,NA,NA,NA,NA,NA,NA,NA,NA
"124","stim/objects/Instruments/record_player.png",136,14,136,0.5,"stim/31.jpeg",3,1,1,NA,"Instruments",2,2,"right","right",0.444000006,1,1,1,1,NA,NA,NA,NA,NA,NA,NA,NA,NA,NA,NA,NA,NA,NA,NA,NA,NA,NA,NA,NA,NA,NA,NA,NA
"21","stim/objects/HouseObjects/safetypin2.png",137,14,137,0.7,"stim/62.jpeg",6,2,2,NA,"HouseObjects",1,2,"left","left",0.604000092,1,1,1,1,NA,NA,NA,NA,NA,NA,NA,NA,NA,NA,NA,NA,NA,NA,NA,NA,NA,NA,NA,NA,NA,NA,NA,NA
"22","stim/objects/HouseObjects/safetypin2.png",138,14,138,0.7,"stim/62.jpeg",6,2,2,NA,"HouseObjects",1,1,"left","left",0.534000158,1,1,1,1,NA,NA,NA,NA,NA,NA,NA,NA,NA,NA,NA,NA,NA,NA,NA,NA,NA,NA,NA,NA,NA,NA,NA,NA
"184","stim/objects/Instruments/trombone.png",139,14,139,0.5,"stim/43.jpeg",4,3,1,NA,"Instruments",2,3,"right","right",0.490999937,1,1,1,1,NA,NA,NA,NA,NA,NA,NA,NA,NA,NA,NA,NA,NA,NA,NA,NA,NA,NA,NA,NA,NA,NA,NA,NA
"58","stim/objects/HouseObjects/spraybottle.png",140,14,140,0.5,"stim/42.jpeg",4,2,1,NA,"HouseObjects",1,4,"left","right",0.521999836,0,0,1,1,NA,NA,NA,NA,NA,NA,NA,NA,NA,NA,NA,NA,NA,NA,NA,NA,NA,NA,NA,NA,NA,NA,NA,NA
"117","stim/objects/HouseObjects/wateringcan2.png",141,14,141,0.9,"stim/24.jpeg",2,4,3,NA,"HouseObjects",1,4,"left","left",0.476000071,1,1,1,1,NA,NA,NA,NA,NA,NA,NA,NA,NA,NA,NA,NA,NA,NA,NA,NA,NA,NA,NA,NA,NA,NA,NA,NA
"59","stim/objects/HouseObjects/spraybottle.png",142,14,142,0.5,"stim/42.jpeg",4,2,1,NA,"HouseObjects",1,4,"left","right",0.443000078,0,0,1,1,NA,NA,NA,NA,NA,NA,NA,NA,NA,NA,NA,NA,NA,NA,NA,NA,NA,NA,NA,NA,NA,NA,NA,NA
"104","stim/objects/HouseObjects/vacuumcleaner2.png",143,14,143,0.9,"stim/23.jpeg",2,3,3,NA,"HouseObjects",1,3,"left","left",0.374000072,1,1,1,1,NA,NA,NA,NA,NA,NA,NA,NA,NA,NA,NA,NA,NA,NA,NA,NA,NA,NA,NA,NA,NA,NA,NA,NA
"40","stim/objects/HouseObjects/scale.png",144,14,144,0.5,"stim/34.jpeg",3,4,1,NA,"HouseObjects",1,3,"left","left",0.427999973,1,1,1,1,NA,NA,NA,NA,NA,NA,NA,NA,NA,NA,NA,NA,NA,NA,NA,NA,NA,NA,NA,NA,NA,NA,NA,NA
"125","stim/objects/Instruments/record_player.png",145,14,145,0.5,"stim/31.jpeg",3,1,1,NA,"Instruments",2,1,"right","left",0.407999992,0,0,1,1,NA,NA,NA,NA,NA,NA,NA,NA,NA,NA,NA,NA,NA,NA,NA,NA,NA,NA,NA,NA,NA,NA,NA,NA
"140","stim/objects/Instruments/speaker.png",146,14,146,0.5,"stim/33.jpeg",3,3,1,NA,"Instruments",2,3,"right","right",0.549999952,1,1,1,1,NA,NA,NA,NA,NA,NA,NA,NA,NA,NA,NA,NA,NA,NA,NA,NA,NA,NA,NA,NA,NA,NA,NA,NA
"32","stim/objects/HouseObjects/saw2.png",147,14,147,0.7,"stim/63.jpeg",6,3,2,NA,"HouseObjects",1,3,"left","right",0.487999916,0,0,1,1,NA,NA,NA,NA,NA,NA,NA,NA,NA,NA,NA,NA,NA,NA,NA,NA,NA,NA,NA,NA,NA,NA,NA,NA
"227","stim/objects/Instruments/vuvuzela.png",148,14,148,0.7,"stim/53.jpeg",5,3,2,NA,"Instruments",2,2,"right","right",0.460000038,1,1,1,1,NA,NA,NA,NA,NA,NA,NA,NA,NA,NA,NA,NA,NA,NA,NA,NA,NA,NA,NA,NA,NA,NA,NA,NA
"51","stim/objects/HouseObjects/sponge.png",149,14,149,0.5,"stim/41.jpeg",4,1,1,NA,"HouseObjects",1,3,"left","left",0.527999878,1,1,1,1,NA,NA,NA,NA,NA,NA,NA,NA,NA,NA,NA,NA,NA,NA,NA,NA,NA,NA,NA,NA,NA,NA,NA,NA
"78","stim/objects/HouseObjects/thread2.png",150,14,150,0.9,"stim/21.jpeg",2,1,3,NA,"HouseObjects",1,4,"left","left",0.438999891,1,1,1,1,NA,NA,NA,NA,NA,NA,NA,NA,NA,NA,NA,NA,NA,NA,NA,NA,NA,NA,NA,NA,NA,NA,NA,NA
"72","stim/objects/HouseObjects/thermometer2.png",151,14,151,0.1,"stim/14.jpeg",1,4,3,NA,"HouseObjects",1,3,"left","right",0.517000198,0,0,1,1,NA,NA,NA,NA,NA,NA,NA,NA,NA,NA,NA,NA,NA,NA,NA,NA,NA,NA,NA,NA,NA,NA,NA,NA
"236","stim/objects/Instruments/xylophone.png",152,14,152,0.7,"stim/54.jpeg",5,4,2,NA,"Instruments",2,1,"right","right",0.786000013,1,1,1,1,NA,NA,NA,NA,NA,NA,NA,NA,NA,NA,NA,NA,NA,NA,NA,NA,NA,NA,NA,NA,NA,NA,NA,NA
"178","stim/objects/Instruments/triangle2.png",153,14,153,0.9,"stim/12.jpeg",1,2,3,NA,"Instruments",2,1,"right","right",0.45600009,1,1,1,1,NA,NA,NA,NA,NA,NA,NA,NA,NA,NA,NA,NA,NA,NA,NA,NA,NA,NA,NA,NA,NA,NA,NA,NA
"213","stim/objects/Instruments/tuba.png",154,14,154,0.7,"stim/51.jpeg",5,1,2,NA,"Instruments",2,1,"right","right",0.441999912,1,1,1,1,NA,NA,NA,NA,NA,NA,NA,NA,NA,NA,NA,NA,NA,NA,NA,NA,NA,NA,NA,NA,NA,NA,NA,NA
"214","stim/objects/Instruments/tuba.png",155,14,155,0.7,"stim/51.jpeg",5,1,2,NA,"Instruments",2,3,"right","right",0.393000126,1,1,1,1,NA,NA,NA,NA,NA,NA,NA,NA,NA,NA,NA,NA,NA,NA,NA,NA,NA,NA,NA,NA,NA,NA,NA,NA
"9","stim/objects/HouseObjects/rug2.png",156,14,156,0.7,"stim/61.jpeg",6,1,2,NA,"HouseObjects",1,3,"left","left",0.656000137,1,1,1,1,NA,NA,NA,NA,NA,NA,NA,NA,NA,NA,NA,NA,NA,NA,NA,NA,NA,NA,NA,NA,NA,NA,NA,NA
"41","stim/objects/HouseObjects/scale.png",157,14,157,0.5,"stim/34.jpeg",3,4,1,NA,"HouseObjects",1,2,"left","right",0.378000021,0,0,1,1,NA,NA,NA,NA,NA,NA,NA,NA,NA,NA,NA,NA,NA,NA,NA,NA,NA,NA,NA,NA,NA,NA,NA,NA
"198","stim/objects/Instruments/trumpet.png",158,14,158,0.5,"stim/44.jpeg",4,4,1,NA,"Instruments",2,3,"right","right",0.623999834,1,1,1,1,NA,NA,NA,NA,NA,NA,NA,NA,NA,NA,NA,NA,NA,NA,NA,NA,NA,NA,NA,NA,NA,NA,NA,NA
"118","stim/objects/HouseObjects/wateringcan2.png",159,14,159,0.9,"stim/24.jpeg",2,4,3,NA,"HouseObjects",1,4,"left","left",0.502000093,1,1,1,1,NA,NA,NA,NA,NA,NA,NA,NA,NA,NA,NA,NA,NA,NA,NA,NA,NA,NA,NA,NA,NA,NA,NA,NA
"144","stim/objects/Instruments/speaker2.png",160,14,160,0.3,"stim/63.jpeg",6,3,2,NA,"Instruments",2,1,"right","left",0.631000042,0,0,1,1,NA,NA,NA,NA,NA,NA,NA,NA,NA,NA,NA,NA,NA,NA,NA,NA,NA,NA,NA,NA,NA,NA,NA,NA
"228","stim/objects/Instruments/vuvuzela.png",161,14,161,0.7,"stim/53.jpeg",5,3,2,NA,"Instruments",2,1,"right","right",0.506000042,1,1,1,1,NA,NA,NA,NA,NA,NA,NA,NA,NA,NA,NA,NA,NA,NA,NA,NA,NA,NA,NA,NA,NA,NA,NA,NA
"221","stim/objects/Instruments/violin.png",162,14,162,0.7,"stim/52.jpeg",5,2,2,NA,"Instruments",2,3,"right","right",0.5849998,1,1,1,1,NA,NA,NA,NA,NA,NA,NA,NA,NA,NA,NA,NA,NA,NA,NA,NA,NA,NA,NA,NA,NA,NA,NA,NA
"69","stim/objects/HouseObjects/thermometer.png",163,14,163,0.5,"stim/44.jpeg",4,4,1,NA,"HouseObjects",1,1,"left","right",0.603999853,0,0,1,1,NA,NA,NA,NA,NA,NA,NA,NA,NA,NA,NA,NA,NA,NA,NA,NA,NA,NA,NA,NA,NA,NA,NA,NA
"136","stim/objects/Instruments/saxophone2.png",164,14,164,0.3,"stim/62.jpeg",6,2,2,NA,"Instruments",2,4,"right","left",0.542999983,0,0,1,1,NA,NA,NA,NA,NA,NA,NA,NA,NA,NA,NA,NA,NA,NA,NA,NA,NA,NA,NA,NA,NA,NA,NA,NA
"128","stim/objects/Instruments/record_player2.png",165,14,165,0.3,"stim/61.jpeg",6,1,2,NA,"Instruments",2,1,"right","left",0.582000017,0,0,1,1,NA,NA,NA,NA,NA,NA,NA,NA,NA,NA,NA,NA,NA,NA,NA,NA,NA,NA,NA,NA,NA,NA,NA,NA
"79","stim/objects/HouseObjects/thread2.png",166,14,166,0.9,"stim/21.jpeg",2,1,3,NA,"HouseObjects",1,4,"left","left",0.572000027,1,1,1,1,NA,NA,NA,NA,NA,NA,NA,NA,NA,NA,NA,NA,NA,NA,NA,NA,NA,NA,NA,NA,NA,NA,NA,NA
"222","stim/objects/Instruments/violin.png",167,14,167,0.7,"stim/52.jpeg",5,2,2,NA,"Instruments",2,4,"right","right",0.524000168,1,1,1,1,NA,NA,NA,NA,NA,NA,NA,NA,NA,NA,NA,NA,NA,NA,NA,NA,NA,NA,NA,NA,NA,NA,NA,NA
"14","stim/objects/HouseObjects/safetypin.png",168,14,168,0.5,"stim/32.jpeg",3,2,1,NA,"HouseObjects",1,4,"left","right",0.545000076,0,0,1,1,NA,NA,NA,NA,NA,NA,NA,NA,NA,NA,NA,NA,NA,NA,NA,NA,NA,NA,NA,NA,NA,NA,NA,NA
"141","stim/objects/Instruments/speaker.png",169,14,169,0.5,"stim/33.jpeg",3,3,1,NA,"Instruments",2,1,"right","right",0.554999828,1,1,1,1,NA,NA,NA,NA,NA,NA,NA,NA,NA,NA,NA,NA,NA,NA,NA,NA,NA,NA,NA,NA,NA,NA,NA,NA
"237","stim/objects/Instruments/xylophone.png",170,14,170,0.7,"stim/54.jpeg",5,4,2,NA,"Instruments",2,1,"right","right",0.426000118,1,1,1,1,NA,NA,NA,NA,NA,NA,NA,NA,NA,NA,NA,NA,NA,NA,NA,NA,NA,NA,NA,NA,NA,NA,NA,NA
"164","stim/objects/Instruments/timbal2.png",171,14,171,0.9,"stim/11.jpeg",1,1,3,NA,"Instruments",2,1,"right","right",0.416999817,1,1,1,1,NA,NA,NA,NA,NA,NA,NA,NA,NA,NA,NA,NA,NA,NA,NA,NA,NA,NA,NA,NA,NA,NA,NA,NA
"149","stim/objects/Instruments/tambourine.png",172,14,172,0.5,"stim/34.jpeg",3,4,1,NA,"Instruments",2,1,"right","right",0.31400013,1,1,1,1,NA,NA,NA,NA,NA,NA,NA,NA,NA,NA,NA,NA,NA,NA,NA,NA,NA,NA,NA,NA,NA,NA,NA,NA
"105","stim/objects/HouseObjects/vacuumcleaner2.png",173,14,173,0.9,"stim/23.jpeg",2,3,3,NA,"HouseObjects",1,2,"left","left",0.518999815,1,1,1,1,NA,NA,NA,NA,NA,NA,NA,NA,NA,NA,NA,NA,NA,NA,NA,NA,NA,NA,NA,NA,NA,NA,NA,NA
"15","stim/objects/HouseObjects/safetypin.png",174,14,174,0.5,"stim/32.jpeg",3,2,1,NA,"HouseObjects",1,3,"left","right",0.400000095,0,0,1,1,NA,NA,NA,NA,NA,NA,NA,NA,NA,NA,NA,NA,NA,NA,NA,NA,NA,NA,NA,NA,NA,NA,NA,NA
"86","stim/objects/HouseObjects/towel.png",175,14,175,0.3,"stim/52.jpeg",5,2,2,NA,"HouseObjects",1,1,"left","left",0.413000107,1,1,1,1,NA,NA,NA,NA,NA,NA,NA,NA,NA,NA,NA,NA,NA,NA,NA,NA,NA,NA,NA,NA,NA,NA,NA,NA
"106","stim/objects/HouseObjects/vacuumcleaner2.png",176,14,176,0.9,"stim/23.jpeg",2,3,3,NA,"HouseObjects",1,4,"left","left",0.476999998,1,1,1,1,NA,NA,NA,NA,NA,NA,NA,NA,NA,NA,NA,NA,NA,NA,NA,NA,NA,NA,NA,NA,NA,NA,NA,NA
"185","stim/objects/Instruments/trombone.png",177,14,177,0.5,"stim/43.jpeg",4,3,1,NA,"Instruments",2,3,"right","right",0.506000042,1,1,1,1,NA,NA,NA,NA,NA,NA,NA,NA,NA,NA,NA,NA,NA,NA,NA,NA,NA,NA,NA,NA,NA,NA,NA,NA
"16","stim/objects/HouseObjects/safetypin.png",178,14,178,0.5,"stim/32.jpeg",3,2,1,NA,"HouseObjects",1,4,"left","right",0.38499999,0,0,1,1,NA,NA,NA,NA,NA,NA,NA,NA,NA,NA,NA,NA,NA,NA,NA,NA,NA,NA,NA,NA,NA,NA,NA,NA
"80","stim/objects/HouseObjects/thread2.png",179,14,179,0.9,"stim/21.jpeg",2,1,3,NA,"HouseObjects",1,1,"left","left",0.476000071,1,1,1,1,NA,NA,NA,NA,NA,NA,NA,NA,NA,NA,NA,NA,NA,NA,NA,NA,NA,NA,NA,NA,NA,NA,NA,NA
"52","stim/objects/HouseObjects/sponge.png",180,14,180,0.5,"stim/41.jpeg",4,1,1,NA,"HouseObjects",1,2,"left","right",0.443000078,0,0,1,1,NA,NA,NA,NA,NA,NA,NA,NA,NA,NA,NA,NA,NA,NA,NA,NA,NA,NA,NA,NA,NA,NA,NA,NA
"33","stim/objects/HouseObjects/saw2.png",181,14,181,0.7,"stim/63.jpeg",6,3,2,NA,"HouseObjects",1,4,"left","left",0.519000053,1,1,1,1,NA,NA,NA,NA,NA,NA,NA,NA,NA,NA,NA,NA,NA,NA,NA,NA,NA,NA,NA,NA,NA,NA,NA,NA
"70","stim/objects/HouseObjects/thermometer.png",182,14,182,0.5,"stim/44.jpeg",4,4,1,NA,"HouseObjects",1,3,"left","right",0.645999908,0,0,1,1,NA,NA,NA,NA,NA,NA,NA,NA,NA,NA,NA,NA,NA,NA,NA,NA,NA,NA,NA,NA,NA,NA,NA,NA
"119","stim/objects/HouseObjects/wateringcan2.png",183,14,183,0.9,"stim/24.jpeg",2,4,3,NA,"HouseObjects",1,1,"left","right",0.367000103,0,0,1,1,NA,NA,NA,NA,NA,NA,NA,NA,NA,NA,NA,NA,NA,NA,NA,NA,NA,NA,NA,NA,NA,NA,NA,NA
"53","stim/objects/HouseObjects/sponge.png",184,14,184,0.5,"stim/41.jpeg",4,1,1,NA,"HouseObjects",1,4,"left","left",0.545000076,1,1,1,1,NA,NA,NA,NA,NA,NA,NA,NA,NA,NA,NA,NA,NA,NA,NA,NA,NA,NA,NA,NA,NA,NA,NA,NA
"179","stim/objects/Instruments/triangle2.png",185,14,185,0.9,"stim/12.jpeg",1,2,3,NA,"Instruments",2,1,"right","right",0.539999962,1,1,1,1,NA,NA,NA,NA,NA,NA,NA,NA,NA,NA,NA,NA,NA,NA,NA,NA,NA,NA,NA,NA,NA,NA,NA,NA
"65","stim/objects/HouseObjects/teapot.png",186,14,186,0.5,"stim/43.jpeg",4,3,1,NA,"HouseObjects",1,4,"left","right",0.552999973,0,0,1,1,NA,NA,NA,NA,NA,NA,NA,NA,NA,NA,NA,NA,NA,NA,NA,NA,NA,NA,NA,NA,NA,NA,NA,NA
"3","stim/objects/HouseObjects/rug.png",187,14,187,0.5,"stim/31.jpeg",3,1,1,NA,"HouseObjects",1,2,"left","right",0.607999802,0,0,1,1,NA,NA,NA,NA,NA,NA,NA,NA,NA,NA,NA,NA,NA,NA,NA,NA,NA,NA,NA,NA,NA,NA,NA,NA
"28","stim/objects/HouseObjects/saw.png",188,14,188,0.5,"stim/33.jpeg",3,3,1,NA,"HouseObjects",1,2,"left","right",0.414000034,0,0,1,1,NA,NA,NA,NA,NA,NA,NA,NA,NA,NA,NA,NA,NA,NA,NA,NA,NA,NA,NA,NA,NA,NA,NA,NA
"165","stim/objects/Instruments/timbal2.png",189,14,189,0.9,"stim/11.jpeg",1,1,3,NA,"Instruments",2,2,"right","right",0.510999918,1,1,1,1,NA,NA,NA,NA,NA,NA,NA,NA,NA,NA,NA,NA,NA,NA,NA,NA,NA,NA,NA,NA,NA,NA,NA,NA
"238","stim/objects/Instruments/xylophone.png",190,14,190,0.7,"stim/54.jpeg",5,4,2,NA,"Instruments",2,2,"right","right",0.599999905,1,1,1,1,NA,NA,NA,NA,NA,NA,NA,NA,NA,NA,NA,NA,NA,NA,NA,NA,NA,NA,NA,NA,NA,NA,NA,NA
"107","stim/objects/HouseObjects/vacuumcleaner2.png",191,14,191,0.9,"stim/23.jpeg",2,3,3,NA,"HouseObjects",1,1,"left","left",0.5,1,1,1,1,NA,NA,NA,NA,NA,NA,NA,NA,NA,NA,NA,NA,NA,NA,NA,NA,NA,NA,NA,NA,NA,NA,NA,NA
"133","stim/objects/Instruments/saxophone.png",192,14,192,0.5,"stim/32.jpeg",3,2,1,NA,"Instruments",2,4,"right","right",0.503999949,1,1,1,1,NA,NA,NA,NA,NA,NA,NA,NA,NA,NA,NA,NA,NA,NA,NA,NA,NA,NA,NA,NA,NA,NA,NA,NA
"10","stim/objects/HouseObjects/rug2.png",193,14,193,0.7,"stim/61.jpeg",6,1,2,NA,"HouseObjects",1,2,"left","left",0.566999912,1,1,1,1,NA,NA,NA,NA,NA,NA,NA,NA,NA,NA,NA,NA,NA,NA,NA,NA,NA,NA,NA,NA,NA,NA,NA,NA
"192","stim/objects/Instruments/trombone2.png",194,14,194,0.9,"stim/13.jpeg",1,3,3,NA,"Instruments",2,2,"right","right",0.492000103,1,1,1,1,NA,NA,NA,NA,NA,NA,NA,NA,NA,NA,NA,NA,NA,NA,NA,NA,NA,NA,NA,NA,NA,NA,NA,NA
"11","stim/objects/HouseObjects/rug2.png",195,14,195,0.7,"stim/61.jpeg",6,1,2,NA,"HouseObjects",1,1,"left","left",0.587999821,1,1,1,1,NA,NA,NA,NA,NA,NA,NA,NA,NA,NA,NA,NA,NA,NA,NA,NA,NA,NA,NA,NA,NA,NA,NA,NA
"34","stim/objects/HouseObjects/saw2.png",196,14,196,0.7,"stim/63.jpeg",6,3,2,NA,"HouseObjects",1,4,"left","right",0.483999968,0,0,1,1,NA,NA,NA,NA,NA,NA,NA,NA,NA,NA,NA,NA,NA,NA,NA,NA,NA,NA,NA,NA,NA,NA,NA,NA
"239","stim/objects/Instruments/xylophone.png",197,14,197,0.7,"stim/54.jpeg",5,4,2,NA,"Instruments",2,4,"right","right",0.559999943,1,1,1,1,NA,NA,NA,NA,NA,NA,NA,NA,NA,NA,NA,NA,NA,NA,NA,NA,NA,NA,NA,NA,NA,NA,NA,NA
"17","stim/objects/HouseObjects/safetypin.png",198,14,198,0.5,"stim/32.jpeg",3,2,1,NA,"HouseObjects",1,3,"left","left",0.529000044,1,1,1,1,NA,NA,NA,NA,NA,NA,NA,NA,NA,NA,NA,NA,NA,NA,NA,NA,NA,NA,NA,NA,NA,NA,NA,NA
"23","stim/objects/HouseObjects/safetypin2.png",199,14,199,0.7,"stim/62.jpeg",6,2,2,NA,"HouseObjects",1,3,"left","left",0.541999817,1,1,1,1,NA,NA,NA,NA,NA,NA,NA,NA,NA,NA,NA,NA,NA,NA,NA,NA,NA,NA,NA,NA,NA,NA,NA,NA
"87","stim/objects/HouseObjects/towel.png",200,14,200,0.3,"stim/52.jpeg",5,2,2,NA,"HouseObjects",1,2,"left","right",0.361999989,0,0,1,1,NA,NA,NA,NA,NA,NA,NA,NA,NA,NA,NA,NA,NA,NA,NA,NA,NA,NA,NA,NA,NA,NA,NA,NA
"215","stim/objects/Instruments/tuba.png",201,14,201,0.7,"stim/51.jpeg",5,1,2,NA,"Instruments",2,1,"right","right",0.376000166,1,1,1,1,NA,NA,NA,NA,NA,NA,NA,NA,NA,NA,NA,NA,NA,NA,NA,NA,NA,NA,NA,NA,NA,NA,NA,NA
"71","stim/objects/HouseObjects/thermometer.png",202,14,202,0.5,"stim/44.jpeg",4,4,1,NA,"HouseObjects",1,2,"left","right",0.354000092,0,0,1,1,NA,NA,NA,NA,NA,NA,NA,NA,NA,NA,NA,NA,NA,NA,NA,NA,NA,NA,NA,NA,NA,NA,NA,NA
"216","stim/objects/Instruments/tuba2.png",203,14,203,0.1,"stim/21.jpeg",2,1,3,NA,"Instruments",2,1,"right","left",0.536000013,0,0,1,1,NA,NA,NA,NA,NA,NA,NA,NA,NA,NA,NA,NA,NA,NA,NA,NA,NA,NA,NA,NA,NA,NA,NA,NA
"229","stim/objects/Instruments/vuvuzela.png",204,14,204,0.7,"stim/53.jpeg",5,3,2,NA,"Instruments",2,1,"right","right",0.513999939,1,1,1,1,NA,NA,NA,NA,NA,NA,NA,NA,NA,NA,NA,NA,NA,NA,NA,NA,NA,NA,NA,NA,NA,NA,NA,NA
"152","stim/objects/Instruments/tambourine2.png",205,14,205,0.3,"stim/64.jpeg",6,4,2,NA,"Instruments",2,4,"right","left",0.645999908,0,0,1,1,NA,NA,NA,NA,NA,NA,NA,NA,NA,NA,NA,NA,NA,NA,NA,NA,NA,NA,NA,NA,NA,NA,NA,NA
"156","stim/objects/Instruments/timbal.png",206,14,206,0.5,"stim/41.jpeg",4,1,1,NA,"Instruments",2,2,"right","right",0.496000051,1,1,1,1,NA,NA,NA,NA,NA,NA,NA,NA,NA,NA,NA,NA,NA,NA,NA,NA,NA,NA,NA,NA,NA,NA,NA,NA
"81","stim/objects/HouseObjects/thread2.png",207,14,207,0.9,"stim/21.jpeg",2,1,3,NA,"HouseObjects",1,2,"left","left",0.486000061,1,1,1,1,NA,NA,NA,NA,NA,NA,NA,NA,NA,NA,NA,NA,NA,NA,NA,NA,NA,NA,NA,NA,NA,NA,NA,NA
"193","stim/objects/Instruments/trombone2.png",208,14,208,0.9,"stim/13.jpeg",1,3,3,NA,"Instruments",2,4,"right","right",0.501000166,1,1,1,1,NA,NA,NA,NA,NA,NA,NA,NA,NA,NA,NA,NA,NA,NA,NA,NA,NA,NA,NA,NA,NA,NA,NA,NA
"205","stim/objects/Instruments/trumpet2.png",209,14,209,0.9,"stim/14.jpeg",1,4,3,NA,"Instruments",2,1,"right","right",0.609999895,1,1,1,1,NA,NA,NA,NA,NA,NA,NA,NA,NA,NA,NA,NA,NA,NA,NA,NA,NA,NA,NA,NA,NA,NA,NA,NA
"12","stim/objects/HouseObjects/rug2.png",210,14,210,0.7,"stim/61.jpeg",6,1,2,NA,"HouseObjects",1,3,"left","left",0.542000055,1,1,1,1,NA,NA,NA,NA,NA,NA,NA,NA,NA,NA,NA,NA,NA,NA,NA,NA,NA,NA,NA,NA,NA,NA,NA,NA
"35","stim/objects/HouseObjects/saw2.png",211,14,211,0.7,"stim/63.jpeg",6,3,2,NA,"HouseObjects",1,2,"left","right",0.516000032,0,0,1,1,NA,NA,NA,NA,NA,NA,NA,NA,NA,NA,NA,NA,NA,NA,NA,NA,NA,NA,NA,NA,NA,NA,NA,NA
"206","stim/objects/Instruments/trumpet2.png",212,14,212,0.9,"stim/14.jpeg",1,4,3,NA,"Instruments",2,1,"right","right",0.484999895,1,1,1,1,NA,NA,NA,NA,NA,NA,NA,NA,NA,NA,NA,NA,NA,NA,NA,NA,NA,NA,NA,NA,NA,NA,NA,NA
"82","stim/objects/HouseObjects/thread2.png",213,14,213,0.9,"stim/21.jpeg",2,1,3,NA,"HouseObjects",1,2,"left","left",0.493000031,1,1,1,1,NA,NA,NA,NA,NA,NA,NA,NA,NA,NA,NA,NA,NA,NA,NA,NA,NA,NA,NA,NA,NA,NA,NA,NA
"46","stim/objects/HouseObjects/scale2.png",214,14,214,0.7,"stim/64.jpeg",6,4,2,NA,"HouseObjects",1,2,"left","left",0.667999983,1,1,1,1,NA,NA,NA,NA,NA,NA,NA,NA,NA,NA,NA,NA,NA,NA,NA,NA,NA,NA,NA,NA,NA,NA,NA,NA
"230","stim/objects/Instruments/vuvuzela.png",215,14,215,0.7,"stim/53.jpeg",5,3,2,NA,"Instruments",2,2,"right","right",0.440000057,1,1,1,1,NA,NA,NA,NA,NA,NA,NA,NA,NA,NA,NA,NA,NA,NA,NA,NA,NA,NA,NA,NA,NA,NA,NA,NA
"47","stim/objects/HouseObjects/scale2.png",216,14,216,0.7,"stim/64.jpeg",6,4,2,NA,"HouseObjects",1,4,"left","left",0.640000105,1,1,1,1,NA,NA,NA,NA,NA,NA,NA,NA,NA,NA,NA,NA,NA,NA,NA,NA,NA,NA,NA,NA,NA,NA,NA,NA
"95","stim/objects/HouseObjects/towel2.png",217,14,217,0.9,"stim/22.jpeg",2,2,3,NA,"HouseObjects",1,3,"left","left",0.559999943,1,1,1,1,NA,NA,NA,NA,NA,NA,NA,NA,NA,NA,NA,NA,NA,NA,NA,NA,NA,NA,NA,NA,NA,NA,NA,NA
"75","stim/objects/HouseObjects/thread.png",218,14,218,0.3,"stim/51.jpeg",5,1,2,NA,"HouseObjects",1,1,"left","right",0.437999964,0,0,1,1,NA,NA,NA,NA,NA,NA,NA,NA,NA,NA,NA,NA,NA,NA,NA,NA,NA,NA,NA,NA,NA,NA,NA,NA
"36","stim/objects/HouseObjects/saw2.png",219,14,219,0.7,"stim/63.jpeg",6,3,2,NA,"HouseObjects",1,3,"left","left",0.487999916,1,1,1,1,NA,NA,NA,NA,NA,NA,NA,NA,NA,NA,NA,NA,NA,NA,NA,NA,NA,NA,NA,NA,NA,NA,NA,NA
"207","stim/objects/Instruments/trumpet2.png",220,14,220,0.9,"stim/14.jpeg",1,4,3,NA,"Instruments",2,2,"right","right",0.600999832,1,1,1,1,NA,NA,NA,NA,NA,NA,NA,NA,NA,NA,NA,NA,NA,NA,NA,NA,NA,NA,NA,NA,NA,NA,NA,NA
"83","stim/objects/HouseObjects/thread2.png",221,14,221,0.9,"stim/21.jpeg",2,1,3,NA,"HouseObjects",1,4,"left","left",0.531000137,1,1,1,1,NA,NA,NA,NA,NA,NA,NA,NA,NA,NA,NA,NA,NA,NA,NA,NA,NA,NA,NA,NA,NA,NA,NA,NA
"84","stim/objects/HouseObjects/thread2.png",222,14,222,0.9,"stim/21.jpeg",2,1,3,NA,"HouseObjects",1,2,"left","left",0.508999825,1,1,1,1,NA,NA,NA,NA,NA,NA,NA,NA,NA,NA,NA,NA,NA,NA,NA,NA,NA,NA,NA,NA,NA,NA,NA,NA
"180","stim/objects/Instruments/triangle2.png",223,14,223,0.9,"stim/12.jpeg",1,2,3,NA,"Instruments",2,1,"right","right",0.545000076,1,1,1,1,NA,NA,NA,NA,NA,NA,NA,NA,NA,NA,NA,NA,NA,NA,NA,NA,NA,NA,NA,NA,NA,NA,NA,NA
"120","stim/objects/HouseObjects/wateringcan2.png",224,14,224,0.9,"stim/24.jpeg",2,4,3,NA,"HouseObjects",1,3,"left","right",0.5,0,0,1,1,NA,NA,NA,NA,NA,NA,NA,NA,NA,NA,NA,NA,NA,NA,NA,NA,NA,NA,NA,NA,NA,NA,NA,NA
"108","stim/objects/HouseObjects/vacuumcleaner2.png",225,14,225,0.9,"stim/23.jpeg",2,3,3,NA,"HouseObjects",1,4,"left","left",0.417999983,1,1,1,1,NA,NA,NA,NA,NA,NA,NA,NA,NA,NA,NA,NA,NA,NA,NA,NA,NA,NA,NA,NA,NA,NA,NA,NA
"4","stim/objects/HouseObjects/rug.png",226,14,226,0.5,"stim/31.jpeg",3,1,1,NA,"HouseObjects",1,2,"left","right",0.610000134,0,0,1,1,NA,NA,NA,NA,NA,NA,NA,NA,NA,NA,NA,NA,NA,NA,NA,NA,NA,NA,NA,NA,NA,NA,NA,NA
"231","stim/objects/Instruments/vuvuzela.png",227,14,227,0.7,"stim/53.jpeg",5,3,2,NA,"Instruments",2,4,"right","right",0.52699995,1,1,1,1,NA,NA,NA,NA,NA,NA,NA,NA,NA,NA,NA,NA,NA,NA,NA,NA,NA,NA,NA,NA,NA,NA,NA,NA
"48","stim/objects/HouseObjects/scale2.png",228,14,228,0.7,"stim/64.jpeg",6,4,2,NA,"HouseObjects",1,4,"left","left",0.605999947,1,1,1,1,NA,NA,NA,NA,NA,NA,NA,NA,NA,NA,NA,NA,NA,NA,NA,NA,NA,NA,NA,NA,NA,NA,NA,NA
"157","stim/objects/Instruments/timbal.png",229,14,229,0.5,"stim/41.jpeg",4,1,1,NA,"Instruments",2,2,"right","right",0.485000134,1,1,1,1,NA,NA,NA,NA,NA,NA,NA,NA,NA,NA,NA,NA,NA,NA,NA,NA,NA,NA,NA,NA,NA,NA,NA,NA
"29","stim/objects/HouseObjects/saw.png",230,14,230,0.5,"stim/33.jpeg",3,3,1,NA,"HouseObjects",1,3,"left","right",0.57400012,0,0,1,1,NA,NA,NA,NA,NA,NA,NA,NA,NA,NA,NA,NA,NA,NA,NA,NA,NA,NA,NA,NA,NA,NA,NA,NA
"166","stim/objects/Instruments/timbal2.png",231,14,231,0.9,"stim/11.jpeg",1,1,3,NA,"Instruments",2,2,"right","left",0.519999981,0,0,1,1,NA,NA,NA,NA,NA,NA,NA,NA,NA,NA,NA,NA,NA,NA,NA,NA,NA,NA,NA,NA,NA,NA,NA,NA
"208","stim/objects/Instruments/trumpet2.png",232,14,232,0.9,"stim/14.jpeg",1,4,3,NA,"Instruments",2,4,"right","right",0.450999975,1,1,1,1,NA,NA,NA,NA,NA,NA,NA,NA,NA,NA,NA,NA,NA,NA,NA,NA,NA,NA,NA,NA,NA,NA,NA,NA
"111","stim/objects/HouseObjects/wateringcan.png",233,14,233,0.3,"stim/54.jpeg",5,4,2,NA,"HouseObjects",1,3,"left","right",0.607000113,0,0,1,1,NA,NA,NA,NA,NA,NA,NA,NA,NA,NA,NA,NA,NA,NA,NA,NA,NA,NA,NA,NA,NA,NA,NA,NA
"99","stim/objects/HouseObjects/vacuumcleaner.png",234,14,234,0.3,"stim/53.jpeg",5,3,2,NA,"HouseObjects",1,3,"left","right",0.385999918,0,0,1,1,NA,NA,NA,NA,NA,NA,NA,NA,NA,NA,NA,NA,NA,NA,NA,NA,NA,NA,NA,NA,NA,NA,NA,NA
"194","stim/objects/Instruments/trombone2.png",235,14,235,0.9,"stim/13.jpeg",1,3,3,NA,"Instruments",2,3,"right","right",0.417000055,1,1,1,1,NA,NA,NA,NA,NA,NA,NA,NA,NA,NA,NA,NA,NA,NA,NA,NA,NA,NA,NA,NA,NA,NA,NA,NA
"5","stim/objects/HouseObjects/rug.png",236,14,236,0.5,"stim/31.jpeg",3,1,1,NA,"HouseObjects",1,3,"left","right",0.40199995,0,0,1,1,NA,NA,NA,NA,NA,NA,NA,NA,NA,NA,NA,NA,NA,NA,NA,NA,NA,NA,NA,NA,NA,NA,NA,NA
"223","stim/objects/Instruments/violin.png",237,14,237,0.7,"stim/52.jpeg",5,2,2,NA,"Instruments",2,4,"right","right",0.368000031,1,1,1,1,NA,NA,NA,NA,NA,NA,NA,NA,NA,NA,NA,NA,NA,NA,NA,NA,NA,NA,NA,NA,NA,NA,NA,NA
"199","stim/objects/Instruments/trumpet.png",238,14,238,0.5,"stim/44.jpeg",4,4,1,NA,"Instruments",2,1,"right","right",0.468000174,1,1,1,1,NA,NA,NA,NA,NA,NA,NA,NA,NA,NA,NA,NA,NA,NA,NA,NA,NA,NA,NA,NA,NA,NA,NA,NA
"96","stim/objects/HouseObjects/towel2.png",239,14,239,0.9,"stim/22.jpeg",2,2,3,NA,"HouseObjects",1,1,"left","right",0.582000017,0,0,1,1,NA,NA,NA,NA,NA,NA,NA,NA,NA,NA,NA,NA,NA,NA,NA,NA,NA,NA,NA,NA,NA,NA,NA,NA
"24","stim/objects/HouseObjects/safetypin2.png",240,14,240,0.7,"stim/62.jpeg",6,2,2,NA,"HouseObjects",1,4,"left","left",0.697999954,1,1,1,1,NA,NA,NA,NA,NA,NA,NA,NA,NA,NA,NA,NA,NA,NA,NA,NA,NA,NA,NA,NA,NA,NA,NA,NA
"507","stim/objects/Instruments/gong.png",248,14,241,0.9,"stim/14.jpeg",1,4,3,2,"Instruments",2,4,"right","right",0.861000061,1,1,1,0,NA,NA,NA,NA,NA,NA,NA,NA,NA,NA,NA,NA,NA,NA,NA,NA,NA,NA,NA,NA,NA,NA,NA,NA
"566","stim/objects/Instruments/panflute2.png",249,14,242,0.1,"stim/22.jpeg",2,2,3,1,"Instruments",2,1,"right","left",0.672999859,0,0,1,0,177,14,1,0.1,2,"stim/22.jpeg",2,2,"stim/22.jpeg",1,"right",0.905999899,2,2,2.177000046,3,0.875,177,0,1,NA,0,NA,1
"270","stim/objects/HouseObjects/clock2.png",250,14,243,0.7,"stim/64.jpeg",6,4,2,1,"HouseObjects",1,1,"left","right",0.645999908,0,0,1,0,176,14,1,0.7,1,"stim/64.jpeg",6,4,"stim/64.jpeg",1,"left",0.888999939,3,2,1.496999979,1,2.585999966,176,1,0,0,1,1,1
"411","stim/objects/Instruments/acousticguitar2.png",251,14,244,0.7,"stim/54.jpeg",5,4,2,1,"Instruments",2,1,"right","right",0.639999866,1,1,1,0,197,14,1,0.7,2,"stim/54.jpeg",5,4,"stim/54.jpeg",1,"right",1.120999813,2,3,1.535999775,1,0.933000088,197,0,0,NA,1,NA,1
"427","stim/objects/Instruments/chime.png",252,14,245,0.5,"stim/41.jpeg",4,1,1,2,"Instruments",2,2,"right","right",0.704999924,1,1,1,0,NA,NA,NA,NA,NA,NA,NA,NA,NA,NA,NA,NA,NA,NA,NA,NA,NA,NA,NA,NA,NA,NA,NA,NA
"404","stim/objects/HouseObjects/rubbergloves.png",253,14,246,0.3,"stim/51.jpeg",5,1,2,1,"HouseObjects",1,1,"left","right",0.566999912,0,0,1,0,21,14,1,0.3,1,"stim/51.jpeg",5,1,"stim/51.jpeg",1,"left",0.926000118,4,2,2.63499999,2,2.505000114,21,1,0,0,0,0,1
"489","stim/objects/Instruments/flutetrans2.png",254,14,247,0.9,"stim/14.jpeg",1,4,3,1,"Instruments",2,4,"right","right",0.630999804,1,1,1,0,22,14,1,0.9,2,"stim/14.jpeg",1,4,"stim/14.jpeg",4,"left",2.244000196,4,1,4.009000063,1,2.284000158,22,1,0,0,0,0,1
"490","stim/objects/Instruments/frenchhorn.png",255,14,248,0.9,"stim/12.jpeg",1,2,3,2,"Instruments",2,3,"right","right",0.78000021,1,1,1,0,NA,NA,NA,NA,NA,NA,NA,NA,NA,NA,NA,NA,NA,NA,NA,NA,NA,NA,NA,NA,NA,NA,NA,NA
"549","stim/objects/Instruments/keyboard.png",256,14,249,0.5,"stim/32.jpeg",3,2,1,1,"Instruments",2,2,"right","right",0.440000057,1,1,1,0,55,14,1,0.5,1,"stim/32.jpeg",3,2,"stim/32.jpeg",2,"left",1.263000011,4,1,3.210999966,2,1.309000015,55,1,0,0,1,1,1
"307","stim/objects/HouseObjects/doormat2.png",257,14,250,0.1,"stim/11.jpeg",1,1,3,1,"HouseObjects",1,4,"left","right",0.467999935,0,0,1,0,149,14,1,0.1,1,"stim/11.jpeg",1,1,"stim/11.jpeg",4,"left",0.812000036,4,4,2.530999899,4,1.846999884,149,1,0,0,1,1,1
"550","stim/objects/Instruments/keyboard2.png",258,14,251,0.9,"stim/14.jpeg",1,4,3,1,"Instruments",2,2,"right","right",0.477999926,1,1,1,0,91,14,1,0.9,2,"stim/14.jpeg",1,4,"stim/14.jpeg",2,"left",1.476999998,4,3,1.114000082,2,1.671000004,91,1,0,0,1,1,1
"309","stim/objects/HouseObjects/dustpan.png",259,14,252,0.9,"stim/22.jpeg",2,2,3,2,"HouseObjects",1,1,"left","left",0.447999954,1,1,1,0,NA,NA,NA,NA,NA,NA,NA,NA,NA,NA,NA,NA,NA,NA,NA,NA,NA,NA,NA,NA,NA,NA,NA,NA
"257","stim/objects/HouseObjects/blender.png",260,14,253,0.5,"stim/44.jpeg",4,4,1,2,"HouseObjects",1,2,"left","right",0.496999979,0,0,1,0,NA,NA,NA,NA,NA,NA,NA,NA,NA,NA,NA,NA,NA,NA,NA,NA,NA,NA,NA,NA,NA,NA,NA,NA
"457","stim/objects/Instruments/flute.png",261,14,254,0.9,"stim/14.jpeg",1,4,3,2,"Instruments",2,4,"right","right",0.417999983,1,1,1,0,NA,NA,NA,NA,NA,NA,NA,NA,NA,NA,NA,NA,NA,NA,NA,NA,NA,NA,NA,NA,NA,NA,NA,NA
"458","stim/objects/Instruments/flute.png",262,14,255,0.9,"stim/14.jpeg",1,4,3,2,"Instruments",2,4,"right","right",0.377000093,1,1,1,0,NA,NA,NA,NA,NA,NA,NA,NA,NA,NA,NA,NA,NA,NA,NA,NA,NA,NA,NA,NA,NA,NA,NA,NA
"359","stim/objects/HouseObjects/glass.png",263,14,256,0.9,"stim/21.jpeg",2,1,3,2,"HouseObjects",1,1,"left","left",0.531000137,1,1,1,0,NA,NA,NA,NA,NA,NA,NA,NA,NA,NA,NA,NA,NA,NA,NA,NA,NA,NA,NA,NA,NA,NA,NA,NA
"459","stim/objects/Instruments/flute.png",264,14,257,0.9,"stim/12.jpeg",1,2,3,2,"Instruments",2,2,"right","right",0.565999985,1,1,1,0,NA,NA,NA,NA,NA,NA,NA,NA,NA,NA,NA,NA,NA,NA,NA,NA,NA,NA,NA,NA,NA,NA,NA,NA
"253","stim/objects/HouseObjects/bleachbottle.png",265,14,258,0.5,"stim/32.jpeg",3,2,1,2,"HouseObjects",1,3,"left","right",0.57400012,0,0,1,0,NA,NA,NA,NA,NA,NA,NA,NA,NA,NA,NA,NA,NA,NA,NA,NA,NA,NA,NA,NA,NA,NA,NA,NA
"510","stim/objects/Instruments/gong.png",266,14,259,0.9,"stim/12.jpeg",1,2,3,2,"Instruments",2,2,"right","right",0.51699996,1,1,1,0,NA,NA,NA,NA,NA,NA,NA,NA,NA,NA,NA,NA,NA,NA,NA,NA,NA,NA,NA,NA,NA,NA,NA,NA
"310","stim/objects/HouseObjects/dustpan.png",267,14,260,0.9,"stim/24.jpeg",2,4,3,2,"HouseObjects",1,1,"left","left",0.503999949,1,1,1,0,NA,NA,NA,NA,NA,NA,NA,NA,NA,NA,NA,NA,NA,NA,NA,NA,NA,NA,NA,NA,NA,NA,NA,NA
"568","stim/objects/Instruments/pipepiano2.png",268,14,261,0.1,"stim/23.jpeg",2,3,3,1,"Instruments",2,3,"right","left",0.474999905,0,0,1,0,32,14,1,0.1,2,"stim/23.jpeg",2,3,"stim/23.jpeg",3,"left",1.344000101,4,3,2.020999908,4,1.203999996,32,1,1,1,0,0,1
"460","stim/objects/Instruments/flute.png",269,14,262,0.9,"stim/11.jpeg",1,1,3,2,"Instruments",2,4,"right","right",0.424999952,1,1,1,0,NA,NA,NA,NA,NA,NA,NA,NA,NA,NA,NA,NA,NA,NA,NA,NA,NA,NA,NA,NA,NA,NA,NA,NA
"474","stim/objects/Instruments/flutetrans.png",270,14,263,0.9,"stim/11.jpeg",1,1,3,2,"Instruments",2,2,"right","right",0.426000118,1,1,1,0,NA,NA,NA,NA,NA,NA,NA,NA,NA,NA,NA,NA,NA,NA,NA,NA,NA,NA,NA,NA,NA,NA,NA,NA
"342","stim/objects/HouseObjects/garbagebin.png",271,14,264,0.9,"stim/23.jpeg",2,3,3,2,"HouseObjects",1,1,"left","left",0.51699996,1,1,1,0,NA,NA,NA,NA,NA,NA,NA,NA,NA,NA,NA,NA,NA,NA,NA,NA,NA,NA,NA,NA,NA,NA,NA,NA
"343","stim/objects/HouseObjects/garbagebin.png",272,14,265,0.9,"stim/22.jpeg",2,2,3,2,"HouseObjects",1,2,"left","left",0.459000111,1,1,1,0,NA,NA,NA,NA,NA,NA,NA,NA,NA,NA,NA,NA,NA,NA,NA,NA,NA,NA,NA,NA,NA,NA,NA,NA
"444","stim/objects/Instruments/drums.png",273,14,266,0.7,"stim/51.jpeg",5,1,2,2,"Instruments",2,2,"right","right",0.398999929,1,1,1,0,NA,NA,NA,NA,NA,NA,NA,NA,NA,NA,NA,NA,NA,NA,NA,NA,NA,NA,NA,NA,NA,NA,NA,NA
"271","stim/objects/HouseObjects/clothesdryingrack.png",274,14,267,0.7,"stim/63.jpeg",6,3,2,2,"HouseObjects",1,2,"left","left",0.644000053,1,1,1,0,NA,NA,NA,NA,NA,NA,NA,NA,NA,NA,NA,NA,NA,NA,NA,NA,NA,NA,NA,NA,NA,NA,NA,NA
"475","stim/objects/Instruments/flutetrans.png",275,14,268,0.9,"stim/13.jpeg",1,3,3,2,"Instruments",2,2,"right","right",0.468000174,1,1,1,0,NA,NA,NA,NA,NA,NA,NA,NA,NA,NA,NA,NA,NA,NA,NA,NA,NA,NA,NA,NA,NA,NA,NA,NA
"360","stim/objects/HouseObjects/glass.png",276,14,269,0.9,"stim/22.jpeg",2,2,3,2,"HouseObjects",1,4,"left","left",0.398000002,1,1,1,0,NA,NA,NA,NA,NA,NA,NA,NA,NA,NA,NA,NA,NA,NA,NA,NA,NA,NA,NA,NA,NA,NA,NA,NA
"272","stim/objects/HouseObjects/clothesdryingrack.png",277,14,270,0.7,"stim/61.jpeg",6,1,2,2,"HouseObjects",1,2,"left","right",0.373999834,0,0,1,0,NA,NA,NA,NA,NA,NA,NA,NA,NA,NA,NA,NA,NA,NA,NA,NA,NA,NA,NA,NA,NA,NA,NA,NA
"325","stim/objects/HouseObjects/flyswatter.png",278,14,271,0.9,"stim/21.jpeg",2,1,3,2,"HouseObjects",1,3,"left","left",0.551000118,1,1,1,0,NA,NA,NA,NA,NA,NA,NA,NA,NA,NA,NA,NA,NA,NA,NA,NA,NA,NA,NA,NA,NA,NA,NA,NA
"524","stim/objects/Instruments/grandpiano.png",279,14,272,0.9,"stim/11.jpeg",1,1,3,2,"Instruments",2,3,"right","right",0.599000216,1,1,1,0,NA,NA,NA,NA,NA,NA,NA,NA,NA,NA,NA,NA,NA,NA,NA,NA,NA,NA,NA,NA,NA,NA,NA,NA
"250","stim/objects/HouseObjects/basket.png",280,14,273,0.5,"stim/31.jpeg",3,1,1,2,"HouseObjects",1,3,"left","left",0.711999893,1,1,1,0,NA,NA,NA,NA,NA,NA,NA,NA,NA,NA,NA,NA,NA,NA,NA,NA,NA,NA,NA,NA,NA,NA,NA,NA
"461","stim/objects/Instruments/flute.png",281,14,274,0.9,"stim/11.jpeg",1,1,3,2,"Instruments",2,2,"right","right",0.528000116,1,1,1,0,NA,NA,NA,NA,NA,NA,NA,NA,NA,NA,NA,NA,NA,NA,NA,NA,NA,NA,NA,NA,NA,NA,NA,NA
"525","stim/objects/Instruments/grandpiano.png",282,14,275,0.9,"stim/12.jpeg",1,2,3,2,"Instruments",2,4,"right","right",0.480999947,1,1,1,0,NA,NA,NA,NA,NA,NA,NA,NA,NA,NA,NA,NA,NA,NA,NA,NA,NA,NA,NA,NA,NA,NA,NA,NA
"292","stim/objects/HouseObjects/doormat.png",283,14,276,0.9,"stim/24.jpeg",2,4,3,2,"HouseObjects",1,3,"left","left",0.484999895,1,1,1,0,NA,NA,NA,NA,NA,NA,NA,NA,NA,NA,NA,NA,NA,NA,NA,NA,NA,NA,NA,NA,NA,NA,NA,NA
"265","stim/objects/HouseObjects/bucket.png",284,14,277,0.5,"stim/42.jpeg",4,2,1,2,"HouseObjects",1,4,"left","right",0.417999983,0,0,1,0,NA,NA,NA,NA,NA,NA,NA,NA,NA,NA,NA,NA,NA,NA,NA,NA,NA,NA,NA,NA,NA,NA,NA,NA
"491","stim/objects/Instruments/frenchhorn.png",285,14,278,0.9,"stim/13.jpeg",1,3,3,2,"Instruments",2,2,"right","right",0.454999924,1,1,1,0,NA,NA,NA,NA,NA,NA,NA,NA,NA,NA,NA,NA,NA,NA,NA,NA,NA,NA,NA,NA,NA,NA,NA,NA
"393","stim/objects/HouseObjects/lintroller2.png",286,14,279,0.9,"stim/24.jpeg",2,4,3,1,"HouseObjects",1,4,"left","right",0.394999981,0,0,1,0,101,14,1,0.9,1,"stim/24.jpeg",2,4,"stim/24.jpeg",4,"right",0.839999914,2,3,1.174000025,4,1.222000122,101,0,0,NA,1,NA,1
"396","stim/objects/HouseObjects/pan.png",287,14,280,0.3,"stim/51.jpeg",5,1,2,1,"HouseObjects",1,4,"left","right",0.693000078,0,0,1,0,46,14,1,0.3,1,"stim/51.jpeg",5,1,"stim/51.jpeg",4,"right",0.737999916,4,4,1.335999966,4,0.601999998,46,0,0,NA,1,NA,1
"326","stim/objects/HouseObjects/flyswatter.png",288,14,281,0.9,"stim/23.jpeg",2,3,3,2,"HouseObjects",1,1,"left","left",0.421000004,1,1,1,0,NA,NA,NA,NA,NA,NA,NA,NA,NA,NA,NA,NA,NA,NA,NA,NA,NA,NA,NA,NA,NA,NA,NA,NA
"268","stim/objects/HouseObjects/clock.png",289,14,282,0.5,"stim/44.jpeg",4,4,1,2,"HouseObjects",1,1,"left","right",0.394000053,0,0,1,0,NA,NA,NA,NA,NA,NA,NA,NA,NA,NA,NA,NA,NA,NA,NA,NA,NA,NA,NA,NA,NA,NA,NA,NA
"570","stim/objects/Instruments/record2.png",290,14,283,0.1,"stim/24.jpeg",2,4,3,1,"Instruments",2,3,"right","left",0.476000071,0,0,1,0,11,14,1,0.1,2,"stim/24.jpeg",2,4,"stim/24.jpeg",3,"left",2.003999949,4,3,2.697000027,4,1.452000141,11,1,0,0,0,0,1
"526","stim/objects/Instruments/grandpiano.png",291,14,284,0.9,"stim/12.jpeg",1,2,3,2,"Instruments",2,2,"right","right",0.552999973,1,1,1,0,NA,NA,NA,NA,NA,NA,NA,NA,NA,NA,NA,NA,NA,NA,NA,NA,NA,NA,NA,NA,NA,NA,NA,NA
"420","stim/objects/Instruments/bassdrum2.png",292,14,285,0.7,"stim/53.jpeg",5,3,2,1,"Instruments",2,2,"right","right",0.485000134,1,1,1,0,97,14,1,0.7,2,"stim/53.jpeg",5,3,"stim/53.jpeg",2,"left",1.407999992,4,4,2.253000021,2,2.044999838,97,1,0,0,1,1,1
"266","stim/objects/HouseObjects/bucket.png",293,14,286,0.5,"stim/43.jpeg",4,3,1,2,"HouseObjects",1,3,"left","left",0.417999983,1,1,1,0,NA,NA,NA,NA,NA,NA,NA,NA,NA,NA,NA,NA,NA,NA,NA,NA,NA,NA,NA,NA,NA,NA,NA,NA
"477","stim/objects/Instruments/flutetrans.png",294,14,287,0.9,"stim/13.jpeg",1,3,3,2,"Instruments",2,4,"right","right",0.40199995,1,1,1,0,NA,NA,NA,NA,NA,NA,NA,NA,NA,NA,NA,NA,NA,NA,NA,NA,NA,NA,NA,NA,NA,NA,NA,NA
"264","stim/objects/HouseObjects/broom2.png",295,14,288,0.7,"stim/62.jpeg",6,2,2,1,"HouseObjects",1,2,"left","left",0.657999992,1,1,1,0,169,14,1,0.7,1,"stim/62.jpeg",6,2,"stim/62.jpeg",2,"right",0.796000004,2,2,0.842000008,2,0.440000057,169,0,1,NA,1,NA,1
"559","stim/objects/Instruments/musicsheet.png",296,14,289,0.5,"stim/44.jpeg",4,4,1,1,"Instruments",2,2,"right","left",0.730999947,0,0,1,0,180,14,1,0.5,2,"stim/44.jpeg",4,4,"stim/44.jpeg",2,"left",5.288000107,3,1,1.470999956,1,1.503000021,180,1,0,0,0,0,1
"567","stim/objects/Instruments/pipepiano.png",297,14,290,0.7,"stim/51.jpeg",5,1,2,1,"Instruments",2,4,"right","right",0.445999861,1,1,1,0,127,14,1,0.7,2,"stim/51.jpeg",5,1,"stim/51.jpeg",4,"left",1.296000004,4,4,3.261999846,3,2.455999851,127,1,0,0,0,0,1
"433","stim/objects/Instruments/cornet.png",298,14,291,0.5,"stim/42.jpeg",4,2,1,2,"Instruments",2,3,"right","right",0.815999985,1,1,1,0,NA,NA,NA,NA,NA,NA,NA,NA,NA,NA,NA,NA,NA,NA,NA,NA,NA,NA,NA,NA,NA,NA,NA,NA
"262","stim/objects/HouseObjects/broom.png",299,14,292,0.5,"stim/42.jpeg",4,2,1,2,"HouseObjects",1,1,"left","right",0.486999989,0,0,1,0,NA,NA,NA,NA,NA,NA,NA,NA,NA,NA,NA,NA,NA,NA,NA,NA,NA,NA,NA,NA,NA,NA,NA,NA
"311","stim/objects/HouseObjects/dustpan.png",300,14,293,0.9,"stim/22.jpeg",2,2,3,2,"HouseObjects",1,1,"left","left",0.516000032,1,1,1,0,NA,NA,NA,NA,NA,NA,NA,NA,NA,NA,NA,NA,NA,NA,NA,NA,NA,NA,NA,NA,NA,NA,NA,NA
"361","stim/objects/HouseObjects/glass.png",301,14,294,0.9,"stim/24.jpeg",2,4,3,2,"HouseObjects",1,1,"left","left",0.472999811,1,1,1,0,NA,NA,NA,NA,NA,NA,NA,NA,NA,NA,NA,NA,NA,NA,NA,NA,NA,NA,NA,NA,NA,NA,NA,NA
"312","stim/objects/HouseObjects/dustpan.png",302,14,295,0.9,"stim/21.jpeg",2,1,3,2,"HouseObjects",1,2,"left","left",0.445999861,1,1,1,0,NA,NA,NA,NA,NA,NA,NA,NA,NA,NA,NA,NA,NA,NA,NA,NA,NA,NA,NA,NA,NA,NA,NA,NA
"327","stim/objects/HouseObjects/flyswatter.png",303,14,296,0.9,"stim/24.jpeg",2,4,3,2,"HouseObjects",1,4,"left","left",0.445000172,1,1,1,0,NA,NA,NA,NA,NA,NA,NA,NA,NA,NA,NA,NA,NA,NA,NA,NA,NA,NA,NA,NA,NA,NA,NA,NA
"328","stim/objects/HouseObjects/flyswatter.png",304,14,297,0.9,"stim/22.jpeg",2,2,3,2,"HouseObjects",1,2,"left","left",0.45299983,1,1,1,0,NA,NA,NA,NA,NA,NA,NA,NA,NA,NA,NA,NA,NA,NA,NA,NA,NA,NA,NA,NA,NA,NA,NA,NA
"514","stim/objects/Instruments/gong.png",305,14,298,0.9,"stim/12.jpeg",1,2,3,2,"Instruments",2,1,"right","right",0.55700016,1,1,1,0,NA,NA,NA,NA,NA,NA,NA,NA,NA,NA,NA,NA,NA,NA,NA,NA,NA,NA,NA,NA,NA,NA,NA,NA
"400","stim/objects/HouseObjects/recyclingbin.png",306,14,299,0.3,"stim/53.jpeg",5,3,2,1,"HouseObjects",1,1,"left","right",0.482000113,0,0,1,0,39,14,1,0.3,1,"stim/53.jpeg",5,3,"stim/53.jpeg",1,"right",1.63499999,2,4,1.506999969,4,0.861999989,39,0,0,NA,0,NA,1
"344","stim/objects/HouseObjects/garbagebin.png",307,14,300,0.9,"stim/23.jpeg",2,3,3,2,"HouseObjects",1,3,"left","left",0.434000015,1,1,1,0,NA,NA,NA,NA,NA,NA,NA,NA,NA,NA,NA,NA,NA,NA,NA,NA,NA,NA,NA,NA,NA,NA,NA,NA
"345","stim/objects/HouseObjects/garbagebin.png",308,14,301,0.9,"stim/23.jpeg",2,3,3,2,"HouseObjects",1,2,"left","left",0.422999859,1,1,1,0,NA,NA,NA,NA,NA,NA,NA,NA,NA,NA,NA,NA,NA,NA,NA,NA,NA,NA,NA,NA,NA,NA,NA,NA
"492","stim/objects/Instruments/frenchhorn.png",309,14,302,0.9,"stim/13.jpeg",1,3,3,2,"Instruments",2,1,"right","right",0.569000006,1,1,1,0,NA,NA,NA,NA,NA,NA,NA,NA,NA,NA,NA,NA,NA,NA,NA,NA,NA,NA,NA,NA,NA,NA,NA,NA
"401","stim/objects/HouseObjects/recyclingbin2.png",310,14,303,0.9,"stim/24.jpeg",2,4,3,1,"HouseObjects",1,1,"left","left",0.513000011,1,1,1,0,123,14,1,0.9,1,"stim/24.jpeg",2,4,"stim/24.jpeg",1,"left",1.569000006,2,3,1.595999956,1,1.889999866,123,1,0,0,1,1,1
"434","stim/objects/Instruments/cornet.png",311,14,304,0.5,"stim/43.jpeg",4,3,1,2,"Instruments",2,4,"right","right",0.480000019,1,1,1,0,NA,NA,NA,NA,NA,NA,NA,NA,NA,NA,NA,NA,NA,NA,NA,NA,NA,NA,NA,NA,NA,NA,NA,NA
"562","stim/objects/Instruments/musicstand2.png",312,14,305,0.1,"stim/24.jpeg",2,4,3,1,"Instruments",2,3,"right","left",0.547999859,0,0,1,0,3,14,1,0.1,2,"stim/24.jpeg",2,4,"stim/24.jpeg",3,"right",3.875,2,3,7.52699995,4,1.792999983,3,0,0,NA,0,NA,1
"329","stim/objects/HouseObjects/flyswatter.png",313,14,306,0.9,"stim/23.jpeg",2,3,3,2,"HouseObjects",1,3,"left","left",0.421999931,1,1,1,0,NA,NA,NA,NA,NA,NA,NA,NA,NA,NA,NA,NA,NA,NA,NA,NA,NA,NA,NA,NA,NA,NA,NA,NA
"565","stim/objects/Instruments/panflute.png",314,14,307,0.7,"stim/54.jpeg",5,4,2,1,"Instruments",2,4,"right","right",0.351999998,1,1,1,0,170,14,1,0.7,2,"stim/54.jpeg",5,4,"stim/54.jpeg",4,"right",0.698000193,2,2,0.558000088,3,0.535000086,170,0,0,NA,0,NA,1
"259","stim/objects/HouseObjects/bottle.png",315,14,308,0.5,"stim/41.jpeg",4,1,1,2,"HouseObjects",1,2,"left","right",0.462000132,0,0,1,0,NA,NA,NA,NA,NA,NA,NA,NA,NA,NA,NA,NA,NA,NA,NA,NA,NA,NA,NA,NA,NA,NA,NA,NA
"330","stim/objects/HouseObjects/flyswatter.png",316,14,309,0.9,"stim/23.jpeg",2,3,3,2,"HouseObjects",1,4,"left","left",0.657999992,1,1,1,0,NA,NA,NA,NA,NA,NA,NA,NA,NA,NA,NA,NA,NA,NA,NA,NA,NA,NA,NA,NA,NA,NA,NA,NA
"244","stim/objects/HouseObjects/ballofstring.png",317,14,310,0.5,"stim/32.jpeg",3,2,1,2,"HouseObjects",1,3,"left","right",0.552000046,0,0,1,0,NA,NA,NA,NA,NA,NA,NA,NA,NA,NA,NA,NA,NA,NA,NA,NA,NA,NA,NA,NA,NA,NA,NA,NA
"346","stim/objects/HouseObjects/garbagebin.png",318,14,311,0.9,"stim/21.jpeg",2,1,3,2,"HouseObjects",1,3,"left","left",0.513000011,1,1,1,0,NA,NA,NA,NA,NA,NA,NA,NA,NA,NA,NA,NA,NA,NA,NA,NA,NA,NA,NA,NA,NA,NA,NA,NA
"408","stim/objects/Instruments/accordion2.png",319,14,312,0.7,"stim/53.jpeg",5,3,2,1,"Instruments",2,4,"right","right",0.385999918,1,1,1,0,179,14,1,0.7,2,"stim/53.jpeg",5,3,"stim/53.jpeg",4,"right",1.244000196,2,2,0.573999882,3,0.688999891,179,0,0,NA,0,NA,1
"452","stim/objects/Instruments/electricguitar.png",320,14,313,0.7,"stim/53.jpeg",5,3,2,2,"Instruments",2,4,"right","right",0.403000116,1,1,1,0,NA,NA,NA,NA,NA,NA,NA,NA,NA,NA,NA,NA,NA,NA,NA,NA,NA,NA,NA,NA,NA,NA,NA,NA
"295","stim/objects/HouseObjects/doormat.png",321,14,314,0.9,"stim/22.jpeg",2,2,3,2,"HouseObjects",1,2,"left","left",0.500999928,1,1,1,0,NA,NA,NA,NA,NA,NA,NA,NA,NA,NA,NA,NA,NA,NA,NA,NA,NA,NA,NA,NA,NA,NA,NA,NA
"516","stim/objects/Instruments/gong.png",322,14,315,0.9,"stim/11.jpeg",1,1,3,2,"Instruments",2,4,"right","right",0.585999966,1,1,1,0,NA,NA,NA,NA,NA,NA,NA,NA,NA,NA,NA,NA,NA,NA,NA,NA,NA,NA,NA,NA,NA,NA,NA,NA
"267","stim/objects/HouseObjects/bucket2.png",323,14,316,0.7,"stim/63.jpeg",6,3,2,1,"HouseObjects",1,4,"left","right",0.437999964,0,0,1,0,200,14,1,0.7,1,"stim/63.jpeg",6,3,"stim/63.jpeg",4,"left",0.769999981,4,4,1.27699995,4,1.501999855,200,1,0,0,1,1,1
"407","stim/objects/Instruments/accordion.png",324,14,317,0.5,"stim/31.jpeg",3,1,1,2,"Instruments",2,4,"right","right",0.457000017,1,1,1,0,NA,NA,NA,NA,NA,NA,NA,NA,NA,NA,NA,NA,NA,NA,NA,NA,NA,NA,NA,NA,NA,NA,NA,NA
"254","stim/objects/HouseObjects/bleachbottle.png",325,14,318,0.5,"stim/31.jpeg",3,1,1,2,"HouseObjects",1,3,"left","left",0.417000055,1,1,1,0,NA,NA,NA,NA,NA,NA,NA,NA,NA,NA,NA,NA,NA,NA,NA,NA,NA,NA,NA,NA,NA,NA,NA,NA
"394","stim/objects/HouseObjects/match.png",326,14,319,0.5,"stim/41.jpeg",4,1,1,1,"HouseObjects",1,1,"left","right",0.519000053,0,0,1,0,31,14,1,0.5,2,"stim/41.jpeg",4,1,"stim/41.jpeg",1,"left",0.83100009,4,2,3.404000044,1,1.301000118,31,1,0,0,1,1,1
"517","stim/objects/Instruments/gong.png",327,14,320,0.9,"stim/13.jpeg",1,3,3,2,"Instruments",2,4,"right","right",0.46600008,1,1,1,0,NA,NA,NA,NA,NA,NA,NA,NA,NA,NA,NA,NA,NA,NA,NA,NA,NA,NA,NA,NA,NA,NA,NA,NA
"314","stim/objects/HouseObjects/dustpan.png",328,14,321,0.9,"stim/21.jpeg",2,1,3,2,"HouseObjects",1,3,"left","left",0.490999937,1,1,1,0,NA,NA,NA,NA,NA,NA,NA,NA,NA,NA,NA,NA,NA,NA,NA,NA,NA,NA,NA,NA,NA,NA,NA,NA
"388","stim/objects/HouseObjects/key.png",329,14,322,0.5,"stim/42.jpeg",4,2,1,1,"HouseObjects",1,4,"left","right",0.398000002,0,0,1,0,90,14,1,0.5,2,"stim/42.jpeg",4,2,"stim/42.jpeg",4,"left",1.519999981,3,2,2.519999981,3,1.010999918,90,1,1,1,0,0,1
"382","stim/objects/HouseObjects/handvacuum.png",330,14,323,0.5,"stim/32.jpeg",3,2,1,1,"HouseObjects",1,2,"left","right",0.411999941,0,0,1,0,133,14,1,0.5,1,"stim/32.jpeg",3,2,"stim/32.jpeg",2,"left",0.985000134,4,4,1.746000051,1,1.697999954,133,1,0,0,0,0,1
"463","stim/objects/Instruments/flute.png",331,14,324,0.9,"stim/11.jpeg",1,1,3,2,"Instruments",2,1,"right","right",0.527000189,1,1,1,0,NA,NA,NA,NA,NA,NA,NA,NA,NA,NA,NA,NA,NA,NA,NA,NA,NA,NA,NA,NA,NA,NA,NA,NA
"527","stim/objects/Instruments/grandpiano.png",332,14,325,0.9,"stim/11.jpeg",1,1,3,2,"Instruments",2,3,"right","right",0.623000145,1,1,1,0,NA,NA,NA,NA,NA,NA,NA,NA,NA,NA,NA,NA,NA,NA,NA,NA,NA,NA,NA,NA,NA,NA,NA,NA
"362","stim/objects/HouseObjects/glass.png",333,14,326,0.9,"stim/23.jpeg",2,3,3,2,"HouseObjects",1,1,"left","left",0.555999994,1,1,1,0,NA,NA,NA,NA,NA,NA,NA,NA,NA,NA,NA,NA,NA,NA,NA,NA,NA,NA,NA,NA,NA,NA,NA,NA
"528","stim/objects/Instruments/grandpiano.png",334,14,327,0.9,"stim/14.jpeg",1,4,3,2,"Instruments",2,2,"right","right",0.46600008,1,1,1,0,NA,NA,NA,NA,NA,NA,NA,NA,NA,NA,NA,NA,NA,NA,NA,NA,NA,NA,NA,NA,NA,NA,NA,NA
"529","stim/objects/Instruments/grandpiano.png",335,14,328,0.9,"stim/11.jpeg",1,1,3,2,"Instruments",2,1,"right","right",0.386999846,1,1,1,0,NA,NA,NA,NA,NA,NA,NA,NA,NA,NA,NA,NA,NA,NA,NA,NA,NA,NA,NA,NA,NA,NA,NA,NA
"279","stim/objects/HouseObjects/coffee.png",336,14,329,0.7,"stim/63.jpeg",6,3,2,2,"HouseObjects",1,1,"left","right",0.394000053,0,0,1,0,NA,NA,NA,NA,NA,NA,NA,NA,NA,NA,NA,NA,NA,NA,NA,NA,NA,NA,NA,NA,NA,NA,NA,NA
"557","stim/objects/Instruments/metronome.png",337,14,330,0.5,"stim/43.jpeg",4,3,1,1,"Instruments",2,3,"right","right",0.437999964,1,1,1,0,111,14,1,0.5,2,"stim/43.jpeg",4,3,"stim/43.jpeg",3,"left",1.121000051,3,3,1.225000143,3,1.460000038,111,1,1,1,1,1,1
"513","stim/objects/Instruments/gong.png",338,14,331,0.9,"stim/11.jpeg",1,1,3,2,"Instruments",2,3,"right","left",0.440999985,0,0,1,0,NA,NA,NA,NA,NA,NA,NA,NA,NA,NA,NA,NA,NA,NA,NA,NA,NA,NA,NA,NA,NA,NA,NA,NA
"363","stim/objects/HouseObjects/glass.png",339,14,332,0.9,"stim/22.jpeg",2,2,3,2,"HouseObjects",1,3,"left","left",0.491999865,1,1,1,0,NA,NA,NA,NA,NA,NA,NA,NA,NA,NA,NA,NA,NA,NA,NA,NA,NA,NA,NA,NA,NA,NA,NA,NA
"318","stim/objects/HouseObjects/dustpan.png",340,14,333,0.9,"stim/23.jpeg",2,3,3,2,"HouseObjects",1,4,"left","left",0.509000063,1,1,1,0,NA,NA,NA,NA,NA,NA,NA,NA,NA,NA,NA,NA,NA,NA,NA,NA,NA,NA,NA,NA,NA,NA,NA,NA
"296","stim/objects/HouseObjects/doormat.png",341,14,334,0.9,"stim/23.jpeg",2,3,3,2,"HouseObjects",1,3,"left","left",0.376999855,1,1,1,0,NA,NA,NA,NA,NA,NA,NA,NA,NA,NA,NA,NA,NA,NA,NA,NA,NA,NA,NA,NA,NA,NA,NA,NA
"364","stim/objects/HouseObjects/glass.png",342,14,335,0.9,"stim/23.jpeg",2,3,3,2,"HouseObjects",1,1,"left","left",0.38499999,1,1,1,0,NA,NA,NA,NA,NA,NA,NA,NA,NA,NA,NA,NA,NA,NA,NA,NA,NA,NA,NA,NA,NA,NA,NA,NA
"365","stim/objects/HouseObjects/glass.png",343,14,336,0.9,"stim/23.jpeg",2,3,3,2,"HouseObjects",1,3,"left","left",0.39199996,1,1,1,0,NA,NA,NA,NA,NA,NA,NA,NA,NA,NA,NA,NA,NA,NA,NA,NA,NA,NA,NA,NA,NA,NA,NA,NA
"440","stim/objects/Instruments/doublebass.png",344,14,337,0.7,"stim/54.jpeg",5,4,2,2,"Instruments",2,2,"right","right",0.368000031,1,1,1,0,NA,NA,NA,NA,NA,NA,NA,NA,NA,NA,NA,NA,NA,NA,NA,NA,NA,NA,NA,NA,NA,NA,NA,NA
"479","stim/objects/Instruments/flutetrans.png",345,14,338,0.9,"stim/11.jpeg",1,1,3,2,"Instruments",2,3,"right","right",0.524000168,1,1,1,0,NA,NA,NA,NA,NA,NA,NA,NA,NA,NA,NA,NA,NA,NA,NA,NA,NA,NA,NA,NA,NA,NA,NA,NA
"347","stim/objects/HouseObjects/garbagebin.png",346,14,339,0.9,"stim/21.jpeg",2,1,3,2,"HouseObjects",1,3,"left","left",0.59800005,1,1,1,0,NA,NA,NA,NA,NA,NA,NA,NA,NA,NA,NA,NA,NA,NA,NA,NA,NA,NA,NA,NA,NA,NA,NA,NA
"426","stim/objects/Instruments/cello2.png",347,14,340,0.3,"stim/63.jpeg",6,3,2,1,"Instruments",2,4,"right","right",0.382999897,1,1,1,0,161,14,1,0.3,2,"stim/63.jpeg",6,3,"stim/63.jpeg",4,"left",1.315999985,4,2,1.555999994,2,1.22300005,161,1,0,0,0,0,1
"275","stim/objects/HouseObjects/clothespin.png",348,14,341,0.7,"stim/63.jpeg",6,3,2,2,"HouseObjects",1,2,"left","left",0.643000126,1,1,1,0,NA,NA,NA,NA,NA,NA,NA,NA,NA,NA,NA,NA,NA,NA,NA,NA,NA,NA,NA,NA,NA,NA,NA,NA
"380","stim/objects/HouseObjects/handbrush.png",349,14,342,0.5,"stim/31.jpeg",3,1,1,1,"HouseObjects",1,4,"left","right",0.516000032,0,0,1,0,57,14,1,0.5,1,"stim/31.jpeg",3,1,"stim/31.jpeg",4,"right",1.146999836,2,2,1.09800005,3,1.385999918,57,0,0,NA,0,NA,1
"348","stim/objects/HouseObjects/garbagebin.png",350,14,343,0.9,"stim/21.jpeg",2,1,3,2,"HouseObjects",1,1,"left","left",0.508999825,1,1,1,0,NA,NA,NA,NA,NA,NA,NA,NA,NA,NA,NA,NA,NA,NA,NA,NA,NA,NA,NA,NA,NA,NA,NA,NA
"283","stim/objects/HouseObjects/cushion.png",351,14,344,0.7,"stim/64.jpeg",6,4,2,2,"HouseObjects",1,3,"left","right",0.384000063,0,0,1,0,NA,NA,NA,NA,NA,NA,NA,NA,NA,NA,NA,NA,NA,NA,NA,NA,NA,NA,NA,NA,NA,NA,NA,NA
"379","stim/objects/HouseObjects/hairdryer2.png",352,14,345,0.1,"stim/13.jpeg",1,3,3,1,"HouseObjects",1,4,"left","right",0.417999983,0,0,1,0,65,14,1,0.1,1,"stim/13.jpeg",1,3,"stim/13.jpeg",4,"right",2.18599987,2,3,0.855999947,3,0.638999939,65,0,1,NA,0,NA,1
"387","stim/objects/HouseObjects/ironingboard2.png",353,14,346,0.9,"stim/21.jpeg",2,1,3,1,"HouseObjects",1,4,"left","left",0.453999996,1,1,1,0,147,14,1,0.9,1,"stim/21.jpeg",2,1,"stim/21.jpeg",4,"right",0.881999969,2,3,2.16899991,3,0.532999992,147,0,0,NA,0,NA,1
"319","stim/objects/HouseObjects/dustpan.png",354,14,347,0.9,"stim/24.jpeg",2,4,3,2,"HouseObjects",1,1,"left","left",0.387000084,1,1,1,0,NA,NA,NA,NA,NA,NA,NA,NA,NA,NA,NA,NA,NA,NA,NA,NA,NA,NA,NA,NA,NA,NA,NA,NA
"447","stim/objects/Instruments/drums2.png",355,14,348,0.3,"stim/61.jpeg",6,1,2,1,"Instruments",2,3,"right","left",0.644000053,0,0,1,0,159,14,1,0.3,2,"stim/61.jpeg",6,1,"stim/61.jpeg",3,"left",1.213999987,4,3,0.969000101,4,1.012000084,159,1,0,0,0,0,1
"551","stim/objects/Instruments/laud.png",356,14,349,0.5,"stim/44.jpeg",4,4,1,1,"Instruments",2,1,"right","right",0.450000048,1,1,1,0,73,14,1,0.5,2,"stim/44.jpeg",4,4,"stim/44.jpeg",1,"left",1.227999926,4,2,2.562000036,3,1.228000164,73,1,0,0,0,0,1
"324","stim/objects/HouseObjects/dustpan2.png",357,14,350,0.1,"stim/12.jpeg",1,2,3,1,"HouseObjects",1,2,"left","right",0.375999928,0,0,1,0,15,14,1,0.1,1,"stim/12.jpeg",1,2,"stim/12.jpeg",2,"left",0.953000069,4,4,3.379000187,3,1.802999973,15,1,0,0,0,0,1
"367","stim/objects/HouseObjects/glass.png",358,14,351,0.9,"stim/21.jpeg",2,1,3,2,"HouseObjects",1,1,"left","left",0.453999996,1,1,1,0,NA,NA,NA,NA,NA,NA,NA,NA,NA,NA,NA,NA,NA,NA,NA,NA,NA,NA,NA,NA,NA,NA,NA,NA
"417","stim/objects/Instruments/banjo2.png",359,14,352,0.7,"stim/52.jpeg",5,2,2,1,"Instruments",2,1,"right","left",0.657000065,0,0,1,0,2,14,1,0.7,2,"stim/52.jpeg",5,2,"stim/52.jpeg",1,"left",1.039999962,4,2,4.529000044,3,5.224000216,2,1,1,1,0,0,1
"251","stim/objects/HouseObjects/basket.png",360,14,353,0.5,"stim/34.jpeg",3,4,1,2,"HouseObjects",1,4,"left","right",0.469000101,0,0,1,0,NA,NA,NA,NA,NA,NA,NA,NA,NA,NA,NA,NA,NA,NA,NA,NA,NA,NA,NA,NA,NA,NA,NA,NA
"564","stim/objects/Instruments/oboe2.png",361,14,354,0.1,"stim/21.jpeg",2,1,3,1,"Instruments",2,4,"right","right",0.401000023,1,1,1,0,194,14,1,0.1,2,"stim/21.jpeg",2,1,"stim/21.jpeg",4,"right",1.006999969,1,3,2.111999989,4,0.754999876,194,0,0,NA,1,NA,1
"518","stim/objects/Instruments/gong.png",362,14,355,0.9,"stim/13.jpeg",1,3,3,2,"Instruments",2,2,"right","right",0.496999979,1,1,1,0,NA,NA,NA,NA,NA,NA,NA,NA,NA,NA,NA,NA,NA,NA,NA,NA,NA,NA,NA,NA,NA,NA,NA,NA
"449","stim/objects/Instruments/electricdrumset.png",363,14,356,0.7,"stim/52.jpeg",5,2,2,2,"Instruments",2,3,"right","left",0.734999895,0,0,1,0,NA,NA,NA,NA,NA,NA,NA,NA,NA,NA,NA,NA,NA,NA,NA,NA,NA,NA,NA,NA,NA,NA,NA,NA
"368","stim/objects/HouseObjects/glass.png",364,14,357,0.9,"stim/24.jpeg",2,4,3,2,"HouseObjects",1,1,"left","left",0.593000174,1,1,1,0,NA,NA,NA,NA,NA,NA,NA,NA,NA,NA,NA,NA,NA,NA,NA,NA,NA,NA,NA,NA,NA,NA,NA,NA
"415","stim/objects/Instruments/banjo.png",365,14,358,0.5,"stim/33.jpeg",3,3,1,2,"Instruments",2,2,"right","right",0.461999893,1,1,1,0,NA,NA,NA,NA,NA,NA,NA,NA,NA,NA,NA,NA,NA,NA,NA,NA,NA,NA,NA,NA,NA,NA,NA,NA
"390","stim/objects/HouseObjects/knife.png",366,14,359,0.5,"stim/43.jpeg",4,3,1,1,"HouseObjects",1,1,"left","right",0.474000216,0,0,1,0,53,14,1,0.5,2,"stim/43.jpeg",4,3,"stim/43.jpeg",1,"right",0.772000074,4,4,1.40199995,4,0.470000029,53,0,0,NA,0,NA,1
"541","stim/objects/Instruments/guitarcase.png",367,14,360,0.5,"stim/32.jpeg",3,2,1,1,"Instruments",2,2,"right","right",0.325999975,1,1,1,0,68,14,1,0.5,1,"stim/32.jpeg",3,2,"stim/32.jpeg",2,"right",2.895999908,2,3,0.959000111,4,0.735000134,68,0,0,NA,0,NA,1
"466","stim/objects/Instruments/flute.png",368,14,361,0.9,"stim/12.jpeg",1,2,3,2,"Instruments",2,2,"right","right",0.395999908,1,1,1,0,NA,NA,NA,NA,NA,NA,NA,NA,NA,NA,NA,NA,NA,NA,NA,NA,NA,NA,NA,NA,NA,NA,NA,NA
"252","stim/objects/HouseObjects/basket2.png",369,14,362,0.3,"stim/51.jpeg",5,1,2,1,"HouseObjects",1,3,"left","left",0.437000036,1,1,1,0,196,14,1,0.3,1,"stim/51.jpeg",5,1,"stim/51.jpeg",3,"right",1.205999851,3,4,0.767000198,2,0.631000042,196,0,0,NA,0,NA,1
"256","stim/objects/HouseObjects/blender.png",370,14,363,0.5,"stim/43.jpeg",4,3,1,2,"HouseObjects",1,3,"left","left",0.595000029,1,1,1,0,NA,NA,NA,NA,NA,NA,NA,NA,NA,NA,NA,NA,NA,NA,NA,NA,NA,NA,NA,NA,NA,NA,NA,NA
"258","stim/objects/HouseObjects/blender2.png",371,14,364,0.7,"stim/64.jpeg",6,4,2,1,"HouseObjects",1,2,"left","right",0.376000166,0,0,1,0,135,14,1,0.7,1,"stim/64.jpeg",6,4,"stim/64.jpeg",2,"right",0.69299984,1,1,0.655999899,2,0.773000002,135,0,0,NA,1,NA,1
"291","stim/objects/HouseObjects/doormat.png",372,14,365,0.9,"stim/22.jpeg",2,2,3,2,"HouseObjects",1,2,"left","left",0.649999857,1,1,1,0,NA,NA,NA,NA,NA,NA,NA,NA,NA,NA,NA,NA,NA,NA,NA,NA,NA,NA,NA,NA,NA,NA,NA,NA
"298","stim/objects/HouseObjects/doormat.png",373,14,366,0.9,"stim/21.jpeg",2,1,3,2,"HouseObjects",1,3,"left","left",0.566999912,1,1,1,0,NA,NA,NA,NA,NA,NA,NA,NA,NA,NA,NA,NA,NA,NA,NA,NA,NA,NA,NA,NA,NA,NA,NA,NA
"406","stim/objects/Instruments/accordion.png",374,14,367,0.5,"stim/34.jpeg",3,4,1,2,"Instruments",2,1,"right","right",0.592000008,1,1,1,0,NA,NA,NA,NA,NA,NA,NA,NA,NA,NA,NA,NA,NA,NA,NA,NA,NA,NA,NA,NA,NA,NA,NA,NA
"456","stim/objects/Instruments/flute.png",375,14,368,0.9,"stim/14.jpeg",1,4,3,2,"Instruments",2,4,"right","right",0.461999893,1,1,1,0,NA,NA,NA,NA,NA,NA,NA,NA,NA,NA,NA,NA,NA,NA,NA,NA,NA,NA,NA,NA,NA,NA,NA,NA
"534","stim/objects/Instruments/grandpiano.png",376,14,369,0.9,"stim/12.jpeg",1,2,3,2,"Instruments",2,3,"right","right",0.509000063,1,1,1,0,NA,NA,NA,NA,NA,NA,NA,NA,NA,NA,NA,NA,NA,NA,NA,NA,NA,NA,NA,NA,NA,NA,NA,NA
"508","stim/objects/Instruments/gong.png",377,14,370,0.9,"stim/12.jpeg",1,2,3,2,"Instruments",2,4,"right","right",0.409999847,1,1,1,0,NA,NA,NA,NA,NA,NA,NA,NA,NA,NA,NA,NA,NA,NA,NA,NA,NA,NA,NA,NA,NA,NA,NA,NA
"509","stim/objects/Instruments/gong.png",378,14,371,0.9,"stim/11.jpeg",1,1,3,2,"Instruments",2,2,"right","right",0.467999935,1,1,1,0,NA,NA,NA,NA,NA,NA,NA,NA,NA,NA,NA,NA,NA,NA,NA,NA,NA,NA,NA,NA,NA,NA,NA,NA
"556","stim/objects/Instruments/marimba2.png",379,14,372,0.1,"stim/21.jpeg",2,1,3,1,"Instruments",2,2,"right","left",0.549999952,0,0,1,0,141,14,1,0.1,2,"stim/21.jpeg",2,1,"stim/21.jpeg",2,"right",0.746999979,1,3,1.552999973,4,0.862999916,141,0,0,NA,0,NA,1
"569","stim/objects/Instruments/record.png",380,14,373,0.7,"stim/52.jpeg",5,2,2,1,"Instruments",2,3,"right","right",0.426000118,1,1,1,0,100,14,1,0.7,2,"stim/52.jpeg",5,2,"stim/52.jpeg",3,"right",1.069000006,3,3,0.931999922,3,0.784000158,100,0,0,NA,1,NA,1
"560","stim/objects/Instruments/musicsheet2.png",381,14,374,0.1,"stim/23.jpeg",2,3,3,1,"Instruments",2,4,"right","right",0.447000027,1,1,1,0,173,14,1,0.1,2,"stim/23.jpeg",2,3,"stim/23.jpeg",4,"left",1.126999855,4,3,1.31400013,4,1.646000147,173,1,1,1,1,1,1
"422","stim/objects/Instruments/bassguitar.png",382,14,375,0.5,"stim/43.jpeg",4,3,1,2,"Instruments",2,4,"right","right",0.424000025,1,1,1,0,NA,NA,NA,NA,NA,NA,NA,NA,NA,NA,NA,NA,NA,NA,NA,NA,NA,NA,NA,NA,NA,NA,NA,NA
"300","stim/objects/HouseObjects/doormat.png",383,14,376,0.9,"stim/21.jpeg",2,1,3,2,"HouseObjects",1,3,"left","left",0.407999992,1,1,1,0,NA,NA,NA,NA,NA,NA,NA,NA,NA,NA,NA,NA,NA,NA,NA,NA,NA,NA,NA,NA,NA,NA,NA,NA
"243","stim/objects/HouseObjects/ashtray2.png",384,14,377,0.3,"stim/52.jpeg",5,2,2,1,"HouseObjects",1,3,"left","right",0.461999893,0,0,1,0,157,14,1,0.3,1,"stim/52.jpeg",5,2,"stim/52.jpeg",3,"right",0.780999899,2,3,2.520999908,1,1.289999962,157,0,0,NA,0,NA,1
"467","stim/objects/Instruments/flute.png",385,14,378,0.9,"stim/12.jpeg",1,2,3,2,"Instruments",2,4,"right","right",0.473999977,1,1,1,0,NA,NA,NA,NA,NA,NA,NA,NA,NA,NA,NA,NA,NA,NA,NA,NA,NA,NA,NA,NA,NA,NA,NA,NA
"242","stim/objects/HouseObjects/ashtray.png",386,14,379,0.5,"stim/31.jpeg",3,1,1,2,"HouseObjects",1,1,"left","right",0.501000166,0,0,1,0,NA,NA,NA,NA,NA,NA,NA,NA,NA,NA,NA,NA,NA,NA,NA,NA,NA,NA,NA,NA,NA,NA,NA,NA
"480","stim/objects/Instruments/flutetrans.png",387,14,380,0.9,"stim/11.jpeg",1,1,3,2,"Instruments",2,3,"right","right",0.43200016,1,1,1,0,NA,NA,NA,NA,NA,NA,NA,NA,NA,NA,NA,NA,NA,NA,NA,NA,NA,NA,NA,NA,NA,NA,NA,NA
"278","stim/objects/HouseObjects/clothespin2.png",388,14,381,0.7,"stim/62.jpeg",6,2,2,1,"HouseObjects",1,4,"left","right",0.471000195,0,0,1,0,166,14,1,0.7,1,"stim/62.jpeg",6,2,"stim/62.jpeg",4,"left",0.953000069,4,4,0.713999987,3,1.023000002,166,1,0,0,0,0,1
"473","stim/objects/Instruments/flutetrans.png",389,14,382,0.9,"stim/13.jpeg",1,3,3,2,"Instruments",2,2,"right","right",0.54399991,1,1,1,0,NA,NA,NA,NA,NA,NA,NA,NA,NA,NA,NA,NA,NA,NA,NA,NA,NA,NA,NA,NA,NA,NA,NA,NA
"481","stim/objects/Instruments/flutetrans.png",390,14,383,0.9,"stim/12.jpeg",1,2,3,2,"Instruments",2,3,"right","right",0.568000078,1,1,1,0,NA,NA,NA,NA,NA,NA,NA,NA,NA,NA,NA,NA,NA,NA,NA,NA,NA,NA,NA,NA,NA,NA,NA,NA
"350","stim/objects/HouseObjects/garbagebin.png",391,14,384,0.9,"stim/23.jpeg",2,3,3,2,"HouseObjects",1,3,"left","left",0.509000063,1,1,1,0,NA,NA,NA,NA,NA,NA,NA,NA,NA,NA,NA,NA,NA,NA,NA,NA,NA,NA,NA,NA,NA,NA,NA,NA
"494","stim/objects/Instruments/frenchhorn.png",392,14,385,0.9,"stim/12.jpeg",1,2,3,2,"Instruments",2,2,"right","right",0.479000092,1,1,1,0,NA,NA,NA,NA,NA,NA,NA,NA,NA,NA,NA,NA,NA,NA,NA,NA,NA,NA,NA,NA,NA,NA,NA,NA
"506","stim/objects/Instruments/frenchhorn2.png",393,14,386,0.9,"stim/11.jpeg",1,1,3,1,"Instruments",2,1,"right","right",0.457999945,1,1,1,0,114,14,1,0.9,2,"stim/11.jpeg",1,1,"stim/11.jpeg",1,"right",0.853000164,3,2,1.400000095,3,0.76699996,114,0,0,NA,0,NA,1
"468","stim/objects/Instruments/flute.png",394,14,387,0.9,"stim/13.jpeg",1,3,3,2,"Instruments",2,2,"right","right",0.406999826,1,1,1,0,NA,NA,NA,NA,NA,NA,NA,NA,NA,NA,NA,NA,NA,NA,NA,NA,NA,NA,NA,NA,NA,NA,NA,NA
"321","stim/objects/HouseObjects/dustpan.png",395,14,388,0.9,"stim/24.jpeg",2,4,3,2,"HouseObjects",1,4,"left","left",0.513000011,1,1,1,0,NA,NA,NA,NA,NA,NA,NA,NA,NA,NA,NA,NA,NA,NA,NA,NA,NA,NA,NA,NA,NA,NA,NA,NA
"531","stim/objects/Instruments/grandpiano.png",396,14,389,0.9,"stim/13.jpeg",1,3,3,2,"Instruments",2,4,"right","right",0.491999865,1,1,1,0,NA,NA,NA,NA,NA,NA,NA,NA,NA,NA,NA,NA,NA,NA,NA,NA,NA,NA,NA,NA,NA,NA,NA,NA
"349","stim/objects/HouseObjects/garbagebin.png",397,14,390,0.9,"stim/22.jpeg",2,2,3,2,"HouseObjects",1,2,"left","left",0.497999907,1,1,1,0,NA,NA,NA,NA,NA,NA,NA,NA,NA,NA,NA,NA,NA,NA,NA,NA,NA,NA,NA,NA,NA,NA,NA,NA
"260","stim/objects/HouseObjects/bottle.png",398,14,391,0.5,"stim/44.jpeg",4,4,1,2,"HouseObjects",1,2,"left","right",0.439999819,0,0,1,0,NA,NA,NA,NA,NA,NA,NA,NA,NA,NA,NA,NA,NA,NA,NA,NA,NA,NA,NA,NA,NA,NA,NA,NA
"280","stim/objects/HouseObjects/coffee.png",399,14,392,0.7,"stim/61.jpeg",6,1,2,2,"HouseObjects",1,1,"left","right",0.457999945,0,0,1,0,NA,NA,NA,NA,NA,NA,NA,NA,NA,NA,NA,NA,NA,NA,NA,NA,NA,NA,NA,NA,NA,NA,NA,NA
"402","stim/objects/HouseObjects/remote.png",400,14,393,0.3,"stim/54.jpeg",5,4,2,1,"HouseObjects",1,3,"left","right",0.564999819,0,0,1,0,79,14,1,0.3,1,"stim/54.jpeg",5,4,"stim/54.jpeg",3,"left",0.911999941,4,4,2.746999979,2,0.92599988,79,1,1,1,0,0,1
"469","stim/objects/Instruments/flute.png",401,14,394,0.9,"stim/13.jpeg",1,3,3,2,"Instruments",2,2,"right","right",0.413999796,1,1,1,0,NA,NA,NA,NA,NA,NA,NA,NA,NA,NA,NA,NA,NA,NA,NA,NA,NA,NA,NA,NA,NA,NA,NA,NA
"369","stim/objects/HouseObjects/glass.png",402,14,395,0.9,"stim/21.jpeg",2,1,3,2,"HouseObjects",1,1,"left","left",0.467000008,1,1,1,0,NA,NA,NA,NA,NA,NA,NA,NA,NA,NA,NA,NA,NA,NA,NA,NA,NA,NA,NA,NA,NA,NA,NA,NA
"563","stim/objects/Instruments/oboe.png",403,14,396,0.7,"stim/53.jpeg",5,3,2,1,"Instruments",2,1,"right","right",0.424999952,1,1,1,0,107,14,1,0.7,2,"stim/53.jpeg",5,3,"stim/53.jpeg",1,"right",1.13499999,2,3,0.898000002,2,0.00999999,107,0,1,NA,0,NA,1
"535","stim/objects/Instruments/grandpiano.png",404,14,397,0.9,"stim/14.jpeg",1,4,3,2,"Instruments",2,2,"right","right",0.417000055,1,1,1,0,NA,NA,NA,NA,NA,NA,NA,NA,NA,NA,NA,NA,NA,NA,NA,NA,NA,NA,NA,NA,NA,NA,NA,NA
"333","stim/objects/HouseObjects/flyswatter.png",405,14,398,0.9,"stim/24.jpeg",2,4,3,2,"HouseObjects",1,1,"left","left",0.424000025,1,1,1,0,NA,NA,NA,NA,NA,NA,NA,NA,NA,NA,NA,NA,NA,NA,NA,NA,NA,NA,NA,NA,NA,NA,NA,NA
"370","stim/objects/HouseObjects/glass.png",406,14,399,0.9,"stim/23.jpeg",2,3,3,2,"HouseObjects",1,4,"left","left",0.562999964,1,1,1,0,NA,NA,NA,NA,NA,NA,NA,NA,NA,NA,NA,NA,NA,NA,NA,NA,NA,NA,NA,NA,NA,NA,NA,NA
"293","stim/objects/HouseObjects/doormat.png",407,14,400,0.9,"stim/24.jpeg",2,4,3,2,"HouseObjects",1,2,"left","left",0.51699996,1,1,1,0,NA,NA,NA,NA,NA,NA,NA,NA,NA,NA,NA,NA,NA,NA,NA,NA,NA,NA,NA,NA,NA,NA,NA,NA
"511","stim/objects/Instruments/gong.png",408,14,401,0.9,"stim/11.jpeg",1,1,3,2,"Instruments",2,1,"right","right",0.349999905,1,1,1,0,NA,NA,NA,NA,NA,NA,NA,NA,NA,NA,NA,NA,NA,NA,NA,NA,NA,NA,NA,NA,NA,NA,NA,NA
"315","stim/objects/HouseObjects/dustpan.png",409,14,402,0.9,"stim/22.jpeg",2,2,3,2,"HouseObjects",1,1,"left","left",0.536999941,1,1,1,0,NA,NA,NA,NA,NA,NA,NA,NA,NA,NA,NA,NA,NA,NA,NA,NA,NA,NA,NA,NA,NA,NA,NA,NA
"419","stim/objects/Instruments/bassdrum.png",410,14,403,0.5,"stim/34.jpeg",3,4,1,2,"Instruments",2,3,"right","right",0.378999949,1,1,1,0,NA,NA,NA,NA,NA,NA,NA,NA,NA,NA,NA,NA,NA,NA,NA,NA,NA,NA,NA,NA,NA,NA,NA,NA
"512","stim/objects/Instruments/gong.png",411,14,404,0.9,"stim/13.jpeg",1,3,3,2,"Instruments",2,2,"right","right",0.530999899,1,1,1,0,NA,NA,NA,NA,NA,NA,NA,NA,NA,NA,NA,NA,NA,NA,NA,NA,NA,NA,NA,NA,NA,NA,NA,NA
"285","stim/objects/HouseObjects/cushion.png",412,14,405,0.7,"stim/62.jpeg",6,2,2,2,"HouseObjects",1,3,"left","right",0.610999823,0,0,1,0,NA,NA,NA,NA,NA,NA,NA,NA,NA,NA,NA,NA,NA,NA,NA,NA,NA,NA,NA,NA,NA,NA,NA,NA
"546","stim/objects/Instruments/harp2.png",413,14,406,0.9,"stim/12.jpeg",1,2,3,1,"Instruments",2,2,"right","right",0.677000046,1,1,1,0,142,14,1,0.9,2,"stim/12.jpeg",1,2,"stim/12.jpeg",2,"right",1.04399991,2,3,1.213999987,4,0.609999895,142,0,0,NA,0,NA,1
"354","stim/objects/HouseObjects/garbagebin.png",414,14,407,0.9,"stim/24.jpeg",2,4,3,2,"HouseObjects",1,1,"left","right",0.726000071,0,0,1,0,NA,NA,NA,NA,NA,NA,NA,NA,NA,NA,NA,NA,NA,NA,NA,NA,NA,NA,NA,NA,NA,NA,NA,NA
"358","stim/objects/HouseObjects/garbagebin2.png",415,14,408,0.1,"stim/14.jpeg",1,4,3,1,"HouseObjects",1,3,"left","right",0.513000011,0,0,1,0,10,14,1,0.1,1,"stim/14.jpeg",1,4,"stim/14.jpeg",3,"right",1.129999876,4,4,6.248000145,4,0.985999823,10,0,1,NA,0,NA,1
"424","stim/objects/Instruments/cello.png",416,14,409,0.5,"stim/44.jpeg",4,4,1,2,"Instruments",2,4,"right","right",0.411000013,1,1,1,0,NA,NA,NA,NA,NA,NA,NA,NA,NA,NA,NA,NA,NA,NA,NA,NA,NA,NA,NA,NA,NA,NA,NA,NA
"478","stim/objects/Instruments/flutetrans.png",417,14,410,0.9,"stim/11.jpeg",1,1,3,2,"Instruments",2,2,"right","right",0.518000126,1,1,1,0,NA,NA,NA,NA,NA,NA,NA,NA,NA,NA,NA,NA,NA,NA,NA,NA,NA,NA,NA,NA,NA,NA,NA,NA
"391","stim/objects/HouseObjects/knife2.png",418,14,411,0.9,"stim/23.jpeg",2,3,3,1,"HouseObjects",1,3,"left","left",0.399000168,1,1,1,0,146,14,1,0.9,1,"stim/23.jpeg",2,3,"stim/23.jpeg",3,"left",1.348999977,4,3,2.503999949,3,2.269999981,146,1,1,1,1,1,1
"395","stim/objects/HouseObjects/match2.png",419,14,412,0.9,"stim/21.jpeg",2,1,3,1,"HouseObjects",1,2,"left","left",0.542000055,1,1,1,0,181,14,1,0.9,1,"stim/21.jpeg",2,1,"stim/21.jpeg",2,"right",0.949999809,4,4,1.161999941,4,0.423000097,181,0,0,NA,0,NA,1
"273","stim/objects/HouseObjects/clothesdryingrack.png",420,14,413,0.7,"stim/62.jpeg",6,2,2,2,"HouseObjects",1,4,"left","right",0.56799984,0,0,1,0,NA,NA,NA,NA,NA,NA,NA,NA,NA,NA,NA,NA,NA,NA,NA,NA,NA,NA,NA,NA,NA,NA,NA,NA
"276","stim/objects/HouseObjects/clothespin.png",421,14,414,0.7,"stim/64.jpeg",6,4,2,2,"HouseObjects",1,3,"left","left",0.520999908,1,1,1,0,NA,NA,NA,NA,NA,NA,NA,NA,NA,NA,NA,NA,NA,NA,NA,NA,NA,NA,NA,NA,NA,NA,NA,NA
"355","stim/objects/HouseObjects/garbagebin.png",422,14,415,0.9,"stim/24.jpeg",2,4,3,2,"HouseObjects",1,1,"left","left",0.460000038,1,1,1,0,NA,NA,NA,NA,NA,NA,NA,NA,NA,NA,NA,NA,NA,NA,NA,NA,NA,NA,NA,NA,NA,NA,NA,NA
"442","stim/objects/Instruments/doublebass.png",423,14,416,0.7,"stim/51.jpeg",5,1,2,2,"Instruments",2,4,"right","right",0.375999928,1,1,1,0,NA,NA,NA,NA,NA,NA,NA,NA,NA,NA,NA,NA,NA,NA,NA,NA,NA,NA,NA,NA,NA,NA,NA,NA
"472","stim/objects/Instruments/flute2.png",424,14,417,0.9,"stim/13.jpeg",1,3,3,1,"Instruments",2,3,"right","right",0.732000113,1,1,1,0,82,14,1,0.9,2,"stim/13.jpeg",1,3,"stim/13.jpeg",3,"right",1.232000113,2,3,0.95600009,3,0.582999945,82,0,1,NA,1,NA,1
"377","stim/objects/HouseObjects/glassmop2.png",425,14,418,0.1,"stim/12.jpeg",1,2,3,1,"HouseObjects",1,3,"left","right",0.542999983,0,0,1,0,36,14,1,0.1,1,"stim/12.jpeg",1,2,"stim/12.jpeg",3,"left",0.885999918,4,2,1.355999947,3,1.598999977,36,1,1,1,1,1,1
"334","stim/objects/HouseObjects/flyswatter.png",426,14,419,0.9,"stim/21.jpeg",2,1,3,2,"HouseObjects",1,1,"left","left",0.536000013,1,1,1,0,NA,NA,NA,NA,NA,NA,NA,NA,NA,NA,NA,NA,NA,NA,NA,NA,NA,NA,NA,NA,NA,NA,NA,NA
"462","stim/objects/Instruments/flute.png",427,14,420,0.9,"stim/14.jpeg",1,4,3,2,"Instruments",2,2,"right","right",0.45600009,1,1,1,0,NA,NA,NA,NA,NA,NA,NA,NA,NA,NA,NA,NA,NA,NA,NA,NA,NA,NA,NA,NA,NA,NA,NA,NA
"335","stim/objects/HouseObjects/flyswatter.png",428,14,421,0.9,"stim/23.jpeg",2,3,3,2,"HouseObjects",1,1,"left","left",0.491000175,1,1,1,0,NA,NA,NA,NA,NA,NA,NA,NA,NA,NA,NA,NA,NA,NA,NA,NA,NA,NA,NA,NA,NA,NA,NA,NA
"336","stim/objects/HouseObjects/flyswatter.png",429,14,422,0.9,"stim/24.jpeg",2,4,3,2,"HouseObjects",1,3,"left","left",0.480000019,1,1,1,0,NA,NA,NA,NA,NA,NA,NA,NA,NA,NA,NA,NA,NA,NA,NA,NA,NA,NA,NA,NA,NA,NA,NA,NA
"290","stim/objects/HouseObjects/dishsoap2.png",430,14,423,0.7,"stim/61.jpeg",6,1,2,1,"HouseObjects",1,1,"left","right",0.541000128,0,0,1,0,99,14,1,0.7,1,"stim/61.jpeg",6,1,"stim/61.jpeg",1,"left",1.072000027,4,3,1.088999987,1,4.733999968,99,1,0,0,1,1,1
"294","stim/objects/HouseObjects/doormat.png",431,14,424,0.9,"stim/23.jpeg",2,3,3,2,"HouseObjects",1,2,"left","right",0.450000048,0,0,1,0,NA,NA,NA,NA,NA,NA,NA,NA,NA,NA,NA,NA,NA,NA,NA,NA,NA,NA,NA,NA,NA,NA,NA,NA
"519","stim/objects/Instruments/gong.png",432,14,425,0.9,"stim/12.jpeg",1,2,3,2,"Instruments",2,2,"right","left",0.920000076,0,0,1,0,NA,NA,NA,NA,NA,NA,NA,NA,NA,NA,NA,NA,NA,NA,NA,NA,NA,NA,NA,NA,NA,NA,NA,NA
"313","stim/objects/HouseObjects/dustpan.png",433,14,426,0.9,"stim/23.jpeg",2,3,3,2,"HouseObjects",1,4,"left","left",0.538000107,1,1,1,0,NA,NA,NA,NA,NA,NA,NA,NA,NA,NA,NA,NA,NA,NA,NA,NA,NA,NA,NA,NA,NA,NA,NA,NA
"397","stim/objects/HouseObjects/pan2.png",434,14,427,0.9,"stim/22.jpeg",2,2,3,1,"HouseObjects",1,3,"left","left",0.443000078,1,1,1,0,26,14,1,0.9,1,"stim/22.jpeg",2,2,"stim/22.jpeg",3,"right",0.797999859,4,4,1.571000099,4,1.004999876,26,0,0,NA,0,NA,1
"398","stim/objects/HouseObjects/pitcher.png",435,14,428,0.3,"stim/52.jpeg",5,2,2,1,"HouseObjects",1,2,"left","right",0.769999981,0,0,1,0,16,14,1,0.3,1,"stim/52.jpeg",5,2,"stim/52.jpeg",2,"right",1.399000168,3,4,2.963999987,4,1.117000103,16,0,0,NA,0,NA,1
"555","stim/objects/Instruments/marimba.png",436,14,429,0.5,"stim/42.jpeg",4,2,1,1,"Instruments",2,4,"right","right",0.437999964,1,1,1,0,66,14,1,0.5,2,"stim/42.jpeg",4,2,"stim/42.jpeg",4,"right",2.03399992,2,2,1.205999851,4,1.177000046,66,0,1,NA,1,NA,1
"282","stim/objects/HouseObjects/coffee2.png",437,14,430,0.7,"stim/63.jpeg",6,3,2,1,"HouseObjects",1,1,"left","left",0.573999882,1,1,1,0,155,14,1,0.7,1,"stim/63.jpeg",6,3,"stim/63.jpeg",1,"right",0.710000038,2,3,0.946000099,4,0.835000038,155,0,1,NA,0,NA,1
"337","stim/objects/HouseObjects/flyswatter.png",438,14,431,0.9,"stim/22.jpeg",2,2,3,2,"HouseObjects",1,1,"left","left",0.451999903,1,1,1,0,NA,NA,NA,NA,NA,NA,NA,NA,NA,NA,NA,NA,NA,NA,NA,NA,NA,NA,NA,NA,NA,NA,NA,NA
"522","stim/objects/Instruments/gong.png",439,14,432,0.9,"stim/14.jpeg",1,4,3,2,"Instruments",2,1,"right","right",0.469000101,1,1,1,0,NA,NA,NA,NA,NA,NA,NA,NA,NA,NA,NA,NA,NA,NA,NA,NA,NA,NA,NA,NA,NA,NA,NA,NA
"515","stim/objects/Instruments/gong.png",440,14,433,0.9,"stim/13.jpeg",1,3,3,2,"Instruments",2,3,"right","right",0.50999999,1,1,1,0,NA,NA,NA,NA,NA,NA,NA,NA,NA,NA,NA,NA,NA,NA,NA,NA,NA,NA,NA,NA,NA,NA,NA,NA
"543","stim/objects/Instruments/harmonica.png",441,14,434,0.5,"stim/33.jpeg",3,3,1,1,"Instruments",2,3,"right","right",0.39199996,1,1,1,0,60,14,1,0.5,1,"stim/33.jpeg",3,3,"stim/33.jpeg",3,"left",1.129999876,2,3,1.049000025,1,1.093999863,60,1,1,1,0,0,1
"485","stim/objects/Instruments/flutetrans.png",442,14,435,0.9,"stim/12.jpeg",1,2,3,2,"Instruments",2,1,"right","right",0.467999935,1,1,1,0,NA,NA,NA,NA,NA,NA,NA,NA,NA,NA,NA,NA,NA,NA,NA,NA,NA,NA,NA,NA,NA,NA,NA,NA
"302","stim/objects/HouseObjects/doormat.png",443,14,436,0.9,"stim/23.jpeg",2,3,3,2,"HouseObjects",1,4,"left","left",0.457999945,1,1,1,0,NA,NA,NA,NA,NA,NA,NA,NA,NA,NA,NA,NA,NA,NA,NA,NA,NA,NA,NA,NA,NA,NA,NA,NA
"430","stim/objects/Instruments/clarinet.png",444,14,437,0.5,"stim/42.jpeg",4,2,1,2,"Instruments",2,2,"right","right",0.424000025,1,1,1,0,NA,NA,NA,NA,NA,NA,NA,NA,NA,NA,NA,NA,NA,NA,NA,NA,NA,NA,NA,NA,NA,NA,NA,NA
"554","stim/objects/Instruments/maraca2.png",445,14,438,0.1,"stim/24.jpeg",2,4,3,1,"Instruments",2,4,"right","left",0.450000048,0,0,1,0,145,14,1,0.1,2,"stim/24.jpeg",2,4,"stim/24.jpeg",4,"left",0.820000172,4,4,1.246999979,3,2.437000036,145,1,1,1,0,0,1
"482","stim/objects/Instruments/flutetrans.png",446,14,439,0.9,"stim/12.jpeg",1,2,3,2,"Instruments",2,4,"right","right",0.412999868,1,1,1,0,NA,NA,NA,NA,NA,NA,NA,NA,NA,NA,NA,NA,NA,NA,NA,NA,NA,NA,NA,NA,NA,NA,NA,NA
"542","stim/objects/Instruments/guitarcase2.png",447,14,440,0.9,"stim/14.jpeg",1,4,3,1,"Instruments",2,4,"right","right",0.377000093,1,1,1,0,29,14,1,0.9,2,"stim/14.jpeg",1,4,"stim/14.jpeg",4,"left",1.263999939,4,3,1.812999964,4,1.696000099,29,1,0,0,1,1,1
"432","stim/objects/Instruments/clarinet2.png",448,14,441,0.3,"stim/61.jpeg",6,1,2,1,"Instruments",2,3,"right","left",0.493000031,0,0,1,0,77,14,1,0.3,2,"stim/61.jpeg",6,1,"stim/61.jpeg",3,"right",0.894000053,2,3,0.950000048,4,0.894999981,77,0,0,NA,0,NA,1
"547","stim/objects/Instruments/hihat.png",449,14,442,0.5,"stim/31.jpeg",3,1,1,1,"Instruments",2,4,"right","right",0.386999846,1,1,1,0,89,14,1,0.5,1,"stim/31.jpeg",3,1,"stim/31.jpeg",4,"left",1.013000011,3,2,1.187999964,3,0.713000059,89,1,0,0,0,0,1
"429","stim/objects/Instruments/chime2.png",450,14,443,0.3,"stim/64.jpeg",6,4,2,1,"Instruments",2,1,"right","right",0.452000141,1,1,1,0,103,14,1,0.3,2,"stim/64.jpeg",6,4,"stim/64.jpeg",1,"left",0.980000019,4,3,2.104000092,1,2.017999887,103,1,0,0,1,1,1
"316","stim/objects/HouseObjects/dustpan.png",451,14,444,0.9,"stim/23.jpeg",2,3,3,2,"HouseObjects",1,1,"left","left",0.40199995,1,1,1,0,NA,NA,NA,NA,NA,NA,NA,NA,NA,NA,NA,NA,NA,NA,NA,NA,NA,NA,NA,NA,NA,NA,NA,NA
"523","stim/objects/Instruments/gong2.png",452,14,445,0.9,"stim/12.jpeg",1,2,3,1,"Instruments",2,2,"right","right",0.480000019,1,1,1,0,187,14,1,0.9,2,"stim/12.jpeg",1,2,"stim/12.jpeg",2,"right",0.95299983,4,4,1.039999962,4,0.516000032,187,0,0,NA,0,NA,1
"558","stim/objects/Instruments/metronome2.png",453,14,446,0.1,"stim/22.jpeg",2,2,3,1,"Instruments",2,3,"right","left",0.442000151,0,0,1,0,110,14,1,0.1,2,"stim/22.jpeg",2,2,"stim/22.jpeg",3,"left",1.662999868,3,3,2.212000132,4,1.480000019,110,1,0,0,0,0,1
"304","stim/objects/HouseObjects/doormat.png",454,14,447,0.9,"stim/24.jpeg",2,4,3,2,"HouseObjects",1,2,"left","left",0.675000191,1,1,1,0,NA,NA,NA,NA,NA,NA,NA,NA,NA,NA,NA,NA,NA,NA,NA,NA,NA,NA,NA,NA,NA,NA,NA,NA
"533","stim/objects/Instruments/grandpiano.png",455,14,448,0.9,"stim/12.jpeg",1,2,3,2,"Instruments",2,2,"right","right",0.506999969,1,1,1,0,NA,NA,NA,NA,NA,NA,NA,NA,NA,NA,NA,NA,NA,NA,NA,NA,NA,NA,NA,NA,NA,NA,NA,NA
"443","stim/objects/Instruments/doublebass2.png",456,14,449,0.3,"stim/64.jpeg",6,4,2,1,"Instruments",2,2,"right","left",0.605999947,0,0,1,0,28,14,1,0.3,2,"stim/64.jpeg",6,4,"stim/64.jpeg",2,"right",0.855000019,4,4,1.687999964,4,0.653000116,28,0,1,NA,0,NA,1
"269","stim/objects/HouseObjects/clock.png",457,14,450,0.5,"stim/43.jpeg",4,3,1,2,"HouseObjects",1,1,"left","right",0.460999966,0,0,1,0,NA,NA,NA,NA,NA,NA,NA,NA,NA,NA,NA,NA,NA,NA,NA,NA,NA,NA,NA,NA,NA,NA,NA,NA
"418","stim/objects/Instruments/bassdrum.png",458,14,451,0.5,"stim/31.jpeg",3,1,1,2,"Instruments",2,1,"right","right",0.572000027,1,1,1,0,NA,NA,NA,NA,NA,NA,NA,NA,NA,NA,NA,NA,NA,NA,NA,NA,NA,NA,NA,NA,NA,NA,NA,NA
"246","stim/objects/HouseObjects/ballofstring2.png",459,14,452,0.3,"stim/53.jpeg",5,3,2,1,"HouseObjects",1,3,"left","right",0.529000044,0,0,1,0,81,14,1,0.3,1,"stim/53.jpeg",5,3,"stim/53.jpeg",3,"left",1.134000063,4,3,2.169999838,3,1.260999918,81,1,1,1,1,1,1
"356","stim/objects/HouseObjects/garbagebin.png",460,14,453,0.9,"stim/22.jpeg",2,2,3,2,"HouseObjects",1,1,"left","right",0.507999897,0,0,1,0,NA,NA,NA,NA,NA,NA,NA,NA,NA,NA,NA,NA,NA,NA,NA,NA,NA,NA,NA,NA,NA,NA,NA,NA
"552","stim/objects/Instruments/laud2.png",461,14,454,0.1,"stim/23.jpeg",2,3,3,1,"Instruments",2,4,"right","left",0.45600009,0,0,1,0,195,14,1,0.1,2,"stim/23.jpeg",2,3,"stim/23.jpeg",4,"right",0.708000183,2,3,1.446000099,1,1.273999929,195,0,1,NA,0,NA,1
"520","stim/objects/Instruments/gong.png",462,14,455,0.9,"stim/14.jpeg",1,4,3,2,"Instruments",2,4,"right","right",0.623000145,1,1,1,0,NA,NA,NA,NA,NA,NA,NA,NA,NA,NA,NA,NA,NA,NA,NA,NA,NA,NA,NA,NA,NA,NA,NA,NA
"521","stim/objects/Instruments/gong.png",463,14,456,0.9,"stim/14.jpeg",1,4,3,2,"Instruments",2,3,"right","right",0.524000168,1,1,1,0,NA,NA,NA,NA,NA,NA,NA,NA,NA,NA,NA,NA,NA,NA,NA,NA,NA,NA,NA,NA,NA,NA,NA,NA
"439","stim/objects/Instruments/cymbal2.png",464,14,457,0.3,"stim/63.jpeg",6,3,2,1,"Instruments",2,3,"right","left",0.570000172,0,0,1,0,150,14,1,0.3,2,"stim/63.jpeg",6,3,"stim/63.jpeg",3,"left",1.319999933,3,3,1.927999973,4,1.630000114,150,1,1,1,0,0,1
"281","stim/objects/HouseObjects/coffee.png",465,14,458,0.7,"stim/64.jpeg",6,4,2,2,"HouseObjects",1,2,"left","left",0.602999926,1,1,1,0,NA,NA,NA,NA,NA,NA,NA,NA,NA,NA,NA,NA,NA,NA,NA,NA,NA,NA,NA,NA,NA,NA,NA,NA
"274","stim/objects/HouseObjects/clothesdryingrack2.png",466,14,459,0.7,"stim/61.jpeg",6,1,2,1,"HouseObjects",1,4,"left","left",0.461999893,1,1,1,0,160,14,1,0.7,1,"stim/61.jpeg",6,1,"stim/61.jpeg",4,"left",1.372999907,4,3,1.506000042,4,0.789000034,160,1,0,0,1,1,1
