"","participant","trialN","trial_cond","scn_file","scn_cat","scn_inst","scn_condition","fillers","obj_cat","obj_cat_num","obj_file","quadrant","corr_ans","key_resp_trial.keys","key_resp_trial.rt","trial_acc","trial_acc_manual","group"
"248",14,241,0.9,"stim/14.jpeg",1,4,3,2,"Instruments",2,"stim/objects/Instruments/gong.png",4,"right","right",0.861000061,1,1,1
"249",14,242,0.1,"stim/22.jpeg",2,2,3,1,"Instruments",2,"stim/objects/Instruments/panflute2.png",1,"right","left",0.672999859,0,0,1
"250",14,243,0.7,"stim/64.jpeg",6,4,2,1,"HouseObjects",1,"stim/objects/HouseObjects/clock2.png",1,"left","right",0.645999908,0,0,1
"251",14,244,0.7,"stim/54.jpeg",5,4,2,1,"Instruments",2,"stim/objects/Instruments/acousticguitar2.png",1,"right","right",0.639999866,1,1,1
"252",14,245,0.5,"stim/41.jpeg",4,1,1,2,"Instruments",2,"stim/objects/Instruments/chime.png",2,"right","right",0.704999924,1,1,1
"253",14,246,0.3,"stim/51.jpeg",5,1,2,1,"HouseObjects",1,"stim/objects/HouseObjects/rubbergloves.png",1,"left","right",0.566999912,0,0,1
"254",14,247,0.9,"stim/14.jpeg",1,4,3,1,"Instruments",2,"stim/objects/Instruments/flutetrans2.png",4,"right","right",0.630999804,1,1,1
"255",14,248,0.9,"stim/12.jpeg",1,2,3,2,"Instruments",2,"stim/objects/Instruments/frenchhorn.png",3,"right","right",0.78000021,1,1,1
"256",14,249,0.5,"stim/32.jpeg",3,2,1,1,"Instruments",2,"stim/objects/Instruments/keyboard.png",2,"right","right",0.440000057,1,1,1
"257",14,250,0.1,"stim/11.jpeg",1,1,3,1,"HouseObjects",1,"stim/objects/HouseObjects/doormat2.png",4,"left","right",0.467999935,0,0,1
"258",14,251,0.9,"stim/14.jpeg",1,4,3,1,"Instruments",2,"stim/objects/Instruments/keyboard2.png",2,"right","right",0.477999926,1,1,1
"259",14,252,0.9,"stim/22.jpeg",2,2,3,2,"HouseObjects",1,"stim/objects/HouseObjects/dustpan.png",1,"left","left",0.447999954,1,1,1
"260",14,253,0.5,"stim/44.jpeg",4,4,1,2,"HouseObjects",1,"stim/objects/HouseObjects/blender.png",2,"left","right",0.496999979,0,0,1
"261",14,254,0.9,"stim/14.jpeg",1,4,3,2,"Instruments",2,"stim/objects/Instruments/flute.png",4,"right","right",0.417999983,1,1,1
"262",14,255,0.9,"stim/14.jpeg",1,4,3,2,"Instruments",2,"stim/objects/Instruments/flute.png",4,"right","right",0.377000093,1,1,1
"263",14,256,0.9,"stim/21.jpeg",2,1,3,2,"HouseObjects",1,"stim/objects/HouseObjects/glass.png",1,"left","left",0.531000137,1,1,1
"264",14,257,0.9,"stim/12.jpeg",1,2,3,2,"Instruments",2,"stim/objects/Instruments/flute.png",2,"right","right",0.565999985,1,1,1
"265",14,258,0.5,"stim/32.jpeg",3,2,1,2,"HouseObjects",1,"stim/objects/HouseObjects/bleachbottle.png",3,"left","right",0.57400012,0,0,1
"266",14,259,0.9,"stim/12.jpeg",1,2,3,2,"Instruments",2,"stim/objects/Instruments/gong.png",2,"right","right",0.51699996,1,1,1
"267",14,260,0.9,"stim/24.jpeg",2,4,3,2,"HouseObjects",1,"stim/objects/HouseObjects/dustpan.png",1,"left","left",0.503999949,1,1,1
"268",14,261,0.1,"stim/23.jpeg",2,3,3,1,"Instruments",2,"stim/objects/Instruments/pipepiano2.png",3,"right","left",0.474999905,0,0,1
"269",14,262,0.9,"stim/11.jpeg",1,1,3,2,"Instruments",2,"stim/objects/Instruments/flute.png",4,"right","right",0.424999952,1,1,1
"270",14,263,0.9,"stim/11.jpeg",1,1,3,2,"Instruments",2,"stim/objects/Instruments/flutetrans.png",2,"right","right",0.426000118,1,1,1
"271",14,264,0.9,"stim/23.jpeg",2,3,3,2,"HouseObjects",1,"stim/objects/HouseObjects/garbagebin.png",1,"left","left",0.51699996,1,1,1
"272",14,265,0.9,"stim/22.jpeg",2,2,3,2,"HouseObjects",1,"stim/objects/HouseObjects/garbagebin.png",2,"left","left",0.459000111,1,1,1
"273",14,266,0.7,"stim/51.jpeg",5,1,2,2,"Instruments",2,"stim/objects/Instruments/drums.png",2,"right","right",0.398999929,1,1,1
"274",14,267,0.7,"stim/63.jpeg",6,3,2,2,"HouseObjects",1,"stim/objects/HouseObjects/clothesdryingrack.png",2,"left","left",0.644000053,1,1,1
"275",14,268,0.9,"stim/13.jpeg",1,3,3,2,"Instruments",2,"stim/objects/Instruments/flutetrans.png",2,"right","right",0.468000174,1,1,1
"276",14,269,0.9,"stim/22.jpeg",2,2,3,2,"HouseObjects",1,"stim/objects/HouseObjects/glass.png",4,"left","left",0.398000002,1,1,1
"277",14,270,0.7,"stim/61.jpeg",6,1,2,2,"HouseObjects",1,"stim/objects/HouseObjects/clothesdryingrack.png",2,"left","right",0.373999834,0,0,1
"278",14,271,0.9,"stim/21.jpeg",2,1,3,2,"HouseObjects",1,"stim/objects/HouseObjects/flyswatter.png",3,"left","left",0.551000118,1,1,1
"279",14,272,0.9,"stim/11.jpeg",1,1,3,2,"Instruments",2,"stim/objects/Instruments/grandpiano.png",3,"right","right",0.599000216,1,1,1
"280",14,273,0.5,"stim/31.jpeg",3,1,1,2,"HouseObjects",1,"stim/objects/HouseObjects/basket.png",3,"left","left",0.711999893,1,1,1
"281",14,274,0.9,"stim/11.jpeg",1,1,3,2,"Instruments",2,"stim/objects/Instruments/flute.png",2,"right","right",0.528000116,1,1,1
"282",14,275,0.9,"stim/12.jpeg",1,2,3,2,"Instruments",2,"stim/objects/Instruments/grandpiano.png",4,"right","right",0.480999947,1,1,1
"283",14,276,0.9,"stim/24.jpeg",2,4,3,2,"HouseObjects",1,"stim/objects/HouseObjects/doormat.png",3,"left","left",0.484999895,1,1,1
"284",14,277,0.5,"stim/42.jpeg",4,2,1,2,"HouseObjects",1,"stim/objects/HouseObjects/bucket.png",4,"left","right",0.417999983,0,0,1
"285",14,278,0.9,"stim/13.jpeg",1,3,3,2,"Instruments",2,"stim/objects/Instruments/frenchhorn.png",2,"right","right",0.454999924,1,1,1
"286",14,279,0.9,"stim/24.jpeg",2,4,3,1,"HouseObjects",1,"stim/objects/HouseObjects/lintroller2.png",4,"left","right",0.394999981,0,0,1
"287",14,280,0.3,"stim/51.jpeg",5,1,2,1,"HouseObjects",1,"stim/objects/HouseObjects/pan.png",4,"left","right",0.693000078,0,0,1
"288",14,281,0.9,"stim/23.jpeg",2,3,3,2,"HouseObjects",1,"stim/objects/HouseObjects/flyswatter.png",1,"left","left",0.421000004,1,1,1
"289",14,282,0.5,"stim/44.jpeg",4,4,1,2,"HouseObjects",1,"stim/objects/HouseObjects/clock.png",1,"left","right",0.394000053,0,0,1
"290",14,283,0.1,"stim/24.jpeg",2,4,3,1,"Instruments",2,"stim/objects/Instruments/record2.png",3,"right","left",0.476000071,0,0,1
"291",14,284,0.9,"stim/12.jpeg",1,2,3,2,"Instruments",2,"stim/objects/Instruments/grandpiano.png",2,"right","right",0.552999973,1,1,1
"292",14,285,0.7,"stim/53.jpeg",5,3,2,1,"Instruments",2,"stim/objects/Instruments/bassdrum2.png",2,"right","right",0.485000134,1,1,1
"293",14,286,0.5,"stim/43.jpeg",4,3,1,2,"HouseObjects",1,"stim/objects/HouseObjects/bucket.png",3,"left","left",0.417999983,1,1,1
"294",14,287,0.9,"stim/13.jpeg",1,3,3,2,"Instruments",2,"stim/objects/Instruments/flutetrans.png",4,"right","right",0.40199995,1,1,1
"295",14,288,0.7,"stim/62.jpeg",6,2,2,1,"HouseObjects",1,"stim/objects/HouseObjects/broom2.png",2,"left","left",0.657999992,1,1,1
"296",14,289,0.5,"stim/44.jpeg",4,4,1,1,"Instruments",2,"stim/objects/Instruments/musicsheet.png",2,"right","left",0.730999947,0,0,1
"297",14,290,0.7,"stim/51.jpeg",5,1,2,1,"Instruments",2,"stim/objects/Instruments/pipepiano.png",4,"right","right",0.445999861,1,1,1
"298",14,291,0.5,"stim/42.jpeg",4,2,1,2,"Instruments",2,"stim/objects/Instruments/cornet.png",3,"right","right",0.815999985,1,1,1
"299",14,292,0.5,"stim/42.jpeg",4,2,1,2,"HouseObjects",1,"stim/objects/HouseObjects/broom.png",1,"left","right",0.486999989,0,0,1
"300",14,293,0.9,"stim/22.jpeg",2,2,3,2,"HouseObjects",1,"stim/objects/HouseObjects/dustpan.png",1,"left","left",0.516000032,1,1,1
"301",14,294,0.9,"stim/24.jpeg",2,4,3,2,"HouseObjects",1,"stim/objects/HouseObjects/glass.png",1,"left","left",0.472999811,1,1,1
"302",14,295,0.9,"stim/21.jpeg",2,1,3,2,"HouseObjects",1,"stim/objects/HouseObjects/dustpan.png",2,"left","left",0.445999861,1,1,1
"303",14,296,0.9,"stim/24.jpeg",2,4,3,2,"HouseObjects",1,"stim/objects/HouseObjects/flyswatter.png",4,"left","left",0.445000172,1,1,1
"304",14,297,0.9,"stim/22.jpeg",2,2,3,2,"HouseObjects",1,"stim/objects/HouseObjects/flyswatter.png",2,"left","left",0.45299983,1,1,1
"305",14,298,0.9,"stim/12.jpeg",1,2,3,2,"Instruments",2,"stim/objects/Instruments/gong.png",1,"right","right",0.55700016,1,1,1
"306",14,299,0.3,"stim/53.jpeg",5,3,2,1,"HouseObjects",1,"stim/objects/HouseObjects/recyclingbin.png",1,"left","right",0.482000113,0,0,1
"307",14,300,0.9,"stim/23.jpeg",2,3,3,2,"HouseObjects",1,"stim/objects/HouseObjects/garbagebin.png",3,"left","left",0.434000015,1,1,1
"308",14,301,0.9,"stim/23.jpeg",2,3,3,2,"HouseObjects",1,"stim/objects/HouseObjects/garbagebin.png",2,"left","left",0.422999859,1,1,1
"309",14,302,0.9,"stim/13.jpeg",1,3,3,2,"Instruments",2,"stim/objects/Instruments/frenchhorn.png",1,"right","right",0.569000006,1,1,1
"310",14,303,0.9,"stim/24.jpeg",2,4,3,1,"HouseObjects",1,"stim/objects/HouseObjects/recyclingbin2.png",1,"left","left",0.513000011,1,1,1
"311",14,304,0.5,"stim/43.jpeg",4,3,1,2,"Instruments",2,"stim/objects/Instruments/cornet.png",4,"right","right",0.480000019,1,1,1
"312",14,305,0.1,"stim/24.jpeg",2,4,3,1,"Instruments",2,"stim/objects/Instruments/musicstand2.png",3,"right","left",0.547999859,0,0,1
"313",14,306,0.9,"stim/23.jpeg",2,3,3,2,"HouseObjects",1,"stim/objects/HouseObjects/flyswatter.png",3,"left","left",0.421999931,1,1,1
"314",14,307,0.7,"stim/54.jpeg",5,4,2,1,"Instruments",2,"stim/objects/Instruments/panflute.png",4,"right","right",0.351999998,1,1,1
"315",14,308,0.5,"stim/41.jpeg",4,1,1,2,"HouseObjects",1,"stim/objects/HouseObjects/bottle.png",2,"left","right",0.462000132,0,0,1
"316",14,309,0.9,"stim/23.jpeg",2,3,3,2,"HouseObjects",1,"stim/objects/HouseObjects/flyswatter.png",4,"left","left",0.657999992,1,1,1
"317",14,310,0.5,"stim/32.jpeg",3,2,1,2,"HouseObjects",1,"stim/objects/HouseObjects/ballofstring.png",3,"left","right",0.552000046,0,0,1
"318",14,311,0.9,"stim/21.jpeg",2,1,3,2,"HouseObjects",1,"stim/objects/HouseObjects/garbagebin.png",3,"left","left",0.513000011,1,1,1
"319",14,312,0.7,"stim/53.jpeg",5,3,2,1,"Instruments",2,"stim/objects/Instruments/accordion2.png",4,"right","right",0.385999918,1,1,1
"320",14,313,0.7,"stim/53.jpeg",5,3,2,2,"Instruments",2,"stim/objects/Instruments/electricguitar.png",4,"right","right",0.403000116,1,1,1
"321",14,314,0.9,"stim/22.jpeg",2,2,3,2,"HouseObjects",1,"stim/objects/HouseObjects/doormat.png",2,"left","left",0.500999928,1,1,1
"322",14,315,0.9,"stim/11.jpeg",1,1,3,2,"Instruments",2,"stim/objects/Instruments/gong.png",4,"right","right",0.585999966,1,1,1
"323",14,316,0.7,"stim/63.jpeg",6,3,2,1,"HouseObjects",1,"stim/objects/HouseObjects/bucket2.png",4,"left","right",0.437999964,0,0,1
"324",14,317,0.5,"stim/31.jpeg",3,1,1,2,"Instruments",2,"stim/objects/Instruments/accordion.png",4,"right","right",0.457000017,1,1,1
"325",14,318,0.5,"stim/31.jpeg",3,1,1,2,"HouseObjects",1,"stim/objects/HouseObjects/bleachbottle.png",3,"left","left",0.417000055,1,1,1
"326",14,319,0.5,"stim/41.jpeg",4,1,1,1,"HouseObjects",1,"stim/objects/HouseObjects/match.png",1,"left","right",0.519000053,0,0,1
"327",14,320,0.9,"stim/13.jpeg",1,3,3,2,"Instruments",2,"stim/objects/Instruments/gong.png",4,"right","right",0.46600008,1,1,1
"328",14,321,0.9,"stim/21.jpeg",2,1,3,2,"HouseObjects",1,"stim/objects/HouseObjects/dustpan.png",3,"left","left",0.490999937,1,1,1
"329",14,322,0.5,"stim/42.jpeg",4,2,1,1,"HouseObjects",1,"stim/objects/HouseObjects/key.png",4,"left","right",0.398000002,0,0,1
"330",14,323,0.5,"stim/32.jpeg",3,2,1,1,"HouseObjects",1,"stim/objects/HouseObjects/handvacuum.png",2,"left","right",0.411999941,0,0,1
"331",14,324,0.9,"stim/11.jpeg",1,1,3,2,"Instruments",2,"stim/objects/Instruments/flute.png",1,"right","right",0.527000189,1,1,1
"332",14,325,0.9,"stim/11.jpeg",1,1,3,2,"Instruments",2,"stim/objects/Instruments/grandpiano.png",3,"right","right",0.623000145,1,1,1
"333",14,326,0.9,"stim/23.jpeg",2,3,3,2,"HouseObjects",1,"stim/objects/HouseObjects/glass.png",1,"left","left",0.555999994,1,1,1
"334",14,327,0.9,"stim/14.jpeg",1,4,3,2,"Instruments",2,"stim/objects/Instruments/grandpiano.png",2,"right","right",0.46600008,1,1,1
"335",14,328,0.9,"stim/11.jpeg",1,1,3,2,"Instruments",2,"stim/objects/Instruments/grandpiano.png",1,"right","right",0.386999846,1,1,1
"336",14,329,0.7,"stim/63.jpeg",6,3,2,2,"HouseObjects",1,"stim/objects/HouseObjects/coffee.png",1,"left","right",0.394000053,0,0,1
"337",14,330,0.5,"stim/43.jpeg",4,3,1,1,"Instruments",2,"stim/objects/Instruments/metronome.png",3,"right","right",0.437999964,1,1,1
"338",14,331,0.9,"stim/11.jpeg",1,1,3,2,"Instruments",2,"stim/objects/Instruments/gong.png",3,"right","left",0.440999985,0,0,1
"339",14,332,0.9,"stim/22.jpeg",2,2,3,2,"HouseObjects",1,"stim/objects/HouseObjects/glass.png",3,"left","left",0.491999865,1,1,1
"340",14,333,0.9,"stim/23.jpeg",2,3,3,2,"HouseObjects",1,"stim/objects/HouseObjects/dustpan.png",4,"left","left",0.509000063,1,1,1
"341",14,334,0.9,"stim/23.jpeg",2,3,3,2,"HouseObjects",1,"stim/objects/HouseObjects/doormat.png",3,"left","left",0.376999855,1,1,1
"342",14,335,0.9,"stim/23.jpeg",2,3,3,2,"HouseObjects",1,"stim/objects/HouseObjects/glass.png",1,"left","left",0.38499999,1,1,1
"343",14,336,0.9,"stim/23.jpeg",2,3,3,2,"HouseObjects",1,"stim/objects/HouseObjects/glass.png",3,"left","left",0.39199996,1,1,1
"344",14,337,0.7,"stim/54.jpeg",5,4,2,2,"Instruments",2,"stim/objects/Instruments/doublebass.png",2,"right","right",0.368000031,1,1,1
"345",14,338,0.9,"stim/11.jpeg",1,1,3,2,"Instruments",2,"stim/objects/Instruments/flutetrans.png",3,"right","right",0.524000168,1,1,1
"346",14,339,0.9,"stim/21.jpeg",2,1,3,2,"HouseObjects",1,"stim/objects/HouseObjects/garbagebin.png",3,"left","left",0.59800005,1,1,1
"347",14,340,0.3,"stim/63.jpeg",6,3,2,1,"Instruments",2,"stim/objects/Instruments/cello2.png",4,"right","right",0.382999897,1,1,1
"348",14,341,0.7,"stim/63.jpeg",6,3,2,2,"HouseObjects",1,"stim/objects/HouseObjects/clothespin.png",2,"left","left",0.643000126,1,1,1
"349",14,342,0.5,"stim/31.jpeg",3,1,1,1,"HouseObjects",1,"stim/objects/HouseObjects/handbrush.png",4,"left","right",0.516000032,0,0,1
"350",14,343,0.9,"stim/21.jpeg",2,1,3,2,"HouseObjects",1,"stim/objects/HouseObjects/garbagebin.png",1,"left","left",0.508999825,1,1,1
"351",14,344,0.7,"stim/64.jpeg",6,4,2,2,"HouseObjects",1,"stim/objects/HouseObjects/cushion.png",3,"left","right",0.384000063,0,0,1
"352",14,345,0.1,"stim/13.jpeg",1,3,3,1,"HouseObjects",1,"stim/objects/HouseObjects/hairdryer2.png",4,"left","right",0.417999983,0,0,1
"353",14,346,0.9,"stim/21.jpeg",2,1,3,1,"HouseObjects",1,"stim/objects/HouseObjects/ironingboard2.png",4,"left","left",0.453999996,1,1,1
"354",14,347,0.9,"stim/24.jpeg",2,4,3,2,"HouseObjects",1,"stim/objects/HouseObjects/dustpan.png",1,"left","left",0.387000084,1,1,1
"355",14,348,0.3,"stim/61.jpeg",6,1,2,1,"Instruments",2,"stim/objects/Instruments/drums2.png",3,"right","left",0.644000053,0,0,1
"356",14,349,0.5,"stim/44.jpeg",4,4,1,1,"Instruments",2,"stim/objects/Instruments/laud.png",1,"right","right",0.450000048,1,1,1
"357",14,350,0.1,"stim/12.jpeg",1,2,3,1,"HouseObjects",1,"stim/objects/HouseObjects/dustpan2.png",2,"left","right",0.375999928,0,0,1
"358",14,351,0.9,"stim/21.jpeg",2,1,3,2,"HouseObjects",1,"stim/objects/HouseObjects/glass.png",1,"left","left",0.453999996,1,1,1
"359",14,352,0.7,"stim/52.jpeg",5,2,2,1,"Instruments",2,"stim/objects/Instruments/banjo2.png",1,"right","left",0.657000065,0,0,1
"360",14,353,0.5,"stim/34.jpeg",3,4,1,2,"HouseObjects",1,"stim/objects/HouseObjects/basket.png",4,"left","right",0.469000101,0,0,1
"361",14,354,0.1,"stim/21.jpeg",2,1,3,1,"Instruments",2,"stim/objects/Instruments/oboe2.png",4,"right","right",0.401000023,1,1,1
"362",14,355,0.9,"stim/13.jpeg",1,3,3,2,"Instruments",2,"stim/objects/Instruments/gong.png",2,"right","right",0.496999979,1,1,1
"363",14,356,0.7,"stim/52.jpeg",5,2,2,2,"Instruments",2,"stim/objects/Instruments/electricdrumset.png",3,"right","left",0.734999895,0,0,1
"364",14,357,0.9,"stim/24.jpeg",2,4,3,2,"HouseObjects",1,"stim/objects/HouseObjects/glass.png",1,"left","left",0.593000174,1,1,1
"365",14,358,0.5,"stim/33.jpeg",3,3,1,2,"Instruments",2,"stim/objects/Instruments/banjo.png",2,"right","right",0.461999893,1,1,1
"366",14,359,0.5,"stim/43.jpeg",4,3,1,1,"HouseObjects",1,"stim/objects/HouseObjects/knife.png",1,"left","right",0.474000216,0,0,1
"367",14,360,0.5,"stim/32.jpeg",3,2,1,1,"Instruments",2,"stim/objects/Instruments/guitarcase.png",2,"right","right",0.325999975,1,1,1
"368",14,361,0.9,"stim/12.jpeg",1,2,3,2,"Instruments",2,"stim/objects/Instruments/flute.png",2,"right","right",0.395999908,1,1,1
"369",14,362,0.3,"stim/51.jpeg",5,1,2,1,"HouseObjects",1,"stim/objects/HouseObjects/basket2.png",3,"left","left",0.437000036,1,1,1
"370",14,363,0.5,"stim/43.jpeg",4,3,1,2,"HouseObjects",1,"stim/objects/HouseObjects/blender.png",3,"left","left",0.595000029,1,1,1
"371",14,364,0.7,"stim/64.jpeg",6,4,2,1,"HouseObjects",1,"stim/objects/HouseObjects/blender2.png",2,"left","right",0.376000166,0,0,1
"372",14,365,0.9,"stim/22.jpeg",2,2,3,2,"HouseObjects",1,"stim/objects/HouseObjects/doormat.png",2,"left","left",0.649999857,1,1,1
"373",14,366,0.9,"stim/21.jpeg",2,1,3,2,"HouseObjects",1,"stim/objects/HouseObjects/doormat.png",3,"left","left",0.566999912,1,1,1
"374",14,367,0.5,"stim/34.jpeg",3,4,1,2,"Instruments",2,"stim/objects/Instruments/accordion.png",1,"right","right",0.592000008,1,1,1
"375",14,368,0.9,"stim/14.jpeg",1,4,3,2,"Instruments",2,"stim/objects/Instruments/flute.png",4,"right","right",0.461999893,1,1,1
"376",14,369,0.9,"stim/12.jpeg",1,2,3,2,"Instruments",2,"stim/objects/Instruments/grandpiano.png",3,"right","right",0.509000063,1,1,1
"377",14,370,0.9,"stim/12.jpeg",1,2,3,2,"Instruments",2,"stim/objects/Instruments/gong.png",4,"right","right",0.409999847,1,1,1
"378",14,371,0.9,"stim/11.jpeg",1,1,3,2,"Instruments",2,"stim/objects/Instruments/gong.png",2,"right","right",0.467999935,1,1,1
"379",14,372,0.1,"stim/21.jpeg",2,1,3,1,"Instruments",2,"stim/objects/Instruments/marimba2.png",2,"right","left",0.549999952,0,0,1
"380",14,373,0.7,"stim/52.jpeg",5,2,2,1,"Instruments",2,"stim/objects/Instruments/record.png",3,"right","right",0.426000118,1,1,1
"381",14,374,0.1,"stim/23.jpeg",2,3,3,1,"Instruments",2,"stim/objects/Instruments/musicsheet2.png",4,"right","right",0.447000027,1,1,1
"382",14,375,0.5,"stim/43.jpeg",4,3,1,2,"Instruments",2,"stim/objects/Instruments/bassguitar.png",4,"right","right",0.424000025,1,1,1
"383",14,376,0.9,"stim/21.jpeg",2,1,3,2,"HouseObjects",1,"stim/objects/HouseObjects/doormat.png",3,"left","left",0.407999992,1,1,1
"384",14,377,0.3,"stim/52.jpeg",5,2,2,1,"HouseObjects",1,"stim/objects/HouseObjects/ashtray2.png",3,"left","right",0.461999893,0,0,1
"385",14,378,0.9,"stim/12.jpeg",1,2,3,2,"Instruments",2,"stim/objects/Instruments/flute.png",4,"right","right",0.473999977,1,1,1
"386",14,379,0.5,"stim/31.jpeg",3,1,1,2,"HouseObjects",1,"stim/objects/HouseObjects/ashtray.png",1,"left","right",0.501000166,0,0,1
"387",14,380,0.9,"stim/11.jpeg",1,1,3,2,"Instruments",2,"stim/objects/Instruments/flutetrans.png",3,"right","right",0.43200016,1,1,1
"388",14,381,0.7,"stim/62.jpeg",6,2,2,1,"HouseObjects",1,"stim/objects/HouseObjects/clothespin2.png",4,"left","right",0.471000195,0,0,1
"389",14,382,0.9,"stim/13.jpeg",1,3,3,2,"Instruments",2,"stim/objects/Instruments/flutetrans.png",2,"right","right",0.54399991,1,1,1
"390",14,383,0.9,"stim/12.jpeg",1,2,3,2,"Instruments",2,"stim/objects/Instruments/flutetrans.png",3,"right","right",0.568000078,1,1,1
"391",14,384,0.9,"stim/23.jpeg",2,3,3,2,"HouseObjects",1,"stim/objects/HouseObjects/garbagebin.png",3,"left","left",0.509000063,1,1,1
"392",14,385,0.9,"stim/12.jpeg",1,2,3,2,"Instruments",2,"stim/objects/Instruments/frenchhorn.png",2,"right","right",0.479000092,1,1,1
"393",14,386,0.9,"stim/11.jpeg",1,1,3,1,"Instruments",2,"stim/objects/Instruments/frenchhorn2.png",1,"right","right",0.457999945,1,1,1
"394",14,387,0.9,"stim/13.jpeg",1,3,3,2,"Instruments",2,"stim/objects/Instruments/flute.png",2,"right","right",0.406999826,1,1,1
"395",14,388,0.9,"stim/24.jpeg",2,4,3,2,"HouseObjects",1,"stim/objects/HouseObjects/dustpan.png",4,"left","left",0.513000011,1,1,1
"396",14,389,0.9,"stim/13.jpeg",1,3,3,2,"Instruments",2,"stim/objects/Instruments/grandpiano.png",4,"right","right",0.491999865,1,1,1
"397",14,390,0.9,"stim/22.jpeg",2,2,3,2,"HouseObjects",1,"stim/objects/HouseObjects/garbagebin.png",2,"left","left",0.497999907,1,1,1
"398",14,391,0.5,"stim/44.jpeg",4,4,1,2,"HouseObjects",1,"stim/objects/HouseObjects/bottle.png",2,"left","right",0.439999819,0,0,1
"399",14,392,0.7,"stim/61.jpeg",6,1,2,2,"HouseObjects",1,"stim/objects/HouseObjects/coffee.png",1,"left","right",0.457999945,0,0,1
"400",14,393,0.3,"stim/54.jpeg",5,4,2,1,"HouseObjects",1,"stim/objects/HouseObjects/remote.png",3,"left","right",0.564999819,0,0,1
"401",14,394,0.9,"stim/13.jpeg",1,3,3,2,"Instruments",2,"stim/objects/Instruments/flute.png",2,"right","right",0.413999796,1,1,1
"402",14,395,0.9,"stim/21.jpeg",2,1,3,2,"HouseObjects",1,"stim/objects/HouseObjects/glass.png",1,"left","left",0.467000008,1,1,1
"403",14,396,0.7,"stim/53.jpeg",5,3,2,1,"Instruments",2,"stim/objects/Instruments/oboe.png",1,"right","right",0.424999952,1,1,1
"404",14,397,0.9,"stim/14.jpeg",1,4,3,2,"Instruments",2,"stim/objects/Instruments/grandpiano.png",2,"right","right",0.417000055,1,1,1
"405",14,398,0.9,"stim/24.jpeg",2,4,3,2,"HouseObjects",1,"stim/objects/HouseObjects/flyswatter.png",1,"left","left",0.424000025,1,1,1
"406",14,399,0.9,"stim/23.jpeg",2,3,3,2,"HouseObjects",1,"stim/objects/HouseObjects/glass.png",4,"left","left",0.562999964,1,1,1
"407",14,400,0.9,"stim/24.jpeg",2,4,3,2,"HouseObjects",1,"stim/objects/HouseObjects/doormat.png",2,"left","left",0.51699996,1,1,1
"408",14,401,0.9,"stim/11.jpeg",1,1,3,2,"Instruments",2,"stim/objects/Instruments/gong.png",1,"right","right",0.349999905,1,1,1
"409",14,402,0.9,"stim/22.jpeg",2,2,3,2,"HouseObjects",1,"stim/objects/HouseObjects/dustpan.png",1,"left","left",0.536999941,1,1,1
"410",14,403,0.5,"stim/34.jpeg",3,4,1,2,"Instruments",2,"stim/objects/Instruments/bassdrum.png",3,"right","right",0.378999949,1,1,1
"411",14,404,0.9,"stim/13.jpeg",1,3,3,2,"Instruments",2,"stim/objects/Instruments/gong.png",2,"right","right",0.530999899,1,1,1
"412",14,405,0.7,"stim/62.jpeg",6,2,2,2,"HouseObjects",1,"stim/objects/HouseObjects/cushion.png",3,"left","right",0.610999823,0,0,1
"413",14,406,0.9,"stim/12.jpeg",1,2,3,1,"Instruments",2,"stim/objects/Instruments/harp2.png",2,"right","right",0.677000046,1,1,1
"414",14,407,0.9,"stim/24.jpeg",2,4,3,2,"HouseObjects",1,"stim/objects/HouseObjects/garbagebin.png",1,"left","right",0.726000071,0,0,1
"415",14,408,0.1,"stim/14.jpeg",1,4,3,1,"HouseObjects",1,"stim/objects/HouseObjects/garbagebin2.png",3,"left","right",0.513000011,0,0,1
"416",14,409,0.5,"stim/44.jpeg",4,4,1,2,"Instruments",2,"stim/objects/Instruments/cello.png",4,"right","right",0.411000013,1,1,1
"417",14,410,0.9,"stim/11.jpeg",1,1,3,2,"Instruments",2,"stim/objects/Instruments/flutetrans.png",2,"right","right",0.518000126,1,1,1
"418",14,411,0.9,"stim/23.jpeg",2,3,3,1,"HouseObjects",1,"stim/objects/HouseObjects/knife2.png",3,"left","left",0.399000168,1,1,1
"419",14,412,0.9,"stim/21.jpeg",2,1,3,1,"HouseObjects",1,"stim/objects/HouseObjects/match2.png",2,"left","left",0.542000055,1,1,1
"420",14,413,0.7,"stim/62.jpeg",6,2,2,2,"HouseObjects",1,"stim/objects/HouseObjects/clothesdryingrack.png",4,"left","right",0.56799984,0,0,1
"421",14,414,0.7,"stim/64.jpeg",6,4,2,2,"HouseObjects",1,"stim/objects/HouseObjects/clothespin.png",3,"left","left",0.520999908,1,1,1
"422",14,415,0.9,"stim/24.jpeg",2,4,3,2,"HouseObjects",1,"stim/objects/HouseObjects/garbagebin.png",1,"left","left",0.460000038,1,1,1
"423",14,416,0.7,"stim/51.jpeg",5,1,2,2,"Instruments",2,"stim/objects/Instruments/doublebass.png",4,"right","right",0.375999928,1,1,1
"424",14,417,0.9,"stim/13.jpeg",1,3,3,1,"Instruments",2,"stim/objects/Instruments/flute2.png",3,"right","right",0.732000113,1,1,1
"425",14,418,0.1,"stim/12.jpeg",1,2,3,1,"HouseObjects",1,"stim/objects/HouseObjects/glassmop2.png",3,"left","right",0.542999983,0,0,1
"426",14,419,0.9,"stim/21.jpeg",2,1,3,2,"HouseObjects",1,"stim/objects/HouseObjects/flyswatter.png",1,"left","left",0.536000013,1,1,1
"427",14,420,0.9,"stim/14.jpeg",1,4,3,2,"Instruments",2,"stim/objects/Instruments/flute.png",2,"right","right",0.45600009,1,1,1
"428",14,421,0.9,"stim/23.jpeg",2,3,3,2,"HouseObjects",1,"stim/objects/HouseObjects/flyswatter.png",1,"left","left",0.491000175,1,1,1
"429",14,422,0.9,"stim/24.jpeg",2,4,3,2,"HouseObjects",1,"stim/objects/HouseObjects/flyswatter.png",3,"left","left",0.480000019,1,1,1
"430",14,423,0.7,"stim/61.jpeg",6,1,2,1,"HouseObjects",1,"stim/objects/HouseObjects/dishsoap2.png",1,"left","right",0.541000128,0,0,1
"431",14,424,0.9,"stim/23.jpeg",2,3,3,2,"HouseObjects",1,"stim/objects/HouseObjects/doormat.png",2,"left","right",0.450000048,0,0,1
"432",14,425,0.9,"stim/12.jpeg",1,2,3,2,"Instruments",2,"stim/objects/Instruments/gong.png",2,"right","left",0.920000076,0,0,1
"433",14,426,0.9,"stim/23.jpeg",2,3,3,2,"HouseObjects",1,"stim/objects/HouseObjects/dustpan.png",4,"left","left",0.538000107,1,1,1
"434",14,427,0.9,"stim/22.jpeg",2,2,3,1,"HouseObjects",1,"stim/objects/HouseObjects/pan2.png",3,"left","left",0.443000078,1,1,1
"435",14,428,0.3,"stim/52.jpeg",5,2,2,1,"HouseObjects",1,"stim/objects/HouseObjects/pitcher.png",2,"left","right",0.769999981,0,0,1
"436",14,429,0.5,"stim/42.jpeg",4,2,1,1,"Instruments",2,"stim/objects/Instruments/marimba.png",4,"right","right",0.437999964,1,1,1
"437",14,430,0.7,"stim/63.jpeg",6,3,2,1,"HouseObjects",1,"stim/objects/HouseObjects/coffee2.png",1,"left","left",0.573999882,1,1,1
"438",14,431,0.9,"stim/22.jpeg",2,2,3,2,"HouseObjects",1,"stim/objects/HouseObjects/flyswatter.png",1,"left","left",0.451999903,1,1,1
"439",14,432,0.9,"stim/14.jpeg",1,4,3,2,"Instruments",2,"stim/objects/Instruments/gong.png",1,"right","right",0.469000101,1,1,1
"440",14,433,0.9,"stim/13.jpeg",1,3,3,2,"Instruments",2,"stim/objects/Instruments/gong.png",3,"right","right",0.50999999,1,1,1
"441",14,434,0.5,"stim/33.jpeg",3,3,1,1,"Instruments",2,"stim/objects/Instruments/harmonica.png",3,"right","right",0.39199996,1,1,1
"442",14,435,0.9,"stim/12.jpeg",1,2,3,2,"Instruments",2,"stim/objects/Instruments/flutetrans.png",1,"right","right",0.467999935,1,1,1
"443",14,436,0.9,"stim/23.jpeg",2,3,3,2,"HouseObjects",1,"stim/objects/HouseObjects/doormat.png",4,"left","left",0.457999945,1,1,1
"444",14,437,0.5,"stim/42.jpeg",4,2,1,2,"Instruments",2,"stim/objects/Instruments/clarinet.png",2,"right","right",0.424000025,1,1,1
"445",14,438,0.1,"stim/24.jpeg",2,4,3,1,"Instruments",2,"stim/objects/Instruments/maraca2.png",4,"right","left",0.450000048,0,0,1
"446",14,439,0.9,"stim/12.jpeg",1,2,3,2,"Instruments",2,"stim/objects/Instruments/flutetrans.png",4,"right","right",0.412999868,1,1,1
"447",14,440,0.9,"stim/14.jpeg",1,4,3,1,"Instruments",2,"stim/objects/Instruments/guitarcase2.png",4,"right","right",0.377000093,1,1,1
"448",14,441,0.3,"stim/61.jpeg",6,1,2,1,"Instruments",2,"stim/objects/Instruments/clarinet2.png",3,"right","left",0.493000031,0,0,1
"449",14,442,0.5,"stim/31.jpeg",3,1,1,1,"Instruments",2,"stim/objects/Instruments/hihat.png",4,"right","right",0.386999846,1,1,1
"450",14,443,0.3,"stim/64.jpeg",6,4,2,1,"Instruments",2,"stim/objects/Instruments/chime2.png",1,"right","right",0.452000141,1,1,1
"451",14,444,0.9,"stim/23.jpeg",2,3,3,2,"HouseObjects",1,"stim/objects/HouseObjects/dustpan.png",1,"left","left",0.40199995,1,1,1
"452",14,445,0.9,"stim/12.jpeg",1,2,3,1,"Instruments",2,"stim/objects/Instruments/gong2.png",2,"right","right",0.480000019,1,1,1
"453",14,446,0.1,"stim/22.jpeg",2,2,3,1,"Instruments",2,"stim/objects/Instruments/metronome2.png",3,"right","left",0.442000151,0,0,1
"454",14,447,0.9,"stim/24.jpeg",2,4,3,2,"HouseObjects",1,"stim/objects/HouseObjects/doormat.png",2,"left","left",0.675000191,1,1,1
"455",14,448,0.9,"stim/12.jpeg",1,2,3,2,"Instruments",2,"stim/objects/Instruments/grandpiano.png",2,"right","right",0.506999969,1,1,1
"456",14,449,0.3,"stim/64.jpeg",6,4,2,1,"Instruments",2,"stim/objects/Instruments/doublebass2.png",2,"right","left",0.605999947,0,0,1
"457",14,450,0.5,"stim/43.jpeg",4,3,1,2,"HouseObjects",1,"stim/objects/HouseObjects/clock.png",1,"left","right",0.460999966,0,0,1
"458",14,451,0.5,"stim/31.jpeg",3,1,1,2,"Instruments",2,"stim/objects/Instruments/bassdrum.png",1,"right","right",0.572000027,1,1,1
"459",14,452,0.3,"stim/53.jpeg",5,3,2,1,"HouseObjects",1,"stim/objects/HouseObjects/ballofstring2.png",3,"left","right",0.529000044,0,0,1
"460",14,453,0.9,"stim/22.jpeg",2,2,3,2,"HouseObjects",1,"stim/objects/HouseObjects/garbagebin.png",1,"left","right",0.507999897,0,0,1
"461",14,454,0.1,"stim/23.jpeg",2,3,3,1,"Instruments",2,"stim/objects/Instruments/laud2.png",4,"right","left",0.45600009,0,0,1
"462",14,455,0.9,"stim/14.jpeg",1,4,3,2,"Instruments",2,"stim/objects/Instruments/gong.png",4,"right","right",0.623000145,1,1,1
"463",14,456,0.9,"stim/14.jpeg",1,4,3,2,"Instruments",2,"stim/objects/Instruments/gong.png",3,"right","right",0.524000168,1,1,1
"464",14,457,0.3,"stim/63.jpeg",6,3,2,1,"Instruments",2,"stim/objects/Instruments/cymbal2.png",3,"right","left",0.570000172,0,0,1
"465",14,458,0.7,"stim/64.jpeg",6,4,2,2,"HouseObjects",1,"stim/objects/HouseObjects/coffee.png",2,"left","left",0.602999926,1,1,1
"466",14,459,0.7,"stim/61.jpeg",6,1,2,1,"HouseObjects",1,"stim/objects/HouseObjects/clothesdryingrack2.png",4,"left","left",0.461999893,1,1,1
"467",14,460,0.7,"stim/62.jpeg",6,2,2,2,"HouseObjects",1,"stim/objects/HouseObjects/dishsoap.png",1,"left","left",0.667000055,1,1,1
"468",14,461,0.7,"stim/54.jpeg",5,4,2,2,"Instruments",2,"stim/objects/Instruments/electricdrumset.png",1,"right","right",0.508999825,1,1,1
"469",14,462,0.9,"stim/11.jpeg",1,1,3,2,"Instruments",2,"stim/objects/Instruments/frenchhorn.png",2,"right","right",0.428999901,1,1,1
"470",14,463,0.7,"stim/52.jpeg",5,2,2,2,"Instruments",2,"stim/objects/Instruments/doublebass.png",2,"right","right",0.509000063,1,1,1
"471",14,464,0.9,"stim/11.jpeg",1,1,3,2,"Instruments",2,"stim/objects/Instruments/frenchhorn.png",3,"right","right",0.449999809,1,1,1
"472",14,465,0.9,"stim/14.jpeg",1,4,3,2,"Instruments",2,"stim/objects/Instruments/flutetrans.png",4,"right","right",0.552999973,1,1,1
"473",14,466,0.9,"stim/21.jpeg",2,1,3,2,"HouseObjects",1,"stim/objects/HouseObjects/glass.png",4,"left","left",0.524999857,1,1,1
"474",14,467,0.5,"stim/44.jpeg",4,4,1,1,"HouseObjects",1,"stim/objects/HouseObjects/lintroller.png",1,"left","right",0.422999859,0,0,1
"475",14,468,0.9,"stim/14.jpeg",1,4,3,2,"Instruments",2,"stim/objects/Instruments/flutetrans.png",3,"right","right",0.551999807,1,1,1
"476",14,469,0.5,"stim/34.jpeg",3,4,1,2,"HouseObjects",1,"stim/objects/HouseObjects/barbecuelighter.png",1,"left","right",0.464999914,0,0,1
"477",14,470,0.9,"stim/22.jpeg",2,2,3,1,"HouseObjects",1,"stim/objects/HouseObjects/rubbergloves2.png",4,"left","left",0.494000196,1,1,1
"478",14,471,0.5,"stim/34.jpeg",3,4,1,1,"HouseObjects",1,"stim/objects/HouseObjects/hairdryer.png",3,"left","right",0.546000004,0,0,1
"479",14,472,0.5,"stim/33.jpeg",3,3,1,2,"Instruments",2,"stim/objects/Instruments/balalaika.png",4,"right","",NA,0,0,1
"480",14,473,0.9,"stim/22.jpeg",2,2,3,2,"HouseObjects",1,"stim/objects/HouseObjects/doormat.png",1,"left","left",0.473999977,1,1,1
"481",14,474,0.9,"stim/12.jpeg",1,2,3,2,"Instruments",2,"stim/objects/Instruments/frenchhorn.png",1,"right","right",0.430000067,1,1,1
"482",14,475,0.9,"stim/13.jpeg",1,3,3,2,"Instruments",2,"stim/objects/Instruments/grandpiano.png",4,"right","right",0.361999989,1,1,1
"483",14,476,0.9,"stim/21.jpeg",2,1,3,2,"HouseObjects",1,"stim/objects/HouseObjects/doormat.png",2,"left","right",0.26699996,0,0,1
"484",14,477,0.9,"stim/13.jpeg",1,3,3,1,"Instruments",2,"stim/objects/Instruments/grandpiano2.png",1,"right","left",0.4150002,0,0,1
"485",14,478,0.1,"stim/11.jpeg",1,1,3,1,"HouseObjects",1,"stim/objects/HouseObjects/handvacuum2.png",2,"left","right",0.365999937,0,0,1
"486",14,479,0.9,"stim/24.jpeg",2,4,3,2,"HouseObjects",1,"stim/objects/HouseObjects/flyswatter.png",4,"left","left",0.551000118,1,1,1
"487",14,480,0.9,"stim/13.jpeg",1,3,3,2,"Instruments",2,"stim/objects/Instruments/flute.png",3,"right","right",0.411999941,1,1,1
"488",14,481,0.5,"stim/42.jpeg",4,2,1,2,"Instruments",2,"stim/objects/Instruments/bassguitar.png",4,"right","right",0.421999931,1,1,1
"489",14,482,0.7,"stim/53.jpeg",5,3,2,2,"Instruments",2,"stim/objects/Instruments/drums.png",2,"right","left",0.468000174,0,0,1
"490",14,483,0.3,"stim/63.jpeg",6,3,2,1,"Instruments",2,"stim/objects/Instruments/electricguitar2.png",1,"right","left",0.595999956,0,0,1
"491",14,484,0.1,"stim/14.jpeg",1,4,3,1,"HouseObjects",1,"stim/objects/HouseObjects/handbrush2.png",2,"left","right",0.425000191,0,0,1
"492",14,485,0.9,"stim/21.jpeg",2,1,3,2,"HouseObjects",1,"stim/objects/HouseObjects/dustpan.png",3,"left","left",0.473999977,1,1,1
"493",14,486,0.7,"stim/54.jpeg",5,4,2,2,"Instruments",2,"stim/objects/Instruments/cymbal.png",3,"right","right",0.519999981,1,1,1
"494",14,487,0.9,"stim/14.jpeg",1,4,3,2,"Instruments",2,"stim/objects/Instruments/frenchhorn.png",1,"right","right",0.510999918,1,1,1
"495",14,488,0.9,"stim/14.jpeg",1,4,3,2,"Instruments",2,"stim/objects/Instruments/frenchhorn.png",4,"right","right",0.378999949,1,1,1
"496",14,489,0.9,"stim/13.jpeg",1,3,3,1,"Instruments",2,"stim/objects/Instruments/hihat2.png",3,"right","right",0.419000149,1,1,1
"497",14,490,0.7,"stim/61.jpeg",6,1,2,1,"HouseObjects",1,"stim/objects/HouseObjects/bottle2.png",4,"left","right",0.411999941,0,0,1
"498",14,491,0.9,"stim/21.jpeg",2,1,3,2,"HouseObjects",1,"stim/objects/HouseObjects/dustpan.png",4,"left","left",0.5849998,1,1,1
"499",14,492,0.9,"stim/11.jpeg",1,1,3,2,"Instruments",2,"stim/objects/Instruments/grandpiano.png",3,"right","right",0.45299983,1,1,1
"500",14,493,0.5,"stim/34.jpeg",3,4,1,1,"Instruments",2,"stim/objects/Instruments/harp.png",2,"right","right",0.488000154,1,1,1
"501",14,494,0.7,"stim/53.jpeg",5,3,2,2,"Instruments",2,"stim/objects/Instruments/cymbal.png",4,"right","right",0.389999866,1,1,1
"502",14,495,0.9,"stim/22.jpeg",2,2,3,2,"HouseObjects",1,"stim/objects/HouseObjects/doormat.png",4,"left","left",0.572999954,1,1,1
"503",14,496,0.9,"stim/14.jpeg",1,4,3,2,"Instruments",2,"stim/objects/Instruments/frenchhorn.png",1,"right","right",0.400000095,1,1,1
"504",14,497,0.9,"stim/22.jpeg",2,2,3,2,"HouseObjects",1,"stim/objects/HouseObjects/glass.png",3,"left","left",0.461000204,1,1,1
"505",14,498,0.3,"stim/62.jpeg",6,2,2,1,"Instruments",2,"stim/objects/Instruments/electricdrumset2.png",4,"right","right",0.348999977,1,1,1
"506",14,499,0.7,"stim/63.jpeg",6,3,2,2,"HouseObjects",1,"stim/objects/HouseObjects/dishsoap.png",4,"left","left",0.584000111,1,1,1
"507",14,500,0.9,"stim/21.jpeg",2,1,3,2,"HouseObjects",1,"stim/objects/HouseObjects/garbagebin.png",3,"left","left",0.577000141,1,1,1
"508",14,501,0.5,"stim/41.jpeg",4,1,1,2,"HouseObjects",1,"stim/objects/HouseObjects/broom.png",4,"left","right",0.350999832,0,0,1
"509",14,502,0.7,"stim/51.jpeg",5,1,2,2,"Instruments",2,"stim/objects/Instruments/electricguitar.png",1,"right","right",0.426000118,1,1,1
"510",14,503,0.7,"stim/61.jpeg",6,1,2,2,"HouseObjects",1,"stim/objects/HouseObjects/cushion.png",4,"left","left",0.51699996,1,1,1
"511",14,504,0.9,"stim/13.jpeg",1,3,3,2,"Instruments",2,"stim/objects/Instruments/grandpiano.png",2,"right","right",0.404000044,1,1,1
"512",14,505,0.5,"stim/33.jpeg",3,3,1,2,"HouseObjects",1,"stim/objects/HouseObjects/ballofstring.png",1,"left","right",0.517000198,0,0,1
"513",14,506,0.9,"stim/24.jpeg",2,4,3,2,"HouseObjects",1,"stim/objects/HouseObjects/dustpan.png",2,"left","left",0.552999973,1,1,1
"514",14,507,0.9,"stim/12.jpeg",1,2,3,2,"Instruments",2,"stim/objects/Instruments/flute.png",2,"right","right",0.480999947,1,1,1
"515",14,508,0.9,"stim/13.jpeg",1,3,3,2,"Instruments",2,"stim/objects/Instruments/frenchhorn.png",1,"right","right",0.492000103,1,1,1
"516",14,509,0.9,"stim/24.jpeg",2,4,3,2,"HouseObjects",1,"stim/objects/HouseObjects/garbagebin.png",3,"left","left",0.501999855,1,1,1
"517",14,510,0.7,"stim/51.jpeg",5,1,2,1,"Instruments",2,"stim/objects/Instruments/balalaika2.png",3,"right","right",0.46600008,1,1,1
"518",14,511,0.1,"stim/13.jpeg",1,3,3,1,"HouseObjects",1,"stim/objects/HouseObjects/flyswatter2.png",3,"left","left",0.605999947,1,1,1
"519",14,512,0.9,"stim/22.jpeg",2,2,3,2,"HouseObjects",1,"stim/objects/HouseObjects/glass.png",2,"left","left",0.561999798,1,1,1
"520",14,513,0.5,"stim/43.jpeg",4,3,1,2,"Instruments",2,"stim/objects/Instruments/cello.png",2,"right","right",0.479000092,1,1,1
"521",14,514,0.9,"stim/22.jpeg",2,2,3,2,"HouseObjects",1,"stim/objects/HouseObjects/dustpan.png",3,"left","left",0.427999973,1,1,1
"522",14,515,0.9,"stim/14.jpeg",1,4,3,2,"Instruments",2,"stim/objects/Instruments/flutetrans.png",1,"right","right",0.41899991,1,1,1
"523",14,516,0.7,"stim/51.jpeg",5,1,2,2,"Instruments",2,"stim/objects/Instruments/cymbal.png",3,"right","right",0.723999977,1,1,1
"524",14,517,0.9,"stim/22.jpeg",2,2,3,2,"HouseObjects",1,"stim/objects/HouseObjects/garbagebin.png",1,"left","left",0.4599998,1,1,1
"525",14,518,0.9,"stim/24.jpeg",2,4,3,2,"HouseObjects",1,"stim/objects/HouseObjects/doormat.png",4,"left","left",0.482000113,1,1,1
"526",14,519,0.9,"stim/24.jpeg",2,4,3,2,"HouseObjects",1,"stim/objects/HouseObjects/glass.png",4,"left","left",0.483999968,1,1,1
"527",14,520,0.9,"stim/11.jpeg",1,1,3,2,"Instruments",2,"stim/objects/Instruments/frenchhorn.png",4,"right","right",0.388999939,1,1,1
"528",14,521,0.9,"stim/14.jpeg",1,4,3,2,"Instruments",2,"stim/objects/Instruments/grandpiano.png",4,"right","right",0.411999941,1,1,1
"529",14,522,0.5,"stim/41.jpeg",4,1,1,1,"Instruments",2,"stim/objects/Instruments/maraca.png",3,"right","left",0.414000034,0,0,1
"530",14,523,0.5,"stim/33.jpeg",3,3,1,1,"HouseObjects",1,"stim/objects/HouseObjects/iron.png",2,"left","right",0.407999992,0,0,1
"531",14,524,0.5,"stim/34.jpeg",3,4,1,2,"Instruments",2,"stim/objects/Instruments/banjo.png",3,"right","right",0.709000111,1,1,1
"532",14,525,0.7,"stim/64.jpeg",6,4,2,1,"HouseObjects",1,"stim/objects/HouseObjects/cushion2.png",3,"left","left",0.601000071,1,1,1
"533",14,526,0.9,"stim/13.jpeg",1,3,3,2,"Instruments",2,"stim/objects/Instruments/flutetrans.png",3,"right","right",0.453000069,1,1,1
"534",14,527,0.9,"stim/14.jpeg",1,4,3,2,"Instruments",2,"stim/objects/Instruments/flutetrans.png",4,"right","right",0.457000017,1,1,1
"535",14,528,0.9,"stim/14.jpeg",1,4,3,2,"Instruments",2,"stim/objects/Instruments/grandpiano.png",4,"right","right",0.351999998,1,1,1
"536",14,529,0.3,"stim/54.jpeg",5,4,2,1,"HouseObjects",1,"stim/objects/HouseObjects/barbecuelighter2.png",1,"left","right",0.476000071,0,0,1
"537",14,530,0.1,"stim/11.jpeg",1,1,3,1,"HouseObjects",1,"stim/objects/HouseObjects/glass2.png",4,"left","right",0.433000088,0,0,1
"538",14,531,0.7,"stim/53.jpeg",5,3,2,2,"Instruments",2,"stim/objects/Instruments/electricdrumset.png",2,"right","right",0.447000027,1,1,1
"539",14,532,0.3,"stim/52.jpeg",5,2,2,1,"HouseObjects",1,"stim/objects/HouseObjects/bleachbottle2.png",4,"left","right",0.342000008,0,0,1
"540",14,533,0.5,"stim/32.jpeg",3,2,1,2,"Instruments",2,"stim/objects/Instruments/acousticguitar.png",3,"right","right",0.420000076,1,1,1
"541",14,534,0.9,"stim/14.jpeg",1,4,3,2,"Instruments",2,"stim/objects/Instruments/frenchhorn.png",1,"right","right",0.417000055,1,1,1
"542",14,535,0.5,"stim/33.jpeg",3,3,1,2,"HouseObjects",1,"stim/objects/HouseObjects/barbecuelighter.png",2,"left","right",0.375,0,0,1
"543",14,536,0.3,"stim/62.jpeg",6,2,2,1,"Instruments",2,"stim/objects/Instruments/cornet2.png",2,"right","right",0.386999846,1,1,1
"544",14,537,0.9,"stim/21.jpeg",2,1,3,1,"HouseObjects",1,"stim/objects/HouseObjects/remote2.png",2,"left","left",0.55099988,1,1,1
"545",14,538,0.9,"stim/22.jpeg",2,2,3,2,"HouseObjects",1,"stim/objects/HouseObjects/flyswatter.png",1,"left","left",0.493999958,1,1,1
"546",14,539,0.9,"stim/13.jpeg",1,3,3,2,"Instruments",2,"stim/objects/Instruments/frenchhorn.png",1,"right","right",0.501000166,1,1,1
"547",14,540,0.9,"stim/22.jpeg",2,2,3,2,"HouseObjects",1,"stim/objects/HouseObjects/flyswatter.png",3,"left","left",0.490999937,1,1,1
"548",14,541,0.5,"stim/41.jpeg",4,1,1,1,"HouseObjects",1,"stim/objects/HouseObjects/ironingboard.png",3,"left","right",0.411000013,0,0,1
"549",14,542,0.9,"stim/13.jpeg",1,3,3,2,"Instruments",2,"stim/objects/Instruments/grandpiano.png",1,"right","left",0.414999962,0,0,1
"550",14,543,0.9,"stim/13.jpeg",1,3,3,2,"Instruments",2,"stim/objects/Instruments/flute.png",4,"right","right",0.323999882,1,1,1
"551",14,544,0.9,"stim/22.jpeg",2,2,3,1,"HouseObjects",1,"stim/objects/HouseObjects/key2.png",3,"left","left",0.532000065,1,1,1
"552",14,545,0.9,"stim/12.jpeg",1,2,3,2,"Instruments",2,"stim/objects/Instruments/frenchhorn.png",2,"right","right",0.342000008,1,1,1
"553",14,546,0.3,"stim/62.jpeg",6,2,2,1,"Instruments",2,"stim/objects/Instruments/bassguitar2.png",3,"right","left",0.5,0,0,1
"554",14,547,0.9,"stim/11.jpeg",1,1,3,1,"Instruments",2,"stim/objects/Instruments/harmonica2.png",3,"right","right",0.529999971,1,1,1
"555",14,548,0.9,"stim/12.jpeg",1,2,3,2,"Instruments",2,"stim/objects/Instruments/flutetrans.png",1,"right","right",0.490999937,1,1,1
"556",14,549,0.5,"stim/44.jpeg",4,4,1,2,"Instruments",2,"stim/objects/Instruments/chime.png",1,"right","right",0.411000013,1,1,1
"557",14,550,0.9,"stim/24.jpeg",2,4,3,2,"HouseObjects",1,"stim/objects/HouseObjects/garbagebin.png",3,"left","left",0.559999943,1,1,1
"558",14,551,0.1,"stim/12.jpeg",1,2,3,1,"HouseObjects",1,"stim/objects/HouseObjects/iron2.png",4,"left","right",0.378000021,0,0,1
"559",14,552,0.7,"stim/52.jpeg",5,2,2,2,"Instruments",2,"stim/objects/Instruments/drums.png",1,"right","right",0.535000086,1,1,1
"560",14,553,0.9,"stim/23.jpeg",2,3,3,2,"HouseObjects",1,"stim/objects/HouseObjects/dustpan.png",4,"left","left",0.565000057,1,1,1
"561",14,554,0.9,"stim/24.jpeg",2,4,3,2,"HouseObjects",1,"stim/objects/HouseObjects/glass.png",4,"left","left",0.523999929,1,1,1
"562",14,555,0.9,"stim/21.jpeg",2,1,3,2,"HouseObjects",1,"stim/objects/HouseObjects/flyswatter.png",1,"left","left",0.552000046,1,1,1
"563",14,556,0.9,"stim/11.jpeg",1,1,3,2,"Instruments",2,"stim/objects/Instruments/flute.png",1,"right","right",0.542000055,1,1,1
"564",14,557,0.7,"stim/62.jpeg",6,2,2,2,"HouseObjects",1,"stim/objects/HouseObjects/clothespin.png",2,"left","left",0.618999958,1,1,1
"565",14,558,0.7,"stim/52.jpeg",5,2,2,1,"Instruments",2,"stim/objects/Instruments/musicstand.png",2,"right","right",0.5,1,1,1
"566",14,559,0.7,"stim/61.jpeg",6,1,2,2,"HouseObjects",1,"stim/objects/HouseObjects/dishsoap.png",3,"left","left",0.657000065,1,1,1
"567",14,560,0.9,"stim/23.jpeg",2,3,3,2,"HouseObjects",1,"stim/objects/HouseObjects/doormat.png",1,"left","left",0.494000196,1,1,1
"568",14,561,0.5,"stim/32.jpeg",3,2,1,2,"HouseObjects",1,"stim/objects/HouseObjects/ashtray.png",2,"left","right",0.371999979,0,0,1
"569",14,562,0.9,"stim/11.jpeg",1,1,3,2,"Instruments",2,"stim/objects/Instruments/frenchhorn.png",1,"right","right",0.445999861,1,1,1
"570",14,563,0.9,"stim/21.jpeg",2,1,3,2,"HouseObjects",1,"stim/objects/HouseObjects/flyswatter.png",3,"left","left",0.454999924,1,1,1
"571",14,564,0.9,"stim/23.jpeg",2,3,3,1,"HouseObjects",1,"stim/objects/HouseObjects/pitcher2.png",2,"left","left",0.444000006,1,1,1
"572",14,565,0.7,"stim/54.jpeg",5,4,2,2,"Instruments",2,"stim/objects/Instruments/electricguitar.png",1,"right","right",0.47300005,1,1,1
"573",14,566,0.5,"stim/32.jpeg",3,2,1,2,"Instruments",2,"stim/objects/Instruments/balalaika.png",1,"right","right",0.395000219,1,1,1
"574",14,567,0.5,"stim/31.jpeg",3,1,1,2,"Instruments",2,"stim/objects/Instruments/acousticguitar.png",4,"right","right",0.393000126,1,1,1
"575",14,568,0.5,"stim/33.jpeg",3,3,1,1,"HouseObjects",1,"stim/objects/HouseObjects/glassmop.png",1,"left","right",0.602999926,0,0,1
"576",14,569,0.5,"stim/41.jpeg",4,1,1,2,"Instruments",2,"stim/objects/Instruments/clarinet.png",4,"right","right",0.312999964,1,1,1
"577",14,570,0.9,"stim/21.jpeg",2,1,3,2,"HouseObjects",1,"stim/objects/HouseObjects/doormat.png",2,"left","left",0.510999918,1,1,1
