"","participant","trialN","trial_cond","scn_file","scn_cat","scn_inst","scn_condition","fillers","obj_cat","obj_cat_num","obj_file","quadrant","corr_ans","key_resp_trial.keys","key_resp_trial.rt","trial_acc","trial_acc_manual","group"
"248",79,241,0.7,"stim/64.jpeg",6,4,2,2,"HouseObjects",1,"stim/objects/HouseObjects/coffee.png",2,"left","left",0.839999914,1,1,1
"249",79,242,0.9,"stim/11.jpeg",1,1,3,2,"Instruments",2,"stim/objects/Instruments/flutetrans.png",3,"right","right",0.617000103,1,1,1
"250",79,243,0.9,"stim/23.jpeg",2,3,3,2,"HouseObjects",1,"stim/objects/HouseObjects/dustpan.png",4,"left","left",0.601999998,1,1,1
"251",79,244,0.9,"stim/22.jpeg",2,2,3,2,"HouseObjects",1,"stim/objects/HouseObjects/flyswatter.png",1,"left","right",0.523999929,0,0,1
"252",79,245,0.9,"stim/13.jpeg",1,3,3,2,"Instruments",2,"stim/objects/Instruments/flute.png",2,"right","right",0.387000084,1,1,1
"253",79,246,0.9,"stim/14.jpeg",1,4,3,1,"Instruments",2,"stim/objects/Instruments/guitarcase2.png",4,"right","left",0.492000103,0,0,1
"254",79,247,0.9,"stim/23.jpeg",2,3,3,2,"HouseObjects",1,"stim/objects/HouseObjects/flyswatter.png",1,"left","left",0.576999903,1,1,1
"255",79,248,0.5,"stim/43.jpeg",4,3,1,2,"HouseObjects",1,"stim/objects/HouseObjects/blender.png",3,"left","left",0.687000036,1,1,1
"256",79,249,0.9,"stim/13.jpeg",1,3,3,1,"Instruments",2,"stim/objects/Instruments/flute2.png",3,"right","right",0.545000076,1,1,1
"257",79,250,0.3,"stim/64.jpeg",6,4,2,1,"Instruments",2,"stim/objects/Instruments/doublebass2.png",2,"right","left",0.505000114,0,0,1
"258",79,251,0.9,"stim/14.jpeg",1,4,3,2,"Instruments",2,"stim/objects/Instruments/flutetrans.png",4,"right","right",0.675000191,1,1,1
"259",79,252,0.9,"stim/24.jpeg",2,4,3,2,"HouseObjects",1,"stim/objects/HouseObjects/dustpan.png",1,"left","left",0.531000137,1,1,1
"260",79,253,0.9,"stim/22.jpeg",2,2,3,2,"HouseObjects",1,"stim/objects/HouseObjects/doormat.png",4,"left","left",0.52699995,1,1,1
"261",79,254,0.9,"stim/13.jpeg",1,3,3,2,"Instruments",2,"stim/objects/Instruments/frenchhorn.png",2,"right","right",0.634000063,1,1,1
"262",79,255,0.9,"stim/13.jpeg",1,3,3,2,"Instruments",2,"stim/objects/Instruments/flutetrans.png",4,"right","right",0.568000078,1,1,1
"263",79,256,0.5,"stim/42.jpeg",4,2,1,2,"HouseObjects",1,"stim/objects/HouseObjects/bucket.png",4,"left","left",0.847000122,1,1,1
"264",79,257,0.5,"stim/31.jpeg",3,1,1,2,"HouseObjects",1,"stim/objects/HouseObjects/bleachbottle.png",3,"left","left",0.688999891,1,1,1
"265",79,258,0.9,"stim/24.jpeg",2,4,3,2,"HouseObjects",1,"stim/objects/HouseObjects/dustpan.png",2,"left","left",0.503000021,1,1,1
"266",79,259,0.9,"stim/21.jpeg",2,1,3,2,"HouseObjects",1,"stim/objects/HouseObjects/flyswatter.png",3,"left","",NA,0,0,1
"267",79,260,0.5,"stim/33.jpeg",3,3,1,2,"HouseObjects",1,"stim/objects/HouseObjects/barbecuelighter.png",2,"left","left",0.50999999,1,1,1
"268",79,261,0.9,"stim/24.jpeg",2,4,3,2,"HouseObjects",1,"stim/objects/HouseObjects/glass.png",1,"left","left",0.407999992,1,1,1
"269",79,262,0.9,"stim/11.jpeg",1,1,3,2,"Instruments",2,"stim/objects/Instruments/gong.png",2,"right","right",0.578000069,1,1,1
"270",79,263,0.9,"stim/23.jpeg",2,3,3,2,"HouseObjects",1,"stim/objects/HouseObjects/doormat.png",3,"left","left",0.460000038,1,1,1
"271",79,264,0.5,"stim/44.jpeg",4,4,1,2,"HouseObjects",1,"stim/objects/HouseObjects/blender.png",2,"left","left",0.467000008,1,1,1
"272",79,265,0.9,"stim/21.jpeg",2,1,3,2,"HouseObjects",1,"stim/objects/HouseObjects/flyswatter.png",1,"left","left",0.431999922,1,1,1
"273",79,266,0.3,"stim/54.jpeg",5,4,2,1,"HouseObjects",1,"stim/objects/HouseObjects/remote.png",3,"left","left",0.470000029,1,1,1
"274",79,267,0.9,"stim/21.jpeg",2,1,3,2,"HouseObjects",1,"stim/objects/HouseObjects/doormat.png",2,"left","left",0.434000015,1,1,1
"275",79,268,0.9,"stim/11.jpeg",1,1,3,2,"Instruments",2,"stim/objects/Instruments/gong.png",1,"right","right",0.503000021,1,1,1
"276",79,269,0.9,"stim/24.jpeg",2,4,3,2,"HouseObjects",1,"stim/objects/HouseObjects/doormat.png",2,"left","left",0.392999887,1,1,1
"277",79,270,0.5,"stim/32.jpeg",3,2,1,2,"Instruments",2,"stim/objects/Instruments/balalaika.png",1,"right","left",0.403000116,0,0,1
"278",79,271,0.5,"stim/41.jpeg",4,1,1,2,"HouseObjects",1,"stim/objects/HouseObjects/bottle.png",2,"left","left",0.56400013,1,1,1
"279",79,272,0.9,"stim/11.jpeg",1,1,3,2,"Instruments",2,"stim/objects/Instruments/frenchhorn.png",1,"right","right",0.513999939,1,1,1
"280",79,273,0.9,"stim/14.jpeg",1,4,3,2,"Instruments",2,"stim/objects/Instruments/grandpiano.png",2,"right","right",0.566000223,1,1,1
"281",79,274,0.7,"stim/63.jpeg",6,3,2,1,"HouseObjects",1,"stim/objects/HouseObjects/coffee2.png",1,"left","right",0.556999922,0,0,1
"282",79,275,0.9,"stim/13.jpeg",1,3,3,1,"Instruments",2,"stim/objects/Instruments/grandpiano2.png",1,"right","right",0.697999954,1,1,1
"283",79,276,0.7,"stim/54.jpeg",5,4,2,2,"Instruments",2,"stim/objects/Instruments/electricguitar.png",1,"right","left",0.717000008,0,0,1
"284",79,277,0.9,"stim/24.jpeg",2,4,3,2,"HouseObjects",1,"stim/objects/HouseObjects/dustpan.png",4,"left","left",0.535000086,1,1,1
"285",79,278,0.9,"stim/12.jpeg",1,2,3,2,"Instruments",2,"stim/objects/Instruments/flute.png",2,"right","right",0.558000088,1,1,1
"286",79,279,0.9,"stim/23.jpeg",2,3,3,2,"HouseObjects",1,"stim/objects/HouseObjects/glass.png",1,"left","left",0.638999939,1,1,1
"287",79,280,0.1,"stim/23.jpeg",2,3,3,1,"Instruments",2,"stim/objects/Instruments/laud2.png",4,"right","left",0.513000011,0,0,1
"288",79,281,0.9,"stim/11.jpeg",1,1,3,2,"Instruments",2,"stim/objects/Instruments/flutetrans.png",2,"right","right",0.592000008,1,1,1
"289",79,282,0.1,"stim/14.jpeg",1,4,3,1,"HouseObjects",1,"stim/objects/HouseObjects/garbagebin2.png",3,"left","right",0.56799984,0,0,1
"290",79,283,0.7,"stim/62.jpeg",6,2,2,2,"HouseObjects",1,"stim/objects/HouseObjects/dishsoap.png",1,"left","",NA,0,0,1
"291",79,284,0.7,"stim/64.jpeg",6,4,2,1,"HouseObjects",1,"stim/objects/HouseObjects/blender2.png",2,"left","left",0.556999922,1,1,1
"292",79,285,0.9,"stim/21.jpeg",2,1,3,2,"HouseObjects",1,"stim/objects/HouseObjects/glass.png",1,"left","left",0.486999989,1,1,1
"293",79,286,0.7,"stim/61.jpeg",6,1,2,2,"HouseObjects",1,"stim/objects/HouseObjects/clothesdryingrack.png",2,"left","left",0.722000122,1,1,1
"294",79,287,0.3,"stim/51.jpeg",5,1,2,1,"HouseObjects",1,"stim/objects/HouseObjects/basket2.png",3,"left","left",0.601000071,1,1,1
"295",79,288,0.9,"stim/11.jpeg",1,1,3,2,"Instruments",2,"stim/objects/Instruments/flutetrans.png",2,"right","right",0.519000053,1,1,1
"296",79,289,0.7,"stim/64.jpeg",6,4,2,1,"HouseObjects",1,"stim/objects/HouseObjects/cushion2.png",3,"left","left",0.513999939,1,1,1
"297",79,290,0.7,"stim/51.jpeg",5,1,2,2,"Instruments",2,"stim/objects/Instruments/cymbal.png",3,"right","right",0.572999954,1,1,1
"298",79,291,0.9,"stim/22.jpeg",2,2,3,2,"HouseObjects",1,"stim/objects/HouseObjects/glass.png",3,"left","left",0.608999968,1,1,1
"299",79,292,0.1,"stim/11.jpeg",1,1,3,1,"HouseObjects",1,"stim/objects/HouseObjects/handvacuum2.png",2,"left","right",0.427999973,0,0,1
"300",79,293,0.9,"stim/12.jpeg",1,2,3,2,"Instruments",2,"stim/objects/Instruments/frenchhorn.png",2,"right","left",0.450999975,0,0,1
"301",79,294,0.5,"stim/42.jpeg",4,2,1,1,"HouseObjects",1,"stim/objects/HouseObjects/key.png",4,"left","left",0.644000053,1,1,1
"302",79,295,0.9,"stim/14.jpeg",1,4,3,2,"Instruments",2,"stim/objects/Instruments/flute.png",4,"right","right",0.402000189,1,1,1
"303",79,296,0.3,"stim/61.jpeg",6,1,2,1,"Instruments",2,"stim/objects/Instruments/drums2.png",3,"right","left",0.327000141,0,0,1
"304",79,297,0.5,"stim/42.jpeg",4,2,1,2,"HouseObjects",1,"stim/objects/HouseObjects/broom.png",1,"left","left",0.548999786,1,1,1
"305",79,298,0.9,"stim/14.jpeg",1,4,3,2,"Instruments",2,"stim/objects/Instruments/frenchhorn.png",4,"right","left",0.687000036,0,0,1
"306",79,299,0.9,"stim/14.jpeg",1,4,3,2,"Instruments",2,"stim/objects/Instruments/grandpiano.png",4,"right","left",0.351000071,0,0,1
"307",79,300,0.9,"stim/11.jpeg",1,1,3,2,"Instruments",2,"stim/objects/Instruments/flutetrans.png",3,"right","right",0.743999958,1,1,1
"308",79,301,0.7,"stim/63.jpeg",6,3,2,2,"HouseObjects",1,"stim/objects/HouseObjects/coffee.png",1,"left","left",0.641000032,1,1,1
"309",79,302,0.5,"stim/44.jpeg",4,4,1,2,"Instruments",2,"stim/objects/Instruments/chime.png",1,"right","right",0.686000109,1,1,1
"310",79,303,0.9,"stim/24.jpeg",2,4,3,2,"HouseObjects",1,"stim/objects/HouseObjects/glass.png",4,"left","right",0.348999977,0,0,1
"311",79,304,0.9,"stim/22.jpeg",2,2,3,1,"HouseObjects",1,"stim/objects/HouseObjects/pan2.png",3,"left","left",0.416000128,1,1,1
"312",79,305,0.9,"stim/23.jpeg",2,3,3,2,"HouseObjects",1,"stim/objects/HouseObjects/flyswatter.png",1,"left","right",0.735999823,0,0,1
"313",79,306,0.5,"stim/42.jpeg",4,2,1,2,"Instruments",2,"stim/objects/Instruments/clarinet.png",2,"right","right",0.487999916,1,1,1
"314",79,307,0.9,"stim/12.jpeg",1,2,3,2,"Instruments",2,"stim/objects/Instruments/frenchhorn.png",1,"right","right",0.753999949,1,1,1
"315",79,308,0.9,"stim/22.jpeg",2,2,3,2,"HouseObjects",1,"stim/objects/HouseObjects/glass.png",3,"left","left",0.751999855,1,1,1
"316",79,309,0.1,"stim/14.jpeg",1,4,3,1,"HouseObjects",1,"stim/objects/HouseObjects/handbrush2.png",2,"left","right",0.528999805,0,0,1
"317",79,310,0.9,"stim/23.jpeg",2,3,3,2,"HouseObjects",1,"stim/objects/HouseObjects/doormat.png",1,"left","right",0.303999901,0,0,1
"318",79,311,0.7,"stim/52.jpeg",5,2,2,1,"Instruments",2,"stim/objects/Instruments/banjo2.png",1,"right","right",0.398999929,1,1,1
"319",79,312,0.9,"stim/13.jpeg",1,3,3,1,"Instruments",2,"stim/objects/Instruments/hihat2.png",3,"right","left",0.30099988,0,0,1
"320",79,313,0.7,"stim/51.jpeg",5,1,2,1,"Instruments",2,"stim/objects/Instruments/balalaika2.png",3,"right","right",0.297999859,1,1,1
"321",79,314,0.5,"stim/34.jpeg",3,4,1,2,"Instruments",2,"stim/objects/Instruments/bassdrum.png",3,"right","left",0.546000004,0,0,1
"322",79,315,0.5,"stim/31.jpeg",3,1,1,2,"Instruments",2,"stim/objects/Instruments/accordion.png",4,"right","right",0.26699996,1,1,1
"323",79,316,0.9,"stim/21.jpeg",2,1,3,2,"HouseObjects",1,"stim/objects/HouseObjects/dustpan.png",4,"left","left",0.56799984,1,1,1
"324",79,317,0.9,"stim/24.jpeg",2,4,3,2,"HouseObjects",1,"stim/objects/HouseObjects/glass.png",4,"left","right",0.460000038,0,0,1
"325",79,318,0.7,"stim/63.jpeg",6,3,2,1,"HouseObjects",1,"stim/objects/HouseObjects/bucket2.png",4,"left","right",0.227999926,0,0,1
"326",79,319,0.5,"stim/43.jpeg",4,3,1,2,"Instruments",2,"stim/objects/Instruments/cello.png",2,"right","right",0.481000185,1,1,1
"327",79,320,0.9,"stim/21.jpeg",2,1,3,2,"HouseObjects",1,"stim/objects/HouseObjects/doormat.png",2,"left","",NA,0,0,1
"328",79,321,0.7,"stim/53.jpeg",5,3,2,1,"Instruments",2,"stim/objects/Instruments/accordion2.png",4,"right","left",0.446999788,0,0,1
"329",79,322,0.9,"stim/21.jpeg",2,1,3,2,"HouseObjects",1,"stim/objects/HouseObjects/doormat.png",3,"left","left",0.434000015,1,1,1
"330",79,323,0.9,"stim/14.jpeg",1,4,3,2,"Instruments",2,"stim/objects/Instruments/flutetrans.png",4,"right","right",0.528000116,1,1,1
"331",79,324,0.9,"stim/12.jpeg",1,2,3,2,"Instruments",2,"stim/objects/Instruments/flutetrans.png",3,"right","right",0.545000076,1,1,1
"332",79,325,0.5,"stim/32.jpeg",3,2,1,1,"Instruments",2,"stim/objects/Instruments/keyboard.png",2,"right","left",0.523000002,0,0,1
"333",79,326,0.9,"stim/21.jpeg",2,1,3,2,"HouseObjects",1,"stim/objects/HouseObjects/flyswatter.png",3,"left","left",0.613999844,1,1,1
"334",79,327,0.9,"stim/14.jpeg",1,4,3,2,"Instruments",2,"stim/objects/Instruments/gong.png",4,"right","right",0.50999999,1,1,1
"335",79,328,0.7,"stim/63.jpeg",6,3,2,2,"HouseObjects",1,"stim/objects/HouseObjects/clothespin.png",2,"left","left",0.535000086,1,1,1
"336",79,329,0.5,"stim/41.jpeg",4,1,1,1,"Instruments",2,"stim/objects/Instruments/maraca.png",3,"right","",NA,0,0,1
"337",79,330,0.5,"stim/41.jpeg",4,1,1,2,"Instruments",2,"stim/objects/Instruments/clarinet.png",4,"right","",NA,0,0,1
"338",79,331,0.7,"stim/64.jpeg",6,4,2,1,"HouseObjects",1,"stim/objects/HouseObjects/clock2.png",1,"left","left",0.503999949,1,1,1
"339",79,332,0.5,"stim/34.jpeg",3,4,1,1,"HouseObjects",1,"stim/objects/HouseObjects/hairdryer.png",3,"left","right",0.444999933,0,0,1
"340",79,333,0.3,"stim/63.jpeg",6,3,2,1,"Instruments",2,"stim/objects/Instruments/electricguitar2.png",1,"right","left",0.437999964,0,0,1
"341",79,334,0.9,"stim/22.jpeg",2,2,3,2,"HouseObjects",1,"stim/objects/HouseObjects/garbagebin.png",1,"left","right",0.680000067,0,0,1
"342",79,335,0.9,"stim/21.jpeg",2,1,3,2,"HouseObjects",1,"stim/objects/HouseObjects/garbagebin.png",3,"left","left",0.655999899,1,1,1
"343",79,336,0.1,"stim/22.jpeg",2,2,3,1,"Instruments",2,"stim/objects/Instruments/panflute2.png",1,"right","right",0.813999891,1,1,1
"344",79,337,0.9,"stim/23.jpeg",2,3,3,2,"HouseObjects",1,"stim/objects/HouseObjects/glass.png",3,"left","left",0.656999826,1,1,1
"345",79,338,0.9,"stim/11.jpeg",1,1,3,2,"Instruments",2,"stim/objects/Instruments/grandpiano.png",3,"right","right",0.646000147,1,1,1
"346",79,339,0.9,"stim/12.jpeg",1,2,3,2,"Instruments",2,"stim/objects/Instruments/frenchhorn.png",2,"right","right",0.537000179,1,1,1
"347",79,340,0.7,"stim/61.jpeg",6,1,2,1,"HouseObjects",1,"stim/objects/HouseObjects/dishsoap2.png",1,"left","left",0.673000097,1,1,1
"348",79,341,0.9,"stim/14.jpeg",1,4,3,2,"Instruments",2,"stim/objects/Instruments/flute.png",4,"right","right",0.595000029,1,1,1
"349",79,342,0.5,"stim/41.jpeg",4,1,1,1,"HouseObjects",1,"stim/objects/HouseObjects/match.png",1,"left","left",0.726000071,1,1,1
"350",79,343,0.7,"stim/61.jpeg",6,1,2,2,"HouseObjects",1,"stim/objects/HouseObjects/dishsoap.png",3,"left","left",0.592999935,1,1,1
"351",79,344,0.7,"stim/63.jpeg",6,3,2,2,"HouseObjects",1,"stim/objects/HouseObjects/dishsoap.png",4,"left","right",0.36500001,0,0,1
"352",79,345,0.9,"stim/11.jpeg",1,1,3,1,"Instruments",2,"stim/objects/Instruments/frenchhorn2.png",1,"right","right",0.513000011,1,1,1
"353",79,346,0.7,"stim/54.jpeg",5,4,2,1,"Instruments",2,"stim/objects/Instruments/acousticguitar2.png",1,"right","right",0.27699995,1,1,1
"354",79,347,0.9,"stim/12.jpeg",1,2,3,2,"Instruments",2,"stim/objects/Instruments/grandpiano.png",4,"right","left",0.427999973,0,0,1
"355",79,348,0.5,"stim/42.jpeg",4,2,1,2,"Instruments",2,"stim/objects/Instruments/bassguitar.png",4,"right","left",0.576999903,0,0,1
"356",79,349,0.9,"stim/12.jpeg",1,2,3,2,"Instruments",2,"stim/objects/Instruments/grandpiano.png",3,"right","left",0.345999956,0,0,1
"357",79,350,0.9,"stim/14.jpeg",1,4,3,2,"Instruments",2,"stim/objects/Instruments/flute.png",2,"right","right",0.634000063,1,1,1
"358",79,351,0.1,"stim/22.jpeg",2,2,3,1,"Instruments",2,"stim/objects/Instruments/metronome2.png",3,"right","right",0.315999985,1,1,1
"359",79,352,0.9,"stim/13.jpeg",1,3,3,2,"Instruments",2,"stim/objects/Instruments/grandpiano.png",4,"right","left",0.551999807,0,0,1
"360",79,353,0.9,"stim/13.jpeg",1,3,3,2,"Instruments",2,"stim/objects/Instruments/flutetrans.png",2,"right","right",0.393999815,1,1,1
"361",79,354,0.9,"stim/11.jpeg",1,1,3,2,"Instruments",2,"stim/objects/Instruments/flute.png",1,"right","right",0.492000103,1,1,1
"362",79,355,0.9,"stim/24.jpeg",2,4,3,2,"HouseObjects",1,"stim/objects/HouseObjects/flyswatter.png",4,"left","left",0.464999914,1,1,1
"363",79,356,0.9,"stim/13.jpeg",1,3,3,2,"Instruments",2,"stim/objects/Instruments/grandpiano.png",2,"right","right",0.405999899,1,1,1
"364",79,357,0.9,"stim/24.jpeg",2,4,3,1,"HouseObjects",1,"stim/objects/HouseObjects/recyclingbin2.png",1,"left","left",0.489000082,1,1,1
"365",79,358,0.9,"stim/24.jpeg",2,4,3,2,"HouseObjects",1,"stim/objects/HouseObjects/flyswatter.png",3,"left","right",0.322000027,0,0,1
"366",79,359,0.9,"stim/21.jpeg",2,1,3,2,"HouseObjects",1,"stim/objects/HouseObjects/garbagebin.png",1,"left","right",0.210000038,0,0,1
"367",79,360,0.9,"stim/23.jpeg",2,3,3,2,"HouseObjects",1,"stim/objects/HouseObjects/garbagebin.png",1,"left","right",0.339999914,0,0,1
"368",79,361,0.7,"stim/52.jpeg",5,2,2,2,"Instruments",2,"stim/objects/Instruments/electricdrumset.png",3,"right","",NA,0,0,1
"369",79,362,0.5,"stim/41.jpeg",4,1,1,1,"HouseObjects",1,"stim/objects/HouseObjects/ironingboard.png",3,"left","left",0.46600008,1,1,1
"370",79,363,0.9,"stim/24.jpeg",2,4,3,2,"HouseObjects",1,"stim/objects/HouseObjects/doormat.png",2,"left","right",0.427999973,0,0,1
"371",79,364,0.5,"stim/44.jpeg",4,4,1,1,"HouseObjects",1,"stim/objects/HouseObjects/lintroller.png",1,"left","right",0.58100009,0,0,1
"372",79,365,0.9,"stim/12.jpeg",1,2,3,2,"Instruments",2,"stim/objects/Instruments/flutetrans.png",1,"right","right",0.897000074,1,1,1
"373",79,366,0.1,"stim/12.jpeg",1,2,3,1,"HouseObjects",1,"stim/objects/HouseObjects/dustpan2.png",2,"left","left",0.302000046,1,1,1
"374",79,367,0.9,"stim/11.jpeg",1,1,3,2,"Instruments",2,"stim/objects/Instruments/flute.png",4,"right","right",0.40199995,1,1,1
"375",79,368,0.9,"stim/21.jpeg",2,1,3,2,"HouseObjects",1,"stim/objects/HouseObjects/garbagebin.png",3,"left","right",0.338000059,0,0,1
"376",79,369,0.9,"stim/23.jpeg",2,3,3,2,"HouseObjects",1,"stim/objects/HouseObjects/doormat.png",4,"left","left",0.302000046,1,1,1
"377",79,370,0.9,"stim/14.jpeg",1,4,3,2,"Instruments",2,"stim/objects/Instruments/flutetrans.png",1,"right","right",0.489000082,1,1,1
"378",79,371,0.9,"stim/24.jpeg",2,4,3,2,"HouseObjects",1,"stim/objects/HouseObjects/flyswatter.png",1,"left","right",0.38499999,0,0,1
"379",79,372,0.7,"stim/53.jpeg",5,3,2,1,"Instruments",2,"stim/objects/Instruments/oboe.png",1,"right","left",0.375,0,0,1
"380",79,373,0.5,"stim/32.jpeg",3,2,1,2,"Instruments",2,"stim/objects/Instruments/acousticguitar.png",3,"right","left",0.392999887,0,0,1
"381",79,374,0.5,"stim/33.jpeg",3,3,1,1,"HouseObjects",1,"stim/objects/HouseObjects/glassmop.png",1,"left","right",0.486000061,0,0,1
"382",79,375,0.9,"stim/13.jpeg",1,3,3,2,"Instruments",2,"stim/objects/Instruments/flute.png",4,"right","left",0.292000055,0,0,1
"383",79,376,0.9,"stim/23.jpeg",2,3,3,2,"HouseObjects",1,"stim/objects/HouseObjects/garbagebin.png",3,"left","left",0.601000071,1,1,1
"384",79,377,0.7,"stim/62.jpeg",6,2,2,1,"HouseObjects",1,"stim/objects/HouseObjects/clothespin2.png",4,"left","left",0.674999952,1,1,1
"385",79,378,0.9,"stim/24.jpeg",2,4,3,2,"HouseObjects",1,"stim/objects/HouseObjects/flyswatter.png",4,"left","right",0.381999969,0,0,1
"386",79,379,0.7,"stim/61.jpeg",6,1,2,2,"HouseObjects",1,"stim/objects/HouseObjects/coffee.png",1,"left","right",0.578000069,0,0,1
"387",79,380,0.9,"stim/11.jpeg",1,1,3,1,"Instruments",2,"stim/objects/Instruments/harmonica2.png",3,"right","right",0.474999905,1,1,1
"388",79,381,0.5,"stim/34.jpeg",3,4,1,2,"Instruments",2,"stim/objects/Instruments/accordion.png",1,"right","left",0.327000141,0,0,1
"389",79,382,0.3,"stim/53.jpeg",5,3,2,1,"HouseObjects",1,"stim/objects/HouseObjects/recyclingbin.png",1,"left","left",0.366000175,1,1,1
"390",79,383,0.7,"stim/52.jpeg",5,2,2,2,"Instruments",2,"stim/objects/Instruments/drums.png",1,"right","right",0.517999887,1,1,1
"391",79,384,0.7,"stim/62.jpeg",6,2,2,2,"HouseObjects",1,"stim/objects/HouseObjects/clothespin.png",2,"left","left",0.512000084,1,1,1
"392",79,385,0.1,"stim/24.jpeg",2,4,3,1,"Instruments",2,"stim/objects/Instruments/maraca2.png",4,"right","right",0.404999971,1,1,1
"393",79,386,0.1,"stim/12.jpeg",1,2,3,1,"HouseObjects",1,"stim/objects/HouseObjects/iron2.png",4,"left","left",0.535000086,1,1,1
"394",79,387,0.3,"stim/51.jpeg",5,1,2,1,"HouseObjects",1,"stim/objects/HouseObjects/rubbergloves.png",1,"left","left",0.698999882,1,1,1
"395",79,388,0.9,"stim/12.jpeg",1,2,3,2,"Instruments",2,"stim/objects/Instruments/flute.png",2,"right","right",0.371999979,1,1,1
"396",79,389,0.9,"stim/22.jpeg",2,2,3,2,"HouseObjects",1,"stim/objects/HouseObjects/garbagebin.png",1,"left","left",0.605000019,1,1,1
"397",79,390,0.9,"stim/22.jpeg",2,2,3,2,"HouseObjects",1,"stim/objects/HouseObjects/dustpan.png",3,"left","right",0.282999992,0,0,1
"398",79,391,0.9,"stim/21.jpeg",2,1,3,2,"HouseObjects",1,"stim/objects/HouseObjects/dustpan.png",2,"left","left",0.657999992,1,1,1
"399",79,392,0.9,"stim/24.jpeg",2,4,3,2,"HouseObjects",1,"stim/objects/HouseObjects/doormat.png",4,"left","right",0.623000145,0,0,1
"400",79,393,0.5,"stim/32.jpeg",3,2,1,2,"HouseObjects",1,"stim/objects/HouseObjects/bleachbottle.png",3,"left","right",0.524000168,0,0,1
"401",79,394,0.7,"stim/61.jpeg",6,1,2,1,"HouseObjects",1,"stim/objects/HouseObjects/bottle2.png",4,"left","left",0.465000153,1,1,1
"402",79,395,0.3,"stim/61.jpeg",6,1,2,1,"Instruments",2,"stim/objects/Instruments/clarinet2.png",3,"right","left",0.289000034,0,0,1
"403",79,396,0.3,"stim/52.jpeg",5,2,2,1,"HouseObjects",1,"stim/objects/HouseObjects/pitcher.png",2,"left","right",0.702000141,0,0,1
"404",79,397,0.9,"stim/12.jpeg",1,2,3,2,"Instruments",2,"stim/objects/Instruments/frenchhorn.png",3,"right","right",0.328999996,1,1,1
"405",79,398,0.9,"stim/22.jpeg",2,2,3,2,"HouseObjects",1,"stim/objects/HouseObjects/doormat.png",2,"left","left",0.420000076,1,1,1
"406",79,399,0.9,"stim/23.jpeg",2,3,3,2,"HouseObjects",1,"stim/objects/HouseObjects/doormat.png",2,"left","right",0.345000029,0,0,1
"407",79,400,0.9,"stim/21.jpeg",2,1,3,2,"HouseObjects",1,"stim/objects/HouseObjects/glass.png",4,"left","left",0.657000065,1,1,1
"408",79,401,0.9,"stim/14.jpeg",1,4,3,2,"Instruments",2,"stim/objects/Instruments/frenchhorn.png",1,"right","right",0.460000038,1,1,1
"409",79,402,0.9,"stim/24.jpeg",2,4,3,2,"HouseObjects",1,"stim/objects/HouseObjects/garbagebin.png",1,"left","left",0.342999935,1,1,1
"410",79,403,0.3,"stim/51.jpeg",5,1,2,1,"HouseObjects",1,"stim/objects/HouseObjects/pan.png",4,"left","right",0.355000019,0,0,1
"411",79,404,0.5,"stim/32.jpeg",3,2,1,2,"HouseObjects",1,"stim/objects/HouseObjects/ballofstring.png",3,"left","right",0.578999996,0,0,1
"412",79,405,0.9,"stim/14.jpeg",1,4,3,2,"Instruments",2,"stim/objects/Instruments/frenchhorn.png",1,"right","right",0.39199996,1,1,1
"413",79,406,0.9,"stim/21.jpeg",2,1,3,1,"HouseObjects",1,"stim/objects/HouseObjects/match2.png",2,"left","left",0.647000074,1,1,1
"414",79,407,0.1,"stim/21.jpeg",2,1,3,1,"Instruments",2,"stim/objects/Instruments/oboe2.png",4,"right","left",0.569000006,0,0,1
"415",79,408,0.9,"stim/23.jpeg",2,3,3,2,"HouseObjects",1,"stim/objects/HouseObjects/glass.png",1,"left","left",0.607000113,1,1,1
"416",79,409,0.9,"stim/11.jpeg",1,1,3,2,"Instruments",2,"stim/objects/Instruments/frenchhorn.png",4,"right","right",0.38499999,1,1,1
"417",79,410,0.5,"stim/44.jpeg",4,4,1,2,"Instruments",2,"stim/objects/Instruments/cello.png",4,"right","left",0.305999994,0,0,1
"418",79,411,0.7,"stim/64.jpeg",6,4,2,2,"HouseObjects",1,"stim/objects/HouseObjects/cushion.png",3,"left","left",0.506999969,1,1,1
"419",79,412,0.9,"stim/11.jpeg",1,1,3,2,"Instruments",2,"stim/objects/Instruments/grandpiano.png",3,"right","right",0.273999929,1,1,1
"420",79,413,0.9,"stim/13.jpeg",1,3,3,2,"Instruments",2,"stim/objects/Instruments/flutetrans.png",2,"right","right",0.376000166,1,1,1
"421",79,414,0.5,"stim/42.jpeg",4,2,1,1,"Instruments",2,"stim/objects/Instruments/marimba.png",4,"right","right",0.286999941,1,1,1
"422",79,415,0.9,"stim/12.jpeg",1,2,3,2,"Instruments",2,"stim/objects/Instruments/flute.png",4,"right","left",0.28399992,0,0,1
"423",79,416,0.5,"stim/42.jpeg",4,2,1,2,"Instruments",2,"stim/objects/Instruments/cornet.png",3,"right","left",0.378999949,0,0,1
"424",79,417,0.9,"stim/14.jpeg",1,4,3,2,"Instruments",2,"stim/objects/Instruments/grandpiano.png",2,"right","left",0.559000015,0,0,1
"425",79,418,0.7,"stim/64.jpeg",6,4,2,2,"HouseObjects",1,"stim/objects/HouseObjects/clothespin.png",3,"left","right",0.301999807,0,0,1
"426",79,419,0.9,"stim/13.jpeg",1,3,3,2,"Instruments",2,"stim/objects/Instruments/gong.png",3,"right","right",0.246999979,1,1,1
"427",79,420,0.5,"stim/33.jpeg",3,3,1,2,"Instruments",2,"stim/objects/Instruments/banjo.png",2,"right","left",0.493000031,0,0,1
"428",79,421,0.7,"stim/54.jpeg",5,4,2,2,"Instruments",2,"stim/objects/Instruments/electricdrumset.png",1,"right","right",0.485999823,1,1,1
"429",79,422,0.9,"stim/12.jpeg",1,2,3,1,"Instruments",2,"stim/objects/Instruments/gong2.png",2,"right","right",0.141000032,1,1,1
"430",79,423,0.7,"stim/51.jpeg",5,1,2,2,"Instruments",2,"stim/objects/Instruments/drums.png",2,"right","right",0.292000055,1,1,1
"431",79,424,0.9,"stim/21.jpeg",2,1,3,2,"HouseObjects",1,"stim/objects/HouseObjects/glass.png",1,"left","left",0.722000122,1,1,1
"432",79,425,0.7,"stim/53.jpeg",5,3,2,1,"Instruments",2,"stim/objects/Instruments/bassdrum2.png",2,"right","right",0.299999952,1,1,1
"433",79,426,0.5,"stim/31.jpeg",3,1,1,1,"HouseObjects",1,"stim/objects/HouseObjects/handbrush.png",4,"left","right",0.315999985,0,0,1
"434",79,427,0.9,"stim/11.jpeg",1,1,3,2,"Instruments",2,"stim/objects/Instruments/gong.png",4,"right","left",0.295999765,0,0,1
"435",79,428,0.9,"stim/23.jpeg",2,3,3,2,"HouseObjects",1,"stim/objects/HouseObjects/garbagebin.png",2,"left","right",0.502000093,0,0,1
"436",79,429,0.9,"stim/24.jpeg",2,4,3,2,"HouseObjects",1,"stim/objects/HouseObjects/doormat.png",3,"left","right",0.273999929,0,0,1
"437",79,430,0.9,"stim/12.jpeg",1,2,3,2,"Instruments",2,"stim/objects/Instruments/grandpiano.png",2,"right","left",0.519000053,0,0,1
"438",79,431,0.9,"stim/22.jpeg",2,2,3,2,"HouseObjects",1,"stim/objects/HouseObjects/flyswatter.png",3,"left","right",0.520999908,0,0,1
"439",79,432,0.5,"stim/32.jpeg",3,2,1,1,"HouseObjects",1,"stim/objects/HouseObjects/handvacuum.png",2,"left","right",0.246000051,0,0,1
"440",79,433,0.3,"stim/63.jpeg",6,3,2,1,"Instruments",2,"stim/objects/Instruments/cello2.png",4,"right","right",0.199999809,1,1,1
"441",79,434,0.9,"stim/22.jpeg",2,2,3,2,"HouseObjects",1,"stim/objects/HouseObjects/dustpan.png",1,"left","left",0.243000031,1,1,1
"442",79,435,0.9,"stim/23.jpeg",2,3,3,2,"HouseObjects",1,"stim/objects/HouseObjects/garbagebin.png",3,"left","right",0.278000116,0,0,1
"443",79,436,0.9,"stim/11.jpeg",1,1,3,2,"Instruments",2,"stim/objects/Instruments/frenchhorn.png",3,"right","right",0.330000162,1,1,1
"444",79,437,0.9,"stim/23.jpeg",2,3,3,2,"HouseObjects",1,"stim/objects/HouseObjects/dustpan.png",4,"left","left",0.47300005,1,1,1
"445",79,438,0.7,"stim/51.jpeg",5,1,2,2,"Instruments",2,"stim/objects/Instruments/electricguitar.png",1,"right","left",0.302999973,0,0,1
"446",79,439,0.9,"stim/22.jpeg",2,2,3,1,"HouseObjects",1,"stim/objects/HouseObjects/key2.png",3,"left","right",0.272000074,0,0,1
"447",79,440,0.5,"stim/41.jpeg",4,1,1,2,"Instruments",2,"stim/objects/Instruments/chime.png",2,"right","right",0.247999907,1,1,1
"448",79,441,0.9,"stim/24.jpeg",2,4,3,2,"HouseObjects",1,"stim/objects/HouseObjects/glass.png",1,"left","left",0.17599988,1,1,1
"449",79,442,0.5,"stim/43.jpeg",4,3,1,2,"HouseObjects",1,"stim/objects/HouseObjects/bucket.png",3,"left","right",0.016000032,0,0,1
"450",79,443,0.9,"stim/13.jpeg",1,3,3,2,"Instruments",2,"stim/objects/Instruments/grandpiano.png",4,"right","left",0.18900013,0,0,1
"451",79,444,0.1,"stim/24.jpeg",2,4,3,1,"Instruments",2,"stim/objects/Instruments/record2.png",3,"right","left",0.263000011,0,0,1
"452",79,445,0.9,"stim/21.jpeg",2,1,3,2,"HouseObjects",1,"stim/objects/HouseObjects/flyswatter.png",1,"left","left",0.117000103,1,1,1
"453",79,446,0.9,"stim/13.jpeg",1,3,3,2,"Instruments",2,"stim/objects/Instruments/gong.png",4,"right","right",0.219000101,1,1,1
"454",79,447,0.3,"stim/62.jpeg",6,2,2,1,"Instruments",2,"stim/objects/Instruments/cornet2.png",2,"right","right",0.245999813,1,1,1
"455",79,448,0.7,"stim/54.jpeg",5,4,2,2,"Instruments",2,"stim/objects/Instruments/cymbal.png",3,"right","left",0.468000174,0,0,1
"456",79,449,0.5,"stim/44.jpeg",4,4,1,1,"Instruments",2,"stim/objects/Instruments/musicsheet.png",2,"right","left",0.364000082,0,0,1
"457",79,450,0.5,"stim/44.jpeg",4,4,1,2,"HouseObjects",1,"stim/objects/HouseObjects/clock.png",1,"left","right",0.366999865,0,0,1
"458",79,451,0.9,"stim/23.jpeg",2,3,3,2,"HouseObjects",1,"stim/objects/HouseObjects/flyswatter.png",3,"left","right",0.687999964,0,0,1
"459",79,452,0.9,"stim/22.jpeg",2,2,3,2,"HouseObjects",1,"stim/objects/HouseObjects/dustpan.png",1,"left","left",0.600999832,1,1,1
"460",79,453,0.9,"stim/23.jpeg",2,3,3,2,"HouseObjects",1,"stim/objects/HouseObjects/dustpan.png",4,"left","right",0.369999886,0,0,1
"461",79,454,0.9,"stim/13.jpeg",1,3,3,2,"Instruments",2,"stim/objects/Instruments/frenchhorn.png",1,"right","right",0.246000051,1,1,1
"462",79,455,0.9,"stim/11.jpeg",1,1,3,2,"Instruments",2,"stim/objects/Instruments/gong.png",3,"right","left",0.219000101,0,0,1
"463",79,456,0.7,"stim/53.jpeg",5,3,2,2,"Instruments",2,"stim/objects/Instruments/cymbal.png",4,"right","right",0.25,1,1,1
"464",79,457,0.5,"stim/43.jpeg",4,3,1,2,"HouseObjects",1,"stim/objects/HouseObjects/clock.png",1,"left","left",0.371999979,1,1,1
"465",79,458,0.9,"stim/13.jpeg",1,3,3,2,"Instruments",2,"stim/objects/Instruments/gong.png",2,"right","right",0.291999817,1,1,1
"466",79,459,0.7,"stim/53.jpeg",5,3,2,2,"Instruments",2,"stim/objects/Instruments/electricguitar.png",4,"right","right",0.249000072,1,1,1
"467",79,460,0.7,"stim/62.jpeg",6,2,2,2,"HouseObjects",1,"stim/objects/HouseObjects/clothesdryingrack.png",4,"left","right",0.299999952,0,0,1
"468",79,461,0.5,"stim/31.jpeg",3,1,1,2,"Instruments",2,"stim/objects/Instruments/acousticguitar.png",4,"right","right",0.286000013,1,1,1
"469",79,462,0.1,"stim/13.jpeg",1,3,3,1,"HouseObjects",1,"stim/objects/HouseObjects/hairdryer2.png",4,"left","left",0.430000067,1,1,1
"470",79,463,0.7,"stim/53.jpeg",5,3,2,2,"Instruments",2,"stim/objects/Instruments/drums.png",2,"right","right",0.11500001,1,1,1
"471",79,464,0.1,"stim/11.jpeg",1,1,3,1,"HouseObjects",1,"stim/objects/HouseObjects/glass2.png",4,"left","right",0.131999969,0,0,1
"472",79,465,0.9,"stim/12.jpeg",1,2,3,1,"Instruments",2,"stim/objects/Instruments/harp2.png",2,"right","left",0.351999998,0,0,1
"473",79,466,0.9,"stim/12.jpeg",1,2,3,2,"Instruments",2,"stim/objects/Instruments/gong.png",1,"right","right",0.393000126,1,1,1
"474",79,467,0.5,"stim/33.jpeg",3,3,1,1,"HouseObjects",1,"stim/objects/HouseObjects/iron.png",2,"left","right",0.493999958,0,0,1
"475",79,468,0.9,"stim/24.jpeg",2,4,3,2,"HouseObjects",1,"stim/objects/HouseObjects/garbagebin.png",3,"left","right",0.404999971,0,0,1
"476",79,469,0.1,"stim/21.jpeg",2,1,3,1,"Instruments",2,"stim/objects/Instruments/marimba2.png",2,"right","left",0.549000025,0,0,1
"477",79,470,0.9,"stim/22.jpeg",2,2,3,2,"HouseObjects",1,"stim/objects/HouseObjects/flyswatter.png",2,"left","right",0.463000059,0,0,1
"478",79,471,0.5,"stim/31.jpeg",3,1,1,2,"Instruments",2,"stim/objects/Instruments/bassdrum.png",1,"right","right",0.177999973,1,1,1
"479",79,472,0.9,"stim/23.jpeg",2,3,3,1,"HouseObjects",1,"stim/objects/HouseObjects/knife2.png",3,"left","left",0.230000019,1,1,1
"480",79,473,0.3,"stim/62.jpeg",6,2,2,1,"Instruments",2,"stim/objects/Instruments/electricdrumset2.png",4,"right","left",0.226999998,0,0,1
"481",79,474,0.9,"stim/13.jpeg",1,3,3,2,"Instruments",2,"stim/objects/Instruments/frenchhorn.png",1,"right","right",0.269999981,1,1,1
"482",79,475,0.9,"stim/12.jpeg",1,2,3,2,"Instruments",2,"stim/objects/Instruments/gong.png",2,"right","right",0.419000149,1,1,1
"483",79,476,0.7,"stim/51.jpeg",5,1,2,1,"Instruments",2,"stim/objects/Instruments/pipepiano.png",4,"right","left",0.337000132,0,0,1
"484",79,477,0.1,"stim/11.jpeg",1,1,3,1,"HouseObjects",1,"stim/objects/HouseObjects/doormat2.png",4,"left","right",0.220999956,0,0,1
"485",79,478,0.9,"stim/24.jpeg",2,4,3,2,"HouseObjects",1,"stim/objects/HouseObjects/garbagebin.png",1,"left","right",0.5,0,0,1
"486",79,479,0.9,"stim/22.jpeg",2,2,3,2,"HouseObjects",1,"stim/objects/HouseObjects/glass.png",2,"left","right",0.210000038,0,0,1
"487",79,480,0.9,"stim/14.jpeg",1,4,3,2,"Instruments",2,"stim/objects/Instruments/flutetrans.png",3,"right","left",0.352999926,0,0,1
"488",79,481,0.9,"stim/12.jpeg",1,2,3,2,"Instruments",2,"stim/objects/Instruments/gong.png",4,"right","right",0.217999935,1,1,1
"489",79,482,0.9,"stim/14.jpeg",1,4,3,1,"Instruments",2,"stim/objects/Instruments/flutetrans2.png",4,"right","right",0.633999825,1,1,1
"490",79,483,0.5,"stim/43.jpeg",4,3,1,2,"Instruments",2,"stim/objects/Instruments/cornet.png",4,"right","left",0.630999804,0,0,1
"491",79,484,0.9,"stim/14.jpeg",1,4,3,2,"Instruments",2,"stim/objects/Instruments/frenchhorn.png",1,"right","right",0.355000019,1,1,1
"492",79,485,0.7,"stim/54.jpeg",5,4,2,2,"Instruments",2,"stim/objects/Instruments/doublebass.png",2,"right","right",0.555999994,1,1,1
"493",79,486,0.7,"stim/52.jpeg",5,2,2,1,"Instruments",2,"stim/objects/Instruments/record.png",3,"right","left",0.561000109,0,0,1
"494",79,487,0.7,"stim/61.jpeg",6,1,2,2,"HouseObjects",1,"stim/objects/HouseObjects/cushion.png",4,"left","right",0.383000135,0,0,1
"495",79,488,0.3,"stim/53.jpeg",5,3,2,1,"HouseObjects",1,"stim/objects/HouseObjects/ballofstring2.png",3,"left","right",0.296999931,0,0,1
"496",79,489,0.9,"stim/21.jpeg",2,1,3,2,"HouseObjects",1,"stim/objects/HouseObjects/dustpan.png",3,"left","",NA,0,0,1
"497",79,490,0.9,"stim/22.jpeg",2,2,3,2,"HouseObjects",1,"stim/objects/HouseObjects/glass.png",4,"left","right",0.438999891,0,0,1
"498",79,491,0.7,"stim/52.jpeg",5,2,2,2,"Instruments",2,"stim/objects/Instruments/doublebass.png",2,"right","right",0.661999941,1,1,1
"499",79,492,0.5,"stim/43.jpeg",4,3,1,1,"HouseObjects",1,"stim/objects/HouseObjects/knife.png",1,"left","left",0.642000198,1,1,1
"500",79,493,0.5,"stim/31.jpeg",3,1,1,1,"Instruments",2,"stim/objects/Instruments/hihat.png",4,"right","right",0.631999969,1,1,1
"501",79,494,0.7,"stim/52.jpeg",5,2,2,1,"Instruments",2,"stim/objects/Instruments/musicstand.png",2,"right","right",0.393000126,1,1,1
"502",79,495,0.1,"stim/23.jpeg",2,3,3,1,"Instruments",2,"stim/objects/Instruments/pipepiano2.png",3,"right","left",0.328999996,0,0,1
"503",79,496,0.9,"stim/13.jpeg",1,3,3,2,"Instruments",2,"stim/objects/Instruments/flute.png",2,"right","right",0.342000008,1,1,1
"504",79,497,0.9,"stim/12.jpeg",1,2,3,2,"Instruments",2,"stim/objects/Instruments/flutetrans.png",4,"right","left",0.25999999,0,0,1
"505",79,498,0.9,"stim/22.jpeg",2,2,3,2,"HouseObjects",1,"stim/objects/HouseObjects/garbagebin.png",2,"left","right",0.486999989,0,0,1
"506",79,499,0.9,"stim/24.jpeg",2,4,3,1,"HouseObjects",1,"stim/objects/HouseObjects/lintroller2.png",4,"left","left",0.118000031,1,1,1
"507",79,500,0.9,"stim/23.jpeg",2,3,3,2,"HouseObjects",1,"stim/objects/HouseObjects/dustpan.png",1,"left","left",0.397000074,1,1,1
"508",79,501,0.9,"stim/22.jpeg",2,2,3,2,"HouseObjects",1,"stim/objects/HouseObjects/garbagebin.png",2,"left","right",0.330000162,0,0,1
"509",79,502,0.7,"stim/63.jpeg",6,3,2,2,"HouseObjects",1,"stim/objects/HouseObjects/clothesdryingrack.png",2,"left","left",0.520999908,1,1,1
"510",79,503,0.9,"stim/14.jpeg",1,4,3,2,"Instruments",2,"stim/objects/Instruments/gong.png",4,"right","right",0.527999878,1,1,1
"511",79,504,0.3,"stim/54.jpeg",5,4,2,1,"HouseObjects",1,"stim/objects/HouseObjects/barbecuelighter2.png",1,"left","left",0.532999992,1,1,1
"512",79,505,0.5,"stim/33.jpeg",3,3,1,2,"Instruments",2,"stim/objects/Instruments/balalaika.png",4,"right","right",0.270999908,1,1,1
"513",79,506,0.9,"stim/14.jpeg",1,4,3,2,"Instruments",2,"stim/objects/Instruments/gong.png",3,"right","left",0.374000072,0,0,1
"514",79,507,0.5,"stim/31.jpeg",3,1,1,2,"HouseObjects",1,"stim/objects/HouseObjects/basket.png",3,"left","right",0.271000147,0,0,1
"515",79,508,0.9,"stim/21.jpeg",2,1,3,2,"HouseObjects",1,"stim/objects/HouseObjects/doormat.png",3,"left","left",0.447999954,1,1,1
"516",79,509,0.5,"stim/34.jpeg",3,4,1,2,"Instruments",2,"stim/objects/Instruments/banjo.png",3,"right","right",0.239000082,1,1,1
"517",79,510,0.5,"stim/31.jpeg",3,1,1,2,"HouseObjects",1,"stim/objects/HouseObjects/ashtray.png",1,"left","right",0.289000034,0,0,1
"518",79,511,0.7,"stim/62.jpeg",6,2,2,2,"HouseObjects",1,"stim/objects/HouseObjects/cushion.png",3,"left","right",0.33100009,0,0,1
"519",79,512,0.9,"stim/11.jpeg",1,1,3,2,"Instruments",2,"stim/objects/Instruments/flute.png",1,"right","left",0.448000193,0,0,1
"520",79,513,0.5,"stim/44.jpeg",4,4,1,2,"HouseObjects",1,"stim/objects/HouseObjects/bottle.png",2,"left","right",0.257000208,0,0,1
"521",79,514,0.9,"stim/13.jpeg",1,3,3,2,"Instruments",2,"stim/objects/Instruments/grandpiano.png",1,"right","right",0.076999903,1,1,1
"522",79,515,0.7,"stim/54.jpeg",5,4,2,1,"Instruments",2,"stim/objects/Instruments/panflute.png",4,"right","right",0.288000107,1,1,1
"523",79,516,0.5,"stim/43.jpeg",4,3,1,1,"Instruments",2,"stim/objects/Instruments/metronome.png",3,"right","left",0.281999826,0,0,1
"524",79,517,0.5,"stim/32.jpeg",3,2,1,1,"Instruments",2,"stim/objects/Instruments/guitarcase.png",2,"right","right",0.503000021,1,1,1
"525",79,518,0.9,"stim/12.jpeg",1,2,3,2,"Instruments",2,"stim/objects/Instruments/grandpiano.png",2,"right","right",0.720999956,1,1,1
"526",79,519,0.9,"stim/22.jpeg",2,2,3,1,"HouseObjects",1,"stim/objects/HouseObjects/rubbergloves2.png",4,"left","right",0.541000128,0,0,1
"527",79,520,0.9,"stim/24.jpeg",2,4,3,2,"HouseObjects",1,"stim/objects/HouseObjects/garbagebin.png",3,"left","right",0.315000057,0,0,1
"528",79,521,0.9,"stim/13.jpeg",1,3,3,2,"Instruments",2,"stim/objects/Instruments/flutetrans.png",3,"right","right",0.322999954,1,1,1
"529",79,522,0.9,"stim/14.jpeg",1,4,3,2,"Instruments",2,"stim/objects/Instruments/gong.png",1,"right","left",0.26699996,0,0,1
"530",79,523,0.1,"stim/23.jpeg",2,3,3,1,"Instruments",2,"stim/objects/Instruments/musicsheet2.png",4,"right","right",0.047999859,1,1,1
"531",79,524,0.9,"stim/22.jpeg",2,2,3,2,"HouseObjects",1,"stim/objects/HouseObjects/dustpan.png",1,"left","right",0.527999878,0,0,1
"532",79,525,0.5,"stim/32.jpeg",3,2,1,2,"HouseObjects",1,"stim/objects/HouseObjects/ashtray.png",2,"left","right",0.599999905,0,0,1
"533",79,526,0.9,"stim/11.jpeg",1,1,3,2,"Instruments",2,"stim/objects/Instruments/grandpiano.png",1,"right","left",0.388000011,0,0,1
"534",79,527,0.9,"stim/21.jpeg",2,1,3,2,"HouseObjects",1,"stim/objects/HouseObjects/dustpan.png",3,"left","left",0.647000074,1,1,1
"535",79,528,0.3,"stim/64.jpeg",6,4,2,1,"Instruments",2,"stim/objects/Instruments/chime2.png",1,"right","right",0.677000046,1,1,1
"536",79,529,0.1,"stim/12.jpeg",1,2,3,1,"HouseObjects",1,"stim/objects/HouseObjects/glassmop2.png",3,"left","right",0.687999964,0,0,1
"537",79,530,0.9,"stim/14.jpeg",1,4,3,2,"Instruments",2,"stim/objects/Instruments/flute.png",4,"right","right",0.532000065,1,1,1
"538",79,531,0.9,"stim/22.jpeg",2,2,3,2,"HouseObjects",1,"stim/objects/HouseObjects/flyswatter.png",1,"left","left",0.340999842,1,1,1
"539",79,532,0.9,"stim/23.jpeg",2,3,3,2,"HouseObjects",1,"stim/objects/HouseObjects/glass.png",4,"left","right",0.270999908,0,0,1
"540",79,533,0.3,"stim/52.jpeg",5,2,2,1,"HouseObjects",1,"stim/objects/HouseObjects/ashtray2.png",3,"left","right",0.214999914,0,0,1
"541",79,534,0.9,"stim/22.jpeg",2,2,3,2,"HouseObjects",1,"stim/objects/HouseObjects/doormat.png",1,"left","right",0.875,0,0,1
"542",79,535,0.7,"stim/61.jpeg",6,1,2,1,"HouseObjects",1,"stim/objects/HouseObjects/clothesdryingrack2.png",4,"left","right",0.479000092,0,0,1
"543",79,536,0.9,"stim/12.jpeg",1,2,3,2,"Instruments",2,"stim/objects/Instruments/gong.png",2,"right","right",0.480000019,1,1,1
"544",79,537,0.5,"stim/41.jpeg",4,1,1,2,"HouseObjects",1,"stim/objects/HouseObjects/broom.png",4,"left","left",0.710999966,1,1,1
"545",79,538,0.5,"stim/43.jpeg",4,3,1,2,"Instruments",2,"stim/objects/Instruments/bassguitar.png",4,"right","right",0.610000134,1,1,1
"546",79,539,0.9,"stim/21.jpeg",2,1,3,1,"HouseObjects",1,"stim/objects/HouseObjects/remote2.png",2,"left","right",0.299999952,0,0,1
"547",79,540,0.9,"stim/21.jpeg",2,1,3,1,"HouseObjects",1,"stim/objects/HouseObjects/ironingboard2.png",4,"left","right",0.361999989,0,0,1
"548",79,541,0.9,"stim/13.jpeg",1,3,3,2,"Instruments",2,"stim/objects/Instruments/flute.png",3,"right","left",0.355000019,0,0,1
"549",79,542,0.9,"stim/14.jpeg",1,4,3,1,"Instruments",2,"stim/objects/Instruments/keyboard2.png",2,"right","right",0.302999973,1,1,1
"550",79,543,0.9,"stim/14.jpeg",1,4,3,2,"Instruments",2,"stim/objects/Instruments/grandpiano.png",4,"right","right",0.237999916,1,1,1
"551",79,544,0.9,"stim/13.jpeg",1,3,3,2,"Instruments",2,"stim/objects/Instruments/gong.png",2,"right","right",0.488999844,1,1,1
"552",79,545,0.1,"stim/24.jpeg",2,4,3,1,"Instruments",2,"stim/objects/Instruments/musicstand2.png",3,"right","left",0.529000044,0,0,1
"553",79,546,0.5,"stim/33.jpeg",3,3,1,2,"HouseObjects",1,"stim/objects/HouseObjects/ballofstring.png",1,"left","right",0.246000051,0,0,1
"554",79,547,0.5,"stim/34.jpeg",3,4,1,2,"HouseObjects",1,"stim/objects/HouseObjects/barbecuelighter.png",1,"left","right",0.001000166,0,0,1
"555",79,548,0.7,"stim/62.jpeg",6,2,2,1,"HouseObjects",1,"stim/objects/HouseObjects/broom2.png",2,"left","right",0.001000166,0,0,1
"556",79,549,0.9,"stim/12.jpeg",1,2,3,2,"Instruments",2,"stim/objects/Instruments/flute.png",2,"right","right",0.269000053,1,1,1
"557",79,550,0.5,"stim/44.jpeg",4,4,1,1,"Instruments",2,"stim/objects/Instruments/laud.png",1,"right","right",0.404000044,1,1,1
"558",79,551,0.3,"stim/63.jpeg",6,3,2,1,"Instruments",2,"stim/objects/Instruments/cymbal2.png",3,"right","left",0.126000166,0,0,1
"559",79,552,0.3,"stim/62.jpeg",6,2,2,1,"Instruments",2,"stim/objects/Instruments/bassguitar2.png",3,"right","right",0.088999987,1,1,1
"560",79,553,0.9,"stim/23.jpeg",2,3,3,1,"HouseObjects",1,"stim/objects/HouseObjects/pitcher2.png",2,"left","left",0.133000135,1,1,1
"561",79,554,0.9,"stim/23.jpeg",2,3,3,2,"HouseObjects",1,"stim/objects/HouseObjects/flyswatter.png",4,"left","right",0.186000109,0,0,1
"562",79,555,0.9,"stim/13.jpeg",1,3,3,2,"Instruments",2,"stim/objects/Instruments/frenchhorn.png",1,"right","right",0.301000118,1,1,1
"563",79,556,0.9,"stim/21.jpeg",2,1,3,2,"HouseObjects",1,"stim/objects/HouseObjects/glass.png",1,"left","left",0.246000051,1,1,1
"564",79,557,0.5,"stim/33.jpeg",3,3,1,1,"Instruments",2,"stim/objects/Instruments/harmonica.png",3,"right","right",0.567000151,1,1,1
"565",79,558,0.7,"stim/53.jpeg",5,3,2,2,"Instruments",2,"stim/objects/Instruments/electricdrumset.png",2,"right","right",0.47300005,1,1,1
"566",79,559,0.9,"stim/11.jpeg",1,1,3,2,"Instruments",2,"stim/objects/Instruments/frenchhorn.png",2,"right","left",0.539000034,0,0,1
"567",79,560,0.5,"stim/34.jpeg",3,4,1,1,"Instruments",2,"stim/objects/Instruments/harp.png",2,"right","right",0.263999939,1,1,1
"568",79,561,0.9,"stim/11.jpeg",1,1,3,2,"Instruments",2,"stim/objects/Instruments/grandpiano.png",3,"right","right",0.286999941,1,1,1
"569",79,562,0.3,"stim/52.jpeg",5,2,2,1,"HouseObjects",1,"stim/objects/HouseObjects/bleachbottle2.png",4,"left","left",0.42200017,1,1,1
"570",79,563,0.1,"stim/13.jpeg",1,3,3,1,"HouseObjects",1,"stim/objects/HouseObjects/flyswatter2.png",3,"left","right",0.575000048,0,0,1
"571",79,564,0.5,"stim/34.jpeg",3,4,1,2,"HouseObjects",1,"stim/objects/HouseObjects/basket.png",4,"left","right",0.347000122,0,0,1
"572",79,565,0.9,"stim/21.jpeg",2,1,3,2,"HouseObjects",1,"stim/objects/HouseObjects/garbagebin.png",3,"left","left",0.288000107,1,1,1
"573",79,566,0.9,"stim/12.jpeg",1,2,3,2,"Instruments",2,"stim/objects/Instruments/flutetrans.png",1,"right","right",0.31400013,1,1,1
"574",79,567,0.7,"stim/51.jpeg",5,1,2,2,"Instruments",2,"stim/objects/Instruments/doublebass.png",4,"right","left",0.624000072,0,0,1
"575",79,568,0.9,"stim/11.jpeg",1,1,3,2,"Instruments",2,"stim/objects/Instruments/flute.png",2,"right","right",0.641000032,1,1,1
"576",79,569,0.9,"stim/22.jpeg",2,2,3,2,"HouseObjects",1,"stim/objects/HouseObjects/doormat.png",2,"left","left",0.448000193,1,1,1
"577",79,570,0.9,"stim/24.jpeg",2,4,3,2,"HouseObjects",1,"stim/objects/HouseObjects/dustpan.png",1,"left","right",0.329999924,0,0,1
