"","participant","OvsN","PE_level","object_cat","obj_file","scn_file","corr_scn_cat","corr_scn_inst","scn_file.1","corr_loc","key_resp_id.keys","key_resp_id.rt","key_resp_conf.keys","key_resp_assoc.keys","key_resp_assoc.rt","key_resp_loc.keys","key_resp_loc.rt","trialN","id_acc","assoc.acc","cond_assoc","loc.acc","cond_loc","group"
"1",79,1,0.9,1,"stim/objects/HouseObjects/key2.png","stim/22.jpeg",2,2,"stim/22.jpeg",3,"right",1.498999834,4,4,5.222000122,2,1.596999884,1,0,0,NA,0,NA,0
"2",79,2,0,1,"stim/objects/HouseObjects/doormat3.png","",0,0,"",0,"left",5.592999935,NA,NA,NA,NA,NA,2,0,NA,NA,NA,NA,0
"3",79,2,0,1,"stim/objects/HouseObjects/bleachbottle4.png","",0,0,"",0,"right",2.252000093,NA,NA,NA,NA,NA,3,1,NA,NA,NA,NA,0
"4",79,2,0,2,"stim/objects/Instruments/doublebass3.png","",0,0,"",0,"right",2.278000116,NA,NA,NA,NA,NA,4,1,NA,NA,NA,NA,0
"5",79,1,0.3,2,"stim/objects/Instruments/clarinet2.png","stim/61.jpeg",6,1,"stim/61.jpeg",3,"right",1.114000082,3,2,2.865999937,3,1.74000001,5,0,0,NA,1,NA,0
"6",79,2,0,1,"stim/objects/HouseObjects/bottle3.png","",0,0,"",0,"right",1.229000092,NA,NA,NA,NA,NA,6,1,NA,NA,NA,NA,0
"7",79,2,0,2,"stim/objects/Instruments/keyboard3.png","",0,0,"",0,"left",1.696000099,NA,NA,NA,NA,NA,7,0,NA,NA,NA,NA,0
"8",79,2,0,2,"stim/objects/Instruments/bassguitar3.png","",0,0,"",0,"right",1.112999916,NA,NA,NA,NA,NA,8,1,NA,NA,NA,NA,0
"9",79,1,0.5,1,"stim/objects/Instruments/hihat.png","stim/31.jpeg",3,1,"stim/31.jpeg",4,"right",2.887000084,2,3,1.415999889,1,1.035000086,9,0,0,NA,0,NA,0
"10",79,2,0,2,"stim/objects/Instruments/laud3.png","",0,0,"",0,"left",3.954999924,NA,NA,NA,NA,NA,10,0,NA,NA,NA,NA,0
"11",79,2,0,1,"stim/objects/HouseObjects/key3.png","",0,0,"",0,"right",1.025000095,NA,NA,NA,NA,NA,11,1,NA,NA,NA,NA,0
"12",79,1,0.7,1,"stim/objects/HouseObjects/clothespin2.png","stim/62.jpeg",6,2,"stim/62.jpeg",4,"left",1.171000004,4,2,4.559000015,2,1.104000092,12,1,1,1,0,0,0
"13",79,2,0,1,"stim/objects/HouseObjects/remote3.png","",0,0,"",0,"right",1.349999905,NA,NA,NA,NA,NA,13,1,NA,NA,NA,NA,0
"14",79,2,0,2,"stim/objects/Instruments/gong3.png","",0,0,"",0,"left",0.947000027,NA,NA,NA,NA,NA,14,0,NA,NA,NA,NA,0
"15",79,2,0,1,"stim/objects/HouseObjects/blender4.png","",0,0,"",0,"left",1.253999949,NA,NA,NA,NA,NA,15,0,NA,NA,NA,NA,0
"16",79,2,0,2,"stim/objects/Instruments/accordion4.png","",0,0,"",0,"right",0.774000168,NA,NA,NA,NA,NA,16,1,NA,NA,NA,NA,0
"17",79,2,0,1,"stim/objects/HouseObjects/clothespin3.png","",0,0,"",0,"right",1.036000013,NA,NA,NA,NA,NA,17,1,NA,NA,NA,NA,0
"18",79,2,0,2,"stim/objects/Instruments/bassdrum3.png","",0,0,"",0,"right",1.099999905,NA,NA,NA,NA,NA,18,1,NA,NA,NA,NA,0
"19",79,1,0.1,1,"stim/objects/HouseObjects/handvacuum2.png","stim/11.jpeg",1,1,"stim/11.jpeg",2,"left",0.880000114,4,2,3.238000154,4,1.114000082,19,1,0,0,0,0,0
"20",79,2,0,2,"stim/objects/Instruments/balalaika4.png","",0,0,"",0,"left",1.04700017,NA,NA,NA,NA,NA,20,0,NA,NA,NA,NA,0
"21",79,1,0.9,1,"stim/objects/HouseObjects/lintroller2.png","stim/24.jpeg",2,4,"stim/24.jpeg",4,"left",5.265000105,2,3,0.995999813,1,1.051000118,21,1,0,0,0,0,0
"22",79,1,0.3,1,"stim/objects/HouseObjects/ashtray2.png","stim/52.jpeg",5,2,"stim/52.jpeg",3,"right",1.611999989,4,4,3.797999859,3,4.569000006,22,0,0,NA,1,NA,0
"23",79,1,0.5,2,"stim/objects/HouseObjects/key.png","stim/42.jpeg",4,2,"stim/42.jpeg",4,"right",1.363999844,3,3,0.879999876,2,0.919999838,23,0,0,NA,0,NA,0
"24",79,1,0.5,1,"stim/objects/HouseObjects/hairdryer.png","stim/34.jpeg",3,4,"stim/34.jpeg",3,"left",2.703999996,4,4,2.584000111,1,1.873999834,24,1,1,1,0,0,0
"25",79,1,0.5,1,"stim/objects/HouseObjects/handbrush.png","stim/31.jpeg",3,1,"stim/31.jpeg",4,"right",1.121999979,2,3,0.813000202,1,0.664999962,25,0,0,NA,0,NA,0
"26",79,1,0.3,2,"stim/objects/Instruments/electricguitar2.png","stim/63.jpeg",6,3,"stim/63.jpeg",1,"left",1.358999968,4,1,2.424000025,2,3.405999899,26,1,0,0,0,0,0
"27",79,2,0,1,"stim/objects/HouseObjects/barbecuelighter4.png","",0,0,"",0,"right",1.130000114,NA,NA,NA,NA,NA,27,1,NA,NA,NA,NA,0
"28",79,1,0.1,2,"stim/objects/Instruments/oboe2.png","stim/21.jpeg",2,1,"stim/21.jpeg",4,"left",1.055000067,3,2,2.124000072,3,14.97400022,28,1,0,0,0,0,0
"29",79,1,0.1,1,"stim/objects/HouseObjects/handbrush2.png","stim/14.jpeg",1,4,"stim/14.jpeg",2,"left",1.395999908,3,3,9.618999958,4,4.559999943,29,1,0,0,0,0,0
"30",79,1,0.7,2,"stim/objects/Instruments/panflute.png","stim/54.jpeg",5,4,"stim/54.jpeg",4,"left",1.088999987,3,1,3.73300004,1,7,30,1,0,0,0,0,0
"31",79,2,0,1,"stim/objects/HouseObjects/knife3.png","",0,0,"",0,"left",1.182999849,NA,NA,NA,NA,NA,31,0,NA,NA,NA,NA,0
"32",79,2,0,1,"stim/objects/HouseObjects/basket4.png","",0,0,"",0,"right",1.008000135,NA,NA,NA,NA,NA,32,1,NA,NA,NA,NA,0
"33",79,2,0,2,"stim/objects/Instruments/drums4.png","",0,0,"",0,"right",0.815000057,NA,NA,NA,NA,NA,33,1,NA,NA,NA,NA,0
"34",79,1,0.3,2,"stim/objects/Instruments/cello2.png","stim/63.jpeg",6,3,"stim/63.jpeg",4,"left",0.806999922,4,3,3.052999973,3,2.312000036,34,1,1,1,0,0,0
"35",79,1,0.1,2,"stim/objects/Instruments/pipepiano2.png","stim/23.jpeg",2,3,"stim/23.jpeg",3,"left",1.230999947,4,4,1.555999994,3,1.136000156,35,1,0,0,1,1,0
"36",79,2,0,2,"stim/objects/Instruments/metronome3.png","",0,0,"",0,"right",1.898000002,NA,NA,NA,NA,NA,36,1,NA,NA,NA,NA,0
"37",79,1,0.3,2,"stim/objects/Instruments/drums2.png","stim/61.jpeg",6,1,"stim/61.jpeg",3,"right",0.846999884,2,3,0.715000153,1,0.818000078,37,0,0,NA,0,NA,0
"38",79,1,0.9,1,"stim/objects/HouseObjects/knife2.png","stim/23.jpeg",2,3,"stim/23.jpeg",3,"left",1.294999838,4,2,1.812000036,3,0.875999928,38,1,0,0,1,1,0
"39",79,2,0,1,"stim/objects/HouseObjects/cushion3.png","",0,0,"",0,"right",0.805999994,NA,NA,NA,NA,NA,39,1,NA,NA,NA,NA,0
"40",79,2,0,2,"stim/objects/Instruments/banjo3.png","",0,0,"",0,"right",0.795000076,NA,NA,NA,NA,NA,40,1,NA,NA,NA,NA,0
"41",79,2,0,2,"stim/objects/Instruments/guitarcase3.png","",0,0,"",0,"right",0.980999947,NA,NA,NA,NA,NA,41,1,NA,NA,NA,NA,0
"42",79,1,0.7,2,"stim/objects/Instruments/record.png","stim/52.jpeg",5,2,"stim/52.jpeg",3,"right",1.010999918,2,3,0.565000057,4,1.187000036,42,0,0,NA,0,NA,0
"43",79,1,0.1,2,"stim/objects/Instruments/record2.png","stim/24.jpeg",2,4,"stim/24.jpeg",3,"left",1.370000124,4,1,1.295000076,2,0.983999968,43,1,0,0,0,0,0
"44",79,2,0,1,"stim/objects/HouseObjects/ashtray4.png","",0,0,"",0,"right",1.538000107,NA,NA,NA,NA,NA,44,1,NA,NA,NA,NA,0
"45",79,1,0.1,1,"stim/objects/HouseObjects/flyswatter2.png","stim/13.jpeg",1,3,"stim/13.jpeg",3,"left",0.980999947,1,4,0.959000111,2,0.787000179,45,1,0,0,0,0,0
"46",79,2,0,2,"stim/objects/Instruments/frenchhorn3.png","",0,0,"",0,"left",1.092000008,NA,NA,NA,NA,NA,46,0,NA,NA,NA,NA,0
"47",79,2,0,2,"stim/objects/Instruments/flute3.png","",0,0,"",0,"left",1.100999832,NA,NA,NA,NA,NA,47,0,NA,NA,NA,NA,0
"48",79,1,0.7,2,"stim/objects/Instruments/pipepiano.png","stim/51.jpeg",5,1,"stim/51.jpeg",4,"right",0.898000002,3,4,1.144999981,3,0.792999983,48,0,0,NA,0,NA,0
"49",79,1,0.9,2,"stim/objects/Instruments/harmonica2.png","stim/11.jpeg",1,1,"stim/11.jpeg",3,"left",1.069999933,4,2,0.89199996,3,0.809999943,49,1,0,0,1,1,0
"50",79,1,0.7,1,"stim/objects/HouseObjects/dishsoap2.png","stim/61.jpeg",6,1,"stim/61.jpeg",1,"left",1.433000088,3,3,4.441999912,1,1.585999966,50,1,0,0,1,1,0
"51",79,1,0.7,2,"stim/objects/Instruments/bassdrum2.png","stim/53.jpeg",5,3,"stim/53.jpeg",2,"left",1.452000141,3,4,1.003000021,3,1.57400012,51,1,0,0,0,0,0
"52",79,2,0,2,"stim/objects/Instruments/cello3.png","",0,0,"",0,"right",1.289000034,NA,NA,NA,NA,NA,52,1,NA,NA,NA,NA,0
"53",79,2,0,2,"stim/objects/Instruments/accordion3.png","",0,0,"",0,"left",0.842999935,NA,NA,NA,NA,NA,53,0,NA,NA,NA,NA,0
"54",79,1,0.1,2,"stim/objects/Instruments/maraca2.png","stim/24.jpeg",2,4,"stim/24.jpeg",4,"left",0.934000015,3,2,0.829999924,4,0.703999996,54,1,0,0,1,1,0
"55",79,2,0,2,"stim/objects/Instruments/chime4.png","",0,0,"",0,"right",1.118999958,NA,NA,NA,NA,NA,55,1,NA,NA,NA,NA,0
"56",79,2,0,1,"stim/objects/HouseObjects/glass3.png","",0,0,"",0,"left",0.799000025,NA,NA,NA,NA,NA,56,0,NA,NA,NA,NA,0
"57",79,2,0,2,"stim/objects/Instruments/cornet4.png","",0,0,"",0,"right",0.700999975,NA,NA,NA,NA,NA,57,1,NA,NA,NA,NA,0
"58",79,1,0.1,1,"stim/objects/HouseObjects/hairdryer2.png","stim/13.jpeg",1,3,"stim/13.jpeg",4,"right",1.07400012,3,3,0.769999981,4,0.598999977,58,0,1,NA,1,NA,0
"59",79,1,0.3,1,"stim/objects/HouseObjects/remote.png","stim/54.jpeg",5,4,"stim/54.jpeg",3,"left",3.270999908,3,4,1.23300004,2,1.392999887,59,1,1,1,0,0,0
"60",79,1,0.9,1,"stim/objects/HouseObjects/match2.png","stim/21.jpeg",2,1,"stim/21.jpeg",2,"right",1.568000078,2,3,0.761999846,1,0.962000132,60,0,0,NA,0,NA,0
"61",79,1,0.9,2,"stim/objects/Instruments/hihat2.png","stim/13.jpeg",1,3,"stim/13.jpeg",3,"left",1.210000038,3,1,1.575999975,1,1.082000017,61,1,0,0,0,0,0
"62",79,1,0.5,1,"stim/objects/HouseObjects/handvacuum.png","stim/32.jpeg",3,2,"stim/32.jpeg",2,"right",0.815000057,3,4,2.494999886,3,0.753999949,62,0,0,NA,0,NA,0
"63",79,2,0,1,"stim/objects/HouseObjects/pan3.png","",0,0,"",0,"right",0.755000114,NA,NA,NA,NA,NA,63,1,NA,NA,NA,NA,0
"64",79,2,0,1,"stim/objects/HouseObjects/ironingboard3.png","",0,0,"",0,"right",0.60800004,NA,NA,NA,NA,NA,64,1,NA,NA,NA,NA,0
"65",79,2,0,1,"stim/objects/HouseObjects/blender3.png","",0,0,"",0,"left",0.839999914,NA,NA,NA,NA,NA,65,0,NA,NA,NA,NA,0
"66",79,2,0,2,"stim/objects/Instruments/bassguitar4.png","",0,0,"",0,"right",0.58100009,NA,NA,NA,NA,NA,66,1,NA,NA,NA,NA,0
"67",79,2,0,2,"stim/objects/Instruments/drums3.png","",0,0,"",0,"right",0.726999998,NA,NA,NA,NA,NA,67,1,NA,NA,NA,NA,0
"68",79,1,0.1,2,"stim/objects/Instruments/metronome2.png","stim/22.jpeg",2,2,"stim/22.jpeg",3,"left",1.009000063,3,4,0.838999987,4,0.713999987,68,1,0,0,0,0,0
"69",79,2,0,2,"stim/objects/Instruments/banjo4.png","",0,0,"",0,"right",1.278000116,NA,NA,NA,NA,NA,69,1,NA,NA,NA,NA,0
"70",79,1,0.3,1,"stim/objects/HouseObjects/pan.png","stim/51.jpeg",5,1,"stim/51.jpeg",4,"right",0.746999979,4,4,1.270999908,3,0.626999855,70,0,0,NA,0,NA,0
"71",79,2,0,2,"stim/objects/Instruments/hihat3.png","",0,0,"",0,"right",1.634000063,NA,NA,NA,NA,NA,71,1,NA,NA,NA,NA,0
"72",79,1,0.3,1,"stim/objects/HouseObjects/rubbergloves.png","stim/51.jpeg",5,1,"stim/51.jpeg",1,"right",0.700999975,3,4,0.710000038,2,0.468000174,72,0,0,NA,0,NA,0
"73",79,1,0.7,1,"stim/objects/HouseObjects/bucket2.png","stim/63.jpeg",6,3,"stim/63.jpeg",4,"right",0.936000109,3,1,0.875,2,2.047999859,73,0,0,NA,0,NA,0
"74",79,2,0,1,"stim/objects/HouseObjects/broom4.png","",0,0,"",0,"right",0.748000145,NA,NA,NA,NA,NA,74,1,NA,NA,NA,NA,0
"75",79,1,0.9,2,"stim/objects/Instruments/gong2.png","stim/12.jpeg",1,2,"stim/12.jpeg",2,"right",0.753999949,2,1,1.25,4,1.820999861,75,0,0,NA,0,NA,0
"76",79,2,0,2,"stim/objects/Instruments/musicstand3.png","",0,0,"",0,"right",0.635999918,NA,NA,NA,NA,NA,76,1,NA,NA,NA,NA,0
"77",79,2,0,2,"stim/objects/Instruments/electricguitar4.png","",0,0,"",0,"right",0.822999954,NA,NA,NA,NA,NA,77,1,NA,NA,NA,NA,0
"78",79,2,0,1,"stim/objects/HouseObjects/clothesdryingrack4.png","",0,0,"",0,"right",0.56799984,NA,NA,NA,NA,NA,78,1,NA,NA,NA,NA,0
"79",79,2,0,1,"stim/objects/HouseObjects/basket3.png","",0,0,"",0,"right",0.770999908,NA,NA,NA,NA,NA,79,1,NA,NA,NA,NA,0
"80",79,2,0,2,"stim/objects/Instruments/acousticguitar3.png","",0,0,"",0,"right",0.572999954,NA,NA,NA,NA,NA,80,1,NA,NA,NA,NA,0
"81",79,1,0.3,1,"stim/objects/HouseObjects/basket2.png","stim/51.jpeg",5,1,"stim/51.jpeg",3,"right",0.634000063,1,4,1.040999889,3,0.651000023,81,0,0,NA,1,NA,0
"82",79,2,0,2,"stim/objects/Instruments/electricguitar3.png","",0,0,"",0,"right",1.375999928,NA,NA,NA,NA,NA,82,1,NA,NA,NA,NA,0
"83",79,1,0.3,2,"stim/objects/Instruments/doublebass2.png","stim/64.jpeg",6,4,"stim/64.jpeg",2,"right",0.611999989,3,2,0.694000006,2,0.575999975,83,0,0,NA,1,NA,0
"84",79,2,0,1,"stim/objects/HouseObjects/flyswatter3.png","",0,0,"",0,"left",1.763000011,NA,NA,NA,NA,NA,84,0,NA,NA,NA,NA,0
"85",79,1,0.1,1,"stim/objects/HouseObjects/dustpan2.png","stim/12.jpeg",1,2,"stim/12.jpeg",2,"right",0.980000019,3,1,0.984000206,2,0.821000099,85,0,0,NA,1,NA,0
"86",79,1,0.5,1,"stim/objects/HouseObjects/glassmop.png","stim/33.jpeg",3,3,"stim/33.jpeg",1,"right",0.714999914,3,1,1.49000001,2,0.743999958,86,0,0,NA,0,NA,0
"87",79,1,0.3,1,"stim/objects/HouseObjects/barbecuelighter2.png","stim/54.jpeg",5,4,"stim/54.jpeg",1,"right",3.495000124,2,4,0.930999994,4,0.710999966,87,0,1,NA,0,NA,0
"88",79,1,0.3,2,"stim/objects/Instruments/cymbal2.png","stim/63.jpeg",6,3,"stim/63.jpeg",3,"left",4.81400013,3,2,1.75,3,1.601999998,88,1,0,0,1,1,0
"89",79,1,0.1,1,"stim/objects/HouseObjects/iron2.png","stim/12.jpeg",1,2,"stim/12.jpeg",4,"left",22.523,4,3,0.75,2,0.527000189,89,1,0,0,0,0,0
"90",79,1,0.7,2,"stim/objects/Instruments/banjo2.png","stim/52.jpeg",5,2,"stim/52.jpeg",1,"right",0.920000076,3,4,0.572999954,4,0.556999922,90,0,0,NA,0,NA,0
"91",79,1,0.5,1,"stim/objects/Instruments/guitarcase.png","stim/32.jpeg",3,2,"stim/32.jpeg",2,"left",1.114000082,4,2,1.395999908,4,1.58100009,91,1,1,1,0,0,0
"92",79,2,0,2,"stim/objects/Instruments/panflute3.png","",0,0,"",0,"right",0.822000027,NA,NA,NA,NA,NA,92,1,NA,NA,NA,NA,0
"93",79,1,0.5,2,"stim/objects/HouseObjects/ironingboard.png","stim/41.jpeg",4,1,"stim/41.jpeg",3,"left",0.920000076,3,4,1.796999931,3,1.108999968,93,1,0,0,1,1,0
"94",79,1,0.1,2,"stim/objects/Instruments/musicstand2.png","stim/24.jpeg",2,4,"stim/24.jpeg",3,"right",3.578000069,2,2,0.503999949,4,0.654000044,94,0,0,NA,0,NA,0
"95",79,1,0.5,1,"stim/objects/HouseObjects/iron.png","stim/33.jpeg",3,3,"stim/33.jpeg",2,"right",0.832999945,3,4,0.858999968,4,0.061000109,95,0,0,NA,0,NA,0
"96",79,2,0,1,"stim/objects/HouseObjects/coffee4.png","",0,0,"",0,"left",1.986999989,NA,NA,NA,NA,NA,96,0,NA,NA,NA,NA,0
"97",79,1,0.7,2,"stim/objects/Instruments/oboe.png","stim/53.jpeg",5,3,"stim/53.jpeg",1,"left",0.758999825,4,1,0.652999878,1,1.799999952,97,1,0,0,1,1,0
"98",79,2,0,1,"stim/objects/HouseObjects/bleachbottle3.png","",0,0,"",0,"right",1.148999929,NA,NA,NA,NA,NA,98,1,NA,NA,NA,NA,0
"99",79,2,0,1,"stim/objects/HouseObjects/dustpan3.png","",0,0,"",0,"left",1.188999891,NA,NA,NA,NA,NA,99,0,NA,NA,NA,NA,0
"100",79,2,0,1,"stim/objects/HouseObjects/garbagebin3.png","",0,0,"",0,"right",0.948000193,NA,NA,NA,NA,NA,100,1,NA,NA,NA,NA,0
"101",79,2,0,1,"stim/objects/HouseObjects/broom3.png","",0,0,"",0,"right",0.597000122,NA,NA,NA,NA,NA,101,1,NA,NA,NA,NA,0
"102",79,1,0.9,2,"stim/objects/Instruments/frenchhorn2.png","stim/11.jpeg",1,1,"stim/11.jpeg",1,"left",0.646000147,4,3,1.276000023,1,1.252000093,102,1,0,0,1,1,0
"103",79,1,0.5,1,"stim/objects/Instruments/harp.png","stim/34.jpeg",3,4,"stim/34.jpeg",2,"left",3.839999914,3,2,2.062999964,2,1.733999968,103,1,0,0,1,1,0
"104",79,1,0.1,2,"stim/objects/Instruments/laud2.png","stim/23.jpeg",2,3,"stim/23.jpeg",4,"left",3.010999918,3,4,0.595999956,4,0.260999918,104,1,0,0,1,1,0
"105",79,1,0.1,1,"stim/objects/HouseObjects/glass2.png","stim/11.jpeg",1,1,"stim/11.jpeg",4,"left",4.237999916,4,1,2.210000038,4,1.952000141,105,1,1,1,1,1,0
"106",79,2,0,1,"stim/objects/HouseObjects/hairdryer3.png","",0,0,"",0,"right",0.667999983,NA,NA,NA,NA,NA,106,1,NA,NA,NA,NA,0
"107",79,2,0,2,"stim/objects/Instruments/musicsheet3.png","",0,0,"",0,"right",0.953000069,NA,NA,NA,NA,NA,107,1,NA,NA,NA,NA,0
"108",79,2,0,2,"stim/objects/Instruments/cornet3.png","",0,0,"",0,"right",0.873999834,NA,NA,NA,NA,NA,108,1,NA,NA,NA,NA,0
"109",79,1,0.1,2,"stim/objects/Instruments/panflute2.png","stim/22.jpeg",2,2,"stim/22.jpeg",1,"right",1.086999893,3,2,1.276000023,4,1.436000109,109,0,1,NA,0,NA,0
"110",79,2,0,1,"stim/objects/HouseObjects/barbecuelighter3.png","",0,0,"",0,"left",1.657000065,NA,NA,NA,NA,NA,110,0,NA,NA,NA,NA,0
"111",79,2,0,2,"stim/objects/Instruments/balalaika3.png","",0,0,"",0,"left",0.720999956,NA,NA,NA,NA,NA,111,0,NA,NA,NA,NA,0
"112",79,2,0,1,"stim/objects/HouseObjects/lintroller3.png","",0,0,"",0,"right",0.631000042,NA,NA,NA,NA,NA,112,1,NA,NA,NA,NA,0
"113",79,2,0,1,"stim/objects/HouseObjects/bucket3.png","",0,0,"",0,"right",0.566999912,NA,NA,NA,NA,NA,113,1,NA,NA,NA,NA,0
"114",79,1,0.1,2,"stim/objects/Instruments/marimba2.png","stim/21.jpeg",2,1,"stim/21.jpeg",2,"right",0.94900012,3,1,1.324999809,3,1.90199995,114,0,1,NA,0,NA,0
"115",79,1,0.1,2,"stim/objects/Instruments/musicsheet2.png","stim/23.jpeg",2,3,"stim/23.jpeg",4,"left",1.582000017,4,4,1.427999973,2,0.678999901,115,1,0,0,0,0,0
"116",79,2,0,2,"stim/objects/Instruments/bassdrum4.png","",0,0,"",0,"left",5.555999994,NA,NA,NA,NA,NA,116,0,NA,NA,NA,NA,0
"117",79,1,0.3,1,"stim/objects/HouseObjects/pitcher.png","stim/52.jpeg",5,2,"stim/52.jpeg",2,"right",0.872999907,3,4,1.223999977,3,1.815999985,117,0,0,NA,0,NA,0
"118",79,2,0,2,"stim/objects/Instruments/oboe3.png","",0,0,"",0,"right",1.636000156,NA,NA,NA,NA,NA,118,1,NA,NA,NA,NA,0
"119",79,2,0,2,"stim/objects/Instruments/electricdrumset3.png","",0,0,"",0,"left",1.059000015,NA,NA,NA,NA,NA,119,0,NA,NA,NA,NA,0
"120",79,1,0.7,2,"stim/objects/Instruments/accordion2.png","stim/53.jpeg",5,3,"stim/53.jpeg",4,"right",1.047999859,4,2,0.981999874,3,0.972000122,120,0,0,NA,0,NA,0
"121",79,1,0.9,2,"stim/objects/Instruments/flute2.png","stim/13.jpeg",1,3,"stim/13.jpeg",3,"left",1.986999989,4,1,1.292999983,2,0.697000027,121,1,0,0,0,0,0
"122",79,2,0,2,"stim/objects/Instruments/record3.png","",0,0,"",0,"right",1.23300004,NA,NA,NA,NA,NA,122,1,NA,NA,NA,NA,0
"123",79,1,0.5,2,"stim/objects/HouseObjects/match.png","stim/41.jpeg",4,1,"stim/41.jpeg",1,"right",0.713999987,1,4,1.255999804,3,0.717000008,123,0,0,NA,0,NA,0
"124",79,1,0.5,2,"stim/objects/Instruments/maraca.png","stim/41.jpeg",4,1,"stim/41.jpeg",3,"right",1.207999945,4,1,1.005000114,4,1.371999979,124,0,1,NA,0,NA,0
"125",79,1,0.9,1,"stim/objects/HouseObjects/recyclingbin2.png","stim/24.jpeg",2,4,"stim/24.jpeg",1,"left",1.344000101,4,3,0.746999979,4,1.003999949,125,1,0,0,0,0,0
"126",79,2,0,2,"stim/objects/Instruments/maraca3.png","",0,0,"",0,"right",0.788999796,NA,NA,NA,NA,NA,126,1,NA,NA,NA,NA,0
"127",79,1,0.9,1,"stim/objects/HouseObjects/remote2.png","stim/21.jpeg",2,1,"stim/21.jpeg",2,"right",0.774000168,4,2,0.75999999,3,1.121000051,127,0,0,NA,0,NA,0
"128",79,1,0.5,2,"stim/objects/Instruments/laud.png","stim/44.jpeg",4,4,"stim/44.jpeg",1,"right",1.640999794,2,3,0.936000109,2,3.822999954,128,0,0,NA,0,NA,0
"129",79,1,0.3,2,"stim/objects/Instruments/cornet2.png","stim/62.jpeg",6,2,"stim/62.jpeg",2,"right",1.024999857,3,2,1.021000147,4,1.970000029,129,0,1,NA,0,NA,0
"130",79,2,0,2,"stim/objects/Instruments/electricdrumset4.png","",0,0,"",0,"right",0.923000097,NA,NA,NA,NA,NA,130,1,NA,NA,NA,NA,0
"131",79,2,0,2,"stim/objects/Instruments/harp3.png","",0,0,"",0,"right",0.785000086,NA,NA,NA,NA,NA,131,1,NA,NA,NA,NA,0
"132",79,2,0,2,"stim/objects/Instruments/cello4.png","",0,0,"",0,"right",0.713000059,NA,NA,NA,NA,NA,132,1,NA,NA,NA,NA,0
"133",79,2,0,1,"stim/objects/HouseObjects/handvacuum3.png","",0,0,"",0,"right",1.121000051,NA,NA,NA,NA,NA,133,1,NA,NA,NA,NA,0
"134",79,2,0,1,"stim/objects/HouseObjects/dishsoap4.png","",0,0,"",0,"right",0.742000103,NA,NA,NA,NA,NA,134,1,NA,NA,NA,NA,0
"135",79,2,0,1,"stim/objects/HouseObjects/clock4.png","",0,0,"",0,"right",0.851000071,NA,NA,NA,NA,NA,135,1,NA,NA,NA,NA,0
"136",79,2,0,2,"stim/objects/Instruments/acousticguitar4.png","",0,0,"",0,"left",0.743999958,NA,NA,NA,NA,NA,136,0,NA,NA,NA,NA,0
"137",79,1,0.7,1,"stim/objects/HouseObjects/clothesdryingrack2.png","stim/61.jpeg",6,1,"stim/61.jpeg",4,"right",0.833999872,4,4,1.002000093,1,1.597000122,137,0,0,NA,0,NA,0
"138",79,2,0,2,"stim/objects/Instruments/grandpiano3.png","",0,0,"",0,"right",0.875999928,NA,NA,NA,NA,NA,138,1,NA,NA,NA,NA,0
"139",79,2,0,2,"stim/objects/Instruments/chime3.png","",0,0,"",0,"right",0.704999924,NA,NA,NA,NA,NA,139,1,NA,NA,NA,NA,0
"140",79,2,0,1,"stim/objects/HouseObjects/bottle4.png","",0,0,"",0,"right",0.567000151,NA,NA,NA,NA,NA,140,1,NA,NA,NA,NA,0
"141",79,1,0.5,2,"stim/objects/Instruments/marimba.png","stim/42.jpeg",4,2,"stim/42.jpeg",4,"left",0.805999994,4,3,2.235999823,3,3.262000084,141,1,0,0,0,0,0
"142",79,2,0,1,"stim/objects/HouseObjects/clock3.png","",0,0,"",0,"right",0.575999975,NA,NA,NA,NA,NA,142,1,NA,NA,NA,NA,0
"143",79,2,0,1,"stim/objects/HouseObjects/dishsoap3.png","",0,0,"",0,"right",0.595000029,NA,NA,NA,NA,NA,143,1,NA,NA,NA,NA,0
"144",79,1,0.5,1,"stim/objects/Instruments/harmonica.png","stim/33.jpeg",3,3,"stim/33.jpeg",3,"right",0.726999998,4,4,1.381999969,2,1.187000036,144,0,0,NA,0,NA,0
"145",79,2,0,1,"stim/objects/HouseObjects/clothesdryingrack3.png","",0,0,"",0,"right",0.732000113,NA,NA,NA,NA,NA,145,1,NA,NA,NA,NA,0
"146",79,2,0,1,"stim/objects/HouseObjects/ballofstring3.png","",0,0,"",0,"right",0.711000204,NA,NA,NA,NA,NA,146,1,NA,NA,NA,NA,0
"147",79,1,0.1,1,"stim/objects/HouseObjects/doormat2.png","stim/11.jpeg",1,1,"stim/11.jpeg",4,"right",1.019999981,3,2,1.014999866,1,1.477999926,147,0,0,NA,0,NA,0
"148",79,1,0.1,1,"stim/objects/HouseObjects/glassmop2.png","stim/12.jpeg",1,2,"stim/12.jpeg",3,"right",0.651000023,4,2,1.037000179,4,0.982000113,148,0,1,NA,0,NA,0
"149",79,2,0,1,"stim/objects/HouseObjects/bucket4.png","",0,0,"",0,"right",0.817000151,NA,NA,NA,NA,NA,149,1,NA,NA,NA,NA,0
"150",79,2,0,1,"stim/objects/HouseObjects/cushion4.png","",0,0,"",0,"right",0.500999928,NA,NA,NA,NA,NA,150,1,NA,NA,NA,NA,0
"151",79,1,0.5,2,"stim/objects/HouseObjects/lintroller.png","stim/44.jpeg",4,4,"stim/44.jpeg",1,"right",0.587000132,2,4,1.269000053,1,0.746999979,151,0,1,NA,1,NA,0
"152",79,2,0,1,"stim/objects/HouseObjects/rubbergloves3.png","",0,0,"",0,"left",1.561000109,NA,NA,NA,NA,NA,152,0,NA,NA,NA,NA,0
"153",79,1,0.5,1,"stim/objects/Instruments/keyboard.png","stim/32.jpeg",3,2,"stim/32.jpeg",2,"right",1.181999922,3,1,1.778000116,2,1.245000124,153,0,0,NA,1,NA,0
"154",79,1,0.7,1,"stim/objects/HouseObjects/cushion2.png","stim/64.jpeg",6,4,"stim/64.jpeg",3,"right",0.648999929,2,4,0.577000141,2,1.083999872,154,0,1,NA,0,NA,0
"155",79,2,0,1,"stim/objects/HouseObjects/clothespin4.png","",0,0,"",0,"right",2.353999853,NA,NA,NA,NA,NA,155,1,NA,NA,NA,NA,0
"156",79,2,0,2,"stim/objects/Instruments/clarinet3.png","",0,0,"",0,"right",1.109000206,NA,NA,NA,NA,NA,156,1,NA,NA,NA,NA,0
"157",79,1,0.1,1,"stim/objects/HouseObjects/garbagebin2.png","stim/14.jpeg",1,4,"stim/14.jpeg",3,"right",0.580999851,2,1,1.151000023,3,0.436000109,157,0,0,NA,1,NA,0
"158",79,2,0,1,"stim/objects/HouseObjects/coffee3.png","",0,0,"",0,"right",1.813000202,NA,NA,NA,NA,NA,158,1,NA,NA,NA,NA,0
"159",79,2,0,1,"stim/objects/HouseObjects/handbrush3.png","",0,0,"",0,"right",0.592000008,NA,NA,NA,NA,NA,159,1,NA,NA,NA,NA,0
"160",79,2,0,1,"stim/objects/HouseObjects/iron3.png","",0,0,"",0,"right",0.741000175,NA,NA,NA,NA,NA,160,1,NA,NA,NA,NA,0
"161",79,1,0.3,1,"stim/objects/HouseObjects/ballofstring2.png","stim/53.jpeg",5,3,"stim/53.jpeg",3,"right",0.510999918,4,3,0.782999992,1,1.069999933,161,0,1,NA,0,NA,0
"162",79,1,0.7,1,"stim/objects/HouseObjects/blender2.png","stim/64.jpeg",6,4,"stim/64.jpeg",2,"left",2.319999933,4,1,1.56400013,2,0.961999893,162,1,0,0,1,1,0
"163",79,1,0.3,1,"stim/objects/HouseObjects/recyclingbin.png","stim/53.jpeg",5,3,"stim/53.jpeg",1,"right",0.835999966,3,4,0.703999996,2,0.977999926,163,0,0,NA,0,NA,0
"164",79,1,0.9,2,"stim/objects/Instruments/flutetrans2.png","stim/14.jpeg",1,4,"stim/14.jpeg",4,"left",3.747999907,4,3,0.832000017,1,1.946000099,164,1,0,0,0,0,0
"165",79,1,0.5,2,"stim/objects/Instruments/metronome.png","stim/43.jpeg",4,3,"stim/43.jpeg",3,"right",0.767999887,3,2,0.66899991,4,2.180000067,165,0,0,NA,0,NA,0
"166",79,2,0,2,"stim/objects/Instruments/pipepiano3.png","",0,0,"",0,"right",1.470999956,NA,NA,NA,NA,NA,166,1,NA,NA,NA,NA,0
"167",79,1,0.9,2,"stim/objects/Instruments/guitarcase2.png","stim/14.jpeg",1,4,"stim/14.jpeg",4,"left",0.776000023,4,4,0.911999941,2,1.411999941,167,1,1,1,0,0,0
"168",79,1,0.7,2,"stim/objects/Instruments/balalaika2.png","stim/51.jpeg",5,1,"stim/51.jpeg",3,"right",1.111000061,2,1,1.394999981,2,1.848999977,168,0,1,NA,0,NA,0
"169",79,2,0,2,"stim/objects/Instruments/cymbal4.png","",0,0,"",0,"right",0.914999962,NA,NA,NA,NA,NA,169,1,NA,NA,NA,NA,0
"170",79,2,0,2,"stim/objects/Instruments/marimba3.png","",0,0,"",0,"right",0.69299984,NA,NA,NA,NA,NA,170,1,NA,NA,NA,NA,0
"171",79,1,0.9,1,"stim/objects/HouseObjects/ironingboard2.png","stim/21.jpeg",2,1,"stim/21.jpeg",4,"right",0.921000004,3,4,0.700999975,1,1.054999828,171,0,0,NA,0,NA,0
"172",79,2,0,1,"stim/objects/HouseObjects/pitcher3.png","",0,0,"",0,"right",2.157000065,NA,NA,NA,NA,NA,172,1,NA,NA,NA,NA,0
"173",79,2,0,2,"stim/objects/Instruments/harmonica3.png","",0,0,"",0,"right",0.713999987,NA,NA,NA,NA,NA,173,1,NA,NA,NA,NA,0
"174",79,2,0,1,"stim/objects/HouseObjects/match3.png","",0,0,"",0,"right",0.674000025,NA,NA,NA,NA,NA,174,1,NA,NA,NA,NA,0
"175",79,1,0.7,1,"stim/objects/HouseObjects/bottle2.png","stim/61.jpeg",6,1,"stim/61.jpeg",4,"right",0.502000093,4,4,0.927000046,1,1.007999897,175,0,0,NA,0,NA,0
"176",79,1,0.7,2,"stim/objects/Instruments/musicstand.png","stim/52.jpeg",5,2,"stim/52.jpeg",2,"right",0.803000212,2,3,0.803999901,1,0.714999914,176,0,0,NA,0,NA,0
"177",79,1,0.3,2,"stim/objects/Instruments/bassguitar2.png","stim/62.jpeg",6,2,"stim/62.jpeg",3,"left",1.046999931,3,3,3.863999844,4,1.378000021,177,1,0,0,0,0,0
"178",79,1,0.9,2,"stim/objects/Instruments/harp2.png","stim/12.jpeg",1,2,"stim/12.jpeg",2,"right",2.128000021,3,2,0.866999865,2,1.003000021,178,0,1,NA,1,NA,0
"179",79,1,0.9,2,"stim/objects/Instruments/keyboard2.png","stim/14.jpeg",1,4,"stim/14.jpeg",2,"right",0.753000021,4,1,0.802000046,1,0.802999973,179,0,0,NA,0,NA,0
"180",79,1,0.7,1,"stim/objects/HouseObjects/broom2.png","stim/62.jpeg",6,2,"stim/62.jpeg",2,"left",1.847000122,3,4,1.624000072,3,1.851000071,180,1,0,0,0,0,0
"181",79,1,0.3,2,"stim/objects/Instruments/chime2.png","stim/64.jpeg",6,4,"stim/64.jpeg",1,"right",0.690999985,3,1,0.968999863,4,1.090000153,181,0,0,NA,0,NA,0
"182",79,1,0.9,2,"stim/objects/Instruments/grandpiano2.png","stim/13.jpeg",1,3,"stim/13.jpeg",1,"right",1.470000029,3,4,1.451000214,1,0.791000128,182,0,0,NA,1,NA,0
"183",79,1,0.5,2,"stim/objects/HouseObjects/knife.png","stim/43.jpeg",4,3,"stim/43.jpeg",1,"right",2.462000132,4,4,1.008000135,4,2.514999866,183,0,0,NA,0,NA,0
"184",79,1,0.7,1,"stim/objects/HouseObjects/clock2.png","stim/64.jpeg",6,4,"stim/64.jpeg",1,"left",1.124000072,3,4,2.722999811,2,1.684999943,184,1,1,1,0,0,0
"185",79,2,0,2,"stim/objects/Instruments/flutetrans3.png","",0,0,"",0,"right",1.011999846,NA,NA,NA,NA,NA,185,1,NA,NA,NA,NA,0
"186",79,1,0.5,2,"stim/objects/Instruments/musicsheet.png","stim/44.jpeg",4,4,"stim/44.jpeg",2,"right",0.769999981,3,3,1.605000019,1,0.86500001,186,0,0,NA,0,NA,0
"187",79,1,0.7,1,"stim/objects/HouseObjects/coffee2.png","stim/63.jpeg",6,3,"stim/63.jpeg",1,"right",0.989999771,4,2,2.677999973,1,13.47600007,187,0,0,NA,1,NA,0
"188",79,1,0.9,1,"stim/objects/HouseObjects/pan2.png","stim/22.jpeg",2,2,"stim/22.jpeg",3,"right",1.076999903,4,2,0.889999866,1,20.82200003,188,0,1,NA,0,NA,0
"189",79,2,0,1,"stim/objects/HouseObjects/ballofstring4.png","",0,0,"",0,"right",3.557999849,NA,NA,NA,NA,NA,189,1,NA,NA,NA,NA,0
"190",79,2,0,1,"stim/objects/HouseObjects/recyclingbin3.png","",0,0,"",0,"right",0.719000101,NA,NA,NA,NA,NA,190,1,NA,NA,NA,NA,0
"191",79,1,0.3,2,"stim/objects/Instruments/electricdrumset2.png","stim/62.jpeg",6,2,"stim/62.jpeg",4,"left",0.780999899,4,3,0.717999935,3,1.013999939,191,1,0,0,0,0,0
"192",79,1,0.3,1,"stim/objects/HouseObjects/bleachbottle2.png","stim/52.jpeg",5,2,"stim/52.jpeg",4,"right",0.796000004,2,4,1.246999979,2,1.437000036,192,0,0,NA,0,NA,0
"193",79,2,0,1,"stim/objects/HouseObjects/glassmop3.png","",0,0,"",0,"right",1.461999893,NA,NA,NA,NA,NA,193,1,NA,NA,NA,NA,0
"194",79,2,0,2,"stim/objects/Instruments/cymbal3.png","",0,0,"",0,"right",0.837999821,NA,NA,NA,NA,NA,194,1,NA,NA,NA,NA,0
"195",79,2,0,2,"stim/objects/Instruments/clarinet4.png","",0,0,"",0,"left",0.861000061,NA,NA,NA,NA,NA,195,0,NA,NA,NA,NA,0
"196",79,1,0.9,1,"stim/objects/HouseObjects/rubbergloves2.png","stim/22.jpeg",2,2,"stim/22.jpeg",4,"right",0.596999884,1,4,1.18900013,1,2.04399991,196,0,0,NA,0,NA,0
"197",79,2,0,2,"stim/objects/Instruments/doublebass4.png","",0,0,"",0,"right",1.636999846,NA,NA,NA,NA,NA,197,1,NA,NA,NA,NA,0
"198",79,2,0,1,"stim/objects/HouseObjects/ashtray3.png","",0,0,"",0,"right",1.182999849,NA,NA,NA,NA,NA,198,1,NA,NA,NA,NA,0
"199",79,1,0.7,2,"stim/objects/Instruments/acousticguitar2.png","stim/54.jpeg",5,4,"stim/54.jpeg",1,"left",0.893000126,4,2,1.269999981,2,1.061000109,199,1,0,0,0,0,0
"200",79,1,0.9,1,"stim/objects/HouseObjects/pitcher2.png","stim/23.jpeg",2,3,"stim/23.jpeg",2,"right",0.875,2,2,1.090000153,4,0.877999783,200,0,0,NA,0,NA,0
