"","obj_file","X.x","participant.x","trialN.x","trial_cond","scn_file.x","scn_cat","scn_inst","scn_condition","fillers","obj_cat","obj_cat_num","quadrant","corr_ans","key_resp_trial.keys","key_resp_trial.rt","trial_acc","trial_acc_manual","group.x","practice","X.y","participant.y","OvsN","PE_level","object_cat","scn_file.y","corr_scn_cat","corr_scn_inst","scn_file.1","corr_loc","key_resp_id.keys","key_resp_id.rt","key_resp_conf.keys","key_resp_assoc.keys","key_resp_assoc.rt","key_resp_loc.keys","key_resp_loc.rt","trialN.y","id_acc","assoc.acc","cond_assoc","loc.acc","cond_loc","group.y"
"225","stim/objects/Instruments/vuvuzela.png",1,79,1,0.7,"stim/53.jpeg",5,3,2,NA,"Instruments",2,1,"right","",NA,0,0,0,1,NA,NA,NA,NA,NA,NA,NA,NA,NA,NA,NA,NA,NA,NA,NA,NA,NA,NA,NA,NA,NA,NA,NA,NA
"226","stim/objects/Instruments/vuvuzela.png",2,79,2,0.7,"stim/53.jpeg",5,3,2,NA,"Instruments",2,1,"right","",NA,0,0,0,1,NA,NA,NA,NA,NA,NA,NA,NA,NA,NA,NA,NA,NA,NA,NA,NA,NA,NA,NA,NA,NA,NA,NA,NA
"158","stim/objects/Instruments/timbal2.png",3,79,3,0.9,"stim/11.jpeg",1,1,3,NA,"Instruments",2,1,"right","left",0.871999979,0,0,0,1,NA,NA,NA,NA,NA,NA,NA,NA,NA,NA,NA,NA,NA,NA,NA,NA,NA,NA,NA,NA,NA,NA,NA,NA
"209","stim/objects/Instruments/tuba.png",4,79,4,0.7,"stim/51.jpeg",5,1,2,NA,"Instruments",2,2,"right","",NA,0,0,0,1,NA,NA,NA,NA,NA,NA,NA,NA,NA,NA,NA,NA,NA,NA,NA,NA,NA,NA,NA,NA,NA,NA,NA,NA
"88","stim/objects/HouseObjects/towel2.png",5,79,5,0.9,"stim/22.jpeg",2,2,3,NA,"HouseObjects",1,2,"left","",NA,0,0,0,1,NA,NA,NA,NA,NA,NA,NA,NA,NA,NA,NA,NA,NA,NA,NA,NA,NA,NA,NA,NA,NA,NA,NA,NA
"49","stim/objects/HouseObjects/sponge.png",6,79,6,0.5,"stim/41.jpeg",4,1,1,NA,"HouseObjects",1,4,"left","right",0.662999868,0,0,0,1,NA,NA,NA,NA,NA,NA,NA,NA,NA,NA,NA,NA,NA,NA,NA,NA,NA,NA,NA,NA,NA,NA,NA,NA
"195","stim/objects/Instruments/trumpet.png",7,79,7,0.5,"stim/44.jpeg",4,4,1,NA,"Instruments",2,2,"right","right",0.666000128,1,1,0,1,NA,NA,NA,NA,NA,NA,NA,NA,NA,NA,NA,NA,NA,NA,NA,NA,NA,NA,NA,NA,NA,NA,NA,NA
"18","stim/objects/HouseObjects/safetypin2.png",8,79,8,0.7,"stim/62.jpeg",6,2,2,NA,"HouseObjects",1,3,"left","left",0.900999784,1,1,0,1,NA,NA,NA,NA,NA,NA,NA,NA,NA,NA,NA,NA,NA,NA,NA,NA,NA,NA,NA,NA,NA,NA,NA,NA
"210","stim/objects/Instruments/tuba.png",9,79,9,0.7,"stim/51.jpeg",5,1,2,NA,"Instruments",2,1,"right","right",0.621000051,1,1,0,1,NA,NA,NA,NA,NA,NA,NA,NA,NA,NA,NA,NA,NA,NA,NA,NA,NA,NA,NA,NA,NA,NA,NA,NA
"211","stim/objects/Instruments/tuba.png",10,79,10,0.7,"stim/51.jpeg",5,1,2,NA,"Instruments",2,2,"right","right",0.662000179,1,1,0,1,NA,NA,NA,NA,NA,NA,NA,NA,NA,NA,NA,NA,NA,NA,NA,NA,NA,NA,NA,NA,NA,NA,NA,NA
"159","stim/objects/Instruments/timbal2.png",11,79,11,0.9,"stim/11.jpeg",1,1,3,NA,"Instruments",2,1,"right","right",0.760999918,1,1,0,1,NA,NA,NA,NA,NA,NA,NA,NA,NA,NA,NA,NA,NA,NA,NA,NA,NA,NA,NA,NA,NA,NA,NA,NA
"1","stim/objects/HouseObjects/rug.png",12,79,12,0.5,"stim/31.jpeg",3,1,1,NA,"HouseObjects",1,3,"left","left",0.760999918,1,1,0,1,NA,NA,NA,NA,NA,NA,NA,NA,NA,NA,NA,NA,NA,NA,NA,NA,NA,NA,NA,NA,NA,NA,NA,NA
"224","stim/objects/Instruments/violin2.png",13,79,13,0.1,"stim/22.jpeg",2,2,3,NA,"Instruments",2,4,"right","right",0.670000076,1,1,0,1,NA,NA,NA,NA,NA,NA,NA,NA,NA,NA,NA,NA,NA,NA,NA,NA,NA,NA,NA,NA,NA,NA,NA,NA
"6","stim/objects/HouseObjects/rug2.png",14,79,14,0.7,"stim/61.jpeg",6,1,2,NA,"HouseObjects",1,2,"left","left",0.794000149,1,1,0,1,NA,NA,NA,NA,NA,NA,NA,NA,NA,NA,NA,NA,NA,NA,NA,NA,NA,NA,NA,NA,NA,NA,NA,NA
"89","stim/objects/HouseObjects/towel2.png",15,79,15,0.9,"stim/22.jpeg",2,2,3,NA,"HouseObjects",1,3,"left","left",0.787999868,1,1,0,1,NA,NA,NA,NA,NA,NA,NA,NA,NA,NA,NA,NA,NA,NA,NA,NA,NA,NA,NA,NA,NA,NA,NA,NA
"100","stim/objects/HouseObjects/vacuumcleaner2.png",16,79,16,0.9,"stim/23.jpeg",2,3,3,NA,"HouseObjects",1,1,"left","left",0.766000032,1,1,0,1,NA,NA,NA,NA,NA,NA,NA,NA,NA,NA,NA,NA,NA,NA,NA,NA,NA,NA,NA,NA,NA,NA,NA,NA
"37","stim/objects/HouseObjects/scale.png",17,79,17,0.5,"stim/34.jpeg",3,4,1,NA,"HouseObjects",1,4,"left","left",0.781000137,1,1,0,1,NA,NA,NA,NA,NA,NA,NA,NA,NA,NA,NA,NA,NA,NA,NA,NA,NA,NA,NA,NA,NA,NA,NA,NA
"61","stim/objects/HouseObjects/teapot.png",18,79,18,0.5,"stim/43.jpeg",4,3,1,NA,"HouseObjects",1,4,"left","right",0.863000154,0,0,0,1,NA,NA,NA,NA,NA,NA,NA,NA,NA,NA,NA,NA,NA,NA,NA,NA,NA,NA,NA,NA,NA,NA,NA,NA
"109","stim/objects/HouseObjects/wateringcan.png",19,79,19,0.3,"stim/54.jpeg",5,4,2,NA,"HouseObjects",1,2,"left","right",0.711999893,0,0,0,1,NA,NA,NA,NA,NA,NA,NA,NA,NA,NA,NA,NA,NA,NA,NA,NA,NA,NA,NA,NA,NA,NA,NA,NA
"121","stim/objects/Instruments/record_player.png",20,79,20,0.5,"stim/31.jpeg",3,1,1,NA,"Instruments",2,2,"right","right",0.799999952,1,1,0,1,NA,NA,NA,NA,NA,NA,NA,NA,NA,NA,NA,NA,NA,NA,NA,NA,NA,NA,NA,NA,NA,NA,NA,NA
"13","stim/objects/HouseObjects/safetypin.png",21,79,21,0.5,"stim/32.jpeg",3,2,1,NA,"HouseObjects",1,3,"left","left",0.891000032,1,1,0,1,NA,NA,NA,NA,NA,NA,NA,NA,NA,NA,NA,NA,NA,NA,NA,NA,NA,NA,NA,NA,NA,NA,NA,NA
"7","stim/objects/HouseObjects/rug2.png",22,79,22,0.7,"stim/61.jpeg",6,1,2,NA,"HouseObjects",1,3,"left","",NA,0,0,0,1,NA,NA,NA,NA,NA,NA,NA,NA,NA,NA,NA,NA,NA,NA,NA,NA,NA,NA,NA,NA,NA,NA,NA,NA
"167","stim/objects/Instruments/triangle.png",23,79,23,0.5,"stim/42.jpeg",4,2,1,NA,"Instruments",2,1,"right","right",0.584000111,1,1,0,1,NA,NA,NA,NA,NA,NA,NA,NA,NA,NA,NA,NA,NA,NA,NA,NA,NA,NA,NA,NA,NA,NA,NA,NA
"233","stim/objects/Instruments/xylophone.png",24,79,24,0.7,"stim/54.jpeg",5,4,2,NA,"Instruments",2,3,"right","left",0.518000126,0,0,0,1,NA,NA,NA,NA,NA,NA,NA,NA,NA,NA,NA,NA,NA,NA,NA,NA,NA,NA,NA,NA,NA,NA,NA,NA
"110","stim/objects/HouseObjects/wateringcan.png",25,79,25,0.3,"stim/54.jpeg",5,4,2,NA,"HouseObjects",1,3,"left","",NA,0,0,0,1,NA,NA,NA,NA,NA,NA,NA,NA,NA,NA,NA,NA,NA,NA,NA,NA,NA,NA,NA,NA,NA,NA,NA,NA
"67","stim/objects/HouseObjects/thermometer.png",26,79,26,0.5,"stim/44.jpeg",4,4,1,NA,"HouseObjects",1,3,"left","right",0.693000078,0,0,0,1,NA,NA,NA,NA,NA,NA,NA,NA,NA,NA,NA,NA,NA,NA,NA,NA,NA,NA,NA,NA,NA,NA,NA,NA
"217","stim/objects/Instruments/violin.png",27,79,27,0.7,"stim/52.jpeg",5,2,2,NA,"Instruments",2,4,"right","right",0.569000006,1,1,0,1,NA,NA,NA,NA,NA,NA,NA,NA,NA,NA,NA,NA,NA,NA,NA,NA,NA,NA,NA,NA,NA,NA,NA,NA
"181","stim/objects/Instruments/trombone.png",28,79,28,0.5,"stim/43.jpeg",4,3,1,NA,"Instruments",2,4,"right","left",0.470999956,0,0,0,1,NA,NA,NA,NA,NA,NA,NA,NA,NA,NA,NA,NA,NA,NA,NA,NA,NA,NA,NA,NA,NA,NA,NA,NA
"153","stim/objects/Instruments/timbal.png",29,79,29,0.5,"stim/41.jpeg",4,1,1,NA,"Instruments",2,1,"right","left",0.296000004,0,0,0,1,NA,NA,NA,NA,NA,NA,NA,NA,NA,NA,NA,NA,NA,NA,NA,NA,NA,NA,NA,NA,NA,NA,NA,NA
"200","stim/objects/Instruments/trumpet2.png",30,79,30,0.9,"stim/14.jpeg",1,4,3,NA,"Instruments",2,1,"right","left",0.569999933,0,0,0,1,NA,NA,NA,NA,NA,NA,NA,NA,NA,NA,NA,NA,NA,NA,NA,NA,NA,NA,NA,NA,NA,NA,NA,NA
"201","stim/objects/Instruments/trumpet2.png",31,79,31,0.9,"stim/14.jpeg",1,4,3,NA,"Instruments",2,3,"right","right",0.90199995,1,1,0,1,NA,NA,NA,NA,NA,NA,NA,NA,NA,NA,NA,NA,NA,NA,NA,NA,NA,NA,NA,NA,NA,NA,NA,NA
"218","stim/objects/Instruments/violin.png",32,79,32,0.7,"stim/52.jpeg",5,2,2,NA,"Instruments",2,2,"right","right",0.676000118,1,1,0,1,NA,NA,NA,NA,NA,NA,NA,NA,NA,NA,NA,NA,NA,NA,NA,NA,NA,NA,NA,NA,NA,NA,NA,NA
"172","stim/objects/Instruments/triangle2.png",33,79,33,0.9,"stim/12.jpeg",1,2,3,NA,"Instruments",2,1,"right","right",0.611000061,1,1,0,1,NA,NA,NA,NA,NA,NA,NA,NA,NA,NA,NA,NA,NA,NA,NA,NA,NA,NA,NA,NA,NA,NA,NA,NA
"62","stim/objects/HouseObjects/teapot.png",34,79,34,0.5,"stim/43.jpeg",4,3,1,NA,"HouseObjects",1,4,"left","left",0.763000011,1,1,0,1,NA,NA,NA,NA,NA,NA,NA,NA,NA,NA,NA,NA,NA,NA,NA,NA,NA,NA,NA,NA,NA,NA,NA,NA
"90","stim/objects/HouseObjects/towel2.png",35,79,35,0.9,"stim/22.jpeg",2,2,3,NA,"HouseObjects",1,2,"left","right",0.914000034,0,0,0,1,NA,NA,NA,NA,NA,NA,NA,NA,NA,NA,NA,NA,NA,NA,NA,NA,NA,NA,NA,NA,NA,NA,NA,NA
"30","stim/objects/HouseObjects/saw2.png",36,79,36,0.7,"stim/63.jpeg",6,3,2,NA,"HouseObjects",1,4,"left","left",0.642000198,1,1,0,1,NA,NA,NA,NA,NA,NA,NA,NA,NA,NA,NA,NA,NA,NA,NA,NA,NA,NA,NA,NA,NA,NA,NA,NA
"173","stim/objects/Instruments/triangle2.png",37,79,37,0.9,"stim/12.jpeg",1,2,3,NA,"Instruments",2,3,"right","right",0.840000153,1,1,0,1,NA,NA,NA,NA,NA,NA,NA,NA,NA,NA,NA,NA,NA,NA,NA,NA,NA,NA,NA,NA,NA,NA,NA,NA
"234","stim/objects/Instruments/xylophone.png",38,79,38,0.7,"stim/54.jpeg",5,4,2,NA,"Instruments",2,1,"right","right",0.73300004,1,1,0,1,NA,NA,NA,NA,NA,NA,NA,NA,NA,NA,NA,NA,NA,NA,NA,NA,NA,NA,NA,NA,NA,NA,NA,NA
"2","stim/objects/HouseObjects/rug.png",39,79,39,0.5,"stim/31.jpeg",3,1,1,NA,"HouseObjects",1,3,"left","left",0.625,1,1,0,1,NA,NA,NA,NA,NA,NA,NA,NA,NA,NA,NA,NA,NA,NA,NA,NA,NA,NA,NA,NA,NA,NA,NA,NA
"154","stim/objects/Instruments/timbal.png",40,79,40,0.5,"stim/41.jpeg",4,1,1,NA,"Instruments",2,2,"right","right",0.575000048,1,1,0,1,NA,NA,NA,NA,NA,NA,NA,NA,NA,NA,NA,NA,NA,NA,NA,NA,NA,NA,NA,NA,NA,NA,NA,NA
"202","stim/objects/Instruments/trumpet2.png",41,79,41,0.9,"stim/14.jpeg",1,4,3,NA,"Instruments",2,3,"right","left",0.46600008,0,0,0,1,NA,NA,NA,NA,NA,NA,NA,NA,NA,NA,NA,NA,NA,NA,NA,NA,NA,NA,NA,NA,NA,NA,NA,NA
"216","stim/objects/Instruments/tuba2.png",42,79,42,0.1,"stim/21.jpeg",2,1,3,NA,"Instruments",2,1,"right","left",0.779000044,0,0,0,1,NA,NA,NA,NA,NA,NA,NA,NA,NA,NA,NA,NA,NA,NA,NA,NA,NA,NA,NA,NA,NA,NA,NA,NA
"97","stim/objects/HouseObjects/vacuumcleaner.png",43,79,43,0.3,"stim/53.jpeg",5,3,2,NA,"HouseObjects",1,3,"left","right",0.871999979,0,0,0,1,NA,NA,NA,NA,NA,NA,NA,NA,NA,NA,NA,NA,NA,NA,NA,NA,NA,NA,NA,NA,NA,NA,NA,NA
"145","stim/objects/Instruments/tambourine.png",44,79,44,0.5,"stim/34.jpeg",3,4,1,NA,"Instruments",2,4,"right","left",0.57400012,0,0,0,1,NA,NA,NA,NA,NA,NA,NA,NA,NA,NA,NA,NA,NA,NA,NA,NA,NA,NA,NA,NA,NA,NA,NA,NA
"50","stim/objects/HouseObjects/sponge.png",45,79,45,0.5,"stim/41.jpeg",4,1,1,NA,"HouseObjects",1,3,"left","right",0.565999985,0,0,0,1,NA,NA,NA,NA,NA,NA,NA,NA,NA,NA,NA,NA,NA,NA,NA,NA,NA,NA,NA,NA,NA,NA,NA,NA
"227","stim/objects/Instruments/vuvuzela.png",46,79,46,0.7,"stim/53.jpeg",5,3,2,NA,"Instruments",2,4,"right","right",0.781000137,1,1,0,1,NA,NA,NA,NA,NA,NA,NA,NA,NA,NA,NA,NA,NA,NA,NA,NA,NA,NA,NA,NA,NA,NA,NA,NA
"91","stim/objects/HouseObjects/towel2.png",47,79,47,0.9,"stim/22.jpeg",2,2,3,NA,"HouseObjects",1,4,"left","left",0.588999987,1,1,0,1,NA,NA,NA,NA,NA,NA,NA,NA,NA,NA,NA,NA,NA,NA,NA,NA,NA,NA,NA,NA,NA,NA,NA,NA
"51","stim/objects/HouseObjects/sponge.png",48,79,48,0.5,"stim/41.jpeg",4,1,1,NA,"HouseObjects",1,3,"left","right",0.717999935,0,0,0,1,NA,NA,NA,NA,NA,NA,NA,NA,NA,NA,NA,NA,NA,NA,NA,NA,NA,NA,NA,NA,NA,NA,NA,NA
"112","stim/objects/HouseObjects/wateringcan2.png",49,79,49,0.9,"stim/24.jpeg",2,4,3,NA,"HouseObjects",1,3,"left","left",0.604999781,1,1,0,1,NA,NA,NA,NA,NA,NA,NA,NA,NA,NA,NA,NA,NA,NA,NA,NA,NA,NA,NA,NA,NA,NA,NA,NA
"160","stim/objects/Instruments/timbal2.png",50,79,50,0.9,"stim/11.jpeg",1,1,3,NA,"Instruments",2,1,"right","left",0.670000076,0,0,0,1,NA,NA,NA,NA,NA,NA,NA,NA,NA,NA,NA,NA,NA,NA,NA,NA,NA,NA,NA,NA,NA,NA,NA,NA
"168","stim/objects/Instruments/triangle.png",51,79,51,0.5,"stim/42.jpeg",4,2,1,NA,"Instruments",2,2,"right","right",0.671000004,1,1,0,1,NA,NA,NA,NA,NA,NA,NA,NA,NA,NA,NA,NA,NA,NA,NA,NA,NA,NA,NA,NA,NA,NA,NA,NA
"212","stim/objects/Instruments/tuba.png",52,79,52,0.7,"stim/51.jpeg",5,1,2,NA,"Instruments",2,2,"right","right",0.46999979,1,1,0,1,NA,NA,NA,NA,NA,NA,NA,NA,NA,NA,NA,NA,NA,NA,NA,NA,NA,NA,NA,NA,NA,NA,NA,NA
"150","stim/objects/Instruments/tambourine2.png",53,79,53,0.3,"stim/64.jpeg",6,4,2,NA,"Instruments",2,3,"right","left",0.643000126,0,0,0,1,NA,NA,NA,NA,NA,NA,NA,NA,NA,NA,NA,NA,NA,NA,NA,NA,NA,NA,NA,NA,NA,NA,NA,NA
"92","stim/objects/HouseObjects/towel2.png",54,79,54,0.9,"stim/22.jpeg",2,2,3,NA,"HouseObjects",1,3,"left","right",0.260999918,0,0,0,1,NA,NA,NA,NA,NA,NA,NA,NA,NA,NA,NA,NA,NA,NA,NA,NA,NA,NA,NA,NA,NA,NA,NA,NA
"73","stim/objects/HouseObjects/thread.png",55,79,55,0.3,"stim/51.jpeg",5,1,2,NA,"HouseObjects",1,4,"left","right",0.305999994,0,0,0,1,NA,NA,NA,NA,NA,NA,NA,NA,NA,NA,NA,NA,NA,NA,NA,NA,NA,NA,NA,NA,NA,NA,NA,NA
"8","stim/objects/HouseObjects/rug2.png",56,79,56,0.7,"stim/61.jpeg",6,1,2,NA,"HouseObjects",1,3,"left","left",0.378999949,1,1,0,1,NA,NA,NA,NA,NA,NA,NA,NA,NA,NA,NA,NA,NA,NA,NA,NA,NA,NA,NA,NA,NA,NA,NA,NA
"228","stim/objects/Instruments/vuvuzela.png",57,79,57,0.7,"stim/53.jpeg",5,3,2,NA,"Instruments",2,2,"right","right",0.377999783,1,1,0,1,NA,NA,NA,NA,NA,NA,NA,NA,NA,NA,NA,NA,NA,NA,NA,NA,NA,NA,NA,NA,NA,NA,NA,NA
"155","stim/objects/Instruments/timbal.png",58,79,58,0.5,"stim/41.jpeg",4,1,1,NA,"Instruments",2,2,"right","left",0.715000153,0,0,0,1,NA,NA,NA,NA,NA,NA,NA,NA,NA,NA,NA,NA,NA,NA,NA,NA,NA,NA,NA,NA,NA,NA,NA,NA
"42","stim/objects/HouseObjects/scale2.png",59,79,59,0.7,"stim/64.jpeg",6,4,2,NA,"HouseObjects",1,2,"left","left",0.473999977,1,1,0,1,NA,NA,NA,NA,NA,NA,NA,NA,NA,NA,NA,NA,NA,NA,NA,NA,NA,NA,NA,NA,NA,NA,NA,NA
"137","stim/objects/Instruments/speaker.png",60,79,60,0.5,"stim/33.jpeg",3,3,1,NA,"Instruments",2,3,"right","left",0.674999952,0,0,0,1,NA,NA,NA,NA,NA,NA,NA,NA,NA,NA,NA,NA,NA,NA,NA,NA,NA,NA,NA,NA,NA,NA,NA,NA
"186","stim/objects/Instruments/trombone2.png",61,79,61,0.9,"stim/13.jpeg",1,3,3,NA,"Instruments",2,2,"right","right",0.729000092,1,1,0,1,NA,NA,NA,NA,NA,NA,NA,NA,NA,NA,NA,NA,NA,NA,NA,NA,NA,NA,NA,NA,NA,NA,NA,NA
"235","stim/objects/Instruments/xylophone.png",62,79,62,0.7,"stim/54.jpeg",5,4,2,NA,"Instruments",2,1,"right","right",0.726999998,1,1,0,1,NA,NA,NA,NA,NA,NA,NA,NA,NA,NA,NA,NA,NA,NA,NA,NA,NA,NA,NA,NA,NA,NA,NA,NA
"43","stim/objects/HouseObjects/scale2.png",63,79,63,0.7,"stim/64.jpeg",6,4,2,NA,"HouseObjects",1,4,"left","left",0.508999825,1,1,0,1,NA,NA,NA,NA,NA,NA,NA,NA,NA,NA,NA,NA,NA,NA,NA,NA,NA,NA,NA,NA,NA,NA,NA,NA
"101","stim/objects/HouseObjects/vacuumcleaner2.png",64,79,64,0.9,"stim/23.jpeg",2,3,3,NA,"HouseObjects",1,4,"left","left",0.608999968,1,1,0,1,NA,NA,NA,NA,NA,NA,NA,NA,NA,NA,NA,NA,NA,NA,NA,NA,NA,NA,NA,NA,NA,NA,NA,NA
"102","stim/objects/HouseObjects/vacuumcleaner2.png",65,79,65,0.9,"stim/23.jpeg",2,3,3,NA,"HouseObjects",1,4,"left","left",0.577000141,1,1,0,1,NA,NA,NA,NA,NA,NA,NA,NA,NA,NA,NA,NA,NA,NA,NA,NA,NA,NA,NA,NA,NA,NA,NA,NA
"44","stim/objects/HouseObjects/scale2.png",66,79,66,0.7,"stim/64.jpeg",6,4,2,NA,"HouseObjects",1,4,"left","right",0.260999918,0,0,0,1,NA,NA,NA,NA,NA,NA,NA,NA,NA,NA,NA,NA,NA,NA,NA,NA,NA,NA,NA,NA,NA,NA,NA,NA
"85","stim/objects/HouseObjects/towel.png",67,79,67,0.3,"stim/52.jpeg",5,2,2,NA,"HouseObjects",1,4,"left","left",0.273000002,1,1,0,1,NA,NA,NA,NA,NA,NA,NA,NA,NA,NA,NA,NA,NA,NA,NA,NA,NA,NA,NA,NA,NA,NA,NA,NA
"76","stim/objects/HouseObjects/thread2.png",68,79,68,0.9,"stim/21.jpeg",2,1,3,NA,"HouseObjects",1,2,"left","right",0.566999912,0,0,0,1,NA,NA,NA,NA,NA,NA,NA,NA,NA,NA,NA,NA,NA,NA,NA,NA,NA,NA,NA,NA,NA,NA,NA,NA
"156","stim/objects/Instruments/timbal.png",69,79,69,0.5,"stim/41.jpeg",4,1,1,NA,"Instruments",2,4,"right","right",0.637999773,1,1,0,1,NA,NA,NA,NA,NA,NA,NA,NA,NA,NA,NA,NA,NA,NA,NA,NA,NA,NA,NA,NA,NA,NA,NA,NA
"98","stim/objects/HouseObjects/vacuumcleaner.png",70,79,70,0.3,"stim/53.jpeg",5,3,2,NA,"HouseObjects",1,4,"left","left",0.747999907,1,1,0,1,NA,NA,NA,NA,NA,NA,NA,NA,NA,NA,NA,NA,NA,NA,NA,NA,NA,NA,NA,NA,NA,NA,NA,NA
"25","stim/objects/HouseObjects/saw.png",71,79,71,0.5,"stim/33.jpeg",3,3,1,NA,"HouseObjects",1,1,"left","right",0.545000076,0,0,0,1,NA,NA,NA,NA,NA,NA,NA,NA,NA,NA,NA,NA,NA,NA,NA,NA,NA,NA,NA,NA,NA,NA,NA,NA
"129","stim/objects/Instruments/saxophone.png",72,79,72,0.5,"stim/32.jpeg",3,2,1,NA,"Instruments",2,1,"right","right",0.443000078,1,1,0,1,NA,NA,NA,NA,NA,NA,NA,NA,NA,NA,NA,NA,NA,NA,NA,NA,NA,NA,NA,NA,NA,NA,NA,NA
"174","stim/objects/Instruments/triangle2.png",73,79,73,0.9,"stim/12.jpeg",1,2,3,NA,"Instruments",2,4,"right","right",0.726000071,1,1,0,1,NA,NA,NA,NA,NA,NA,NA,NA,NA,NA,NA,NA,NA,NA,NA,NA,NA,NA,NA,NA,NA,NA,NA,NA
"213","stim/objects/Instruments/tuba.png",74,79,74,0.7,"stim/51.jpeg",5,1,2,NA,"Instruments",2,1,"right","left",0.739000082,0,0,0,1,NA,NA,NA,NA,NA,NA,NA,NA,NA,NA,NA,NA,NA,NA,NA,NA,NA,NA,NA,NA,NA,NA,NA,NA
"236","stim/objects/Instruments/xylophone.png",75,79,75,0.7,"stim/54.jpeg",5,4,2,NA,"Instruments",2,2,"right","right",0.655999899,1,1,0,1,NA,NA,NA,NA,NA,NA,NA,NA,NA,NA,NA,NA,NA,NA,NA,NA,NA,NA,NA,NA,NA,NA,NA,NA
"54","stim/objects/HouseObjects/sponge2.png",76,79,76,0.1,"stim/11.jpeg",1,1,3,NA,"HouseObjects",1,2,"left","left",0.651000023,1,1,0,1,NA,NA,NA,NA,NA,NA,NA,NA,NA,NA,NA,NA,NA,NA,NA,NA,NA,NA,NA,NA,NA,NA,NA,NA
"77","stim/objects/HouseObjects/thread2.png",77,79,77,0.9,"stim/21.jpeg",2,1,3,NA,"HouseObjects",1,1,"left","right",0.582000017,0,0,0,1,NA,NA,NA,NA,NA,NA,NA,NA,NA,NA,NA,NA,NA,NA,NA,NA,NA,NA,NA,NA,NA,NA,NA,NA
"78","stim/objects/HouseObjects/thread2.png",78,79,78,0.9,"stim/21.jpeg",2,1,3,NA,"HouseObjects",1,4,"left","right",0.302000046,0,0,0,1,NA,NA,NA,NA,NA,NA,NA,NA,NA,NA,NA,NA,NA,NA,NA,NA,NA,NA,NA,NA,NA,NA,NA,NA
"161","stim/objects/Instruments/timbal2.png",79,79,79,0.9,"stim/11.jpeg",1,1,3,NA,"Instruments",2,2,"right","right",0.689999819,1,1,0,1,NA,NA,NA,NA,NA,NA,NA,NA,NA,NA,NA,NA,NA,NA,NA,NA,NA,NA,NA,NA,NA,NA,NA,NA
"79","stim/objects/HouseObjects/thread2.png",80,79,80,0.9,"stim/21.jpeg",2,1,3,NA,"HouseObjects",1,4,"left","left",0.385999918,1,1,0,1,NA,NA,NA,NA,NA,NA,NA,NA,NA,NA,NA,NA,NA,NA,NA,NA,NA,NA,NA,NA,NA,NA,NA,NA
"52","stim/objects/HouseObjects/sponge.png",81,79,81,0.5,"stim/41.jpeg",4,1,1,NA,"HouseObjects",1,2,"left","right",0.648999929,0,0,0,1,NA,NA,NA,NA,NA,NA,NA,NA,NA,NA,NA,NA,NA,NA,NA,NA,NA,NA,NA,NA,NA,NA,NA,NA
"196","stim/objects/Instruments/trumpet.png",82,79,82,0.5,"stim/44.jpeg",4,4,1,NA,"Instruments",2,4,"right","right",0.754999876,1,1,0,1,NA,NA,NA,NA,NA,NA,NA,NA,NA,NA,NA,NA,NA,NA,NA,NA,NA,NA,NA,NA,NA,NA,NA,NA
"240","stim/objects/Instruments/xylophone2.png",83,79,83,0.1,"stim/24.jpeg",2,4,3,NA,"Instruments",2,3,"right","left",0.388000011,0,0,0,1,NA,NA,NA,NA,NA,NA,NA,NA,NA,NA,NA,NA,NA,NA,NA,NA,NA,NA,NA,NA,NA,NA,NA,NA
"187","stim/objects/Instruments/trombone2.png",84,79,84,0.9,"stim/13.jpeg",1,3,3,NA,"Instruments",2,4,"right","right",0.333000183,1,1,0,1,NA,NA,NA,NA,NA,NA,NA,NA,NA,NA,NA,NA,NA,NA,NA,NA,NA,NA,NA,NA,NA,NA,NA,NA
"146","stim/objects/Instruments/tambourine.png",85,79,85,0.5,"stim/34.jpeg",3,4,1,NA,"Instruments",2,1,"right","left",0.786000013,0,0,0,1,NA,NA,NA,NA,NA,NA,NA,NA,NA,NA,NA,NA,NA,NA,NA,NA,NA,NA,NA,NA,NA,NA,NA,NA
"126","stim/objects/Instruments/record_player2.png",86,79,86,0.3,"stim/61.jpeg",6,1,2,NA,"Instruments",2,3,"right","left",0.752000093,0,0,0,1,NA,NA,NA,NA,NA,NA,NA,NA,NA,NA,NA,NA,NA,NA,NA,NA,NA,NA,NA,NA,NA,NA,NA,NA
"197","stim/objects/Instruments/trumpet.png",87,79,87,0.5,"stim/44.jpeg",4,4,1,NA,"Instruments",2,3,"right","right",0.756000042,1,1,0,1,NA,NA,NA,NA,NA,NA,NA,NA,NA,NA,NA,NA,NA,NA,NA,NA,NA,NA,NA,NA,NA,NA,NA,NA
"188","stim/objects/Instruments/trombone2.png",88,79,88,0.9,"stim/13.jpeg",1,3,3,NA,"Instruments",2,2,"right","left",0.545000076,0,0,0,1,NA,NA,NA,NA,NA,NA,NA,NA,NA,NA,NA,NA,NA,NA,NA,NA,NA,NA,NA,NA,NA,NA,NA,NA
"229","stim/objects/Instruments/vuvuzela.png",89,79,89,0.7,"stim/53.jpeg",5,3,2,NA,"Instruments",2,2,"right","right",0.74000001,1,1,0,1,NA,NA,NA,NA,NA,NA,NA,NA,NA,NA,NA,NA,NA,NA,NA,NA,NA,NA,NA,NA,NA,NA,NA,NA
"138","stim/objects/Instruments/speaker.png",90,79,90,0.5,"stim/33.jpeg",3,3,1,NA,"Instruments",2,2,"right","left",0.631999969,0,0,0,1,NA,NA,NA,NA,NA,NA,NA,NA,NA,NA,NA,NA,NA,NA,NA,NA,NA,NA,NA,NA,NA,NA,NA,NA
"63","stim/objects/HouseObjects/teapot.png",91,79,91,0.5,"stim/43.jpeg",4,3,1,NA,"HouseObjects",1,2,"left","right",0.563999891,0,0,0,1,NA,NA,NA,NA,NA,NA,NA,NA,NA,NA,NA,NA,NA,NA,NA,NA,NA,NA,NA,NA,NA,NA,NA,NA
"19","stim/objects/HouseObjects/safetypin2.png",92,79,92,0.7,"stim/62.jpeg",6,2,2,NA,"HouseObjects",1,1,"left","left",0.779999971,1,1,0,1,NA,NA,NA,NA,NA,NA,NA,NA,NA,NA,NA,NA,NA,NA,NA,NA,NA,NA,NA,NA,NA,NA,NA,NA
"14","stim/objects/HouseObjects/safetypin.png",93,79,93,0.5,"stim/32.jpeg",3,2,1,NA,"HouseObjects",1,4,"left","right",0.634000063,0,0,0,1,NA,NA,NA,NA,NA,NA,NA,NA,NA,NA,NA,NA,NA,NA,NA,NA,NA,NA,NA,NA,NA,NA,NA,NA
"142","stim/objects/Instruments/speaker2.png",94,79,94,0.3,"stim/63.jpeg",6,3,2,NA,"Instruments",2,4,"right","left",0.628999949,0,0,0,1,NA,NA,NA,NA,NA,NA,NA,NA,NA,NA,NA,NA,NA,NA,NA,NA,NA,NA,NA,NA,NA,NA,NA,NA
"157","stim/objects/Instruments/timbal.png",95,79,95,0.5,"stim/41.jpeg",4,1,1,NA,"Instruments",2,2,"right","right",0.613000154,1,1,0,1,NA,NA,NA,NA,NA,NA,NA,NA,NA,NA,NA,NA,NA,NA,NA,NA,NA,NA,NA,NA,NA,NA,NA,NA
"45","stim/objects/HouseObjects/scale2.png",96,79,96,0.7,"stim/64.jpeg",6,4,2,NA,"HouseObjects",1,4,"left","left",0.506999969,1,1,0,1,NA,NA,NA,NA,NA,NA,NA,NA,NA,NA,NA,NA,NA,NA,NA,NA,NA,NA,NA,NA,NA,NA,NA,NA
"68","stim/objects/HouseObjects/thermometer.png",97,79,97,0.5,"stim/44.jpeg",4,4,1,NA,"HouseObjects",1,2,"left","right",0.607000113,0,0,0,1,NA,NA,NA,NA,NA,NA,NA,NA,NA,NA,NA,NA,NA,NA,NA,NA,NA,NA,NA,NA,NA,NA,NA,NA
"175","stim/objects/Instruments/triangle2.png",98,79,98,0.9,"stim/12.jpeg",1,2,3,NA,"Instruments",2,1,"right","right",0.270999908,1,1,0,1,NA,NA,NA,NA,NA,NA,NA,NA,NA,NA,NA,NA,NA,NA,NA,NA,NA,NA,NA,NA,NA,NA,NA,NA
"134","stim/objects/Instruments/saxophone2.png",99,79,99,0.3,"stim/62.jpeg",6,2,2,NA,"Instruments",2,4,"right","left",0.614000082,0,0,0,1,NA,NA,NA,NA,NA,NA,NA,NA,NA,NA,NA,NA,NA,NA,NA,NA,NA,NA,NA,NA,NA,NA,NA,NA
"15","stim/objects/HouseObjects/safetypin.png",100,79,100,0.5,"stim/32.jpeg",3,2,1,NA,"HouseObjects",1,1,"left","left",0.450000048,1,1,0,1,NA,NA,NA,NA,NA,NA,NA,NA,NA,NA,NA,NA,NA,NA,NA,NA,NA,NA,NA,NA,NA,NA,NA,NA
"203","stim/objects/Instruments/trumpet2.png",101,79,101,0.9,"stim/14.jpeg",1,4,3,NA,"Instruments",2,4,"right","right",0.663999796,1,1,0,1,NA,NA,NA,NA,NA,NA,NA,NA,NA,NA,NA,NA,NA,NA,NA,NA,NA,NA,NA,NA,NA,NA,NA,NA
"26","stim/objects/HouseObjects/saw.png",102,79,102,0.5,"stim/33.jpeg",3,3,1,NA,"HouseObjects",1,1,"left","left",0.565000057,1,1,0,1,NA,NA,NA,NA,NA,NA,NA,NA,NA,NA,NA,NA,NA,NA,NA,NA,NA,NA,NA,NA,NA,NA,NA,NA
"189","stim/objects/Instruments/trombone2.png",103,79,103,0.9,"stim/13.jpeg",1,3,3,NA,"Instruments",2,3,"right","right",0.670000076,1,1,0,1,NA,NA,NA,NA,NA,NA,NA,NA,NA,NA,NA,NA,NA,NA,NA,NA,NA,NA,NA,NA,NA,NA,NA,NA
"80","stim/objects/HouseObjects/thread2.png",104,79,104,0.9,"stim/21.jpeg",2,1,3,NA,"HouseObjects",1,4,"left","left",0.707000017,1,1,0,1,NA,NA,NA,NA,NA,NA,NA,NA,NA,NA,NA,NA,NA,NA,NA,NA,NA,NA,NA,NA,NA,NA,NA,NA
"204","stim/objects/Instruments/trumpet2.png",105,79,105,0.9,"stim/14.jpeg",1,4,3,NA,"Instruments",2,3,"right","right",0.683999777,1,1,0,1,NA,NA,NA,NA,NA,NA,NA,NA,NA,NA,NA,NA,NA,NA,NA,NA,NA,NA,NA,NA,NA,NA,NA,NA
"147","stim/objects/Instruments/tambourine.png",106,79,106,0.5,"stim/34.jpeg",3,4,1,NA,"Instruments",2,2,"right","left",0.635999918,0,0,0,1,NA,NA,NA,NA,NA,NA,NA,NA,NA,NA,NA,NA,NA,NA,NA,NA,NA,NA,NA,NA,NA,NA,NA,NA
"182","stim/objects/Instruments/trombone.png",107,79,107,0.5,"stim/43.jpeg",4,3,1,NA,"Instruments",2,3,"right","right",0.568000078,1,1,0,1,NA,NA,NA,NA,NA,NA,NA,NA,NA,NA,NA,NA,NA,NA,NA,NA,NA,NA,NA,NA,NA,NA,NA,NA
"214","stim/objects/Instruments/tuba.png",108,79,108,0.7,"stim/51.jpeg",5,1,2,NA,"Instruments",2,1,"right","right",0.622999907,1,1,0,1,NA,NA,NA,NA,NA,NA,NA,NA,NA,NA,NA,NA,NA,NA,NA,NA,NA,NA,NA,NA,NA,NA,NA,NA
"130","stim/objects/Instruments/saxophone.png",109,79,109,0.5,"stim/32.jpeg",3,2,1,NA,"Instruments",2,1,"right","left",0.426000118,0,0,0,1,NA,NA,NA,NA,NA,NA,NA,NA,NA,NA,NA,NA,NA,NA,NA,NA,NA,NA,NA,NA,NA,NA,NA,NA
"139","stim/objects/Instruments/speaker.png",110,79,110,0.5,"stim/33.jpeg",3,3,1,NA,"Instruments",2,1,"right","left",0.71600008,0,0,0,1,NA,NA,NA,NA,NA,NA,NA,NA,NA,NA,NA,NA,NA,NA,NA,NA,NA,NA,NA,NA,NA,NA,NA,NA
"190","stim/objects/Instruments/trombone2.png",111,79,111,0.9,"stim/13.jpeg",1,3,3,NA,"Instruments",2,3,"right","right",0.556999922,1,1,0,1,NA,NA,NA,NA,NA,NA,NA,NA,NA,NA,NA,NA,NA,NA,NA,NA,NA,NA,NA,NA,NA,NA,NA,NA
"113","stim/objects/HouseObjects/wateringcan2.png",112,79,112,0.9,"stim/24.jpeg",2,4,3,NA,"HouseObjects",1,1,"left","left",0.640000105,1,1,0,1,NA,NA,NA,NA,NA,NA,NA,NA,NA,NA,NA,NA,NA,NA,NA,NA,NA,NA,NA,NA,NA,NA,NA,NA
"55","stim/objects/HouseObjects/spraybottle.png",113,79,113,0.5,"stim/42.jpeg",4,2,1,NA,"HouseObjects",1,4,"left","right",0.572000027,0,0,0,1,NA,NA,NA,NA,NA,NA,NA,NA,NA,NA,NA,NA,NA,NA,NA,NA,NA,NA,NA,NA,NA,NA,NA,NA
"131","stim/objects/Instruments/saxophone.png",114,79,114,0.5,"stim/32.jpeg",3,2,1,NA,"Instruments",2,4,"right","right",0.475999832,1,1,0,1,NA,NA,NA,NA,NA,NA,NA,NA,NA,NA,NA,NA,NA,NA,NA,NA,NA,NA,NA,NA,NA,NA,NA,NA
"69","stim/objects/HouseObjects/thermometer.png",115,79,115,0.5,"stim/44.jpeg",4,4,1,NA,"HouseObjects",1,3,"left","left",0.523000002,1,1,0,1,NA,NA,NA,NA,NA,NA,NA,NA,NA,NA,NA,NA,NA,NA,NA,NA,NA,NA,NA,NA,NA,NA,NA,NA
"114","stim/objects/HouseObjects/wateringcan2.png",116,79,116,0.9,"stim/24.jpeg",2,4,3,NA,"HouseObjects",1,2,"left","left",0.667999983,1,1,0,1,NA,NA,NA,NA,NA,NA,NA,NA,NA,NA,NA,NA,NA,NA,NA,NA,NA,NA,NA,NA,NA,NA,NA,NA
"122","stim/objects/Instruments/record_player.png",117,79,117,0.5,"stim/31.jpeg",3,1,1,NA,"Instruments",2,1,"right","right",0.619999886,1,1,0,1,NA,NA,NA,NA,NA,NA,NA,NA,NA,NA,NA,NA,NA,NA,NA,NA,NA,NA,NA,NA,NA,NA,NA,NA
"115","stim/objects/HouseObjects/wateringcan2.png",118,79,118,0.9,"stim/24.jpeg",2,4,3,NA,"HouseObjects",1,2,"left","left",0.700000048,1,1,0,1,NA,NA,NA,NA,NA,NA,NA,NA,NA,NA,NA,NA,NA,NA,NA,NA,NA,NA,NA,NA,NA,NA,NA,NA
"116","stim/objects/HouseObjects/wateringcan2.png",119,79,119,0.9,"stim/24.jpeg",2,4,3,NA,"HouseObjects",1,4,"left","right",0.674999952,0,0,0,1,NA,NA,NA,NA,NA,NA,NA,NA,NA,NA,NA,NA,NA,NA,NA,NA,NA,NA,NA,NA,NA,NA,NA,NA
"219","stim/objects/Instruments/violin.png",120,79,120,0.7,"stim/52.jpeg",5,2,2,NA,"Instruments",2,3,"right","left",0.399999857,0,0,0,1,NA,NA,NA,NA,NA,NA,NA,NA,NA,NA,NA,NA,NA,NA,NA,NA,NA,NA,NA,NA,NA,NA,NA,NA
"220","stim/objects/Instruments/violin.png",121,79,121,0.7,"stim/52.jpeg",5,2,2,NA,"Instruments",2,4,"right","right",0.601999998,1,1,0,1,NA,NA,NA,NA,NA,NA,NA,NA,NA,NA,NA,NA,NA,NA,NA,NA,NA,NA,NA,NA,NA,NA,NA,NA
"9","stim/objects/HouseObjects/rug2.png",122,79,122,0.7,"stim/61.jpeg",6,1,2,NA,"HouseObjects",1,1,"left","left",0.49000001,1,1,0,1,NA,NA,NA,NA,NA,NA,NA,NA,NA,NA,NA,NA,NA,NA,NA,NA,NA,NA,NA,NA,NA,NA,NA,NA
"93","stim/objects/HouseObjects/towel2.png",123,79,123,0.9,"stim/22.jpeg",2,2,3,NA,"HouseObjects",1,4,"left","left",0.652999878,1,1,0,1,NA,NA,NA,NA,NA,NA,NA,NA,NA,NA,NA,NA,NA,NA,NA,NA,NA,NA,NA,NA,NA,NA,NA,NA
"81","stim/objects/HouseObjects/thread2.png",124,79,124,0.9,"stim/21.jpeg",2,1,3,NA,"HouseObjects",1,2,"left","left",0.669999838,1,1,0,1,NA,NA,NA,NA,NA,NA,NA,NA,NA,NA,NA,NA,NA,NA,NA,NA,NA,NA,NA,NA,NA,NA,NA,NA
"10","stim/objects/HouseObjects/rug2.png",125,79,125,0.7,"stim/61.jpeg",6,1,2,NA,"HouseObjects",1,1,"left","right",0.460000038,0,0,0,1,NA,NA,NA,NA,NA,NA,NA,NA,NA,NA,NA,NA,NA,NA,NA,NA,NA,NA,NA,NA,NA,NA,NA,NA
"123","stim/objects/Instruments/record_player.png",126,79,126,0.5,"stim/31.jpeg",3,1,1,NA,"Instruments",2,1,"right","left",0.648000002,0,0,0,1,NA,NA,NA,NA,NA,NA,NA,NA,NA,NA,NA,NA,NA,NA,NA,NA,NA,NA,NA,NA,NA,NA,NA,NA
"86","stim/objects/HouseObjects/towel.png",127,79,127,0.3,"stim/52.jpeg",5,2,2,NA,"HouseObjects",1,1,"left","right",0.731000185,0,0,0,1,NA,NA,NA,NA,NA,NA,NA,NA,NA,NA,NA,NA,NA,NA,NA,NA,NA,NA,NA,NA,NA,NA,NA,NA
"191","stim/objects/Instruments/trombone2.png",128,79,128,0.9,"stim/13.jpeg",1,3,3,NA,"Instruments",2,2,"right","left",0.49000001,0,0,0,1,NA,NA,NA,NA,NA,NA,NA,NA,NA,NA,NA,NA,NA,NA,NA,NA,NA,NA,NA,NA,NA,NA,NA,NA
"66","stim/objects/HouseObjects/teapot2.png",129,79,129,0.1,"stim/13.jpeg",1,3,3,NA,"HouseObjects",1,1,"left","right",0.576999903,0,0,0,1,NA,NA,NA,NA,NA,NA,NA,NA,NA,NA,NA,NA,NA,NA,NA,NA,NA,NA,NA,NA,NA,NA,NA,NA
"56","stim/objects/HouseObjects/spraybottle.png",130,79,130,0.5,"stim/42.jpeg",4,2,1,NA,"HouseObjects",1,4,"left","right",0.769000053,0,0,0,1,NA,NA,NA,NA,NA,NA,NA,NA,NA,NA,NA,NA,NA,NA,NA,NA,NA,NA,NA,NA,NA,NA,NA,NA
"169","stim/objects/Instruments/triangle.png",131,79,131,0.5,"stim/42.jpeg",4,2,1,NA,"Instruments",2,1,"right","right",0.659999847,1,1,0,1,NA,NA,NA,NA,NA,NA,NA,NA,NA,NA,NA,NA,NA,NA,NA,NA,NA,NA,NA,NA,NA,NA,NA,NA
"192","stim/objects/Instruments/trombone2.png",132,79,132,0.9,"stim/13.jpeg",1,3,3,NA,"Instruments",2,2,"right","right",0.632999897,1,1,0,1,NA,NA,NA,NA,NA,NA,NA,NA,NA,NA,NA,NA,NA,NA,NA,NA,NA,NA,NA,NA,NA,NA,NA,NA
"183","stim/objects/Instruments/trombone.png",133,79,133,0.5,"stim/43.jpeg",4,3,1,NA,"Instruments",2,3,"right","left",0.812999964,0,0,0,1,NA,NA,NA,NA,NA,NA,NA,NA,NA,NA,NA,NA,NA,NA,NA,NA,NA,NA,NA,NA,NA,NA,NA,NA
"193","stim/objects/Instruments/trombone2.png",134,79,134,0.9,"stim/13.jpeg",1,3,3,NA,"Instruments",2,3,"right","left",0.419000149,0,0,0,1,NA,NA,NA,NA,NA,NA,NA,NA,NA,NA,NA,NA,NA,NA,NA,NA,NA,NA,NA,NA,NA,NA,NA,NA
"103","stim/objects/HouseObjects/vacuumcleaner2.png",135,79,135,0.9,"stim/23.jpeg",2,3,3,NA,"HouseObjects",1,4,"left","left",0.579999924,1,1,0,1,NA,NA,NA,NA,NA,NA,NA,NA,NA,NA,NA,NA,NA,NA,NA,NA,NA,NA,NA,NA,NA,NA,NA,NA
"74","stim/objects/HouseObjects/thread.png",136,79,136,0.3,"stim/51.jpeg",5,1,2,NA,"HouseObjects",1,1,"left","right",0.548000097,0,0,0,1,NA,NA,NA,NA,NA,NA,NA,NA,NA,NA,NA,NA,NA,NA,NA,NA,NA,NA,NA,NA,NA,NA,NA,NA
"53","stim/objects/HouseObjects/sponge.png",137,79,137,0.5,"stim/41.jpeg",4,1,1,NA,"HouseObjects",1,4,"left","right",0.654000044,0,0,0,1,NA,NA,NA,NA,NA,NA,NA,NA,NA,NA,NA,NA,NA,NA,NA,NA,NA,NA,NA,NA,NA,NA,NA,NA
"151","stim/objects/Instruments/tambourine2.png",138,79,138,0.3,"stim/64.jpeg",6,4,2,NA,"Instruments",2,1,"right","left",0.534000158,0,0,0,1,NA,NA,NA,NA,NA,NA,NA,NA,NA,NA,NA,NA,NA,NA,NA,NA,NA,NA,NA,NA,NA,NA,NA,NA
"135","stim/objects/Instruments/saxophone2.png",139,79,139,0.3,"stim/62.jpeg",6,2,2,NA,"Instruments",2,3,"right","left",0.568000078,0,0,0,1,NA,NA,NA,NA,NA,NA,NA,NA,NA,NA,NA,NA,NA,NA,NA,NA,NA,NA,NA,NA,NA,NA,NA,NA
"221","stim/objects/Instruments/violin.png",140,79,140,0.7,"stim/52.jpeg",5,2,2,NA,"Instruments",2,3,"right","right",0.659999847,1,1,0,1,NA,NA,NA,NA,NA,NA,NA,NA,NA,NA,NA,NA,NA,NA,NA,NA,NA,NA,NA,NA,NA,NA,NA,NA
"31","stim/objects/HouseObjects/saw2.png",141,79,141,0.7,"stim/63.jpeg",6,3,2,NA,"HouseObjects",1,3,"left","left",0.561000109,1,1,0,1,NA,NA,NA,NA,NA,NA,NA,NA,NA,NA,NA,NA,NA,NA,NA,NA,NA,NA,NA,NA,NA,NA,NA,NA
"176","stim/objects/Instruments/triangle2.png",142,79,142,0.9,"stim/12.jpeg",1,2,3,NA,"Instruments",2,3,"right","right",0.617000103,1,1,0,1,NA,NA,NA,NA,NA,NA,NA,NA,NA,NA,NA,NA,NA,NA,NA,NA,NA,NA,NA,NA,NA,NA,NA,NA
"237","stim/objects/Instruments/xylophone.png",143,79,143,0.7,"stim/54.jpeg",5,4,2,NA,"Instruments",2,4,"right","right",0.446000099,1,1,0,1,NA,NA,NA,NA,NA,NA,NA,NA,NA,NA,NA,NA,NA,NA,NA,NA,NA,NA,NA,NA,NA,NA,NA,NA
"16","stim/objects/HouseObjects/safetypin.png",144,79,144,0.5,"stim/32.jpeg",3,2,1,NA,"HouseObjects",1,4,"left","right",0.628000021,0,0,0,1,NA,NA,NA,NA,NA,NA,NA,NA,NA,NA,NA,NA,NA,NA,NA,NA,NA,NA,NA,NA,NA,NA,NA,NA
"140","stim/objects/Instruments/speaker.png",145,79,145,0.5,"stim/33.jpeg",3,3,1,NA,"Instruments",2,1,"right","right",0.620000124,1,1,0,1,NA,NA,NA,NA,NA,NA,NA,NA,NA,NA,NA,NA,NA,NA,NA,NA,NA,NA,NA,NA,NA,NA,NA,NA
"11","stim/objects/HouseObjects/rug2.png",146,79,146,0.7,"stim/61.jpeg",6,1,2,NA,"HouseObjects",1,2,"left","left",0.525000095,1,1,0,1,NA,NA,NA,NA,NA,NA,NA,NA,NA,NA,NA,NA,NA,NA,NA,NA,NA,NA,NA,NA,NA,NA,NA,NA
"32","stim/objects/HouseObjects/saw2.png",147,79,147,0.7,"stim/63.jpeg",6,3,2,NA,"HouseObjects",1,3,"left","left",0.634000063,1,1,0,1,NA,NA,NA,NA,NA,NA,NA,NA,NA,NA,NA,NA,NA,NA,NA,NA,NA,NA,NA,NA,NA,NA,NA,NA
"205","stim/objects/Instruments/trumpet2.png",148,79,148,0.9,"stim/14.jpeg",1,4,3,NA,"Instruments",2,1,"right","right",0.510999918,1,1,0,1,NA,NA,NA,NA,NA,NA,NA,NA,NA,NA,NA,NA,NA,NA,NA,NA,NA,NA,NA,NA,NA,NA,NA,NA
"27","stim/objects/HouseObjects/saw.png",149,79,149,0.5,"stim/33.jpeg",3,3,1,NA,"HouseObjects",1,3,"left","left",0.635999918,1,1,0,1,NA,NA,NA,NA,NA,NA,NA,NA,NA,NA,NA,NA,NA,NA,NA,NA,NA,NA,NA,NA,NA,NA,NA,NA
"38","stim/objects/HouseObjects/scale.png",150,79,150,0.5,"stim/34.jpeg",3,4,1,NA,"HouseObjects",1,3,"left","right",0.578000069,0,0,0,1,NA,NA,NA,NA,NA,NA,NA,NA,NA,NA,NA,NA,NA,NA,NA,NA,NA,NA,NA,NA,NA,NA,NA,NA
"184","stim/objects/Instruments/trombone.png",151,79,151,0.5,"stim/43.jpeg",4,3,1,NA,"Instruments",2,4,"right","right",0.265000105,1,1,0,1,NA,NA,NA,NA,NA,NA,NA,NA,NA,NA,NA,NA,NA,NA,NA,NA,NA,NA,NA,NA,NA,NA,NA,NA
"117","stim/objects/HouseObjects/wateringcan2.png",152,79,152,0.9,"stim/24.jpeg",2,4,3,NA,"HouseObjects",1,3,"left","left",0.513999939,1,1,0,1,NA,NA,NA,NA,NA,NA,NA,NA,NA,NA,NA,NA,NA,NA,NA,NA,NA,NA,NA,NA,NA,NA,NA,NA
"152","stim/objects/Instruments/tambourine2.png",153,79,153,0.3,"stim/64.jpeg",6,4,2,NA,"Instruments",2,4,"right","left",0.585999966,0,0,0,1,NA,NA,NA,NA,NA,NA,NA,NA,NA,NA,NA,NA,NA,NA,NA,NA,NA,NA,NA,NA,NA,NA,NA,NA
"127","stim/objects/Instruments/record_player2.png",154,79,154,0.3,"stim/61.jpeg",6,1,2,NA,"Instruments",2,1,"right","left",0.861999989,0,0,0,1,NA,NA,NA,NA,NA,NA,NA,NA,NA,NA,NA,NA,NA,NA,NA,NA,NA,NA,NA,NA,NA,NA,NA,NA
"238","stim/objects/Instruments/xylophone.png",155,79,155,0.7,"stim/54.jpeg",5,4,2,NA,"Instruments",2,1,"right","right",0.526000023,1,1,0,1,NA,NA,NA,NA,NA,NA,NA,NA,NA,NA,NA,NA,NA,NA,NA,NA,NA,NA,NA,NA,NA,NA,NA,NA
"198","stim/objects/Instruments/trumpet.png",156,79,156,0.5,"stim/44.jpeg",4,4,1,NA,"Instruments",2,1,"right","left",0.631999969,0,0,0,1,NA,NA,NA,NA,NA,NA,NA,NA,NA,NA,NA,NA,NA,NA,NA,NA,NA,NA,NA,NA,NA,NA,NA,NA
"57","stim/objects/HouseObjects/spraybottle.png",157,79,157,0.5,"stim/42.jpeg",4,2,1,NA,"HouseObjects",1,4,"left","right",0.697000027,0,0,0,1,NA,NA,NA,NA,NA,NA,NA,NA,NA,NA,NA,NA,NA,NA,NA,NA,NA,NA,NA,NA,NA,NA,NA,NA
"87","stim/objects/HouseObjects/towel.png",158,79,158,0.3,"stim/52.jpeg",5,2,2,NA,"HouseObjects",1,2,"left","right",0.664000034,0,0,0,1,NA,NA,NA,NA,NA,NA,NA,NA,NA,NA,NA,NA,NA,NA,NA,NA,NA,NA,NA,NA,NA,NA,NA,NA
"162","stim/objects/Instruments/timbal2.png",159,79,159,0.9,"stim/11.jpeg",1,1,3,NA,"Instruments",2,1,"right","right",0.623999834,1,1,0,1,NA,NA,NA,NA,NA,NA,NA,NA,NA,NA,NA,NA,NA,NA,NA,NA,NA,NA,NA,NA,NA,NA,NA,NA
"206","stim/objects/Instruments/trumpet2.png",160,79,160,0.9,"stim/14.jpeg",1,4,3,NA,"Instruments",2,2,"right","right",0.611999989,1,1,0,1,NA,NA,NA,NA,NA,NA,NA,NA,NA,NA,NA,NA,NA,NA,NA,NA,NA,NA,NA,NA,NA,NA,NA,NA
"3","stim/objects/HouseObjects/rug.png",161,79,161,0.5,"stim/31.jpeg",3,1,1,NA,"HouseObjects",1,1,"left","left",0.606999874,1,1,0,1,NA,NA,NA,NA,NA,NA,NA,NA,NA,NA,NA,NA,NA,NA,NA,NA,NA,NA,NA,NA,NA,NA,NA,NA
"104","stim/objects/HouseObjects/vacuumcleaner2.png",162,79,162,0.9,"stim/23.jpeg",2,3,3,NA,"HouseObjects",1,2,"left","left",0.608999968,1,1,0,1,NA,NA,NA,NA,NA,NA,NA,NA,NA,NA,NA,NA,NA,NA,NA,NA,NA,NA,NA,NA,NA,NA,NA,NA
"99","stim/objects/HouseObjects/vacuumcleaner.png",163,79,163,0.3,"stim/53.jpeg",5,3,2,NA,"HouseObjects",1,3,"left","right",0.579999924,0,0,0,1,NA,NA,NA,NA,NA,NA,NA,NA,NA,NA,NA,NA,NA,NA,NA,NA,NA,NA,NA,NA,NA,NA,NA,NA
"33","stim/objects/HouseObjects/saw2.png",164,79,164,0.7,"stim/63.jpeg",6,3,2,NA,"HouseObjects",1,3,"left","left",0.50999999,1,1,0,1,NA,NA,NA,NA,NA,NA,NA,NA,NA,NA,NA,NA,NA,NA,NA,NA,NA,NA,NA,NA,NA,NA,NA,NA
"60","stim/objects/HouseObjects/spraybottle2.png",165,79,165,0.1,"stim/12.jpeg",1,2,3,NA,"HouseObjects",1,3,"left","right",0.601000071,0,0,0,1,NA,NA,NA,NA,NA,NA,NA,NA,NA,NA,NA,NA,NA,NA,NA,NA,NA,NA,NA,NA,NA,NA,NA,NA
"28","stim/objects/HouseObjects/saw.png",166,79,166,0.5,"stim/33.jpeg",3,3,1,NA,"HouseObjects",1,3,"left","left",0.552999973,1,1,0,1,NA,NA,NA,NA,NA,NA,NA,NA,NA,NA,NA,NA,NA,NA,NA,NA,NA,NA,NA,NA,NA,NA,NA,NA
"118","stim/objects/HouseObjects/wateringcan2.png",167,79,167,0.9,"stim/24.jpeg",2,4,3,NA,"HouseObjects",1,4,"left","right",0.447000027,0,0,0,1,NA,NA,NA,NA,NA,NA,NA,NA,NA,NA,NA,NA,NA,NA,NA,NA,NA,NA,NA,NA,NA,NA,NA,NA
"199","stim/objects/Instruments/trumpet.png",168,79,168,0.5,"stim/44.jpeg",4,4,1,NA,"Instruments",2,3,"right","left",0.636000156,0,0,0,1,NA,NA,NA,NA,NA,NA,NA,NA,NA,NA,NA,NA,NA,NA,NA,NA,NA,NA,NA,NA,NA,NA,NA,NA
"163","stim/objects/Instruments/timbal2.png",169,79,169,0.9,"stim/11.jpeg",1,1,3,NA,"Instruments",2,4,"right","left",0.546999931,0,0,0,1,NA,NA,NA,NA,NA,NA,NA,NA,NA,NA,NA,NA,NA,NA,NA,NA,NA,NA,NA,NA,NA,NA,NA,NA
"46","stim/objects/HouseObjects/scale2.png",170,79,170,0.7,"stim/64.jpeg",6,4,2,NA,"HouseObjects",1,3,"left","right",0.370000124,0,0,0,1,NA,NA,NA,NA,NA,NA,NA,NA,NA,NA,NA,NA,NA,NA,NA,NA,NA,NA,NA,NA,NA,NA,NA,NA
"94","stim/objects/HouseObjects/towel2.png",171,79,171,0.9,"stim/22.jpeg",2,2,3,NA,"HouseObjects",1,3,"left","left",0.592999935,1,1,0,1,NA,NA,NA,NA,NA,NA,NA,NA,NA,NA,NA,NA,NA,NA,NA,NA,NA,NA,NA,NA,NA,NA,NA,NA
"185","stim/objects/Instruments/trombone.png",172,79,172,0.5,"stim/43.jpeg",4,3,1,NA,"Instruments",2,4,"right","right",0.881000042,1,1,0,1,NA,NA,NA,NA,NA,NA,NA,NA,NA,NA,NA,NA,NA,NA,NA,NA,NA,NA,NA,NA,NA,NA,NA,NA
"170","stim/objects/Instruments/triangle.png",173,79,173,0.5,"stim/42.jpeg",4,2,1,NA,"Instruments",2,3,"right","left",0.565000057,0,0,0,1,NA,NA,NA,NA,NA,NA,NA,NA,NA,NA,NA,NA,NA,NA,NA,NA,NA,NA,NA,NA,NA,NA,NA,NA
"12","stim/objects/HouseObjects/rug2.png",174,79,174,0.7,"stim/61.jpeg",6,1,2,NA,"HouseObjects",1,3,"left","left",0.628000021,1,1,0,1,NA,NA,NA,NA,NA,NA,NA,NA,NA,NA,NA,NA,NA,NA,NA,NA,NA,NA,NA,NA,NA,NA,NA,NA
"47","stim/objects/HouseObjects/scale2.png",175,79,175,0.7,"stim/64.jpeg",6,4,2,NA,"HouseObjects",1,2,"left","left",0.565999985,1,1,0,1,NA,NA,NA,NA,NA,NA,NA,NA,NA,NA,NA,NA,NA,NA,NA,NA,NA,NA,NA,NA,NA,NA,NA,NA
"141","stim/objects/Instruments/speaker.png",176,79,176,0.5,"stim/33.jpeg",3,3,1,NA,"Instruments",2,3,"right","",NA,0,0,0,1,NA,NA,NA,NA,NA,NA,NA,NA,NA,NA,NA,NA,NA,NA,NA,NA,NA,NA,NA,NA,NA,NA,NA,NA
"4","stim/objects/HouseObjects/rug.png",177,79,177,0.5,"stim/31.jpeg",3,1,1,NA,"HouseObjects",1,2,"left","right",0.434999943,0,0,0,1,NA,NA,NA,NA,NA,NA,NA,NA,NA,NA,NA,NA,NA,NA,NA,NA,NA,NA,NA,NA,NA,NA,NA,NA
"222","stim/objects/Instruments/violin.png",178,79,178,0.7,"stim/52.jpeg",5,2,2,NA,"Instruments",2,2,"right","left",0.342000008,0,0,0,1,NA,NA,NA,NA,NA,NA,NA,NA,NA,NA,NA,NA,NA,NA,NA,NA,NA,NA,NA,NA,NA,NA,NA,NA
"82","stim/objects/HouseObjects/thread2.png",179,79,179,0.9,"stim/21.jpeg",2,1,3,NA,"HouseObjects",1,1,"left","left",0.565000057,1,1,0,1,NA,NA,NA,NA,NA,NA,NA,NA,NA,NA,NA,NA,NA,NA,NA,NA,NA,NA,NA,NA,NA,NA,NA,NA
"17","stim/objects/HouseObjects/safetypin.png",180,79,180,0.5,"stim/32.jpeg",3,2,1,NA,"HouseObjects",1,3,"left","right",0.531000137,0,0,0,1,NA,NA,NA,NA,NA,NA,NA,NA,NA,NA,NA,NA,NA,NA,NA,NA,NA,NA,NA,NA,NA,NA,NA,NA
"70","stim/objects/HouseObjects/thermometer.png",181,79,181,0.5,"stim/44.jpeg",4,4,1,NA,"HouseObjects",1,2,"left","right",0.616999865,0,0,0,1,NA,NA,NA,NA,NA,NA,NA,NA,NA,NA,NA,NA,NA,NA,NA,NA,NA,NA,NA,NA,NA,NA,NA,NA
"177","stim/objects/Instruments/triangle2.png",182,79,182,0.9,"stim/12.jpeg",1,2,3,NA,"Instruments",2,1,"right","right",0.516000032,1,1,0,1,NA,NA,NA,NA,NA,NA,NA,NA,NA,NA,NA,NA,NA,NA,NA,NA,NA,NA,NA,NA,NA,NA,NA,NA
"171","stim/objects/Instruments/triangle.png",183,79,183,0.5,"stim/42.jpeg",4,2,1,NA,"Instruments",2,2,"right","left",0.480999947,0,0,0,1,NA,NA,NA,NA,NA,NA,NA,NA,NA,NA,NA,NA,NA,NA,NA,NA,NA,NA,NA,NA,NA,NA,NA,NA
"20","stim/objects/HouseObjects/safetypin2.png",184,79,184,0.7,"stim/62.jpeg",6,2,2,NA,"HouseObjects",1,4,"left","left",0.674999952,1,1,0,1,NA,NA,NA,NA,NA,NA,NA,NA,NA,NA,NA,NA,NA,NA,NA,NA,NA,NA,NA,NA,NA,NA,NA,NA
"39","stim/objects/HouseObjects/scale.png",185,79,185,0.5,"stim/34.jpeg",3,4,1,NA,"HouseObjects",1,3,"left","right",0.555000067,0,0,0,1,NA,NA,NA,NA,NA,NA,NA,NA,NA,NA,NA,NA,NA,NA,NA,NA,NA,NA,NA,NA,NA,NA,NA,NA
"21","stim/objects/HouseObjects/safetypin2.png",186,79,186,0.7,"stim/62.jpeg",6,2,2,NA,"HouseObjects",1,3,"left","right",0.295000076,0,0,0,1,NA,NA,NA,NA,NA,NA,NA,NA,NA,NA,NA,NA,NA,NA,NA,NA,NA,NA,NA,NA,NA,NA,NA,NA
"111","stim/objects/HouseObjects/wateringcan.png",187,79,187,0.3,"stim/54.jpeg",5,4,2,NA,"HouseObjects",1,2,"left","right",0.437000036,0,0,0,1,NA,NA,NA,NA,NA,NA,NA,NA,NA,NA,NA,NA,NA,NA,NA,NA,NA,NA,NA,NA,NA,NA,NA,NA
"64","stim/objects/HouseObjects/teapot.png",188,79,188,0.5,"stim/43.jpeg",4,3,1,NA,"HouseObjects",1,4,"left","right",0.42200017,0,0,0,1,NA,NA,NA,NA,NA,NA,NA,NA,NA,NA,NA,NA,NA,NA,NA,NA,NA,NA,NA,NA,NA,NA,NA,NA
"58","stim/objects/HouseObjects/spraybottle.png",189,79,189,0.5,"stim/42.jpeg",4,2,1,NA,"HouseObjects",1,2,"left","right",0.519999981,0,0,0,1,NA,NA,NA,NA,NA,NA,NA,NA,NA,NA,NA,NA,NA,NA,NA,NA,NA,NA,NA,NA,NA,NA,NA,NA
"34","stim/objects/HouseObjects/saw2.png",190,79,190,0.7,"stim/63.jpeg",6,3,2,NA,"HouseObjects",1,4,"left","left",0.447999954,1,1,0,1,NA,NA,NA,NA,NA,NA,NA,NA,NA,NA,NA,NA,NA,NA,NA,NA,NA,NA,NA,NA,NA,NA,NA,NA
"223","stim/objects/Instruments/violin.png",191,79,191,0.7,"stim/52.jpeg",5,2,2,NA,"Instruments",2,2,"right","right",0.347999811,1,1,0,1,NA,NA,NA,NA,NA,NA,NA,NA,NA,NA,NA,NA,NA,NA,NA,NA,NA,NA,NA,NA,NA,NA,NA,NA
"164","stim/objects/Instruments/timbal2.png",192,79,192,0.9,"stim/11.jpeg",1,1,3,NA,"Instruments",2,4,"right","right",0.401000023,1,1,0,1,NA,NA,NA,NA,NA,NA,NA,NA,NA,NA,NA,NA,NA,NA,NA,NA,NA,NA,NA,NA,NA,NA,NA,NA
"132","stim/objects/Instruments/saxophone.png",193,79,193,0.5,"stim/32.jpeg",3,2,1,NA,"Instruments",2,3,"right","right",0.489000082,1,1,0,1,NA,NA,NA,NA,NA,NA,NA,NA,NA,NA,NA,NA,NA,NA,NA,NA,NA,NA,NA,NA,NA,NA,NA,NA
"178","stim/objects/Instruments/triangle2.png",194,79,194,0.9,"stim/12.jpeg",1,2,3,NA,"Instruments",2,1,"right","right",0.595000029,1,1,0,1,NA,NA,NA,NA,NA,NA,NA,NA,NA,NA,NA,NA,NA,NA,NA,NA,NA,NA,NA,NA,NA,NA,NA,NA
"239","stim/objects/Instruments/xylophone.png",195,79,195,0.7,"stim/54.jpeg",5,4,2,NA,"Instruments",2,1,"right","left",0.351999998,0,0,0,1,NA,NA,NA,NA,NA,NA,NA,NA,NA,NA,NA,NA,NA,NA,NA,NA,NA,NA,NA,NA,NA,NA,NA,NA
"232","stim/objects/Instruments/vuvuzela2.png",196,79,196,0.1,"stim/23.jpeg",2,3,3,NA,"Instruments",2,2,"right","left",0.420000076,0,0,0,1,NA,NA,NA,NA,NA,NA,NA,NA,NA,NA,NA,NA,NA,NA,NA,NA,NA,NA,NA,NA,NA,NA,NA,NA
"179","stim/objects/Instruments/triangle2.png",197,79,197,0.9,"stim/12.jpeg",1,2,3,NA,"Instruments",2,2,"right","right",0.588000059,1,1,0,1,NA,NA,NA,NA,NA,NA,NA,NA,NA,NA,NA,NA,NA,NA,NA,NA,NA,NA,NA,NA,NA,NA,NA,NA
"124","stim/objects/Instruments/record_player.png",198,79,198,0.5,"stim/31.jpeg",3,1,1,NA,"Instruments",2,4,"right","left",0.565999985,0,0,0,1,NA,NA,NA,NA,NA,NA,NA,NA,NA,NA,NA,NA,NA,NA,NA,NA,NA,NA,NA,NA,NA,NA,NA,NA
"40","stim/objects/HouseObjects/scale.png",199,79,199,0.5,"stim/34.jpeg",3,4,1,NA,"HouseObjects",1,2,"left","right",0.476999998,0,0,0,1,NA,NA,NA,NA,NA,NA,NA,NA,NA,NA,NA,NA,NA,NA,NA,NA,NA,NA,NA,NA,NA,NA,NA,NA
"22","stim/objects/HouseObjects/safetypin2.png",200,79,200,0.7,"stim/62.jpeg",6,2,2,NA,"HouseObjects",1,1,"left","right",0.528000116,0,0,0,1,NA,NA,NA,NA,NA,NA,NA,NA,NA,NA,NA,NA,NA,NA,NA,NA,NA,NA,NA,NA,NA,NA,NA,NA
"148","stim/objects/Instruments/tambourine.png",201,79,201,0.5,"stim/34.jpeg",3,4,1,NA,"Instruments",2,1,"right","right",0.31099987,1,1,0,1,NA,NA,NA,NA,NA,NA,NA,NA,NA,NA,NA,NA,NA,NA,NA,NA,NA,NA,NA,NA,NA,NA,NA,NA
"119","stim/objects/HouseObjects/wateringcan2.png",202,79,202,0.9,"stim/24.jpeg",2,4,3,NA,"HouseObjects",1,4,"left","left",0.344000101,1,1,0,1,NA,NA,NA,NA,NA,NA,NA,NA,NA,NA,NA,NA,NA,NA,NA,NA,NA,NA,NA,NA,NA,NA,NA,NA
"133","stim/objects/Instruments/saxophone.png",203,79,203,0.5,"stim/32.jpeg",3,2,1,NA,"Instruments",2,1,"right","right",0.562999964,1,1,0,1,NA,NA,NA,NA,NA,NA,NA,NA,NA,NA,NA,NA,NA,NA,NA,NA,NA,NA,NA,NA,NA,NA,NA,NA
"105","stim/objects/HouseObjects/vacuumcleaner2.png",204,79,204,0.9,"stim/23.jpeg",2,3,3,NA,"HouseObjects",1,1,"left","left",0.462000132,1,1,0,1,NA,NA,NA,NA,NA,NA,NA,NA,NA,NA,NA,NA,NA,NA,NA,NA,NA,NA,NA,NA,NA,NA,NA,NA
"72","stim/objects/HouseObjects/thermometer2.png",205,79,205,0.1,"stim/14.jpeg",1,4,3,NA,"HouseObjects",1,3,"left","left",0.642000198,1,1,0,1,NA,NA,NA,NA,NA,NA,NA,NA,NA,NA,NA,NA,NA,NA,NA,NA,NA,NA,NA,NA,NA,NA,NA,NA
"207","stim/objects/Instruments/trumpet2.png",206,79,206,0.9,"stim/14.jpeg",1,4,3,NA,"Instruments",2,3,"right","right",0.32799983,1,1,0,1,NA,NA,NA,NA,NA,NA,NA,NA,NA,NA,NA,NA,NA,NA,NA,NA,NA,NA,NA,NA,NA,NA,NA,NA
"95","stim/objects/HouseObjects/towel2.png",207,79,207,0.9,"stim/22.jpeg",2,2,3,NA,"HouseObjects",1,2,"left","right",0.254999876,0,0,0,1,NA,NA,NA,NA,NA,NA,NA,NA,NA,NA,NA,NA,NA,NA,NA,NA,NA,NA,NA,NA,NA,NA,NA,NA
"180","stim/objects/Instruments/triangle2.png",208,79,208,0.9,"stim/12.jpeg",1,2,3,NA,"Instruments",2,3,"right","right",0.397000074,1,1,0,1,NA,NA,NA,NA,NA,NA,NA,NA,NA,NA,NA,NA,NA,NA,NA,NA,NA,NA,NA,NA,NA,NA,NA,NA
"125","stim/objects/Instruments/record_player.png",209,79,209,0.5,"stim/31.jpeg",3,1,1,NA,"Instruments",2,1,"right","left",0.356999874,0,0,0,1,NA,NA,NA,NA,NA,NA,NA,NA,NA,NA,NA,NA,NA,NA,NA,NA,NA,NA,NA,NA,NA,NA,NA,NA
"136","stim/objects/Instruments/saxophone2.png",210,79,210,0.3,"stim/62.jpeg",6,2,2,NA,"Instruments",2,4,"right","left",0.382999897,0,0,0,1,NA,NA,NA,NA,NA,NA,NA,NA,NA,NA,NA,NA,NA,NA,NA,NA,NA,NA,NA,NA,NA,NA,NA,NA
"96","stim/objects/HouseObjects/towel2.png",211,79,211,0.9,"stim/22.jpeg",2,2,3,NA,"HouseObjects",1,1,"left","left",0.700999975,1,1,0,1,NA,NA,NA,NA,NA,NA,NA,NA,NA,NA,NA,NA,NA,NA,NA,NA,NA,NA,NA,NA,NA,NA,NA,NA
"59","stim/objects/HouseObjects/spraybottle.png",212,79,212,0.5,"stim/42.jpeg",4,2,1,NA,"HouseObjects",1,4,"left","right",0.573999882,0,0,0,1,NA,NA,NA,NA,NA,NA,NA,NA,NA,NA,NA,NA,NA,NA,NA,NA,NA,NA,NA,NA,NA,NA,NA,NA
"5","stim/objects/HouseObjects/rug.png",213,79,213,0.5,"stim/31.jpeg",3,1,1,NA,"HouseObjects",1,2,"left","left",0.460999966,1,1,0,1,NA,NA,NA,NA,NA,NA,NA,NA,NA,NA,NA,NA,NA,NA,NA,NA,NA,NA,NA,NA,NA,NA,NA,NA
"194","stim/objects/Instruments/trombone2.png",214,79,214,0.9,"stim/13.jpeg",1,3,3,NA,"Instruments",2,4,"right","right",0.795000076,1,1,0,1,NA,NA,NA,NA,NA,NA,NA,NA,NA,NA,NA,NA,NA,NA,NA,NA,NA,NA,NA,NA,NA,NA,NA,NA
"165","stim/objects/Instruments/timbal2.png",215,79,215,0.9,"stim/11.jpeg",1,1,3,NA,"Instruments",2,1,"right","left",0.605000019,0,0,0,1,NA,NA,NA,NA,NA,NA,NA,NA,NA,NA,NA,NA,NA,NA,NA,NA,NA,NA,NA,NA,NA,NA,NA,NA
"106","stim/objects/HouseObjects/vacuumcleaner2.png",216,79,216,0.9,"stim/23.jpeg",2,3,3,NA,"HouseObjects",1,3,"left","left",0.605000019,1,1,0,1,NA,NA,NA,NA,NA,NA,NA,NA,NA,NA,NA,NA,NA,NA,NA,NA,NA,NA,NA,NA,NA,NA,NA,NA
"215","stim/objects/Instruments/tuba.png",217,79,217,0.7,"stim/51.jpeg",5,1,2,NA,"Instruments",2,3,"right","right",0.659000158,1,1,0,1,NA,NA,NA,NA,NA,NA,NA,NA,NA,NA,NA,NA,NA,NA,NA,NA,NA,NA,NA,NA,NA,NA,NA,NA
"23","stim/objects/HouseObjects/safetypin2.png",218,79,218,0.7,"stim/62.jpeg",6,2,2,NA,"HouseObjects",1,2,"left","left",0.220000029,1,1,0,1,NA,NA,NA,NA,NA,NA,NA,NA,NA,NA,NA,NA,NA,NA,NA,NA,NA,NA,NA,NA,NA,NA,NA,NA
"75","stim/objects/HouseObjects/thread.png",219,79,219,0.3,"stim/51.jpeg",5,1,2,NA,"HouseObjects",1,2,"left","right",0.645999908,0,0,0,1,NA,NA,NA,NA,NA,NA,NA,NA,NA,NA,NA,NA,NA,NA,NA,NA,NA,NA,NA,NA,NA,NA,NA,NA
"35","stim/objects/HouseObjects/saw2.png",220,79,220,0.7,"stim/63.jpeg",6,3,2,NA,"HouseObjects",1,2,"left","left",0.569000006,1,1,0,1,NA,NA,NA,NA,NA,NA,NA,NA,NA,NA,NA,NA,NA,NA,NA,NA,NA,NA,NA,NA,NA,NA,NA,NA
"83","stim/objects/HouseObjects/thread2.png",221,79,221,0.9,"stim/21.jpeg",2,1,3,NA,"HouseObjects",1,4,"left","left",0.563999891,1,1,0,1,NA,NA,NA,NA,NA,NA,NA,NA,NA,NA,NA,NA,NA,NA,NA,NA,NA,NA,NA,NA,NA,NA,NA,NA
"230","stim/objects/Instruments/vuvuzela.png",222,79,222,0.7,"stim/53.jpeg",5,3,2,NA,"Instruments",2,4,"right","right",0.782000065,1,1,0,1,NA,NA,NA,NA,NA,NA,NA,NA,NA,NA,NA,NA,NA,NA,NA,NA,NA,NA,NA,NA,NA,NA,NA,NA
"107","stim/objects/HouseObjects/vacuumcleaner2.png",223,79,223,0.9,"stim/23.jpeg",2,3,3,NA,"HouseObjects",1,3,"left","left",0.567000151,1,1,0,1,NA,NA,NA,NA,NA,NA,NA,NA,NA,NA,NA,NA,NA,NA,NA,NA,NA,NA,NA,NA,NA,NA,NA,NA
"208","stim/objects/Instruments/trumpet2.png",224,79,224,0.9,"stim/14.jpeg",1,4,3,NA,"Instruments",2,2,"right","right",0.467999935,1,1,0,1,NA,NA,NA,NA,NA,NA,NA,NA,NA,NA,NA,NA,NA,NA,NA,NA,NA,NA,NA,NA,NA,NA,NA,NA
"24","stim/objects/HouseObjects/safetypin2.png",225,79,225,0.7,"stim/62.jpeg",6,2,2,NA,"HouseObjects",1,2,"left","left",0.411000013,1,1,0,1,NA,NA,NA,NA,NA,NA,NA,NA,NA,NA,NA,NA,NA,NA,NA,NA,NA,NA,NA,NA,NA,NA,NA,NA
"231","stim/objects/Instruments/vuvuzela.png",226,79,226,0.7,"stim/53.jpeg",5,3,2,NA,"Instruments",2,1,"right","right",0.419999838,1,1,0,1,NA,NA,NA,NA,NA,NA,NA,NA,NA,NA,NA,NA,NA,NA,NA,NA,NA,NA,NA,NA,NA,NA,NA,NA
"41","stim/objects/HouseObjects/scale.png",227,79,227,0.5,"stim/34.jpeg",3,4,1,NA,"HouseObjects",1,2,"left","left",0.627000093,1,1,0,1,NA,NA,NA,NA,NA,NA,NA,NA,NA,NA,NA,NA,NA,NA,NA,NA,NA,NA,NA,NA,NA,NA,NA,NA
"108","stim/objects/HouseObjects/vacuumcleaner2.png",228,79,228,0.9,"stim/23.jpeg",2,3,3,NA,"HouseObjects",1,4,"left","right",0.529999971,0,0,0,1,NA,NA,NA,NA,NA,NA,NA,NA,NA,NA,NA,NA,NA,NA,NA,NA,NA,NA,NA,NA,NA,NA,NA,NA
"36","stim/objects/HouseObjects/saw2.png",229,79,229,0.7,"stim/63.jpeg",6,3,2,NA,"HouseObjects",1,4,"left","right",0.498000145,0,0,0,1,NA,NA,NA,NA,NA,NA,NA,NA,NA,NA,NA,NA,NA,NA,NA,NA,NA,NA,NA,NA,NA,NA,NA,NA
"128","stim/objects/Instruments/record_player2.png",230,79,230,0.3,"stim/61.jpeg",6,1,2,NA,"Instruments",2,1,"right","left",0.338999987,0,0,0,1,NA,NA,NA,NA,NA,NA,NA,NA,NA,NA,NA,NA,NA,NA,NA,NA,NA,NA,NA,NA,NA,NA,NA,NA
"71","stim/objects/HouseObjects/thermometer.png",231,79,231,0.5,"stim/44.jpeg",4,4,1,NA,"HouseObjects",1,1,"left","left",0.36500001,1,1,0,1,NA,NA,NA,NA,NA,NA,NA,NA,NA,NA,NA,NA,NA,NA,NA,NA,NA,NA,NA,NA,NA,NA,NA,NA
"48","stim/objects/HouseObjects/scale2.png",232,79,232,0.7,"stim/64.jpeg",6,4,2,NA,"HouseObjects",1,4,"left","right",0.260999918,0,0,0,1,NA,NA,NA,NA,NA,NA,NA,NA,NA,NA,NA,NA,NA,NA,NA,NA,NA,NA,NA,NA,NA,NA,NA,NA
"166","stim/objects/Instruments/timbal2.png",233,79,233,0.9,"stim/11.jpeg",1,1,3,NA,"Instruments",2,2,"right","right",0.549999952,1,1,0,1,NA,NA,NA,NA,NA,NA,NA,NA,NA,NA,NA,NA,NA,NA,NA,NA,NA,NA,NA,NA,NA,NA,NA,NA
"65","stim/objects/HouseObjects/teapot.png",234,79,234,0.5,"stim/43.jpeg",4,3,1,NA,"HouseObjects",1,2,"left","left",0.4150002,1,1,0,1,NA,NA,NA,NA,NA,NA,NA,NA,NA,NA,NA,NA,NA,NA,NA,NA,NA,NA,NA,NA,NA,NA,NA,NA
"143","stim/objects/Instruments/speaker2.png",235,79,235,0.3,"stim/63.jpeg",6,3,2,NA,"Instruments",2,3,"right","right",0.612999916,1,1,0,1,NA,NA,NA,NA,NA,NA,NA,NA,NA,NA,NA,NA,NA,NA,NA,NA,NA,NA,NA,NA,NA,NA,NA,NA
"149","stim/objects/Instruments/tambourine.png",236,79,236,0.5,"stim/34.jpeg",3,4,1,NA,"Instruments",2,1,"right","left",0.332000017,0,0,0,1,NA,NA,NA,NA,NA,NA,NA,NA,NA,NA,NA,NA,NA,NA,NA,NA,NA,NA,NA,NA,NA,NA,NA,NA
"144","stim/objects/Instruments/speaker2.png",237,79,237,0.3,"stim/63.jpeg",6,3,2,NA,"Instruments",2,1,"right","left",0.481999874,0,0,0,1,NA,NA,NA,NA,NA,NA,NA,NA,NA,NA,NA,NA,NA,NA,NA,NA,NA,NA,NA,NA,NA,NA,NA,NA
"120","stim/objects/HouseObjects/wateringcan2.png",238,79,238,0.9,"stim/24.jpeg",2,4,3,NA,"HouseObjects",1,1,"left","left",0.164000034,1,1,0,1,NA,NA,NA,NA,NA,NA,NA,NA,NA,NA,NA,NA,NA,NA,NA,NA,NA,NA,NA,NA,NA,NA,NA,NA
"29","stim/objects/HouseObjects/saw.png",239,79,239,0.5,"stim/33.jpeg",3,3,1,NA,"HouseObjects",1,2,"left","right",0.523000002,0,0,0,1,NA,NA,NA,NA,NA,NA,NA,NA,NA,NA,NA,NA,NA,NA,NA,NA,NA,NA,NA,NA,NA,NA,NA,NA
"84","stim/objects/HouseObjects/thread2.png",240,79,240,0.9,"stim/21.jpeg",2,1,3,NA,"HouseObjects",1,2,"left","left",0.335000038,1,1,0,1,NA,NA,NA,NA,NA,NA,NA,NA,NA,NA,NA,NA,NA,NA,NA,NA,NA,NA,NA,NA,NA,NA,NA,NA
"279","stim/objects/HouseObjects/coffee.png",248,79,241,0.7,"stim/64.jpeg",6,4,2,2,"HouseObjects",1,2,"left","left",0.839999914,1,1,1,0,NA,NA,NA,NA,NA,NA,NA,NA,NA,NA,NA,NA,NA,NA,NA,NA,NA,NA,NA,NA,NA,NA,NA,NA
"473","stim/objects/Instruments/flutetrans.png",249,79,242,0.9,"stim/11.jpeg",1,1,3,2,"Instruments",2,3,"right","right",0.617000103,1,1,1,0,NA,NA,NA,NA,NA,NA,NA,NA,NA,NA,NA,NA,NA,NA,NA,NA,NA,NA,NA,NA,NA,NA,NA,NA
"308","stim/objects/HouseObjects/dustpan.png",250,79,243,0.9,"stim/23.jpeg",2,3,3,2,"HouseObjects",1,4,"left","left",0.601999998,1,1,1,0,NA,NA,NA,NA,NA,NA,NA,NA,NA,NA,NA,NA,NA,NA,NA,NA,NA,NA,NA,NA,NA,NA,NA,NA
"325","stim/objects/HouseObjects/flyswatter.png",251,79,244,0.9,"stim/22.jpeg",2,2,3,2,"HouseObjects",1,1,"left","right",0.523999929,0,0,1,0,NA,NA,NA,NA,NA,NA,NA,NA,NA,NA,NA,NA,NA,NA,NA,NA,NA,NA,NA,NA,NA,NA,NA,NA
"456","stim/objects/Instruments/flute.png",252,79,245,0.9,"stim/13.jpeg",1,3,3,2,"Instruments",2,2,"right","right",0.387000084,1,1,1,0,NA,NA,NA,NA,NA,NA,NA,NA,NA,NA,NA,NA,NA,NA,NA,NA,NA,NA,NA,NA,NA,NA,NA,NA
"542","stim/objects/Instruments/guitarcase2.png",253,79,246,0.9,"stim/14.jpeg",1,4,3,1,"Instruments",2,4,"right","left",0.492000103,0,0,1,0,167,79,1,0.9,2,"stim/14.jpeg",1,4,"stim/14.jpeg",4,"left",0.776000023,4,4,0.911999941,2,1.411999941,167,1,1,1,0,0,0
"326","stim/objects/HouseObjects/flyswatter.png",254,79,247,0.9,"stim/23.jpeg",2,3,3,2,"HouseObjects",1,1,"left","left",0.576999903,1,1,1,0,NA,NA,NA,NA,NA,NA,NA,NA,NA,NA,NA,NA,NA,NA,NA,NA,NA,NA,NA,NA,NA,NA,NA,NA
"256","stim/objects/HouseObjects/blender.png",255,79,248,0.5,"stim/43.jpeg",4,3,1,2,"HouseObjects",1,3,"left","left",0.687000036,1,1,1,0,NA,NA,NA,NA,NA,NA,NA,NA,NA,NA,NA,NA,NA,NA,NA,NA,NA,NA,NA,NA,NA,NA,NA,NA
"472","stim/objects/Instruments/flute2.png",256,79,249,0.9,"stim/13.jpeg",1,3,3,1,"Instruments",2,3,"right","right",0.545000076,1,1,1,0,121,79,1,0.9,2,"stim/13.jpeg",1,3,"stim/13.jpeg",3,"left",1.986999989,4,1,1.292999983,2,0.697000027,121,1,0,0,0,0,0
"443","stim/objects/Instruments/doublebass2.png",257,79,250,0.3,"stim/64.jpeg",6,4,2,1,"Instruments",2,2,"right","left",0.505000114,0,0,1,0,83,79,1,0.3,2,"stim/64.jpeg",6,4,"stim/64.jpeg",2,"right",0.611999989,3,2,0.694000006,2,0.575999975,83,0,0,NA,1,NA,0
"475","stim/objects/Instruments/flutetrans.png",258,79,251,0.9,"stim/14.jpeg",1,4,3,2,"Instruments",2,4,"right","right",0.675000191,1,1,1,0,NA,NA,NA,NA,NA,NA,NA,NA,NA,NA,NA,NA,NA,NA,NA,NA,NA,NA,NA,NA,NA,NA,NA,NA
"309","stim/objects/HouseObjects/dustpan.png",259,79,252,0.9,"stim/24.jpeg",2,4,3,2,"HouseObjects",1,1,"left","left",0.531000137,1,1,1,0,NA,NA,NA,NA,NA,NA,NA,NA,NA,NA,NA,NA,NA,NA,NA,NA,NA,NA,NA,NA,NA,NA,NA,NA
"291","stim/objects/HouseObjects/doormat.png",260,79,253,0.9,"stim/22.jpeg",2,2,3,2,"HouseObjects",1,4,"left","left",0.52699995,1,1,1,0,NA,NA,NA,NA,NA,NA,NA,NA,NA,NA,NA,NA,NA,NA,NA,NA,NA,NA,NA,NA,NA,NA,NA,NA
"490","stim/objects/Instruments/frenchhorn.png",261,79,254,0.9,"stim/13.jpeg",1,3,3,2,"Instruments",2,2,"right","right",0.634000063,1,1,1,0,NA,NA,NA,NA,NA,NA,NA,NA,NA,NA,NA,NA,NA,NA,NA,NA,NA,NA,NA,NA,NA,NA,NA,NA
"476","stim/objects/Instruments/flutetrans.png",262,79,255,0.9,"stim/13.jpeg",1,3,3,2,"Instruments",2,4,"right","right",0.568000078,1,1,1,0,NA,NA,NA,NA,NA,NA,NA,NA,NA,NA,NA,NA,NA,NA,NA,NA,NA,NA,NA,NA,NA,NA,NA,NA
"265","stim/objects/HouseObjects/bucket.png",263,79,256,0.5,"stim/42.jpeg",4,2,1,2,"HouseObjects",1,4,"left","left",0.847000122,1,1,1,0,NA,NA,NA,NA,NA,NA,NA,NA,NA,NA,NA,NA,NA,NA,NA,NA,NA,NA,NA,NA,NA,NA,NA,NA
"253","stim/objects/HouseObjects/bleachbottle.png",264,79,257,0.5,"stim/31.jpeg",3,1,1,2,"HouseObjects",1,3,"left","left",0.688999891,1,1,1,0,NA,NA,NA,NA,NA,NA,NA,NA,NA,NA,NA,NA,NA,NA,NA,NA,NA,NA,NA,NA,NA,NA,NA,NA
"310","stim/objects/HouseObjects/dustpan.png",265,79,258,0.9,"stim/24.jpeg",2,4,3,2,"HouseObjects",1,2,"left","left",0.503000021,1,1,1,0,NA,NA,NA,NA,NA,NA,NA,NA,NA,NA,NA,NA,NA,NA,NA,NA,NA,NA,NA,NA,NA,NA,NA,NA
"328","stim/objects/HouseObjects/flyswatter.png",266,79,259,0.9,"stim/21.jpeg",2,1,3,2,"HouseObjects",1,3,"left","",NA,0,0,1,0,NA,NA,NA,NA,NA,NA,NA,NA,NA,NA,NA,NA,NA,NA,NA,NA,NA,NA,NA,NA,NA,NA,NA,NA
"247","stim/objects/HouseObjects/barbecuelighter.png",267,79,260,0.5,"stim/33.jpeg",3,3,1,2,"HouseObjects",1,2,"left","left",0.50999999,1,1,1,0,NA,NA,NA,NA,NA,NA,NA,NA,NA,NA,NA,NA,NA,NA,NA,NA,NA,NA,NA,NA,NA,NA,NA,NA
"359","stim/objects/HouseObjects/glass.png",268,79,261,0.9,"stim/24.jpeg",2,4,3,2,"HouseObjects",1,1,"left","left",0.407999992,1,1,1,0,NA,NA,NA,NA,NA,NA,NA,NA,NA,NA,NA,NA,NA,NA,NA,NA,NA,NA,NA,NA,NA,NA,NA,NA
"507","stim/objects/Instruments/gong.png",269,79,262,0.9,"stim/11.jpeg",1,1,3,2,"Instruments",2,2,"right","right",0.578000069,1,1,1,0,NA,NA,NA,NA,NA,NA,NA,NA,NA,NA,NA,NA,NA,NA,NA,NA,NA,NA,NA,NA,NA,NA,NA,NA
"292","stim/objects/HouseObjects/doormat.png",270,79,263,0.9,"stim/23.jpeg",2,3,3,2,"HouseObjects",1,3,"left","left",0.460000038,1,1,1,0,NA,NA,NA,NA,NA,NA,NA,NA,NA,NA,NA,NA,NA,NA,NA,NA,NA,NA,NA,NA,NA,NA,NA,NA
"257","stim/objects/HouseObjects/blender.png",271,79,264,0.5,"stim/44.jpeg",4,4,1,2,"HouseObjects",1,2,"left","left",0.467000008,1,1,1,0,NA,NA,NA,NA,NA,NA,NA,NA,NA,NA,NA,NA,NA,NA,NA,NA,NA,NA,NA,NA,NA,NA,NA,NA
"329","stim/objects/HouseObjects/flyswatter.png",272,79,265,0.9,"stim/21.jpeg",2,1,3,2,"HouseObjects",1,1,"left","left",0.431999922,1,1,1,0,NA,NA,NA,NA,NA,NA,NA,NA,NA,NA,NA,NA,NA,NA,NA,NA,NA,NA,NA,NA,NA,NA,NA,NA
"402","stim/objects/HouseObjects/remote.png",273,79,266,0.3,"stim/54.jpeg",5,4,2,1,"HouseObjects",1,3,"left","left",0.470000029,1,1,1,0,59,79,1,0.3,1,"stim/54.jpeg",5,4,"stim/54.jpeg",3,"left",3.270999908,3,4,1.23300004,2,1.392999887,59,1,1,1,0,0,0
"294","stim/objects/HouseObjects/doormat.png",274,79,267,0.9,"stim/21.jpeg",2,1,3,2,"HouseObjects",1,2,"left","left",0.434000015,1,1,1,0,NA,NA,NA,NA,NA,NA,NA,NA,NA,NA,NA,NA,NA,NA,NA,NA,NA,NA,NA,NA,NA,NA,NA,NA
"508","stim/objects/Instruments/gong.png",275,79,268,0.9,"stim/11.jpeg",1,1,3,2,"Instruments",2,1,"right","right",0.503000021,1,1,1,0,NA,NA,NA,NA,NA,NA,NA,NA,NA,NA,NA,NA,NA,NA,NA,NA,NA,NA,NA,NA,NA,NA,NA,NA
"295","stim/objects/HouseObjects/doormat.png",276,79,269,0.9,"stim/24.jpeg",2,4,3,2,"HouseObjects",1,2,"left","left",0.392999887,1,1,1,0,NA,NA,NA,NA,NA,NA,NA,NA,NA,NA,NA,NA,NA,NA,NA,NA,NA,NA,NA,NA,NA,NA,NA,NA
"412","stim/objects/Instruments/balalaika.png",277,79,270,0.5,"stim/32.jpeg",3,2,1,2,"Instruments",2,1,"right","left",0.403000116,0,0,1,0,NA,NA,NA,NA,NA,NA,NA,NA,NA,NA,NA,NA,NA,NA,NA,NA,NA,NA,NA,NA,NA,NA,NA,NA
"259","stim/objects/HouseObjects/bottle.png",278,79,271,0.5,"stim/41.jpeg",4,1,1,2,"HouseObjects",1,2,"left","left",0.56400013,1,1,1,0,NA,NA,NA,NA,NA,NA,NA,NA,NA,NA,NA,NA,NA,NA,NA,NA,NA,NA,NA,NA,NA,NA,NA,NA
"491","stim/objects/Instruments/frenchhorn.png",279,79,272,0.9,"stim/11.jpeg",1,1,3,2,"Instruments",2,1,"right","right",0.513999939,1,1,1,0,NA,NA,NA,NA,NA,NA,NA,NA,NA,NA,NA,NA,NA,NA,NA,NA,NA,NA,NA,NA,NA,NA,NA,NA
"524","stim/objects/Instruments/grandpiano.png",280,79,273,0.9,"stim/14.jpeg",1,4,3,2,"Instruments",2,2,"right","right",0.566000223,1,1,1,0,NA,NA,NA,NA,NA,NA,NA,NA,NA,NA,NA,NA,NA,NA,NA,NA,NA,NA,NA,NA,NA,NA,NA,NA
"282","stim/objects/HouseObjects/coffee2.png",281,79,274,0.7,"stim/63.jpeg",6,3,2,1,"HouseObjects",1,1,"left","right",0.556999922,0,0,1,0,187,79,1,0.7,1,"stim/63.jpeg",6,3,"stim/63.jpeg",1,"right",0.989999771,4,2,2.677999973,1,13.47600007,187,0,0,NA,1,NA,0
"540","stim/objects/Instruments/grandpiano2.png",282,79,275,0.9,"stim/13.jpeg",1,3,3,1,"Instruments",2,1,"right","right",0.697999954,1,1,1,0,182,79,1,0.9,2,"stim/13.jpeg",1,3,"stim/13.jpeg",1,"right",1.470000029,3,4,1.451000214,1,0.791000128,182,0,0,NA,1,NA,0
"452","stim/objects/Instruments/electricguitar.png",283,79,276,0.7,"stim/54.jpeg",5,4,2,2,"Instruments",2,1,"right","left",0.717000008,0,0,1,0,NA,NA,NA,NA,NA,NA,NA,NA,NA,NA,NA,NA,NA,NA,NA,NA,NA,NA,NA,NA,NA,NA,NA,NA
"311","stim/objects/HouseObjects/dustpan.png",284,79,277,0.9,"stim/24.jpeg",2,4,3,2,"HouseObjects",1,4,"left","left",0.535000086,1,1,1,0,NA,NA,NA,NA,NA,NA,NA,NA,NA,NA,NA,NA,NA,NA,NA,NA,NA,NA,NA,NA,NA,NA,NA,NA
"458","stim/objects/Instruments/flute.png",285,79,278,0.9,"stim/12.jpeg",1,2,3,2,"Instruments",2,2,"right","right",0.558000088,1,1,1,0,NA,NA,NA,NA,NA,NA,NA,NA,NA,NA,NA,NA,NA,NA,NA,NA,NA,NA,NA,NA,NA,NA,NA,NA
"360","stim/objects/HouseObjects/glass.png",286,79,279,0.9,"stim/23.jpeg",2,3,3,2,"HouseObjects",1,1,"left","left",0.638999939,1,1,1,0,NA,NA,NA,NA,NA,NA,NA,NA,NA,NA,NA,NA,NA,NA,NA,NA,NA,NA,NA,NA,NA,NA,NA,NA
"552","stim/objects/Instruments/laud2.png",287,79,280,0.1,"stim/23.jpeg",2,3,3,1,"Instruments",2,4,"right","left",0.513000011,0,0,1,0,104,79,1,0.1,2,"stim/23.jpeg",2,3,"stim/23.jpeg",4,"left",3.010999918,3,4,0.595999956,4,0.260999918,104,1,0,0,1,1,0
"477","stim/objects/Instruments/flutetrans.png",288,79,281,0.9,"stim/11.jpeg",1,1,3,2,"Instruments",2,2,"right","right",0.592000008,1,1,1,0,NA,NA,NA,NA,NA,NA,NA,NA,NA,NA,NA,NA,NA,NA,NA,NA,NA,NA,NA,NA,NA,NA,NA,NA
"358","stim/objects/HouseObjects/garbagebin2.png",289,79,282,0.1,"stim/14.jpeg",1,4,3,1,"HouseObjects",1,3,"left","right",0.56799984,0,0,1,0,157,79,1,0.1,1,"stim/14.jpeg",1,4,"stim/14.jpeg",3,"right",0.580999851,2,1,1.151000023,3,0.436000109,157,0,0,NA,1,NA,0
"287","stim/objects/HouseObjects/dishsoap.png",290,79,283,0.7,"stim/62.jpeg",6,2,2,2,"HouseObjects",1,1,"left","",NA,0,0,1,0,NA,NA,NA,NA,NA,NA,NA,NA,NA,NA,NA,NA,NA,NA,NA,NA,NA,NA,NA,NA,NA,NA,NA,NA
"258","stim/objects/HouseObjects/blender2.png",291,79,284,0.7,"stim/64.jpeg",6,4,2,1,"HouseObjects",1,2,"left","left",0.556999922,1,1,1,0,162,79,1,0.7,1,"stim/64.jpeg",6,4,"stim/64.jpeg",2,"left",2.319999933,4,1,1.56400013,2,0.961999893,162,1,0,0,1,1,0
"361","stim/objects/HouseObjects/glass.png",292,79,285,0.9,"stim/21.jpeg",2,1,3,2,"HouseObjects",1,1,"left","left",0.486999989,1,1,1,0,NA,NA,NA,NA,NA,NA,NA,NA,NA,NA,NA,NA,NA,NA,NA,NA,NA,NA,NA,NA,NA,NA,NA,NA
"271","stim/objects/HouseObjects/clothesdryingrack.png",293,79,286,0.7,"stim/61.jpeg",6,1,2,2,"HouseObjects",1,2,"left","left",0.722000122,1,1,1,0,NA,NA,NA,NA,NA,NA,NA,NA,NA,NA,NA,NA,NA,NA,NA,NA,NA,NA,NA,NA,NA,NA,NA,NA
"252","stim/objects/HouseObjects/basket2.png",294,79,287,0.3,"stim/51.jpeg",5,1,2,1,"HouseObjects",1,3,"left","left",0.601000071,1,1,1,0,81,79,1,0.3,1,"stim/51.jpeg",5,1,"stim/51.jpeg",3,"right",0.634000063,1,4,1.040999889,3,0.651000023,81,0,0,NA,1,NA,0
"478","stim/objects/Instruments/flutetrans.png",295,79,288,0.9,"stim/11.jpeg",1,1,3,2,"Instruments",2,2,"right","right",0.519000053,1,1,1,0,NA,NA,NA,NA,NA,NA,NA,NA,NA,NA,NA,NA,NA,NA,NA,NA,NA,NA,NA,NA,NA,NA,NA,NA
"286","stim/objects/HouseObjects/cushion2.png",296,79,289,0.7,"stim/64.jpeg",6,4,2,1,"HouseObjects",1,3,"left","left",0.513999939,1,1,1,0,154,79,1,0.7,1,"stim/64.jpeg",6,4,"stim/64.jpeg",3,"right",0.648999929,2,4,0.577000141,2,1.083999872,154,0,1,NA,0,NA,0
"436","stim/objects/Instruments/cymbal.png",297,79,290,0.7,"stim/51.jpeg",5,1,2,2,"Instruments",2,3,"right","right",0.572999954,1,1,1,0,NA,NA,NA,NA,NA,NA,NA,NA,NA,NA,NA,NA,NA,NA,NA,NA,NA,NA,NA,NA,NA,NA,NA,NA
"363","stim/objects/HouseObjects/glass.png",298,79,291,0.9,"stim/22.jpeg",2,2,3,2,"HouseObjects",1,3,"left","left",0.608999968,1,1,1,0,NA,NA,NA,NA,NA,NA,NA,NA,NA,NA,NA,NA,NA,NA,NA,NA,NA,NA,NA,NA,NA,NA,NA,NA
"383","stim/objects/HouseObjects/handvacuum2.png",299,79,292,0.1,"stim/11.jpeg",1,1,3,1,"HouseObjects",1,2,"left","right",0.427999973,0,0,1,0,19,79,1,0.1,1,"stim/11.jpeg",1,1,"stim/11.jpeg",2,"left",0.880000114,4,2,3.238000154,4,1.114000082,19,1,0,0,0,0,0
"494","stim/objects/Instruments/frenchhorn.png",300,79,293,0.9,"stim/12.jpeg",1,2,3,2,"Instruments",2,2,"right","left",0.450999975,0,0,1,0,NA,NA,NA,NA,NA,NA,NA,NA,NA,NA,NA,NA,NA,NA,NA,NA,NA,NA,NA,NA,NA,NA,NA,NA
"388","stim/objects/HouseObjects/key.png",301,79,294,0.5,"stim/42.jpeg",4,2,1,1,"HouseObjects",1,4,"left","left",0.644000053,1,1,1,0,23,79,1,0.5,2,"stim/42.jpeg",4,2,"stim/42.jpeg",4,"right",1.363999844,3,3,0.879999876,2,0.919999838,23,0,0,NA,0,NA,0
"460","stim/objects/Instruments/flute.png",302,79,295,0.9,"stim/14.jpeg",1,4,3,2,"Instruments",2,4,"right","right",0.402000189,1,1,1,0,NA,NA,NA,NA,NA,NA,NA,NA,NA,NA,NA,NA,NA,NA,NA,NA,NA,NA,NA,NA,NA,NA,NA,NA
"447","stim/objects/Instruments/drums2.png",303,79,296,0.3,"stim/61.jpeg",6,1,2,1,"Instruments",2,3,"right","left",0.327000141,0,0,1,0,37,79,1,0.3,2,"stim/61.jpeg",6,1,"stim/61.jpeg",3,"right",0.846999884,2,3,0.715000153,1,0.818000078,37,0,0,NA,0,NA,0
"262","stim/objects/HouseObjects/broom.png",304,79,297,0.5,"stim/42.jpeg",4,2,1,2,"HouseObjects",1,1,"left","left",0.548999786,1,1,1,0,NA,NA,NA,NA,NA,NA,NA,NA,NA,NA,NA,NA,NA,NA,NA,NA,NA,NA,NA,NA,NA,NA,NA,NA
"495","stim/objects/Instruments/frenchhorn.png",305,79,298,0.9,"stim/14.jpeg",1,4,3,2,"Instruments",2,4,"right","left",0.687000036,0,0,1,0,NA,NA,NA,NA,NA,NA,NA,NA,NA,NA,NA,NA,NA,NA,NA,NA,NA,NA,NA,NA,NA,NA,NA,NA
"526","stim/objects/Instruments/grandpiano.png",306,79,299,0.9,"stim/14.jpeg",1,4,3,2,"Instruments",2,4,"right","left",0.351000071,0,0,1,0,NA,NA,NA,NA,NA,NA,NA,NA,NA,NA,NA,NA,NA,NA,NA,NA,NA,NA,NA,NA,NA,NA,NA,NA
"480","stim/objects/Instruments/flutetrans.png",307,79,300,0.9,"stim/11.jpeg",1,1,3,2,"Instruments",2,3,"right","right",0.743999958,1,1,1,0,NA,NA,NA,NA,NA,NA,NA,NA,NA,NA,NA,NA,NA,NA,NA,NA,NA,NA,NA,NA,NA,NA,NA,NA
"280","stim/objects/HouseObjects/coffee.png",308,79,301,0.7,"stim/63.jpeg",6,3,2,2,"HouseObjects",1,1,"left","left",0.641000032,1,1,1,0,NA,NA,NA,NA,NA,NA,NA,NA,NA,NA,NA,NA,NA,NA,NA,NA,NA,NA,NA,NA,NA,NA,NA,NA
"427","stim/objects/Instruments/chime.png",309,79,302,0.5,"stim/44.jpeg",4,4,1,2,"Instruments",2,1,"right","right",0.686000109,1,1,1,0,NA,NA,NA,NA,NA,NA,NA,NA,NA,NA,NA,NA,NA,NA,NA,NA,NA,NA,NA,NA,NA,NA,NA,NA
"364","stim/objects/HouseObjects/glass.png",310,79,303,0.9,"stim/24.jpeg",2,4,3,2,"HouseObjects",1,4,"left","right",0.348999977,0,0,1,0,NA,NA,NA,NA,NA,NA,NA,NA,NA,NA,NA,NA,NA,NA,NA,NA,NA,NA,NA,NA,NA,NA,NA,NA
"397","stim/objects/HouseObjects/pan2.png",311,79,304,0.9,"stim/22.jpeg",2,2,3,1,"HouseObjects",1,3,"left","left",0.416000128,1,1,1,0,188,79,1,0.9,1,"stim/22.jpeg",2,2,"stim/22.jpeg",3,"right",1.076999903,4,2,0.889999866,1,20.82200003,188,0,1,NA,0,NA,0
"330","stim/objects/HouseObjects/flyswatter.png",312,79,305,0.9,"stim/23.jpeg",2,3,3,2,"HouseObjects",1,1,"left","right",0.735999823,0,0,1,0,NA,NA,NA,NA,NA,NA,NA,NA,NA,NA,NA,NA,NA,NA,NA,NA,NA,NA,NA,NA,NA,NA,NA,NA
"430","stim/objects/Instruments/clarinet.png",313,79,306,0.5,"stim/42.jpeg",4,2,1,2,"Instruments",2,2,"right","right",0.487999916,1,1,1,0,NA,NA,NA,NA,NA,NA,NA,NA,NA,NA,NA,NA,NA,NA,NA,NA,NA,NA,NA,NA,NA,NA,NA,NA
"496","stim/objects/Instruments/frenchhorn.png",314,79,307,0.9,"stim/12.jpeg",1,2,3,2,"Instruments",2,1,"right","right",0.753999949,1,1,1,0,NA,NA,NA,NA,NA,NA,NA,NA,NA,NA,NA,NA,NA,NA,NA,NA,NA,NA,NA,NA,NA,NA,NA,NA
"365","stim/objects/HouseObjects/glass.png",315,79,308,0.9,"stim/22.jpeg",2,2,3,2,"HouseObjects",1,3,"left","left",0.751999855,1,1,1,0,NA,NA,NA,NA,NA,NA,NA,NA,NA,NA,NA,NA,NA,NA,NA,NA,NA,NA,NA,NA,NA,NA,NA,NA
"381","stim/objects/HouseObjects/handbrush2.png",316,79,309,0.1,"stim/14.jpeg",1,4,3,1,"HouseObjects",1,2,"left","right",0.528999805,0,0,1,0,29,79,1,0.1,1,"stim/14.jpeg",1,4,"stim/14.jpeg",2,"left",1.395999908,3,3,9.618999958,4,4.559999943,29,1,0,0,0,0,0
"296","stim/objects/HouseObjects/doormat.png",317,79,310,0.9,"stim/23.jpeg",2,3,3,2,"HouseObjects",1,1,"left","right",0.303999901,0,0,1,0,NA,NA,NA,NA,NA,NA,NA,NA,NA,NA,NA,NA,NA,NA,NA,NA,NA,NA,NA,NA,NA,NA,NA,NA
"417","stim/objects/Instruments/banjo2.png",318,79,311,0.7,"stim/52.jpeg",5,2,2,1,"Instruments",2,1,"right","right",0.398999929,1,1,1,0,90,79,1,0.7,2,"stim/52.jpeg",5,2,"stim/52.jpeg",1,"right",0.920000076,3,4,0.572999954,4,0.556999922,90,0,0,NA,0,NA,0
"548","stim/objects/Instruments/hihat2.png",319,79,312,0.9,"stim/13.jpeg",1,3,3,1,"Instruments",2,3,"right","left",0.30099988,0,0,1,0,61,79,1,0.9,2,"stim/13.jpeg",1,3,"stim/13.jpeg",3,"left",1.210000038,3,1,1.575999975,1,1.082000017,61,1,0,0,0,0,0
"414","stim/objects/Instruments/balalaika2.png",320,79,313,0.7,"stim/51.jpeg",5,1,2,1,"Instruments",2,3,"right","right",0.297999859,1,1,1,0,168,79,1,0.7,2,"stim/51.jpeg",5,1,"stim/51.jpeg",3,"right",1.111000061,2,1,1.394999981,2,1.848999977,168,0,1,NA,0,NA,0
"418","stim/objects/Instruments/bassdrum.png",321,79,314,0.5,"stim/34.jpeg",3,4,1,2,"Instruments",2,3,"right","left",0.546000004,0,0,1,0,NA,NA,NA,NA,NA,NA,NA,NA,NA,NA,NA,NA,NA,NA,NA,NA,NA,NA,NA,NA,NA,NA,NA,NA
"406","stim/objects/Instruments/accordion.png",322,79,315,0.5,"stim/31.jpeg",3,1,1,2,"Instruments",2,4,"right","right",0.26699996,1,1,1,0,NA,NA,NA,NA,NA,NA,NA,NA,NA,NA,NA,NA,NA,NA,NA,NA,NA,NA,NA,NA,NA,NA,NA,NA
"315","stim/objects/HouseObjects/dustpan.png",323,79,316,0.9,"stim/21.jpeg",2,1,3,2,"HouseObjects",1,4,"left","left",0.56799984,1,1,1,0,NA,NA,NA,NA,NA,NA,NA,NA,NA,NA,NA,NA,NA,NA,NA,NA,NA,NA,NA,NA,NA,NA,NA,NA
"366","stim/objects/HouseObjects/glass.png",324,79,317,0.9,"stim/24.jpeg",2,4,3,2,"HouseObjects",1,4,"left","right",0.460000038,0,0,1,0,NA,NA,NA,NA,NA,NA,NA,NA,NA,NA,NA,NA,NA,NA,NA,NA,NA,NA,NA,NA,NA,NA,NA,NA
"267","stim/objects/HouseObjects/bucket2.png",325,79,318,0.7,"stim/63.jpeg",6,3,2,1,"HouseObjects",1,4,"left","right",0.227999926,0,0,1,0,73,79,1,0.7,1,"stim/63.jpeg",6,3,"stim/63.jpeg",4,"right",0.936000109,3,1,0.875,2,2.047999859,73,0,0,NA,0,NA,0
"425","stim/objects/Instruments/cello.png",326,79,319,0.5,"stim/43.jpeg",4,3,1,2,"Instruments",2,2,"right","right",0.481000185,1,1,1,0,NA,NA,NA,NA,NA,NA,NA,NA,NA,NA,NA,NA,NA,NA,NA,NA,NA,NA,NA,NA,NA,NA,NA,NA
"297","stim/objects/HouseObjects/doormat.png",327,79,320,0.9,"stim/21.jpeg",2,1,3,2,"HouseObjects",1,2,"left","",NA,0,0,1,0,NA,NA,NA,NA,NA,NA,NA,NA,NA,NA,NA,NA,NA,NA,NA,NA,NA,NA,NA,NA,NA,NA,NA,NA
"408","stim/objects/Instruments/accordion2.png",328,79,321,0.7,"stim/53.jpeg",5,3,2,1,"Instruments",2,4,"right","left",0.446999788,0,0,1,0,120,79,1,0.7,2,"stim/53.jpeg",5,3,"stim/53.jpeg",4,"right",1.047999859,4,2,0.981999874,3,0.972000122,120,0,0,NA,0,NA,0
"298","stim/objects/HouseObjects/doormat.png",329,79,322,0.9,"stim/21.jpeg",2,1,3,2,"HouseObjects",1,3,"left","left",0.434000015,1,1,1,0,NA,NA,NA,NA,NA,NA,NA,NA,NA,NA,NA,NA,NA,NA,NA,NA,NA,NA,NA,NA,NA,NA,NA,NA
"481","stim/objects/Instruments/flutetrans.png",330,79,323,0.9,"stim/14.jpeg",1,4,3,2,"Instruments",2,4,"right","right",0.528000116,1,1,1,0,NA,NA,NA,NA,NA,NA,NA,NA,NA,NA,NA,NA,NA,NA,NA,NA,NA,NA,NA,NA,NA,NA,NA,NA
"482","stim/objects/Instruments/flutetrans.png",331,79,324,0.9,"stim/12.jpeg",1,2,3,2,"Instruments",2,3,"right","right",0.545000076,1,1,1,0,NA,NA,NA,NA,NA,NA,NA,NA,NA,NA,NA,NA,NA,NA,NA,NA,NA,NA,NA,NA,NA,NA,NA,NA
"549","stim/objects/Instruments/keyboard.png",332,79,325,0.5,"stim/32.jpeg",3,2,1,1,"Instruments",2,2,"right","left",0.523000002,0,0,1,0,153,79,1,0.5,1,"stim/32.jpeg",3,2,"stim/32.jpeg",2,"right",1.181999922,3,1,1.778000116,2,1.245000124,153,0,0,NA,1,NA,0
"334","stim/objects/HouseObjects/flyswatter.png",333,79,326,0.9,"stim/21.jpeg",2,1,3,2,"HouseObjects",1,3,"left","left",0.613999844,1,1,1,0,NA,NA,NA,NA,NA,NA,NA,NA,NA,NA,NA,NA,NA,NA,NA,NA,NA,NA,NA,NA,NA,NA,NA,NA
"510","stim/objects/Instruments/gong.png",334,79,327,0.9,"stim/14.jpeg",1,4,3,2,"Instruments",2,4,"right","right",0.50999999,1,1,1,0,NA,NA,NA,NA,NA,NA,NA,NA,NA,NA,NA,NA,NA,NA,NA,NA,NA,NA,NA,NA,NA,NA,NA,NA
"275","stim/objects/HouseObjects/clothespin.png",335,79,328,0.7,"stim/63.jpeg",6,3,2,2,"HouseObjects",1,2,"left","left",0.535000086,1,1,1,0,NA,NA,NA,NA,NA,NA,NA,NA,NA,NA,NA,NA,NA,NA,NA,NA,NA,NA,NA,NA,NA,NA,NA,NA
"553","stim/objects/Instruments/maraca.png",336,79,329,0.5,"stim/41.jpeg",4,1,1,1,"Instruments",2,3,"right","",NA,0,0,1,0,124,79,1,0.5,2,"stim/41.jpeg",4,1,"stim/41.jpeg",3,"right",1.207999945,4,1,1.005000114,4,1.371999979,124,0,1,NA,0,NA,0
"431","stim/objects/Instruments/clarinet.png",337,79,330,0.5,"stim/41.jpeg",4,1,1,2,"Instruments",2,4,"right","",NA,0,0,1,0,NA,NA,NA,NA,NA,NA,NA,NA,NA,NA,NA,NA,NA,NA,NA,NA,NA,NA,NA,NA,NA,NA,NA,NA
"270","stim/objects/HouseObjects/clock2.png",338,79,331,0.7,"stim/64.jpeg",6,4,2,1,"HouseObjects",1,1,"left","left",0.503999949,1,1,1,0,184,79,1,0.7,1,"stim/64.jpeg",6,4,"stim/64.jpeg",1,"left",1.124000072,3,4,2.722999811,2,1.684999943,184,1,1,1,0,0,0
"378","stim/objects/HouseObjects/hairdryer.png",339,79,332,0.5,"stim/34.jpeg",3,4,1,1,"HouseObjects",1,3,"left","right",0.444999933,0,0,1,0,24,79,1,0.5,1,"stim/34.jpeg",3,4,"stim/34.jpeg",3,"left",2.703999996,4,4,2.584000111,1,1.873999834,24,1,1,1,0,0,0
"455","stim/objects/Instruments/electricguitar2.png",340,79,333,0.3,"stim/63.jpeg",6,3,2,1,"Instruments",2,1,"right","left",0.437999964,0,0,1,0,26,79,1,0.3,2,"stim/63.jpeg",6,3,"stim/63.jpeg",1,"left",1.358999968,4,1,2.424000025,2,3.405999899,26,1,0,0,0,0,0
"342","stim/objects/HouseObjects/garbagebin.png",341,79,334,0.9,"stim/22.jpeg",2,2,3,2,"HouseObjects",1,1,"left","right",0.680000067,0,0,1,0,NA,NA,NA,NA,NA,NA,NA,NA,NA,NA,NA,NA,NA,NA,NA,NA,NA,NA,NA,NA,NA,NA,NA,NA
"343","stim/objects/HouseObjects/garbagebin.png",342,79,335,0.9,"stim/21.jpeg",2,1,3,2,"HouseObjects",1,3,"left","left",0.655999899,1,1,1,0,NA,NA,NA,NA,NA,NA,NA,NA,NA,NA,NA,NA,NA,NA,NA,NA,NA,NA,NA,NA,NA,NA,NA,NA
"566","stim/objects/Instruments/panflute2.png",343,79,336,0.1,"stim/22.jpeg",2,2,3,1,"Instruments",2,1,"right","right",0.813999891,1,1,1,0,109,79,1,0.1,2,"stim/22.jpeg",2,2,"stim/22.jpeg",1,"right",1.086999893,3,2,1.276000023,4,1.436000109,109,0,1,NA,0,NA,0
"367","stim/objects/HouseObjects/glass.png",344,79,337,0.9,"stim/23.jpeg",2,3,3,2,"HouseObjects",1,3,"left","left",0.656999826,1,1,1,0,NA,NA,NA,NA,NA,NA,NA,NA,NA,NA,NA,NA,NA,NA,NA,NA,NA,NA,NA,NA,NA,NA,NA,NA
"528","stim/objects/Instruments/grandpiano.png",345,79,338,0.9,"stim/11.jpeg",1,1,3,2,"Instruments",2,3,"right","right",0.646000147,1,1,1,0,NA,NA,NA,NA,NA,NA,NA,NA,NA,NA,NA,NA,NA,NA,NA,NA,NA,NA,NA,NA,NA,NA,NA,NA
"498","stim/objects/Instruments/frenchhorn.png",346,79,339,0.9,"stim/12.jpeg",1,2,3,2,"Instruments",2,2,"right","right",0.537000179,1,1,1,0,NA,NA,NA,NA,NA,NA,NA,NA,NA,NA,NA,NA,NA,NA,NA,NA,NA,NA,NA,NA,NA,NA,NA,NA
"290","stim/objects/HouseObjects/dishsoap2.png",347,79,340,0.7,"stim/61.jpeg",6,1,2,1,"HouseObjects",1,1,"left","left",0.673000097,1,1,1,0,50,79,1,0.7,1,"stim/61.jpeg",6,1,"stim/61.jpeg",1,"left",1.433000088,3,3,4.441999912,1,1.585999966,50,1,0,0,1,1,0
"462","stim/objects/Instruments/flute.png",348,79,341,0.9,"stim/14.jpeg",1,4,3,2,"Instruments",2,4,"right","right",0.595000029,1,1,1,0,NA,NA,NA,NA,NA,NA,NA,NA,NA,NA,NA,NA,NA,NA,NA,NA,NA,NA,NA,NA,NA,NA,NA,NA
"394","stim/objects/HouseObjects/match.png",349,79,342,0.5,"stim/41.jpeg",4,1,1,1,"HouseObjects",1,1,"left","left",0.726000071,1,1,1,0,123,79,1,0.5,2,"stim/41.jpeg",4,1,"stim/41.jpeg",1,"right",0.713999987,1,4,1.255999804,3,0.717000008,123,0,0,NA,0,NA,0
"288","stim/objects/HouseObjects/dishsoap.png",350,79,343,0.7,"stim/61.jpeg",6,1,2,2,"HouseObjects",1,3,"left","left",0.592999935,1,1,1,0,NA,NA,NA,NA,NA,NA,NA,NA,NA,NA,NA,NA,NA,NA,NA,NA,NA,NA,NA,NA,NA,NA,NA,NA
"289","stim/objects/HouseObjects/dishsoap.png",351,79,344,0.7,"stim/63.jpeg",6,3,2,2,"HouseObjects",1,4,"left","right",0.36500001,0,0,1,0,NA,NA,NA,NA,NA,NA,NA,NA,NA,NA,NA,NA,NA,NA,NA,NA,NA,NA,NA,NA,NA,NA,NA,NA
"506","stim/objects/Instruments/frenchhorn2.png",352,79,345,0.9,"stim/11.jpeg",1,1,3,1,"Instruments",2,1,"right","right",0.513000011,1,1,1,0,102,79,1,0.9,2,"stim/11.jpeg",1,1,"stim/11.jpeg",1,"left",0.646000147,4,3,1.276000023,1,1.252000093,102,1,0,0,1,1,0
"411","stim/objects/Instruments/acousticguitar2.png",353,79,346,0.7,"stim/54.jpeg",5,4,2,1,"Instruments",2,1,"right","right",0.27699995,1,1,1,0,199,79,1,0.7,2,"stim/54.jpeg",5,4,"stim/54.jpeg",1,"left",0.893000126,4,2,1.269999981,2,1.061000109,199,1,0,0,0,0,0
"529","stim/objects/Instruments/grandpiano.png",354,79,347,0.9,"stim/12.jpeg",1,2,3,2,"Instruments",2,4,"right","left",0.427999973,0,0,1,0,NA,NA,NA,NA,NA,NA,NA,NA,NA,NA,NA,NA,NA,NA,NA,NA,NA,NA,NA,NA,NA,NA,NA,NA
"421","stim/objects/Instruments/bassguitar.png",355,79,348,0.5,"stim/42.jpeg",4,2,1,2,"Instruments",2,4,"right","left",0.576999903,0,0,1,0,NA,NA,NA,NA,NA,NA,NA,NA,NA,NA,NA,NA,NA,NA,NA,NA,NA,NA,NA,NA,NA,NA,NA,NA
"530","stim/objects/Instruments/grandpiano.png",356,79,349,0.9,"stim/12.jpeg",1,2,3,2,"Instruments",2,3,"right","left",0.345999956,0,0,1,0,NA,NA,NA,NA,NA,NA,NA,NA,NA,NA,NA,NA,NA,NA,NA,NA,NA,NA,NA,NA,NA,NA,NA,NA
"463","stim/objects/Instruments/flute.png",357,79,350,0.9,"stim/14.jpeg",1,4,3,2,"Instruments",2,2,"right","right",0.634000063,1,1,1,0,NA,NA,NA,NA,NA,NA,NA,NA,NA,NA,NA,NA,NA,NA,NA,NA,NA,NA,NA,NA,NA,NA,NA,NA
"558","stim/objects/Instruments/metronome2.png",358,79,351,0.1,"stim/22.jpeg",2,2,3,1,"Instruments",2,3,"right","right",0.315999985,1,1,1,0,68,79,1,0.1,2,"stim/22.jpeg",2,2,"stim/22.jpeg",3,"left",1.009000063,3,4,0.838999987,4,0.713999987,68,1,0,0,0,0,0
"531","stim/objects/Instruments/grandpiano.png",359,79,352,0.9,"stim/13.jpeg",1,3,3,2,"Instruments",2,4,"right","left",0.551999807,0,0,1,0,NA,NA,NA,NA,NA,NA,NA,NA,NA,NA,NA,NA,NA,NA,NA,NA,NA,NA,NA,NA,NA,NA,NA,NA
"483","stim/objects/Instruments/flutetrans.png",360,79,353,0.9,"stim/13.jpeg",1,3,3,2,"Instruments",2,2,"right","right",0.393999815,1,1,1,0,NA,NA,NA,NA,NA,NA,NA,NA,NA,NA,NA,NA,NA,NA,NA,NA,NA,NA,NA,NA,NA,NA,NA,NA
"461","stim/objects/Instruments/flute.png",361,79,354,0.9,"stim/11.jpeg",1,1,3,2,"Instruments",2,1,"right","right",0.492000103,1,1,1,0,NA,NA,NA,NA,NA,NA,NA,NA,NA,NA,NA,NA,NA,NA,NA,NA,NA,NA,NA,NA,NA,NA,NA,NA
"332","stim/objects/HouseObjects/flyswatter.png",362,79,355,0.9,"stim/24.jpeg",2,4,3,2,"HouseObjects",1,4,"left","left",0.464999914,1,1,1,0,NA,NA,NA,NA,NA,NA,NA,NA,NA,NA,NA,NA,NA,NA,NA,NA,NA,NA,NA,NA,NA,NA,NA,NA
"532","stim/objects/Instruments/grandpiano.png",363,79,356,0.9,"stim/13.jpeg",1,3,3,2,"Instruments",2,2,"right","right",0.405999899,1,1,1,0,NA,NA,NA,NA,NA,NA,NA,NA,NA,NA,NA,NA,NA,NA,NA,NA,NA,NA,NA,NA,NA,NA,NA,NA
"401","stim/objects/HouseObjects/recyclingbin2.png",364,79,357,0.9,"stim/24.jpeg",2,4,3,1,"HouseObjects",1,1,"left","left",0.489000082,1,1,1,0,125,79,1,0.9,1,"stim/24.jpeg",2,4,"stim/24.jpeg",1,"left",1.344000101,4,3,0.746999979,4,1.003999949,125,1,0,0,0,0,0
"333","stim/objects/HouseObjects/flyswatter.png",365,79,358,0.9,"stim/24.jpeg",2,4,3,2,"HouseObjects",1,3,"left","right",0.322000027,0,0,1,0,NA,NA,NA,NA,NA,NA,NA,NA,NA,NA,NA,NA,NA,NA,NA,NA,NA,NA,NA,NA,NA,NA,NA,NA
"346","stim/objects/HouseObjects/garbagebin.png",366,79,359,0.9,"stim/21.jpeg",2,1,3,2,"HouseObjects",1,1,"left","right",0.210000038,0,0,1,0,NA,NA,NA,NA,NA,NA,NA,NA,NA,NA,NA,NA,NA,NA,NA,NA,NA,NA,NA,NA,NA,NA,NA,NA
"347","stim/objects/HouseObjects/garbagebin.png",367,79,360,0.9,"stim/23.jpeg",2,3,3,2,"HouseObjects",1,1,"left","right",0.339999914,0,0,1,0,NA,NA,NA,NA,NA,NA,NA,NA,NA,NA,NA,NA,NA,NA,NA,NA,NA,NA,NA,NA,NA,NA,NA,NA
"448","stim/objects/Instruments/electricdrumset.png",368,79,361,0.7,"stim/52.jpeg",5,2,2,2,"Instruments",2,3,"right","",NA,0,0,1,0,NA,NA,NA,NA,NA,NA,NA,NA,NA,NA,NA,NA,NA,NA,NA,NA,NA,NA,NA,NA,NA,NA,NA,NA
"386","stim/objects/HouseObjects/ironingboard.png",369,79,362,0.5,"stim/41.jpeg",4,1,1,1,"HouseObjects",1,3,"left","left",0.46600008,1,1,1,0,93,79,1,0.5,2,"stim/41.jpeg",4,1,"stim/41.jpeg",3,"left",0.920000076,3,4,1.796999931,3,1.108999968,93,1,0,0,1,1,0
"300","stim/objects/HouseObjects/doormat.png",370,79,363,0.9,"stim/24.jpeg",2,4,3,2,"HouseObjects",1,2,"left","right",0.427999973,0,0,1,0,NA,NA,NA,NA,NA,NA,NA,NA,NA,NA,NA,NA,NA,NA,NA,NA,NA,NA,NA,NA,NA,NA,NA,NA
"392","stim/objects/HouseObjects/lintroller.png",371,79,364,0.5,"stim/44.jpeg",4,4,1,1,"HouseObjects",1,1,"left","right",0.58100009,0,0,1,0,151,79,1,0.5,2,"stim/44.jpeg",4,4,"stim/44.jpeg",1,"right",0.587000132,2,4,1.269000053,1,0.746999979,151,0,1,NA,1,NA,0
"484","stim/objects/Instruments/flutetrans.png",372,79,365,0.9,"stim/12.jpeg",1,2,3,2,"Instruments",2,1,"right","right",0.897000074,1,1,1,0,NA,NA,NA,NA,NA,NA,NA,NA,NA,NA,NA,NA,NA,NA,NA,NA,NA,NA,NA,NA,NA,NA,NA,NA
"324","stim/objects/HouseObjects/dustpan2.png",373,79,366,0.1,"stim/12.jpeg",1,2,3,1,"HouseObjects",1,2,"left","left",0.302000046,1,1,1,0,85,79,1,0.1,1,"stim/12.jpeg",1,2,"stim/12.jpeg",2,"right",0.980000019,3,1,0.984000206,2,0.821000099,85,0,0,NA,1,NA,0
"457","stim/objects/Instruments/flute.png",374,79,367,0.9,"stim/11.jpeg",1,1,3,2,"Instruments",2,4,"right","right",0.40199995,1,1,1,0,NA,NA,NA,NA,NA,NA,NA,NA,NA,NA,NA,NA,NA,NA,NA,NA,NA,NA,NA,NA,NA,NA,NA,NA
"348","stim/objects/HouseObjects/garbagebin.png",375,79,368,0.9,"stim/21.jpeg",2,1,3,2,"HouseObjects",1,3,"left","right",0.338000059,0,0,1,0,NA,NA,NA,NA,NA,NA,NA,NA,NA,NA,NA,NA,NA,NA,NA,NA,NA,NA,NA,NA,NA,NA,NA,NA
"301","stim/objects/HouseObjects/doormat.png",376,79,369,0.9,"stim/23.jpeg",2,3,3,2,"HouseObjects",1,4,"left","left",0.302000046,1,1,1,0,NA,NA,NA,NA,NA,NA,NA,NA,NA,NA,NA,NA,NA,NA,NA,NA,NA,NA,NA,NA,NA,NA,NA,NA
"474","stim/objects/Instruments/flutetrans.png",377,79,370,0.9,"stim/14.jpeg",1,4,3,2,"Instruments",2,1,"right","right",0.489000082,1,1,1,0,NA,NA,NA,NA,NA,NA,NA,NA,NA,NA,NA,NA,NA,NA,NA,NA,NA,NA,NA,NA,NA,NA,NA,NA
"327","stim/objects/HouseObjects/flyswatter.png",378,79,371,0.9,"stim/24.jpeg",2,4,3,2,"HouseObjects",1,1,"left","right",0.38499999,0,0,1,0,NA,NA,NA,NA,NA,NA,NA,NA,NA,NA,NA,NA,NA,NA,NA,NA,NA,NA,NA,NA,NA,NA,NA,NA
"563","stim/objects/Instruments/oboe.png",379,79,372,0.7,"stim/53.jpeg",5,3,2,1,"Instruments",2,1,"right","left",0.375,0,0,1,0,97,79,1,0.7,2,"stim/53.jpeg",5,3,"stim/53.jpeg",1,"left",0.758999825,4,1,0.652999878,1,1.799999952,97,1,0,0,1,1,0
"410","stim/objects/Instruments/acousticguitar.png",380,79,373,0.5,"stim/32.jpeg",3,2,1,2,"Instruments",2,3,"right","left",0.392999887,0,0,1,0,NA,NA,NA,NA,NA,NA,NA,NA,NA,NA,NA,NA,NA,NA,NA,NA,NA,NA,NA,NA,NA,NA,NA,NA
"376","stim/objects/HouseObjects/glassmop.png",381,79,374,0.5,"stim/33.jpeg",3,3,1,1,"HouseObjects",1,1,"left","right",0.486000061,0,0,1,0,86,79,1,0.5,1,"stim/33.jpeg",3,3,"stim/33.jpeg",1,"right",0.714999914,3,1,1.49000001,2,0.743999958,86,0,0,NA,0,NA,0
"465","stim/objects/Instruments/flute.png",382,79,375,0.9,"stim/13.jpeg",1,3,3,2,"Instruments",2,4,"right","left",0.292000055,0,0,1,0,NA,NA,NA,NA,NA,NA,NA,NA,NA,NA,NA,NA,NA,NA,NA,NA,NA,NA,NA,NA,NA,NA,NA,NA
"349","stim/objects/HouseObjects/garbagebin.png",383,79,376,0.9,"stim/23.jpeg",2,3,3,2,"HouseObjects",1,3,"left","left",0.601000071,1,1,1,0,NA,NA,NA,NA,NA,NA,NA,NA,NA,NA,NA,NA,NA,NA,NA,NA,NA,NA,NA,NA,NA,NA,NA,NA
"278","stim/objects/HouseObjects/clothespin2.png",384,79,377,0.7,"stim/62.jpeg",6,2,2,1,"HouseObjects",1,4,"left","left",0.674999952,1,1,1,0,12,79,1,0.7,1,"stim/62.jpeg",6,2,"stim/62.jpeg",4,"left",1.171000004,4,2,4.559000015,2,1.104000092,12,1,1,1,0,0,0
"336","stim/objects/HouseObjects/flyswatter.png",385,79,378,0.9,"stim/24.jpeg",2,4,3,2,"HouseObjects",1,4,"left","right",0.381999969,0,0,1,0,NA,NA,NA,NA,NA,NA,NA,NA,NA,NA,NA,NA,NA,NA,NA,NA,NA,NA,NA,NA,NA,NA,NA,NA
"281","stim/objects/HouseObjects/coffee.png",386,79,379,0.7,"stim/61.jpeg",6,1,2,2,"HouseObjects",1,1,"left","right",0.578000069,0,0,1,0,NA,NA,NA,NA,NA,NA,NA,NA,NA,NA,NA,NA,NA,NA,NA,NA,NA,NA,NA,NA,NA,NA,NA,NA
"544","stim/objects/Instruments/harmonica2.png",387,79,380,0.9,"stim/11.jpeg",1,1,3,1,"Instruments",2,3,"right","right",0.474999905,1,1,1,0,49,79,1,0.9,2,"stim/11.jpeg",1,1,"stim/11.jpeg",3,"left",1.069999933,4,2,0.89199996,3,0.809999943,49,1,0,0,1,1,0
"407","stim/objects/Instruments/accordion.png",388,79,381,0.5,"stim/34.jpeg",3,4,1,2,"Instruments",2,1,"right","left",0.327000141,0,0,1,0,NA,NA,NA,NA,NA,NA,NA,NA,NA,NA,NA,NA,NA,NA,NA,NA,NA,NA,NA,NA,NA,NA,NA,NA
"400","stim/objects/HouseObjects/recyclingbin.png",389,79,382,0.3,"stim/53.jpeg",5,3,2,1,"HouseObjects",1,1,"left","left",0.366000175,1,1,1,0,163,79,1,0.3,1,"stim/53.jpeg",5,3,"stim/53.jpeg",1,"right",0.835999966,3,4,0.703999996,2,0.977999926,163,0,0,NA,0,NA,0
"445","stim/objects/Instruments/drums.png",390,79,383,0.7,"stim/52.jpeg",5,2,2,2,"Instruments",2,1,"right","right",0.517999887,1,1,1,0,NA,NA,NA,NA,NA,NA,NA,NA,NA,NA,NA,NA,NA,NA,NA,NA,NA,NA,NA,NA,NA,NA,NA,NA
"276","stim/objects/HouseObjects/clothespin.png",391,79,384,0.7,"stim/62.jpeg",6,2,2,2,"HouseObjects",1,2,"left","left",0.512000084,1,1,1,0,NA,NA,NA,NA,NA,NA,NA,NA,NA,NA,NA,NA,NA,NA,NA,NA,NA,NA,NA,NA,NA,NA,NA,NA
"554","stim/objects/Instruments/maraca2.png",392,79,385,0.1,"stim/24.jpeg",2,4,3,1,"Instruments",2,4,"right","right",0.404999971,1,1,1,0,54,79,1,0.1,2,"stim/24.jpeg",2,4,"stim/24.jpeg",4,"left",0.934000015,3,2,0.829999924,4,0.703999996,54,1,0,0,1,1,0
"385","stim/objects/HouseObjects/iron2.png",393,79,386,0.1,"stim/12.jpeg",1,2,3,1,"HouseObjects",1,4,"left","left",0.535000086,1,1,1,0,89,79,1,0.1,1,"stim/12.jpeg",1,2,"stim/12.jpeg",4,"left",22.523,4,3,0.75,2,0.527000189,89,1,0,0,0,0,0
"404","stim/objects/HouseObjects/rubbergloves.png",394,79,387,0.3,"stim/51.jpeg",5,1,2,1,"HouseObjects",1,1,"left","left",0.698999882,1,1,1,0,72,79,1,0.3,1,"stim/51.jpeg",5,1,"stim/51.jpeg",1,"right",0.700999975,3,4,0.710000038,2,0.468000174,72,0,0,NA,0,NA,0
"466","stim/objects/Instruments/flute.png",395,79,388,0.9,"stim/12.jpeg",1,2,3,2,"Instruments",2,2,"right","right",0.371999979,1,1,1,0,NA,NA,NA,NA,NA,NA,NA,NA,NA,NA,NA,NA,NA,NA,NA,NA,NA,NA,NA,NA,NA,NA,NA,NA
"352","stim/objects/HouseObjects/garbagebin.png",396,79,389,0.9,"stim/22.jpeg",2,2,3,2,"HouseObjects",1,1,"left","left",0.605000019,1,1,1,0,NA,NA,NA,NA,NA,NA,NA,NA,NA,NA,NA,NA,NA,NA,NA,NA,NA,NA,NA,NA,NA,NA,NA,NA
"318","stim/objects/HouseObjects/dustpan.png",397,79,390,0.9,"stim/22.jpeg",2,2,3,2,"HouseObjects",1,3,"left","right",0.282999992,0,0,1,0,NA,NA,NA,NA,NA,NA,NA,NA,NA,NA,NA,NA,NA,NA,NA,NA,NA,NA,NA,NA,NA,NA,NA,NA
"313","stim/objects/HouseObjects/dustpan.png",398,79,391,0.9,"stim/21.jpeg",2,1,3,2,"HouseObjects",1,2,"left","left",0.657999992,1,1,1,0,NA,NA,NA,NA,NA,NA,NA,NA,NA,NA,NA,NA,NA,NA,NA,NA,NA,NA,NA,NA,NA,NA,NA,NA
"302","stim/objects/HouseObjects/doormat.png",399,79,392,0.9,"stim/24.jpeg",2,4,3,2,"HouseObjects",1,4,"left","right",0.623000145,0,0,1,0,NA,NA,NA,NA,NA,NA,NA,NA,NA,NA,NA,NA,NA,NA,NA,NA,NA,NA,NA,NA,NA,NA,NA,NA
"254","stim/objects/HouseObjects/bleachbottle.png",400,79,393,0.5,"stim/32.jpeg",3,2,1,2,"HouseObjects",1,3,"left","right",0.524000168,0,0,1,0,NA,NA,NA,NA,NA,NA,NA,NA,NA,NA,NA,NA,NA,NA,NA,NA,NA,NA,NA,NA,NA,NA,NA,NA
"261","stim/objects/HouseObjects/bottle2.png",401,79,394,0.7,"stim/61.jpeg",6,1,2,1,"HouseObjects",1,4,"left","left",0.465000153,1,1,1,0,175,79,1,0.7,1,"stim/61.jpeg",6,1,"stim/61.jpeg",4,"right",0.502000093,4,4,0.927000046,1,1.007999897,175,0,0,NA,0,NA,0
"432","stim/objects/Instruments/clarinet2.png",402,79,395,0.3,"stim/61.jpeg",6,1,2,1,"Instruments",2,3,"right","left",0.289000034,0,0,1,0,5,79,1,0.3,2,"stim/61.jpeg",6,1,"stim/61.jpeg",3,"right",1.114000082,3,2,2.865999937,3,1.74000001,5,0,0,NA,1,NA,0
"398","stim/objects/HouseObjects/pitcher.png",403,79,396,0.3,"stim/52.jpeg",5,2,2,1,"HouseObjects",1,2,"left","right",0.702000141,0,0,1,0,117,79,1,0.3,1,"stim/52.jpeg",5,2,"stim/52.jpeg",2,"right",0.872999907,3,4,1.223999977,3,1.815999985,117,0,0,NA,0,NA,0
"502","stim/objects/Instruments/frenchhorn.png",404,79,397,0.9,"stim/12.jpeg",1,2,3,2,"Instruments",2,3,"right","right",0.328999996,1,1,1,0,NA,NA,NA,NA,NA,NA,NA,NA,NA,NA,NA,NA,NA,NA,NA,NA,NA,NA,NA,NA,NA,NA,NA,NA
"299","stim/objects/HouseObjects/doormat.png",405,79,398,0.9,"stim/22.jpeg",2,2,3,2,"HouseObjects",1,2,"left","left",0.420000076,1,1,1,0,NA,NA,NA,NA,NA,NA,NA,NA,NA,NA,NA,NA,NA,NA,NA,NA,NA,NA,NA,NA,NA,NA,NA,NA
"303","stim/objects/HouseObjects/doormat.png",406,79,399,0.9,"stim/23.jpeg",2,3,3,2,"HouseObjects",1,2,"left","right",0.345000029,0,0,1,0,NA,NA,NA,NA,NA,NA,NA,NA,NA,NA,NA,NA,NA,NA,NA,NA,NA,NA,NA,NA,NA,NA,NA,NA
"368","stim/objects/HouseObjects/glass.png",407,79,400,0.9,"stim/21.jpeg",2,1,3,2,"HouseObjects",1,4,"left","left",0.657000065,1,1,1,0,NA,NA,NA,NA,NA,NA,NA,NA,NA,NA,NA,NA,NA,NA,NA,NA,NA,NA,NA,NA,NA,NA,NA,NA
"492","stim/objects/Instruments/frenchhorn.png",408,79,401,0.9,"stim/14.jpeg",1,4,3,2,"Instruments",2,1,"right","right",0.460000038,1,1,1,0,NA,NA,NA,NA,NA,NA,NA,NA,NA,NA,NA,NA,NA,NA,NA,NA,NA,NA,NA,NA,NA,NA,NA,NA
"353","stim/objects/HouseObjects/garbagebin.png",409,79,402,0.9,"stim/24.jpeg",2,4,3,2,"HouseObjects",1,1,"left","left",0.342999935,1,1,1,0,NA,NA,NA,NA,NA,NA,NA,NA,NA,NA,NA,NA,NA,NA,NA,NA,NA,NA,NA,NA,NA,NA,NA,NA
"396","stim/objects/HouseObjects/pan.png",410,79,403,0.3,"stim/51.jpeg",5,1,2,1,"HouseObjects",1,4,"left","right",0.355000019,0,0,1,0,70,79,1,0.3,1,"stim/51.jpeg",5,1,"stim/51.jpeg",4,"right",0.746999979,4,4,1.270999908,3,0.626999855,70,0,0,NA,0,NA,0
"245","stim/objects/HouseObjects/ballofstring.png",411,79,404,0.5,"stim/32.jpeg",3,2,1,2,"HouseObjects",1,3,"left","right",0.578999996,0,0,1,0,NA,NA,NA,NA,NA,NA,NA,NA,NA,NA,NA,NA,NA,NA,NA,NA,NA,NA,NA,NA,NA,NA,NA,NA
"493","stim/objects/Instruments/frenchhorn.png",412,79,405,0.9,"stim/14.jpeg",1,4,3,2,"Instruments",2,1,"right","right",0.39199996,1,1,1,0,NA,NA,NA,NA,NA,NA,NA,NA,NA,NA,NA,NA,NA,NA,NA,NA,NA,NA,NA,NA,NA,NA,NA,NA
"395","stim/objects/HouseObjects/match2.png",413,79,406,0.9,"stim/21.jpeg",2,1,3,1,"HouseObjects",1,2,"left","left",0.647000074,1,1,1,0,60,79,1,0.9,1,"stim/21.jpeg",2,1,"stim/21.jpeg",2,"right",1.568000078,2,3,0.761999846,1,0.962000132,60,0,0,NA,0,NA,0
"564","stim/objects/Instruments/oboe2.png",414,79,407,0.1,"stim/21.jpeg",2,1,3,1,"Instruments",2,4,"right","left",0.569000006,0,0,1,0,28,79,1,0.1,2,"stim/21.jpeg",2,1,"stim/21.jpeg",4,"left",1.055000067,3,2,2.124000072,3,14.97400022,28,1,0,0,0,0,0
"362","stim/objects/HouseObjects/glass.png",415,79,408,0.9,"stim/23.jpeg",2,3,3,2,"HouseObjects",1,1,"left","left",0.607000113,1,1,1,0,NA,NA,NA,NA,NA,NA,NA,NA,NA,NA,NA,NA,NA,NA,NA,NA,NA,NA,NA,NA,NA,NA,NA,NA
"503","stim/objects/Instruments/frenchhorn.png",416,79,409,0.9,"stim/11.jpeg",1,1,3,2,"Instruments",2,4,"right","right",0.38499999,1,1,1,0,NA,NA,NA,NA,NA,NA,NA,NA,NA,NA,NA,NA,NA,NA,NA,NA,NA,NA,NA,NA,NA,NA,NA,NA
"424","stim/objects/Instruments/cello.png",417,79,410,0.5,"stim/44.jpeg",4,4,1,2,"Instruments",2,4,"right","left",0.305999994,0,0,1,0,NA,NA,NA,NA,NA,NA,NA,NA,NA,NA,NA,NA,NA,NA,NA,NA,NA,NA,NA,NA,NA,NA,NA,NA
"284","stim/objects/HouseObjects/cushion.png",418,79,411,0.7,"stim/64.jpeg",6,4,2,2,"HouseObjects",1,3,"left","left",0.506999969,1,1,1,0,NA,NA,NA,NA,NA,NA,NA,NA,NA,NA,NA,NA,NA,NA,NA,NA,NA,NA,NA,NA,NA,NA,NA,NA
"533","stim/objects/Instruments/grandpiano.png",419,79,412,0.9,"stim/11.jpeg",1,1,3,2,"Instruments",2,3,"right","right",0.273999929,1,1,1,0,NA,NA,NA,NA,NA,NA,NA,NA,NA,NA,NA,NA,NA,NA,NA,NA,NA,NA,NA,NA,NA,NA,NA,NA
"479","stim/objects/Instruments/flutetrans.png",420,79,413,0.9,"stim/13.jpeg",1,3,3,2,"Instruments",2,2,"right","right",0.376000166,1,1,1,0,NA,NA,NA,NA,NA,NA,NA,NA,NA,NA,NA,NA,NA,NA,NA,NA,NA,NA,NA,NA,NA,NA,NA,NA
"555","stim/objects/Instruments/marimba.png",421,79,414,0.5,"stim/42.jpeg",4,2,1,1,"Instruments",2,4,"right","right",0.286999941,1,1,1,0,141,79,1,0.5,2,"stim/42.jpeg",4,2,"stim/42.jpeg",4,"left",0.805999994,4,3,2.235999823,3,3.262000084,141,1,0,0,0,0,0
"459","stim/objects/Instruments/flute.png",422,79,415,0.9,"stim/12.jpeg",1,2,3,2,"Instruments",2,4,"right","left",0.28399992,0,0,1,0,NA,NA,NA,NA,NA,NA,NA,NA,NA,NA,NA,NA,NA,NA,NA,NA,NA,NA,NA,NA,NA,NA,NA,NA
"434","stim/objects/Instruments/cornet.png",423,79,416,0.5,"stim/42.jpeg",4,2,1,2,"Instruments",2,3,"right","left",0.378999949,0,0,1,0,NA,NA,NA,NA,NA,NA,NA,NA,NA,NA,NA,NA,NA,NA,NA,NA,NA,NA,NA,NA,NA,NA,NA,NA
"525","stim/objects/Instruments/grandpiano.png",424,79,417,0.9,"stim/14.jpeg",1,4,3,2,"Instruments",2,2,"right","left",0.559000015,0,0,1,0,NA,NA,NA,NA,NA,NA,NA,NA,NA,NA,NA,NA,NA,NA,NA,NA,NA,NA,NA,NA,NA,NA,NA,NA
"277","stim/objects/HouseObjects/clothespin.png",425,79,418,0.7,"stim/64.jpeg",6,4,2,2,"HouseObjects",1,3,"left","right",0.301999807,0,0,1,0,NA,NA,NA,NA,NA,NA,NA,NA,NA,NA,NA,NA,NA,NA,NA,NA,NA,NA,NA,NA,NA,NA,NA,NA
"518","stim/objects/Instruments/gong.png",426,79,419,0.9,"stim/13.jpeg",1,3,3,2,"Instruments",2,3,"right","right",0.246999979,1,1,1,0,NA,NA,NA,NA,NA,NA,NA,NA,NA,NA,NA,NA,NA,NA,NA,NA,NA,NA,NA,NA,NA,NA,NA,NA
"415","stim/objects/Instruments/banjo.png",427,79,420,0.5,"stim/33.jpeg",3,3,1,2,"Instruments",2,2,"right","left",0.493000031,0,0,1,0,NA,NA,NA,NA,NA,NA,NA,NA,NA,NA,NA,NA,NA,NA,NA,NA,NA,NA,NA,NA,NA,NA,NA,NA
"449","stim/objects/Instruments/electricdrumset.png",428,79,421,0.7,"stim/54.jpeg",5,4,2,2,"Instruments",2,1,"right","right",0.485999823,1,1,1,0,NA,NA,NA,NA,NA,NA,NA,NA,NA,NA,NA,NA,NA,NA,NA,NA,NA,NA,NA,NA,NA,NA,NA,NA
"523","stim/objects/Instruments/gong2.png",429,79,422,0.9,"stim/12.jpeg",1,2,3,1,"Instruments",2,2,"right","right",0.141000032,1,1,1,0,75,79,1,0.9,2,"stim/12.jpeg",1,2,"stim/12.jpeg",2,"right",0.753999949,2,1,1.25,4,1.820999861,75,0,0,NA,0,NA,0
"446","stim/objects/Instruments/drums.png",430,79,423,0.7,"stim/51.jpeg",5,1,2,2,"Instruments",2,2,"right","right",0.292000055,1,1,1,0,NA,NA,NA,NA,NA,NA,NA,NA,NA,NA,NA,NA,NA,NA,NA,NA,NA,NA,NA,NA,NA,NA,NA,NA
"371","stim/objects/HouseObjects/glass.png",431,79,424,0.9,"stim/21.jpeg",2,1,3,2,"HouseObjects",1,1,"left","left",0.722000122,1,1,1,0,NA,NA,NA,NA,NA,NA,NA,NA,NA,NA,NA,NA,NA,NA,NA,NA,NA,NA,NA,NA,NA,NA,NA,NA
"420","stim/objects/Instruments/bassdrum2.png",432,79,425,0.7,"stim/53.jpeg",5,3,2,1,"Instruments",2,2,"right","right",0.299999952,1,1,1,0,51,79,1,0.7,2,"stim/53.jpeg",5,3,"stim/53.jpeg",2,"left",1.452000141,3,4,1.003000021,3,1.57400012,51,1,0,0,0,0,0
"380","stim/objects/HouseObjects/handbrush.png",433,79,426,0.5,"stim/31.jpeg",3,1,1,1,"HouseObjects",1,4,"left","right",0.315999985,0,0,1,0,25,79,1,0.5,1,"stim/31.jpeg",3,1,"stim/31.jpeg",4,"right",1.121999979,2,3,0.813000202,1,0.664999962,25,0,0,NA,0,NA,0
"512","stim/objects/Instruments/gong.png",434,79,427,0.9,"stim/11.jpeg",1,1,3,2,"Instruments",2,4,"right","left",0.295999765,0,0,1,0,NA,NA,NA,NA,NA,NA,NA,NA,NA,NA,NA,NA,NA,NA,NA,NA,NA,NA,NA,NA,NA,NA,NA,NA
"354","stim/objects/HouseObjects/garbagebin.png",435,79,428,0.9,"stim/23.jpeg",2,3,3,2,"HouseObjects",1,2,"left","right",0.502000093,0,0,1,0,NA,NA,NA,NA,NA,NA,NA,NA,NA,NA,NA,NA,NA,NA,NA,NA,NA,NA,NA,NA,NA,NA,NA,NA
"305","stim/objects/HouseObjects/doormat.png",436,79,429,0.9,"stim/24.jpeg",2,4,3,2,"HouseObjects",1,3,"left","right",0.273999929,0,0,1,0,NA,NA,NA,NA,NA,NA,NA,NA,NA,NA,NA,NA,NA,NA,NA,NA,NA,NA,NA,NA,NA,NA,NA,NA
"527","stim/objects/Instruments/grandpiano.png",437,79,430,0.9,"stim/12.jpeg",1,2,3,2,"Instruments",2,2,"right","left",0.519000053,0,0,1,0,NA,NA,NA,NA,NA,NA,NA,NA,NA,NA,NA,NA,NA,NA,NA,NA,NA,NA,NA,NA,NA,NA,NA,NA
"335","stim/objects/HouseObjects/flyswatter.png",438,79,431,0.9,"stim/22.jpeg",2,2,3,2,"HouseObjects",1,3,"left","right",0.520999908,0,0,1,0,NA,NA,NA,NA,NA,NA,NA,NA,NA,NA,NA,NA,NA,NA,NA,NA,NA,NA,NA,NA,NA,NA,NA,NA
"382","stim/objects/HouseObjects/handvacuum.png",439,79,432,0.5,"stim/32.jpeg",3,2,1,1,"HouseObjects",1,2,"left","right",0.246000051,0,0,1,0,62,79,1,0.5,1,"stim/32.jpeg",3,2,"stim/32.jpeg",2,"right",0.815000057,3,4,2.494999886,3,0.753999949,62,0,0,NA,0,NA,0
"426","stim/objects/Instruments/cello2.png",440,79,433,0.3,"stim/63.jpeg",6,3,2,1,"Instruments",2,4,"right","right",0.199999809,1,1,1,0,34,79,1,0.3,2,"stim/63.jpeg",6,3,"stim/63.jpeg",4,"left",0.806999922,4,3,3.052999973,3,2.312000036,34,1,1,1,0,0,0
"314","stim/objects/HouseObjects/dustpan.png",441,79,434,0.9,"stim/22.jpeg",2,2,3,2,"HouseObjects",1,1,"left","left",0.243000031,1,1,1,0,NA,NA,NA,NA,NA,NA,NA,NA,NA,NA,NA,NA,NA,NA,NA,NA,NA,NA,NA,NA,NA,NA,NA,NA
"344","stim/objects/HouseObjects/garbagebin.png",442,79,435,0.9,"stim/23.jpeg",2,3,3,2,"HouseObjects",1,3,"left","right",0.278000116,0,0,1,0,NA,NA,NA,NA,NA,NA,NA,NA,NA,NA,NA,NA,NA,NA,NA,NA,NA,NA,NA,NA,NA,NA,NA,NA
"501","stim/objects/Instruments/frenchhorn.png",443,79,436,0.9,"stim/11.jpeg",1,1,3,2,"Instruments",2,3,"right","right",0.330000162,1,1,1,0,NA,NA,NA,NA,NA,NA,NA,NA,NA,NA,NA,NA,NA,NA,NA,NA,NA,NA,NA,NA,NA,NA,NA,NA
"320","stim/objects/HouseObjects/dustpan.png",444,79,437,0.9,"stim/23.jpeg",2,3,3,2,"HouseObjects",1,4,"left","left",0.47300005,1,1,1,0,NA,NA,NA,NA,NA,NA,NA,NA,NA,NA,NA,NA,NA,NA,NA,NA,NA,NA,NA,NA,NA,NA,NA,NA
"453","stim/objects/Instruments/electricguitar.png",445,79,438,0.7,"stim/51.jpeg",5,1,2,2,"Instruments",2,1,"right","left",0.302999973,0,0,1,0,NA,NA,NA,NA,NA,NA,NA,NA,NA,NA,NA,NA,NA,NA,NA,NA,NA,NA,NA,NA,NA,NA,NA,NA
"389","stim/objects/HouseObjects/key2.png",446,79,439,0.9,"stim/22.jpeg",2,2,3,1,"HouseObjects",1,3,"left","right",0.272000074,0,0,1,0,1,79,1,0.9,1,"stim/22.jpeg",2,2,"stim/22.jpeg",3,"right",1.498999834,4,4,5.222000122,2,1.596999884,1,0,0,NA,0,NA,0
"428","stim/objects/Instruments/chime.png",447,79,440,0.5,"stim/41.jpeg",4,1,1,2,"Instruments",2,2,"right","right",0.247999907,1,1,1,0,NA,NA,NA,NA,NA,NA,NA,NA,NA,NA,NA,NA,NA,NA,NA,NA,NA,NA,NA,NA,NA,NA,NA,NA
"373","stim/objects/HouseObjects/glass.png",448,79,441,0.9,"stim/24.jpeg",2,4,3,2,"HouseObjects",1,1,"left","left",0.17599988,1,1,1,0,NA,NA,NA,NA,NA,NA,NA,NA,NA,NA,NA,NA,NA,NA,NA,NA,NA,NA,NA,NA,NA,NA,NA,NA
"266","stim/objects/HouseObjects/bucket.png",449,79,442,0.5,"stim/43.jpeg",4,3,1,2,"HouseObjects",1,3,"left","right",0.016000032,0,0,1,0,NA,NA,NA,NA,NA,NA,NA,NA,NA,NA,NA,NA,NA,NA,NA,NA,NA,NA,NA,NA,NA,NA,NA,NA
"534","stim/objects/Instruments/grandpiano.png",450,79,443,0.9,"stim/13.jpeg",1,3,3,2,"Instruments",2,4,"right","left",0.18900013,0,0,1,0,NA,NA,NA,NA,NA,NA,NA,NA,NA,NA,NA,NA,NA,NA,NA,NA,NA,NA,NA,NA,NA,NA,NA,NA
"570","stim/objects/Instruments/record2.png",451,79,444,0.1,"stim/24.jpeg",2,4,3,1,"Instruments",2,3,"right","left",0.263000011,0,0,1,0,43,79,1,0.1,2,"stim/24.jpeg",2,4,"stim/24.jpeg",3,"left",1.370000124,4,1,1.295000076,2,0.983999968,43,1,0,0,0,0,0
"340","stim/objects/HouseObjects/flyswatter.png",452,79,445,0.9,"stim/21.jpeg",2,1,3,2,"HouseObjects",1,1,"left","left",0.117000103,1,1,1,0,NA,NA,NA,NA,NA,NA,NA,NA,NA,NA,NA,NA,NA,NA,NA,NA,NA,NA,NA,NA,NA,NA,NA,NA
"509","stim/objects/Instruments/gong.png",453,79,446,0.9,"stim/13.jpeg",1,3,3,2,"Instruments",2,4,"right","right",0.219000101,1,1,1,0,NA,NA,NA,NA,NA,NA,NA,NA,NA,NA,NA,NA,NA,NA,NA,NA,NA,NA,NA,NA,NA,NA,NA,NA
"435","stim/objects/Instruments/cornet2.png",454,79,447,0.3,"stim/62.jpeg",6,2,2,1,"Instruments",2,2,"right","right",0.245999813,1,1,1,0,129,79,1,0.3,2,"stim/62.jpeg",6,2,"stim/62.jpeg",2,"right",1.024999857,3,2,1.021000147,4,1.970000029,129,0,1,NA,0,NA,0
"437","stim/objects/Instruments/cymbal.png",455,79,448,0.7,"stim/54.jpeg",5,4,2,2,"Instruments",2,3,"right","left",0.468000174,0,0,1,0,NA,NA,NA,NA,NA,NA,NA,NA,NA,NA,NA,NA,NA,NA,NA,NA,NA,NA,NA,NA,NA,NA,NA,NA
"559","stim/objects/Instruments/musicsheet.png",456,79,449,0.5,"stim/44.jpeg",4,4,1,1,"Instruments",2,2,"right","left",0.364000082,0,0,1,0,186,79,1,0.5,2,"stim/44.jpeg",4,4,"stim/44.jpeg",2,"right",0.769999981,3,3,1.605000019,1,0.86500001,186,0,0,NA,0,NA,0
"268","stim/objects/HouseObjects/clock.png",457,79,450,0.5,"stim/44.jpeg",4,4,1,2,"HouseObjects",1,1,"left","right",0.366999865,0,0,1,0,NA,NA,NA,NA,NA,NA,NA,NA,NA,NA,NA,NA,NA,NA,NA,NA,NA,NA,NA,NA,NA,NA,NA,NA
"338","stim/objects/HouseObjects/flyswatter.png",458,79,451,0.9,"stim/23.jpeg",2,3,3,2,"HouseObjects",1,3,"left","right",0.687999964,0,0,1,0,NA,NA,NA,NA,NA,NA,NA,NA,NA,NA,NA,NA,NA,NA,NA,NA,NA,NA,NA,NA,NA,NA,NA,NA
"316","stim/objects/HouseObjects/dustpan.png",459,79,452,0.9,"stim/22.jpeg",2,2,3,2,"HouseObjects",1,1,"left","left",0.600999832,1,1,1,0,NA,NA,NA,NA,NA,NA,NA,NA,NA,NA,NA,NA,NA,NA,NA,NA,NA,NA,NA,NA,NA,NA,NA,NA
"317","stim/objects/HouseObjects/dustpan.png",460,79,453,0.9,"stim/23.jpeg",2,3,3,2,"HouseObjects",1,4,"left","right",0.369999886,0,0,1,0,NA,NA,NA,NA,NA,NA,NA,NA,NA,NA,NA,NA,NA,NA,NA,NA,NA,NA,NA,NA,NA,NA,NA,NA
"497","stim/objects/Instruments/frenchhorn.png",461,79,454,0.9,"stim/13.jpeg",1,3,3,2,"Instruments",2,1,"right","right",0.246000051,1,1,1,0,NA,NA,NA,NA,NA,NA,NA,NA,NA,NA,NA,NA,NA,NA,NA,NA,NA,NA,NA,NA,NA,NA,NA,NA
"519","stim/objects/Instruments/gong.png",462,79,455,0.9,"stim/11.jpeg",1,1,3,2,"Instruments",2,3,"right","left",0.219000101,0,0,1,0,NA,NA,NA,NA,NA,NA,NA,NA,NA,NA,NA,NA,NA,NA,NA,NA,NA,NA,NA,NA,NA,NA,NA,NA
"438","stim/objects/Instruments/cymbal.png",463,79,456,0.7,"stim/53.jpeg",5,3,2,2,"Instruments",2,4,"right","right",0.25,1,1,1,0,NA,NA,NA,NA,NA,NA,NA,NA,NA,NA,NA,NA,NA,NA,NA,NA,NA,NA,NA,NA,NA,NA,NA,NA
"269","stim/objects/HouseObjects/clock.png",464,79,457,0.5,"stim/43.jpeg",4,3,1,2,"HouseObjects",1,1,"left","left",0.371999979,1,1,1,0,NA,NA,NA,NA,NA,NA,NA,NA,NA,NA,NA,NA,NA,NA,NA,NA,NA,NA,NA,NA,NA,NA,NA,NA
"521","stim/objects/Instruments/gong.png",465,79,458,0.9,"stim/13.jpeg",1,3,3,2,"Instruments",2,2,"right","right",0.291999817,1,1,1,0,NA,NA,NA,NA,NA,NA,NA,NA,NA,NA,NA,NA,NA,NA,NA,NA,NA,NA,NA,NA,NA,NA,NA,NA
"454","stim/objects/Instruments/electricguitar.png",466,79,459,0.7,"stim/53.jpeg",5,3,2,2,"Instruments",2,4,"right","right",0.249000072,1,1,1,0,NA,NA,NA,NA,NA,NA,NA,NA,NA,NA,NA,NA,NA,NA,NA,NA,NA,NA,NA,NA,NA,NA,NA,NA
"272","stim/objects/HouseObjects/clothesdryingrack.png",467,79,460,0.7,"stim/62.jpeg",6,2,2,2,"HouseObjects",1,4,"left","right",0.299999952,0,0,1,0,NA,NA,NA,NA,NA,NA,NA,NA,NA,NA,NA,NA,NA,NA,NA,NA,NA,NA,NA,NA,NA,NA,NA,NA
"409","stim/objects/Instruments/acousticguitar.png",468,79,461,0.5,"stim/31.jpeg",3,1,1,2,"Instruments",2,4,"right","right",0.286000013,1,1,1,0,NA,NA,NA,NA,NA,NA,NA,NA,NA,NA,NA,NA,NA,NA,NA,NA,NA,NA,NA,NA,NA,NA,NA,NA
