"","obj_file","X.x","participant.x","trialN.x","trial_cond","scn_file.x","scn_cat","scn_inst","scn_condition","fillers","obj_cat","obj_cat_num","quadrant","corr_ans","key_resp_trial.keys","key_resp_trial.rt","trial_acc","trial_acc_manual","group.x","practice","X.y","participant.y","OvsN","PE_level","object_cat","scn_file.y","corr_scn_cat","corr_scn_inst","scn_file.1","corr_loc","key_resp_id.keys","key_resp_id.rt","key_resp_conf.keys","key_resp_assoc.keys","key_resp_assoc.rt","key_resp_loc.keys","key_resp_loc.rt","trialN.y","id_acc","assoc.acc","cond_assoc","loc.acc","cond_loc","group.y"
"25","stim/objects/HouseObjects/key.png",1,42,1,0.5,"stim/53.jpeg",5,3,1,NA,"HouseObjects",1,3,"left","",NA,0,0,0,1,NA,NA,NA,NA,NA,NA,NA,NA,NA,NA,NA,NA,NA,NA,NA,NA,NA,NA,NA,NA,NA,NA,NA,NA
"85","stim/objects/HouseObjects/remote.png",2,42,2,0.3,"stim/12.jpeg",1,2,2,NA,"HouseObjects",1,2,"left","left",0.306999922,1,1,0,1,NA,NA,NA,NA,NA,NA,NA,NA,NA,NA,NA,NA,NA,NA,NA,NA,NA,NA,NA,NA,NA,NA,NA,NA
"195","stim/objects/Instruments/oboe.png",3,42,3,0.5,"stim/64.jpeg",6,4,1,NA,"Instruments",2,3,"right","right",0.184999943,1,1,0,1,NA,NA,NA,NA,NA,NA,NA,NA,NA,NA,NA,NA,NA,NA,NA,NA,NA,NA,NA,NA,NA,NA,NA,NA
"121","stim/objects/Instruments/keyboard.png",4,42,4,0.5,"stim/51.jpeg",5,1,1,NA,"Instruments",2,1,"right","right",0.14199996,1,1,0,1,NA,NA,NA,NA,NA,NA,NA,NA,NA,NA,NA,NA,NA,NA,NA,NA,NA,NA,NA,NA,NA,NA,NA,NA
"145","stim/objects/Instruments/marimba.png",5,42,5,0.5,"stim/54.jpeg",5,4,1,NA,"Instruments",2,2,"right","left",0.157999992,0,0,0,1,NA,NA,NA,NA,NA,NA,NA,NA,NA,NA,NA,NA,NA,NA,NA,NA,NA,NA,NA,NA,NA,NA,NA,NA
"30","stim/objects/HouseObjects/key2.png",6,42,6,0.7,"stim/23.jpeg",2,3,2,NA,"HouseObjects",1,4,"left","left",0.085999966,1,1,0,1,NA,NA,NA,NA,NA,NA,NA,NA,NA,NA,NA,NA,NA,NA,NA,NA,NA,NA,NA,NA,NA,NA,NA,NA
"86","stim/objects/HouseObjects/remote.png",7,42,7,0.3,"stim/12.jpeg",1,2,2,NA,"HouseObjects",1,1,"left","right",0.287999868,0,0,0,1,NA,NA,NA,NA,NA,NA,NA,NA,NA,NA,NA,NA,NA,NA,NA,NA,NA,NA,NA,NA,NA,NA,NA,NA
"55","stim/objects/HouseObjects/match.png",8,42,8,0.5,"stim/62.jpeg",6,2,1,NA,"HouseObjects",1,1,"left","right",0.410000086,0,0,0,1,NA,NA,NA,NA,NA,NA,NA,NA,NA,NA,NA,NA,NA,NA,NA,NA,NA,NA,NA,NA,NA,NA,NA,NA
"186","stim/objects/Instruments/musicstand2.png",9,42,9,0.9,"stim/33.jpeg",3,3,3,NA,"Instruments",2,2,"right","left",0.013000011,0,0,0,1,NA,NA,NA,NA,NA,NA,NA,NA,NA,NA,NA,NA,NA,NA,NA,NA,NA,NA,NA,NA,NA,NA,NA,NA
"134","stim/objects/Instruments/laud2.png",10,42,10,0.3,"stim/22.jpeg",2,2,2,NA,"Instruments",2,4,"right","right",0.674999952,1,1,0,1,NA,NA,NA,NA,NA,NA,NA,NA,NA,NA,NA,NA,NA,NA,NA,NA,NA,NA,NA,NA,NA,NA,NA,NA
"26","stim/objects/HouseObjects/key.png",11,42,11,0.5,"stim/53.jpeg",5,3,1,NA,"HouseObjects",1,1,"left","left",0.659000158,1,1,0,1,NA,NA,NA,NA,NA,NA,NA,NA,NA,NA,NA,NA,NA,NA,NA,NA,NA,NA,NA,NA,NA,NA,NA,NA
"112","stim/objects/HouseObjects/rug2.png",12,42,12,0.9,"stim/44.jpeg",4,4,3,NA,"HouseObjects",1,2,"left","right",0.480999947,0,0,0,1,NA,NA,NA,NA,NA,NA,NA,NA,NA,NA,NA,NA,NA,NA,NA,NA,NA,NA,NA,NA,NA,NA,NA,NA
"142","stim/objects/Instruments/maraca2.png",13,42,13,0.3,"stim/23.jpeg",2,3,2,NA,"Instruments",2,1,"right","left",0.436000109,0,0,0,1,NA,NA,NA,NA,NA,NA,NA,NA,NA,NA,NA,NA,NA,NA,NA,NA,NA,NA,NA,NA,NA,NA,NA,NA
"109","stim/objects/HouseObjects/rug.png",14,42,14,0.3,"stim/14.jpeg",1,4,2,NA,"HouseObjects",1,4,"left","right",0.481999874,0,0,0,1,NA,NA,NA,NA,NA,NA,NA,NA,NA,NA,NA,NA,NA,NA,NA,NA,NA,NA,NA,NA,NA,NA,NA,NA
"56","stim/objects/HouseObjects/match.png",15,42,15,0.5,"stim/62.jpeg",6,2,1,NA,"HouseObjects",1,1,"left","right",0.714999914,0,0,0,1,NA,NA,NA,NA,NA,NA,NA,NA,NA,NA,NA,NA,NA,NA,NA,NA,NA,NA,NA,NA,NA,NA,NA,NA
"113","stim/objects/HouseObjects/rug2.png",16,42,16,0.9,"stim/44.jpeg",4,4,3,NA,"HouseObjects",1,4,"left","left",0.484999895,1,1,0,1,NA,NA,NA,NA,NA,NA,NA,NA,NA,NA,NA,NA,NA,NA,NA,NA,NA,NA,NA,NA,NA,NA,NA,NA
"114","stim/objects/HouseObjects/rug2.png",17,42,17,0.9,"stim/44.jpeg",4,4,3,NA,"HouseObjects",1,2,"left","left",0.263000011,1,1,0,1,NA,NA,NA,NA,NA,NA,NA,NA,NA,NA,NA,NA,NA,NA,NA,NA,NA,NA,NA,NA,NA,NA,NA,NA
"88","stim/objects/HouseObjects/remote2.png",18,42,18,0.9,"stim/42.jpeg",4,2,3,NA,"HouseObjects",1,1,"left","right",0.246000051,0,0,0,1,NA,NA,NA,NA,NA,NA,NA,NA,NA,NA,NA,NA,NA,NA,NA,NA,NA,NA,NA,NA,NA,NA,NA,NA
"110","stim/objects/HouseObjects/rug.png",19,42,19,0.3,"stim/14.jpeg",1,4,2,NA,"HouseObjects",1,3,"left","left",0.161999941,1,1,0,1,NA,NA,NA,NA,NA,NA,NA,NA,NA,NA,NA,NA,NA,NA,NA,NA,NA,NA,NA,NA,NA,NA,NA,NA
"89","stim/objects/HouseObjects/remote2.png",20,42,20,0.9,"stim/42.jpeg",4,2,3,NA,"HouseObjects",1,2,"left","left",0.441999912,1,1,0,1,NA,NA,NA,NA,NA,NA,NA,NA,NA,NA,NA,NA,NA,NA,NA,NA,NA,NA,NA,NA,NA,NA,NA,NA
"90","stim/objects/HouseObjects/remote2.png",21,42,21,0.9,"stim/42.jpeg",4,2,3,NA,"HouseObjects",1,2,"left","left",0.322000027,1,1,0,1,NA,NA,NA,NA,NA,NA,NA,NA,NA,NA,NA,NA,NA,NA,NA,NA,NA,NA,NA,NA,NA,NA,NA,NA
"143","stim/objects/Instruments/maraca2.png",22,42,22,0.3,"stim/23.jpeg",2,3,2,NA,"Instruments",2,1,"right","left",0.381999969,0,0,0,1,NA,NA,NA,NA,NA,NA,NA,NA,NA,NA,NA,NA,NA,NA,NA,NA,NA,NA,NA,NA,NA,NA,NA,NA
"115","stim/objects/HouseObjects/rug2.png",23,42,23,0.9,"stim/44.jpeg",4,4,3,NA,"HouseObjects",1,4,"left","right",0.161999941,0,0,0,1,NA,NA,NA,NA,NA,NA,NA,NA,NA,NA,NA,NA,NA,NA,NA,NA,NA,NA,NA,NA,NA,NA,NA,NA
"200","stim/objects/Instruments/oboe2.png",24,42,24,0.9,"stim/34.jpeg",3,4,3,NA,"Instruments",2,2,"right","right",0.312000036,1,1,0,1,NA,NA,NA,NA,NA,NA,NA,NA,NA,NA,NA,NA,NA,NA,NA,NA,NA,NA,NA,NA,NA,NA,NA,NA
"167","stim/objects/Instruments/musicsheet.png",25,42,25,0.5,"stim/62.jpeg",6,2,1,NA,"Instruments",2,1,"right","left",0.311999798,0,0,0,1,NA,NA,NA,NA,NA,NA,NA,NA,NA,NA,NA,NA,NA,NA,NA,NA,NA,NA,NA,NA,NA,NA,NA,NA
"201","stim/objects/Instruments/oboe2.png",26,42,26,0.9,"stim/34.jpeg",3,4,3,NA,"Instruments",2,1,"right","right",0.204999924,1,1,0,1,NA,NA,NA,NA,NA,NA,NA,NA,NA,NA,NA,NA,NA,NA,NA,NA,NA,NA,NA,NA,NA,NA,NA,NA
"13","stim/objects/HouseObjects/ironingboard.png",27,42,27,0.5,"stim/52.jpeg",5,2,1,NA,"HouseObjects",1,1,"left","right",0.259000063,0,0,0,1,NA,NA,NA,NA,NA,NA,NA,NA,NA,NA,NA,NA,NA,NA,NA,NA,NA,NA,NA,NA,NA,NA,NA,NA
"187","stim/objects/Instruments/musicstand2.png",28,42,28,0.9,"stim/33.jpeg",3,3,3,NA,"Instruments",2,2,"right","left",0.331999779,0,0,0,1,NA,NA,NA,NA,NA,NA,NA,NA,NA,NA,NA,NA,NA,NA,NA,NA,NA,NA,NA,NA,NA,NA,NA,NA
"137","stim/objects/Instruments/maraca.png",29,42,29,0.5,"stim/53.jpeg",5,3,1,NA,"Instruments",2,2,"right","right",0.151000023,1,1,0,1,NA,NA,NA,NA,NA,NA,NA,NA,NA,NA,NA,NA,NA,NA,NA,NA,NA,NA,NA,NA,NA,NA,NA,NA
"209","stim/objects/Instruments/panflute.png",30,42,30,0.7,"stim/11.jpeg",1,1,2,NA,"Instruments",2,3,"right","right",0.092999935,1,1,0,1,NA,NA,NA,NA,NA,NA,NA,NA,NA,NA,NA,NA,NA,NA,NA,NA,NA,NA,NA,NA,NA,NA,NA,NA
"129","stim/objects/Instruments/laud.png",31,42,31,0.5,"stim/52.jpeg",5,2,1,NA,"Instruments",2,2,"right","left",0.46600008,0,0,0,1,NA,NA,NA,NA,NA,NA,NA,NA,NA,NA,NA,NA,NA,NA,NA,NA,NA,NA,NA,NA,NA,NA,NA,NA
"97","stim/objects/HouseObjects/rubbergloves.png",32,42,32,0.3,"stim/13.jpeg",1,3,2,NA,"HouseObjects",1,1,"left","right",0.306999922,0,0,0,1,NA,NA,NA,NA,NA,NA,NA,NA,NA,NA,NA,NA,NA,NA,NA,NA,NA,NA,NA,NA,NA,NA,NA,NA
"73","stim/objects/HouseObjects/recyclingbin.png",33,42,33,0.3,"stim/11.jpeg",1,1,2,NA,"HouseObjects",1,2,"left","right",0.100999832,0,0,0,1,NA,NA,NA,NA,NA,NA,NA,NA,NA,NA,NA,NA,NA,NA,NA,NA,NA,NA,NA,NA,NA,NA,NA,NA
"61","stim/objects/HouseObjects/pan.png",34,42,34,0.5,"stim/63.jpeg",6,3,1,NA,"HouseObjects",1,1,"left","right",0.269000053,0,0,0,1,NA,NA,NA,NA,NA,NA,NA,NA,NA,NA,NA,NA,NA,NA,NA,NA,NA,NA,NA,NA,NA,NA,NA,NA
"172","stim/objects/Instruments/musicsheet2.png",35,42,35,0.9,"stim/32.jpeg",3,2,3,NA,"Instruments",2,4,"right","left",0.398000002,0,0,0,1,NA,NA,NA,NA,NA,NA,NA,NA,NA,NA,NA,NA,NA,NA,NA,NA,NA,NA,NA,NA,NA,NA,NA,NA
"202","stim/objects/Instruments/oboe2.png",36,42,36,0.9,"stim/34.jpeg",3,4,3,NA,"Instruments",2,3,"right","left",0.387000084,0,0,0,1,NA,NA,NA,NA,NA,NA,NA,NA,NA,NA,NA,NA,NA,NA,NA,NA,NA,NA,NA,NA,NA,NA,NA,NA
"116","stim/objects/HouseObjects/rug2.png",37,42,37,0.9,"stim/44.jpeg",4,4,3,NA,"HouseObjects",1,4,"left","left",0.085999727,1,1,0,1,NA,NA,NA,NA,NA,NA,NA,NA,NA,NA,NA,NA,NA,NA,NA,NA,NA,NA,NA,NA,NA,NA,NA,NA
"225","stim/objects/Instruments/record_player.png",38,42,38,0.7,"stim/14.jpeg",1,4,2,NA,"Instruments",2,2,"right","right",0.243999958,1,1,0,1,NA,NA,NA,NA,NA,NA,NA,NA,NA,NA,NA,NA,NA,NA,NA,NA,NA,NA,NA,NA,NA,NA,NA,NA
"100","stim/objects/HouseObjects/rubbergloves2.png",39,42,39,0.9,"stim/43.jpeg",4,3,3,NA,"HouseObjects",1,4,"left","left",0.462999821,1,1,0,1,NA,NA,NA,NA,NA,NA,NA,NA,NA,NA,NA,NA,NA,NA,NA,NA,NA,NA,NA,NA,NA,NA,NA,NA
"233","stim/objects/Instruments/record.png",40,42,40,0.7,"stim/13.jpeg",1,3,2,NA,"Instruments",2,4,"right","left",0.35199976,0,0,0,1,NA,NA,NA,NA,NA,NA,NA,NA,NA,NA,NA,NA,NA,NA,NA,NA,NA,NA,NA,NA,NA,NA,NA,NA
"226","stim/objects/Instruments/record_player.png",41,42,41,0.7,"stim/14.jpeg",1,4,2,NA,"Instruments",2,4,"right","right",0.503000021,1,1,0,1,NA,NA,NA,NA,NA,NA,NA,NA,NA,NA,NA,NA,NA,NA,NA,NA,NA,NA,NA,NA,NA,NA,NA,NA
"18","stim/objects/HouseObjects/ironingboard2.png",42,42,42,0.7,"stim/22.jpeg",2,2,2,NA,"HouseObjects",1,3,"left","right",0.232999802,0,0,0,1,NA,NA,NA,NA,NA,NA,NA,NA,NA,NA,NA,NA,NA,NA,NA,NA,NA,NA,NA,NA,NA,NA,NA,NA
"173","stim/objects/Instruments/musicsheet2.png",43,42,43,0.9,"stim/32.jpeg",3,2,3,NA,"Instruments",2,4,"right","left",0.557999849,0,0,0,1,NA,NA,NA,NA,NA,NA,NA,NA,NA,NA,NA,NA,NA,NA,NA,NA,NA,NA,NA,NA,NA,NA,NA,NA
"6","stim/objects/HouseObjects/iron2.png",44,42,44,0.7,"stim/21.jpeg",2,1,2,NA,"HouseObjects",1,1,"left","right",0.329999924,0,0,0,1,NA,NA,NA,NA,NA,NA,NA,NA,NA,NA,NA,NA,NA,NA,NA,NA,NA,NA,NA,NA,NA,NA,NA,NA
"101","stim/objects/HouseObjects/rubbergloves2.png",45,42,45,0.9,"stim/43.jpeg",4,3,3,NA,"HouseObjects",1,4,"left","right",0.44299984,0,0,0,1,NA,NA,NA,NA,NA,NA,NA,NA,NA,NA,NA,NA,NA,NA,NA,NA,NA,NA,NA,NA,NA,NA,NA,NA
"91","stim/objects/HouseObjects/remote2.png",46,42,46,0.9,"stim/42.jpeg",4,2,3,NA,"HouseObjects",1,4,"left","right",0.307999849,0,0,0,1,NA,NA,NA,NA,NA,NA,NA,NA,NA,NA,NA,NA,NA,NA,NA,NA,NA,NA,NA,NA,NA,NA,NA,NA
"168","stim/objects/Instruments/musicsheet.png",47,42,47,0.5,"stim/62.jpeg",6,2,1,NA,"Instruments",2,2,"right","left",0.493999958,0,0,0,1,NA,NA,NA,NA,NA,NA,NA,NA,NA,NA,NA,NA,NA,NA,NA,NA,NA,NA,NA,NA,NA,NA,NA,NA
"174","stim/objects/Instruments/musicsheet2.png",48,42,48,0.9,"stim/32.jpeg",3,2,3,NA,"Instruments",2,1,"right","right",0.360999823,1,1,0,1,NA,NA,NA,NA,NA,NA,NA,NA,NA,NA,NA,NA,NA,NA,NA,NA,NA,NA,NA,NA,NA,NA,NA,NA
"175","stim/objects/Instruments/musicsheet2.png",49,42,49,0.9,"stim/32.jpeg",3,2,3,NA,"Instruments",2,3,"right","right",0.155999899,1,1,0,1,NA,NA,NA,NA,NA,NA,NA,NA,NA,NA,NA,NA,NA,NA,NA,NA,NA,NA,NA,NA,NA,NA,NA,NA
"31","stim/objects/HouseObjects/key2.png",50,42,50,0.7,"stim/23.jpeg",2,3,2,NA,"HouseObjects",1,1,"left","right",0.406999826,0,0,0,1,NA,NA,NA,NA,NA,NA,NA,NA,NA,NA,NA,NA,NA,NA,NA,NA,NA,NA,NA,NA,NA,NA,NA,NA
"49","stim/objects/HouseObjects/lintroller.png",51,42,51,0.5,"stim/61.jpeg",6,1,1,NA,"HouseObjects",1,1,"left","right",0.537999868,0,0,0,1,NA,NA,NA,NA,NA,NA,NA,NA,NA,NA,NA,NA,NA,NA,NA,NA,NA,NA,NA,NA,NA,NA,NA,NA
"50","stim/objects/HouseObjects/lintroller.png",52,42,52,0.5,"stim/61.jpeg",6,1,1,NA,"HouseObjects",1,4,"left","left",0.400999784,1,1,0,1,NA,NA,NA,NA,NA,NA,NA,NA,NA,NA,NA,NA,NA,NA,NA,NA,NA,NA,NA,NA,NA,NA,NA,NA
"92","stim/objects/HouseObjects/remote2.png",53,42,53,0.9,"stim/42.jpeg",4,2,3,NA,"HouseObjects",1,1,"left","left",0.239999771,1,1,0,1,NA,NA,NA,NA,NA,NA,NA,NA,NA,NA,NA,NA,NA,NA,NA,NA,NA,NA,NA,NA,NA,NA,NA,NA
"210","stim/objects/Instruments/panflute.png",54,42,54,0.7,"stim/11.jpeg",1,1,2,NA,"Instruments",2,1,"right","left",0.167999744,0,0,0,1,NA,NA,NA,NA,NA,NA,NA,NA,NA,NA,NA,NA,NA,NA,NA,NA,NA,NA,NA,NA,NA,NA,NA,NA
"158","stim/objects/Instruments/metronome2.png",55,42,55,0.9,"stim/31.jpeg",3,1,3,NA,"Instruments",2,1,"right","right",0.117999792,1,1,0,1,NA,NA,NA,NA,NA,NA,NA,NA,NA,NA,NA,NA,NA,NA,NA,NA,NA,NA,NA,NA,NA,NA,NA,NA
"7","stim/objects/HouseObjects/iron2.png",56,42,56,0.7,"stim/21.jpeg",2,1,2,NA,"HouseObjects",1,3,"left","right",0.081999779,0,0,0,1,NA,NA,NA,NA,NA,NA,NA,NA,NA,NA,NA,NA,NA,NA,NA,NA,NA,NA,NA,NA,NA,NA,NA,NA
"67","stim/objects/HouseObjects/pitcher.png",57,42,57,0.5,"stim/64.jpeg",6,4,1,NA,"HouseObjects",1,3,"left","left",0.375,1,1,0,1,NA,NA,NA,NA,NA,NA,NA,NA,NA,NA,NA,NA,NA,NA,NA,NA,NA,NA,NA,NA,NA,NA,NA,NA
"32","stim/objects/HouseObjects/key2.png",58,42,58,0.7,"stim/23.jpeg",2,3,2,NA,"HouseObjects",1,1,"left","left",0.434000015,1,1,0,1,NA,NA,NA,NA,NA,NA,NA,NA,NA,NA,NA,NA,NA,NA,NA,NA,NA,NA,NA,NA,NA,NA,NA,NA
"111","stim/objects/HouseObjects/rug.png",59,42,59,0.3,"stim/14.jpeg",1,4,2,NA,"HouseObjects",1,2,"left","right",0.242999792,0,0,0,1,NA,NA,NA,NA,NA,NA,NA,NA,NA,NA,NA,NA,NA,NA,NA,NA,NA,NA,NA,NA,NA,NA,NA,NA
"188","stim/objects/Instruments/musicstand2.png",60,42,60,0.9,"stim/33.jpeg",3,3,3,NA,"Instruments",2,1,"right","left",0.20299983,0,0,0,1,NA,NA,NA,NA,NA,NA,NA,NA,NA,NA,NA,NA,NA,NA,NA,NA,NA,NA,NA,NA,NA,NA,NA,NA
"144","stim/objects/Instruments/maraca2.png",61,42,61,0.3,"stim/23.jpeg",2,3,2,NA,"Instruments",2,2,"right","left",0.01699996,0,0,0,1,NA,NA,NA,NA,NA,NA,NA,NA,NA,NA,NA,NA,NA,NA,NA,NA,NA,NA,NA,NA,NA,NA,NA,NA
"126","stim/objects/Instruments/keyboard2.png",62,42,62,0.3,"stim/21.jpeg",2,1,2,NA,"Instruments",2,2,"right","right",0.09800005,1,1,0,1,NA,NA,NA,NA,NA,NA,NA,NA,NA,NA,NA,NA,NA,NA,NA,NA,NA,NA,NA,NA,NA,NA,NA,NA
"196","stim/objects/Instruments/oboe.png",63,42,63,0.5,"stim/64.jpeg",6,4,1,NA,"Instruments",2,3,"right","right",0.237999916,1,1,0,1,NA,NA,NA,NA,NA,NA,NA,NA,NA,NA,NA,NA,NA,NA,NA,NA,NA,NA,NA,NA,NA,NA,NA,NA
"42","stim/objects/HouseObjects/knife2.png",64,42,64,0.7,"stim/24.jpeg",2,4,2,NA,"HouseObjects",1,4,"left","right",0.302000046,0,0,0,1,NA,NA,NA,NA,NA,NA,NA,NA,NA,NA,NA,NA,NA,NA,NA,NA,NA,NA,NA,NA,NA,NA,NA,NA
"19","stim/objects/HouseObjects/ironingboard2.png",65,42,65,0.7,"stim/22.jpeg",2,2,2,NA,"HouseObjects",1,3,"left","left",0.140999794,1,1,0,1,NA,NA,NA,NA,NA,NA,NA,NA,NA,NA,NA,NA,NA,NA,NA,NA,NA,NA,NA,NA,NA,NA,NA,NA
"43","stim/objects/HouseObjects/knife2.png",66,42,66,0.7,"stim/24.jpeg",2,4,2,NA,"HouseObjects",1,2,"left","left",0.311999798,1,1,0,1,NA,NA,NA,NA,NA,NA,NA,NA,NA,NA,NA,NA,NA,NA,NA,NA,NA,NA,NA,NA,NA,NA,NA,NA
"189","stim/objects/Instruments/musicstand2.png",67,42,67,0.9,"stim/33.jpeg",3,3,3,NA,"Instruments",2,1,"right","",NA,0,0,0,1,NA,NA,NA,NA,NA,NA,NA,NA,NA,NA,NA,NA,NA,NA,NA,NA,NA,NA,NA,NA,NA,NA,NA,NA
"211","stim/objects/Instruments/panflute.png",68,42,68,0.7,"stim/11.jpeg",1,1,2,NA,"Instruments",2,3,"right","right",0.195999861,1,1,0,1,NA,NA,NA,NA,NA,NA,NA,NA,NA,NA,NA,NA,NA,NA,NA,NA,NA,NA,NA,NA,NA,NA,NA,NA
"203","stim/objects/Instruments/oboe2.png",69,42,69,0.9,"stim/34.jpeg",3,4,3,NA,"Instruments",2,4,"right","left",0.338000059,0,0,0,1,NA,NA,NA,NA,NA,NA,NA,NA,NA,NA,NA,NA,NA,NA,NA,NA,NA,NA,NA,NA,NA,NA,NA,NA
"146","stim/objects/Instruments/marimba.png",70,42,70,0.5,"stim/54.jpeg",5,4,1,NA,"Instruments",2,3,"right","right",0.263999701,1,1,0,1,NA,NA,NA,NA,NA,NA,NA,NA,NA,NA,NA,NA,NA,NA,NA,NA,NA,NA,NA,NA,NA,NA,NA,NA
"44","stim/objects/HouseObjects/knife2.png",71,42,71,0.7,"stim/24.jpeg",2,4,2,NA,"HouseObjects",1,3,"left","left",0.312999964,1,1,0,1,NA,NA,NA,NA,NA,NA,NA,NA,NA,NA,NA,NA,NA,NA,NA,NA,NA,NA,NA,NA,NA,NA,NA,NA
"8","stim/objects/HouseObjects/iron2.png",72,42,72,0.7,"stim/21.jpeg",2,1,2,NA,"HouseObjects",1,2,"left","left",0.271999836,1,1,0,1,NA,NA,NA,NA,NA,NA,NA,NA,NA,NA,NA,NA,NA,NA,NA,NA,NA,NA,NA,NA,NA,NA,NA,NA
"190","stim/objects/Instruments/musicstand2.png",73,42,73,0.9,"stim/33.jpeg",3,3,3,NA,"Instruments",2,2,"right","right",0.131999969,1,1,0,1,NA,NA,NA,NA,NA,NA,NA,NA,NA,NA,NA,NA,NA,NA,NA,NA,NA,NA,NA,NA,NA,NA,NA,NA
"204","stim/objects/Instruments/oboe2.png",74,42,74,0.9,"stim/34.jpeg",3,4,3,NA,"Instruments",2,2,"right","left",0.504999876,0,0,0,1,NA,NA,NA,NA,NA,NA,NA,NA,NA,NA,NA,NA,NA,NA,NA,NA,NA,NA,NA,NA,NA,NA,NA,NA
"169","stim/objects/Instruments/musicsheet.png",75,42,75,0.5,"stim/62.jpeg",6,2,1,NA,"Instruments",2,4,"right","right",0.223999977,1,1,0,1,NA,NA,NA,NA,NA,NA,NA,NA,NA,NA,NA,NA,NA,NA,NA,NA,NA,NA,NA,NA,NA,NA,NA,NA
"37","stim/objects/HouseObjects/knife.png",76,42,76,0.5,"stim/54.jpeg",5,4,1,NA,"HouseObjects",1,2,"left","right",0.292999744,0,0,0,1,NA,NA,NA,NA,NA,NA,NA,NA,NA,NA,NA,NA,NA,NA,NA,NA,NA,NA,NA,NA,NA,NA,NA,NA
"33","stim/objects/HouseObjects/key2.png",77,42,77,0.7,"stim/23.jpeg",2,3,2,NA,"HouseObjects",1,2,"left","right",0.276999712,0,0,0,1,NA,NA,NA,NA,NA,NA,NA,NA,NA,NA,NA,NA,NA,NA,NA,NA,NA,NA,NA,NA,NA,NA,NA,NA
"197","stim/objects/Instruments/oboe.png",78,42,78,0.5,"stim/64.jpeg",6,4,1,NA,"Instruments",2,1,"right","left",0.258999825,0,0,0,1,NA,NA,NA,NA,NA,NA,NA,NA,NA,NA,NA,NA,NA,NA,NA,NA,NA,NA,NA,NA,NA,NA,NA,NA
"68","stim/objects/HouseObjects/pitcher.png",79,42,79,0.5,"stim/64.jpeg",6,4,1,NA,"HouseObjects",1,1,"left","right",0.345000029,0,0,0,1,NA,NA,NA,NA,NA,NA,NA,NA,NA,NA,NA,NA,NA,NA,NA,NA,NA,NA,NA,NA,NA,NA,NA,NA
"205","stim/objects/Instruments/oboe2.png",80,42,80,0.9,"stim/34.jpeg",3,4,3,NA,"Instruments",2,1,"right","right",0.062999964,1,1,0,1,NA,NA,NA,NA,NA,NA,NA,NA,NA,NA,NA,NA,NA,NA,NA,NA,NA,NA,NA,NA,NA,NA,NA,NA
"147","stim/objects/Instruments/marimba.png",81,42,81,0.5,"stim/54.jpeg",5,4,1,NA,"Instruments",2,4,"right","left",0.602999926,0,0,0,1,NA,NA,NA,NA,NA,NA,NA,NA,NA,NA,NA,NA,NA,NA,NA,NA,NA,NA,NA,NA,NA,NA,NA,NA
"1","stim/objects/HouseObjects/iron.png",82,42,82,0.5,"stim/51.jpeg",5,1,1,NA,"HouseObjects",1,1,"left","left",0.097999811,1,1,0,1,NA,NA,NA,NA,NA,NA,NA,NA,NA,NA,NA,NA,NA,NA,NA,NA,NA,NA,NA,NA,NA,NA,NA,NA
"122","stim/objects/Instruments/keyboard.png",83,42,83,0.5,"stim/51.jpeg",5,1,1,NA,"Instruments",2,4,"right","right",0.279999971,1,1,0,1,NA,NA,NA,NA,NA,NA,NA,NA,NA,NA,NA,NA,NA,NA,NA,NA,NA,NA,NA,NA,NA,NA,NA,NA
"153","stim/objects/Instruments/metronome.png",84,42,84,0.5,"stim/61.jpeg",6,1,1,NA,"Instruments",2,2,"right","left",0.319999933,0,0,0,1,NA,NA,NA,NA,NA,NA,NA,NA,NA,NA,NA,NA,NA,NA,NA,NA,NA,NA,NA,NA,NA,NA,NA,NA
"62","stim/objects/HouseObjects/pan.png",85,42,85,0.5,"stim/63.jpeg",6,3,1,NA,"HouseObjects",1,3,"left","right",0.222999811,0,0,0,1,NA,NA,NA,NA,NA,NA,NA,NA,NA,NA,NA,NA,NA,NA,NA,NA,NA,NA,NA,NA,NA,NA,NA,NA
"76","stim/objects/HouseObjects/recyclingbin2.png",86,42,86,0.9,"stim/41.jpeg",4,1,3,NA,"HouseObjects",1,1,"left","right",0.298999786,0,0,0,1,NA,NA,NA,NA,NA,NA,NA,NA,NA,NA,NA,NA,NA,NA,NA,NA,NA,NA,NA,NA,NA,NA,NA,NA
"217","stim/objects/Instruments/pipepiano.png",87,42,87,0.7,"stim/12.jpeg",1,2,2,NA,"Instruments",2,2,"right","left",0.393999815,0,0,0,1,NA,NA,NA,NA,NA,NA,NA,NA,NA,NA,NA,NA,NA,NA,NA,NA,NA,NA,NA,NA,NA,NA,NA,NA
"150","stim/objects/Instruments/marimba2.png",88,42,88,0.3,"stim/24.jpeg",2,4,2,NA,"Instruments",2,2,"right","left",0.174000025,0,0,0,1,NA,NA,NA,NA,NA,NA,NA,NA,NA,NA,NA,NA,NA,NA,NA,NA,NA,NA,NA,NA,NA,NA,NA,NA
"130","stim/objects/Instruments/laud.png",89,42,89,0.5,"stim/52.jpeg",5,2,1,NA,"Instruments",2,4,"right","right",0.03399992,1,1,0,1,NA,NA,NA,NA,NA,NA,NA,NA,NA,NA,NA,NA,NA,NA,NA,NA,NA,NA,NA,NA,NA,NA,NA,NA
"93","stim/objects/HouseObjects/remote2.png",90,42,90,0.9,"stim/42.jpeg",4,2,3,NA,"HouseObjects",1,1,"left","right",0.048000097,0,0,0,1,NA,NA,NA,NA,NA,NA,NA,NA,NA,NA,NA,NA,NA,NA,NA,NA,NA,NA,NA,NA,NA,NA,NA,NA
"20","stim/objects/HouseObjects/ironingboard2.png",91,42,91,0.7,"stim/22.jpeg",2,2,2,NA,"HouseObjects",1,1,"left","left",0.180999994,1,1,0,1,NA,NA,NA,NA,NA,NA,NA,NA,NA,NA,NA,NA,NA,NA,NA,NA,NA,NA,NA,NA,NA,NA,NA,NA
"159","stim/objects/Instruments/metronome2.png",92,42,92,0.9,"stim/31.jpeg",3,1,3,NA,"Instruments",2,3,"right","left",0.305999994,0,0,0,1,NA,NA,NA,NA,NA,NA,NA,NA,NA,NA,NA,NA,NA,NA,NA,NA,NA,NA,NA,NA,NA,NA,NA,NA
"77","stim/objects/HouseObjects/recyclingbin2.png",93,42,93,0.9,"stim/41.jpeg",4,1,3,NA,"HouseObjects",1,3,"left","right",0.069000006,0,0,0,1,NA,NA,NA,NA,NA,NA,NA,NA,NA,NA,NA,NA,NA,NA,NA,NA,NA,NA,NA,NA,NA,NA,NA,NA
"9","stim/objects/HouseObjects/iron2.png",94,42,94,0.7,"stim/21.jpeg",2,1,2,NA,"HouseObjects",1,1,"left","right",0.092999935,0,0,0,1,NA,NA,NA,NA,NA,NA,NA,NA,NA,NA,NA,NA,NA,NA,NA,NA,NA,NA,NA,NA,NA,NA,NA,NA
"218","stim/objects/Instruments/pipepiano.png",95,42,95,0.7,"stim/12.jpeg",1,2,2,NA,"Instruments",2,2,"right","left",0.217000008,0,0,0,1,NA,NA,NA,NA,NA,NA,NA,NA,NA,NA,NA,NA,NA,NA,NA,NA,NA,NA,NA,NA,NA,NA,NA,NA
"38","stim/objects/HouseObjects/knife.png",96,42,96,0.5,"stim/54.jpeg",5,4,1,NA,"HouseObjects",1,4,"left","left",0.236999989,1,1,0,1,NA,NA,NA,NA,NA,NA,NA,NA,NA,NA,NA,NA,NA,NA,NA,NA,NA,NA,NA,NA,NA,NA,NA,NA
"39","stim/objects/HouseObjects/knife.png",97,42,97,0.5,"stim/54.jpeg",5,4,1,NA,"HouseObjects",1,1,"left","left",0.111999989,1,1,0,1,NA,NA,NA,NA,NA,NA,NA,NA,NA,NA,NA,NA,NA,NA,NA,NA,NA,NA,NA,NA,NA,NA,NA,NA
"40","stim/objects/HouseObjects/knife.png",98,42,98,0.5,"stim/54.jpeg",5,4,1,NA,"HouseObjects",1,4,"left","right",0.346999884,0,0,0,1,NA,NA,NA,NA,NA,NA,NA,NA,NA,NA,NA,NA,NA,NA,NA,NA,NA,NA,NA,NA,NA,NA,NA,NA
"94","stim/objects/HouseObjects/remote2.png",99,42,99,0.9,"stim/42.jpeg",4,2,3,NA,"HouseObjects",1,3,"left","left",0.086999893,1,1,0,1,NA,NA,NA,NA,NA,NA,NA,NA,NA,NA,NA,NA,NA,NA,NA,NA,NA,NA,NA,NA,NA,NA,NA,NA
"45","stim/objects/HouseObjects/knife2.png",100,42,100,0.7,"stim/24.jpeg",2,4,2,NA,"HouseObjects",1,4,"left","left",0.256999969,1,1,0,1,NA,NA,NA,NA,NA,NA,NA,NA,NA,NA,NA,NA,NA,NA,NA,NA,NA,NA,NA,NA,NA,NA,NA,NA
"78","stim/objects/HouseObjects/recyclingbin2.png",101,42,101,0.9,"stim/41.jpeg",4,1,3,NA,"HouseObjects",1,1,"left","left",0.260999918,1,1,0,1,NA,NA,NA,NA,NA,NA,NA,NA,NA,NA,NA,NA,NA,NA,NA,NA,NA,NA,NA,NA,NA,NA,NA,NA
"219","stim/objects/Instruments/pipepiano.png",102,42,102,0.7,"stim/12.jpeg",1,2,2,NA,"Instruments",2,3,"right","left",0.034999847,0,0,0,1,NA,NA,NA,NA,NA,NA,NA,NA,NA,NA,NA,NA,NA,NA,NA,NA,NA,NA,NA,NA,NA,NA,NA,NA
"154","stim/objects/Instruments/metronome.png",103,42,103,0.5,"stim/61.jpeg",6,1,1,NA,"Instruments",2,2,"right","right",0.059999943,1,1,0,1,NA,NA,NA,NA,NA,NA,NA,NA,NA,NA,NA,NA,NA,NA,NA,NA,NA,NA,NA,NA,NA,NA,NA,NA
"117","stim/objects/HouseObjects/rug2.png",104,42,104,0.9,"stim/44.jpeg",4,4,3,NA,"HouseObjects",1,2,"left","right",0.210999966,0,0,0,1,NA,NA,NA,NA,NA,NA,NA,NA,NA,NA,NA,NA,NA,NA,NA,NA,NA,NA,NA,NA,NA,NA,NA,NA
"160","stim/objects/Instruments/metronome2.png",105,42,105,0.9,"stim/31.jpeg",3,1,3,NA,"Instruments",2,1,"right","left",0.200999975,0,0,0,1,NA,NA,NA,NA,NA,NA,NA,NA,NA,NA,NA,NA,NA,NA,NA,NA,NA,NA,NA,NA,NA,NA,NA,NA
"220","stim/objects/Instruments/pipepiano.png",106,42,106,0.7,"stim/12.jpeg",1,2,2,NA,"Instruments",2,1,"right","right",0.230000019,1,1,0,1,NA,NA,NA,NA,NA,NA,NA,NA,NA,NA,NA,NA,NA,NA,NA,NA,NA,NA,NA,NA,NA,NA,NA,NA
"118","stim/objects/HouseObjects/rug2.png",107,42,107,0.9,"stim/44.jpeg",4,4,3,NA,"HouseObjects",1,4,"left","right",0.272999763,0,0,0,1,NA,NA,NA,NA,NA,NA,NA,NA,NA,NA,NA,NA,NA,NA,NA,NA,NA,NA,NA,NA,NA,NA,NA,NA
"102","stim/objects/HouseObjects/rubbergloves2.png",108,42,108,0.9,"stim/43.jpeg",4,3,3,NA,"HouseObjects",1,1,"left","left",0.189999819,1,1,0,1,NA,NA,NA,NA,NA,NA,NA,NA,NA,NA,NA,NA,NA,NA,NA,NA,NA,NA,NA,NA,NA,NA,NA,NA
"148","stim/objects/Instruments/marimba.png",109,42,109,0.5,"stim/54.jpeg",5,4,1,NA,"Instruments",2,3,"right","left",0.001999855,0,0,0,1,NA,NA,NA,NA,NA,NA,NA,NA,NA,NA,NA,NA,NA,NA,NA,NA,NA,NA,NA,NA,NA,NA,NA,NA
"161","stim/objects/Instruments/metronome2.png",110,42,110,0.9,"stim/31.jpeg",3,1,3,NA,"Instruments",2,3,"right","right",0.248999834,1,1,0,1,NA,NA,NA,NA,NA,NA,NA,NA,NA,NA,NA,NA,NA,NA,NA,NA,NA,NA,NA,NA,NA,NA,NA,NA
"21","stim/objects/HouseObjects/ironingboard2.png",111,42,111,0.7,"stim/22.jpeg",2,2,2,NA,"HouseObjects",1,3,"left","right",0.000999928,0,0,0,1,NA,NA,NA,NA,NA,NA,NA,NA,NA,NA,NA,NA,NA,NA,NA,NA,NA,NA,NA,NA,NA,NA,NA,NA
"127","stim/objects/Instruments/keyboard2.png",112,42,112,0.3,"stim/21.jpeg",2,1,2,NA,"Instruments",2,4,"right","left",0.002000093,0,0,0,1,NA,NA,NA,NA,NA,NA,NA,NA,NA,NA,NA,NA,NA,NA,NA,NA,NA,NA,NA,NA,NA,NA,NA,NA
"79","stim/objects/HouseObjects/recyclingbin2.png",113,42,113,0.9,"stim/41.jpeg",4,1,3,NA,"HouseObjects",1,2,"left","left",0.389999866,1,1,0,1,NA,NA,NA,NA,NA,NA,NA,NA,NA,NA,NA,NA,NA,NA,NA,NA,NA,NA,NA,NA,NA,NA,NA,NA
"34","stim/objects/HouseObjects/key2.png",114,42,114,0.7,"stim/23.jpeg",2,3,2,NA,"HouseObjects",1,3,"left","left",0.406999826,1,1,0,1,NA,NA,NA,NA,NA,NA,NA,NA,NA,NA,NA,NA,NA,NA,NA,NA,NA,NA,NA,NA,NA,NA,NA,NA
"191","stim/objects/Instruments/musicstand2.png",115,42,115,0.9,"stim/33.jpeg",3,3,3,NA,"Instruments",2,4,"right","right",0.329999924,1,1,0,1,NA,NA,NA,NA,NA,NA,NA,NA,NA,NA,NA,NA,NA,NA,NA,NA,NA,NA,NA,NA,NA,NA,NA,NA
"74","stim/objects/HouseObjects/recyclingbin.png",116,42,116,0.3,"stim/11.jpeg",1,1,2,NA,"HouseObjects",1,1,"left","right",0.354000092,0,0,0,1,NA,NA,NA,NA,NA,NA,NA,NA,NA,NA,NA,NA,NA,NA,NA,NA,NA,NA,NA,NA,NA,NA,NA,NA
"155","stim/objects/Instruments/metronome.png",117,42,117,0.5,"stim/61.jpeg",6,1,1,NA,"Instruments",2,1,"right","right",0.329999924,1,1,0,1,NA,NA,NA,NA,NA,NA,NA,NA,NA,NA,NA,NA,NA,NA,NA,NA,NA,NA,NA,NA,NA,NA,NA,NA
"80","stim/objects/HouseObjects/recyclingbin2.png",118,42,118,0.9,"stim/41.jpeg",4,1,3,NA,"HouseObjects",1,1,"left","left",0.713999987,1,1,0,1,NA,NA,NA,NA,NA,NA,NA,NA,NA,NA,NA,NA,NA,NA,NA,NA,NA,NA,NA,NA,NA,NA,NA,NA
"138","stim/objects/Instruments/maraca.png",119,42,119,0.5,"stim/53.jpeg",5,3,1,NA,"Instruments",2,3,"right","left",0.395999908,0,0,0,1,NA,NA,NA,NA,NA,NA,NA,NA,NA,NA,NA,NA,NA,NA,NA,NA,NA,NA,NA,NA,NA,NA,NA,NA
"2","stim/objects/HouseObjects/iron.png",120,42,120,0.5,"stim/51.jpeg",5,1,1,NA,"HouseObjects",1,3,"left","right",0.093999863,0,0,0,1,NA,NA,NA,NA,NA,NA,NA,NA,NA,NA,NA,NA,NA,NA,NA,NA,NA,NA,NA,NA,NA,NA,NA,NA
"14","stim/objects/HouseObjects/ironingboard.png",121,42,121,0.5,"stim/52.jpeg",5,2,1,NA,"HouseObjects",1,2,"left","right",0.125,0,0,0,1,NA,NA,NA,NA,NA,NA,NA,NA,NA,NA,NA,NA,NA,NA,NA,NA,NA,NA,NA,NA,NA,NA,NA,NA
"206","stim/objects/Instruments/oboe2.png",122,42,122,0.9,"stim/34.jpeg",3,4,3,NA,"Instruments",2,3,"right","left",0.208999872,0,0,0,1,NA,NA,NA,NA,NA,NA,NA,NA,NA,NA,NA,NA,NA,NA,NA,NA,NA,NA,NA,NA,NA,NA,NA,NA
"103","stim/objects/HouseObjects/rubbergloves2.png",123,42,123,0.9,"stim/43.jpeg",4,3,3,NA,"HouseObjects",1,2,"left","left",0.391999722,1,1,0,1,NA,NA,NA,NA,NA,NA,NA,NA,NA,NA,NA,NA,NA,NA,NA,NA,NA,NA,NA,NA,NA,NA,NA,NA
"192","stim/objects/Instruments/musicstand2.png",124,42,124,0.9,"stim/33.jpeg",3,3,3,NA,"Instruments",2,2,"right","right",0.637000084,1,1,0,1,NA,NA,NA,NA,NA,NA,NA,NA,NA,NA,NA,NA,NA,NA,NA,NA,NA,NA,NA,NA,NA,NA,NA,NA
"193","stim/objects/Instruments/musicstand2.png",125,42,125,0.9,"stim/33.jpeg",3,3,3,NA,"Instruments",2,3,"right","left",0.374999762,0,0,0,1,NA,NA,NA,NA,NA,NA,NA,NA,NA,NA,NA,NA,NA,NA,NA,NA,NA,NA,NA,NA,NA,NA,NA,NA
"234","stim/objects/Instruments/record.png",126,42,126,0.7,"stim/13.jpeg",1,3,2,NA,"Instruments",2,1,"right","left",0.243000031,0,0,0,1,NA,NA,NA,NA,NA,NA,NA,NA,NA,NA,NA,NA,NA,NA,NA,NA,NA,NA,NA,NA,NA,NA,NA,NA
"22","stim/objects/HouseObjects/ironingboard2.png",127,42,127,0.7,"stim/22.jpeg",2,2,2,NA,"HouseObjects",1,3,"left","right",0.079999924,0,0,0,1,NA,NA,NA,NA,NA,NA,NA,NA,NA,NA,NA,NA,NA,NA,NA,NA,NA,NA,NA,NA,NA,NA,NA,NA
"235","stim/objects/Instruments/record.png",128,42,128,0.7,"stim/13.jpeg",1,3,2,NA,"Instruments",2,4,"right","right",0.2099998,1,1,0,1,NA,NA,NA,NA,NA,NA,NA,NA,NA,NA,NA,NA,NA,NA,NA,NA,NA,NA,NA,NA,NA,NA,NA,NA
"156","stim/objects/Instruments/metronome.png",129,42,129,0.5,"stim/61.jpeg",6,1,1,NA,"Instruments",2,3,"right","right",0.085000038,1,1,0,1,NA,NA,NA,NA,NA,NA,NA,NA,NA,NA,NA,NA,NA,NA,NA,NA,NA,NA,NA,NA,NA,NA,NA,NA
"227","stim/objects/Instruments/record_player.png",130,42,130,0.7,"stim/14.jpeg",1,4,2,NA,"Instruments",2,3,"right","left",0.143999815,0,0,0,1,NA,NA,NA,NA,NA,NA,NA,NA,NA,NA,NA,NA,NA,NA,NA,NA,NA,NA,NA,NA,NA,NA,NA,NA
"207","stim/objects/Instruments/oboe2.png",131,42,131,0.9,"stim/34.jpeg",3,4,3,NA,"Instruments",2,4,"right","left",0.200999975,0,0,0,1,NA,NA,NA,NA,NA,NA,NA,NA,NA,NA,NA,NA,NA,NA,NA,NA,NA,NA,NA,NA,NA,NA,NA,NA
"81","stim/objects/HouseObjects/recyclingbin2.png",132,42,132,0.9,"stim/41.jpeg",4,1,3,NA,"HouseObjects",1,1,"left","right",0.240999937,0,0,0,1,NA,NA,NA,NA,NA,NA,NA,NA,NA,NA,NA,NA,NA,NA,NA,NA,NA,NA,NA,NA,NA,NA,NA,NA
"135","stim/objects/Instruments/laud2.png",133,42,133,0.3,"stim/22.jpeg",2,2,2,NA,"Instruments",2,3,"right","right",0.255999804,1,1,0,1,NA,NA,NA,NA,NA,NA,NA,NA,NA,NA,NA,NA,NA,NA,NA,NA,NA,NA,NA,NA,NA,NA,NA,NA
"212","stim/objects/Instruments/panflute.png",134,42,134,0.7,"stim/11.jpeg",1,1,2,NA,"Instruments",2,1,"right","left",0.194000006,0,0,0,1,NA,NA,NA,NA,NA,NA,NA,NA,NA,NA,NA,NA,NA,NA,NA,NA,NA,NA,NA,NA,NA,NA,NA,NA
"15","stim/objects/HouseObjects/ironingboard.png",135,42,135,0.5,"stim/52.jpeg",5,2,1,NA,"HouseObjects",1,2,"left","left",0.242000103,1,1,0,1,NA,NA,NA,NA,NA,NA,NA,NA,NA,NA,NA,NA,NA,NA,NA,NA,NA,NA,NA,NA,NA,NA,NA,NA
"95","stim/objects/HouseObjects/remote2.png",136,42,136,0.9,"stim/42.jpeg",4,2,3,NA,"HouseObjects",1,3,"left","right",0.342000008,0,0,0,1,NA,NA,NA,NA,NA,NA,NA,NA,NA,NA,NA,NA,NA,NA,NA,NA,NA,NA,NA,NA,NA,NA,NA,NA
"57","stim/objects/HouseObjects/match.png",137,42,137,0.5,"stim/62.jpeg",6,2,1,NA,"HouseObjects",1,3,"left","right",0.078999996,0,0,0,1,NA,NA,NA,NA,NA,NA,NA,NA,NA,NA,NA,NA,NA,NA,NA,NA,NA,NA,NA,NA,NA,NA,NA,NA
"213","stim/objects/Instruments/panflute.png",138,42,138,0.7,"stim/11.jpeg",1,1,2,NA,"Instruments",2,2,"right","left",0.129999876,0,0,0,1,NA,NA,NA,NA,NA,NA,NA,NA,NA,NA,NA,NA,NA,NA,NA,NA,NA,NA,NA,NA,NA,NA,NA,NA
"3","stim/objects/HouseObjects/iron.png",139,42,139,0.5,"stim/51.jpeg",5,1,1,NA,"HouseObjects",1,2,"left","left",0.266000032,1,1,0,1,NA,NA,NA,NA,NA,NA,NA,NA,NA,NA,NA,NA,NA,NA,NA,NA,NA,NA,NA,NA,NA,NA,NA,NA
"176","stim/objects/Instruments/musicsheet2.png",140,42,140,0.9,"stim/32.jpeg",3,2,3,NA,"Instruments",2,4,"right","left",0.210999966,0,0,0,1,NA,NA,NA,NA,NA,NA,NA,NA,NA,NA,NA,NA,NA,NA,NA,NA,NA,NA,NA,NA,NA,NA,NA,NA
"181","stim/objects/Instruments/musicstand.png",141,42,141,0.5,"stim/63.jpeg",6,3,1,NA,"Instruments",2,1,"right","right",0.002000093,1,1,0,1,NA,NA,NA,NA,NA,NA,NA,NA,NA,NA,NA,NA,NA,NA,NA,NA,NA,NA,NA,NA,NA,NA,NA,NA
"46","stim/objects/HouseObjects/knife2.png",142,42,142,0.7,"stim/24.jpeg",2,4,2,NA,"HouseObjects",1,2,"left","right",0.105000019,0,0,0,1,NA,NA,NA,NA,NA,NA,NA,NA,NA,NA,NA,NA,NA,NA,NA,NA,NA,NA,NA,NA,NA,NA,NA,NA
"41","stim/objects/HouseObjects/knife.png",143,42,143,0.5,"stim/54.jpeg",5,4,1,NA,"HouseObjects",1,3,"left","left",0.23300004,1,1,0,1,NA,NA,NA,NA,NA,NA,NA,NA,NA,NA,NA,NA,NA,NA,NA,NA,NA,NA,NA,NA,NA,NA,NA,NA
"63","stim/objects/HouseObjects/pan.png",144,42,144,0.5,"stim/63.jpeg",6,3,1,NA,"HouseObjects",1,4,"left","left",0.189999819,1,1,0,1,NA,NA,NA,NA,NA,NA,NA,NA,NA,NA,NA,NA,NA,NA,NA,NA,NA,NA,NA,NA,NA,NA,NA,NA
"139","stim/objects/Instruments/maraca.png",145,42,145,0.5,"stim/53.jpeg",5,3,1,NA,"Instruments",2,4,"right","left",0.02699995,0,0,0,1,NA,NA,NA,NA,NA,NA,NA,NA,NA,NA,NA,NA,NA,NA,NA,NA,NA,NA,NA,NA,NA,NA,NA,NA
"64","stim/objects/HouseObjects/pan.png",146,42,146,0.5,"stim/63.jpeg",6,3,1,NA,"HouseObjects",1,4,"left","right",0.095000029,0,0,0,1,NA,NA,NA,NA,NA,NA,NA,NA,NA,NA,NA,NA,NA,NA,NA,NA,NA,NA,NA,NA,NA,NA,NA,NA
"228","stim/objects/Instruments/record_player.png",147,42,147,0.7,"stim/14.jpeg",1,4,2,NA,"Instruments",2,4,"right","right",0.002999783,1,1,0,1,NA,NA,NA,NA,NA,NA,NA,NA,NA,NA,NA,NA,NA,NA,NA,NA,NA,NA,NA,NA,NA,NA,NA,NA
"58","stim/objects/HouseObjects/match.png",148,42,148,0.5,"stim/62.jpeg",6,2,1,NA,"HouseObjects",1,3,"left","right",0.15899992,0,0,0,1,NA,NA,NA,NA,NA,NA,NA,NA,NA,NA,NA,NA,NA,NA,NA,NA,NA,NA,NA,NA,NA,NA,NA,NA
"140","stim/objects/Instruments/maraca.png",149,42,149,0.5,"stim/53.jpeg",5,3,1,NA,"Instruments",2,2,"right","left",0.079999924,0,0,0,1,NA,NA,NA,NA,NA,NA,NA,NA,NA,NA,NA,NA,NA,NA,NA,NA,NA,NA,NA,NA,NA,NA,NA,NA
"131","stim/objects/Instruments/laud.png",150,42,150,0.5,"stim/52.jpeg",5,2,1,NA,"Instruments",2,2,"right","left",0.258999825,0,0,0,1,NA,NA,NA,NA,NA,NA,NA,NA,NA,NA,NA,NA,NA,NA,NA,NA,NA,NA,NA,NA,NA,NA,NA,NA
"132","stim/objects/Instruments/laud.png",151,42,151,0.5,"stim/52.jpeg",5,2,1,NA,"Instruments",2,3,"right","right",0.187999964,1,1,0,1,NA,NA,NA,NA,NA,NA,NA,NA,NA,NA,NA,NA,NA,NA,NA,NA,NA,NA,NA,NA,NA,NA,NA,NA
"177","stim/objects/Instruments/musicsheet2.png",152,42,152,0.9,"stim/32.jpeg",3,2,3,NA,"Instruments",2,3,"right","right",0.146999836,1,1,0,1,NA,NA,NA,NA,NA,NA,NA,NA,NA,NA,NA,NA,NA,NA,NA,NA,NA,NA,NA,NA,NA,NA,NA,NA
"119","stim/objects/HouseObjects/rug2.png",153,42,153,0.9,"stim/44.jpeg",4,4,3,NA,"HouseObjects",1,2,"left","right",0.576999903,0,0,0,1,NA,NA,NA,NA,NA,NA,NA,NA,NA,NA,NA,NA,NA,NA,NA,NA,NA,NA,NA,NA,NA,NA,NA,NA
"82","stim/objects/HouseObjects/recyclingbin2.png",154,42,154,0.9,"stim/41.jpeg",4,1,3,NA,"HouseObjects",1,3,"left","left",0.227999926,1,1,0,1,NA,NA,NA,NA,NA,NA,NA,NA,NA,NA,NA,NA,NA,NA,NA,NA,NA,NA,NA,NA,NA,NA,NA,NA
"98","stim/objects/HouseObjects/rubbergloves.png",155,42,155,0.3,"stim/13.jpeg",1,3,2,NA,"HouseObjects",1,4,"left","left",0.234999895,1,1,0,1,NA,NA,NA,NA,NA,NA,NA,NA,NA,NA,NA,NA,NA,NA,NA,NA,NA,NA,NA,NA,NA,NA,NA,NA
"72","stim/objects/HouseObjects/pitcher2.png",156,42,156,0.1,"stim/34.jpeg",3,4,3,NA,"HouseObjects",1,3,"left","left",0.179999828,1,1,0,1,NA,NA,NA,NA,NA,NA,NA,NA,NA,NA,NA,NA,NA,NA,NA,NA,NA,NA,NA,NA,NA,NA,NA,NA
"104","stim/objects/HouseObjects/rubbergloves2.png",157,42,157,0.9,"stim/43.jpeg",4,3,3,NA,"HouseObjects",1,2,"left","left",0.292999983,1,1,0,1,NA,NA,NA,NA,NA,NA,NA,NA,NA,NA,NA,NA,NA,NA,NA,NA,NA,NA,NA,NA,NA,NA,NA,NA
"128","stim/objects/Instruments/keyboard2.png",158,42,158,0.3,"stim/21.jpeg",2,1,2,NA,"Instruments",2,4,"right","right",0.139999866,1,1,0,1,NA,NA,NA,NA,NA,NA,NA,NA,NA,NA,NA,NA,NA,NA,NA,NA,NA,NA,NA,NA,NA,NA,NA,NA
"4","stim/objects/HouseObjects/iron.png",159,42,159,0.5,"stim/51.jpeg",5,1,1,NA,"HouseObjects",1,1,"left","left",0.092000008,1,1,0,1,NA,NA,NA,NA,NA,NA,NA,NA,NA,NA,NA,NA,NA,NA,NA,NA,NA,NA,NA,NA,NA,NA,NA,NA
"60","stim/objects/HouseObjects/match2.png",160,42,160,0.1,"stim/32.jpeg",3,2,3,NA,"HouseObjects",1,4,"left","right",0.10800004,0,0,0,1,NA,NA,NA,NA,NA,NA,NA,NA,NA,NA,NA,NA,NA,NA,NA,NA,NA,NA,NA,NA,NA,NA,NA,NA
"232","stim/objects/Instruments/record_player2.png",161,42,161,0.1,"stim/44.jpeg",4,4,3,NA,"Instruments",2,3,"right","left",0.454999924,0,0,0,1,NA,NA,NA,NA,NA,NA,NA,NA,NA,NA,NA,NA,NA,NA,NA,NA,NA,NA,NA,NA,NA,NA,NA,NA
"182","stim/objects/Instruments/musicstand.png",162,42,162,0.5,"stim/63.jpeg",6,3,1,NA,"Instruments",2,4,"right","left",0.250999928,0,0,0,1,NA,NA,NA,NA,NA,NA,NA,NA,NA,NA,NA,NA,NA,NA,NA,NA,NA,NA,NA,NA,NA,NA,NA,NA
"162","stim/objects/Instruments/metronome2.png",163,42,163,0.9,"stim/31.jpeg",3,1,3,NA,"Instruments",2,1,"right","left",0.224999905,0,0,0,1,NA,NA,NA,NA,NA,NA,NA,NA,NA,NA,NA,NA,NA,NA,NA,NA,NA,NA,NA,NA,NA,NA,NA,NA
"236","stim/objects/Instruments/record.png",164,42,164,0.7,"stim/13.jpeg",1,3,2,NA,"Instruments",2,4,"right","left",0.159999847,0,0,0,1,NA,NA,NA,NA,NA,NA,NA,NA,NA,NA,NA,NA,NA,NA,NA,NA,NA,NA,NA,NA,NA,NA,NA,NA
"51","stim/objects/HouseObjects/lintroller.png",165,42,165,0.5,"stim/61.jpeg",6,1,1,NA,"HouseObjects",1,2,"left","right",0.059000015,0,0,0,1,NA,NA,NA,NA,NA,NA,NA,NA,NA,NA,NA,NA,NA,NA,NA,NA,NA,NA,NA,NA,NA,NA,NA,NA
"170","stim/objects/Instruments/musicsheet.png",166,42,166,0.5,"stim/62.jpeg",6,2,1,NA,"Instruments",2,1,"right","left",0.098999977,0,0,0,1,NA,NA,NA,NA,NA,NA,NA,NA,NA,NA,NA,NA,NA,NA,NA,NA,NA,NA,NA,NA,NA,NA,NA,NA
"59","stim/objects/HouseObjects/match.png",167,42,167,0.5,"stim/62.jpeg",6,2,1,NA,"HouseObjects",1,4,"left","right",0.001999855,0,0,0,1,NA,NA,NA,NA,NA,NA,NA,NA,NA,NA,NA,NA,NA,NA,NA,NA,NA,NA,NA,NA,NA,NA,NA,NA
"66","stim/objects/HouseObjects/pan2.png",168,42,168,0.1,"stim/33.jpeg",3,3,3,NA,"HouseObjects",1,4,"left","left",0.471999884,1,1,0,1,NA,NA,NA,NA,NA,NA,NA,NA,NA,NA,NA,NA,NA,NA,NA,NA,NA,NA,NA,NA,NA,NA,NA,NA
"237","stim/objects/Instruments/record.png",169,42,169,0.7,"stim/13.jpeg",1,3,2,NA,"Instruments",2,2,"right","left",0.071999788,0,0,0,1,NA,NA,NA,NA,NA,NA,NA,NA,NA,NA,NA,NA,NA,NA,NA,NA,NA,NA,NA,NA,NA,NA,NA,NA
"23","stim/objects/HouseObjects/ironingboard2.png",170,42,170,0.7,"stim/22.jpeg",2,2,2,NA,"HouseObjects",1,4,"left","right",0.144999981,0,0,0,1,NA,NA,NA,NA,NA,NA,NA,NA,NA,NA,NA,NA,NA,NA,NA,NA,NA,NA,NA,NA,NA,NA,NA,NA
"75","stim/objects/HouseObjects/recyclingbin.png",171,42,171,0.3,"stim/11.jpeg",1,1,2,NA,"HouseObjects",1,4,"left","right",0.211999893,0,0,0,1,NA,NA,NA,NA,NA,NA,NA,NA,NA,NA,NA,NA,NA,NA,NA,NA,NA,NA,NA,NA,NA,NA,NA,NA
"87","stim/objects/HouseObjects/remote.png",172,42,172,0.3,"stim/12.jpeg",1,2,2,NA,"HouseObjects",1,2,"left","left",0.070999861,1,1,0,1,NA,NA,NA,NA,NA,NA,NA,NA,NA,NA,NA,NA,NA,NA,NA,NA,NA,NA,NA,NA,NA,NA,NA,NA
"214","stim/objects/Instruments/panflute.png",173,42,173,0.7,"stim/11.jpeg",1,1,2,NA,"Instruments",2,3,"right","left",0.263000011,0,0,0,1,NA,NA,NA,NA,NA,NA,NA,NA,NA,NA,NA,NA,NA,NA,NA,NA,NA,NA,NA,NA,NA,NA,NA,NA
"10","stim/objects/HouseObjects/iron2.png",174,42,174,0.7,"stim/21.jpeg",2,1,2,NA,"HouseObjects",1,1,"left","right",0.084000111,0,0,0,1,NA,NA,NA,NA,NA,NA,NA,NA,NA,NA,NA,NA,NA,NA,NA,NA,NA,NA,NA,NA,NA,NA,NA,NA
"27","stim/objects/HouseObjects/key.png",175,42,175,0.5,"stim/53.jpeg",5,3,1,NA,"HouseObjects",1,2,"left","right",0.236999989,0,0,0,1,NA,NA,NA,NA,NA,NA,NA,NA,NA,NA,NA,NA,NA,NA,NA,NA,NA,NA,NA,NA,NA,NA,NA,NA
"52","stim/objects/HouseObjects/lintroller.png",176,42,176,0.5,"stim/61.jpeg",6,1,1,NA,"HouseObjects",1,2,"left","right",0.22699976,0,0,0,1,NA,NA,NA,NA,NA,NA,NA,NA,NA,NA,NA,NA,NA,NA,NA,NA,NA,NA,NA,NA,NA,NA,NA,NA
"83","stim/objects/HouseObjects/recyclingbin2.png",177,42,177,0.9,"stim/41.jpeg",4,1,3,NA,"HouseObjects",1,1,"left","left",0.103999853,1,1,0,1,NA,NA,NA,NA,NA,NA,NA,NA,NA,NA,NA,NA,NA,NA,NA,NA,NA,NA,NA,NA,NA,NA,NA,NA
"84","stim/objects/HouseObjects/recyclingbin2.png",178,42,178,0.9,"stim/41.jpeg",4,1,3,NA,"HouseObjects",1,3,"left","left",0.487999916,1,1,0,1,NA,NA,NA,NA,NA,NA,NA,NA,NA,NA,NA,NA,NA,NA,NA,NA,NA,NA,NA,NA,NA,NA,NA,NA
"198","stim/objects/Instruments/oboe.png",179,42,179,0.5,"stim/64.jpeg",6,4,1,NA,"Instruments",2,2,"right","right",0.394000053,1,1,0,1,NA,NA,NA,NA,NA,NA,NA,NA,NA,NA,NA,NA,NA,NA,NA,NA,NA,NA,NA,NA,NA,NA,NA,NA
"123","stim/objects/Instruments/keyboard.png",180,42,180,0.5,"stim/51.jpeg",5,1,1,NA,"Instruments",2,4,"right","right",0.078999996,1,1,0,1,NA,NA,NA,NA,NA,NA,NA,NA,NA,NA,NA,NA,NA,NA,NA,NA,NA,NA,NA,NA,NA,NA,NA,NA
"238","stim/objects/Instruments/record.png",181,42,181,0.7,"stim/13.jpeg",1,3,2,NA,"Instruments",2,1,"right","left",0.220999718,0,0,0,1,NA,NA,NA,NA,NA,NA,NA,NA,NA,NA,NA,NA,NA,NA,NA,NA,NA,NA,NA,NA,NA,NA,NA,NA
"221","stim/objects/Instruments/pipepiano.png",182,42,182,0.7,"stim/12.jpeg",1,2,2,NA,"Instruments",2,1,"right","right",0.340999842,1,1,0,1,NA,NA,NA,NA,NA,NA,NA,NA,NA,NA,NA,NA,NA,NA,NA,NA,NA,NA,NA,NA,NA,NA,NA,NA
"105","stim/objects/HouseObjects/rubbergloves2.png",183,42,183,0.9,"stim/43.jpeg",4,3,3,NA,"HouseObjects",1,1,"left","right",0.27699995,0,0,0,1,NA,NA,NA,NA,NA,NA,NA,NA,NA,NA,NA,NA,NA,NA,NA,NA,NA,NA,NA,NA,NA,NA,NA,NA
"163","stim/objects/Instruments/metronome2.png",184,42,184,0.9,"stim/31.jpeg",3,1,3,NA,"Instruments",2,4,"right","left",0.288999796,0,0,0,1,NA,NA,NA,NA,NA,NA,NA,NA,NA,NA,NA,NA,NA,NA,NA,NA,NA,NA,NA,NA,NA,NA,NA,NA
"229","stim/objects/Instruments/record_player.png",185,42,185,0.7,"stim/14.jpeg",1,4,2,NA,"Instruments",2,3,"right","right",0.625,1,1,0,1,NA,NA,NA,NA,NA,NA,NA,NA,NA,NA,NA,NA,NA,NA,NA,NA,NA,NA,NA,NA,NA,NA,NA,NA
"65","stim/objects/HouseObjects/pan.png",186,42,186,0.5,"stim/63.jpeg",6,3,1,NA,"HouseObjects",1,1,"left","left",0.330999851,1,1,0,1,NA,NA,NA,NA,NA,NA,NA,NA,NA,NA,NA,NA,NA,NA,NA,NA,NA,NA,NA,NA,NA,NA,NA,NA
"124","stim/objects/Instruments/keyboard.png",187,42,187,0.5,"stim/51.jpeg",5,1,1,NA,"Instruments",2,1,"right","left",0.115999937,0,0,0,1,NA,NA,NA,NA,NA,NA,NA,NA,NA,NA,NA,NA,NA,NA,NA,NA,NA,NA,NA,NA,NA,NA,NA,NA
"16","stim/objects/HouseObjects/ironingboard.png",188,42,188,0.5,"stim/52.jpeg",5,2,1,NA,"HouseObjects",1,3,"left","right",0.157999992,0,0,0,1,NA,NA,NA,NA,NA,NA,NA,NA,NA,NA,NA,NA,NA,NA,NA,NA,NA,NA,NA,NA,NA,NA,NA,NA
"183","stim/objects/Instruments/musicstand.png",189,42,189,0.5,"stim/63.jpeg",6,3,1,NA,"Instruments",2,3,"right","right",0.17599988,1,1,0,1,NA,NA,NA,NA,NA,NA,NA,NA,NA,NA,NA,NA,NA,NA,NA,NA,NA,NA,NA,NA,NA,NA,NA,NA
"17","stim/objects/HouseObjects/ironingboard.png",190,42,190,0.5,"stim/52.jpeg",5,2,1,NA,"HouseObjects",1,2,"left","right",0.188999891,0,0,0,1,NA,NA,NA,NA,NA,NA,NA,NA,NA,NA,NA,NA,NA,NA,NA,NA,NA,NA,NA,NA,NA,NA,NA,NA
"178","stim/objects/Instruments/musicsheet2.png",191,42,191,0.9,"stim/32.jpeg",3,2,3,NA,"Instruments",2,4,"right","right",0.542000055,1,1,0,1,NA,NA,NA,NA,NA,NA,NA,NA,NA,NA,NA,NA,NA,NA,NA,NA,NA,NA,NA,NA,NA,NA,NA,NA
"24","stim/objects/HouseObjects/ironingboard2.png",192,42,192,0.7,"stim/22.jpeg",2,2,2,NA,"HouseObjects",1,4,"left","left",0.194999933,1,1,0,1,NA,NA,NA,NA,NA,NA,NA,NA,NA,NA,NA,NA,NA,NA,NA,NA,NA,NA,NA,NA,NA,NA,NA,NA
"240","stim/objects/Instruments/record2.png",193,42,193,0.1,"stim/43.jpeg",4,3,3,NA,"Instruments",2,3,"right","right",0.082000017,1,1,0,1,NA,NA,NA,NA,NA,NA,NA,NA,NA,NA,NA,NA,NA,NA,NA,NA,NA,NA,NA,NA,NA,NA,NA,NA
"53","stim/objects/HouseObjects/lintroller.png",194,42,194,0.5,"stim/61.jpeg",6,1,1,NA,"HouseObjects",1,4,"left","left",0.249999762,1,1,0,1,NA,NA,NA,NA,NA,NA,NA,NA,NA,NA,NA,NA,NA,NA,NA,NA,NA,NA,NA,NA,NA,NA,NA,NA
"151","stim/objects/Instruments/marimba2.png",195,42,195,0.3,"stim/24.jpeg",2,4,2,NA,"Instruments",2,2,"right","right",0.062999964,1,1,0,1,NA,NA,NA,NA,NA,NA,NA,NA,NA,NA,NA,NA,NA,NA,NA,NA,NA,NA,NA,NA,NA,NA,NA,NA
"28","stim/objects/HouseObjects/key.png",196,42,196,0.5,"stim/53.jpeg",5,3,1,NA,"HouseObjects",1,4,"left","left",0.407999754,1,1,0,1,NA,NA,NA,NA,NA,NA,NA,NA,NA,NA,NA,NA,NA,NA,NA,NA,NA,NA,NA,NA,NA,NA,NA,NA
"35","stim/objects/HouseObjects/key2.png",197,42,197,0.7,"stim/23.jpeg",2,3,2,NA,"HouseObjects",1,3,"left","left",0.076999903,1,1,0,1,NA,NA,NA,NA,NA,NA,NA,NA,NA,NA,NA,NA,NA,NA,NA,NA,NA,NA,NA,NA,NA,NA,NA,NA
"136","stim/objects/Instruments/laud2.png",198,42,198,0.3,"stim/22.jpeg",2,2,2,NA,"Instruments",2,4,"right","right",0.058000088,1,1,0,1,NA,NA,NA,NA,NA,NA,NA,NA,NA,NA,NA,NA,NA,NA,NA,NA,NA,NA,NA,NA,NA,NA,NA,NA
"222","stim/objects/Instruments/pipepiano.png",199,42,199,0.7,"stim/12.jpeg",1,2,2,NA,"Instruments",2,3,"right","left",0.271999836,0,0,0,1,NA,NA,NA,NA,NA,NA,NA,NA,NA,NA,NA,NA,NA,NA,NA,NA,NA,NA,NA,NA,NA,NA,NA,NA
"106","stim/objects/HouseObjects/rubbergloves2.png",200,42,200,0.9,"stim/43.jpeg",4,3,3,NA,"HouseObjects",1,3,"left","right",0.115999937,0,0,0,1,NA,NA,NA,NA,NA,NA,NA,NA,NA,NA,NA,NA,NA,NA,NA,NA,NA,NA,NA,NA,NA,NA,NA,NA
"141","stim/objects/Instruments/maraca.png",201,42,201,0.5,"stim/53.jpeg",5,3,1,NA,"Instruments",2,3,"right","right",0.208999872,1,1,0,1,NA,NA,NA,NA,NA,NA,NA,NA,NA,NA,NA,NA,NA,NA,NA,NA,NA,NA,NA,NA,NA,NA,NA,NA
"69","stim/objects/HouseObjects/pitcher.png",202,42,202,0.5,"stim/64.jpeg",6,4,1,NA,"HouseObjects",1,3,"left","left",0.180000067,1,1,0,1,NA,NA,NA,NA,NA,NA,NA,NA,NA,NA,NA,NA,NA,NA,NA,NA,NA,NA,NA,NA,NA,NA,NA,NA
"36","stim/objects/HouseObjects/key2.png",203,42,203,0.7,"stim/23.jpeg",2,3,2,NA,"HouseObjects",1,2,"left","left",0.263999939,1,1,0,1,NA,NA,NA,NA,NA,NA,NA,NA,NA,NA,NA,NA,NA,NA,NA,NA,NA,NA,NA,NA,NA,NA,NA,NA
"171","stim/objects/Instruments/musicsheet.png",204,42,204,0.5,"stim/62.jpeg",6,2,1,NA,"Instruments",2,2,"right","left",0.053999901,0,0,0,1,NA,NA,NA,NA,NA,NA,NA,NA,NA,NA,NA,NA,NA,NA,NA,NA,NA,NA,NA,NA,NA,NA,NA,NA
"133","stim/objects/Instruments/laud.png",205,42,205,0.5,"stim/52.jpeg",5,2,1,NA,"Instruments",2,4,"right","right",0.299000025,1,1,0,1,NA,NA,NA,NA,NA,NA,NA,NA,NA,NA,NA,NA,NA,NA,NA,NA,NA,NA,NA,NA,NA,NA,NA,NA
"215","stim/objects/Instruments/panflute.png",206,42,206,0.7,"stim/11.jpeg",1,1,2,NA,"Instruments",2,2,"right","right",0.269999981,1,1,0,1,NA,NA,NA,NA,NA,NA,NA,NA,NA,NA,NA,NA,NA,NA,NA,NA,NA,NA,NA,NA,NA,NA,NA,NA
"54","stim/objects/HouseObjects/lintroller2.png",207,42,207,0.1,"stim/31.jpeg",3,1,3,NA,"HouseObjects",1,4,"left","left",0.279000044,1,1,0,1,NA,NA,NA,NA,NA,NA,NA,NA,NA,NA,NA,NA,NA,NA,NA,NA,NA,NA,NA,NA,NA,NA,NA,NA
"47","stim/objects/HouseObjects/knife2.png",208,42,208,0.7,"stim/24.jpeg",2,4,2,NA,"HouseObjects",1,4,"left","right",0.119999886,0,0,0,1,NA,NA,NA,NA,NA,NA,NA,NA,NA,NA,NA,NA,NA,NA,NA,NA,NA,NA,NA,NA,NA,NA,NA,NA
"194","stim/objects/Instruments/musicstand2.png",209,42,209,0.9,"stim/33.jpeg",3,3,3,NA,"Instruments",2,2,"right","left",0.302999973,0,0,0,1,NA,NA,NA,NA,NA,NA,NA,NA,NA,NA,NA,NA,NA,NA,NA,NA,NA,NA,NA,NA,NA,NA,NA,NA
"230","stim/objects/Instruments/record_player.png",210,42,210,0.7,"stim/14.jpeg",1,4,2,NA,"Instruments",2,3,"right","left",0.245999813,0,0,0,1,NA,NA,NA,NA,NA,NA,NA,NA,NA,NA,NA,NA,NA,NA,NA,NA,NA,NA,NA,NA,NA,NA,NA,NA
"70","stim/objects/HouseObjects/pitcher.png",211,42,211,0.5,"stim/64.jpeg",6,4,1,NA,"HouseObjects",1,4,"left","right",0.029999971,0,0,0,1,NA,NA,NA,NA,NA,NA,NA,NA,NA,NA,NA,NA,NA,NA,NA,NA,NA,NA,NA,NA,NA,NA,NA,NA
"164","stim/objects/Instruments/metronome2.png",212,42,212,0.9,"stim/31.jpeg",3,1,3,NA,"Instruments",2,2,"right","left",0.237999916,0,0,0,1,NA,NA,NA,NA,NA,NA,NA,NA,NA,NA,NA,NA,NA,NA,NA,NA,NA,NA,NA,NA,NA,NA,NA,NA
"208","stim/objects/Instruments/oboe2.png",213,42,213,0.9,"stim/34.jpeg",3,4,3,NA,"Instruments",2,2,"right","left",0.542999983,0,0,0,1,NA,NA,NA,NA,NA,NA,NA,NA,NA,NA,NA,NA,NA,NA,NA,NA,NA,NA,NA,NA,NA,NA,NA,NA
"184","stim/objects/Instruments/musicstand.png",214,42,214,0.5,"stim/63.jpeg",6,3,1,NA,"Instruments",2,2,"right","right",0.149999857,1,1,0,1,NA,NA,NA,NA,NA,NA,NA,NA,NA,NA,NA,NA,NA,NA,NA,NA,NA,NA,NA,NA,NA,NA,NA,NA
"231","stim/objects/Instruments/record_player.png",215,42,215,0.7,"stim/14.jpeg",1,4,2,NA,"Instruments",2,1,"right","right",0.143000126,1,1,0,1,NA,NA,NA,NA,NA,NA,NA,NA,NA,NA,NA,NA,NA,NA,NA,NA,NA,NA,NA,NA,NA,NA,NA,NA
"29","stim/objects/HouseObjects/key.png",216,42,216,0.5,"stim/53.jpeg",5,3,1,NA,"HouseObjects",1,4,"left","left",0.246999979,1,1,0,1,NA,NA,NA,NA,NA,NA,NA,NA,NA,NA,NA,NA,NA,NA,NA,NA,NA,NA,NA,NA,NA,NA,NA,NA
"239","stim/objects/Instruments/record.png",217,42,217,0.7,"stim/13.jpeg",1,3,2,NA,"Instruments",2,4,"right","right",0.30099988,1,1,0,1,NA,NA,NA,NA,NA,NA,NA,NA,NA,NA,NA,NA,NA,NA,NA,NA,NA,NA,NA,NA,NA,NA,NA,NA
"165","stim/objects/Instruments/metronome2.png",218,42,218,0.9,"stim/31.jpeg",3,1,3,NA,"Instruments",2,3,"right","left",0.386999846,0,0,0,1,NA,NA,NA,NA,NA,NA,NA,NA,NA,NA,NA,NA,NA,NA,NA,NA,NA,NA,NA,NA,NA,NA,NA,NA
"223","stim/objects/Instruments/pipepiano.png",219,42,219,0.7,"stim/12.jpeg",1,2,2,NA,"Instruments",2,1,"right","right",0.299000025,1,1,0,1,NA,NA,NA,NA,NA,NA,NA,NA,NA,NA,NA,NA,NA,NA,NA,NA,NA,NA,NA,NA,NA,NA,NA,NA
"125","stim/objects/Instruments/keyboard.png",220,42,220,0.5,"stim/51.jpeg",5,1,1,NA,"Instruments",2,4,"right","left",0.387999773,0,0,0,1,NA,NA,NA,NA,NA,NA,NA,NA,NA,NA,NA,NA,NA,NA,NA,NA,NA,NA,NA,NA,NA,NA,NA,NA
"11","stim/objects/HouseObjects/iron2.png",221,42,221,0.7,"stim/21.jpeg",2,1,2,NA,"HouseObjects",1,2,"left","right",0.409999847,0,0,0,1,NA,NA,NA,NA,NA,NA,NA,NA,NA,NA,NA,NA,NA,NA,NA,NA,NA,NA,NA,NA,NA,NA,NA,NA
"199","stim/objects/Instruments/oboe.png",222,42,222,0.5,"stim/64.jpeg",6,4,1,NA,"Instruments",2,3,"right","right",0.014999866,1,1,0,1,NA,NA,NA,NA,NA,NA,NA,NA,NA,NA,NA,NA,NA,NA,NA,NA,NA,NA,NA,NA,NA,NA,NA,NA
"152","stim/objects/Instruments/marimba2.png",223,42,223,0.3,"stim/24.jpeg",2,4,2,NA,"Instruments",2,3,"right","left",0.091999769,0,0,0,1,NA,NA,NA,NA,NA,NA,NA,NA,NA,NA,NA,NA,NA,NA,NA,NA,NA,NA,NA,NA,NA,NA,NA,NA
"179","stim/objects/Instruments/musicsheet2.png",224,42,224,0.9,"stim/32.jpeg",3,2,3,NA,"Instruments",2,4,"right","right",0.282000065,1,1,0,1,NA,NA,NA,NA,NA,NA,NA,NA,NA,NA,NA,NA,NA,NA,NA,NA,NA,NA,NA,NA,NA,NA,NA,NA
"99","stim/objects/HouseObjects/rubbergloves.png",225,42,225,0.3,"stim/13.jpeg",1,3,2,NA,"HouseObjects",1,4,"left","left",0.611999989,1,1,0,1,NA,NA,NA,NA,NA,NA,NA,NA,NA,NA,NA,NA,NA,NA,NA,NA,NA,NA,NA,NA,NA,NA,NA,NA
"216","stim/objects/Instruments/panflute2.png",226,42,226,0.1,"stim/41.jpeg",4,1,3,NA,"Instruments",2,1,"right","right",0.81099987,1,1,0,1,NA,NA,NA,NA,NA,NA,NA,NA,NA,NA,NA,NA,NA,NA,NA,NA,NA,NA,NA,NA,NA,NA,NA,NA
"157","stim/objects/Instruments/metronome.png",227,42,227,0.5,"stim/61.jpeg",6,1,1,NA,"Instruments",2,3,"right","right",0.648999929,1,1,0,1,NA,NA,NA,NA,NA,NA,NA,NA,NA,NA,NA,NA,NA,NA,NA,NA,NA,NA,NA,NA,NA,NA,NA,NA
"224","stim/objects/Instruments/pipepiano2.png",228,42,228,0.1,"stim/42.jpeg",4,2,3,NA,"Instruments",2,3,"right","right",0.464999914,1,1,0,1,NA,NA,NA,NA,NA,NA,NA,NA,NA,NA,NA,NA,NA,NA,NA,NA,NA,NA,NA,NA,NA,NA,NA,NA
"48","stim/objects/HouseObjects/knife2.png",229,42,229,0.7,"stim/24.jpeg",2,4,2,NA,"HouseObjects",1,3,"left","left",0.289999962,1,1,0,1,NA,NA,NA,NA,NA,NA,NA,NA,NA,NA,NA,NA,NA,NA,NA,NA,NA,NA,NA,NA,NA,NA,NA,NA
"96","stim/objects/HouseObjects/remote2.png",230,42,230,0.9,"stim/42.jpeg",4,2,3,NA,"HouseObjects",1,3,"left","right",0.204999924,0,0,0,1,NA,NA,NA,NA,NA,NA,NA,NA,NA,NA,NA,NA,NA,NA,NA,NA,NA,NA,NA,NA,NA,NA,NA,NA
"71","stim/objects/HouseObjects/pitcher.png",231,42,231,0.5,"stim/64.jpeg",6,4,1,NA,"HouseObjects",1,4,"left","right",0.056999922,0,0,0,1,NA,NA,NA,NA,NA,NA,NA,NA,NA,NA,NA,NA,NA,NA,NA,NA,NA,NA,NA,NA,NA,NA,NA,NA
"149","stim/objects/Instruments/marimba.png",232,42,232,0.5,"stim/54.jpeg",5,4,1,NA,"Instruments",2,2,"right","left",0.155999899,0,0,0,1,NA,NA,NA,NA,NA,NA,NA,NA,NA,NA,NA,NA,NA,NA,NA,NA,NA,NA,NA,NA,NA,NA,NA,NA
"107","stim/objects/HouseObjects/rubbergloves2.png",233,42,233,0.9,"stim/43.jpeg",4,3,3,NA,"HouseObjects",1,3,"left","left",0.002999783,1,1,0,1,NA,NA,NA,NA,NA,NA,NA,NA,NA,NA,NA,NA,NA,NA,NA,NA,NA,NA,NA,NA,NA,NA,NA,NA
"120","stim/objects/HouseObjects/rug2.png",234,42,234,0.9,"stim/44.jpeg",4,4,3,NA,"HouseObjects",1,1,"left","left",0.176000118,1,1,0,1,NA,NA,NA,NA,NA,NA,NA,NA,NA,NA,NA,NA,NA,NA,NA,NA,NA,NA,NA,NA,NA,NA,NA,NA
"166","stim/objects/Instruments/metronome2.png",235,42,235,0.9,"stim/31.jpeg",3,1,3,NA,"Instruments",2,2,"right","right",0.072999954,1,1,0,1,NA,NA,NA,NA,NA,NA,NA,NA,NA,NA,NA,NA,NA,NA,NA,NA,NA,NA,NA,NA,NA,NA,NA,NA
"5","stim/objects/HouseObjects/iron.png",236,42,236,0.5,"stim/51.jpeg",5,1,1,NA,"HouseObjects",1,1,"left","left",0.221999884,1,1,0,1,NA,NA,NA,NA,NA,NA,NA,NA,NA,NA,NA,NA,NA,NA,NA,NA,NA,NA,NA,NA,NA,NA,NA,NA
"12","stim/objects/HouseObjects/iron2.png",237,42,237,0.7,"stim/21.jpeg",2,1,2,NA,"HouseObjects",1,1,"left","right",0.217000008,0,0,0,1,NA,NA,NA,NA,NA,NA,NA,NA,NA,NA,NA,NA,NA,NA,NA,NA,NA,NA,NA,NA,NA,NA,NA,NA
"185","stim/objects/Instruments/musicstand.png",238,42,238,0.5,"stim/63.jpeg",6,3,1,NA,"Instruments",2,1,"right","left",0.083999872,0,0,0,1,NA,NA,NA,NA,NA,NA,NA,NA,NA,NA,NA,NA,NA,NA,NA,NA,NA,NA,NA,NA,NA,NA,NA,NA
"108","stim/objects/HouseObjects/rubbergloves2.png",239,42,239,0.9,"stim/43.jpeg",4,3,3,NA,"HouseObjects",1,2,"left","left",0.099999905,1,1,0,1,NA,NA,NA,NA,NA,NA,NA,NA,NA,NA,NA,NA,NA,NA,NA,NA,NA,NA,NA,NA,NA,NA,NA,NA
"180","stim/objects/Instruments/musicsheet2.png",240,42,240,0.9,"stim/32.jpeg",3,2,3,NA,"Instruments",2,4,"right","right",0.409999847,1,1,0,1,NA,NA,NA,NA,NA,NA,NA,NA,NA,NA,NA,NA,NA,NA,NA,NA,NA,NA,NA,NA,NA,NA,NA,NA
"271","stim/objects/HouseObjects/clothesdryingrack.png",248,42,241,0.7,"stim/22.jpeg",2,2,2,2,"HouseObjects",1,1,"left","right",0.708999872,0,0,1,0,NA,NA,NA,NA,NA,NA,NA,NA,NA,NA,NA,NA,NA,NA,NA,NA,NA,NA,NA,NA,NA,NA,NA,NA
"409","stim/objects/Instruments/acousticguitar.png",249,42,242,0.5,"stim/51.jpeg",5,1,1,2,"Instruments",2,3,"right","left",0.478999853,0,0,1,0,NA,NA,NA,NA,NA,NA,NA,NA,NA,NA,NA,NA,NA,NA,NA,NA,NA,NA,NA,NA,NA,NA,NA,NA
"389","stim/objects/HouseObjects/scale2.png",250,42,243,0.9,"stim/42.jpeg",4,2,3,1,"HouseObjects",1,4,"left","left",0.226999998,1,1,1,0,87,42,1,0.9,1,"stim/42.jpeg",4,2,"stim/42.jpeg",4,"right",0.942000151,2,4,0.609000206,3,0.565000296,87,0,0,NA,0,NA,0
"279","stim/objects/HouseObjects/coffee.png",251,42,244,0.7,"stim/24.jpeg",2,4,2,2,"HouseObjects",1,4,"left","left",0.328000069,1,1,1,0,NA,NA,NA,NA,NA,NA,NA,NA,NA,NA,NA,NA,NA,NA,NA,NA,NA,NA,NA,NA,NA,NA,NA,NA
"562","stim/objects/Instruments/trumpet2.png",252,42,245,0.1,"stim/44.jpeg",4,4,3,1,"Instruments",2,1,"right","left",0.170000076,0,0,1,0,198,42,1,0.1,2,"stim/44.jpeg",4,4,"stim/44.jpeg",1,"left",1.017000198,3,1,0.105000257,2,0.333000183,198,1,0,0,0,0,0
"430","stim/objects/Instruments/clarinet.png",253,42,246,0.5,"stim/61.jpeg",6,1,1,2,"Instruments",2,4,"right","right",0.289999962,1,1,1,0,NA,NA,NA,NA,NA,NA,NA,NA,NA,NA,NA,NA,NA,NA,NA,NA,NA,NA,NA,NA,NA,NA,NA,NA
"243","stim/objects/HouseObjects/ashtray2.png",254,42,247,0.3,"stim/12.jpeg",1,2,2,1,"HouseObjects",1,2,"left","right",0.144999981,0,0,1,0,186,42,1,0.3,1,"stim/12.jpeg",1,2,"stim/12.jpeg",2,"left",1.281000137,3,2,0.651000023,2,0.805000305,186,1,1,1,1,1,0
"391","stim/objects/HouseObjects/sponge2.png",255,42,248,0.9,"stim/43.jpeg",4,3,3,1,"HouseObjects",1,4,"left","left",0.136999846,1,1,1,0,21,42,1,0.9,1,"stim/43.jpeg",4,3,"stim/43.jpeg",4,"right",5.523000002,4,2,1.815999985,2,1.866000175,21,0,0,NA,0,NA,0
"267","stim/objects/HouseObjects/bucket2.png",256,42,249,0.7,"stim/23.jpeg",2,3,2,1,"HouseObjects",1,3,"left","left",0.177999735,1,1,1,0,91,42,1,0.7,1,"stim/23.jpeg",2,3,"stim/23.jpeg",3,"right",1.033000231,2,1,0.454000235,3,0.711000204,91,0,0,NA,1,NA,0
"508","stim/objects/Instruments/gong.png",257,42,250,0.9,"stim/31.jpeg",3,1,3,2,"Instruments",2,4,"right","left",0.402999878,0,0,1,0,NA,NA,NA,NA,NA,NA,NA,NA,NA,NA,NA,NA,NA,NA,NA,NA,NA,NA,NA,NA,NA,NA,NA,NA
"265","stim/objects/HouseObjects/bucket.png",258,42,251,0.5,"stim/63.jpeg",6,3,1,2,"HouseObjects",1,2,"left","right",0.314999819,0,0,1,0,NA,NA,NA,NA,NA,NA,NA,NA,NA,NA,NA,NA,NA,NA,NA,NA,NA,NA,NA,NA,NA,NA,NA,NA
"342","stim/objects/HouseObjects/garbagebin.png",259,42,252,0.9,"stim/42.jpeg",4,2,3,2,"HouseObjects",1,1,"left","left",0.12899971,1,1,1,0,NA,NA,NA,NA,NA,NA,NA,NA,NA,NA,NA,NA,NA,NA,NA,NA,NA,NA,NA,NA,NA,NA,NA,NA
"396","stim/objects/HouseObjects/thermometer.png",260,42,253,0.3,"stim/11.jpeg",1,1,2,1,"HouseObjects",1,1,"left","left",0.429000139,1,1,1,0,71,42,1,0.3,1,"stim/11.jpeg",1,1,"stim/11.jpeg",1,"left",0.75600028,2,1,0.394000292,3,0.365999937,71,1,1,1,0,0,0
"382","stim/objects/HouseObjects/handvacuum.png",261,42,254,0.5,"stim/52.jpeg",5,2,1,1,"HouseObjects",1,4,"left","left",0.001999855,1,1,1,0,187,42,1,0.5,1,"stim/52.jpeg",5,2,"stim/52.jpeg",4,"right",0.72200036,3,3,0.409000158,2,0.450000048,187,0,0,NA,0,NA,0
"377","stim/objects/HouseObjects/glassmop2.png",262,42,255,0.1,"stim/32.jpeg",3,2,3,1,"HouseObjects",1,3,"left","right",0.19900012,0,0,1,0,124,42,1,0.1,1,"stim/32.jpeg",3,2,"stim/32.jpeg",3,"right",1.830000162,3,4,0.467000246,3,0.392000198,124,0,0,NA,1,NA,0
"275","stim/objects/HouseObjects/clothespin.png",263,42,256,0.7,"stim/23.jpeg",2,3,2,2,"HouseObjects",1,2,"left","right",0.292999983,0,0,1,0,NA,NA,NA,NA,NA,NA,NA,NA,NA,NA,NA,NA,NA,NA,NA,NA,NA,NA,NA,NA,NA,NA,NA,NA
"327","stim/objects/HouseObjects/flyswatter.png",264,42,257,0.9,"stim/43.jpeg",4,3,3,2,"HouseObjects",1,4,"left","left",0.359999895,1,1,1,0,NA,NA,NA,NA,NA,NA,NA,NA,NA,NA,NA,NA,NA,NA,NA,NA,NA,NA,NA,NA,NA,NA,NA,NA
"276","stim/objects/HouseObjects/clothespin.png",265,42,258,0.7,"stim/22.jpeg",2,2,2,2,"HouseObjects",1,1,"left","left",0.429000139,1,1,1,0,NA,NA,NA,NA,NA,NA,NA,NA,NA,NA,NA,NA,NA,NA,NA,NA,NA,NA,NA,NA,NA,NA,NA,NA
"308","stim/objects/HouseObjects/dustpan.png",266,42,259,0.9,"stim/44.jpeg",4,4,3,2,"HouseObjects",1,1,"left","left",0.479999781,1,1,1,0,NA,NA,NA,NA,NA,NA,NA,NA,NA,NA,NA,NA,NA,NA,NA,NA,NA,NA,NA,NA,NA,NA,NA,NA
"420","stim/objects/Instruments/bassdrum2.png",267,42,260,0.7,"stim/13.jpeg",1,3,2,1,"Instruments",2,1,"right","right",0.738999844,1,1,1,0,90,42,1,0.7,2,"stim/13.jpeg",1,3,"stim/13.jpeg",1,"right",0.662000179,2,3,0.476000309,4,0.640000105,90,0,1,NA,0,NA,0
"291","stim/objects/HouseObjects/doormat.png",268,42,261,0.9,"stim/42.jpeg",4,2,3,2,"HouseObjects",1,1,"left","right",0.88499999,0,0,1,0,NA,NA,NA,NA,NA,NA,NA,NA,NA,NA,NA,NA,NA,NA,NA,NA,NA,NA,NA,NA,NA,NA,NA,NA
"328","stim/objects/HouseObjects/flyswatter.png",269,42,262,0.9,"stim/44.jpeg",4,4,3,2,"HouseObjects",1,3,"left","left",0.280999899,1,1,1,0,NA,NA,NA,NA,NA,NA,NA,NA,NA,NA,NA,NA,NA,NA,NA,NA,NA,NA,NA,NA,NA,NA,NA,NA
"359","stim/objects/HouseObjects/glass.png",270,42,263,0.9,"stim/42.jpeg",4,2,3,2,"HouseObjects",1,4,"left","left",0.303999901,1,1,1,0,NA,NA,NA,NA,NA,NA,NA,NA,NA,NA,NA,NA,NA,NA,NA,NA,NA,NA,NA,NA,NA,NA,NA,NA
"524","stim/objects/Instruments/grandpiano.png",271,42,264,0.9,"stim/32.jpeg",3,2,3,2,"Instruments",2,1,"right","left",0.2099998,0,0,1,0,NA,NA,NA,NA,NA,NA,NA,NA,NA,NA,NA,NA,NA,NA,NA,NA,NA,NA,NA,NA,NA,NA,NA,NA
"447","stim/objects/Instruments/drums2.png",272,42,265,0.3,"stim/21.jpeg",2,1,2,1,"Instruments",2,3,"right","right",0.509000063,1,1,1,0,26,42,1,0.3,2,"stim/21.jpeg",2,1,"stim/21.jpeg",3,"left",0.906000137,4,1,3.161000013,3,1.61400032,26,1,1,1,1,1,0
"329","stim/objects/HouseObjects/flyswatter.png",273,42,266,0.9,"stim/43.jpeg",4,3,3,2,"HouseObjects",1,1,"left","right",0.242999792,0,0,1,0,NA,NA,NA,NA,NA,NA,NA,NA,NA,NA,NA,NA,NA,NA,NA,NA,NA,NA,NA,NA,NA,NA,NA,NA
"474","stim/objects/Instruments/flutetrans.png",274,42,267,0.9,"stim/34.jpeg",3,4,3,2,"Instruments",2,3,"right","left",0.259999752,0,0,1,0,NA,NA,NA,NA,NA,NA,NA,NA,NA,NA,NA,NA,NA,NA,NA,NA,NA,NA,NA,NA,NA,NA,NA,NA
"361","stim/objects/HouseObjects/glass.png",275,42,268,0.9,"stim/42.jpeg",4,2,3,2,"HouseObjects",1,3,"left","left",0.249000072,1,1,1,0,NA,NA,NA,NA,NA,NA,NA,NA,NA,NA,NA,NA,NA,NA,NA,NA,NA,NA,NA,NA,NA,NA,NA,NA
"292","stim/objects/HouseObjects/doormat.png",276,42,269,0.9,"stim/41.jpeg",4,1,3,2,"HouseObjects",1,2,"left","right",0.001999855,0,0,1,0,NA,NA,NA,NA,NA,NA,NA,NA,NA,NA,NA,NA,NA,NA,NA,NA,NA,NA,NA,NA,NA,NA,NA,NA
"309","stim/objects/HouseObjects/dustpan.png",277,42,270,0.9,"stim/42.jpeg",4,2,3,2,"HouseObjects",1,1,"left","left",0.115999937,1,1,1,0,NA,NA,NA,NA,NA,NA,NA,NA,NA,NA,NA,NA,NA,NA,NA,NA,NA,NA,NA,NA,NA,NA,NA,NA
"384","stim/objects/HouseObjects/safetypin.png",278,42,271,0.5,"stim/53.jpeg",5,3,1,1,"HouseObjects",1,3,"left","left",0.547999859,1,1,1,0,20,42,1,0.5,1,"stim/53.jpeg",5,3,"stim/53.jpeg",3,"left",1.575999975,3,1,2.274000168,2,2.252000093,20,1,0,0,0,0,0
"440","stim/objects/Instruments/doublebass.png",279,42,272,0.7,"stim/11.jpeg",1,1,2,2,"Instruments",2,1,"right","right",0.260999918,1,1,1,0,NA,NA,NA,NA,NA,NA,NA,NA,NA,NA,NA,NA,NA,NA,NA,NA,NA,NA,NA,NA,NA,NA,NA,NA
"282","stim/objects/HouseObjects/coffee2.png",280,42,273,0.7,"stim/23.jpeg",2,3,2,1,"HouseObjects",1,2,"left","right",0.223999977,0,0,1,0,92,42,1,0.7,1,"stim/23.jpeg",2,3,"stim/23.jpeg",2,"left",1.410000324,1,2,0.491000175,3,0.440000057,92,1,0,0,0,0,0
"406","stim/objects/Instruments/accordion.png",281,42,274,0.5,"stim/54.jpeg",5,4,1,2,"Instruments",2,4,"right","left",0.295000076,0,0,1,0,NA,NA,NA,NA,NA,NA,NA,NA,NA,NA,NA,NA,NA,NA,NA,NA,NA,NA,NA,NA,NA,NA,NA,NA
"525","stim/objects/Instruments/grandpiano.png",282,42,275,0.9,"stim/34.jpeg",3,4,3,2,"Instruments",2,1,"right","left",0.097999811,0,0,1,0,NA,NA,NA,NA,NA,NA,NA,NA,NA,NA,NA,NA,NA,NA,NA,NA,NA,NA,NA,NA,NA,NA,NA,NA
"510","stim/objects/Instruments/gong.png",283,42,276,0.9,"stim/32.jpeg",3,2,3,2,"Instruments",2,3,"right","left",0.24000001,0,0,1,0,NA,NA,NA,NA,NA,NA,NA,NA,NA,NA,NA,NA,NA,NA,NA,NA,NA,NA,NA,NA,NA,NA,NA,NA
"526","stim/objects/Instruments/grandpiano.png",284,42,277,0.9,"stim/33.jpeg",3,3,3,2,"Instruments",2,2,"right","right",0.11500001,1,1,1,0,NA,NA,NA,NA,NA,NA,NA,NA,NA,NA,NA,NA,NA,NA,NA,NA,NA,NA,NA,NA,NA,NA,NA,NA
"310","stim/objects/HouseObjects/dustpan.png",285,42,278,0.9,"stim/43.jpeg",4,3,3,2,"HouseObjects",1,2,"left","right",0.074999809,0,0,1,0,NA,NA,NA,NA,NA,NA,NA,NA,NA,NA,NA,NA,NA,NA,NA,NA,NA,NA,NA,NA,NA,NA,NA,NA
"330","stim/objects/HouseObjects/flyswatter.png",286,42,279,0.9,"stim/41.jpeg",4,1,3,2,"HouseObjects",1,1,"left","left",0.224999905,1,1,1,0,NA,NA,NA,NA,NA,NA,NA,NA,NA,NA,NA,NA,NA,NA,NA,NA,NA,NA,NA,NA,NA,NA,NA,NA
"527","stim/objects/Instruments/grandpiano.png",287,42,280,0.9,"stim/32.jpeg",3,2,3,2,"Instruments",2,1,"right","left",0.552999735,0,0,1,0,NA,NA,NA,NA,NA,NA,NA,NA,NA,NA,NA,NA,NA,NA,NA,NA,NA,NA,NA,NA,NA,NA,NA,NA
"401","stim/objects/HouseObjects/towel2.png",288,42,281,0.9,"stim/44.jpeg",4,4,3,1,"HouseObjects",1,3,"left","right",0.187999964,0,0,1,0,189,42,1,0.9,1,"stim/44.jpeg",4,4,"stim/44.jpeg",3,"right",0.879000187,2,2,0.416000128,2,0.286000252,189,0,0,NA,0,NA,0
"567","stim/objects/Instruments/vuvuzela.png",289,42,282,0.7,"stim/11.jpeg",1,1,2,1,"Instruments",2,2,"right","left",0.208999872,0,0,1,0,137,42,1,0.7,2,"stim/11.jpeg",1,1,"stim/11.jpeg",2,"right",0.920000076,2,3,0.328000069,2,0.252000093,137,0,0,NA,1,NA,0
"541","stim/objects/Instruments/guitarcase.png",290,42,283,0.5,"stim/52.jpeg",5,2,1,1,"Instruments",2,3,"right","left",0.184999943,0,0,1,0,99,42,1,0.5,1,"stim/52.jpeg",5,2,"stim/52.jpeg",3,"right",1.238000154,2,3,0.658000231,1,0.361000299,99,0,0,NA,0,NA,0
"452","stim/objects/Instruments/electricguitar.png",291,42,284,0.7,"stim/13.jpeg",1,3,2,2,"Instruments",2,2,"right","right",0.343999863,1,1,1,0,NA,NA,NA,NA,NA,NA,NA,NA,NA,NA,NA,NA,NA,NA,NA,NA,NA,NA,NA,NA,NA,NA,NA,NA
"407","stim/objects/Instruments/accordion.png",292,42,285,0.5,"stim/51.jpeg",5,1,1,2,"Instruments",2,2,"right","left",0.213999987,0,0,1,0,NA,NA,NA,NA,NA,NA,NA,NA,NA,NA,NA,NA,NA,NA,NA,NA,NA,NA,NA,NA,NA,NA,NA,NA
"511","stim/objects/Instruments/gong.png",293,42,286,0.9,"stim/34.jpeg",3,4,3,2,"Instruments",2,4,"right","right",0.0849998,1,1,1,0,NA,NA,NA,NA,NA,NA,NA,NA,NA,NA,NA,NA,NA,NA,NA,NA,NA,NA,NA,NA,NA,NA,NA,NA
"421","stim/objects/Instruments/bassguitar.png",294,42,287,0.5,"stim/62.jpeg",6,2,1,2,"Instruments",2,4,"right","right",0.082999945,1,1,1,0,NA,NA,NA,NA,NA,NA,NA,NA,NA,NA,NA,NA,NA,NA,NA,NA,NA,NA,NA,NA,NA,NA,NA,NA
"362","stim/objects/HouseObjects/glass.png",295,42,288,0.9,"stim/41.jpeg",4,1,3,2,"HouseObjects",1,4,"left","right",0.16899991,0,0,1,0,NA,NA,NA,NA,NA,NA,NA,NA,NA,NA,NA,NA,NA,NA,NA,NA,NA,NA,NA,NA,NA,NA,NA,NA
"441","stim/objects/Instruments/doublebass.png",296,42,289,0.7,"stim/12.jpeg",1,2,2,2,"Instruments",2,1,"right","right",0.142999887,1,1,1,0,NA,NA,NA,NA,NA,NA,NA,NA,NA,NA,NA,NA,NA,NA,NA,NA,NA,NA,NA,NA,NA,NA,NA,NA
"410","stim/objects/Instruments/acousticguitar.png",297,42,290,0.5,"stim/52.jpeg",5,2,1,2,"Instruments",2,1,"right","left",0.292000055,0,0,1,0,NA,NA,NA,NA,NA,NA,NA,NA,NA,NA,NA,NA,NA,NA,NA,NA,NA,NA,NA,NA,NA,NA,NA,NA
"287","stim/objects/HouseObjects/dishsoap.png",298,42,291,0.7,"stim/23.jpeg",2,3,2,2,"HouseObjects",1,1,"left","right",0.277999878,0,0,1,0,NA,NA,NA,NA,NA,NA,NA,NA,NA,NA,NA,NA,NA,NA,NA,NA,NA,NA,NA,NA,NA,NA,NA,NA
"459","stim/objects/Instruments/flute.png",299,42,292,0.9,"stim/31.jpeg",3,1,3,2,"Instruments",2,2,"right","left",0.240999937,0,0,1,0,NA,NA,NA,NA,NA,NA,NA,NA,NA,NA,NA,NA,NA,NA,NA,NA,NA,NA,NA,NA,NA,NA,NA,NA
"561","stim/objects/Instruments/trumpet.png",300,42,293,0.7,"stim/12.jpeg",1,2,2,1,"Instruments",2,4,"right","right",0.082999945,1,1,1,0,76,42,1,0.7,2,"stim/12.jpeg",1,2,"stim/12.jpeg",4,"left",0.71600008,2,2,1.144999981,4,1.611000061,76,1,1,1,1,1,0
"448","stim/objects/Instruments/electricdrumset.png",301,42,294,0.7,"stim/12.jpeg",1,2,2,2,"Instruments",2,1,"right","right",0.210999966,1,1,1,0,NA,NA,NA,NA,NA,NA,NA,NA,NA,NA,NA,NA,NA,NA,NA,NA,NA,NA,NA,NA,NA,NA,NA,NA
"343","stim/objects/HouseObjects/garbagebin.png",302,42,295,0.9,"stim/41.jpeg",4,1,3,2,"HouseObjects",1,2,"left","right",0.261999846,0,0,1,0,NA,NA,NA,NA,NA,NA,NA,NA,NA,NA,NA,NA,NA,NA,NA,NA,NA,NA,NA,NA,NA,NA,NA,NA
"333","stim/objects/HouseObjects/flyswatter.png",303,42,296,0.9,"stim/43.jpeg",4,3,3,2,"HouseObjects",1,4,"left","left",0.340999842,1,1,1,0,NA,NA,NA,NA,NA,NA,NA,NA,NA,NA,NA,NA,NA,NA,NA,NA,NA,NA,NA,NA,NA,NA,NA,NA
"460","stim/objects/Instruments/flute.png",304,42,297,0.9,"stim/31.jpeg",3,1,3,2,"Instruments",2,2,"right","left",0.470000029,0,0,1,0,NA,NA,NA,NA,NA,NA,NA,NA,NA,NA,NA,NA,NA,NA,NA,NA,NA,NA,NA,NA,NA,NA,NA,NA
"344","stim/objects/HouseObjects/garbagebin.png",305,42,298,0.9,"stim/43.jpeg",4,3,3,2,"HouseObjects",1,2,"left","right",0.326999903,0,0,1,0,NA,NA,NA,NA,NA,NA,NA,NA,NA,NA,NA,NA,NA,NA,NA,NA,NA,NA,NA,NA,NA,NA,NA,NA
"256","stim/objects/HouseObjects/blender.png",306,42,299,0.5,"stim/63.jpeg",6,3,1,2,"HouseObjects",1,4,"left","left",0.211999893,1,1,1,0,NA,NA,NA,NA,NA,NA,NA,NA,NA,NA,NA,NA,NA,NA,NA,NA,NA,NA,NA,NA,NA,NA,NA,NA
"453","stim/objects/Instruments/electricguitar.png",307,42,300,0.7,"stim/14.jpeg",1,4,2,2,"Instruments",2,4,"right","left",0.290999889,0,0,1,0,NA,NA,NA,NA,NA,NA,NA,NA,NA,NA,NA,NA,NA,NA,NA,NA,NA,NA,NA,NA,NA,NA,NA,NA
"345","stim/objects/HouseObjects/garbagebin.png",308,42,301,0.9,"stim/44.jpeg",4,4,3,2,"HouseObjects",1,3,"left","left",0.20299983,1,1,1,0,NA,NA,NA,NA,NA,NA,NA,NA,NA,NA,NA,NA,NA,NA,NA,NA,NA,NA,NA,NA,NA,NA,NA,NA
"363","stim/objects/HouseObjects/glass.png",309,42,302,0.9,"stim/41.jpeg",4,1,3,2,"HouseObjects",1,2,"left","left",0.307999849,1,1,1,0,NA,NA,NA,NA,NA,NA,NA,NA,NA,NA,NA,NA,NA,NA,NA,NA,NA,NA,NA,NA,NA,NA,NA,NA
"475","stim/objects/Instruments/flutetrans.png",310,42,303,0.9,"stim/32.jpeg",3,2,3,2,"Instruments",2,1,"right","left",0.128999949,0,0,1,0,NA,NA,NA,NA,NA,NA,NA,NA,NA,NA,NA,NA,NA,NA,NA,NA,NA,NA,NA,NA,NA,NA,NA,NA
"247","stim/objects/HouseObjects/barbecuelighter.png",311,42,304,0.5,"stim/53.jpeg",5,3,1,2,"HouseObjects",1,1,"left","right",0.041000128,0,0,1,0,NA,NA,NA,NA,NA,NA,NA,NA,NA,NA,NA,NA,NA,NA,NA,NA,NA,NA,NA,NA,NA,NA,NA,NA
"431","stim/objects/Instruments/clarinet.png",312,42,305,0.5,"stim/62.jpeg",6,2,1,2,"Instruments",2,2,"right","right",0.001999855,1,1,1,0,NA,NA,NA,NA,NA,NA,NA,NA,NA,NA,NA,NA,NA,NA,NA,NA,NA,NA,NA,NA,NA,NA,NA,NA
"346","stim/objects/HouseObjects/garbagebin.png",313,42,306,0.9,"stim/41.jpeg",4,1,3,2,"HouseObjects",1,3,"left","left",0.001999855,1,1,1,0,NA,NA,NA,NA,NA,NA,NA,NA,NA,NA,NA,NA,NA,NA,NA,NA,NA,NA,NA,NA,NA,NA,NA,NA
"437","stim/objects/Instruments/cymbal.png",314,42,307,0.7,"stim/14.jpeg",1,4,2,2,"Instruments",2,2,"right","right",0.403999805,1,1,1,0,NA,NA,NA,NA,NA,NA,NA,NA,NA,NA,NA,NA,NA,NA,NA,NA,NA,NA,NA,NA,NA,NA,NA,NA
"554","stim/objects/Instruments/tambourine2.png",315,42,308,0.1,"stim/44.jpeg",4,4,3,1,"Instruments",2,4,"right","right",0.259000063,1,1,1,0,144,42,1,0.1,2,"stim/44.jpeg",4,4,"stim/44.jpeg",4,"right",0.929000139,3,2,0.275000095,1,0.411000252,144,0,0,NA,0,NA,0
"364","stim/objects/HouseObjects/glass.png",316,42,309,0.9,"stim/41.jpeg",4,1,3,2,"HouseObjects",1,4,"left","right",0.207999945,0,0,1,0,NA,NA,NA,NA,NA,NA,NA,NA,NA,NA,NA,NA,NA,NA,NA,NA,NA,NA,NA,NA,NA,NA,NA,NA
"312","stim/objects/HouseObjects/dustpan.png",317,42,310,0.9,"stim/42.jpeg",4,2,3,2,"HouseObjects",1,3,"left","left",0.115999937,1,1,1,0,NA,NA,NA,NA,NA,NA,NA,NA,NA,NA,NA,NA,NA,NA,NA,NA,NA,NA,NA,NA,NA,NA,NA,NA
"395","stim/objects/HouseObjects/teapot2.png",318,42,311,0.9,"stim/41.jpeg",4,1,3,1,"HouseObjects",1,4,"left","left",0.137000084,1,1,1,0,165,42,1,0.9,1,"stim/41.jpeg",4,1,"stim/41.jpeg",4,"right",0.667000294,2,3,0.287000179,1,0.288000345,165,0,0,NA,0,NA,0
"378","stim/objects/HouseObjects/hairdryer.png",319,42,312,0.5,"stim/54.jpeg",5,4,1,1,"HouseObjects",1,3,"left","left",0.221999884,1,1,1,0,8,42,1,0.5,1,"stim/54.jpeg",5,4,"stim/54.jpeg",3,"left",1.428000212,3,3,0.755000353,2,0.828999996,8,1,0,0,0,0,0
"334","stim/objects/HouseObjects/flyswatter.png",320,42,313,0.9,"stim/42.jpeg",4,2,3,2,"HouseObjects",1,3,"left","left",0.165999889,1,1,1,0,NA,NA,NA,NA,NA,NA,NA,NA,NA,NA,NA,NA,NA,NA,NA,NA,NA,NA,NA,NA,NA,NA,NA,NA
"335","stim/objects/HouseObjects/flyswatter.png",321,42,314,0.9,"stim/41.jpeg",4,1,3,2,"HouseObjects",1,1,"left","right",0.321999788,0,0,1,0,NA,NA,NA,NA,NA,NA,NA,NA,NA,NA,NA,NA,NA,NA,NA,NA,NA,NA,NA,NA,NA,NA,NA,NA
"293","stim/objects/HouseObjects/doormat.png",322,42,315,0.9,"stim/43.jpeg",4,3,3,2,"HouseObjects",1,1,"left","right",0.257999897,0,0,1,0,NA,NA,NA,NA,NA,NA,NA,NA,NA,NA,NA,NA,NA,NA,NA,NA,NA,NA,NA,NA,NA,NA,NA,NA
"386","stim/objects/HouseObjects/saw.png",323,42,316,0.5,"stim/61.jpeg",6,1,1,1,"HouseObjects",1,2,"left","left",0.230999708,1,1,1,0,136,42,1,0.5,2,"stim/61.jpeg",6,1,"stim/61.jpeg",2,"left",0.772000313,3,2,0.333000183,1,0.651000261,136,1,0,0,0,0,0
"558","stim/objects/Instruments/triangle2.png",324,42,317,0.1,"stim/42.jpeg",4,2,3,1,"Instruments",2,1,"right","right",0.318000078,1,1,1,0,88,42,1,0.1,2,"stim/42.jpeg",4,2,"stim/42.jpeg",1,"left",1.019000292,2,1,0.815999985,2,0.718000174,88,1,0,0,0,0,0
"528","stim/objects/Instruments/grandpiano.png",325,42,318,0.9,"stim/31.jpeg",3,1,3,2,"Instruments",2,2,"right","right",0.353999853,1,1,1,0,NA,NA,NA,NA,NA,NA,NA,NA,NA,NA,NA,NA,NA,NA,NA,NA,NA,NA,NA,NA,NA,NA,NA,NA
"445","stim/objects/Instruments/drums.png",326,42,319,0.7,"stim/11.jpeg",1,1,2,2,"Instruments",2,4,"right","right",0.177999735,1,1,1,0,NA,NA,NA,NA,NA,NA,NA,NA,NA,NA,NA,NA,NA,NA,NA,NA,NA,NA,NA,NA,NA,NA,NA,NA
"348","stim/objects/HouseObjects/garbagebin.png",327,42,320,0.9,"stim/42.jpeg",4,2,3,2,"HouseObjects",1,2,"left","left",0.125999928,1,1,1,0,NA,NA,NA,NA,NA,NA,NA,NA,NA,NA,NA,NA,NA,NA,NA,NA,NA,NA,NA,NA,NA,NA,NA,NA
"365","stim/objects/HouseObjects/glass.png",328,42,321,0.9,"stim/41.jpeg",4,1,3,2,"HouseObjects",1,2,"left","left",0.142999887,1,1,1,0,NA,NA,NA,NA,NA,NA,NA,NA,NA,NA,NA,NA,NA,NA,NA,NA,NA,NA,NA,NA,NA,NA,NA,NA
"380","stim/objects/HouseObjects/handbrush.png",329,42,322,0.5,"stim/51.jpeg",5,1,1,1,"HouseObjects",1,1,"left","left",0.164999962,1,1,1,0,142,42,1,0.5,1,"stim/51.jpeg",5,1,"stim/51.jpeg",1,"left",1.285000324,2,3,0.267000198,1,0.417000055,142,1,0,0,1,1,0
"427","stim/objects/Instruments/chime.png",330,42,323,0.5,"stim/61.jpeg",6,1,1,2,"Instruments",2,3,"right","left",0.253000021,0,0,1,0,NA,NA,NA,NA,NA,NA,NA,NA,NA,NA,NA,NA,NA,NA,NA,NA,NA,NA,NA,NA,NA,NA,NA,NA
"461","stim/objects/Instruments/flute.png",331,42,324,0.9,"stim/34.jpeg",3,4,3,2,"Instruments",2,4,"right","right",0.414999962,1,1,1,0,NA,NA,NA,NA,NA,NA,NA,NA,NA,NA,NA,NA,NA,NA,NA,NA,NA,NA,NA,NA,NA,NA,NA,NA
"283","stim/objects/HouseObjects/cushion.png",332,42,325,0.7,"stim/22.jpeg",2,2,2,2,"HouseObjects",1,3,"left","right",0.002999783,0,0,1,0,NA,NA,NA,NA,NA,NA,NA,NA,NA,NA,NA,NA,NA,NA,NA,NA,NA,NA,NA,NA,NA,NA,NA,NA
"513","stim/objects/Instruments/gong.png",333,42,326,0.9,"stim/32.jpeg",3,2,3,2,"Instruments",2,4,"right","left",0.181999922,0,0,1,0,NA,NA,NA,NA,NA,NA,NA,NA,NA,NA,NA,NA,NA,NA,NA,NA,NA,NA,NA,NA,NA,NA,NA,NA
"400","stim/objects/HouseObjects/towel.png",334,42,327,0.3,"stim/13.jpeg",1,3,2,1,"HouseObjects",1,1,"left","right",0.525999784,0,0,1,0,118,42,1,0.3,1,"stim/13.jpeg",1,3,"stim/13.jpeg",1,"right",1.18200016,2,2,0.586000204,2,0.850000143,118,0,0,NA,0,NA,0
"529","stim/objects/Instruments/grandpiano.png",335,42,328,0.9,"stim/33.jpeg",3,3,3,2,"Instruments",2,3,"right","right",0.469000101,1,1,1,0,NA,NA,NA,NA,NA,NA,NA,NA,NA,NA,NA,NA,NA,NA,NA,NA,NA,NA,NA,NA,NA,NA,NA,NA
"257","stim/objects/HouseObjects/blender.png",336,42,329,0.5,"stim/64.jpeg",6,4,1,2,"HouseObjects",1,1,"left","right",0.415999889,0,0,1,0,NA,NA,NA,NA,NA,NA,NA,NA,NA,NA,NA,NA,NA,NA,NA,NA,NA,NA,NA,NA,NA,NA,NA,NA
"462","stim/objects/Instruments/flute.png",337,42,330,0.9,"stim/34.jpeg",3,4,3,2,"Instruments",2,1,"right","left",0.200999975,0,0,1,0,NA,NA,NA,NA,NA,NA,NA,NA,NA,NA,NA,NA,NA,NA,NA,NA,NA,NA,NA,NA,NA,NA,NA,NA
"294","stim/objects/HouseObjects/doormat.png",338,42,331,0.9,"stim/41.jpeg",4,1,3,2,"HouseObjects",1,4,"left","right",0.183999777,0,0,1,0,NA,NA,NA,NA,NA,NA,NA,NA,NA,NA,NA,NA,NA,NA,NA,NA,NA,NA,NA,NA,NA,NA,NA,NA
"253","stim/objects/HouseObjects/bleachbottle.png",339,42,332,0.5,"stim/51.jpeg",5,1,1,2,"HouseObjects",1,4,"left","left",0.194000006,1,1,1,0,NA,NA,NA,NA,NA,NA,NA,NA,NA,NA,NA,NA,NA,NA,NA,NA,NA,NA,NA,NA,NA,NA,NA,NA
"463","stim/objects/Instruments/flute.png",340,42,333,0.9,"stim/32.jpeg",3,2,3,2,"Instruments",2,2,"right","left",0.214999914,0,0,1,0,NA,NA,NA,NA,NA,NA,NA,NA,NA,NA,NA,NA,NA,NA,NA,NA,NA,NA,NA,NA,NA,NA,NA,NA
"464","stim/objects/Instruments/flute.png",341,42,334,0.9,"stim/33.jpeg",3,3,3,2,"Instruments",2,1,"right","right",0.309000015,1,1,1,0,NA,NA,NA,NA,NA,NA,NA,NA,NA,NA,NA,NA,NA,NA,NA,NA,NA,NA,NA,NA,NA,NA,NA,NA
"332","stim/objects/HouseObjects/flyswatter.png",342,42,335,0.9,"stim/42.jpeg",4,2,3,2,"HouseObjects",1,1,"left","right",0.444999933,0,0,1,0,NA,NA,NA,NA,NA,NA,NA,NA,NA,NA,NA,NA,NA,NA,NA,NA,NA,NA,NA,NA,NA,NA,NA,NA
"564","stim/objects/Instruments/tuba2.png",343,42,336,0.1,"stim/41.jpeg",4,1,3,1,"Instruments",2,3,"right","left",0.695999861,0,0,1,0,117,42,1,0.1,2,"stim/41.jpeg",4,1,"stim/41.jpeg",3,"right",0.430000067,4,2,1.837000132,3,0.914000034,117,0,0,NA,1,NA,0
"314","stim/objects/HouseObjects/dustpan.png",344,42,337,0.9,"stim/43.jpeg",4,3,3,2,"HouseObjects",1,4,"left","right",0.034999847,0,0,1,0,NA,NA,NA,NA,NA,NA,NA,NA,NA,NA,NA,NA,NA,NA,NA,NA,NA,NA,NA,NA,NA,NA,NA,NA
"432","stim/objects/Instruments/clarinet2.png",345,42,338,0.3,"stim/21.jpeg",2,1,2,1,"Instruments",2,1,"right","left",0.065999985,0,0,1,0,182,42,1,0.3,2,"stim/21.jpeg",2,1,"stim/21.jpeg",1,"left",0.888000011,2,2,0.305000305,2,0.343000174,182,1,0,0,0,0,0
"557","stim/objects/Instruments/triangle.png",346,42,339,0.5,"stim/63.jpeg",6,3,1,1,"Instruments",2,4,"right","right",0.225999832,1,1,1,0,46,42,1,0.5,2,"stim/63.jpeg",6,3,"stim/63.jpeg",4,"right",0.820000172,3,4,0.502000093,2,0.601000071,46,0,0,NA,0,NA,0
"249","stim/objects/HouseObjects/barbecuelighter2.png",347,42,340,0.3,"stim/14.jpeg",1,4,2,1,"HouseObjects",1,3,"left","right",0.29399991,0,0,1,0,139,42,1,0.3,1,"stim/14.jpeg",1,4,"stim/14.jpeg",3,"right",0.768000126,2,3,0.440000296,2,1.027000189,139,0,0,NA,0,NA,0
"379","stim/objects/HouseObjects/hairdryer2.png",348,42,341,0.1,"stim/33.jpeg",3,3,3,1,"HouseObjects",1,3,"left","right",0.083999872,0,0,1,0,51,42,1,0.1,1,"stim/33.jpeg",3,3,"stim/33.jpeg",3,"left",1.101000309,3,1,0.668000221,1,0.455000162,51,1,0,0,0,0,0
"336","stim/objects/HouseObjects/flyswatter.png",349,42,342,0.9,"stim/42.jpeg",4,2,3,2,"HouseObjects",1,2,"left","right",0.046999931,0,0,1,0,NA,NA,NA,NA,NA,NA,NA,NA,NA,NA,NA,NA,NA,NA,NA,NA,NA,NA,NA,NA,NA,NA,NA,NA
"254","stim/objects/HouseObjects/bleachbottle.png",350,42,343,0.5,"stim/52.jpeg",5,2,1,2,"HouseObjects",1,1,"left","left",0.273000002,1,1,1,0,NA,NA,NA,NA,NA,NA,NA,NA,NA,NA,NA,NA,NA,NA,NA,NA,NA,NA,NA,NA,NA,NA,NA,NA
"476","stim/objects/Instruments/flutetrans.png",351,42,344,0.9,"stim/32.jpeg",3,2,3,2,"Instruments",2,1,"right","left",0.196999788,0,0,1,0,NA,NA,NA,NA,NA,NA,NA,NA,NA,NA,NA,NA,NA,NA,NA,NA,NA,NA,NA,NA,NA,NA,NA,NA
"492","stim/objects/Instruments/frenchhorn.png",352,42,345,0.9,"stim/32.jpeg",3,2,3,2,"Instruments",2,2,"right","right",0.126999855,1,1,1,0,NA,NA,NA,NA,NA,NA,NA,NA,NA,NA,NA,NA,NA,NA,NA,NA,NA,NA,NA,NA,NA,NA,NA,NA
"493","stim/objects/Instruments/frenchhorn.png",353,42,346,0.9,"stim/32.jpeg",3,2,3,2,"Instruments",2,4,"right","right",0.184999943,1,1,1,0,NA,NA,NA,NA,NA,NA,NA,NA,NA,NA,NA,NA,NA,NA,NA,NA,NA,NA,NA,NA,NA,NA,NA,NA
"415","stim/objects/Instruments/banjo.png",354,42,347,0.5,"stim/53.jpeg",5,3,1,2,"Instruments",2,4,"right","right",0.104999781,1,1,1,0,NA,NA,NA,NA,NA,NA,NA,NA,NA,NA,NA,NA,NA,NA,NA,NA,NA,NA,NA,NA,NA,NA,NA,NA
"250","stim/objects/HouseObjects/basket.png",355,42,348,0.5,"stim/54.jpeg",5,4,1,2,"HouseObjects",1,1,"left","left",0.123999834,1,1,1,0,NA,NA,NA,NA,NA,NA,NA,NA,NA,NA,NA,NA,NA,NA,NA,NA,NA,NA,NA,NA,NA,NA,NA,NA
"412","stim/objects/Instruments/balalaika.png",356,42,349,0.5,"stim/52.jpeg",5,2,1,2,"Instruments",2,2,"right","left",0.209000111,0,0,1,0,NA,NA,NA,NA,NA,NA,NA,NA,NA,NA,NA,NA,NA,NA,NA,NA,NA,NA,NA,NA,NA,NA,NA,NA
"560","stim/objects/Instruments/trombone2.png",357,42,350,0.1,"stim/43.jpeg",4,3,3,1,"Instruments",2,4,"right","right",0.019999981,1,1,1,0,65,42,1,0.1,2,"stim/43.jpeg",4,3,"stim/43.jpeg",4,"left",1.285000086,3,4,0.952000141,3,1.219000101,65,1,0,0,0,0,0
"477","stim/objects/Instruments/flutetrans.png",358,42,351,0.9,"stim/33.jpeg",3,3,3,2,"Instruments",2,2,"right","right",0.447999954,1,1,1,0,NA,NA,NA,NA,NA,NA,NA,NA,NA,NA,NA,NA,NA,NA,NA,NA,NA,NA,NA,NA,NA,NA,NA,NA
"449","stim/objects/Instruments/electricdrumset.png",359,42,352,0.7,"stim/14.jpeg",1,4,2,2,"Instruments",2,2,"right","right",0.172999859,1,1,1,0,NA,NA,NA,NA,NA,NA,NA,NA,NA,NA,NA,NA,NA,NA,NA,NA,NA,NA,NA,NA,NA,NA,NA,NA
"439","stim/objects/Instruments/cymbal2.png",360,42,353,0.3,"stim/23.jpeg",2,3,2,1,"Instruments",2,4,"right","left",0.439999819,0,0,1,0,6,42,1,0.3,2,"stim/23.jpeg",2,3,"stim/23.jpeg",4,"left",2.596000195,3,3,0.886000156,2,0.740000248,6,1,1,1,0,0,0
"366","stim/objects/HouseObjects/glass.png",361,42,354,0.9,"stim/43.jpeg",4,3,3,2,"HouseObjects",1,2,"left","right",0.28399992,0,0,1,0,NA,NA,NA,NA,NA,NA,NA,NA,NA,NA,NA,NA,NA,NA,NA,NA,NA,NA,NA,NA,NA,NA,NA,NA
"531","stim/objects/Instruments/grandpiano.png",362,42,355,0.9,"stim/34.jpeg",3,4,3,2,"Instruments",2,4,"right","left",0.243000031,0,0,1,0,NA,NA,NA,NA,NA,NA,NA,NA,NA,NA,NA,NA,NA,NA,NA,NA,NA,NA,NA,NA,NA,NA,NA,NA
"515","stim/objects/Instruments/gong.png",363,42,356,0.9,"stim/34.jpeg",3,4,3,2,"Instruments",2,1,"right","right",0.562999964,1,1,1,0,NA,NA,NA,NA,NA,NA,NA,NA,NA,NA,NA,NA,NA,NA,NA,NA,NA,NA,NA,NA,NA,NA,NA,NA
"296","stim/objects/HouseObjects/doormat.png",364,42,357,0.9,"stim/42.jpeg",4,2,3,2,"HouseObjects",1,1,"left","right",0.456999779,0,0,1,0,NA,NA,NA,NA,NA,NA,NA,NA,NA,NA,NA,NA,NA,NA,NA,NA,NA,NA,NA,NA,NA,NA,NA,NA
"367","stim/objects/HouseObjects/glass.png",365,42,358,0.9,"stim/44.jpeg",4,4,3,2,"HouseObjects",1,3,"left","left",0.248999834,1,1,1,0,NA,NA,NA,NA,NA,NA,NA,NA,NA,NA,NA,NA,NA,NA,NA,NA,NA,NA,NA,NA,NA,NA,NA,NA
"394","stim/objects/HouseObjects/teapot.png",366,42,359,0.5,"stim/61.jpeg",6,1,1,1,"HouseObjects",1,1,"left","right",0.536999941,0,0,1,0,125,42,1,0.5,2,"stim/61.jpeg",6,1,"stim/61.jpeg",1,"right",1.390000105,3,3,0.465000153,2,0.414000273,125,0,0,NA,0,NA,0
"532","stim/objects/Instruments/grandpiano.png",367,42,360,0.9,"stim/32.jpeg",3,2,3,2,"Instruments",2,2,"right","right",0.430999994,1,1,1,0,NA,NA,NA,NA,NA,NA,NA,NA,NA,NA,NA,NA,NA,NA,NA,NA,NA,NA,NA,NA,NA,NA,NA,NA
"368","stim/objects/HouseObjects/glass.png",368,42,361,0.9,"stim/44.jpeg",4,4,3,2,"HouseObjects",1,2,"left","right",0.493999958,0,0,1,0,NA,NA,NA,NA,NA,NA,NA,NA,NA,NA,NA,NA,NA,NA,NA,NA,NA,NA,NA,NA,NA,NA,NA,NA
"418","stim/objects/Instruments/bassdrum.png",369,42,362,0.5,"stim/51.jpeg",5,1,1,2,"Instruments",2,3,"right","left",0.041000128,0,0,1,0,NA,NA,NA,NA,NA,NA,NA,NA,NA,NA,NA,NA,NA,NA,NA,NA,NA,NA,NA,NA,NA,NA,NA,NA
"266","stim/objects/HouseObjects/bucket.png",370,42,363,0.5,"stim/62.jpeg",6,2,1,2,"HouseObjects",1,4,"left","right",0.11199975,0,0,1,0,NA,NA,NA,NA,NA,NA,NA,NA,NA,NA,NA,NA,NA,NA,NA,NA,NA,NA,NA,NA,NA,NA,NA,NA
"507","stim/objects/Instruments/gong.png",371,42,364,0.9,"stim/32.jpeg",3,2,3,2,"Instruments",2,4,"right","left",0.093999863,0,0,1,0,NA,NA,NA,NA,NA,NA,NA,NA,NA,NA,NA,NA,NA,NA,NA,NA,NA,NA,NA,NA,NA,NA,NA,NA
"565","stim/objects/Instruments/violin.png",372,42,365,0.7,"stim/14.jpeg",1,4,2,1,"Instruments",2,2,"right","right",0.01699996,1,1,1,0,152,42,1,0.7,2,"stim/14.jpeg",1,4,"stim/14.jpeg",2,"left",0.69900012,4,3,0.729000092,2,0.377000093,152,1,0,0,1,1,0
"433","stim/objects/Instruments/cornet.png",373,42,366,0.5,"stim/63.jpeg",6,3,1,2,"Instruments",2,1,"right","right",0.372999907,1,1,1,0,NA,NA,NA,NA,NA,NA,NA,NA,NA,NA,NA,NA,NA,NA,NA,NA,NA,NA,NA,NA,NA,NA,NA,NA
"551","stim/objects/Instruments/speaker.png",374,42,367,0.5,"stim/64.jpeg",6,4,1,1,"Instruments",2,1,"right","right",0.25,1,1,1,0,172,42,1,0.5,2,"stim/64.jpeg",6,4,"stim/64.jpeg",1,"right",1.114000082,3,1,0.25999999,2,0.394000053,172,0,0,NA,0,NA,0
"559","stim/objects/Instruments/trombone.png",375,42,368,0.5,"stim/64.jpeg",6,4,1,1,"Instruments",2,1,"right","left",0.001999855,0,0,1,0,126,42,1,0.5,2,"stim/64.jpeg",6,4,"stim/64.jpeg",1,"right",1.800000191,3,2,0.950000286,3,0.55700016,126,0,0,NA,0,NA,0
"325","stim/objects/HouseObjects/flyswatter.png",376,42,369,0.9,"stim/43.jpeg",4,3,3,2,"HouseObjects",1,1,"left","right",0.143000126,0,0,1,0,NA,NA,NA,NA,NA,NA,NA,NA,NA,NA,NA,NA,NA,NA,NA,NA,NA,NA,NA,NA,NA,NA,NA,NA
"473","stim/objects/Instruments/flutetrans.png",377,42,370,0.9,"stim/31.jpeg",3,1,3,2,"Instruments",2,1,"right","left",0.131999969,0,0,1,0,NA,NA,NA,NA,NA,NA,NA,NA,NA,NA,NA,NA,NA,NA,NA,NA,NA,NA,NA,NA,NA,NA,NA,NA
"480","stim/objects/Instruments/flutetrans.png",378,42,371,0.9,"stim/34.jpeg",3,4,3,2,"Instruments",2,3,"right","right",0.128000021,1,1,1,0,NA,NA,NA,NA,NA,NA,NA,NA,NA,NA,NA,NA,NA,NA,NA,NA,NA,NA,NA,NA,NA,NA,NA,NA
"241","stim/objects/HouseObjects/ashtray.png",379,42,372,0.5,"stim/51.jpeg",5,1,1,2,"HouseObjects",1,3,"left","left",0.532999992,1,1,1,0,NA,NA,NA,NA,NA,NA,NA,NA,NA,NA,NA,NA,NA,NA,NA,NA,NA,NA,NA,NA,NA,NA,NA,NA
"251","stim/objects/HouseObjects/basket.png",380,42,373,0.5,"stim/51.jpeg",5,1,1,2,"HouseObjects",1,1,"left","right",0.411000013,0,0,1,0,NA,NA,NA,NA,NA,NA,NA,NA,NA,NA,NA,NA,NA,NA,NA,NA,NA,NA,NA,NA,NA,NA,NA,NA
"417","stim/objects/Instruments/banjo2.png",381,42,374,0.7,"stim/12.jpeg",1,2,2,1,"Instruments",2,2,"right","right",0.383999825,1,1,1,0,81,42,1,0.7,2,"stim/12.jpeg",1,2,"stim/12.jpeg",2,"right",0.93900013,2,3,0.476000309,4,0.684000254,81,0,0,NA,0,NA,0
"404","stim/objects/HouseObjects/wateringcan.png",382,42,375,0.3,"stim/11.jpeg",1,1,2,1,"HouseObjects",1,1,"left","right",0.480999947,0,0,1,0,190,42,1,0.3,1,"stim/11.jpeg",1,1,"stim/11.jpeg",1,"left",1.737000227,3,1,0.177000284,3,0.308000326,190,1,1,1,0,0,0
"570","stim/objects/Instruments/xylophone2.png",383,42,376,0.1,"stim/44.jpeg",4,4,3,1,"Instruments",2,2,"right","right",0.204999924,1,1,1,0,33,42,1,0.1,2,"stim/44.jpeg",4,4,"stim/44.jpeg",2,"left",0.752000093,2,3,0.683000088,4,0.92200017,33,1,0,0,0,0,0
"255","stim/objects/HouseObjects/bleachbottle2.png",384,42,377,0.3,"stim/12.jpeg",1,2,2,1,"HouseObjects",1,4,"left","left",0.552999973,1,1,1,0,148,42,1,0.3,1,"stim/12.jpeg",1,2,"stim/12.jpeg",4,"right",0.71900034,2,1,0.627000093,2,1.781000137,148,0,0,NA,0,NA,0
"435","stim/objects/Instruments/cornet2.png",385,42,378,0.3,"stim/22.jpeg",2,2,2,1,"Instruments",2,4,"right","left",0.230999947,0,0,1,0,175,42,1,0.3,2,"stim/22.jpeg",2,2,"stim/22.jpeg",4,"left",0.893000364,4,4,0.38800025,1,0.53000021,175,1,0,0,0,0,0
"530","stim/objects/Instruments/grandpiano.png",386,42,379,0.9,"stim/34.jpeg",3,4,3,2,"Instruments",2,4,"right","right",0.076999903,1,1,1,0,NA,NA,NA,NA,NA,NA,NA,NA,NA,NA,NA,NA,NA,NA,NA,NA,NA,NA,NA,NA,NA,NA,NA,NA
"295","stim/objects/HouseObjects/doormat.png",387,42,380,0.9,"stim/43.jpeg",4,3,3,2,"HouseObjects",1,3,"left","right",0.237999916,0,0,1,0,NA,NA,NA,NA,NA,NA,NA,NA,NA,NA,NA,NA,NA,NA,NA,NA,NA,NA,NA,NA,NA,NA,NA,NA
"545","stim/objects/Instruments/harp.png",388,42,381,0.5,"stim/54.jpeg",5,4,1,1,"Instruments",2,4,"right","left",0.207000017,0,0,1,0,64,42,1,0.5,1,"stim/54.jpeg",5,4,"stim/54.jpeg",4,"right",0.98900032,3,2,0.57400012,4,0.561000347,64,0,0,NA,1,NA,0
"297","stim/objects/HouseObjects/doormat.png",389,42,382,0.9,"stim/43.jpeg",4,3,3,2,"HouseObjects",1,4,"left","right",0.523999929,0,0,1,0,NA,NA,NA,NA,NA,NA,NA,NA,NA,NA,NA,NA,NA,NA,NA,NA,NA,NA,NA,NA,NA,NA,NA,NA
"352","stim/objects/HouseObjects/garbagebin.png",390,42,383,0.9,"stim/43.jpeg",4,3,3,2,"HouseObjects",1,3,"left","left",0.403000116,1,1,1,0,NA,NA,NA,NA,NA,NA,NA,NA,NA,NA,NA,NA,NA,NA,NA,NA,NA,NA,NA,NA,NA,NA,NA,NA
"242","stim/objects/HouseObjects/ashtray.png",391,42,384,0.5,"stim/52.jpeg",5,2,1,2,"HouseObjects",1,3,"left","left",0.193000078,1,1,1,0,NA,NA,NA,NA,NA,NA,NA,NA,NA,NA,NA,NA,NA,NA,NA,NA,NA,NA,NA,NA,NA,NA,NA,NA
"388","stim/objects/HouseObjects/scale.png",392,42,385,0.5,"stim/62.jpeg",6,2,1,1,"HouseObjects",1,2,"left","right",0.152999878,0,0,1,0,19,42,1,0.5,2,"stim/62.jpeg",6,2,"stim/62.jpeg",2,"right",1.177000046,4,3,0.654999971,3,1.009000063,19,0,0,NA,0,NA,0
"258","stim/objects/HouseObjects/blender2.png",393,42,386,0.7,"stim/24.jpeg",2,4,2,1,"HouseObjects",1,3,"left","left",0.581999779,1,1,1,0,49,42,1,0.7,1,"stim/24.jpeg",2,4,"stim/24.jpeg",3,"right",0.820000172,3,2,0.640000343,1,1.154000044,49,0,0,NA,0,NA,0
"481","stim/objects/Instruments/flutetrans.png",394,42,387,0.9,"stim/33.jpeg",3,3,3,2,"Instruments",2,3,"right","left",0.422999859,0,0,1,0,NA,NA,NA,NA,NA,NA,NA,NA,NA,NA,NA,NA,NA,NA,NA,NA,NA,NA,NA,NA,NA,NA,NA,NA
"385","stim/objects/HouseObjects/safetypin2.png",395,42,388,0.1,"stim/32.jpeg",3,2,3,1,"HouseObjects",1,1,"left","right",0.02699995,0,0,1,0,35,42,1,0.1,1,"stim/32.jpeg",3,2,"stim/32.jpeg",1,"left",0.698000193,3,4,0.845000029,3,1.326000214,35,1,0,0,0,0,0
"298","stim/objects/HouseObjects/doormat.png",396,42,389,0.9,"stim/41.jpeg",4,1,3,2,"HouseObjects",1,2,"left","right",0.029000044,0,0,1,0,NA,NA,NA,NA,NA,NA,NA,NA,NA,NA,NA,NA,NA,NA,NA,NA,NA,NA,NA,NA,NA,NA,NA,NA
"252","stim/objects/HouseObjects/basket2.png",397,42,390,0.3,"stim/11.jpeg",1,1,2,1,"HouseObjects",1,2,"left","left",0.076999903,1,1,1,0,129,42,1,0.3,1,"stim/11.jpeg",1,1,"stim/11.jpeg",2,"left",0.67200017,3,4,0.536000252,3,0.393000126,129,1,0,0,0,0,0
"550","stim/objects/Instruments/saxophone2.png",398,42,391,0.9,"stim/34.jpeg",3,4,3,1,"Instruments",2,2,"right","left",0.142999887,0,0,1,0,27,42,1,0.9,2,"stim/34.jpeg",3,4,"stim/34.jpeg",2,"left",1.00600028,3,2,1.385000229,1,1.511000156,27,1,0,0,0,0,0
"444","stim/objects/Instruments/drums.png",399,42,392,0.7,"stim/13.jpeg",1,3,2,2,"Instruments",2,2,"right","right",0.254999876,1,1,1,0,NA,NA,NA,NA,NA,NA,NA,NA,NA,NA,NA,NA,NA,NA,NA,NA,NA,NA,NA,NA,NA,NA,NA,NA
"290","stim/objects/HouseObjects/dishsoap2.png",400,42,393,0.7,"stim/21.jpeg",2,1,2,1,"HouseObjects",1,4,"left","right",0.224999905,0,0,1,0,121,42,1,0.7,1,"stim/21.jpeg",2,1,"stim/21.jpeg",4,"right",1.032000065,3,1,0.786000013,2,0.580000162,121,0,1,NA,0,NA,0
"509","stim/objects/Instruments/gong.png",401,42,394,0.9,"stim/34.jpeg",3,4,3,2,"Instruments",2,3,"right","left",0.322999954,0,0,1,0,NA,NA,NA,NA,NA,NA,NA,NA,NA,NA,NA,NA,NA,NA,NA,NA,NA,NA,NA,NA,NA,NA,NA,NA
"429","stim/objects/Instruments/chime2.png",402,42,395,0.3,"stim/24.jpeg",2,4,2,1,"Instruments",2,1,"right","right",0.092000008,1,1,1,0,138,42,1,0.3,2,"stim/24.jpeg",2,4,"stim/24.jpeg",1,"left",1.184000254,1,2,0.516000032,3,0.525000095,138,1,0,0,0,0,0
"317","stim/objects/HouseObjects/dustpan.png",403,42,396,0.9,"stim/43.jpeg",4,3,3,2,"HouseObjects",1,4,"left","right",0.114000082,0,0,1,0,NA,NA,NA,NA,NA,NA,NA,NA,NA,NA,NA,NA,NA,NA,NA,NA,NA,NA,NA,NA,NA,NA,NA,NA
"540","stim/objects/Instruments/grandpiano2.png",404,42,397,0.9,"stim/33.jpeg",3,3,3,1,"Instruments",2,2,"right","left",0.21999979,0,0,1,0,57,42,1,0.9,2,"stim/33.jpeg",3,3,"stim/33.jpeg",2,"right",0.746999979,4,3,0.585000038,2,0.62100029,57,0,1,NA,1,NA,0
"300","stim/objects/HouseObjects/doormat.png",405,42,398,0.9,"stim/42.jpeg",4,2,3,2,"HouseObjects",1,1,"left","right",0.213000059,0,0,1,0,NA,NA,NA,NA,NA,NA,NA,NA,NA,NA,NA,NA,NA,NA,NA,NA,NA,NA,NA,NA,NA,NA,NA,NA
"494","stim/objects/Instruments/frenchhorn.png",406,42,399,0.9,"stim/31.jpeg",3,1,3,2,"Instruments",2,1,"right","left",0.112999916,0,0,1,0,NA,NA,NA,NA,NA,NA,NA,NA,NA,NA,NA,NA,NA,NA,NA,NA,NA,NA,NA,NA,NA,NA,NA,NA
"483","stim/objects/Instruments/flutetrans.png",407,42,400,0.9,"stim/31.jpeg",3,1,3,2,"Instruments",2,3,"right","right",0.140999794,1,1,1,0,NA,NA,NA,NA,NA,NA,NA,NA,NA,NA,NA,NA,NA,NA,NA,NA,NA,NA,NA,NA,NA,NA,NA,NA
"446","stim/objects/Instruments/drums.png",408,42,401,0.7,"stim/12.jpeg",1,2,2,2,"Instruments",2,4,"right","right",0.071999788,1,1,1,0,NA,NA,NA,NA,NA,NA,NA,NA,NA,NA,NA,NA,NA,NA,NA,NA,NA,NA,NA,NA,NA,NA,NA,NA
"270","stim/objects/HouseObjects/clock2.png",409,42,402,0.7,"stim/24.jpeg",2,4,2,1,"HouseObjects",1,3,"left","right",0.118999958,0,0,1,0,141,42,1,0.7,1,"stim/24.jpeg",2,4,"stim/24.jpeg",3,"right",0.502000093,1,2,1.052000046,3,0.70600009,141,0,0,NA,1,NA,0
"311","stim/objects/HouseObjects/dustpan.png",410,42,403,0.9,"stim/41.jpeg",4,1,3,2,"HouseObjects",1,2,"left","left",0.144000053,1,1,1,0,NA,NA,NA,NA,NA,NA,NA,NA,NA,NA,NA,NA,NA,NA,NA,NA,NA,NA,NA,NA,NA,NA,NA,NA
"489","stim/objects/Instruments/flutetrans2.png",411,42,404,0.9,"stim/34.jpeg",3,4,3,1,"Instruments",2,4,"right","left",0.217999935,0,0,1,0,112,42,1,0.9,2,"stim/34.jpeg",3,4,"stim/34.jpeg",4,"left",1.573000193,4,3,0.485000134,4,0.813000202,112,1,0,0,1,1,0
"499","stim/objects/Instruments/frenchhorn.png",412,42,405,0.9,"stim/33.jpeg",3,3,3,2,"Instruments",2,1,"right","right",0.102999926,1,1,1,0,NA,NA,NA,NA,NA,NA,NA,NA,NA,NA,NA,NA,NA,NA,NA,NA,NA,NA,NA,NA,NA,NA,NA,NA
"299","stim/objects/HouseObjects/doormat.png",413,42,406,0.9,"stim/44.jpeg",4,4,3,2,"HouseObjects",1,2,"left","",NA,0,0,1,0,NA,NA,NA,NA,NA,NA,NA,NA,NA,NA,NA,NA,NA,NA,NA,NA,NA,NA,NA,NA,NA,NA,NA,NA
"353","stim/objects/HouseObjects/garbagebin.png",414,42,407,0.9,"stim/44.jpeg",4,4,3,2,"HouseObjects",1,1,"left","right",0.268999815,0,0,1,0,NA,NA,NA,NA,NA,NA,NA,NA,NA,NA,NA,NA,NA,NA,NA,NA,NA,NA,NA,NA,NA,NA,NA,NA
"450","stim/objects/Instruments/electricdrumset.png",415,42,408,0.7,"stim/13.jpeg",1,3,2,2,"Instruments",2,4,"right","left",0.001999855,0,0,1,0,NA,NA,NA,NA,NA,NA,NA,NA,NA,NA,NA,NA,NA,NA,NA,NA,NA,NA,NA,NA,NA,NA,NA,NA
"397","stim/objects/HouseObjects/thermometer2.png",416,42,409,0.9,"stim/42.jpeg",4,2,3,1,"HouseObjects",1,1,"left","right",0.012000084,0,0,1,0,197,42,1,0.9,1,"stim/42.jpeg",4,2,"stim/42.jpeg",1,"right",0.72200036,1,2,0.375,3,0.193000078,197,0,1,NA,0,NA,0
"245","stim/objects/HouseObjects/ballofstring.png",417,42,410,0.5,"stim/53.jpeg",5,3,1,2,"HouseObjects",1,3,"left","right",0.108999968,0,0,1,0,NA,NA,NA,NA,NA,NA,NA,NA,NA,NA,NA,NA,NA,NA,NA,NA,NA,NA,NA,NA,NA,NA,NA,NA
"535","stim/objects/Instruments/grandpiano.png",418,42,411,0.9,"stim/31.jpeg",3,1,3,2,"Instruments",2,4,"right","left",0.341999769,0,0,1,0,NA,NA,NA,NA,NA,NA,NA,NA,NA,NA,NA,NA,NA,NA,NA,NA,NA,NA,NA,NA,NA,NA,NA,NA
"318","stim/objects/HouseObjects/dustpan.png",419,42,412,0.9,"stim/41.jpeg",4,1,3,2,"HouseObjects",1,2,"left","right",0.121999979,0,0,1,0,NA,NA,NA,NA,NA,NA,NA,NA,NA,NA,NA,NA,NA,NA,NA,NA,NA,NA,NA,NA,NA,NA,NA,NA
"543","stim/objects/Instruments/harmonica.png",420,42,413,0.5,"stim/53.jpeg",5,3,1,1,"Instruments",2,3,"right","left",0.087999821,0,0,1,0,194,42,1,0.5,1,"stim/53.jpeg",5,3,"stim/53.jpeg",3,"right",0.645000219,2,2,0.298000097,2,0.150000095,194,0,0,NA,0,NA,0
"331","stim/objects/HouseObjects/flyswatter.png",421,42,414,0.9,"stim/41.jpeg",4,1,3,2,"HouseObjects",1,1,"left","left",0.133999825,1,1,1,0,NA,NA,NA,NA,NA,NA,NA,NA,NA,NA,NA,NA,NA,NA,NA,NA,NA,NA,NA,NA,NA,NA,NA,NA
"491","stim/objects/Instruments/frenchhorn.png",422,42,415,0.9,"stim/33.jpeg",3,3,3,2,"Instruments",2,4,"right","left",0.121999979,0,0,1,0,NA,NA,NA,NA,NA,NA,NA,NA,NA,NA,NA,NA,NA,NA,NA,NA,NA,NA,NA,NA,NA,NA,NA,NA
"533","stim/objects/Instruments/grandpiano.png",423,42,416,0.9,"stim/31.jpeg",3,1,3,2,"Instruments",2,3,"right","right",0.154000044,1,1,1,0,NA,NA,NA,NA,NA,NA,NA,NA,NA,NA,NA,NA,NA,NA,NA,NA,NA,NA,NA,NA,NA,NA,NA,NA
"261","stim/objects/HouseObjects/bottle2.png",424,42,417,0.7,"stim/21.jpeg",2,1,2,1,"HouseObjects",1,1,"left","right",0.00999999,0,0,1,0,24,42,1,0.7,1,"stim/21.jpeg",2,1,"stim/21.jpeg",1,"right",1.421000004,4,3,0.822000265,3,1.1650002,24,0,0,NA,0,NA,0
"514","stim/objects/Instruments/gong.png",425,42,418,0.9,"stim/33.jpeg",3,3,3,2,"Instruments",2,3,"right","right",0.190999746,1,1,1,0,NA,NA,NA,NA,NA,NA,NA,NA,NA,NA,NA,NA,NA,NA,NA,NA,NA,NA,NA,NA,NA,NA,NA,NA
"422","stim/objects/Instruments/bassguitar.png",426,42,419,0.5,"stim/63.jpeg",6,3,1,2,"Instruments",2,4,"right","right",0.001999855,1,1,1,0,NA,NA,NA,NA,NA,NA,NA,NA,NA,NA,NA,NA,NA,NA,NA,NA,NA,NA,NA,NA,NA,NA,NA,NA
"496","stim/objects/Instruments/frenchhorn.png",427,42,420,0.9,"stim/31.jpeg",3,1,3,2,"Instruments",2,2,"right","left",0.247999907,0,0,1,0,NA,NA,NA,NA,NA,NA,NA,NA,NA,NA,NA,NA,NA,NA,NA,NA,NA,NA,NA,NA,NA,NA,NA,NA
"534","stim/objects/Instruments/grandpiano.png",428,42,421,0.9,"stim/32.jpeg",3,2,3,2,"Instruments",2,3,"right","right",0.001999855,1,1,1,0,NA,NA,NA,NA,NA,NA,NA,NA,NA,NA,NA,NA,NA,NA,NA,NA,NA,NA,NA,NA,NA,NA,NA,NA
"468","stim/objects/Instruments/flute.png",429,42,422,0.9,"stim/33.jpeg",3,3,3,2,"Instruments",2,1,"right","right",0.263000011,1,1,1,0,NA,NA,NA,NA,NA,NA,NA,NA,NA,NA,NA,NA,NA,NA,NA,NA,NA,NA,NA,NA,NA,NA,NA,NA
"370","stim/objects/HouseObjects/glass.png",430,42,423,0.9,"stim/43.jpeg",4,3,3,2,"HouseObjects",1,4,"left","right",0.002000093,0,0,1,0,NA,NA,NA,NA,NA,NA,NA,NA,NA,NA,NA,NA,NA,NA,NA,NA,NA,NA,NA,NA,NA,NA,NA,NA
"451","stim/objects/Instruments/electricdrumset2.png",431,42,424,0.3,"stim/22.jpeg",2,2,2,1,"Instruments",2,2,"right","right",0.000999928,1,1,1,0,68,42,1,0.3,2,"stim/22.jpeg",2,2,"stim/22.jpeg",2,"left",1.258000135,4,4,1.363000154,1,0.473000288,68,1,0,0,0,0,0
"301","stim/objects/HouseObjects/doormat.png",432,42,425,0.9,"stim/44.jpeg",4,4,3,2,"HouseObjects",1,2,"left","left",0.057999849,1,1,1,0,NA,NA,NA,NA,NA,NA,NA,NA,NA,NA,NA,NA,NA,NA,NA,NA,NA,NA,NA,NA,NA,NA,NA,NA
"506","stim/objects/Instruments/frenchhorn2.png",433,42,426,0.9,"stim/31.jpeg",3,1,3,1,"Instruments",2,1,"right","left",0.080999851,0,0,1,0,103,42,1,0.9,2,"stim/31.jpeg",3,1,"stim/31.jpeg",1,"right",0.811000109,3,4,0.768000126,2,0.718000174,103,0,0,NA,0,NA,0
"469","stim/objects/Instruments/flute.png",434,42,427,0.9,"stim/31.jpeg",3,1,3,2,"Instruments",2,2,"right","left",0.001999855,0,0,1,0,NA,NA,NA,NA,NA,NA,NA,NA,NA,NA,NA,NA,NA,NA,NA,NA,NA,NA,NA,NA,NA,NA,NA,NA
"500","stim/objects/Instruments/frenchhorn.png",435,42,428,0.9,"stim/33.jpeg",3,3,3,2,"Instruments",2,3,"right","right",0.191999912,1,1,1,0,NA,NA,NA,NA,NA,NA,NA,NA,NA,NA,NA,NA,NA,NA,NA,NA,NA,NA,NA,NA,NA,NA,NA,NA
"490","stim/objects/Instruments/frenchhorn.png",436,42,429,0.9,"stim/31.jpeg",3,1,3,2,"Instruments",2,1,"right","left",0.220999956,0,0,1,0,NA,NA,NA,NA,NA,NA,NA,NA,NA,NA,NA,NA,NA,NA,NA,NA,NA,NA,NA,NA,NA,NA,NA,NA
"423","stim/objects/Instruments/bassguitar2.png",437,42,430,0.3,"stim/22.jpeg",2,2,2,1,"Instruments",2,4,"right","right",0.021999836,1,1,1,0,108,42,1,0.3,2,"stim/22.jpeg",2,2,"stim/22.jpeg",4,"right",1.860000134,2,1,0.601999998,3,0.653000116,108,0,0,NA,0,NA,0
"414","stim/objects/Instruments/balalaika2.png",438,42,431,0.7,"stim/11.jpeg",1,1,2,1,"Instruments",2,4,"right","left",0.031999826,0,0,1,0,2,42,1,0.7,2,"stim/11.jpeg",1,1,"stim/11.jpeg",4,"right",1.433000326,3,3,4.14800024,4,2.12100029,2,0,0,NA,1,NA,0
"244","stim/objects/HouseObjects/ballofstring.png",439,42,432,0.5,"stim/52.jpeg",5,2,1,2,"HouseObjects",1,2,"left","right",0.230000019,0,0,1,0,NA,NA,NA,NA,NA,NA,NA,NA,NA,NA,NA,NA,NA,NA,NA,NA,NA,NA,NA,NA,NA,NA,NA,NA
"347","stim/objects/HouseObjects/garbagebin.png",440,42,433,0.9,"stim/43.jpeg",4,3,3,2,"HouseObjects",1,3,"left","left",0.095999956,1,1,1,0,NA,NA,NA,NA,NA,NA,NA,NA,NA,NA,NA,NA,NA,NA,NA,NA,NA,NA,NA,NA,NA,NA,NA,NA
"285","stim/objects/HouseObjects/cushion.png",441,42,434,0.7,"stim/24.jpeg",2,4,2,2,"HouseObjects",1,1,"left","right",0.32799983,0,0,1,0,NA,NA,NA,NA,NA,NA,NA,NA,NA,NA,NA,NA,NA,NA,NA,NA,NA,NA,NA,NA,NA,NA,NA,NA
"516","stim/objects/Instruments/gong.png",442,42,435,0.9,"stim/33.jpeg",3,3,3,2,"Instruments",2,3,"right","left",0.186999798,0,0,1,0,NA,NA,NA,NA,NA,NA,NA,NA,NA,NA,NA,NA,NA,NA,NA,NA,NA,NA,NA,NA,NA,NA,NA,NA
"263","stim/objects/HouseObjects/broom.png",443,42,436,0.5,"stim/62.jpeg",6,2,1,2,"HouseObjects",1,2,"left","right",0.25999999,0,0,1,0,NA,NA,NA,NA,NA,NA,NA,NA,NA,NA,NA,NA,NA,NA,NA,NA,NA,NA,NA,NA,NA,NA,NA,NA
"248","stim/objects/HouseObjects/barbecuelighter.png",444,42,437,0.5,"stim/54.jpeg",5,4,1,2,"HouseObjects",1,2,"left","right",0.329999924,0,0,1,0,NA,NA,NA,NA,NA,NA,NA,NA,NA,NA,NA,NA,NA,NA,NA,NA,NA,NA,NA,NA,NA,NA,NA,NA
"512","stim/objects/Instruments/gong.png",445,42,438,0.9,"stim/34.jpeg",3,4,3,2,"Instruments",2,4,"right","left",0.086999893,0,0,1,0,NA,NA,NA,NA,NA,NA,NA,NA,NA,NA,NA,NA,NA,NA,NA,NA,NA,NA,NA,NA,NA,NA,NA,NA
"413","stim/objects/Instruments/balalaika.png",446,42,439,0.5,"stim/53.jpeg",5,3,1,2,"Instruments",2,4,"right","right",0.001999855,1,1,1,0,NA,NA,NA,NA,NA,NA,NA,NA,NA,NA,NA,NA,NA,NA,NA,NA,NA,NA,NA,NA,NA,NA,NA,NA
"302","stim/objects/HouseObjects/doormat.png",447,42,440,0.9,"stim/43.jpeg",4,3,3,2,"HouseObjects",1,3,"left","right",0.128999949,0,0,1,0,NA,NA,NA,NA,NA,NA,NA,NA,NA,NA,NA,NA,NA,NA,NA,NA,NA,NA,NA,NA,NA,NA,NA,NA
"546","stim/objects/Instruments/harp2.png",448,42,441,0.9,"stim/32.jpeg",3,2,3,1,"Instruments",2,1,"right","left",0.052999973,0,0,1,0,147,42,1,0.9,2,"stim/32.jpeg",3,2,"stim/32.jpeg",1,"right",0.766000271,2,3,0.22200036,2,0.185000181,147,0,0,NA,0,NA,0
"556","stim/objects/Instruments/timbal2.png",449,42,442,0.1,"stim/41.jpeg",4,1,3,1,"Instruments",2,1,"right","right",0.032000065,1,1,1,0,158,42,1,0.1,2,"stim/41.jpeg",4,1,"stim/41.jpeg",1,"right",0.933000326,3,3,0.466000319,1,0.342000246,158,0,0,NA,1,NA,0
"313","stim/objects/HouseObjects/dustpan.png",450,42,443,0.9,"stim/44.jpeg",4,4,3,2,"HouseObjects",1,3,"left","right",0.010999918,0,0,1,0,NA,NA,NA,NA,NA,NA,NA,NA,NA,NA,NA,NA,NA,NA,NA,NA,NA,NA,NA,NA,NA,NA,NA,NA
"419","stim/objects/Instruments/bassdrum.png",451,42,444,0.5,"stim/54.jpeg",5,4,1,2,"Instruments",2,3,"right","left",0.000999928,0,0,1,0,NA,NA,NA,NA,NA,NA,NA,NA,NA,NA,NA,NA,NA,NA,NA,NA,NA,NA,NA,NA,NA,NA,NA,NA
"274","stim/objects/HouseObjects/clothesdryingrack2.png",452,42,445,0.7,"stim/21.jpeg",2,1,2,1,"HouseObjects",1,3,"left","right",0.246000051,0,0,1,0,101,42,1,0.7,1,"stim/21.jpeg",2,1,"stim/21.jpeg",3,"right",1.421000004,2,2,0.635000229,2,1.130000114,101,0,0,NA,0,NA,0
"260","stim/objects/HouseObjects/bottle.png",453,42,446,0.5,"stim/61.jpeg",6,1,1,2,"HouseObjects",1,2,"left","left",0.07799983,1,1,1,0,NA,NA,NA,NA,NA,NA,NA,NA,NA,NA,NA,NA,NA,NA,NA,NA,NA,NA,NA,NA,NA,NA,NA,NA
"472","stim/objects/Instruments/flute2.png",454,42,447,0.9,"stim/33.jpeg",3,3,3,1,"Instruments",2,4,"right","left",0.203000069,0,0,1,0,14,42,1,0.9,2,"stim/33.jpeg",3,3,"stim/33.jpeg",4,"left",0.469000101,2,3,0.912000179,1,1.461000204,14,1,1,1,0,0,0
"349","stim/objects/HouseObjects/garbagebin.png",455,42,448,0.9,"stim/43.jpeg",4,3,3,2,"HouseObjects",1,3,"left","right",0.297999859,0,0,1,0,NA,NA,NA,NA,NA,NA,NA,NA,NA,NA,NA,NA,NA,NA,NA,NA,NA,NA,NA,NA,NA,NA,NA,NA
"518","stim/objects/Instruments/gong.png",456,42,449,0.9,"stim/33.jpeg",3,3,3,2,"Instruments",2,2,"right","left",0.444000006,0,0,1,0,NA,NA,NA,NA,NA,NA,NA,NA,NA,NA,NA,NA,NA,NA,NA,NA,NA,NA,NA,NA,NA,NA,NA,NA
"488","stim/objects/Instruments/flutetrans.png",457,42,450,0.9,"stim/32.jpeg",3,2,3,2,"Instruments",2,4,"right","right",0.701999903,1,1,1,0,NA,NA,NA,NA,NA,NA,NA,NA,NA,NA,NA,NA,NA,NA,NA,NA,NA,NA,NA,NA,NA,NA,NA,NA
"552","stim/objects/Instruments/speaker2.png",458,42,451,0.1,"stim/43.jpeg",4,3,3,1,"Instruments",2,1,"right","left",0.262999773,0,0,1,0,61,42,1,0.1,2,"stim/43.jpeg",4,3,"stim/43.jpeg",1,"right",1.60400033,3,2,0.739000082,3,1.183000088,61,0,0,NA,0,NA,0
"372","stim/objects/HouseObjects/glass.png",459,42,452,0.9,"stim/42.jpeg",4,2,3,2,"HouseObjects",1,2,"left","right",0.372999907,0,0,1,0,NA,NA,NA,NA,NA,NA,NA,NA,NA,NA,NA,NA,NA,NA,NA,NA,NA,NA,NA,NA,NA,NA,NA,NA
"289","stim/objects/HouseObjects/dishsoap.png",460,42,453,0.7,"stim/21.jpeg",2,1,2,2,"HouseObjects",1,3,"left","left",0.212999821,1,1,1,0,NA,NA,NA,NA,NA,NA,NA,NA,NA,NA,NA,NA,NA,NA,NA,NA,NA,NA,NA,NA,NA,NA,NA,NA
"324","stim/objects/HouseObjects/dustpan2.png",461,42,454,0.1,"stim/32.jpeg",3,2,3,1,"HouseObjects",1,2,"left","left",0.111999989,1,1,1,0,79,42,1,0.1,1,"stim/32.jpeg",3,2,"stim/32.jpeg",2,"left",5.236000299,2,3,0.921000242,4,0.796000004,79,1,0,0,0,0,0
"495","stim/objects/Instruments/frenchhorn.png",462,42,455,0.9,"stim/34.jpeg",3,4,3,2,"Instruments",2,1,"right","right",0.273000002,1,1,1,0,NA,NA,NA,NA,NA,NA,NA,NA,NA,NA,NA,NA,NA,NA,NA,NA,NA,NA,NA,NA,NA,NA,NA,NA
"485","stim/objects/Instruments/flutetrans.png",463,42,456,0.9,"stim/34.jpeg",3,4,3,2,"Instruments",2,4,"right","right",0.187000036,1,1,1,0,NA,NA,NA,NA,NA,NA,NA,NA,NA,NA,NA,NA,NA,NA,NA,NA,NA,NA,NA,NA,NA,NA,NA,NA
"350","stim/objects/HouseObjects/garbagebin.png",464,42,457,0.9,"stim/44.jpeg",4,4,3,2,"HouseObjects",1,3,"left","right",0.356999874,0,0,1,0,NA,NA,NA,NA,NA,NA,NA,NA,NA,NA,NA,NA,NA,NA,NA,NA,NA,NA,NA,NA,NA,NA,NA,NA
"375","stim/objects/HouseObjects/glass2.png",465,42,458,0.1,"stim/31.jpeg",3,1,3,1,"HouseObjects",1,1,"left","right",0.458999872,0,0,1,0,155,42,1,0.1,1,"stim/31.jpeg",3,1,"stim/31.jpeg",1,"left",0.760000229,1,2,0.397000074,3,0.310000181,155,1,0,0,0,0,0
"390","stim/objects/HouseObjects/sponge.png",466,42,459,0.5,"stim/63.jpeg",6,3,1,1,"HouseObjects",1,1,"left","left",0.598999739,1,1,1,0,28,42,1,0.5,2,"stim/63.jpeg",6,3,"stim/63.jpeg",1,"right",1.017000198,2,2,1,3,1.103000164,28,0,0,NA,0,NA,0
"286","stim/objects/HouseObjects/cushion2.png",467,42,460,0.7,"stim/24.jpeg",2,4,2,1,"HouseObjects",1,4,"left","left",0.417999983,1,1,1,0,5,42,1,0.7,1,"stim/24.jpeg",2,4,"stim/24.jpeg",4,"right",3.188000202,3,3,1.572000027,2,1.885000229,5,0,0,NA,0,NA,0
