"","obj_file","X.x","participant.x","trialN.x","trial_cond","scn_file.x","scn_cat","scn_inst","scn_condition","fillers","obj_cat","obj_cat_num","quadrant","corr_ans","key_resp_trial.keys","key_resp_trial.rt","trial_acc","trial_acc_manual","group.x","practice","X.y","participant.y","OvsN","PE_level","object_cat","scn_file.y","corr_scn_cat","corr_scn_inst","scn_file.1","corr_loc","key_resp_id.keys","key_resp_id.rt","key_resp_conf.keys","key_resp_assoc.keys","key_resp_assoc.rt","key_resp_loc.keys","key_resp_loc.rt","trialN.y","id_acc","assoc.acc","cond_assoc","loc.acc","cond_loc","group.y"
"134","stim/objects/Instruments/saxophone2.png",1,4,1,0.3,"stim/62.jpeg",6,2,2,NA,"Instruments",2,4,"right","",NA,0,0,1,1,NA,NA,NA,NA,NA,NA,NA,NA,NA,NA,NA,NA,NA,NA,NA,NA,NA,NA,NA,NA,NA,NA,NA,NA
"100","stim/objects/HouseObjects/vacuumcleaner2.png",2,4,2,0.9,"stim/23.jpeg",2,3,3,NA,"HouseObjects",1,4,"left","left",0.732999802,1,1,1,1,NA,NA,NA,NA,NA,NA,NA,NA,NA,NA,NA,NA,NA,NA,NA,NA,NA,NA,NA,NA,NA,NA,NA,NA
"233","stim/objects/Instruments/xylophone.png",3,4,3,0.7,"stim/54.jpeg",5,4,2,NA,"Instruments",2,2,"right","right",0.893000126,1,1,1,1,NA,NA,NA,NA,NA,NA,NA,NA,NA,NA,NA,NA,NA,NA,NA,NA,NA,NA,NA,NA,NA,NA,NA,NA
"61","stim/objects/HouseObjects/teapot.png",4,4,4,0.5,"stim/43.jpeg",4,3,1,NA,"HouseObjects",1,2,"left","left",0.726999998,1,1,1,1,NA,NA,NA,NA,NA,NA,NA,NA,NA,NA,NA,NA,NA,NA,NA,NA,NA,NA,NA,NA,NA,NA,NA,NA
"225","stim/objects/Instruments/vuvuzela.png",5,4,5,0.7,"stim/53.jpeg",5,3,2,NA,"Instruments",2,4,"right","right",0.751000166,1,1,1,1,NA,NA,NA,NA,NA,NA,NA,NA,NA,NA,NA,NA,NA,NA,NA,NA,NA,NA,NA,NA,NA,NA,NA,NA
"54","stim/objects/HouseObjects/sponge2.png",6,4,6,0.1,"stim/11.jpeg",1,1,3,NA,"HouseObjects",1,2,"left","right",0.811000109,0,0,1,1,NA,NA,NA,NA,NA,NA,NA,NA,NA,NA,NA,NA,NA,NA,NA,NA,NA,NA,NA,NA,NA,NA,NA,NA
"25","stim/objects/HouseObjects/saw.png",7,4,7,0.5,"stim/33.jpeg",3,3,1,NA,"HouseObjects",1,1,"left","left",0.589999914,1,1,1,1,NA,NA,NA,NA,NA,NA,NA,NA,NA,NA,NA,NA,NA,NA,NA,NA,NA,NA,NA,NA,NA,NA,NA,NA
"1","stim/objects/HouseObjects/rug.png",8,4,8,0.5,"stim/31.jpeg",3,1,1,NA,"HouseObjects",1,2,"left","left",0.55099988,1,1,1,1,NA,NA,NA,NA,NA,NA,NA,NA,NA,NA,NA,NA,NA,NA,NA,NA,NA,NA,NA,NA,NA,NA,NA,NA
"172","stim/objects/Instruments/triangle2.png",9,4,9,0.9,"stim/12.jpeg",1,2,3,NA,"Instruments",2,1,"right","right",0.684000015,1,1,1,1,NA,NA,NA,NA,NA,NA,NA,NA,NA,NA,NA,NA,NA,NA,NA,NA,NA,NA,NA,NA,NA,NA,NA,NA
"62","stim/objects/HouseObjects/teapot.png",10,4,10,0.5,"stim/43.jpeg",4,3,1,NA,"HouseObjects",1,4,"left","left",0.695999861,1,1,1,1,NA,NA,NA,NA,NA,NA,NA,NA,NA,NA,NA,NA,NA,NA,NA,NA,NA,NA,NA,NA,NA,NA,NA,NA
"137","stim/objects/Instruments/speaker.png",11,4,11,0.5,"stim/33.jpeg",3,3,1,NA,"Instruments",2,1,"right","left",0.608999968,0,0,1,1,NA,NA,NA,NA,NA,NA,NA,NA,NA,NA,NA,NA,NA,NA,NA,NA,NA,NA,NA,NA,NA,NA,NA,NA
"234","stim/objects/Instruments/xylophone.png",12,4,12,0.7,"stim/54.jpeg",5,4,2,NA,"Instruments",2,1,"right","right",0.61500001,1,1,1,1,NA,NA,NA,NA,NA,NA,NA,NA,NA,NA,NA,NA,NA,NA,NA,NA,NA,NA,NA,NA,NA,NA,NA,NA
"167","stim/objects/Instruments/triangle.png",13,4,13,0.5,"stim/42.jpeg",4,2,1,NA,"Instruments",2,1,"right","right",0.717000008,1,1,1,1,NA,NA,NA,NA,NA,NA,NA,NA,NA,NA,NA,NA,NA,NA,NA,NA,NA,NA,NA,NA,NA,NA,NA,NA
"200","stim/objects/Instruments/trumpet2.png",14,4,14,0.9,"stim/14.jpeg",1,4,3,NA,"Instruments",2,3,"right","right",0.610000134,1,1,1,1,NA,NA,NA,NA,NA,NA,NA,NA,NA,NA,NA,NA,NA,NA,NA,NA,NA,NA,NA,NA,NA,NA,NA,NA
"129","stim/objects/Instruments/saxophone.png",15,4,15,0.5,"stim/32.jpeg",3,2,1,NA,"Instruments",2,1,"right","left",0.502000093,0,0,1,1,NA,NA,NA,NA,NA,NA,NA,NA,NA,NA,NA,NA,NA,NA,NA,NA,NA,NA,NA,NA,NA,NA,NA,NA
"109","stim/objects/HouseObjects/wateringcan.png",16,4,16,0.3,"stim/54.jpeg",5,4,2,NA,"HouseObjects",1,2,"left","right",0.561999798,0,0,1,1,NA,NA,NA,NA,NA,NA,NA,NA,NA,NA,NA,NA,NA,NA,NA,NA,NA,NA,NA,NA,NA,NA,NA,NA
"55","stim/objects/HouseObjects/spraybottle.png",17,4,17,0.5,"stim/42.jpeg",4,2,1,NA,"HouseObjects",1,4,"left","right",0.608999968,0,0,1,1,NA,NA,NA,NA,NA,NA,NA,NA,NA,NA,NA,NA,NA,NA,NA,NA,NA,NA,NA,NA,NA,NA,NA,NA
"6","stim/objects/HouseObjects/rug2.png",18,4,18,0.7,"stim/61.jpeg",6,1,2,NA,"HouseObjects",1,2,"left","left",0.415999889,1,1,1,1,NA,NA,NA,NA,NA,NA,NA,NA,NA,NA,NA,NA,NA,NA,NA,NA,NA,NA,NA,NA,NA,NA,NA,NA
"63","stim/objects/HouseObjects/teapot.png",19,4,19,0.5,"stim/43.jpeg",4,3,1,NA,"HouseObjects",1,4,"left","left",0.825999975,1,1,1,1,NA,NA,NA,NA,NA,NA,NA,NA,NA,NA,NA,NA,NA,NA,NA,NA,NA,NA,NA,NA,NA,NA,NA,NA
"112","stim/objects/HouseObjects/wateringcan2.png",20,4,20,0.9,"stim/24.jpeg",2,4,3,NA,"HouseObjects",1,2,"left","left",0.566999912,1,1,1,1,NA,NA,NA,NA,NA,NA,NA,NA,NA,NA,NA,NA,NA,NA,NA,NA,NA,NA,NA,NA,NA,NA,NA,NA
"217","stim/objects/Instruments/violin.png",21,4,21,0.7,"stim/52.jpeg",5,2,2,NA,"Instruments",2,2,"right","right",0.724999905,1,1,1,1,NA,NA,NA,NA,NA,NA,NA,NA,NA,NA,NA,NA,NA,NA,NA,NA,NA,NA,NA,NA,NA,NA,NA,NA
"173","stim/objects/Instruments/triangle2.png",22,4,22,0.9,"stim/12.jpeg",1,2,3,NA,"Instruments",2,1,"right","right",0.63499999,1,1,1,1,NA,NA,NA,NA,NA,NA,NA,NA,NA,NA,NA,NA,NA,NA,NA,NA,NA,NA,NA,NA,NA,NA,NA,NA
"30","stim/objects/HouseObjects/saw2.png",23,4,23,0.7,"stim/63.jpeg",6,3,2,NA,"HouseObjects",1,3,"left","left",0.765000105,1,1,1,1,NA,NA,NA,NA,NA,NA,NA,NA,NA,NA,NA,NA,NA,NA,NA,NA,NA,NA,NA,NA,NA,NA,NA,NA
"13","stim/objects/HouseObjects/safetypin.png",24,4,24,0.5,"stim/32.jpeg",3,2,1,NA,"HouseObjects",1,3,"left","right",0.72300005,0,0,1,1,NA,NA,NA,NA,NA,NA,NA,NA,NA,NA,NA,NA,NA,NA,NA,NA,NA,NA,NA,NA,NA,NA,NA,NA
"235","stim/objects/Instruments/xylophone.png",25,4,25,0.7,"stim/54.jpeg",5,4,2,NA,"Instruments",2,4,"right","right",0.597000122,1,1,1,1,NA,NA,NA,NA,NA,NA,NA,NA,NA,NA,NA,NA,NA,NA,NA,NA,NA,NA,NA,NA,NA,NA,NA,NA
"158","stim/objects/Instruments/timbal2.png",26,4,26,0.9,"stim/11.jpeg",1,1,3,NA,"Instruments",2,4,"right","right",0.650000095,1,1,1,1,NA,NA,NA,NA,NA,NA,NA,NA,NA,NA,NA,NA,NA,NA,NA,NA,NA,NA,NA,NA,NA,NA,NA,NA
"2","stim/objects/HouseObjects/rug.png",27,4,27,0.5,"stim/31.jpeg",3,1,1,NA,"HouseObjects",1,2,"left","right",0.809000015,0,0,1,1,NA,NA,NA,NA,NA,NA,NA,NA,NA,NA,NA,NA,NA,NA,NA,NA,NA,NA,NA,NA,NA,NA,NA,NA
"168","stim/objects/Instruments/triangle.png",28,4,28,0.5,"stim/42.jpeg",4,2,1,NA,"Instruments",2,2,"right","right",0.770999908,1,1,1,1,NA,NA,NA,NA,NA,NA,NA,NA,NA,NA,NA,NA,NA,NA,NA,NA,NA,NA,NA,NA,NA,NA,NA,NA
"18","stim/objects/HouseObjects/safetypin2.png",29,4,29,0.7,"stim/62.jpeg",6,2,2,NA,"HouseObjects",1,4,"left","left",0.542999983,1,1,1,1,NA,NA,NA,NA,NA,NA,NA,NA,NA,NA,NA,NA,NA,NA,NA,NA,NA,NA,NA,NA,NA,NA,NA,NA
"145","stim/objects/Instruments/tambourine.png",30,4,30,0.5,"stim/34.jpeg",3,4,1,NA,"Instruments",2,1,"right","right",0.804000139,1,1,1,1,NA,NA,NA,NA,NA,NA,NA,NA,NA,NA,NA,NA,NA,NA,NA,NA,NA,NA,NA,NA,NA,NA,NA,NA
"110","stim/objects/HouseObjects/wateringcan.png",31,4,31,0.3,"stim/54.jpeg",5,4,2,NA,"HouseObjects",1,2,"left","right",0.636999846,0,0,1,1,NA,NA,NA,NA,NA,NA,NA,NA,NA,NA,NA,NA,NA,NA,NA,NA,NA,NA,NA,NA,NA,NA,NA,NA
"181","stim/objects/Instruments/trombone.png",32,4,32,0.5,"stim/43.jpeg",4,3,1,NA,"Instruments",2,4,"right","right",0.679000139,1,1,1,1,NA,NA,NA,NA,NA,NA,NA,NA,NA,NA,NA,NA,NA,NA,NA,NA,NA,NA,NA,NA,NA,NA,NA,NA
"209","stim/objects/Instruments/tuba.png",33,4,33,0.7,"stim/51.jpeg",5,1,2,NA,"Instruments",2,3,"right","right",0.599999905,1,1,1,1,NA,NA,NA,NA,NA,NA,NA,NA,NA,NA,NA,NA,NA,NA,NA,NA,NA,NA,NA,NA,NA,NA,NA,NA
"56","stim/objects/HouseObjects/spraybottle.png",34,4,34,0.5,"stim/42.jpeg",4,2,1,NA,"HouseObjects",1,2,"left","left",0.766000032,1,1,1,1,NA,NA,NA,NA,NA,NA,NA,NA,NA,NA,NA,NA,NA,NA,NA,NA,NA,NA,NA,NA,NA,NA,NA,NA
"26","stim/objects/HouseObjects/saw.png",35,4,35,0.5,"stim/33.jpeg",3,3,1,NA,"HouseObjects",1,3,"left","left",0.607000113,1,1,1,1,NA,NA,NA,NA,NA,NA,NA,NA,NA,NA,NA,NA,NA,NA,NA,NA,NA,NA,NA,NA,NA,NA,NA,NA
"76","stim/objects/HouseObjects/thread2.png",36,4,36,0.9,"stim/21.jpeg",2,1,3,NA,"HouseObjects",1,1,"left","left",0.555999994,1,1,1,1,NA,NA,NA,NA,NA,NA,NA,NA,NA,NA,NA,NA,NA,NA,NA,NA,NA,NA,NA,NA,NA,NA,NA,NA
"135","stim/objects/Instruments/saxophone2.png",37,4,37,0.3,"stim/62.jpeg",6,2,2,NA,"Instruments",2,4,"right","left",0.532000065,0,0,1,1,NA,NA,NA,NA,NA,NA,NA,NA,NA,NA,NA,NA,NA,NA,NA,NA,NA,NA,NA,NA,NA,NA,NA,NA
"169","stim/objects/Instruments/triangle.png",38,4,38,0.5,"stim/42.jpeg",4,2,1,NA,"Instruments",2,1,"right","right",0.677000046,1,1,1,1,NA,NA,NA,NA,NA,NA,NA,NA,NA,NA,NA,NA,NA,NA,NA,NA,NA,NA,NA,NA,NA,NA,NA,NA
"153","stim/objects/Instruments/timbal.png",39,4,39,0.5,"stim/41.jpeg",4,1,1,NA,"Instruments",2,4,"right","left",0.766000032,0,0,1,1,NA,NA,NA,NA,NA,NA,NA,NA,NA,NA,NA,NA,NA,NA,NA,NA,NA,NA,NA,NA,NA,NA,NA,NA
"218","stim/objects/Instruments/violin.png",40,4,40,0.7,"stim/52.jpeg",5,2,2,NA,"Instruments",2,2,"right","right",0.57400012,1,1,1,1,NA,NA,NA,NA,NA,NA,NA,NA,NA,NA,NA,NA,NA,NA,NA,NA,NA,NA,NA,NA,NA,NA,NA,NA
"88","stim/objects/HouseObjects/towel2.png",41,4,41,0.9,"stim/22.jpeg",2,2,3,NA,"HouseObjects",1,4,"left","left",0.550000191,1,1,1,1,NA,NA,NA,NA,NA,NA,NA,NA,NA,NA,NA,NA,NA,NA,NA,NA,NA,NA,NA,NA,NA,NA,NA,NA
"159","stim/objects/Instruments/timbal2.png",42,4,42,0.9,"stim/11.jpeg",1,1,3,NA,"Instruments",2,2,"right","right",0.644000053,1,1,1,1,NA,NA,NA,NA,NA,NA,NA,NA,NA,NA,NA,NA,NA,NA,NA,NA,NA,NA,NA,NA,NA,NA,NA,NA
"142","stim/objects/Instruments/speaker2.png",43,4,43,0.3,"stim/63.jpeg",6,3,2,NA,"Instruments",2,1,"right","left",0.569000006,0,0,1,1,NA,NA,NA,NA,NA,NA,NA,NA,NA,NA,NA,NA,NA,NA,NA,NA,NA,NA,NA,NA,NA,NA,NA,NA
"77","stim/objects/HouseObjects/thread2.png",44,4,44,0.9,"stim/21.jpeg",2,1,3,NA,"HouseObjects",1,4,"left","left",0.552999973,1,1,1,1,NA,NA,NA,NA,NA,NA,NA,NA,NA,NA,NA,NA,NA,NA,NA,NA,NA,NA,NA,NA,NA,NA,NA,NA
"174","stim/objects/Instruments/triangle2.png",45,4,45,0.9,"stim/12.jpeg",1,2,3,NA,"Instruments",2,3,"right","right",0.625,1,1,1,1,NA,NA,NA,NA,NA,NA,NA,NA,NA,NA,NA,NA,NA,NA,NA,NA,NA,NA,NA,NA,NA,NA,NA,NA
"154","stim/objects/Instruments/timbal.png",46,4,46,0.5,"stim/41.jpeg",4,1,1,NA,"Instruments",2,2,"right","left",0.721999884,0,0,1,1,NA,NA,NA,NA,NA,NA,NA,NA,NA,NA,NA,NA,NA,NA,NA,NA,NA,NA,NA,NA,NA,NA,NA,NA
"226","stim/objects/Instruments/vuvuzela.png",47,4,47,0.7,"stim/53.jpeg",5,3,2,NA,"Instruments",2,1,"right","right",0.56400013,1,1,1,1,NA,NA,NA,NA,NA,NA,NA,NA,NA,NA,NA,NA,NA,NA,NA,NA,NA,NA,NA,NA,NA,NA,NA,NA
"175","stim/objects/Instruments/triangle2.png",48,4,48,0.9,"stim/12.jpeg",1,2,3,NA,"Instruments",2,1,"right","right",0.624000072,1,1,1,1,NA,NA,NA,NA,NA,NA,NA,NA,NA,NA,NA,NA,NA,NA,NA,NA,NA,NA,NA,NA,NA,NA,NA,NA
"121","stim/objects/Instruments/record_player.png",49,4,49,0.5,"stim/31.jpeg",3,1,1,NA,"Instruments",2,1,"right","left",0.625999928,0,0,1,1,NA,NA,NA,NA,NA,NA,NA,NA,NA,NA,NA,NA,NA,NA,NA,NA,NA,NA,NA,NA,NA,NA,NA,NA
"97","stim/objects/HouseObjects/vacuumcleaner.png",50,4,50,0.3,"stim/53.jpeg",5,3,2,NA,"HouseObjects",1,3,"left","right",0.679999828,0,0,1,1,NA,NA,NA,NA,NA,NA,NA,NA,NA,NA,NA,NA,NA,NA,NA,NA,NA,NA,NA,NA,NA,NA,NA,NA
"219","stim/objects/Instruments/violin.png",51,4,51,0.7,"stim/52.jpeg",5,2,2,NA,"Instruments",2,3,"right","right",0.766000032,1,1,1,1,NA,NA,NA,NA,NA,NA,NA,NA,NA,NA,NA,NA,NA,NA,NA,NA,NA,NA,NA,NA,NA,NA,NA,NA
"67","stim/objects/HouseObjects/thermometer.png",52,4,52,0.5,"stim/44.jpeg",4,4,1,NA,"HouseObjects",1,1,"left","left",0.882999897,1,1,1,1,NA,NA,NA,NA,NA,NA,NA,NA,NA,NA,NA,NA,NA,NA,NA,NA,NA,NA,NA,NA,NA,NA,NA,NA
"210","stim/objects/Instruments/tuba.png",53,4,53,0.7,"stim/51.jpeg",5,1,2,NA,"Instruments",2,2,"right","right",0.673000097,1,1,1,1,NA,NA,NA,NA,NA,NA,NA,NA,NA,NA,NA,NA,NA,NA,NA,NA,NA,NA,NA,NA,NA,NA,NA,NA
"89","stim/objects/HouseObjects/towel2.png",54,4,54,0.9,"stim/22.jpeg",2,2,3,NA,"HouseObjects",1,1,"left","left",0.511999846,1,1,1,1,NA,NA,NA,NA,NA,NA,NA,NA,NA,NA,NA,NA,NA,NA,NA,NA,NA,NA,NA,NA,NA,NA,NA,NA
"160","stim/objects/Instruments/timbal2.png",55,4,55,0.9,"stim/11.jpeg",1,1,3,NA,"Instruments",2,4,"right","right",0.567000151,1,1,1,1,NA,NA,NA,NA,NA,NA,NA,NA,NA,NA,NA,NA,NA,NA,NA,NA,NA,NA,NA,NA,NA,NA,NA,NA
"7","stim/objects/HouseObjects/rug2.png",56,4,56,0.7,"stim/61.jpeg",6,1,2,NA,"HouseObjects",1,1,"left","left",0.588999987,1,1,1,1,NA,NA,NA,NA,NA,NA,NA,NA,NA,NA,NA,NA,NA,NA,NA,NA,NA,NA,NA,NA,NA,NA,NA,NA
"19","stim/objects/HouseObjects/safetypin2.png",57,4,57,0.7,"stim/62.jpeg",6,2,2,NA,"HouseObjects",1,2,"left","left",0.601999998,1,1,1,1,NA,NA,NA,NA,NA,NA,NA,NA,NA,NA,NA,NA,NA,NA,NA,NA,NA,NA,NA,NA,NA,NA,NA,NA
"130","stim/objects/Instruments/saxophone.png",58,4,58,0.5,"stim/32.jpeg",3,2,1,NA,"Instruments",2,4,"right","right",0.825999975,1,1,1,1,NA,NA,NA,NA,NA,NA,NA,NA,NA,NA,NA,NA,NA,NA,NA,NA,NA,NA,NA,NA,NA,NA,NA,NA
"3","stim/objects/HouseObjects/rug.png",59,4,59,0.5,"stim/31.jpeg",3,1,1,NA,"HouseObjects",1,1,"left","right",0.556999922,0,0,1,1,NA,NA,NA,NA,NA,NA,NA,NA,NA,NA,NA,NA,NA,NA,NA,NA,NA,NA,NA,NA,NA,NA,NA,NA
"236","stim/objects/Instruments/xylophone.png",60,4,60,0.7,"stim/54.jpeg",5,4,2,NA,"Instruments",2,3,"right","right",0.565999985,1,1,1,1,NA,NA,NA,NA,NA,NA,NA,NA,NA,NA,NA,NA,NA,NA,NA,NA,NA,NA,NA,NA,NA,NA,NA,NA
"161","stim/objects/Instruments/timbal2.png",61,4,61,0.9,"stim/11.jpeg",1,1,3,NA,"Instruments",2,2,"right","right",0.923999786,1,1,1,1,NA,NA,NA,NA,NA,NA,NA,NA,NA,NA,NA,NA,NA,NA,NA,NA,NA,NA,NA,NA,NA,NA,NA,NA
"72","stim/objects/HouseObjects/thermometer2.png",62,4,62,0.1,"stim/14.jpeg",1,4,3,NA,"HouseObjects",1,3,"left","right",0.575000048,0,0,1,1,NA,NA,NA,NA,NA,NA,NA,NA,NA,NA,NA,NA,NA,NA,NA,NA,NA,NA,NA,NA,NA,NA,NA,NA
"176","stim/objects/Instruments/triangle2.png",63,4,63,0.9,"stim/12.jpeg",1,2,3,NA,"Instruments",2,3,"right","right",0.537999868,1,1,1,1,NA,NA,NA,NA,NA,NA,NA,NA,NA,NA,NA,NA,NA,NA,NA,NA,NA,NA,NA,NA,NA,NA,NA,NA
"98","stim/objects/HouseObjects/vacuumcleaner.png",64,4,64,0.3,"stim/53.jpeg",5,3,2,NA,"HouseObjects",1,4,"left","right",0.624000072,0,0,1,1,NA,NA,NA,NA,NA,NA,NA,NA,NA,NA,NA,NA,NA,NA,NA,NA,NA,NA,NA,NA,NA,NA,NA,NA
"220","stim/objects/Instruments/violin.png",65,4,65,0.7,"stim/52.jpeg",5,2,2,NA,"Instruments",2,4,"right","right",0.605000019,1,1,1,1,NA,NA,NA,NA,NA,NA,NA,NA,NA,NA,NA,NA,NA,NA,NA,NA,NA,NA,NA,NA,NA,NA,NA,NA
"37","stim/objects/HouseObjects/scale.png",66,4,66,0.5,"stim/34.jpeg",3,4,1,NA,"HouseObjects",1,2,"left","left",0.618000031,1,1,1,1,NA,NA,NA,NA,NA,NA,NA,NA,NA,NA,NA,NA,NA,NA,NA,NA,NA,NA,NA,NA,NA,NA,NA,NA
"122","stim/objects/Instruments/record_player.png",67,4,67,0.5,"stim/31.jpeg",3,1,1,NA,"Instruments",2,2,"right","left",0.427000046,0,0,1,1,NA,NA,NA,NA,NA,NA,NA,NA,NA,NA,NA,NA,NA,NA,NA,NA,NA,NA,NA,NA,NA,NA,NA,NA
"136","stim/objects/Instruments/saxophone2.png",68,4,68,0.3,"stim/62.jpeg",6,2,2,NA,"Instruments",2,3,"right","left",0.59800005,0,0,1,1,NA,NA,NA,NA,NA,NA,NA,NA,NA,NA,NA,NA,NA,NA,NA,NA,NA,NA,NA,NA,NA,NA,NA,NA
"90","stim/objects/HouseObjects/towel2.png",69,4,69,0.9,"stim/22.jpeg",2,2,3,NA,"HouseObjects",1,2,"left","left",0.540999889,1,1,1,1,NA,NA,NA,NA,NA,NA,NA,NA,NA,NA,NA,NA,NA,NA,NA,NA,NA,NA,NA,NA,NA,NA,NA,NA
"101","stim/objects/HouseObjects/vacuumcleaner2.png",70,4,70,0.9,"stim/23.jpeg",2,3,3,NA,"HouseObjects",1,2,"left","left",0.43900013,1,1,1,1,NA,NA,NA,NA,NA,NA,NA,NA,NA,NA,NA,NA,NA,NA,NA,NA,NA,NA,NA,NA,NA,NA,NA,NA
"201","stim/objects/Instruments/trumpet2.png",71,4,71,0.9,"stim/14.jpeg",1,4,3,NA,"Instruments",2,2,"right","right",0.779000044,1,1,1,1,NA,NA,NA,NA,NA,NA,NA,NA,NA,NA,NA,NA,NA,NA,NA,NA,NA,NA,NA,NA,NA,NA,NA,NA
"64","stim/objects/HouseObjects/teapot.png",72,4,72,0.5,"stim/43.jpeg",4,3,1,NA,"HouseObjects",1,4,"left","",NA,0,0,1,1,NA,NA,NA,NA,NA,NA,NA,NA,NA,NA,NA,NA,NA,NA,NA,NA,NA,NA,NA,NA,NA,NA,NA,NA
"227","stim/objects/Instruments/vuvuzela.png",73,4,73,0.7,"stim/53.jpeg",5,3,2,NA,"Instruments",2,2,"right","right",0.697999954,1,1,1,1,NA,NA,NA,NA,NA,NA,NA,NA,NA,NA,NA,NA,NA,NA,NA,NA,NA,NA,NA,NA,NA,NA,NA,NA
"42","stim/objects/HouseObjects/scale2.png",74,4,74,0.7,"stim/64.jpeg",6,4,2,NA,"HouseObjects",1,4,"left","left",0.536000013,1,1,1,1,NA,NA,NA,NA,NA,NA,NA,NA,NA,NA,NA,NA,NA,NA,NA,NA,NA,NA,NA,NA,NA,NA,NA,NA
"202","stim/objects/Instruments/trumpet2.png",75,4,75,0.9,"stim/14.jpeg",1,4,3,NA,"Instruments",2,1,"right","right",0.608999968,1,1,1,1,NA,NA,NA,NA,NA,NA,NA,NA,NA,NA,NA,NA,NA,NA,NA,NA,NA,NA,NA,NA,NA,NA,NA,NA
"14","stim/objects/HouseObjects/safetypin.png",76,4,76,0.5,"stim/32.jpeg",3,2,1,NA,"HouseObjects",1,4,"left","right",0.707000017,0,0,1,1,NA,NA,NA,NA,NA,NA,NA,NA,NA,NA,NA,NA,NA,NA,NA,NA,NA,NA,NA,NA,NA,NA,NA,NA
"43","stim/objects/HouseObjects/scale2.png",77,4,77,0.7,"stim/64.jpeg",6,4,2,NA,"HouseObjects",1,4,"left","left",0.518999815,1,1,1,1,NA,NA,NA,NA,NA,NA,NA,NA,NA,NA,NA,NA,NA,NA,NA,NA,NA,NA,NA,NA,NA,NA,NA,NA
"78","stim/objects/HouseObjects/thread2.png",78,4,78,0.9,"stim/21.jpeg",2,1,3,NA,"HouseObjects",1,4,"left","left",0.510999918,1,1,1,1,NA,NA,NA,NA,NA,NA,NA,NA,NA,NA,NA,NA,NA,NA,NA,NA,NA,NA,NA,NA,NA,NA,NA,NA
"79","stim/objects/HouseObjects/thread2.png",79,4,79,0.9,"stim/21.jpeg",2,1,3,NA,"HouseObjects",1,2,"left","left",0.499000072,1,1,1,1,NA,NA,NA,NA,NA,NA,NA,NA,NA,NA,NA,NA,NA,NA,NA,NA,NA,NA,NA,NA,NA,NA,NA,NA
"123","stim/objects/Instruments/record_player.png",80,4,80,0.5,"stim/31.jpeg",3,1,1,NA,"Instruments",2,4,"right","right",0.692000151,1,1,1,1,NA,NA,NA,NA,NA,NA,NA,NA,NA,NA,NA,NA,NA,NA,NA,NA,NA,NA,NA,NA,NA,NA,NA,NA
"102","stim/objects/HouseObjects/vacuumcleaner2.png",81,4,81,0.9,"stim/23.jpeg",2,3,3,NA,"HouseObjects",1,4,"left","left",0.59800005,1,1,1,1,NA,NA,NA,NA,NA,NA,NA,NA,NA,NA,NA,NA,NA,NA,NA,NA,NA,NA,NA,NA,NA,NA,NA,NA
"186","stim/objects/Instruments/trombone2.png",82,4,82,0.9,"stim/13.jpeg",1,3,3,NA,"Instruments",2,4,"right","right",0.552000046,1,1,1,1,NA,NA,NA,NA,NA,NA,NA,NA,NA,NA,NA,NA,NA,NA,NA,NA,NA,NA,NA,NA,NA,NA,NA,NA
"131","stim/objects/Instruments/saxophone.png",83,4,83,0.5,"stim/32.jpeg",3,2,1,NA,"Instruments",2,3,"right","right",0.734999895,1,1,1,1,NA,NA,NA,NA,NA,NA,NA,NA,NA,NA,NA,NA,NA,NA,NA,NA,NA,NA,NA,NA,NA,NA,NA,NA
"143","stim/objects/Instruments/speaker2.png",84,4,84,0.3,"stim/63.jpeg",6,3,2,NA,"Instruments",2,4,"right","left",0.590000153,0,0,1,1,NA,NA,NA,NA,NA,NA,NA,NA,NA,NA,NA,NA,NA,NA,NA,NA,NA,NA,NA,NA,NA,NA,NA,NA
"15","stim/objects/HouseObjects/safetypin.png",85,4,85,0.5,"stim/32.jpeg",3,2,1,NA,"HouseObjects",1,4,"left","right",0.664000034,0,0,1,1,NA,NA,NA,NA,NA,NA,NA,NA,NA,NA,NA,NA,NA,NA,NA,NA,NA,NA,NA,NA,NA,NA,NA,NA
"177","stim/objects/Instruments/triangle2.png",86,4,86,0.9,"stim/12.jpeg",1,2,3,NA,"Instruments",2,3,"right","right",0.638000011,1,1,1,1,NA,NA,NA,NA,NA,NA,NA,NA,NA,NA,NA,NA,NA,NA,NA,NA,NA,NA,NA,NA,NA,NA,NA,NA
"195","stim/objects/Instruments/trumpet.png",87,4,87,0.5,"stim/44.jpeg",4,4,1,NA,"Instruments",2,1,"right","left",0.692000151,0,0,1,1,NA,NA,NA,NA,NA,NA,NA,NA,NA,NA,NA,NA,NA,NA,NA,NA,NA,NA,NA,NA,NA,NA,NA,NA
"66","stim/objects/HouseObjects/teapot2.png",88,4,88,0.1,"stim/13.jpeg",1,3,3,NA,"HouseObjects",1,1,"left","right",0.599999905,0,0,1,1,NA,NA,NA,NA,NA,NA,NA,NA,NA,NA,NA,NA,NA,NA,NA,NA,NA,NA,NA,NA,NA,NA,NA,NA
"91","stim/objects/HouseObjects/towel2.png",89,4,89,0.9,"stim/22.jpeg",2,2,3,NA,"HouseObjects",1,4,"left","left",0.542000055,1,1,1,1,NA,NA,NA,NA,NA,NA,NA,NA,NA,NA,NA,NA,NA,NA,NA,NA,NA,NA,NA,NA,NA,NA,NA,NA
"80","stim/objects/HouseObjects/thread2.png",90,4,90,0.9,"stim/21.jpeg",2,1,3,NA,"HouseObjects",1,2,"left","left",0.558000088,1,1,1,1,NA,NA,NA,NA,NA,NA,NA,NA,NA,NA,NA,NA,NA,NA,NA,NA,NA,NA,NA,NA,NA,NA,NA,NA
"221","stim/objects/Instruments/violin.png",91,4,91,0.7,"stim/52.jpeg",5,2,2,NA,"Instruments",2,3,"right","right",0.68900013,1,1,1,1,NA,NA,NA,NA,NA,NA,NA,NA,NA,NA,NA,NA,NA,NA,NA,NA,NA,NA,NA,NA,NA,NA,NA,NA
"113","stim/objects/HouseObjects/wateringcan2.png",92,4,92,0.9,"stim/24.jpeg",2,4,3,NA,"HouseObjects",1,4,"left","left",0.539999962,1,1,1,1,NA,NA,NA,NA,NA,NA,NA,NA,NA,NA,NA,NA,NA,NA,NA,NA,NA,NA,NA,NA,NA,NA,NA,NA
"146","stim/objects/Instruments/tambourine.png",93,4,93,0.5,"stim/34.jpeg",3,4,1,NA,"Instruments",2,4,"right","right",0.84800005,1,1,1,1,NA,NA,NA,NA,NA,NA,NA,NA,NA,NA,NA,NA,NA,NA,NA,NA,NA,NA,NA,NA,NA,NA,NA,NA
"132","stim/objects/Instruments/saxophone.png",94,4,94,0.5,"stim/32.jpeg",3,2,1,NA,"Instruments",2,1,"right","right",0.589999914,1,1,1,1,NA,NA,NA,NA,NA,NA,NA,NA,NA,NA,NA,NA,NA,NA,NA,NA,NA,NA,NA,NA,NA,NA,NA,NA
"178","stim/objects/Instruments/triangle2.png",95,4,95,0.9,"stim/12.jpeg",1,2,3,NA,"Instruments",2,4,"right","right",0.493000031,1,1,1,1,NA,NA,NA,NA,NA,NA,NA,NA,NA,NA,NA,NA,NA,NA,NA,NA,NA,NA,NA,NA,NA,NA,NA,NA
"4","stim/objects/HouseObjects/rug.png",96,4,96,0.5,"stim/31.jpeg",3,1,1,NA,"HouseObjects",1,3,"left","",NA,0,0,1,1,NA,NA,NA,NA,NA,NA,NA,NA,NA,NA,NA,NA,NA,NA,NA,NA,NA,NA,NA,NA,NA,NA,NA,NA
"5","stim/objects/HouseObjects/rug.png",97,4,97,0.5,"stim/31.jpeg",3,1,1,NA,"HouseObjects",1,3,"left","right",0.601999998,0,0,1,1,NA,NA,NA,NA,NA,NA,NA,NA,NA,NA,NA,NA,NA,NA,NA,NA,NA,NA,NA,NA,NA,NA,NA,NA
"237","stim/objects/Instruments/xylophone.png",98,4,98,0.7,"stim/54.jpeg",5,4,2,NA,"Instruments",2,1,"right","right",0.631000042,1,1,1,1,NA,NA,NA,NA,NA,NA,NA,NA,NA,NA,NA,NA,NA,NA,NA,NA,NA,NA,NA,NA,NA,NA,NA,NA
"27","stim/objects/HouseObjects/saw.png",99,4,99,0.5,"stim/33.jpeg",3,3,1,NA,"HouseObjects",1,1,"left","right",0.723999977,0,0,1,1,NA,NA,NA,NA,NA,NA,NA,NA,NA,NA,NA,NA,NA,NA,NA,NA,NA,NA,NA,NA,NA,NA,NA,NA
"31","stim/objects/HouseObjects/saw2.png",100,4,100,0.7,"stim/63.jpeg",6,3,2,NA,"HouseObjects",1,2,"left","left",0.499000072,1,1,1,1,NA,NA,NA,NA,NA,NA,NA,NA,NA,NA,NA,NA,NA,NA,NA,NA,NA,NA,NA,NA,NA,NA,NA,NA
"228","stim/objects/Instruments/vuvuzela.png",101,4,101,0.7,"stim/53.jpeg",5,3,2,NA,"Instruments",2,2,"right","right",0.595000029,1,1,1,1,NA,NA,NA,NA,NA,NA,NA,NA,NA,NA,NA,NA,NA,NA,NA,NA,NA,NA,NA,NA,NA,NA,NA,NA
"32","stim/objects/HouseObjects/saw2.png",102,4,102,0.7,"stim/63.jpeg",6,3,2,NA,"HouseObjects",1,3,"left","left",0.544999838,1,1,1,1,NA,NA,NA,NA,NA,NA,NA,NA,NA,NA,NA,NA,NA,NA,NA,NA,NA,NA,NA,NA,NA,NA,NA,NA
"38","stim/objects/HouseObjects/scale.png",103,4,103,0.5,"stim/34.jpeg",3,4,1,NA,"HouseObjects",1,4,"left","right",0.687000036,0,0,1,1,NA,NA,NA,NA,NA,NA,NA,NA,NA,NA,NA,NA,NA,NA,NA,NA,NA,NA,NA,NA,NA,NA,NA,NA
"20","stim/objects/HouseObjects/safetypin2.png",104,4,104,0.7,"stim/62.jpeg",6,2,2,NA,"HouseObjects",1,1,"left","left",0.598999977,1,1,1,1,NA,NA,NA,NA,NA,NA,NA,NA,NA,NA,NA,NA,NA,NA,NA,NA,NA,NA,NA,NA,NA,NA,NA,NA
"8","stim/objects/HouseObjects/rug2.png",105,4,105,0.7,"stim/61.jpeg",6,1,2,NA,"HouseObjects",1,3,"left","left",0.568000078,1,1,1,1,NA,NA,NA,NA,NA,NA,NA,NA,NA,NA,NA,NA,NA,NA,NA,NA,NA,NA,NA,NA,NA,NA,NA,NA
"9","stim/objects/HouseObjects/rug2.png",106,4,106,0.7,"stim/61.jpeg",6,1,2,NA,"HouseObjects",1,3,"left","left",0.532999992,1,1,1,1,NA,NA,NA,NA,NA,NA,NA,NA,NA,NA,NA,NA,NA,NA,NA,NA,NA,NA,NA,NA,NA,NA,NA,NA
"179","stim/objects/Instruments/triangle2.png",107,4,107,0.9,"stim/12.jpeg",1,2,3,NA,"Instruments",2,2,"right","right",0.537999868,1,1,1,1,NA,NA,NA,NA,NA,NA,NA,NA,NA,NA,NA,NA,NA,NA,NA,NA,NA,NA,NA,NA,NA,NA,NA,NA
"10","stim/objects/HouseObjects/rug2.png",108,4,108,0.7,"stim/61.jpeg",6,1,2,NA,"HouseObjects",1,1,"left","left",0.532000065,1,1,1,1,NA,NA,NA,NA,NA,NA,NA,NA,NA,NA,NA,NA,NA,NA,NA,NA,NA,NA,NA,NA,NA,NA,NA,NA
"196","stim/objects/Instruments/trumpet.png",109,4,109,0.5,"stim/44.jpeg",4,4,1,NA,"Instruments",2,4,"right","right",0.484999895,1,1,1,1,NA,NA,NA,NA,NA,NA,NA,NA,NA,NA,NA,NA,NA,NA,NA,NA,NA,NA,NA,NA,NA,NA,NA,NA
"103","stim/objects/HouseObjects/vacuumcleaner2.png",110,4,110,0.9,"stim/23.jpeg",2,3,3,NA,"HouseObjects",1,3,"left","left",0.55099988,1,1,1,1,NA,NA,NA,NA,NA,NA,NA,NA,NA,NA,NA,NA,NA,NA,NA,NA,NA,NA,NA,NA,NA,NA,NA,NA
"197","stim/objects/Instruments/trumpet.png",111,4,111,0.5,"stim/44.jpeg",4,4,1,NA,"Instruments",2,3,"right","right",0.59800005,1,1,1,1,NA,NA,NA,NA,NA,NA,NA,NA,NA,NA,NA,NA,NA,NA,NA,NA,NA,NA,NA,NA,NA,NA,NA,NA
"162","stim/objects/Instruments/timbal2.png",112,4,112,0.9,"stim/11.jpeg",1,1,3,NA,"Instruments",2,1,"right","right",0.642000198,1,1,1,1,NA,NA,NA,NA,NA,NA,NA,NA,NA,NA,NA,NA,NA,NA,NA,NA,NA,NA,NA,NA,NA,NA,NA,NA
"33","stim/objects/HouseObjects/saw2.png",113,4,113,0.7,"stim/63.jpeg",6,3,2,NA,"HouseObjects",1,4,"left","left",0.558999777,1,1,1,1,NA,NA,NA,NA,NA,NA,NA,NA,NA,NA,NA,NA,NA,NA,NA,NA,NA,NA,NA,NA,NA,NA,NA,NA
"170","stim/objects/Instruments/triangle.png",114,4,114,0.5,"stim/42.jpeg",4,2,1,NA,"Instruments",2,3,"right","right",0.576999903,1,1,1,1,NA,NA,NA,NA,NA,NA,NA,NA,NA,NA,NA,NA,NA,NA,NA,NA,NA,NA,NA,NA,NA,NA,NA,NA
"49","stim/objects/HouseObjects/sponge.png",115,4,115,0.5,"stim/41.jpeg",4,1,1,NA,"HouseObjects",1,3,"left","right",0.632999897,0,0,1,1,NA,NA,NA,NA,NA,NA,NA,NA,NA,NA,NA,NA,NA,NA,NA,NA,NA,NA,NA,NA,NA,NA,NA,NA
"114","stim/objects/HouseObjects/wateringcan2.png",116,4,116,0.9,"stim/24.jpeg",2,4,3,NA,"HouseObjects",1,1,"left","left",0.575999975,1,1,1,1,NA,NA,NA,NA,NA,NA,NA,NA,NA,NA,NA,NA,NA,NA,NA,NA,NA,NA,NA,NA,NA,NA,NA,NA
"138","stim/objects/Instruments/speaker.png",117,4,117,0.5,"stim/33.jpeg",3,3,1,NA,"Instruments",2,3,"right","left",0.674000025,0,0,1,1,NA,NA,NA,NA,NA,NA,NA,NA,NA,NA,NA,NA,NA,NA,NA,NA,NA,NA,NA,NA,NA,NA,NA,NA
"21","stim/objects/HouseObjects/safetypin2.png",118,4,118,0.7,"stim/62.jpeg",6,2,2,NA,"HouseObjects",1,2,"left","left",0.572000027,1,1,1,1,NA,NA,NA,NA,NA,NA,NA,NA,NA,NA,NA,NA,NA,NA,NA,NA,NA,NA,NA,NA,NA,NA,NA,NA
"81","stim/objects/HouseObjects/thread2.png",119,4,119,0.9,"stim/21.jpeg",2,1,3,NA,"HouseObjects",1,1,"left","left",0.505999804,1,1,1,1,NA,NA,NA,NA,NA,NA,NA,NA,NA,NA,NA,NA,NA,NA,NA,NA,NA,NA,NA,NA,NA,NA,NA,NA
"211","stim/objects/Instruments/tuba.png",120,4,120,0.7,"stim/51.jpeg",5,1,2,NA,"Instruments",2,1,"right","right",0.561000109,1,1,1,1,NA,NA,NA,NA,NA,NA,NA,NA,NA,NA,NA,NA,NA,NA,NA,NA,NA,NA,NA,NA,NA,NA,NA,NA
"124","stim/objects/Instruments/record_player.png",121,4,121,0.5,"stim/31.jpeg",3,1,1,NA,"Instruments",2,1,"right","right",0.799999952,1,1,1,1,NA,NA,NA,NA,NA,NA,NA,NA,NA,NA,NA,NA,NA,NA,NA,NA,NA,NA,NA,NA,NA,NA,NA,NA
"50","stim/objects/HouseObjects/sponge.png",122,4,122,0.5,"stim/41.jpeg",4,1,1,NA,"HouseObjects",1,4,"left","right",0.709000111,0,0,1,1,NA,NA,NA,NA,NA,NA,NA,NA,NA,NA,NA,NA,NA,NA,NA,NA,NA,NA,NA,NA,NA,NA,NA,NA
"39","stim/objects/HouseObjects/scale.png",123,4,123,0.5,"stim/34.jpeg",3,4,1,NA,"HouseObjects",1,2,"left","right",0.582000017,0,0,1,1,NA,NA,NA,NA,NA,NA,NA,NA,NA,NA,NA,NA,NA,NA,NA,NA,NA,NA,NA,NA,NA,NA,NA,NA
"163","stim/objects/Instruments/timbal2.png",124,4,124,0.9,"stim/11.jpeg",1,1,3,NA,"Instruments",2,1,"right","right",0.608999968,1,1,1,1,NA,NA,NA,NA,NA,NA,NA,NA,NA,NA,NA,NA,NA,NA,NA,NA,NA,NA,NA,NA,NA,NA,NA,NA
"229","stim/objects/Instruments/vuvuzela.png",125,4,125,0.7,"stim/53.jpeg",5,3,2,NA,"Instruments",2,4,"right","right",0.708999872,1,1,1,1,NA,NA,NA,NA,NA,NA,NA,NA,NA,NA,NA,NA,NA,NA,NA,NA,NA,NA,NA,NA,NA,NA,NA,NA
"68","stim/objects/HouseObjects/thermometer.png",126,4,126,0.5,"stim/44.jpeg",4,4,1,NA,"HouseObjects",1,2,"left","right",0.565999985,0,0,1,1,NA,NA,NA,NA,NA,NA,NA,NA,NA,NA,NA,NA,NA,NA,NA,NA,NA,NA,NA,NA,NA,NA,NA,NA
"222","stim/objects/Instruments/violin.png",127,4,127,0.7,"stim/52.jpeg",5,2,2,NA,"Instruments",2,2,"right","right",0.631999969,1,1,1,1,NA,NA,NA,NA,NA,NA,NA,NA,NA,NA,NA,NA,NA,NA,NA,NA,NA,NA,NA,NA,NA,NA,NA,NA
"57","stim/objects/HouseObjects/spraybottle.png",128,4,128,0.5,"stim/42.jpeg",4,2,1,NA,"HouseObjects",1,4,"left","right",0.723999977,0,0,1,1,NA,NA,NA,NA,NA,NA,NA,NA,NA,NA,NA,NA,NA,NA,NA,NA,NA,NA,NA,NA,NA,NA,NA,NA
"198","stim/objects/Instruments/trumpet.png",129,4,129,0.5,"stim/44.jpeg",4,4,1,NA,"Instruments",2,2,"right","right",0.800000191,1,1,1,1,NA,NA,NA,NA,NA,NA,NA,NA,NA,NA,NA,NA,NA,NA,NA,NA,NA,NA,NA,NA,NA,NA,NA,NA
"187","stim/objects/Instruments/trombone2.png",130,4,130,0.9,"stim/13.jpeg",1,3,3,NA,"Instruments",2,2,"right","right",0.73300004,1,1,1,1,NA,NA,NA,NA,NA,NA,NA,NA,NA,NA,NA,NA,NA,NA,NA,NA,NA,NA,NA,NA,NA,NA,NA,NA
"16","stim/objects/HouseObjects/safetypin.png",131,4,131,0.5,"stim/32.jpeg",3,2,1,NA,"HouseObjects",1,1,"left","right",0.608999968,0,0,1,1,NA,NA,NA,NA,NA,NA,NA,NA,NA,NA,NA,NA,NA,NA,NA,NA,NA,NA,NA,NA,NA,NA,NA,NA
"139","stim/objects/Instruments/speaker.png",132,4,132,0.5,"stim/33.jpeg",3,3,1,NA,"Instruments",2,1,"right","right",0.502000093,1,1,1,1,NA,NA,NA,NA,NA,NA,NA,NA,NA,NA,NA,NA,NA,NA,NA,NA,NA,NA,NA,NA,NA,NA,NA,NA
"44","stim/objects/HouseObjects/scale2.png",133,4,133,0.7,"stim/64.jpeg",6,4,2,NA,"HouseObjects",1,3,"left","left",0.549999952,1,1,1,1,NA,NA,NA,NA,NA,NA,NA,NA,NA,NA,NA,NA,NA,NA,NA,NA,NA,NA,NA,NA,NA,NA,NA,NA
"182","stim/objects/Instruments/trombone.png",134,4,134,0.5,"stim/43.jpeg",4,3,1,NA,"Instruments",2,3,"right","right",0.689999819,1,1,1,1,NA,NA,NA,NA,NA,NA,NA,NA,NA,NA,NA,NA,NA,NA,NA,NA,NA,NA,NA,NA,NA,NA,NA,NA
"188","stim/objects/Instruments/trombone2.png",135,4,135,0.9,"stim/13.jpeg",1,3,3,NA,"Instruments",2,2,"right","right",0.632999897,1,1,1,1,NA,NA,NA,NA,NA,NA,NA,NA,NA,NA,NA,NA,NA,NA,NA,NA,NA,NA,NA,NA,NA,NA,NA,NA
"189","stim/objects/Instruments/trombone2.png",136,4,136,0.9,"stim/13.jpeg",1,3,3,NA,"Instruments",2,4,"right","right",0.54399991,1,1,1,1,NA,NA,NA,NA,NA,NA,NA,NA,NA,NA,NA,NA,NA,NA,NA,NA,NA,NA,NA,NA,NA,NA,NA,NA
"45","stim/objects/HouseObjects/scale2.png",137,4,137,0.7,"stim/64.jpeg",6,4,2,NA,"HouseObjects",1,2,"left","left",0.816999912,1,1,1,1,NA,NA,NA,NA,NA,NA,NA,NA,NA,NA,NA,NA,NA,NA,NA,NA,NA,NA,NA,NA,NA,NA,NA,NA
"155","stim/objects/Instruments/timbal.png",138,4,138,0.5,"stim/41.jpeg",4,1,1,NA,"Instruments",2,1,"right","right",0.5,1,1,1,1,NA,NA,NA,NA,NA,NA,NA,NA,NA,NA,NA,NA,NA,NA,NA,NA,NA,NA,NA,NA,NA,NA,NA,NA
"28","stim/objects/HouseObjects/saw.png",139,4,139,0.5,"stim/33.jpeg",3,3,1,NA,"HouseObjects",1,3,"left","left",0.77699995,1,1,1,1,NA,NA,NA,NA,NA,NA,NA,NA,NA,NA,NA,NA,NA,NA,NA,NA,NA,NA,NA,NA,NA,NA,NA,NA
"183","stim/objects/Instruments/trombone.png",140,4,140,0.5,"stim/43.jpeg",4,3,1,NA,"Instruments",2,3,"right","right",0.67599988,1,1,1,1,NA,NA,NA,NA,NA,NA,NA,NA,NA,NA,NA,NA,NA,NA,NA,NA,NA,NA,NA,NA,NA,NA,NA,NA
"212","stim/objects/Instruments/tuba.png",141,4,141,0.7,"stim/51.jpeg",5,1,2,NA,"Instruments",2,1,"right","right",0.549000025,1,1,1,1,NA,NA,NA,NA,NA,NA,NA,NA,NA,NA,NA,NA,NA,NA,NA,NA,NA,NA,NA,NA,NA,NA,NA,NA
"82","stim/objects/HouseObjects/thread2.png",142,4,142,0.9,"stim/21.jpeg",2,1,3,NA,"HouseObjects",1,2,"left","left",0.637999773,1,1,1,1,NA,NA,NA,NA,NA,NA,NA,NA,NA,NA,NA,NA,NA,NA,NA,NA,NA,NA,NA,NA,NA,NA,NA,NA
"73","stim/objects/HouseObjects/thread.png",143,4,143,0.3,"stim/51.jpeg",5,1,2,NA,"HouseObjects",1,2,"left","right",0.542000055,0,0,1,1,NA,NA,NA,NA,NA,NA,NA,NA,NA,NA,NA,NA,NA,NA,NA,NA,NA,NA,NA,NA,NA,NA,NA,NA
"156","stim/objects/Instruments/timbal.png",144,4,144,0.5,"stim/41.jpeg",4,1,1,NA,"Instruments",2,2,"right","right",0.533000231,1,1,1,1,NA,NA,NA,NA,NA,NA,NA,NA,NA,NA,NA,NA,NA,NA,NA,NA,NA,NA,NA,NA,NA,NA,NA,NA
"29","stim/objects/HouseObjects/saw.png",145,4,145,0.5,"stim/33.jpeg",3,3,1,NA,"HouseObjects",1,2,"left","right",0.791999817,0,0,1,1,NA,NA,NA,NA,NA,NA,NA,NA,NA,NA,NA,NA,NA,NA,NA,NA,NA,NA,NA,NA,NA,NA,NA,NA
"85","stim/objects/HouseObjects/towel.png",146,4,146,0.3,"stim/52.jpeg",5,2,2,NA,"HouseObjects",1,4,"left","right",0.495000124,0,0,1,1,NA,NA,NA,NA,NA,NA,NA,NA,NA,NA,NA,NA,NA,NA,NA,NA,NA,NA,NA,NA,NA,NA,NA,NA
"140","stim/objects/Instruments/speaker.png",147,4,147,0.5,"stim/33.jpeg",3,3,1,NA,"Instruments",2,3,"right","right",0.731000185,1,1,1,1,NA,NA,NA,NA,NA,NA,NA,NA,NA,NA,NA,NA,NA,NA,NA,NA,NA,NA,NA,NA,NA,NA,NA,NA
"74","stim/objects/HouseObjects/thread.png",148,4,148,0.3,"stim/51.jpeg",5,1,2,NA,"HouseObjects",1,4,"left","right",0.601000071,0,0,1,1,NA,NA,NA,NA,NA,NA,NA,NA,NA,NA,NA,NA,NA,NA,NA,NA,NA,NA,NA,NA,NA,NA,NA,NA
"104","stim/objects/HouseObjects/vacuumcleaner2.png",149,4,149,0.9,"stim/23.jpeg",2,3,3,NA,"HouseObjects",1,1,"left","left",0.534000158,1,1,1,1,NA,NA,NA,NA,NA,NA,NA,NA,NA,NA,NA,NA,NA,NA,NA,NA,NA,NA,NA,NA,NA,NA,NA,NA
"150","stim/objects/Instruments/tambourine2.png",150,4,150,0.3,"stim/64.jpeg",6,4,2,NA,"Instruments",2,1,"right","left",0.554000139,0,0,1,1,NA,NA,NA,NA,NA,NA,NA,NA,NA,NA,NA,NA,NA,NA,NA,NA,NA,NA,NA,NA,NA,NA,NA,NA
"92","stim/objects/HouseObjects/towel2.png",151,4,151,0.9,"stim/22.jpeg",2,2,3,NA,"HouseObjects",1,2,"left","left",0.541000128,1,1,1,1,NA,NA,NA,NA,NA,NA,NA,NA,NA,NA,NA,NA,NA,NA,NA,NA,NA,NA,NA,NA,NA,NA,NA,NA
"11","stim/objects/HouseObjects/rug2.png",152,4,152,0.7,"stim/61.jpeg",6,1,2,NA,"HouseObjects",1,3,"left","left",0.809000015,1,1,1,1,NA,NA,NA,NA,NA,NA,NA,NA,NA,NA,NA,NA,NA,NA,NA,NA,NA,NA,NA,NA,NA,NA,NA,NA
"164","stim/objects/Instruments/timbal2.png",153,4,153,0.9,"stim/11.jpeg",1,1,3,NA,"Instruments",2,1,"right","right",0.663000107,1,1,1,1,NA,NA,NA,NA,NA,NA,NA,NA,NA,NA,NA,NA,NA,NA,NA,NA,NA,NA,NA,NA,NA,NA,NA,NA
"184","stim/objects/Instruments/trombone.png",154,4,154,0.5,"stim/43.jpeg",4,3,1,NA,"Instruments",2,4,"right","right",0.650000095,1,1,1,1,NA,NA,NA,NA,NA,NA,NA,NA,NA,NA,NA,NA,NA,NA,NA,NA,NA,NA,NA,NA,NA,NA,NA,NA
"223","stim/objects/Instruments/violin.png",155,4,155,0.7,"stim/52.jpeg",5,2,2,NA,"Instruments",2,4,"right","right",0.559000015,1,1,1,1,NA,NA,NA,NA,NA,NA,NA,NA,NA,NA,NA,NA,NA,NA,NA,NA,NA,NA,NA,NA,NA,NA,NA,NA
"111","stim/objects/HouseObjects/wateringcan.png",156,4,156,0.3,"stim/54.jpeg",5,4,2,NA,"HouseObjects",1,3,"left","right",0.569999933,0,0,1,1,NA,NA,NA,NA,NA,NA,NA,NA,NA,NA,NA,NA,NA,NA,NA,NA,NA,NA,NA,NA,NA,NA,NA,NA
"151","stim/objects/Instruments/tambourine2.png",157,4,157,0.3,"stim/64.jpeg",6,4,2,NA,"Instruments",2,4,"right","left",0.558000088,0,0,1,1,NA,NA,NA,NA,NA,NA,NA,NA,NA,NA,NA,NA,NA,NA,NA,NA,NA,NA,NA,NA,NA,NA,NA,NA
"22","stim/objects/HouseObjects/safetypin2.png",158,4,158,0.7,"stim/62.jpeg",6,2,2,NA,"HouseObjects",1,3,"left","left",0.57400012,1,1,1,1,NA,NA,NA,NA,NA,NA,NA,NA,NA,NA,NA,NA,NA,NA,NA,NA,NA,NA,NA,NA,NA,NA,NA,NA
"83","stim/objects/HouseObjects/thread2.png",159,4,159,0.9,"stim/21.jpeg",2,1,3,NA,"HouseObjects",1,4,"left","left",0.491000175,1,1,1,1,NA,NA,NA,NA,NA,NA,NA,NA,NA,NA,NA,NA,NA,NA,NA,NA,NA,NA,NA,NA,NA,NA,NA,NA
"230","stim/objects/Instruments/vuvuzela.png",160,4,160,0.7,"stim/53.jpeg",5,3,2,NA,"Instruments",2,1,"right","right",0.559000015,1,1,1,1,NA,NA,NA,NA,NA,NA,NA,NA,NA,NA,NA,NA,NA,NA,NA,NA,NA,NA,NA,NA,NA,NA,NA,NA
"203","stim/objects/Instruments/trumpet2.png",161,4,161,0.9,"stim/14.jpeg",1,4,3,NA,"Instruments",2,4,"right","right",0.499000072,1,1,1,1,NA,NA,NA,NA,NA,NA,NA,NA,NA,NA,NA,NA,NA,NA,NA,NA,NA,NA,NA,NA,NA,NA,NA,NA
"157","stim/objects/Instruments/timbal.png",162,4,162,0.5,"stim/41.jpeg",4,1,1,NA,"Instruments",2,2,"right","right",0.698999882,1,1,1,1,NA,NA,NA,NA,NA,NA,NA,NA,NA,NA,NA,NA,NA,NA,NA,NA,NA,NA,NA,NA,NA,NA,NA,NA
"224","stim/objects/Instruments/violin2.png",163,4,163,0.1,"stim/22.jpeg",2,2,3,NA,"Instruments",2,4,"right","left",0.526000023,0,0,1,1,NA,NA,NA,NA,NA,NA,NA,NA,NA,NA,NA,NA,NA,NA,NA,NA,NA,NA,NA,NA,NA,NA,NA,NA
"34","stim/objects/HouseObjects/saw2.png",164,4,164,0.7,"stim/63.jpeg",6,3,2,NA,"HouseObjects",1,4,"left","left",0.50999999,1,1,1,1,NA,NA,NA,NA,NA,NA,NA,NA,NA,NA,NA,NA,NA,NA,NA,NA,NA,NA,NA,NA,NA,NA,NA,NA
"46","stim/objects/HouseObjects/scale2.png",165,4,165,0.7,"stim/64.jpeg",6,4,2,NA,"HouseObjects",1,2,"left","left",0.565999985,1,1,1,1,NA,NA,NA,NA,NA,NA,NA,NA,NA,NA,NA,NA,NA,NA,NA,NA,NA,NA,NA,NA,NA,NA,NA,NA
"231","stim/objects/Instruments/vuvuzela.png",166,4,166,0.7,"stim/53.jpeg",5,3,2,NA,"Instruments",2,1,"right","right",0.5,1,1,1,1,NA,NA,NA,NA,NA,NA,NA,NA,NA,NA,NA,NA,NA,NA,NA,NA,NA,NA,NA,NA,NA,NA,NA,NA
"238","stim/objects/Instruments/xylophone.png",167,4,167,0.7,"stim/54.jpeg",5,4,2,NA,"Instruments",2,1,"right","right",0.516000032,1,1,1,1,NA,NA,NA,NA,NA,NA,NA,NA,NA,NA,NA,NA,NA,NA,NA,NA,NA,NA,NA,NA,NA,NA,NA,NA
"204","stim/objects/Instruments/trumpet2.png",168,4,168,0.9,"stim/14.jpeg",1,4,3,NA,"Instruments",2,3,"right","right",0.542999983,1,1,1,1,NA,NA,NA,NA,NA,NA,NA,NA,NA,NA,NA,NA,NA,NA,NA,NA,NA,NA,NA,NA,NA,NA,NA,NA
"171","stim/objects/Instruments/triangle.png",169,4,169,0.5,"stim/42.jpeg",4,2,1,NA,"Instruments",2,2,"right","right",0.576999903,1,1,1,1,NA,NA,NA,NA,NA,NA,NA,NA,NA,NA,NA,NA,NA,NA,NA,NA,NA,NA,NA,NA,NA,NA,NA,NA
"60","stim/objects/HouseObjects/spraybottle2.png",170,4,170,0.1,"stim/12.jpeg",1,2,3,NA,"HouseObjects",1,3,"left","right",0.491999865,0,0,1,1,NA,NA,NA,NA,NA,NA,NA,NA,NA,NA,NA,NA,NA,NA,NA,NA,NA,NA,NA,NA,NA,NA,NA,NA
"51","stim/objects/HouseObjects/sponge.png",171,4,171,0.5,"stim/41.jpeg",4,1,1,NA,"HouseObjects",1,3,"left","right",0.467999935,0,0,1,1,NA,NA,NA,NA,NA,NA,NA,NA,NA,NA,NA,NA,NA,NA,NA,NA,NA,NA,NA,NA,NA,NA,NA,NA
"152","stim/objects/Instruments/tambourine2.png",172,4,172,0.3,"stim/64.jpeg",6,4,2,NA,"Instruments",2,3,"right","right",0.764999866,1,1,1,1,NA,NA,NA,NA,NA,NA,NA,NA,NA,NA,NA,NA,NA,NA,NA,NA,NA,NA,NA,NA,NA,NA,NA,NA
"99","stim/objects/HouseObjects/vacuumcleaner.png",173,4,173,0.3,"stim/53.jpeg",5,3,2,NA,"HouseObjects",1,3,"left","right",0.773999929,0,0,1,1,NA,NA,NA,NA,NA,NA,NA,NA,NA,NA,NA,NA,NA,NA,NA,NA,NA,NA,NA,NA,NA,NA,NA,NA
"180","stim/objects/Instruments/triangle2.png",174,4,174,0.9,"stim/12.jpeg",1,2,3,NA,"Instruments",2,1,"right","right",0.606000185,1,1,1,1,NA,NA,NA,NA,NA,NA,NA,NA,NA,NA,NA,NA,NA,NA,NA,NA,NA,NA,NA,NA,NA,NA,NA,NA
"115","stim/objects/HouseObjects/wateringcan2.png",175,4,175,0.9,"stim/24.jpeg",2,4,3,NA,"HouseObjects",1,3,"left","left",0.569000006,1,1,1,1,NA,NA,NA,NA,NA,NA,NA,NA,NA,NA,NA,NA,NA,NA,NA,NA,NA,NA,NA,NA,NA,NA,NA,NA
"40","stim/objects/HouseObjects/scale.png",176,4,176,0.5,"stim/34.jpeg",3,4,1,NA,"HouseObjects",1,3,"left","right",0.623999834,0,0,1,1,NA,NA,NA,NA,NA,NA,NA,NA,NA,NA,NA,NA,NA,NA,NA,NA,NA,NA,NA,NA,NA,NA,NA,NA
"23","stim/objects/HouseObjects/safetypin2.png",177,4,177,0.7,"stim/62.jpeg",6,2,2,NA,"HouseObjects",1,1,"left","left",0.492999792,1,1,1,1,NA,NA,NA,NA,NA,NA,NA,NA,NA,NA,NA,NA,NA,NA,NA,NA,NA,NA,NA,NA,NA,NA,NA,NA
"144","stim/objects/Instruments/speaker2.png",178,4,178,0.3,"stim/63.jpeg",6,3,2,NA,"Instruments",2,3,"right","left",0.53399992,0,0,1,1,NA,NA,NA,NA,NA,NA,NA,NA,NA,NA,NA,NA,NA,NA,NA,NA,NA,NA,NA,NA,NA,NA,NA,NA
"190","stim/objects/Instruments/trombone2.png",179,4,179,0.9,"stim/13.jpeg",1,3,3,NA,"Instruments",2,3,"right","right",0.632999897,1,1,1,1,NA,NA,NA,NA,NA,NA,NA,NA,NA,NA,NA,NA,NA,NA,NA,NA,NA,NA,NA,NA,NA,NA,NA,NA
"191","stim/objects/Instruments/trombone2.png",180,4,180,0.9,"stim/13.jpeg",1,3,3,NA,"Instruments",2,3,"right","right",0.582999945,1,1,1,1,NA,NA,NA,NA,NA,NA,NA,NA,NA,NA,NA,NA,NA,NA,NA,NA,NA,NA,NA,NA,NA,NA,NA,NA
"213","stim/objects/Instruments/tuba.png",181,4,181,0.7,"stim/51.jpeg",5,1,2,NA,"Instruments",2,1,"right","left",0.665999889,0,0,1,1,NA,NA,NA,NA,NA,NA,NA,NA,NA,NA,NA,NA,NA,NA,NA,NA,NA,NA,NA,NA,NA,NA,NA,NA
"105","stim/objects/HouseObjects/vacuumcleaner2.png",182,4,182,0.9,"stim/23.jpeg",2,3,3,NA,"HouseObjects",1,1,"left","left",0.496999979,1,1,1,1,NA,NA,NA,NA,NA,NA,NA,NA,NA,NA,NA,NA,NA,NA,NA,NA,NA,NA,NA,NA,NA,NA,NA,NA
"185","stim/objects/Instruments/trombone.png",183,4,183,0.5,"stim/43.jpeg",4,3,1,NA,"Instruments",2,4,"right","",NA,0,0,1,1,NA,NA,NA,NA,NA,NA,NA,NA,NA,NA,NA,NA,NA,NA,NA,NA,NA,NA,NA,NA,NA,NA,NA,NA
"93","stim/objects/HouseObjects/towel2.png",184,4,184,0.9,"stim/22.jpeg",2,2,3,NA,"HouseObjects",1,3,"left","left",0.532999992,1,1,1,1,NA,NA,NA,NA,NA,NA,NA,NA,NA,NA,NA,NA,NA,NA,NA,NA,NA,NA,NA,NA,NA,NA,NA,NA
"216","stim/objects/Instruments/tuba2.png",185,4,185,0.1,"stim/21.jpeg",2,1,3,NA,"Instruments",2,1,"right","left",0.520999908,0,0,1,1,NA,NA,NA,NA,NA,NA,NA,NA,NA,NA,NA,NA,NA,NA,NA,NA,NA,NA,NA,NA,NA,NA,NA,NA
"106","stim/objects/HouseObjects/vacuumcleaner2.png",186,4,186,0.9,"stim/23.jpeg",2,3,3,NA,"HouseObjects",1,4,"left","left",0.471999884,1,1,1,1,NA,NA,NA,NA,NA,NA,NA,NA,NA,NA,NA,NA,NA,NA,NA,NA,NA,NA,NA,NA,NA,NA,NA,NA
"116","stim/objects/HouseObjects/wateringcan2.png",187,4,187,0.9,"stim/24.jpeg",2,4,3,NA,"HouseObjects",1,1,"left","left",0.467000008,1,1,1,1,NA,NA,NA,NA,NA,NA,NA,NA,NA,NA,NA,NA,NA,NA,NA,NA,NA,NA,NA,NA,NA,NA,NA,NA
"12","stim/objects/HouseObjects/rug2.png",188,4,188,0.7,"stim/61.jpeg",6,1,2,NA,"HouseObjects",1,2,"left","left",0.588000059,1,1,1,1,NA,NA,NA,NA,NA,NA,NA,NA,NA,NA,NA,NA,NA,NA,NA,NA,NA,NA,NA,NA,NA,NA,NA,NA
"107","stim/objects/HouseObjects/vacuumcleaner2.png",189,4,189,0.9,"stim/23.jpeg",2,3,3,NA,"HouseObjects",1,4,"left","left",0.48300004,1,1,1,1,NA,NA,NA,NA,NA,NA,NA,NA,NA,NA,NA,NA,NA,NA,NA,NA,NA,NA,NA,NA,NA,NA,NA,NA
"69","stim/objects/HouseObjects/thermometer.png",190,4,190,0.5,"stim/44.jpeg",4,4,1,NA,"HouseObjects",1,2,"left","right",0.532999992,0,0,1,1,NA,NA,NA,NA,NA,NA,NA,NA,NA,NA,NA,NA,NA,NA,NA,NA,NA,NA,NA,NA,NA,NA,NA,NA
"86","stim/objects/HouseObjects/towel.png",191,4,191,0.3,"stim/52.jpeg",5,2,2,NA,"HouseObjects",1,1,"left","right",0.535000086,0,0,1,1,NA,NA,NA,NA,NA,NA,NA,NA,NA,NA,NA,NA,NA,NA,NA,NA,NA,NA,NA,NA,NA,NA,NA,NA
"117","stim/objects/HouseObjects/wateringcan2.png",192,4,192,0.9,"stim/24.jpeg",2,4,3,NA,"HouseObjects",1,4,"left","left",0.551000118,1,1,1,1,NA,NA,NA,NA,NA,NA,NA,NA,NA,NA,NA,NA,NA,NA,NA,NA,NA,NA,NA,NA,NA,NA,NA,NA
"47","stim/objects/HouseObjects/scale2.png",193,4,193,0.7,"stim/64.jpeg",6,4,2,NA,"HouseObjects",1,4,"left","left",0.569999933,1,1,1,1,NA,NA,NA,NA,NA,NA,NA,NA,NA,NA,NA,NA,NA,NA,NA,NA,NA,NA,NA,NA,NA,NA,NA,NA
"214","stim/objects/Instruments/tuba.png",194,4,194,0.7,"stim/51.jpeg",5,1,2,NA,"Instruments",2,2,"right","right",0.49000001,1,1,1,1,NA,NA,NA,NA,NA,NA,NA,NA,NA,NA,NA,NA,NA,NA,NA,NA,NA,NA,NA,NA,NA,NA,NA,NA
"48","stim/objects/HouseObjects/scale2.png",195,4,195,0.7,"stim/64.jpeg",6,4,2,NA,"HouseObjects",1,4,"left","left",0.508999825,1,1,1,1,NA,NA,NA,NA,NA,NA,NA,NA,NA,NA,NA,NA,NA,NA,NA,NA,NA,NA,NA,NA,NA,NA,NA,NA
"165","stim/objects/Instruments/timbal2.png",196,4,196,0.9,"stim/11.jpeg",1,1,3,NA,"Instruments",2,1,"right","right",0.732999802,1,1,1,1,NA,NA,NA,NA,NA,NA,NA,NA,NA,NA,NA,NA,NA,NA,NA,NA,NA,NA,NA,NA,NA,NA,NA,NA
"215","stim/objects/Instruments/tuba.png",197,4,197,0.7,"stim/51.jpeg",5,1,2,NA,"Instruments",2,2,"right","right",0.566999912,1,1,1,1,NA,NA,NA,NA,NA,NA,NA,NA,NA,NA,NA,NA,NA,NA,NA,NA,NA,NA,NA,NA,NA,NA,NA,NA
"147","stim/objects/Instruments/tambourine.png",198,4,198,0.5,"stim/34.jpeg",3,4,1,NA,"Instruments",2,1,"right","right",0.855000019,1,1,1,1,NA,NA,NA,NA,NA,NA,NA,NA,NA,NA,NA,NA,NA,NA,NA,NA,NA,NA,NA,NA,NA,NA,NA,NA
"126","stim/objects/Instruments/record_player2.png",199,4,199,0.3,"stim/61.jpeg",6,1,2,NA,"Instruments",2,1,"right","left",0.651000023,0,0,1,1,NA,NA,NA,NA,NA,NA,NA,NA,NA,NA,NA,NA,NA,NA,NA,NA,NA,NA,NA,NA,NA,NA,NA,NA
"205","stim/objects/Instruments/trumpet2.png",200,4,200,0.9,"stim/14.jpeg",1,4,3,NA,"Instruments",2,1,"right","",NA,0,0,1,1,NA,NA,NA,NA,NA,NA,NA,NA,NA,NA,NA,NA,NA,NA,NA,NA,NA,NA,NA,NA,NA,NA,NA,NA
"148","stim/objects/Instruments/tambourine.png",201,4,201,0.5,"stim/34.jpeg",3,4,1,NA,"Instruments",2,1,"right","right",0.898999929,1,1,1,1,NA,NA,NA,NA,NA,NA,NA,NA,NA,NA,NA,NA,NA,NA,NA,NA,NA,NA,NA,NA,NA,NA,NA,NA
"206","stim/objects/Instruments/trumpet2.png",202,4,202,0.9,"stim/14.jpeg",1,4,3,NA,"Instruments",2,2,"right","right",0.754999876,1,1,1,1,NA,NA,NA,NA,NA,NA,NA,NA,NA,NA,NA,NA,NA,NA,NA,NA,NA,NA,NA,NA,NA,NA,NA,NA
"127","stim/objects/Instruments/record_player2.png",203,4,203,0.3,"stim/61.jpeg",6,1,2,NA,"Instruments",2,3,"right","left",0.799000025,0,0,1,1,NA,NA,NA,NA,NA,NA,NA,NA,NA,NA,NA,NA,NA,NA,NA,NA,NA,NA,NA,NA,NA,NA,NA,NA
"240","stim/objects/Instruments/xylophone2.png",204,4,204,0.1,"stim/24.jpeg",2,4,3,NA,"Instruments",2,3,"right","left",0.534000158,0,0,1,1,NA,NA,NA,NA,NA,NA,NA,NA,NA,NA,NA,NA,NA,NA,NA,NA,NA,NA,NA,NA,NA,NA,NA,NA
"94","stim/objects/HouseObjects/towel2.png",205,4,205,0.9,"stim/22.jpeg",2,2,3,NA,"HouseObjects",1,3,"left","left",0.473999977,1,1,1,1,NA,NA,NA,NA,NA,NA,NA,NA,NA,NA,NA,NA,NA,NA,NA,NA,NA,NA,NA,NA,NA,NA,NA,NA
"207","stim/objects/Instruments/trumpet2.png",206,4,206,0.9,"stim/14.jpeg",1,4,3,NA,"Instruments",2,3,"right","right",0.686000109,1,1,1,1,NA,NA,NA,NA,NA,NA,NA,NA,NA,NA,NA,NA,NA,NA,NA,NA,NA,NA,NA,NA,NA,NA,NA,NA
"192","stim/objects/Instruments/trombone2.png",207,4,207,0.9,"stim/13.jpeg",1,3,3,NA,"Instruments",2,2,"right","right",0.556999922,1,1,1,1,NA,NA,NA,NA,NA,NA,NA,NA,NA,NA,NA,NA,NA,NA,NA,NA,NA,NA,NA,NA,NA,NA,NA,NA
"199","stim/objects/Instruments/trumpet.png",208,4,208,0.5,"stim/44.jpeg",4,4,1,NA,"Instruments",2,3,"right","right",0.45600009,1,1,1,1,NA,NA,NA,NA,NA,NA,NA,NA,NA,NA,NA,NA,NA,NA,NA,NA,NA,NA,NA,NA,NA,NA,NA,NA
"35","stim/objects/HouseObjects/saw2.png",209,4,209,0.7,"stim/63.jpeg",6,3,2,NA,"HouseObjects",1,4,"left","left",0.536000013,1,1,1,1,NA,NA,NA,NA,NA,NA,NA,NA,NA,NA,NA,NA,NA,NA,NA,NA,NA,NA,NA,NA,NA,NA,NA,NA
"118","stim/objects/HouseObjects/wateringcan2.png",210,4,210,0.9,"stim/24.jpeg",2,4,3,NA,"HouseObjects",1,3,"left","left",0.536000013,1,1,1,1,NA,NA,NA,NA,NA,NA,NA,NA,NA,NA,NA,NA,NA,NA,NA,NA,NA,NA,NA,NA,NA,NA,NA,NA
"193","stim/objects/Instruments/trombone2.png",211,4,211,0.9,"stim/13.jpeg",1,3,3,NA,"Instruments",2,3,"right","right",0.667999983,1,1,1,1,NA,NA,NA,NA,NA,NA,NA,NA,NA,NA,NA,NA,NA,NA,NA,NA,NA,NA,NA,NA,NA,NA,NA,NA
"125","stim/objects/Instruments/record_player.png",212,4,212,0.5,"stim/31.jpeg",3,1,1,NA,"Instruments",2,1,"right","right",0.778000116,1,1,1,1,NA,NA,NA,NA,NA,NA,NA,NA,NA,NA,NA,NA,NA,NA,NA,NA,NA,NA,NA,NA,NA,NA,NA,NA
"208","stim/objects/Instruments/trumpet2.png",213,4,213,0.9,"stim/14.jpeg",1,4,3,NA,"Instruments",2,3,"right","right",0.590000153,1,1,1,1,NA,NA,NA,NA,NA,NA,NA,NA,NA,NA,NA,NA,NA,NA,NA,NA,NA,NA,NA,NA,NA,NA,NA,NA
"58","stim/objects/HouseObjects/spraybottle.png",214,4,214,0.5,"stim/42.jpeg",4,2,1,NA,"HouseObjects",1,4,"left","right",0.65199995,0,0,1,1,NA,NA,NA,NA,NA,NA,NA,NA,NA,NA,NA,NA,NA,NA,NA,NA,NA,NA,NA,NA,NA,NA,NA,NA
"108","stim/objects/HouseObjects/vacuumcleaner2.png",215,4,215,0.9,"stim/23.jpeg",2,3,3,NA,"HouseObjects",1,3,"left","left",0.492000103,1,1,1,1,NA,NA,NA,NA,NA,NA,NA,NA,NA,NA,NA,NA,NA,NA,NA,NA,NA,NA,NA,NA,NA,NA,NA,NA
"84","stim/objects/HouseObjects/thread2.png",216,4,216,0.9,"stim/21.jpeg",2,1,3,NA,"HouseObjects",1,4,"left","left",0.493999958,1,1,1,1,NA,NA,NA,NA,NA,NA,NA,NA,NA,NA,NA,NA,NA,NA,NA,NA,NA,NA,NA,NA,NA,NA,NA,NA
"65","stim/objects/HouseObjects/teapot.png",217,4,217,0.5,"stim/43.jpeg",4,3,1,NA,"HouseObjects",1,2,"left","",NA,0,0,1,1,NA,NA,NA,NA,NA,NA,NA,NA,NA,NA,NA,NA,NA,NA,NA,NA,NA,NA,NA,NA,NA,NA,NA,NA
"141","stim/objects/Instruments/speaker.png",218,4,218,0.5,"stim/33.jpeg",3,3,1,NA,"Instruments",2,2,"right","right",0.640000105,1,1,1,1,NA,NA,NA,NA,NA,NA,NA,NA,NA,NA,NA,NA,NA,NA,NA,NA,NA,NA,NA,NA,NA,NA,NA,NA
"41","stim/objects/HouseObjects/scale.png",219,4,219,0.5,"stim/34.jpeg",3,4,1,NA,"HouseObjects",1,3,"left","right",0.616000175,0,0,1,1,NA,NA,NA,NA,NA,NA,NA,NA,NA,NA,NA,NA,NA,NA,NA,NA,NA,NA,NA,NA,NA,NA,NA,NA
"232","stim/objects/Instruments/vuvuzela2.png",220,4,220,0.1,"stim/23.jpeg",2,3,3,NA,"Instruments",2,2,"right","left",0.455999851,0,0,1,1,NA,NA,NA,NA,NA,NA,NA,NA,NA,NA,NA,NA,NA,NA,NA,NA,NA,NA,NA,NA,NA,NA,NA,NA
"70","stim/objects/HouseObjects/thermometer.png",221,4,221,0.5,"stim/44.jpeg",4,4,1,NA,"HouseObjects",1,3,"left","right",0.692000151,0,0,1,1,NA,NA,NA,NA,NA,NA,NA,NA,NA,NA,NA,NA,NA,NA,NA,NA,NA,NA,NA,NA,NA,NA,NA,NA
"17","stim/objects/HouseObjects/safetypin.png",222,4,222,0.5,"stim/32.jpeg",3,2,1,NA,"HouseObjects",1,3,"left","right",0.526000023,0,0,1,1,NA,NA,NA,NA,NA,NA,NA,NA,NA,NA,NA,NA,NA,NA,NA,NA,NA,NA,NA,NA,NA,NA,NA,NA
"71","stim/objects/HouseObjects/thermometer.png",223,4,223,0.5,"stim/44.jpeg",4,4,1,NA,"HouseObjects",1,3,"left","right",0.523000002,0,0,1,1,NA,NA,NA,NA,NA,NA,NA,NA,NA,NA,NA,NA,NA,NA,NA,NA,NA,NA,NA,NA,NA,NA,NA,NA
"133","stim/objects/Instruments/saxophone.png",224,4,224,0.5,"stim/32.jpeg",3,2,1,NA,"Instruments",2,1,"right","right",0.457000017,1,1,1,1,NA,NA,NA,NA,NA,NA,NA,NA,NA,NA,NA,NA,NA,NA,NA,NA,NA,NA,NA,NA,NA,NA,NA,NA
"75","stim/objects/HouseObjects/thread.png",225,4,225,0.3,"stim/51.jpeg",5,1,2,NA,"HouseObjects",1,1,"left","right",0.476999998,0,0,1,1,NA,NA,NA,NA,NA,NA,NA,NA,NA,NA,NA,NA,NA,NA,NA,NA,NA,NA,NA,NA,NA,NA,NA,NA
"128","stim/objects/Instruments/record_player2.png",226,4,226,0.3,"stim/61.jpeg",6,1,2,NA,"Instruments",2,1,"right","left",0.605999947,0,0,1,1,NA,NA,NA,NA,NA,NA,NA,NA,NA,NA,NA,NA,NA,NA,NA,NA,NA,NA,NA,NA,NA,NA,NA,NA
"194","stim/objects/Instruments/trombone2.png",227,4,227,0.9,"stim/13.jpeg",1,3,3,NA,"Instruments",2,2,"right","right",0.657999992,1,1,1,1,NA,NA,NA,NA,NA,NA,NA,NA,NA,NA,NA,NA,NA,NA,NA,NA,NA,NA,NA,NA,NA,NA,NA,NA
"119","stim/objects/HouseObjects/wateringcan2.png",228,4,228,0.9,"stim/24.jpeg",2,4,3,NA,"HouseObjects",1,4,"left","left",0.515000105,1,1,1,1,NA,NA,NA,NA,NA,NA,NA,NA,NA,NA,NA,NA,NA,NA,NA,NA,NA,NA,NA,NA,NA,NA,NA,NA
"95","stim/objects/HouseObjects/towel2.png",229,4,229,0.9,"stim/22.jpeg",2,2,3,NA,"HouseObjects",1,2,"left","left",0.413000107,1,1,1,1,NA,NA,NA,NA,NA,NA,NA,NA,NA,NA,NA,NA,NA,NA,NA,NA,NA,NA,NA,NA,NA,NA,NA,NA
"239","stim/objects/Instruments/xylophone.png",230,4,230,0.7,"stim/54.jpeg",5,4,2,NA,"Instruments",2,1,"right","right",0.707000017,1,1,1,1,NA,NA,NA,NA,NA,NA,NA,NA,NA,NA,NA,NA,NA,NA,NA,NA,NA,NA,NA,NA,NA,NA,NA,NA
"120","stim/objects/HouseObjects/wateringcan2.png",231,4,231,0.9,"stim/24.jpeg",2,4,3,NA,"HouseObjects",1,2,"left","left",0.585999966,1,1,1,1,NA,NA,NA,NA,NA,NA,NA,NA,NA,NA,NA,NA,NA,NA,NA,NA,NA,NA,NA,NA,NA,NA,NA,NA
"59","stim/objects/HouseObjects/spraybottle.png",232,4,232,0.5,"stim/42.jpeg",4,2,1,NA,"HouseObjects",1,4,"left","right",0.614000082,0,0,1,1,NA,NA,NA,NA,NA,NA,NA,NA,NA,NA,NA,NA,NA,NA,NA,NA,NA,NA,NA,NA,NA,NA,NA,NA
"149","stim/objects/Instruments/tambourine.png",233,4,233,0.5,"stim/34.jpeg",3,4,1,NA,"Instruments",2,2,"right","right",0.559000015,1,1,1,1,NA,NA,NA,NA,NA,NA,NA,NA,NA,NA,NA,NA,NA,NA,NA,NA,NA,NA,NA,NA,NA,NA,NA,NA
"87","stim/objects/HouseObjects/towel.png",234,4,234,0.3,"stim/52.jpeg",5,2,2,NA,"HouseObjects",1,2,"left","right",0.628000021,0,0,1,1,NA,NA,NA,NA,NA,NA,NA,NA,NA,NA,NA,NA,NA,NA,NA,NA,NA,NA,NA,NA,NA,NA,NA,NA
"96","stim/objects/HouseObjects/towel2.png",235,4,235,0.9,"stim/22.jpeg",2,2,3,NA,"HouseObjects",1,3,"left","left",0.509000063,1,1,1,1,NA,NA,NA,NA,NA,NA,NA,NA,NA,NA,NA,NA,NA,NA,NA,NA,NA,NA,NA,NA,NA,NA,NA,NA
"52","stim/objects/HouseObjects/sponge.png",236,4,236,0.5,"stim/41.jpeg",4,1,1,NA,"HouseObjects",1,2,"left","right",0.517000198,0,0,1,1,NA,NA,NA,NA,NA,NA,NA,NA,NA,NA,NA,NA,NA,NA,NA,NA,NA,NA,NA,NA,NA,NA,NA,NA
"36","stim/objects/HouseObjects/saw2.png",237,4,237,0.7,"stim/63.jpeg",6,3,2,NA,"HouseObjects",1,3,"left","left",0.565000057,1,1,1,1,NA,NA,NA,NA,NA,NA,NA,NA,NA,NA,NA,NA,NA,NA,NA,NA,NA,NA,NA,NA,NA,NA,NA,NA
"166","stim/objects/Instruments/timbal2.png",238,4,238,0.9,"stim/11.jpeg",1,1,3,NA,"Instruments",2,1,"right","right",0.440000057,1,1,1,1,NA,NA,NA,NA,NA,NA,NA,NA,NA,NA,NA,NA,NA,NA,NA,NA,NA,NA,NA,NA,NA,NA,NA,NA
"24","stim/objects/HouseObjects/safetypin2.png",239,4,239,0.7,"stim/62.jpeg",6,2,2,NA,"HouseObjects",1,3,"left","left",0.487999916,1,1,1,1,NA,NA,NA,NA,NA,NA,NA,NA,NA,NA,NA,NA,NA,NA,NA,NA,NA,NA,NA,NA,NA,NA,NA,NA
"53","stim/objects/HouseObjects/sponge.png",240,4,240,0.5,"stim/41.jpeg",4,1,1,NA,"HouseObjects",1,4,"left","right",0.584000111,0,0,1,1,NA,NA,NA,NA,NA,NA,NA,NA,NA,NA,NA,NA,NA,NA,NA,NA,NA,NA,NA,NA,NA,NA,NA,NA
"386","stim/objects/HouseObjects/ironingboard.png",248,4,241,0.5,"stim/41.jpeg",4,1,1,1,"HouseObjects",1,3,"left","right",0.75999999,0,0,1,0,27,4,1,0.5,2,"stim/41.jpeg",4,1,"stim/41.jpeg",3,"left",1.351000071,3,1,1.065000057,2,1.491999865,27,1,1,1,0,0,1
"341","stim/objects/HouseObjects/flyswatter2.png",249,4,242,0.1,"stim/13.jpeg",1,3,3,1,"HouseObjects",1,3,"left","right",0.708000183,0,0,1,0,63,4,1,0.1,1,"stim/13.jpeg",1,3,"stim/13.jpeg",3,"left",1.217000008,4,4,2.964999914,3,0.548000097,63,1,0,0,1,1,1
"359","stim/objects/HouseObjects/glass.png",250,4,243,0.9,"stim/24.jpeg",2,4,3,2,"HouseObjects",1,4,"left","left",0.539000034,1,1,1,0,NA,NA,NA,NA,NA,NA,NA,NA,NA,NA,NA,NA,NA,NA,NA,NA,NA,NA,NA,NA,NA,NA,NA,NA
"524","stim/objects/Instruments/grandpiano.png",251,4,244,0.9,"stim/12.jpeg",1,2,3,2,"Instruments",2,3,"right","right",0.615999937,1,1,1,0,NA,NA,NA,NA,NA,NA,NA,NA,NA,NA,NA,NA,NA,NA,NA,NA,NA,NA,NA,NA,NA,NA,NA,NA
"360","stim/objects/HouseObjects/glass.png",252,4,245,0.9,"stim/24.jpeg",2,4,3,2,"HouseObjects",1,1,"left","left",0.493000031,1,1,1,0,NA,NA,NA,NA,NA,NA,NA,NA,NA,NA,NA,NA,NA,NA,NA,NA,NA,NA,NA,NA,NA,NA,NA,NA
"545","stim/objects/Instruments/harp.png",253,4,246,0.5,"stim/34.jpeg",3,4,1,1,"Instruments",2,2,"right","right",0.555999994,1,1,1,0,139,4,1,0.5,1,"stim/34.jpeg",3,4,"stim/34.jpeg",2,"left",1.150000095,3,2,1.86500001,4,0.565000057,139,1,0,0,0,0,1
"279","stim/objects/HouseObjects/coffee.png",254,4,247,0.7,"stim/63.jpeg",6,3,2,2,"HouseObjects",1,1,"left","left",0.580999851,1,1,1,0,NA,NA,NA,NA,NA,NA,NA,NA,NA,NA,NA,NA,NA,NA,NA,NA,NA,NA,NA,NA,NA,NA,NA,NA
"326","stim/objects/HouseObjects/flyswatter.png",255,4,248,0.9,"stim/22.jpeg",2,2,3,2,"HouseObjects",1,2,"left","left",0.582999945,1,1,1,0,NA,NA,NA,NA,NA,NA,NA,NA,NA,NA,NA,NA,NA,NA,NA,NA,NA,NA,NA,NA,NA,NA,NA,NA
"507","stim/objects/Instruments/gong.png",256,4,249,0.9,"stim/12.jpeg",1,2,3,2,"Instruments",2,2,"right","right",0.566999912,1,1,1,0,NA,NA,NA,NA,NA,NA,NA,NA,NA,NA,NA,NA,NA,NA,NA,NA,NA,NA,NA,NA,NA,NA,NA,NA
"291","stim/objects/HouseObjects/doormat.png",257,4,250,0.9,"stim/21.jpeg",2,1,3,2,"HouseObjects",1,3,"left","left",0.642999887,1,1,1,0,NA,NA,NA,NA,NA,NA,NA,NA,NA,NA,NA,NA,NA,NA,NA,NA,NA,NA,NA,NA,NA,NA,NA,NA
"287","stim/objects/HouseObjects/dishsoap.png",258,4,251,0.7,"stim/61.jpeg",6,1,2,2,"HouseObjects",1,3,"left","left",0.606000185,1,1,1,0,NA,NA,NA,NA,NA,NA,NA,NA,NA,NA,NA,NA,NA,NA,NA,NA,NA,NA,NA,NA,NA,NA,NA,NA
"436","stim/objects/Instruments/cymbal.png",259,4,252,0.7,"stim/53.jpeg",5,3,2,2,"Instruments",2,4,"right","right",0.587999821,1,1,1,0,NA,NA,NA,NA,NA,NA,NA,NA,NA,NA,NA,NA,NA,NA,NA,NA,NA,NA,NA,NA,NA,NA,NA,NA
"566","stim/objects/Instruments/panflute2.png",260,4,253,0.1,"stim/22.jpeg",2,2,3,1,"Instruments",2,1,"right","left",0.496999979,0,0,1,0,171,4,1,0.1,2,"stim/22.jpeg",2,2,"stim/22.jpeg",1,"left",0.872999907,3,1,1.482000113,3,0.332000017,171,1,0,0,0,0,1
"402","stim/objects/HouseObjects/remote.png",261,4,254,0.3,"stim/54.jpeg",5,4,2,1,"HouseObjects",1,3,"left","right",0.523999929,0,0,1,0,49,4,1,0.3,1,"stim/54.jpeg",5,4,"stim/54.jpeg",3,"left",1.832999945,4,4,3.036000013,3,0.988000154,49,1,1,1,1,1,1
"490","stim/objects/Instruments/frenchhorn.png",262,4,255,0.9,"stim/13.jpeg",1,3,3,2,"Instruments",2,1,"right","right",0.621999979,1,1,1,0,NA,NA,NA,NA,NA,NA,NA,NA,NA,NA,NA,NA,NA,NA,NA,NA,NA,NA,NA,NA,NA,NA,NA,NA
"403","stim/objects/HouseObjects/remote2.png",263,4,256,0.9,"stim/21.jpeg",2,1,3,1,"HouseObjects",1,2,"left","left",0.490999937,1,1,1,0,73,4,1,0.9,1,"stim/21.jpeg",2,1,"stim/21.jpeg",2,"left",1.119999886,4,3,1.603999853,3,0.640000105,73,1,0,0,0,0,1
"570","stim/objects/Instruments/record2.png",264,4,257,0.1,"stim/24.jpeg",2,4,3,1,"Instruments",2,3,"right","left",0.646999836,0,0,1,0,44,4,1,0.1,2,"stim/24.jpeg",2,4,"stim/24.jpeg",3,"left",0.865999937,4,1,4.398000002,3,0.549000025,44,1,0,0,1,1,1
"378","stim/objects/HouseObjects/hairdryer.png",265,4,258,0.5,"stim/34.jpeg",3,4,1,1,"HouseObjects",1,3,"left","",NA,0,0,1,0,89,4,1,0.5,1,"stim/34.jpeg",3,4,"stim/34.jpeg",3,"left",3.125,3,2,1.68200016,1,0.883000135,89,1,0,0,0,0,1
"424","stim/objects/Instruments/cello.png",266,4,259,0.5,"stim/44.jpeg",4,4,1,2,"Instruments",2,4,"right","right",0.6650002,1,1,1,0,NA,NA,NA,NA,NA,NA,NA,NA,NA,NA,NA,NA,NA,NA,NA,NA,NA,NA,NA,NA,NA,NA,NA,NA
"342","stim/objects/HouseObjects/garbagebin.png",267,4,260,0.9,"stim/23.jpeg",2,3,3,2,"HouseObjects",1,2,"left","left",0.450999975,1,1,1,0,NA,NA,NA,NA,NA,NA,NA,NA,NA,NA,NA,NA,NA,NA,NA,NA,NA,NA,NA,NA,NA,NA,NA,NA
"541","stim/objects/Instruments/guitarcase.png",268,4,261,0.5,"stim/32.jpeg",3,2,1,1,"Instruments",2,2,"right","right",0.606999874,1,1,1,0,182,4,1,0.5,1,"stim/32.jpeg",3,2,"stim/32.jpeg",2,"left",1.332999945,4,4,1.747999907,2,1.13499999,182,1,0,0,1,1,1
"549","stim/objects/Instruments/keyboard.png",269,4,262,0.5,"stim/32.jpeg",3,2,1,1,"Instruments",2,2,"right","right",0.521999836,1,1,1,0,160,4,1,0.5,1,"stim/32.jpeg",3,2,"stim/32.jpeg",2,"right",1.516000032,4,4,1.233999968,3,0.337000132,160,0,0,NA,0,NA,1
"437","stim/objects/Instruments/cymbal.png",270,4,263,0.7,"stim/51.jpeg",5,1,2,2,"Instruments",2,3,"right","right",0.611999989,1,1,1,0,NA,NA,NA,NA,NA,NA,NA,NA,NA,NA,NA,NA,NA,NA,NA,NA,NA,NA,NA,NA,NA,NA,NA,NA
"379","stim/objects/HouseObjects/hairdryer2.png",271,4,264,0.1,"stim/13.jpeg",1,3,3,1,"HouseObjects",1,4,"left","right",0.657999992,0,0,1,0,181,4,1,0.1,1,"stim/13.jpeg",1,3,"stim/13.jpeg",4,"right",0.825999975,4,2,1.224999905,3,0.148999929,181,0,0,NA,0,NA,1
"293","stim/objects/HouseObjects/doormat.png",272,4,265,0.9,"stim/23.jpeg",2,3,3,2,"HouseObjects",1,2,"left","left",0.523000002,1,1,1,0,NA,NA,NA,NA,NA,NA,NA,NA,NA,NA,NA,NA,NA,NA,NA,NA,NA,NA,NA,NA,NA,NA,NA,NA
"241","stim/objects/HouseObjects/ashtray.png",273,4,266,0.5,"stim/31.jpeg",3,1,1,2,"HouseObjects",1,1,"left","right",0.56799984,0,0,1,0,NA,NA,NA,NA,NA,NA,NA,NA,NA,NA,NA,NA,NA,NA,NA,NA,NA,NA,NA,NA,NA,NA,NA,NA
"509","stim/objects/Instruments/gong.png",274,4,267,0.9,"stim/12.jpeg",1,2,3,2,"Instruments",2,2,"right","right",0.479000092,1,1,1,0,NA,NA,NA,NA,NA,NA,NA,NA,NA,NA,NA,NA,NA,NA,NA,NA,NA,NA,NA,NA,NA,NA,NA,NA
"563","stim/objects/Instruments/oboe.png",275,4,268,0.7,"stim/53.jpeg",5,3,2,1,"Instruments",2,1,"right","right",0.507999897,1,1,1,0,30,4,1,0.7,2,"stim/53.jpeg",5,3,"stim/53.jpeg",1,"left",1.03399992,3,2,1.164999962,4,1.291999817,30,1,0,0,0,0,1
"344","stim/objects/HouseObjects/garbagebin.png",276,4,269,0.9,"stim/24.jpeg",2,4,3,2,"HouseObjects",1,1,"left","left",0.525000095,1,1,1,0,NA,NA,NA,NA,NA,NA,NA,NA,NA,NA,NA,NA,NA,NA,NA,NA,NA,NA,NA,NA,NA,NA,NA,NA
"506","stim/objects/Instruments/frenchhorn2.png",277,4,270,0.9,"stim/11.jpeg",1,1,3,1,"Instruments",2,1,"right","right",0.444999933,1,1,1,0,9,4,1,0.9,2,"stim/11.jpeg",1,1,"stim/11.jpeg",1,"left",1.583000183,4,1,6.265000105,3,1.704999924,9,1,1,1,0,0,1
"430","stim/objects/Instruments/clarinet.png",278,4,271,0.5,"stim/42.jpeg",4,2,1,2,"Instruments",2,2,"right","right",0.674000025,1,1,1,0,NA,NA,NA,NA,NA,NA,NA,NA,NA,NA,NA,NA,NA,NA,NA,NA,NA,NA,NA,NA,NA,NA,NA,NA
"418","stim/objects/Instruments/bassdrum.png",279,4,272,0.5,"stim/34.jpeg",3,4,1,2,"Instruments",2,3,"right","right",0.550000191,1,1,1,0,NA,NA,NA,NA,NA,NA,NA,NA,NA,NA,NA,NA,NA,NA,NA,NA,NA,NA,NA,NA,NA,NA,NA,NA
"492","stim/objects/Instruments/frenchhorn.png",280,4,273,0.9,"stim/14.jpeg",1,4,3,2,"Instruments",2,1,"right","right",0.55099988,1,1,1,0,NA,NA,NA,NA,NA,NA,NA,NA,NA,NA,NA,NA,NA,NA,NA,NA,NA,NA,NA,NA,NA,NA,NA,NA
"408","stim/objects/Instruments/accordion2.png",281,4,274,0.7,"stim/53.jpeg",5,3,2,1,"Instruments",2,4,"right","right",0.615999937,1,1,1,0,116,4,1,0.7,2,"stim/53.jpeg",5,3,"stim/53.jpeg",4,"right",1.26699996,3,2,0.881000042,4,0.84800005,116,0,0,NA,1,NA,1
"267","stim/objects/HouseObjects/bucket2.png",282,4,275,0.7,"stim/63.jpeg",6,3,2,1,"HouseObjects",1,4,"left","left",0.549000025,1,1,1,0,64,4,1,0.7,1,"stim/63.jpeg",6,3,"stim/63.jpeg",4,"right",1.036999941,4,2,1.657999992,3,0.26699996,64,0,0,NA,0,NA,1
"448","stim/objects/Instruments/electricdrumset.png",283,4,276,0.7,"stim/53.jpeg",5,3,2,2,"Instruments",2,2,"right","right",0.48300004,1,1,1,0,NA,NA,NA,NA,NA,NA,NA,NA,NA,NA,NA,NA,NA,NA,NA,NA,NA,NA,NA,NA,NA,NA,NA,NA
"551","stim/objects/Instruments/laud.png",284,4,277,0.5,"stim/44.jpeg",4,4,1,1,"Instruments",2,1,"right","right",0.681999922,1,1,1,0,199,4,1,0.5,2,"stim/44.jpeg",4,4,"stim/44.jpeg",1,"left",0.819000006,3,4,1.88499999,3,0.430999994,199,1,1,1,0,0,1
"412","stim/objects/Instruments/balalaika.png",285,4,278,0.5,"stim/33.jpeg",3,3,1,2,"Instruments",2,4,"right","right",0.617000103,1,1,1,0,NA,NA,NA,NA,NA,NA,NA,NA,NA,NA,NA,NA,NA,NA,NA,NA,NA,NA,NA,NA,NA,NA,NA,NA
"510","stim/objects/Instruments/gong.png",286,4,279,0.9,"stim/11.jpeg",1,1,3,2,"Instruments",2,2,"right","right",0.634000063,1,1,1,0,NA,NA,NA,NA,NA,NA,NA,NA,NA,NA,NA,NA,NA,NA,NA,NA,NA,NA,NA,NA,NA,NA,NA,NA
"525","stim/objects/Instruments/grandpiano.png",287,4,280,0.9,"stim/12.jpeg",1,2,3,2,"Instruments",2,4,"right","right",0.590000153,1,1,1,0,NA,NA,NA,NA,NA,NA,NA,NA,NA,NA,NA,NA,NA,NA,NA,NA,NA,NA,NA,NA,NA,NA,NA,NA
"511","stim/objects/Instruments/gong.png",288,4,281,0.9,"stim/14.jpeg",1,4,3,2,"Instruments",2,4,"right","right",0.456999779,1,1,1,0,NA,NA,NA,NA,NA,NA,NA,NA,NA,NA,NA,NA,NA,NA,NA,NA,NA,NA,NA,NA,NA,NA,NA,NA
"294","stim/objects/HouseObjects/doormat.png",289,4,282,0.9,"stim/22.jpeg",2,2,3,2,"HouseObjects",1,1,"left","left",0.51699996,1,1,1,0,NA,NA,NA,NA,NA,NA,NA,NA,NA,NA,NA,NA,NA,NA,NA,NA,NA,NA,NA,NA,NA,NA,NA,NA
"361","stim/objects/HouseObjects/glass.png",290,4,283,0.9,"stim/22.jpeg",2,2,3,2,"HouseObjects",1,4,"left","left",0.535000086,1,1,1,0,NA,NA,NA,NA,NA,NA,NA,NA,NA,NA,NA,NA,NA,NA,NA,NA,NA,NA,NA,NA,NA,NA,NA,NA
"475","stim/objects/Instruments/flutetrans.png",291,4,284,0.9,"stim/11.jpeg",1,1,3,2,"Instruments",2,3,"right","right",0.536000013,1,1,1,0,NA,NA,NA,NA,NA,NA,NA,NA,NA,NA,NA,NA,NA,NA,NA,NA,NA,NA,NA,NA,NA,NA,NA,NA
"309","stim/objects/HouseObjects/dustpan.png",292,4,285,0.9,"stim/24.jpeg",2,4,3,2,"HouseObjects",1,1,"left","left",0.606000185,1,1,1,0,NA,NA,NA,NA,NA,NA,NA,NA,NA,NA,NA,NA,NA,NA,NA,NA,NA,NA,NA,NA,NA,NA,NA,NA
"275","stim/objects/HouseObjects/clothespin.png",293,4,286,0.7,"stim/62.jpeg",6,2,2,2,"HouseObjects",1,2,"left","left",0.633000135,1,1,1,0,NA,NA,NA,NA,NA,NA,NA,NA,NA,NA,NA,NA,NA,NA,NA,NA,NA,NA,NA,NA,NA,NA,NA,NA
"494","stim/objects/Instruments/frenchhorn.png",294,4,287,0.9,"stim/11.jpeg",1,1,3,2,"Instruments",2,4,"right","right",0.519999981,1,1,1,0,NA,NA,NA,NA,NA,NA,NA,NA,NA,NA,NA,NA,NA,NA,NA,NA,NA,NA,NA,NA,NA,NA,NA,NA
"550","stim/objects/Instruments/keyboard2.png",295,4,288,0.9,"stim/14.jpeg",1,4,3,1,"Instruments",2,2,"right","right",0.45600009,1,1,1,0,82,4,1,0.9,2,"stim/14.jpeg",1,4,"stim/14.jpeg",2,"left",1.207000017,4,2,1.366999865,4,0.93200016,82,1,0,0,0,0,1
"554","stim/objects/Instruments/maraca2.png",296,4,289,0.1,"stim/24.jpeg",2,4,3,1,"Instruments",2,4,"right","left",0.525000095,0,0,1,0,8,4,1,0.1,2,"stim/24.jpeg",2,4,"stim/24.jpeg",4,"left",1.693000078,4,1,7.95600009,3,1.121999979,8,1,0,0,0,0,1
"328","stim/objects/HouseObjects/flyswatter.png",297,4,290,0.9,"stim/23.jpeg",2,3,3,2,"HouseObjects",1,1,"left","left",0.505000114,1,1,1,0,NA,NA,NA,NA,NA,NA,NA,NA,NA,NA,NA,NA,NA,NA,NA,NA,NA,NA,NA,NA,NA,NA,NA,NA
"345","stim/objects/HouseObjects/garbagebin.png",298,4,291,0.9,"stim/22.jpeg",2,2,3,2,"HouseObjects",1,2,"left","left",0.534000158,1,1,1,0,NA,NA,NA,NA,NA,NA,NA,NA,NA,NA,NA,NA,NA,NA,NA,NA,NA,NA,NA,NA,NA,NA,NA,NA
"431","stim/objects/Instruments/clarinet.png",299,4,292,0.5,"stim/41.jpeg",4,1,1,2,"Instruments",2,4,"right","right",0.582000017,1,1,1,0,NA,NA,NA,NA,NA,NA,NA,NA,NA,NA,NA,NA,NA,NA,NA,NA,NA,NA,NA,NA,NA,NA,NA,NA
"512","stim/objects/Instruments/gong.png",300,4,293,0.9,"stim/11.jpeg",1,1,3,2,"Instruments",2,1,"right","right",0.523999929,1,1,1,0,NA,NA,NA,NA,NA,NA,NA,NA,NA,NA,NA,NA,NA,NA,NA,NA,NA,NA,NA,NA,NA,NA,NA,NA
"457","stim/objects/Instruments/flute.png",301,4,294,0.9,"stim/12.jpeg",1,2,3,2,"Instruments",2,2,"right","right",0.398000002,1,1,1,0,NA,NA,NA,NA,NA,NA,NA,NA,NA,NA,NA,NA,NA,NA,NA,NA,NA,NA,NA,NA,NA,NA,NA,NA
"346","stim/objects/HouseObjects/garbagebin.png",302,4,295,0.9,"stim/22.jpeg",2,2,3,2,"HouseObjects",1,1,"left","right",0.46600008,0,0,1,0,NA,NA,NA,NA,NA,NA,NA,NA,NA,NA,NA,NA,NA,NA,NA,NA,NA,NA,NA,NA,NA,NA,NA,NA
"444","stim/objects/Instruments/drums.png",303,4,296,0.7,"stim/52.jpeg",5,2,2,2,"Instruments",2,1,"right","right",0.710999966,1,1,1,0,NA,NA,NA,NA,NA,NA,NA,NA,NA,NA,NA,NA,NA,NA,NA,NA,NA,NA,NA,NA,NA,NA,NA,NA
"295","stim/objects/HouseObjects/doormat.png",304,4,297,0.9,"stim/23.jpeg",2,3,3,2,"HouseObjects",1,3,"left","left",0.475000143,1,1,1,0,NA,NA,NA,NA,NA,NA,NA,NA,NA,NA,NA,NA,NA,NA,NA,NA,NA,NA,NA,NA,NA,NA,NA,NA
"495","stim/objects/Instruments/frenchhorn.png",305,4,298,0.9,"stim/11.jpeg",1,1,3,2,"Instruments",2,1,"right","right",0.5,1,1,1,0,NA,NA,NA,NA,NA,NA,NA,NA,NA,NA,NA,NA,NA,NA,NA,NA,NA,NA,NA,NA,NA,NA,NA,NA
"527","stim/objects/Instruments/grandpiano.png",306,4,299,0.9,"stim/14.jpeg",1,4,3,2,"Instruments",2,2,"right","right",0.473999977,1,1,1,0,NA,NA,NA,NA,NA,NA,NA,NA,NA,NA,NA,NA,NA,NA,NA,NA,NA,NA,NA,NA,NA,NA,NA,NA
"528","stim/objects/Instruments/grandpiano.png",307,4,300,0.9,"stim/11.jpeg",1,1,3,2,"Instruments",2,3,"right","right",0.444999933,1,1,1,0,NA,NA,NA,NA,NA,NA,NA,NA,NA,NA,NA,NA,NA,NA,NA,NA,NA,NA,NA,NA,NA,NA,NA,NA
"250","stim/objects/HouseObjects/basket.png",308,4,301,0.5,"stim/34.jpeg",3,4,1,2,"HouseObjects",1,4,"left","right",0.519000053,0,0,1,0,NA,NA,NA,NA,NA,NA,NA,NA,NA,NA,NA,NA,NA,NA,NA,NA,NA,NA,NA,NA,NA,NA,NA,NA
"556","stim/objects/Instruments/marimba2.png",309,4,302,0.1,"stim/21.jpeg",2,1,3,1,"Instruments",2,2,"right","left",0.57799983,0,0,1,0,37,4,1,0.1,2,"stim/21.jpeg",2,1,"stim/21.jpeg",2,"left",3.124000072,4,4,2.720000029,3,1.714999914,37,1,0,0,0,0,1
"347","stim/objects/HouseObjects/garbagebin.png",310,4,303,0.9,"stim/21.jpeg",2,1,3,2,"HouseObjects",1,3,"left","left",0.522000074,1,1,1,0,NA,NA,NA,NA,NA,NA,NA,NA,NA,NA,NA,NA,NA,NA,NA,NA,NA,NA,NA,NA,NA,NA,NA,NA
"413","stim/objects/Instruments/balalaika.png",311,4,304,0.5,"stim/32.jpeg",3,2,1,2,"Instruments",2,1,"right","",NA,0,0,1,0,NA,NA,NA,NA,NA,NA,NA,NA,NA,NA,NA,NA,NA,NA,NA,NA,NA,NA,NA,NA,NA,NA,NA,NA
"296","stim/objects/HouseObjects/doormat.png",312,4,305,0.9,"stim/24.jpeg",2,4,3,2,"HouseObjects",1,2,"left","left",0.502000093,1,1,1,0,NA,NA,NA,NA,NA,NA,NA,NA,NA,NA,NA,NA,NA,NA,NA,NA,NA,NA,NA,NA,NA,NA,NA,NA
"297","stim/objects/HouseObjects/doormat.png",313,4,306,0.9,"stim/21.jpeg",2,1,3,2,"HouseObjects",1,3,"left","left",0.535000086,1,1,1,0,NA,NA,NA,NA,NA,NA,NA,NA,NA,NA,NA,NA,NA,NA,NA,NA,NA,NA,NA,NA,NA,NA,NA,NA
"548","stim/objects/Instruments/hihat2.png",314,4,307,0.9,"stim/13.jpeg",1,3,3,1,"Instruments",2,3,"right","right",0.524999857,1,1,1,0,126,4,1,0.9,2,"stim/13.jpeg",1,3,"stim/13.jpeg",3,"left",1.201999903,2,2,1.819999933,1,0.900000095,126,1,0,0,0,0,1
"449","stim/objects/Instruments/electricdrumset.png",315,4,308,0.7,"stim/52.jpeg",5,2,2,2,"Instruments",2,3,"right","right",0.614000082,1,1,1,0,NA,NA,NA,NA,NA,NA,NA,NA,NA,NA,NA,NA,NA,NA,NA,NA,NA,NA,NA,NA,NA,NA,NA,NA
"375","stim/objects/HouseObjects/glass2.png",316,4,309,0.1,"stim/11.jpeg",1,1,3,1,"HouseObjects",1,4,"left","right",0.637000084,0,0,1,0,48,4,1,0.1,1,"stim/11.jpeg",1,1,"stim/11.jpeg",4,"left",1.411000013,2,1,1.657000065,4,0.764999866,48,1,1,1,1,1,1
"452","stim/objects/Instruments/electricguitar.png",317,4,310,0.7,"stim/51.jpeg",5,1,2,2,"Instruments",2,1,"right","right",0.602999926,1,1,1,0,NA,NA,NA,NA,NA,NA,NA,NA,NA,NA,NA,NA,NA,NA,NA,NA,NA,NA,NA,NA,NA,NA,NA,NA
"348","stim/objects/HouseObjects/garbagebin.png",318,4,311,0.9,"stim/23.jpeg",2,3,3,2,"HouseObjects",1,1,"left","left",0.566999912,1,1,1,0,NA,NA,NA,NA,NA,NA,NA,NA,NA,NA,NA,NA,NA,NA,NA,NA,NA,NA,NA,NA,NA,NA,NA,NA
"523","stim/objects/Instruments/gong2.png",319,4,312,0.9,"stim/12.jpeg",1,2,3,1,"Instruments",2,2,"right","right",0.688999891,1,1,1,0,157,4,1,0.9,2,"stim/12.jpeg",1,2,"stim/12.jpeg",2,"right",7.802999973,1,1,1.231999874,3,0.565000057,157,0,0,NA,0,NA,1
"478","stim/objects/Instruments/flutetrans.png",320,4,313,0.9,"stim/13.jpeg",1,3,3,2,"Instruments",2,2,"right","right",0.455999851,1,1,1,0,NA,NA,NA,NA,NA,NA,NA,NA,NA,NA,NA,NA,NA,NA,NA,NA,NA,NA,NA,NA,NA,NA,NA,NA
"459","stim/objects/Instruments/flute.png",321,4,314,0.9,"stim/13.jpeg",1,3,3,2,"Instruments",2,3,"right","right",0.458000183,1,1,1,0,NA,NA,NA,NA,NA,NA,NA,NA,NA,NA,NA,NA,NA,NA,NA,NA,NA,NA,NA,NA,NA,NA,NA,NA
"472","stim/objects/Instruments/flute2.png",322,4,315,0.9,"stim/13.jpeg",1,3,3,1,"Instruments",2,3,"right","right",0.508000135,1,1,1,0,95,4,1,0.9,2,"stim/13.jpeg",1,3,"stim/13.jpeg",3,"right",2.69900012,4,4,2.090000153,2,1.184000015,95,0,0,NA,0,NA,1
"415","stim/objects/Instruments/banjo.png",323,4,316,0.5,"stim/33.jpeg",3,3,1,2,"Instruments",2,2,"right","right",0.715000153,1,1,1,0,NA,NA,NA,NA,NA,NA,NA,NA,NA,NA,NA,NA,NA,NA,NA,NA,NA,NA,NA,NA,NA,NA,NA,NA
"298","stim/objects/HouseObjects/doormat.png",324,4,317,0.9,"stim/22.jpeg",2,2,3,2,"HouseObjects",1,2,"left","left",0.48300004,1,1,1,0,NA,NA,NA,NA,NA,NA,NA,NA,NA,NA,NA,NA,NA,NA,NA,NA,NA,NA,NA,NA,NA,NA,NA,NA
"377","stim/objects/HouseObjects/glassmop2.png",325,4,318,0.1,"stim/12.jpeg",1,2,3,1,"HouseObjects",1,3,"left","right",0.741999865,0,0,1,0,69,4,1,0.1,1,"stim/12.jpeg",1,2,"stim/12.jpeg",3,"left",1.003999949,4,3,3.282000065,3,0.672999859,69,1,0,0,1,1,1
"265","stim/objects/HouseObjects/bucket.png",326,4,319,0.5,"stim/43.jpeg",4,3,1,2,"HouseObjects",1,3,"left","right",0.64199996,0,0,1,0,NA,NA,NA,NA,NA,NA,NA,NA,NA,NA,NA,NA,NA,NA,NA,NA,NA,NA,NA,NA,NA,NA,NA,NA
"529","stim/objects/Instruments/grandpiano.png",327,4,320,0.9,"stim/11.jpeg",1,1,3,2,"Instruments",2,1,"right","right",0.453000069,1,1,1,0,NA,NA,NA,NA,NA,NA,NA,NA,NA,NA,NA,NA,NA,NA,NA,NA,NA,NA,NA,NA,NA,NA,NA,NA
"560","stim/objects/Instruments/musicsheet2.png",328,4,321,0.1,"stim/23.jpeg",2,3,3,1,"Instruments",2,4,"right","left",0.51699996,0,0,1,0,92,4,1,0.1,2,"stim/23.jpeg",2,3,"stim/23.jpeg",4,"left",0.799999952,4,2,1.722999811,4,0.632999897,92,1,0,0,1,1,1
"299","stim/objects/HouseObjects/doormat.png",329,4,322,0.9,"stim/23.jpeg",2,3,3,2,"HouseObjects",1,4,"left","left",0.419999838,1,1,1,0,NA,NA,NA,NA,NA,NA,NA,NA,NA,NA,NA,NA,NA,NA,NA,NA,NA,NA,NA,NA,NA,NA,NA,NA
"391","stim/objects/HouseObjects/knife2.png",330,4,323,0.9,"stim/23.jpeg",2,3,3,1,"HouseObjects",1,3,"left","left",0.371999979,1,1,1,0,90,4,1,0.9,1,"stim/23.jpeg",2,3,"stim/23.jpeg",3,"left",1.532999992,4,3,1.765000105,3,0.332000017,90,1,1,1,1,1,1
"479","stim/objects/Instruments/flutetrans.png",331,4,324,0.9,"stim/12.jpeg",1,2,3,2,"Instruments",2,1,"right","right",0.654000044,1,1,1,0,NA,NA,NA,NA,NA,NA,NA,NA,NA,NA,NA,NA,NA,NA,NA,NA,NA,NA,NA,NA,NA,NA,NA,NA
"480","stim/objects/Instruments/flutetrans.png",332,4,325,0.9,"stim/14.jpeg",1,4,3,2,"Instruments",2,4,"right","right",0.398999929,1,1,1,0,NA,NA,NA,NA,NA,NA,NA,NA,NA,NA,NA,NA,NA,NA,NA,NA,NA,NA,NA,NA,NA,NA,NA,NA
"327","stim/objects/HouseObjects/flyswatter.png",333,4,326,0.9,"stim/23.jpeg",2,3,3,2,"HouseObjects",1,1,"left","right",0.744999886,0,0,1,0,NA,NA,NA,NA,NA,NA,NA,NA,NA,NA,NA,NA,NA,NA,NA,NA,NA,NA,NA,NA,NA,NA,NA,NA
"363","stim/objects/HouseObjects/glass.png",334,4,327,0.9,"stim/23.jpeg",2,3,3,2,"HouseObjects",1,1,"left","left",0.417000055,1,1,1,0,NA,NA,NA,NA,NA,NA,NA,NA,NA,NA,NA,NA,NA,NA,NA,NA,NA,NA,NA,NA,NA,NA,NA,NA
"364","stim/objects/HouseObjects/glass.png",335,4,328,0.9,"stim/21.jpeg",2,1,3,2,"HouseObjects",1,1,"left","left",0.414999962,1,1,1,0,NA,NA,NA,NA,NA,NA,NA,NA,NA,NA,NA,NA,NA,NA,NA,NA,NA,NA,NA,NA,NA,NA,NA,NA
"497","stim/objects/Instruments/frenchhorn.png",336,4,329,0.9,"stim/13.jpeg",1,3,3,2,"Instruments",2,1,"right","right",0.549000025,1,1,1,0,NA,NA,NA,NA,NA,NA,NA,NA,NA,NA,NA,NA,NA,NA,NA,NA,NA,NA,NA,NA,NA,NA,NA,NA
"395","stim/objects/HouseObjects/match2.png",337,4,330,0.9,"stim/21.jpeg",2,1,3,1,"HouseObjects",1,2,"left","left",0.599000216,1,1,1,0,13,4,1,0.9,1,"stim/21.jpeg",2,1,"stim/21.jpeg",2,"left",4.381999969,4,2,3.365999937,1,0.88499999,13,1,0,0,0,0,1
"447","stim/objects/Instruments/drums2.png",338,4,331,0.3,"stim/61.jpeg",6,1,2,1,"Instruments",2,3,"right","right",0.825000048,1,1,1,0,178,4,1,0.3,2,"stim/61.jpeg",6,1,"stim/61.jpeg",3,"left",1.184999943,4,4,1.087000132,3,0.569999933,178,1,0,0,1,1,1
"461","stim/objects/Instruments/flute.png",339,4,332,0.9,"stim/13.jpeg",1,3,3,2,"Instruments",2,2,"right","right",0.540999889,1,1,1,0,NA,NA,NA,NA,NA,NA,NA,NA,NA,NA,NA,NA,NA,NA,NA,NA,NA,NA,NA,NA,NA,NA,NA,NA
"568","stim/objects/Instruments/pipepiano2.png",340,4,333,0.1,"stim/23.jpeg",2,3,3,1,"Instruments",2,3,"right","left",0.523000002,0,0,1,0,128,4,1,0.1,2,"stim/23.jpeg",2,3,"stim/23.jpeg",3,"left",1.45600009,3,3,0.782999992,4,0.566999912,128,1,1,1,0,0,1
"557","stim/objects/Instruments/metronome.png",341,4,334,0.5,"stim/43.jpeg",4,3,1,1,"Instruments",2,3,"right","right",0.500999928,1,1,1,0,124,4,1,0.5,2,"stim/43.jpeg",4,3,"stim/43.jpeg",3,"right",1.13499999,4,1,0.947999954,3,0.447999954,124,0,0,NA,1,NA,1
"266","stim/objects/HouseObjects/bucket.png",342,4,335,0.5,"stim/42.jpeg",4,2,1,2,"HouseObjects",1,4,"left","right",0.55099988,0,0,1,0,NA,NA,NA,NA,NA,NA,NA,NA,NA,NA,NA,NA,NA,NA,NA,NA,NA,NA,NA,NA,NA,NA,NA,NA
"498","stim/objects/Instruments/frenchhorn.png",343,4,336,0.9,"stim/14.jpeg",1,4,3,2,"Instruments",2,1,"right","right",0.755999804,1,1,1,0,NA,NA,NA,NA,NA,NA,NA,NA,NA,NA,NA,NA,NA,NA,NA,NA,NA,NA,NA,NA,NA,NA,NA,NA
"366","stim/objects/HouseObjects/glass.png",344,4,337,0.9,"stim/22.jpeg",2,2,3,2,"HouseObjects",1,3,"left","left",0.605999947,1,1,1,0,NA,NA,NA,NA,NA,NA,NA,NA,NA,NA,NA,NA,NA,NA,NA,NA,NA,NA,NA,NA,NA,NA,NA,NA
"349","stim/objects/HouseObjects/garbagebin.png",345,4,338,0.9,"stim/24.jpeg",2,4,3,2,"HouseObjects",1,3,"left","left",0.565999985,1,1,1,0,NA,NA,NA,NA,NA,NA,NA,NA,NA,NA,NA,NA,NA,NA,NA,NA,NA,NA,NA,NA,NA,NA,NA,NA
"307","stim/objects/HouseObjects/doormat2.png",346,4,339,0.1,"stim/11.jpeg",1,1,3,1,"HouseObjects",1,4,"left","right",0.57400012,0,0,1,0,98,4,1,0.1,1,"stim/11.jpeg",1,1,"stim/11.jpeg",4,"right",1.365999937,4,1,1.437999964,2,0.414999962,98,0,1,NA,0,NA,1
"453","stim/objects/Instruments/electricguitar.png",347,4,340,0.7,"stim/53.jpeg",5,3,2,2,"Instruments",2,4,"right","right",0.648999929,1,1,1,0,NA,NA,NA,NA,NA,NA,NA,NA,NA,NA,NA,NA,NA,NA,NA,NA,NA,NA,NA,NA,NA,NA,NA,NA
"435","stim/objects/Instruments/cornet2.png",348,4,341,0.3,"stim/62.jpeg",6,2,2,1,"Instruments",2,2,"right","left",0.537999868,0,0,1,0,195,4,1,0.3,2,"stim/62.jpeg",6,2,"stim/62.jpeg",2,"right",0.73300004,3,4,0.870999813,3,0.641000032,195,0,0,NA,0,NA,1
"310","stim/objects/HouseObjects/dustpan.png",349,4,342,0.9,"stim/21.jpeg",2,1,3,2,"HouseObjects",1,3,"left","left",0.618000031,1,1,1,0,NA,NA,NA,NA,NA,NA,NA,NA,NA,NA,NA,NA,NA,NA,NA,NA,NA,NA,NA,NA,NA,NA,NA,NA
"406","stim/objects/Instruments/accordion.png",350,4,343,0.5,"stim/34.jpeg",3,4,1,2,"Instruments",2,1,"right","right",0.644999981,1,1,1,0,NA,NA,NA,NA,NA,NA,NA,NA,NA,NA,NA,NA,NA,NA,NA,NA,NA,NA,NA,NA,NA,NA,NA,NA
"400","stim/objects/HouseObjects/recyclingbin.png",351,4,344,0.3,"stim/53.jpeg",5,3,2,1,"HouseObjects",1,1,"left","right",0.789000034,0,0,1,0,36,4,1,0.3,1,"stim/53.jpeg",5,3,"stim/53.jpeg",1,"right",2.551000118,3,4,1.714999914,2,0.522000074,36,0,0,NA,0,NA,1
"278","stim/objects/HouseObjects/clothespin2.png",352,4,345,0.7,"stim/62.jpeg",6,2,2,1,"HouseObjects",1,4,"left","left",0.493000031,1,1,1,0,46,4,1,0.7,1,"stim/62.jpeg",6,2,"stim/62.jpeg",4,"left",1.954999924,3,2,1.99000001,3,0.498000145,46,1,1,1,0,0,1
"332","stim/objects/HouseObjects/flyswatter.png",353,4,346,0.9,"stim/21.jpeg",2,1,3,2,"HouseObjects",1,3,"left","left",0.639000177,1,1,1,0,NA,NA,NA,NA,NA,NA,NA,NA,NA,NA,NA,NA,NA,NA,NA,NA,NA,NA,NA,NA,NA,NA,NA,NA
"333","stim/objects/HouseObjects/flyswatter.png",354,4,347,0.9,"stim/21.jpeg",2,1,3,2,"HouseObjects",1,1,"left","left",0.483999968,1,1,1,0,NA,NA,NA,NA,NA,NA,NA,NA,NA,NA,NA,NA,NA,NA,NA,NA,NA,NA,NA,NA,NA,NA,NA,NA
"311","stim/objects/HouseObjects/dustpan.png",355,4,348,0.9,"stim/21.jpeg",2,1,3,2,"HouseObjects",1,4,"left","left",0.610000134,1,1,1,0,NA,NA,NA,NA,NA,NA,NA,NA,NA,NA,NA,NA,NA,NA,NA,NA,NA,NA,NA,NA,NA,NA,NA,NA
"367","stim/objects/HouseObjects/glass.png",356,4,349,0.9,"stim/21.jpeg",2,1,3,2,"HouseObjects",1,1,"left","left",0.527000189,1,1,1,0,NA,NA,NA,NA,NA,NA,NA,NA,NA,NA,NA,NA,NA,NA,NA,NA,NA,NA,NA,NA,NA,NA,NA,NA
"530","stim/objects/Instruments/grandpiano.png",357,4,350,0.9,"stim/13.jpeg",1,3,3,2,"Instruments",2,4,"right","right",0.709000111,1,1,1,0,NA,NA,NA,NA,NA,NA,NA,NA,NA,NA,NA,NA,NA,NA,NA,NA,NA,NA,NA,NA,NA,NA,NA,NA
"271","stim/objects/HouseObjects/clothesdryingrack.png",358,4,351,0.7,"stim/61.jpeg",6,1,2,2,"HouseObjects",1,2,"left","left",0.572999954,1,1,1,0,NA,NA,NA,NA,NA,NA,NA,NA,NA,NA,NA,NA,NA,NA,NA,NA,NA,NA,NA,NA,NA,NA,NA,NA
"440","stim/objects/Instruments/doublebass.png",359,4,352,0.7,"stim/51.jpeg",5,1,2,2,"Instruments",2,4,"right","right",0.834000111,1,1,1,0,NA,NA,NA,NA,NA,NA,NA,NA,NA,NA,NA,NA,NA,NA,NA,NA,NA,NA,NA,NA,NA,NA,NA,NA
"263","stim/objects/HouseObjects/broom.png",360,4,353,0.5,"stim/42.jpeg",4,2,1,2,"HouseObjects",1,1,"left","right",0.505999804,0,0,1,0,NA,NA,NA,NA,NA,NA,NA,NA,NA,NA,NA,NA,NA,NA,NA,NA,NA,NA,NA,NA,NA,NA,NA,NA
"300","stim/objects/HouseObjects/doormat.png",361,4,354,0.9,"stim/21.jpeg",2,1,3,2,"HouseObjects",1,2,"left","left",0.577000141,1,1,1,0,NA,NA,NA,NA,NA,NA,NA,NA,NA,NA,NA,NA,NA,NA,NA,NA,NA,NA,NA,NA,NA,NA,NA,NA
"251","stim/objects/HouseObjects/basket.png",362,4,355,0.5,"stim/31.jpeg",3,1,1,2,"HouseObjects",1,3,"left","right",0.585999966,0,0,1,0,NA,NA,NA,NA,NA,NA,NA,NA,NA,NA,NA,NA,NA,NA,NA,NA,NA,NA,NA,NA,NA,NA,NA,NA
"312","stim/objects/HouseObjects/dustpan.png",363,4,356,0.9,"stim/21.jpeg",2,1,3,2,"HouseObjects",1,3,"left","left",0.509000063,1,1,1,0,NA,NA,NA,NA,NA,NA,NA,NA,NA,NA,NA,NA,NA,NA,NA,NA,NA,NA,NA,NA,NA,NA,NA,NA
"350","stim/objects/HouseObjects/garbagebin.png",364,4,357,0.9,"stim/22.jpeg",2,2,3,2,"HouseObjects",1,1,"left","left",0.639000177,1,1,1,0,NA,NA,NA,NA,NA,NA,NA,NA,NA,NA,NA,NA,NA,NA,NA,NA,NA,NA,NA,NA,NA,NA,NA,NA
"463","stim/objects/Instruments/flute.png",365,4,358,0.9,"stim/11.jpeg",1,1,3,2,"Instruments",2,1,"right","right",0.75999999,1,1,1,0,NA,NA,NA,NA,NA,NA,NA,NA,NA,NA,NA,NA,NA,NA,NA,NA,NA,NA,NA,NA,NA,NA,NA,NA
"542","stim/objects/Instruments/guitarcase2.png",366,4,359,0.9,"stim/14.jpeg",1,4,3,1,"Instruments",2,4,"right","right",0.549000025,1,1,1,0,87,4,1,0.9,2,"stim/14.jpeg",1,4,"stim/14.jpeg",4,"right",0.899000168,4,4,0.736000061,4,0.531999826,87,0,1,NA,1,NA,1
"499","stim/objects/Instruments/frenchhorn.png",367,4,360,0.9,"stim/14.jpeg",1,4,3,2,"Instruments",2,4,"right","right",0.388999939,1,1,1,0,NA,NA,NA,NA,NA,NA,NA,NA,NA,NA,NA,NA,NA,NA,NA,NA,NA,NA,NA,NA,NA,NA,NA,NA
"252","stim/objects/HouseObjects/basket2.png",368,4,361,0.3,"stim/51.jpeg",5,1,2,1,"HouseObjects",1,3,"left","right",0.566999912,0,0,1,0,194,4,1,0.3,1,"stim/51.jpeg",5,1,"stim/51.jpeg",3,"right",0.64199996,3,2,0.687999964,3,0.450999975,194,0,0,NA,1,NA,1
"423","stim/objects/Instruments/bassguitar2.png",369,4,362,0.3,"stim/62.jpeg",6,2,2,1,"Instruments",2,3,"right","left",0.607000113,0,0,1,0,99,4,1,0.3,2,"stim/62.jpeg",6,2,"stim/62.jpeg",3,"right",1.570999861,2,3,1.636999846,3,0.332000017,99,0,0,NA,1,NA,1
"261","stim/objects/HouseObjects/bottle2.png",370,4,363,0.7,"stim/61.jpeg",6,1,2,1,"HouseObjects",1,4,"left","",NA,0,0,1,0,10,4,1,0.7,1,"stim/61.jpeg",6,1,"stim/61.jpeg",4,"left",1.32400012,4,2,4.197999954,4,1.522000074,10,1,0,0,1,1,1
"501","stim/objects/Instruments/frenchhorn.png",371,4,364,0.9,"stim/13.jpeg",1,3,3,2,"Instruments",2,2,"right","right",0.598999977,1,1,1,0,NA,NA,NA,NA,NA,NA,NA,NA,NA,NA,NA,NA,NA,NA,NA,NA,NA,NA,NA,NA,NA,NA,NA,NA
"502","stim/objects/Instruments/frenchhorn.png",372,4,365,0.9,"stim/12.jpeg",1,2,3,2,"Instruments",2,3,"right","right",0.690000057,1,1,1,0,NA,NA,NA,NA,NA,NA,NA,NA,NA,NA,NA,NA,NA,NA,NA,NA,NA,NA,NA,NA,NA,NA,NA,NA
"280","stim/objects/HouseObjects/coffee.png",373,4,366,0.7,"stim/64.jpeg",6,4,2,2,"HouseObjects",1,2,"left","left",0.426000118,1,1,1,0,NA,NA,NA,NA,NA,NA,NA,NA,NA,NA,NA,NA,NA,NA,NA,NA,NA,NA,NA,NA,NA,NA,NA,NA
"562","stim/objects/Instruments/musicstand2.png",374,4,367,0.1,"stim/24.jpeg",2,4,3,1,"Instruments",2,3,"right","left",0.559000015,0,0,1,0,163,4,1,0.1,2,"stim/24.jpeg",2,4,"stim/24.jpeg",3,"right",1.065999985,4,2,0.799999952,3,0.298000097,163,0,0,NA,1,NA,1
"244","stim/objects/HouseObjects/ballofstring.png",375,4,368,0.5,"stim/32.jpeg",3,2,1,2,"HouseObjects",1,3,"left","right",0.707000017,0,0,1,0,NA,NA,NA,NA,NA,NA,NA,NA,NA,NA,NA,NA,NA,NA,NA,NA,NA,NA,NA,NA,NA,NA,NA,NA
"313","stim/objects/HouseObjects/dustpan.png",376,4,369,0.9,"stim/23.jpeg",2,3,3,2,"HouseObjects",1,4,"left","left",0.889999866,1,1,1,0,NA,NA,NA,NA,NA,NA,NA,NA,NA,NA,NA,NA,NA,NA,NA,NA,NA,NA,NA,NA,NA,NA,NA,NA
"369","stim/objects/HouseObjects/glass.png",377,4,370,0.9,"stim/22.jpeg",2,2,3,2,"HouseObjects",1,3,"left","left",0.503000021,1,1,1,0,NA,NA,NA,NA,NA,NA,NA,NA,NA,NA,NA,NA,NA,NA,NA,NA,NA,NA,NA,NA,NA,NA,NA,NA
"258","stim/objects/HouseObjects/blender2.png",378,4,371,0.7,"stim/64.jpeg",6,4,2,1,"HouseObjects",1,2,"left","left",0.695000172,1,1,1,0,138,4,1,0.7,1,"stim/64.jpeg",6,4,"stim/64.jpeg",2,"right",0.851999998,4,4,0.589999914,4,0.523000002,138,0,1,NA,0,NA,1
"533","stim/objects/Instruments/grandpiano.png",379,4,372,0.9,"stim/12.jpeg",1,2,3,2,"Instruments",2,2,"right","right",0.639000177,1,1,1,0,NA,NA,NA,NA,NA,NA,NA,NA,NA,NA,NA,NA,NA,NA,NA,NA,NA,NA,NA,NA,NA,NA,NA,NA
"419","stim/objects/Instruments/bassdrum.png",380,4,373,0.5,"stim/31.jpeg",3,1,1,2,"Instruments",2,1,"right","right",0.590000153,1,1,1,0,NA,NA,NA,NA,NA,NA,NA,NA,NA,NA,NA,NA,NA,NA,NA,NA,NA,NA,NA,NA,NA,NA,NA,NA
"283","stim/objects/HouseObjects/cushion.png",381,4,374,0.7,"stim/62.jpeg",6,2,2,2,"HouseObjects",1,3,"left","left",0.538000107,1,1,1,0,NA,NA,NA,NA,NA,NA,NA,NA,NA,NA,NA,NA,NA,NA,NA,NA,NA,NA,NA,NA,NA,NA,NA,NA
"397","stim/objects/HouseObjects/pan2.png",382,4,375,0.9,"stim/22.jpeg",2,2,3,1,"HouseObjects",1,3,"left","right",0.815000057,0,0,1,0,143,4,1,0.9,1,"stim/22.jpeg",2,2,"stim/22.jpeg",3,"left",0.915999889,4,1,0.821000099,3,0.399999857,143,1,0,0,1,1,1
"257","stim/objects/HouseObjects/blender.png",383,4,376,0.5,"stim/43.jpeg",4,3,1,2,"HouseObjects",1,3,"left","right",0.615999937,0,0,1,0,NA,NA,NA,NA,NA,NA,NA,NA,NA,NA,NA,NA,NA,NA,NA,NA,NA,NA,NA,NA,NA,NA,NA,NA
"473","stim/objects/Instruments/flutetrans.png",384,4,377,0.9,"stim/12.jpeg",1,2,3,2,"Instruments",2,3,"right","right",0.608999968,1,1,1,0,NA,NA,NA,NA,NA,NA,NA,NA,NA,NA,NA,NA,NA,NA,NA,NA,NA,NA,NA,NA,NA,NA,NA,NA
"288","stim/objects/HouseObjects/dishsoap.png",385,4,378,0.7,"stim/62.jpeg",6,2,2,2,"HouseObjects",1,1,"left","left",0.549000025,1,1,1,0,NA,NA,NA,NA,NA,NA,NA,NA,NA,NA,NA,NA,NA,NA,NA,NA,NA,NA,NA,NA,NA,NA,NA,NA
"508","stim/objects/Instruments/gong.png",386,4,379,0.9,"stim/13.jpeg",1,3,3,2,"Instruments",2,2,"right","right",0.529999971,1,1,1,0,NA,NA,NA,NA,NA,NA,NA,NA,NA,NA,NA,NA,NA,NA,NA,NA,NA,NA,NA,NA,NA,NA,NA,NA
"398","stim/objects/HouseObjects/pitcher.png",387,4,380,0.3,"stim/52.jpeg",5,2,2,1,"HouseObjects",1,2,"left","right",0.806999922,0,0,1,0,78,4,1,0.3,1,"stim/52.jpeg",5,2,"stim/52.jpeg",2,"right",0.809000015,4,4,1.447999954,2,0.619999886,78,0,0,NA,1,NA,1
"434","stim/objects/Instruments/cornet.png",388,4,381,0.5,"stim/43.jpeg",4,3,1,2,"Instruments",2,4,"right","right",0.701999903,1,1,1,0,NA,NA,NA,NA,NA,NA,NA,NA,NA,NA,NA,NA,NA,NA,NA,NA,NA,NA,NA,NA,NA,NA,NA,NA
"343","stim/objects/HouseObjects/garbagebin.png",389,4,382,0.9,"stim/21.jpeg",2,1,3,2,"HouseObjects",1,3,"left","left",0.51699996,1,1,1,0,NA,NA,NA,NA,NA,NA,NA,NA,NA,NA,NA,NA,NA,NA,NA,NA,NA,NA,NA,NA,NA,NA,NA,NA
"292","stim/objects/HouseObjects/doormat.png",390,4,383,0.9,"stim/22.jpeg",2,2,3,2,"HouseObjects",1,4,"left","left",0.588999987,1,1,1,0,NA,NA,NA,NA,NA,NA,NA,NA,NA,NA,NA,NA,NA,NA,NA,NA,NA,NA,NA,NA,NA,NA,NA,NA
"331","stim/objects/HouseObjects/flyswatter.png",391,4,384,0.9,"stim/24.jpeg",2,4,3,2,"HouseObjects",1,1,"left","left",0.509000063,1,1,1,0,NA,NA,NA,NA,NA,NA,NA,NA,NA,NA,NA,NA,NA,NA,NA,NA,NA,NA,NA,NA,NA,NA,NA,NA
"421","stim/objects/Instruments/bassguitar.png",392,4,385,0.5,"stim/42.jpeg",4,2,1,2,"Instruments",2,4,"right","right",0.516000032,1,1,1,0,NA,NA,NA,NA,NA,NA,NA,NA,NA,NA,NA,NA,NA,NA,NA,NA,NA,NA,NA,NA,NA,NA,NA,NA
"302","stim/objects/HouseObjects/doormat.png",393,4,386,0.9,"stim/24.jpeg",2,4,3,2,"HouseObjects",1,4,"left","left",0.605999947,1,1,1,0,NA,NA,NA,NA,NA,NA,NA,NA,NA,NA,NA,NA,NA,NA,NA,NA,NA,NA,NA,NA,NA,NA,NA,NA
"567","stim/objects/Instruments/pipepiano.png",394,4,387,0.7,"stim/51.jpeg",5,1,2,1,"Instruments",2,4,"right","right",0.625999928,1,1,1,0,6,4,1,0.7,2,"stim/51.jpeg",5,1,"stim/51.jpeg",4,"left",2.654000044,4,4,2.237999916,4,2.164999962,6,1,0,0,1,1,1
"516","stim/objects/Instruments/gong.png",395,4,388,0.9,"stim/13.jpeg",1,3,3,2,"Instruments",2,2,"right","right",0.649999857,1,1,1,0,NA,NA,NA,NA,NA,NA,NA,NA,NA,NA,NA,NA,NA,NA,NA,NA,NA,NA,NA,NA,NA,NA,NA,NA
"474","stim/objects/Instruments/flutetrans.png",396,4,389,0.9,"stim/14.jpeg",1,4,3,2,"Instruments",2,4,"right","right",0.613000154,1,1,1,0,NA,NA,NA,NA,NA,NA,NA,NA,NA,NA,NA,NA,NA,NA,NA,NA,NA,NA,NA,NA,NA,NA,NA,NA
"555","stim/objects/Instruments/marimba.png",397,4,390,0.5,"stim/42.jpeg",4,2,1,1,"Instruments",2,4,"right","right",0.625,1,1,1,0,55,4,1,0.5,2,"stim/42.jpeg",4,2,"stim/42.jpeg",4,"left",1.366000175,4,2,1.980999947,2,2.747999907,55,1,1,1,0,0,1
"546","stim/objects/Instruments/harp2.png",398,4,391,0.9,"stim/12.jpeg",1,2,3,1,"Instruments",2,2,"right","right",0.85800004,1,1,1,0,159,4,1,0.9,2,"stim/12.jpeg",1,2,"stim/12.jpeg",2,"right",1.40899992,3,3,0.703999996,2,0.571000099,159,0,0,NA,1,NA,1
"517","stim/objects/Instruments/gong.png",399,4,392,0.9,"stim/12.jpeg",1,2,3,2,"Instruments",2,4,"right","right",0.58100009,1,1,1,0,NA,NA,NA,NA,NA,NA,NA,NA,NA,NA,NA,NA,NA,NA,NA,NA,NA,NA,NA,NA,NA,NA,NA,NA
"393","stim/objects/HouseObjects/lintroller2.png",400,4,393,0.9,"stim/24.jpeg",2,4,3,1,"HouseObjects",1,4,"left","left",0.835999966,1,1,1,0,85,4,1,0.9,1,"stim/24.jpeg",2,4,"stim/24.jpeg",4,"right",0.882999897,4,4,0.715999842,3,1.648000002,85,0,1,NA,0,NA,1
"352","stim/objects/HouseObjects/garbagebin.png",401,4,394,0.9,"stim/24.jpeg",2,4,3,2,"HouseObjects",1,3,"left","left",0.383000135,1,1,1,0,NA,NA,NA,NA,NA,NA,NA,NA,NA,NA,NA,NA,NA,NA,NA,NA,NA,NA,NA,NA,NA,NA,NA,NA
"409","stim/objects/Instruments/acousticguitar.png",402,4,395,0.5,"stim/31.jpeg",3,1,1,2,"Instruments",2,4,"right","",NA,0,0,1,0,NA,NA,NA,NA,NA,NA,NA,NA,NA,NA,NA,NA,NA,NA,NA,NA,NA,NA,NA,NA,NA,NA,NA,NA
"246","stim/objects/HouseObjects/ballofstring2.png",403,4,396,0.3,"stim/53.jpeg",5,3,2,1,"HouseObjects",1,3,"left","right",0.558000088,0,0,1,0,111,4,1,0.3,1,"stim/53.jpeg",5,3,"stim/53.jpeg",3,"right",0.804000139,4,3,0.700000048,4,0.437000036,111,0,1,NA,0,NA,1
"535","stim/objects/Instruments/grandpiano.png",404,4,397,0.9,"stim/14.jpeg",1,4,3,2,"Instruments",2,4,"right","right",0.609999895,1,1,1,0,NA,NA,NA,NA,NA,NA,NA,NA,NA,NA,NA,NA,NA,NA,NA,NA,NA,NA,NA,NA,NA,NA,NA,NA
"396","stim/objects/HouseObjects/pan.png",405,4,398,0.3,"stim/51.jpeg",5,1,2,1,"HouseObjects",1,4,"left","right",0.68200016,0,0,1,0,165,4,1,0.3,1,"stim/51.jpeg",5,1,"stim/51.jpeg",4,"right",0.842000008,4,4,0.515000105,1,0.754999876,165,0,0,NA,0,NA,1
"315","stim/objects/HouseObjects/dustpan.png",406,4,399,0.9,"stim/23.jpeg",2,3,3,2,"HouseObjects",1,4,"left","left",0.536999941,1,1,1,0,NA,NA,NA,NA,NA,NA,NA,NA,NA,NA,NA,NA,NA,NA,NA,NA,NA,NA,NA,NA,NA,NA,NA,NA
"335","stim/objects/HouseObjects/flyswatter.png",407,4,400,0.9,"stim/24.jpeg",2,4,3,2,"HouseObjects",1,4,"left","left",0.404999971,1,1,1,0,NA,NA,NA,NA,NA,NA,NA,NA,NA,NA,NA,NA,NA,NA,NA,NA,NA,NA,NA,NA,NA,NA,NA,NA
"438","stim/objects/Instruments/cymbal.png",408,4,401,0.7,"stim/54.jpeg",5,4,2,2,"Instruments",2,3,"right","right",0.5,1,1,1,0,NA,NA,NA,NA,NA,NA,NA,NA,NA,NA,NA,NA,NA,NA,NA,NA,NA,NA,NA,NA,NA,NA,NA,NA
"500","stim/objects/Instruments/frenchhorn.png",409,4,402,0.9,"stim/12.jpeg",1,2,3,2,"Instruments",2,2,"right","right",0.552999973,1,1,1,0,NA,NA,NA,NA,NA,NA,NA,NA,NA,NA,NA,NA,NA,NA,NA,NA,NA,NA,NA,NA,NA,NA,NA,NA
"301","stim/objects/HouseObjects/doormat.png",410,4,403,0.9,"stim/23.jpeg",2,3,3,2,"HouseObjects",1,1,"left","left",0.555999994,1,1,1,0,NA,NA,NA,NA,NA,NA,NA,NA,NA,NA,NA,NA,NA,NA,NA,NA,NA,NA,NA,NA,NA,NA,NA,NA
"504","stim/objects/Instruments/frenchhorn.png",411,4,404,0.9,"stim/12.jpeg",1,2,3,2,"Instruments",2,2,"right","right",0.603999853,1,1,1,0,NA,NA,NA,NA,NA,NA,NA,NA,NA,NA,NA,NA,NA,NA,NA,NA,NA,NA,NA,NA,NA,NA,NA,NA
"519","stim/objects/Instruments/gong.png",412,4,405,0.9,"stim/12.jpeg",1,2,3,2,"Instruments",2,1,"right","right",0.832000017,1,1,1,0,NA,NA,NA,NA,NA,NA,NA,NA,NA,NA,NA,NA,NA,NA,NA,NA,NA,NA,NA,NA,NA,NA,NA,NA
"247","stim/objects/HouseObjects/barbecuelighter.png",413,4,406,0.5,"stim/33.jpeg",3,3,1,2,"HouseObjects",1,2,"left","right",0.838999987,0,0,1,0,NA,NA,NA,NA,NA,NA,NA,NA,NA,NA,NA,NA,NA,NA,NA,NA,NA,NA,NA,NA,NA,NA,NA,NA
"531","stim/objects/Instruments/grandpiano.png",414,4,407,0.9,"stim/11.jpeg",1,1,3,2,"Instruments",2,3,"right","right",0.541000128,1,1,1,0,NA,NA,NA,NA,NA,NA,NA,NA,NA,NA,NA,NA,NA,NA,NA,NA,NA,NA,NA,NA,NA,NA,NA,NA
"264","stim/objects/HouseObjects/broom2.png",415,4,408,0.7,"stim/62.jpeg",6,2,2,1,"HouseObjects",1,2,"left","left",0.570000172,1,1,1,0,122,4,1,0.7,1,"stim/62.jpeg",6,2,"stim/62.jpeg",2,"right",1.188999891,4,4,1.047999859,3,0.720000029,122,0,0,NA,0,NA,1
"387","stim/objects/HouseObjects/ironingboard2.png",416,4,409,0.9,"stim/21.jpeg",2,1,3,1,"HouseObjects",1,4,"left","left",0.507999897,1,1,1,0,3,4,1,0.9,1,"stim/21.jpeg",2,1,"stim/21.jpeg",4,"right",5.51699996,2,3,3.057999849,3,0.798000097,3,0,0,NA,0,NA,1
"456","stim/objects/Instruments/flute.png",417,4,410,0.9,"stim/14.jpeg",1,4,3,2,"Instruments",2,4,"right","right",0.555000067,1,1,1,0,NA,NA,NA,NA,NA,NA,NA,NA,NA,NA,NA,NA,NA,NA,NA,NA,NA,NA,NA,NA,NA,NA,NA,NA
"454","stim/objects/Instruments/electricguitar.png",418,4,411,0.7,"stim/54.jpeg",5,4,2,2,"Instruments",2,1,"right","right",0.782999992,1,1,1,0,NA,NA,NA,NA,NA,NA,NA,NA,NA,NA,NA,NA,NA,NA,NA,NA,NA,NA,NA,NA,NA,NA,NA,NA
"483","stim/objects/Instruments/flutetrans.png",419,4,412,0.9,"stim/13.jpeg",1,3,3,2,"Instruments",2,3,"right","right",0.809999943,1,1,1,0,NA,NA,NA,NA,NA,NA,NA,NA,NA,NA,NA,NA,NA,NA,NA,NA,NA,NA,NA,NA,NA,NA,NA,NA
"540","stim/objects/Instruments/grandpiano2.png",420,4,413,0.9,"stim/13.jpeg",1,3,3,1,"Instruments",2,1,"right","right",0.50999999,1,1,1,0,58,4,1,0.9,2,"stim/13.jpeg",1,3,"stim/13.jpeg",1,"right",1.061000109,3,1,1.890000105,2,0.549000025,58,0,0,NA,0,NA,1
"513","stim/objects/Instruments/gong.png",421,4,414,0.9,"stim/13.jpeg",1,3,3,2,"Instruments",2,3,"right","right",0.515000105,1,1,1,0,NA,NA,NA,NA,NA,NA,NA,NA,NA,NA,NA,NA,NA,NA,NA,NA,NA,NA,NA,NA,NA,NA,NA,NA
"433","stim/objects/Instruments/cornet.png",422,4,415,0.5,"stim/42.jpeg",4,2,1,2,"Instruments",2,3,"right","right",0.655999899,1,1,1,0,NA,NA,NA,NA,NA,NA,NA,NA,NA,NA,NA,NA,NA,NA,NA,NA,NA,NA,NA,NA,NA,NA,NA,NA
"520","stim/objects/Instruments/gong.png",423,4,416,0.9,"stim/14.jpeg",1,4,3,2,"Instruments",2,3,"right","right",0.532999992,1,1,1,0,NA,NA,NA,NA,NA,NA,NA,NA,NA,NA,NA,NA,NA,NA,NA,NA,NA,NA,NA,NA,NA,NA,NA,NA
"274","stim/objects/HouseObjects/clothesdryingrack2.png",424,4,417,0.7,"stim/61.jpeg",6,1,2,1,"HouseObjects",1,4,"left","left",0.55700016,1,1,1,0,1,4,1,0.7,1,"stim/61.jpeg",6,1,"stim/61.jpeg",4,"right",1.298000097,3,1,4.674999952,2,1.404000044,1,0,1,NA,0,NA,1
"272","stim/objects/HouseObjects/clothesdryingrack.png",425,4,418,0.7,"stim/62.jpeg",6,2,2,2,"HouseObjects",1,4,"left","left",0.551000118,1,1,1,0,NA,NA,NA,NA,NA,NA,NA,NA,NA,NA,NA,NA,NA,NA,NA,NA,NA,NA,NA,NA,NA,NA,NA,NA
"269","stim/objects/HouseObjects/clock.png",426,4,419,0.5,"stim/43.jpeg",4,3,1,2,"HouseObjects",1,1,"left","right",0.535000086,0,0,1,0,NA,NA,NA,NA,NA,NA,NA,NA,NA,NA,NA,NA,NA,NA,NA,NA,NA,NA,NA,NA,NA,NA,NA,NA
"484","stim/objects/Instruments/flutetrans.png",427,4,420,0.9,"stim/11.jpeg",1,1,3,2,"Instruments",2,2,"right","right",0.702000141,1,1,1,0,NA,NA,NA,NA,NA,NA,NA,NA,NA,NA,NA,NA,NA,NA,NA,NA,NA,NA,NA,NA,NA,NA,NA,NA
"254","stim/objects/HouseObjects/bleachbottle.png",428,4,421,0.5,"stim/32.jpeg",3,2,1,2,"HouseObjects",1,3,"left","left",0.700000048,1,1,1,0,NA,NA,NA,NA,NA,NA,NA,NA,NA,NA,NA,NA,NA,NA,NA,NA,NA,NA,NA,NA,NA,NA,NA,NA
"485","stim/objects/Instruments/flutetrans.png",429,4,422,0.9,"stim/11.jpeg",1,1,3,2,"Instruments",2,2,"right","right",0.55099988,1,1,1,0,NA,NA,NA,NA,NA,NA,NA,NA,NA,NA,NA,NA,NA,NA,NA,NA,NA,NA,NA,NA,NA,NA,NA,NA
"476","stim/objects/Instruments/flutetrans.png",430,4,423,0.9,"stim/14.jpeg",1,4,3,2,"Instruments",2,3,"right","right",0.491000175,1,1,1,0,NA,NA,NA,NA,NA,NA,NA,NA,NA,NA,NA,NA,NA,NA,NA,NA,NA,NA,NA,NA,NA,NA,NA,NA
"482","stim/objects/Instruments/flutetrans.png",431,4,424,0.9,"stim/14.jpeg",1,4,3,2,"Instruments",2,1,"right","right",0.445999861,1,1,1,0,NA,NA,NA,NA,NA,NA,NA,NA,NA,NA,NA,NA,NA,NA,NA,NA,NA,NA,NA,NA,NA,NA,NA,NA
"334","stim/objects/HouseObjects/flyswatter.png",432,4,425,0.9,"stim/23.jpeg",2,3,3,2,"HouseObjects",1,4,"left","left",0.457000017,1,1,1,0,NA,NA,NA,NA,NA,NA,NA,NA,NA,NA,NA,NA,NA,NA,NA,NA,NA,NA,NA,NA,NA,NA,NA,NA
"284","stim/objects/HouseObjects/cushion.png",433,4,426,0.7,"stim/61.jpeg",6,1,2,2,"HouseObjects",1,4,"left","",NA,0,0,1,0,NA,NA,NA,NA,NA,NA,NA,NA,NA,NA,NA,NA,NA,NA,NA,NA,NA,NA,NA,NA,NA,NA,NA,NA
"564","stim/objects/Instruments/oboe2.png",434,4,427,0.1,"stim/21.jpeg",2,1,3,1,"Instruments",2,4,"right","left",0.491000175,0,0,1,0,150,4,1,0.1,2,"stim/21.jpeg",2,1,"stim/21.jpeg",4,"right",2.215999842,3,4,0.947999954,3,0.490999937,150,0,0,NA,0,NA,1
"477","stim/objects/Instruments/flutetrans.png",435,4,428,0.9,"stim/11.jpeg",1,1,3,2,"Instruments",2,3,"right","right",0.439999819,1,1,1,0,NA,NA,NA,NA,NA,NA,NA,NA,NA,NA,NA,NA,NA,NA,NA,NA,NA,NA,NA,NA,NA,NA,NA,NA
"401","stim/objects/HouseObjects/recyclingbin2.png",436,4,429,0.9,"stim/24.jpeg",2,4,3,1,"HouseObjects",1,1,"left","left",0.56099987,1,1,1,0,161,4,1,0.9,1,"stim/24.jpeg",2,4,"stim/24.jpeg",1,"left",1.173000097,4,3,1.821000099,3,0.414999962,161,1,0,0,0,0,1
"282","stim/objects/HouseObjects/coffee2.png",437,4,430,0.7,"stim/63.jpeg",6,3,2,1,"HouseObjects",1,1,"left","left",0.549999952,1,1,1,0,154,4,1,0.7,1,"stim/63.jpeg",6,3,"stim/63.jpeg",1,"right",0.825000048,2,1,1.184999943,3,0.464999914,154,0,0,NA,0,NA,1
"534","stim/objects/Instruments/grandpiano.png",438,4,431,0.9,"stim/11.jpeg",1,1,3,2,"Instruments",2,3,"right","left",0.822000027,0,0,1,0,NA,NA,NA,NA,NA,NA,NA,NA,NA,NA,NA,NA,NA,NA,NA,NA,NA,NA,NA,NA,NA,NA,NA,NA
"558","stim/objects/Instruments/metronome2.png",439,4,432,0.1,"stim/22.jpeg",2,2,3,1,"Instruments",2,3,"right","left",0.539000034,0,0,1,0,31,4,1,0.1,2,"stim/22.jpeg",2,2,"stim/22.jpeg",3,"right",2.357000113,1,1,4.972999811,3,0.714999914,31,0,0,NA,1,NA,1
"455","stim/objects/Instruments/electricguitar2.png",440,4,433,0.3,"stim/63.jpeg",6,3,2,1,"Instruments",2,1,"right","left",0.730000019,0,0,1,0,172,4,1,0.3,2,"stim/63.jpeg",6,3,"stim/63.jpeg",1,"right",1.22300005,4,4,0.797999859,4,0.532000065,172,0,0,NA,0,NA,1
"543","stim/objects/Instruments/harmonica.png",441,4,434,0.5,"stim/33.jpeg",3,3,1,1,"Instruments",2,3,"right","right",0.467000008,1,1,1,0,54,4,1,0.5,1,"stim/33.jpeg",3,3,"stim/33.jpeg",3,"left",1.750999928,3,4,2.190000057,3,1.015000105,54,1,0,0,1,1,1
"353","stim/objects/HouseObjects/garbagebin.png",442,4,435,0.9,"stim/23.jpeg",2,3,3,2,"HouseObjects",1,3,"left","left",0.532000065,1,1,1,0,NA,NA,NA,NA,NA,NA,NA,NA,NA,NA,NA,NA,NA,NA,NA,NA,NA,NA,NA,NA,NA,NA,NA,NA
"268","stim/objects/HouseObjects/clock.png",443,4,436,0.5,"stim/44.jpeg",4,4,1,2,"HouseObjects",1,1,"left","right",0.56400013,0,0,1,0,NA,NA,NA,NA,NA,NA,NA,NA,NA,NA,NA,NA,NA,NA,NA,NA,NA,NA,NA,NA,NA,NA,NA,NA
"376","stim/objects/HouseObjects/glassmop.png",444,4,437,0.5,"stim/33.jpeg",3,3,1,1,"HouseObjects",1,1,"left","right",0.705999851,0,0,1,0,136,4,1,0.5,1,"stim/33.jpeg",3,3,"stim/33.jpeg",1,"right",0.724999905,4,1,0.700999975,3,0.247999907,136,0,0,NA,0,NA,1
"324","stim/objects/HouseObjects/dustpan2.png",445,4,438,0.1,"stim/12.jpeg",1,2,3,1,"HouseObjects",1,2,"left","left",0.450000048,1,1,1,0,28,4,1,0.1,1,"stim/12.jpeg",1,2,"stim/12.jpeg",2,"right",1.377000093,2,4,1.34800005,1,0.693000078,28,0,0,NA,0,NA,1
"460","stim/objects/Instruments/flute.png",446,4,439,0.9,"stim/14.jpeg",1,4,3,2,"Instruments",2,4,"right","right",0.519000053,1,1,1,0,NA,NA,NA,NA,NA,NA,NA,NA,NA,NA,NA,NA,NA,NA,NA,NA,NA,NA,NA,NA,NA,NA,NA,NA
"355","stim/objects/HouseObjects/garbagebin.png",447,4,440,0.9,"stim/23.jpeg",2,3,3,2,"HouseObjects",1,3,"left","left",0.56099987,1,1,1,0,NA,NA,NA,NA,NA,NA,NA,NA,NA,NA,NA,NA,NA,NA,NA,NA,NA,NA,NA,NA,NA,NA,NA,NA
"356","stim/objects/HouseObjects/garbagebin.png",448,4,441,0.9,"stim/21.jpeg",2,1,3,2,"HouseObjects",1,1,"left","left",0.589999914,1,1,1,0,NA,NA,NA,NA,NA,NA,NA,NA,NA,NA,NA,NA,NA,NA,NA,NA,NA,NA,NA,NA,NA,NA,NA,NA
"496","stim/objects/Instruments/frenchhorn.png",449,4,442,0.9,"stim/11.jpeg",1,1,3,2,"Instruments",2,2,"right","right",0.60800004,1,1,1,0,NA,NA,NA,NA,NA,NA,NA,NA,NA,NA,NA,NA,NA,NA,NA,NA,NA,NA,NA,NA,NA,NA,NA,NA
"518","stim/objects/Instruments/gong.png",450,4,443,0.9,"stim/11.jpeg",1,1,3,2,"Instruments",2,4,"right","right",0.428999901,1,1,1,0,NA,NA,NA,NA,NA,NA,NA,NA,NA,NA,NA,NA,NA,NA,NA,NA,NA,NA,NA,NA,NA,NA,NA,NA
"329","stim/objects/HouseObjects/flyswatter.png",451,4,444,0.9,"stim/21.jpeg",2,1,3,2,"HouseObjects",1,1,"left","left",0.555999994,1,1,1,0,NA,NA,NA,NA,NA,NA,NA,NA,NA,NA,NA,NA,NA,NA,NA,NA,NA,NA,NA,NA,NA,NA,NA,NA
"382","stim/objects/HouseObjects/handvacuum.png",452,4,445,0.5,"stim/32.jpeg",3,2,1,1,"HouseObjects",1,2,"left","right",0.690999985,0,0,1,0,200,4,1,0.5,1,"stim/32.jpeg",3,2,"stim/32.jpeg",2,"right",0.601999998,3,2,0.834000111,3,0.808000088,200,0,1,NA,0,NA,1
"316","stim/objects/HouseObjects/dustpan.png",453,4,446,0.9,"stim/24.jpeg",2,4,3,2,"HouseObjects",1,1,"left","left",0.53399992,1,1,1,0,NA,NA,NA,NA,NA,NA,NA,NA,NA,NA,NA,NA,NA,NA,NA,NA,NA,NA,NA,NA,NA,NA,NA,NA
"303","stim/objects/HouseObjects/doormat.png",454,4,447,0.9,"stim/21.jpeg",2,1,3,2,"HouseObjects",1,2,"left","left",0.571999788,1,1,1,0,NA,NA,NA,NA,NA,NA,NA,NA,NA,NA,NA,NA,NA,NA,NA,NA,NA,NA,NA,NA,NA,NA,NA,NA
"281","stim/objects/HouseObjects/coffee.png",455,4,448,0.7,"stim/61.jpeg",6,1,2,2,"HouseObjects",1,1,"left","",NA,0,0,1,0,NA,NA,NA,NA,NA,NA,NA,NA,NA,NA,NA,NA,NA,NA,NA,NA,NA,NA,NA,NA,NA,NA,NA,NA
"446","stim/objects/Instruments/drums.png",456,4,449,0.7,"stim/53.jpeg",5,3,2,2,"Instruments",2,2,"right","right",0.532999992,1,1,1,0,NA,NA,NA,NA,NA,NA,NA,NA,NA,NA,NA,NA,NA,NA,NA,NA,NA,NA,NA,NA,NA,NA,NA,NA
"255","stim/objects/HouseObjects/bleachbottle2.png",457,4,450,0.3,"stim/52.jpeg",5,2,2,1,"HouseObjects",1,4,"left","right",0.493000031,0,0,1,0,14,4,1,0.3,1,"stim/52.jpeg",5,2,"stim/52.jpeg",4,"right",2.889999866,2,1,4.030999899,3,0.701999903,14,0,0,NA,0,NA,1
"365","stim/objects/HouseObjects/glass.png",458,4,451,0.9,"stim/23.jpeg",2,3,3,2,"HouseObjects",1,3,"left","left",0.506999969,1,1,1,0,NA,NA,NA,NA,NA,NA,NA,NA,NA,NA,NA,NA,NA,NA,NA,NA,NA,NA,NA,NA,NA,NA,NA,NA
"262","stim/objects/HouseObjects/broom.png",459,4,452,0.5,"stim/41.jpeg",4,1,1,2,"HouseObjects",1,4,"left","right",0.649000168,0,0,1,0,NA,NA,NA,NA,NA,NA,NA,NA,NA,NA,NA,NA,NA,NA,NA,NA,NA,NA,NA,NA,NA,NA,NA,NA
"451","stim/objects/Instruments/electricdrumset2.png",460,4,453,0.3,"stim/62.jpeg",6,2,2,1,"Instruments",2,4,"right","left",0.555999994,0,0,1,0,52,4,1,0.3,2,"stim/62.jpeg",6,2,"stim/62.jpeg",4,"right",1.359999895,2,1,1.480999947,2,0.68900013,52,0,0,NA,0,NA,1
"462","stim/objects/Instruments/flute.png",461,4,454,0.9,"stim/12.jpeg",1,2,3,2,"Instruments",2,4,"right","right",0.55099988,1,1,1,0,NA,NA,NA,NA,NA,NA,NA,NA,NA,NA,NA,NA,NA,NA,NA,NA,NA,NA,NA,NA,NA,NA,NA,NA
"330","stim/objects/HouseObjects/flyswatter.png",462,4,455,0.9,"stim/23.jpeg",2,3,3,2,"HouseObjects",1,3,"left","left",0.873999834,1,1,1,0,NA,NA,NA,NA,NA,NA,NA,NA,NA,NA,NA,NA,NA,NA,NA,NA,NA,NA,NA,NA,NA,NA,NA,NA
"399","stim/objects/HouseObjects/pitcher2.png",463,4,456,0.9,"stim/23.jpeg",2,3,3,1,"HouseObjects",1,2,"left","left",0.893000126,1,1,1,0,145,4,1,0.9,1,"stim/23.jpeg",2,3,"stim/23.jpeg",2,"left",1.049999952,3,3,0.74000001,4,0.531999826,145,1,1,1,0,0,1
"322","stim/objects/HouseObjects/dustpan.png",464,4,457,0.9,"stim/22.jpeg",2,2,3,2,"HouseObjects",1,1,"left","left",0.433000088,1,1,1,0,NA,NA,NA,NA,NA,NA,NA,NA,NA,NA,NA,NA,NA,NA,NA,NA,NA,NA,NA,NA,NA,NA,NA,NA
"428","stim/objects/Instruments/chime.png",465,4,458,0.5,"stim/41.jpeg",4,1,1,2,"Instruments",2,2,"right","right",0.531000137,1,1,1,0,NA,NA,NA,NA,NA,NA,NA,NA,NA,NA,NA,NA,NA,NA,NA,NA,NA,NA,NA,NA,NA,NA,NA,NA
"405","stim/objects/HouseObjects/rubbergloves2.png",466,4,459,0.9,"stim/22.jpeg",2,2,3,1,"HouseObjects",1,4,"left","left",0.484000206,1,1,1,0,101,4,1,0.9,1,"stim/22.jpeg",2,2,"stim/22.jpeg",4,"right",0.904999971,4,4,0.997999907,4,1.019999981,101,0,0,NA,1,NA,1
"417","stim/objects/Instruments/banjo2.png",467,4,460,0.7,"stim/52.jpeg",5,2,2,1,"Instruments",2,1,"right","right",0.556999922,1,1,1,0,180,4,1,0.7,2,"stim/52.jpeg",5,2,"stim/52.jpeg",1,"right",0.766000032,2,1,0.648000002,3,0.731000185,180,0,0,NA,0,NA,1
"442","stim/objects/Instruments/doublebass.png",468,4,461,0.7,"stim/54.jpeg",5,4,2,2,"Instruments",2,2,"right","right",0.542999983,1,1,1,0,NA,NA,NA,NA,NA,NA,NA,NA,NA,NA,NA,NA,NA,NA,NA,NA,NA,NA,NA,NA,NA,NA,NA,NA
"481","stim/objects/Instruments/flutetrans.png",469,4,462,0.9,"stim/13.jpeg",1,3,3,2,"Instruments",2,2,"right","right",0.537999868,1,1,1,0,NA,NA,NA,NA,NA,NA,NA,NA,NA,NA,NA,NA,NA,NA,NA,NA,NA,NA,NA,NA,NA,NA,NA,NA
"318","stim/objects/HouseObjects/dustpan.png",470,4,463,0.9,"stim/21.jpeg",2,1,3,2,"HouseObjects",1,2,"left","left",0.667000055,1,1,1,0,NA,NA,NA,NA,NA,NA,NA,NA,NA,NA,NA,NA,NA,NA,NA,NA,NA,NA,NA,NA,NA,NA,NA,NA
