"","participant","trial_index","trial_cond","scn_file","scn_cat","scn_inst","scn_condition","fillers","obj_cat","obj_cat_num","obj_file","quadrant","corr_ans","key_resp_trial.keys","key_resp_trial.rt","trial_acc","trial_acc_manual","group"
"1",4,1,0.3,"stim/62.jpeg",6,2,2,NA,"Instruments",2,"stim/objects/Instruments/saxophone2.png",4,"right","",NA,0,0,1
"2",4,2,0.9,"stim/23.jpeg",2,3,3,NA,"HouseObjects",1,"stim/objects/HouseObjects/vacuumcleaner2.png",4,"left","left",0.732999802,1,1,1
"3",4,3,0.7,"stim/54.jpeg",5,4,2,NA,"Instruments",2,"stim/objects/Instruments/xylophone.png",2,"right","right",0.893000126,1,1,1
"4",4,4,0.5,"stim/43.jpeg",4,3,1,NA,"HouseObjects",1,"stim/objects/HouseObjects/teapot.png",2,"left","left",0.726999998,1,1,1
"5",4,5,0.7,"stim/53.jpeg",5,3,2,NA,"Instruments",2,"stim/objects/Instruments/vuvuzela.png",4,"right","right",0.751000166,1,1,1
"6",4,6,0.1,"stim/11.jpeg",1,1,3,NA,"HouseObjects",1,"stim/objects/HouseObjects/sponge2.png",2,"left","right",0.811000109,0,0,1
"7",4,7,0.5,"stim/33.jpeg",3,3,1,NA,"HouseObjects",1,"stim/objects/HouseObjects/saw.png",1,"left","left",0.589999914,1,1,1
"8",4,8,0.5,"stim/31.jpeg",3,1,1,NA,"HouseObjects",1,"stim/objects/HouseObjects/rug.png",2,"left","left",0.55099988,1,1,1
"9",4,9,0.9,"stim/12.jpeg",1,2,3,NA,"Instruments",2,"stim/objects/Instruments/triangle2.png",1,"right","right",0.684000015,1,1,1
"10",4,10,0.5,"stim/43.jpeg",4,3,1,NA,"HouseObjects",1,"stim/objects/HouseObjects/teapot.png",4,"left","left",0.695999861,1,1,1
"11",4,11,0.5,"stim/33.jpeg",3,3,1,NA,"Instruments",2,"stim/objects/Instruments/speaker.png",1,"right","left",0.608999968,0,0,1
"12",4,12,0.7,"stim/54.jpeg",5,4,2,NA,"Instruments",2,"stim/objects/Instruments/xylophone.png",1,"right","right",0.61500001,1,1,1
"13",4,13,0.5,"stim/42.jpeg",4,2,1,NA,"Instruments",2,"stim/objects/Instruments/triangle.png",1,"right","right",0.717000008,1,1,1
"14",4,14,0.9,"stim/14.jpeg",1,4,3,NA,"Instruments",2,"stim/objects/Instruments/trumpet2.png",3,"right","right",0.610000134,1,1,1
"15",4,15,0.5,"stim/32.jpeg",3,2,1,NA,"Instruments",2,"stim/objects/Instruments/saxophone.png",1,"right","left",0.502000093,0,0,1
"16",4,16,0.3,"stim/54.jpeg",5,4,2,NA,"HouseObjects",1,"stim/objects/HouseObjects/wateringcan.png",2,"left","right",0.561999798,0,0,1
"17",4,17,0.5,"stim/42.jpeg",4,2,1,NA,"HouseObjects",1,"stim/objects/HouseObjects/spraybottle.png",4,"left","right",0.608999968,0,0,1
"18",4,18,0.7,"stim/61.jpeg",6,1,2,NA,"HouseObjects",1,"stim/objects/HouseObjects/rug2.png",2,"left","left",0.415999889,1,1,1
"19",4,19,0.5,"stim/43.jpeg",4,3,1,NA,"HouseObjects",1,"stim/objects/HouseObjects/teapot.png",4,"left","left",0.825999975,1,1,1
"20",4,20,0.9,"stim/24.jpeg",2,4,3,NA,"HouseObjects",1,"stim/objects/HouseObjects/wateringcan2.png",2,"left","left",0.566999912,1,1,1
"21",4,21,0.7,"stim/52.jpeg",5,2,2,NA,"Instruments",2,"stim/objects/Instruments/violin.png",2,"right","right",0.724999905,1,1,1
"22",4,22,0.9,"stim/12.jpeg",1,2,3,NA,"Instruments",2,"stim/objects/Instruments/triangle2.png",1,"right","right",0.63499999,1,1,1
"23",4,23,0.7,"stim/63.jpeg",6,3,2,NA,"HouseObjects",1,"stim/objects/HouseObjects/saw2.png",3,"left","left",0.765000105,1,1,1
"24",4,24,0.5,"stim/32.jpeg",3,2,1,NA,"HouseObjects",1,"stim/objects/HouseObjects/safetypin.png",3,"left","right",0.72300005,0,0,1
"25",4,25,0.7,"stim/54.jpeg",5,4,2,NA,"Instruments",2,"stim/objects/Instruments/xylophone.png",4,"right","right",0.597000122,1,1,1
"26",4,26,0.9,"stim/11.jpeg",1,1,3,NA,"Instruments",2,"stim/objects/Instruments/timbal2.png",4,"right","right",0.650000095,1,1,1
"27",4,27,0.5,"stim/31.jpeg",3,1,1,NA,"HouseObjects",1,"stim/objects/HouseObjects/rug.png",2,"left","right",0.809000015,0,0,1
"28",4,28,0.5,"stim/42.jpeg",4,2,1,NA,"Instruments",2,"stim/objects/Instruments/triangle.png",2,"right","right",0.770999908,1,1,1
"29",4,29,0.7,"stim/62.jpeg",6,2,2,NA,"HouseObjects",1,"stim/objects/HouseObjects/safetypin2.png",4,"left","left",0.542999983,1,1,1
"30",4,30,0.5,"stim/34.jpeg",3,4,1,NA,"Instruments",2,"stim/objects/Instruments/tambourine.png",1,"right","right",0.804000139,1,1,1
"31",4,31,0.3,"stim/54.jpeg",5,4,2,NA,"HouseObjects",1,"stim/objects/HouseObjects/wateringcan.png",2,"left","right",0.636999846,0,0,1
"32",4,32,0.5,"stim/43.jpeg",4,3,1,NA,"Instruments",2,"stim/objects/Instruments/trombone.png",4,"right","right",0.679000139,1,1,1
"33",4,33,0.7,"stim/51.jpeg",5,1,2,NA,"Instruments",2,"stim/objects/Instruments/tuba.png",3,"right","right",0.599999905,1,1,1
"34",4,34,0.5,"stim/42.jpeg",4,2,1,NA,"HouseObjects",1,"stim/objects/HouseObjects/spraybottle.png",2,"left","left",0.766000032,1,1,1
"35",4,35,0.5,"stim/33.jpeg",3,3,1,NA,"HouseObjects",1,"stim/objects/HouseObjects/saw.png",3,"left","left",0.607000113,1,1,1
"36",4,36,0.9,"stim/21.jpeg",2,1,3,NA,"HouseObjects",1,"stim/objects/HouseObjects/thread2.png",1,"left","left",0.555999994,1,1,1
"37",4,37,0.3,"stim/62.jpeg",6,2,2,NA,"Instruments",2,"stim/objects/Instruments/saxophone2.png",4,"right","left",0.532000065,0,0,1
"38",4,38,0.5,"stim/42.jpeg",4,2,1,NA,"Instruments",2,"stim/objects/Instruments/triangle.png",1,"right","right",0.677000046,1,1,1
"39",4,39,0.5,"stim/41.jpeg",4,1,1,NA,"Instruments",2,"stim/objects/Instruments/timbal.png",4,"right","left",0.766000032,0,0,1
"40",4,40,0.7,"stim/52.jpeg",5,2,2,NA,"Instruments",2,"stim/objects/Instruments/violin.png",2,"right","right",0.57400012,1,1,1
"41",4,41,0.9,"stim/22.jpeg",2,2,3,NA,"HouseObjects",1,"stim/objects/HouseObjects/towel2.png",4,"left","left",0.550000191,1,1,1
"42",4,42,0.9,"stim/11.jpeg",1,1,3,NA,"Instruments",2,"stim/objects/Instruments/timbal2.png",2,"right","right",0.644000053,1,1,1
"43",4,43,0.3,"stim/63.jpeg",6,3,2,NA,"Instruments",2,"stim/objects/Instruments/speaker2.png",1,"right","left",0.569000006,0,0,1
"44",4,44,0.9,"stim/21.jpeg",2,1,3,NA,"HouseObjects",1,"stim/objects/HouseObjects/thread2.png",4,"left","left",0.552999973,1,1,1
"45",4,45,0.9,"stim/12.jpeg",1,2,3,NA,"Instruments",2,"stim/objects/Instruments/triangle2.png",3,"right","right",0.625,1,1,1
"46",4,46,0.5,"stim/41.jpeg",4,1,1,NA,"Instruments",2,"stim/objects/Instruments/timbal.png",2,"right","left",0.721999884,0,0,1
"47",4,47,0.7,"stim/53.jpeg",5,3,2,NA,"Instruments",2,"stim/objects/Instruments/vuvuzela.png",1,"right","right",0.56400013,1,1,1
"48",4,48,0.9,"stim/12.jpeg",1,2,3,NA,"Instruments",2,"stim/objects/Instruments/triangle2.png",1,"right","right",0.624000072,1,1,1
"49",4,49,0.5,"stim/31.jpeg",3,1,1,NA,"Instruments",2,"stim/objects/Instruments/record_player.png",1,"right","left",0.625999928,0,0,1
"50",4,50,0.3,"stim/53.jpeg",5,3,2,NA,"HouseObjects",1,"stim/objects/HouseObjects/vacuumcleaner.png",3,"left","right",0.679999828,0,0,1
"51",4,51,0.7,"stim/52.jpeg",5,2,2,NA,"Instruments",2,"stim/objects/Instruments/violin.png",3,"right","right",0.766000032,1,1,1
"52",4,52,0.5,"stim/44.jpeg",4,4,1,NA,"HouseObjects",1,"stim/objects/HouseObjects/thermometer.png",1,"left","left",0.882999897,1,1,1
"53",4,53,0.7,"stim/51.jpeg",5,1,2,NA,"Instruments",2,"stim/objects/Instruments/tuba.png",2,"right","right",0.673000097,1,1,1
"54",4,54,0.9,"stim/22.jpeg",2,2,3,NA,"HouseObjects",1,"stim/objects/HouseObjects/towel2.png",1,"left","left",0.511999846,1,1,1
"55",4,55,0.9,"stim/11.jpeg",1,1,3,NA,"Instruments",2,"stim/objects/Instruments/timbal2.png",4,"right","right",0.567000151,1,1,1
"56",4,56,0.7,"stim/61.jpeg",6,1,2,NA,"HouseObjects",1,"stim/objects/HouseObjects/rug2.png",1,"left","left",0.588999987,1,1,1
"57",4,57,0.7,"stim/62.jpeg",6,2,2,NA,"HouseObjects",1,"stim/objects/HouseObjects/safetypin2.png",2,"left","left",0.601999998,1,1,1
"58",4,58,0.5,"stim/32.jpeg",3,2,1,NA,"Instruments",2,"stim/objects/Instruments/saxophone.png",4,"right","right",0.825999975,1,1,1
"59",4,59,0.5,"stim/31.jpeg",3,1,1,NA,"HouseObjects",1,"stim/objects/HouseObjects/rug.png",1,"left","right",0.556999922,0,0,1
"60",4,60,0.7,"stim/54.jpeg",5,4,2,NA,"Instruments",2,"stim/objects/Instruments/xylophone.png",3,"right","right",0.565999985,1,1,1
"61",4,61,0.9,"stim/11.jpeg",1,1,3,NA,"Instruments",2,"stim/objects/Instruments/timbal2.png",2,"right","right",0.923999786,1,1,1
"62",4,62,0.1,"stim/14.jpeg",1,4,3,NA,"HouseObjects",1,"stim/objects/HouseObjects/thermometer2.png",3,"left","right",0.575000048,0,0,1
"63",4,63,0.9,"stim/12.jpeg",1,2,3,NA,"Instruments",2,"stim/objects/Instruments/triangle2.png",3,"right","right",0.537999868,1,1,1
"64",4,64,0.3,"stim/53.jpeg",5,3,2,NA,"HouseObjects",1,"stim/objects/HouseObjects/vacuumcleaner.png",4,"left","right",0.624000072,0,0,1
"65",4,65,0.7,"stim/52.jpeg",5,2,2,NA,"Instruments",2,"stim/objects/Instruments/violin.png",4,"right","right",0.605000019,1,1,1
"66",4,66,0.5,"stim/34.jpeg",3,4,1,NA,"HouseObjects",1,"stim/objects/HouseObjects/scale.png",2,"left","left",0.618000031,1,1,1
"67",4,67,0.5,"stim/31.jpeg",3,1,1,NA,"Instruments",2,"stim/objects/Instruments/record_player.png",2,"right","left",0.427000046,0,0,1
"68",4,68,0.3,"stim/62.jpeg",6,2,2,NA,"Instruments",2,"stim/objects/Instruments/saxophone2.png",3,"right","left",0.59800005,0,0,1
"69",4,69,0.9,"stim/22.jpeg",2,2,3,NA,"HouseObjects",1,"stim/objects/HouseObjects/towel2.png",2,"left","left",0.540999889,1,1,1
"70",4,70,0.9,"stim/23.jpeg",2,3,3,NA,"HouseObjects",1,"stim/objects/HouseObjects/vacuumcleaner2.png",2,"left","left",0.43900013,1,1,1
"71",4,71,0.9,"stim/14.jpeg",1,4,3,NA,"Instruments",2,"stim/objects/Instruments/trumpet2.png",2,"right","right",0.779000044,1,1,1
"72",4,72,0.5,"stim/43.jpeg",4,3,1,NA,"HouseObjects",1,"stim/objects/HouseObjects/teapot.png",4,"left","",NA,0,0,1
"73",4,73,0.7,"stim/53.jpeg",5,3,2,NA,"Instruments",2,"stim/objects/Instruments/vuvuzela.png",2,"right","right",0.697999954,1,1,1
"74",4,74,0.7,"stim/64.jpeg",6,4,2,NA,"HouseObjects",1,"stim/objects/HouseObjects/scale2.png",4,"left","left",0.536000013,1,1,1
"75",4,75,0.9,"stim/14.jpeg",1,4,3,NA,"Instruments",2,"stim/objects/Instruments/trumpet2.png",1,"right","right",0.608999968,1,1,1
"76",4,76,0.5,"stim/32.jpeg",3,2,1,NA,"HouseObjects",1,"stim/objects/HouseObjects/safetypin.png",4,"left","right",0.707000017,0,0,1
"77",4,77,0.7,"stim/64.jpeg",6,4,2,NA,"HouseObjects",1,"stim/objects/HouseObjects/scale2.png",4,"left","left",0.518999815,1,1,1
"78",4,78,0.9,"stim/21.jpeg",2,1,3,NA,"HouseObjects",1,"stim/objects/HouseObjects/thread2.png",4,"left","left",0.510999918,1,1,1
"79",4,79,0.9,"stim/21.jpeg",2,1,3,NA,"HouseObjects",1,"stim/objects/HouseObjects/thread2.png",2,"left","left",0.499000072,1,1,1
"80",4,80,0.5,"stim/31.jpeg",3,1,1,NA,"Instruments",2,"stim/objects/Instruments/record_player.png",4,"right","right",0.692000151,1,1,1
"81",4,81,0.9,"stim/23.jpeg",2,3,3,NA,"HouseObjects",1,"stim/objects/HouseObjects/vacuumcleaner2.png",4,"left","left",0.59800005,1,1,1
"82",4,82,0.9,"stim/13.jpeg",1,3,3,NA,"Instruments",2,"stim/objects/Instruments/trombone2.png",4,"right","right",0.552000046,1,1,1
"83",4,83,0.5,"stim/32.jpeg",3,2,1,NA,"Instruments",2,"stim/objects/Instruments/saxophone.png",3,"right","right",0.734999895,1,1,1
"84",4,84,0.3,"stim/63.jpeg",6,3,2,NA,"Instruments",2,"stim/objects/Instruments/speaker2.png",4,"right","left",0.590000153,0,0,1
"85",4,85,0.5,"stim/32.jpeg",3,2,1,NA,"HouseObjects",1,"stim/objects/HouseObjects/safetypin.png",4,"left","right",0.664000034,0,0,1
"86",4,86,0.9,"stim/12.jpeg",1,2,3,NA,"Instruments",2,"stim/objects/Instruments/triangle2.png",3,"right","right",0.638000011,1,1,1
"87",4,87,0.5,"stim/44.jpeg",4,4,1,NA,"Instruments",2,"stim/objects/Instruments/trumpet.png",1,"right","left",0.692000151,0,0,1
"88",4,88,0.1,"stim/13.jpeg",1,3,3,NA,"HouseObjects",1,"stim/objects/HouseObjects/teapot2.png",1,"left","right",0.599999905,0,0,1
"89",4,89,0.9,"stim/22.jpeg",2,2,3,NA,"HouseObjects",1,"stim/objects/HouseObjects/towel2.png",4,"left","left",0.542000055,1,1,1
"90",4,90,0.9,"stim/21.jpeg",2,1,3,NA,"HouseObjects",1,"stim/objects/HouseObjects/thread2.png",2,"left","left",0.558000088,1,1,1
"91",4,91,0.7,"stim/52.jpeg",5,2,2,NA,"Instruments",2,"stim/objects/Instruments/violin.png",3,"right","right",0.68900013,1,1,1
"92",4,92,0.9,"stim/24.jpeg",2,4,3,NA,"HouseObjects",1,"stim/objects/HouseObjects/wateringcan2.png",4,"left","left",0.539999962,1,1,1
"93",4,93,0.5,"stim/34.jpeg",3,4,1,NA,"Instruments",2,"stim/objects/Instruments/tambourine.png",4,"right","right",0.84800005,1,1,1
"94",4,94,0.5,"stim/32.jpeg",3,2,1,NA,"Instruments",2,"stim/objects/Instruments/saxophone.png",1,"right","right",0.589999914,1,1,1
"95",4,95,0.9,"stim/12.jpeg",1,2,3,NA,"Instruments",2,"stim/objects/Instruments/triangle2.png",4,"right","right",0.493000031,1,1,1
"96",4,96,0.5,"stim/31.jpeg",3,1,1,NA,"HouseObjects",1,"stim/objects/HouseObjects/rug.png",3,"left","",NA,0,0,1
"97",4,97,0.5,"stim/31.jpeg",3,1,1,NA,"HouseObjects",1,"stim/objects/HouseObjects/rug.png",3,"left","right",0.601999998,0,0,1
"98",4,98,0.7,"stim/54.jpeg",5,4,2,NA,"Instruments",2,"stim/objects/Instruments/xylophone.png",1,"right","right",0.631000042,1,1,1
"99",4,99,0.5,"stim/33.jpeg",3,3,1,NA,"HouseObjects",1,"stim/objects/HouseObjects/saw.png",1,"left","right",0.723999977,0,0,1
"100",4,100,0.7,"stim/63.jpeg",6,3,2,NA,"HouseObjects",1,"stim/objects/HouseObjects/saw2.png",2,"left","left",0.499000072,1,1,1
"101",4,101,0.7,"stim/53.jpeg",5,3,2,NA,"Instruments",2,"stim/objects/Instruments/vuvuzela.png",2,"right","right",0.595000029,1,1,1
"102",4,102,0.7,"stim/63.jpeg",6,3,2,NA,"HouseObjects",1,"stim/objects/HouseObjects/saw2.png",3,"left","left",0.544999838,1,1,1
"103",4,103,0.5,"stim/34.jpeg",3,4,1,NA,"HouseObjects",1,"stim/objects/HouseObjects/scale.png",4,"left","right",0.687000036,0,0,1
"104",4,104,0.7,"stim/62.jpeg",6,2,2,NA,"HouseObjects",1,"stim/objects/HouseObjects/safetypin2.png",1,"left","left",0.598999977,1,1,1
"105",4,105,0.7,"stim/61.jpeg",6,1,2,NA,"HouseObjects",1,"stim/objects/HouseObjects/rug2.png",3,"left","left",0.568000078,1,1,1
"106",4,106,0.7,"stim/61.jpeg",6,1,2,NA,"HouseObjects",1,"stim/objects/HouseObjects/rug2.png",3,"left","left",0.532999992,1,1,1
"107",4,107,0.9,"stim/12.jpeg",1,2,3,NA,"Instruments",2,"stim/objects/Instruments/triangle2.png",2,"right","right",0.537999868,1,1,1
"108",4,108,0.7,"stim/61.jpeg",6,1,2,NA,"HouseObjects",1,"stim/objects/HouseObjects/rug2.png",1,"left","left",0.532000065,1,1,1
"109",4,109,0.5,"stim/44.jpeg",4,4,1,NA,"Instruments",2,"stim/objects/Instruments/trumpet.png",4,"right","right",0.484999895,1,1,1
"110",4,110,0.9,"stim/23.jpeg",2,3,3,NA,"HouseObjects",1,"stim/objects/HouseObjects/vacuumcleaner2.png",3,"left","left",0.55099988,1,1,1
"111",4,111,0.5,"stim/44.jpeg",4,4,1,NA,"Instruments",2,"stim/objects/Instruments/trumpet.png",3,"right","right",0.59800005,1,1,1
"112",4,112,0.9,"stim/11.jpeg",1,1,3,NA,"Instruments",2,"stim/objects/Instruments/timbal2.png",1,"right","right",0.642000198,1,1,1
"113",4,113,0.7,"stim/63.jpeg",6,3,2,NA,"HouseObjects",1,"stim/objects/HouseObjects/saw2.png",4,"left","left",0.558999777,1,1,1
"114",4,114,0.5,"stim/42.jpeg",4,2,1,NA,"Instruments",2,"stim/objects/Instruments/triangle.png",3,"right","right",0.576999903,1,1,1
"115",4,115,0.5,"stim/41.jpeg",4,1,1,NA,"HouseObjects",1,"stim/objects/HouseObjects/sponge.png",3,"left","right",0.632999897,0,0,1
"116",4,116,0.9,"stim/24.jpeg",2,4,3,NA,"HouseObjects",1,"stim/objects/HouseObjects/wateringcan2.png",1,"left","left",0.575999975,1,1,1
"117",4,117,0.5,"stim/33.jpeg",3,3,1,NA,"Instruments",2,"stim/objects/Instruments/speaker.png",3,"right","left",0.674000025,0,0,1
"118",4,118,0.7,"stim/62.jpeg",6,2,2,NA,"HouseObjects",1,"stim/objects/HouseObjects/safetypin2.png",2,"left","left",0.572000027,1,1,1
"119",4,119,0.9,"stim/21.jpeg",2,1,3,NA,"HouseObjects",1,"stim/objects/HouseObjects/thread2.png",1,"left","left",0.505999804,1,1,1
"120",4,120,0.7,"stim/51.jpeg",5,1,2,NA,"Instruments",2,"stim/objects/Instruments/tuba.png",1,"right","right",0.561000109,1,1,1
"121",4,121,0.5,"stim/31.jpeg",3,1,1,NA,"Instruments",2,"stim/objects/Instruments/record_player.png",1,"right","right",0.799999952,1,1,1
"122",4,122,0.5,"stim/41.jpeg",4,1,1,NA,"HouseObjects",1,"stim/objects/HouseObjects/sponge.png",4,"left","right",0.709000111,0,0,1
"123",4,123,0.5,"stim/34.jpeg",3,4,1,NA,"HouseObjects",1,"stim/objects/HouseObjects/scale.png",2,"left","right",0.582000017,0,0,1
"124",4,124,0.9,"stim/11.jpeg",1,1,3,NA,"Instruments",2,"stim/objects/Instruments/timbal2.png",1,"right","right",0.608999968,1,1,1
"125",4,125,0.7,"stim/53.jpeg",5,3,2,NA,"Instruments",2,"stim/objects/Instruments/vuvuzela.png",4,"right","right",0.708999872,1,1,1
"126",4,126,0.5,"stim/44.jpeg",4,4,1,NA,"HouseObjects",1,"stim/objects/HouseObjects/thermometer.png",2,"left","right",0.565999985,0,0,1
"127",4,127,0.7,"stim/52.jpeg",5,2,2,NA,"Instruments",2,"stim/objects/Instruments/violin.png",2,"right","right",0.631999969,1,1,1
"128",4,128,0.5,"stim/42.jpeg",4,2,1,NA,"HouseObjects",1,"stim/objects/HouseObjects/spraybottle.png",4,"left","right",0.723999977,0,0,1
"129",4,129,0.5,"stim/44.jpeg",4,4,1,NA,"Instruments",2,"stim/objects/Instruments/trumpet.png",2,"right","right",0.800000191,1,1,1
"130",4,130,0.9,"stim/13.jpeg",1,3,3,NA,"Instruments",2,"stim/objects/Instruments/trombone2.png",2,"right","right",0.73300004,1,1,1
"131",4,131,0.5,"stim/32.jpeg",3,2,1,NA,"HouseObjects",1,"stim/objects/HouseObjects/safetypin.png",1,"left","right",0.608999968,0,0,1
"132",4,132,0.5,"stim/33.jpeg",3,3,1,NA,"Instruments",2,"stim/objects/Instruments/speaker.png",1,"right","right",0.502000093,1,1,1
"133",4,133,0.7,"stim/64.jpeg",6,4,2,NA,"HouseObjects",1,"stim/objects/HouseObjects/scale2.png",3,"left","left",0.549999952,1,1,1
"134",4,134,0.5,"stim/43.jpeg",4,3,1,NA,"Instruments",2,"stim/objects/Instruments/trombone.png",3,"right","right",0.689999819,1,1,1
"135",4,135,0.9,"stim/13.jpeg",1,3,3,NA,"Instruments",2,"stim/objects/Instruments/trombone2.png",2,"right","right",0.632999897,1,1,1
"136",4,136,0.9,"stim/13.jpeg",1,3,3,NA,"Instruments",2,"stim/objects/Instruments/trombone2.png",4,"right","right",0.54399991,1,1,1
"137",4,137,0.7,"stim/64.jpeg",6,4,2,NA,"HouseObjects",1,"stim/objects/HouseObjects/scale2.png",2,"left","left",0.816999912,1,1,1
"138",4,138,0.5,"stim/41.jpeg",4,1,1,NA,"Instruments",2,"stim/objects/Instruments/timbal.png",1,"right","right",0.5,1,1,1
"139",4,139,0.5,"stim/33.jpeg",3,3,1,NA,"HouseObjects",1,"stim/objects/HouseObjects/saw.png",3,"left","left",0.77699995,1,1,1
"140",4,140,0.5,"stim/43.jpeg",4,3,1,NA,"Instruments",2,"stim/objects/Instruments/trombone.png",3,"right","right",0.67599988,1,1,1
"141",4,141,0.7,"stim/51.jpeg",5,1,2,NA,"Instruments",2,"stim/objects/Instruments/tuba.png",1,"right","right",0.549000025,1,1,1
"142",4,142,0.9,"stim/21.jpeg",2,1,3,NA,"HouseObjects",1,"stim/objects/HouseObjects/thread2.png",2,"left","left",0.637999773,1,1,1
"143",4,143,0.3,"stim/51.jpeg",5,1,2,NA,"HouseObjects",1,"stim/objects/HouseObjects/thread.png",2,"left","right",0.542000055,0,0,1
"144",4,144,0.5,"stim/41.jpeg",4,1,1,NA,"Instruments",2,"stim/objects/Instruments/timbal.png",2,"right","right",0.533000231,1,1,1
"145",4,145,0.5,"stim/33.jpeg",3,3,1,NA,"HouseObjects",1,"stim/objects/HouseObjects/saw.png",2,"left","right",0.791999817,0,0,1
"146",4,146,0.3,"stim/52.jpeg",5,2,2,NA,"HouseObjects",1,"stim/objects/HouseObjects/towel.png",4,"left","right",0.495000124,0,0,1
"147",4,147,0.5,"stim/33.jpeg",3,3,1,NA,"Instruments",2,"stim/objects/Instruments/speaker.png",3,"right","right",0.731000185,1,1,1
"148",4,148,0.3,"stim/51.jpeg",5,1,2,NA,"HouseObjects",1,"stim/objects/HouseObjects/thread.png",4,"left","right",0.601000071,0,0,1
"149",4,149,0.9,"stim/23.jpeg",2,3,3,NA,"HouseObjects",1,"stim/objects/HouseObjects/vacuumcleaner2.png",1,"left","left",0.534000158,1,1,1
"150",4,150,0.3,"stim/64.jpeg",6,4,2,NA,"Instruments",2,"stim/objects/Instruments/tambourine2.png",1,"right","left",0.554000139,0,0,1
"151",4,151,0.9,"stim/22.jpeg",2,2,3,NA,"HouseObjects",1,"stim/objects/HouseObjects/towel2.png",2,"left","left",0.541000128,1,1,1
"152",4,152,0.7,"stim/61.jpeg",6,1,2,NA,"HouseObjects",1,"stim/objects/HouseObjects/rug2.png",3,"left","left",0.809000015,1,1,1
"153",4,153,0.9,"stim/11.jpeg",1,1,3,NA,"Instruments",2,"stim/objects/Instruments/timbal2.png",1,"right","right",0.663000107,1,1,1
"154",4,154,0.5,"stim/43.jpeg",4,3,1,NA,"Instruments",2,"stim/objects/Instruments/trombone.png",4,"right","right",0.650000095,1,1,1
"155",4,155,0.7,"stim/52.jpeg",5,2,2,NA,"Instruments",2,"stim/objects/Instruments/violin.png",4,"right","right",0.559000015,1,1,1
"156",4,156,0.3,"stim/54.jpeg",5,4,2,NA,"HouseObjects",1,"stim/objects/HouseObjects/wateringcan.png",3,"left","right",0.569999933,0,0,1
"157",4,157,0.3,"stim/64.jpeg",6,4,2,NA,"Instruments",2,"stim/objects/Instruments/tambourine2.png",4,"right","left",0.558000088,0,0,1
"158",4,158,0.7,"stim/62.jpeg",6,2,2,NA,"HouseObjects",1,"stim/objects/HouseObjects/safetypin2.png",3,"left","left",0.57400012,1,1,1
"159",4,159,0.9,"stim/21.jpeg",2,1,3,NA,"HouseObjects",1,"stim/objects/HouseObjects/thread2.png",4,"left","left",0.491000175,1,1,1
"160",4,160,0.7,"stim/53.jpeg",5,3,2,NA,"Instruments",2,"stim/objects/Instruments/vuvuzela.png",1,"right","right",0.559000015,1,1,1
"161",4,161,0.9,"stim/14.jpeg",1,4,3,NA,"Instruments",2,"stim/objects/Instruments/trumpet2.png",4,"right","right",0.499000072,1,1,1
"162",4,162,0.5,"stim/41.jpeg",4,1,1,NA,"Instruments",2,"stim/objects/Instruments/timbal.png",2,"right","right",0.698999882,1,1,1
"163",4,163,0.1,"stim/22.jpeg",2,2,3,NA,"Instruments",2,"stim/objects/Instruments/violin2.png",4,"right","left",0.526000023,0,0,1
"164",4,164,0.7,"stim/63.jpeg",6,3,2,NA,"HouseObjects",1,"stim/objects/HouseObjects/saw2.png",4,"left","left",0.50999999,1,1,1
"165",4,165,0.7,"stim/64.jpeg",6,4,2,NA,"HouseObjects",1,"stim/objects/HouseObjects/scale2.png",2,"left","left",0.565999985,1,1,1
"166",4,166,0.7,"stim/53.jpeg",5,3,2,NA,"Instruments",2,"stim/objects/Instruments/vuvuzela.png",1,"right","right",0.5,1,1,1
"167",4,167,0.7,"stim/54.jpeg",5,4,2,NA,"Instruments",2,"stim/objects/Instruments/xylophone.png",1,"right","right",0.516000032,1,1,1
"168",4,168,0.9,"stim/14.jpeg",1,4,3,NA,"Instruments",2,"stim/objects/Instruments/trumpet2.png",3,"right","right",0.542999983,1,1,1
"169",4,169,0.5,"stim/42.jpeg",4,2,1,NA,"Instruments",2,"stim/objects/Instruments/triangle.png",2,"right","right",0.576999903,1,1,1
"170",4,170,0.1,"stim/12.jpeg",1,2,3,NA,"HouseObjects",1,"stim/objects/HouseObjects/spraybottle2.png",3,"left","right",0.491999865,0,0,1
"171",4,171,0.5,"stim/41.jpeg",4,1,1,NA,"HouseObjects",1,"stim/objects/HouseObjects/sponge.png",3,"left","right",0.467999935,0,0,1
"172",4,172,0.3,"stim/64.jpeg",6,4,2,NA,"Instruments",2,"stim/objects/Instruments/tambourine2.png",3,"right","right",0.764999866,1,1,1
"173",4,173,0.3,"stim/53.jpeg",5,3,2,NA,"HouseObjects",1,"stim/objects/HouseObjects/vacuumcleaner.png",3,"left","right",0.773999929,0,0,1
"174",4,174,0.9,"stim/12.jpeg",1,2,3,NA,"Instruments",2,"stim/objects/Instruments/triangle2.png",1,"right","right",0.606000185,1,1,1
"175",4,175,0.9,"stim/24.jpeg",2,4,3,NA,"HouseObjects",1,"stim/objects/HouseObjects/wateringcan2.png",3,"left","left",0.569000006,1,1,1
"176",4,176,0.5,"stim/34.jpeg",3,4,1,NA,"HouseObjects",1,"stim/objects/HouseObjects/scale.png",3,"left","right",0.623999834,0,0,1
"177",4,177,0.7,"stim/62.jpeg",6,2,2,NA,"HouseObjects",1,"stim/objects/HouseObjects/safetypin2.png",1,"left","left",0.492999792,1,1,1
"178",4,178,0.3,"stim/63.jpeg",6,3,2,NA,"Instruments",2,"stim/objects/Instruments/speaker2.png",3,"right","left",0.53399992,0,0,1
"179",4,179,0.9,"stim/13.jpeg",1,3,3,NA,"Instruments",2,"stim/objects/Instruments/trombone2.png",3,"right","right",0.632999897,1,1,1
"180",4,180,0.9,"stim/13.jpeg",1,3,3,NA,"Instruments",2,"stim/objects/Instruments/trombone2.png",3,"right","right",0.582999945,1,1,1
"181",4,181,0.7,"stim/51.jpeg",5,1,2,NA,"Instruments",2,"stim/objects/Instruments/tuba.png",1,"right","left",0.665999889,0,0,1
"182",4,182,0.9,"stim/23.jpeg",2,3,3,NA,"HouseObjects",1,"stim/objects/HouseObjects/vacuumcleaner2.png",1,"left","left",0.496999979,1,1,1
"183",4,183,0.5,"stim/43.jpeg",4,3,1,NA,"Instruments",2,"stim/objects/Instruments/trombone.png",4,"right","",NA,0,0,1
"184",4,184,0.9,"stim/22.jpeg",2,2,3,NA,"HouseObjects",1,"stim/objects/HouseObjects/towel2.png",3,"left","left",0.532999992,1,1,1
"185",4,185,0.1,"stim/21.jpeg",2,1,3,NA,"Instruments",2,"stim/objects/Instruments/tuba2.png",1,"right","left",0.520999908,0,0,1
"186",4,186,0.9,"stim/23.jpeg",2,3,3,NA,"HouseObjects",1,"stim/objects/HouseObjects/vacuumcleaner2.png",4,"left","left",0.471999884,1,1,1
"187",4,187,0.9,"stim/24.jpeg",2,4,3,NA,"HouseObjects",1,"stim/objects/HouseObjects/wateringcan2.png",1,"left","left",0.467000008,1,1,1
"188",4,188,0.7,"stim/61.jpeg",6,1,2,NA,"HouseObjects",1,"stim/objects/HouseObjects/rug2.png",2,"left","left",0.588000059,1,1,1
"189",4,189,0.9,"stim/23.jpeg",2,3,3,NA,"HouseObjects",1,"stim/objects/HouseObjects/vacuumcleaner2.png",4,"left","left",0.48300004,1,1,1
"190",4,190,0.5,"stim/44.jpeg",4,4,1,NA,"HouseObjects",1,"stim/objects/HouseObjects/thermometer.png",2,"left","right",0.532999992,0,0,1
"191",4,191,0.3,"stim/52.jpeg",5,2,2,NA,"HouseObjects",1,"stim/objects/HouseObjects/towel.png",1,"left","right",0.535000086,0,0,1
"192",4,192,0.9,"stim/24.jpeg",2,4,3,NA,"HouseObjects",1,"stim/objects/HouseObjects/wateringcan2.png",4,"left","left",0.551000118,1,1,1
"193",4,193,0.7,"stim/64.jpeg",6,4,2,NA,"HouseObjects",1,"stim/objects/HouseObjects/scale2.png",4,"left","left",0.569999933,1,1,1
"194",4,194,0.7,"stim/51.jpeg",5,1,2,NA,"Instruments",2,"stim/objects/Instruments/tuba.png",2,"right","right",0.49000001,1,1,1
"195",4,195,0.7,"stim/64.jpeg",6,4,2,NA,"HouseObjects",1,"stim/objects/HouseObjects/scale2.png",4,"left","left",0.508999825,1,1,1
"196",4,196,0.9,"stim/11.jpeg",1,1,3,NA,"Instruments",2,"stim/objects/Instruments/timbal2.png",1,"right","right",0.732999802,1,1,1
"197",4,197,0.7,"stim/51.jpeg",5,1,2,NA,"Instruments",2,"stim/objects/Instruments/tuba.png",2,"right","right",0.566999912,1,1,1
"198",4,198,0.5,"stim/34.jpeg",3,4,1,NA,"Instruments",2,"stim/objects/Instruments/tambourine.png",1,"right","right",0.855000019,1,1,1
"199",4,199,0.3,"stim/61.jpeg",6,1,2,NA,"Instruments",2,"stim/objects/Instruments/record_player2.png",1,"right","left",0.651000023,0,0,1
"200",4,200,0.9,"stim/14.jpeg",1,4,3,NA,"Instruments",2,"stim/objects/Instruments/trumpet2.png",1,"right","",NA,0,0,1
"201",4,201,0.5,"stim/34.jpeg",3,4,1,NA,"Instruments",2,"stim/objects/Instruments/tambourine.png",1,"right","right",0.898999929,1,1,1
"202",4,202,0.9,"stim/14.jpeg",1,4,3,NA,"Instruments",2,"stim/objects/Instruments/trumpet2.png",2,"right","right",0.754999876,1,1,1
"203",4,203,0.3,"stim/61.jpeg",6,1,2,NA,"Instruments",2,"stim/objects/Instruments/record_player2.png",3,"right","left",0.799000025,0,0,1
"204",4,204,0.1,"stim/24.jpeg",2,4,3,NA,"Instruments",2,"stim/objects/Instruments/xylophone2.png",3,"right","left",0.534000158,0,0,1
"205",4,205,0.9,"stim/22.jpeg",2,2,3,NA,"HouseObjects",1,"stim/objects/HouseObjects/towel2.png",3,"left","left",0.473999977,1,1,1
"206",4,206,0.9,"stim/14.jpeg",1,4,3,NA,"Instruments",2,"stim/objects/Instruments/trumpet2.png",3,"right","right",0.686000109,1,1,1
"207",4,207,0.9,"stim/13.jpeg",1,3,3,NA,"Instruments",2,"stim/objects/Instruments/trombone2.png",2,"right","right",0.556999922,1,1,1
"208",4,208,0.5,"stim/44.jpeg",4,4,1,NA,"Instruments",2,"stim/objects/Instruments/trumpet.png",3,"right","right",0.45600009,1,1,1
"209",4,209,0.7,"stim/63.jpeg",6,3,2,NA,"HouseObjects",1,"stim/objects/HouseObjects/saw2.png",4,"left","left",0.536000013,1,1,1
"210",4,210,0.9,"stim/24.jpeg",2,4,3,NA,"HouseObjects",1,"stim/objects/HouseObjects/wateringcan2.png",3,"left","left",0.536000013,1,1,1
"211",4,211,0.9,"stim/13.jpeg",1,3,3,NA,"Instruments",2,"stim/objects/Instruments/trombone2.png",3,"right","right",0.667999983,1,1,1
"212",4,212,0.5,"stim/31.jpeg",3,1,1,NA,"Instruments",2,"stim/objects/Instruments/record_player.png",1,"right","right",0.778000116,1,1,1
"213",4,213,0.9,"stim/14.jpeg",1,4,3,NA,"Instruments",2,"stim/objects/Instruments/trumpet2.png",3,"right","right",0.590000153,1,1,1
"214",4,214,0.5,"stim/42.jpeg",4,2,1,NA,"HouseObjects",1,"stim/objects/HouseObjects/spraybottle.png",4,"left","right",0.65199995,0,0,1
"215",4,215,0.9,"stim/23.jpeg",2,3,3,NA,"HouseObjects",1,"stim/objects/HouseObjects/vacuumcleaner2.png",3,"left","left",0.492000103,1,1,1
"216",4,216,0.9,"stim/21.jpeg",2,1,3,NA,"HouseObjects",1,"stim/objects/HouseObjects/thread2.png",4,"left","left",0.493999958,1,1,1
"217",4,217,0.5,"stim/43.jpeg",4,3,1,NA,"HouseObjects",1,"stim/objects/HouseObjects/teapot.png",2,"left","",NA,0,0,1
"218",4,218,0.5,"stim/33.jpeg",3,3,1,NA,"Instruments",2,"stim/objects/Instruments/speaker.png",2,"right","right",0.640000105,1,1,1
"219",4,219,0.5,"stim/34.jpeg",3,4,1,NA,"HouseObjects",1,"stim/objects/HouseObjects/scale.png",3,"left","right",0.616000175,0,0,1
"220",4,220,0.1,"stim/23.jpeg",2,3,3,NA,"Instruments",2,"stim/objects/Instruments/vuvuzela2.png",2,"right","left",0.455999851,0,0,1
"221",4,221,0.5,"stim/44.jpeg",4,4,1,NA,"HouseObjects",1,"stim/objects/HouseObjects/thermometer.png",3,"left","right",0.692000151,0,0,1
"222",4,222,0.5,"stim/32.jpeg",3,2,1,NA,"HouseObjects",1,"stim/objects/HouseObjects/safetypin.png",3,"left","right",0.526000023,0,0,1
"223",4,223,0.5,"stim/44.jpeg",4,4,1,NA,"HouseObjects",1,"stim/objects/HouseObjects/thermometer.png",3,"left","right",0.523000002,0,0,1
"224",4,224,0.5,"stim/32.jpeg",3,2,1,NA,"Instruments",2,"stim/objects/Instruments/saxophone.png",1,"right","right",0.457000017,1,1,1
"225",4,225,0.3,"stim/51.jpeg",5,1,2,NA,"HouseObjects",1,"stim/objects/HouseObjects/thread.png",1,"left","right",0.476999998,0,0,1
"226",4,226,0.3,"stim/61.jpeg",6,1,2,NA,"Instruments",2,"stim/objects/Instruments/record_player2.png",1,"right","left",0.605999947,0,0,1
"227",4,227,0.9,"stim/13.jpeg",1,3,3,NA,"Instruments",2,"stim/objects/Instruments/trombone2.png",2,"right","right",0.657999992,1,1,1
"228",4,228,0.9,"stim/24.jpeg",2,4,3,NA,"HouseObjects",1,"stim/objects/HouseObjects/wateringcan2.png",4,"left","left",0.515000105,1,1,1
"229",4,229,0.9,"stim/22.jpeg",2,2,3,NA,"HouseObjects",1,"stim/objects/HouseObjects/towel2.png",2,"left","left",0.413000107,1,1,1
"230",4,230,0.7,"stim/54.jpeg",5,4,2,NA,"Instruments",2,"stim/objects/Instruments/xylophone.png",1,"right","right",0.707000017,1,1,1
"231",4,231,0.9,"stim/24.jpeg",2,4,3,NA,"HouseObjects",1,"stim/objects/HouseObjects/wateringcan2.png",2,"left","left",0.585999966,1,1,1
"232",4,232,0.5,"stim/42.jpeg",4,2,1,NA,"HouseObjects",1,"stim/objects/HouseObjects/spraybottle.png",4,"left","right",0.614000082,0,0,1
"233",4,233,0.5,"stim/34.jpeg",3,4,1,NA,"Instruments",2,"stim/objects/Instruments/tambourine.png",2,"right","right",0.559000015,1,1,1
"234",4,234,0.3,"stim/52.jpeg",5,2,2,NA,"HouseObjects",1,"stim/objects/HouseObjects/towel.png",2,"left","right",0.628000021,0,0,1
"235",4,235,0.9,"stim/22.jpeg",2,2,3,NA,"HouseObjects",1,"stim/objects/HouseObjects/towel2.png",3,"left","left",0.509000063,1,1,1
"236",4,236,0.5,"stim/41.jpeg",4,1,1,NA,"HouseObjects",1,"stim/objects/HouseObjects/sponge.png",2,"left","right",0.517000198,0,0,1
"237",4,237,0.7,"stim/63.jpeg",6,3,2,NA,"HouseObjects",1,"stim/objects/HouseObjects/saw2.png",3,"left","left",0.565000057,1,1,1
"238",4,238,0.9,"stim/11.jpeg",1,1,3,NA,"Instruments",2,"stim/objects/Instruments/timbal2.png",1,"right","right",0.440000057,1,1,1
"239",4,239,0.7,"stim/62.jpeg",6,2,2,NA,"HouseObjects",1,"stim/objects/HouseObjects/safetypin2.png",3,"left","left",0.487999916,1,1,1
"240",4,240,0.5,"stim/41.jpeg",4,1,1,NA,"HouseObjects",1,"stim/objects/HouseObjects/sponge.png",4,"left","right",0.584000111,0,0,1
